time	DeviceName	AccX(g)	AccY(g)	AccZ(g)	AsX(°/s)	AsY(°/s)	AsZ(°/s)	AngleX(°)	AngleY(°)	AngleZ(°)	HX(uT)	HY(uT)	HZ(uT)	Q0()	Q1()	Q2()	Q3()	Temperature(°C)	Version()	Battery level(%)
2025-3-27 14:49:58.194	WT901BLE68-01(48591DE3C19B)	-0.319	-0.919	0.231	1.648	5.249	-4.517	-77.06	17.19	-89.52	-107.310	1.372	57.820	0.61829	-0.35648	0.51630	-0.47324	30.1	13111	100
2025-3-27 14:49:58.195	WT901BLE68-01(48591DE3C19B)	-0.324	-0.919	0.231	1.648	5.249	-4.517	-77.06	17.17	-89.59	-107.310	1.372	57.820	0.61829	-0.35648	0.51630	-0.47324	30.1	13111	100
2025-3-27 14:49:58.195	WT901BLE68-01(48591DE3C19B)	-0.324	-0.912	0.234	1.282	4.456	-4.517	-77.05	17.14	-89.65	-107.310	1.372	57.820	0.61829	-0.35648	0.51630	-0.47324	30.1	13111	100
2025-3-27 14:49:58.195	WT901BLE68-01(48591DE3C19B)	-0.327	-0.912	0.234	1.282	4.456	-4.517	-77.05	17.12	-89.71	-107.310	1.372	57.820	0.61829	-0.35648	0.51630	-0.47324	30.1	13111	100
2025-3-27 14:49:58.224	WT901BLE68-01(48591DE3C19B)	-0.327	-0.912	0.237	0.732	2.808	-4.639	-77.05	17.09	-89.76	-107.310	1.372	57.820	0.61829	-0.35648	0.51630	-0.47324	30.1	13111	100
2025-3-27 14:49:58.224	WT901BLE68-01(48591DE3C19B)	-0.323	-0.912	0.237	0.732	2.808	-4.639	-77.05	17.06	-89.80	-107.310	1.372	57.820	0.61829	-0.35648	0.51630	-0.47324	30.1	13111	100
2025-3-27 14:49:58.224	WT901BLE68-01(48591DE3C19B)	-0.323	-0.914	0.239	0.427	1.404	-4.822	-77.04	17.02	-89.84	-107.310	1.372	57.820	0.61829	-0.35648	0.51630	-0.47324	30.1	13111	100
2025-3-27 14:49:58.224	WT901BLE68-01(48591DE3C19B)	-0.319	-0.914	0.239	0.427	1.404	-4.822	-77.04	16.99	-89.86	-107.310	1.372	57.820	0.61829	-0.35648	0.51630	-0.47324	30.1	13111	100
2025-3-27 14:49:58.253	WT901BLE68-01(48591DE3C19B)	-0.319	-0.917	0.241	0.549	1.160	-5.005	-77.03	16.96	-89.89	-107.310	1.372	57.820	0.61829	-0.35648	0.51630	-0.47324	30.1	13111	100
2025-3-27 14:49:58.253	WT901BLE68-01(48591DE3C19B)	-0.317	-0.917	0.241	0.549	1.160	-5.005	-77.03	16.92	-89.92	-107.310	1.372	57.820	0.61829	-0.35648	0.51630	-0.47324	30.1	13111	100
2025-3-27 14:49:58.253	WT901BLE68-01(48591DE3C19B)	-0.317	-0.919	0.241	1.099	1.709	-5.127	-77.01	16.89	-89.95	-108.878	0.098	56.350	0.61829	-0.35648	0.51630	-0.47324	30.1	13111	100
2025-3-27 14:49:58.253	WT901BLE68-01(48591DE3C19B)	-0.320	-0.919	0.241	1.099	1.709	-5.127	-77.00	16.85	-89.98	-108.878	0.098	56.350	0.61829	-0.35648	0.51630	-0.47324	30.1	13111	100
2025-3-27 14:49:58.313	WT901BLE68-01(48591DE3C19B)	-0.320	-0.916	0.240	1.526	2.380	-5.127	-76.99	16.81	-90.02	-108.878	0.098	56.350	0.61829	-0.35648	0.51630	-0.47324	30.1	13111	100
2025-3-27 14:49:58.313	WT901BLE68-01(48591DE3C19B)	-0.321	-0.916	0.240	1.526	2.380	-5.127	-76.98	16.78	-90.06	-108.878	0.098	56.350	0.61829	-0.35648	0.51630	-0.47324	30.1	13111	100
2025-3-27 14:49:58.314	WT901BLE68-01(48591DE3C19B)	-0.321	-0.916	0.236	1.831	2.258	-5.005	-76.96	16.75	-90.09	-108.878	0.098	56.350	0.61829	-0.35648	0.51630	-0.47324	30.1	13111	100
2025-3-27 14:49:58.314	WT901BLE68-01(48591DE3C19B)	-0.324	-0.916	0.236	1.831	2.258	-5.005	-76.95	16.72	-90.13	-108.878	0.098	56.350	0.61829	-0.35648	0.51630	-0.47324	30.1	13111	100
2025-3-27 14:49:58.404	WT901BLE68-01(48591DE3C19B)	-0.324	-0.906	0.236	1.770	1.770	-4.822	-76.93	16.69	-90.16	-108.878	0.098	56.350	0.61829	-0.35648	0.51630	-0.47324	30.1	13111	100
2025-3-27 14:49:58.404	WT901BLE68-01(48591DE3C19B)	-0.328	-0.906	0.236	1.770	1.770	-4.822	-76.91	16.66	-90.19	-108.878	0.098	56.350	0.61829	-0.35648	0.51630	-0.47324	30.1	13111	100
2025-3-27 14:49:58.404	WT901BLE68-01(48591DE3C19B)	-0.328	-0.901	0.237	1.160	0.549	-4.761	-76.90	16.63	-90.21	-108.878	0.098	56.350	0.61829	-0.35648	0.51630	-0.47324	30.1	13111	100
2025-3-27 14:49:58.404	WT901BLE68-01(48591DE3C19B)	-0.328	-0.901	0.237	1.160	0.549	-4.761	-76.88	16.59	-90.23	-108.878	0.098	56.350	0.61829	-0.35648	0.51630	-0.47324	30.1	13111	100
2025-3-27 14:49:58.404	WT901BLE68-01(48591DE3C19B)	-0.328	-0.911	0.237	-0.122	-0.854	-4.700	-76.88	16.56	-90.24	-108.878	0.098	56.350	0.61829	-0.35648	0.51630	-0.47324	30.1	13111	100
2025-3-27 14:49:58.404	WT901BLE68-01(48591DE3C19B)	-0.326	-0.911	0.237	-0.122	-0.854	-4.700	-76.87	16.53	-90.24	-108.878	0.098	56.350	0.61829	-0.35648	0.51630	-0.47324	30.1	13111	100
2025-3-27 14:49:58.405	WT901BLE68-01(48591DE3C19B)	-0.326	-0.931	0.237	-0.122	-1.526	-4.456	-76.86	16.50	-90.24	-108.878	0.098	56.350	0.61829	-0.35648	0.51630	-0.47324	30.1	13111	100
2025-3-27 14:49:58.405	WT901BLE68-01(48591DE3C19B)	-0.324	-0.931	0.237	-0.122	-1.526	-4.456	-76.85	16.46	-90.24	-108.878	0.098	56.350	0.61829	-0.35648	0.51630	-0.47324	30.1	13111	100
2025-3-27 14:49:58.435	WT901BLE68-01(48591DE3C19B)	-0.324	-0.926	0.240	0.427	-1.648	-3.723	-76.84	16.44	-90.23	-108.878	0.098	56.350	0.61829	-0.35648	0.51630	-0.47324	30.1	13111	100
2025-3-27 14:49:58.436	WT901BLE68-01(48591DE3C19B)	-0.319	-0.926	0.240	0.427	-1.648	-3.723	-76.82	16.41	-90.23	-108.878	0.098	56.350	0.61829	-0.35648	0.51630	-0.47324	30.1	13111	100
2025-3-27 14:49:58.436	WT901BLE68-01(48591DE3C19B)	-0.319	-0.917	0.237	0.366	-1.770	-2.930	-76.81	16.39	-90.21	-108.878	0.098	56.350	0.61829	-0.35648	0.51630	-0.47324	30.1	13111	100
2025-3-27 14:49:58.436	WT901BLE68-01(48591DE3C19B)	-0.315	-0.917	0.237	0.366	-1.770	-2.930	-76.79	16.38	-90.21	-108.878	0.098	56.350	0.61829	-0.35648	0.51630	-0.47324	30.1	13111	100
2025-3-27 14:49:58.465	WT901BLE68-01(48591DE3C19B)	-0.157	-0.911	0.232	0.366	-1.343	-2.075	-76.78	16.36	-90.20	-108.878	0.098	56.350	0.61829	-0.35648	0.51630	-0.47324	30.1	13111	100
2025-3-27 14:49:58.465	WT901BLE68-01(48591DE3C19B)	-0.313	-0.455	0.116	0.366	-1.343	-2.075	-76.77	16.36	-90.19	-108.878	0.098	56.350	0.61829	-0.35648	0.51630	-0.47324	30.1	13111	100
2025-3-27 14:49:58.465	WT901BLE68-01(48591DE3C19B)	-0.313	-0.909	0.238	0.061	-1.038	-1.404	-76.76	16.36	-90.19	-108.878	0.098	56.350	0.61829	-0.35648	0.51630	-0.47324	30.1	13111	100
2025-3-27 14:49:58.465	WT901BLE68-01(48591DE3C19B)	-0.310	-0.909	0.238	0.061	-1.038	-1.404	-76.74	16.35	-90.18	-108.878	0.098	56.350	0.61032	-0.35480	0.51392	-0.48724	30.1	13111	100
2025-3-27 14:49:58.554	WT901BLE68-01(48591DE3C19B)	-0.310	-0.913	0.241	-0.305	-0.366	-0.916	-76.74	16.36	-90.18	-108.878	0.098	56.350	0.61032	-0.35480	0.51392	-0.48724	30.1	13111	100
2025-3-27 14:49:58.554	WT901BLE68-01(48591DE3C19B)	-0.312	-0.913	0.241	-0.305	-0.366	-0.916	-76.73	16.36	-90.19	-108.878	0.098	56.350	0.61032	-0.35480	0.51392	-0.48724	30.1	13111	100
2025-3-27 14:49:58.554	WT901BLE68-01(48591DE3C19B)	-0.312	-0.917	0.240	-0.549	0.793	-0.977	-76.73	16.37	-90.20	-108.878	0.098	56.350	0.61032	-0.35480	0.51392	-0.48724	30.1	13111	100
2025-3-27 14:49:58.554	WT901BLE68-01(48591DE3C19B)	-0.317	-0.917	0.240	-0.549	0.793	-0.977	-76.74	16.38	-90.21	-108.878	0.098	56.350	0.61032	-0.35480	0.51392	-0.48724	30.1	13111	100
2025-3-27 14:49:58.555	WT901BLE68-01(48591DE3C19B)	-0.317	-0.926	0.241	-0.793	0.610	-1.404	-76.74	16.38	-90.22	-108.878	0.098	56.350	0.61032	-0.35480	0.51392	-0.48724	30.1	13111	100
2025-3-27 14:49:58.555	WT901BLE68-01(48591DE3C19B)	-0.321	-0.926	0.241	-0.793	0.610	-1.404	-76.74	16.38	-90.23	-108.878	0.098	56.350	0.61032	-0.35480	0.51392	-0.48724	30.1	13111	100
2025-3-27 14:49:58.555	WT901BLE68-01(48591DE3C19B)	-0.321	-0.932	0.243	-1.099	-0.916	-1.953	-76.74	16.36	-90.23	-108.878	0.098	56.350	0.61032	-0.35480	0.51392	-0.48724	30.1	13111	100
2025-3-27 14:49:58.555	WT901BLE68-01(48591DE3C19B)	-0.316	-0.932	0.243	-1.099	-0.916	-1.953	-76.74	16.36	-90.23	-108.878	0.098	56.350	0.61032	-0.35480	0.51392	-0.48724	30.1	13111	100
2025-3-27 14:49:58.585	WT901BLE68-01(48591DE3C19B)	-0.316	-0.932	0.245	-1.099	-2.380	-2.258	-76.74	16.34	-90.21	-108.878	0.098	56.350	0.61032	-0.35480	0.51392	-0.48724	30.1	13111	100
2025-3-27 14:49:58.585	WT901BLE68-01(48591DE3C19B)	-0.303	-0.932	0.245	-1.099	-2.380	-2.258	-76.74	16.33	-90.19	-108.878	0.098	56.350	0.61032	-0.35480	0.51392	-0.48724	30.1	13111	100
2025-3-27 14:49:58.585	WT901BLE68-01(48591DE3C19B)	-0.303	-0.929	0.243	-0.732	-2.014	-2.258	-76.73	16.31	-90.18	-108.878	0.098	56.350	0.61032	-0.35480	0.51392	-0.48724	30.1	13111	100
2025-3-27 14:49:58.585	WT901BLE68-01(48591DE3C19B)	-0.298	-0.929	0.243	-0.732	-2.014	-2.258	-76.73	16.30	-90.16	-108.878	0.098	56.350	0.61032	-0.35480	0.51392	-0.48724	30.1	13111	100
2025-3-27 14:49:58.645	WT901BLE68-01(48591DE3C19B)	-0.298	-0.919	0.241	0.000	-0.122	-1.892	-76.72	16.29	-90.17	-108.878	0.098	56.350	0.61032	-0.35480	0.51392	-0.48724	30.1	13111	100
2025-3-27 14:49:58.646	WT901BLE68-01(48591DE3C19B)	-0.300	-0.919	0.241	0.000	-0.122	-1.892	-76.72	16.28	-90.18	-108.878	0.098	56.350	0.61032	-0.35480	0.51392	-0.48724	30.1	13111	100
2025-3-27 14:49:58.646	WT901BLE68-01(48591DE3C19B)	-0.300	-0.909	0.240	0.305	1.221	-1.526	-76.71	16.28	-90.20	-108.878	0.098	56.350	0.61032	-0.35480	0.51392	-0.48724	30.1	13111	100
2025-3-27 14:49:58.646	WT901BLE68-01(48591DE3C19B)	-0.301	-0.909	0.240	0.305	1.221	-1.526	-76.70	16.28	-90.21	-108.878	0.098	56.350	0.61032	-0.35480	0.51392	-0.48724	30.1	13111	100
2025-3-27 14:49:58.734	WT901BLE68-01(48591DE3C19B)	-0.301	-0.903	0.240	0.427	1.648	-0.977	-76.70	16.29	-90.24	-108.878	0.098	56.350	0.61032	-0.35480	0.51392	-0.48724	30.1	13111	100
2025-3-27 14:49:58.734	WT901BLE68-01(48591DE3C19B)	-0.299	-0.903	0.240	0.427	1.648	-0.977	-76.69	16.29	-90.25	-108.878	0.098	56.350	0.61032	-0.35480	0.51392	-0.48724	30.1	13111	100
2025-3-27 14:49:58.734	WT901BLE68-01(48591DE3C19B)	-0.299	-0.899	0.237	0.488	1.709	-0.305	-76.68	16.30	-90.27	-108.878	0.098	56.350	0.61032	-0.35480	0.51392	-0.48724	30.1	13111	100
2025-3-27 14:49:58.734	WT901BLE68-01(48591DE3C19B)	-0.296	-0.899	0.237	0.488	1.709	-0.305	-76.67	16.31	-90.30	-109.368	-0.882	56.350	0.61032	-0.35480	0.51392	-0.48724	30.1	13111	100
2025-3-27 14:49:58.735	WT901BLE68-01(48591DE3C19B)	-0.296	-0.892	0.233	0.366	1.587	0.305	-76.66	16.33	-90.31	-109.368	-0.882	56.350	0.61032	-0.35480	0.51392	-0.48724	30.1	13111	100
2025-3-27 14:49:58.735	WT901BLE68-01(48591DE3C19B)	-0.292	-0.892	0.233	0.366	1.587	0.305	-76.66	16.35	-90.33	-109.368	-0.882	56.350	0.61032	-0.35480	0.51392	-0.48724	30.1	13111	100
2025-3-27 14:49:58.735	WT901BLE68-01(48591DE3C19B)	-0.295	-0.910	0.232	-0.549	1.709	0.793	-76.66	16.36	-90.35	-109.368	-0.882	56.350	0.61032	-0.35480	0.51392	-0.48724	30.1	13111	100
2025-3-27 14:49:58.735	WT901BLE68-01(48591DE3C19B)	-0.295	-0.922	0.228	0.061	1.709	1.221	-76.66	16.39	-90.36	-109.368	-0.882	56.350	0.61032	-0.35480	0.51392	-0.48724	30.1	13111	100
2025-3-27 14:49:58.765	WT901BLE68-01(48591DE3C19B)	-0.301	-0.922	0.228	0.061	1.709	1.221	-76.65	16.41	-90.38	-109.368	-0.882	56.350	0.61032	-0.35480	0.51392	-0.48724	30.1	13111	100
2025-3-27 14:49:58.765	WT901BLE68-01(48591DE3C19B)	-0.301	-0.927	0.228	-0.427	0.244	1.038	-76.65	16.44	-90.39	-109.368	-0.882	56.350	0.61032	-0.35480	0.51392	-0.48724	30.1	13111	100
2025-3-27 14:49:58.765	WT901BLE68-01(48591DE3C19B)	-0.302	-0.927	0.228	-0.427	0.244	1.038	-76.65	16.45	-90.39	-109.368	-0.882	56.350	0.61032	-0.35480	0.51392	-0.48724	30.1	13111	100
2025-3-27 14:49:58.765	WT901BLE68-01(48591DE3C19B)	-0.302	-0.943	0.233	-0.977	-1.953	0.427	-76.65	16.46	-90.38	-109.368	-0.882	56.350	0.61032	-0.35480	0.51392	-0.48724	30.1	13111	100
2025-3-27 14:49:58.824	WT901BLE68-01(48591DE3C19B)	-0.295	-0.943	0.233	-0.977	-1.953	0.427	-76.65	16.47	-90.36	-109.368	-0.882	56.350	0.61032	-0.35480	0.51392	-0.48724	30.1	13111	100
2025-3-27 14:49:58.824	WT901BLE68-01(48591DE3C19B)	-0.295	-0.948	0.234	-0.183	-3.235	0.366	-76.64	16.47	-90.34	-109.368	-0.882	56.350	0.61032	-0.35480	0.51392	-0.48724	30.1	13111	100
2025-3-27 14:49:58.824	WT901BLE68-01(48591DE3C19B)	-0.275	-0.948	0.234	-0.183	-3.235	0.366	-76.62	16.48	-90.30	-109.368	-0.882	56.350	0.61032	-0.35480	0.51392	-0.48724	30.1	13111	100
2025-3-27 14:49:58.824	WT901BLE68-01(48591DE3C19B)	-0.275	-0.942	0.226	0.122	-1.831	0.427	-76.61	16.48	-90.28	-109.368	-0.882	56.350	0.61032	-0.35480	0.51392	-0.48724	30.1	13111	100
2025-3-27 14:49:58.825	WT901BLE68-01(48591DE3C19B)	-0.262	-0.942	0.226	0.122	-1.831	0.427	-76.60	16.48	-90.26	-109.368	-0.882	56.350	0.61032	-0.35480	0.51392	-0.48724	30.1	13111	100
2025-3-27 14:49:58.825	WT901BLE68-01(48591DE3C19B)	-0.262	-0.944	0.220	0.610	2.319	0.671	-76.59	16.50	-90.26	-109.368	-0.882	56.350	0.61032	-0.35480	0.51392	-0.48724	30.1	13111	100
2025-3-27 14:49:58.825	WT901BLE68-01(48591DE3C19B)	-0.260	-0.944	0.220	0.610	2.319	0.671	-76.59	16.51	-90.29	-109.368	-0.882	56.350	0.61032	-0.35480	0.51392	-0.48724	30.1	13111	100
2025-3-27 14:49:58.825	WT901BLE68-01(48591DE3C19B)	-0.260	-0.951	0.222	0.854	7.446	1.038	-76.59	16.53	-90.34	-109.368	-0.882	56.350	0.61032	-0.35480	0.51392	-0.48724	30.1	13111	100
2025-3-27 14:49:58.914	WT901BLE68-01(48591DE3C19B)	-0.271	-0.951	0.222	0.854	7.446	1.038	-76.60	16.56	-90.41	-109.368	-0.882	56.350	0.61032	-0.35480	0.51392	-0.48724	30.1	13111	100
2025-3-27 14:49:58.914	WT901BLE68-01(48591DE3C19B)	-0.271	-0.965	0.227	0.427	11.597	0.793	-76.62	16.59	-90.51	-109.368	-0.882	56.350	0.60983	-0.35114	0.51569	-0.48865	30.1	13111	100
2025-3-27 14:49:58.914	WT901BLE68-01(48591DE3C19B)	-0.285	-0.965	0.227	0.427	11.597	0.793	-76.65	16.62	-90.63	-109.368	-0.882	56.350	0.60983	-0.35114	0.51569	-0.48865	30.1	13111	100
2025-3-27 14:49:58.914	WT901BLE68-01(48591DE3C19B)	-0.285	-0.989	0.231	-0.427	13.367	-0.244	-76.68	16.65	-90.75	-109.368	-0.882	56.350	0.60983	-0.35114	0.51569	-0.48865	30.1	13111	100
2025-3-27 14:49:58.916	WT901BLE68-01(48591DE3C19B)	-0.293	-0.989	0.231	-0.427	13.367	-0.244	-76.72	16.68	-90.89	-109.368	-0.882	56.350	0.60983	-0.35114	0.51569	-0.48865	30.1	13111	100
2025-3-27 14:49:58.916	WT901BLE68-01(48591DE3C19B)	-0.293	-0.996	0.236	-0.977	12.634	-1.648	-76.77	16.69	-91.03	-109.368	-0.882	56.350	0.60983	-0.35114	0.51569	-0.48865	30.1	13111	100
2025-3-27 14:49:58.916	WT901BLE68-01(48591DE3C19B)	-0.293	-0.996	0.236	-0.977	12.634	-1.648	-76.82	16.70	-91.16	-109.368	-0.882	56.350	0.60983	-0.35114	0.51569	-0.48865	30.1	13111	100
2025-3-27 14:49:58.916	WT901BLE68-01(48591DE3C19B)	-0.293	-0.983	0.247	-1.221	10.986	-3.662	-76.86	16.70	-91.29	-109.368	-0.882	56.350	0.60983	-0.35114	0.51569	-0.48865	30.1	13111	100
2025-3-27 14:49:58.945	WT901BLE68-01(48591DE3C19B)	-0.292	-0.983	0.247	-1.221	10.986	-3.662	-76.90	16.68	-91.41	-109.368	-0.882	56.350	0.60983	-0.35114	0.51569	-0.48865	30.1	13111	100
2025-3-27 14:49:58.945	WT901BLE68-01(48591DE3C19B)	-0.292	-0.956	0.251	-1.465	9.216	-6.042	-76.94	16.66	-91.53	-109.368	-0.882	56.350	0.60983	-0.35114	0.51569	-0.48865	30.1	13111	100
2025-3-27 14:49:58.946	WT901BLE68-01(48591DE3C19B)	-0.278	-0.956	0.251	-1.465	9.216	-6.042	-76.99	16.62	-91.63	-109.368	-0.882	56.350	0.60983	-0.35114	0.51569	-0.48865	30.1	13111	100
2025-3-27 14:49:58.946	WT901BLE68-01(48591DE3C19B)	-0.278	-0.910	0.247	-1.465	7.996	-8.118	-77.03	16.56	-91.74	-109.368	-0.882	56.350	0.60983	-0.35114	0.51569	-0.48865	30.1	13111	100
2025-3-27 14:49:59.64	WT901BLE68-01(48591DE3C19B)	-0.264	-0.910	0.247	-1.465	7.996	-8.118	-77.06	16.50	-91.84	-109.368	-0.882	56.350	0.60983	-0.35114	0.51569	-0.48865	30.1	13111	100
2025-3-27 14:49:59.64	WT901BLE68-01(48591DE3C19B)	-0.264	-0.856	0.240	-1.404	7.935	-9.888	-77.10	16.43	-91.94	-109.368	-0.882	56.350	0.60983	-0.35114	0.51569	-0.48865	30.1	13111	100
2025-3-27 14:49:59.64	WT901BLE68-01(48591DE3C19B)	-0.262	-0.856	0.240	-1.404	7.935	-9.888	-77.14	16.35	-92.05	-109.368	-0.882	56.350	0.60983	-0.35114	0.51569	-0.48865	30.1	13111	100
2025-3-27 14:49:59.64	WT901BLE68-01(48591DE3C19B)	-0.262	-0.815	0.227	-2.991	7.751	-12.207	-77.17	16.26	-92.15	-109.368	-0.882	56.350	0.60983	-0.35114	0.51569	-0.48865	30.1	13111	100
2025-3-27 14:49:59.65	WT901BLE68-01(48591DE3C19B)	-0.267	-0.815	0.227	-2.991	7.751	-12.207	-77.22	16.16	-92.26	-109.368	-0.882	56.350	0.60983	-0.35114	0.51569	-0.48865	30.1	13111	100
2025-3-27 14:49:59.65	WT901BLE68-01(48591DE3C19B)	-0.267	-0.803	0.217	-4.578	6.042	-15.747	-77.28	16.04	-92.37	-109.368	-0.882	56.350	0.60983	-0.35114	0.51569	-0.48865	30.1	13111	100
2025-3-27 14:49:59.65	WT901BLE68-01(48591DE3C19B)	-0.269	-0.803	0.217	-4.578	6.042	-15.747	-77.34	15.90	-92.47	-109.368	-0.882	56.350	0.60983	-0.35114	0.51569	-0.48865	30.1	13111	100
2025-3-27 14:49:59.65	WT901BLE68-01(48591DE3C19B)	-0.269	-0.795	0.217	-5.737	3.662	-20.142	-77.40	15.74	-92.56	-109.368	-0.882	56.350	0.60983	-0.35114	0.51569	-0.48865	30.1	13111	100
2025-3-27 14:49:59.66	WT901BLE68-01(48591DE3C19B)	-0.262	-0.795	0.217	-5.737	3.662	-20.142	-77.47	15.56	-92.64	-109.368	-0.882	56.350	0.60983	-0.35114	0.51569	-0.48865	30.1	13111	100
2025-3-27 14:49:59.66	WT901BLE68-01(48591DE3C19B)	-0.262	-0.802	0.220	-7.202	2.869	-25.269	-77.55	15.36	-92.73	-109.368	-0.882	56.350	0.60983	-0.35114	0.51569	-0.48865	30.1	13111	100
2025-3-27 14:49:59.66	WT901BLE68-01(48591DE3C19B)	-0.262	-0.802	0.220	-7.202	2.869	-25.269	-77.62	15.13	-92.82	-109.368	-0.882	56.350	0.60983	-0.35114	0.51569	-0.48865	30.1	13111	100
2025-3-27 14:49:59.66	WT901BLE68-01(48591DE3C19B)	-0.262	-0.806	0.217	-8.118	4.150	-31.128	-77.71	14.87	-92.92	-109.368	-0.882	56.350	0.60983	-0.35114	0.51569	-0.48865	30.1	13111	100
2025-3-27 14:49:59.124	WT901BLE68-01(48591DE3C19B)	-0.266	-0.806	0.217	-8.118	4.150	-31.128	-77.81	14.59	-93.03	-109.368	-0.882	56.350	0.60983	-0.35114	0.51569	-0.48865	30.1	13111	100
2025-3-27 14:49:59.124	WT901BLE68-01(48591DE3C19B)	-0.266	-0.815	0.215	-9.399	7.141	-37.537	-77.91	14.28	-93.16	-110.642	-2.940	55.174	0.60983	-0.35114	0.51569	-0.48865	30.1	13111	100
2025-3-27 14:49:59.124	WT901BLE68-01(48591DE3C19B)	-0.275	-0.815	0.215	-9.399	7.141	-37.537	-78.02	13.95	-93.32	-110.642	-2.940	55.174	0.60983	-0.35114	0.51569	-0.48865	30.1	13111	100
2025-3-27 14:49:59.124	WT901BLE68-01(48591DE3C19B)	-0.275	-0.834	0.217	-11.108	9.399	-43.945	-78.15	13.59	-93.49	-110.642	-2.940	55.174	0.60983	-0.35114	0.51569	-0.48865	30.1	13111	100
2025-3-27 14:49:59.153	WT901BLE68-01(48591DE3C19B)	-0.290	-0.834	0.217	-11.108	9.399	-43.945	-78.28	13.20	-93.68	-110.642	-2.940	55.174	0.60983	-0.35114	0.51569	-0.48865	30.1	13111	100
2025-3-27 14:49:59.153	WT901BLE68-01(48591DE3C19B)	-0.290	-0.855	0.223	-12.268	10.071	-49.744	-78.43	12.79	-93.88	-110.642	-2.940	55.174	0.60983	-0.35114	0.51569	-0.48865	30.1	13111	100
2025-3-27 14:49:59.153	WT901BLE68-01(48591DE3C19B)	-0.305	-0.855	0.223	-12.268	10.071	-49.744	-78.57	12.35	-94.08	-110.642	-2.940	55.174	0.60983	-0.35114	0.51569	-0.48865	30.1	13111	100
2025-3-27 14:49:59.153	WT901BLE68-01(48591DE3C19B)	-0.305	-0.860	0.229	-13.245	9.094	-54.688	-78.72	11.89	-94.28	-110.642	-2.940	55.174	0.60983	-0.35114	0.51569	-0.48865	30.1	13111	100
2025-3-27 14:49:59.184	WT901BLE68-01(48591DE3C19B)	-0.314	-0.860	0.229	-13.245	9.094	-54.688	-78.87	11.41	-94.49	-110.642	-2.940	55.174	0.60983	-0.35114	0.51569	-0.48865	30.1	13111	100
2025-3-27 14:49:59.184	WT901BLE68-01(48591DE3C19B)	-0.314	-0.861	0.235	-14.709	6.165	-58.716	-79.03	10.89	-94.67	-110.642	-2.940	55.174	0.60983	-0.35114	0.51569	-0.48865	30.1	13111	100
2025-3-27 14:49:59.184	WT901BLE68-01(48591DE3C19B)	-0.321	-0.861	0.235	-14.709	6.165	-58.716	-79.18	10.37	-94.85	-110.642	-2.940	55.174	0.60983	-0.35114	0.51569	-0.48865	30.1	13111	100
2025-3-27 14:49:59.184	WT901BLE68-01(48591DE3C19B)	-0.321	-0.868	0.242	-16.052	2.563	-61.829	-79.34	9.81	-95.00	-110.642	-2.940	55.174	0.60983	-0.35114	0.51569	-0.48865	30.1	13111	100
2025-3-27 14:49:59.274	WT901BLE68-01(48591DE3C19B)	-0.325	-0.868	0.242	-16.052	2.563	-61.829	-79.50	9.26	-95.15	-110.642	-2.940	55.174	0.60983	-0.35114	0.51569	-0.48865	30.1	13111	100
2025-3-27 14:49:59.274	WT901BLE68-01(48591DE3C19B)	-0.325	-0.895	0.250	-17.212	-0.427	-63.965	-79.66	8.69	-95.26	-110.642	-2.940	55.174	0.60983	-0.35114	0.51569	-0.48865	30.1	13111	100
2025-3-27 14:49:59.274	WT901BLE68-01(48591DE3C19B)	-0.326	-0.895	0.250	-17.212	-0.427	-63.965	-79.82	8.12	-95.38	-110.642	-2.940	55.174	0.60983	-0.35114	0.51569	-0.48865	30.1	13111	100
2025-3-27 14:49:59.274	WT901BLE68-01(48591DE3C19B)	-0.326	-0.926	0.259	-16.602	-2.014	-65.002	-79.97	7.54	-95.49	-110.642	-2.940	55.174	0.60983	-0.35114	0.51569	-0.48865	30.1	13111	100
2025-3-27 14:49:59.275	WT901BLE68-01(48591DE3C19B)	-0.323	-0.926	0.259	-16.602	-2.014	-65.002	-80.12	6.97	-95.59	-110.642	-2.940	55.174	0.60983	-0.35114	0.51569	-0.48865	30.1	13111	100
2025-3-27 14:49:59.275	WT901BLE68-01(48591DE3C19B)	-0.323	-0.952	0.276	-14.771	-1.648	-65.247	-80.24	6.39	-95.69	-110.642	-2.940	55.174	0.60983	-0.35114	0.51569	-0.48865	30.1	13111	100
2025-3-27 14:49:59.275	WT901BLE68-01(48591DE3C19B)	-0.315	-0.952	0.276	-14.771	-1.648	-65.247	-80.36	5.82	-95.80	-110.642	-2.940	55.174	0.60983	-0.35114	0.51569	-0.48865	30.1	13111	100
2025-3-27 14:49:59.276	WT901BLE68-01(48591DE3C19B)	-0.315	-0.982	0.292	-11.292	2.686	-64.026	-80.45	5.27	-95.94	-110.642	-2.940	55.174	0.53104	-0.40710	0.50198	-0.54782	30.1	13111	100
2025-3-27 14:49:59.305	WT901BLE68-01(48591DE3C19B)	-0.309	-0.982	0.292	-11.292	2.686	-64.026	-80.54	4.72	-96.08	-110.642	-2.940	55.174	0.53104	-0.40710	0.50198	-0.54782	30.1	13111	100
2025-3-27 14:49:59.305	WT901BLE68-01(48591DE3C19B)	-0.309	-1.017	0.287	-8.972	11.841	-61.768	-80.61	4.21	-96.31	-110.642	-2.940	55.174	0.53104	-0.40710	0.50198	-0.54782	30.1	13111	100
2025-3-27 14:49:59.305	WT901BLE68-01(48591DE3C19B)	-0.318	-1.017	0.287	-8.972	11.841	-61.768	-80.68	3.71	-96.54	-110.642	-2.940	55.174	0.53104	-0.40710	0.50198	-0.54782	30.1	13111	100
2025-3-27 14:49:59.305	WT901BLE68-01(48591DE3C19B)	-0.318	-1.073	0.282	-6.409	23.376	-58.655	-80.72	3.25	-96.88	-110.642	-2.940	55.174	0.53104	-0.40710	0.50198	-0.54782	30.1	13111	100
2025-3-27 14:49:59.364	WT901BLE68-01(48591DE3C19B)	-0.354	-1.073	0.282	-6.409	23.376	-58.655	-80.77	2.80	-97.22	-110.642	-2.940	55.174	0.53104	-0.40710	0.50198	-0.54782	30.1	13111	100
2025-3-27 14:49:59.364	WT901BLE68-01(48591DE3C19B)	-0.354	-1.150	0.282	-5.188	31.372	-54.565	-80.80	2.40	-97.63	-110.642	-2.940	55.174	0.53104	-0.40710	0.50198	-0.54782	30.1	13111	100
2025-3-27 14:49:59.364	WT901BLE68-01(48591DE3C19B)	-0.412	-1.150	0.282	-5.188	31.372	-54.565	-80.83	2.00	-98.04	-110.642	-2.940	55.174	0.53104	-0.40710	0.50198	-0.54782	30.1	13111	100
2025-3-27 14:49:59.364	WT901BLE68-01(48591DE3C19B)	-0.412	-1.214	0.303	-2.869	30.823	-48.462	-80.83	1.66	-98.44	-110.642	-2.940	55.174	0.53104	-0.40710	0.50198	-0.54782	30.1	13111	100
2025-3-27 14:49:59.425	WT901BLE68-01(48591DE3C19B)	-0.453	-1.214	0.303	-2.869	30.823	-48.462	-80.83	1.33	-98.83	-110.642	-2.940	55.174	0.53104	-0.40710	0.50198	-0.54782	30.1	13111	100
2025-3-27 14:49:59.425	WT901BLE68-01(48591DE3C19B)	-0.453	-1.185	0.317	0.427	22.400	-40.649	-80.80	1.06	-99.14	-110.642	-2.940	55.174	0.53104	-0.40710	0.50198	-0.54782	30.1	13111	100
2025-3-27 14:49:59.425	WT901BLE68-01(48591DE3C19B)	-0.457	-1.185	0.317	0.427	22.400	-40.649	-80.77	0.80	-99.44	-110.642	-2.940	55.174	0.53104	-0.40710	0.50198	-0.54782	30.1	13111	100
2025-3-27 14:49:59.425	WT901BLE68-01(48591DE3C19B)	-0.457	-1.118	0.301	-2.930	9.888	-31.738	-80.76	0.60	-99.60	-110.642	-2.940	55.174	0.53104	-0.40710	0.50198	-0.54782	30.1	13111	100
2025-3-27 14:49:59.426	WT901BLE68-01(48591DE3C19B)	-0.466	-1.118	0.301	-2.930	9.888	-31.738	-80.76	0.42	-99.76	-110.642	-2.940	55.174	0.53104	-0.40710	0.50198	-0.54782	30.1	13111	100
2025-3-27 14:49:59.426	WT901BLE68-01(48591DE3C19B)	-0.466	-1.130	0.284	-7.629	-5.127	-22.278	-80.80	0.30	-99.76	-110.642	-2.940	55.174	0.53104	-0.40710	0.50198	-0.54782	30.1	13111	100
2025-3-27 14:49:59.426	WT901BLE68-01(48591DE3C19B)	-0.459	-1.130	0.284	-7.629	-5.127	-22.278	-80.84	0.19	-99.77	-110.642	-2.940	55.174	0.53104	-0.40710	0.50198	-0.54782	30.1	13111	100
2025-3-27 14:49:59.426	WT901BLE68-01(48591DE3C19B)	-0.459	-1.129	0.274	-8.484	-19.775	-10.559	-80.89	0.16	-99.60	-110.642	-2.940	55.174	0.53104	-0.40710	0.50198	-0.54782	30.1	13111	100
2025-3-27 14:49:59.483	WT901BLE68-01(48591DE3C19B)	-0.422	-1.129	0.274	-8.484	-19.775	-10.559	-80.94	0.14	-99.44	-110.642	-2.940	55.174	0.53104	-0.40710	0.50198	-0.54782	30.1	13111	100
2025-3-27 14:49:59.484	WT901BLE68-01(48591DE3C19B)	-0.422	-1.109	0.278	-9.827	-29.541	2.747	-81.00	0.24	-99.16	-115.052	-17.836	53.606	0.53104	-0.40710	0.50198	-0.54782	30.1	13111	100
2025-3-27 14:49:59.484	WT901BLE68-01(48591DE3C19B)	-0.391	-1.109	0.278	-9.827	-29.541	2.747	-81.06	0.34	-98.88	-115.052	-17.836	53.606	0.53104	-0.40710	0.50198	-0.54782	30.1	13111	100
2025-3-27 14:49:59.484	WT901BLE68-01(48591DE3C19B)	-0.391	-1.074	0.286	-6.592	-32.837	18.066	-81.09	0.58	-98.54	-115.052	-17.836	53.606	0.53104	-0.40710	0.50198	-0.54782	30.1	13111	100
2025-3-27 14:49:59.513	WT901BLE68-01(48591DE3C19B)	-0.353	-1.074	0.286	-6.592	-32.837	18.066	-81.12	0.82	-98.20	-115.052	-17.836	53.606	0.53104	-0.40710	0.50198	-0.54782	30.1	13111	100
2025-3-27 14:49:59.513	WT901BLE68-01(48591DE3C19B)	-0.353	-0.951	0.287	1.648	-30.090	35.278	-81.06	1.24	-97.87	-115.052	-17.836	53.606	0.53104	-0.40710	0.50198	-0.54782	30.1	13111	100
2025-3-27 14:49:59.513	WT901BLE68-01(48591DE3C19B)	-0.320	-0.951	0.287	1.648	-30.090	35.278	-81.00	1.65	-97.53	-115.052	-17.836	53.606	0.53104	-0.40710	0.50198	-0.54782	30.1	13111	100
2025-3-27 14:49:59.513	WT901BLE68-01(48591DE3C19B)	-0.320	-0.784	0.283	7.568	-25.024	53.650	-80.88	2.24	-97.21	-115.052	-17.836	53.606	0.53104	-0.40710	0.50198	-0.54782	30.1	13111	100
2025-3-27 14:49:59.545	WT901BLE68-01(48591DE3C19B)	-0.300	-0.784	0.283	7.568	-25.024	53.650	-80.74	2.83	-96.89	-115.052	-17.836	53.606	0.53104	-0.40710	0.50198	-0.54782	30.1	13111	100
2025-3-27 14:49:59.545	WT901BLE68-01(48591DE3C19B)	-0.300	-0.640	0.260	7.324	-21.240	71.045	-80.62	3.60	-96.58	-115.052	-17.836	53.606	0.53104	-0.40710	0.50198	-0.54782	30.1	13111	100
2025-3-27 14:49:59.545	WT901BLE68-01(48591DE3C19B)	-0.292	-0.640	0.260	7.324	-21.240	71.045	-80.48	4.37	-96.26	-115.052	-17.836	53.606	0.53104	-0.40710	0.50198	-0.54782	30.1	13111	100
2025-3-27 14:49:59.545	WT901BLE68-01(48591DE3C19B)	-0.292	-0.597	0.232	-1.892	-21.973	85.938	-80.43	5.27	-95.92	-115.052	-17.836	53.606	0.53104	-0.40710	0.50198	-0.54782	30.1	13111	100
2025-3-27 14:49:59.603	WT901BLE68-01(48591DE3C19B)	-0.306	-0.597	0.232	-1.892	-21.973	85.938	-80.36	6.17	-95.56	-115.052	-17.836	53.606	0.53104	-0.40710	0.50198	-0.54782	30.1	13111	100
2025-3-27 14:49:59.603	WT901BLE68-01(48591DE3C19B)	-0.306	-0.696	0.196	-8.179	-28.748	96.924	-80.35	7.16	-95.13	-115.052	-17.836	53.606	0.53104	-0.40710	0.50198	-0.54782	30.1	13111	100
2025-3-27 14:49:59.603	WT901BLE68-01(48591DE3C19B)	-0.333	-0.696	0.196	-8.179	-28.748	96.924	-80.33	8.15	-94.68	-115.052	-17.836	53.606	0.53104	-0.40710	0.50198	-0.54782	30.1	13111	100
2025-3-27 14:49:59.604	WT901BLE68-01(48591DE3C19B)	-0.333	-0.792	0.189	-6.653	-41.138	103.943	-80.27	9.18	-94.10	-115.052	-17.836	53.606	0.53104	-0.40710	0.50198	-0.54782	30.1	13111	100
2025-3-27 14:49:59.635	WT901BLE68-01(48591DE3C19B)	-0.363	-0.792	0.189	-6.653	-41.138	103.943	-80.19	10.20	-93.52	-115.052	-17.836	53.606	0.53104	-0.40710	0.50198	-0.54782	30.1	13111	100
2025-3-27 14:49:59.636	WT901BLE68-01(48591DE3C19B)	-0.365	-0.890	0.189	-7.507	-59.387	104.797	-80.09	11.20	-92.74	-115.052	-17.836	53.606	0.53104	-0.40710	0.50198	-0.54782	30.1	13111	100
2025-3-27 14:49:59.636	WT901BLE68-01(48591DE3C19B)	-0.365	-1.073	0.158	-10.742	-78.247	101.135	-79.97	12.15	-91.87	-115.052	-17.836	53.606	0.53104	-0.40710	0.50198	-0.54782	30.1	13111	100
2025-3-27 14:49:59.636	WT901BLE68-01(48591DE3C19B)	-0.337	-1.073	0.158	-10.742	-78.247	101.135	-79.84	13.06	-90.90	-115.052	-17.836	53.606	0.53104	-0.40710	0.50198	-0.54782	30.1	13111	100
2025-3-27 14:49:59.755	WT901BLE68-01(48591DE3C19B)	-0.337	-1.246	0.142	3.357	-86.609	94.421	-79.62	13.91	-89.88	-115.052	-17.836	53.606	0.53104	-0.40710	0.50198	-0.54782	30.1	13111	100
2025-3-27 14:49:59.755	WT901BLE68-01(48591DE3C19B)	-0.340	-1.246	0.142	3.357	-86.609	94.421	-79.31	14.72	-88.82	-115.052	-17.836	53.606	0.53104	-0.40710	0.50198	-0.54782	30.1	13111	100
2025-3-27 14:49:59.755	WT901BLE68-01(48591DE3C19B)	-0.340	-1.307	0.186	22.400	-85.876	87.463	-78.90	15.47	-87.77	-115.052	-17.836	53.606	0.61072	-0.38171	0.51138	-0.46872	30.1	13111	100
2025-3-27 14:49:59.755	WT901BLE68-01(48591DE3C19B)	-0.302	-1.307	0.186	22.400	-85.876	87.463	-78.39	16.18	-86.71	-115.052	-17.836	53.606	0.61072	-0.38171	0.51138	-0.46872	30.1	13111	100
2025-3-27 14:49:59.756	WT901BLE68-01(48591DE3C19B)	-0.302	-1.322	0.215	31.555	-79.163	78.979	-77.83	16.83	-85.69	-115.052	-17.836	53.606	0.61072	-0.38171	0.51138	-0.46872	30.1	13111	100
2025-3-27 14:49:59.756	WT901BLE68-01(48591DE3C19B)	-0.235	-1.322	0.215	31.555	-79.163	78.979	-77.24	17.44	-84.70	-115.052	-17.836	53.606	0.61072	-0.38171	0.51138	-0.46872	30.1	13111	100
2025-3-27 14:49:59.756	WT901BLE68-01(48591DE3C19B)	-0.235	-1.266	0.202	41.626	-57.312	77.454	-76.62	18.03	-83.81	-115.052	-17.836	53.606	0.61072	-0.38171	0.51138	-0.46872	30.1	13111	100
2025-3-27 14:49:59.756	WT901BLE68-01(48591DE3C19B)	-0.199	-1.266	0.202	41.626	-57.312	77.454	-75.98	18.64	-83.03	-115.052	-17.836	53.606	0.61072	-0.38171	0.51138	-0.46872	30.1	13111	100
2025-3-27 14:49:59.757	WT901BLE68-01(48591DE3C19B)	-0.199	-1.151	0.157	45.959	-26.855	78.552	-75.36	19.27	-82.39	-115.052	-17.836	53.606	0.61072	-0.38171	0.51138	-0.46872	30.1	13111	100
2025-3-27 14:49:59.757	WT901BLE68-01(48591DE3C19B)	-0.158	-1.151	0.157	45.959	-26.855	78.552	-74.76	19.93	-81.90	-115.052	-17.836	53.606	0.61072	-0.38171	0.51138	-0.46872	30.1	13111	100
2025-3-27 14:49:59.757	WT901BLE68-01(48591DE3C19B)	-0.158	-0.986	0.136	50.903	5.615	80.505	-74.20	20.63	-81.56	-115.052	-17.836	53.606	0.61072	-0.38171	0.51138	-0.46872	30.1	13111	100
2025-3-27 14:49:59.757	WT901BLE68-01(48591DE3C19B)	-0.213	-0.986	0.136	50.903	5.615	80.505	-73.65	21.37	-81.25	-115.052	-17.836	53.606	0.61072	-0.38171	0.51138	-0.46872	30.1	13111	100
2025-3-27 14:49:59.813	WT901BLE68-01(48591DE3C19B)	-0.213	-0.837	0.125	47.424	25.635	83.923	-73.16	22.15	-81.02	-115.052	-17.836	53.606	0.61072	-0.38171	0.51138	-0.46872	30.1	13111	100
2025-3-27 14:49:59.814	WT901BLE68-01(48591DE3C19B)	-0.269	-0.837	0.125	47.424	25.635	83.923	-72.72	22.97	-80.88	-115.052	-17.836	53.606	0.61072	-0.38171	0.51138	-0.46872	30.1	13111	100
2025-3-27 14:49:59.814	WT901BLE68-01(48591DE3C19B)	-0.269	-0.780	0.110	30.579	23.438	85.327	-72.36	23.78	-80.73	-115.052	-17.836	53.606	0.61072	-0.38171	0.51138	-0.46872	30.1	13111	100
2025-3-27 14:49:59.814	WT901BLE68-01(48591DE3C19B)	-0.296	-0.780	0.110	30.579	23.438	85.327	-72.08	24.59	-80.55	-115.052	-17.836	53.606	0.61072	-0.38171	0.51138	-0.46872	30.1	13111	100
2025-3-27 14:49:59.846	WT901BLE68-01(48591DE3C19B)	-0.296	-0.822	0.096	20.691	11.902	82.886	-71.82	25.38	-80.32	-115.052	-17.836	53.606	0.61072	-0.38171	0.51138	-0.46872	30.1	13111	100
2025-3-27 14:49:59.846	WT901BLE68-01(48591DE3C19B)	-0.335	-0.822	0.096	20.691	11.902	82.886	-71.58	26.13	-80.02	-115.052	-17.836	53.606	0.61072	-0.38171	0.51138	-0.46872	30.1	13111	100
2025-3-27 14:49:59.846	WT901BLE68-01(48591DE3C19B)	-0.335	-0.874	0.087	15.625	-4.028	79.102	-71.34	26.83	-79.65	-115.052	-17.836	53.606	0.61072	-0.38171	0.51138	-0.46872	30.1	13111	100
2025-3-27 14:49:59.846	WT901BLE68-01(48591DE3C19B)	-0.358	-0.874	0.087	15.625	-4.028	79.102	-71.08	27.49	-79.19	-115.052	-17.836	53.606	0.61072	-0.38171	0.51138	-0.46872	30.1	13111	100
2025-3-27 14:49:59.904	WT901BLE68-01(48591DE3C19B)	-0.358	-0.945	0.087	12.756	-23.743	71.899	-70.79	28.08	-78.65	-115.052	-17.836	53.606	0.61072	-0.38171	0.51138	-0.46872	30.1	13111	100
2025-3-27 14:49:59.904	WT901BLE68-01(48591DE3C19B)	-0.322	-0.945	0.087	12.756	-23.743	71.899	-70.47	28.60	-78.00	-115.052	-17.836	53.606	0.61072	-0.38171	0.51138	-0.46872	30.1	13111	100
2025-3-27 14:49:59.904	WT901BLE68-01(48591DE3C19B)	-0.322	-0.978	0.092	13.306	-37.903	64.087	-70.12	29.05	-77.29	-115.052	-17.836	53.606	0.61072	-0.38171	0.51138	-0.46872	30.1	13111	100
2025-3-27 14:49:59.904	WT901BLE68-01(48591DE3C19B)	-0.270	-0.978	0.092	13.306	-37.903	64.087	-69.72	29.44	-76.52	-92.708	3.626	55.664	0.61072	-0.38171	0.51138	-0.46872	30.1	13111	100
2025-3-27 14:49:59.905	WT901BLE68-01(48591DE3C19B)	-0.270	-0.961	0.111	17.090	-40.161	58.899	-69.31	29.80	-75.75	-92.708	3.626	55.664	0.61072	-0.38171	0.51138	-0.46872	30.1	13111	100
2025-3-27 14:49:59.905	WT901BLE68-01(48591DE3C19B)	-0.245	-0.961	0.111	17.090	-40.161	58.899	-68.88	30.12	-74.97	-92.708	3.626	55.664	0.61072	-0.38171	0.51138	-0.46872	30.1	13111	100
2025-3-27 14:49:59.905	WT901BLE68-01(48591DE3C19B)	-0.245	-0.908	0.116	15.808	-36.987	56.458	-68.46	30.42	-74.21	-92.708	3.626	55.664	0.61072	-0.38171	0.51138	-0.46872	30.1	13111	100
2025-3-27 14:49:59.905	WT901BLE68-01(48591DE3C19B)	-0.202	-0.908	0.116	15.808	-36.987	56.458	-68.05	30.72	-73.48	-92.708	3.626	55.664	0.61072	-0.38171	0.51138	-0.46872	30.1	13111	100
2025-3-27 14:49:59.963	WT901BLE68-01(48591DE3C19B)	-0.202	-0.896	0.131	11.475	-26.978	54.932	-67.69	31.01	-72.80	-92.708	3.626	55.664	0.61072	-0.38171	0.51138	-0.46872	30.1	13111	100
2025-3-27 14:49:59.963	WT901BLE68-01(48591DE3C19B)	-0.189	-0.896	0.131	11.475	-26.978	54.932	-67.38	31.32	-72.17	-92.708	3.626	55.664	0.61072	-0.38171	0.51138	-0.46872	30.1	13111	100
2025-3-27 14:49:59.963	WT901BLE68-01(48591DE3C19B)	-0.189	-0.908	0.136	8.057	-11.292	54.077	-67.13	31.65	-71.64	-92.708	3.626	55.664	0.61072	-0.38171	0.51138	-0.46872	30.1	13111	100
2025-3-27 14:49:59.963	WT901BLE68-01(48591DE3C19B)	-0.188	-0.908	0.136	8.057	-11.292	54.077	-66.94	31.99	-71.20	-92.708	3.626	55.664	0.61072	-0.38171	0.51138	-0.46872	30.1	13111	100
2025-3-27 14:49:59.992	WT901BLE68-01(48591DE3C19B)	-0.188	-0.904	0.137	2.502	2.563	52.124	-66.82	32.35	-70.82	-92.708	3.626	55.664	0.61072	-0.38171	0.51138	-0.46872	30.1	13111	100
2025-3-27 14:49:59.993	WT901BLE68-01(48591DE3C19B)	-0.217	-0.904	0.137	2.502	2.563	52.124	-66.76	32.72	-70.54	-92.708	3.626	55.664	0.61072	-0.38171	0.51138	-0.46872	30.1	13111	100
2025-3-27 14:49:59.993	WT901BLE68-01(48591DE3C19B)	-0.217	-0.976	0.157	-5.737	11.780	44.617	-66.78	33.08	-70.32	-92.708	3.626	55.664	0.61072	-0.38171	0.51138	-0.46872	30.1	13111	100
2025-3-27 14:49:59.993	WT901BLE68-01(48591DE3C19B)	-0.274	-0.976	0.157	-5.737	11.780	44.617	-66.88	33.41	-70.16	-92.708	3.626	55.664	0.61072	-0.38171	0.51138	-0.46872	30.1	13111	100
2025-3-27 14:50:0.55	WT901BLE68-01(48591DE3C19B)	-0.274	-1.075	0.196	-9.460	10.315	33.386	-67.00	33.69	-70.03	-92.708	3.626	55.664	0.61072	-0.38171	0.51138	-0.46872	30.1	13111	100
2025-3-27 14:50:0.55	WT901BLE68-01(48591DE3C19B)	-0.279	-1.075	0.196	-9.460	10.315	33.386	-67.15	33.91	-69.92	-92.708	3.626	55.664	0.61072	-0.38171	0.51138	-0.46872	30.1	13111	100
2025-3-27 14:50:0.55	WT901BLE68-01(48591DE3C19B)	-0.279	-1.152	0.204	-13.367	6.348	20.020	-67.32	34.06	-69.82	-92.708	3.626	55.664	0.61072	-0.38171	0.51138	-0.46872	30.1	13111	100
2025-3-27 14:50:0.55	WT901BLE68-01(48591DE3C19B)	-0.238	-1.152	0.204	-13.367	6.348	20.020	-67.52	34.15	-69.72	-92.708	3.626	55.664	0.61072	-0.38171	0.51138	-0.46872	30.1	13111	100
2025-3-27 14:50:0.83	WT901BLE68-01(48591DE3C19B)	-0.238	-1.199	0.173	-13.611	9.583	3.784	-67.74	34.16	-69.69	-92.708	3.626	55.664	0.61072	-0.38171	0.51138	-0.46872	30.1	13111	100
2025-3-27 14:50:0.83	WT901BLE68-01(48591DE3C19B)	-0.229	-1.199	0.173	-13.611	9.583	3.784	-68.00	34.10	-69.70	-92.708	3.626	55.664	0.61072	-0.38171	0.51138	-0.46872	30.1	13111	100
2025-3-27 14:50:0.83	WT901BLE68-01(48591DE3C19B)	-0.229	-1.228	0.173	-8.667	19.409	-16.357	-68.29	33.96	-69.82	-92.708	3.626	55.664	0.61072	-0.38171	0.51138	-0.46872	30.1	13111	100
2025-3-27 14:50:0.84	WT901BLE68-01(48591DE3C19B)	-0.232	-1.228	0.173	-8.667	19.409	-16.357	-68.60	33.75	-70.04	-92.708	3.626	55.664	0.74042	-0.30508	0.50604	-0.32016	30.1	13111	100
2025-3-27 14:50:0.146	WT901BLE68-01(48591DE3C19B)	-0.232	-1.185	0.189	-7.141	29.419	-37.964	-68.96	33.45	-70.35	-92.708	3.626	55.664	0.74042	-0.30508	0.50604	-0.32016	30.1	13111	100
2025-3-27 14:50:0.146	WT901BLE68-01(48591DE3C19B)	-0.218	-1.185	0.189	-7.141	29.419	-37.964	-69.36	33.07	-70.77	-92.708	3.626	55.664	0.74042	-0.30508	0.50604	-0.32016	30.1	13111	100
2025-3-27 14:50:0.146	WT901BLE68-01(48591DE3C19B)	-0.218	-1.232	0.188	-13.977	41.077	-62.439	-69.95	32.50	-71.40	-92.708	3.626	55.664	0.74042	-0.30508	0.50604	-0.32016	30.1	13111	100
2025-3-27 14:50:0.147	WT901BLE68-01(48591DE3C19B)	-0.250	-1.232	0.188	-13.977	41.077	-62.439	-70.52	31.93	-72.02	-92.708	3.626	55.664	0.74042	-0.30508	0.50604	-0.32016	30.1	13111	100
2025-3-27 14:50:0.203	WT901BLE68-01(48591DE3C19B)	-0.250	-1.238	0.236	-3.723	56.519	-83.069	-71.10	31.21	-72.88	-92.708	3.626	55.664	0.74042	-0.30508	0.50604	-0.32016	30.1	13111	100
2025-3-27 14:50:0.203	WT901BLE68-01(48591DE3C19B)	-0.279	-1.238	0.236	-3.723	56.519	-83.069	-71.66	30.48	-73.71	-92.708	3.626	55.664	0.74042	-0.30508	0.50604	-0.32016	30.1	13111	100
2025-3-27 14:50:0.203	WT901BLE68-01(48591DE3C19B)	-0.279	-1.002	0.303	14.648	67.871	-93.872	-72.09	29.69	-74.70	-92.708	3.626	55.664	0.74042	-0.30508	0.50604	-0.32016	30.1	13111	100
2025-3-27 14:50:0.203	WT901BLE68-01(48591DE3C19B)	-0.253	-1.002	0.303	14.648	67.871	-93.872	-72.49	28.89	-75.66	-92.708	3.626	55.664	0.74042	-0.30508	0.50604	-0.32016	30.1	13111	100
2025-3-27 14:50:0.204	WT901BLE68-01(48591DE3C19B)	-0.253	-0.727	0.315	30.762	80.994	-92.102	-72.78	28.16	-76.73	-92.708	3.626	55.664	0.74042	-0.30508	0.50604	-0.32016	30.1	13111	100
2025-3-27 14:50:0.204	WT901BLE68-01(48591DE3C19B)	-0.253	-0.727	0.315	30.762	80.994	-92.102	-73.04	27.43	-77.79	-92.708	3.626	55.664	0.74042	-0.30508	0.50604	-0.32016	30.1	13111	100
2025-3-27 14:50:0.204	WT901BLE68-01(48591DE3C19B)	-0.253	-0.507	0.281	26.428	89.905	-87.769	-73.35	26.76	-78.92	-92.708	3.626	55.664	0.74042	-0.30508	0.50604	-0.32016	30.1	13111	100
2025-3-27 14:50:0.204	WT901BLE68-01(48591DE3C19B)	-0.260	-0.507	0.281	26.428	89.905	-87.769	-73.64	26.10	-80.04	-92.708	3.626	55.664	0.74042	-0.30508	0.50604	-0.32016	30.1	13111	100
2025-3-27 14:50:0.234	WT901BLE68-01(48591DE3C19B)	-0.260	-0.531	0.236	-4.150	80.017	-84.045	-74.16	25.45	-81.01	-92.708	3.626	55.664	0.74042	-0.30508	0.50604	-0.32016	30.1	13111	100
2025-3-27 14:50:0.234	WT901BLE68-01(48591DE3C19B)	-0.230	-0.531	0.236	-4.150	80.017	-84.045	-74.66	24.80	-81.97	-92.708	3.626	55.664	0.74042	-0.30508	0.50604	-0.32016	30.1	13111	100
2025-3-27 14:50:0.234	WT901BLE68-01(48591DE3C19B)	-0.230	-0.742	0.177	-21.484	59.021	-78.735	-75.22	24.14	-82.68	-92.708	3.626	55.664	0.74042	-0.30508	0.50604	-0.32016	30.1	13111	100
2025-3-27 14:50:0.234	WT901BLE68-01(48591DE3C19B)	-0.225	-0.742	0.177	-21.484	59.021	-78.735	-75.76	23.48	-83.38	-92.708	3.626	55.664	0.74042	-0.30508	0.50604	-0.32016	30.1	13111	100
2025-3-27 14:50:0.292	WT901BLE68-01(48591DE3C19B)	-0.225	-0.907	0.136	-23.499	40.283	-74.158	-76.22	22.82	-83.85	-92.708	3.626	55.664	0.74042	-0.30508	0.50604	-0.32016	30.1	13111	100
2025-3-27 14:50:0.292	WT901BLE68-01(48591DE3C19B)	-0.262	-0.907	0.136	-23.499	40.283	-74.158	-76.68	22.15	-84.31	-92.708	3.626	55.664	0.74042	-0.30508	0.50604	-0.32016	30.1	13111	100
2025-3-27 14:50:0.292	WT901BLE68-01(48591DE3C19B)	-0.262	-1.029	0.135	-28.625	26.733	-73.730	-77.13	21.46	-84.62	-92.708	3.626	55.664	0.74042	-0.30508	0.50604	-0.32016	30.1	13111	100
2025-3-27 14:50:0.292	WT901BLE68-01(48591DE3C19B)	-0.329	-1.029	0.135	-28.625	26.733	-73.730	-77.57	20.76	-84.93	-92.708	3.626	55.664	0.74042	-0.30508	0.50604	-0.32016	30.1	13111	100
2025-3-27 14:50:0.383	WT901BLE68-01(48591DE3C19B)	-0.329	-1.136	0.151	-23.743	15.320	-79.956	-77.92	19.99	-85.12	-90.650	-4.312	49.000	0.74042	-0.30508	0.50604	-0.32016	30.1	13111	100
2025-3-27 14:50:0.383	WT901BLE68-01(48591DE3C19B)	-0.348	-1.136	0.151	-23.743	15.320	-79.956	-78.27	19.22	-85.31	-90.650	-4.312	49.000	0.74042	-0.30508	0.50604	-0.32016	30.1	13111	100
2025-3-27 14:50:0.384	WT901BLE68-01(48591DE3C19B)	-0.348	-1.136	0.200	-13.550	8.118	-90.881	-78.49	18.32	-85.44	-90.650	-4.312	49.000	0.74042	-0.30508	0.50604	-0.32016	30.1	13111	100
2025-3-27 14:50:0.384	WT901BLE68-01(48591DE3C19B)	-0.333	-1.136	0.200	-13.550	8.118	-90.881	-78.71	17.44	-85.56	-90.650	-4.312	49.000	0.74042	-0.30508	0.50604	-0.32016	30.1	13111	100
2025-3-27 14:50:0.385	WT901BLE68-01(48591DE3C19B)	-0.333	-1.029	0.270	-4.272	14.648	-98.877	-78.85	16.49	-85.76	-90.650	-4.312	49.000	0.74042	-0.30508	0.50604	-0.32016	30.1	13111	100
2025-3-27 14:50:0.385	WT901BLE68-01(48591DE3C19B)	-0.369	-1.029	0.270	-4.272	14.648	-98.877	-78.99	15.55	-85.96	-90.650	-4.312	49.000	0.74042	-0.30508	0.50604	-0.32016	30.1	13111	100
2025-3-27 14:50:0.385	WT901BLE68-01(48591DE3C19B)	-0.369	-0.911	0.328	0.488	22.156	-102.905	-79.09	14.59	-86.24	-90.650	-4.312	49.000	0.74042	-0.30508	0.50604	-0.32016	30.1	13111	100
2025-3-27 14:50:0.385	WT901BLE68-01(48591DE3C19B)	-0.350	-0.911	0.328	0.488	22.156	-102.905	-79.18	13.64	-86.52	-90.650	-4.312	49.000	0.74042	-0.30508	0.50604	-0.32016	30.1	13111	100
2025-3-27 14:50:0.415	WT901BLE68-01(48591DE3C19B)	-0.350	-0.832	0.306	-0.793	24.841	-105.957	-79.28	12.68	-86.82	-90.650	-4.312	49.000	0.74042	-0.30508	0.50604	-0.32016	30.1	13111	100
2025-3-27 14:50:0.416	WT901BLE68-01(48591DE3C19B)	-0.319	-0.832	0.306	-0.793	24.841	-105.957	-79.37	11.72	-87.13	-90.650	-4.312	49.000	0.74042	-0.30508	0.50604	-0.32016	30.1	13111	100
2025-3-27 14:50:0.416	WT901BLE68-01(48591DE3C19B)	-0.319	-0.806	0.252	-6.104	27.771	-106.750	-79.51	10.77	-87.45	-90.650	-4.312	49.000	0.74042	-0.30508	0.50604	-0.32016	30.1	13111	100
2025-3-27 14:50:0.416	WT901BLE68-01(48591DE3C19B)	-0.318	-0.806	0.252	-6.104	27.771	-106.750	-79.64	9.82	-87.78	-90.650	-4.312	49.000	0.74042	-0.30508	0.50604	-0.32016	30.1	13111	100
2025-3-27 14:50:0.473	WT901BLE68-01(48591DE3C19B)	-0.318	-0.803	0.202	-7.629	24.719	-105.896	-79.77	8.88	-88.07	-90.650	-4.312	49.000	0.74042	-0.30508	0.50604	-0.32016	30.1	13111	100
2025-3-27 14:50:0.473	WT901BLE68-01(48591DE3C19B)	-0.314	-0.803	0.202	-7.629	24.719	-105.896	-79.90	7.95	-88.35	-90.650	-4.312	49.000	0.74042	-0.30508	0.50604	-0.32016	30.1	13111	100
2025-3-27 14:50:0.474	WT901BLE68-01(48591DE3C19B)	-0.314	-0.801	0.189	-11.414	18.188	-106.140	-80.05	7.01	-88.57	-90.650	-4.312	49.000	0.74042	-0.30508	0.50604	-0.32016	30.1	13111	100
2025-3-27 14:50:0.474	WT901BLE68-01(48591DE3C19B)	-0.341	-0.801	0.189	-11.414	18.188	-106.140	-80.19	6.08	-88.78	-90.650	-4.312	49.000	0.74042	-0.30508	0.50604	-0.32016	30.1	13111	100
2025-3-27 14:50:0.475	WT901BLE68-01(48591DE3C19B)	-0.341	-0.841	0.193	-13.000	11.963	-103.455	-80.35	5.17	-88.92	-90.650	-4.312	49.000	0.74042	-0.30508	0.50604	-0.32016	30.1	13111	100
2025-3-27 14:50:0.475	WT901BLE68-01(48591DE3C19B)	-0.367	-0.841	0.193	-13.000	11.963	-103.455	-80.50	4.26	-89.06	-90.650	-4.312	49.000	0.74042	-0.30508	0.50604	-0.32016	30.1	13111	100
2025-3-27 14:50:0.475	WT901BLE68-01(48591DE3C19B)	-0.367	-0.905	0.206	-11.963	5.859	-99.060	-80.62	3.39	-89.13	-90.650	-4.312	49.000	0.55438	-0.44708	0.46829	-0.52283	30.1	13111	100
2025-3-27 14:50:0.475	WT901BLE68-01(48591DE3C19B)	-0.342	-0.905	0.206	-11.963	5.859	-99.060	-80.76	2.53	-89.19	-90.650	-4.312	49.000	0.55438	-0.44708	0.46829	-0.52283	30.1	13111	100
2025-3-27 14:50:0.534	WT901BLE68-01(48591DE3C19B)	-0.342	-0.936	0.216	-5.859	7.751	-92.957	-80.82	1.74	-89.26	-90.650	-4.312	49.000	0.55438	-0.44708	0.46829	-0.52283	30.1	13111	100
2025-3-27 14:50:0.534	WT901BLE68-01(48591DE3C19B)	-0.325	-0.936	0.216	-5.859	7.751	-92.957	-80.88	0.95	-89.34	-90.650	-4.312	49.000	0.55438	-0.44708	0.46829	-0.52283	30.1	13111	100
2025-3-27 14:50:0.534	WT901BLE68-01(48591DE3C19B)	-0.325	-0.914	0.211	0.305	18.372	-85.449	-80.88	0.25	-89.50	-90.650	-4.312	49.000	0.55438	-0.44708	0.46829	-0.52283	30.1	13111	100
2025-3-27 14:50:0.534	WT901BLE68-01(48591DE3C19B)	-0.328	-0.914	0.211	0.305	18.372	-85.449	-80.88	-0.43	-89.66	-90.650	-4.312	49.000	0.55438	-0.44708	0.46829	-0.52283	30.1	13111	100
2025-3-27 14:50:0.562	WT901BLE68-01(48591DE3C19B)	-0.328	-0.900	0.204	3.723	30.212	-76.477	-80.84	-1.02	-89.93	-90.650	-4.312	49.000	0.55438	-0.44708	0.46829	-0.52283	30.1	13111	100
2025-3-27 14:50:0.562	WT901BLE68-01(48591DE3C19B)	-0.351	-0.900	0.204	3.723	30.212	-76.477	-80.80	-1.59	-90.19	-90.650	-4.312	49.000	0.55438	-0.44708	0.46829	-0.52283	30.1	13111	100
2025-3-27 14:50:0.562	WT901BLE68-01(48591DE3C19B)	-0.397	-0.907	0.223	2.869	37.903	-66.162	-80.76	-2.05	-90.52	-90.650	-4.312	49.000	0.55438	-0.44708	0.46829	-0.52283	30.1	13111	100
2025-3-27 14:50:0.562	WT901BLE68-01(48591DE3C19B)	-0.397	-0.978	0.241	-1.831	36.072	-55.481	-80.74	-2.46	-90.82	-90.650	-4.312	49.000	0.55438	-0.44708	0.46829	-0.52283	30.1	13111	100
2025-3-27 14:50:0.624	WT901BLE68-01(48591DE3C19B)	-0.436	-0.978	0.241	-1.831	36.072	-55.481	-80.75	-2.81	-91.10	-90.650	-4.312	49.000	0.55438	-0.44708	0.46829	-0.52283	30.1	13111	100
2025-3-27 14:50:0.624	WT901BLE68-01(48591DE3C19B)	-0.436	-1.069	0.266	-4.272	30.701	-45.227	-80.77	-3.11	-91.35	-90.650	-4.312	49.000	0.55438	-0.44708	0.46829	-0.52283	30.1	13111	100
2025-3-27 14:50:0.624	WT901BLE68-01(48591DE3C19B)	-0.485	-1.069	0.266	-4.272	30.701	-45.227	-80.80	-3.37	-91.57	-90.650	-4.312	49.000	0.55438	-0.44708	0.46829	-0.52283	30.1	13111	100
2025-3-27 14:50:0.624	WT901BLE68-01(48591DE3C19B)	-0.485	-1.133	0.270	-3.967	22.888	-35.400	-80.83	-3.58	-91.73	-90.650	-4.312	49.000	0.55438	-0.44708	0.46829	-0.52283	30.1	13111	100
2025-3-27 14:50:0.655	WT901BLE68-01(48591DE3C19B)	-0.501	-1.133	0.270	-3.967	22.888	-35.400	-80.86	-3.74	-91.85	-90.650	-4.312	49.000	0.55438	-0.44708	0.46829	-0.52283	30.1	13111	100
2025-3-27 14:50:0.655	WT901BLE68-01(48591DE3C19B)	-0.501	-1.174	0.254	-4.822	12.390	-26.794	-80.90	-3.87	-91.91	-90.650	-4.312	49.000	0.55438	-0.44708	0.46829	-0.52283	30.1	13111	100
2025-3-27 14:50:0.655	WT901BLE68-01(48591DE3C19B)	-0.507	-1.174	0.254	-4.822	12.390	-26.794	-80.95	-3.97	-91.91	-90.650	-4.312	49.000	0.55438	-0.44708	0.46829	-0.52283	30.1	13111	100
2025-3-27 14:50:0.655	WT901BLE68-01(48591DE3C19B)	-0.507	-1.247	0.247	-6.287	1.038	-16.296	-81.01	-4.02	-91.84	-90.650	-4.312	49.000	0.55438	-0.44708	0.46829	-0.52283	30.1	13111	100
2025-3-27 14:50:0.685	WT901BLE68-01(48591DE3C19B)	-0.488	-1.247	0.247	-6.287	1.038	-16.296	-81.09	-4.02	-91.71	-90.650	-4.312	49.000	0.55438	-0.44708	0.46829	-0.52283	30.1	13111	100
2025-3-27 14:50:0.685	WT901BLE68-01(48591DE3C19B)	-0.488	-1.251	0.252	-1.709	-6.775	-1.892	-81.15	-3.96	-91.53	-90.650	-4.312	49.000	0.55438	-0.44708	0.46829	-0.52283	30.1	13111	100
2025-3-27 14:50:0.685	WT901BLE68-01(48591DE3C19B)	-0.448	-1.251	0.252	-1.709	-6.775	-1.892	-81.18	-3.84	-91.30	-90.650	-4.312	49.000	0.55438	-0.44708	0.46829	-0.52283	30.1	13111	100
2025-3-27 14:50:0.685	WT901BLE68-01(48591DE3C19B)	-0.448	-1.164	0.247	-2.869	-8.606	14.221	-81.23	-3.64	-91.05	-93.492	-20.776	45.472	0.55438	-0.44708	0.46829	-0.52283	30.1	13111	100
2025-3-27 14:50:0.715	WT901BLE68-01(48591DE3C19B)	-0.459	-1.164	0.247	-2.869	-8.606	14.221	-81.28	-3.37	-90.77	-93.492	-20.776	45.472	0.55438	-0.44708	0.46829	-0.52283	30.1	13111	100
2025-3-27 14:50:0.715	WT901BLE68-01(48591DE3C19B)	-0.459	-1.247	0.255	-12.390	-11.475	30.457	-81.38	-3.02	-90.48	-93.492	-20.776	45.472	0.55438	-0.44708	0.46829	-0.52283	30.1	13111	100
2025-3-27 14:50:0.715	WT901BLE68-01(48591DE3C19B)	-0.484	-1.247	0.255	-12.390	-11.475	30.457	-81.52	-2.59	-90.16	-93.492	-20.776	45.472	0.55438	-0.44708	0.46829	-0.52283	30.1	13111	100
2025-3-27 14:50:0.716	WT901BLE68-01(48591DE3C19B)	-0.484	-1.321	0.299	-5.066	-20.325	46.204	-81.63	-2.09	-89.79	-93.492	-20.776	45.472	0.55438	-0.44708	0.46829	-0.52283	30.1	13111	100
2025-3-27 14:50:0.803	WT901BLE68-01(48591DE3C19B)	-0.454	-1.321	0.299	-5.066	-20.325	46.204	-81.69	-1.53	-89.36	-93.492	-20.776	45.472	0.55438	-0.44708	0.46829	-0.52283	30.1	13111	100
2025-3-27 14:50:0.804	WT901BLE68-01(48591DE3C19B)	-0.454	-1.112	0.326	13.550	-25.513	66.406	-81.67	-0.87	-88.90	-93.492	-20.776	45.472	0.55438	-0.44708	0.46829	-0.52283	30.1	13111	100
2025-3-27 14:50:0.804	WT901BLE68-01(48591DE3C19B)	-0.390	-1.112	0.326	13.550	-25.513	66.406	-81.54	-0.12	-88.40	-93.492	-20.776	45.472	0.55438	-0.44708	0.46829	-0.52283	30.1	13111	100
2025-3-27 14:50:0.804	WT901BLE68-01(48591DE3C19B)	-0.390	-0.811	0.276	21.790	-24.292	88.379	-81.36	0.73	-87.89	-93.492	-20.776	45.472	0.55438	-0.44708	0.46829	-0.52283	30.1	13111	100
2025-3-27 14:50:0.805	WT901BLE68-01(48591DE3C19B)	-0.375	-0.811	0.276	21.790	-24.292	88.379	-81.13	1.68	-87.37	-93.492	-20.776	45.472	0.55438	-0.44708	0.46829	-0.52283	30.1	13111	100
2025-3-27 14:50:0.805	WT901BLE68-01(48591DE3C19B)	-0.375	-0.609	0.194	13.245	-29.602	108.276	-80.94	2.73	-86.81	-93.492	-20.776	45.472	0.55438	-0.44708	0.46829	-0.52283	30.1	13111	100
2025-3-27 14:50:0.805	WT901BLE68-01(48591DE3C19B)	-0.381	-0.609	0.194	13.245	-29.602	108.276	-80.78	3.87	-86.20	-93.492	-20.776	45.472	0.55438	-0.44708	0.46829	-0.52283	30.1	13111	100
2025-3-27 14:50:0.805	WT901BLE68-01(48591DE3C19B)	-0.381	-0.634	0.121	-7.263	-48.645	122.314	-80.69	5.05	-85.49	-93.492	-20.776	45.472	0.55438	-0.44708	0.46829	-0.52283	30.1	13111	100
2025-3-27 14:50:0.893	WT901BLE68-01(48591DE3C19B)	-0.396	-0.634	0.121	-7.263	-48.645	122.314	-80.69	6.28	-84.67	-93.492	-20.776	45.472	0.55438	-0.44708	0.46829	-0.52283	30.1	13111	100
2025-3-27 14:50:0.893	WT901BLE68-01(48591DE3C19B)	-0.396	-0.816	0.094	-18.921	-77.881	132.751	-80.72	7.54	-83.69	-93.492	-20.776	45.472	0.55438	-0.44708	0.46829	-0.52283	30.1	13111	100
2025-3-27 14:50:0.893	WT901BLE68-01(48591DE3C19B)	-0.438	-0.816	0.094	-18.921	-77.881	132.751	-80.77	8.82	-82.57	-93.492	-20.776	45.472	0.55438	-0.44708	0.46829	-0.52283	30.1	13111	100
2025-3-27 14:50:0.893	WT901BLE68-01(48591DE3C19B)	-0.438	-1.022	0.093	-23.987	-114.014	135.193	-80.78	10.08	-81.26	-93.492	-20.776	45.472	0.55438	-0.44708	0.46829	-0.52283	30.1	13111	100
2025-3-27 14:50:0.894	WT901BLE68-01(48591DE3C19B)	-0.474	-1.022	0.093	-23.987	-114.014	135.193	-80.77	11.30	-79.77	-93.492	-20.776	45.472	0.55438	-0.44708	0.46829	-0.52283	30.1	13111	100
2025-3-27 14:50:0.894	WT901BLE68-01(48591DE3C19B)	-0.474	-1.269	0.100	-26.123	-153.625	131.104	-80.70	12.47	-78.08	-93.492	-20.776	45.472	0.55438	-0.44708	0.46829	-0.52283	30.1	13111	100
2025-3-27 14:50:0.894	WT901BLE68-01(48591DE3C19B)	-0.394	-1.269	0.100	-26.123	-153.625	131.104	-80.57	13.58	-76.20	-93.492	-20.776	45.472	0.55438	-0.44708	0.46829	-0.52283	30.1	13111	100
2025-3-27 14:50:0.895	WT901BLE68-01(48591DE3C19B)	-0.394	-1.463	0.094	-7.507	-175.171	122.314	-80.28	14.61	-74.21	-93.492	-20.776	45.472	0.55438	-0.44708	0.46829	-0.52283	30.1	13111	100
2025-3-27 14:50:0.923	WT901BLE68-01(48591DE3C19B)	-0.304	-1.463	0.094	-7.507	-175.171	122.314	-79.85	15.55	-72.11	-93.492	-20.776	45.472	0.55438	-0.44708	0.46829	-0.52283	30.1	13111	100
2025-3-27 14:50:0.923	WT901BLE68-01(48591DE3C19B)	-0.304	-1.442	0.112	23.865	-165.344	117.249	-79.24	16.44	-70.05	-93.492	-20.776	45.472	0.55438	-0.44708	0.46829	-0.52283	30.1	13111	100
2025-3-27 14:50:0.923	WT901BLE68-01(48591DE3C19B)	-0.240	-1.442	0.112	23.865	-165.344	117.249	-78.47	17.29	-68.05	-93.492	-20.776	45.472	0.55438	-0.44708	0.46829	-0.52283	30.1	13111	100
2025-3-27 14:50:0.923	WT901BLE68-01(48591DE3C19B)	-0.240	-1.271	0.128	39.368	-139.404	113.770	-77.63	18.11	-66.18	-93.492	-20.776	45.472	0.69846	-0.45169	0.44064	-0.33740	30.1	13111	100
2025-3-27 14:50:0.962	WT901BLE68-01(48591DE3C19B)	-0.177	-1.271	0.128	39.368	-139.404	113.770	-76.73	18.90	-64.42	-93.492	-20.776	45.472	0.69846	-0.45169	0.44064	-0.33740	30.1	13111	100
2025-3-27 14:50:0.962	WT901BLE68-01(48591DE3C19B)	-0.177	-1.159	0.135	42.786	-101.318	113.708	-75.86	19.70	-62.86	-93.492	-20.776	45.472	0.69846	-0.45169	0.44064	-0.33740	30.1	13111	100
2025-3-27 14:50:0.962	WT901BLE68-01(48591DE3C19B)	-0.130	-1.159	0.135	42.786	-101.318	113.708	-75.01	20.52	-61.47	-93.492	-20.776	45.472	0.69846	-0.45169	0.44064	-0.33740	30.1	13111	100
2025-3-27 14:50:0.962	WT901BLE68-01(48591DE3C19B)	-0.130	-1.083	0.144	47.852	-55.725	115.540	-74.21	21.38	-60.31	-93.492	-20.776	45.472	0.69846	-0.45169	0.44064	-0.33740	30.1	13111	100
2025-3-27 14:50:1.13	WT901BLE68-01(48591DE3C19B)	-0.141	-1.083	0.144	47.852	-55.725	115.540	-73.44	22.30	-59.37	-93.492	-20.776	45.472	0.69846	-0.45169	0.44064	-0.33740	30.1	13111	100
2025-3-27 14:50:1.13	WT901BLE68-01(48591DE3C19B)	-0.141	-0.983	0.150	48.340	-15.564	119.568	-72.73	23.26	-58.62	-93.492	-20.776	45.472	0.69846	-0.45169	0.44064	-0.33740	30.1	13111	100
2025-3-27 14:50:1.13	WT901BLE68-01(48591DE3C19B)	-0.196	-0.983	0.150	48.340	-15.564	119.568	-72.09	24.29	-58.05	-93.492	-20.776	45.472	0.69846	-0.45169	0.44064	-0.33740	30.1	13111	100
2025-3-27 14:50:1.14	WT901BLE68-01(48591DE3C19B)	-0.196	-0.926	0.124	43.762	6.714	122.925	-71.50	25.36	-57.58	-93.492	-20.776	45.472	0.69846	-0.45169	0.44064	-0.33740	30.1	13111	100
2025-3-27 14:50:1.45	WT901BLE68-01(48591DE3C19B)	-0.233	-0.926	0.124	43.762	6.714	122.925	-70.98	26.47	-57.22	-93.492	-20.776	45.472	0.69846	-0.45169	0.44064	-0.33740	30.1	13111	100
2025-3-27 14:50:1.45	WT901BLE68-01(48591DE3C19B)	-0.233	-0.900	0.087	39.307	15.930	124.512	-70.53	27.61	-56.93	-93.492	-20.776	45.472	0.69846	-0.45169	0.44064	-0.33740	30.1	13111	100
2025-3-27 14:50:1.45	WT901BLE68-01(48591DE3C19B)	-0.280	-0.900	0.087	39.307	15.930	124.512	-70.07	28.75	-56.63	-93.492	-20.776	45.472	0.69846	-0.45169	0.44064	-0.33740	30.1	13111	100
2025-3-27 14:50:1.46	WT901BLE68-01(48591DE3C19B)	-0.280	-0.912	0.070	37.292	14.648	124.146	-69.62	29.87	-56.30	-93.492	-20.776	45.472	0.69846	-0.45169	0.44064	-0.33740	30.1	13111	100
2025-3-27 14:50:1.82	WT901BLE68-01(48591DE3C19B)	-0.312	-0.912	0.070	37.292	14.648	124.146	-69.16	30.98	-55.96	-93.492	-20.776	45.472	0.69846	-0.45169	0.44064	-0.33740	30.1	13111	100
2025-3-27 14:50:1.82	WT901BLE68-01(48591DE3C19B)	-0.312	-0.932	0.035	35.645	0.610	123.840	-68.63	32.03	-55.46	-93.492	-20.776	45.472	0.69846	-0.45169	0.44064	-0.33740	30.1	13111	100
2025-3-27 14:50:1.82	WT901BLE68-01(48591DE3C19B)	-0.293	-0.932	0.035	35.645	0.610	123.840	-68.09	33.07	-54.95	-81.340	-17.542	52.822	0.69846	-0.45169	0.44064	-0.33740	30.1	13111	100
2025-3-27 14:50:1.82	WT901BLE68-01(48591DE3C19B)	-0.293	-0.937	0.028	34.607	-15.381	122.009	-67.45	34.04	-54.24	-81.340	-17.542	52.822	0.69846	-0.45169	0.44064	-0.33740	30.1	13111	100
2025-3-27 14:50:1.133	WT901BLE68-01(48591DE3C19B)	-0.258	-0.937	0.028	34.607	-15.381	122.009	-66.80	34.99	-53.53	-81.340	-17.542	52.822	0.69846	-0.45169	0.44064	-0.33740	30.1	13111	100
2025-3-27 14:50:1.133	WT901BLE68-01(48591DE3C19B)	-0.258	-0.950	0.042	33.142	-26.245	118.408	-66.09	35.85	-52.68	-81.340	-17.542	52.822	0.69846	-0.45169	0.44064	-0.33740	30.1	13111	100
2025-3-27 14:50:1.133	WT901BLE68-01(48591DE3C19B)	-0.224	-0.950	0.042	33.142	-26.245	118.408	-65.36	36.69	-51.83	-81.340	-17.542	52.822	0.69846	-0.45169	0.44064	-0.33740	30.1	13111	100
2025-3-27 14:50:1.133	WT901BLE68-01(48591DE3C19B)	-0.224	-0.946	0.075	33.081	-28.748	113.647	-64.61	37.47	-50.95	-81.340	-17.542	52.822	0.69846	-0.45169	0.44064	-0.33740	30.1	13111	100
2025-3-27 14:50:1.163	WT901BLE68-01(48591DE3C19B)	-0.185	-0.946	0.075	33.081	-28.748	113.647	-63.85	38.24	-50.06	-81.340	-17.542	52.822	0.69846	-0.45169	0.44064	-0.33740	30.1	13111	100
2025-3-27 14:50:1.163	WT901BLE68-01(48591DE3C19B)	-0.185	-0.899	0.104	31.433	-23.010	108.154	-63.14	38.97	-49.25	-81.340	-17.542	52.822	0.69846	-0.45169	0.44064	-0.33740	30.1	13111	100
2025-3-27 14:50:1.163	WT901BLE68-01(48591DE3C19B)	-0.131	-0.899	0.104	31.433	-23.010	108.154	-62.41	39.69	-48.43	-81.340	-17.542	52.822	0.69846	-0.45169	0.44064	-0.33740	30.1	13111	100
2025-3-27 14:50:1.163	WT901BLE68-01(48591DE3C19B)	-0.131	-0.898	0.111	22.888	-7.935	98.145	-61.91	40.37	-47.82	-81.340	-17.542	52.822	0.69846	-0.45169	0.44064	-0.33740	30.1	13111	100
2025-3-27 14:50:1.223	WT901BLE68-01(48591DE3C19B)	-0.117	-0.898	0.111	22.888	-7.935	98.145	-61.40	41.04	-47.21	-81.340	-17.542	52.822	0.69846	-0.45169	0.44064	-0.33740	30.1	13111	100
2025-3-27 14:50:1.224	WT901BLE68-01(48591DE3C19B)	-0.117	-0.955	0.119	16.357	12.390	84.290	-61.16	41.68	-46.92	-81.340	-17.542	52.822	0.69846	-0.45169	0.44064	-0.33740	30.1	13111	100
2025-3-27 14:50:1.224	WT901BLE68-01(48591DE3C19B)	-0.135	-0.955	0.119	16.357	12.390	84.290	-60.90	42.31	-46.62	-81.340	-17.542	52.822	0.69846	-0.45169	0.44064	-0.33740	30.1	13111	100
2025-3-27 14:50:1.224	WT901BLE68-01(48591DE3C19B)	-0.135	-1.022	0.124	11.169	26.794	65.735	-60.90	42.85	-46.61	-81.340	-17.542	52.822	0.69846	-0.45169	0.44064	-0.33740	30.1	13111	100
2025-3-27 14:50:1.283	WT901BLE68-01(48591DE3C19B)	-0.114	-1.022	0.124	11.169	26.794	65.735	-60.90	43.38	-46.61	-81.340	-17.542	52.822	0.69846	-0.45169	0.44064	-0.33740	30.1	13111	100
2025-3-27 14:50:1.283	WT901BLE68-01(48591DE3C19B)	-0.114	-1.045	0.085	3.967	37.720	41.870	-61.17	43.75	-46.91	-81.340	-17.542	52.822	0.69846	-0.45169	0.44064	-0.33740	30.1	13111	100
2025-3-27 14:50:1.283	WT901BLE68-01(48591DE3C19B)	-0.103	-1.045	0.085	3.967	37.720	41.870	-61.44	44.11	-47.20	-81.340	-17.542	52.822	0.69846	-0.45169	0.44064	-0.33740	30.1	13111	100
2025-3-27 14:50:1.283	WT901BLE68-01(48591DE3C19B)	-0.103	-1.104	0.072	-4.395	53.894	13.611	-62.07	44.29	-47.89	-81.340	-17.542	52.822	0.69846	-0.45169	0.44064	-0.33740	30.1	13111	100
2025-3-27 14:50:1.285	WT901BLE68-01(48591DE3C19B)	-0.171	-1.104	0.072	-4.395	53.894	13.611	-62.70	44.47	-48.58	-81.340	-17.542	52.822	0.69846	-0.45169	0.44064	-0.33740	30.1	13111	100
2025-3-27 14:50:1.285	WT901BLE68-01(48591DE3C19B)	-0.171	-1.206	0.105	-6.470	62.012	-19.409	-63.57	44.38	-49.58	-81.340	-17.542	52.822	0.69846	-0.45169	0.44064	-0.33740	30.1	13111	100
2025-3-27 14:50:1.285	WT901BLE68-01(48591DE3C19B)	-0.195	-1.206	0.105	-6.470	62.012	-19.409	-64.43	44.27	-50.58	-81.340	-17.542	52.822	0.69846	-0.45169	0.44064	-0.33740	30.1	13111	100
2025-3-27 14:50:1.286	WT901BLE68-01(48591DE3C19B)	-0.195	-1.187	0.146	-3.784	59.631	-51.941	-65.37	43.86	-51.72	-81.340	-17.542	52.822	0.79050	-0.31366	0.50134	-0.15903	30.1	13111	100
2025-3-27 14:50:1.315	WT901BLE68-01(48591DE3C19B)	-0.121	-1.187	0.146	-3.784	59.631	-51.941	-66.28	43.43	-52.84	-81.340	-17.542	52.822	0.79050	-0.31366	0.50134	-0.15903	30.1	13111	100
2025-3-27 14:50:1.315	WT901BLE68-01(48591DE3C19B)	-0.121	-1.172	0.114	-7.996	61.951	-86.731	-67.34	42.68	-54.15	-81.340	-17.542	52.822	0.79050	-0.31366	0.50134	-0.15903	30.1	13111	100
2025-3-27 14:50:1.315	WT901BLE68-01(48591DE3C19B)	-0.130	-1.172	0.114	-7.996	61.951	-86.731	-68.37	41.92	-55.42	-81.340	-17.542	52.822	0.79050	-0.31366	0.50134	-0.15903	30.1	13111	100
2025-3-27 14:50:1.316	WT901BLE68-01(48591DE3C19B)	-0.130	-1.145	0.084	-5.066	76.843	-118.408	-69.54	40.90	-56.98	-81.340	-17.542	52.822	0.79050	-0.31366	0.50134	-0.15903	30.1	13111	100
2025-3-27 14:50:1.404	WT901BLE68-01(48591DE3C19B)	-0.242	-1.145	0.084	-5.066	76.843	-118.408	-70.65	39.85	-58.49	-81.340	-17.542	52.822	0.79050	-0.31366	0.50134	-0.15903	30.1	13111	100
2025-3-27 14:50:1.404	WT901BLE68-01(48591DE3C19B)	-0.242	-1.055	0.111	-4.150	79.895	-141.296	-71.77	38.59	-60.06	-81.340	-17.542	52.822	0.79050	-0.31366	0.50134	-0.15903	30.1	13111	100
2025-3-27 14:50:1.404	WT901BLE68-01(48591DE3C19B)	-0.297	-1.055	0.111	-4.150	79.895	-141.296	-72.82	37.32	-61.57	-81.340	-17.542	52.822	0.79050	-0.31366	0.50134	-0.15903	30.1	13111	100
2025-3-27 14:50:1.404	WT901BLE68-01(48591DE3C19B)	-0.297	-0.967	0.163	-5.127	68.298	-154.602	-73.76	35.87	-62.93	-81.340	-17.542	52.822	0.79050	-0.31366	0.50134	-0.15903	30.1	13111	100
2025-3-27 14:50:1.405	WT901BLE68-01(48591DE3C19B)	-0.308	-0.967	0.163	-5.127	68.298	-154.602	-74.62	34.42	-64.23	-81.340	-17.542	52.822	0.79050	-0.31366	0.50134	-0.15903	30.1	13111	100
2025-3-27 14:50:1.405	WT901BLE68-01(48591DE3C19B)	-0.308	-0.907	0.215	-8.240	50.720	-160.400	-75.36	32.87	-65.29	-81.340	-17.542	52.822	0.79050	-0.31366	0.50134	-0.15903	30.1	13111	100
2025-3-27 14:50:1.405	WT901BLE68-01(48591DE3C19B)	-0.319	-0.907	0.215	-8.240	50.720	-160.400	-76.03	31.32	-66.29	-81.340	-17.542	52.822	0.79050	-0.31366	0.50134	-0.15903	30.1	13111	100
2025-3-27 14:50:1.405	WT901BLE68-01(48591DE3C19B)	-0.319	-0.933	0.228	-23.193	24.475	-161.926	-76.66	29.69	-66.97	-81.340	-17.542	52.822	0.79050	-0.31366	0.50134	-0.15903	30.1	13111	100
2025-3-27 14:50:1.464	WT901BLE68-01(48591DE3C19B)	-0.293	-0.933	0.228	-23.193	24.475	-161.926	-77.24	28.07	-67.60	-81.340	-17.542	52.822	0.79050	-0.31366	0.50134	-0.15903	30.1	13111	100
2025-3-27 14:50:1.464	WT901BLE68-01(48591DE3C19B)	-0.293	-1.076	0.167	-38.940	-7.385	-160.461	-77.79	26.41	-67.86	-81.340	-17.542	52.822	0.79050	-0.31366	0.50134	-0.15903	30.1	13111	100
2025-3-27 14:50:1.464	WT901BLE68-01(48591DE3C19B)	-0.210	-1.076	0.167	-38.940	-7.385	-160.461	-78.32	24.75	-68.09	-81.340	-17.542	52.822	0.79050	-0.31366	0.50134	-0.15903	30.1	13111	100
2025-3-27 14:50:1.464	WT901BLE68-01(48591DE3C19B)	-0.210	-1.208	0.101	-41.748	-24.963	-157.593	-78.78	23.09	-68.12	-81.340	-17.542	52.822	0.79050	-0.31366	0.50134	-0.15903	30.1	13111	100
2025-3-27 14:50:1.492	WT901BLE68-01(48591DE3C19B)	-0.184	-1.208	0.101	-41.748	-24.963	-157.593	-79.23	21.44	-68.12	-81.340	-17.542	52.822	0.79050	-0.31366	0.50134	-0.15903	30.1	13111	100
2025-3-27 14:50:1.492	WT901BLE68-01(48591DE3C19B)	-0.220	-1.258	0.066	-36.987	-18.616	-158.997	-79.66	19.79	-68.18	-81.340	-17.542	52.822	0.79050	-0.31366	0.50134	-0.15903	30.1	13111	100
2025-3-27 14:50:1.492	WT901BLE68-01(48591DE3C19B)	-0.220	-1.238	0.081	-31.311	-0.610	-162.170	-80.08	18.15	-68.33	-81.340	-17.542	52.822	0.79050	-0.31366	0.50134	-0.15903	30.1	13111	100
2025-3-27 14:50:1.492	WT901BLE68-01(48591DE3C19B)	-0.253	-1.238	0.081	-31.311	-0.610	-162.170	-80.50	16.52	-68.55	-90.650	-23.422	52.234	0.79050	-0.31366	0.50134	-0.15903	30.1	13111	100
2025-3-27 14:50:1.552	WT901BLE68-01(48591DE3C19B)	-0.253	-1.178	0.134	-24.658	20.447	-164.734	-80.89	14.90	-68.87	-90.650	-23.422	52.234	0.79050	-0.31366	0.50134	-0.15903	30.1	13111	100
2025-3-27 14:50:1.553	WT901BLE68-01(48591DE3C19B)	-0.273	-1.178	0.134	-24.658	20.447	-164.734	-81.27	13.29	-69.29	-90.650	-23.422	52.234	0.79050	-0.31366	0.50134	-0.15903	30.1	13111	100
2025-3-27 14:50:1.553	WT901BLE68-01(48591DE3C19B)	-0.273	-1.104	0.180	-19.531	40.588	-165.955	-81.62	11.69	-69.79	-90.650	-23.422	52.234	0.79050	-0.31366	0.50134	-0.15903	30.1	13111	100
2025-3-27 14:50:1.553	WT901BLE68-01(48591DE3C19B)	-0.295	-1.104	0.180	-19.531	40.588	-165.955	-81.95	10.12	-70.37	-90.650	-23.422	52.234	0.79050	-0.31366	0.50134	-0.15903	30.1	13111	100
2025-3-27 14:50:1.613	WT901BLE68-01(48591DE3C19B)	-0.295	-1.029	0.186	-17.090	56.641	-166.626	-82.25	8.56	-71.02	-90.650	-23.422	52.234	0.79050	-0.31366	0.50134	-0.15903	30.1	13111	100
2025-3-27 14:50:1.613	WT901BLE68-01(48591DE3C19B)	-0.343	-1.029	0.186	-17.090	56.641	-166.626	-82.54	7.01	-71.74	-90.650	-23.422	52.234	0.79050	-0.31366	0.50134	-0.15903	30.1	13111	100
2025-3-27 14:50:1.613	WT901BLE68-01(48591DE3C19B)	-0.343	-1.000	0.169	-19.958	63.782	-167.908	-82.81	5.47	-72.48	-90.650	-23.422	52.234	0.79050	-0.31366	0.50134	-0.15903	30.1	13111	100
2025-3-27 14:50:1.613	WT901BLE68-01(48591DE3C19B)	-0.403	-1.000	0.169	-19.958	63.782	-167.908	-83.08	3.93	-73.25	-90.650	-23.422	52.234	0.79050	-0.31366	0.50134	-0.15903	30.1	13111	100
2025-3-27 14:50:1.614	WT901BLE68-01(48591DE3C19B)	-0.403	-1.018	0.165	-22.827	59.082	-170.227	-83.35	2.40	-73.97	-90.650	-23.422	52.234	0.79050	-0.31366	0.50134	-0.15903	30.1	13111	100
2025-3-27 14:50:1.614	WT901BLE68-01(48591DE3C19B)	-0.456	-1.018	0.165	-22.827	59.082	-170.227	-83.59	0.85	-74.67	-90.650	-23.422	52.234	0.79050	-0.31366	0.50134	-0.15903	30.1	13111	100
2025-3-27 14:50:1.614	WT901BLE68-01(48591DE3C19B)	-0.456	-1.037	0.186	-23.560	44.556	-171.509	-83.83	-0.69	-75.28	-90.650	-23.422	52.234	0.79050	-0.31366	0.50134	-0.15903	30.1	13111	100
2025-3-27 14:50:1.614	WT901BLE68-01(48591DE3C19B)	-0.503	-1.037	0.186	-23.560	44.556	-171.509	-84.05	-2.24	-75.81	-90.650	-23.422	52.234	0.79050	-0.31366	0.50134	-0.15903	30.1	13111	100
2025-3-27 14:50:1.643	WT901BLE68-01(48591DE3C19B)	-0.503	-1.059	0.221	-23.315	24.902	-169.128	-84.26	-3.77	-76.23	-90.650	-23.422	52.234	0.79050	-0.31366	0.50134	-0.15903	30.1	13111	100
2025-3-27 14:50:1.643	WT901BLE68-01(48591DE3C19B)	-0.541	-1.059	0.221	-23.315	24.902	-169.128	-84.46	-5.30	-76.55	-90.650	-23.422	52.234	0.79050	-0.31366	0.50134	-0.15903	30.1	13111	100
2025-3-27 14:50:1.643	WT901BLE68-01(48591DE3C19B)	-0.541	-1.068	0.263	-20.691	4.333	-164.185	-84.65	-6.79	-76.76	-90.650	-23.422	52.234	0.79050	-0.31366	0.50134	-0.15903	30.1	13111	100
2025-3-27 14:50:1.643	WT901BLE68-01(48591DE3C19B)	-0.533	-1.068	0.263	-20.691	4.333	-164.185	-84.83	-8.26	-76.85	-90.650	-23.422	52.234	0.79050	-0.31366	0.50134	-0.15903	30.1	13111	100
2025-3-27 14:50:1.733	WT901BLE68-01(48591DE3C19B)	-0.533	-1.055	0.277	-19.409	-8.972	-155.090	-85.01	-9.67	-76.87	-90.650	-23.422	52.234	0.79050	-0.31366	0.50134	-0.15903	30.1	13111	100
2025-3-27 14:50:1.733	WT901BLE68-01(48591DE3C19B)	-0.478	-1.055	0.277	-19.409	-8.972	-155.090	-85.19	-11.04	-76.81	-90.650	-23.422	52.234	0.79050	-0.31366	0.50134	-0.15903	30.1	13111	100
2025-3-27 14:50:1.733	WT901BLE68-01(48591DE3C19B)	-0.478	-1.025	0.288	-17.517	-8.545	-141.541	-85.36	-12.32	-76.74	-90.650	-23.422	52.234	0.79050	-0.31366	0.50134	-0.15903	30.1	13111	100
2025-3-27 14:50:1.733	WT901BLE68-01(48591DE3C19B)	-0.417	-1.025	0.288	-17.517	-8.545	-141.541	-85.52	-13.53	-76.67	-90.650	-23.422	52.234	0.79050	-0.31366	0.50134	-0.15903	30.1	13111	100
2025-3-27 14:50:1.734	WT901BLE68-01(48591DE3C19B)	-0.417	-0.981	0.315	-10.254	12.573	-121.521	-85.62	-14.62	-76.70	-90.650	-23.422	52.234	0.51443	-0.58801	0.34271	-0.52155	30.1	13111	100
2025-3-27 14:50:1.734	WT901BLE68-01(48591DE3C19B)	-0.415	-0.981	0.315	-10.254	12.573	-121.521	-85.65	-15.60	-76.83	-90.650	-23.422	52.234	0.51443	-0.58801	0.34271	-0.52155	30.1	13111	100
2025-3-27 14:50:1.734	WT901BLE68-01(48591DE3C19B)	-0.415	-0.887	0.302	-3.662	36.194	-99.304	-85.61	-16.45	-77.07	-90.650	-23.422	52.234	0.51443	-0.58801	0.34271	-0.52155	30.1	13111	100
2025-3-27 14:50:1.734	WT901BLE68-01(48591DE3C19B)	-0.460	-0.887	0.302	-3.662	36.194	-99.304	-85.50	-17.18	-77.44	-90.650	-23.422	52.234	0.51443	-0.58801	0.34271	-0.52155	30.1	13111	100
2025-3-27 14:50:1.823	WT901BLE68-01(48591DE3C19B)	-0.460	-0.874	0.304	-7.690	45.593	-76.965	-85.38	-17.79	-77.84	-90.650	-23.422	52.234	0.51443	-0.58801	0.34271	-0.52155	30.1	13111	100
2025-3-27 14:50:1.823	WT901BLE68-01(48591DE3C19B)	-0.501	-0.874	0.304	-7.690	45.593	-76.965	-85.27	-18.27	-78.29	-90.650	-23.422	52.234	0.51443	-0.58801	0.34271	-0.52155	30.1	13111	100
2025-3-27 14:50:1.823	WT901BLE68-01(48591DE3C19B)	-0.501	-0.946	0.312	-8.728	41.748	-54.016	-85.17	-18.64	-78.70	-90.650	-23.422	52.234	0.51443	-0.58801	0.34271	-0.52155	30.1	13111	100
2025-3-27 14:50:1.823	WT901BLE68-01(48591DE3C19B)	-0.544	-0.946	0.312	-8.728	41.748	-54.016	-85.08	-18.89	-79.09	-90.650	-23.422	52.234	0.51443	-0.58801	0.34271	-0.52155	30.1	13111	100
2025-3-27 14:50:1.824	WT901BLE68-01(48591DE3C19B)	-0.544	-0.990	0.305	-5.188	33.081	-28.748	-84.99	-19.01	-79.42	-90.650	-23.422	52.234	0.51443	-0.58801	0.34271	-0.52155	30.1	13111	100
2025-3-27 14:50:1.824	WT901BLE68-01(48591DE3C19B)	-0.591	-0.990	0.305	-5.188	33.081	-28.748	-84.90	-19.01	-79.69	-90.650	-23.422	52.234	0.51443	-0.58801	0.34271	-0.52155	30.1	13111	100
2025-3-27 14:50:1.824	WT901BLE68-01(48591DE3C19B)	-0.591	-1.029	0.288	-4.883	22.644	-6.348	-84.83	-18.90	-79.89	-90.650	-23.422	52.234	0.51443	-0.58801	0.34271	-0.52155	30.1	13111	100
2025-3-27 14:50:1.824	WT901BLE68-01(48591DE3C19B)	-0.640	-1.029	0.288	-4.883	22.644	-6.348	-84.79	-18.68	-80.03	-90.650	-23.422	52.234	0.51443	-0.58801	0.34271	-0.52155	30.1	13111	100
2025-3-27 14:50:1.853	WT901BLE68-01(48591DE3C19B)	-0.640	-1.141	0.254	-4.089	9.521	15.808	-84.77	-18.35	-80.08	-90.650	-23.422	52.234	0.51443	-0.58801	0.34271	-0.52155	30.1	13111	100
2025-3-27 14:50:1.853	WT901BLE68-01(48591DE3C19B)	-0.645	-1.141	0.254	-4.089	9.521	15.808	-84.77	-17.92	-80.06	-90.650	-23.422	52.234	0.51443	-0.58801	0.34271	-0.52155	30.1	13111	100
2025-3-27 14:50:1.853	WT901BLE68-01(48591DE3C19B)	-0.645	-1.204	0.256	6.348	-3.723	40.283	-84.75	-17.37	-79.95	-90.650	-23.422	52.234	0.51443	-0.58801	0.34271	-0.52155	30.1	13111	100
2025-3-27 14:50:1.854	WT901BLE68-01(48591DE3C19B)	-0.618	-1.204	0.256	6.348	-3.723	40.283	-84.70	-16.72	-79.76	-90.650	-23.422	52.234	0.51443	-0.58801	0.34271	-0.52155	30.1	13111	100
2025-3-27 14:50:1.913	WT901BLE68-01(48591DE3C19B)	-0.618	-1.154	0.247	11.536	-18.555	65.247	-84.65	-15.95	-79.48	-90.650	-23.422	52.234	0.51443	-0.58801	0.34271	-0.52155	30.1	13111	100
2025-3-27 14:50:1.913	WT901BLE68-01(48591DE3C19B)	-0.608	-1.154	0.247	11.536	-18.555	65.247	-84.60	-15.07	-79.10	-90.650	-23.422	52.234	0.51443	-0.58801	0.34271	-0.52155	30.1	13111	100
2025-3-27 14:50:1.913	WT901BLE68-01(48591DE3C19B)	-0.608	-1.249	0.284	7.385	-38.330	89.539	-84.59	-14.08	-78.62	-89.866	-48.118	47.432	0.51443	-0.58801	0.34271	-0.52155	30.1	13111	100
2025-3-27 14:50:1.913	WT901BLE68-01(48591DE3C19B)	-0.572	-1.249	0.284	7.385	-38.330	89.539	-84.62	-12.98	-78.04	-89.866	-48.118	47.432	0.51443	-0.58801	0.34271	-0.52155	30.1	13111	100
2025-3-27 14:50:2.3	WT901BLE68-01(48591DE3C19B)	-0.572	-1.335	0.328	16.785	-55.847	112.366	-84.62	-11.79	-77.35	-89.866	-48.118	47.432	0.51443	-0.58801	0.34271	-0.52155	30.1	13111	100
2025-3-27 14:50:2.3	WT901BLE68-01(48591DE3C19B)	-0.457	-1.335	0.328	16.785	-55.847	112.366	-84.56	-10.50	-76.59	-89.866	-48.118	47.432	0.51443	-0.58801	0.34271	-0.52155	30.1	13111	100
2025-3-27 14:50:2.3	WT901BLE68-01(48591DE3C19B)	-0.457	-1.165	0.309	32.471	-59.143	136.230	-84.42	-9.11	-75.79	-89.866	-48.118	47.432	0.51443	-0.58801	0.34271	-0.52155	30.1	13111	100
2025-3-27 14:50:2.3	WT901BLE68-01(48591DE3C19B)	-0.378	-1.165	0.309	32.471	-59.143	136.230	-84.18	-7.61	-74.98	-89.866	-48.118	47.432	0.51443	-0.58801	0.34271	-0.52155	30.1	13111	100
2025-3-27 14:50:2.4	WT901BLE68-01(48591DE3C19B)	-0.378	-0.995	0.232	33.447	-49.927	160.522	-83.90	-5.88	-74.23	-89.866	-48.118	47.432	0.51443	-0.58801	0.34271	-0.52155	30.1	13111	100
2025-3-27 14:50:2.4	WT901BLE68-01(48591DE3C19B)	-0.396	-0.995	0.232	33.447	-49.927	160.522	-83.61	-4.16	-73.49	-89.866	-48.118	47.432	0.51443	-0.58801	0.34271	-0.52155	30.1	13111	100
2025-3-27 14:50:2.4	WT901BLE68-01(48591DE3C19B)	-0.396	-1.024	0.159	26.123	-50.964	180.298	-83.36	-2.26	-72.70	-89.866	-48.118	47.432	0.51443	-0.58801	0.34271	-0.52155	30.1	13111	100
2025-3-27 14:50:2.4	WT901BLE68-01(48591DE3C19B)	-0.409	-1.024	0.159	26.123	-50.964	180.298	-83.11	-0.38	-71.91	-89.866	-48.118	47.432	0.51443	-0.58801	0.34271	-0.52155	30.1	13111	100
2025-3-27 14:50:2.5	WT901BLE68-01(48591DE3C19B)	-0.409	-1.182	0.114	15.747	-68.359	194.824	-82.92	1.59	-70.91	-89.866	-48.118	47.432	0.51443	-0.58801	0.34271	-0.52155	30.1	13111	100
2025-3-27 14:50:2.5	WT901BLE68-01(48591DE3C19B)	-0.407	-1.182	0.114	15.747	-68.359	194.824	-82.72	3.57	-69.91	-89.866	-48.118	47.432	0.51443	-0.58801	0.34271	-0.52155	30.1	13111	100
2025-3-27 14:50:2.5	WT901BLE68-01(48591DE3C19B)	-0.407	-1.391	0.073	10.742	-90.088	204.041	-82.51	5.58	-68.66	-89.866	-48.118	47.432	0.51443	-0.58801	0.34271	-0.52155	30.1	13111	100
2025-3-27 14:50:2.5	WT901BLE68-01(48591DE3C19B)	-0.428	-1.391	0.073	10.742	-90.088	204.041	-82.27	7.57	-67.41	-89.866	-48.118	47.432	0.51443	-0.58801	0.34271	-0.52155	30.1	13111	100
2025-3-27 14:50:2.63	WT901BLE68-01(48591DE3C19B)	-0.428	-1.632	0.036	13.855	-110.352	206.787	-81.93	9.54	-65.93	-89.866	-48.118	47.432	0.51443	-0.58801	0.34271	-0.52155	30.1	13111	100
2025-3-27 14:50:2.63	WT901BLE68-01(48591DE3C19B)	-0.415	-1.632	0.036	13.855	-110.352	206.787	-81.54	11.48	-64.42	-89.866	-48.118	47.432	0.51443	-0.58801	0.34271	-0.52155	30.1	13111	100
2025-3-27 14:50:2.64	WT901BLE68-01(48591DE3C19B)	-0.415	-1.796	0.008	31.433	-122.803	203.857	-80.91	13.34	-62.78	-89.866	-48.118	47.432	0.51443	-0.58801	0.34271	-0.52155	30.1	13111	100
2025-3-27 14:50:2.64	WT901BLE68-01(48591DE3C19B)	-0.357	-1.796	0.008	31.433	-122.803	203.857	-80.22	15.17	-61.09	-89.866	-48.118	47.432	0.51443	-0.58801	0.34271	-0.52155	30.1	13111	100
2025-3-27 14:50:2.92	WT901BLE68-01(48591DE3C19B)	-0.357	-1.749	0.011	52.612	-119.324	200.378	-79.29	16.94	-59.41	-89.866	-48.118	47.432	0.51443	-0.58801	0.34271	-0.52155	30.1	13111	100
2025-3-27 14:50:2.92	WT901BLE68-01(48591DE3C19B)	-0.336	-1.749	0.011	52.612	-119.324	200.378	-78.30	18.65	-57.69	-89.866	-48.118	47.432	0.51443	-0.58801	0.34271	-0.52155	30.1	13111	100
2025-3-27 14:50:2.92	WT901BLE68-01(48591DE3C19B)	-0.336	-1.617	0.050	63.171	-98.450	195.374	-77.23	20.33	-56.15	-89.866	-48.118	47.432	0.51443	-0.58801	0.34271	-0.52155	30.1	13111	100
2025-3-27 14:50:2.92	WT901BLE68-01(48591DE3C19B)	-0.313	-1.617	0.050	63.171	-98.450	195.374	-76.10	21.96	-54.56	-89.866	-48.118	47.432	0.74564	-0.46466	0.41107	-0.24292	30.1	13111	100
2025-3-27 14:50:2.152	WT901BLE68-01(48591DE3C19B)	-0.313	-1.487	0.088	66.345	-79.712	195.007	-74.97	23.60	-53.11	-89.866	-48.118	47.432	0.74564	-0.46466	0.41107	-0.24292	30.1	13111	100
2025-3-27 14:50:2.152	WT901BLE68-01(48591DE3C19B)	-0.227	-1.487	0.088	66.345	-79.712	195.007	-73.79	25.20	-51.62	-89.866	-48.118	47.432	0.74564	-0.46466	0.41107	-0.24292	30.1	13111	100
2025-3-27 14:50:2.152	WT901BLE68-01(48591DE3C19B)	-0.227	-1.360	0.104	61.462	-54.932	195.129	-72.71	26.83	-50.34	-89.866	-48.118	47.432	0.74564	-0.46466	0.41107	-0.24292	30.1	13111	100
2025-3-27 14:50:2.152	WT901BLE68-01(48591DE3C19B)	-0.200	-1.360	0.104	61.462	-54.932	195.129	-71.59	28.43	-49.02	-89.866	-48.118	47.432	0.74564	-0.46466	0.41107	-0.24292	30.1	13111	100
2025-3-27 14:50:2.182	WT901BLE68-01(48591DE3C19B)	-0.200	-1.257	0.081	56.641	-27.954	197.205	-70.60	30.10	-47.93	-89.866	-48.118	47.432	0.74564	-0.46466	0.41107	-0.24292	30.1	13111	100
2025-3-27 14:50:2.182	WT901BLE68-01(48591DE3C19B)	-0.210	-1.257	0.081	56.641	-27.954	197.205	-69.57	31.74	-46.80	-89.866	-48.118	47.432	0.74564	-0.46466	0.41107	-0.24292	30.1	13111	100
2025-3-27 14:50:2.182	WT901BLE68-01(48591DE3C19B)	-0.210	-1.170	0.048	50.720	-10.437	196.167	-68.66	33.41	-45.81	-89.866	-48.118	47.432	0.74564	-0.46466	0.41107	-0.24292	30.1	13111	100
2025-3-27 14:50:2.182	WT901BLE68-01(48591DE3C19B)	-0.238	-1.170	0.048	50.720	-10.437	196.167	-67.70	35.06	-44.78	-89.866	-48.118	47.432	0.74564	-0.46466	0.41107	-0.24292	30.1	13111	100
2025-3-27 14:50:2.213	WT901BLE68-01(48591DE3C19B)	-0.238	-1.099	0.014	46.021	-2.441	192.993	-66.82	36.71	-43.93	-89.866	-48.118	47.432	0.74564	-0.46466	0.41107	-0.24292	30.1	13111	100
2025-3-27 14:50:2.213	WT901BLE68-01(48591DE3C19B)	-0.191	-1.099	0.014	46.021	-2.441	192.993	-65.91	38.33	-43.05	-89.866	-48.118	47.432	0.74564	-0.46466	0.41107	-0.24292	30.1	13111	100
2025-3-27 14:50:2.213	WT901BLE68-01(48591DE3C19B)	-0.191	-1.048	-0.032	37.537	-1.953	185.547	-65.07	39.86	-42.16	-89.866	-48.118	47.432	0.74564	-0.46466	0.41107	-0.24292	30.1	13111	100
2025-3-27 14:50:2.213	WT901BLE68-01(48591DE3C19B)	-0.035	-1.048	-0.032	37.537	-1.953	185.547	-64.19	41.38	-41.23	-89.866	-48.118	47.432	0.74564	-0.46466	0.41107	-0.24292	30.1	13111	100
2025-3-27 14:50:2.243	WT901BLE68-01(48591DE3C19B)	-0.035	-0.995	-0.101	34.485	0.000	169.312	-63.37	42.74	-40.38	-89.866	-48.118	47.432	0.74564	-0.46466	0.41107	-0.24292	30.1	13111	100
2025-3-27 14:50:2.243	WT901BLE68-01(48591DE3C19B)	0.068	-0.995	-0.101	34.485	0.000	169.312	-62.52	44.08	-39.49	-89.866	-48.118	47.432	0.74564	-0.46466	0.41107	-0.24292	30.1	13111	100
2025-3-27 14:50:2.243	WT901BLE68-01(48591DE3C19B)	0.068	-0.895	-0.078	32.349	6.531	150.024	-61.80	45.26	-38.77	-89.866	-48.118	47.432	0.74564	-0.46466	0.41107	-0.24292	30.1	13111	100
2025-3-27 14:50:2.243	WT901BLE68-01(48591DE3C19B)	0.047	-0.895	-0.078	32.349	6.531	150.024	-61.05	46.42	-38.02	-89.866	-48.118	47.432	0.74564	-0.46466	0.41107	-0.24292	30.1	13111	100
2025-3-27 14:50:2.303	WT901BLE68-01(48591DE3C19B)	0.047	-0.834	0.006	29.846	15.381	127.686	-60.50	47.41	-37.52	-89.866	-48.118	47.432	0.74564	-0.46466	0.41107	-0.24292	30.1	13111	100
2025-3-27 14:50:2.303	WT901BLE68-01(48591DE3C19B)	0.022	-0.834	0.006	29.846	15.381	127.686	-59.93	48.38	-37.00	-89.866	-48.118	47.432	0.74564	-0.46466	0.41107	-0.24292	30.1	13111	100
2025-3-27 14:50:2.303	WT901BLE68-01(48591DE3C19B)	0.022	-0.772	0.085	24.902	19.531	108.643	-59.54	49.21	-36.67	-89.866	-48.118	47.432	0.74564	-0.46466	0.41107	-0.24292	30.1	13111	100
2025-3-27 14:50:2.303	WT901BLE68-01(48591DE3C19B)	0.004	-0.772	0.085	24.902	19.531	108.643	-59.14	50.02	-36.32	-89.866	-48.118	47.432	0.74564	-0.46466	0.41107	-0.24292	30.1	13111	100
2025-3-27 14:50:2.332	WT901BLE68-01(48591DE3C19B)	0.004	-0.717	0.119	18.494	23.438	90.088	-58.94	50.69	-36.16	-92.218	0.588	64.288	0.74564	-0.46466	0.41107	-0.24292	30.1	13111	100
2025-3-27 14:50:2.333	WT901BLE68-01(48591DE3C19B)	-0.036	-0.717	0.119	18.494	23.438	90.088	-58.74	51.35	-36.00	-92.218	0.588	64.288	0.74564	-0.46466	0.41107	-0.24292	30.1	13111	100
2025-3-27 14:50:2.333	WT901BLE68-01(48591DE3C19B)	-0.036	-0.728	0.083	6.775	24.597	70.313	-58.78	51.84	-36.01	-92.218	0.588	64.288	0.74564	-0.46466	0.41107	-0.24292	30.1	13111	100
2025-3-27 14:50:2.333	WT901BLE68-01(48591DE3C19B)	-0.071	-0.728	0.083	6.775	24.597	70.313	-58.83	52.33	-36.02	-92.218	0.588	64.288	0.74564	-0.46466	0.41107	-0.24292	30.1	13111	100
2025-3-27 14:50:2.362	WT901BLE68-01(48591DE3C19B)	-0.071	-0.855	0.040	-3.723	14.038	49.438	-59.00	52.58	-36.07	-92.218	0.588	64.288	0.74564	-0.46466	0.41107	-0.24292	30.1	13111	100
2025-3-27 14:50:2.362	WT901BLE68-01(48591DE3C19B)	-0.008	-0.855	0.040	-3.723	14.038	49.438	-59.17	52.83	-36.11	-92.218	0.588	64.288	0.74564	-0.46466	0.41107	-0.24292	30.1	13111	100
2025-3-27 14:50:2.362	WT901BLE68-01(48591DE3C19B)	-0.008	-0.968	0.037	-6.409	-0.854	24.658	-59.37	52.79	-36.16	-92.218	0.588	64.288	0.74564	-0.46466	0.41107	-0.24292	30.1	13111	100
2025-3-27 14:50:2.362	WT901BLE68-01(48591DE3C19B)	0.065	-0.968	0.037	-6.409	-0.854	24.658	-59.57	52.75	-36.21	-92.218	0.588	64.288	0.74564	-0.46466	0.41107	-0.24292	30.1	13111	100
2025-3-27 14:50:2.423	WT901BLE68-01(48591DE3C19B)	0.065	-0.981	0.034	-6.775	-6.287	0.427	-59.87	52.47	-36.38	-92.218	0.588	64.288	0.74564	-0.46466	0.41107	-0.24292	30.1	13111	100
2025-3-27 14:50:2.423	WT901BLE68-01(48591DE3C19B)	0.038	-0.981	0.034	-6.775	-6.287	0.427	-60.17	52.19	-36.55	-92.218	0.588	64.288	0.74564	-0.46466	0.41107	-0.24292	30.1	13111	100
2025-3-27 14:50:2.423	WT901BLE68-01(48591DE3C19B)	-0.050	-1.034	0.050	-15.381	-0.244	-23.926	-60.77	51.72	-36.99	-92.218	0.588	64.288	0.74564	-0.46466	0.41107	-0.24292	30.1	13111	100
2025-3-27 14:50:2.423	WT901BLE68-01(48591DE3C19B)	-0.050	-1.191	0.080	-23.621	5.371	-52.673	-61.51	51.14	-37.57	-92.218	0.588	64.288	0.74564	-0.46466	0.41107	-0.24292	30.1	13111	100
2025-3-27 14:50:2.452	WT901BLE68-01(48591DE3C19B)	-0.129	-1.191	0.080	-23.621	5.371	-52.673	-62.39	50.44	-38.27	-92.218	0.588	64.288	0.74564	-0.46466	0.41107	-0.24292	30.1	13111	100
2025-3-27 14:50:2.452	WT901BLE68-01(48591DE3C19B)	-0.129	-1.278	0.110	-21.851	7.446	-80.811	-63.30	49.62	-39.05	-92.218	0.588	64.288	0.74564	-0.46466	0.41107	-0.24292	30.1	13111	100
2025-3-27 14:50:2.452	WT901BLE68-01(48591DE3C19B)	-0.146	-1.278	0.110	-21.851	7.446	-80.811	-64.25	48.68	-39.90	-92.218	0.588	64.288	0.74564	-0.46466	0.41107	-0.24292	30.1	13111	100
2025-3-27 14:50:2.453	WT901BLE68-01(48591DE3C19B)	-0.146	-1.299	0.103	-24.536	9.521	-111.633	-65.25	47.60	-40.81	-92.218	0.588	64.288	0.74564	-0.46466	0.41107	-0.24292	30.1	13111	100
2025-3-27 14:50:2.482	WT901BLE68-01(48591DE3C19B)	-0.185	-1.299	0.103	-24.536	9.521	-111.633	-66.28	46.39	-41.78	-92.218	0.588	64.288	0.74564	-0.46466	0.41107	-0.24292	30.1	13111	100
2025-3-27 14:50:2.482	WT901BLE68-01(48591DE3C19B)	-0.185	-1.332	0.106	-25.513	15.076	-141.785	-67.35	45.04	-42.81	-92.218	0.588	64.288	0.74564	-0.46466	0.41107	-0.24292	30.1	13111	100
2025-3-27 14:50:2.482	WT901BLE68-01(48591DE3C19B)	-0.242	-1.332	0.106	-25.513	15.076	-141.785	-68.43	43.57	-43.88	-92.218	0.588	64.288	0.74564	-0.46466	0.41107	-0.24292	30.1	13111	100
2025-3-27 14:50:2.483	WT901BLE68-01(48591DE3C19B)	-0.242	-1.250	0.122	-21.667	22.217	-167.053	-69.49	41.98	-45.00	-92.218	0.588	64.288	0.74564	-0.46466	0.41107	-0.24292	30.1	13111	100
2025-3-27 14:50:2.543	WT901BLE68-01(48591DE3C19B)	-0.293	-1.250	0.122	-21.667	22.217	-167.053	-70.53	40.29	-46.14	-92.218	0.588	64.288	0.74564	-0.46466	0.41107	-0.24292	30.1	13111	100
2025-3-27 14:50:2.543	WT901BLE68-01(48591DE3C19B)	-0.293	-1.138	0.157	-21.790	27.100	-182.861	-71.53	38.52	-47.27	-92.218	0.588	64.288	0.77902	-0.39807	0.46640	-0.13043	30.1	13111	100
2025-3-27 14:50:2.543	WT901BLE68-01(48591DE3C19B)	-0.320	-1.138	0.157	-21.790	27.100	-182.861	-72.48	36.69	-48.38	-92.218	0.588	64.288	0.77902	-0.39807	0.46640	-0.13043	30.1	13111	100
2025-3-27 14:50:2.544	WT901BLE68-01(48591DE3C19B)	-0.320	-1.087	0.192	-26.672	27.954	-192.322	-73.41	34.82	-49.45	-92.218	0.588	64.288	0.77902	-0.39807	0.46640	-0.13043	30.1	13111	100
2025-3-27 14:50:2.603	WT901BLE68-01(48591DE3C19B)	-0.313	-1.087	0.192	-26.672	27.954	-192.322	-74.30	32.91	-50.48	-92.218	0.588	64.288	0.77902	-0.39807	0.46640	-0.13043	30.1	13111	100
2025-3-27 14:50:2.603	WT901BLE68-01(48591DE3C19B)	-0.313	-1.090	0.188	-31.372	24.109	-198.792	-75.13	30.96	-51.43	-92.218	0.588	64.288	0.77902	-0.39807	0.46640	-0.13043	30.1	13111	100
2025-3-27 14:50:2.603	WT901BLE68-01(48591DE3C19B)	-0.246	-1.090	0.188	-31.372	24.109	-198.792	-75.92	28.98	-52.31	-92.218	0.588	64.288	0.77902	-0.39807	0.46640	-0.13043	30.1	13111	100
2025-3-27 14:50:2.603	WT901BLE68-01(48591DE3C19B)	-0.246	-1.121	0.161	-39.490	19.348	-200.195	-76.69	26.99	-53.12	-92.218	0.588	64.288	0.77902	-0.39807	0.46640	-0.13043	30.1	13111	100
2025-3-27 14:50:2.604	WT901BLE68-01(48591DE3C19B)	-0.184	-1.121	0.161	-39.490	19.348	-200.195	-77.44	25.00	-53.87	-92.218	0.588	64.288	0.77902	-0.39807	0.46640	-0.13043	30.1	13111	100
2025-3-27 14:50:2.604	WT901BLE68-01(48591DE3C19B)	-0.184	-1.234	0.127	-48.035	24.963	-203.491	-78.20	22.99	-54.60	-92.218	0.588	64.288	0.77902	-0.39807	0.46640	-0.13043	30.1	13111	100
2025-3-27 14:50:2.604	WT901BLE68-01(48591DE3C19B)	-0.198	-1.234	0.127	-48.035	24.963	-203.491	-78.97	20.98	-55.32	-92.218	0.588	64.288	0.77902	-0.39807	0.46640	-0.13043	30.1	13111	100
2025-3-27 14:50:2.604	WT901BLE68-01(48591DE3C19B)	-0.198	-1.363	0.104	-46.509	41.931	-205.872	-79.73	18.98	-56.10	-92.218	0.588	64.288	0.77902	-0.39807	0.46640	-0.13043	30.1	13111	100
2025-3-27 14:50:2.663	WT901BLE68-01(48591DE3C19B)	-0.303	-1.363	0.104	-46.509	41.931	-205.872	-80.46	16.98	-56.93	-92.218	0.588	64.288	0.77902	-0.39807	0.46640	-0.13043	30.1	13111	100
2025-3-27 14:50:2.663	WT901BLE68-01(48591DE3C19B)	-0.303	-1.406	0.115	-39.551	57.373	-208.862	-81.15	14.97	-57.80	-92.218	0.588	64.288	0.77902	-0.39807	0.46640	-0.13043	30.1	13111	100
2025-3-27 14:50:2.663	WT901BLE68-01(48591DE3C19B)	-0.392	-1.406	0.115	-39.551	57.373	-208.862	-81.78	12.97	-58.72	-92.218	0.588	64.288	0.77902	-0.39807	0.46640	-0.13043	30.1	13111	100
2025-3-27 14:50:2.663	WT901BLE68-01(48591DE3C19B)	-0.392	-1.381	0.149	-36.743	63.171	-210.144	-82.36	10.98	-59.65	-92.218	0.588	64.288	0.77902	-0.39807	0.46640	-0.13043	30.1	13111	100
2025-3-27 14:50:2.692	WT901BLE68-01(48591DE3C19B)	-0.438	-1.381	0.149	-36.743	63.171	-210.144	-82.89	8.99	-60.57	-92.218	0.588	64.288	0.77902	-0.39807	0.46640	-0.13043	30.1	13111	100
2025-3-27 14:50:2.692	WT901BLE68-01(48591DE3C19B)	-0.438	-1.349	0.182	-34.607	62.500	-211.792	-83.38	6.99	-61.47	-92.218	0.588	64.288	0.77902	-0.39807	0.46640	-0.13043	30.1	13111	100
2025-3-27 14:50:2.692	WT901BLE68-01(48591DE3C19B)	-0.479	-1.349	0.182	-34.607	62.500	-211.792	-83.81	5.00	-62.35	-92.218	0.588	64.288	0.77902	-0.39807	0.46640	-0.13043	30.1	13111	100
2025-3-27 14:50:2.692	WT901BLE68-01(48591DE3C19B)	-0.479	-1.306	0.201	-32.166	52.673	-210.632	-84.19	3.01	-63.17	-105.154	-23.128	61.250	0.77902	-0.39807	0.46640	-0.13043	30.1	13111	100
2025-3-27 14:50:2.722	WT901BLE68-01(48591DE3C19B)	-0.477	-1.306	0.201	-32.166	52.673	-210.632	-84.53	1.04	-63.91	-105.154	-23.128	61.250	0.77902	-0.39807	0.46640	-0.13043	30.1	13111	100
2025-3-27 14:50:2.722	WT901BLE68-01(48591DE3C19B)	-0.477	-1.271	0.183	-30.945	41.443	-208.374	-84.84	-0.91	-64.59	-105.154	-23.128	61.250	0.77902	-0.39807	0.46640	-0.13043	30.1	13111	100
2025-3-27 14:50:2.722	WT901BLE68-01(48591DE3C19B)	-0.465	-1.271	0.183	-30.945	41.443	-208.374	-85.12	-2.85	-65.21	-105.154	-23.128	61.250	0.77902	-0.39807	0.46640	-0.13043	30.1	13111	100
2025-3-27 14:50:2.723	WT901BLE68-01(48591DE3C19B)	-0.465	-1.263	0.159	-31.616	37.537	-204.956	-85.37	-4.75	-65.80	-105.154	-23.128	61.250	0.77902	-0.39807	0.46640	-0.13043	30.1	13111	100
2025-3-27 14:50:2.782	WT901BLE68-01(48591DE3C19B)	-0.488	-1.263	0.159	-31.616	37.537	-204.956	-85.62	-6.64	-66.36	-105.154	-23.128	61.250	0.77902	-0.39807	0.46640	-0.13043	30.1	13111	100
2025-3-27 14:50:2.782	WT901BLE68-01(48591DE3C19B)	-0.488	-1.269	0.158	-28.931	38.635	-196.655	-85.83	-8.46	-66.91	-105.154	-23.128	61.250	0.77902	-0.39807	0.46640	-0.13043	30.1	13111	100
2025-3-27 14:50:2.782	WT901BLE68-01(48591DE3C19B)	-0.469	-1.269	0.158	-28.931	38.635	-196.655	-86.01	-10.24	-67.47	-105.154	-23.128	61.250	0.77902	-0.39807	0.46640	-0.13043	30.1	13111	100
2025-3-27 14:50:2.782	WT901BLE68-01(48591DE3C19B)	-0.469	-1.257	0.190	-26.245	49.438	-184.814	-86.14	-11.94	-68.08	-105.154	-23.128	61.250	0.77902	-0.39807	0.46640	-0.13043	30.1	13111	100
2025-3-27 14:50:2.812	WT901BLE68-01(48591DE3C19B)	-0.463	-1.257	0.190	-26.245	49.438	-184.814	-86.24	-13.57	-68.74	-105.154	-23.128	61.250	0.77902	-0.39807	0.46640	-0.13043	30.1	13111	100
2025-3-27 14:50:2.813	WT901BLE68-01(48591DE3C19B)	-0.463	-1.240	0.196	-20.386	70.801	-166.443	-86.26	-15.10	-69.50	-105.154	-23.128	61.250	0.77902	-0.39807	0.46640	-0.13043	30.1	13111	100
2025-3-27 14:50:2.813	WT901BLE68-01(48591DE3C19B)	-0.494	-1.240	0.196	-20.386	70.801	-166.443	-86.20	-16.51	-70.38	-105.154	-23.128	61.250	0.77902	-0.39807	0.46640	-0.13043	30.1	13111	100
2025-3-27 14:50:2.813	WT901BLE68-01(48591DE3C19B)	-0.494	-1.175	0.206	-10.193	88.562	-146.545	-86.04	-17.80	-71.35	-105.154	-23.128	61.250	0.77902	-0.39807	0.46640	-0.13043	30.1	13111	100
2025-3-27 14:50:2.933	WT901BLE68-01(48591DE3C19B)	-0.542	-1.175	0.206	-10.193	88.562	-146.545	-85.79	-18.98	-72.42	-105.154	-23.128	61.250	0.77902	-0.39807	0.46640	-0.13043	30.1	13111	100
2025-3-27 14:50:2.933	WT901BLE68-01(48591DE3C19B)	-0.542	-1.071	0.239	-2.258	98.206	-125.549	-85.45	-20.04	-73.55	-105.154	-23.128	61.250	0.77902	-0.39807	0.46640	-0.13043	30.1	13111	100
2025-3-27 14:50:2.933	WT901BLE68-01(48591DE3C19B)	-0.582	-1.071	0.239	-2.258	98.206	-125.549	-85.03	-20.97	-74.75	-105.154	-23.128	61.250	0.77902	-0.39807	0.46640	-0.13043	30.1	13111	100
2025-3-27 14:50:2.933	WT901BLE68-01(48591DE3C19B)	-0.582	-0.949	0.265	4.028	99.976	-100.281	-84.56	-21.76	-75.95	-105.154	-23.128	61.250	0.77902	-0.39807	0.46640	-0.13043	30.1	13111	100
2025-3-27 14:50:2.934	WT901BLE68-01(48591DE3C19B)	-0.581	-0.949	0.265	4.028	99.976	-100.281	-84.05	-22.41	-77.16	-105.154	-23.128	61.250	0.77902	-0.39807	0.46640	-0.13043	30.1	13111	100
2025-3-27 14:50:2.934	WT901BLE68-01(48591DE3C19B)	-0.581	-0.808	0.250	3.174	93.262	-74.646	-83.56	-22.79	-78.29	-105.154	-23.128	61.250	0.77902	-0.39807	0.46640	-0.13043	30.1	13111	100
2025-3-27 14:50:2.934	WT901BLE68-01(48591DE3C19B)	-0.578	-0.808	0.250	3.174	93.262	-74.646	-83.06	-23.15	-79.43	-105.154	-23.128	61.250	0.77902	-0.39807	0.46640	-0.13043	30.1	13111	100
2025-3-27 14:50:2.934	WT901BLE68-01(48591DE3C19B)	-0.578	-0.729	0.242	-5.127	76.477	-49.316	-82.72	-23.26	-80.36	-105.154	-23.128	61.250	0.77902	-0.39807	0.46640	-0.13043	30.1	13111	100
2025-3-27 14:50:2.962	WT901BLE68-01(48591DE3C19B)	-0.614	-0.729	0.242	-5.127	76.477	-49.316	-82.38	-23.37	-81.29	-105.154	-23.128	61.250	0.77902	-0.39807	0.46640	-0.13043	30.1	13111	100
2025-3-27 14:50:2.962	WT901BLE68-01(48591DE3C19B)	-0.614	-0.776	0.257	-14.160	50.293	-27.954	-82.25	-23.30	-81.91	-105.154	-23.128	61.250	0.77902	-0.39807	0.46640	-0.13043	30.1	13111	100
2025-3-27 14:50:2.962	WT901BLE68-01(48591DE3C19B)	-0.653	-0.776	0.257	-14.160	50.293	-27.954	-82.12	-23.21	-82.53	-105.154	-23.128	61.250	0.77902	-0.39807	0.46640	-0.13043	30.1	13111	100
2025-3-27 14:50:2.962	WT901BLE68-01(48591DE3C19B)	-0.653	-0.867	0.274	-15.991	19.836	-9.216	-82.14	-22.98	-82.80	-105.154	-23.128	61.250	0.77902	-0.39807	0.46640	-0.13043	30.1	13111	100
2025-3-27 14:50:2.992	WT901BLE68-01(48591DE3C19B)	-0.661	-0.867	0.274	-15.991	19.836	-9.216	-82.17	-22.74	-83.07	-105.154	-23.128	61.250	0.77902	-0.39807	0.46640	-0.13043	30.1	13111	100
2025-3-27 14:50:2.992	WT901BLE68-01(48591DE3C19B)	-0.661	-0.899	0.249	-14.404	-5.920	6.104	-82.29	-22.39	-83.04	-105.154	-23.128	61.250	0.77902	-0.39807	0.46640	-0.13043	30.1	13111	100
2025-3-27 14:50:2.992	WT901BLE68-01(48591DE3C19B)	-0.675	-0.899	0.249	-14.404	-5.920	6.104	-82.41	-22.04	-83.01	-105.154	-23.128	61.250	0.46951	-0.57953	0.32083	-0.58368	30.1	13111	100
2025-3-27 14:50:2.992	WT901BLE68-01(48591DE3C19B)	-0.675	-0.993	0.241	-18.311	-23.254	22.278	-82.64	-21.54	-82.78	-105.154	-23.128	61.250	0.46951	-0.57953	0.32083	-0.58368	30.1	13111	100
2025-3-27 14:50:3.53	WT901BLE68-01(48591DE3C19B)	-0.723	-0.993	0.241	-18.311	-23.254	22.278	-82.88	-21.06	-82.54	-105.154	-23.128	61.250	0.46951	-0.57953	0.32083	-0.58368	30.1	13111	100
2025-3-27 14:50:3.53	WT901BLE68-01(48591DE3C19B)	-0.723	-1.179	0.239	-14.648	-40.771	38.574	-83.14	-20.42	-82.10	-105.154	-23.128	61.250	0.46951	-0.57953	0.32083	-0.58368	30.1	13111	100
2025-3-27 14:50:3.53	WT901BLE68-01(48591DE3C19B)	-0.656	-1.179	0.239	-14.648	-40.771	38.574	-83.40	-19.79	-81.66	-105.154	-23.128	61.250	0.46951	-0.57953	0.32083	-0.58368	30.1	13111	100
2025-3-27 14:50:3.53	WT901BLE68-01(48591DE3C19B)	-0.656	-1.209	0.238	-2.563	-58.167	58.655	-83.61	-18.99	-81.02	-105.154	-23.128	61.250	0.46951	-0.57953	0.32083	-0.58368	30.1	13111	100
2025-3-27 14:50:3.53	WT901BLE68-01(48591DE3C19B)	-0.606	-1.209	0.238	-2.563	-58.167	58.655	-83.80	-18.19	-80.38	-105.154	-23.128	61.250	0.46951	-0.57953	0.32083	-0.58368	30.1	13111	100
2025-3-27 14:50:3.53	WT901BLE68-01(48591DE3C19B)	-0.606	-1.284	0.292	-4.761	-76.050	83.374	-84.06	-17.16	-79.52	-105.154	-23.128	61.250	0.46951	-0.57953	0.32083	-0.58368	30.1	13111	100
2025-3-27 14:50:3.54	WT901BLE68-01(48591DE3C19B)	-0.548	-1.284	0.292	-4.761	-76.050	83.374	-84.31	-16.14	-78.68	-105.154	-23.128	61.250	0.46951	-0.57953	0.32083	-0.58368	30.1	13111	100
2025-3-27 14:50:3.54	WT901BLE68-01(48591DE3C19B)	-0.548	-1.465	0.353	-0.122	-89.172	105.652	-84.54	-14.92	-77.68	-105.154	-23.128	61.250	0.46951	-0.57953	0.32083	-0.58368	30.1	13111	100
2025-3-27 14:50:3.113	WT901BLE68-01(48591DE3C19B)	-0.377	-1.465	0.353	-0.122	-89.172	105.652	-84.74	-13.72	-76.70	-105.154	-23.128	61.250	0.46951	-0.57953	0.32083	-0.58368	30.1	13111	100
2025-3-27 14:50:3.113	WT901BLE68-01(48591DE3C19B)	-0.377	-1.375	0.367	29.541	-81.848	135.071	-84.61	-12.22	-75.76	-105.154	-23.128	61.250	0.46951	-0.57953	0.32083	-0.58368	30.1	13111	100
2025-3-27 14:50:3.113	WT901BLE68-01(48591DE3C19B)	-0.239	-1.375	0.367	29.541	-81.848	135.071	-84.46	-10.74	-74.82	-105.154	-23.128	61.250	0.46951	-0.57953	0.32083	-0.58368	30.1	13111	100
2025-3-27 14:50:3.113	WT901BLE68-01(48591DE3C19B)	-0.239	-1.064	0.320	43.518	-47.546	167.664	-84.08	-8.92	-74.20	-105.154	-23.128	61.250	0.46951	-0.57953	0.32083	-0.58368	30.1	13111	100
2025-3-27 14:50:3.203	WT901BLE68-01(48591DE3C19B)	-0.233	-1.064	0.320	43.518	-47.546	167.664	-83.69	-7.12	-73.55	-105.154	-23.128	61.250	0.46951	-0.57953	0.32083	-0.58368	30.1	13111	100
2025-3-27 14:50:3.203	WT901BLE68-01(48591DE3C19B)	-0.233	-0.978	0.222	31.799	-17.700	197.510	-83.38	-5.02	-73.17	-105.154	-23.128	61.250	0.46951	-0.57953	0.32083	-0.58368	30.1	13111	100
2025-3-27 14:50:3.203	WT901BLE68-01(48591DE3C19B)	-0.298	-0.978	0.222	31.799	-17.700	197.510	-83.04	-2.93	-72.77	-105.154	-23.128	61.250	0.46951	-0.57953	0.32083	-0.58368	30.1	13111	100
2025-3-27 14:50:3.203	WT901BLE68-01(48591DE3C19B)	-0.298	-1.080	0.143	19.775	-11.169	218.811	-82.82	-0.64	-72.40	-105.644	-42.532	54.194	0.46951	-0.57953	0.32083	-0.58368	30.1	13111	100
2025-3-27 14:50:3.204	WT901BLE68-01(48591DE3C19B)	-0.344	-1.080	0.143	19.775	-11.169	218.811	-82.58	1.63	-72.02	-105.644	-42.532	54.194	0.46951	-0.57953	0.32083	-0.58368	30.1	13111	100
2025-3-27 14:50:3.204	WT901BLE68-01(48591DE3C19B)	-0.344	-1.287	0.119	1.892	-28.198	232.971	-82.51	4.00	-71.44	-105.644	-42.532	54.194	0.46951	-0.57953	0.32083	-0.58368	30.1	13111	100
2025-3-27 14:50:3.204	WT901BLE68-01(48591DE3C19B)	-0.391	-1.287	0.119	1.892	-28.198	232.971	-82.42	6.35	-70.85	-105.644	-42.532	54.194	0.46951	-0.57953	0.32083	-0.58368	30.1	13111	100
2025-3-27 14:50:3.204	WT901BLE68-01(48591DE3C19B)	-0.391	-1.573	0.106	-5.737	-53.223	241.150	-82.35	8.73	-69.99	-105.644	-42.532	54.194	0.46951	-0.57953	0.32083	-0.58368	30.1	13111	100
2025-3-27 14:50:3.232	WT901BLE68-01(48591DE3C19B)	-0.386	-1.573	0.106	-5.737	-53.223	241.150	-82.24	11.10	-69.13	-105.644	-42.532	54.194	0.46951	-0.57953	0.32083	-0.58368	30.1	13111	100
2025-3-27 14:50:3.232	WT901BLE68-01(48591DE3C19B)	-0.386	-1.836	0.046	9.399	-70.007	243.835	-81.93	13.44	-68.07	-105.644	-42.532	54.194	0.46951	-0.57953	0.32083	-0.58368	30.1	13111	100
2025-3-27 14:50:3.232	WT901BLE68-01(48591DE3C19B)	-0.359	-1.836	0.046	9.399	-70.007	243.835	-81.56	15.77	-66.98	-105.644	-42.532	54.194	0.46951	-0.57953	0.32083	-0.58368	30.1	13111	100
2025-3-27 14:50:3.232	WT901BLE68-01(48591DE3C19B)	-0.359	-1.805	0.033	40.405	-72.998	243.103	-80.84	18.05	-65.84	-105.644	-42.532	54.194	0.46951	-0.57953	0.32083	-0.58368	30.1	13111	100
2025-3-27 14:50:3.262	WT901BLE68-01(48591DE3C19B)	-0.369	-1.805	0.033	40.405	-72.998	243.103	-80.06	20.30	-64.64	-105.644	-42.532	54.194	0.46951	-0.57953	0.32083	-0.58368	30.1	13111	100
2025-3-27 14:50:3.262	WT901BLE68-01(48591DE3C19B)	-0.369	-1.581	0.074	50.049	-71.289	235.901	-79.15	22.45	-63.43	-105.644	-42.532	54.194	0.46951	-0.57953	0.32083	-0.58368	30.1	13111	100
2025-3-27 14:50:3.262	WT901BLE68-01(48591DE3C19B)	-0.373	-1.581	0.074	50.049	-71.289	235.901	-78.18	24.57	-62.17	-105.644	-42.532	54.194	0.46951	-0.57953	0.32083	-0.58368	30.1	13111	100
2025-3-27 14:50:3.262	WT901BLE68-01(48591DE3C19B)	-0.373	-1.474	0.117	45.776	-69.214	227.234	-77.22	26.57	-60.88	-105.644	-42.532	54.194	0.46951	-0.57953	0.32083	-0.58368	30.1	13111	100
2025-3-27 14:50:3.292	WT901BLE68-01(48591DE3C19B)	-0.306	-1.474	0.117	45.776	-69.214	227.234	-76.18	28.55	-59.54	-105.644	-42.532	54.194	0.46951	-0.57953	0.32083	-0.58368	30.1	13111	100
2025-3-27 14:50:3.292	WT901BLE68-01(48591DE3C19B)	-0.306	-1.396	0.118	47.180	-63.416	216.736	-75.12	30.40	-58.23	-105.644	-42.532	54.194	0.46951	-0.57953	0.32083	-0.58368	30.1	13111	100
2025-3-27 14:50:3.292	WT901BLE68-01(48591DE3C19B)	-0.251	-1.396	0.118	47.180	-63.416	216.736	-74.00	32.21	-56.87	-105.644	-42.532	54.194	0.46951	-0.57953	0.32083	-0.58368	30.1	13111	100
2025-3-27 14:50:3.293	WT901BLE68-01(48591DE3C19B)	-0.251	-1.236	0.110	45.898	-50.171	206.421	-72.92	33.94	-55.61	-105.644	-42.532	54.194	0.46951	-0.57953	0.32083	-0.58368	30.1	13111	100
2025-3-27 14:50:3.352	WT901BLE68-01(48591DE3C19B)	-0.246	-1.236	0.110	45.898	-50.171	206.421	-71.78	35.62	-54.31	-105.644	-42.532	54.194	0.46951	-0.57953	0.32083	-0.58368	30.1	13111	100
2025-3-27 14:50:3.353	WT901BLE68-01(48591DE3C19B)	-0.265	-1.137	0.077	36.438	-37.415	193.848	-70.80	37.21	-53.14	-105.644	-42.532	54.194	0.77621	-0.37027	0.47952	-0.17413	30.1	13111	100
2025-3-27 14:50:3.353	WT901BLE68-01(48591DE3C19B)	-0.265	-1.111	0.055	29.968	-29.175	180.542	-69.84	38.72	-51.99	-105.644	-42.532	54.194	0.77621	-0.37027	0.47952	-0.17413	30.1	13111	100
2025-3-27 14:50:3.353	WT901BLE68-01(48591DE3C19B)	-0.283	-1.111	0.055	29.968	-29.175	180.542	-68.91	40.15	-50.88	-105.644	-42.532	54.194	0.77621	-0.37027	0.47952	-0.17413	30.1	13111	100
2025-3-27 14:50:3.382	WT901BLE68-01(48591DE3C19B)	-0.283	-1.093	0.034	27.954	-26.550	167.542	-67.97	41.51	-49.76	-105.644	-42.532	54.194	0.77621	-0.37027	0.47952	-0.17413	30.1	13111	100
2025-3-27 14:50:3.382	WT901BLE68-01(48591DE3C19B)	-0.292	-1.093	0.034	27.954	-26.550	167.542	-67.04	42.79	-48.65	-105.644	-42.532	54.194	0.77621	-0.37027	0.47952	-0.17413	30.1	13111	100
2025-3-27 14:50:3.382	WT901BLE68-01(48591DE3C19B)	-0.292	-1.049	0.011	30.212	-30.090	155.884	-66.04	43.99	-47.50	-105.644	-42.532	54.194	0.77621	-0.37027	0.47952	-0.17413	30.1	13111	100
2025-3-27 14:50:3.382	WT901BLE68-01(48591DE3C19B)	-0.261	-1.049	0.011	30.212	-30.090	155.884	-65.01	45.12	-46.31	-105.644	-42.532	54.194	0.77621	-0.37027	0.47952	-0.17413	30.1	13111	100
2025-3-27 14:50:3.412	WT901BLE68-01(48591DE3C19B)	-0.261	-0.985	-0.015	29.419	-36.133	147.827	-63.92	46.16	-45.07	-105.644	-42.532	54.194	0.77621	-0.37027	0.47952	-0.17413	30.1	13111	100
2025-3-27 14:50:3.413	WT901BLE68-01(48591DE3C19B)	-0.220	-0.985	-0.015	29.419	-36.133	147.827	-62.78	47.15	-43.76	-105.644	-42.532	54.194	0.77621	-0.37027	0.47952	-0.17413	30.1	13111	100
2025-3-27 14:50:3.413	WT901BLE68-01(48591DE3C19B)	-0.220	-0.967	-0.024	26.550	-37.292	139.648	-61.63	48.07	-42.43	-105.644	-42.532	54.194	0.77621	-0.37027	0.47952	-0.17413	30.1	13111	100
2025-3-27 14:50:3.413	WT901BLE68-01(48591DE3C19B)	-0.192	-0.967	-0.024	26.550	-37.292	139.648	-60.47	48.92	-41.08	-105.644	-42.532	54.194	0.77621	-0.37027	0.47952	-0.17413	30.1	13111	100
2025-3-27 14:50:3.473	WT901BLE68-01(48591DE3C19B)	-0.192	-0.947	-0.003	28.015	-36.621	132.935	-59.28	49.72	-39.72	-105.644	-42.532	54.194	0.77621	-0.37027	0.47952	-0.17413	30.1	13111	100
2025-3-27 14:50:3.473	WT901BLE68-01(48591DE3C19B)	-0.129	-0.947	-0.003	28.015	-36.621	132.935	-58.07	50.48	-38.35	-105.644	-42.532	54.194	0.77621	-0.37027	0.47952	-0.17413	30.1	13111	100
2025-3-27 14:50:3.473	WT901BLE68-01(48591DE3C19B)	-0.129	-0.865	0.019	29.785	-32.959	126.892	-56.85	51.20	-36.99	-105.644	-42.532	54.194	0.77621	-0.37027	0.47952	-0.17413	30.1	13111	100
2025-3-27 14:50:3.474	WT901BLE68-01(48591DE3C19B)	-0.034	-0.865	0.019	29.785	-32.959	126.892	-55.62	51.88	-35.65	-105.644	-42.532	54.194	0.77621	-0.37027	0.47952	-0.17413	30.1	13111	100
2025-3-27 14:50:3.503	WT901BLE68-01(48591DE3C19B)	-0.034	-0.753	0.025	27.649	-19.958	117.676	-54.48	52.53	-34.40	-105.644	-42.532	54.194	0.77621	-0.37027	0.47952	-0.17413	30.1	13111	100
2025-3-27 14:50:3.503	WT901BLE68-01(48591DE3C19B)	0.052	-0.753	0.025	27.649	-19.958	117.676	-53.42	53.16	-33.24	-105.644	-42.532	54.194	0.77621	-0.37027	0.47952	-0.17413	30.1	13111	100
2025-3-27 14:50:3.503	WT901BLE68-01(48591DE3C19B)	0.052	-0.672	0.035	20.264	2.014	103.210	-52.54	53.78	-32.29	-105.644	-42.532	54.194	0.77621	-0.37027	0.47952	-0.17413	30.1	13111	100
2025-3-27 14:50:3.503	WT901BLE68-01(48591DE3C19B)	0.052	-0.672	0.035	20.264	2.014	103.210	-51.87	54.40	-31.54	-85.064	5.194	66.738	0.77621	-0.37027	0.47952	-0.17413	30.1	13111	100
2025-3-27 14:50:3.532	WT901BLE68-01(48591DE3C19B)	0.052	-0.684	0.071	8.850	19.348	79.834	-51.43	54.96	-31.01	-85.064	5.194	66.738	0.77621	-0.37027	0.47952	-0.17413	30.1	13111	100
2025-3-27 14:50:3.532	WT901BLE68-01(48591DE3C19B)	-0.027	-0.684	0.071	8.850	19.348	79.834	-51.23	55.49	-30.72	-85.064	5.194	66.738	0.77621	-0.37027	0.47952	-0.17413	30.1	13111	100
2025-3-27 14:50:3.532	WT901BLE68-01(48591DE3C19B)	-0.027	-0.756	0.134	-4.211	24.414	48.950	-51.27	55.89	-30.64	-85.064	5.194	66.738	0.77621	-0.37027	0.47952	-0.17413	30.1	13111	100
2025-3-27 14:50:3.532	WT901BLE68-01(48591DE3C19B)	-0.117	-0.756	0.134	-4.211	24.414	48.950	-51.54	56.19	-30.76	-85.064	5.194	66.738	0.77621	-0.37027	0.47952	-0.17413	30.1	13111	100
2025-3-27 14:50:3.593	WT901BLE68-01(48591DE3C19B)	-0.117	-0.819	0.184	-7.263	25.513	13.733	-51.99	56.34	-31.09	-85.064	5.194	66.738	0.77621	-0.37027	0.47952	-0.17413	30.1	13111	100
2025-3-27 14:50:3.593	WT901BLE68-01(48591DE3C19B)	-0.188	-0.819	0.184	-7.263	25.513	13.733	-52.62	56.37	-31.62	-85.064	5.194	66.738	0.77621	-0.37027	0.47952	-0.17413	30.1	13111	100
2025-3-27 14:50:3.593	WT901BLE68-01(48591DE3C19B)	-0.188	-0.939	0.192	-21.057	29.236	-27.527	-53.52	56.23	-32.39	-85.064	5.194	66.738	0.77621	-0.37027	0.47952	-0.17413	30.1	13111	100
2025-3-27 14:50:3.594	WT901BLE68-01(48591DE3C19B)	-0.250	-0.939	0.192	-21.057	29.236	-27.527	-54.66	55.93	-33.38	-85.064	5.194	66.738	0.77621	-0.37027	0.47952	-0.17413	30.1	13111	100
2025-3-27 14:50:3.623	WT901BLE68-01(48591DE3C19B)	-0.250	-1.096	0.190	-17.395	36.255	-71.167	-55.98	55.46	-34.62	-85.064	5.194	66.738	0.77621	-0.37027	0.47952	-0.17413	30.1	13111	100
2025-3-27 14:50:3.623	WT901BLE68-01(48591DE3C19B)	-0.289	-1.096	0.190	-17.395	36.255	-71.167	-57.43	54.82	-36.06	-85.064	5.194	66.738	0.77621	-0.37027	0.47952	-0.17413	30.1	13111	100
2025-3-27 14:50:3.623	WT901BLE68-01(48591DE3C19B)	-0.289	-1.097	0.126	-11.841	39.734	-112.915	-58.97	53.99	-37.66	-85.064	5.194	66.738	0.77621	-0.37027	0.47952	-0.17413	30.1	13111	100
2025-3-27 14:50:3.623	WT901BLE68-01(48591DE3C19B)	-0.257	-1.097	0.126	-11.841	39.734	-112.915	-60.56	52.98	-39.38	-85.064	5.194	66.738	0.77621	-0.37027	0.47952	-0.17413	30.1	13111	100
2025-3-27 14:50:3.653	WT901BLE68-01(48591DE3C19B)	-0.257	-1.161	0.039	-17.700	42.297	-156.677	-62.23	51.76	-41.18	-85.064	5.194	66.738	0.77621	-0.37027	0.47952	-0.17413	30.1	13111	100
2025-3-27 14:50:3.653	WT901BLE68-01(48591DE3C19B)	-0.252	-1.161	0.039	-17.700	42.297	-156.677	-63.94	50.33	-43.04	-85.064	5.194	66.738	0.77621	-0.37027	0.47952	-0.17413	30.1	13111	100
2025-3-27 14:50:3.653	WT901BLE68-01(48591DE3C19B)	-0.252	-1.179	0.022	-16.296	50.537	-195.190	-65.65	48.72	-44.96	-85.064	5.194	66.738	0.77621	-0.37027	0.47952	-0.17413	30.1	13111	100
2025-3-27 14:50:3.653	WT901BLE68-01(48591DE3C19B)	-0.321	-1.179	0.022	-16.296	50.537	-195.190	-67.34	46.92	-46.90	-85.064	5.194	66.738	0.77621	-0.37027	0.47952	-0.17413	30.1	13111	100
2025-3-27 14:50:3.713	WT901BLE68-01(48591DE3C19B)	-0.321	-1.158	0.062	-19.043	53.223	-225.037	-68.96	44.97	-48.78	-85.064	5.194	66.738	0.77621	-0.37027	0.47952	-0.17413	30.1	13111	100
2025-3-27 14:50:3.714	WT901BLE68-01(48591DE3C19B)	-0.339	-1.158	0.062	-19.043	53.223	-225.037	-70.50	42.85	-50.61	-85.064	5.194	66.738	0.77621	-0.37027	0.47952	-0.17413	30.1	13111	100
2025-3-27 14:50:3.714	WT901BLE68-01(48591DE3C19B)	-0.339	-1.138	0.139	-22.095	43.274	-245.483	-71.89	40.61	-52.27	-85.064	5.194	66.738	0.77621	-0.37027	0.47952	-0.17413	30.1	13111	100
2025-3-27 14:50:3.714	WT901BLE68-01(48591DE3C19B)	-0.322	-1.138	0.139	-22.095	43.274	-245.483	-73.15	38.24	-53.78	-85.064	5.194	66.738	0.77621	-0.37027	0.47952	-0.17413	30.1	13111	100
2025-3-27 14:50:3.745	WT901BLE68-01(48591DE3C19B)	-0.322	-1.086	0.221	-28.809	36.011	-253.601	-74.28	35.82	-55.14	-85.064	5.194	66.738	0.75827	-0.39584	0.48318	-0.18643	30.1	13111	100
2025-3-27 14:50:3.745	WT901BLE68-01(48591DE3C19B)	-0.365	-1.086	0.221	-28.809	36.011	-253.601	-75.33	33.34	-56.37	-85.064	5.194	66.738	0.75827	-0.39584	0.48318	-0.18643	30.1	13111	100
2025-3-27 14:50:3.745	WT901BLE68-01(48591DE3C19B)	-0.365	-1.146	0.245	-45.898	21.790	-259.521	-76.32	30.82	-57.43	-85.064	5.194	66.738	0.75827	-0.39584	0.48318	-0.18643	30.1	13111	100
2025-3-27 14:50:3.745	WT901BLE68-01(48591DE3C19B)	-0.347	-1.146	0.245	-45.898	21.790	-259.521	-77.27	28.25	-58.34	-85.064	5.194	66.738	0.75827	-0.39584	0.48318	-0.18643	30.1	13111	100
2025-3-27 14:50:3.803	WT901BLE68-01(48591DE3C19B)	-0.347	-1.328	0.206	-59.753	-1.770	-260.559	-78.16	25.66	-59.05	-85.064	5.194	66.738	0.75827	-0.39584	0.48318	-0.18643	30.1	13111	100
2025-3-27 14:50:3.803	WT901BLE68-01(48591DE3C19B)	-0.295	-1.328	0.206	-59.753	-1.770	-260.559	-79.00	23.04	-59.57	-85.064	5.194	66.738	0.75827	-0.39584	0.48318	-0.18643	30.1	13111	100
2025-3-27 14:50:3.804	WT901BLE68-01(48591DE3C19B)	-0.295	-1.466	0.158	-60.425	-11.169	-256.714	-79.78	20.45	-59.99	-85.064	5.194	66.738	0.75827	-0.39584	0.48318	-0.18643	30.1	13111	100
2025-3-27 14:50:3.804	WT901BLE68-01(48591DE3C19B)	-0.284	-1.466	0.158	-60.425	-11.169	-256.714	-80.51	17.87	-60.31	-85.064	5.194	66.738	0.75827	-0.39584	0.48318	-0.18643	30.1	13111	100
2025-3-27 14:50:3.832	WT901BLE68-01(48591DE3C19B)	-0.284	-1.512	0.097	-54.932	-2.197	-250.793	-81.19	15.38	-60.68	-85.064	5.194	66.738	0.75827	-0.39584	0.48318	-0.18643	30.1	13111	100
2025-3-27 14:50:3.832	WT901BLE68-01(48591DE3C19B)	-0.342	-1.512	0.097	-54.932	-2.197	-250.793	-81.84	12.89	-61.02	-85.064	5.194	66.738	0.75827	-0.39584	0.48318	-0.18643	30.1	13111	100
2025-3-27 14:50:3.832	WT901BLE68-01(48591DE3C19B)	-0.342	-1.463	0.072	-46.021	8.667	-247.131	-82.39	10.46	-61.42	-85.064	5.194	66.738	0.75827	-0.39584	0.48318	-0.18643	30.1	13111	100
2025-3-27 14:50:3.832	WT901BLE68-01(48591DE3C19B)	-0.393	-1.463	0.072	-46.021	8.667	-247.131	-82.92	8.05	-61.81	-85.064	5.194	66.738	0.75827	-0.39584	0.48318	-0.18643	30.1	13111	100
2025-3-27 14:50:3.863	WT901BLE68-01(48591DE3C19B)	-0.393	-1.397	0.091	-44.861	10.742	-239.563	-83.43	5.73	-62.18	-85.064	5.194	66.738	0.75827	-0.39584	0.48318	-0.18643	30.1	13111	100
2025-3-27 14:50:3.863	WT901BLE68-01(48591DE3C19B)	-0.376	-1.397	0.091	-44.861	10.742	-239.563	-83.91	3.42	-62.52	-85.064	5.194	66.738	0.75827	-0.39584	0.48318	-0.18643	30.1	13111	100
2025-3-27 14:50:3.863	WT901BLE68-01(48591DE3C19B)	-0.376	-1.348	0.134	-42.786	11.047	-229.187	-84.36	1.22	-62.84	-85.064	5.194	66.738	0.75827	-0.39584	0.48318	-0.18643	30.1	13111	100
2025-3-27 14:50:3.863	WT901BLE68-01(48591DE3C19B)	-0.352	-1.348	0.134	-42.786	11.047	-229.187	-84.79	-0.96	-63.14	-85.064	5.194	66.738	0.75827	-0.39584	0.48318	-0.18643	30.1	13111	100
2025-3-27 14:50:3.895	WT901BLE68-01(48591DE3C19B)	-0.352	-1.291	0.178	-42.236	18.555	-218.811	-85.20	-3.03	-63.49	-85.064	5.194	66.738	0.75827	-0.39584	0.48318	-0.18643	30.1	13111	100
2025-3-27 14:50:3.895	WT901BLE68-01(48591DE3C19B)	-0.387	-1.291	0.178	-42.236	18.555	-218.811	-85.59	-5.08	-63.83	-85.064	5.194	66.738	0.75827	-0.39584	0.48318	-0.18643	30.1	13111	100
2025-3-27 14:50:3.895	WT901BLE68-01(48591DE3C19B)	-0.387	-1.285	0.196	-44.006	26.672	-208.862	-85.98	-7.01	-64.23	-85.064	5.194	66.738	0.75827	-0.39584	0.48318	-0.18643	30.1	13111	100
2025-3-27 14:50:3.895	WT901BLE68-01(48591DE3C19B)	-0.450	-1.285	0.196	-44.006	26.672	-208.862	-86.35	-8.94	-64.62	-85.064	5.194	66.738	0.75827	-0.39584	0.48318	-0.18643	30.1	13111	100
2025-3-27 14:50:3.953	WT901BLE68-01(48591DE3C19B)	-0.450	-1.310	0.209	-44.434	29.419	-198.303	-86.71	-10.76	-65.02	-85.064	5.194	66.738	0.75827	-0.39584	0.48318	-0.18643	30.1	13111	100
2025-3-27 14:50:3.953	WT901BLE68-01(48591DE3C19B)	-0.485	-1.310	0.209	-44.434	29.419	-198.303	-87.06	-12.55	-65.41	-102.900	-34.496	64.778	0.75827	-0.39584	0.48318	-0.18643	30.1	13111	100
2025-3-27 14:50:3.953	WT901BLE68-01(48591DE3C19B)	-0.485	-1.299	0.235	-38.330	34.058	-184.082	-87.31	-14.20	-65.84	-102.900	-34.496	64.778	0.75827	-0.39584	0.48318	-0.18643	30.1	13111	100
2025-3-27 14:50:3.953	WT901BLE68-01(48591DE3C19B)	-0.526	-1.299	0.235	-38.330	34.058	-184.082	-87.56	-15.84	-66.26	-102.900	-34.496	64.778	0.75827	-0.39584	0.48318	-0.18643	30.1	13111	100
2025-3-27 14:50:4.44	WT901BLE68-01(48591DE3C19B)	-0.526	-1.256	0.259	-32.898	37.781	-168.884	-87.73	-17.30	-66.72	-102.900	-34.496	64.778	0.75827	-0.39584	0.48318	-0.18643	30.1	13111	100
2025-3-27 14:50:4.44	WT901BLE68-01(48591DE3C19B)	-0.558	-1.256	0.259	-32.898	37.781	-168.884	-87.88	-18.76	-67.18	-102.900	-34.496	64.778	0.75827	-0.39584	0.48318	-0.18643	30.1	13111	100
2025-3-27 14:50:4.44	WT901BLE68-01(48591DE3C19B)	-0.558	-1.209	0.266	-28.259	37.964	-150.879	-87.97	-20.04	-67.63	-102.900	-34.496	64.778	0.75827	-0.39584	0.48318	-0.18643	30.1	13111	100
2025-3-27 14:50:4.44	WT901BLE68-01(48591DE3C19B)	-0.525	-1.209	0.266	-28.259	37.964	-150.879	-88.05	-21.30	-68.09	-102.900	-34.496	64.778	0.75827	-0.39584	0.48318	-0.18643	30.1	13111	100
2025-3-27 14:50:4.45	WT901BLE68-01(48591DE3C19B)	-0.525	-1.120	0.275	-23.865	42.786	-129.089	-88.06	-22.33	-68.60	-102.900	-34.496	64.778	0.75827	-0.39584	0.48318	-0.18643	30.1	13111	100
2025-3-27 14:50:4.45	WT901BLE68-01(48591DE3C19B)	-0.466	-1.120	0.275	-23.865	42.786	-129.089	-88.05	-23.36	-69.11	-102.900	-34.496	64.778	0.75827	-0.39584	0.48318	-0.18643	30.1	13111	100
2025-3-27 14:50:4.45	WT901BLE68-01(48591DE3C19B)	-0.466	-1.018	0.291	-17.883	63.293	-104.187	-87.89	-24.11	-69.85	-102.900	-34.496	64.778	0.75827	-0.39584	0.48318	-0.18643	30.1	13111	100
2025-3-27 14:50:4.45	WT901BLE68-01(48591DE3C19B)	-0.480	-1.018	0.291	-17.883	63.293	-104.187	-87.71	-24.87	-70.60	-102.900	-34.496	64.778	0.75827	-0.39584	0.48318	-0.18643	30.1	13111	100
2025-3-27 14:50:4.74	WT901BLE68-01(48591DE3C19B)	-0.480	-0.902	0.283	-10.010	80.017	-80.261	-87.36	-25.37	-71.53	-102.900	-34.496	64.778	0.75827	-0.39584	0.48318	-0.18643	30.1	13111	100
2025-3-27 14:50:4.74	WT901BLE68-01(48591DE3C19B)	-0.532	-0.902	0.283	-10.010	80.017	-80.261	-87.01	-25.86	-72.47	-102.900	-34.496	64.778	0.75827	-0.39584	0.48318	-0.18643	30.1	13111	100
2025-3-27 14:50:4.74	WT901BLE68-01(48591DE3C19B)	-0.532	-0.826	0.292	-11.414	74.646	-58.167	-86.69	-26.11	-73.35	-102.900	-34.496	64.778	0.75827	-0.39584	0.48318	-0.18643	30.1	13111	100
2025-3-27 14:50:4.74	WT901BLE68-01(48591DE3C19B)	-0.575	-0.826	0.292	-11.414	74.646	-58.167	-86.36	-26.36	-74.23	-102.900	-34.496	64.778	0.75827	-0.39584	0.48318	-0.18643	30.1	13111	100
2025-3-27 14:50:4.103	WT901BLE68-01(48591DE3C19B)	-0.575	-0.877	0.311	-19.409	53.284	-39.246	-86.22	-26.43	-74.87	-102.900	-34.496	64.778	0.75827	-0.39584	0.48318	-0.18643	30.1	13111	100
2025-3-27 14:50:4.103	WT901BLE68-01(48591DE3C19B)	-0.602	-0.877	0.311	-19.409	53.284	-39.246	-86.07	-26.49	-75.51	-102.900	-34.496	64.778	0.75827	-0.39584	0.48318	-0.18643	30.1	13111	100
2025-3-27 14:50:4.103	WT901BLE68-01(48591DE3C19B)	-0.602	-0.957	0.310	-17.090	33.081	-20.386	-86.01	-26.37	-75.92	-102.900	-34.496	64.778	0.75827	-0.39584	0.48318	-0.18643	30.1	13111	100
2025-3-27 14:50:4.103	WT901BLE68-01(48591DE3C19B)	-0.646	-0.957	0.310	-17.090	33.081	-20.386	-85.94	-26.25	-76.32	-102.900	-34.496	64.778	0.46463	-0.62457	0.27945	-0.56195	30.1	13111	100
2025-3-27 14:50:4.193	WT901BLE68-01(48591DE3C19B)	-0.646	-0.985	0.309	-10.864	18.677	-2.502	-85.89	-25.96	-76.55	-102.900	-34.496	64.778	0.46463	-0.62457	0.27945	-0.56195	30.1	13111	100
2025-3-27 14:50:4.193	WT901BLE68-01(48591DE3C19B)	-0.703	-0.985	0.309	-10.864	18.677	-2.502	-85.84	-25.66	-76.78	-102.900	-34.496	64.778	0.46463	-0.62457	0.27945	-0.56195	30.1	13111	100
2025-3-27 14:50:4.193	WT901BLE68-01(48591DE3C19B)	-0.703	-1.060	0.303	-8.789	5.188	14.709	-85.84	-25.21	-76.84	-102.900	-34.496	64.778	0.46463	-0.62457	0.27945	-0.56195	30.1	13111	100
2025-3-27 14:50:4.193	WT901BLE68-01(48591DE3C19B)	-0.713	-1.060	0.303	-8.789	5.188	14.709	-85.84	-24.75	-76.91	-102.900	-34.496	64.778	0.46463	-0.62457	0.27945	-0.56195	30.1	13111	100
2025-3-27 14:50:4.194	WT901BLE68-01(48591DE3C19B)	-0.713	-1.131	0.314	1.221	-6.409	36.194	-85.80	-24.09	-76.83	-102.900	-34.496	64.778	0.46463	-0.62457	0.27945	-0.56195	30.1	13111	100
2025-3-27 14:50:4.195	WT901BLE68-01(48591DE3C19B)	-0.649	-1.131	0.314	1.221	-6.409	36.194	-85.76	-23.43	-76.75	-102.900	-34.496	64.778	0.46463	-0.62457	0.27945	-0.56195	30.1	13111	100
2025-3-27 14:50:4.195	WT901BLE68-01(48591DE3C19B)	-0.649	-1.075	0.308	9.888	-17.273	62.256	-85.69	-22.53	-76.53	-102.900	-34.496	64.778	0.46463	-0.62457	0.27945	-0.56195	30.1	13111	100
2025-3-27 14:50:4.195	WT901BLE68-01(48591DE3C19B)	-0.636	-1.075	0.308	9.888	-17.273	62.256	-85.61	-21.62	-76.31	-102.900	-34.496	64.778	0.46463	-0.62457	0.27945	-0.56195	30.1	13111	100
2025-3-27 14:50:4.225	WT901BLE68-01(48591DE3C19B)	-0.636	-1.167	0.365	11.047	-35.950	90.393	-85.60	-20.46	-75.87	-102.900	-34.496	64.778	0.46463	-0.62457	0.27945	-0.56195	30.1	13111	100
2025-3-27 14:50:4.225	WT901BLE68-01(48591DE3C19B)	-0.554	-1.167	0.365	11.047	-35.950	90.393	-85.58	-19.30	-75.42	-102.900	-34.496	64.778	0.46463	-0.62457	0.27945	-0.56195	30.1	13111	100
2025-3-27 14:50:4.225	WT901BLE68-01(48591DE3C19B)	-0.554	-1.183	0.386	24.109	-53.833	119.202	-85.49	-17.89	-74.77	-102.900	-34.496	64.778	0.46463	-0.62457	0.27945	-0.56195	30.1	13111	100
2025-3-27 14:50:4.225	WT901BLE68-01(48591DE3C19B)	-0.405	-1.183	0.386	24.109	-53.833	119.202	-85.38	-16.47	-74.11	-102.900	-34.496	64.778	0.46463	-0.62457	0.27945	-0.56195	30.1	13111	100
2025-3-27 14:50:4.253	WT901BLE68-01(48591DE3C19B)	-0.353	-1.071	0.323	33.142	-56.763	149.841	-85.18	-14.78	-73.40	-102.900	-34.496	64.778	0.46463	-0.62457	0.27945	-0.56195	30.1	13111	100
2025-3-27 14:50:4.253	WT901BLE68-01(48591DE3C19B)	-0.353	-1.073	0.218	32.349	-49.622	176.941	-84.96	-12.96	-72.71	-102.900	-34.496	64.778	0.46463	-0.62457	0.27945	-0.56195	30.1	13111	100
2025-3-27 14:50:4.253	WT901BLE68-01(48591DE3C19B)	-0.378	-1.073	0.218	32.349	-49.622	176.941	-84.72	-11.02	-72.04	-102.900	-34.496	64.778	0.46463	-0.62457	0.27945	-0.56195	30.1	13111	100
2025-3-27 14:50:4.253	WT901BLE68-01(48591DE3C19B)	-0.378	-1.211	0.160	29.602	-54.138	197.449	-84.48	-9.00	-71.32	-102.900	-34.496	64.778	0.46463	-0.62457	0.27945	-0.56195	30.1	13111	100
2025-3-27 14:50:4.313	WT901BLE68-01(48591DE3C19B)	-0.377	-1.211	0.160	29.602	-54.138	197.449	-84.24	-6.90	-70.57	-102.900	-34.496	64.778	0.46463	-0.62457	0.27945	-0.56195	30.1	13111	100
2025-3-27 14:50:4.314	WT901BLE68-01(48591DE3C19B)	-0.377	-1.407	0.112	25.269	-71.045	216.003	-84.01	-4.73	-69.70	-102.900	-34.496	64.778	0.46463	-0.62457	0.27945	-0.56195	30.1	13111	100
2025-3-27 14:50:4.314	WT901BLE68-01(48591DE3C19B)	-0.352	-1.407	0.112	25.269	-71.045	216.003	-83.79	-2.50	-68.74	-102.900	-34.496	64.778	0.46463	-0.62457	0.27945	-0.56195	30.1	13111	100
2025-3-27 14:50:4.314	WT901BLE68-01(48591DE3C19B)	-0.352	-1.663	0.052	26.917	-83.801	227.173	-83.53	-0.25	-67.70	-102.900	-34.496	64.778	0.46463	-0.62457	0.27945	-0.56195	30.1	13111	100
2025-3-27 14:50:4.342	WT901BLE68-01(48591DE3C19B)	-0.337	-1.663	0.052	26.917	-83.801	227.173	-83.23	2.02	-66.57	-102.900	-34.496	64.778	0.46463	-0.62457	0.27945	-0.56195	30.1	13111	100
2025-3-27 14:50:4.343	WT901BLE68-01(48591DE3C19B)	-0.337	-1.828	0.012	48.340	-88.562	235.535	-82.79	4.30	-65.40	-102.900	-34.496	64.778	0.46463	-0.62457	0.27945	-0.56195	30.1	13111	100
2025-3-27 14:50:4.343	WT901BLE68-01(48591DE3C19B)	-0.338	-1.828	0.012	48.340	-88.562	235.535	-82.19	6.60	-64.17	-102.900	-34.496	64.778	0.46463	-0.62457	0.27945	-0.56195	30.1	13111	100
2025-3-27 14:50:4.343	WT901BLE68-01(48591DE3C19B)	-0.338	-1.814	0.066	67.810	-85.938	237.915	-81.46	8.87	-62.91	-109.858	-33.418	63.700	0.46463	-0.62457	0.27945	-0.56195	30.1	13111	100
2025-3-27 14:50:4.404	WT901BLE68-01(48591DE3C19B)	-0.362	-1.814	0.066	67.810	-85.938	237.915	-80.58	11.12	-61.64	-109.858	-33.418	63.700	0.46463	-0.62457	0.27945	-0.56195	30.1	13111	100
2025-3-27 14:50:4.404	WT901BLE68-01(48591DE3C19B)	-0.362	-1.717	0.153	72.144	-79.468	238.586	-79.65	13.34	-60.35	-109.858	-33.418	63.700	0.46463	-0.62457	0.27945	-0.56195	30.1	13111	100
2025-3-27 14:50:4.404	WT901BLE68-01(48591DE3C19B)	-0.360	-1.717	0.153	72.144	-79.468	238.586	-78.64	15.53	-59.04	-109.858	-33.418	63.700	0.46463	-0.62457	0.27945	-0.56195	30.1	13111	100
2025-3-27 14:50:4.404	WT901BLE68-01(48591DE3C19B)	-0.360	-1.650	0.167	72.021	-71.106	239.502	-77.59	17.70	-57.72	-109.858	-33.418	63.700	0.46463	-0.62457	0.27945	-0.56195	30.1	13111	100
2025-3-27 14:50:4.432	WT901BLE68-01(48591DE3C19B)	-0.321	-1.650	0.167	72.021	-71.106	239.502	-76.49	19.85	-56.39	-109.858	-33.418	63.700	0.46463	-0.62457	0.27945	-0.56195	30.1	13111	100
2025-3-27 14:50:4.432	WT901BLE68-01(48591DE3C19B)	-0.321	-1.537	0.135	69.885	-59.204	237.061	-75.37	21.96	-55.07	-109.858	-33.418	63.700	0.46463	-0.62457	0.27945	-0.56195	30.1	13111	100
2025-3-27 14:50:4.432	WT901BLE68-01(48591DE3C19B)	-0.282	-1.537	0.135	69.885	-59.204	237.061	-74.22	24.03	-53.75	-109.858	-33.418	63.700	0.46463	-0.62457	0.27945	-0.56195	30.1	13111	100
2025-3-27 14:50:4.432	WT901BLE68-01(48591DE3C19B)	-0.282	-1.414	0.084	61.340	-41.016	231.934	-73.10	26.07	-52.47	-109.858	-33.418	63.700	0.46463	-0.62457	0.27945	-0.56195	30.1	13111	100
2025-3-27 14:50:4.462	WT901BLE68-01(48591DE3C19B)	-0.275	-1.414	0.084	61.340	-41.016	231.934	-72.00	28.08	-51.23	-109.858	-33.418	63.700	0.46463	-0.62457	0.27945	-0.56195	30.1	13111	100
2025-3-27 14:50:4.462	WT901BLE68-01(48591DE3C19B)	-0.275	-1.340	0.049	52.490	-23.987	224.731	-70.94	30.04	-50.05	-109.858	-33.418	63.700	0.46463	-0.62457	0.27945	-0.56195	30.1	13111	100
2025-3-27 14:50:4.462	WT901BLE68-01(48591DE3C19B)	-0.295	-1.340	0.049	52.490	-23.987	224.731	-69.93	31.97	-48.91	-109.858	-33.418	63.700	0.46463	-0.62457	0.27945	-0.56195	30.1	13111	100
2025-3-27 14:50:4.462	WT901BLE68-01(48591DE3C19B)	-0.295	-1.279	0.029	46.387	-16.418	216.553	-68.91	33.84	-47.77	-109.858	-33.418	63.700	0.46463	-0.62457	0.27945	-0.56195	30.1	13111	100
2025-3-27 14:50:4.554	WT901BLE68-01(48591DE3C19B)	-0.328	-1.279	0.029	46.387	-16.418	216.553	-67.90	35.66	-46.63	-109.858	-33.418	63.700	0.46463	-0.62457	0.27945	-0.56195	30.1	13111	100
2025-3-27 14:50:4.554	WT901BLE68-01(48591DE3C19B)	-0.328	-1.230	0.005	44.434	-23.071	208.191	-66.84	37.41	-45.41	-109.858	-33.418	63.700	0.46463	-0.62457	0.27945	-0.56195	30.1	13111	100
2025-3-27 14:50:4.554	WT901BLE68-01(48591DE3C19B)	-0.323	-1.230	0.005	44.434	-23.071	208.191	-65.70	39.07	-44.12	-109.858	-33.418	63.700	0.46463	-0.62457	0.27945	-0.56195	30.1	13111	100
2025-3-27 14:50:4.554	WT901BLE68-01(48591DE3C19B)	-0.323	-1.188	-0.042	39.673	-39.246	199.768	-64.50	40.65	-42.76	-109.858	-33.418	63.700	0.46463	-0.62457	0.27945	-0.56195	30.1	13111	100
2025-3-27 14:50:4.555	WT901BLE68-01(48591DE3C19B)	-0.278	-1.188	-0.042	39.673	-39.246	199.768	-63.21	42.12	-41.26	-109.858	-33.418	63.700	0.81207	-0.34528	0.46011	-0.09744	30.1	13111	100
2025-3-27 14:50:4.555	WT901BLE68-01(48591DE3C19B)	-0.278	-1.147	-0.070	38.879	-54.382	192.444	-61.80	43.49	-39.63	-109.858	-33.418	63.700	0.81207	-0.34528	0.46011	-0.09744	30.1	13111	100
2025-3-27 14:50:4.555	WT901BLE68-01(48591DE3C19B)	-0.083	-1.147	-0.070	38.879	-54.382	192.444	-60.28	44.76	-37.85	-109.858	-33.418	63.700	0.81207	-0.34528	0.46011	-0.09744	30.1	13111	100
2025-3-27 14:50:4.555	WT901BLE68-01(48591DE3C19B)	-0.083	-1.082	-0.091	36.316	-59.143	178.589	-58.71	45.91	-36.02	-109.858	-33.418	63.700	0.81207	-0.34528	0.46011	-0.09744	30.1	13111	100
2025-3-27 14:50:4.585	WT901BLE68-01(48591DE3C19B)	0.251	-1.082	-0.091	36.316	-59.143	178.589	-57.11	46.95	-34.15	-109.858	-33.418	63.700	0.81207	-0.34528	0.46011	-0.09744	30.1	13111	100
2025-3-27 14:50:4.585	WT901BLE68-01(48591DE3C19B)	0.251	-0.976	-0.142	38.635	-45.654	152.832	-55.57	47.87	-32.41	-109.858	-33.418	63.700	0.81207	-0.34528	0.46011	-0.09744	30.1	13111	100
2025-3-27 14:50:4.585	WT901BLE68-01(48591DE3C19B)	0.489	-0.976	-0.142	38.635	-45.654	152.832	-54.12	48.69	-30.81	-109.858	-33.418	63.700	0.81207	-0.34528	0.46011	-0.09744	30.1	13111	100
2025-3-27 14:50:4.585	WT901BLE68-01(48591DE3C19B)	0.489	-0.728	-0.083	57.861	-10.864	130.615	-52.77	49.48	-29.49	-109.858	-33.418	63.700	0.81207	-0.34528	0.46011	-0.09744	30.1	13111	100
2025-3-27 14:50:4.644	WT901BLE68-01(48591DE3C19B)	0.361	-0.728	-0.083	57.861	-10.864	130.615	-51.54	50.25	-28.46	-109.858	-33.418	63.700	0.81207	-0.34528	0.46011	-0.09744	30.1	13111	100
2025-3-27 14:50:4.644	WT901BLE68-01(48591DE3C19B)	0.361	-0.501	0.057	48.523	31.250	111.389	-50.60	51.04	-27.75	-109.858	-33.418	63.700	0.81207	-0.34528	0.46011	-0.09744	30.1	13111	100
2025-3-27 14:50:4.644	WT901BLE68-01(48591DE3C19B)	0.018	-0.501	0.057	48.523	31.250	111.389	-49.97	51.88	-27.38	-109.858	-33.418	63.700	0.81207	-0.34528	0.46011	-0.09744	30.1	13111	100
2025-3-27 14:50:4.644	WT901BLE68-01(48591DE3C19B)	0.018	-0.696	0.151	5.798	68.542	77.332	-49.87	52.70	-27.42	-109.858	-33.418	63.700	0.81207	-0.34528	0.46011	-0.09744	30.1	13111	100
2025-3-27 14:50:4.703	WT901BLE68-01(48591DE3C19B)	-0.188	-0.696	0.151	5.798	68.542	77.332	-50.30	53.49	-27.87	-109.858	-33.418	63.700	0.81207	-0.34528	0.46011	-0.09744	30.1	13111	100
2025-3-27 14:50:4.703	WT901BLE68-01(48591DE3C19B)	-0.188	-0.986	0.186	-2.319	71.716	37.964	-50.98	54.14	-28.56	-109.858	-33.418	63.700	0.81207	-0.34528	0.46011	-0.09744	30.1	13111	100
2025-3-27 14:50:4.703	WT901BLE68-01(48591DE3C19B)	-0.097	-0.986	0.186	-2.319	71.716	37.964	-51.89	54.63	-29.51	-109.858	-33.418	63.700	0.81207	-0.34528	0.46011	-0.09744	30.1	13111	100
