time	DeviceName	AccX(g)	AccY(g)	AccZ(g)	AsX(°/s)	AsY(°/s)	AsZ(°/s)	AngleX(°)	AngleY(°)	AngleZ(°)	HX(uT)	HY(uT)	HZ(uT)	Q0()	Q1()	Q2()	Q3()	Temperature(°C)	Version()	Battery level(%)
2025-3-27 14:51:15.530	WT901BLE68-01(48591DE3C19B)	-0.310	-0.932	0.237	0.549	-0.671	-17.883	-77.37	16.14	-99.20	-65.072	-31.948	1.470	-0.57089	0.31375	-0.54492	0.52780	30.1	13111	100
2025-3-27 14:51:15.530	WT901BLE68-01(48591DE3C19B)	-0.315	-0.932	0.237	0.549	-0.671	-17.883	-77.37	15.97	-99.22	-65.072	-31.948	1.470	-0.57089	0.31375	-0.54492	0.52780	30.1	13111	100
2025-3-27 14:51:15.530	WT901BLE68-01(48591DE3C19B)	-0.315	-0.934	0.241	0.854	1.648	-16.479	-77.37	15.82	-99.26	-65.072	-31.948	1.470	-0.57089	0.31375	-0.54492	0.52780	30.1	13111	100
2025-3-27 14:51:15.530	WT901BLE68-01(48591DE3C19B)	-0.325	-0.934	0.241	0.854	1.648	-16.479	-77.37	15.68	-99.29	-65.072	-31.948	1.470	-0.57089	0.31375	-0.54492	0.52780	30.1	13111	100
2025-3-27 14:51:15.559	WT901BLE68-01(48591DE3C19B)	-0.325	-0.927	0.238	1.221	2.747	-15.747	-77.37	15.54	-99.34	-65.072	-31.948	1.470	-0.57089	0.31375	-0.54492	0.52780	30.1	13111	100
2025-3-27 14:51:15.560	WT901BLE68-01(48591DE3C19B)	-0.317	-0.927	0.238	1.221	2.747	-15.747	-77.36	15.41	-99.39	-65.072	-31.948	1.470	-0.57089	0.31375	-0.54492	0.52780	30.1	13111	100
2025-3-27 14:51:15.560	WT901BLE68-01(48591DE3C19B)	-0.317	-0.934	0.235	1.160	4.211	-14.038	-77.36	15.29	-99.45	-65.072	-31.948	1.470	-0.57089	0.31375	-0.54492	0.52780	30.1	13111	100
2025-3-27 14:51:15.560	WT901BLE68-01(48591DE3C19B)	-0.322	-0.934	0.235	1.160	4.211	-14.038	-77.36	15.18	-99.51	-65.072	-31.948	1.470	-0.57089	0.31375	-0.54492	0.52780	30.1	13111	100
2025-3-27 14:51:15.651	WT901BLE68-01(48591DE3C19B)	-0.322	-0.942	0.233	1.465	5.249	-12.573	-77.35	15.08	-99.57	-65.072	-31.948	1.470	-0.57089	0.31375	-0.54492	0.52780	30.1	13111	100
2025-3-27 14:51:15.652	WT901BLE68-01(48591DE3C19B)	-0.333	-0.942	0.233	1.465	5.249	-12.573	-77.35	14.99	-99.64	-65.072	-31.948	1.470	-0.57089	0.31375	-0.54492	0.52780	30.1	13111	100
2025-3-27 14:51:15.652	WT901BLE68-01(48591DE3C19B)	-0.333	-0.959	0.233	1.465	5.859	-10.254	-77.35	14.91	-99.70	-65.072	-31.948	1.470	-0.57089	0.31375	-0.54492	0.52780	30.1	13111	100
2025-3-27 14:51:15.652	WT901BLE68-01(48591DE3C19B)	-0.335	-0.959	0.233	1.465	5.859	-10.254	-77.35	14.84	-99.77	-65.072	-31.948	1.470	-0.57089	0.31375	-0.54492	0.52780	30.1	13111	100
2025-3-27 14:51:15.653	WT901BLE68-01(48591DE3C19B)	-0.335	-0.962	0.238	2.747	4.578	-8.545	-77.34	14.78	-99.83	-65.072	-31.948	1.470	-0.57089	0.31375	-0.54492	0.52780	30.1	13111	100
2025-3-27 14:51:15.653	WT901BLE68-01(48591DE3C19B)	-0.328	-0.962	0.238	2.747	4.578	-8.545	-77.33	14.73	-99.88	-65.072	-31.948	1.470	-0.57089	0.31375	-0.54492	0.52780	30.1	13111	100
2025-3-27 14:51:15.653	WT901BLE68-01(48591DE3C19B)	-0.328	-0.946	0.240	3.052	4.456	-6.104	-77.31	14.69	-99.92	-65.072	-31.948	1.470	-0.57089	0.31375	-0.54492	0.52780	30.1	13111	100
2025-3-27 14:51:15.653	WT901BLE68-01(48591DE3C19B)	-0.330	-0.946	0.240	3.052	4.456	-6.104	-77.28	14.66	-99.96	-65.072	-31.948	1.470	-0.57089	0.31375	-0.54492	0.52780	30.1	13111	100
2025-3-27 14:51:15.711	WT901BLE68-01(48591DE3C19B)	-0.330	-0.935	0.237	2.930	4.639	-3.540	-77.26	14.65	-100.00	-65.072	-31.948	1.470	-0.57089	0.31375	-0.54492	0.52780	30.1	13111	100
2025-3-27 14:51:15.711	WT901BLE68-01(48591DE3C19B)	-0.321	-0.935	0.237	2.930	4.639	-3.540	-77.23	14.65	-100.04	-65.072	-31.948	1.470	-0.57089	0.31375	-0.54492	0.52780	30.1	13111	100
2025-3-27 14:51:15.711	WT901BLE68-01(48591DE3C19B)	-0.321	-0.926	0.235	2.808	3.967	-1.160	-77.21	14.66	-100.07	-65.072	-31.948	1.470	-0.57089	0.31375	-0.54492	0.52780	30.1	13111	100
2025-3-27 14:51:15.711	WT901BLE68-01(48591DE3C19B)	-0.313	-0.926	0.235	2.808	3.967	-1.160	-77.19	14.68	-100.10	-64.190	-32.340	1.470	-0.57089	0.31375	-0.54492	0.52780	30.1	13111	100
2025-3-27 14:51:15.712	WT901BLE68-01(48591DE3C19B)	-0.313	-0.913	0.235	2.808	4.150	1.038	-77.16	14.71	-100.12	-64.190	-32.340	1.470	-0.57089	0.31375	-0.54492	0.52780	30.1	13111	100
2025-3-27 14:51:15.712	WT901BLE68-01(48591DE3C19B)	-0.317	-0.913	0.235	2.808	4.150	1.038	-77.14	14.75	-100.15	-64.190	-32.340	1.470	-0.57089	0.31375	-0.54492	0.52780	30.1	13111	100
2025-3-27 14:51:15.712	WT901BLE68-01(48591DE3C19B)	-0.317	-0.911	0.239	2.014	4.150	3.113	-77.12	14.80	-100.17	-64.190	-32.340	1.470	-0.57089	0.31375	-0.54492	0.52780	30.1	13111	100
2025-3-27 14:51:15.712	WT901BLE68-01(48591DE3C19B)	-0.315	-0.911	0.239	2.014	4.150	3.113	-77.10	14.86	-100.18	-64.190	-32.340	1.470	-0.57089	0.31375	-0.54492	0.52780	30.1	13111	100
2025-3-27 14:51:15.801	WT901BLE68-01(48591DE3C19B)	-0.315	-0.911	0.240	2.075	3.357	4.822	-77.08	14.94	-100.20	-64.190	-32.340	1.470	-0.57089	0.31375	-0.54492	0.52780	30.1	13111	100
2025-3-27 14:51:15.801	WT901BLE68-01(48591DE3C19B)	-0.312	-0.911	0.240	2.075	3.357	4.822	-77.05	15.01	-100.21	-64.190	-32.340	1.470	-0.57089	0.31375	-0.54492	0.52780	30.1	13111	100
2025-3-27 14:51:15.801	WT901BLE68-01(48591DE3C19B)	-0.312	-0.899	0.235	1.953	2.869	6.470	-77.03	15.10	-100.21	-64.190	-32.340	1.470	-0.57089	0.31375	-0.54492	0.52780	30.1	13111	100
2025-3-27 14:51:15.801	WT901BLE68-01(48591DE3C19B)	-0.310	-0.899	0.235	1.953	2.869	6.470	-77.01	15.18	-100.21	-64.190	-32.340	1.470	-0.57089	0.31375	-0.54492	0.52780	30.1	13111	100
2025-3-27 14:51:15.801	WT901BLE68-01(48591DE3C19B)	-0.310	-0.909	0.231	0.671	1.709	7.385	-76.99	15.28	-100.20	-64.190	-32.340	1.470	-0.57089	0.31375	-0.54492	0.52780	30.1	13111	100
2025-3-27 14:51:15.801	WT901BLE68-01(48591DE3C19B)	-0.309	-0.909	0.231	0.671	1.709	7.385	-76.98	15.37	-100.18	-64.190	-32.340	1.470	-0.57089	0.31375	-0.54492	0.52780	30.1	13111	100
2025-3-27 14:51:15.801	WT901BLE68-01(48591DE3C19B)	-0.309	-0.925	0.230	0.916	0.305	7.874	-76.95	15.47	-100.16	-64.190	-32.340	1.470	-0.57089	0.31375	-0.54492	0.52780	30.1	13111	100
2025-3-27 14:51:15.801	WT901BLE68-01(48591DE3C19B)	-0.306	-0.925	0.230	0.916	0.305	7.874	-76.94	15.56	-100.13	-64.190	-32.340	1.470	-0.57089	0.31375	-0.54492	0.52780	30.1	13111	100
2025-3-27 14:51:15.829	WT901BLE68-01(48591DE3C19B)	-0.306	-0.919	0.235	1.404	-1.160	8.118	-76.91	15.66	-100.09	-64.190	-32.340	1.470	-0.57089	0.31375	-0.54492	0.52780	30.1	13111	100
2025-3-27 14:51:15.829	WT901BLE68-01(48591DE3C19B)	-0.300	-0.919	0.235	1.404	-1.160	8.118	-76.88	15.75	-100.04	-64.190	-32.340	1.470	-0.57089	0.31375	-0.54492	0.52780	30.1	13111	100
2025-3-27 14:51:15.829	WT901BLE68-01(48591DE3C19B)	-0.300	-0.919	0.234	0.427	-2.014	8.179	-76.85	15.84	-99.99	-64.190	-32.340	1.470	-0.56433	0.31302	-0.54092	0.53925	30.1	13111	100
2025-3-27 14:51:15.830	WT901BLE68-01(48591DE3C19B)	-0.303	-0.919	0.234	0.427	-2.014	8.179	-76.83	15.92	-99.94	-64.190	-32.340	1.470	-0.56433	0.31302	-0.54092	0.53925	30.1	13111	100
2025-3-27 14:51:15.921	WT901BLE68-01(48591DE3C19B)	-0.303	-0.921	0.234	0.366	-2.502	8.118	-76.81	16.01	-99.88	-64.190	-32.340	1.470	-0.56433	0.31302	-0.54092	0.53925	30.1	13111	100
2025-3-27 14:51:15.921	WT901BLE68-01(48591DE3C19B)	-0.303	-0.921	0.234	0.366	-2.502	8.118	-76.79	16.10	-99.82	-64.190	-32.340	1.470	-0.56433	0.31302	-0.54092	0.53925	30.1	13111	100
2025-3-27 14:51:15.921	WT901BLE68-01(48591DE3C19B)	-0.303	-0.918	0.237	-0.366	-3.662	7.874	-76.77	16.18	-99.76	-64.190	-32.340	1.470	-0.56433	0.31302	-0.54092	0.53925	30.1	13111	100
2025-3-27 14:51:15.921	WT901BLE68-01(48591DE3C19B)	-0.299	-0.918	0.237	-0.366	-3.662	7.874	-76.75	16.26	-99.68	-64.190	-32.340	1.470	-0.56433	0.31302	-0.54092	0.53925	30.1	13111	100
2025-3-27 14:51:15.923	WT901BLE68-01(48591DE3C19B)	-0.299	-0.926	0.236	-1.587	-4.211	7.568	-76.74	16.34	-99.61	-64.190	-32.340	1.470	-0.56433	0.31302	-0.54092	0.53925	30.1	13111	100
2025-3-27 14:51:15.923	WT901BLE68-01(48591DE3C19B)	-0.297	-0.926	0.236	-1.587	-4.211	7.568	-76.73	16.41	-99.54	-64.190	-32.340	1.470	-0.56433	0.31302	-0.54092	0.53925	30.1	13111	100
2025-3-27 14:51:15.923	WT901BLE68-01(48591DE3C19B)	-0.297	-0.935	0.236	-1.404	-4.517	6.897	-76.72	16.47	-99.46	-64.190	-32.340	1.470	-0.56433	0.31302	-0.54092	0.53925	30.1	13111	100
2025-3-27 14:51:15.923	WT901BLE68-01(48591DE3C19B)	-0.297	-0.935	0.236	-1.404	-4.517	6.897	-76.71	16.54	-99.39	-64.190	-32.340	1.470	-0.56433	0.31302	-0.54092	0.53925	30.1	13111	100
2025-3-27 14:51:15.981	WT901BLE68-01(48591DE3C19B)	-0.297	-0.932	0.239	-1.160	-4.211	6.653	-76.70	16.60	-99.32	-64.190	-32.340	1.470	-0.56433	0.31302	-0.54092	0.53925	30.1	13111	100
2025-3-27 14:51:15.981	WT901BLE68-01(48591DE3C19B)	-0.297	-0.932	0.239	-1.160	-4.211	6.653	-76.69	16.66	-99.24	-64.190	-32.340	1.470	-0.56433	0.31302	-0.54092	0.53925	30.1	13111	100
2025-3-27 14:51:15.981	WT901BLE68-01(48591DE3C19B)	-0.297	-0.924	0.240	-0.854	-4.700	6.348	-76.67	16.72	-99.17	-64.190	-32.340	1.470	-0.56433	0.31302	-0.54092	0.53925	30.1	13111	100
2025-3-27 14:51:15.981	WT901BLE68-01(48591DE3C19B)	-0.293	-0.924	0.240	-0.854	-4.700	6.348	-76.66	16.78	-99.10	-64.190	-32.340	1.470	-0.56433	0.31302	-0.54092	0.53925	30.1	13111	100
2025-3-27 14:51:16.12	WT901BLE68-01(48591DE3C19B)	-0.293	-0.912	0.238	-1.282	-4.700	6.470	-76.65	16.83	-99.03	-64.190	-32.340	1.470	-0.56433	0.31302	-0.54092	0.53925	30.1	13111	100
2025-3-27 14:51:16.13	WT901BLE68-01(48591DE3C19B)	-0.294	-0.912	0.238	-1.282	-4.700	6.470	-76.64	16.89	-98.95	-64.190	-32.340	1.470	-0.56433	0.31302	-0.54092	0.53925	30.1	13111	100
2025-3-27 14:51:16.13	WT901BLE68-01(48591DE3C19B)	-0.294	-0.907	0.234	-1.648	-5.493	5.981	-76.62	16.94	-98.87	-64.190	-32.340	1.470	-0.56433	0.31302	-0.54092	0.53925	30.1	13111	100
2025-3-27 14:51:16.13	WT901BLE68-01(48591DE3C19B)	-0.297	-0.907	0.234	-1.648	-5.493	5.981	-76.61	16.98	-98.79	-64.190	-32.340	1.470	-0.56433	0.31302	-0.54092	0.53925	30.1	13111	100
2025-3-27 14:51:16.43	WT901BLE68-01(48591DE3C19B)	-0.297	-0.900	0.234	-2.197	-7.324	4.883	-76.61	17.02	-98.70	-64.190	-32.340	1.470	-0.56433	0.31302	-0.54092	0.53925	30.1	13111	100
2025-3-27 14:51:16.43	WT901BLE68-01(48591DE3C19B)	-0.302	-0.900	0.234	-2.197	-7.324	4.883	-76.60	17.06	-98.61	-64.190	-32.340	1.470	-0.56433	0.31302	-0.54092	0.53925	30.1	13111	100
2025-3-27 14:51:16.43	WT901BLE68-01(48591DE3C19B)	-0.302	-0.894	0.238	-2.930	-9.705	3.418	-76.59	17.07	-98.49	-64.190	-32.340	1.470	-0.56433	0.31302	-0.54092	0.53925	30.1	13111	100
2025-3-27 14:51:16.43	WT901BLE68-01(48591DE3C19B)	-0.299	-0.894	0.238	-2.930	-9.705	3.418	-76.58	17.08	-98.38	-64.778	-32.536	1.568	-0.56433	0.31302	-0.54092	0.53925	30.1	13111	100
2025-3-27 14:51:16.80	WT901BLE68-01(48591DE3C19B)	-0.299	-0.894	0.236	-4.089	-12.024	1.648	-76.57	17.07	-98.25	-64.778	-32.536	1.568	-0.56433	0.31302	-0.54092	0.53925	30.1	13111	100
2025-3-27 14:51:16.80	WT901BLE68-01(48591DE3C19B)	-0.291	-0.894	0.236	-4.089	-12.024	1.648	-76.57	17.07	-98.11	-64.778	-32.536	1.568	-0.56433	0.31302	-0.54092	0.53925	30.1	13111	100
2025-3-27 14:51:16.80	WT901BLE68-01(48591DE3C19B)	-0.291	-0.901	0.231	-4.700	-12.451	-0.549	-76.57	17.03	-97.99	-64.778	-32.536	1.568	-0.56433	0.31302	-0.54092	0.53925	30.1	13111	100
2025-3-27 14:51:16.80	WT901BLE68-01(48591DE3C19B)	-0.292	-0.901	0.231	-4.700	-12.451	-0.549	-76.58	17.01	-97.86	-64.778	-32.536	1.568	-0.56433	0.31302	-0.54092	0.53925	30.1	13111	100
2025-3-27 14:51:16.131	WT901BLE68-01(48591DE3C19B)	-0.292	-0.915	0.227	-4.761	-12.024	-3.235	-76.59	16.95	-97.74	-64.778	-32.536	1.568	-0.56433	0.31302	-0.54092	0.53925	30.1	13111	100
2025-3-27 14:51:16.131	WT901BLE68-01(48591DE3C19B)	-0.299	-0.915	0.227	-4.761	-12.024	-3.235	-76.60	16.89	-97.62	-64.778	-32.536	1.568	-0.56433	0.31302	-0.54092	0.53925	30.1	13111	100
2025-3-27 14:51:16.131	WT901BLE68-01(48591DE3C19B)	-0.299	-0.930	0.229	-4.761	-11.902	-5.859	-76.61	16.81	-97.51	-64.778	-32.536	1.568	-0.56433	0.31302	-0.54092	0.53925	30.1	13111	100
2025-3-27 14:51:16.131	WT901BLE68-01(48591DE3C19B)	-0.301	-0.930	0.229	-4.761	-11.902	-5.859	-76.62	16.73	-97.41	-64.778	-32.536	1.568	-0.56433	0.31302	-0.54092	0.53925	30.1	13111	100
2025-3-27 14:51:16.159	WT901BLE68-01(48591DE3C19B)	-0.301	-0.939	0.231	-4.028	-11.841	-8.179	-76.62	16.63	-97.31	-64.778	-32.536	1.568	-0.56433	0.31302	-0.54092	0.53925	30.1	13111	100
2025-3-27 14:51:16.160	WT901BLE68-01(48591DE3C19B)	-0.299	-0.939	0.231	-4.028	-11.841	-8.179	-76.63	16.53	-97.21	-64.778	-32.536	1.568	-0.56433	0.31302	-0.54092	0.53925	30.1	13111	100
2025-3-27 14:51:16.160	WT901BLE68-01(48591DE3C19B)	-0.299	-0.928	0.231	-2.625	-10.498	-9.766	-76.62	16.42	-97.12	-64.778	-32.536	1.568	-0.56433	0.31302	-0.54092	0.53925	30.1	13111	100
2025-3-27 14:51:16.160	WT901BLE68-01(48591DE3C19B)	-0.292	-0.928	0.231	-2.625	-10.498	-9.766	-76.62	16.30	-97.04	-64.778	-32.536	1.568	-0.56433	0.31302	-0.54092	0.53925	30.1	13111	100
2025-3-27 14:51:16.252	WT901BLE68-01(48591DE3C19B)	-0.292	-0.902	0.223	-2.075	-7.874	-10.254	-76.62	16.19	-96.98	-64.778	-32.536	1.568	-0.56433	0.31302	-0.54092	0.53925	30.1	13111	100
2025-3-27 14:51:16.252	WT901BLE68-01(48591DE3C19B)	-0.292	-0.902	0.223	-2.075	-7.874	-10.254	-76.62	16.08	-96.93	-64.778	-32.536	1.568	-0.56433	0.31302	-0.54092	0.53925	30.1	13111	100
2025-3-27 14:51:16.252	WT901BLE68-01(48591DE3C19B)	-0.292	-0.916	0.218	-3.967	-4.822	-10.010	-76.65	15.99	-96.90	-64.778	-32.536	1.568	-0.56433	0.31302	-0.54092	0.53925	30.1	13111	100
2025-3-27 14:51:16.253	WT901BLE68-01(48591DE3C19B)	-0.302	-0.916	0.218	-3.967	-4.822	-10.010	-76.68	15.89	-96.88	-64.778	-32.536	1.568	-0.56433	0.31302	-0.54092	0.53925	30.1	13111	100
2025-3-27 14:51:16.253	WT901BLE68-01(48591DE3C19B)	-0.302	-0.937	0.223	-2.930	-3.235	-10.132	-76.71	15.79	-96.87	-64.778	-32.536	1.568	-0.56433	0.31302	-0.54092	0.53925	30.1	13111	100
2025-3-27 14:51:16.253	WT901BLE68-01(48591DE3C19B)	-0.304	-0.937	0.223	-2.930	-3.235	-10.132	-76.73	15.69	-96.86	-64.778	-32.536	1.568	-0.56433	0.31302	-0.54092	0.53925	30.1	13111	100
2025-3-27 14:51:16.253	WT901BLE68-01(48591DE3C19B)	-0.304	-0.935	0.226	-1.892	-3.601	-9.033	-76.74	15.61	-96.84	-64.778	-32.536	1.568	-0.56433	0.31302	-0.54092	0.53925	30.1	13111	100
2025-3-27 14:51:16.253	WT901BLE68-01(48591DE3C19B)	-0.283	-0.935	0.226	-1.892	-3.601	-9.033	-76.75	15.52	-96.83	-64.778	-32.536	1.568	-0.56433	0.31302	-0.54092	0.53925	30.1	13111	100
2025-3-27 14:51:16.432	WT901BLE68-01(48591DE3C19B)	-0.283	-0.908	0.217	-1.465	-3.052	-7.263	-76.76	15.46	-96.82	-64.778	-32.536	1.568	-0.56433	0.31302	-0.54092	0.53925	30.1	13111	100
2025-3-27 14:51:16.432	WT901BLE68-01(48591DE3C19B)	-0.275	-0.908	0.217	-1.465	-3.052	-7.263	-76.77	15.39	-96.80	-64.778	-32.536	1.568	-0.56433	0.31302	-0.54092	0.53925	30.1	13111	100
2025-3-27 14:51:16.432	WT901BLE68-01(48591DE3C19B)	-0.275	-0.894	0.208	-2.441	-1.282	-5.432	-76.79	15.35	-96.80	-64.778	-32.536	1.568	-0.57758	0.33054	-0.52972	0.52579	30.1	13111	100
2025-3-27 14:51:16.432	WT901BLE68-01(48591DE3C19B)	-0.286	-0.894	0.208	-2.441	-1.282	-5.432	-76.81	15.30	-96.80	-64.778	-32.536	1.568	-0.57758	0.33054	-0.52972	0.52579	30.1	13111	100
2025-3-27 14:51:16.433	WT901BLE68-01(48591DE3C19B)	-0.286	-0.907	0.205	-4.700	-3.052	-4.089	-76.85	15.27	-96.77	-64.778	-32.536	1.568	-0.57758	0.33054	-0.52972	0.52579	30.1	13111	100
2025-3-27 14:51:16.433	WT901BLE68-01(48591DE3C19B)	-0.277	-0.907	0.205	-4.700	-3.052	-4.089	-76.89	15.23	-96.75	-64.778	-32.536	1.568	-0.57758	0.33054	-0.52972	0.52579	30.1	13111	100
2025-3-27 14:51:16.433	WT901BLE68-01(48591DE3C19B)	-0.277	-0.936	0.206	-6.042	-6.592	-3.296	-76.93	15.19	-96.69	-64.778	-32.536	1.568	-0.57758	0.33054	-0.52972	0.52579	30.1	13111	100
2025-3-27 14:51:16.433	WT901BLE68-01(48591DE3C19B)	-0.256	-0.936	0.206	-6.042	-6.592	-3.296	-76.98	15.16	-96.63	-64.778	-32.536	1.568	-0.57758	0.33054	-0.52972	0.52579	30.1	13111	100
2025-3-27 14:51:16.434	WT901BLE68-01(48591DE3C19B)	-0.256	-0.946	0.203	-5.371	-7.813	-3.357	-77.01	15.12	-96.56	-64.778	-32.536	1.568	-0.57758	0.33054	-0.52972	0.52579	30.1	13111	100
2025-3-27 14:51:16.434	WT901BLE68-01(48591DE3C19B)	-0.242	-0.946	0.203	-5.371	-7.813	-3.357	-77.04	15.08	-96.48	-64.778	-32.536	1.568	-0.57758	0.33054	-0.52972	0.52579	30.1	13111	100
2025-3-27 14:51:16.434	WT901BLE68-01(48591DE3C19B)	-0.221	-0.951	0.196	-5.005	-6.165	-3.967	-77.08	15.03	-96.43	-64.778	-32.536	1.568	-0.57758	0.33054	-0.52972	0.52579	30.1	13111	100
2025-3-27 14:51:16.434	WT901BLE68-01(48591DE3C19B)	-0.221	-0.965	0.190	-4.272	-3.174	-4.822	-77.12	14.99	-96.39	-64.778	-32.536	1.568	-0.57758	0.33054	-0.52972	0.52579	30.1	13111	100
2025-3-27 14:51:16.490	WT901BLE68-01(48591DE3C19B)	-0.208	-0.965	0.190	-4.272	-3.174	-4.822	-77.16	14.94	-96.36	-64.778	-32.536	1.568	-0.57758	0.33054	-0.52972	0.52579	30.1	13111	100
2025-3-27 14:51:16.490	WT901BLE68-01(48591DE3C19B)	-0.208	-0.964	0.190	-1.648	2.258	-5.127	-77.19	14.89	-96.37	-64.778	-32.536	1.568	-0.57758	0.33054	-0.52972	0.52579	30.1	13111	100
2025-3-27 14:51:16.490	WT901BLE68-01(48591DE3C19B)	-0.195	-0.964	0.190	-1.648	2.258	-5.127	-77.22	14.85	-96.39	-64.778	-32.536	1.568	-0.57758	0.33054	-0.52972	0.52579	30.1	13111	100
2025-3-27 14:51:16.490	WT901BLE68-01(48591DE3C19B)	-0.195	-0.936	0.185	-1.099	7.935	-5.310	-77.25	14.81	-96.45	-64.778	-32.536	1.568	-0.57758	0.33054	-0.52972	0.52579	30.1	13111	100
2025-3-27 14:51:16.491	WT901BLE68-01(48591DE3C19B)	-0.182	-0.936	0.185	-1.099	7.935	-5.310	-77.29	14.78	-96.54	-64.778	-32.536	1.568	-0.57758	0.33054	-0.52972	0.52579	30.1	13111	100
2025-3-27 14:51:16.491	WT901BLE68-01(48591DE3C19B)	-0.182	-0.939	0.172	-4.761	12.756	-6.470	-77.35	14.74	-96.65	-64.778	-32.536	1.568	-0.57758	0.33054	-0.52972	0.52579	30.1	13111	100
2025-3-27 14:51:16.491	WT901BLE68-01(48591DE3C19B)	-0.204	-0.939	0.172	-4.761	12.756	-6.470	-77.44	14.69	-96.78	-64.778	-32.536	1.568	-0.57758	0.33054	-0.52972	0.52579	30.1	13111	100
2025-3-27 14:51:16.491	WT901BLE68-01(48591DE3C19B)	-0.204	-0.995	0.177	-8.423	15.686	-9.338	-77.55	14.64	-96.93	-64.778	-32.536	1.568	-0.57758	0.33054	-0.52972	0.52579	30.1	13111	100
2025-3-27 14:51:16.491	WT901BLE68-01(48591DE3C19B)	-0.231	-0.995	0.177	-8.423	15.686	-9.338	-77.68	14.58	-97.10	-66.052	-31.850	1.470	-0.57758	0.33054	-0.52972	0.52579	30.1	13111	100
2025-3-27 14:51:16.491	WT901BLE68-01(48591DE3C19B)	-0.231	-1.040	0.197	-9.705	12.939	-13.916	-77.82	14.49	-97.25	-66.052	-31.850	1.470	-0.57758	0.33054	-0.52972	0.52579	30.1	13111	100
2025-3-27 14:51:16.491	WT901BLE68-01(48591DE3C19B)	-0.240	-1.040	0.197	-9.705	12.939	-13.916	-77.96	14.37	-97.40	-66.052	-31.850	1.470	-0.57758	0.33054	-0.52972	0.52579	30.1	13111	100
2025-3-27 14:51:16.492	WT901BLE68-01(48591DE3C19B)	-0.240	-1.041	0.216	-10.193	9.399	-18.921	-78.10	14.22	-97.53	-66.052	-31.850	1.470	-0.57758	0.33054	-0.52972	0.52579	30.1	13111	100
2025-3-27 14:51:16.520	WT901BLE68-01(48591DE3C19B)	-0.265	-1.041	0.216	-10.193	9.399	-18.921	-78.24	14.05	-97.65	-66.052	-31.850	1.470	-0.57758	0.33054	-0.52972	0.52579	30.1	13111	100
2025-3-27 14:51:16.520	WT901BLE68-01(48591DE3C19B)	-0.265	-1.010	0.229	-10.193	4.883	-24.170	-78.37	13.85	-97.75	-66.052	-31.850	1.470	-0.57758	0.33054	-0.52972	0.52579	30.1	13111	100
2025-3-27 14:51:16.520	WT901BLE68-01(48591DE3C19B)	-0.275	-1.010	0.229	-10.193	4.883	-24.170	-78.50	13.62	-97.83	-66.052	-31.850	1.470	-0.57758	0.33054	-0.52972	0.52579	30.1	13111	100
2025-3-27 14:51:16.520	WT901BLE68-01(48591DE3C19B)	-0.275	-0.937	0.232	-11.902	-3.845	-29.785	-78.62	13.35	-97.87	-66.052	-31.850	1.470	-0.57758	0.33054	-0.52972	0.52579	30.1	13111	100
2025-3-27 14:51:16.641	WT901BLE68-01(48591DE3C19B)	-0.258	-0.937	0.232	-11.902	-3.845	-29.785	-78.74	13.06	-97.88	-66.052	-31.850	1.470	-0.57758	0.33054	-0.52972	0.52579	30.1	13111	100
2025-3-27 14:51:16.641	WT901BLE68-01(48591DE3C19B)	-0.258	-0.874	0.223	-16.846	-12.390	-34.363	-78.88	12.73	-97.84	-66.052	-31.850	1.470	-0.57758	0.33054	-0.52972	0.52579	30.1	13111	100
2025-3-27 14:51:16.642	WT901BLE68-01(48591DE3C19B)	-0.246	-0.874	0.223	-16.846	-12.390	-34.363	-79.02	12.38	-97.77	-66.052	-31.850	1.470	-0.57758	0.33054	-0.52972	0.52579	30.1	13111	100
2025-3-27 14:51:16.642	WT901BLE68-01(48591DE3C19B)	-0.246	-0.848	0.213	-20.691	-17.151	-38.574	-79.18	12.01	-97.68	-66.052	-31.850	1.470	-0.57758	0.33054	-0.52972	0.52579	30.1	13111	100
2025-3-27 14:51:16.643	WT901BLE68-01(48591DE3C19B)	-0.244	-0.848	0.213	-20.691	-17.151	-38.574	-79.36	11.61	-97.57	-66.052	-31.850	1.470	-0.57758	0.33054	-0.52972	0.52579	30.1	13111	100
2025-3-27 14:51:16.643	WT901BLE68-01(48591DE3C19B)	-0.244	-0.824	0.212	-22.400	-19.165	-41.992	-79.54	11.20	-97.45	-66.052	-31.850	1.470	-0.57758	0.33054	-0.52972	0.52579	30.1	13111	100
2025-3-27 14:51:16.643	WT901BLE68-01(48591DE3C19B)	-0.247	-0.824	0.212	-22.400	-19.165	-41.992	-79.73	10.78	-97.33	-66.052	-31.850	1.470	-0.57758	0.33054	-0.52972	0.52579	30.1	13111	100
2025-3-27 14:51:16.643	WT901BLE68-01(48591DE3C19B)	-0.247	-0.820	0.213	-24.902	-18.860	-45.166	-79.93	10.34	-97.21	-66.052	-31.850	1.470	-0.57758	0.33054	-0.52972	0.52579	30.1	13111	100
2025-3-27 14:51:16.701	WT901BLE68-01(48591DE3C19B)	-0.256	-0.820	0.213	-24.902	-18.860	-45.166	-80.14	9.89	-97.09	-66.052	-31.850	1.470	-0.57758	0.33054	-0.52972	0.52579	30.1	13111	100
2025-3-27 14:51:16.701	WT901BLE68-01(48591DE3C19B)	-0.256	-0.836	0.221	-25.513	-17.334	-48.340	-80.35	9.43	-96.98	-66.052	-31.850	1.470	-0.57758	0.33054	-0.52972	0.52579	30.1	13111	100
2025-3-27 14:51:16.701	WT901BLE68-01(48591DE3C19B)	-0.271	-0.836	0.221	-25.513	-17.334	-48.340	-80.57	8.96	-96.89	-66.052	-31.850	1.470	-0.57758	0.33054	-0.52972	0.52579	30.1	13111	100
2025-3-27 14:51:16.701	WT901BLE68-01(48591DE3C19B)	-0.271	-0.865	0.227	-25.635	-14.404	-51.392	-80.79	8.49	-96.81	-66.052	-31.850	1.470	-0.57758	0.33054	-0.52972	0.52579	30.1	13111	100
2025-3-27 14:51:16.702	WT901BLE68-01(48591DE3C19B)	-0.290	-0.865	0.227	-25.635	-14.404	-51.392	-81.01	8.00	-96.74	-66.052	-31.850	1.470	-0.57758	0.33054	-0.52972	0.52579	30.1	13111	100
2025-3-27 14:51:16.702	WT901BLE68-01(48591DE3C19B)	-0.290	-0.893	0.239	-24.170	-10.742	-54.321	-81.22	7.51	-96.70	-66.052	-31.850	1.470	-0.53397	0.39633	-0.51776	0.53815	30.1	13111	100
2025-3-27 14:51:16.702	WT901BLE68-01(48591DE3C19B)	-0.310	-0.893	0.239	-24.170	-10.742	-54.321	-81.43	7.00	-96.67	-66.052	-31.850	1.470	-0.53397	0.39633	-0.51776	0.53815	30.1	13111	100
2025-3-27 14:51:16.702	WT901BLE68-01(48591DE3C19B)	-0.310	-0.914	0.259	-22.400	-7.874	-56.335	-81.63	6.50	-96.66	-66.052	-31.850	1.470	-0.53397	0.39633	-0.51776	0.53815	30.1	13111	100
2025-3-27 14:51:16.761	WT901BLE68-01(48591DE3C19B)	-0.322	-0.914	0.259	-22.400	-7.874	-56.335	-81.82	5.99	-96.66	-66.052	-31.850	1.470	-0.53397	0.39633	-0.51776	0.53815	30.1	13111	100
2025-3-27 14:51:16.761	WT901BLE68-01(48591DE3C19B)	-0.322	-0.932	0.276	-20.752	-5.737	-56.580	-82.00	5.49	-96.67	-66.052	-31.850	1.470	-0.53397	0.39633	-0.51776	0.53815	30.1	13111	100
2025-3-27 14:51:16.761	WT901BLE68-01(48591DE3C19B)	-0.325	-0.932	0.276	-20.752	-5.737	-56.580	-82.17	4.99	-96.70	-66.052	-31.850	1.470	-0.53397	0.39633	-0.51776	0.53815	30.1	13111	100
2025-3-27 14:51:16.761	WT901BLE68-01(48591DE3C19B)	-0.325	-0.919	0.282	-17.029	-2.441	-54.321	-82.32	4.51	-96.73	-66.052	-31.850	1.470	-0.53397	0.39633	-0.51776	0.53815	30.1	13111	100
2025-3-27 14:51:16.762	WT901BLE68-01(48591DE3C19B)	-0.326	-0.919	0.282	-17.029	-2.441	-54.321	-82.45	4.04	-96.79	-66.052	-31.850	1.470	-0.53397	0.39633	-0.51776	0.53815	30.1	13111	100
2025-3-27 14:51:16.762	WT901BLE68-01(48591DE3C19B)	-0.326	-0.878	0.279	-14.587	-0.061	-49.988	-82.56	3.60	-96.85	-66.052	-31.850	1.470	-0.53397	0.39633	-0.51776	0.53815	30.1	13111	100
2025-3-27 14:51:16.762	WT901BLE68-01(48591DE3C19B)	-0.330	-0.878	0.279	-14.587	-0.061	-49.988	-82.66	3.19	-96.92	-66.052	-31.850	1.470	-0.53397	0.39633	-0.51776	0.53815	30.1	13111	100
2025-3-27 14:51:16.762	WT901BLE68-01(48591DE3C19B)	-0.330	-0.854	0.272	-16.052	-0.244	-44.922	-82.77	2.81	-96.98	-66.052	-31.850	1.470	-0.53397	0.39633	-0.51776	0.53815	30.1	13111	100
2025-3-27 14:51:16.823	WT901BLE68-01(48591DE3C19B)	-0.338	-0.854	0.272	-16.052	-0.244	-44.922	-82.88	2.46	-97.04	-66.052	-31.850	1.470	-0.53397	0.39633	-0.51776	0.53815	30.1	13111	100
2025-3-27 14:51:16.823	WT901BLE68-01(48591DE3C19B)	-0.338	-0.879	0.269	-19.226	-3.296	-39.795	-83.01	2.13	-97.08	-66.052	-31.850	1.470	-0.53397	0.39633	-0.51776	0.53815	30.1	13111	100
2025-3-27 14:51:16.823	WT901BLE68-01(48591DE3C19B)	-0.350	-0.879	0.269	-19.226	-3.296	-39.795	-83.14	1.83	-97.10	-66.052	-31.850	1.470	-0.53397	0.39633	-0.51776	0.53815	30.1	13111	100
2025-3-27 14:51:16.823	WT901BLE68-01(48591DE3C19B)	-0.350	-0.918	0.274	-18.982	-8.301	-34.912	-83.28	1.55	-97.10	-66.052	-31.850	1.470	-0.53397	0.39633	-0.51776	0.53815	30.1	13111	100
2025-3-27 14:51:16.881	WT901BLE68-01(48591DE3C19B)	-0.354	-0.918	0.274	-18.982	-8.301	-34.912	-83.41	1.30	-97.06	-66.052	-31.850	1.470	-0.53397	0.39633	-0.51776	0.53815	30.1	13111	100
2025-3-27 14:51:16.881	WT901BLE68-01(48591DE3C19B)	-0.354	-0.930	0.282	-17.578	-12.451	-30.396	-83.52	1.09	-96.98	-66.052	-31.850	1.470	-0.53397	0.39633	-0.51776	0.53815	30.1	13111	100
2025-3-27 14:51:16.881	WT901BLE68-01(48591DE3C19B)	-0.357	-0.930	0.282	-17.578	-12.451	-30.396	-83.64	0.88	-96.90	-66.052	-31.850	1.470	-0.53397	0.39633	-0.51776	0.53815	30.1	13111	100
2025-3-27 14:51:16.881	WT901BLE68-01(48591DE3C19B)	-0.357	-0.988	0.282	-20.203	-14.160	-26.245	-83.78	0.71	-96.80	-66.640	-28.420	1.568	-0.53397	0.39633	-0.51776	0.53815	30.1	13111	100
2025-3-27 14:51:16.882	WT901BLE68-01(48591DE3C19B)	-0.364	-0.988	0.282	-20.203	-14.160	-26.245	-83.92	0.54	-96.70	-66.640	-28.420	1.568	-0.53397	0.39633	-0.51776	0.53815	30.1	13111	100
2025-3-27 14:51:16.882	WT901BLE68-01(48591DE3C19B)	-0.364	-1.099	0.282	-20.264	-14.282	-23.499	-84.06	0.41	-96.59	-66.640	-28.420	1.568	-0.53397	0.39633	-0.51776	0.53815	30.1	13111	100
2025-3-27 14:51:16.882	WT901BLE68-01(48591DE3C19B)	-0.379	-1.099	0.282	-20.264	-14.282	-23.499	-84.20	0.27	-96.48	-66.640	-28.420	1.568	-0.53397	0.39633	-0.51776	0.53815	30.1	13111	100
2025-3-27 14:51:16.882	WT901BLE68-01(48591DE3C19B)	-0.379	-1.203	0.284	-15.747	-13.428	-20.813	-84.30	0.15	-96.38	-66.640	-28.420	1.568	-0.53397	0.39633	-0.51776	0.53815	30.1	13111	100
2025-3-27 14:51:16.941	WT901BLE68-01(48591DE3C19B)	-0.385	-1.203	0.284	-15.747	-13.428	-20.813	-84.40	0.04	-96.28	-66.640	-28.420	1.568	-0.53397	0.39633	-0.51776	0.53815	30.1	13111	100
2025-3-27 14:51:16.941	WT901BLE68-01(48591DE3C19B)	-0.385	-1.261	0.294	-8.179	-10.681	-16.663	-84.43	-0.02	-96.20	-66.640	-28.420	1.568	-0.53397	0.39633	-0.51776	0.53815	30.1	13111	100
2025-3-27 14:51:16.941	WT901BLE68-01(48591DE3C19B)	-0.781	-1.261	0.294	-8.179	-10.681	-16.663	-84.46	-0.08	-96.11	-66.640	-28.420	1.568	-0.53397	0.39633	-0.51776	0.53815	30.1	13111	100
2025-3-27 14:51:16.941	WT901BLE68-01(48591DE3C19B)	-3.126	-2.682	0.584	-5.859	-6.165	-10.498	-84.46	-0.09	-96.07	-66.640	-28.420	1.568	-0.53397	0.39633	-0.51776	0.53815	30.1	13111	100
2025-3-27 14:51:16.970	WT901BLE68-01(48591DE3C19B)	-0.392	-10.729	2.336	-5.859	-6.165	-10.498	-84.47	-0.09	-96.02	-66.640	-28.420	1.568	-0.53397	0.39633	-0.51776	0.53815	30.1	13111	100
2025-3-27 14:51:16.970	WT901BLE68-01(48591DE3C19B)	-0.392	-1.386	0.265	6.836	0.977	0.488	-84.36	0.01	-96.03	-66.640	-28.420	1.568	-0.53397	0.39633	-0.51776	0.53815	30.1	13111	100
2025-3-27 14:51:16.970	WT901BLE68-01(48591DE3C19B)	-0.364	-1.386	0.265	6.836	0.977	0.488	-84.25	0.11	-96.04	-66.640	-28.420	1.568	-0.53397	0.39633	-0.51776	0.53815	30.1	13111	100
2025-3-27 14:51:16.970	WT901BLE68-01(48591DE3C19B)	-0.364	-1.219	0.243	26.550	11.108	17.944	-83.94	0.40	-96.13	-66.640	-28.420	1.568	-0.53397	0.39633	-0.51776	0.53815	30.1	13111	100
2025-3-27 14:51:17.33	WT901BLE68-01(48591DE3C19B)	-0.351	-1.219	0.243	26.550	11.108	17.944	-83.64	0.69	-96.22	-66.640	-28.420	1.568	-0.53397	0.39633	-0.51776	0.53815	30.1	13111	100
2025-3-27 14:51:17.33	WT901BLE68-01(48591DE3C19B)	-0.351	-0.955	0.231	36.865	18.127	39.246	-83.24	1.19	-96.35	-66.640	-28.420	1.568	-0.53397	0.39633	-0.51776	0.53815	30.1	13111	100
2025-3-27 14:51:17.33	WT901BLE68-01(48591DE3C19B)	-0.343	-0.955	0.231	36.865	18.127	39.246	-82.84	1.70	-96.48	-66.640	-28.420	1.568	-0.53397	0.39633	-0.51776	0.53815	30.1	13111	100
2025-3-27 14:51:17.33	WT901BLE68-01(48591DE3C19B)	-0.343	-0.693	0.224	35.461	13.611	61.646	-82.45	2.42	-96.53	-66.640	-28.420	1.568	-0.53397	0.39633	-0.51776	0.53815	30.1	13111	100
2025-3-27 14:51:17.91	WT901BLE68-01(48591DE3C19B)	-0.318	-0.693	0.224	35.461	13.611	61.646	-82.07	3.13	-96.58	-66.640	-28.420	1.568	-0.53397	0.39633	-0.51776	0.53815	30.1	13111	100
2025-3-27 14:51:17.91	WT901BLE68-01(48591DE3C19B)	-0.318	-0.529	0.207	21.240	1.160	81.909	-81.82	4.03	-96.48	-66.640	-28.420	1.568	-0.53397	0.39633	-0.51776	0.53815	30.1	13111	100
2025-3-27 14:51:17.91	WT901BLE68-01(48591DE3C19B)	-0.298	-0.529	0.207	21.240	1.160	81.909	-81.56	4.93	-96.37	-66.640	-28.420	1.568	-0.53397	0.39633	-0.51776	0.53815	30.1	13111	100
2025-3-27 14:51:17.91	WT901BLE68-01(48591DE3C19B)	-0.298	-0.503	0.167	2.991	-14.526	98.145	-81.47	5.96	-96.08	-66.640	-28.420	1.568	-0.53397	0.39633	-0.51776	0.53815	30.1	13111	100
2025-3-27 14:51:17.92	WT901BLE68-01(48591DE3C19B)	-0.297	-0.503	0.167	2.991	-14.526	98.145	-81.38	6.99	-95.80	-66.640	-28.420	1.568	-0.53687	0.40195	-0.51379	0.53488	30.1	13111	100
2025-3-27 14:51:17.92	WT901BLE68-01(48591DE3C19B)	-0.297	-0.625	0.139	-10.498	-28.687	109.924	-81.39	8.10	-95.35	-66.640	-28.420	1.568	-0.53687	0.40195	-0.51379	0.53488	30.1	13111	100
2025-3-27 14:51:17.92	WT901BLE68-01(48591DE3C19B)	-0.331	-0.625	0.139	-10.498	-28.687	109.924	-81.39	9.22	-94.91	-66.640	-28.420	1.568	-0.53687	0.40195	-0.51379	0.53488	30.1	13111	100
2025-3-27 14:51:17.92	WT901BLE68-01(48591DE3C19B)	-0.331	-0.822	0.125	-15.381	-44.067	114.197	-81.41	10.34	-94.31	-66.640	-28.420	1.568	-0.53687	0.40195	-0.51379	0.53488	30.1	13111	100
2025-3-27 14:51:17.150	WT901BLE68-01(48591DE3C19B)	-0.351	-0.822	0.125	-15.381	-44.067	114.197	-81.41	11.46	-93.70	-66.640	-28.420	1.568	-0.53687	0.40195	-0.51379	0.53488	30.1	13111	100
2025-3-27 14:51:17.150	WT901BLE68-01(48591DE3C19B)	-0.351	-1.022	0.120	-15.808	-62.378	110.535	-81.38	12.51	-92.91	-66.640	-28.420	1.568	-0.53687	0.40195	-0.51379	0.53488	30.1	13111	100
2025-3-27 14:51:17.150	WT901BLE68-01(48591DE3C19B)	-0.354	-1.022	0.120	-15.808	-62.378	110.535	-81.34	13.55	-92.13	-66.640	-28.420	1.568	-0.53687	0.40195	-0.51379	0.53488	30.1	13111	100
2025-3-27 14:51:17.150	WT901BLE68-01(48591DE3C19B)	-0.354	-1.227	0.093	-6.226	-76.538	101.196	-81.16	14.47	-91.20	-66.640	-28.420	1.568	-0.53687	0.40195	-0.51379	0.53488	30.1	13111	100
2025-3-27 14:51:17.182	WT901BLE68-01(48591DE3C19B)	-0.369	-1.227	0.093	-6.226	-76.538	101.196	-80.96	15.38	-90.27	-66.640	-28.420	1.568	-0.53687	0.40195	-0.51379	0.53488	30.1	13111	100
2025-3-27 14:51:17.182	WT901BLE68-01(48591DE3C19B)	-0.369	-1.352	0.085	12.695	-83.374	89.661	-80.56	16.15	-89.29	-66.640	-28.420	1.568	-0.53687	0.40195	-0.51379	0.53488	30.1	13111	100
2025-3-27 14:51:17.182	WT901BLE68-01(48591DE3C19B)	-0.354	-1.352	0.085	12.695	-83.374	89.661	-80.15	16.90	-88.30	-66.640	-28.420	1.568	-0.53687	0.40195	-0.51379	0.53488	30.1	13111	100
2025-3-27 14:51:17.182	WT901BLE68-01(48591DE3C19B)	-0.354	-1.379	0.093	27.161	-76.233	75.256	-79.61	17.52	-87.40	-66.640	-28.420	1.568	-0.53687	0.40195	-0.51379	0.53488	30.1	13111	100
2025-3-27 14:51:17.242	WT901BLE68-01(48591DE3C19B)	-0.346	-1.379	0.093	27.161	-76.233	75.256	-79.07	18.12	-86.49	-66.640	-28.420	1.568	-0.53687	0.40195	-0.51379	0.53488	30.1	13111	100
2025-3-27 14:51:17.242	WT901BLE68-01(48591DE3C19B)	-0.346	-1.360	0.112	35.767	-62.012	63.721	-78.50	18.61	-85.75	-66.640	-28.420	1.568	-0.53687	0.40195	-0.51379	0.53488	30.1	13111	100
2025-3-27 14:51:17.243	WT901BLE68-01(48591DE3C19B)	-0.330	-1.360	0.112	35.767	-62.012	63.721	-77.92	19.10	-85.00	-66.640	-28.420	1.568	-0.53687	0.40195	-0.51379	0.53488	30.1	13111	100
2025-3-27 14:51:17.243	WT901BLE68-01(48591DE3C19B)	-0.330	-1.312	0.110	41.504	-49.011	61.584	-77.32	19.58	-84.39	-66.640	-28.420	1.568	-0.53687	0.40195	-0.51379	0.53488	30.1	13111	100
2025-3-27 14:51:17.243	WT901BLE68-01(48591DE3C19B)	-0.252	-1.312	0.110	41.504	-49.011	61.584	-76.73	20.05	-83.78	-66.640	-28.420	1.568	-0.53687	0.40195	-0.51379	0.53488	30.1	13111	100
2025-3-27 14:51:17.243	WT901BLE68-01(48591DE3C19B)	-0.252	-1.135	0.090	50.049	-30.640	62.439	-76.11	20.56	-83.34	-66.640	-28.420	1.568	-0.53687	0.40195	-0.51379	0.53488	30.1	13111	100
2025-3-27 14:51:17.243	WT901BLE68-01(48591DE3C19B)	-0.208	-1.135	0.090	50.049	-30.640	62.439	-75.49	21.07	-82.90	-66.640	-28.420	1.568	-0.53687	0.40195	-0.51379	0.53488	30.1	13111	100
2025-3-27 14:51:17.243	WT901BLE68-01(48591DE3C19B)	-0.208	-0.957	0.058	46.143	-5.066	67.200	-75.00	21.67	-82.72	-66.640	-28.420	1.568	-0.53687	0.40195	-0.51379	0.53488	30.1	13111	100
2025-3-27 14:51:17.301	WT901BLE68-01(48591DE3C19B)	-0.233	-0.957	0.058	46.143	-5.066	67.200	-74.50	22.26	-82.52	-66.640	-28.420	1.568	-0.53687	0.40195	-0.51379	0.53488	30.1	13111	100
2025-3-27 14:51:17.301	WT901BLE68-01(48591DE3C19B)	-0.233	-0.856	0.035	36.987	8.118	72.998	-74.15	22.94	-82.43	-75.754	-30.478	3.920	-0.53687	0.40195	-0.51379	0.53488	30.1	13111	100
2025-3-27 14:51:17.301	WT901BLE68-01(48591DE3C19B)	-0.270	-0.856	0.035	36.987	8.118	72.998	-73.80	23.63	-82.34	-75.754	-30.478	3.920	-0.53687	0.40195	-0.51379	0.53488	30.1	13111	100
2025-3-27 14:51:17.302	WT901BLE68-01(48591DE3C19B)	-0.283	-0.824	0.027	20.142	5.310	77.271	-73.59	24.33	-82.21	-75.754	-30.478	3.920	-0.53687	0.40195	-0.51379	0.53488	30.1	13111	100
2025-3-27 14:51:17.390	WT901BLE68-01(48591DE3C19B)	-0.283	-0.869	0.009	7.996	-4.089	81.604	-73.43	25.04	-82.01	-75.754	-30.478	3.920	-0.53687	0.40195	-0.51379	0.53488	30.1	13111	100
2025-3-27 14:51:17.391	WT901BLE68-01(48591DE3C19B)	-0.302	-0.869	0.009	7.996	-4.089	81.604	-73.30	25.76	-81.76	-75.754	-30.478	3.920	-0.53687	0.40195	-0.51379	0.53488	30.1	13111	100
2025-3-27 14:51:17.391	WT901BLE68-01(48591DE3C19B)	-0.302	-0.896	0.000	3.906	-14.160	85.754	-73.16	26.48	-81.44	-75.754	-30.478	3.920	-0.53687	0.40195	-0.51379	0.53488	30.1	13111	100
2025-3-27 14:51:17.391	WT901BLE68-01(48591DE3C19B)	-0.308	-0.896	0.000	3.906	-14.160	85.754	-73.01	27.20	-81.06	-75.754	-30.478	3.920	-0.53687	0.40195	-0.51379	0.53488	30.1	13111	100
2025-3-27 14:51:17.392	WT901BLE68-01(48591DE3C19B)	-0.308	-0.918	0.016	0.305	-25.879	86.609	-72.85	27.90	-80.61	-75.754	-30.478	3.920	-0.53687	0.40195	-0.51379	0.53488	30.1	13111	100
2025-3-27 14:51:17.392	WT901BLE68-01(48591DE3C19B)	-0.295	-0.918	0.016	0.305	-25.879	86.609	-72.67	28.58	-80.10	-75.754	-30.478	3.920	-0.53687	0.40195	-0.51379	0.53488	30.1	13111	100
2025-3-27 14:51:17.392	WT901BLE68-01(48591DE3C19B)	-0.295	-0.945	0.035	-2.747	-38.330	84.961	-72.47	29.24	-79.51	-75.754	-30.478	3.920	-0.53687	0.40195	-0.51379	0.53488	30.1	13111	100
2025-3-27 14:51:17.392	WT901BLE68-01(48591DE3C19B)	-0.226	-0.945	0.035	-2.747	-38.330	84.961	-72.24	29.86	-78.85	-75.754	-30.478	3.920	-0.53687	0.40195	-0.51379	0.53488	30.1	13111	100
2025-3-27 14:51:17.420	WT901BLE68-01(48591DE3C19B)	-0.226	-0.929	0.055	-1.221	-40.039	82.458	-71.99	30.46	-78.20	-75.754	-30.478	3.920	-0.53687	0.40195	-0.51379	0.53488	30.1	13111	100
2025-3-27 14:51:17.421	WT901BLE68-01(48591DE3C19B)	-0.178	-0.929	0.055	-1.221	-40.039	82.458	-71.73	31.04	-77.53	-75.754	-30.478	3.920	-0.53687	0.40195	-0.51379	0.53488	30.1	13111	100
2025-3-27 14:51:17.421	WT901BLE68-01(48591DE3C19B)	-0.178	-0.854	0.059	2.686	-30.945	78.613	-71.47	31.61	-76.91	-75.754	-30.478	3.920	-0.53687	0.40195	-0.51379	0.53488	30.1	13111	100
2025-3-27 14:51:17.421	WT901BLE68-01(48591DE3C19B)	-0.135	-0.854	0.059	2.686	-30.945	78.613	-71.22	32.17	-76.35	-75.754	-30.478	3.920	-0.53687	0.40195	-0.51379	0.53488	30.1	13111	100
2025-3-27 14:51:17.451	WT901BLE68-01(48591DE3C19B)	-0.135	-0.774	0.066	-1.343	-18.127	71.960	-71.02	32.71	-75.87	-75.754	-30.478	3.920	-0.53687	0.40195	-0.51379	0.53488	30.1	13111	100
2025-3-27 14:51:17.451	WT901BLE68-01(48591DE3C19B)	-0.111	-0.774	0.066	-1.343	-18.127	71.960	-70.88	33.23	-75.48	-75.754	-30.478	3.920	-0.53687	0.40195	-0.51379	0.53488	30.1	13111	100
2025-3-27 14:51:17.451	WT901BLE68-01(48591DE3C19B)	-0.111	-0.777	0.086	-9.155	-5.066	60.791	-70.84	33.72	-75.18	-75.754	-30.478	3.920	-0.53687	0.40195	-0.51379	0.53488	30.1	13111	100
2025-3-27 14:51:17.451	WT901BLE68-01(48591DE3C19B)	-0.129	-0.777	0.086	-9.155	-5.066	60.791	-70.88	34.16	-74.98	-75.754	-30.478	3.920	-0.72156	0.29413	-0.52719	0.33881	30.1	13111	100
2025-3-27 14:51:17.510	WT901BLE68-01(48591DE3C19B)	-0.129	-0.887	0.127	-17.944	2.930	45.593	-71.00	34.55	-74.85	-75.754	-30.478	3.920	-0.72156	0.29413	-0.52719	0.33881	30.1	13111	100
2025-3-27 14:51:17.510	WT901BLE68-01(48591DE3C19B)	-0.184	-0.887	0.127	-17.944	2.930	45.593	-71.21	34.87	-74.81	-75.754	-30.478	3.920	-0.72156	0.29413	-0.52719	0.33881	30.1	13111	100
2025-3-27 14:51:17.510	WT901BLE68-01(48591DE3C19B)	-0.184	-1.049	0.176	-21.667	3.357	25.208	-71.46	35.09	-74.81	-75.754	-30.478	3.920	-0.72156	0.29413	-0.52719	0.33881	30.1	13111	100
2025-3-27 14:51:17.510	WT901BLE68-01(48591DE3C19B)	-0.203	-1.049	0.176	-21.667	3.357	25.208	-71.75	35.21	-74.85	-75.754	-30.478	3.920	-0.72156	0.29413	-0.52719	0.33881	30.1	13111	100
2025-3-27 14:51:17.570	WT901BLE68-01(48591DE3C19B)	-0.203	-1.163	0.174	-21.057	1.709	3.113	-72.05	35.22	-74.93	-75.754	-30.478	3.920	-0.72156	0.29413	-0.52719	0.33881	30.1	13111	100
2025-3-27 14:51:17.570	WT901BLE68-01(48591DE3C19B)	-0.182	-1.163	0.174	-21.057	1.709	3.113	-72.36	35.12	-75.04	-75.754	-30.478	3.920	-0.72156	0.29413	-0.52719	0.33881	30.1	13111	100
2025-3-27 14:51:17.570	WT901BLE68-01(48591DE3C19B)	-0.182	-1.283	0.111	-22.339	8.606	-19.531	-72.72	34.93	-75.22	-75.754	-30.478	3.920	-0.72156	0.29413	-0.52719	0.33881	30.1	13111	100
2025-3-27 14:51:17.570	WT901BLE68-01(48591DE3C19B)	-0.168	-1.283	0.111	-22.339	8.606	-19.531	-73.13	34.63	-75.49	-75.754	-30.478	3.920	-0.72156	0.29413	-0.52719	0.33881	30.1	13111	100
2025-3-27 14:51:17.571	WT901BLE68-01(48591DE3C19B)	-0.168	-1.436	0.055	-15.808	23.315	-42.786	-73.58	34.24	-75.88	-75.754	-30.478	3.920	-0.72156	0.29413	-0.52719	0.33881	30.1	13111	100
2025-3-27 14:51:17.571	WT901BLE68-01(48591DE3C19B)	-0.160	-1.436	0.055	-15.808	23.315	-42.786	-74.05	33.77	-76.38	-75.754	-30.478	3.920	-0.72156	0.29413	-0.52719	0.33881	30.1	13111	100
2025-3-27 14:51:17.571	WT901BLE68-01(48591DE3C19B)	-0.160	-1.424	0.045	-1.038	37.109	-65.369	-74.51	33.19	-76.99	-75.754	-30.478	3.920	-0.72156	0.29413	-0.52719	0.33881	30.1	13111	100
2025-3-27 14:51:17.571	WT901BLE68-01(48591DE3C19B)	-0.123	-1.424	0.045	-1.038	37.109	-65.369	-74.95	32.53	-77.70	-75.754	-30.478	3.920	-0.72156	0.29413	-0.52719	0.33881	30.1	13111	100
2025-3-27 14:51:17.600	WT901BLE68-01(48591DE3C19B)	-0.123	-1.421	0.021	-8.179	51.208	-87.646	-75.47	31.77	-78.50	-75.754	-30.478	3.920	-0.72156	0.29413	-0.52719	0.33881	30.1	13111	100
2025-3-27 14:51:17.600	WT901BLE68-01(48591DE3C19B)	-0.158	-1.421	0.021	-8.179	51.208	-87.646	-76.06	30.91	-79.40	-75.754	-30.478	3.920	-0.72156	0.29413	-0.52719	0.33881	30.1	13111	100
2025-3-27 14:51:17.600	WT901BLE68-01(48591DE3C19B)	-0.158	-1.594	0.029	-10.803	67.566	-111.877	-76.71	29.95	-80.40	-75.754	-30.478	3.920	-0.72156	0.29413	-0.52719	0.33881	30.1	13111	100
2025-3-27 14:51:17.600	WT901BLE68-01(48591DE3C19B)	-0.292	-1.594	0.029	-10.803	67.566	-111.877	-77.40	28.89	-81.49	-75.754	-30.478	3.920	-0.72156	0.29413	-0.52719	0.33881	30.1	13111	100
2025-3-27 14:51:17.660	WT901BLE68-01(48591DE3C19B)	-0.292	-1.407	0.139	12.085	70.129	-129.272	-77.96	27.74	-82.59	-75.754	-30.478	3.920	-0.72156	0.29413	-0.52719	0.33881	30.1	13111	100
2025-3-27 14:51:17.660	WT901BLE68-01(48591DE3C19B)	-0.322	-1.407	0.139	12.085	70.129	-129.272	-78.39	26.50	-83.69	-75.754	-30.478	3.920	-0.72156	0.29413	-0.52719	0.33881	30.1	13111	100
2025-3-27 14:51:17.660	WT901BLE68-01(48591DE3C19B)	-0.322	-0.983	0.280	29.724	58.533	-130.249	-78.66	25.26	-84.70	-75.754	-30.478	3.920	-0.72156	0.29413	-0.52719	0.33881	30.1	13111	100
2025-3-27 14:51:17.661	WT901BLE68-01(48591DE3C19B)	-0.273	-0.983	0.280	29.724	58.533	-130.249	-78.79	24.01	-85.63	-75.754	-30.478	3.920	-0.72156	0.29413	-0.52719	0.33881	30.1	13111	100
2025-3-27 14:51:17.689	WT901BLE68-01(48591DE3C19B)	-0.273	-0.580	0.331	37.109	49.011	-119.080	-78.82	22.81	-86.48	-78.008	-28.616	5.292	-0.72156	0.29413	-0.52719	0.33881	30.1	13111	100
2025-3-27 14:51:17.689	WT901BLE68-01(48591DE3C19B)	-0.239	-0.580	0.331	37.109	49.011	-119.080	-78.77	21.68	-87.26	-78.008	-28.616	5.292	-0.72156	0.29413	-0.52719	0.33881	30.1	13111	100
2025-3-27 14:51:17.690	WT901BLE68-01(48591DE3C19B)	-0.239	-0.343	0.309	3.845	36.316	-104.614	-78.83	20.60	-87.96	-78.008	-28.616	5.292	-0.72156	0.29413	-0.52719	0.33881	30.1	13111	100
2025-3-27 14:51:17.690	WT901BLE68-01(48591DE3C19B)	-0.180	-0.343	0.309	3.845	36.316	-104.614	-79.00	19.61	-88.57	-78.008	-28.616	5.292	-0.72156	0.29413	-0.52719	0.33881	30.1	13111	100
2025-3-27 14:51:17.811	WT901BLE68-01(48591DE3C19B)	-0.180	-0.515	0.230	-38.696	14.404	-100.403	-79.33	18.61	-89.04	-78.008	-28.616	5.292	-0.72156	0.29413	-0.52719	0.33881	30.1	13111	100
2025-3-27 14:51:17.811	WT901BLE68-01(48591DE3C19B)	-0.071	-0.515	0.230	-38.696	14.404	-100.403	-79.82	17.62	-89.40	-78.008	-28.616	5.292	-0.72156	0.29413	-0.52719	0.33881	30.1	13111	100
2025-3-27 14:51:17.811	WT901BLE68-01(48591DE3C19B)	-0.071	-0.787	0.129	-50.720	-0.549	-92.773	-80.32	16.66	-89.65	-78.008	-28.616	5.292	-0.72156	0.29413	-0.52719	0.33881	30.1	13111	100
2025-3-27 14:51:17.811	WT901BLE68-01(48591DE3C19B)	-0.008	-0.787	0.129	-50.720	-0.549	-92.773	-80.85	15.72	-89.81	-78.008	-28.616	5.292	-0.72156	0.29413	-0.52719	0.33881	30.1	13111	100
2025-3-27 14:51:17.812	WT901BLE68-01(48591DE3C19B)	-0.008	-0.965	0.054	-41.931	10.864	-89.539	-81.35	14.81	-90.02	-78.008	-28.616	5.292	-0.72156	0.29413	-0.52719	0.33881	30.1	13111	100
2025-3-27 14:51:17.812	WT901BLE68-01(48591DE3C19B)	-0.098	-0.965	0.054	-41.931	10.864	-89.539	-81.82	13.92	-90.27	-78.008	-28.616	5.292	-0.72156	0.29413	-0.52719	0.33881	30.1	13111	100
2025-3-27 14:51:17.813	WT901BLE68-01(48591DE3C19B)	-0.098	-1.156	0.011	-34.912	34.607	-95.337	-82.27	13.01	-90.76	-78.008	-28.616	5.292	-0.72156	0.29413	-0.52719	0.33881	30.1	13111	100
2025-3-27 14:51:17.813	WT901BLE68-01(48591DE3C19B)	-0.264	-1.156	0.011	-34.912	34.607	-95.337	-82.72	12.09	-91.24	-78.008	-28.616	5.292	-0.72156	0.29413	-0.52719	0.33881	30.1	13111	100
2025-3-27 14:51:17.841	WT901BLE68-01(48591DE3C19B)	-0.264	-1.345	0.014	-11.963	48.340	-104.309	-82.96	11.10	-91.85	-78.008	-28.616	5.292	-0.72156	0.29413	-0.52719	0.33881	30.1	13111	100
2025-3-27 14:51:17.841	WT901BLE68-01(48591DE3C19B)	-0.350	-1.345	0.014	-11.963	48.340	-104.309	-83.20	10.12	-92.44	-78.008	-28.616	5.292	-0.72156	0.29413	-0.52719	0.33881	30.1	13111	100
2025-3-27 14:51:17.841	WT901BLE68-01(48591DE3C19B)	-0.350	-1.315	0.085	14.160	53.284	-117.859	-83.17	9.02	-93.10	-78.008	-28.616	5.292	-0.72156	0.29413	-0.52719	0.33881	30.1	13111	100
2025-3-27 14:51:17.841	WT901BLE68-01(48591DE3C19B)	-0.338	-1.315	0.085	14.160	53.284	-117.859	-83.14	7.93	-93.75	-78.008	-28.616	5.292	-0.72156	0.29413	-0.52719	0.33881	30.1	13111	100
2025-3-27 14:51:17.870	WT901BLE68-01(48591DE3C19B)	-0.338	-1.123	0.170	25.269	68.359	-121.704	-83.00	6.83	-94.55	-78.008	-28.616	5.292	-0.72156	0.29413	-0.52719	0.33881	30.1	13111	100
2025-3-27 14:51:17.870	WT901BLE68-01(48591DE3C19B)	-0.394	-1.123	0.170	25.269	68.359	-121.704	-82.84	5.74	-95.36	-78.008	-28.616	5.292	-0.72156	0.29413	-0.52719	0.33881	30.1	13111	100
2025-3-27 14:51:17.870	WT901BLE68-01(48591DE3C19B)	-0.394	-0.989	0.227	30.579	88.135	-120.422	-82.64	4.70	-96.34	-78.008	-28.616	5.292	-0.72156	0.29413	-0.52719	0.33881	30.1	13111	100
2025-3-27 14:51:17.870	WT901BLE68-01(48591DE3C19B)	-0.461	-0.989	0.227	30.579	88.135	-120.422	-82.41	3.68	-97.34	-78.008	-28.616	5.292	-0.72156	0.29413	-0.52719	0.33881	30.1	13111	100
2025-3-27 14:51:17.931	WT901BLE68-01(48591DE3C19B)	-0.461	-0.855	0.247	30.457	88.562	-117.920	-82.17	2.70	-98.33	-78.008	-28.616	5.292	-0.72156	0.29413	-0.52719	0.33881	30.1	13111	100
2025-3-27 14:51:17.931	WT901BLE68-01(48591DE3C19B)	-0.465	-0.855	0.247	30.457	88.562	-117.920	-81.90	1.74	-99.33	-78.008	-28.616	5.292	-0.72156	0.29413	-0.52719	0.33881	30.1	13111	100
2025-3-27 14:51:17.931	WT901BLE68-01(48591DE3C19B)	-0.465	-0.757	0.264	16.785	72.937	-111.633	-81.75	0.83	-100.16	-78.008	-28.616	5.292	-0.72156	0.29413	-0.52719	0.33881	30.1	13111	100
2025-3-27 14:51:17.931	WT901BLE68-01(48591DE3C19B)	-0.445	-0.757	0.264	16.785	72.937	-111.633	-81.59	-0.05	-101.00	-78.008	-28.616	5.292	-0.47791	0.41660	-0.50314	0.58716	30.1	13111	100
2025-3-27 14:51:17.932	WT901BLE68-01(48591DE3C19B)	-0.445	-0.749	0.250	1.892	50.110	-103.821	-81.56	-0.89	-101.60	-78.008	-28.616	5.292	-0.47791	0.41660	-0.50314	0.58716	30.1	13111	100
2025-3-27 14:51:17.932	WT901BLE68-01(48591DE3C19B)	-0.464	-0.749	0.250	1.892	50.110	-103.821	-81.52	-1.71	-102.20	-78.008	-28.616	5.292	-0.47791	0.41660	-0.50314	0.58716	30.1	13111	100
2025-3-27 14:51:17.932	WT901BLE68-01(48591DE3C19B)	-0.464	-0.769	0.232	-5.737	24.597	-95.398	-81.55	-2.48	-102.54	-78.008	-28.616	5.292	-0.47791	0.41660	-0.50314	0.58716	30.1	13111	100
2025-3-27 14:51:17.932	WT901BLE68-01(48591DE3C19B)	-0.489	-0.769	0.232	-5.737	24.597	-95.398	-81.57	-3.24	-102.88	-78.008	-28.616	5.292	-0.47791	0.41660	-0.50314	0.58716	30.1	13111	100
2025-3-27 14:51:18.21	WT901BLE68-01(48591DE3C19B)	-0.244	-0.809	0.209	-14.221	0.061	-84.656	-81.69	-3.92	-102.96	-78.008	-28.616	5.292	-0.47791	0.41660	-0.50314	0.58716	30.1	13111	100
2025-3-27 14:51:18.21	WT901BLE68-01(48591DE3C19B)	-0.466	-0.404	0.104	-14.221	0.061	-84.656	-81.82	-4.59	-103.05	-78.008	-28.616	5.292	-0.47791	0.41660	-0.50314	0.58716	30.1	13111	100
2025-3-27 14:51:18.21	WT901BLE68-01(48591DE3C19B)	-0.466	-0.869	0.205	-15.686	-16.541	-70.984	-81.96	-5.14	-102.94	-78.008	-28.616	5.292	-0.47791	0.41660	-0.50314	0.58716	30.1	13111	100
2025-3-27 14:51:18.21	WT901BLE68-01(48591DE3C19B)	-0.422	-0.869	0.205	-15.686	-16.541	-70.984	-82.11	-5.69	-102.84	-78.008	-28.616	5.292	-0.47791	0.41660	-0.50314	0.58716	30.1	13111	100
2025-3-27 14:51:18.22	WT901BLE68-01(48591DE3C19B)	-0.422	-0.860	0.189	-9.216	-21.301	-56.946	-82.19	-6.10	-102.67	-78.008	-28.616	5.292	-0.47791	0.41660	-0.50314	0.58716	30.1	13111	100
2025-3-27 14:51:18.22	WT901BLE68-01(48591DE3C19B)	-0.390	-0.860	0.189	-9.216	-21.301	-56.946	-82.28	-6.51	-102.50	-78.008	-28.616	5.292	-0.47791	0.41660	-0.50314	0.58716	30.1	13111	100
2025-3-27 14:51:18.22	WT901BLE68-01(48591DE3C19B)	-0.390	-0.804	0.190	-4.089	-20.203	-43.152	-82.32	-6.78	-102.32	-78.008	-28.616	5.292	-0.47791	0.41660	-0.50314	0.58716	30.1	13111	100
2025-3-27 14:51:18.22	WT901BLE68-01(48591DE3C19B)	-0.367	-0.804	0.190	-4.089	-20.203	-43.152	-82.36	-7.05	-102.15	-78.008	-28.616	5.292	-0.47791	0.41660	-0.50314	0.58716	30.1	13111	100
2025-3-27 14:51:18.51	WT901BLE68-01(48591DE3C19B)	-0.367	-0.781	0.204	-8.301	-20.264	-30.334	-82.44	-7.19	-101.95	-78.008	-28.616	5.292	-0.47791	0.41660	-0.50314	0.58716	30.1	13111	100
2025-3-27 14:51:18.51	WT901BLE68-01(48591DE3C19B)	-0.348	-0.781	0.204	-8.301	-20.264	-30.334	-82.52	-7.32	-101.76	-78.008	-28.616	5.292	-0.47791	0.41660	-0.50314	0.58716	30.1	13111	100
2025-3-27 14:51:18.51	WT901BLE68-01(48591DE3C19B)	-0.348	-0.859	0.231	-14.343	-18.494	-18.616	-82.66	-7.34	-101.57	-78.008	-28.616	5.292	-0.47791	0.41660	-0.50314	0.58716	30.1	13111	100
2025-3-27 14:51:18.51	WT901BLE68-01(48591DE3C19B)	-0.369	-0.859	0.231	-14.343	-18.494	-18.616	-82.79	-7.36	-101.39	-78.008	-28.616	5.292	-0.47791	0.41660	-0.50314	0.58716	30.1	13111	100
2025-3-27 14:51:18.113	WT901BLE68-01(48591DE3C19B)	-0.369	-0.978	0.266	-12.817	-14.038	-7.751	-82.91	-7.27	-101.23	-78.008	-28.616	5.292	-0.47791	0.41660	-0.50314	0.58716	30.1	13111	100
2025-3-27 14:51:18.113	WT901BLE68-01(48591DE3C19B)	-0.410	-0.978	0.266	-12.817	-14.038	-7.751	-83.02	-7.18	-101.08	-67.914	-33.614	3.430	-0.47791	0.41660	-0.50314	0.58716	30.1	13111	100
2025-3-27 14:51:18.113	WT901BLE68-01(48591DE3C19B)	-0.410	-1.043	0.294	-6.958	-10.315	2.014	-83.07	-6.99	-100.95	-67.914	-33.614	3.430	-0.47791	0.41660	-0.50314	0.58716	30.1	13111	100
2025-3-27 14:51:18.113	WT901BLE68-01(48591DE3C19B)	-0.419	-1.043	0.294	-6.958	-10.315	2.014	-83.12	-6.81	-100.83	-67.914	-33.614	3.430	-0.47791	0.41660	-0.50314	0.58716	30.1	13111	100
2025-3-27 14:51:18.142	WT901BLE68-01(48591DE3C19B)	-0.419	-1.086	0.294	-4.333	-6.653	13.489	-83.13	-6.51	-100.72	-67.914	-33.614	3.430	-0.47791	0.41660	-0.50314	0.58716	30.1	13111	100
2025-3-27 14:51:18.142	WT901BLE68-01(48591DE3C19B)	-0.404	-1.086	0.294	-4.333	-6.653	13.489	-83.14	-6.21	-100.62	-67.914	-33.614	3.430	-0.47791	0.41660	-0.50314	0.58716	30.1	13111	100
2025-3-27 14:51:18.142	WT901BLE68-01(48591DE3C19B)	-0.404	-1.165	0.254	-6.592	0.488	26.428	-83.18	-5.78	-100.57	-67.914	-33.614	3.430	-0.47791	0.41660	-0.50314	0.58716	30.1	13111	100
2025-3-27 14:51:18.142	WT901BLE68-01(48591DE3C19B)	-0.412	-1.165	0.254	-6.592	0.488	26.428	-83.21	-5.36	-100.53	-67.914	-33.614	3.430	-0.47791	0.41660	-0.50314	0.58716	30.1	13111	100
2025-3-27 14:51:18.179	WT901BLE68-01(48591DE3C19B)	-0.412	-1.299	0.248	-6.714	5.493	40.833	-83.24	-4.79	-100.51	-67.914	-33.614	3.430	-0.47791	0.41660	-0.50314	0.58716	30.1	13111	100
2025-3-27 14:51:18.179	WT901BLE68-01(48591DE3C19B)	-0.427	-1.299	0.248	-6.714	5.493	40.833	-83.28	-4.22	-100.49	-67.914	-33.614	3.430	-0.47791	0.41660	-0.50314	0.58716	30.1	13111	100
2025-3-27 14:51:18.180	WT901BLE68-01(48591DE3C19B)	-0.427	-1.357	0.285	3.723	7.813	56.213	-83.21	-3.52	-100.48	-67.914	-33.614	3.430	-0.47791	0.41660	-0.50314	0.58716	30.1	13111	100
2025-3-27 14:51:18.180	WT901BLE68-01(48591DE3C19B)	-0.432	-1.357	0.285	3.723	7.813	56.213	-83.14	-2.81	-100.45	-67.914	-33.614	3.430	-0.47791	0.41660	-0.50314	0.58716	30.1	13111	100
2025-3-27 14:51:18.232	WT901BLE68-01(48591DE3C19B)	-0.432	-1.305	0.324	2.930	6.653	71.655	-83.08	-1.96	-100.40	-67.914	-33.614	3.430	-0.47791	0.41660	-0.50314	0.58716	30.1	13111	100
2025-3-27 14:51:18.232	WT901BLE68-01(48591DE3C19B)	-0.454	-1.305	0.324	2.930	6.653	71.655	-83.03	-1.12	-100.35	-67.914	-33.614	3.430	-0.47791	0.41660	-0.50314	0.58716	30.1	13111	100
2025-3-27 14:51:18.233	WT901BLE68-01(48591DE3C19B)	-0.427	-1.361	0.344	-1.038	-0.061	85.815	-83.01	-0.14	-100.22	-67.914	-33.614	3.430	-0.47791	0.41660	-0.50314	0.58716	30.1	13111	100
2025-3-27 14:51:18.233	WT901BLE68-01(48591DE3C19B)	-0.427	-1.203	0.336	18.250	-4.028	101.257	-82.89	0.89	-100.05	-67.914	-33.614	3.430	-0.47791	0.41660	-0.50314	0.58716	30.1	13111	100
2025-3-27 14:51:18.261	WT901BLE68-01(48591DE3C19B)	-0.357	-1.203	0.336	18.250	-4.028	101.257	-82.67	1.99	-99.85	-67.914	-33.614	3.430	-0.47791	0.41660	-0.50314	0.58716	30.1	13111	100
2025-3-27 14:51:18.261	WT901BLE68-01(48591DE3C19B)	-0.357	-0.888	0.292	23.499	-2.075	122.681	-82.42	3.20	-99.65	-67.914	-33.614	3.430	-0.47791	0.41660	-0.50314	0.58716	30.1	13111	100
2025-3-27 14:51:18.262	WT901BLE68-01(48591DE3C19B)	-0.335	-0.888	0.292	23.499	-2.075	122.681	-82.14	4.50	-99.44	-67.914	-33.614	3.430	-0.47791	0.41660	-0.50314	0.58716	30.1	13111	100
2025-3-27 14:51:18.262	WT901BLE68-01(48591DE3C19B)	-0.335	-0.749	0.194	9.460	-5.798	145.691	-81.92	5.91	-99.20	-67.914	-33.614	3.430	-0.51859	0.39099	-0.52594	0.54904	30.1	13111	100
2025-3-27 14:51:18.290	WT901BLE68-01(48591DE3C19B)	-0.339	-0.749	0.194	9.460	-5.798	145.691	-81.76	7.42	-98.90	-67.914	-33.614	3.430	-0.51859	0.39099	-0.52594	0.54904	30.1	13111	100
2025-3-27 14:51:18.290	WT901BLE68-01(48591DE3C19B)	-0.339	-0.822	0.102	-7.385	-21.484	162.415	-81.67	9.00	-98.52	-67.914	-33.614	3.430	-0.51859	0.39099	-0.52594	0.54904	30.1	13111	100
2025-3-27 14:51:18.290	WT901BLE68-01(48591DE3C19B)	-0.330	-0.822	0.102	-7.385	-21.484	162.415	-81.63	10.63	-98.04	-67.914	-33.614	3.430	-0.51859	0.39099	-0.52594	0.54904	30.1	13111	100
2025-3-27 14:51:18.290	WT901BLE68-01(48591DE3C19B)	-0.330	-0.996	0.023	-17.944	-45.898	171.997	-81.62	12.29	-97.43	-67.914	-33.614	3.430	-0.51859	0.39099	-0.52594	0.54904	30.1	13111	100
2025-3-27 14:51:18.351	WT901BLE68-01(48591DE3C19B)	-0.349	-0.996	0.023	-17.944	-45.898	171.997	-81.61	13.96	-96.68	-67.914	-33.614	3.430	-0.51859	0.39099	-0.52594	0.54904	30.1	13111	100
2025-3-27 14:51:18.351	WT901BLE68-01(48591DE3C19B)	-0.349	-1.212	0.002	-21.240	-71.899	173.279	-81.57	15.62	-95.79	-67.914	-33.614	3.430	-0.51859	0.39099	-0.52594	0.54904	30.1	13111	100
2025-3-27 14:51:18.351	WT901BLE68-01(48591DE3C19B)	-0.363	-1.212	0.002	-21.240	-71.899	173.279	-81.50	17.24	-94.76	-67.914	-33.614	3.430	-0.51859	0.39099	-0.52594	0.54904	30.1	13111	100
2025-3-27 14:51:18.351	WT901BLE68-01(48591DE3C19B)	-0.363	-1.523	0.015	-18.127	-94.482	168.823	-81.34	18.81	-93.60	-67.914	-33.614	3.430	-0.51859	0.39099	-0.52594	0.54904	30.1	13111	100
2025-3-27 14:51:18.442	WT901BLE68-01(48591DE3C19B)	-0.277	-1.523	0.015	-18.127	-94.482	168.823	-81.11	20.32	-92.32	-67.914	-33.614	3.430	-0.51859	0.39099	-0.52594	0.54904	30.1	13111	100
2025-3-27 14:51:18.443	WT901BLE68-01(48591DE3C19B)	-0.277	-1.706	-0.005	14.404	-97.961	163.208	-80.67	21.79	-91.01	-67.914	-33.614	3.430	-0.51859	0.39099	-0.52594	0.54904	30.1	13111	100
2025-3-27 14:51:18.443	WT901BLE68-01(48591DE3C19B)	-0.217	-1.706	-0.005	14.404	-97.961	163.208	-80.04	23.20	-89.65	-67.914	-33.614	3.430	-0.51859	0.39099	-0.52594	0.54904	30.1	13111	100
2025-3-27 14:51:18.443	WT901BLE68-01(48591DE3C19B)	-0.217	-1.443	0.017	46.509	-78.796	158.142	-79.26	24.57	-88.38	-67.914	-33.614	3.430	-0.51859	0.39099	-0.52594	0.54904	30.1	13111	100
2025-3-27 14:51:18.443	WT901BLE68-01(48591DE3C19B)	-0.222	-1.443	0.017	46.509	-78.796	158.142	-78.33	25.90	-87.19	-67.914	-33.614	3.430	-0.51859	0.39099	-0.52594	0.54904	30.1	13111	100
2025-3-27 14:51:18.443	WT901BLE68-01(48591DE3C19B)	-0.222	-1.130	0.055	48.950	-51.392	151.123	-77.42	27.20	-86.13	-67.914	-33.614	3.430	-0.51859	0.39099	-0.52594	0.54904	30.1	13111	100
2025-3-27 14:51:18.443	WT901BLE68-01(48591DE3C19B)	-0.237	-1.130	0.055	48.950	-51.392	151.123	-76.55	28.47	-85.19	-67.914	-33.614	3.430	-0.51859	0.39099	-0.52594	0.54904	30.1	13111	100
2025-3-27 14:51:18.444	WT901BLE68-01(48591DE3C19B)	-0.237	-0.981	0.086	38.757	-27.649	149.536	-75.76	29.75	-84.36	-67.914	-33.614	3.430	-0.51859	0.39099	-0.52594	0.54904	30.1	13111	100
2025-3-27 14:51:18.501	WT901BLE68-01(48591DE3C19B)	-0.240	-0.981	0.086	38.757	-27.649	149.536	-75.07	31.02	-83.64	-67.914	-33.614	3.430	-0.51859	0.39099	-0.52594	0.54904	30.1	13111	100
2025-3-27 14:51:18.501	WT901BLE68-01(48591DE3C19B)	-0.240	-0.924	0.118	26.672	-12.329	145.874	-74.46	32.28	-83.00	-67.914	-33.614	3.430	-0.51859	0.39099	-0.52594	0.54904	30.1	13111	100
2025-3-27 14:51:18.501	WT901BLE68-01(48591DE3C19B)	-0.247	-0.924	0.118	26.672	-12.329	145.874	-73.94	33.54	-82.42	-67.914	-33.614	3.430	-0.51859	0.39099	-0.52594	0.54904	30.1	13111	100
2025-3-27 14:51:18.501	WT901BLE68-01(48591DE3C19B)	-0.247	-0.894	0.119	17.578	-8.057	141.418	-73.46	34.77	-81.86	-67.914	-33.614	3.430	-0.51859	0.39099	-0.52594	0.54904	30.1	13111	100
2025-3-27 14:51:18.502	WT901BLE68-01(48591DE3C19B)	-0.264	-0.894	0.119	17.578	-8.057	141.418	-73.03	35.97	-81.32	-78.596	-26.264	6.370	-0.51859	0.39099	-0.52594	0.54904	30.1	13111	100
2025-3-27 14:51:18.502	WT901BLE68-01(48591DE3C19B)	-0.264	-0.893	0.075	6.592	-12.085	135.315	-72.63	37.14	-80.74	-78.596	-26.264	6.370	-0.51859	0.39099	-0.52594	0.54904	30.1	13111	100
2025-3-27 14:51:18.502	WT901BLE68-01(48591DE3C19B)	-0.283	-0.893	0.075	6.592	-12.085	135.315	-72.25	38.25	-80.14	-78.596	-26.264	6.370	-0.51859	0.39099	-0.52594	0.54904	30.1	13111	100
2025-3-27 14:51:18.502	WT901BLE68-01(48591DE3C19B)	-0.283	-0.882	0.023	4.272	-22.034	127.869	-71.84	39.31	-79.48	-78.596	-26.264	6.370	-0.51859	0.39099	-0.52594	0.54904	30.1	13111	100
2025-3-27 14:51:18.559	WT901BLE68-01(48591DE3C19B)	-0.251	-0.882	0.023	4.272	-22.034	127.869	-71.39	40.31	-78.76	-78.596	-26.264	6.370	-0.51859	0.39099	-0.52594	0.54904	30.1	13111	100
2025-3-27 14:51:18.560	WT901BLE68-01(48591DE3C19B)	-0.251	-0.823	-0.021	2.014	-34.180	118.835	-70.90	41.24	-77.96	-78.596	-26.264	6.370	-0.51859	0.39099	-0.52594	0.54904	30.1	13111	100
2025-3-27 14:51:18.560	WT901BLE68-01(48591DE3C19B)	-0.221	-0.823	-0.021	2.014	-34.180	118.835	-70.37	42.09	-77.09	-78.596	-26.264	6.370	-0.51859	0.39099	-0.52594	0.54904	30.1	13111	100
2025-3-27 14:51:18.560	WT901BLE68-01(48591DE3C19B)	-0.221	-0.850	-0.039	-8.301	-43.335	106.812	-69.85	42.87	-76.17	-78.596	-26.264	6.370	-0.51859	0.39099	-0.52594	0.54904	30.1	13111	100
2025-3-27 14:51:18.589	WT901BLE68-01(48591DE3C19B)	-0.182	-0.850	-0.039	-8.301	-43.335	106.812	-69.35	43.56	-75.21	-78.596	-26.264	6.370	-0.51859	0.39099	-0.52594	0.54904	30.1	13111	100
2025-3-27 14:51:18.589	WT901BLE68-01(48591DE3C19B)	-0.182	-0.931	-0.030	-8.362	-49.988	93.628	-68.82	44.17	-74.22	-78.596	-26.264	6.370	-0.51859	0.39099	-0.52594	0.54904	30.1	13111	100
2025-3-27 14:51:18.589	WT901BLE68-01(48591DE3C19B)	-0.101	-0.931	-0.030	-8.362	-49.988	93.628	-68.28	44.70	-73.21	-78.596	-26.264	6.370	-0.51859	0.39099	-0.52594	0.54904	30.1	13111	100
2025-3-27 14:51:18.589	WT901BLE68-01(48591DE3C19B)	-0.101	-0.896	0.012	0.000	-49.011	80.200	-67.71	45.15	-72.24	-78.596	-26.264	6.370	-0.51859	0.39099	-0.52594	0.54904	30.1	13111	100
2025-3-27 14:51:18.620	WT901BLE68-01(48591DE3C19B)	-0.027	-0.896	0.012	0.000	-49.011	80.200	-67.13	45.53	-71.30	-78.596	-26.264	6.370	-0.51859	0.39099	-0.52594	0.54904	30.1	13111	100
2025-3-27 14:51:18.620	WT901BLE68-01(48591DE3C19B)	-0.027	-0.813	0.058	2.502	-34.607	64.575	-66.63	45.85	-70.50	-78.596	-26.264	6.370	-0.51859	0.39099	-0.52594	0.54904	30.1	13111	100
2025-3-27 14:51:18.620	WT901BLE68-01(48591DE3C19B)	-0.018	-0.813	0.058	2.502	-34.607	64.575	-66.20	46.12	-69.83	-78.596	-26.264	6.370	-0.51859	0.39099	-0.52594	0.54904	30.1	13111	100
2025-3-27 14:51:18.621	WT901BLE68-01(48591DE3C19B)	-0.018	-0.790	0.085	-2.441	-14.160	46.631	-65.94	46.35	-69.36	-78.596	-26.264	6.370	-0.51859	0.39099	-0.52594	0.54904	30.1	13111	100
2025-3-27 14:51:18.652	WT901BLE68-01(48591DE3C19B)	-0.085	-0.790	0.085	-2.441	-14.160	46.631	-65.84	46.52	-69.07	-78.596	-26.264	6.370	-0.51859	0.39099	-0.52594	0.54904	30.1	13111	100
2025-3-27 14:51:18.653	WT901BLE68-01(48591DE3C19B)	-0.085	-0.854	0.119	-10.620	-0.122	23.438	-65.89	46.61	-68.95	-78.596	-26.264	6.370	-0.51859	0.39099	-0.52594	0.54904	30.1	13111	100
2025-3-27 14:51:18.653	WT901BLE68-01(48591DE3C19B)	-0.173	-0.854	0.119	-10.620	-0.122	23.438	-66.09	46.63	-68.99	-78.596	-26.264	6.370	-0.51859	0.39099	-0.52594	0.54904	30.1	13111	100
2025-3-27 14:51:18.653	WT901BLE68-01(48591DE3C19B)	-0.173	-0.984	0.139	-20.813	1.648	-3.052	-66.41	46.52	-69.12	-78.596	-26.264	6.370	-0.51859	0.39099	-0.52594	0.54904	30.1	13111	100
2025-3-27 14:51:18.710	WT901BLE68-01(48591DE3C19B)	-0.226	-0.984	0.139	-20.813	1.648	-3.052	-66.84	46.30	-69.33	-78.596	-26.264	6.370	-0.51859	0.39099	-0.52594	0.54904	30.1	13111	100
2025-3-27 14:51:18.710	WT901BLE68-01(48591DE3C19B)	-0.226	-1.102	0.131	-24.780	-2.075	-31.616	-67.37	45.80	-69.65	-78.596	-26.264	6.370	-0.75241	0.23447	-0.55759	0.26053	30.1	13111	100
2025-3-27 14:51:18.710	WT901BLE68-01(48591DE3C19B)	-0.236	-1.102	0.131	-24.780	-2.075	-31.616	-67.90	45.31	-69.96	-78.596	-26.264	6.370	-0.75241	0.23447	-0.55759	0.26053	30.1	13111	100
2025-3-27 14:51:18.710	WT901BLE68-01(48591DE3C19B)	-0.236	-1.225	0.084	-31.067	-3.540	-60.913	-68.57	44.54	-70.39	-78.596	-26.264	6.370	-0.75241	0.23447	-0.55759	0.26053	30.1	13111	100
2025-3-27 14:51:18.770	WT901BLE68-01(48591DE3C19B)	-0.245	-1.225	0.084	-31.067	-3.540	-60.913	-69.21	43.77	-70.80	-78.596	-26.264	6.370	-0.75241	0.23447	-0.55759	0.26053	30.1	13111	100
2025-3-27 14:51:18.770	WT901BLE68-01(48591DE3C19B)	-0.245	-1.342	0.061	-25.024	-1.160	-93.140	-69.91	42.71	-71.37	-78.596	-26.264	6.370	-0.75241	0.23447	-0.55759	0.26053	30.1	13111	100
2025-3-27 14:51:18.770	WT901BLE68-01(48591DE3C19B)	-0.259	-1.342	0.061	-25.024	-1.160	-93.140	-70.58	41.65	-71.91	-78.596	-26.264	6.370	-0.75241	0.23447	-0.55759	0.26053	30.1	13111	100
2025-3-27 14:51:18.771	WT901BLE68-01(48591DE3C19B)	-0.259	-1.261	0.091	-19.348	1.892	-124.268	-71.27	40.31	-72.60	-78.596	-26.264	6.370	-0.75241	0.23447	-0.55759	0.26053	30.1	13111	100
2025-3-27 14:51:18.771	WT901BLE68-01(48591DE3C19B)	-0.261	-1.261	0.091	-19.348	1.892	-124.268	-71.93	38.98	-73.25	-78.596	-26.264	6.370	-0.75241	0.23447	-0.55759	0.26053	30.1	13111	100
2025-3-27 14:51:18.771	WT901BLE68-01(48591DE3C19B)	-0.261	-1.324	0.090	-32.288	8.301	-151.672	-72.78	37.40	-74.03	-78.596	-26.264	6.370	-0.75241	0.23447	-0.55759	0.26053	30.1	13111	100
2025-3-27 14:51:18.772	WT901BLE68-01(48591DE3C19B)	-0.245	-1.324	0.090	-32.288	8.301	-151.672	-73.60	35.83	-74.77	-78.596	-26.264	6.370	-0.75241	0.23447	-0.55759	0.26053	30.1	13111	100
2025-3-27 14:51:18.772	WT901BLE68-01(48591DE3C19B)	-0.245	-1.401	0.096	-27.344	26.733	-176.331	-74.48	34.07	-75.76	-78.596	-26.264	6.370	-0.75241	0.23447	-0.55759	0.26053	30.1	13111	100
2025-3-27 14:51:18.830	WT901BLE68-01(48591DE3C19B)	-0.294	-1.401	0.096	-27.344	26.733	-176.331	-75.31	32.31	-76.69	-78.596	-26.264	6.370	-0.75241	0.23447	-0.55759	0.26053	30.1	13111	100
2025-3-27 14:51:18.830	WT901BLE68-01(48591DE3C19B)	-0.294	-1.214	0.150	-8.606	51.147	-184.753	-76.05	30.53	-77.87	-78.596	-26.264	6.370	-0.75241	0.23447	-0.55759	0.26053	30.1	13111	100
2025-3-27 14:51:18.830	WT901BLE68-01(48591DE3C19B)	-0.303	-1.214	0.150	-8.606	51.147	-184.753	-76.73	28.75	-79.00	-78.596	-26.264	6.370	-0.75241	0.23447	-0.55759	0.26053	30.1	13111	100
2025-3-27 14:51:18.830	WT901BLE68-01(48591DE3C19B)	-0.303	-1.000	0.206	-4.517	68.359	-184.448	-77.40	27.01	-80.27	-78.596	-26.264	6.370	-0.75241	0.23447	-0.55759	0.26053	30.1	13111	100
2025-3-27 14:51:18.921	WT901BLE68-01(48591DE3C19B)	-0.262	-1.000	0.206	-4.517	68.359	-184.448	-78.02	25.27	-81.48	-78.596	-26.264	6.370	-0.75241	0.23447	-0.55759	0.26053	30.1	13111	100
2025-3-27 14:51:18.921	WT901BLE68-01(48591DE3C19B)	-0.262	-0.895	0.208	-7.996	83.252	-178.223	-78.67	23.63	-82.80	-78.596	-26.264	6.370	-0.75241	0.23447	-0.55759	0.26053	30.1	13111	100
2025-3-27 14:51:18.922	WT901BLE68-01(48591DE3C19B)	-0.250	-0.895	0.208	-7.996	83.252	-178.223	-79.27	21.98	-84.08	-78.596	-26.264	6.370	-0.75241	0.23447	-0.55759	0.26053	30.1	13111	100
2025-3-27 14:51:18.922	WT901BLE68-01(48591DE3C19B)	-0.250	-0.906	0.162	-18.677	89.111	-170.471	-79.93	20.41	-85.36	-78.596	-26.264	6.370	-0.75241	0.23447	-0.55759	0.26053	30.1	13111	100
2025-3-27 14:51:18.922	WT901BLE68-01(48591DE3C19B)	-0.237	-0.906	0.162	-18.677	89.111	-170.471	-80.55	18.85	-86.61	-78.596	-26.264	6.370	-0.75241	0.23447	-0.55759	0.26053	30.1	13111	100
2025-3-27 14:51:18.922	WT901BLE68-01(48591DE3C19B)	-0.237	-1.068	0.089	-28.625	80.200	-162.170	-81.19	17.34	-87.71	-78.596	-26.264	6.370	-0.75241	0.23447	-0.55759	0.26053	30.1	13111	100
2025-3-27 14:51:18.923	WT901BLE68-01(48591DE3C19B)	-0.260	-1.068	0.089	-28.625	80.200	-162.170	-81.79	15.84	-88.79	-78.988	-25.578	6.076	-0.75241	0.23447	-0.55759	0.26053	30.1	13111	100
2025-3-27 14:51:18.923	WT901BLE68-01(48591DE3C19B)	-0.260	-1.191	0.057	-22.400	66.833	-157.471	-82.26	14.36	-89.69	-78.988	-25.578	6.076	-0.75241	0.23447	-0.55759	0.26053	30.1	13111	100
2025-3-27 14:51:18.980	WT901BLE68-01(48591DE3C19B)	-0.364	-1.191	0.057	-22.400	66.833	-157.471	-82.70	12.89	-90.57	-78.988	-25.578	6.076	-0.75241	0.23447	-0.55759	0.26053	30.1	13111	100
2025-3-27 14:51:18.980	WT901BLE68-01(48591DE3C19B)	-0.364	-1.243	0.083	-16.541	54.260	-155.212	-83.03	11.42	-91.29	-78.988	-25.578	6.076	-0.75241	0.23447	-0.55759	0.26053	30.1	13111	100
2025-3-27 14:51:18.981	WT901BLE68-01(48591DE3C19B)	-0.467	-1.243	0.083	-16.541	54.260	-155.212	-83.34	9.96	-92.00	-78.988	-25.578	6.076	-0.75241	0.23447	-0.55759	0.26053	30.1	13111	100
2025-3-27 14:51:18.981	WT901BLE68-01(48591DE3C19B)	-0.467	-1.245	0.134	-7.141	40.283	-154.724	-83.51	8.50	-92.56	-78.988	-25.578	6.076	-0.75241	0.23447	-0.55759	0.26053	30.1	13111	100
2025-3-27 14:51:18.982	WT901BLE68-01(48591DE3C19B)	-0.479	-1.245	0.134	-7.141	40.283	-154.724	-83.67	7.05	-93.10	-78.988	-25.578	6.076	-0.75241	0.23447	-0.55759	0.26053	30.1	13111	100
2025-3-27 14:51:18.982	WT901BLE68-01(48591DE3C19B)	-0.240	-1.151	0.182	-0.793	31.189	-150.879	-83.73	5.64	-93.55	-78.988	-25.578	6.076	-0.75241	0.23447	-0.55759	0.26053	30.1	13111	100
2025-3-27 14:51:18.982	WT901BLE68-01(48591DE3C19B)	-0.417	-0.575	0.091	-0.793	31.189	-150.879	-83.79	4.25	-93.99	-78.988	-25.578	6.076	-0.75241	0.23447	-0.55759	0.26053	30.1	13111	100
2025-3-27 14:51:18.982	WT901BLE68-01(48591DE3C19B)	-0.417	-1.027	0.192	2.747	33.691	-143.250	-83.79	2.94	-94.45	-78.988	-25.578	6.076	-0.75241	0.23447	-0.55759	0.26053	30.1	13111	100
2025-3-27 14:51:19.42	WT901BLE68-01(48591DE3C19B)	-0.375	-1.027	0.192	2.747	33.691	-143.250	-83.78	1.64	-94.91	-78.988	-25.578	6.076	-0.75241	0.23447	-0.55759	0.26053	30.1	13111	100
2025-3-27 14:51:19.43	WT901BLE68-01(48591DE3C19B)	-0.375	-0.906	0.185	3.845	39.063	-133.484	-83.75	0.46	-95.41	-78.988	-25.578	6.076	-0.75241	0.23447	-0.55759	0.26053	30.1	13111	100
2025-3-27 14:51:19.43	WT901BLE68-01(48591DE3C19B)	-0.369	-0.906	0.185	3.845	39.063	-133.484	-83.71	-0.71	-95.90	-78.988	-25.578	6.076	-0.75241	0.23447	-0.55759	0.26053	30.1	13111	100
2025-3-27 14:51:19.43	WT901BLE68-01(48591DE3C19B)	-0.369	-0.854	0.207	-2.380	44.128	-125.366	-83.72	-1.79	-96.44	-78.988	-25.578	6.076	-0.75241	0.23447	-0.55759	0.26053	30.1	13111	100
2025-3-27 14:51:19.132	WT901BLE68-01(48591DE3C19B)	-0.412	-0.854	0.207	-2.380	44.128	-125.366	-83.72	-2.86	-96.98	-78.988	-25.578	6.076	-0.75241	0.23447	-0.55759	0.26053	30.1	13111	100
2025-3-27 14:51:19.132	WT901BLE68-01(48591DE3C19B)	-0.412	-0.888	0.224	-10.559	42.847	-118.530	-83.78	-3.86	-97.49	-78.988	-25.578	6.076	-0.75241	0.23447	-0.55759	0.26053	30.1	13111	100
2025-3-27 14:51:19.132	WT901BLE68-01(48591DE3C19B)	-0.451	-0.888	0.224	-10.559	42.847	-118.530	-83.83	-4.84	-98.01	-78.988	-25.578	6.076	-0.75241	0.23447	-0.55759	0.26053	30.1	13111	100
2025-3-27 14:51:19.132	WT901BLE68-01(48591DE3C19B)	-0.451	-0.921	0.231	-8.972	36.072	-110.168	-83.86	-5.75	-98.45	-78.988	-25.578	6.076	-0.75241	0.23447	-0.55759	0.26053	30.1	13111	100
2025-3-27 14:51:19.133	WT901BLE68-01(48591DE3C19B)	-0.506	-0.921	0.231	-8.972	36.072	-110.168	-83.89	-6.64	-98.89	-78.988	-25.578	6.076	-0.45331	0.46655	-0.47894	0.58932	30.1	13111	100
2025-3-27 14:51:19.133	WT901BLE68-01(48591DE3C19B)	-0.506	-0.894	0.239	-6.714	24.963	-99.976	-83.89	-7.44	-99.21	-78.988	-25.578	6.076	-0.45331	0.46655	-0.47894	0.58932	30.1	13111	100
2025-3-27 14:51:19.133	WT901BLE68-01(48591DE3C19B)	-0.545	-0.894	0.239	-6.714	24.963	-99.976	-83.89	-8.22	-99.53	-78.988	-25.578	6.076	-0.45331	0.46655	-0.47894	0.58932	30.1	13111	100
2025-3-27 14:51:19.133	WT901BLE68-01(48591DE3C19B)	-0.545	-0.887	0.232	-6.409	6.226	-89.233	-83.91	-8.92	-99.65	-78.988	-25.578	6.076	-0.45331	0.46655	-0.47894	0.58932	30.1	13111	100
2025-3-27 14:51:19.134	WT901BLE68-01(48591DE3C19B)	-0.527	-0.887	0.232	-6.409	6.226	-89.233	-83.93	-9.60	-99.78	-78.988	-25.578	6.076	-0.45331	0.46655	-0.47894	0.58932	30.1	13111	100
2025-3-27 14:51:19.134	WT901BLE68-01(48591DE3C19B)	-0.527	-0.864	0.235	-5.981	-11.292	-76.355	-83.97	-10.16	-99.72	-78.988	-25.578	6.076	-0.45331	0.46655	-0.47894	0.58932	30.1	13111	100
2025-3-27 14:51:19.134	WT901BLE68-01(48591DE3C19B)	-0.484	-0.864	0.235	-5.981	-11.292	-76.355	-84.01	-10.72	-99.66	-78.988	-25.578	6.076	-0.45331	0.46655	-0.47894	0.58932	30.1	13111	100
2025-3-27 14:51:19.134	WT901BLE68-01(48591DE3C19B)	-0.438	-0.830	0.249	-5.432	-20.325	-61.768	-84.06	-11.14	-99.49	-78.988	-25.578	6.076	-0.45331	0.46655	-0.47894	0.58932	30.1	13111	100
2025-3-27 14:51:19.190	WT901BLE68-01(48591DE3C19B)	-0.438	-0.791	0.250	-5.005	-21.484	-44.617	-84.11	-11.47	-99.32	-78.988	-25.578	6.076	-0.45331	0.46655	-0.47894	0.58932	30.1	13111	100
2025-3-27 14:51:19.190	WT901BLE68-01(48591DE3C19B)	-0.409	-0.791	0.250	-5.005	-21.484	-44.617	-84.16	-11.72	-99.13	-78.988	-25.578	6.076	-0.45331	0.46655	-0.47894	0.58932	30.1	13111	100
2025-3-27 14:51:19.190	WT901BLE68-01(48591DE3C19B)	-0.409	-0.757	0.265	-5.737	-18.188	-27.832	-84.21	-11.87	-98.95	-78.988	-25.578	6.076	-0.45331	0.46655	-0.47894	0.58932	30.1	13111	100
2025-3-27 14:51:19.190	WT901BLE68-01(48591DE3C19B)	-0.426	-0.757	0.265	-5.737	-18.188	-27.832	-84.25	-11.94	-98.78	-78.988	-25.578	6.076	-0.45331	0.46655	-0.47894	0.58932	30.1	13111	100
2025-3-27 14:51:19.253	WT901BLE68-01(48591DE3C19B)	-0.426	-0.845	0.297	-11.780	-16.357	-12.634	-84.33	-11.93	-98.62	-78.988	-25.578	6.076	-0.45331	0.46655	-0.47894	0.58932	30.1	13111	100
2025-3-27 14:51:19.253	WT901BLE68-01(48591DE3C19B)	-0.443	-0.845	0.297	-11.780	-16.357	-12.634	-84.42	-11.85	-98.47	-78.988	-25.578	6.076	-0.45331	0.46655	-0.47894	0.58932	30.1	13111	100
2025-3-27 14:51:19.253	WT901BLE68-01(48591DE3C19B)	-0.443	-0.982	0.310	-8.484	-14.893	2.136	-84.50	-11.69	-98.32	-78.988	-25.578	6.076	-0.45331	0.46655	-0.47894	0.58932	30.1	13111	100
2025-3-27 14:51:19.253	WT901BLE68-01(48591DE3C19B)	-0.441	-0.982	0.310	-8.484	-14.893	2.136	-84.56	-11.46	-98.17	-78.988	-25.578	6.076	-0.45331	0.46655	-0.47894	0.58932	30.1	13111	100
2025-3-27 14:51:19.282	WT901BLE68-01(48591DE3C19B)	-0.441	-1.038	0.302	-0.854	-9.033	17.517	-84.57	-11.16	-98.04	-78.988	-25.578	6.076	-0.45331	0.46655	-0.47894	0.58932	30.1	13111	100
2025-3-27 14:51:19.282	WT901BLE68-01(48591DE3C19B)	-0.441	-1.038	0.302	-0.854	-9.033	17.517	-84.55	-10.78	-97.94	-78.988	-25.578	6.076	-0.45331	0.46655	-0.47894	0.58932	30.1	13111	100
2025-3-27 14:51:19.282	WT901BLE68-01(48591DE3C19B)	-0.441	-1.122	0.254	-1.221	-0.610	33.264	-84.51	-10.32	-97.87	-78.988	-25.578	6.076	-0.45331	0.46655	-0.47894	0.58932	30.1	13111	100
2025-3-27 14:51:19.282	WT901BLE68-01(48591DE3C19B)	-0.474	-1.122	0.254	-1.221	-0.610	33.264	-84.47	-9.79	-97.83	-78.988	-25.578	6.076	-0.45331	0.46655	-0.47894	0.58932	30.1	13111	100
2025-3-27 14:51:19.312	WT901BLE68-01(48591DE3C19B)	-0.474	-1.271	0.232	0.183	2.258	48.096	-84.43	-9.18	-97.80	-71.834	-31.360	3.822	-0.45331	0.46655	-0.47894	0.58932	30.1	13111	100
2025-3-27 14:51:19.312	WT901BLE68-01(48591DE3C19B)	-0.484	-1.271	0.232	0.183	2.258	48.096	-84.38	-8.51	-97.77	-71.834	-31.360	3.822	-0.45331	0.46655	-0.47894	0.58932	30.1	13111	100
2025-3-27 14:51:19.313	WT901BLE68-01(48591DE3C19B)	-0.484	-1.354	0.252	9.338	0.427	64.514	-84.30	-7.77	-97.72	-71.834	-31.360	3.822	-0.45331	0.46655	-0.47894	0.58932	30.1	13111	100
2025-3-27 14:51:19.313	WT901BLE68-01(48591DE3C19B)	-0.482	-1.354	0.252	9.338	0.427	64.514	-84.17	-6.94	-97.65	-71.834	-31.360	3.822	-0.45331	0.46655	-0.47894	0.58932	30.1	13111	100
2025-3-27 14:51:19.342	WT901BLE68-01(48591DE3C19B)	-0.482	-1.348	0.297	10.742	-2.563	80.139	-84.04	-6.05	-97.55	-71.834	-31.360	3.822	-0.45331	0.46655	-0.47894	0.58932	30.1	13111	100
2025-3-27 14:51:19.342	WT901BLE68-01(48591DE3C19B)	-0.539	-1.348	0.297	10.742	-2.563	80.139	-83.91	-5.10	-97.43	-71.834	-31.360	3.822	-0.45331	0.46655	-0.47894	0.58932	30.1	13111	100
2025-3-27 14:51:19.342	WT901BLE68-01(48591DE3C19B)	-0.539	-1.472	0.341	4.639	-13.855	95.398	-83.81	-4.08	-97.23	-71.834	-31.360	3.822	-0.45331	0.46655	-0.47894	0.58932	30.1	13111	100
2025-3-27 14:51:19.342	WT901BLE68-01(48591DE3C19B)	-0.499	-1.472	0.341	4.639	-13.855	95.398	-83.74	-3.00	-96.98	-71.834	-31.360	3.822	-0.45331	0.46655	-0.47894	0.58932	30.1	13111	100
2025-3-27 14:51:19.401	WT901BLE68-01(48591DE3C19B)	-0.499	-1.438	0.333	22.888	-23.315	110.474	-83.58	-1.86	-96.67	-71.834	-31.360	3.822	-0.45331	0.46655	-0.47894	0.58932	30.1	13111	100
2025-3-27 14:51:19.401	WT901BLE68-01(48591DE3C19B)	-0.403	-1.438	0.333	22.888	-23.315	110.474	-83.33	-0.65	-96.30	-71.834	-31.360	3.822	-0.45331	0.46655	-0.47894	0.58932	30.1	13111	100
2025-3-27 14:51:19.401	WT901BLE68-01(48591DE3C19B)	-0.403	-1.098	0.266	41.626	-22.095	131.348	-82.97	0.64	-95.92	-71.834	-31.360	3.822	-0.45331	0.46655	-0.47894	0.58932	30.1	13111	100
2025-3-27 14:51:19.401	WT901BLE68-01(48591DE3C19B)	-0.352	-1.098	0.266	41.626	-22.095	131.348	-82.51	2.03	-95.53	-71.834	-31.360	3.822	-0.45331	0.46655	-0.47894	0.58932	30.1	13111	100
2025-3-27 14:51:19.462	WT901BLE68-01(48591DE3C19B)	-0.352	-0.854	0.168	33.142	-23.438	155.640	-82.09	3.52	-95.11	-71.834	-31.360	3.822	-0.45331	0.46655	-0.47894	0.58932	30.1	13111	100
2025-3-27 14:51:19.462	WT901BLE68-01(48591DE3C19B)	-0.373	-0.854	0.168	33.142	-23.438	155.640	-81.69	5.13	-94.65	-71.834	-31.360	3.822	-0.45331	0.46655	-0.47894	0.58932	30.1	13111	100
2025-3-27 14:51:19.462	WT901BLE68-01(48591DE3C19B)	-0.373	-0.914	0.141	13.123	-36.926	175.232	-81.38	6.81	-94.10	-71.834	-31.360	3.822	-0.45331	0.46655	-0.47894	0.58932	30.1	13111	100
2025-3-27 14:51:19.462	WT901BLE68-01(48591DE3C19B)	-0.379	-0.914	0.141	13.123	-36.926	175.232	-81.15	8.56	-93.46	-71.834	-31.360	3.822	-0.45331	0.46655	-0.47894	0.58932	30.1	13111	100
2025-3-27 14:51:19.463	WT901BLE68-01(48591DE3C19B)	-0.379	-1.135	0.111	2.136	-62.256	188.538	-80.92	10.34	-92.68	-71.834	-31.360	3.822	-0.45331	0.46655	-0.47894	0.58932	30.1	13111	100
2025-3-27 14:51:19.463	WT901BLE68-01(48591DE3C19B)	-0.364	-1.135	0.111	2.136	-62.256	188.538	-80.71	12.16	-91.74	-71.834	-31.360	3.822	-0.45331	0.46655	-0.47894	0.58932	30.1	13111	100
2025-3-27 14:51:19.463	WT901BLE68-01(48591DE3C19B)	-0.364	-1.317	0.069	1.526	-87.402	197.693	-80.44	13.98	-90.66	-71.834	-31.360	3.822	-0.45331	0.46655	-0.47894	0.58932	30.1	13111	100
2025-3-27 14:51:19.463	WT901BLE68-01(48591DE3C19B)	-0.319	-1.317	0.069	1.526	-87.402	197.693	-80.10	15.81	-89.43	-71.834	-31.360	3.822	-0.45331	0.46655	-0.47894	0.58932	30.1	13111	100
2025-3-27 14:51:19.520	WT901BLE68-01(48591DE3C19B)	-0.319	-1.486	0.006	6.836	-102.295	197.388	-79.68	17.60	-88.10	-71.834	-31.360	3.822	-0.45331	0.46655	-0.47894	0.58932	30.1	13111	100
2025-3-27 14:51:19.521	WT901BLE68-01(48591DE3C19B)	-0.280	-1.486	0.006	6.836	-102.295	197.388	-79.17	19.35	-86.68	-71.834	-31.360	3.822	-0.63214	0.36523	-0.52557	0.43661	30.1	13111	100
2025-3-27 14:51:19.521	WT901BLE68-01(48591DE3C19B)	-0.280	-1.539	-0.020	25.513	-105.774	193.848	-78.52	21.05	-85.21	-71.834	-31.360	3.822	-0.63214	0.36523	-0.52557	0.43661	30.1	13111	100
2025-3-27 14:51:19.521	WT901BLE68-01(48591DE3C19B)	-0.255	-1.539	-0.020	25.513	-105.774	193.848	-77.73	22.70	-83.69	-71.834	-31.360	3.822	-0.63214	0.36523	-0.52557	0.43661	30.1	13111	100
2025-3-27 14:51:19.551	WT901BLE68-01(48591DE3C19B)	-0.255	-1.456	0.002	37.292	-100.952	185.547	-76.84	24.27	-82.17	-71.834	-31.360	3.822	-0.63214	0.36523	-0.52557	0.43661	30.1	13111	100
2025-3-27 14:51:19.551	WT901BLE68-01(48591DE3C19B)	-0.265	-1.456	0.002	37.292	-100.952	185.547	-75.87	25.78	-80.65	-71.834	-31.360	3.822	-0.63214	0.36523	-0.52557	0.43661	30.1	13111	100
2025-3-27 14:51:19.551	WT901BLE68-01(48591DE3C19B)	-0.265	-1.349	0.063	42.847	-91.003	175.049	-74.84	27.22	-79.16	-71.834	-31.360	3.822	-0.63214	0.36523	-0.52557	0.43661	30.1	13111	100
2025-3-27 14:51:19.551	WT901BLE68-01(48591DE3C19B)	-0.258	-1.349	0.063	42.847	-91.003	175.049	-73.78	28.58	-77.70	-71.834	-31.360	3.822	-0.63214	0.36523	-0.52557	0.43661	30.1	13111	100
2025-3-27 14:51:19.611	WT901BLE68-01(48591DE3C19B)	-0.258	-1.234	0.123	47.058	-74.341	167.236	-72.71	29.89	-76.30	-71.834	-31.360	3.822	-0.63214	0.36523	-0.52557	0.43661	30.1	13111	100
2025-3-27 14:51:19.611	WT901BLE68-01(48591DE3C19B)	-0.244	-1.234	0.123	47.058	-74.341	167.236	-71.61	31.17	-74.97	-71.834	-31.360	3.822	-0.63214	0.36523	-0.52557	0.43661	30.1	13111	100
2025-3-27 14:51:19.611	WT901BLE68-01(48591DE3C19B)	-0.244	-1.120	0.146	41.687	-51.636	159.302	-70.58	32.41	-73.74	-71.834	-31.360	3.822	-0.63214	0.36523	-0.52557	0.43661	30.1	13111	100
2025-3-27 14:51:19.611	WT901BLE68-01(48591DE3C19B)	-0.243	-1.120	0.146	41.687	-51.636	159.302	-69.61	33.62	-72.62	-71.834	-31.360	3.822	-0.63214	0.36523	-0.52557	0.43661	30.1	13111	100
2025-3-27 14:51:19.677	WT901BLE68-01(48591DE3C19B)	-0.243	-1.031	0.127	40.039	-29.602	153.259	-68.70	34.83	-71.60	-71.834	-31.360	3.822	-0.63214	0.36523	-0.52557	0.43661	30.1	13111	100
2025-3-27 14:51:19.677	WT901BLE68-01(48591DE3C19B)	-0.235	-1.031	0.127	40.039	-29.602	153.259	-67.83	36.02	-70.70	-71.834	-31.360	3.822	-0.63214	0.36523	-0.52557	0.43661	30.1	13111	100
2025-3-27 14:51:19.677	WT901BLE68-01(48591DE3C19B)	-0.235	-0.930	0.089	37.292	-17.029	146.423	-67.06	37.19	-69.93	-71.834	-31.360	3.822	-0.63214	0.36523	-0.52557	0.43661	30.1	13111	100
2025-3-27 14:51:19.677	WT901BLE68-01(48591DE3C19B)	-0.251	-0.930	0.089	37.292	-17.029	146.423	-66.27	38.34	-69.14	-71.834	-31.360	3.822	-0.63214	0.36523	-0.52557	0.43661	30.1	13111	100
2025-3-27 14:51:19.678	WT901BLE68-01(48591DE3C19B)	-0.251	-0.891	0.084	30.151	-14.404	138.245	-65.57	39.41	-68.40	-71.834	-31.360	3.822	-0.63214	0.36523	-0.52557	0.43661	30.1	13111	100
2025-3-27 14:51:19.678	WT901BLE68-01(48591DE3C19B)	-0.263	-0.891	0.084	30.151	-14.404	138.245	-64.84	40.46	-67.63	-71.834	-31.360	3.822	-0.63214	0.36523	-0.52557	0.43661	30.1	13111	100
2025-3-27 14:51:19.678	WT901BLE68-01(48591DE3C19B)	-0.263	-0.923	0.045	21.729	-19.287	129.639	-64.16	41.41	-66.82	-71.834	-31.360	3.822	-0.63214	0.36523	-0.52557	0.43661	30.1	13111	100
2025-3-27 14:51:19.678	WT901BLE68-01(48591DE3C19B)	-0.193	-0.923	0.045	21.729	-19.287	129.639	-63.46	42.35	-66.00	-71.834	-31.360	3.822	-0.63214	0.36523	-0.52557	0.43661	30.1	13111	100
2025-3-27 14:51:19.730	WT901BLE68-01(48591DE3C19B)	-0.193	-0.923	-0.015	23.438	-24.719	121.643	-62.71	43.18	-65.13	-71.834	-31.360	3.822	-0.63214	0.36523	-0.52557	0.43661	30.1	13111	100
2025-3-27 14:51:19.730	WT901BLE68-01(48591DE3C19B)	-0.097	-0.923	-0.015	23.438	-24.719	121.643	-61.94	43.99	-64.25	-71.834	-31.360	3.822	-0.63214	0.36523	-0.52557	0.43661	30.1	13111	100
2025-3-27 14:51:19.730	WT901BLE68-01(48591DE3C19B)	-0.097	-0.835	-0.048	26.306	-20.325	115.112	-61.19	44.75	-63.44	-83.496	-23.912	8.232	-0.63214	0.36523	-0.52557	0.43661	30.1	13111	100
2025-3-27 14:51:19.730	WT901BLE68-01(48591DE3C19B)	-0.007	-0.835	-0.048	26.306	-20.325	115.112	-60.43	45.49	-62.61	-83.496	-23.912	8.232	-0.63214	0.36523	-0.52557	0.43661	30.1	13111	100
2025-3-27 14:51:19.759	WT901BLE68-01(48591DE3C19B)	-0.007	-0.745	-0.033	24.902	-10.010	105.591	-59.81	46.20	-61.96	-83.496	-23.912	8.232	-0.63214	0.36523	-0.52557	0.43661	30.1	13111	100
2025-3-27 14:51:19.760	WT901BLE68-01(48591DE3C19B)	0.074	-0.745	-0.033	24.902	-10.010	105.591	-59.17	46.89	-61.30	-83.496	-23.912	8.232	-0.63214	0.36523	-0.52557	0.43661	30.1	13111	100
2025-3-27 14:51:19.760	WT901BLE68-01(48591DE3C19B)	0.074	-0.683	0.025	20.020	1.831	90.637	-58.77	47.49	-60.89	-83.496	-23.912	8.232	-0.63214	0.36523	-0.52557	0.43661	30.1	13111	100
2025-3-27 14:51:19.760	WT901BLE68-01(48591DE3C19B)	0.115	-0.683	0.025	20.020	1.831	90.637	-58.35	48.09	-60.47	-83.496	-23.912	8.232	-0.63214	0.36523	-0.52557	0.43661	30.1	13111	100
2025-3-27 14:51:19.789	WT901BLE68-01(48591DE3C19B)	0.115	-0.676	0.076	10.254	17.334	70.984	-58.30	48.59	-60.41	-83.496	-23.912	8.232	-0.63214	0.36523	-0.52557	0.43661	30.1	13111	100
2025-3-27 14:51:19.789	WT901BLE68-01(48591DE3C19B)	0.055	-0.676	0.076	10.254	17.334	70.984	-58.24	49.09	-60.35	-83.496	-23.912	8.232	-0.63214	0.36523	-0.52557	0.43661	30.1	13111	100
2025-3-27 14:51:19.790	WT901BLE68-01(48591DE3C19B)	0.055	-0.745	0.119	4.761	38.147	48.706	-58.58	49.49	-60.74	-83.496	-23.912	8.232	-0.63214	0.36523	-0.52557	0.43661	30.1	13111	100
2025-3-27 14:51:19.790	WT901BLE68-01(48591DE3C19B)	-0.071	-0.745	0.119	4.761	38.147	48.706	-58.93	49.88	-61.14	-83.496	-23.912	8.232	-0.63214	0.36523	-0.52557	0.43661	30.1	13111	100
2025-3-27 14:51:19.820	WT901BLE68-01(48591DE3C19B)	-0.071	-0.870	0.152	-4.639	50.720	24.963	-59.64	50.13	-61.91	-83.496	-23.912	8.232	-0.63214	0.36523	-0.52557	0.43661	30.1	13111	100
2025-3-27 14:51:19.820	WT901BLE68-01(48591DE3C19B)	-0.124	-0.870	0.152	-4.639	50.720	24.963	-60.35	50.37	-62.68	-83.496	-23.912	8.232	-0.63214	0.36523	-0.52557	0.43661	30.1	13111	100
2025-3-27 14:51:19.821	WT901BLE68-01(48591DE3C19B)	-0.124	-1.003	0.130	-8.850	56.702	-5.920	-61.35	50.36	-63.77	-83.496	-23.912	8.232	-0.63214	0.36523	-0.52557	0.43661	30.1	13111	100
2025-3-27 14:51:19.821	WT901BLE68-01(48591DE3C19B)	-0.128	-1.003	0.130	-8.850	56.702	-5.920	-62.34	50.34	-64.86	-83.496	-23.912	8.232	-0.63214	0.36523	-0.52557	0.43661	30.1	13111	100
2025-3-27 14:51:19.880	WT901BLE68-01(48591DE3C19B)	-0.128	-1.110	0.101	-11.902	62.195	-34.729	-63.56	50.08	-66.21	-83.496	-23.912	8.232	-0.63214	0.36523	-0.52557	0.43661	30.1	13111	100
2025-3-27 14:51:19.880	WT901BLE68-01(48591DE3C19B)	-0.144	-1.110	0.101	-11.902	62.195	-34.729	-64.75	49.81	-67.54	-83.496	-23.912	8.232	-0.63214	0.36523	-0.52557	0.43661	30.1	13111	100
2025-3-27 14:51:19.881	WT901BLE68-01(48591DE3C19B)	-0.144	-1.264	0.056	-14.771	63.599	-68.542	-66.13	49.21	-69.08	-83.496	-23.912	8.232	-0.63214	0.36523	-0.52557	0.43661	30.1	13111	100
2025-3-27 14:51:19.881	WT901BLE68-01(48591DE3C19B)	-0.199	-1.264	0.056	-14.771	63.599	-68.542	-67.46	48.60	-70.57	-83.496	-23.912	8.232	-0.63214	0.36523	-0.52557	0.43661	30.1	13111	100
2025-3-27 14:51:19.910	WT901BLE68-01(48591DE3C19B)	-0.199	-1.393	0.027	-7.080	54.199	-106.079	-68.71	47.59	-72.09	-83.496	-23.912	8.232	-0.74469	0.22153	-0.57315	0.26035	30.1	13111	100
2025-3-27 14:51:19.911	WT901BLE68-01(48591DE3C19B)	-0.190	-1.393	0.027	-7.080	54.199	-106.079	-69.91	46.56	-73.54	-83.496	-23.912	8.232	-0.74469	0.22153	-0.57315	0.26035	30.1	13111	100
2025-3-27 14:51:19.911	WT901BLE68-01(48591DE3C19B)	-0.190	-1.416	-0.006	-4.700	51.758	-142.151	-71.10	45.18	-75.05	-83.496	-23.912	8.232	-0.74469	0.22153	-0.57315	0.26035	30.1	13111	100
2025-3-27 14:51:19.911	WT901BLE68-01(48591DE3C19B)	-0.239	-1.416	-0.006	-4.700	51.758	-142.151	-72.21	43.78	-76.49	-83.496	-23.912	8.232	-0.74469	0.22153	-0.57315	0.26035	30.1	13111	100
2025-3-27 14:51:19.939	WT901BLE68-01(48591DE3C19B)	-0.239	-1.467	-0.021	-3.967	58.289	-175.415	-73.38	42.07	-78.06	-83.496	-23.912	8.232	-0.74469	0.22153	-0.57315	0.26035	30.1	13111	100
2025-3-27 14:51:19.939	WT901BLE68-01(48591DE3C19B)	-0.321	-1.467	-0.021	-3.967	58.289	-175.415	-74.45	40.35	-79.53	-83.496	-23.912	8.232	-0.74469	0.22153	-0.57315	0.26035	30.1	13111	100
2025-3-27 14:51:19.940	WT901BLE68-01(48591DE3C19B)	-0.321	-1.356	0.040	0.671	65.186	-201.355	-75.50	38.40	-81.09	-83.496	-23.912	8.232	-0.74469	0.22153	-0.57315	0.26035	30.1	13111	100
2025-3-27 14:51:19.940	WT901BLE68-01(48591DE3C19B)	-0.365	-1.356	0.040	0.671	65.186	-201.355	-76.44	36.44	-82.55	-83.496	-23.912	8.232	-0.74469	0.22153	-0.57315	0.26035	30.1	13111	100
2025-3-27 14:51:20.1	WT901BLE68-01(48591DE3C19B)	-0.365	-1.227	0.099	-1.709	63.232	-215.759	-77.32	34.33	-83.94	-83.496	-23.912	8.232	-0.74469	0.22153	-0.57315	0.26035	30.1	13111	100
2025-3-27 14:51:20.1	WT901BLE68-01(48591DE3C19B)	-0.380	-1.227	0.099	-1.709	63.232	-215.759	-78.11	32.22	-85.26	-83.496	-23.912	8.232	-0.74469	0.22153	-0.57315	0.26035	30.1	13111	100
2025-3-27 14:51:20.1	WT901BLE68-01(48591DE3C19B)	-0.380	-1.114	0.171	-2.930	52.673	-224.243	-78.78	30.01	-86.40	-83.496	-23.912	8.232	-0.74469	0.22153	-0.57315	0.26035	30.1	13111	100
2025-3-27 14:51:20.1	WT901BLE68-01(48591DE3C19B)	-0.387	-1.114	0.171	-2.930	52.673	-224.243	-79.38	27.81	-87.48	-83.496	-23.912	8.232	-0.74469	0.22153	-0.57315	0.26035	30.1	13111	100
2025-3-27 14:51:20.91	WT901BLE68-01(48591DE3C19B)	-0.387	-1.057	0.217	-15.503	35.095	-226.563	-79.95	25.55	-88.32	-83.496	-23.912	8.232	-0.74469	0.22153	-0.57315	0.26035	30.1	13111	100
2025-3-27 14:51:20.91	WT901BLE68-01(48591DE3C19B)	-0.357	-1.057	0.217	-15.503	35.095	-226.563	-80.47	23.32	-89.13	-83.496	-23.912	8.232	-0.74469	0.22153	-0.57315	0.26035	30.1	13111	100
2025-3-27 14:51:20.91	WT901BLE68-01(48591DE3C19B)	-0.357	-1.168	0.199	-36.865	14.160	-231.445	-81.07	21.01	-89.67	-83.496	-23.912	8.232	-0.74469	0.22153	-0.57315	0.26035	30.1	13111	100
2025-3-27 14:51:20.91	WT901BLE68-01(48591DE3C19B)	-0.310	-1.168	0.199	-36.865	14.160	-231.445	-81.63	18.70	-90.18	-83.496	-23.912	8.232	-0.74469	0.22153	-0.57315	0.26035	30.1	13111	100
2025-3-27 14:51:20.92	WT901BLE68-01(48591DE3C19B)	-0.310	-1.329	0.159	-43.396	2.380	-230.530	-82.18	16.40	-90.53	-83.496	-23.912	8.232	-0.74469	0.22153	-0.57315	0.26035	30.1	13111	100
2025-3-27 14:51:20.92	WT901BLE68-01(48591DE3C19B)	-0.337	-1.329	0.159	-43.396	2.380	-230.530	-82.72	14.12	-90.86	-83.496	-23.912	8.232	-0.74469	0.22153	-0.57315	0.26035	30.1	13111	100
2025-3-27 14:51:20.92	WT901BLE68-01(48591DE3C19B)	-0.415	-1.414	0.119	-39.124	3.296	-229.675	-83.19	11.85	-91.17	-83.496	-23.912	8.232	-0.74469	0.22153	-0.57315	0.26035	30.1	13111	100
2025-3-27 14:51:20.92	WT901BLE68-01(48591DE3C19B)	-0.415	-1.410	0.103	-30.518	3.235	-228.760	-83.59	9.60	-91.45	-83.496	-23.912	8.232	-0.74469	0.22153	-0.57315	0.26035	30.1	13111	100
2025-3-27 14:51:20.180	WT901BLE68-01(48591DE3C19B)	-0.443	-1.410	0.103	-30.518	3.235	-228.760	-83.95	7.36	-91.72	-83.496	-23.912	8.232	-0.74469	0.22153	-0.57315	0.26035	30.1	13111	100
2025-3-27 14:51:20.181	WT901BLE68-01(48591DE3C19B)	-0.443	-1.327	0.122	-24.475	-1.160	-224.487	-84.25	5.16	-91.94	-83.496	-23.912	8.232	-0.74469	0.22153	-0.57315	0.26035	30.1	13111	100
2025-3-27 14:51:20.181	WT901BLE68-01(48591DE3C19B)	-0.405	-1.327	0.122	-24.475	-1.160	-224.487	-84.51	2.99	-92.13	-83.496	-23.912	8.232	-0.74469	0.22153	-0.57315	0.26035	30.1	13111	100
2025-3-27 14:51:20.181	WT901BLE68-01(48591DE3C19B)	-0.405	-1.251	0.150	-22.583	1.099	-215.210	-84.76	0.88	-92.31	-83.496	-23.912	8.232	-0.74469	0.22153	-0.57315	0.26035	30.1	13111	100
2025-3-27 14:51:20.182	WT901BLE68-01(48591DE3C19B)	-0.361	-1.251	0.150	-22.583	1.099	-215.210	-84.98	-1.16	-92.49	-75.460	-29.694	4.312	-0.74469	0.22153	-0.57315	0.26035	30.1	13111	100
2025-3-27 14:51:20.182	WT901BLE68-01(48591DE3C19B)	-0.361	-1.178	0.161	-19.226	15.442	-202.515	-85.18	-3.12	-92.74	-75.460	-29.694	4.312	-0.74469	0.22153	-0.57315	0.26035	30.1	13111	100
2025-3-27 14:51:20.182	WT901BLE68-01(48591DE3C19B)	-0.363	-1.178	0.161	-19.226	15.442	-202.515	-85.35	-5.00	-93.04	-75.460	-29.694	4.312	-0.74469	0.22153	-0.57315	0.26035	30.1	13111	100
2025-3-27 14:51:20.182	WT901BLE68-01(48591DE3C19B)	-0.363	-1.133	0.154	-21.790	33.936	-189.270	-85.51	-6.81	-93.42	-75.460	-29.694	4.312	-0.74469	0.22153	-0.57315	0.26035	30.1	13111	100
2025-3-27 14:51:20.240	WT901BLE68-01(48591DE3C19B)	-0.396	-1.133	0.154	-21.790	33.936	-189.270	-85.65	-8.53	-93.88	-75.460	-29.694	4.312	-0.74469	0.22153	-0.57315	0.26035	30.1	13111	100
2025-3-27 14:51:20.241	WT901BLE68-01(48591DE3C19B)	-0.396	-1.153	0.155	-23.987	47.668	-175.049	-85.78	-10.16	-94.41	-75.460	-29.694	4.312	-0.74469	0.22153	-0.57315	0.26035	30.1	13111	100
2025-3-27 14:51:20.241	WT901BLE68-01(48591DE3C19B)	-0.440	-1.153	0.155	-23.987	47.668	-175.049	-85.90	-11.70	-94.99	-75.460	-29.694	4.312	-0.74469	0.22153	-0.57315	0.26035	30.1	13111	100
2025-3-27 14:51:20.241	WT901BLE68-01(48591DE3C19B)	-0.440	-1.165	0.183	-20.630	59.143	-158.386	-85.97	-13.15	-95.63	-75.460	-29.694	4.312	-0.74469	0.22153	-0.57315	0.26035	30.1	13111	100
2025-3-27 14:51:20.242	WT901BLE68-01(48591DE3C19B)	-0.481	-1.165	0.183	-20.630	59.143	-158.386	-86.00	-14.50	-96.32	-75.460	-29.694	4.312	-0.74469	0.22153	-0.57315	0.26035	30.1	13111	100
2025-3-27 14:51:20.242	WT901BLE68-01(48591DE3C19B)	-0.481	-1.133	0.208	-17.151	68.359	-138.733	-85.98	-15.74	-97.05	-75.460	-29.694	4.312	-0.74469	0.22153	-0.57315	0.26035	30.1	13111	100
2025-3-27 14:51:20.242	WT901BLE68-01(48591DE3C19B)	-0.534	-1.133	0.208	-17.151	68.359	-138.733	-85.91	-16.88	-97.82	-75.460	-29.694	4.312	-0.74469	0.22153	-0.57315	0.26035	30.1	13111	100
2025-3-27 14:51:20.242	WT901BLE68-01(48591DE3C19B)	-0.534	-1.101	0.220	-13.123	75.439	-116.943	-85.80	-17.89	-98.63	-75.460	-29.694	4.312	-0.74469	0.22153	-0.57315	0.26035	30.1	13111	100
2025-3-27 14:51:20.301	WT901BLE68-01(48591DE3C19B)	-0.590	-1.101	0.220	-13.123	75.439	-116.943	-85.64	-18.77	-99.48	-75.460	-29.694	4.312	-0.74469	0.22153	-0.57315	0.26035	30.1	13111	100
2025-3-27 14:51:20.301	WT901BLE68-01(48591DE3C19B)	-0.590	-1.054	0.240	-8.362	74.768	-95.337	-85.46	-19.54	-100.31	-75.460	-29.694	4.312	-0.74469	0.22153	-0.57315	0.26035	30.1	13111	100
2025-3-27 14:51:20.301	WT901BLE68-01(48591DE3C19B)	-0.585	-1.054	0.240	-8.362	74.768	-95.337	-85.24	-20.19	-101.13	-75.460	-29.694	4.312	-0.74469	0.22153	-0.57315	0.26035	30.1	13111	100
2025-3-27 14:51:20.301	WT901BLE68-01(48591DE3C19B)	-0.585	-0.967	0.251	-4.578	70.374	-72.571	-85.00	-20.71	-101.94	-75.460	-29.694	4.312	-0.74469	0.22153	-0.57315	0.26035	30.1	13111	100
2025-3-27 14:51:20.360	WT901BLE68-01(48591DE3C19B)	-0.554	-0.967	0.251	-4.578	70.374	-72.571	-84.74	-21.12	-102.71	-75.460	-29.694	4.312	-0.74469	0.22153	-0.57315	0.26035	30.1	13111	100
2025-3-27 14:51:20.361	WT901BLE68-01(48591DE3C19B)	-0.554	-0.859	0.272	-0.244	66.162	-49.377	-84.47	-21.40	-103.44	-75.460	-29.694	4.312	-0.74469	0.22153	-0.57315	0.26035	30.1	13111	100
2025-3-27 14:51:20.361	WT901BLE68-01(48591DE3C19B)	-0.542	-0.859	0.272	-0.244	66.162	-49.377	-84.19	-21.56	-104.15	-75.460	-29.694	4.312	-0.74469	0.22153	-0.57315	0.26035	30.1	13111	100
2025-3-27 14:51:20.361	WT901BLE68-01(48591DE3C19B)	-0.542	-0.746	0.259	-1.648	57.495	-28.625	-83.93	-21.61	-104.80	-75.460	-29.694	4.312	-0.74469	0.22153	-0.57315	0.26035	30.1	13111	100
2025-3-27 14:51:20.390	WT901BLE68-01(48591DE3C19B)	-0.551	-0.746	0.259	-1.648	57.495	-28.625	-83.70	-21.56	-105.40	-75.460	-29.694	4.312	-0.74469	0.22153	-0.57315	0.26035	30.1	13111	100
2025-3-27 14:51:20.390	WT901BLE68-01(48591DE3C19B)	-0.551	-0.708	0.266	-8.850	43.518	-9.949	-83.53	-21.41	-105.92	-75.460	-29.694	4.312	-0.74469	0.22153	-0.57315	0.26035	30.1	13111	100
2025-3-27 14:51:20.390	WT901BLE68-01(48591DE3C19B)	-0.591	-0.708	0.266	-8.850	43.518	-9.949	-83.43	-21.18	-106.35	-75.460	-29.694	4.312	-0.74469	0.22153	-0.57315	0.26035	30.1	13111	100
2025-3-27 14:51:20.390	WT901BLE68-01(48591DE3C19B)	-0.591	-0.798	0.288	-15.625	22.522	4.517	-83.40	-20.89	-106.66	-75.460	-29.694	4.312	-0.74469	0.22153	-0.57315	0.26035	30.1	13111	100
2025-3-27 14:51:20.451	WT901BLE68-01(48591DE3C19B)	-0.625	-0.798	0.288	-15.625	22.522	4.517	-83.45	-20.52	-106.85	-75.460	-29.694	4.312	-0.74469	0.22153	-0.57315	0.26035	30.1	13111	100
2025-3-27 14:51:20.451	WT901BLE68-01(48591DE3C19B)	-0.625	-0.896	0.318	-12.756	-3.723	15.625	-83.53	-20.13	-106.91	-75.460	-29.694	4.312	-0.74469	0.22153	-0.57315	0.26035	30.1	13111	100
2025-3-27 14:51:20.451	WT901BLE68-01(48591DE3C19B)	-0.587	-0.896	0.318	-12.756	-3.723	15.625	-83.65	-19.68	-106.82	-75.460	-29.694	4.312	-0.74469	0.22153	-0.57315	0.26035	30.1	13111	100
2025-3-27 14:51:20.452	WT901BLE68-01(48591DE3C19B)	-0.587	-0.954	0.334	-10.437	-19.287	27.466	-83.78	-19.19	-106.65	-75.460	-29.694	4.312	-0.34906	0.49274	-0.45386	0.65518	30.1	13111	100
2025-3-27 14:51:20.480	WT901BLE68-01(48591DE3C19B)	-0.560	-0.954	0.334	-10.437	-19.287	27.466	-83.91	-18.65	-106.40	-75.460	-29.694	4.312	-0.34906	0.49274	-0.45386	0.65518	30.1	13111	100
2025-3-27 14:51:20.481	WT901BLE68-01(48591DE3C19B)	-0.560	-1.055	0.311	-7.385	-20.630	42.053	-84.03	-18.05	-106.13	-75.460	-29.694	4.312	-0.34906	0.49274	-0.45386	0.65518	30.1	13111	100
2025-3-27 14:51:20.481	WT901BLE68-01(48591DE3C19B)	-0.528	-1.055	0.311	-7.385	-20.630	42.053	-84.14	-17.37	-105.86	-75.460	-29.694	4.312	-0.34906	0.49274	-0.45386	0.65518	30.1	13111	100
2025-3-27 14:51:20.481	WT901BLE68-01(48591DE3C19B)	-0.528	-1.130	0.294	3.967	-18.005	59.753	-84.18	-16.62	-105.59	-75.460	-29.694	4.312	-0.34906	0.49274	-0.45386	0.65518	30.1	13111	100
2025-3-27 14:51:20.482	WT901BLE68-01(48591DE3C19B)	-0.457	-1.130	0.294	3.967	-18.005	59.753	-84.17	-15.78	-105.33	-75.460	-29.694	4.312	-0.34906	0.49274	-0.45386	0.65518	30.1	13111	100
2025-3-27 14:51:20.482	WT901BLE68-01(48591DE3C19B)	-0.457	-1.100	0.296	13.184	-12.390	82.031	-84.09	-14.83	-105.08	-75.460	-29.694	4.312	-0.34906	0.49274	-0.45386	0.65518	30.1	13111	100
2025-3-27 14:51:20.482	WT901BLE68-01(48591DE3C19B)	-0.490	-1.100	0.296	13.184	-12.390	82.031	-83.97	-13.78	-104.85	-75.460	-29.694	4.312	-0.34906	0.49274	-0.45386	0.65518	30.1	13111	100
2025-3-27 14:51:20.482	WT901BLE68-01(48591DE3C19B)	-0.490	-1.218	0.372	8.911	-14.038	105.896	-83.86	-12.63	-104.60	-75.460	-29.694	4.312	-0.34906	0.49274	-0.45386	0.65518	30.1	13111	100
2025-3-27 14:51:20.512	WT901BLE68-01(48591DE3C19B)	-0.507	-1.218	0.372	8.911	-14.038	105.896	-83.78	-11.37	-104.32	-65.660	-32.536	2.254	-0.34906	0.49274	-0.45386	0.65518	30.1	13111	100
2025-3-27 14:51:20.513	WT901BLE68-01(48591DE3C19B)	-0.507	-1.389	0.414	14.954	-24.353	126.099	-83.68	-10.02	-103.98	-65.660	-32.536	2.254	-0.34906	0.49274	-0.45386	0.65518	30.1	13111	100
2025-3-27 14:51:20.513	WT901BLE68-01(48591DE3C19B)	-0.417	-1.389	0.414	14.954	-24.353	126.099	-83.54	-8.59	-103.58	-65.660	-32.536	2.254	-0.34906	0.49274	-0.45386	0.65518	30.1	13111	100
2025-3-27 14:51:20.513	WT901BLE68-01(48591DE3C19B)	-0.417	-1.369	0.374	31.311	-21.667	150.696	-83.31	-7.05	-103.17	-65.660	-32.536	2.254	-0.34906	0.49274	-0.45386	0.65518	30.1	13111	100
2025-3-27 14:51:20.578	WT901BLE68-01(48591DE3C19B)	-0.387	-1.369	0.374	31.311	-21.667	150.696	-83.00	-5.41	-102.76	-65.660	-32.536	2.254	-0.34906	0.49274	-0.45386	0.65518	30.1	13111	100
2025-3-27 14:51:20.578	WT901BLE68-01(48591DE3C19B)	-0.387	-1.322	0.289	35.889	-10.681	180.481	-82.62	-3.47	-102.41	-65.660	-32.536	2.254	-0.34906	0.49274	-0.45386	0.65518	30.1	13111	100
2025-3-27 14:51:20.578	WT901BLE68-01(48591DE3C19B)	-0.405	-1.322	0.289	35.889	-10.681	180.481	-82.24	-1.55	-102.05	-65.660	-32.536	2.254	-0.34906	0.49274	-0.45386	0.65518	30.1	13111	100
2025-3-27 14:51:20.578	WT901BLE68-01(48591DE3C19B)	-0.405	-1.422	0.198	29.724	-12.939	206.055	-81.91	0.59	-101.61	-65.660	-32.536	2.254	-0.34906	0.49274	-0.45386	0.65518	30.1	13111	100
2025-3-27 14:51:20.631	WT901BLE68-01(48591DE3C19B)	-0.415	-1.422	0.198	29.724	-12.939	206.055	-81.57	2.72	-101.17	-65.660	-32.536	2.254	-0.34906	0.49274	-0.45386	0.65518	30.1	13111	100
2025-3-27 14:51:20.631	WT901BLE68-01(48591DE3C19B)	-0.415	-1.568	0.129	24.292	-28.259	227.722	-81.27	5.03	-100.52	-65.660	-32.536	2.254	-0.34906	0.49274	-0.45386	0.65518	30.1	13111	100
2025-3-27 14:51:20.631	WT901BLE68-01(48591DE3C19B)	-0.451	-1.568	0.129	24.292	-28.259	227.722	-80.94	7.31	-99.85	-65.660	-32.536	2.254	-0.34906	0.49274	-0.45386	0.65518	30.1	13111	100
2025-3-27 14:51:20.631	WT901BLE68-01(48591DE3C19B)	-0.451	-1.760	0.081	13.855	-58.472	241.272	-80.66	9.66	-98.85	-65.660	-32.536	2.254	-0.34906	0.49274	-0.45386	0.65518	30.1	13111	100
2025-3-27 14:51:20.632	WT901BLE68-01(48591DE3C19B)	-0.391	-1.760	0.081	13.855	-58.472	241.272	-80.33	11.98	-97.83	-65.660	-32.536	2.254	-0.34906	0.49274	-0.45386	0.65518	30.1	13111	100
2025-3-27 14:51:20.632	WT901BLE68-01(48591DE3C19B)	-0.391	-1.994	0.085	20.508	-85.693	250.671	-79.84	14.33	-96.50	-65.660	-32.536	2.254	-0.34906	0.49274	-0.45386	0.65518	30.1	13111	100
2025-3-27 14:51:20.632	WT901BLE68-01(48591DE3C19B)	-0.286	-1.994	0.085	20.508	-85.693	250.671	-79.29	16.64	-95.13	-65.660	-32.536	2.254	-0.34906	0.49274	-0.45386	0.65518	30.1	13111	100
2025-3-27 14:51:20.632	WT901BLE68-01(48591DE3C19B)	-0.286	-2.019	0.107	47.668	-90.027	258.362	-78.39	18.98	-93.66	-65.660	-32.536	2.254	-0.34906	0.49274	-0.45386	0.65518	30.1	13111	100
2025-3-27 14:51:20.692	WT901BLE68-01(48591DE3C19B)	-0.202	-2.019	0.107	47.668	-90.027	258.362	-77.42	21.29	-92.14	-65.660	-32.536	2.254	-0.34906	0.49274	-0.45386	0.65518	30.1	13111	100
2025-3-27 14:51:20.692	WT901BLE68-01(48591DE3C19B)	-0.202	-1.665	0.139	70.801	-72.754	265.381	-76.21	23.65	-90.72	-65.660	-32.536	2.254	-0.34906	0.49274	-0.45386	0.65518	30.1	13111	100
2025-3-27 14:51:20.692	WT901BLE68-01(48591DE3C19B)	-0.191	-1.665	0.139	70.801	-72.754	265.381	-74.93	25.97	-89.23	-65.660	-32.536	2.254	-0.34906	0.49274	-0.45386	0.65518	30.1	13111	100
2025-3-27 14:51:20.692	WT901BLE68-01(48591DE3C19B)	-0.191	-1.357	0.130	64.331	-46.875	270.996	-73.74	28.36	-87.92	-65.660	-32.536	2.254	-0.34906	0.49274	-0.45386	0.65518	30.1	13111	100
2025-3-27 14:51:20.719	WT901BLE68-01(48591DE3C19B)	-0.229	-1.357	0.130	64.331	-46.875	270.996	-72.47	30.71	-86.53	-65.660	-32.536	2.254	-0.67947	0.26163	-0.54758	0.41223	30.1	13111	100
2025-3-27 14:51:20.719	WT901BLE68-01(48591DE3C19B)	-0.229	-1.243	0.125	50.903	-27.222	270.020	-71.36	33.07	-85.29	-65.660	-32.536	2.254	-0.67947	0.26163	-0.54758	0.41223	30.1	13111	100
2025-3-27 14:51:20.720	WT901BLE68-01(48591DE3C19B)	-0.242	-1.243	0.125	50.903	-27.222	270.020	-70.17	35.40	-83.96	-65.660	-32.536	2.254	-0.67947	0.26163	-0.54758	0.41223	30.1	13111	100
2025-3-27 14:51:20.720	WT901BLE68-01(48591DE3C19B)	-0.242	-1.247	0.111	33.630	-17.883	263.245	-69.14	37.67	-82.68	-65.660	-32.536	2.254	-0.67947	0.26163	-0.54758	0.41223	30.1	13111	100
2025-3-27 14:51:20.750	WT901BLE68-01(48591DE3C19B)	-0.224	-1.247	0.111	33.630	-17.883	263.245	-68.02	39.90	-81.32	-65.660	-32.536	2.254	-0.67947	0.26163	-0.54758	0.41223	30.1	13111	100
2025-3-27 14:51:20.750	WT901BLE68-01(48591DE3C19B)	-0.224	-1.250	0.066	30.640	-10.071	251.221	-66.93	42.01	-80.02	-65.660	-32.536	2.254	-0.67947	0.26163	-0.54758	0.41223	30.1	13111	100
2025-3-27 14:51:20.750	WT901BLE68-01(48591DE3C19B)	-0.218	-1.250	0.066	30.640	-10.071	251.221	-65.76	44.09	-78.63	-65.660	-32.536	2.254	-0.67947	0.26163	-0.54758	0.41223	30.1	13111	100
2025-3-27 14:51:20.750	WT901BLE68-01(48591DE3C19B)	-0.218	-1.114	0.026	32.532	-6.714	236.084	-64.55	46.02	-77.28	-65.660	-32.536	2.254	-0.67947	0.26163	-0.54758	0.41223	30.1	13111	100
2025-3-27 14:51:20.810	WT901BLE68-01(48591DE3C19B)	-0.224	-1.114	0.026	32.532	-6.714	236.084	-63.24	47.92	-75.82	-65.660	-32.536	2.254	-0.67947	0.26163	-0.54758	0.41223	30.1	13111	100
2025-3-27 14:51:20.810	WT901BLE68-01(48591DE3C19B)	-0.224	-0.977	0.012	29.663	-6.287	216.980	-61.96	49.61	-74.40	-65.660	-32.536	2.254	-0.67947	0.26163	-0.54758	0.41223	30.1	13111	100
2025-3-27 14:51:20.810	WT901BLE68-01(48591DE3C19B)	-0.234	-0.977	0.012	29.663	-6.287	216.980	-60.58	51.28	-72.88	-65.660	-32.536	2.254	-0.67947	0.26163	-0.54758	0.41223	30.1	13111	100
2025-3-27 14:51:20.810	WT901BLE68-01(48591DE3C19B)	-0.234	-0.902	-0.001	21.179	-9.399	196.411	-59.28	52.72	-71.37	-65.660	-32.536	2.254	-0.67947	0.26163	-0.54758	0.41223	30.1	13111	100
2025-3-27 14:51:20.839	WT901BLE68-01(48591DE3C19B)	-0.214	-0.902	-0.001	21.179	-9.399	196.411	-57.87	54.13	-69.76	-65.660	-32.536	2.254	-0.67947	0.26163	-0.54758	0.41223	30.1	13111	100
2025-3-27 14:51:20.840	WT901BLE68-01(48591DE3C19B)	-0.214	-0.851	0.008	16.418	-15.076	174.561	-56.51	55.31	-68.19	-65.660	-32.536	2.254	-0.67947	0.26163	-0.54758	0.41223	30.1	13111	100
2025-3-27 14:51:20.840	WT901BLE68-01(48591DE3C19B)	-0.163	-0.851	0.008	16.418	-15.076	174.561	-55.06	56.45	-66.52	-65.660	-32.536	2.254	-0.67947	0.26163	-0.54758	0.41223	30.1	13111	100
2025-3-27 14:51:20.840	WT901BLE68-01(48591DE3C19B)	-0.163	-0.815	0.019	11.047	-22.644	152.466	-53.68	57.34	-64.89	-65.660	-32.536	2.254	-0.67947	0.26163	-0.54758	0.41223	30.1	13111	100
2025-3-27 14:51:20.877	WT901BLE68-01(48591DE3C19B)	-0.061	-0.815	0.019	11.047	-22.644	152.466	-52.24	58.20	-63.18	-65.660	-32.536	2.254	-0.67947	0.26163	-0.54758	0.41223	30.1	13111	100
2025-3-27 14:51:20.877	WT901BLE68-01(48591DE3C19B)	-0.061	-0.773	0.015	12.573	-21.057	129.761	-50.96	58.88	-61.71	-65.660	-32.536	2.254	-0.67947	0.26163	-0.54758	0.41223	30.1	13111	100
2025-3-27 14:51:20.877	WT901BLE68-01(48591DE3C19B)	0.037	-0.773	0.015	12.573	-21.057	129.761	-49.64	59.52	-60.19	-65.660	-32.536	2.254	-0.67947	0.26163	-0.54758	0.41223	30.1	13111	100
2025-3-27 14:51:20.877	WT901BLE68-01(48591DE3C19B)	0.037	-0.671	0.011	16.418	-9.155	106.873	-48.64	60.05	-59.11	-65.660	-32.536	2.254	-0.67947	0.26163	-0.54758	0.41223	30.1	13111	100
2025-3-27 14:51:20.931	WT901BLE68-01(48591DE3C19B)	0.089	-0.671	0.011	16.418	-9.155	106.873	-47.63	60.57	-58.01	-65.660	-32.536	2.254	-0.67947	0.26163	-0.54758	0.41223	30.1	13111	100
2025-3-27 14:51:20.932	WT901BLE68-01(48591DE3C19B)	0.089	-0.555	0.027	15.198	10.925	84.229	-47.14	61.03	-57.50	-65.660	-32.536	2.254	-0.67947	0.26163	-0.54758	0.41223	30.1	13111	100
2025-3-27 14:51:20.932	WT901BLE68-01(48591DE3C19B)	0.046	-0.555	0.027	15.198	10.925	84.229	-46.64	61.50	-56.99	-65.660	-32.536	2.254	-0.67947	0.26163	-0.54758	0.41223	30.1	13111	100
2025-3-27 14:51:20.932	WT901BLE68-01(48591DE3C19B)	0.046	-0.540	0.046	-1.221	28.687	58.777	-46.87	61.89	-57.11	-65.660	-32.536	2.254	-0.67947	0.26163	-0.54758	0.41223	30.1	13111	100
2025-3-27 14:51:20.992	WT901BLE68-01(48591DE3C19B)	-0.037	-0.540	0.046	-1.221	28.687	58.777	-47.10	62.28	-57.25	-65.660	-32.536	2.254	-0.67947	0.26163	-0.54758	0.41223	30.1	13111	100
2025-3-27 14:51:20.992	WT901BLE68-01(48591DE3C19B)	-0.037	-0.696	0.074	-15.015	33.142	27.100	-47.95	62.45	-57.93	-65.660	-32.536	2.254	-0.67947	0.26163	-0.54758	0.41223	30.1	13111	100
2025-3-27 14:51:20.992	WT901BLE68-01(48591DE3C19B)	-0.099	-0.696	0.074	-15.015	33.142	27.100	-48.80	62.63	-58.61	-65.660	-32.536	2.254	-0.67947	0.26163	-0.54758	0.41223	30.1	13111	100
2025-3-27 14:51:20.992	WT901BLE68-01(48591DE3C19B)	-0.099	-0.828	0.099	-17.639	28.259	-7.568	-50.04	62.50	-59.71	-65.660	-32.536	2.254	-0.67947	0.26163	-0.54758	0.41223	30.1	13111	100
2025-3-27 14:51:20.993	WT901BLE68-01(48591DE3C19B)	-0.132	-0.828	0.099	-17.639	28.259	-7.568	-51.26	62.36	-60.78	-65.660	-32.536	2.254	-0.67947	0.26163	-0.54758	0.41223	30.1	13111	100
2025-3-27 14:51:20.993	WT901BLE68-01(48591DE3C19B)	-0.148	-0.886	0.109	-16.418	19.958	-43.640	-52.73	61.88	-62.18	-65.660	-32.536	2.254	-0.67947	0.26163	-0.54758	0.41223	30.1	13111	100
2025-3-27 14:51:20.993	WT901BLE68-01(48591DE3C19B)	-0.148	-0.957	0.100	-22.217	16.052	-83.130	-54.36	61.21	-63.72	-65.660	-32.536	2.254	-0.67947	0.26163	-0.54758	0.41223	30.1	13111	100
2025-3-27 14:51:20.993	WT901BLE68-01(48591DE3C19B)	-0.208	-0.957	0.100	-22.217	16.052	-83.130	-56.10	60.36	-65.37	-65.660	-32.536	2.254	-0.67947	0.26163	-0.54758	0.41223	30.1	13111	100
2025-3-27 14:51:21.49	WT901BLE68-01(48591DE3C19B)	-0.208	-1.121	0.089	-26.367	14.282	-125.244	-57.93	59.30	-67.13	-65.660	-32.536	2.254	-0.67947	0.26163	-0.54758	0.41223	30.1	13111	100
2025-3-27 14:51:21.49	WT901BLE68-01(48591DE3C19B)	-0.274	-1.121	0.089	-26.367	14.282	-125.244	-59.82	58.05	-68.94	-65.660	-32.536	2.254	-0.67947	0.26163	-0.54758	0.41223	30.1	13111	100
2025-3-27 14:51:21.50	WT901BLE68-01(48591DE3C19B)	-0.274	-1.266	0.063	-29.846	6.836	-171.204	-61.68	56.55	-70.75	-65.660	-32.536	2.254	-0.67947	0.26163	-0.54758	0.41223	30.1	13111	100
2025-3-27 14:51:21.50	WT901BLE68-01(48591DE3C19B)	-0.259	-1.266	0.063	-29.846	6.836	-171.204	-63.50	54.82	-72.52	-65.660	-32.536	2.254	-0.67947	0.26163	-0.54758	0.41223	30.1	13111	100
2025-3-27 14:51:21.81	WT901BLE68-01(48591DE3C19B)	-0.259	-1.496	0.010	-39.001	3.540	-220.581	-65.31	52.83	-74.25	-65.660	-32.536	2.254	-0.67947	0.26163	-0.54758	0.41223	30.1	13111	100
2025-3-27 14:51:21.81	WT901BLE68-01(48591DE3C19B)	-0.301	-1.496	0.010	-39.001	3.540	-220.581	-67.09	50.60	-75.93	-65.660	-32.536	2.254	-0.67947	0.26163	-0.54758	0.41223	30.1	13111	100
2025-3-27 14:51:21.81	WT901BLE68-01(48591DE3C19B)	-0.301	-1.549	0.054	-21.973	9.583	-263.977	-68.72	48.16	-77.59	-65.660	-32.536	2.254	-0.67947	0.26163	-0.54758	0.41223	30.1	13111	100
2025-3-27 14:51:21.81	WT901BLE68-01(48591DE3C19B)	-0.390	-1.549	0.054	-21.973	9.583	-263.977	-70.19	45.52	-79.21	-65.660	-32.536	2.254	-0.67947	0.26163	-0.54758	0.41223	30.1	13111	100
2025-3-27 14:51:21.111	WT901BLE68-01(48591DE3C19B)	-0.390	-1.375	0.177	-26.245	10.132	-289.368	-71.54	42.74	-80.71	-65.660	-32.536	2.254	-0.67947	0.26163	-0.54758	0.41223	30.1	13111	100
2025-3-27 14:51:21.111	WT901BLE68-01(48591DE3C19B)	-0.389	-1.375	0.177	-26.245	10.132	-289.368	-72.78	39.85	-82.11	-65.660	-32.536	2.254	-0.67947	0.26163	-0.54758	0.41223	30.1	13111	100
2025-3-27 14:51:21.111	WT901BLE68-01(48591DE3C19B)	-0.389	-1.367	0.279	-36.560	5.493	-303.711	-73.93	36.88	-83.36	-65.660	-32.536	2.254	-0.67947	0.26163	-0.54758	0.41223	30.1	13111	100
2025-3-27 14:51:21.111	WT901BLE68-01(48591DE3C19B)	-0.324	-1.367	0.279	-36.560	5.493	-303.711	-74.99	33.83	-84.49	-65.660	-32.536	2.254	-0.67947	0.26163	-0.54758	0.41223	30.1	13111	100
2025-3-27 14:51:21.169	WT901BLE68-01(48591DE3C19B)	-0.324	-1.341	0.322	-38.513	11.475	-307.617	-75.97	30.78	-85.55	-65.660	-32.536	2.254	-0.67947	0.26163	-0.54758	0.41223	30.1	13111	100
2025-3-27 14:51:21.170	WT901BLE68-01(48591DE3C19B)	-0.255	-1.341	0.322	-38.513	11.475	-307.617	-76.87	27.72	-86.54	-65.660	-32.536	2.254	-0.67947	0.26163	-0.54758	0.41223	30.3	13111	100
2025-3-27 14:51:21.170	WT901BLE68-01(48591DE3C19B)	-0.255	-1.371	0.295	-48.828	18.616	-303.894	-77.74	24.69	-87.49	-65.660	-32.536	2.254	-0.67947	0.26163	-0.54758	0.41223	30.3	13111	100
2025-3-27 14:51:21.170	WT901BLE68-01(48591DE3C19B)	-0.211	-1.371	0.295	-48.828	18.616	-303.894	-78.61	21.70	-88.40	-65.660	-32.536	2.254	-0.67947	0.26163	-0.54758	0.41223	30.3	13111	100
2025-3-27 14:51:21.260	WT901BLE68-01(48591DE3C19B)	-0.211	-1.528	0.216	-58.777	19.409	-297.791	-79.44	18.73	-89.23	-65.660	-32.536	2.254	-0.67947	0.26163	-0.54758	0.41223	30.3	13111	100
2025-3-27 14:51:21.260	WT901BLE68-01(48591DE3C19B)	-0.167	-1.528	0.216	-58.777	19.409	-297.791	-80.27	15.80	-90.00	-65.660	-32.536	2.254	-0.67947	0.26163	-0.54758	0.41223	30.3	13111	100
2025-3-27 14:51:21.260	WT901BLE68-01(48591DE3C19B)	-0.167	-1.692	0.138	-54.749	37.781	-292.542	-81.04	12.92	-90.80	-65.660	-32.536	2.254	-0.67947	0.26163	-0.54758	0.41223	30.3	13111	100
2025-3-27 14:51:21.260	WT901BLE68-01(48591DE3C19B)	-0.281	-1.692	0.138	-54.749	37.781	-292.542	-81.75	10.08	-91.64	-65.660	-32.536	2.254	-0.67947	0.26163	-0.54758	0.41223	30.3	13111	100
2025-3-27 14:51:21.261	WT901BLE68-01(48591DE3C19B)	-0.281	-1.798	0.109	-39.063	68.420	-284.851	-82.36	7.31	-92.58	-65.660	-32.536	2.254	-0.67947	0.26163	-0.54758	0.41223	30.3	13111	100
2025-3-27 14:51:21.261	WT901BLE68-01(48591DE3C19B)	-0.438	-1.798	0.109	-39.063	68.420	-284.851	-82.86	4.59	-93.62	-65.660	-32.536	2.254	-0.67947	0.26163	-0.54758	0.41223	30.3	13111	100
2025-3-27 14:51:21.261	WT901BLE68-01(48591DE3C19B)	-0.438	-1.780	0.151	-20.020	88.379	-275.940	-83.23	1.95	-94.73	-65.660	-32.536	2.254	-0.67947	0.26163	-0.54758	0.41223	30.3	13111	100
2025-3-27 14:51:21.261	WT901BLE68-01(48591DE3C19B)	-0.533	-1.780	0.151	-20.020	88.379	-275.940	-83.45	-0.62	-95.91	-65.660	-32.536	2.254	-0.67947	0.26163	-0.54758	0.41223	30.3	13111	100
2025-3-27 14:51:21.289	WT901BLE68-01(48591DE3C19B)	-0.533	-1.691	0.207	-5.310	99.915	-258.606	-83.53	-3.09	-97.12	-65.660	-32.536	2.254	-0.67947	0.26163	-0.54758	0.41223	30.3	13111	100
2025-3-27 14:51:21.290	WT901BLE68-01(48591DE3C19B)	-0.564	-1.691	0.207	-5.310	99.915	-258.606	-83.50	-5.45	-98.39	-65.660	-32.536	2.254	-0.67947	0.26163	-0.54758	0.41223	30.3	13111	100
2025-3-27 14:51:21.290	WT901BLE68-01(48591DE3C19B)	-0.564	-1.528	0.216	10.620	107.239	-240.723	-83.33	-7.70	-99.67	-65.660	-32.536	2.254	-0.67947	0.26163	-0.54758	0.41223	30.3	13111	100
2025-3-27 14:51:21.290	WT901BLE68-01(48591DE3C19B)	-0.562	-1.528	0.216	10.620	107.239	-240.723	-83.02	-9.83	-101.00	-65.660	-32.536	2.254	-0.67947	0.26163	-0.54758	0.41223	30.3	13111	100
2025-3-27 14:51:21.321	WT901BLE68-01(48591DE3C19B)	-0.562	-1.333	0.203	14.343	119.080	-218.262	-82.64	-11.82	-102.38	-65.660	-32.536	2.254	-0.67947	0.26163	-0.54758	0.41223	30.3	13111	100
2025-3-27 14:51:21.321	WT901BLE68-01(48591DE3C19B)	-0.616	-1.333	0.203	14.343	119.080	-218.262	-82.18	-13.66	-103.83	-65.660	-32.536	2.254	-0.67947	0.26163	-0.54758	0.41223	30.3	13111	100
2025-3-27 14:51:21.321	WT901BLE68-01(48591DE3C19B)	-0.616	-1.237	0.193	16.052	127.380	-190.430	-81.66	-15.33	-105.33	-65.660	-32.536	2.254	-0.67947	0.26163	-0.54758	0.41223	30.3	13111	100
2025-3-27 14:51:21.321	WT901BLE68-01(48591DE3C19B)	-0.681	-1.237	0.193	16.052	127.380	-190.430	-81.08	-16.83	-106.86	-65.660	-32.536	2.254	-0.67947	0.26163	-0.54758	0.41223	30.3	13111	100
2025-3-27 14:51:21.349	WT901BLE68-01(48591DE3C19B)	-0.681	-1.108	0.193	19.470	123.108	-161.133	-80.46	-18.16	-108.37	-65.660	-32.536	2.254	-0.67947	0.26163	-0.54758	0.41223	30.3	13111	100
2025-3-27 14:51:21.349	WT901BLE68-01(48591DE3C19B)	-0.691	-1.108	0.193	19.470	123.108	-161.133	-79.80	-19.31	-109.85	-65.660	-32.536	2.254	-0.67947	0.26163	-0.54758	0.41223	30.3	13111	100
2025-3-27 14:51:21.349	WT901BLE68-01(48591DE3C19B)	-0.691	-0.991	0.182	12.573	105.713	-128.723	-79.19	-20.30	-111.23	-65.660	-32.536	2.254	-0.67947	0.26163	-0.54758	0.41223	30.3	13111	100
2025-3-27 14:51:21.349	WT901BLE68-01(48591DE3C19B)	-0.653	-0.991	0.182	12.573	105.713	-128.723	-78.63	-21.12	-112.49	-65.660	-32.536	2.254	-0.67947	0.26163	-0.54758	0.41223	30.3	13111	100
2025-3-27 14:51:21.410	WT901BLE68-01(48591DE3C19B)	-0.653	-0.938	0.167	4.456	83.069	-99.426	-78.16	-21.80	-113.63	-65.660	-32.536	2.254	-0.67947	0.26163	-0.54758	0.41223	30.3	13111	100
2025-3-27 14:51:21.410	WT901BLE68-01(48591DE3C19B)	-0.626	-0.938	0.167	4.456	83.069	-99.426	-77.76	-22.34	-114.61	-65.660	-32.536	2.254	-0.67947	0.26163	-0.54758	0.41223	30.3	13111	100
2025-3-27 14:51:21.410	WT901BLE68-01(48591DE3C19B)	-0.626	-0.905	0.165	0.793	63.843	-72.083	-77.43	-22.75	-115.46	-65.660	-32.536	2.254	-0.67947	0.26163	-0.54758	0.41223	30.3	13111	100
2025-3-27 14:51:21.410	WT901BLE68-01(48591DE3C19B)	-0.615	-0.905	0.165	0.793	63.843	-72.083	-77.16	-23.04	-116.19	-65.660	-32.536	2.254	-0.67947	0.26163	-0.54758	0.41223	30.3	13111	100
2025-3-27 14:51:21.476	WT901BLE68-01(48591DE3C19B)	-0.615	-0.875	0.159	-0.427	50.171	-49.744	-76.94	-23.24	-116.81	-57.820	-37.436	0.000	-0.67947	0.26163	-0.54758	0.41223	30.3	13111	100
2025-3-27 14:51:21.477	WT901BLE68-01(48591DE3C19B)	-0.589	-0.875	0.159	-0.427	50.171	-49.744	-76.77	-23.32	-117.33	-57.820	-37.436	0.000	-0.67947	0.26163	-0.54758	0.41223	30.3	13111	100
2025-3-27 14:51:21.477	WT901BLE68-01(48591DE3C19B)	-0.589	-0.826	0.157	0.122	41.443	-30.945	-76.61	-23.33	-117.80	-57.820	-37.436	0.000	-0.67947	0.26163	-0.54758	0.41223	30.3	13111	100
2025-3-27 14:51:21.477	WT901BLE68-01(48591DE3C19B)	-0.545	-0.826	0.157	0.122	41.443	-30.945	-76.49	-23.24	-118.19	-57.820	-37.436	0.000	-0.67947	0.26163	-0.54758	0.41223	30.3	13111	100
2025-3-27 14:51:21.477	WT901BLE68-01(48591DE3C19B)	-0.545	-0.766	0.153	-0.305	34.912	-14.954	-76.38	-23.09	-118.52	-57.820	-37.436	0.000	-0.67947	0.26163	-0.54758	0.41223	30.3	13111	100
2025-3-27 14:51:21.477	WT901BLE68-01(48591DE3C19B)	-0.498	-0.766	0.153	-0.305	34.912	-14.954	-76.31	-22.86	-118.80	-57.820	-37.436	0.000	-0.67947	0.26163	-0.54758	0.41223	30.3	13111	100
2025-3-27 14:51:21.477	WT901BLE68-01(48591DE3C19B)	-0.498	-0.709	0.143	-1.404	33.264	-1.282	-76.26	-22.49	-119.03	-57.820	-37.436	0.000	-0.67947	0.26163	-0.54758	0.41223	30.3	13111	100
2025-3-27 14:51:21.477	WT901BLE68-01(48591DE3C19B)	-0.479	-0.709	0.143	-1.404	33.264	-1.282	-76.21	-22.14	-119.26	-57.820	-37.436	0.000	-0.67947	0.26163	-0.54758	0.41223	30.3	13111	100
2025-3-27 14:51:21.530	WT901BLE68-01(48591DE3C19B)	-0.479	-0.678	0.129	-6.897	32.654	9.705	-76.23	-21.67	-119.45	-57.820	-37.436	0.000	-0.67947	0.26163	-0.54758	0.41223	30.3	13111	100
2025-3-27 14:51:21.530	WT901BLE68-01(48591DE3C19B)	-0.516	-0.678	0.129	-6.897	32.654	9.705	-76.26	-21.20	-119.65	-57.820	-37.436	0.000	-0.67947	0.26163	-0.54758	0.41223	30.3	13111	100
2025-3-27 14:51:21.530	WT901BLE68-01(48591DE3C19B)	-0.516	-0.738	0.158	-13.000	26.917	17.090	-76.38	-20.68	-119.78	-57.820	-37.436	0.000	-0.67947	0.26163	-0.54758	0.41223	30.3	13111	100
2025-3-27 14:51:21.530	WT901BLE68-01(48591DE3C19B)	-0.573	-0.738	0.158	-13.000	26.917	17.090	-76.49	-20.16	-119.90	-57.820	-37.436	0.000	-0.67947	0.26163	-0.54758	0.41223	30.3	13111	100
2025-3-27 14:51:21.590	WT901BLE68-01(48591DE3C19B)	-0.573	-0.820	0.204	-15.381	11.780	21.362	-76.68	-19.63	-119.87	-57.820	-37.436	0.000	-0.67947	0.26163	-0.54758	0.41223	30.3	13111	100
2025-3-27 14:51:21.590	WT901BLE68-01(48591DE3C19B)	-0.598	-0.820	0.204	-15.381	11.780	21.362	-76.87	-19.11	-119.84	-57.820	-37.436	0.000	-0.67947	0.26163	-0.54758	0.41223	30.3	13111	100
2025-3-27 14:51:21.590	WT901BLE68-01(48591DE3C19B)	-0.598	-0.899	0.248	-18.127	-5.371	25.879	-77.13	-18.58	-119.64	-57.820	-37.436	0.000	-0.67947	0.26163	-0.54758	0.41223	30.3	13111	100
2025-3-27 14:51:21.590	WT901BLE68-01(48591DE3C19B)	-0.593	-0.899	0.248	-18.127	-5.371	25.879	-77.39	-18.05	-119.44	-57.820	-37.436	0.000	-0.67947	0.26163	-0.54758	0.41223	30.3	13111	100
2025-3-27 14:51:21.591	WT901BLE68-01(48591DE3C19B)	-0.593	-0.968	0.246	-18.677	-14.160	34.546	-77.68	-17.46	-119.14	-57.820	-37.436	0.000	-0.67947	0.26163	-0.54758	0.41223	30.3	13111	100
2025-3-27 14:51:21.591	WT901BLE68-01(48591DE3C19B)	-0.609	-0.968	0.246	-18.677	-14.160	34.546	-77.96	-16.86	-118.85	-57.820	-37.436	0.000	-0.67947	0.26163	-0.54758	0.41223	30.3	13111	100
2025-3-27 14:51:21.591	WT901BLE68-01(48591DE3C19B)	-0.609	-1.063	0.234	-24.353	-22.278	46.570	-78.32	-16.18	-118.46	-57.820	-37.436	0.000	-0.67947	0.26163	-0.54758	0.41223	30.3	13111	100
2025-3-27 14:51:21.591	WT901BLE68-01(48591DE3C19B)	-0.626	-1.063	0.234	-24.353	-22.278	46.570	-78.67	-15.49	-118.08	-57.820	-37.436	0.000	-0.67947	0.26163	-0.54758	0.41223	30.3	13111	100
2025-3-27 14:51:21.740	WT901BLE68-01(48591DE3C19B)	-0.626	-1.204	0.247	-27.222	-36.865	63.538	-79.09	-14.67	-117.52	-57.820	-37.436	0.000	-0.67947	0.26163	-0.54758	0.41223	30.3	13111	100
2025-3-27 14:51:21.740	WT901BLE68-01(48591DE3C19B)	-0.635	-1.204	0.247	-27.222	-36.865	63.538	-79.50	-13.85	-116.97	-57.820	-37.436	0.000	-0.33316	0.41083	-0.49261	0.69095	30.3	13111	100
2025-3-27 14:51:21.740	WT901BLE68-01(48591DE3C19B)	-0.635	-1.287	0.313	-23.743	-57.434	83.435	-79.91	-12.89	-116.19	-57.820	-37.436	0.000	-0.33316	0.41083	-0.49261	0.69095	30.3	13111	100
2025-3-27 14:51:21.741	WT901BLE68-01(48591DE3C19B)	-0.650	-1.287	0.313	-23.743	-57.434	83.435	-80.30	-11.92	-115.42	-57.820	-37.436	0.000	-0.33316	0.41083	-0.49261	0.69095	30.3	13111	100
2025-3-27 14:51:21.741	WT901BLE68-01(48591DE3C19B)	-0.650	-1.403	0.369	-24.780	-84.351	109.436	-80.75	-10.74	-114.36	-57.820	-37.436	0.000	-0.33316	0.41083	-0.49261	0.69095	30.3	13111	100
2025-3-27 14:51:21.741	WT901BLE68-01(48591DE3C19B)	-0.545	-1.403	0.369	-24.780	-84.351	109.436	-81.16	-9.57	-113.32	-57.820	-37.436	0.000	-0.33316	0.41083	-0.49261	0.69095	30.3	13111	100
2025-3-27 14:51:21.741	WT901BLE68-01(48591DE3C19B)	-0.545	-1.393	0.351	-11.169	-100.220	133.911	-81.44	-8.18	-112.09	-57.820	-37.436	0.000	-0.33316	0.41083	-0.49261	0.69095	30.3	13111	100
2025-3-27 14:51:21.741	WT901BLE68-01(48591DE3C19B)	-0.428	-1.393	0.351	-11.169	-100.220	133.911	-81.69	-6.81	-110.89	-57.820	-37.436	0.000	-0.33316	0.41083	-0.49261	0.69095	30.3	13111	100
2025-3-27 14:51:21.742	WT901BLE68-01(48591DE3C19B)	-0.428	-1.262	0.292	-0.977	-97.656	164.856	-81.80	-5.13	-109.68	-57.820	-37.436	0.000	-0.33316	0.41083	-0.49261	0.69095	30.3	13111	100
2025-3-27 14:51:21.742	WT901BLE68-01(48591DE3C19B)	-0.420	-1.262	0.292	-0.977	-97.656	164.856	-81.87	-3.46	-108.47	-57.820	-37.436	0.000	-0.33316	0.41083	-0.49261	0.69095	30.3	13111	100
2025-3-27 14:51:21.742	WT901BLE68-01(48591DE3C19B)	-0.420	-1.307	0.248	-3.723	-95.581	194.153	-81.93	-1.52	-107.26	-57.820	-37.436	0.000	-0.33316	0.41083	-0.49261	0.69095	30.3	13111	100
2025-3-27 14:51:21.742	WT901BLE68-01(48591DE3C19B)	-0.401	-1.307	0.248	-3.723	-95.581	194.153	-81.95	0.41	-106.05	-57.820	-37.436	0.000	-0.33316	0.41083	-0.49261	0.69095	30.3	13111	100
2025-3-27 14:51:21.777	WT901BLE68-01(48591DE3C19B)	-0.401	-1.469	0.188	-3.113	-103.027	218.018	-81.93	2.55	-104.74	-57.820	-37.436	0.000	-0.33316	0.41083	-0.49261	0.69095	30.3	13111	100
2025-3-27 14:51:21.777	WT901BLE68-01(48591DE3C19B)	-0.362	-1.469	0.188	-3.113	-103.027	218.018	-81.85	4.67	-103.43	-57.820	-37.436	0.000	-0.33316	0.41083	-0.49261	0.69095	30.3	13111	100
2025-3-27 14:51:21.777	WT901BLE68-01(48591DE3C19B)	-0.362	-1.611	0.124	0.305	-110.657	237.488	-81.68	6.95	-102.00	-57.820	-37.436	0.000	-0.33316	0.41083	-0.49261	0.69095	30.3	13111	100
2025-3-27 14:51:21.777	WT901BLE68-01(48591DE3C19B)	-0.357	-1.611	0.124	0.305	-110.657	237.488	-81.46	9.20	-100.56	-57.820	-37.436	0.000	-0.33316	0.41083	-0.49261	0.69095	30.3	13111	100
2025-3-27 14:51:21.800	WT901BLE68-01(48591DE3C19B)	-0.357	-1.786	0.069	2.136	-116.882	248.474	-81.16	11.53	-99.03	-57.820	-37.436	0.000	-0.33316	0.41083	-0.49261	0.69095	30.3	13111	100
2025-3-27 14:51:21.800	WT901BLE68-01(48591DE3C19B)	-0.333	-1.786	0.069	2.136	-116.882	248.474	-80.79	13.83	-97.47	-57.820	-37.436	0.000	-0.33316	0.41083	-0.49261	0.69095	30.3	13111	100
2025-3-27 14:51:21.800	WT901BLE68-01(48591DE3C19B)	-0.333	-1.917	0.052	16.785	-122.314	251.953	-80.21	16.12	-95.81	-57.820	-37.436	0.000	-0.33316	0.41083	-0.49261	0.69095	30.3	13111	100
2025-3-27 14:51:21.800	WT901BLE68-01(48591DE3C19B)	-0.291	-1.917	0.052	16.785	-122.314	251.953	-79.55	18.38	-94.12	-67.326	-39.690	-4.704	-0.33316	0.41083	-0.49261	0.69095	30.3	13111	100
2025-3-27 14:51:21.829	WT901BLE68-01(48591DE3C19B)	-0.291	-1.870	0.094	36.011	-120.422	250.854	-78.63	20.59	-92.40	-67.326	-39.690	-4.704	-0.33316	0.41083	-0.49261	0.69095	30.3	13111	100
2025-3-27 14:51:21.829	WT901BLE68-01(48591DE3C19B)	-0.266	-1.870	0.094	36.011	-120.422	250.854	-77.63	22.76	-90.63	-67.326	-39.690	-4.704	-0.33316	0.41083	-0.49261	0.69095	30.3	13111	100
2025-3-27 14:51:21.829	WT901BLE68-01(48591DE3C19B)	-0.266	-1.714	0.134	44.006	-111.633	246.338	-76.53	24.85	-88.90	-67.326	-39.690	-4.704	-0.33316	0.41083	-0.49261	0.69095	30.3	13111	100
2025-3-27 14:51:21.829	WT901BLE68-01(48591DE3C19B)	-0.244	-1.714	0.134	44.006	-111.633	246.338	-75.33	26.89	-87.09	-67.326	-39.690	-4.704	-0.33316	0.41083	-0.49261	0.69095	30.3	13111	100
2025-3-27 14:51:21.889	WT901BLE68-01(48591DE3C19B)	-0.244	-1.572	0.133	47.180	-92.590	239.929	-74.12	28.88	-85.45	-67.326	-39.690	-4.704	-0.33316	0.41083	-0.49261	0.69095	30.3	13111	100
2025-3-27 14:51:21.889	WT901BLE68-01(48591DE3C19B)	-0.240	-1.572	0.133	47.180	-92.590	239.929	-72.84	30.82	-83.73	-67.326	-39.690	-4.704	-0.33316	0.41083	-0.49261	0.69095	30.3	13111	100
2025-3-27 14:51:21.890	WT901BLE68-01(48591DE3C19B)	-0.240	-1.410	0.103	47.913	-66.589	232.605	-71.63	32.72	-82.25	-67.326	-39.690	-4.704	-0.33316	0.41083	-0.49261	0.69095	30.3	13111	100
2025-3-27 14:51:21.890	WT901BLE68-01(48591DE3C19B)	-0.232	-1.410	0.103	47.913	-66.589	232.605	-70.33	34.58	-80.71	-67.326	-39.690	-4.704	-0.33316	0.41083	-0.49261	0.69095	30.3	13111	100
2025-3-27 14:51:21.926	WT901BLE68-01(48591DE3C19B)	-0.232	-1.274	0.060	43.640	-41.626	223.694	-69.19	36.41	-79.40	-67.326	-39.690	-4.704	-0.33316	0.41083	-0.49261	0.69095	30.3	13111	100
2025-3-27 14:51:21.926	WT901BLE68-01(48591DE3C19B)	-0.228	-1.274	0.060	43.640	-41.626	223.694	-67.98	38.20	-78.03	-67.326	-39.690	-4.704	-0.33316	0.41083	-0.49261	0.69095	30.3	13111	100
2025-3-27 14:51:21.926	WT901BLE68-01(48591DE3C19B)	-0.253	-1.165	0.038	39.185	-23.743	212.646	-66.91	39.93	-76.85	-67.326	-39.690	-4.704	-0.33316	0.41083	-0.49261	0.69095	30.3	13111	100
2025-3-27 14:51:21.926	WT901BLE68-01(48591DE3C19B)	-0.253	-1.082	0.035	35.950	-18.677	198.853	-65.82	41.57	-75.68	-67.326	-39.690	-4.704	-0.33316	0.41083	-0.49261	0.69095	30.3	13111	100
2025-3-27 14:51:21.980	WT901BLE68-01(48591DE3C19B)	-0.270	-1.082	0.035	35.950	-18.677	198.853	-64.74	43.14	-74.50	-67.326	-39.690	-4.704	-0.33316	0.41083	-0.49261	0.69095	30.3	13111	100
2025-3-27 14:51:21.980	WT901BLE68-01(48591DE3C19B)	-0.270	-1.018	0.023	31.067	-25.818	184.998	-63.61	44.61	-73.26	-67.326	-39.690	-4.704	-0.33316	0.41083	-0.49261	0.69095	30.3	13111	100
2025-3-27 14:51:21.980	WT901BLE68-01(48591DE3C19B)	-0.258	-1.018	0.023	31.067	-25.818	184.998	-62.44	45.97	-71.95	-67.326	-39.690	-4.704	-0.33316	0.41083	-0.49261	0.69095	30.3	13111	100
2025-3-27 14:51:21.980	WT901BLE68-01(48591DE3C19B)	-0.258	-0.969	0.008	28.137	-38.940	171.082	-61.19	47.21	-70.54	-67.326	-39.690	-4.704	-0.33316	0.41083	-0.49261	0.69095	30.3	13111	100
2025-3-27 14:51:22.10	WT901BLE68-01(48591DE3C19B)	-0.218	-0.969	0.008	28.137	-38.940	171.082	-59.87	48.34	-69.03	-67.326	-39.690	-4.704	-0.33316	0.41083	-0.49261	0.69095	30.3	13111	100
2025-3-27 14:51:22.10	WT901BLE68-01(48591DE3C19B)	-0.218	-0.923	-0.008	25.940	-48.828	158.386	-58.48	49.36	-67.44	-67.326	-39.690	-4.704	-0.33316	0.41083	-0.49261	0.69095	30.3	13111	100
