time	DeviceName	AccX(g)	AccY(g)	AccZ(g)	AsX(°/s)	AsY(°/s)	AsZ(°/s)	AngleX(°)	AngleY(°)	AngleZ(°)	HX(uT)	HY(uT)	HZ(uT)	Q0()	Q1()	Q2()	Q3()	Temperature(°C)	Version()	Battery level(%)
2025-3-27 14:45:18.455	WT901BLE68-01(48591DE3C19B)	-0.278	-0.917	0.274	1.953	3.357	-1.587	-73.60	14.19	-125.16	-94.864	-50.274	-3.038	-0.41449	0.16220	-0.57852	0.68344	29.6	13111	100
2025-3-27 14:45:18.456	WT901BLE68-01(48591DE3C19B)	-0.278	-0.916	0.273	1.709	2.563	-1.648	-73.59	14.19	-125.06	-94.864	-50.274	-3.038	-0.41449	0.16220	-0.57852	0.68344	29.6	13111	100
2025-3-27 14:45:18.456	WT901BLE68-01(48591DE3C19B)	-0.280	-0.916	0.273	1.709	2.563	-1.648	-73.58	14.19	-124.96	-94.864	-50.274	-3.038	-0.41449	0.16220	-0.57852	0.68344	29.6	13111	100
2025-3-27 14:45:18.456	WT901BLE68-01(48591DE3C19B)	-0.280	-0.921	0.277	1.282	1.343	-1.892	-73.57	14.19	-124.85	-94.864	-50.274	-3.038	-0.41449	0.16220	-0.57852	0.68344	29.6	13111	100
2025-3-27 14:45:18.456	WT901BLE68-01(48591DE3C19B)	-0.276	-0.921	0.277	1.282	1.343	-1.892	-73.56	14.18	-124.73	-94.864	-50.274	-3.038	-0.43442	0.18820	-0.57211	0.66962	29.6	13111	100
2025-3-27 14:45:18.456	WT901BLE68-01(48591DE3C19B)	-0.276	-0.927	0.280	1.160	0.671	-1.831	-73.55	14.18	-124.62	-94.864	-50.274	-3.038	-0.43442	0.18820	-0.57211	0.66962	29.6	13111	100
2025-3-27 14:45:18.456	WT901BLE68-01(48591DE3C19B)	-0.268	-0.927	0.280	1.160	0.671	-1.831	-73.54	14.18	-124.50	-94.864	-50.274	-3.038	-0.43442	0.18820	-0.57211	0.66962	29.6	13111	100
2025-3-27 14:45:18.456	WT901BLE68-01(48591DE3C19B)	-0.268	-0.924	0.279	1.221	1.587	-1.526	-73.54	14.18	-124.39	-94.864	-50.274	-3.038	-0.43442	0.18820	-0.57211	0.66962	29.6	13111	100
2025-3-27 14:45:18.491	WT901BLE68-01(48591DE3C19B)	-0.266	-0.924	0.279	1.221	1.587	-1.526	-73.53	14.18	-124.29	-94.864	-50.274	-3.038	-0.43442	0.18820	-0.57211	0.66962	29.6	13111	100
2025-3-27 14:45:18.492	WT901BLE68-01(48591DE3C19B)	-0.266	-0.919	0.275	1.221	3.357	-1.038	-73.53	14.19	-124.20	-94.864	-50.274	-3.038	-0.43442	0.18820	-0.57211	0.66962	29.6	13111	100
2025-3-27 14:45:18.492	WT901BLE68-01(48591DE3C19B)	-0.270	-0.919	0.275	1.221	3.357	-1.038	-73.52	14.19	-124.11	-94.864	-50.274	-3.038	-0.43442	0.18820	-0.57211	0.66962	29.6	13111	100
2025-3-27 14:45:18.492	WT901BLE68-01(48591DE3C19B)	-0.270	-0.919	0.273	1.160	4.028	-0.549	-73.52	14.21	-124.02	-94.864	-50.274	-3.038	-0.43442	0.18820	-0.57211	0.66962	29.6	13111	100
2025-3-27 14:45:18.545	WT901BLE68-01(48591DE3C19B)	-0.275	-0.919	0.273	1.160	4.028	-0.549	-73.52	14.23	-123.94	-94.864	-50.274	-3.038	-0.43442	0.18820	-0.57211	0.66962	29.6	13111	100
2025-3-27 14:45:18.545	WT901BLE68-01(48591DE3C19B)	-0.275	-0.920	0.273	1.282	3.296	0.000	-73.52	14.25	-123.85	-94.864	-50.274	-3.038	-0.43442	0.18820	-0.57211	0.66962	29.6	13111	100
2025-3-27 14:45:18.545	WT901BLE68-01(48591DE3C19B)	-0.276	-0.920	0.273	1.282	3.296	0.000	-73.51	14.27	-123.76	-94.864	-50.274	-3.038	-0.43442	0.18820	-0.57211	0.66962	29.6	13111	100
2025-3-27 14:45:18.545	WT901BLE68-01(48591DE3C19B)	-0.276	-0.918	0.275	1.465	1.892	0.305	-73.50	14.28	-123.65	-94.864	-50.274	-3.038	-0.43442	0.18820	-0.57211	0.66962	29.6	13111	100
2025-3-27 14:45:18.574	WT901BLE68-01(48591DE3C19B)	-0.271	-0.918	0.275	1.465	1.892	0.305	-73.49	14.30	-123.55	-94.864	-50.274	-3.038	-0.43442	0.18820	-0.57211	0.66962	29.6	13111	100
2025-3-27 14:45:18.574	WT901BLE68-01(48591DE3C19B)	-0.271	-0.916	0.271	1.404	1.038	0.305	-73.48	14.32	-123.44	-94.864	-50.274	-3.038	-0.43442	0.18820	-0.57211	0.66962	29.6	13111	100
2025-3-27 14:45:18.574	WT901BLE68-01(48591DE3C19B)	-0.267	-0.916	0.271	1.404	1.038	0.305	-73.47	14.33	-123.32	-94.864	-50.274	-3.038	-0.43442	0.18820	-0.57211	0.66962	29.6	13111	100
2025-3-27 14:45:18.574	WT901BLE68-01(48591DE3C19B)	-0.267	-0.919	0.266	1.221	1.160	0.122	-73.46	14.35	-123.21	-94.864	-50.274	-3.038	-0.43442	0.18820	-0.57211	0.66962	29.6	13111	100
2025-3-27 14:45:18.605	WT901BLE68-01(48591DE3C19B)	-0.267	-0.919	0.266	1.221	1.160	0.122	-73.45	14.36	-123.10	-94.864	-50.274	-3.038	-0.43442	0.18820	-0.57211	0.66962	29.6	13111	100
2025-3-27 14:45:18.605	WT901BLE68-01(48591DE3C19B)	-0.267	-0.915	0.271	1.099	1.404	-0.183	-73.45	14.37	-123.00	-94.864	-50.274	-3.038	-0.43442	0.18820	-0.57211	0.66962	29.6	13111	100
2025-3-27 14:45:18.605	WT901BLE68-01(48591DE3C19B)	-0.269	-0.915	0.271	1.099	1.404	-0.183	-73.44	14.38	-122.89	-94.864	-50.274	-3.038	-0.43442	0.18820	-0.57211	0.66962	29.6	13111	100
2025-3-27 14:45:18.605	WT901BLE68-01(48591DE3C19B)	-0.269	-0.919	0.274	0.244	2.014	-0.427	-73.44	14.39	-122.79	-94.864	-50.274	-3.038	-0.43442	0.18820	-0.57211	0.66962	29.6	13111	100
2025-3-27 14:45:18.692	WT901BLE68-01(48591DE3C19B)	-0.275	-0.919	0.274	0.244	2.014	-0.427	-73.45	14.40	-122.70	-94.864	-50.274	-3.038	-0.43442	0.18820	-0.57211	0.66962	29.6	13111	100
2025-3-27 14:45:18.692	WT901BLE68-01(48591DE3C19B)	-0.275	-0.935	0.279	-0.183	2.136	-0.793	-73.46	14.41	-122.60	-93.884	-51.156	-3.332	-0.43442	0.18820	-0.57211	0.66962	29.6	13111	100
2025-3-27 14:45:18.692	WT901BLE68-01(48591DE3C19B)	-0.271	-0.935	0.279	-0.183	2.136	-0.793	-73.47	14.41	-122.51	-93.884	-51.156	-3.332	-0.43442	0.18820	-0.57211	0.66962	29.6	13111	100
2025-3-27 14:45:18.692	WT901BLE68-01(48591DE3C19B)	-0.271	-0.939	0.277	0.305	2.747	-0.977	-73.47	14.42	-122.43	-93.884	-51.156	-3.332	-0.43442	0.18820	-0.57211	0.66962	29.6	13111	100
2025-3-27 14:45:18.695	WT901BLE68-01(48591DE3C19B)	-0.264	-0.939	0.277	0.305	2.747	-0.977	-73.48	14.43	-122.34	-93.884	-51.156	-3.332	-0.43442	0.18820	-0.57211	0.66962	29.6	13111	100
2025-3-27 14:45:18.695	WT901BLE68-01(48591DE3C19B)	-0.264	-0.931	0.270	1.343	4.333	-0.366	-73.48	14.44	-122.27	-93.884	-51.156	-3.332	-0.43442	0.18820	-0.57211	0.66962	29.6	13111	100
2025-3-27 14:45:18.695	WT901BLE68-01(48591DE3C19B)	-0.262	-0.931	0.270	1.343	4.333	-0.366	-73.48	14.46	-122.20	-93.884	-51.156	-3.332	-0.43442	0.18820	-0.57211	0.66962	29.6	13111	100
2025-3-27 14:45:18.695	WT901BLE68-01(48591DE3C19B)	-0.262	-0.916	0.264	2.014	5.920	0.854	-73.47	14.49	-122.14	-93.884	-51.156	-3.332	-0.43442	0.18820	-0.57211	0.66962	29.6	13111	100
2025-3-27 14:45:18.726	WT901BLE68-01(48591DE3C19B)	-0.267	-0.916	0.264	2.014	5.920	0.854	-73.47	14.52	-122.08	-93.884	-51.156	-3.332	-0.43442	0.18820	-0.57211	0.66962	29.6	13111	100
2025-3-27 14:45:18.726	WT901BLE68-01(48591DE3C19B)	-0.276	-0.907	0.264	2.136	6.531	2.075	-73.46	14.56	-122.03	-93.884	-51.156	-3.332	-0.43442	0.18820	-0.57211	0.66962	29.6	13111	100
2025-3-27 14:45:18.726	WT901BLE68-01(48591DE3C19B)	-0.276	-0.907	0.264	1.343	5.188	2.991	-73.46	14.61	-121.96	-93.884	-51.156	-3.332	-0.43442	0.18820	-0.57211	0.66962	29.6	13111	100
2025-3-27 14:45:18.726	WT901BLE68-01(48591DE3C19B)	-0.275	-0.907	0.264	1.343	5.188	2.991	-73.46	14.66	-121.89	-93.884	-51.156	-3.332	-0.43442	0.18820	-0.57211	0.66962	29.6	13111	100
2025-3-27 14:45:18.792	WT901BLE68-01(48591DE3C19B)	-0.275	-0.920	0.262	0.244	2.563	3.113	-73.46	14.71	-121.81	-93.884	-51.156	-3.332	-0.43442	0.18820	-0.57211	0.66962	29.6	13111	100
2025-3-27 14:45:18.792	WT901BLE68-01(48591DE3C19B)	-0.274	-0.920	0.262	0.244	2.563	3.113	-73.47	14.75	-121.71	-93.884	-51.156	-3.332	-0.43442	0.18820	-0.57211	0.66962	29.6	13111	100
2025-3-27 14:45:18.792	WT901BLE68-01(48591DE3C19B)	-0.274	-0.921	0.260	-0.488	-0.183	2.380	-73.47	14.79	-121.60	-93.884	-51.156	-3.332	-0.43442	0.18820	-0.57211	0.66962	29.6	13111	100
2025-3-27 14:45:18.792	WT901BLE68-01(48591DE3C19B)	-0.275	-0.921	0.260	-0.488	-0.183	2.380	-73.48	14.82	-121.48	-93.884	-51.156	-3.332	-0.43442	0.18820	-0.57211	0.66962	29.6	13111	100
2025-3-27 14:45:18.844	WT901BLE68-01(48591DE3C19B)	-0.275	-0.917	0.257	-1.892	-2.502	0.854	-73.49	14.83	-121.35	-93.884	-51.156	-3.332	-0.43442	0.18820	-0.57211	0.66962	29.6	13111	100
2025-3-27 14:45:18.844	WT901BLE68-01(48591DE3C19B)	-0.275	-0.917	0.257	-1.892	-2.502	0.854	-73.50	14.84	-121.22	-93.884	-51.156	-3.332	-0.43442	0.18820	-0.57211	0.66962	29.6	13111	100
2025-3-27 14:45:18.844	WT901BLE68-01(48591DE3C19B)	-0.275	-0.912	0.256	-3.296	-5.066	-0.793	-73.52	14.83	-121.07	-93.884	-51.156	-3.332	-0.43442	0.18820	-0.57211	0.66962	29.6	13111	100
2025-3-27 14:45:18.844	WT901BLE68-01(48591DE3C19B)	-0.273	-0.912	0.256	-3.296	-5.066	-0.793	-73.55	14.82	-120.92	-93.884	-51.156	-3.332	-0.43442	0.18820	-0.57211	0.66962	29.6	13111	100
2025-3-27 14:45:18.845	WT901BLE68-01(48591DE3C19B)	-0.273	-0.904	0.257	-4.761	-7.507	-2.258	-73.58	14.79	-120.75	-93.884	-51.156	-3.332	-0.43442	0.18820	-0.57211	0.66962	29.6	13111	100
2025-3-27 14:45:18.845	WT901BLE68-01(48591DE3C19B)	-0.277	-0.904	0.257	-4.761	-7.507	-2.258	-73.61	14.75	-120.57	-93.884	-51.156	-3.332	-0.43442	0.18820	-0.57211	0.66962	29.6	13111	100
2025-3-27 14:45:18.845	WT901BLE68-01(48591DE3C19B)	-0.277	-0.908	0.259	-6.592	-9.949	-3.296	-73.65	14.71	-120.39	-93.884	-51.156	-3.332	-0.46155	0.20721	-0.56662	0.65027	29.6	13111	100
2025-3-27 14:45:18.845	WT901BLE68-01(48591DE3C19B)	-0.272	-0.908	0.259	-6.592	-9.949	-3.296	-73.70	14.66	-120.20	-93.884	-51.156	-3.332	-0.46155	0.20721	-0.56662	0.65027	29.6	13111	100
2025-3-27 14:45:18.904	WT901BLE68-01(48591DE3C19B)	-0.272	-0.918	0.263	-7.324	-12.329	-4.211	-73.74	14.60	-119.99	-93.884	-51.156	-3.332	-0.46155	0.20721	-0.56662	0.65027	29.6	13111	100
2025-3-27 14:45:18.904	WT901BLE68-01(48591DE3C19B)	-0.268	-0.918	0.263	-7.324	-12.329	-4.211	-73.79	14.53	-119.78	-93.884	-51.156	-3.332	-0.46155	0.20721	-0.56662	0.65027	29.6	13111	100
2025-3-27 14:45:18.905	WT901BLE68-01(48591DE3C19B)	-0.268	-0.922	0.259	-7.324	-13.306	-4.883	-73.84	14.46	-119.57	-93.884	-51.156	-3.332	-0.46155	0.20721	-0.56662	0.65027	29.6	13111	100
2025-3-27 14:45:18.905	WT901BLE68-01(48591DE3C19B)	-0.265	-0.922	0.259	-7.324	-13.306	-4.883	-73.88	14.39	-119.35	-93.884	-51.156	-3.332	-0.46155	0.20721	-0.56662	0.65027	29.6	13111	100
2025-3-27 14:45:18.934	WT901BLE68-01(48591DE3C19B)	-0.265	-0.937	0.263	-7.568	-13.245	-5.249	-73.93	14.32	-119.14	-93.884	-51.156	-3.332	-0.46155	0.20721	-0.56662	0.65027	29.6	13111	100
2025-3-27 14:45:18.935	WT901BLE68-01(48591DE3C19B)	-0.267	-0.937	0.263	-7.568	-13.245	-5.249	-73.98	14.24	-118.92	-93.884	-51.156	-3.332	-0.46155	0.20721	-0.56662	0.65027	29.6	13111	100
2025-3-27 14:45:18.935	WT901BLE68-01(48591DE3C19B)	-0.267	-0.946	0.265	-5.981	-12.878	-5.371	-74.03	14.16	-118.71	-93.884	-51.156	-3.332	-0.46155	0.20721	-0.56662	0.65027	29.6	13111	100
2025-3-27 14:45:18.935	WT901BLE68-01(48591DE3C19B)	-0.267	-0.946	0.265	-5.981	-12.878	-5.371	-74.06	14.08	-118.50	-93.884	-51.156	-3.332	-0.46155	0.20721	-0.56662	0.65027	29.6	13111	100
2025-3-27 14:45:18.965	WT901BLE68-01(48591DE3C19B)	-0.267	-0.930	0.263	-5.615	-12.573	-5.249	-74.09	14.01	-118.30	-93.884	-51.156	-3.332	-0.46155	0.20721	-0.56662	0.65027	29.6	13111	100
2025-3-27 14:45:18.965	WT901BLE68-01(48591DE3C19B)	-0.271	-0.930	0.263	-5.615	-12.573	-5.249	-74.12	13.93	-118.09	-93.884	-51.156	-3.332	-0.46155	0.20721	-0.56662	0.65027	29.6	13111	100
2025-3-27 14:45:18.965	WT901BLE68-01(48591DE3C19B)	-0.271	-0.925	0.264	-5.981	-13.489	-5.310	-74.15	13.85	-117.88	-93.884	-51.156	-3.332	-0.46155	0.20721	-0.56662	0.65027	29.6	13111	100
2025-3-27 14:45:18.965	WT901BLE68-01(48591DE3C19B)	-0.277	-0.925	0.264	-5.981	-13.489	-5.310	-74.19	13.78	-117.67	-93.884	-51.156	-3.332	-0.46155	0.20721	-0.56662	0.65027	29.6	13111	100
2025-3-27 14:45:19.25	WT901BLE68-01(48591DE3C19B)	-0.277	-0.922	0.267	-6.531	-15.991	-5.615	-74.22	13.70	-117.45	-93.884	-51.156	-3.332	-0.46155	0.20721	-0.56662	0.65027	29.6	13111	100
2025-3-27 14:45:19.25	WT901BLE68-01(48591DE3C19B)	-0.276	-0.922	0.267	-6.531	-15.991	-5.615	-74.25	13.61	-117.21	-93.884	-51.156	-3.332	-0.46155	0.20721	-0.56662	0.65027	29.6	13111	100
2025-3-27 14:45:19.25	WT901BLE68-01(48591DE3C19B)	-0.276	-0.914	0.264	-7.080	-18.799	-6.226	-74.28	13.52	-116.97	-93.884	-51.156	-3.332	-0.46155	0.20721	-0.56662	0.65027	29.6	13111	100
2025-3-27 14:45:19.25	WT901BLE68-01(48591DE3C19B)	-0.271	-0.914	0.264	-7.080	-18.799	-6.226	-74.32	13.43	-116.71	-93.884	-51.156	-3.332	-0.46155	0.20721	-0.56662	0.65027	29.6	13111	100
2025-3-27 14:45:19.55	WT901BLE68-01(48591DE3C19B)	-0.271	-0.912	0.253	-7.751	-21.362	-6.836	-74.35	13.32	-116.44	-94.962	-50.862	-2.744	-0.46155	0.20721	-0.56662	0.65027	29.6	13111	100
2025-3-27 14:45:19.56	WT901BLE68-01(48591DE3C19B)	-0.271	-0.912	0.253	-7.751	-21.362	-6.836	-74.38	13.22	-116.17	-94.962	-50.862	-2.744	-0.46155	0.20721	-0.56662	0.65027	29.6	13111	100
2025-3-27 14:45:19.56	WT901BLE68-01(48591DE3C19B)	-0.271	-0.910	0.248	-8.240	-23.621	-7.263	-74.42	13.10	-115.88	-94.962	-50.862	-2.744	-0.46155	0.20721	-0.56662	0.65027	29.6	13111	100
2025-3-27 14:45:19.56	WT901BLE68-01(48591DE3C19B)	-0.274	-0.910	0.248	-8.240	-23.621	-7.263	-74.45	12.99	-115.58	-94.962	-50.862	-2.744	-0.46155	0.20721	-0.56662	0.65027	29.6	13111	100
2025-3-27 14:45:19.92	WT901BLE68-01(48591DE3C19B)	-0.274	-0.930	0.250	-9.644	-26.428	-7.019	-74.49	12.87	-115.27	-94.962	-50.862	-2.744	-0.46155	0.20721	-0.56662	0.65027	29.6	13111	100
2025-3-27 14:45:19.93	WT901BLE68-01(48591DE3C19B)	-0.271	-0.930	0.250	-9.644	-26.428	-7.019	-74.54	12.75	-114.95	-94.962	-50.862	-2.744	-0.46155	0.20721	-0.56662	0.65027	29.6	13111	100
2025-3-27 14:45:19.93	WT901BLE68-01(48591DE3C19B)	-0.271	-0.946	0.253	-9.644	-29.297	-6.226	-74.58	12.63	-114.61	-94.962	-50.862	-2.744	-0.46155	0.20721	-0.56662	0.65027	29.6	13111	100
2025-3-27 14:45:19.93	WT901BLE68-01(48591DE3C19B)	-0.253	-0.946	0.253	-9.644	-29.297	-6.226	-74.61	12.51	-114.26	-94.962	-50.862	-2.744	-0.46155	0.20721	-0.56662	0.65027	29.6	13111	100
2025-3-27 14:45:19.150	WT901BLE68-01(48591DE3C19B)	-0.253	-0.951	0.251	-9.460	-29.541	-4.517	-74.65	12.40	-113.91	-94.962	-50.862	-2.744	-0.46155	0.20721	-0.56662	0.65027	29.6	13111	100
2025-3-27 14:45:19.150	WT901BLE68-01(48591DE3C19B)	-0.226	-0.951	0.251	-9.460	-29.541	-4.517	-74.69	12.30	-113.55	-94.962	-50.862	-2.744	-0.46155	0.20721	-0.56662	0.65027	29.6	13111	100
2025-3-27 14:45:19.150	WT901BLE68-01(48591DE3C19B)	-0.226	-0.949	0.246	-8.301	-26.123	-1.953	-74.72	12.22	-113.21	-94.962	-50.862	-2.744	-0.46155	0.20721	-0.56662	0.65027	29.6	13111	100
2025-3-27 14:45:19.150	WT901BLE68-01(48591DE3C19B)	-0.205	-0.949	0.246	-8.301	-26.123	-1.953	-74.76	12.15	-112.88	-94.962	-50.862	-2.744	-0.46155	0.20721	-0.56662	0.65027	29.6	13111	100
2025-3-27 14:45:19.174	WT901BLE68-01(48591DE3C19B)	-0.205	-0.960	0.243	-6.409	-18.799	1.099	-74.78	12.10	-112.59	-94.962	-50.862	-2.744	-0.46155	0.20721	-0.56662	0.65027	29.6	13111	100
2025-3-27 14:45:19.174	WT901BLE68-01(48591DE3C19B)	-0.190	-0.960	0.243	-6.409	-18.799	1.099	-74.81	12.08	-112.33	-94.962	-50.862	-2.744	-0.46155	0.20721	-0.56662	0.65027	29.6	13111	100
2025-3-27 14:45:19.174	WT901BLE68-01(48591DE3C19B)	-0.190	-0.958	0.230	-3.296	-10.132	3.540	-74.83	12.07	-112.11	-94.962	-50.862	-2.744	-0.46155	0.20721	-0.56662	0.65027	29.6	13111	100
2025-3-27 14:45:19.174	WT901BLE68-01(48591DE3C19B)	-0.183	-0.958	0.230	-3.296	-10.132	3.540	-74.84	12.10	-111.93	-94.962	-50.862	-2.744	-0.46155	0.20721	-0.56662	0.65027	29.6	13111	100
2025-3-27 14:45:19.205	WT901BLE68-01(48591DE3C19B)	-0.183	-0.951	0.221	-0.977	-2.075	5.310	-74.85	12.15	-111.82	-94.962	-50.862	-2.744	-0.46155	0.20721	-0.56662	0.65027	29.6	13111	100
2025-3-27 14:45:19.206	WT901BLE68-01(48591DE3C19B)	-0.181	-0.951	0.221	-0.977	-2.075	5.310	-74.86	12.20	-111.71	-94.962	-50.862	-2.744	-0.46155	0.20721	-0.56662	0.65027	29.6	13111	100
2025-3-27 14:45:19.206	WT901BLE68-01(48591DE3C19B)	-0.181	-0.931	0.224	0.488	3.784	5.371	-74.86	12.27	-111.66	-94.962	-50.862	-2.744	-0.46155	0.20721	-0.56662	0.65027	29.6	13111	100
2025-3-27 14:45:19.206	WT901BLE68-01(48591DE3C19B)	-0.162	-0.931	0.224	0.488	3.784	5.371	-74.87	12.33	-111.60	-94.962	-50.862	-2.744	-0.46155	0.20721	-0.56662	0.65027	29.6	13111	100
2025-3-27 14:45:19.265	WT901BLE68-01(48591DE3C19B)	-0.162	-0.930	0.220	-0.671	8.362	4.089	-74.89	12.40	-111.60	-94.962	-50.862	-2.744	-0.46155	0.20721	-0.56662	0.65027	29.6	13111	100
2025-3-27 14:45:19.265	WT901BLE68-01(48591DE3C19B)	-0.125	-0.930	0.220	-0.671	8.362	4.089	-74.92	12.46	-111.60	-94.962	-50.862	-2.744	-0.49805	0.26859	-0.54849	0.61551	29.6	13111	100
2025-3-27 14:45:19.265	WT901BLE68-01(48591DE3C19B)	-0.125	-0.944	0.220	0.793	15.747	1.160	-74.95	12.50	-111.68	-94.962	-50.862	-2.744	-0.49805	0.26859	-0.54849	0.61551	29.6	13111	100
2025-3-27 14:45:19.265	WT901BLE68-01(48591DE3C19B)	-0.127	-0.944	0.220	0.793	15.747	1.160	-74.99	12.55	-111.75	-94.962	-50.862	-2.744	-0.49805	0.26859	-0.54849	0.61551	29.6	13111	100
2025-3-27 14:45:19.294	WT901BLE68-01(48591DE3C19B)	-0.127	-0.929	0.224	1.831	24.719	-2.075	-75.03	12.58	-111.92	-94.962	-50.862	-2.744	-0.49805	0.26859	-0.54849	0.61551	29.6	13111	100
2025-3-27 14:45:19.294	WT901BLE68-01(48591DE3C19B)	-0.126	-0.929	0.224	1.831	24.719	-2.075	-75.07	12.62	-112.09	-94.962	-50.862	-2.744	-0.49805	0.26859	-0.54849	0.61551	29.6	13111	100
2025-3-27 14:45:19.294	WT901BLE68-01(48591DE3C19B)	-0.126	-0.912	0.222	2.563	30.151	-5.615	-75.11	12.62	-112.32	-94.962	-50.862	-2.744	-0.49805	0.26859	-0.54849	0.61551	29.6	13111	100
2025-3-27 14:45:19.294	WT901BLE68-01(48591DE3C19B)	-0.117	-0.912	0.222	2.563	30.151	-5.615	-75.16	12.63	-112.56	-94.962	-50.862	-2.744	-0.49805	0.26859	-0.54849	0.61551	29.6	13111	100
2025-3-27 14:45:19.354	WT901BLE68-01(48591DE3C19B)	-0.117	-0.891	0.215	2.747	33.508	-8.301	-75.22	12.62	-112.83	-94.962	-50.862	-2.744	-0.49805	0.26859	-0.54849	0.61551	29.6	13111	100
2025-3-27 14:45:19.355	WT901BLE68-01(48591DE3C19B)	-0.106	-0.891	0.215	2.747	33.508	-8.301	-75.27	12.61	-113.10	-94.962	-50.862	-2.744	-0.49805	0.26859	-0.54849	0.61551	29.6	13111	100
2025-3-27 14:45:19.355	WT901BLE68-01(48591DE3C19B)	-0.106	-0.892	0.205	2.502	36.011	-10.498	-75.33	12.58	-113.40	-94.962	-50.862	-2.744	-0.49805	0.26859	-0.54849	0.61551	29.6	13111	100
2025-3-27 14:45:19.355	WT901BLE68-01(48591DE3C19B)	-0.104	-0.892	0.205	2.502	36.011	-10.498	-75.39	12.55	-113.70	-94.962	-50.862	-2.744	-0.49805	0.26859	-0.54849	0.61551	29.6	13111	100
2025-3-27 14:45:19.390	WT901BLE68-01(48591DE3C19B)	-0.104	-0.913	0.200	2.625	36.743	-12.512	-75.45	12.50	-114.01	-94.962	-50.862	-2.744	-0.49805	0.26859	-0.54849	0.61551	29.6	13111	100
2025-3-27 14:45:19.390	WT901BLE68-01(48591DE3C19B)	-0.101	-0.913	0.200	2.625	36.743	-12.512	-75.52	12.44	-114.31	-94.962	-50.862	-2.744	-0.49805	0.26859	-0.54849	0.61551	29.6	13111	100
2025-3-27 14:45:19.391	WT901BLE68-01(48591DE3C19B)	-0.101	-0.946	0.200	2.747	37.537	-14.221	-75.58	12.38	-114.63	-94.962	-50.862	-2.744	-0.49805	0.26859	-0.54849	0.61551	29.6	13111	100
2025-3-27 14:45:19.391	WT901BLE68-01(48591DE3C19B)	-0.107	-0.946	0.200	2.747	37.537	-14.221	-75.65	12.30	-114.94	-94.962	-50.862	-2.744	-0.49805	0.26859	-0.54849	0.61551	29.6	13111	100
2025-3-27 14:45:19.415	WT901BLE68-01(48591DE3C19B)	-0.107	-0.979	0.197	2.380	38.025	-15.930	-75.72	12.22	-115.26	-94.962	-50.862	-2.744	-0.49805	0.26859	-0.54849	0.61551	29.6	13111	100
2025-3-27 14:45:19.416	WT901BLE68-01(48591DE3C19B)	-0.115	-0.979	0.197	2.380	38.025	-15.930	-75.78	12.13	-115.59	-94.962	-50.862	-2.744	-0.49805	0.26859	-0.54849	0.61551	29.6	13111	100
2025-3-27 14:45:19.416	WT901BLE68-01(48591DE3C19B)	-0.115	-1.004	0.189	0.488	38.330	-18.188	-75.87	12.02	-115.91	-94.962	-50.862	-2.744	-0.49805	0.26859	-0.54849	0.61551	29.6	13111	100
2025-3-27 14:45:19.416	WT901BLE68-01(48591DE3C19B)	-0.127	-1.004	0.189	0.488	38.330	-18.188	-75.96	11.91	-116.24	-94.962	-50.862	-2.744	-0.49805	0.26859	-0.54849	0.61551	29.6	13111	100
2025-3-27 14:45:19.444	WT901BLE68-01(48591DE3C19B)	-0.127	-1.042	0.191	-2.808	37.354	-22.278	-76.09	11.76	-116.56	-94.962	-50.862	-2.744	-0.49805	0.26859	-0.54849	0.61551	29.6	13111	100
2025-3-27 14:45:19.445	WT901BLE68-01(48591DE3C19B)	-0.145	-1.042	0.191	-2.808	37.354	-22.278	-76.21	11.60	-116.89	-94.962	-50.862	-2.744	-0.49805	0.26859	-0.54849	0.61551	29.6	13111	100
2025-3-27 14:45:19.445	WT901BLE68-01(48591DE3C19B)	-0.145	-1.089	0.206	-6.042	35.828	-28.564	-76.36	11.38	-117.21	-92.414	-51.450	-4.508	-0.49805	0.26859	-0.54849	0.61551	29.6	13111	100
2025-3-27 14:45:19.445	WT901BLE68-01(48591DE3C19B)	-0.181	-1.089	0.206	-6.042	35.828	-28.564	-76.51	11.16	-117.53	-92.414	-51.450	-4.508	-0.49805	0.26859	-0.54849	0.61551	29.6	13111	100
2025-3-27 14:45:19.504	WT901BLE68-01(48591DE3C19B)	-0.181	-1.101	0.232	-7.263	34.912	-36.133	-76.67	10.87	-117.85	-92.414	-51.450	-4.508	-0.49805	0.26859	-0.54849	0.61551	29.6	13111	100
2025-3-27 14:45:19.504	WT901BLE68-01(48591DE3C19B)	-0.218	-1.101	0.232	-7.263	34.912	-36.133	-76.83	10.58	-118.17	-92.414	-51.450	-4.508	-0.49805	0.26859	-0.54849	0.61551	29.6	13111	100
2025-3-27 14:45:19.504	WT901BLE68-01(48591DE3C19B)	-0.218	-1.046	0.260	-8.972	32.288	-44.312	-77.00	10.21	-118.49	-92.414	-51.450	-4.508	-0.49805	0.26859	-0.54849	0.61551	29.6	13111	100
2025-3-27 14:45:19.505	WT901BLE68-01(48591DE3C19B)	-0.240	-1.046	0.260	-8.972	32.288	-44.312	-77.16	9.84	-118.81	-92.414	-51.450	-4.508	-0.49805	0.26859	-0.54849	0.61551	29.6	13111	100
2025-3-27 14:45:19.835	WT901BLE68-01(48591DE3C19B)	-0.240	-0.979	0.267	-12.695	28.442	-52.185	-77.36	9.39	-119.10	-92.414	-51.450	-4.508	-0.49805	0.26859	-0.54849	0.61551	29.6	13111	100
2025-3-27 14:45:19.835	WT901BLE68-01(48591DE3C19B)	-0.237	-0.979	0.267	-12.695	28.442	-52.185	-77.55	8.94	-119.39	-92.414	-51.450	-4.508	-0.49805	0.26859	-0.54849	0.61551	29.6	13111	100
2025-3-27 14:45:19.835	WT901BLE68-01(48591DE3C19B)	-0.237	-0.922	0.258	-15.503	25.024	-58.044	-77.76	8.44	-119.66	-92.414	-51.450	-4.508	-0.49805	0.26859	-0.54849	0.61551	29.6	13111	100
2025-3-27 14:45:19.835	WT901BLE68-01(48591DE3C19B)	-0.229	-0.922	0.258	-15.503	25.024	-58.044	-77.96	7.93	-119.93	-92.414	-51.450	-4.508	-0.49805	0.26859	-0.54849	0.61551	29.6	13111	100
2025-3-27 14:45:19.836	WT901BLE68-01(48591DE3C19B)	-0.229	-0.906	0.239	-18.127	23.987	-60.059	-78.18	7.42	-120.20	-92.414	-51.450	-4.508	-0.49805	0.26859	-0.54849	0.61551	29.6	13111	100
2025-3-27 14:45:19.836	WT901BLE68-01(48591DE3C19B)	-0.217	-0.906	0.239	-18.127	23.987	-60.059	-78.40	6.90	-120.45	-92.414	-51.450	-4.508	-0.49805	0.26859	-0.54849	0.61551	29.6	13111	100
2025-3-27 14:45:19.836	WT901BLE68-01(48591DE3C19B)	-0.217	-0.881	0.223	-17.639	23.132	-61.768	-78.61	6.37	-120.71	-92.414	-51.450	-4.508	-0.49805	0.26859	-0.54849	0.61551	29.6	13111	100
2025-3-27 14:45:19.836	WT901BLE68-01(48591DE3C19B)	-0.205	-0.881	0.223	-17.639	23.132	-61.768	-78.82	5.84	-120.96	-92.414	-51.450	-4.508	-0.49805	0.26859	-0.54849	0.61551	29.6	13111	100
2025-3-27 14:45:19.837	WT901BLE68-01(48591DE3C19B)	-0.205	-0.858	0.208	-19.165	23.254	-62.256	-79.03	5.31	-121.21	-92.414	-51.450	-4.508	-0.49805	0.26859	-0.54849	0.61551	29.6	13111	100
2025-3-27 14:45:19.837	WT901BLE68-01(48591DE3C19B)	-0.213	-0.858	0.208	-19.165	23.254	-62.256	-79.24	4.78	-121.46	-92.414	-51.450	-4.508	-0.49805	0.26859	-0.54849	0.61551	29.6	13111	100
2025-3-27 14:45:19.837	WT901BLE68-01(48591DE3C19B)	-0.213	-0.886	0.206	-20.020	25.085	-62.561	-79.46	4.26	-121.72	-92.414	-51.450	-4.508	-0.49805	0.26859	-0.54849	0.61551	29.6	13111	100
2025-3-27 14:45:19.837	WT901BLE68-01(48591DE3C19B)	-0.239	-0.886	0.206	-20.020	25.085	-62.561	-79.67	3.74	-121.99	-92.414	-51.450	-4.508	-0.49805	0.26859	-0.54849	0.61551	29.6	13111	100
2025-3-27 14:45:19.925	WT901BLE68-01(48591DE3C19B)	-0.259	-0.934	0.210	-19.226	25.818	-63.171	-79.88	3.22	-122.26	-92.414	-51.450	-4.508	-0.49805	0.26859	-0.54849	0.61551	29.6	13111	100
2025-3-27 14:45:19.925	WT901BLE68-01(48591DE3C19B)	-0.259	-0.967	0.216	-18.860	25.269	-64.453	-80.07	2.70	-122.52	-92.414	-51.450	-4.508	-0.49805	0.26859	-0.54849	0.61551	29.6	13111	100
2025-3-27 14:45:19.925	WT901BLE68-01(48591DE3C19B)	-0.267	-0.967	0.216	-18.860	25.269	-64.453	-80.26	2.17	-122.78	-92.414	-51.450	-4.508	-0.49805	0.26859	-0.54849	0.61551	29.6	13111	100
2025-3-27 14:45:19.925	WT901BLE68-01(48591DE3C19B)	-0.267	-0.994	0.221	-19.409	23.499	-66.101	-80.45	1.63	-123.04	-92.414	-51.450	-4.508	-0.49805	0.26859	-0.54849	0.61551	29.6	13111	100
2025-3-27 14:45:19.926	WT901BLE68-01(48591DE3C19B)	-0.278	-0.994	0.221	-19.409	23.499	-66.101	-80.65	1.09	-123.28	-92.414	-51.450	-4.508	-0.49805	0.26859	-0.54849	0.61551	29.6	13111	100
2025-3-27 14:45:19.926	WT901BLE68-01(48591DE3C19B)	-0.278	-1.008	0.229	-20.813	20.874	-67.505	-80.84	0.54	-123.51	-92.414	-51.450	-4.508	-0.49805	0.26859	-0.54849	0.61551	29.6	13111	100
2025-3-27 14:45:19.926	WT901BLE68-01(48591DE3C19B)	-0.285	-1.008	0.229	-20.813	20.874	-67.505	-81.04	0.00	-123.73	-92.414	-51.450	-4.508	-0.49805	0.26859	-0.54849	0.61551	29.6	13111	100
2025-3-27 14:45:19.926	WT901BLE68-01(48591DE3C19B)	-0.285	-1.005	0.256	-23.621	17.883	-68.481	-81.24	-0.55	-123.93	-92.414	-51.450	-4.508	-0.49805	0.26859	-0.54849	0.61551	29.6	13111	100
2025-3-27 14:45:19.927	WT901BLE68-01(48591DE3C19B)	-0.292	-1.005	0.256	-23.621	17.883	-68.481	-81.46	-1.12	-124.12	-92.414	-51.450	-4.508	-0.49805	0.26859	-0.54849	0.61551	29.6	13111	100
2025-3-27 14:45:19.927	WT901BLE68-01(48591DE3C19B)	-0.292	-0.990	0.276	-25.330	14.587	-68.115	-81.68	-1.68	-124.29	-92.414	-51.450	-4.508	-0.49805	0.26859	-0.54849	0.61551	29.6	13111	100
2025-3-27 14:45:19.927	WT901BLE68-01(48591DE3C19B)	-0.296	-0.990	0.276	-25.330	14.587	-68.115	-81.90	-2.22	-124.44	-92.414	-51.450	-4.508	-0.49805	0.26859	-0.54849	0.61551	29.6	13111	100
2025-3-27 14:45:19.927	WT901BLE68-01(48591DE3C19B)	-0.296	-0.947	0.292	-26.917	10.681	-66.223	-82.13	-2.77	-124.57	-92.414	-51.450	-4.508	-0.49805	0.26859	-0.54849	0.61551	29.6	13111	100
2025-3-27 14:45:19.928	WT901BLE68-01(48591DE3C19B)	-0.300	-0.947	0.292	-26.917	10.681	-66.223	-82.37	-3.30	-124.69	-92.414	-51.450	-4.508	-0.49805	0.26859	-0.54849	0.61551	29.6	13111	100
2025-3-27 14:45:19.928	WT901BLE68-01(48591DE3C19B)	-0.300	-0.927	0.303	-28.564	5.676	-62.500	-82.61	-3.81	-124.77	-92.414	-51.450	-4.508	-0.49805	0.26859	-0.54849	0.61551	29.6	13111	100
2025-3-27 14:45:19.928	WT901BLE68-01(48591DE3C19B)	-0.310	-0.927	0.303	-28.564	5.676	-62.500	-82.85	-4.31	-124.83	-92.414	-51.450	-4.508	-0.49805	0.26859	-0.54849	0.61551	29.6	13111	100
2025-3-27 14:45:19.928	WT901BLE68-01(48591DE3C19B)	-0.310	-0.939	0.321	-29.907	-1.099	-57.495	-83.11	-4.77	-124.86	-92.414	-51.450	-4.508	-0.49805	0.26859	-0.54849	0.61551	29.6	13111	100
2025-3-27 14:45:19.929	WT901BLE68-01(48591DE3C19B)	-0.303	-0.939	0.321	-29.907	-1.099	-57.495	-83.36	-5.22	-124.85	-92.414	-51.450	-4.508	-0.49805	0.26859	-0.54849	0.61551	29.6	13111	100
2025-3-27 14:45:19.929	WT901BLE68-01(48591DE3C19B)	-0.303	-1.081	0.343	-26.428	-13.367	-40.771	-84.62	-7.05	-124.31	-92.414	-51.450	-4.508	-0.49805	0.26859	-0.54849	0.61551	29.6	13111	100
2025-3-27 14:45:19.929	WT901BLE68-01(48591DE3C19B)	-0.296	-1.081	0.343	-26.428	-13.367	-40.771	-84.84	-7.32	-124.17	-92.414	-51.450	-4.508	-0.49805	0.26859	-0.54849	0.61551	29.6	13111	100
2025-3-27 14:45:19.929	WT901BLE68-01(48591DE3C19B)	-0.296	-1.103	0.339	-22.400	-12.329	-36.133	-85.04	-7.58	-124.02	-92.414	-51.450	-4.508	-0.30518	0.36066	-0.57254	0.66998	29.6	13111	100
2025-3-27 14:45:19.930	WT901BLE68-01(48591DE3C19B)	-0.286	-1.103	0.339	-22.400	-12.329	-36.133	-85.22	-7.80	-123.88	-74.872	-52.724	-11.564	-0.30518	0.36066	-0.57254	0.66998	29.6	13111	100
2025-3-27 14:45:19.930	WT901BLE68-01(48591DE3C19B)	-0.286	-1.161	0.354	-21.484	-5.981	-31.372	-85.38	-8.00	-123.78	-74.872	-52.724	-11.564	-0.30518	0.36066	-0.57254	0.66998	29.6	13111	100
2025-3-27 14:45:19.930	WT901BLE68-01(48591DE3C19B)	-0.328	-1.161	0.354	-21.484	-5.981	-31.372	-85.53	-8.17	-123.70	-74.872	-52.724	-11.564	-0.30518	0.36066	-0.57254	0.66998	29.6	13111	100
2025-3-27 14:45:19.930	WT901BLE68-01(48591DE3C19B)	-0.328	-1.236	0.409	-15.320	1.038	-26.306	-85.65	-8.32	-123.65	-74.872	-52.724	-11.564	-0.30518	0.36066	-0.57254	0.66998	29.6	13111	100
2025-3-27 14:45:19.930	WT901BLE68-01(48591DE3C19B)	-0.386	-1.236	0.409	-15.320	1.038	-26.306	-85.74	-8.44	-123.64	-74.872	-52.724	-11.564	-0.30518	0.36066	-0.57254	0.66998	29.6	13111	100
2025-3-27 14:45:19.931	WT901BLE68-01(48591DE3C19B)	-0.386	-1.180	0.471	-8.423	2.258	-20.935	-85.79	-8.53	-123.63	-74.872	-52.724	-11.564	-0.30518	0.36066	-0.57254	0.66998	29.6	13111	100
2025-3-27 14:45:19.931	WT901BLE68-01(48591DE3C19B)	-0.383	-1.180	0.471	-8.423	2.258	-20.935	-85.79	-8.59	-123.63	-74.872	-52.724	-11.564	-0.30518	0.36066	-0.57254	0.66998	29.6	13111	100
2025-3-27 14:45:19.931	WT901BLE68-01(48591DE3C19B)	-0.383	-1.176	0.439	-7.996	-0.183	-9.827	-85.80	-8.60	-123.62	-74.872	-52.724	-11.564	-0.30518	0.36066	-0.57254	0.66998	29.6	13111	100
2025-3-27 14:45:19.992	WT901BLE68-01(48591DE3C19B)	-0.394	-1.176	0.439	-7.996	-0.183	-9.827	-85.80	-8.55	-123.59	-74.872	-52.724	-11.564	-0.30518	0.36066	-0.57254	0.66998	29.6	13111	100
2025-3-27 14:45:19.992	WT901BLE68-01(48591DE3C19B)	-0.394	-1.197	0.388	4.578	-6.531	6.897	-85.74	-8.42	-123.53	-74.872	-52.724	-11.564	-0.30518	0.36066	-0.57254	0.66998	29.6	13111	100
2025-3-27 14:45:19.992	WT901BLE68-01(48591DE3C19B)	-0.416	-1.197	0.388	4.578	-6.531	6.897	-85.63	-8.20	-123.43	-74.872	-52.724	-11.564	-0.30518	0.36066	-0.57254	0.66998	29.6	13111	100
2025-3-27 14:45:19.993	WT901BLE68-01(48591DE3C19B)	-0.416	-1.076	0.355	21.729	-12.939	28.625	-85.45	-7.88	-123.28	-74.872	-52.724	-11.564	-0.30518	0.36066	-0.57254	0.66998	29.6	13111	100
2025-3-27 14:45:20.15	WT901BLE68-01(48591DE3C19B)	-0.396	-1.076	0.355	21.729	-12.939	28.625	-85.18	-7.47	-123.10	-74.872	-52.724	-11.564	-0.30518	0.36066	-0.57254	0.66998	29.6	13111	100
2025-3-27 14:45:20.15	WT901BLE68-01(48591DE3C19B)	-0.396	-0.871	0.309	34.119	-19.348	55.969	-84.85	-6.91	-122.87	-74.872	-52.724	-11.564	-0.30518	0.36066	-0.57254	0.66998	29.6	13111	100
2025-3-27 14:45:20.16	WT901BLE68-01(48591DE3C19B)	-0.330	-0.871	0.309	34.119	-19.348	55.969	-84.46	-6.22	-122.60	-74.872	-52.724	-11.564	-0.30518	0.36066	-0.57254	0.66998	29.6	13111	100
2025-3-27 14:45:20.16	WT901BLE68-01(48591DE3C19B)	-0.330	-0.714	0.244	36.682	-22.827	84.045	-84.07	-5.41	-122.29	-74.872	-52.724	-11.564	-0.30518	0.36066	-0.57254	0.66998	29.6	13111	100
2025-3-27 14:45:20.75	WT901BLE68-01(48591DE3C19B)	-0.299	-0.714	0.244	36.682	-22.827	84.045	-83.67	-4.45	-121.96	-74.872	-52.724	-11.564	-0.30518	0.36066	-0.57254	0.66998	29.6	13111	100
2025-3-27 14:45:20.76	WT901BLE68-01(48591DE3C19B)	-0.299	-0.681	0.202	33.997	-24.109	109.070	-83.27	-3.38	-121.59	-74.872	-52.724	-11.564	-0.35205	0.34033	-0.56918	0.66040	29.6	13111	100
2025-3-27 14:45:20.76	WT901BLE68-01(48591DE3C19B)	-0.325	-0.681	0.202	33.997	-24.109	109.070	-82.89	-2.20	-121.20	-74.872	-52.724	-11.564	-0.35205	0.34033	-0.56918	0.66040	29.6	13111	100
2025-3-27 14:45:20.76	WT901BLE68-01(48591DE3C19B)	-0.325	-0.727	0.192	35.583	-29.358	131.653	-82.50	-0.92	-120.76	-74.872	-52.724	-11.564	-0.35205	0.34033	-0.56918	0.66040	29.6	13111	100
2025-3-27 14:45:20.105	WT901BLE68-01(48591DE3C19B)	-0.380	-0.727	0.192	35.583	-29.358	131.653	-82.08	0.46	-120.27	-74.872	-52.724	-11.564	-0.35205	0.34033	-0.56918	0.66040	29.6	13111	100
2025-3-27 14:45:20.105	WT901BLE68-01(48591DE3C19B)	-0.380	-0.860	0.246	32.837	-40.039	148.926	-81.68	1.91	-119.70	-74.872	-52.724	-11.564	-0.35205	0.34033	-0.56918	0.66040	29.6	13111	100
2025-3-27 14:45:20.105	WT901BLE68-01(48591DE3C19B)	-0.453	-0.860	0.246	32.837	-40.039	148.926	-81.28	3.43	-119.06	-74.872	-52.724	-11.564	-0.35205	0.34033	-0.56918	0.66040	29.6	13111	100
2025-3-27 14:45:20.105	WT901BLE68-01(48591DE3C19B)	-0.453	-1.141	0.246	29.846	-52.490	157.898	-80.86	4.97	-118.34	-74.872	-52.724	-11.564	-0.35205	0.34033	-0.56918	0.66040	29.6	13111	100
2025-3-27 14:45:20.135	WT901BLE68-01(48591DE3C19B)	-0.842	-1.141	0.246	29.846	-52.490	157.898	-80.45	6.53	-117.53	-74.872	-52.724	-11.564	-0.35205	0.34033	-0.56918	0.66040	29.6	13111	100
2025-3-27 14:45:20.135	WT901BLE68-01(48591DE3C19B)	-3.368	-2.707	0.346	41.138	-62.805	159.607	-79.90	8.07	-116.60	-74.872	-52.724	-11.564	-0.35205	0.34033	-0.56918	0.66040	29.6	13111	100
2025-3-27 14:45:20.135	WT901BLE68-01(48591DE3C19B)	-0.370	-10.826	1.385	41.138	-62.805	159.607	-79.34	9.59	-115.64	-74.872	-52.724	-11.564	-0.35205	0.34033	-0.56918	0.66040	29.6	13111	100
2025-3-27 14:45:20.135	WT901BLE68-01(48591DE3C19B)	-0.370	-1.446	0.126	50.598	-60.669	158.325	-78.67	11.07	-114.67	-74.872	-52.724	-11.564	-0.35205	0.34033	-0.56918	0.66040	29.6	13111	100
2025-3-27 14:45:20.225	WT901BLE68-01(48591DE3C19B)	-0.390	-1.446	0.126	50.598	-60.669	158.325	-77.99	12.54	-113.68	-74.872	-52.724	-11.564	-0.35205	0.34033	-0.56918	0.66040	29.6	13111	100
2025-3-27 14:45:20.225	WT901BLE68-01(48591DE3C19B)	-0.390	-1.488	0.114	58.228	-57.739	152.222	-77.21	13.93	-112.71	-74.872	-52.724	-11.564	-0.35205	0.34033	-0.56918	0.66040	29.6	13111	100
2025-3-27 14:45:20.225	WT901BLE68-01(48591DE3C19B)	-0.386	-1.488	0.114	58.228	-57.739	152.222	-76.42	15.29	-111.71	-74.872	-52.724	-11.564	-0.35205	0.34033	-0.56918	0.66040	29.6	13111	100
2025-3-27 14:45:20.225	WT901BLE68-01(48591DE3C19B)	-0.386	-1.430	0.180	63.354	-56.885	145.264	-75.56	16.57	-110.72	-74.872	-52.724	-11.564	-0.35205	0.34033	-0.56918	0.66040	29.6	13111	100
2025-3-27 14:45:20.226	WT901BLE68-01(48591DE3C19B)	-0.387	-1.430	0.180	63.354	-56.885	145.264	-74.67	17.82	-109.70	-74.872	-52.724	-11.564	-0.35205	0.34033	-0.56918	0.66040	29.6	13111	100
2025-3-27 14:45:20.226	WT901BLE68-01(48591DE3C19B)	-0.387	-1.377	0.203	63.965	-57.251	141.663	-73.76	19.01	-108.67	-74.872	-52.724	-11.564	-0.35205	0.34033	-0.56918	0.66040	29.6	13111	100
2025-3-27 14:45:20.226	WT901BLE68-01(48591DE3C19B)	-0.318	-1.377	0.203	63.965	-57.251	141.663	-72.83	20.18	-107.61	-74.872	-52.724	-11.564	-0.35205	0.34033	-0.56918	0.66040	29.6	13111	100
2025-3-27 14:45:20.226	WT901BLE68-01(48591DE3C19B)	-0.318	-1.274	0.163	65.125	-52.856	139.526	-71.88	21.32	-106.57	-74.872	-52.724	-11.564	-0.35205	0.34033	-0.56918	0.66040	29.6	13111	100
2025-3-27 14:45:20.253	WT901BLE68-01(48591DE3C19B)	-0.269	-1.274	0.163	65.125	-52.856	139.526	-70.91	22.44	-105.51	-74.872	-52.724	-11.564	-0.35205	0.34033	-0.56918	0.66040	29.6	13111	100
2025-3-27 14:45:20.254	WT901BLE68-01(48591DE3C19B)	-0.269	-1.174	0.110	65.491	-42.053	141.357	-69.95	23.58	-104.53	-74.872	-52.724	-11.564	-0.35205	0.34033	-0.56918	0.66040	29.6	13111	100
2025-3-27 14:45:20.254	WT901BLE68-01(48591DE3C19B)	-0.249	-1.174	0.110	65.491	-42.053	141.357	-68.97	24.70	-103.52	-94.276	-48.510	-2.352	-0.35205	0.34033	-0.56918	0.66040	29.6	13111	100
2025-3-27 14:45:20.254	WT901BLE68-01(48591DE3C19B)	-0.249	-1.086	0.088	63.416	-33.020	142.883	-68.03	25.85	-102.57	-94.276	-48.510	-2.352	-0.35205	0.34033	-0.56918	0.66040	29.6	13111	100
2025-3-27 14:45:20.315	WT901BLE68-01(48591DE3C19B)	-0.245	-1.086	0.088	63.416	-33.020	142.883	-67.06	26.97	-101.59	-94.276	-48.510	-2.352	-0.35205	0.34033	-0.56918	0.66040	29.6	13111	100
2025-3-27 14:45:20.315	WT901BLE68-01(48591DE3C19B)	-0.245	-1.049	0.102	59.021	-27.161	143.555	-66.14	28.10	-100.65	-94.276	-48.510	-2.352	-0.35205	0.34033	-0.56918	0.66040	29.6	13111	100
2025-3-27 14:45:20.315	WT901BLE68-01(48591DE3C19B)	-0.249	-1.049	0.102	59.021	-27.161	143.555	-65.19	29.21	-99.67	-94.276	-48.510	-2.352	-0.35205	0.34033	-0.56918	0.66040	29.6	13111	100
2025-3-27 14:45:20.315	WT901BLE68-01(48591DE3C19B)	-0.249	-1.050	0.092	56.030	-24.658	142.639	-64.27	30.31	-98.70	-94.276	-48.510	-2.352	-0.35205	0.34033	-0.56918	0.66040	29.6	13111	100
2025-3-27 14:45:20.346	WT901BLE68-01(48591DE3C19B)	-0.223	-1.050	0.092	56.030	-24.658	142.639	-63.32	31.38	-97.70	-94.276	-48.510	-2.352	-0.35205	0.34033	-0.56918	0.66040	29.6	13111	100
2025-3-27 14:45:20.346	WT901BLE68-01(48591DE3C19B)	-0.223	-1.000	0.074	54.443	-23.682	139.343	-62.38	32.40	-96.71	-94.276	-48.510	-2.352	-0.35205	0.34033	-0.56918	0.66040	29.6	13111	100
2025-3-27 14:45:20.346	WT901BLE68-01(48591DE3C19B)	-0.192	-1.000	0.074	54.443	-23.682	139.343	-61.41	33.40	-95.69	-94.276	-48.510	-2.352	-0.35205	0.34033	-0.56918	0.66040	29.6	13111	100
2025-3-27 14:45:20.346	WT901BLE68-01(48591DE3C19B)	-0.192	-0.932	0.079	50.232	-20.020	133.972	-60.50	34.36	-94.70	-94.276	-48.510	-2.352	-0.35205	0.34033	-0.56918	0.66040	29.6	13111	100
2025-3-27 14:45:20.405	WT901BLE68-01(48591DE3C19B)	-0.170	-0.932	0.079	50.232	-20.020	133.972	-59.57	35.30	-93.70	-94.276	-48.510	-2.352	-0.35205	0.34033	-0.56918	0.66040	29.6	13111	100
2025-3-27 14:45:20.405	WT901BLE68-01(48591DE3C19B)	-0.170	-0.927	0.115	43.457	-15.198	127.136	-58.73	36.18	-92.76	-94.276	-48.510	-2.352	-0.35205	0.34033	-0.56918	0.66040	29.6	13111	100
2025-3-27 14:45:20.405	WT901BLE68-01(48591DE3C19B)	-0.128	-0.927	0.115	43.457	-15.198	127.136	-57.88	37.05	-91.81	-94.276	-48.510	-2.352	-0.35205	0.34033	-0.56918	0.66040	29.6	13111	100
2025-3-27 14:45:20.405	WT901BLE68-01(48591DE3C19B)	-0.128	-0.925	0.108	39.734	-10.986	117.615	-57.10	37.84	-90.94	-94.276	-48.510	-2.352	-0.35205	0.34033	-0.56918	0.66040	29.6	13111	100
2025-3-27 14:45:20.434	WT901BLE68-01(48591DE3C19B)	-0.035	-0.925	0.108	39.734	-10.986	117.615	-56.31	38.61	-90.05	-94.276	-48.510	-2.352	-0.35205	0.34033	-0.56918	0.66040	29.6	13111	100
2025-3-27 14:45:20.434	WT901BLE68-01(48591DE3C19B)	-0.035	-0.821	0.076	37.537	-2.869	105.286	-55.63	39.31	-89.32	-94.276	-48.510	-2.352	-0.35205	0.34033	-0.56918	0.66040	29.6	13111	100
2025-3-27 14:45:20.434	WT901BLE68-01(48591DE3C19B)	0.028	-0.821	0.076	37.537	-2.869	105.286	-54.95	40.00	-88.59	-94.276	-48.510	-2.352	-0.35205	0.34033	-0.56918	0.66040	29.6	13111	100
2025-3-27 14:45:20.434	WT901BLE68-01(48591DE3C19B)	0.028	-0.734	0.072	31.738	13.794	92.651	-54.48	40.67	-88.11	-94.276	-48.510	-2.352	-0.35205	0.34033	-0.56918	0.66040	29.6	13111	100
2025-3-27 14:45:20.464	WT901BLE68-01(48591DE3C19B)	0.017	-0.734	0.072	31.738	13.794	92.651	-54.01	41.33	-87.63	-94.276	-48.510	-2.352	-0.35205	0.34033	-0.56918	0.66040	29.6	13111	100
2025-3-27 14:45:20.464	WT901BLE68-01(48591DE3C19B)	0.017	-0.773	0.074	18.555	33.142	81.482	-53.86	41.99	-87.44	-94.276	-48.510	-2.352	-0.35205	0.34033	-0.56918	0.66040	29.6	13111	100
2025-3-27 14:45:20.465	WT901BLE68-01(48591DE3C19B)	-0.016	-0.773	0.074	18.555	33.142	81.482	-53.71	42.65	-87.25	-94.276	-48.510	-2.352	-0.35205	0.34033	-0.56918	0.66040	29.6	13111	100
2025-3-27 14:45:20.465	WT901BLE68-01(48591DE3C19B)	-0.016	-0.883	0.101	8.728	40.833	61.890	-53.82	43.20	-87.31	-94.276	-48.510	-2.352	-0.71478	0.07642	-0.52936	0.45047	29.6	13111	100
2025-3-27 14:45:20.494	WT901BLE68-01(48591DE3C19B)	-0.062	-0.883	0.101	8.728	40.833	61.890	-53.93	43.73	-87.37	-94.276	-48.510	-2.352	-0.71478	0.07642	-0.52936	0.45047	29.6	13111	100
2025-3-27 14:45:20.494	WT901BLE68-01(48591DE3C19B)	-0.062	-1.000	0.131	-0.488	38.879	38.391	-54.26	44.07	-87.62	-94.276	-48.510	-2.352	-0.71478	0.07642	-0.52936	0.45047	29.6	13111	100
2025-3-27 14:45:20.494	WT901BLE68-01(48591DE3C19B)	-0.087	-1.000	0.131	-0.488	38.879	38.391	-54.59	44.39	-87.86	-94.276	-48.510	-2.352	-0.71478	0.07642	-0.52936	0.45047	29.6	13111	100
2025-3-27 14:45:20.494	WT901BLE68-01(48591DE3C19B)	-0.087	-1.118	0.111	-8.240	33.447	13.733	-55.09	44.48	-88.25	-94.276	-48.510	-2.352	-0.71478	0.07642	-0.52936	0.45047	29.6	13111	100
2025-3-27 14:45:20.554	WT901BLE68-01(48591DE3C19B)	-0.083	-1.118	0.111	-8.240	33.447	13.733	-55.60	44.57	-88.64	-94.276	-48.510	-2.352	-0.71478	0.07642	-0.52936	0.45047	29.6	13111	100
2025-3-27 14:45:20.554	WT901BLE68-01(48591DE3C19B)	-0.083	-1.195	0.066	-13.123	30.029	-12.329	-56.26	44.42	-89.20	-94.276	-48.510	-2.352	-0.71478	0.07642	-0.52936	0.45047	29.6	13111	100
2025-3-27 14:45:20.554	WT901BLE68-01(48591DE3C19B)	-0.104	-1.195	0.066	-13.123	30.029	-12.329	-56.93	44.26	-89.76	-94.276	-48.510	-2.352	-0.71478	0.07642	-0.52936	0.45047	29.6	13111	100
2025-3-27 14:45:20.554	WT901BLE68-01(48591DE3C19B)	-0.104	-1.273	0.036	-19.653	29.907	-43.091	-57.81	43.85	-90.54	-94.276	-48.510	-2.352	-0.71478	0.07642	-0.52936	0.45047	29.6	13111	100
2025-3-27 14:45:20.589	WT901BLE68-01(48591DE3C19B)	-0.177	-1.273	0.036	-19.653	29.907	-43.091	-58.68	43.42	-91.31	-94.276	-48.510	-2.352	-0.71478	0.07642	-0.52936	0.45047	29.6	13111	100
2025-3-27 14:45:20.590	WT901BLE68-01(48591DE3C19B)	-0.240	-1.249	0.118	-19.470	24.780	-75.623	-59.63	42.69	-92.22	-94.276	-48.510	-2.352	-0.71478	0.07642	-0.52936	0.45047	29.6	13111	100
2025-3-27 14:45:20.590	WT901BLE68-01(48591DE3C19B)	-0.240	-1.231	0.200	-32.104	15.747	-108.826	-60.66	41.79	-93.16	-94.276	-48.510	-2.352	-0.71478	0.07642	-0.52936	0.45047	29.6	13111	100
2025-3-27 14:45:20.590	WT901BLE68-01(48591DE3C19B)	-0.245	-1.231	0.200	-32.104	15.747	-108.826	-61.73	40.71	-94.11	-94.276	-48.510	-2.352	-0.71478	0.07642	-0.52936	0.45047	29.6	13111	100
2025-3-27 14:45:20.615	WT901BLE68-01(48591DE3C19B)	-0.245	-1.287	0.184	-37.964	6.775	-143.372	-62.82	39.46	-95.07	-94.276	-48.510	-2.352	-0.71478	0.07642	-0.52936	0.45047	29.6	13111	100
2025-3-27 14:45:20.615	WT901BLE68-01(48591DE3C19B)	-0.260	-1.287	0.184	-37.964	6.775	-143.372	-63.91	38.02	-96.02	-94.276	-48.510	-2.352	-0.71478	0.07642	-0.52936	0.45047	29.6	13111	100
2025-3-27 14:45:20.615	WT901BLE68-01(48591DE3C19B)	-0.260	-1.145	0.198	-39.063	6.714	-169.861	-64.99	36.47	-96.98	-94.276	-48.510	-2.352	-0.71478	0.07642	-0.52936	0.45047	29.6	13111	100
2025-3-27 14:45:20.615	WT901BLE68-01(48591DE3C19B)	-0.289	-1.145	0.198	-39.063	6.714	-169.861	-66.04	34.79	-97.94	-94.276	-48.510	-2.352	-0.71478	0.07642	-0.52936	0.45047	29.6	13111	100
2025-3-27 14:45:20.674	WT901BLE68-01(48591DE3C19B)	-0.289	-1.030	0.200	-45.654	9.766	-187.561	-67.10	33.04	-98.90	-94.276	-48.510	-2.352	-0.71478	0.07642	-0.52936	0.45047	29.6	13111	100
2025-3-27 14:45:20.674	WT901BLE68-01(48591DE3C19B)	-0.254	-1.030	0.200	-45.654	9.766	-187.561	-68.16	31.20	-99.86	-100.744	-38.710	0.000	-0.71478	0.07642	-0.52936	0.45047	29.6	13111	100
2025-3-27 14:45:20.674	WT901BLE68-01(48591DE3C19B)	-0.254	-0.945	0.204	-48.584	13.977	-194.397	-69.19	29.34	-100.79	-100.744	-38.710	0.000	-0.71478	0.07642	-0.52936	0.45047	29.6	13111	100
2025-3-27 14:45:20.674	WT901BLE68-01(48591DE3C19B)	-0.201	-0.945	0.204	-48.584	13.977	-194.397	-70.18	27.46	-101.67	-100.744	-38.710	0.000	-0.71478	0.07642	-0.52936	0.45047	29.6	13111	100
2025-3-27 14:45:20.705	WT901BLE68-01(48591DE3C19B)	-0.201	-0.907	0.209	-58.044	21.423	-192.444	-71.17	25.60	-102.53	-100.744	-38.710	0.000	-0.71478	0.07642	-0.52936	0.45047	29.6	13111	100
2025-3-27 14:45:20.705	WT901BLE68-01(48591DE3C19B)	-0.176	-0.907	0.209	-58.044	21.423	-192.444	-72.18	23.76	-103.38	-100.744	-38.710	0.000	-0.71478	0.07642	-0.52936	0.45047	29.6	13111	100
2025-3-27 14:45:20.706	WT901BLE68-01(48591DE3C19B)	-0.176	-1.039	0.152	-69.397	28.503	-185.486	-73.20	21.95	-104.19	-100.744	-38.710	0.000	-0.71478	0.07642	-0.52936	0.45047	29.6	13111	100
2025-3-27 14:45:20.706	WT901BLE68-01(48591DE3C19B)	-0.118	-1.039	0.152	-69.397	28.503	-185.486	-74.23	20.19	-104.99	-100.744	-38.710	0.000	-0.71478	0.07642	-0.52936	0.45047	29.6	13111	100
2025-3-27 14:45:20.734	WT901BLE68-01(48591DE3C19B)	-0.118	-1.196	0.099	-68.359	30.090	-181.641	-75.23	18.44	-105.74	-100.744	-38.710	0.000	-0.71478	0.07642	-0.52936	0.45047	29.6	13111	100
2025-3-27 14:45:20.734	WT901BLE68-01(48591DE3C19B)	-0.121	-1.196	0.099	-68.359	30.090	-181.641	-76.17	16.71	-106.45	-100.744	-38.710	0.000	-0.71478	0.07642	-0.52936	0.45047	29.6	13111	100
2025-3-27 14:45:20.734	WT901BLE68-01(48591DE3C19B)	-0.121	-1.296	0.109	-65.125	37.659	-176.636	-77.08	15.01	-107.16	-100.744	-38.710	0.000	-0.71478	0.07642	-0.52936	0.45047	29.6	13111	100
2025-3-27 14:45:20.735	WT901BLE68-01(48591DE3C19B)	-0.241	-1.296	0.109	-65.125	37.659	-176.636	-77.95	13.33	-107.86	-100.744	-38.710	0.000	-0.71478	0.07642	-0.52936	0.45047	29.6	13111	100
2025-3-27 14:45:20.794	WT901BLE68-01(48591DE3C19B)	-0.241	-1.372	0.154	-61.890	44.556	-176.575	-78.77	11.66	-108.56	-100.744	-38.710	0.000	-0.71478	0.07642	-0.52936	0.45047	29.6	13111	100
2025-3-27 14:45:20.794	WT901BLE68-01(48591DE3C19B)	-0.359	-1.372	0.154	-61.890	44.556	-176.575	-79.56	10.00	-109.27	-100.744	-38.710	0.000	-0.71478	0.07642	-0.52936	0.45047	29.6	13111	100
2025-3-27 14:45:20.794	WT901BLE68-01(48591DE3C19B)	-0.359	-1.361	0.213	-57.068	43.091	-181.458	-80.29	8.32	-109.95	-100.744	-38.710	0.000	-0.71478	0.07642	-0.52936	0.45047	29.6	13111	100
2025-3-27 14:45:20.794	WT901BLE68-01(48591DE3C19B)	-0.397	-1.361	0.213	-57.068	43.091	-181.458	-80.97	6.61	-110.59	-100.744	-38.710	0.000	-0.71478	0.07642	-0.52936	0.45047	29.6	13111	100
2025-3-27 14:45:20.826	WT901BLE68-01(48591DE3C19B)	-0.397	-1.254	0.263	-54.565	39.490	-184.937	-81.61	4.89	-111.20	-100.744	-38.710	0.000	-0.71478	0.07642	-0.52936	0.45047	29.6	13111	100
2025-3-27 14:45:20.826	WT901BLE68-01(48591DE3C19B)	-0.394	-1.254	0.263	-54.565	39.490	-184.937	-82.20	3.16	-111.78	-100.744	-38.710	0.000	-0.71478	0.07642	-0.52936	0.45047	29.6	13111	100
2025-3-27 14:45:20.826	WT901BLE68-01(48591DE3C19B)	-0.394	-1.157	0.269	-53.955	35.156	-186.951	-82.77	1.43	-112.31	-100.744	-38.710	0.000	-0.71478	0.07642	-0.52936	0.45047	29.6	13111	100
2025-3-27 14:45:20.826	WT901BLE68-01(48591DE3C19B)	-0.365	-1.157	0.269	-53.955	35.156	-186.951	-83.31	-0.31	-112.82	-100.744	-38.710	0.000	-0.71478	0.07642	-0.52936	0.45047	29.6	13111	100
2025-3-27 14:45:20.854	WT901BLE68-01(48591DE3C19B)	-0.365	-1.088	0.248	-53.833	29.663	-186.279	-83.83	-2.04	-113.28	-100.744	-38.710	0.000	-0.71478	0.07642	-0.52936	0.45047	29.6	13111	100
2025-3-27 14:45:20.854	WT901BLE68-01(48591DE3C19B)	-0.355	-1.088	0.248	-53.833	29.663	-186.279	-84.33	-3.76	-113.70	-100.744	-38.710	0.000	-0.71478	0.07642	-0.52936	0.45047	29.6	13111	100
2025-3-27 14:45:20.854	WT901BLE68-01(48591DE3C19B)	-0.355	-1.081	0.236	-54.871	28.076	-180.969	-84.82	-5.44	-114.10	-100.744	-38.710	0.000	-0.37424	0.39581	-0.54620	0.63626	29.6	13111	100
2025-3-27 14:45:20.854	WT901BLE68-01(48591DE3C19B)	-0.364	-1.081	0.236	-54.871	28.076	-180.969	-85.30	-7.09	-114.47	-100.744	-38.710	0.000	-0.37424	0.39581	-0.54620	0.63626	29.6	13111	100
2025-3-27 14:45:20.913	WT901BLE68-01(48591DE3C19B)	-0.364	-1.099	0.249	-52.551	28.564	-174.622	-85.75	-8.71	-114.84	-100.744	-38.710	0.000	-0.37424	0.39581	-0.54620	0.63626	29.6	13111	100
2025-3-27 14:45:20.914	WT901BLE68-01(48591DE3C19B)	-0.359	-1.099	0.249	-52.551	28.564	-174.622	-86.18	-10.28	-115.20	-100.744	-38.710	0.000	-0.37424	0.39581	-0.54620	0.63626	29.6	13111	100
2025-3-27 14:45:20.914	WT901BLE68-01(48591DE3C19B)	-0.359	-1.092	0.272	-47.974	32.593	-165.527	-86.58	-11.79	-115.57	-100.744	-38.710	0.000	-0.37424	0.39581	-0.54620	0.63626	29.6	13111	100
2025-3-27 14:45:20.914	WT901BLE68-01(48591DE3C19B)	-0.358	-1.092	0.272	-47.974	32.593	-165.527	-86.93	-13.26	-115.95	-100.744	-38.710	0.000	-0.37424	0.39581	-0.54620	0.63626	29.6	13111	100
2025-3-27 14:45:20.944	WT901BLE68-01(48591DE3C19B)	-0.358	-1.087	0.256	-44.739	41.077	-152.222	-87.24	-14.64	-116.37	-100.744	-38.710	0.000	-0.37424	0.39581	-0.54620	0.63626	29.6	13111	100
2025-3-27 14:45:20.944	WT901BLE68-01(48591DE3C19B)	-0.381	-1.087	0.256	-44.739	41.077	-152.222	-87.52	-15.95	-116.82	-100.744	-38.710	0.000	-0.37424	0.39581	-0.54620	0.63626	29.6	13111	100
2025-3-27 14:45:20.944	WT901BLE68-01(48591DE3C19B)	-0.381	-1.092	0.255	-37.964	48.523	-138.123	-87.74	-17.19	-117.31	-100.744	-38.710	0.000	-0.37424	0.39581	-0.54620	0.63626	29.6	13111	100
2025-3-27 14:45:20.945	WT901BLE68-01(48591DE3C19B)	-0.409	-1.092	0.255	-37.964	48.523	-138.123	-87.90	-18.34	-117.83	-100.744	-38.710	0.000	-0.37424	0.39581	-0.54620	0.63626	29.6	13111	100
2025-3-27 14:45:20.974	WT901BLE68-01(48591DE3C19B)	-0.409	-1.074	0.292	-30.396	53.162	-122.070	-88.01	-19.41	-118.38	-100.744	-38.710	0.000	-0.37424	0.39581	-0.54620	0.63626	29.6	13111	100
2025-3-27 14:45:20.974	WT901BLE68-01(48591DE3C19B)	-0.419	-1.074	0.292	-30.396	53.162	-122.070	-88.05	-20.39	-118.96	-100.744	-38.710	0.000	-0.37424	0.39581	-0.54620	0.63626	29.6	13111	100
2025-3-27 14:45:20.974	WT901BLE68-01(48591DE3C19B)	-0.419	-1.028	0.340	-20.996	58.899	-102.539	-88.03	-21.26	-119.57	-100.744	-38.710	0.000	-0.37424	0.39581	-0.54620	0.63626	29.6	13111	100
2025-3-27 14:45:20.974	WT901BLE68-01(48591DE3C19B)	-0.421	-1.028	0.340	-20.996	58.899	-102.539	-87.93	-22.03	-120.22	-100.744	-38.710	0.000	-0.37424	0.39581	-0.54620	0.63626	29.6	13111	100
2025-3-27 14:45:21.35	WT901BLE68-01(48591DE3C19B)	-0.421	-0.934	0.347	-11.169	66.833	-79.468	-87.76	-22.68	-120.91	-100.744	-38.710	0.000	-0.37424	0.39581	-0.54620	0.63626	29.6	13111	100
2025-3-27 14:45:21.35	WT901BLE68-01(48591DE3C19B)	-0.444	-0.934	0.347	-11.169	66.833	-79.468	-87.52	-23.20	-121.65	-100.744	-38.710	0.000	-0.37424	0.39581	-0.54620	0.63626	29.6	13111	100
2025-3-27 14:45:21.36	WT901BLE68-01(48591DE3C19B)	-0.444	-0.877	0.333	-11.536	70.251	-57.312	-87.26	-23.59	-122.42	-100.744	-38.710	0.000	-0.37424	0.39581	-0.54620	0.63626	29.6	13111	100
2025-3-27 14:45:21.36	WT901BLE68-01(48591DE3C19B)	-0.479	-0.877	0.333	-11.536	70.251	-57.312	-86.98	-23.87	-123.20	-100.744	-38.710	0.000	-0.37424	0.39581	-0.54620	0.63626	29.6	13111	100
2025-3-27 14:45:21.64	WT901BLE68-01(48591DE3C19B)	-0.479	-0.945	0.337	-13.245	64.453	-37.598	-86.75	-23.96	-123.91	-100.744	-38.710	0.000	-0.37424	0.39581	-0.54620	0.63626	29.6	13111	100
2025-3-27 14:45:21.64	WT901BLE68-01(48591DE3C19B)	-0.536	-0.945	0.337	-13.245	64.453	-37.598	-86.52	-24.03	-124.63	-100.744	-38.710	0.000	-0.37424	0.39581	-0.54620	0.63626	29.6	13111	100
2025-3-27 14:45:21.64	WT901BLE68-01(48591DE3C19B)	-0.536	-1.031	0.349	-7.690	51.331	-17.212	-86.30	-23.90	-125.21	-100.744	-38.710	0.000	-0.37424	0.39581	-0.54620	0.63626	29.6	13111	100
2025-3-27 14:45:21.64	WT901BLE68-01(48591DE3C19B)	-0.593	-1.031	0.349	-7.690	51.331	-17.212	-86.07	-23.77	-125.77	-63.504	-49.098	-11.172	-0.37424	0.39581	-0.54620	0.63626	29.6	13111	100
2025-3-27 14:45:21.93	WT901BLE68-01(48591DE3C19B)	-0.593	-1.122	0.354	-4.639	34.607	2.075	-85.90	-23.46	-126.15	-63.504	-49.098	-11.172	-0.37424	0.39581	-0.54620	0.63626	29.6	13111	100
2025-3-27 14:45:21.93	WT901BLE68-01(48591DE3C19B)	-0.614	-1.122	0.354	-4.639	34.607	2.075	-85.73	-23.14	-126.51	-63.504	-49.098	-11.172	-0.37424	0.39581	-0.54620	0.63626	29.6	13111	100
2025-3-27 14:45:21.93	WT901BLE68-01(48591DE3C19B)	-0.614	-1.280	0.346	-1.404	20.935	21.912	-85.59	-22.64	-126.72	-63.504	-49.098	-11.172	-0.37424	0.39581	-0.54620	0.63626	29.6	13111	100
2025-3-27 14:45:21.93	WT901BLE68-01(48591DE3C19B)	-0.593	-1.280	0.346	-1.404	20.935	21.912	-85.46	-22.13	-126.93	-63.504	-49.098	-11.172	-0.37424	0.39581	-0.54620	0.63626	29.6	13111	100
2025-3-27 14:45:21.154	WT901BLE68-01(48591DE3C19B)	-0.593	-1.386	0.334	12.939	14.099	45.776	-85.23	-21.40	-127.03	-63.504	-49.098	-11.172	-0.37424	0.39581	-0.54620	0.63626	29.6	13111	100
2025-3-27 14:45:21.154	WT901BLE68-01(48591DE3C19B)	-0.557	-1.386	0.334	12.939	14.099	45.776	-85.01	-20.68	-127.13	-63.504	-49.098	-11.172	-0.37424	0.39581	-0.54620	0.63626	29.6	13111	100
2025-3-27 14:45:21.155	WT901BLE68-01(48591DE3C19B)	-0.278	-1.392	0.339	19.592	6.958	71.960	-84.76	-19.70	-127.12	-63.504	-49.098	-11.172	-0.37424	0.39581	-0.54620	0.63626	29.6	13111	100
2025-3-27 14:45:21.155	WT901BLE68-01(48591DE3C19B)	-0.534	-0.696	0.169	19.592	6.958	71.960	-84.51	-18.73	-127.10	-63.504	-49.098	-11.172	-0.37424	0.39581	-0.54620	0.63626	29.6	13111	100
2025-3-27 14:45:21.190	WT901BLE68-01(48591DE3C19B)	-0.534	-1.471	0.388	22.705	-4.333	100.830	-84.29	-17.48	-126.93	-63.504	-49.098	-11.172	-0.37424	0.39581	-0.54620	0.63626	29.6	13111	100
2025-3-27 14:45:21.190	WT901BLE68-01(48591DE3C19B)	-0.456	-1.471	0.388	22.705	-4.333	100.830	-84.06	-16.26	-126.75	-63.504	-49.098	-11.172	-0.37424	0.39581	-0.54620	0.63626	29.6	13111	100
2025-3-27 14:45:21.190	WT901BLE68-01(48591DE3C19B)	-0.456	-1.360	0.414	39.978	-13.672	129.761	-83.69	-14.76	-126.44	-63.504	-49.098	-11.172	-0.37424	0.39581	-0.54620	0.63626	29.6	13111	100
2025-3-27 14:45:21.191	WT901BLE68-01(48591DE3C19B)	-0.335	-1.360	0.414	39.978	-13.672	129.761	-83.33	-13.28	-126.11	-63.504	-49.098	-11.172	-0.37424	0.39581	-0.54620	0.63626	29.6	13111	100
2025-3-27 14:45:21.247	WT901BLE68-01(48591DE3C19B)	-0.335	-1.029	0.363	50.293	-12.268	162.292	-82.85	-11.49	-125.76	-63.504	-49.098	-11.172	-0.37424	0.39581	-0.54620	0.63626	29.6	13111	100
2025-3-27 14:45:21.247	WT901BLE68-01(48591DE3C19B)	-0.311	-1.029	0.363	50.293	-12.268	162.292	-82.38	-9.71	-125.38	-63.504	-49.098	-11.172	-0.37424	0.39581	-0.54620	0.63626	29.6	13111	100
2025-3-27 14:45:21.247	WT901BLE68-01(48591DE3C19B)	-0.311	-0.861	0.252	41.992	-9.583	193.054	-81.97	-7.63	-124.98	-63.504	-49.098	-11.172	-0.37424	0.39581	-0.54620	0.63626	29.6	13111	100
2025-3-27 14:45:21.247	WT901BLE68-01(48591DE3C19B)	-0.356	-0.861	0.252	41.992	-9.583	193.054	-81.56	-5.58	-124.57	-63.504	-49.098	-11.172	-0.37424	0.39581	-0.54620	0.63626	29.6	13111	100
2025-3-27 14:45:21.276	WT901BLE68-01(48591DE3C19B)	-0.356	-0.954	0.145	26.794	-20.874	213.623	-81.30	-3.35	-124.00	-63.504	-49.098	-11.172	-0.37424	0.39581	-0.54620	0.63626	29.6	13111	100
2025-3-27 14:45:21.276	WT901BLE68-01(48591DE3C19B)	-0.381	-0.954	0.145	26.794	-20.874	213.623	-81.03	-1.13	-123.41	-63.504	-49.098	-11.172	-0.37424	0.39581	-0.54620	0.63626	29.6	13111	100
2025-3-27 14:45:21.276	WT901BLE68-01(48591DE3C19B)	-0.381	-1.178	0.106	27.588	-47.607	228.455	-80.73	1.16	-122.53	-63.504	-49.098	-11.172	-0.37424	0.39581	-0.54620	0.63626	29.6	13111	100
2025-3-27 14:45:21.276	WT901BLE68-01(48591DE3C19B)	-0.410	-1.178	0.106	27.588	-47.607	228.455	-80.41	3.44	-121.62	-63.504	-49.098	-11.172	-0.39874	0.29047	-0.57535	0.65228	29.6	13111	100
2025-3-27 14:45:21.306	WT901BLE68-01(48591DE3C19B)	-0.410	-1.454	0.086	26.550	-81.909	235.901	-80.04	5.71	-120.34	-63.504	-49.098	-11.172	-0.39874	0.29047	-0.57535	0.65228	29.6	13111	100
2025-3-27 14:45:21.307	WT901BLE68-01(48591DE3C19B)	-0.371	-1.454	0.086	26.550	-81.909	235.901	-79.63	7.96	-119.04	-63.504	-49.098	-11.172	-0.39874	0.29047	-0.57535	0.65228	29.6	13111	100
2025-3-27 14:45:21.307	WT901BLE68-01(48591DE3C19B)	-0.371	-1.722	0.036	40.771	-110.474	236.450	-78.99	10.13	-117.42	-63.504	-49.098	-11.172	-0.39874	0.29047	-0.57535	0.65228	29.6	13111	100
2025-3-27 14:45:21.307	WT901BLE68-01(48591DE3C19B)	-0.298	-1.722	0.036	40.771	-110.474	236.450	-78.30	12.27	-115.76	-63.504	-49.098	-11.172	-0.39874	0.29047	-0.57535	0.65228	29.6	13111	100
2025-3-27 14:45:21.364	WT901BLE68-01(48591DE3C19B)	-0.298	-1.796	0.021	61.218	-122.559	231.934	-77.32	14.29	-113.94	-63.504	-49.098	-11.172	-0.39874	0.29047	-0.57535	0.65228	29.6	13111	100
2025-3-27 14:45:21.364	WT901BLE68-01(48591DE3C19B)	-0.285	-1.796	0.021	61.218	-122.559	231.934	-76.27	16.26	-112.08	-63.504	-49.098	-11.172	-0.39874	0.29047	-0.57535	0.65228	29.6	13111	100
2025-3-27 14:45:21.365	WT901BLE68-01(48591DE3C19B)	-0.285	-1.676	0.078	74.829	-120.117	220.764	-75.05	18.08	-110.21	-63.504	-49.098	-11.172	-0.39874	0.29047	-0.57535	0.65228	29.6	13111	100
2025-3-27 14:45:21.365	WT901BLE68-01(48591DE3C19B)	-0.304	-1.676	0.078	74.829	-120.117	220.764	-73.75	19.85	-108.30	-63.504	-49.098	-11.172	-0.39874	0.29047	-0.57535	0.65228	29.6	13111	100
2025-3-27 14:45:21.394	WT901BLE68-01(48591DE3C19B)	-0.304	-1.590	0.164	70.557	-109.802	209.106	-72.49	21.48	-106.46	-63.504	-49.098	-11.172	-0.39874	0.29047	-0.57535	0.65228	29.6	13111	100
2025-3-27 14:45:21.394	WT901BLE68-01(48591DE3C19B)	-0.275	-1.590	0.164	70.557	-109.802	209.106	-71.16	23.07	-104.58	-63.504	-49.098	-11.172	-0.39874	0.29047	-0.57535	0.65228	29.6	13111	100
2025-3-27 14:45:21.395	WT901BLE68-01(48591DE3C19B)	-0.275	-1.507	0.213	68.787	-94.910	198.181	-69.86	24.55	-102.83	-63.504	-49.098	-11.172	-0.39874	0.29047	-0.57535	0.65228	29.6	13111	100
2025-3-27 14:45:21.395	WT901BLE68-01(48591DE3C19B)	-0.217	-1.507	0.213	68.787	-94.910	198.181	-68.51	25.98	-101.04	-63.504	-49.098	-11.172	-0.39874	0.29047	-0.57535	0.65228	29.6	13111	100
2025-3-27 14:45:21.425	WT901BLE68-01(48591DE3C19B)	-0.217	-1.367	0.219	67.810	-70.984	189.819	-67.24	27.38	-99.48	-63.504	-49.098	-11.172	-0.39874	0.29047	-0.57535	0.65228	29.6	13111	100
2025-3-27 14:45:21.425	WT901BLE68-01(48591DE3C19B)	-0.188	-1.367	0.219	67.810	-70.984	189.819	-65.92	28.75	-97.88	-63.504	-49.098	-11.172	-0.39874	0.29047	-0.57535	0.65228	29.6	13111	100
2025-3-27 14:45:21.426	WT901BLE68-01(48591DE3C19B)	-0.188	-1.250	0.174	62.378	-44.250	187.134	-64.74	30.15	-96.51	-63.504	-49.098	-11.172	-0.39874	0.29047	-0.57535	0.65228	29.6	13111	100
2025-3-27 14:45:21.426	WT901BLE68-01(48591DE3C19B)	-0.185	-1.250	0.174	62.378	-44.250	187.134	-63.51	31.53	-95.11	-63.504	-49.098	-11.172	-0.39874	0.29047	-0.57535	0.65228	29.6	13111	100
2025-3-27 14:45:21.490	WT901BLE68-01(48591DE3C19B)	-0.185	-1.177	0.117	55.969	-25.330	186.340	-62.40	32.94	-93.86	-63.504	-49.098	-11.172	-0.39874	0.29047	-0.57535	0.65228	29.6	13111	100
2025-3-27 14:45:21.490	WT901BLE68-01(48591DE3C19B)	-0.189	-1.177	0.117	55.969	-25.330	186.340	-61.25	34.33	-92.55	-94.276	-45.766	2.254	-0.39874	0.29047	-0.57535	0.65228	29.6	13111	100
2025-3-27 14:45:21.490	WT901BLE68-01(48591DE3C19B)	-0.189	-1.116	0.070	53.284	-14.160	184.326	-60.16	35.73	-91.34	-94.276	-45.766	2.254	-0.39874	0.29047	-0.57535	0.65228	29.6	13111	100
2025-3-27 14:45:21.491	WT901BLE68-01(48591DE3C19B)	-0.219	-1.116	0.070	53.284	-14.160	184.326	-59.01	37.10	-90.08	-94.276	-45.766	2.254	-0.39874	0.29047	-0.57535	0.65228	29.6	13111	100
2025-3-27 14:45:21.514	WT901BLE68-01(48591DE3C19B)	-0.237	-1.069	0.021	49.866	-10.925	183.472	-57.88	38.45	-88.80	-94.276	-45.766	2.254	-0.39874	0.29047	-0.57535	0.65228	29.6	13111	100
2025-3-27 14:45:21.514	WT901BLE68-01(48591DE3C19B)	-0.237	-1.063	-0.039	46.936	-18.372	181.274	-56.68	39.74	-87.45	-94.276	-45.766	2.254	-0.39874	0.29047	-0.57535	0.65228	29.6	13111	100
2025-3-27 14:45:21.514	WT901BLE68-01(48591DE3C19B)	-0.199	-1.063	-0.039	46.936	-18.372	181.274	-55.44	40.98	-86.00	-94.276	-45.766	2.254	-0.39874	0.29047	-0.57535	0.65228	29.6	13111	100
2025-3-27 14:45:21.515	WT901BLE68-01(48591DE3C19B)	-0.199	-1.041	-0.042	46.692	-30.334	175.903	-54.11	42.13	-84.46	-94.276	-45.766	2.254	-0.39874	0.29047	-0.57535	0.65228	29.6	13111	100
2025-3-27 14:45:21.544	WT901BLE68-01(48591DE3C19B)	-0.121	-1.041	-0.042	46.692	-30.334	175.903	-52.71	43.19	-82.82	-94.276	-45.766	2.254	-0.39874	0.29047	-0.57535	0.65228	29.6	13111	100
2025-3-27 14:45:21.544	WT901BLE68-01(48591DE3C19B)	-0.121	-0.975	-0.006	47.546	-38.635	166.809	-51.23	44.15	-81.12	-94.276	-45.766	2.254	-0.39874	0.29047	-0.57535	0.65228	29.6	13111	100
2025-3-27 14:45:21.545	WT901BLE68-01(48591DE3C19B)	-0.013	-0.975	-0.006	47.546	-38.635	166.809	-49.71	45.02	-79.37	-94.276	-45.766	2.254	-0.39874	0.29047	-0.57535	0.65228	29.6	13111	100
2025-3-27 14:45:21.545	WT901BLE68-01(48591DE3C19B)	-0.013	-0.908	0.019	45.654	-39.917	152.283	-48.19	45.79	-77.62	-94.276	-45.766	2.254	-0.39874	0.29047	-0.57535	0.65228	29.6	13111	100
2025-3-27 14:45:21.604	WT901BLE68-01(48591DE3C19B)	0.100	-0.908	0.019	45.654	-39.917	152.283	-46.69	46.46	-75.90	-94.276	-45.766	2.254	-0.39874	0.29047	-0.57535	0.65228	29.6	13111	100
2025-3-27 14:45:21.604	WT901BLE68-01(48591DE3C19B)	0.100	-0.815	0.042	41.382	-26.855	138.794	-45.27	47.08	-74.28	-94.276	-45.766	2.254	-0.39874	0.29047	-0.57535	0.65228	29.6	13111	100
2025-3-27 14:45:21.605	WT901BLE68-01(48591DE3C19B)	0.176	-0.815	0.042	41.382	-26.855	138.794	-43.95	47.68	-72.77	-94.276	-45.766	2.254	-0.39874	0.29047	-0.57535	0.65228	29.6	13111	100
2025-3-27 14:45:21.605	WT901BLE68-01(48591DE3C19B)	0.176	-0.815	0.085	31.799	-3.784	112.671	-42.83	48.24	-71.50	-94.276	-45.766	2.254	-0.39874	0.29047	-0.57535	0.65228	29.6	13111	100
2025-3-27 14:45:21.635	WT901BLE68-01(48591DE3C19B)	0.156	-0.815	0.085	31.799	-3.784	112.671	-41.95	48.76	-70.47	-94.276	-45.766	2.254	-0.39874	0.29047	-0.57535	0.65228	29.6	13111	100
2025-3-27 14:45:21.635	WT901BLE68-01(48591DE3C19B)	0.156	-0.871	0.129	20.813	23.926	82.458	-41.33	49.28	-69.74	-94.276	-45.766	2.254	-0.39874	0.29047	-0.57535	0.65228	29.6	13111	100
2025-3-27 14:45:21.635	WT901BLE68-01(48591DE3C19B)	0.106	-0.871	0.129	20.813	23.926	82.458	-41.00	49.78	-69.32	-94.276	-45.766	2.254	-0.39874	0.29047	-0.57535	0.65228	29.6	13111	100
2025-3-27 14:45:21.635	WT901BLE68-01(48591DE3C19B)	0.106	-0.852	0.147	16.235	51.331	45.105	-40.97	50.26	-69.26	-94.276	-45.766	2.254	-0.39874	0.29047	-0.57535	0.65228	29.6	13111	100
2025-3-27 14:45:21.664	WT901BLE68-01(48591DE3C19B)	0.051	-0.852	0.147	16.235	51.331	45.105	-41.23	50.72	-69.57	-94.276	-45.766	2.254	-0.39874	0.29047	-0.57535	0.65228	29.6	13111	100
2025-3-27 14:45:21.664	WT901BLE68-01(48591DE3C19B)	0.051	-0.824	0.146	-5.676	74.463	5.249	-41.89	51.12	-70.25	-94.276	-45.766	2.254	-0.39874	0.29047	-0.57535	0.65228	29.6	13111	100
2025-3-27 14:45:21.665	WT901BLE68-01(48591DE3C19B)	-0.024	-0.824	0.146	-5.676	74.463	5.249	-42.95	51.47	-71.31	-94.276	-45.766	2.254	-0.77173	0.03268	-0.52322	0.35989	29.6	13111	100
2025-3-27 14:45:21.665	WT901BLE68-01(48591DE3C19B)	-0.024	-1.016	0.120	-26.611	87.158	-35.706	-44.37	51.70	-72.70	-94.276	-45.766	2.254	-0.77173	0.03268	-0.52322	0.35989	29.6	13111	100
2025-3-27 14:45:21.725	WT901BLE68-01(48591DE3C19B)	-0.146	-1.016	0.120	-26.611	87.158	-35.706	-46.13	51.81	-74.40	-94.276	-45.766	2.254	-0.77173	0.03268	-0.52322	0.35989	29.6	13111	100
2025-3-27 14:45:21.725	WT901BLE68-01(48591DE3C19B)	-0.146	-1.097	0.125	-23.193	74.646	-79.468	-48.01	51.69	-76.27	-94.276	-45.766	2.254	-0.77173	0.03268	-0.52322	0.35989	29.6	13111	100
2025-3-27 14:45:21.725	WT901BLE68-01(48591DE3C19B)	-0.203	-1.097	0.125	-23.193	74.646	-79.468	-49.96	51.32	-78.28	-94.276	-45.766	2.254	-0.77173	0.03268	-0.52322	0.35989	29.6	13111	100
2025-3-27 14:45:21.725	WT901BLE68-01(48591DE3C19B)	-0.203	-1.139	0.071	-29.541	49.377	-121.399	-51.93	50.69	-80.29	-94.276	-45.766	2.254	-0.77173	0.03268	-0.52322	0.35989	29.6	13111	100
2025-3-27 14:45:21.754	WT901BLE68-01(48591DE3C19B)	-0.202	-1.139	0.071	-29.541	49.377	-121.399	-53.88	49.77	-82.27	-94.276	-45.766	2.254	-0.77173	0.03268	-0.52322	0.35989	29.6	13111	100
2025-3-27 14:45:21.754	WT901BLE68-01(48591DE3C19B)	-0.202	-1.195	0.026	-30.518	28.809	-157.349	-55.76	48.61	-84.18	-94.276	-45.766	2.254	-0.77173	0.03268	-0.52322	0.35989	29.6	13111	100
2025-3-27 14:45:21.754	WT901BLE68-01(48591DE3C19B)	-0.269	-1.195	0.026	-30.518	28.809	-157.349	-57.54	47.22	-85.99	-94.276	-45.766	2.254	-0.77173	0.03268	-0.52322	0.35989	29.6	13111	100
2025-3-27 14:45:21.754	WT901BLE68-01(48591DE3C19B)	-0.269	-1.165	0.067	-37.048	16.968	-186.096	-59.27	45.65	-87.73	-94.276	-45.766	2.254	-0.77173	0.03268	-0.52322	0.35989	29.6	13111	100
2025-3-27 14:45:21.790	WT901BLE68-01(48591DE3C19B)	-0.328	-1.165	0.067	-37.048	16.968	-186.096	-60.90	43.91	-89.32	-94.276	-45.766	2.254	-0.77173	0.03268	-0.52322	0.35989	29.6	13111	100
2025-3-27 14:45:21.790	WT901BLE68-01(48591DE3C19B)	-0.328	-1.199	0.138	-46.509	-2.441	-213.074	-62.44	41.98	-90.76	-94.276	-45.766	2.254	-0.77173	0.03268	-0.52322	0.35989	29.6	13111	100
2025-3-27 14:45:21.790	WT901BLE68-01(48591DE3C19B)	-0.315	-1.199	0.138	-46.509	-2.441	-213.074	-63.87	39.87	-92.05	-94.276	-45.766	2.254	-0.77173	0.03268	-0.52322	0.35989	29.6	13111	100
2025-3-27 14:45:21.790	WT901BLE68-01(48591DE3C19B)	-0.315	-1.159	0.225	-56.641	-18.616	-227.722	-65.21	37.66	-93.17	-94.276	-45.766	2.254	-0.77173	0.03268	-0.52322	0.35989	29.6	13111	100
2025-3-27 14:45:21.845	WT901BLE68-01(48591DE3C19B)	-0.287	-1.159	0.225	-56.641	-18.616	-227.722	-66.47	35.35	-94.13	-94.276	-45.766	2.254	-0.77173	0.03268	-0.52322	0.35989	29.6	13111	100
2025-3-27 14:45:21.845	WT901BLE68-01(48591DE3C19B)	-0.287	-1.190	0.269	-73.608	-29.114	-233.521	-67.68	32.99	-94.95	-94.276	-45.766	2.254	-0.77173	0.03268	-0.52322	0.35989	29.6	13111	100
2025-3-27 14:45:21.846	WT901BLE68-01(48591DE3C19B)	-0.194	-1.190	0.269	-73.608	-29.114	-233.521	-68.88	30.59	-95.65	-94.276	-45.766	2.254	-0.77173	0.03268	-0.52322	0.35989	29.6	13111	100
2025-3-27 14:45:21.846	WT901BLE68-01(48591DE3C19B)	-0.194	-1.284	0.252	-85.938	-29.785	-236.755	-70.07	28.17	-96.27	-94.276	-45.766	2.254	-0.77173	0.03268	-0.52322	0.35989	29.6	13111	100
2025-3-27 14:45:21.874	WT901BLE68-01(48591DE3C19B)	-0.116	-1.284	0.252	-85.938	-29.785	-236.755	-71.25	25.74	-96.82	-94.276	-45.766	2.254	-0.77173	0.03268	-0.52322	0.35989	29.6	13111	100
2025-3-27 14:45:21.874	WT901BLE68-01(48591DE3C19B)	-0.116	-1.370	0.219	-89.050	-13.123	-236.450	-72.42	23.33	-97.39	-94.276	-45.766	2.254	-0.77173	0.03268	-0.52322	0.35989	29.6	13111	100
2025-3-27 14:45:21.874	WT901BLE68-01(48591DE3C19B)	-0.134	-1.370	0.219	-89.050	-13.123	-236.450	-73.59	20.96	-97.98	-94.276	-45.766	2.254	-0.77173	0.03268	-0.52322	0.35989	29.6	13111	100
2025-3-27 14:45:21.874	WT901BLE68-01(48591DE3C19B)	-0.134	-1.395	0.170	-88.196	13.550	-234.070	-74.75	18.63	-98.64	-94.276	-42.042	0.784	-0.77173	0.03268	-0.52322	0.35989	29.6	13111	100
2025-3-27 14:45:21.906	WT901BLE68-01(48591DE3C19B)	-0.211	-1.395	0.170	-88.196	13.550	-234.070	-75.90	16.35	-99.36	-94.276	-42.042	0.784	-0.77173	0.03268	-0.52322	0.35989	29.6	13111	100
2025-3-27 14:45:21.906	WT901BLE68-01(48591DE3C19B)	-0.211	-1.394	0.127	-85.205	34.546	-233.765	-77.01	14.09	-100.13	-94.276	-42.042	0.784	-0.77173	0.03268	-0.52322	0.35989	29.6	13111	100
2025-3-27 14:45:21.906	WT901BLE68-01(48591DE3C19B)	-0.294	-1.394	0.127	-85.205	34.546	-233.765	-78.08	11.85	-100.96	-94.276	-42.042	0.784	-0.77173	0.03268	-0.52322	0.35989	29.6	13111	100
2025-3-27 14:45:21.906	WT901BLE68-01(48591DE3C19B)	-0.294	-1.362	0.135	-79.590	42.542	-234.192	-79.09	9.62	-101.77	-94.276	-42.042	0.784	-0.77173	0.03268	-0.52322	0.35989	29.6	13111	100
2025-3-27 14:45:21.964	WT901BLE68-01(48591DE3C19B)	-0.354	-1.362	0.135	-79.590	42.542	-234.192	-80.02	7.40	-102.57	-94.276	-42.042	0.784	-0.77173	0.03268	-0.52322	0.35989	29.6	13111	100
2025-3-27 14:45:21.964	WT901BLE68-01(48591DE3C19B)	-0.354	-1.340	0.184	-76.538	40.405	-232.544	-80.91	5.19	-103.32	-94.276	-42.042	0.784	-0.77173	0.03268	-0.52322	0.35989	29.6	13111	100
2025-3-27 14:45:21.964	WT901BLE68-01(48591DE3C19B)	-0.387	-1.340	0.184	-76.538	40.405	-232.544	-81.74	2.99	-104.02	-94.276	-42.042	0.784	-0.77173	0.03268	-0.52322	0.35989	29.6	13111	100
2025-3-27 14:45:21.964	WT901BLE68-01(48591DE3C19B)	-0.387	-1.345	0.214	-73.853	31.067	-229.614	-82.50	0.81	-104.60	-94.276	-42.042	0.784	-0.77173	0.03268	-0.52322	0.35989	29.6	13111	100
2025-3-27 14:45:21.994	WT901BLE68-01(48591DE3C19B)	-0.407	-1.345	0.214	-73.853	31.067	-229.614	-83.24	-1.36	-105.13	-94.276	-42.042	0.784	-0.77173	0.03268	-0.52322	0.35989	29.6	13111	100
2025-3-27 14:45:21.994	WT901BLE68-01(48591DE3C19B)	-0.407	-1.367	0.208	-71.777	19.226	-225.464	-83.94	-3.49	-105.53	-94.276	-42.042	0.784	-0.77173	0.03268	-0.52322	0.35989	29.6	13111	100
2025-3-27 14:45:21.994	WT901BLE68-01(48591DE3C19B)	-0.406	-1.367	0.208	-71.777	19.226	-225.464	-84.62	-5.61	-105.90	-94.276	-42.042	0.784	-0.77173	0.03268	-0.52322	0.35989	29.6	13111	100
2025-3-27 14:45:21.994	WT901BLE68-01(48591DE3C19B)	-0.406	-1.383	0.203	-68.848	13.062	-221.069	-85.25	-7.68	-106.18	-94.276	-42.042	0.784	-0.77173	0.03268	-0.52322	0.35989	29.6	13111	100
2025-3-27 14:45:22.24	WT901BLE68-01(48591DE3C19B)	-0.409	-1.383	0.203	-68.848	13.062	-221.069	-85.89	-9.74	-106.44	-94.276	-42.042	0.784	-0.77173	0.03268	-0.52322	0.35989	29.6	13111	100
2025-3-27 14:45:22.24	WT901BLE68-01(48591DE3C19B)	-0.409	-1.392	0.216	-66.284	17.212	-213.074	-86.47	-11.71	-106.71	-94.276	-42.042	0.784	-0.77173	0.03268	-0.52322	0.35989	29.6	13111	100
2025-3-27 14:45:22.25	WT901BLE68-01(48591DE3C19B)	-0.428	-1.392	0.216	-66.284	17.212	-213.074	-87.05	-13.67	-106.97	-94.276	-42.042	0.784	-0.77173	0.03268	-0.52322	0.35989	29.6	13111	100
2025-3-27 14:45:22.25	WT901BLE68-01(48591DE3C19B)	-0.428	-1.385	0.250	-61.768	29.053	-201.782	-87.54	-15.50	-107.34	-94.276	-42.042	0.784	-0.77173	0.03268	-0.52322	0.35989	29.6	13111	100
2025-3-27 14:45:22.87	WT901BLE68-01(48591DE3C19B)	-0.440	-1.385	0.250	-61.768	29.053	-201.782	-88.02	-17.31	-107.68	-94.276	-42.042	0.784	-0.77173	0.03268	-0.52322	0.35989	29.6	13111	100
2025-3-27 14:45:22.87	WT901BLE68-01(48591DE3C19B)	-0.440	-1.367	0.310	-55.786	45.776	-184.692	-88.38	-18.95	-108.20	-94.276	-42.042	0.784	-0.77173	0.03268	-0.52322	0.35989	29.6	13111	100
2025-3-27 14:45:22.87	WT901BLE68-01(48591DE3C19B)	-0.452	-1.367	0.310	-55.786	45.776	-184.692	-88.72	-20.57	-108.71	-94.276	-42.042	0.784	-0.77173	0.03268	-0.52322	0.35989	29.6	13111	100
2025-3-27 14:45:22.88	WT901BLE68-01(48591DE3C19B)	-0.452	-1.309	0.338	-47.302	65.308	-164.551	-88.88	-21.98	-109.42	-94.276	-42.042	0.784	-0.77173	0.03268	-0.52322	0.35989	29.6	13111	100
2025-3-27 14:45:22.116	WT901BLE68-01(48591DE3C19B)	-0.452	-1.309	0.338	-47.302	65.308	-164.551	-89.02	-23.39	-110.15	-94.276	-42.042	0.784	-0.28323	0.51151	-0.48007	0.65387	29.6	13111	100
2025-3-27 14:45:22.116	WT901BLE68-01(48591DE3C19B)	-0.452	-1.188	0.339	-36.072	83.984	-140.869	-88.95	-24.54	-111.08	-94.276	-42.042	0.784	-0.28323	0.51151	-0.48007	0.65387	29.6	13111	100
2025-3-27 14:45:22.116	WT901BLE68-01(48591DE3C19B)	-0.446	-1.188	0.339	-36.072	83.984	-140.869	-88.85	-25.69	-112.02	-94.276	-42.042	0.784	-0.28323	0.51151	-0.48007	0.65387	29.6	13111	100
2025-3-27 14:45:22.116	WT901BLE68-01(48591DE3C19B)	-0.446	-1.049	0.339	-26.978	97.473	-115.112	-88.57	-26.56	-113.13	-94.276	-42.042	0.784	-0.28323	0.51151	-0.48007	0.65387	29.6	13111	100
2025-3-27 14:45:22.144	WT901BLE68-01(48591DE3C19B)	-0.467	-1.049	0.339	-26.978	97.473	-115.112	-88.27	-27.43	-114.25	-94.276	-42.042	0.784	-0.28323	0.51151	-0.48007	0.65387	29.6	13111	100
2025-3-27 14:45:22.144	WT901BLE68-01(48591DE3C19B)	-0.467	-0.949	0.346	-21.423	100.708	-87.402	-87.88	-28.00	-115.41	-94.276	-42.042	0.784	-0.28323	0.51151	-0.48007	0.65387	29.6	13111	100
2025-3-27 14:45:22.144	WT901BLE68-01(48591DE3C19B)	-0.526	-0.949	0.346	-21.423	100.708	-87.402	-87.47	-28.56	-116.58	-94.276	-42.042	0.784	-0.28323	0.51151	-0.48007	0.65387	29.6	13111	100
2025-3-27 14:45:22.144	WT901BLE68-01(48591DE3C19B)	-0.263	-0.934	0.341	-22.156	92.529	-63.232	-87.11	-28.86	-117.66	-94.276	-42.042	0.784	-0.28323	0.51151	-0.48007	0.65387	29.6	13111	100
2025-3-27 14:45:22.204	WT901BLE68-01(48591DE3C19B)	-0.598	-0.467	0.170	-22.156	92.529	-63.232	-86.74	-29.16	-118.75	-94.276	-42.042	0.784	-0.28323	0.51151	-0.48007	0.65387	29.6	13111	100
2025-3-27 14:45:22.204	WT901BLE68-01(48591DE3C19B)	-0.598	-0.989	0.348	-18.494	77.576	-39.124	-86.41	-29.21	-119.66	-94.276	-42.042	0.784	-0.28323	0.51151	-0.48007	0.65387	29.6	13111	100
2025-3-27 14:45:22.204	WT901BLE68-01(48591DE3C19B)	-0.678	-0.989	0.348	-18.494	77.576	-39.124	-86.09	-29.26	-120.57	-94.276	-42.042	0.784	-0.28323	0.51151	-0.48007	0.65387	29.6	13111	100
2025-3-27 14:45:22.204	WT901BLE68-01(48591DE3C19B)	-0.678	-1.035	0.320	-11.536	59.448	-17.761	-85.80	-29.09	-121.27	-94.276	-42.042	0.784	-0.28323	0.51151	-0.48007	0.65387	29.6	13111	100
2025-3-27 14:45:22.235	WT901BLE68-01(48591DE3C19B)	-0.743	-1.035	0.320	-11.536	59.448	-17.761	-85.52	-28.92	-121.97	-94.276	-42.042	0.784	-0.28323	0.51151	-0.48007	0.65387	29.6	13111	100
2025-3-27 14:45:22.235	WT901BLE68-01(48591DE3C19B)	-0.743	-1.107	0.309	-8.057	40.039	3.540	-85.31	-28.54	-122.43	-94.276	-42.042	0.784	-0.28323	0.51151	-0.48007	0.65387	29.6	13111	100
2025-3-27 14:45:22.236	WT901BLE68-01(48591DE3C19B)	-0.770	-1.107	0.309	-8.057	40.039	3.540	-85.12	-28.16	-122.89	-94.276	-42.042	0.784	-0.28323	0.51151	-0.48007	0.65387	29.6	13111	100
2025-3-27 14:45:22.236	WT901BLE68-01(48591DE3C19B)	-0.770	-1.200	0.310	0.854	21.606	25.208	-84.95	-27.59	-123.12	-94.276	-42.042	0.784	-0.28323	0.51151	-0.48007	0.65387	29.6	13111	100
2025-3-27 14:45:22.263	WT901BLE68-01(48591DE3C19B)	-0.740	-1.200	0.310	0.854	21.606	25.208	-84.78	-27.00	-123.36	-94.276	-42.042	0.784	-0.28323	0.51151	-0.48007	0.65387	29.6	13111	100
2025-3-27 14:45:22.263	WT901BLE68-01(48591DE3C19B)	-0.740	-1.182	0.344	11.414	1.709	50.049	-84.62	-26.19	-123.34	-94.276	-42.042	0.784	-0.28323	0.51151	-0.48007	0.65387	29.6	13111	100
2025-3-27 14:45:22.263	WT901BLE68-01(48591DE3C19B)	-0.692	-1.182	0.344	11.414	1.709	50.049	-84.45	-25.38	-123.33	-58.898	-46.746	-7.840	-0.28323	0.51151	-0.48007	0.65387	29.6	13111	100
2025-3-27 14:45:22.263	WT901BLE68-01(48591DE3C19B)	-0.692	-1.192	0.393	15.747	-21.301	78.979	-84.37	-24.31	-123.03	-58.898	-46.746	-7.840	-0.28323	0.51151	-0.48007	0.65387	29.6	13111	100
2025-3-27 14:45:22.324	WT901BLE68-01(48591DE3C19B)	-0.557	-1.192	0.393	15.747	-21.301	78.979	-84.27	-23.25	-122.74	-58.898	-46.746	-7.840	-0.28323	0.51151	-0.48007	0.65387	29.6	13111	100
2025-3-27 14:45:22.324	WT901BLE68-01(48591DE3C19B)	-0.557	-1.089	0.410	28.870	-37.781	112.976	-84.12	-21.87	-122.23	-58.898	-46.746	-7.840	-0.28323	0.51151	-0.48007	0.65387	29.6	13111	100
2025-3-27 14:45:22.325	WT901BLE68-01(48591DE3C19B)	-0.396	-1.089	0.410	28.870	-37.781	112.976	-83.95	-20.51	-121.73	-58.898	-46.746	-7.840	-0.28323	0.51151	-0.48007	0.65387	29.6	13111	100
2025-3-27 14:45:22.325	WT901BLE68-01(48591DE3C19B)	-0.396	-0.946	0.378	33.447	-41.504	149.109	-83.75	-18.80	-121.16	-58.898	-46.746	-7.840	-0.28323	0.51151	-0.48007	0.65387	29.6	13111	100
2025-3-27 14:45:22.354	WT901BLE68-01(48591DE3C19B)	-0.335	-0.946	0.378	33.447	-41.504	149.109	-83.54	-17.11	-120.57	-58.898	-46.746	-7.840	-0.28323	0.51151	-0.48007	0.65387	29.6	13111	100
2025-3-27 14:45:22.354	WT901BLE68-01(48591DE3C19B)	-0.335	-0.990	0.295	25.391	-40.894	180.786	-83.39	-15.11	-119.96	-58.898	-46.746	-7.840	-0.28323	0.51151	-0.48007	0.65387	29.6	13111	100
2025-3-27 14:45:22.355	WT901BLE68-01(48591DE3C19B)	-0.359	-0.990	0.295	25.391	-40.894	180.786	-83.23	-13.13	-119.34	-58.898	-46.746	-7.840	-0.28323	0.51151	-0.48007	0.65387	29.6	13111	100
2025-3-27 14:45:22.355	WT901BLE68-01(48591DE3C19B)	-0.359	-1.162	0.185	24.658	-48.218	205.505	-83.08	-10.94	-118.61	-58.898	-46.746	-7.840	-0.28323	0.51151	-0.48007	0.65387	29.6	13111	100
2025-3-27 14:45:22.390	WT901BLE68-01(48591DE3C19B)	-0.442	-1.162	0.185	24.658	-48.218	205.505	-82.91	-8.76	-117.86	-58.898	-46.746	-7.840	-0.28323	0.51151	-0.48007	0.65387	29.6	13111	100
2025-3-27 14:45:22.390	WT901BLE68-01(48591DE3C19B)	-0.442	-1.366	0.115	29.602	-76.782	227.173	-82.72	-6.42	-116.80	-58.898	-46.746	-7.840	-0.28323	0.51151	-0.48007	0.65387	29.6	13111	100
2025-3-27 14:45:22.390	WT901BLE68-01(48591DE3C19B)	-0.503	-1.366	0.115	29.602	-76.782	227.173	-82.49	-4.10	-115.71	-58.898	-46.746	-7.840	-0.28323	0.51151	-0.48007	0.65387	29.6	13111	100
2025-3-27 14:45:22.390	WT901BLE68-01(48591DE3C19B)	-0.506	-1.585	0.077	38.086	-121.399	238.770	-82.17	-1.75	-114.16	-58.898	-46.746	-7.840	-0.28323	0.51151	-0.48007	0.65387	29.6	13111	100
2025-3-27 14:45:22.445	WT901BLE68-01(48591DE3C19B)	-0.506	-1.892	0.065	42.419	-169.495	247.925	-81.77	0.58	-112.34	-58.898	-46.746	-7.840	-0.28323	0.51151	-0.48007	0.65387	29.6	13111	100
2025-3-27 14:45:22.445	WT901BLE68-01(48591DE3C19B)	-0.378	-1.892	0.065	42.419	-169.495	247.925	-81.29	2.89	-110.25	-58.898	-46.746	-7.840	-0.28323	0.51151	-0.48007	0.65387	29.6	13111	100
2025-3-27 14:45:22.445	WT901BLE68-01(48591DE3C19B)	-0.378	-2.039	0.070	70.557	-199.768	247.192	-80.57	5.14	-107.99	-58.898	-46.746	-7.840	-0.28323	0.51151	-0.48007	0.65387	29.6	13111	100
2025-3-27 14:45:22.445	WT901BLE68-01(48591DE3C19B)	-0.254	-2.039	0.070	70.557	-199.768	247.192	-79.63	7.30	-105.54	-58.898	-46.746	-7.840	-0.28323	0.51151	-0.48007	0.65387	29.6	13111	100
2025-3-27 14:45:22.475	WT901BLE68-01(48591DE3C19B)	-0.254	-1.861	0.130	92.346	-199.829	243.530	-78.49	9.38	-103.05	-58.898	-46.746	-7.840	-0.28323	0.51151	-0.48007	0.65387	29.6	13111	100
2025-3-27 14:45:22.475	WT901BLE68-01(48591DE3C19B)	-0.168	-1.861	0.130	92.346	-199.829	243.530	-77.15	11.37	-100.51	-58.898	-46.746	-7.840	-0.28323	0.51151	-0.48007	0.65387	29.6	13111	100
2025-3-27 14:45:22.475	WT901BLE68-01(48591DE3C19B)	-0.168	-1.672	0.158	98.694	-170.227	237.122	-75.72	13.28	-98.06	-58.898	-46.746	-7.840	-0.28323	0.51151	-0.48007	0.65387	29.6	13111	100
2025-3-27 14:45:22.475	WT901BLE68-01(48591DE3C19B)	-0.106	-1.672	0.158	98.694	-170.227	237.122	-74.21	15.13	-95.72	-58.898	-46.746	-7.840	-0.58929	0.32339	-0.51389	0.53287	29.6	13111	100
2025-3-27 14:45:22.507	WT901BLE68-01(48591DE3C19B)	-0.106	-1.559	0.165	99.609	-123.535	233.337	-72.69	16.95	-93.55	-58.898	-46.746	-7.840	-0.58929	0.32339	-0.51389	0.53287	29.6	13111	100
2025-3-27 14:45:22.507	WT901BLE68-01(48591DE3C19B)	-0.087	-1.559	0.165	99.609	-123.535	233.337	-71.16	18.75	-91.55	-58.898	-46.746	-7.840	-0.58929	0.32339	-0.51389	0.53287	29.6	13111	100
2025-3-27 14:45:22.507	WT901BLE68-01(48591DE3C19B)	-0.087	-1.474	0.164	99.182	-73.975	228.149	-69.64	20.54	-89.75	-58.898	-46.746	-7.840	-0.58929	0.32339	-0.51389	0.53287	29.6	13111	100
2025-3-27 14:45:22.507	WT901BLE68-01(48591DE3C19B)	-0.106	-1.474	0.164	99.182	-73.975	228.149	-68.15	22.34	-88.15	-58.898	-46.746	-7.840	-0.58929	0.32339	-0.51389	0.53287	29.6	13111	100
2025-3-27 14:45:22.564	WT901BLE68-01(48591DE3C19B)	-0.106	-1.398	0.124	96.375	-35.278	221.069	-66.69	24.13	-86.69	-58.898	-46.746	-7.840	-0.58929	0.32339	-0.51389	0.53287	29.6	13111	100
2025-3-27 14:45:22.564	WT901BLE68-01(48591DE3C19B)	-0.155	-1.398	0.124	96.375	-35.278	221.069	-65.28	25.91	-85.37	-58.898	-46.746	-7.840	-0.58929	0.32339	-0.51389	0.53287	29.6	13111	100
2025-3-27 14:45:22.564	WT901BLE68-01(48591DE3C19B)	-0.155	-1.332	0.083	92.590	-11.597	212.708	-63.89	27.67	-84.14	-58.898	-46.746	-7.840	-0.58929	0.32339	-0.51389	0.53287	29.6	13111	100
2025-3-27 14:45:22.564	WT901BLE68-01(48591DE3C19B)	-0.215	-1.332	0.083	92.590	-11.597	212.708	-62.52	29.40	-82.99	-58.898	-46.746	-7.840	-0.58929	0.32339	-0.51389	0.53287	29.6	13111	100
2025-3-27 14:45:22.594	WT901BLE68-01(48591DE3C19B)	-0.215	-1.284	0.057	89.478	-3.967	202.026	-61.16	31.07	-81.84	-58.898	-46.746	-7.840	-0.58929	0.32339	-0.51389	0.53287	29.6	13111	100
2025-3-27 14:45:22.594	WT901BLE68-01(48591DE3C19B)	-0.269	-1.284	0.057	89.478	-3.967	202.026	-59.79	32.68	-80.69	-58.898	-46.746	-7.840	-0.58929	0.32339	-0.51389	0.53287	29.6	13111	100
2025-3-27 14:45:22.594	WT901BLE68-01(48591DE3C19B)	-0.269	-1.227	0.052	88.989	-10.254	189.514	-58.38	34.19	-79.50	-58.898	-46.746	-7.840	-0.58929	0.32339	-0.51389	0.53287	29.6	13111	100
2025-3-27 14:45:22.594	WT901BLE68-01(48591DE3C19B)	-0.272	-1.227	0.052	88.989	-10.254	189.514	-56.92	35.60	-78.26	-58.898	-46.746	-7.840	-0.58929	0.32339	-0.51389	0.53287	29.6	13111	100
2025-3-27 14:45:22.655	WT901BLE68-01(48591DE3C19B)	-0.272	-1.165	0.045	86.853	-22.705	176.331	-55.40	36.88	-76.93	-58.898	-46.746	-7.840	-0.58929	0.32339	-0.51389	0.53287	29.6	13111	100
2025-3-27 14:45:22.655	WT901BLE68-01(48591DE3C19B)	-0.216	-1.165	0.045	86.853	-22.705	176.331	-53.84	38.04	-75.53	-58.898	-46.746	-7.840	-0.58929	0.32339	-0.51389	0.53287	29.6	13111	100
2025-3-27 14:45:22.655	WT901BLE68-01(48591DE3C19B)	-0.216	-1.095	0.038	85.876	-31.799	161.682	-52.24	39.08	-74.09	-58.898	-46.746	-7.840	-0.58929	0.32339	-0.51389	0.53287	29.6	13111	100
2025-3-27 14:45:22.655	WT901BLE68-01(48591DE3C19B)	-0.099	-1.095	0.038	85.876	-31.799	161.682	-50.61	40.00	-72.60	-58.898	-46.746	-7.840	-0.58929	0.32339	-0.51389	0.53287	29.6	13111	100
2025-3-27 14:45:22.690	WT901BLE68-01(48591DE3C19B)	-0.099	-0.972	0.025	84.473	-29.541	147.034	-48.99	40.83	-71.15	-58.898	-46.746	-7.840	-0.58929	0.32339	-0.51389	0.53287	29.6	13111	100
2025-3-27 14:45:22.690	WT901BLE68-01(48591DE3C19B)	0.024	-0.972	0.025	84.473	-29.541	147.034	-47.39	41.57	-69.73	-58.898	-46.746	-7.840	-0.58929	0.32339	-0.51389	0.53287	29.6	13111	100
2025-3-27 14:45:22.690	WT901BLE68-01(48591DE3C19B)	0.024	-0.873	0.019	78.552	-12.451	134.399	-45.88	42.30	-68.41	-58.898	-46.746	-7.840	-0.58929	0.32339	-0.51389	0.53287	29.6	13111	100
2025-3-27 14:45:22.690	WT901BLE68-01(48591DE3C19B)	0.094	-0.873	0.019	78.552	-12.451	134.399	-44.48	43.01	-67.21	-98.784	-35.378	11.466	-0.58929	0.32339	-0.51389	0.53287	29.6	13111	100
2025-3-27 14:45:22.716	WT901BLE68-01(48591DE3C19B)	0.094	-0.792	0.006	72.571	13.794	121.399	-43.20	43.74	-66.17	-98.784	-35.378	11.466	-0.58929	0.32339	-0.51389	0.53287	29.6	13111	100
2025-3-27 14:45:22.716	WT901BLE68-01(48591DE3C19B)	0.088	-0.792	0.006	72.571	13.794	121.399	-42.07	44.49	-65.30	-98.784	-35.378	11.466	-0.58929	0.32339	-0.51389	0.53287	29.6	13111	100
2025-3-27 14:45:22.716	WT901BLE68-01(48591DE3C19B)	0.088	-0.760	0.056	60.181	41.809	104.736	-41.14	45.28	-64.62	-98.784	-35.378	11.466	-0.58929	0.32339	-0.51389	0.53287	29.6	13111	100
2025-3-27 14:45:22.716	WT901BLE68-01(48591DE3C19B)	0.009	-0.760	0.056	60.181	41.809	104.736	-40.40	46.10	-64.14	-98.784	-35.378	11.466	-0.58929	0.32339	-0.51389	0.53287	29.6	13111	100
2025-3-27 14:45:22.774	WT901BLE68-01(48591DE3C19B)	0.009	-0.872	0.100	40.161	60.913	82.886	-39.91	46.92	-63.87	-98.784	-35.378	11.466	-0.58929	0.32339	-0.51389	0.53287	29.6	13111	100
2025-3-27 14:45:22.774	WT901BLE68-01(48591DE3C19B)	-0.030	-0.872	0.100	40.161	60.913	82.886	-39.66	47.74	-63.81	-98.784	-35.378	11.466	-0.58929	0.32339	-0.51389	0.53287	29.6	13111	100
2025-3-27 14:45:22.774	WT901BLE68-01(48591DE3C19B)	-0.030	-0.923	0.112	30.457	64.514	55.481	-39.58	48.47	-63.92	-98.784	-35.378	11.466	-0.58929	0.32339	-0.51389	0.53287	29.6	13111	100
2025-3-27 14:45:22.774	WT901BLE68-01(48591DE3C19B)	0.003	-0.923	0.112	30.457	64.514	55.481	-39.69	49.13	-64.21	-98.784	-35.378	11.466	-0.58929	0.32339	-0.51389	0.53287	29.6	13111	100
2025-3-27 14:45:22.866	WT901BLE68-01(48591DE3C19B)	0.003	-0.799	0.115	20.569	63.538	23.926	-40.00	49.67	-64.68	-98.784	-35.378	11.466	-0.58929	0.32339	-0.51389	0.53287	29.6	13111	100
2025-3-27 14:45:22.866	WT901BLE68-01(48591DE3C19B)	-0.049	-0.799	0.115	20.569	63.538	23.926	-40.49	50.10	-65.35	-98.784	-35.378	11.466	-0.58929	0.32339	-0.51389	0.53287	29.6	13111	100
2025-3-27 14:45:22.866	WT901BLE68-01(48591DE3C19B)	-0.049	-0.779	0.120	-2.258	56.763	-10.132	-41.24	50.38	-66.20	-98.784	-35.378	11.466	-0.58929	0.32339	-0.51389	0.53287	29.6	13111	100
2025-3-27 14:45:22.866	WT901BLE68-01(48591DE3C19B)	-0.161	-0.779	0.120	-2.258	56.763	-10.132	-42.23	50.52	-67.22	-98.784	-35.378	11.466	-0.58929	0.32339	-0.51389	0.53287	29.6	13111	100
2025-3-27 14:45:22.866	WT901BLE68-01(48591DE3C19B)	-0.161	-0.928	0.155	-18.311	36.438	-46.936	-43.37	50.45	-68.34	-98.784	-35.378	11.466	-0.58929	0.32339	-0.51389	0.53287	29.6	13111	100
2025-3-27 14:45:22.866	WT901BLE68-01(48591DE3C19B)	-0.144	-0.928	0.155	-18.311	36.438	-46.936	-44.65	50.16	-69.54	-98.784	-35.378	11.466	-0.58929	0.32339	-0.51389	0.53287	29.6	13111	100
2025-3-27 14:45:22.866	WT901BLE68-01(48591DE3C19B)	-0.144	-0.980	0.133	-25.024	18.005	-86.670	-46.02	49.66	-70.83	-98.784	-35.378	11.466	-0.58929	0.32339	-0.51389	0.53287	29.6	13111	100
2025-3-27 14:45:22.866	WT901BLE68-01(48591DE3C19B)	-0.021	-0.980	0.133	-25.024	18.005	-86.670	-47.46	48.93	-72.19	-98.784	-35.378	11.466	-0.58929	0.32339	-0.51389	0.53287	29.6	13111	100
2025-3-27 14:45:22.914	WT901BLE68-01(48591DE3C19B)	-0.021	-1.080	0.050	-32.654	29.419	-120.911	-49.05	48.10	-73.72	-98.784	-35.378	11.466	-0.58929	0.32339	-0.51389	0.53287	29.6	13111	100
2025-3-27 14:45:22.914	WT901BLE68-01(48591DE3C19B)	-0.039	-1.080	0.050	-32.654	29.419	-120.911	-50.78	47.14	-75.42	-98.784	-35.378	11.466	-0.58929	0.32339	-0.51389	0.53287	29.6	13111	100
2025-3-27 14:45:22.914	WT901BLE68-01(48591DE3C19B)	-0.039	-1.073	0.066	-29.053	63.354	-149.841	-52.65	46.15	-77.34	-98.784	-35.378	11.466	-0.58929	0.32339	-0.51389	0.53287	29.6	13111	100
2025-3-27 14:45:22.914	WT901BLE68-01(48591DE3C19B)	-0.160	-1.073	0.066	-29.053	63.354	-149.841	-54.62	45.09	-79.50	-98.784	-35.378	11.466	-0.58929	0.32339	-0.51389	0.53287	29.6	13111	100
2025-3-27 14:45:22.925	WT901BLE68-01(48591DE3C19B)	-0.160	-0.979	0.139	-33.508	85.144	-172.241	-56.84	43.93	-81.97	-98.784	-35.378	11.466	-0.72684	0.12207	-0.54019	0.40604	29.6	13111	100
2025-3-27 14:45:22.925	WT901BLE68-01(48591DE3C19B)	-0.220	-0.979	0.139	-33.508	85.144	-172.241	-58.93	42.71	-84.33	-98.784	-35.378	11.466	-0.72684	0.12207	-0.54019	0.40604	29.6	13111	100
2025-3-27 14:45:22.925	WT901BLE68-01(48591DE3C19B)	-0.220	-0.980	0.199	-40.405	90.271	-189.026	-61.07	41.32	-86.73	-98.784	-35.378	11.466	-0.72684	0.12207	-0.54019	0.40604	29.6	13111	100
2025-3-27 14:45:22.925	WT901BLE68-01(48591DE3C19B)	-0.250	-0.980	0.199	-40.405	90.271	-189.026	-63.07	39.87	-88.99	-98.784	-35.378	11.466	-0.72684	0.12207	-0.54019	0.40604	29.6	13111	100
2025-3-27 14:45:22.989	WT901BLE68-01(48591DE3C19B)	-0.250	-1.013	0.234	-44.312	94.055	-198.059	-65.03	38.32	-91.23	-98.784	-35.378	11.466	-0.72684	0.12207	-0.54019	0.40604	29.6	13111	100
2025-3-27 14:45:22.989	WT901BLE68-01(48591DE3C19B)	-0.304	-1.013	0.234	-44.312	94.055	-198.059	-66.86	36.72	-93.35	-98.784	-35.378	11.466	-0.72684	0.12207	-0.54019	0.40604	29.6	13111	100
2025-3-27 14:45:22.989	WT901BLE68-01(48591DE3C19B)	-0.304	-1.091	0.228	-47.974	89.966	-204.895	-68.59	35.00	-95.32	-98.784	-35.378	11.466	-0.72684	0.12207	-0.54019	0.40604	29.6	13111	100
2025-3-27 14:45:22.989	WT901BLE68-01(48591DE3C19B)	-0.318	-1.091	0.228	-47.974	89.966	-204.895	-70.19	33.25	-97.19	-98.784	-35.378	11.466	-0.72684	0.12207	-0.54019	0.40604	29.6	13111	100
2025-3-27 14:45:23.13	WT901BLE68-01(48591DE3C19B)	-0.318	-1.252	0.189	-50.171	77.087	-213.074	-71.65	31.35	-98.84	-98.784	-35.378	11.466	-0.72684	0.12207	-0.54019	0.40604	29.6	13111	100
2025-3-27 14:45:23.13	WT901BLE68-01(48591DE3C19B)	-0.324	-1.252	0.189	-50.171	77.087	-213.074	-73.02	29.44	-100.40	-98.784	-35.378	11.466	-0.72684	0.12207	-0.54019	0.40604	29.6	13111	100
2025-3-27 14:45:23.13	WT901BLE68-01(48591DE3C19B)	-0.324	-1.387	0.147	-43.457	66.040	-221.130	-74.17	27.39	-101.78	-98.784	-35.378	11.466	-0.72684	0.12207	-0.54019	0.40604	29.6	13111	100
2025-3-27 14:45:23.13	WT901BLE68-01(48591DE3C19B)	-0.362	-1.387	0.147	-43.457	66.040	-221.130	-75.24	25.35	-103.08	-98.784	-35.378	11.466	-0.72684	0.12207	-0.54019	0.40604	29.6	13111	100
2025-3-27 14:45:23.45	WT901BLE68-01(48591DE3C19B)	-0.362	-1.435	0.115	-35.645	63.232	-227.356	-76.16	23.22	-104.30	-98.784	-35.378	11.466	-0.72684	0.12207	-0.54019	0.40604	29.6	13111	100
2025-3-27 14:45:23.45	WT901BLE68-01(48591DE3C19B)	-0.423	-1.435	0.115	-35.645	63.232	-227.356	-77.01	21.09	-105.46	-98.784	-35.378	11.466	-0.72684	0.12207	-0.54019	0.40604	29.6	13111	100
2025-3-27 14:45:23.46	WT901BLE68-01(48591DE3C19B)	-0.423	-1.447	0.094	-26.306	64.575	-231.445	-77.71	18.93	-106.59	-98.784	-35.378	11.466	-0.72684	0.12207	-0.54019	0.40604	29.6	13111	100
2025-3-27 14:45:23.46	WT901BLE68-01(48591DE3C19B)	-0.461	-1.447	0.094	-26.306	64.575	-231.445	-78.37	16.77	-107.67	-98.784	-35.378	11.466	-0.72684	0.12207	-0.54019	0.40604	29.6	13111	100
2025-3-27 14:45:23.73	WT901BLE68-01(48591DE3C19B)	-0.461	-1.404	0.102	-18.982	63.904	-233.459	-78.89	14.58	-108.70	-98.784	-35.378	11.466	-0.72684	0.12207	-0.54019	0.40604	29.6	13111	100
2025-3-27 14:45:23.73	WT901BLE68-01(48591DE3C19B)	-0.451	-1.404	0.102	-18.982	63.904	-233.459	-79.36	12.41	-109.70	-98.784	-35.378	11.466	-0.72684	0.12207	-0.54019	0.40604	29.6	13111	100
2025-3-27 14:45:23.73	WT901BLE68-01(48591DE3C19B)	-0.451	-1.355	0.115	-15.137	61.462	-230.225	-79.74	10.28	-110.64	-77.126	-44.002	0.588	-0.72684	0.12207	-0.54019	0.40604	29.6	13111	100
2025-3-27 14:45:23.73	WT901BLE68-01(48591DE3C19B)	-0.431	-1.355	0.115	-15.137	61.462	-230.225	-80.09	8.15	-111.56	-77.126	-44.002	0.588	-0.72684	0.12207	-0.54019	0.40604	29.6	13111	100
2025-3-27 14:45:23.134	WT901BLE68-01(48591DE3C19B)	-0.431	-1.316	0.127	-13.489	64.575	-223.083	-80.38	6.11	-112.47	-77.126	-44.002	0.588	-0.72684	0.12207	-0.54019	0.40604	29.6	13111	100
2025-3-27 14:45:23.134	WT901BLE68-01(48591DE3C19B)	-0.430	-1.316	0.127	-13.489	64.575	-223.083	-80.64	4.08	-113.37	-77.126	-44.002	0.588	-0.72684	0.12207	-0.54019	0.40604	29.6	13111	100
2025-3-27 14:45:23.134	WT901BLE68-01(48591DE3C19B)	-0.430	-1.313	0.125	-12.817	74.036	-215.637	-80.86	2.14	-114.32	-77.126	-44.002	0.588	-0.72684	0.12207	-0.54019	0.40604	29.6	13111	100
2025-3-27 14:45:23.135	WT901BLE68-01(48591DE3C19B)	-0.463	-1.313	0.125	-12.817	74.036	-215.637	-81.05	0.21	-115.27	-77.126	-44.002	0.588	-0.72684	0.12207	-0.54019	0.40604	29.6	13111	100
2025-3-27 14:45:23.164	WT901BLE68-01(48591DE3C19B)	-0.463	-1.349	0.132	-11.597	84.778	-207.703	-81.18	-1.60	-116.30	-77.126	-44.002	0.588	-0.72684	0.12207	-0.54019	0.40604	29.6	13111	100
2025-3-27 14:45:23.164	WT901BLE68-01(48591DE3C19B)	-0.542	-1.349	0.132	-11.597	84.778	-207.703	-81.29	-3.42	-117.33	-77.126	-44.002	0.588	-0.72684	0.12207	-0.54019	0.40604	29.6	13111	100
2025-3-27 14:45:23.165	WT901BLE68-01(48591DE3C19B)	-0.542	-1.377	0.157	-8.484	91.187	-199.280	-81.33	-5.13	-118.39	-77.126	-44.002	0.588	-0.72684	0.12207	-0.54019	0.40604	29.6	13111	100
2025-3-27 14:45:23.165	WT901BLE68-01(48591DE3C19B)	-0.627	-1.377	0.157	-8.484	91.187	-199.280	-81.33	-6.82	-119.46	-77.126	-44.002	0.588	-0.72684	0.12207	-0.54019	0.40604	29.6	13111	100
2025-3-27 14:45:23.194	WT901BLE68-01(48591DE3C19B)	-0.627	-1.367	0.178	-6.042	89.355	-189.270	-81.28	-8.41	-120.49	-77.126	-44.002	0.588	-0.72684	0.12207	-0.54019	0.40604	29.6	13111	100
2025-3-27 14:45:23.194	WT901BLE68-01(48591DE3C19B)	-0.658	-1.367	0.178	-6.042	89.355	-189.270	-81.20	-9.98	-121.53	-77.126	-44.002	0.588	-0.72684	0.12207	-0.54019	0.40604	29.6	13111	100
2025-3-27 14:45:23.194	WT901BLE68-01(48591DE3C19B)	-0.658	-1.328	0.168	-3.967	79.346	-177.490	-81.10	-11.44	-122.45	-77.126	-44.002	0.588	-0.72684	0.12207	-0.54019	0.40604	29.6	13111	100
2025-3-27 14:45:23.194	WT901BLE68-01(48591DE3C19B)	-0.641	-1.328	0.168	-3.967	79.346	-177.490	-80.96	-12.89	-123.38	-77.126	-44.002	0.588	-0.72684	0.12207	-0.54019	0.40604	29.6	13111	100
2025-3-27 14:45:23.255	WT901BLE68-01(48591DE3C19B)	-0.641	-1.269	0.171	-0.488	69.153	-163.391	-80.80	-14.19	-124.18	-77.126	-44.002	0.588	-0.72684	0.12207	-0.54019	0.40604	29.6	13111	100
2025-3-27 14:45:23.255	WT901BLE68-01(48591DE3C19B)	-0.623	-1.269	0.171	-0.488	69.153	-163.391	-80.63	-15.49	-125.00	-77.126	-44.002	0.588	-0.72684	0.12207	-0.54019	0.40604	29.6	13111	100
2025-3-27 14:45:23.255	WT901BLE68-01(48591DE3C19B)	-0.623	-1.160	0.172	5.188	62.866	-143.860	-80.40	-16.58	-125.72	-77.126	-44.002	0.588	-0.72684	0.12207	-0.54019	0.40604	29.6	13111	100
2025-3-27 14:45:23.255	WT901BLE68-01(48591DE3C19B)	-0.660	-1.160	0.172	5.188	62.866	-143.860	-80.16	-17.67	-126.45	-77.126	-44.002	0.588	-0.72684	0.12207	-0.54019	0.40604	29.6	13111	100
2025-3-27 14:45:23.290	WT901BLE68-01(48591DE3C19B)	-0.660	-1.046	0.208	6.226	63.843	-123.779	-79.89	-18.54	-127.17	-77.126	-44.002	0.588	-0.72684	0.12207	-0.54019	0.40604	29.6	13111	100
2025-3-27 14:45:23.290	WT901BLE68-01(48591DE3C19B)	-0.647	-1.046	0.208	6.226	63.843	-123.779	-79.62	-19.41	-127.89	-77.126	-44.002	0.588	-0.72684	0.12207	-0.54019	0.40604	29.6	13111	100
2025-3-27 14:45:23.290	WT901BLE68-01(48591DE3C19B)	-0.647	-0.975	0.219	3.052	57.861	-105.042	-79.39	-20.08	-128.53	-77.126	-44.002	0.588	-0.72684	0.12207	-0.54019	0.40604	29.6	13111	100
2025-3-27 14:45:23.290	WT901BLE68-01(48591DE3C19B)	-0.672	-0.975	0.219	3.052	57.861	-105.042	-79.16	-20.75	-129.17	-77.126	-44.002	0.588	-0.21896	0.39426	-0.50592	0.73523	29.6	13111	100
2025-3-27 14:45:23.316	WT901BLE68-01(48591DE3C19B)	-0.672	-0.972	0.250	1.587	50.598	-85.083	-78.96	-21.22	-129.71	-77.126	-44.002	0.588	-0.21896	0.39426	-0.50592	0.73523	29.6	13111	100
2025-3-27 14:45:23.316	WT901BLE68-01(48591DE3C19B)	-0.763	-0.972	0.250	1.587	50.598	-85.083	-78.77	-21.68	-130.26	-77.126	-44.002	0.588	-0.21896	0.39426	-0.50592	0.73523	29.6	13111	100
2025-3-27 14:45:23.316	WT901BLE68-01(48591DE3C19B)	-0.763	-0.988	0.297	1.770	32.410	-67.810	-78.64	-22.01	-130.59	-77.126	-44.002	0.588	-0.21896	0.39426	-0.50592	0.73523	29.6	13111	100
2025-3-27 14:45:23.316	WT901BLE68-01(48591DE3C19B)	-0.801	-0.988	0.297	1.770	32.410	-67.810	-78.51	-22.31	-130.93	-77.126	-44.002	0.588	-0.21896	0.39426	-0.50592	0.73523	29.6	13111	100
2025-3-27 14:45:23.374	WT901BLE68-01(48591DE3C19B)	-0.717	-0.998	0.324	0.366	13.489	-49.255	-78.47	-22.47	-131.05	-77.126	-44.002	0.588	-0.21896	0.39426	-0.50592	0.73523	29.6	13111	100
2025-3-27 14:45:23.374	WT901BLE68-01(48591DE3C19B)	-0.717	-1.008	0.275	-1.160	6.653	-29.114	-78.45	-22.54	-131.12	-77.126	-44.002	0.588	-0.21896	0.39426	-0.50592	0.73523	29.6	13111	100
2025-3-27 14:45:23.374	WT901BLE68-01(48591DE3C19B)	-0.667	-1.008	0.275	-1.160	6.653	-29.114	-78.46	-22.51	-131.14	-77.126	-44.002	0.588	-0.21896	0.39426	-0.50592	0.73523	29.6	13111	100
2025-3-27 14:45:23.374	WT901BLE68-01(48591DE3C19B)	-0.667	-1.093	0.272	-1.831	12.878	-1.282	-78.47	-22.32	-131.17	-77.126	-44.002	0.588	-0.21896	0.39426	-0.50592	0.73523	29.6	13111	100
2025-3-27 14:45:23.465	WT901BLE68-01(48591DE3C19B)	-0.656	-1.093	0.272	-1.831	12.878	-1.282	-78.48	-22.01	-131.20	-77.126	-44.002	0.588	-0.21896	0.39426	-0.50592	0.73523	29.6	13111	100
2025-3-27 14:45:23.465	WT901BLE68-01(48591DE3C19B)	-0.656	-1.058	0.310	5.310	15.686	23.499	-78.45	-21.57	-131.23	-77.126	-44.002	0.588	-0.21896	0.39426	-0.50592	0.73523	29.6	13111	100
2025-3-27 14:45:23.465	WT901BLE68-01(48591DE3C19B)	-0.558	-1.058	0.310	5.310	15.686	23.499	-78.39	-21.01	-131.25	-77.126	-44.002	0.588	-0.21896	0.39426	-0.50592	0.73523	29.6	13111	100
2025-3-27 14:45:23.465	WT901BLE68-01(48591DE3C19B)	-0.558	-0.914	0.348	5.920	21.790	54.199	-78.32	-20.29	-131.28	-77.126	-44.002	0.588	-0.21896	0.39426	-0.50592	0.73523	29.6	13111	100
2025-3-27 14:45:23.493	WT901BLE68-01(48591DE3C19B)	-0.519	-0.914	0.348	5.920	21.790	54.199	-78.25	-19.42	-131.31	-77.126	-44.002	0.588	-0.21896	0.39426	-0.50592	0.73523	29.6	13111	100
2025-3-27 14:45:23.493	WT901BLE68-01(48591DE3C19B)	-0.519	-0.882	0.361	-0.549	23.499	87.524	-78.21	-18.39	-131.32	-77.126	-44.002	0.588	-0.21896	0.39426	-0.50592	0.73523	29.6	13111	100
2025-3-27 14:45:23.493	WT901BLE68-01(48591DE3C19B)	-0.542	-0.882	0.361	-0.549	23.499	87.524	-78.21	-17.21	-131.31	-77.126	-44.002	0.588	-0.21896	0.39426	-0.50592	0.73523	29.6	13111	100
2025-3-27 14:45:23.493	WT901BLE68-01(48591DE3C19B)	-0.542	-0.899	0.333	-5.493	14.160	118.408	-78.24	-15.89	-131.22	-77.126	-44.002	0.588	-0.21896	0.39426	-0.50592	0.73523	29.6	13111	100
2025-3-27 14:45:23.495	WT901BLE68-01(48591DE3C19B)	-0.542	-0.899	0.333	-5.493	14.160	118.408	-78.33	-14.44	-131.06	-77.126	-44.002	0.588	-0.21896	0.39426	-0.50592	0.73523	29.6	13111	100
2025-3-27 14:45:23.495	WT901BLE68-01(48591DE3C19B)	-0.542	-1.015	0.264	-13.794	-2.319	149.048	-78.46	-12.85	-130.80	-77.126	-44.002	0.588	-0.21896	0.39426	-0.50592	0.73523	29.6	13111	100
2025-3-27 14:45:23.495	WT901BLE68-01(48591DE3C19B)	-0.544	-1.015	0.264	-13.794	-2.319	149.048	-78.66	-11.16	-130.42	-77.126	-44.002	0.588	-0.21896	0.39426	-0.50592	0.73523	29.6	13111	100
2025-3-27 14:45:23.495	WT901BLE68-01(48591DE3C19B)	-0.544	-1.179	0.167	-14.221	-26.855	175.720	-78.88	-9.35	-129.90	-77.126	-44.002	0.588	-0.21896	0.39426	-0.50592	0.73523	29.6	13111	100
2025-3-27 14:45:23.523	WT901BLE68-01(48591DE3C19B)	-0.515	-1.179	0.167	-14.221	-26.855	175.720	-79.11	-7.46	-129.23	-48.804	-45.178	0.882	-0.21896	0.39426	-0.50592	0.73523	29.6	13111	100
2025-3-27 14:45:23.524	WT901BLE68-01(48591DE3C19B)	-0.515	-1.307	0.090	-14.893	-58.594	199.463	-79.35	-5.49	-128.38	-48.804	-45.178	0.882	-0.21896	0.39426	-0.50592	0.73523	29.6	13111	100
2025-3-27 14:45:23.524	WT901BLE68-01(48591DE3C19B)	-0.436	-1.307	0.090	-14.893	-58.594	199.463	-79.58	-3.45	-127.35	-48.804	-45.178	0.882	-0.21896	0.39426	-0.50592	0.73523	29.6	13111	100
2025-3-27 14:45:23.524	WT901BLE68-01(48591DE3C19B)	-0.436	-1.436	0.025	-11.963	-86.426	211.365	-79.78	-1.39	-126.17	-48.804	-45.178	0.882	-0.21896	0.39426	-0.50592	0.73523	29.6	13111	100
2025-3-27 14:45:23.553	WT901BLE68-01(48591DE3C19B)	-0.390	-1.436	0.025	-11.963	-86.426	211.365	-79.93	0.69	-124.84	-48.804	-45.178	0.882	-0.21896	0.39426	-0.50592	0.73523	29.6	13111	100
2025-3-27 14:45:23.553	WT901BLE68-01(48591DE3C19B)	-0.390	-1.475	0.026	-2.319	-113.159	219.910	-79.98	2.77	-123.37	-48.804	-45.178	0.882	-0.21896	0.39426	-0.50592	0.73523	29.6	13111	100
2025-3-27 14:45:23.553	WT901BLE68-01(48591DE3C19B)	-0.342	-1.475	0.026	-2.319	-113.159	219.910	-79.94	4.85	-121.75	-48.804	-45.178	0.882	-0.21896	0.39426	-0.50592	0.73523	29.6	13111	100
2025-3-27 14:45:23.553	WT901BLE68-01(48591DE3C19B)	-0.342	-1.360	0.113	3.357	-132.202	220.581	-79.79	6.89	-120.03	-48.804	-45.178	0.882	-0.21896	0.39426	-0.50592	0.73523	29.6	13111	100
2025-3-27 14:45:23.613	WT901BLE68-01(48591DE3C19B)	-0.369	-1.360	0.113	3.357	-132.202	220.581	-79.56	8.90	-118.21	-48.804	-45.178	0.882	-0.21896	0.39426	-0.50592	0.73523	29.6	13111	100
2025-3-27 14:45:23.613	WT901BLE68-01(48591DE3C19B)	-0.369	-1.334	0.231	-0.610	-142.822	219.116	-79.27	10.88	-116.32	-48.804	-45.178	0.882	-0.21896	0.39426	-0.50592	0.73523	29.6	13111	100
2025-3-27 14:45:23.613	WT901BLE68-01(48591DE3C19B)	-0.353	-1.334	0.231	-0.610	-142.822	219.116	-78.92	12.80	-114.37	-48.804	-45.178	0.882	-0.21896	0.39426	-0.50592	0.73523	29.6	13111	100
2025-3-27 14:45:23.613	WT901BLE68-01(48591DE3C19B)	-0.353	-1.352	0.240	2.625	-142.883	211.853	-78.49	14.67	-112.42	-48.804	-45.178	0.882	-0.21896	0.39426	-0.50592	0.73523	29.6	13111	100
2025-3-27 14:45:23.643	WT901BLE68-01(48591DE3C19B)	-0.276	-1.352	0.240	2.625	-142.883	211.853	-77.98	16.47	-110.45	-48.804	-45.178	0.882	-0.21896	0.39426	-0.50592	0.73523	29.6	13111	100
2025-3-27 14:45:23.643	WT901BLE68-01(48591DE3C19B)	-0.276	-1.229	0.199	10.193	-127.075	204.895	-77.39	18.22	-108.54	-48.804	-45.178	0.882	-0.21896	0.39426	-0.50592	0.73523	29.6	13111	100
2025-3-27 14:45:23.643	WT901BLE68-01(48591DE3C19B)	-0.231	-1.229	0.199	10.193	-127.075	204.895	-76.73	19.92	-106.69	-48.804	-45.178	0.882	-0.21896	0.39426	-0.50592	0.73523	29.6	13111	100
2025-3-27 14:45:23.643	WT901BLE68-01(48591DE3C19B)	-0.231	-1.114	0.124	10.681	-102.173	197.815	-76.06	21.59	-104.96	-48.804	-45.178	0.882	-0.21896	0.39426	-0.50592	0.73523	29.6	13111	100
2025-3-27 14:45:23.703	WT901BLE68-01(48591DE3C19B)	-0.223	-1.114	0.124	10.681	-102.173	197.815	-75.38	23.21	-103.33	-48.804	-45.178	0.882	-0.21896	0.39426	-0.50592	0.73523	29.6	13111	100
2025-3-27 14:45:23.703	WT901BLE68-01(48591DE3C19B)	-0.223	-1.068	0.063	9.216	-83.252	188.416	-74.70	24.80	-101.77	-48.804	-45.178	0.882	-0.21896	0.39426	-0.50592	0.73523	29.6	13111	100
2025-3-27 14:45:23.703	WT901BLE68-01(48591DE3C19B)	-0.255	-1.068	0.063	9.216	-83.252	188.416	-74.03	26.32	-100.30	-48.804	-45.178	0.882	-0.21896	0.39426	-0.50592	0.73523	29.6	13111	100
2025-3-27 14:45:23.703	WT901BLE68-01(48591DE3C19B)	-0.255	-1.045	0.055	9.277	-75.989	177.063	-73.34	27.78	-98.85	-48.804	-45.178	0.882	-0.21896	0.39426	-0.50592	0.73523	29.6	13111	100
2025-3-27 14:45:23.733	WT901BLE68-01(48591DE3C19B)	-0.319	-1.045	0.055	9.277	-75.989	177.063	-72.64	29.18	-97.43	-48.804	-45.178	0.882	-0.21896	0.39426	-0.50592	0.73523	29.6	13111	100
2025-3-27 14:45:23.733	WT901BLE68-01(48591DE3C19B)	-0.319	-1.074	0.071	7.629	-82.275	165.405	-71.89	30.48	-95.96	-48.804	-45.178	0.882	-0.63745	0.22098	-0.56320	0.47696	29.6	13111	100
2025-3-27 14:45:23.733	WT901BLE68-01(48591DE3C19B)	-0.361	-1.074	0.071	7.629	-82.275	165.405	-71.11	31.70	-94.44	-48.804	-45.178	0.882	-0.63745	0.22098	-0.56320	0.47696	29.6	13111	100
2025-3-27 14:45:23.733	WT901BLE68-01(48591DE3C19B)	-0.361	-1.124	0.086	9.949	-98.572	151.489	-70.24	32.79	-92.83	-48.804	-45.178	0.882	-0.63745	0.22098	-0.56320	0.47696	29.6	13111	100
2025-3-27 14:45:23.793	WT901BLE68-01(48591DE3C19B)	-0.325	-1.124	0.086	9.949	-98.572	151.489	-69.29	33.77	-91.13	-48.804	-45.178	0.882	-0.63745	0.22098	-0.56320	0.47696	29.6	13111	100
2025-3-27 14:45:23.793	WT901BLE68-01(48591DE3C19B)	-0.325	-1.130	0.075	16.357	-110.840	138.184	-68.24	34.63	-89.36	-48.804	-45.178	0.882	-0.63745	0.22098	-0.56320	0.47696	29.6	13111	100
2025-3-27 14:45:23.793	WT901BLE68-01(48591DE3C19B)	-0.260	-1.130	0.075	16.357	-110.840	138.184	-67.10	35.38	-87.52	-48.804	-45.178	0.882	-0.63745	0.22098	-0.56320	0.47696	29.6	13111	100
2025-3-27 14:45:23.793	WT901BLE68-01(48591DE3C19B)	-0.260	-1.083	0.063	23.010	-109.741	127.014	-65.93	36.05	-85.69	-48.804	-45.178	0.882	-0.63745	0.22098	-0.56320	0.47696	29.6	13111	100
2025-3-27 14:45:23.794	WT901BLE68-01(48591DE3C19B)	-0.195	-1.083	0.063	23.010	-109.741	127.014	-64.71	36.63	-83.86	-48.804	-45.178	0.882	-0.63745	0.22098	-0.56320	0.47696	29.6	13111	100
2025-3-27 14:45:23.794	WT901BLE68-01(48591DE3C19B)	-0.195	-1.043	0.056	28.931	-98.511	116.333	-63.51	37.15	-82.12	-48.804	-45.178	0.882	-0.63745	0.22098	-0.56320	0.47696	29.6	13111	100
2025-3-27 14:45:23.794	WT901BLE68-01(48591DE3C19B)	-0.115	-1.043	0.056	28.931	-98.511	116.333	-62.31	37.62	-80.45	-48.804	-45.178	0.882	-0.63745	0.22098	-0.56320	0.47696	29.6	13111	100
2025-3-27 14:45:23.794	WT901BLE68-01(48591DE3C19B)	-0.115	-0.990	0.042	34.241	-76.538	106.323	-61.23	38.06	-79.06	-48.804	-45.178	0.882	-0.63745	0.22098	-0.56320	0.47696	29.6	13111	100
2025-3-27 14:45:23.885	WT901BLE68-01(48591DE3C19B)	-0.044	-0.990	0.042	34.241	-76.538	106.323	-60.14	38.49	-77.67	-48.804	-45.178	0.882	-0.63745	0.22098	-0.56320	0.47696	29.6	13111	100
2025-3-27 14:45:23.885	WT901BLE68-01(48591DE3C19B)	-0.044	-0.945	0.040	35.645	-44.678	97.290	-59.28	38.97	-76.68	-48.804	-45.178	0.882	-0.63745	0.22098	-0.56320	0.47696	29.6	13111	100
2025-3-27 14:45:23.886	WT901BLE68-01(48591DE3C19B)	-0.065	-0.945	0.040	35.645	-44.678	97.290	-58.41	39.43	-75.67	-48.804	-45.178	0.882	-0.63745	0.22098	-0.56320	0.47696	29.6	13111	100
2025-3-27 14:45:23.886	WT901BLE68-01(48591DE3C19B)	-0.065	-1.002	0.061	32.410	-10.925	87.524	-57.84	39.97	-75.10	-48.804	-45.178	0.882	-0.63745	0.22098	-0.56320	0.47696	29.6	13111	100
2025-3-27 14:45:23.886	WT901BLE68-01(48591DE3C19B)	-0.124	-1.002	0.061	32.410	-10.925	87.524	-57.27	40.50	-74.52	-48.804	-45.178	0.882	-0.63745	0.22098	-0.56320	0.47696	29.6	13111	100
2025-3-27 14:45:23.886	WT901BLE68-01(48591DE3C19B)	-0.124	-1.072	0.120	30.579	10.620	71.838	-56.94	41.00	-74.28	-48.804	-45.178	0.882	-0.63745	0.22098	-0.56320	0.47696	29.6	13111	100
2025-3-27 14:45:23.886	WT901BLE68-01(48591DE3C19B)	-0.152	-1.072	0.120	30.579	10.620	71.838	-56.60	41.50	-74.04	-48.804	-45.178	0.882	-0.63745	0.22098	-0.56320	0.47696	29.6	13111	100
2025-3-27 14:45:23.886	WT901BLE68-01(48591DE3C19B)	-0.152	-1.066	0.162	26.855	20.081	54.138	-56.45	41.90	-74.03	-93.394	-40.082	4.802	-0.63745	0.22098	-0.56320	0.47696	29.6	13111	100
2025-3-27 14:45:23.914	WT901BLE68-01(48591DE3C19B)	-0.137	-1.066	0.162	26.855	20.081	54.138	-56.30	42.30	-74.03	-93.394	-40.082	4.802	-0.63745	0.22098	-0.56320	0.47696	29.6	13111	100
2025-3-27 14:45:23.914	WT901BLE68-01(48591DE3C19B)	-0.137	-0.986	0.186	22.156	24.170	34.058	-56.33	42.54	-74.21	-93.394	-40.082	4.802	-0.63745	0.22098	-0.56320	0.47696	29.6	13111	100
2025-3-27 14:45:23.914	WT901BLE68-01(48591DE3C19B)	-0.120	-0.986	0.186	22.156	24.170	34.058	-56.35	42.79	-74.40	-93.394	-40.082	4.802	-0.63745	0.22098	-0.56320	0.47696	29.6	13111	100
2025-3-27 14:45:23.914	WT901BLE68-01(48591DE3C19B)	-0.120	-0.988	0.185	9.888	33.325	13.184	-56.67	42.91	-74.85	-93.394	-40.082	4.802	-0.63745	0.22098	-0.56320	0.47696	29.6	13111	100
2025-3-27 14:45:23.973	WT901BLE68-01(48591DE3C19B)	-0.184	-0.988	0.185	9.888	33.325	13.184	-56.99	43.02	-75.31	-93.394	-40.082	4.802	-0.63745	0.22098	-0.56320	0.47696	29.6	13111	100
2025-3-27 14:45:23.973	WT901BLE68-01(48591DE3C19B)	-0.184	-1.052	0.199	5.493	40.039	-10.742	-57.52	42.97	-76.01	-93.394	-40.082	4.802	-0.63745	0.22098	-0.56320	0.47696	29.6	13111	100
2025-3-27 14:45:23.973	WT901BLE68-01(48591DE3C19B)	-0.158	-1.052	0.199	5.493	40.039	-10.742	-58.05	42.92	-76.71	-93.394	-40.082	4.802	-0.63745	0.22098	-0.56320	0.47696	29.6	13111	100
2025-3-27 14:45:23.973	WT901BLE68-01(48591DE3C19B)	-0.158	-1.007	0.162	-2.136	43.396	-36.194	-58.79	42.65	-77.62	-93.394	-40.082	4.802	-0.63745	0.22098	-0.56320	0.47696	29.6	13111	100
2025-3-27 14:45:24.4	WT901BLE68-01(48591DE3C19B)	-0.118	-1.007	0.162	-2.136	43.396	-36.194	-59.52	42.39	-78.52	-93.394	-40.082	4.802	-0.63745	0.22098	-0.56320	0.47696	29.6	13111	100
2025-3-27 14:45:24.4	WT901BLE68-01(48591DE3C19B)	-0.118	-1.082	0.129	-9.583	53.894	-59.570	-60.50	41.96	-79.69	-93.394	-40.082	4.802	-0.63745	0.22098	-0.56320	0.47696	29.6	13111	100
2025-3-27 14:45:24.4	WT901BLE68-01(48591DE3C19B)	-0.200	-1.082	0.129	-9.583	53.894	-59.570	-61.45	41.52	-80.83	-93.394	-40.082	4.802	-0.63745	0.22098	-0.56320	0.47696	29.6	13111	100
2025-3-27 14:45:24.4	WT901BLE68-01(48591DE3C19B)	-0.200	-1.010	0.184	-9.705	61.829	-82.336	-62.53	40.90	-82.19	-93.394	-40.082	4.802	-0.63745	0.22098	-0.56320	0.47696	29.6	13111	100
2025-3-27 14:45:24.65	WT901BLE68-01(48591DE3C19B)	-0.263	-1.010	0.184	-9.705	61.829	-82.336	-63.57	40.27	-83.51	-93.394	-40.082	4.802	-0.63745	0.22098	-0.56320	0.47696	29.6	13111	100
2025-3-27 14:45:24.65	WT901BLE68-01(48591DE3C19B)	-0.263	-0.938	0.246	-18.921	54.443	-99.304	-64.67	39.45	-84.80	-93.394	-40.082	4.802	-0.63745	0.22098	-0.56320	0.47696	29.6	13111	100
2025-3-27 14:45:24.65	WT901BLE68-01(48591DE3C19B)	-0.250	-0.938	0.246	-18.921	54.443	-99.304	-65.71	38.61	-86.05	-93.394	-40.082	4.802	-0.63745	0.22098	-0.56320	0.47696	29.6	13111	100
2025-3-27 14:45:24.65	WT901BLE68-01(48591DE3C19B)	-0.250	-0.908	0.304	-23.132	42.786	-110.046	-66.71	37.61	-87.18	-93.394	-40.082	4.802	-0.63745	0.22098	-0.56320	0.47696	29.6	13111	100
2025-3-27 14:45:24.93	WT901BLE68-01(48591DE3C19B)	-0.278	-0.908	0.304	-23.132	42.786	-110.046	-67.65	36.61	-88.27	-93.394	-40.082	4.802	-0.63745	0.22098	-0.56320	0.47696	29.6	13111	100
2025-3-27 14:45:24.93	WT901BLE68-01(48591DE3C19B)	-0.278	-0.898	0.311	-31.799	33.264	-115.417	-68.59	35.52	-89.24	-93.394	-40.082	4.802	-0.63745	0.22098	-0.56320	0.47696	29.6	13111	100
2025-3-27 14:45:24.93	WT901BLE68-01(48591DE3C19B)	-0.255	-0.898	0.311	-31.799	33.264	-115.417	-69.48	34.43	-90.17	-93.394	-40.082	4.802	-0.63745	0.22098	-0.56320	0.47696	29.6	13111	100
2025-3-27 14:45:24.93	WT901BLE68-01(48591DE3C19B)	-0.255	-0.985	0.259	-41.626	24.658	-119.080	-70.38	33.27	-90.98	-93.394	-40.082	4.802	-0.66296	0.22421	-0.55807	0.44571	29.6	13111	100
2025-3-27 14:45:24.124	WT901BLE68-01(48591DE3C19B)	-0.202	-0.985	0.259	-41.626	24.658	-119.080	-71.25	32.11	-91.76	-93.394	-40.082	4.802	-0.66296	0.22421	-0.55807	0.44571	29.6	13111	100
2025-3-27 14:45:24.124	WT901BLE68-01(48591DE3C19B)	-0.202	-1.070	0.209	-40.100	23.132	-121.033	-72.05	30.92	-92.50	-93.394	-40.082	4.802	-0.66296	0.22421	-0.55807	0.44571	29.6	13111	100
2025-3-27 14:45:24.124	WT901BLE68-01(48591DE3C19B)	-0.189	-1.070	0.209	-40.100	23.132	-121.033	-72.83	29.73	-93.21	-93.394	-40.082	4.802	-0.66296	0.22421	-0.55807	0.44571	29.6	13111	100
2025-3-27 14:45:24.124	WT901BLE68-01(48591DE3C19B)	-0.189	-1.050	0.177	-32.532	26.794	-122.986	-73.53	28.53	-93.93	-93.394	-40.082	4.802	-0.66296	0.22421	-0.55807	0.44571	29.6	13111	100
2025-3-27 14:45:24.187	WT901BLE68-01(48591DE3C19B)	-0.212	-1.050	0.177	-32.532	26.794	-122.986	-74.20	27.32	-94.63	-93.394	-40.082	4.802	-0.66296	0.22421	-0.55807	0.44571	29.6	13111	100
2025-3-27 14:45:24.187	WT901BLE68-01(48591DE3C19B)	-0.212	-0.966	0.165	-28.931	30.518	-125.000	-74.83	26.11	-95.34	-93.394	-40.082	4.802	-0.66296	0.22421	-0.55807	0.44571	29.6	13111	100
2025-3-27 14:45:24.187	WT901BLE68-01(48591DE3C19B)	-0.235	-0.966	0.165	-28.931	30.518	-125.000	-75.44	24.90	-96.04	-93.394	-40.082	4.802	-0.66296	0.22421	-0.55807	0.44571	29.6	13111	100
2025-3-27 14:45:24.187	WT901BLE68-01(48591DE3C19B)	-0.235	-0.895	0.170	-28.870	33.875	-126.404	-76.03	23.69	-96.75	-93.394	-40.082	4.802	-0.66296	0.22421	-0.55807	0.44571	29.6	13111	100
2025-3-27 14:45:24.213	WT901BLE68-01(48591DE3C19B)	-0.266	-0.895	0.170	-28.870	33.875	-126.404	-76.60	22.47	-97.43	-93.394	-40.082	4.802	-0.66296	0.22421	-0.55807	0.44571	29.6	13111	100
2025-3-27 14:45:24.213	WT901BLE68-01(48591DE3C19B)	-0.266	-0.860	0.188	-29.724	38.940	-127.563	-77.18	21.26	-98.15	-93.394	-40.082	4.802	-0.66296	0.22421	-0.55807	0.44571	29.6	13111	100
2025-3-27 14:45:24.213	WT901BLE68-01(48591DE3C19B)	-0.302	-0.860	0.188	-29.724	38.940	-127.563	-77.73	20.06	-98.85	-93.394	-40.082	4.802	-0.66296	0.22421	-0.55807	0.44571	29.6	13111	100
2025-3-27 14:45:24.213	WT901BLE68-01(48591DE3C19B)	-0.302	-0.884	0.219	-30.579	42.419	-129.944	-78.28	18.84	-99.57	-93.394	-40.082	4.802	-0.66296	0.22421	-0.55807	0.44571	29.6	13111	100
2025-3-27 14:45:24.275	WT901BLE68-01(48591DE3C19B)	-0.332	-0.884	0.219	-30.579	42.419	-129.944	-78.80	17.63	-100.27	-93.394	-40.082	4.802	-0.66296	0.22421	-0.55807	0.44571	29.6	13111	100
2025-3-27 14:45:24.275	WT901BLE68-01(48591DE3C19B)	-0.332	-0.958	0.237	-30.273	44.495	-133.911	-79.30	16.39	-100.99	-93.394	-40.082	4.802	-0.66296	0.22421	-0.55807	0.44571	29.6	13111	100
2025-3-27 14:45:24.275	WT901BLE68-01(48591DE3C19B)	-0.381	-0.958	0.237	-30.273	44.495	-133.911	-79.79	15.14	-101.69	-93.394	-40.082	4.802	-0.66296	0.22421	-0.55807	0.44571	29.6	13111	100
2025-3-27 14:45:24.276	WT901BLE68-01(48591DE3C19B)	-0.467	-1.024	0.234	-27.161	46.753	-138.977	-80.23	13.86	-102.40	-93.394	-40.082	4.802	-0.66296	0.22421	-0.55807	0.44571	29.6	13111	100
2025-3-27 14:45:24.304	WT901BLE68-01(48591DE3C19B)	-0.467	-1.061	0.248	-23.804	45.776	-145.142	-80.63	12.56	-103.10	-93.394	-40.082	4.802	-0.66296	0.22421	-0.55807	0.44571	29.6	13111	100
2025-3-27 14:45:24.304	WT901BLE68-01(48591DE3C19B)	-0.552	-1.061	0.248	-23.804	45.776	-145.142	-80.99	11.23	-103.79	-93.394	-40.082	4.802	-0.66296	0.22421	-0.55807	0.44571	29.6	13111	100
2025-3-27 14:45:24.304	WT901BLE68-01(48591DE3C19B)	-0.552	-1.073	0.255	-22.705	38.025	-148.254	-81.32	9.89	-104.43	-93.394	-40.082	4.802	-0.66296	0.22421	-0.55807	0.44571	29.6	13111	100
2025-3-27 14:45:24.304	WT901BLE68-01(48591DE3C19B)	-0.586	-1.073	0.255	-22.705	38.025	-148.254	-81.62	8.54	-105.03	-93.394	-40.082	4.802	-0.66296	0.22421	-0.55807	0.44571	29.6	13111	100
2025-3-27 14:45:24.333	WT901BLE68-01(48591DE3C19B)	-0.586	-1.080	0.271	-23.865	22.827	-149.109	-81.90	7.18	-105.54	-74.186	-46.354	-3.430	-0.66296	0.22421	-0.55807	0.44571	29.6	13111	100
2025-3-27 14:45:24.333	WT901BLE68-01(48591DE3C19B)	-0.585	-1.080	0.271	-23.865	22.827	-149.109	-82.16	5.82	-105.97	-74.186	-46.354	-3.430	-0.66296	0.22421	-0.55807	0.44571	29.6	13111	100
2025-3-27 14:45:24.333	WT901BLE68-01(48591DE3C19B)	-0.585	-1.077	0.303	-24.841	3.540	-148.010	-82.40	4.47	-106.30	-74.186	-46.354	-3.430	-0.66296	0.22421	-0.55807	0.44571	29.6	13111	100
2025-3-27 14:45:24.333	WT901BLE68-01(48591DE3C19B)	-0.562	-1.077	0.303	-24.841	3.540	-148.010	-82.63	3.11	-106.53	-74.186	-46.354	-3.430	-0.66296	0.22421	-0.55807	0.44571	29.6	13111	100
2025-3-27 14:45:24.394	WT901BLE68-01(48591DE3C19B)	-0.562	-1.041	0.336	-25.696	-14.954	-143.250	-82.85	1.78	-106.66	-74.186	-46.354	-3.430	-0.66296	0.22421	-0.55807	0.44571	29.6	13111	100
2025-3-27 14:45:24.394	WT901BLE68-01(48591DE3C19B)	-0.482	-1.041	0.336	-25.696	-14.954	-143.250	-83.06	0.47	-106.70	-74.186	-46.354	-3.430	-0.66296	0.22421	-0.55807	0.44571	29.6	13111	100
2025-3-27 14:45:24.394	WT901BLE68-01(48591DE3C19B)	-0.482	-0.967	0.342	-25.757	-22.339	-134.949	-83.28	-0.79	-106.70	-74.186	-46.354	-3.430	-0.66296	0.22421	-0.55807	0.44571	29.6	13111	100
2025-3-27 14:45:24.395	WT901BLE68-01(48591DE3C19B)	-0.413	-0.967	0.342	-25.757	-22.339	-134.949	-83.48	-2.00	-106.66	-74.186	-46.354	-3.430	-0.66296	0.22421	-0.55807	0.44571	29.6	13111	100
2025-3-27 14:45:24.424	WT901BLE68-01(48591DE3C19B)	-0.413	-0.923	0.319	-32.959	-14.526	-124.207	-83.72	-3.15	-106.64	-74.186	-46.354	-3.430	-0.66296	0.22421	-0.55807	0.44571	29.6	13111	100
2025-3-27 14:45:24.425	WT901BLE68-01(48591DE3C19B)	-0.413	-0.923	0.319	-32.959	-14.526	-124.207	-83.98	-4.24	-106.67	-74.186	-46.354	-3.430	-0.66296	0.22421	-0.55807	0.44571	29.6	13111	100
2025-3-27 14:45:24.425	WT901BLE68-01(48591DE3C19B)	-0.413	-1.005	0.316	-39.551	0.427	-115.723	-84.28	-5.27	-106.75	-74.186	-46.354	-3.430	-0.66296	0.22421	-0.55807	0.44571	29.6	13111	100
2025-3-27 14:45:24.425	WT901BLE68-01(48591DE3C19B)	-0.479	-1.005	0.316	-39.551	0.427	-115.723	-84.59	-6.25	-106.91	-74.186	-46.354	-3.430	-0.66296	0.22421	-0.55807	0.44571	29.6	13111	100
2025-3-27 14:45:24.492	WT901BLE68-01(48591DE3C19B)	-0.479	-1.145	0.362	-37.292	11.536	-107.971	-84.89	-7.19	-107.11	-74.186	-46.354	-3.430	-0.66296	0.22421	-0.55807	0.44571	29.6	13111	100
2025-3-27 14:45:24.492	WT901BLE68-01(48591DE3C19B)	-0.563	-1.145	0.362	-37.292	11.536	-107.971	-85.16	-8.07	-107.36	-74.186	-46.354	-3.430	-0.66296	0.22421	-0.55807	0.44571	29.6	13111	100
2025-3-27 14:45:24.492	WT901BLE68-01(48591DE3C19B)	-0.563	-1.205	0.430	-31.860	13.184	-102.051	-85.39	-8.93	-107.62	-74.186	-46.354	-3.430	-0.66296	0.22421	-0.55807	0.44571	29.6	13111	100
2025-3-27 14:45:24.492	WT901BLE68-01(48591DE3C19B)	-0.610	-1.205	0.430	-31.860	13.184	-102.051	-85.59	-9.74	-107.88	-74.186	-46.354	-3.430	-0.66296	0.22421	-0.55807	0.44571	29.6	13111	100
2025-3-27 14:45:24.492	WT901BLE68-01(48591DE3C19B)	-0.610	-1.280	0.443	-32.227	11.841	-95.398	-85.79	-10.52	-108.13	-74.186	-46.354	-3.430	-0.66296	0.22421	-0.55807	0.44571	29.6	13111	100
2025-3-27 14:45:24.493	WT901BLE68-01(48591DE3C19B)	-0.646	-1.280	0.443	-32.227	11.841	-95.398	-85.98	-11.27	-108.37	-74.186	-46.354	-3.430	-0.66296	0.22421	-0.55807	0.44571	29.6	13111	100
2025-3-27 14:45:24.493	WT901BLE68-01(48591DE3C19B)	-0.646	-1.422	0.453	-25.818	11.841	-85.144	-86.15	-11.96	-108.61	-74.186	-46.354	-3.430	-0.36353	0.45929	-0.50668	0.63251	29.6	13111	100
2025-3-27 14:45:24.493	WT901BLE68-01(48591DE3C19B)	-0.641	-1.422	0.453	-25.818	11.841	-85.144	-86.28	-12.59	-108.84	-74.186	-46.354	-3.430	-0.36353	0.45929	-0.50668	0.63251	29.6	13111	100
2025-3-27 14:45:24.545	WT901BLE68-01(48591DE3C19B)	-0.641	-1.323	0.445	-7.629	10.925	-68.909	-86.31	-13.15	-109.06	-74.186	-46.354	-3.430	-0.36353	0.45929	-0.50668	0.63251	29.6	13111	100
2025-3-27 14:45:24.545	WT901BLE68-01(48591DE3C19B)	-0.593	-1.323	0.445	-7.629	10.925	-68.909	-86.25	-13.61	-109.28	-74.186	-46.354	-3.430	-0.36353	0.45929	-0.50668	0.63251	29.6	13111	100
2025-3-27 14:45:24.545	WT901BLE68-01(48591DE3C19B)	-0.593	-1.189	0.425	-3.784	11.536	-43.457	-86.18	-13.95	-109.48	-74.186	-46.354	-3.430	-0.36353	0.45929	-0.50668	0.63251	29.6	13111	100
2025-3-27 14:45:24.545	WT901BLE68-01(48591DE3C19B)	-0.585	-1.189	0.425	-3.784	11.536	-43.457	-86.08	-14.16	-109.69	-74.186	-46.354	-3.430	-0.36353	0.45929	-0.50668	0.63251	29.6	13111	100
2025-3-27 14:45:24.574	WT901BLE68-01(48591DE3C19B)	-0.585	-1.189	0.443	7.141	7.507	-16.846	-85.94	-14.23	-109.87	-74.186	-46.354	-3.430	-0.36353	0.45929	-0.50668	0.63251	29.6	13111	100
2025-3-27 14:45:24.574	WT901BLE68-01(48591DE3C19B)	-0.557	-1.189	0.443	7.141	7.507	-16.846	-85.75	-14.17	-110.02	-74.186	-46.354	-3.430	-0.36353	0.45929	-0.50668	0.63251	29.6	13111	100
2025-3-27 14:45:24.574	WT901BLE68-01(48591DE3C19B)	-0.557	-0.990	0.417	33.264	0.549	15.747	-85.44	-13.95	-110.13	-74.186	-46.354	-3.430	-0.36353	0.45929	-0.50668	0.63251	29.6	13111	100
2025-3-27 14:45:24.575	WT901BLE68-01(48591DE3C19B)	-0.470	-0.990	0.417	33.264	0.549	15.747	-85.01	-13.58	-110.18	-74.186	-46.354	-3.430	-0.36353	0.45929	-0.50668	0.63251	29.6	13111	100
2025-3-27 14:45:24.604	WT901BLE68-01(48591DE3C19B)	-0.470	-0.739	0.311	32.043	-6.226	50.903	-84.59	-13.03	-110.19	-74.186	-46.354	-3.430	-0.36353	0.45929	-0.50668	0.63251	29.6	13111	100
2025-3-27 14:45:24.604	WT901BLE68-01(48591DE3C19B)	-0.426	-0.739	0.311	32.043	-6.226	50.903	-84.20	-12.32	-110.14	-74.186	-46.354	-3.430	-0.36353	0.45929	-0.50668	0.63251	29.6	13111	100
2025-3-27 14:45:24.604	WT901BLE68-01(48591DE3C19B)	-0.426	-0.776	0.198	13.489	-16.296	79.956	-83.91	-11.46	-110.03	-74.186	-46.354	-3.430	-0.36353	0.45929	-0.50668	0.63251	29.6	13111	100
2025-3-27 14:45:24.604	WT901BLE68-01(48591DE3C19B)	-0.460	-0.776	0.198	13.489	-16.296	79.956	-83.74	-10.48	-109.85	-74.186	-46.354	-3.430	-0.36353	0.45929	-0.50668	0.63251	29.6	13111	100
2025-3-27 14:45:24.665	WT901BLE68-01(48591DE3C19B)	-0.460	-0.974	0.127	11.230	-35.095	103.516	-83.59	-9.39	-109.54	-74.186	-46.354	-3.430	-0.36353	0.45929	-0.50668	0.63251	29.6	13111	100
2025-3-27 14:45:24.665	WT901BLE68-01(48591DE3C19B)	-0.488	-0.974	0.127	11.230	-35.095	103.516	-83.47	-8.20	-109.13	-74.186	-46.354	-3.430	-0.36353	0.45929	-0.50668	0.63251	29.6	13111	100
2025-3-27 14:45:24.665	WT901BLE68-01(48591DE3C19B)	-0.488	-1.104	0.093	18.982	-63.904	123.535	-83.33	-6.94	-108.56	-74.186	-46.354	-3.430	-0.36353	0.45929	-0.50668	0.63251	29.6	13111	100
2025-3-27 14:45:24.665	WT901BLE68-01(48591DE3C19B)	-0.486	-1.104	0.093	18.982	-63.904	123.535	-83.17	-5.60	-107.81	-74.186	-46.354	-3.430	-0.36353	0.45929	-0.50668	0.63251	29.6	13111	100
2025-3-27 14:45:24.695	WT901BLE68-01(48591DE3C19B)	-0.486	-1.243	0.081	26.672	-93.323	138.489	-82.97	-4.22	-106.91	-74.186	-46.354	-3.430	-0.36353	0.45929	-0.50668	0.63251	29.6	13111	100
2025-3-27 14:45:24.695	WT901BLE68-01(48591DE3C19B)	-0.405	-1.243	0.081	26.672	-93.323	138.489	-82.73	-2.80	-105.84	-74.186	-46.354	-3.430	-0.36353	0.45929	-0.50668	0.63251	29.6	13111	100
2025-3-27 14:45:24.695	WT901BLE68-01(48591DE3C19B)	-0.405	-1.342	0.104	46.265	-113.831	148.621	-82.38	-1.35	-104.65	-74.186	-46.354	-3.430	-0.36353	0.45929	-0.50668	0.63251	29.6	13111	100
2025-3-27 14:45:24.695	WT901BLE68-01(48591DE3C19B)	-0.294	-1.342	0.104	46.265	-113.831	148.621	-81.91	0.10	-103.34	-70.462	-46.158	-4.214	-0.36353	0.45929	-0.50668	0.63251	29.6	13111	100
2025-3-27 14:45:24.724	WT901BLE68-01(48591DE3C19B)	-0.294	-1.270	0.146	63.232	-112.793	156.799	-81.33	1.58	-102.01	-70.462	-46.158	-4.214	-0.36353	0.45929	-0.50668	0.63251	29.6	13111	100
2025-3-27 14:45:24.724	WT901BLE68-01(48591DE3C19B)	-0.233	-1.270	0.146	63.232	-112.793	156.799	-80.63	3.07	-100.66	-70.462	-46.158	-4.214	-0.36353	0.45929	-0.50668	0.63251	29.6	13111	100
2025-3-27 14:45:24.724	WT901BLE68-01(48591DE3C19B)	-0.233	-1.121	0.247	74.463	-94.849	165.710	-79.80	4.64	-99.46	-70.462	-46.158	-4.214	-0.36353	0.45929	-0.50668	0.63251	29.6	13111	100
2025-3-27 14:45:24.724	WT901BLE68-01(48591DE3C19B)	-0.218	-1.121	0.247	74.463	-94.849	165.710	-78.94	6.17	-98.23	-70.462	-46.158	-4.214	-0.36353	0.45929	-0.50668	0.63251	29.6	13111	100
2025-3-27 14:45:24.790	WT901BLE68-01(48591DE3C19B)	-0.218	-1.035	0.295	73.669	-66.650	174.805	-78.09	7.82	-97.25	-70.462	-46.158	-4.214	-0.36353	0.45929	-0.50668	0.63251	29.6	13111	100
2025-3-27 14:45:24.791	WT901BLE68-01(48591DE3C19B)	-0.219	-1.035	0.295	73.669	-66.650	174.805	-77.20	9.45	-96.24	-70.462	-46.158	-4.214	-0.36353	0.45929	-0.50668	0.63251	29.6	13111	100
2025-3-27 14:45:24.791	WT901BLE68-01(48591DE3C19B)	-0.219	-1.039	0.283	70.129	-30.884	182.007	-76.38	11.19	-95.54	-70.462	-46.158	-4.214	-0.36353	0.45929	-0.50668	0.63251	29.6	13111	100
2025-3-27 14:45:24.791	WT901BLE68-01(48591DE3C19B)	-0.249	-1.039	0.283	70.129	-30.884	182.007	-75.53	12.91	-94.81	-70.462	-46.158	-4.214	-0.36353	0.45929	-0.50668	0.63251	29.6	13111	100
2025-3-27 14:45:24.814	WT901BLE68-01(48591DE3C19B)	-0.249	-1.085	0.229	65.491	-1.465	186.523	-74.77	14.73	-94.34	-70.462	-46.158	-4.214	-0.36353	0.45929	-0.50668	0.63251	29.6	13111	100
2025-3-27 14:45:24.815	WT901BLE68-01(48591DE3C19B)	-0.276	-1.085	0.229	65.491	-1.465	186.523	-73.99	16.52	-93.83	-70.462	-46.158	-4.214	-0.36353	0.45929	-0.50668	0.63251	29.6	13111	100
2025-3-27 14:45:24.815	WT901BLE68-01(48591DE3C19B)	-0.276	-1.127	0.167	61.829	15.259	186.646	-73.28	18.35	-93.47	-70.462	-46.158	-4.214	-0.36353	0.45929	-0.50668	0.63251	29.6	13111	100
2025-3-27 14:45:24.815	WT901BLE68-01(48591DE3C19B)	-0.330	-1.127	0.167	61.829	15.259	186.646	-72.56	20.15	-93.07	-70.462	-46.158	-4.214	-0.36353	0.45929	-0.50668	0.63251	29.6	13111	100
2025-3-27 14:45:24.843	WT901BLE68-01(48591DE3C19B)	-0.330	-1.146	0.144	59.143	17.700	183.228	-71.86	21.92	-92.68	-70.462	-46.158	-4.214	-0.36353	0.45929	-0.50668	0.63251	29.6	13111	100
2025-3-27 14:45:24.844	WT901BLE68-01(48591DE3C19B)	-0.389	-1.146	0.144	59.143	17.700	183.228	-71.15	23.68	-92.26	-70.462	-46.158	-4.214	-0.36353	0.45929	-0.50668	0.63251	29.6	13111	100
2025-3-27 14:45:24.844	WT901BLE68-01(48591DE3C19B)	-0.389	-1.166	0.138	57.312	4.089	176.941	-70.38	25.31	-91.70	-70.462	-46.158	-4.214	-0.36353	0.45929	-0.50668	0.63251	29.6	13111	100
2025-3-27 14:45:24.844	WT901BLE68-01(48591DE3C19B)	-0.393	-1.166	0.138	57.312	4.089	176.941	-69.60	26.92	-91.10	-70.462	-46.158	-4.214	-0.36353	0.45929	-0.50668	0.63251	29.6	13111	100
2025-3-27 14:45:24.903	WT901BLE68-01(48591DE3C19B)	-0.393	-1.179	0.115	57.373	-14.465	168.335	-68.72	28.38	-90.31	-70.462	-46.158	-4.214	-0.36353	0.45929	-0.50668	0.63251	29.6	13111	100
