time	DeviceName	AccX(g)	AccY(g)	AccZ(g)	AsX(°/s)	AsY(°/s)	AsZ(°/s)	AngleX(°)	AngleY(°)	AngleZ(°)	HX(uT)	HY(uT)	HZ(uT)	Q0()	Q1()	Q2()	Q3()	Temperature(°C)	Version()	Battery level(%)
2025-3-27 14:52:50.626	WT901BLE68-01(48591DE3C19B)	-0.361	-0.907	0.285	-0.916	-0.305	-22.278	-74.53	20.54	-19.39	-37.436	-44.394	71.246	-0.79016	0.55219	-0.26559	0.00946	30.4	13111	100
2025-3-27 14:52:50.626	WT901BLE68-01(48591DE3C19B)	-0.361	-0.907	0.285	-0.916	-0.305	-22.278	-74.55	20.32	-19.41	-37.436	-44.394	71.246	-0.79016	0.55219	-0.26559	0.00946	30.4	13111	100
2025-3-27 14:52:50.626	WT901BLE68-01(48591DE3C19B)	-0.361	-0.929	0.279	-0.427	0.916	-21.484	-74.57	20.12	-19.45	-37.436	-44.394	71.246	-0.79016	0.55219	-0.26559	0.00946	30.4	13111	100
2025-3-27 14:52:50.626	WT901BLE68-01(48591DE3C19B)	-0.362	-0.929	0.279	-0.427	0.916	-21.484	-74.59	19.92	-19.48	-37.436	-44.394	71.246	-0.79016	0.55219	-0.26559	0.00946	30.4	13111	100
2025-3-27 14:52:50.657	WT901BLE68-01(48591DE3C19B)	-0.362	-0.934	0.283	1.831	2.686	-19.653	-74.59	19.74	-19.52	-37.436	-44.394	71.246	-0.79016	0.55219	-0.26559	0.00946	30.4	13111	100
2025-3-27 14:52:50.657	WT901BLE68-01(48591DE3C19B)	-0.365	-0.934	0.283	1.831	2.686	-19.653	-74.59	19.56	-19.57	-37.436	-44.394	71.246	-0.79016	0.55219	-0.26559	0.00946	30.4	13111	100
2025-3-27 14:52:50.657	WT901BLE68-01(48591DE3C19B)	-0.365	-0.925	0.286	2.502	4.395	-16.968	-74.58	19.42	-19.62	-37.436	-44.394	71.246	-0.79016	0.55219	-0.26559	0.00946	30.4	13111	100
2025-3-27 14:52:50.657	WT901BLE68-01(48591DE3C19B)	-0.364	-0.925	0.286	2.502	4.395	-16.968	-74.58	19.27	-19.68	-37.436	-44.394	71.246	-0.79016	0.55219	-0.26559	0.00946	30.4	13111	100
2025-3-27 14:52:50.686	WT901BLE68-01(48591DE3C19B)	-0.364	-0.919	0.281	3.418	6.470	-13.733	-74.56	19.17	-19.74	-37.436	-44.394	71.246	-0.79016	0.55219	-0.26559	0.00946	30.4	13111	100
2025-3-27 14:52:50.687	WT901BLE68-01(48591DE3C19B)	-0.367	-0.919	0.281	3.418	6.470	-13.733	-74.55	19.06	-19.81	-37.436	-44.394	71.246	-0.79016	0.55219	-0.26559	0.00946	30.4	13111	100
2025-3-27 14:52:50.687	WT901BLE68-01(48591DE3C19B)	-0.367	-0.905	0.276	4.578	7.996	-10.254	-74.54	18.99	-19.88	-37.436	-44.394	71.246	-0.79016	0.55219	-0.26559	0.00946	30.4	13111	100
2025-3-27 14:52:50.687	WT901BLE68-01(48591DE3C19B)	-0.375	-0.905	0.276	4.578	7.996	-10.254	-74.51	18.92	-19.95	-37.436	-44.394	71.246	-0.79016	0.55219	-0.26559	0.00946	30.4	13111	100
2025-3-27 14:52:50.747	WT901BLE68-01(48591DE3C19B)	-0.374	-0.898	0.275	3.967	7.324	-6.897	-74.50	18.89	-20.00	-37.436	-44.394	71.246	-0.79016	0.55219	-0.26559	0.00946	30.4	13111	100
2025-3-27 14:52:50.747	WT901BLE68-01(48591DE3C19B)	-0.374	-0.896	0.271	3.357	5.493	-4.272	-74.48	18.86	-20.03	-37.436	-44.394	71.246	-0.79016	0.55219	-0.26559	0.00946	30.4	13111	100
2025-3-27 14:52:50.747	WT901BLE68-01(48591DE3C19B)	-0.367	-0.896	0.271	3.357	5.493	-4.272	-74.46	18.85	-20.06	-37.436	-44.394	71.246	-0.79016	0.55219	-0.26559	0.00946	30.4	13111	100
2025-3-27 14:52:50.747	WT901BLE68-01(48591DE3C19B)	-0.367	-0.891	0.266	3.052	4.150	-2.441	-74.44	18.84	-20.07	-37.436	-44.394	71.246	-0.79016	0.55219	-0.26559	0.00946	30.4	13111	100
2025-3-27 14:52:50.780	WT901BLE68-01(48591DE3C19B)	-0.365	-0.891	0.266	3.052	4.150	-2.441	-74.42	18.85	-20.08	-37.436	-44.394	71.246	-0.79086	0.56467	-0.23239	0.03946	30.4	13111	100
2025-3-27 14:52:50.780	WT901BLE68-01(48591DE3C19B)	-0.365	-0.890	0.261	2.441	3.357	-1.465	-74.39	18.85	-20.07	-37.436	-44.394	71.246	-0.79086	0.56467	-0.23239	0.03946	30.4	13111	100
2025-3-27 14:52:50.780	WT901BLE68-01(48591DE3C19B)	-0.360	-0.890	0.261	2.441	3.357	-1.465	-74.38	18.86	-20.07	-37.436	-44.394	71.246	-0.79086	0.56467	-0.23239	0.03946	30.4	13111	100
2025-3-27 14:52:50.780	WT901BLE68-01(48591DE3C19B)	-0.360	-0.894	0.260	1.892	2.625	-1.099	-74.36	18.87	-20.06	-37.436	-44.394	71.246	-0.79086	0.56467	-0.23239	0.03946	30.4	13111	100
2025-3-27 14:52:50.809	WT901BLE68-01(48591DE3C19B)	-0.357	-0.894	0.260	1.892	2.625	-1.099	-74.34	18.88	-20.04	-37.436	-44.394	71.246	-0.79086	0.56467	-0.23239	0.03946	30.4	13111	100
2025-3-27 14:52:50.810	WT901BLE68-01(48591DE3C19B)	-0.357	-0.899	0.258	1.648	3.052	-1.221	-74.33	18.89	-20.03	-37.436	-44.394	71.246	-0.79086	0.56467	-0.23239	0.03946	30.4	13111	100
2025-3-27 14:52:50.810	WT901BLE68-01(48591DE3C19B)	-0.359	-0.899	0.258	1.648	3.052	-1.221	-74.32	18.90	-20.02	-37.436	-44.394	71.246	-0.79086	0.56467	-0.23239	0.03946	30.4	13111	100
2025-3-27 14:52:50.810	WT901BLE68-01(48591DE3C19B)	-0.359	-0.902	0.260	1.770	3.479	-1.282	-74.31	18.91	-20.01	-37.436	-44.394	71.246	-0.79086	0.56467	-0.23239	0.03946	30.4	13111	100
2025-3-27 14:52:50.867	WT901BLE68-01(48591DE3C19B)	-0.360	-0.902	0.260	1.770	3.479	-1.282	-74.30	18.92	-20.01	-37.436	-44.394	71.246	-0.79086	0.56467	-0.23239	0.03946	30.4	13111	100
2025-3-27 14:52:50.867	WT901BLE68-01(48591DE3C19B)	-0.360	-0.898	0.258	1.770	3.357	-1.099	-74.30	18.93	-20.00	-37.436	-44.394	71.246	-0.79086	0.56467	-0.23239	0.03946	30.4	13111	100
2025-3-27 14:52:50.867	WT901BLE68-01(48591DE3C19B)	-0.358	-0.898	0.258	1.770	3.357	-1.099	-74.28	18.94	-20.00	-37.436	-44.394	71.246	-0.79086	0.56467	-0.23239	0.03946	30.4	13111	100
2025-3-27 14:52:50.867	WT901BLE68-01(48591DE3C19B)	-0.358	-0.896	0.258	1.404	3.235	-0.305	-74.28	18.96	-19.98	-37.436	-44.394	71.246	-0.79086	0.56467	-0.23239	0.03946	30.4	13111	100
2025-3-27 14:52:50.898	WT901BLE68-01(48591DE3C19B)	-0.356	-0.896	0.258	1.404	3.235	-0.305	-74.27	18.98	-19.98	-37.436	-44.394	71.246	-0.79086	0.56467	-0.23239	0.03946	30.4	13111	100
2025-3-27 14:52:50.898	WT901BLE68-01(48591DE3C19B)	-0.356	-0.897	0.258	1.343	3.174	1.038	-74.26	19.00	-19.96	-37.436	-44.394	71.246	-0.79086	0.56467	-0.23239	0.03946	30.4	13111	100
2025-3-27 14:52:50.898	WT901BLE68-01(48591DE3C19B)	-0.354	-0.897	0.258	1.343	3.174	1.038	-74.26	19.03	-19.95	-37.436	-44.394	71.246	-0.79086	0.56467	-0.23239	0.03946	30.4	13111	100
2025-3-27 14:52:50.898	WT901BLE68-01(48591DE3C19B)	-0.354	-0.898	0.262	1.343	3.601	2.686	-74.25	19.07	-19.94	-37.436	-44.394	71.246	-0.79086	0.56467	-0.23239	0.03946	30.4	13111	100
2025-3-27 14:52:50.927	WT901BLE68-01(48591DE3C19B)	-0.353	-0.898	0.262	1.343	3.601	2.686	-74.25	19.12	-19.92	-37.436	-44.394	71.246	-0.79086	0.56467	-0.23239	0.03946	30.4	13111	100
2025-3-27 14:52:50.927	WT901BLE68-01(48591DE3C19B)	-0.353	-0.898	0.263	1.221	3.601	4.578	-74.24	19.17	-19.91	-37.436	-44.394	71.246	-0.79086	0.56467	-0.23239	0.03946	30.4	13111	100
2025-3-27 14:52:50.927	WT901BLE68-01(48591DE3C19B)	-0.352	-0.898	0.263	1.221	3.601	4.578	-74.23	19.24	-19.89	-37.240	-42.140	72.128	-0.79086	0.56467	-0.23239	0.03946	30.4	13111	100
2025-3-27 14:52:50.927	WT901BLE68-01(48591DE3C19B)	-0.352	-0.897	0.261	0.916	3.113	6.042	-74.22	19.31	-19.87	-37.240	-42.140	72.128	-0.79086	0.56467	-0.23239	0.03946	30.4	13111	100
2025-3-27 14:52:50.986	WT901BLE68-01(48591DE3C19B)	-0.353	-0.897	0.261	0.916	3.113	6.042	-74.22	19.39	-19.84	-37.240	-42.140	72.128	-0.79086	0.56467	-0.23239	0.03946	30.4	13111	100
2025-3-27 14:52:50.987	WT901BLE68-01(48591DE3C19B)	-0.353	-0.902	0.264	0.305	2.075	6.958	-74.21	19.46	-19.81	-37.240	-42.140	72.128	-0.79086	0.56467	-0.23239	0.03946	30.4	13111	100
2025-3-27 14:52:50.987	WT901BLE68-01(48591DE3C19B)	-0.351	-0.902	0.264	0.305	2.075	6.958	-74.21	19.54	-19.77	-37.240	-42.140	72.128	-0.79086	0.56467	-0.23239	0.03946	30.4	13111	100
2025-3-27 14:52:50.987	WT901BLE68-01(48591DE3C19B)	-0.351	-0.908	0.266	-0.061	0.854	7.385	-74.20	19.62	-19.73	-37.240	-42.140	72.128	-0.79086	0.56467	-0.23239	0.03946	30.4	13111	100
2025-3-27 14:52:51.16	WT901BLE68-01(48591DE3C19B)	-0.347	-0.908	0.266	-0.061	0.854	7.385	-74.20	19.70	-19.67	-37.240	-42.140	72.128	-0.79086	0.56467	-0.23239	0.03946	30.4	13111	100
2025-3-27 14:52:51.16	WT901BLE68-01(48591DE3C19B)	-0.347	-0.909	0.269	-0.305	0.061	7.385	-74.19	19.78	-19.62	-37.240	-42.140	72.128	-0.79086	0.56467	-0.23239	0.03946	30.4	13111	100
2025-3-27 14:52:51.16	WT901BLE68-01(48591DE3C19B)	-0.340	-0.909	0.269	-0.305	0.061	7.385	-74.18	19.86	-19.56	-37.240	-42.140	72.128	-0.79086	0.56467	-0.23239	0.03946	30.4	13111	100
2025-3-27 14:52:51.16	WT901BLE68-01(48591DE3C19B)	-0.340	-0.907	0.269	0.122	0.122	7.202	-74.17	19.93	-19.50	-37.240	-42.140	72.128	-0.79086	0.56467	-0.23239	0.03946	30.4	13111	100
2025-3-27 14:52:51.108	WT901BLE68-01(48591DE3C19B)	-0.335	-0.907	0.269	0.122	0.122	7.202	-74.16	20.01	-19.45	-37.240	-42.140	72.128	-0.79086	0.56467	-0.23239	0.03946	30.4	13111	100
2025-3-27 14:52:51.108	WT901BLE68-01(48591DE3C19B)	-0.335	-0.895	0.268	0.732	0.854	7.202	-74.15	20.08	-19.40	-37.240	-42.140	72.128	-0.79086	0.56467	-0.23239	0.03946	30.4	13111	100
2025-3-27 14:52:51.108	WT901BLE68-01(48591DE3C19B)	-0.333	-0.895	0.268	0.732	0.854	7.202	-74.13	20.15	-19.35	-37.240	-42.140	72.128	-0.79086	0.56467	-0.23239	0.03946	30.4	13111	100
2025-3-27 14:52:51.108	WT901BLE68-01(48591DE3C19B)	-0.333	-0.886	0.267	0.610	1.648	7.202	-74.12	20.23	-19.31	-37.240	-42.140	72.128	-0.79086	0.56467	-0.23239	0.03946	30.4	13111	100
2025-3-27 14:52:51.108	WT901BLE68-01(48591DE3C19B)	-0.336	-0.886	0.267	0.610	1.648	7.202	-74.11	20.30	-19.27	-37.240	-42.140	72.128	-0.79086	0.56467	-0.23239	0.03946	30.4	13111	100
2025-3-27 14:52:51.109	WT901BLE68-01(48591DE3C19B)	-0.336	-0.883	0.268	0.488	1.465	7.324	-74.10	20.37	-19.23	-37.240	-42.140	72.128	-0.79086	0.56467	-0.23239	0.03946	30.4	13111	100
2025-3-27 14:52:51.109	WT901BLE68-01(48591DE3C19B)	-0.341	-0.883	0.268	0.488	1.465	7.324	-74.09	20.45	-19.19	-37.240	-42.140	72.128	-0.79086	0.56467	-0.23239	0.03946	30.4	13111	100
2025-3-27 14:52:51.109	WT901BLE68-01(48591DE3C19B)	-0.341	-0.886	0.271	-0.488	0.183	7.080	-74.08	20.52	-19.15	-37.240	-42.140	72.128	-0.79086	0.56467	-0.23239	0.03946	30.4	13111	100
2025-3-27 14:52:51.166	WT901BLE68-01(48591DE3C19B)	-0.339	-0.886	0.271	-0.488	0.183	7.080	-74.07	20.58	-19.10	-37.240	-42.140	72.128	-0.79086	0.56467	-0.23239	0.03946	30.4	13111	100
2025-3-27 14:52:51.166	WT901BLE68-01(48591DE3C19B)	-0.339	-0.894	0.270	-0.854	-1.587	6.348	-74.06	20.64	-19.04	-37.240	-42.140	72.128	-0.79086	0.56467	-0.23239	0.03946	30.4	13111	100
2025-3-27 14:52:51.167	WT901BLE68-01(48591DE3C19B)	-0.331	-0.894	0.270	-0.854	-1.587	6.348	-74.06	20.70	-18.97	-37.240	-42.140	72.128	-0.79086	0.56467	-0.23239	0.03946	30.4	13111	100
2025-3-27 14:52:51.167	WT901BLE68-01(48591DE3C19B)	-0.331	-0.892	0.270	-0.671	-2.197	5.371	-74.05	20.74	-18.91	-37.240	-42.140	72.128	-0.79242	0.56064	-0.23907	0.02203	30.4	13111	100
2025-3-27 14:52:51.196	WT901BLE68-01(48591DE3C19B)	-0.326	-0.892	0.270	-0.671	-2.197	5.371	-74.04	20.79	-18.84	-37.240	-42.140	72.128	-0.79242	0.56064	-0.23907	0.02203	30.4	13111	100
2025-3-27 14:52:51.196	WT901BLE68-01(48591DE3C19B)	-0.326	-0.895	0.269	-0.793	-1.343	4.211	-74.03	20.82	-18.78	-37.240	-42.140	72.128	-0.79242	0.56064	-0.23907	0.02203	30.4	13111	100
2025-3-27 14:52:51.197	WT901BLE68-01(48591DE3C19B)	-0.328	-0.895	0.269	-0.793	-1.343	4.211	-74.02	20.85	-18.73	-37.240	-42.140	72.128	-0.79242	0.56064	-0.23907	0.02203	30.4	13111	100
2025-3-27 14:52:51.197	WT901BLE68-01(48591DE3C19B)	-0.328	-0.902	0.268	-0.366	-0.122	3.052	-74.01	20.87	-18.69	-37.240	-42.140	72.128	-0.79242	0.56064	-0.23907	0.02203	30.4	13111	100
2025-3-27 14:52:51.226	WT901BLE68-01(48591DE3C19B)	-0.334	-0.902	0.268	-0.366	-0.122	3.052	-74.01	20.90	-18.65	-37.240	-42.140	72.128	-0.79242	0.56064	-0.23907	0.02203	30.4	13111	100
2025-3-27 14:52:51.226	WT901BLE68-01(48591DE3C19B)	-0.334	-0.900	0.269	-0.122	0.061	1.709	-74.01	20.91	-18.62	-37.240	-42.140	72.128	-0.79242	0.56064	-0.23907	0.02203	30.4	13111	100
2025-3-27 14:52:51.226	WT901BLE68-01(48591DE3C19B)	-0.338	-0.900	0.269	-0.122	0.061	1.709	-74.00	20.92	-18.59	-37.240	-42.140	72.128	-0.79242	0.56064	-0.23907	0.02203	30.4	13111	100
2025-3-27 14:52:51.226	WT901BLE68-01(48591DE3C19B)	-0.338	-0.895	0.271	0.000	-1.221	0.488	-73.99	20.91	-18.56	-37.240	-42.140	72.128	-0.79242	0.56064	-0.23907	0.02203	30.4	13111	100
2025-3-27 14:52:51.256	WT901BLE68-01(48591DE3C19B)	-0.337	-0.895	0.271	0.000	-1.221	0.488	-73.98	20.91	-18.51	-37.240	-42.140	72.128	-0.79242	0.56064	-0.23907	0.02203	30.4	13111	100
2025-3-27 14:52:51.256	WT901BLE68-01(48591DE3C19B)	-0.337	-0.893	0.268	-1.038	-2.686	-0.549	-73.98	20.89	-18.46	-37.240	-42.140	72.128	-0.79242	0.56064	-0.23907	0.02203	30.4	13111	100
2025-3-27 14:52:51.256	WT901BLE68-01(48591DE3C19B)	-0.331	-0.893	0.268	-1.038	-2.686	-0.549	-73.98	20.87	-18.41	-37.240	-42.140	72.128	-0.79242	0.56064	-0.23907	0.02203	30.4	13111	100
2025-3-27 14:52:51.256	WT901BLE68-01(48591DE3C19B)	-0.331	-0.902	0.264	-0.916	-2.747	-1.526	-73.97	20.84	-18.36	-37.240	-42.140	72.128	-0.79242	0.56064	-0.23907	0.02203	30.4	13111	100
2025-3-27 14:52:51.317	WT901BLE68-01(48591DE3C19B)	-0.333	-0.902	0.264	-0.916	-2.747	-1.526	-73.97	20.81	-18.31	-37.240	-42.140	72.128	-0.79242	0.56064	-0.23907	0.02203	30.4	13111	100
2025-3-27 14:52:51.318	WT901BLE68-01(48591DE3C19B)	-0.333	-0.899	0.264	0.366	-1.648	-2.319	-73.96	20.78	-18.28	-37.240	-42.140	72.128	-0.79242	0.56064	-0.23907	0.02203	30.4	13111	100
2025-3-27 14:52:51.318	WT901BLE68-01(48591DE3C19B)	-0.340	-0.899	0.264	0.366	-1.648	-2.319	-73.95	20.75	-18.25	-37.240	-42.140	72.128	-0.79242	0.56064	-0.23907	0.02203	30.4	13111	100
2025-3-27 14:52:51.318	WT901BLE68-01(48591DE3C19B)	-0.340	-0.888	0.263	-0.122	-1.831	-3.113	-73.94	20.70	-18.22	-37.240	-42.140	72.128	-0.79242	0.56064	-0.23907	0.02203	30.4	13111	100
2025-3-27 14:52:51.380	WT901BLE68-01(48591DE3C19B)	-0.342	-0.888	0.263	-0.122	-1.831	-3.113	-73.94	20.67	-18.18	-37.240	-42.140	72.128	-0.79242	0.56064	-0.23907	0.02203	30.4	13111	100
2025-3-27 14:52:51.380	WT901BLE68-01(48591DE3C19B)	-0.342	-0.891	0.263	-0.610	-2.319	-3.906	-73.94	20.62	-18.15	-37.240	-42.140	72.128	-0.79242	0.56064	-0.23907	0.02203	30.4	13111	100
2025-3-27 14:52:51.380	WT901BLE68-01(48591DE3C19B)	-0.343	-0.891	0.263	-0.610	-2.319	-3.906	-73.93	20.57	-18.11	-37.240	-42.140	72.128	-0.79242	0.56064	-0.23907	0.02203	30.4	13111	100
2025-3-27 14:52:51.380	WT901BLE68-01(48591DE3C19B)	-0.343	-0.891	0.269	-0.488	-2.686	-4.700	-73.93	20.51	-18.07	-37.436	-42.728	72.030	-0.79242	0.56064	-0.23907	0.02203	30.4	13111	100
2025-3-27 14:52:51.380	WT901BLE68-01(48591DE3C19B)	-0.343	-0.891	0.269	-0.488	-2.686	-4.700	-73.93	20.46	-18.03	-37.436	-42.728	72.030	-0.79242	0.56064	-0.23907	0.02203	30.4	13111	100
2025-3-27 14:52:51.380	WT901BLE68-01(48591DE3C19B)	-0.343	-0.896	0.275	-1.038	-2.747	-4.944	-73.93	20.40	-18.00	-37.436	-42.728	72.030	-0.79242	0.56064	-0.23907	0.02203	30.4	13111	100
2025-3-27 14:52:51.380	WT901BLE68-01(48591DE3C19B)	-0.343	-0.896	0.275	-1.038	-2.747	-4.944	-73.93	20.34	-17.96	-37.436	-42.728	72.030	-0.79242	0.56064	-0.23907	0.02203	30.4	13111	100
2025-3-27 14:52:51.380	WT901BLE68-01(48591DE3C19B)	-0.343	-0.897	0.272	-0.671	-1.648	-4.944	-73.93	20.29	-17.94	-37.436	-42.728	72.030	-0.79242	0.56064	-0.23907	0.02203	30.4	13111	100
2025-3-27 14:52:51.436	WT901BLE68-01(48591DE3C19B)	-0.351	-0.897	0.272	-0.671	-1.648	-4.944	-73.94	20.23	-17.91	-37.436	-42.728	72.030	-0.79242	0.56064	-0.23907	0.02203	30.4	13111	100
2025-3-27 14:52:51.436	WT901BLE68-01(48591DE3C19B)	-0.351	-0.894	0.270	-0.549	-0.549	-4.822	-73.94	20.19	-17.89	-37.436	-42.728	72.030	-0.79242	0.56064	-0.23907	0.02203	30.4	13111	100
2025-3-27 14:52:51.436	WT901BLE68-01(48591DE3C19B)	-0.358	-0.894	0.270	-0.549	-0.549	-4.822	-73.94	20.14	-17.87	-37.436	-42.728	72.030	-0.79242	0.56064	-0.23907	0.02203	30.4	13111	100
2025-3-27 14:52:51.436	WT901BLE68-01(48591DE3C19B)	-0.358	-0.897	0.272	-0.793	-1.343	-4.456	-73.95	20.09	-17.85	-37.436	-42.728	72.030	-0.79242	0.56064	-0.23907	0.02203	30.4	13111	100
2025-3-27 14:52:51.466	WT901BLE68-01(48591DE3C19B)	-0.358	-0.897	0.272	-0.793	-1.343	-4.456	-73.95	20.04	-17.82	-37.436	-42.728	72.030	-0.79242	0.56064	-0.23907	0.02203	30.4	13111	100
2025-3-27 14:52:51.466	WT901BLE68-01(48591DE3C19B)	-0.358	-0.903	0.275	-0.854	-1.770	-3.601	-73.95	20.01	-17.79	-37.436	-42.728	72.030	-0.79242	0.56064	-0.23907	0.02203	30.4	13111	100
2025-3-27 14:52:51.466	WT901BLE68-01(48591DE3C19B)	-0.358	-0.903	0.275	-0.854	-1.770	-3.601	-73.95	19.97	-17.75	-37.436	-42.728	72.030	-0.79242	0.56064	-0.23907	0.02203	30.4	13111	100
2025-3-27 14:52:51.466	WT901BLE68-01(48591DE3C19B)	-0.358	-0.898	0.276	-0.183	-1.282	-2.686	-73.95	19.95	-17.72	-37.436	-42.728	72.030	-0.79242	0.56064	-0.23907	0.02203	30.4	13111	100
2025-3-27 14:52:51.496	WT901BLE68-01(48591DE3C19B)	-0.359	-0.898	0.276	-0.183	-1.282	-2.686	-73.94	19.92	-17.69	-37.436	-42.728	72.030	-0.79242	0.56064	-0.23907	0.02203	30.4	13111	100
2025-3-27 14:52:51.496	WT901BLE68-01(48591DE3C19B)	-0.359	-0.893	0.273	-0.610	-1.221	-2.014	-73.94	19.90	-17.66	-37.436	-42.728	72.030	-0.79242	0.56064	-0.23907	0.02203	30.4	13111	100
2025-3-27 14:52:51.496	WT901BLE68-01(48591DE3C19B)	-0.360	-0.893	0.273	-0.610	-1.221	-2.014	-73.94	19.88	-17.62	-37.436	-42.728	72.030	-0.79242	0.56064	-0.23907	0.02203	30.4	13111	100
2025-3-27 14:52:51.496	WT901BLE68-01(48591DE3C19B)	-0.360	-0.894	0.271	-0.671	-1.648	-1.648	-73.94	19.86	-17.58	-37.436	-42.728	72.030	-0.79242	0.56064	-0.23907	0.02203	30.4	13111	100
2025-3-27 14:52:51.557	WT901BLE68-01(48591DE3C19B)	-0.354	-0.894	0.271	-0.671	-1.648	-1.648	-73.94	19.85	-17.55	-37.436	-42.728	72.030	-0.79242	0.56064	-0.23907	0.02203	30.4	13111	100
2025-3-27 14:52:51.557	WT901BLE68-01(48591DE3C19B)	-0.354	-0.893	0.271	-0.671	-1.770	-1.770	-73.94	19.83	-17.51	-37.436	-42.728	72.030	-0.79242	0.56064	-0.23907	0.02203	30.4	13111	100
2025-3-27 14:52:51.557	WT901BLE68-01(48591DE3C19B)	-0.357	-0.893	0.271	-0.671	-1.770	-1.770	-73.93	19.81	-17.46	-37.436	-42.728	72.030	-0.79242	0.56064	-0.23907	0.02203	30.4	13111	100
2025-3-27 14:52:51.557	WT901BLE68-01(48591DE3C19B)	-0.357	-0.896	0.271	-0.549	-1.404	-1.831	-73.93	19.80	-17.43	-37.436	-42.728	72.030	-0.79242	0.56064	-0.23907	0.02203	30.4	13111	100
2025-3-27 14:52:51.586	WT901BLE68-01(48591DE3C19B)	-0.359	-0.896	0.271	-0.549	-1.404	-1.831	-73.93	19.79	-17.39	-37.436	-42.728	72.030	-0.79367	0.56482	-0.22510	0.01678	30.4	13111	100
2025-3-27 14:52:51.586	WT901BLE68-01(48591DE3C19B)	-0.359	-0.901	0.273	-0.183	-1.709	-1.953	-73.92	19.76	-17.35	-37.436	-42.728	72.030	-0.79367	0.56482	-0.22510	0.01678	30.4	13111	100
2025-3-27 14:52:51.586	WT901BLE68-01(48591DE3C19B)	-0.354	-0.901	0.273	-0.183	-1.709	-1.953	-73.92	19.75	-17.31	-37.436	-42.728	72.030	-0.79367	0.56482	-0.22510	0.01678	30.4	13111	100
2025-3-27 14:52:51.586	WT901BLE68-01(48591DE3C19B)	-0.354	-0.892	0.269	0.366	-1.526	-1.953	-73.91	19.73	-17.28	-37.436	-42.728	72.030	-0.79367	0.56482	-0.22510	0.01678	30.4	13111	100
2025-3-27 14:52:51.617	WT901BLE68-01(48591DE3C19B)	-0.354	-0.892	0.269	0.366	-1.526	-1.953	-73.89	19.71	-17.24	-37.436	-42.728	72.030	-0.79367	0.56482	-0.22510	0.01678	30.4	13111	100
2025-3-27 14:52:51.617	WT901BLE68-01(48591DE3C19B)	-0.354	-0.885	0.264	0.000	-1.526	-2.136	-73.89	19.70	-17.21	-37.436	-42.728	72.030	-0.79367	0.56482	-0.22510	0.01678	30.4	13111	100
2025-3-27 14:52:51.617	WT901BLE68-01(48591DE3C19B)	-0.356	-0.885	0.264	0.000	-1.526	-2.136	-73.88	19.68	-17.17	-37.436	-42.728	72.030	-0.79367	0.56482	-0.22510	0.01678	30.4	13111	100
2025-3-27 14:52:51.617	WT901BLE68-01(48591DE3C19B)	-0.356	-0.888	0.266	-0.488	-2.563	-2.441	-73.87	19.65	-17.13	-37.436	-42.728	72.030	-0.79367	0.56482	-0.22510	0.01678	30.4	13111	100
2025-3-27 14:52:51.680	WT901BLE68-01(48591DE3C19B)	-0.357	-0.888	0.266	-0.488	-2.563	-2.441	-73.87	19.63	-17.08	-37.436	-42.728	72.030	-0.79367	0.56482	-0.22510	0.01678	30.4	13111	100
2025-3-27 14:52:51.680	WT901BLE68-01(48591DE3C19B)	-0.348	-0.896	0.270	-0.977	-3.784	-2.930	-73.87	19.60	-17.03	-37.436	-42.728	72.030	-0.79367	0.56482	-0.22510	0.01678	30.4	13111	100
2025-3-27 14:52:51.680	WT901BLE68-01(48591DE3C19B)	-0.348	-0.904	0.270	-1.099	-3.845	-3.357	-73.86	19.57	-16.97	-37.436	-42.728	72.030	-0.79367	0.56482	-0.22510	0.01678	30.4	13111	100
2025-3-27 14:52:51.680	WT901BLE68-01(48591DE3C19B)	-0.342	-0.904	0.270	-1.099	-3.845	-3.357	-73.86	19.53	-16.91	-37.436	-42.728	72.030	-0.79367	0.56482	-0.22510	0.01678	30.4	13111	100
2025-3-27 14:52:51.709	WT901BLE68-01(48591DE3C19B)	-0.342	-0.909	0.268	-0.305	-2.014	-3.845	-73.86	19.50	-16.87	-37.436	-42.728	72.030	-0.79367	0.56482	-0.22510	0.01678	30.4	13111	100
2025-3-27 14:52:51.709	WT901BLE68-01(48591DE3C19B)	-0.346	-0.909	0.268	-0.305	-2.014	-3.845	-73.86	19.46	-16.84	-37.436	-42.728	72.030	-0.79367	0.56482	-0.22510	0.01678	30.4	13111	100
2025-3-27 14:52:51.709	WT901BLE68-01(48591DE3C19B)	-0.346	-0.906	0.268	0.488	-0.061	-4.395	-73.85	19.43	-16.81	-37.436	-42.728	72.030	-0.79367	0.56482	-0.22510	0.01678	30.4	13111	100
2025-3-27 14:52:51.709	WT901BLE68-01(48591DE3C19B)	-0.353	-0.906	0.268	0.488	-0.061	-4.395	-73.85	19.39	-16.80	-37.436	-42.728	72.030	-0.79367	0.56482	-0.22510	0.01678	30.4	13111	100
2025-3-27 14:52:51.739	WT901BLE68-01(48591DE3C19B)	-0.353	-0.904	0.269	0.610	0.427	-4.944	-73.84	19.35	-16.80	-37.436	-42.728	72.030	-0.79367	0.56482	-0.22510	0.01678	30.4	13111	100
2025-3-27 14:52:51.739	WT901BLE68-01(48591DE3C19B)	-0.358	-0.904	0.269	0.610	0.427	-4.944	-73.84	19.31	-16.79	-37.436	-42.728	72.030	-0.79367	0.56482	-0.22510	0.01678	30.4	13111	100
2025-3-27 14:52:51.739	WT901BLE68-01(48591DE3C19B)	-0.358	-0.903	0.275	0.732	-0.549	-5.310	-73.84	19.28	-16.79	-36.652	-42.140	71.442	-0.79367	0.56482	-0.22510	0.01678	30.4	13111	100
2025-3-27 14:52:51.739	WT901BLE68-01(48591DE3C19B)	-0.356	-0.903	0.275	0.732	-0.549	-5.310	-73.83	19.23	-16.78	-36.652	-42.140	71.442	-0.79367	0.56482	-0.22510	0.01678	30.4	13111	100
2025-3-27 14:52:51.827	WT901BLE68-01(48591DE3C19B)	-0.356	-0.894	0.279	0.427	-1.892	-5.676	-73.82	19.18	-16.75	-36.652	-42.140	71.442	-0.79367	0.56482	-0.22510	0.01678	30.4	13111	100
2025-3-27 14:52:51.827	WT901BLE68-01(48591DE3C19B)	-0.348	-0.894	0.279	0.427	-1.892	-5.676	-73.82	19.13	-16.73	-36.652	-42.140	71.442	-0.79367	0.56482	-0.22510	0.01678	30.4	13111	100
2025-3-27 14:52:51.827	WT901BLE68-01(48591DE3C19B)	-0.348	-0.893	0.280	-0.122	-2.625	-5.676	-73.81	19.08	-16.70	-36.652	-42.140	71.442	-0.79367	0.56482	-0.22510	0.01678	30.4	13111	100
2025-3-27 14:52:51.827	WT901BLE68-01(48591DE3C19B)	-0.336	-0.893	0.280	-0.122	-2.625	-5.676	-73.80	19.02	-16.67	-36.652	-42.140	71.442	-0.79367	0.56482	-0.22510	0.01678	30.4	13111	100
2025-3-27 14:52:51.828	WT901BLE68-01(48591DE3C19B)	-0.336	-0.908	0.284	0.244	-1.465	-5.127	-73.80	18.98	-16.64	-36.652	-42.140	71.442	-0.79367	0.56482	-0.22510	0.01678	30.4	13111	100
2025-3-27 14:52:51.828	WT901BLE68-01(48591DE3C19B)	-0.337	-0.908	0.284	0.244	-1.465	-5.127	-73.79	18.93	-16.62	-36.652	-42.140	71.442	-0.79367	0.56482	-0.22510	0.01678	30.4	13111	100
2025-3-27 14:52:51.829	WT901BLE68-01(48591DE3C19B)	-0.337	-0.904	0.288	2.930	1.038	-4.150	-73.77	18.90	-16.61	-36.652	-42.140	71.442	-0.79367	0.56482	-0.22510	0.01678	30.4	13111	100
2025-3-27 14:52:51.829	WT901BLE68-01(48591DE3C19B)	-0.345	-0.904	0.288	2.930	1.038	-4.150	-73.75	18.87	-16.61	-36.652	-42.140	71.442	-0.79367	0.56482	-0.22510	0.01678	30.4	13111	100
2025-3-27 14:52:51.859	WT901BLE68-01(48591DE3C19B)	-0.345	-0.884	0.292	3.906	1.770	-3.235	-73.71	18.85	-16.61	-36.652	-42.140	71.442	-0.79367	0.56482	-0.22510	0.01678	30.4	13111	100
2025-3-27 14:52:51.859	WT901BLE68-01(48591DE3C19B)	-0.347	-0.884	0.292	3.906	1.770	-3.235	-73.68	18.83	-16.62	-36.652	-42.140	71.442	-0.79367	0.56482	-0.22510	0.01678	30.4	13111	100
2025-3-27 14:52:51.859	WT901BLE68-01(48591DE3C19B)	-0.347	-0.876	0.295	3.662	-0.183	-2.686	-73.64	18.81	-16.62	-36.652	-42.140	71.442	-0.79367	0.56482	-0.22510	0.01678	30.4	13111	100
2025-3-27 14:52:51.859	WT901BLE68-01(48591DE3C19B)	-0.341	-0.876	0.295	3.662	-0.183	-2.686	-73.60	18.79	-16.60	-36.652	-42.140	71.442	-0.79367	0.56482	-0.22510	0.01678	30.4	13111	100
2025-3-27 14:52:51.919	WT901BLE68-01(48591DE3C19B)	-0.341	-0.882	0.299	3.540	-2.258	-2.136	-73.55	18.78	-16.57	-36.652	-42.140	71.442	-0.79367	0.56482	-0.22510	0.01678	30.4	13111	100
2025-3-27 14:52:51.919	WT901BLE68-01(48591DE3C19B)	-0.330	-0.882	0.299	3.540	-2.258	-2.136	-73.51	18.76	-16.53	-36.652	-42.140	71.442	-0.79367	0.56482	-0.22510	0.01678	30.4	13111	100
2025-3-27 14:52:51.919	WT901BLE68-01(48591DE3C19B)	-0.330	-0.895	0.294	4.395	-2.380	-1.709	-73.45	18.74	-16.50	-36.652	-42.140	71.442	-0.79367	0.56482	-0.22510	0.01678	30.4	13111	100
2025-3-27 14:52:51.919	WT901BLE68-01(48591DE3C19B)	-0.311	-0.895	0.294	4.395	-2.380	-1.709	-73.40	18.73	-16.46	-36.652	-42.140	71.442	-0.79367	0.56482	-0.22510	0.01678	30.4	13111	100
2025-3-27 14:52:51.979	WT901BLE68-01(48591DE3C19B)	-0.311	-0.905	0.284	5.188	0.549	-1.038	-73.34	18.72	-16.44	-36.652	-42.140	71.442	-0.79367	0.56482	-0.22510	0.01678	30.4	13111	100
2025-3-27 14:52:51.979	WT901BLE68-01(48591DE3C19B)	-0.302	-0.905	0.284	5.188	0.549	-1.038	-73.28	18.72	-16.42	-36.652	-42.140	71.442	-0.79367	0.56482	-0.22510	0.01678	30.4	13111	100
2025-3-27 14:52:51.979	WT901BLE68-01(48591DE3C19B)	-0.302	-0.917	0.275	7.935	5.127	0.671	-73.22	18.73	-16.44	-36.652	-42.140	71.442	-0.79367	0.56482	-0.22510	0.01678	30.4	13111	100
2025-3-27 14:52:51.980	WT901BLE68-01(48591DE3C19B)	-0.311	-0.917	0.275	7.935	5.127	0.671	-73.16	18.75	-16.47	-36.652	-42.140	71.442	-0.79800	0.56311	-0.21375	0.01740	30.4	13111	100
2025-3-27 14:52:51.980	WT901BLE68-01(48591DE3C19B)	-0.311	-0.886	0.265	10.864	7.751	2.380	-73.08	18.79	-16.52	-36.652	-42.140	71.442	-0.79800	0.56311	-0.21375	0.01740	30.4	13111	100
2025-3-27 14:52:51.980	WT901BLE68-01(48591DE3C19B)	-0.310	-0.886	0.265	10.864	7.751	2.380	-72.99	18.84	-16.57	-36.652	-42.140	71.442	-0.79800	0.56311	-0.21375	0.01740	30.4	13111	100
2025-3-27 14:52:51.980	WT901BLE68-01(48591DE3C19B)	-0.310	-0.854	0.254	8.362	6.042	3.479	-72.91	18.89	-16.62	-36.652	-42.140	71.442	-0.79800	0.56311	-0.21375	0.01740	30.4	13111	100
2025-3-27 14:52:51.980	WT901BLE68-01(48591DE3C19B)	-0.272	-0.854	0.254	8.362	6.042	3.479	-72.84	18.94	-16.66	-36.652	-42.140	71.442	-0.79800	0.56311	-0.21375	0.01740	30.4	13111	100
2025-3-27 14:52:52.37	WT901BLE68-01(48591DE3C19B)	-0.272	-0.865	0.246	4.517	2.808	3.296	-72.79	18.99	-16.68	-36.652	-42.140	71.442	-0.79800	0.56311	-0.21375	0.01740	30.4	13111	100
2025-3-27 14:52:52.37	WT901BLE68-01(48591DE3C19B)	-0.250	-0.865	0.246	4.517	2.808	3.296	-72.75	19.03	-16.68	-36.652	-42.140	71.442	-0.79800	0.56311	-0.21375	0.01740	30.4	13111	100
2025-3-27 14:52:52.37	WT901BLE68-01(48591DE3C19B)	-0.250	-0.876	0.247	3.479	4.211	1.587	-72.72	19.06	-16.70	-36.652	-42.140	71.442	-0.79800	0.56311	-0.21375	0.01740	30.4	13111	100
2025-3-27 14:52:52.37	WT901BLE68-01(48591DE3C19B)	-0.240	-0.876	0.247	3.479	4.211	1.587	-72.70	19.08	-16.73	-36.652	-42.140	71.442	-0.79800	0.56311	-0.21375	0.01740	30.4	13111	100
2025-3-27 14:52:52.67	WT901BLE68-01(48591DE3C19B)	-0.240	-0.901	0.255	0.977	4.639	-1.099	-72.70	19.09	-16.77	-36.652	-42.140	71.442	-0.79800	0.56311	-0.21375	0.01740	30.4	13111	100
2025-3-27 14:52:52.67	WT901BLE68-01(48591DE3C19B)	-0.210	-0.901	0.255	0.977	4.639	-1.099	-72.71	19.09	-16.81	-36.652	-42.140	71.442	-0.79800	0.56311	-0.21375	0.01740	30.4	13111	100
2025-3-27 14:52:52.67	WT901BLE68-01(48591DE3C19B)	-0.210	-0.927	0.250	1.404	6.714	-4.211	-72.72	19.07	-16.88	-36.652	-42.140	71.442	-0.79800	0.56311	-0.21375	0.01740	30.4	13111	100
2025-3-27 14:52:52.67	WT901BLE68-01(48591DE3C19B)	-0.191	-0.927	0.250	1.404	6.714	-4.211	-72.73	19.03	-16.96	-36.652	-42.140	71.442	-0.79800	0.56311	-0.21375	0.01740	30.4	13111	100
2025-3-27 14:52:52.96	WT901BLE68-01(48591DE3C19B)	-0.191	-0.922	0.245	3.906	12.207	-7.568	-72.75	18.99	-17.07	-36.652	-42.140	71.442	-0.79800	0.56311	-0.21375	0.01740	30.4	13111	100
2025-3-27 14:52:52.96	WT901BLE68-01(48591DE3C19B)	-0.191	-0.922	0.245	3.906	12.207	-7.568	-72.77	18.93	-17.23	-36.652	-42.140	71.442	-0.79800	0.56311	-0.21375	0.01740	30.4	13111	100
2025-3-27 14:52:52.96	WT901BLE68-01(48591DE3C19B)	-0.191	-0.906	0.241	4.272	19.104	-11.353	-72.80	18.87	-17.42	-36.652	-42.140	71.442	-0.79800	0.56311	-0.21375	0.01740	30.4	13111	100
2025-3-27 14:52:52.96	WT901BLE68-01(48591DE3C19B)	-0.201	-0.906	0.241	4.272	19.104	-11.353	-72.83	18.80	-17.66	-36.652	-42.140	71.442	-0.79800	0.56311	-0.21375	0.01740	30.4	13111	100
2025-3-27 14:52:52.187	WT901BLE68-01(48591DE3C19B)	-0.201	-0.918	0.247	1.343	22.705	-15.503	-72.92	18.69	-17.95	-36.652	-42.140	71.442	-0.79800	0.56311	-0.21375	0.01740	30.4	13111	100
2025-3-27 14:52:52.187	WT901BLE68-01(48591DE3C19B)	-0.213	-0.918	0.247	1.343	22.705	-15.503	-73.00	18.58	-18.23	-36.652	-42.140	71.442	-0.79800	0.56311	-0.21375	0.01740	30.4	13111	100
2025-3-27 14:52:52.187	WT901BLE68-01(48591DE3C19B)	-0.213	-0.973	0.247	-2.258	25.574	-20.264	-73.14	18.44	-18.56	-36.652	-42.140	71.442	-0.79800	0.56311	-0.21375	0.01740	30.4	13111	100
2025-3-27 14:52:52.187	WT901BLE68-01(48591DE3C19B)	-0.238	-0.973	0.247	-2.258	25.574	-20.264	-73.27	18.29	-18.89	-36.652	-42.140	71.442	-0.79800	0.56311	-0.21375	0.01740	30.4	13111	100
2025-3-27 14:52:52.188	WT901BLE68-01(48591DE3C19B)	-0.238	-1.007	0.255	-1.526	26.245	-26.367	-73.40	18.09	-19.24	-37.240	-40.572	72.716	-0.79800	0.56311	-0.21375	0.01740	30.4	13111	100
2025-3-27 14:52:52.188	WT901BLE68-01(48591DE3C19B)	-0.250	-1.007	0.255	-1.526	26.245	-26.367	-73.53	17.89	-19.59	-37.240	-40.572	72.716	-0.79800	0.56311	-0.21375	0.01740	30.4	13111	100
2025-3-27 14:52:52.188	WT901BLE68-01(48591DE3C19B)	-0.250	-1.012	0.275	-3.296	23.865	-32.959	-73.67	17.62	-19.93	-37.240	-40.572	72.716	-0.79800	0.56311	-0.21375	0.01740	30.4	13111	100
2025-3-27 14:52:52.188	WT901BLE68-01(48591DE3C19B)	-0.258	-1.012	0.275	-3.296	23.865	-32.959	-73.81	17.34	-20.28	-37.240	-40.572	72.716	-0.79800	0.56311	-0.21375	0.01740	30.4	13111	100
2025-3-27 14:52:52.219	WT901BLE68-01(48591DE3C19B)	-0.258	-1.018	0.288	-5.737	22.278	-40.344	-73.98	17.00	-20.62	-37.240	-40.572	72.716	-0.79800	0.56311	-0.21375	0.01740	30.4	13111	100
2025-3-27 14:52:52.219	WT901BLE68-01(48591DE3C19B)	-0.241	-1.018	0.288	-5.737	22.278	-40.344	-74.14	16.65	-20.96	-37.240	-40.572	72.716	-0.79800	0.56311	-0.21375	0.01740	30.4	13111	100
2025-3-27 14:52:52.219	WT901BLE68-01(48591DE3C19B)	-0.241	-0.999	0.292	-4.944	20.935	-46.997	-74.28	16.24	-21.30	-37.240	-40.572	72.716	-0.79800	0.56311	-0.21375	0.01740	30.4	13111	100
2025-3-27 14:52:52.219	WT901BLE68-01(48591DE3C19B)	-0.223	-0.999	0.292	-4.944	20.935	-46.997	-74.43	15.83	-21.64	-37.240	-40.572	72.716	-0.79800	0.56311	-0.21375	0.01740	30.4	13111	100
2025-3-27 14:52:52.280	WT901BLE68-01(48591DE3C19B)	-0.223	-0.950	0.281	-3.601	21.912	-52.856	-74.56	15.36	-22.00	-37.240	-40.572	72.716	-0.79800	0.56311	-0.21375	0.01740	30.4	13111	100
2025-3-27 14:52:52.280	WT901BLE68-01(48591DE3C19B)	-0.216	-0.950	0.281	-3.601	21.912	-52.856	-74.69	14.91	-22.36	-37.240	-40.572	72.716	-0.79800	0.56311	-0.21375	0.01740	30.4	13111	100
2025-3-27 14:52:52.280	WT901BLE68-01(48591DE3C19B)	-0.216	-0.897	0.262	-3.357	23.682	-57.739	-74.82	14.40	-22.74	-37.240	-40.572	72.716	-0.79800	0.56311	-0.21375	0.01740	30.4	13111	100
2025-3-27 14:52:52.281	WT901BLE68-01(48591DE3C19B)	-0.224	-0.897	0.262	-3.357	23.682	-57.739	-74.94	13.90	-23.13	-37.240	-40.572	72.716	-0.79800	0.56311	-0.21375	0.01740	30.4	13111	100
2025-3-27 14:52:52.397	WT901BLE68-01(48591DE3C19B)	-0.224	-0.867	0.260	-5.066	24.536	-61.951	-75.09	13.37	-23.52	-37.240	-40.572	72.716	-0.79800	0.56311	-0.21375	0.01740	30.4	13111	100
2025-3-27 14:52:52.397	WT901BLE68-01(48591DE3C19B)	-0.243	-0.867	0.260	-5.066	24.536	-61.951	-75.22	12.84	-23.92	-37.240	-40.572	72.716	-0.79800	0.56311	-0.21375	0.01740	30.4	13111	100
2025-3-27 14:52:52.397	WT901BLE68-01(48591DE3C19B)	-0.243	-0.855	0.263	-7.874	21.851	-65.430	-75.38	12.27	-24.29	-37.240	-40.572	72.716	-0.79800	0.56311	-0.21375	0.01740	30.4	13111	100
2025-3-27 14:52:52.397	WT901BLE68-01(48591DE3C19B)	-0.249	-0.855	0.263	-7.874	21.851	-65.430	-75.53	11.70	-24.65	-37.240	-40.572	72.716	-0.79800	0.56311	-0.21375	0.01740	30.4	13111	100
2025-3-27 14:52:52.398	WT901BLE68-01(48591DE3C19B)	-0.249	-0.872	0.266	-12.085	18.555	-67.932	-75.71	11.10	-24.98	-37.240	-40.572	72.716	-0.79800	0.56311	-0.21375	0.01740	30.4	13111	100
2025-3-27 14:52:52.398	WT901BLE68-01(48591DE3C19B)	-0.254	-0.872	0.266	-12.085	18.555	-67.932	-75.88	10.51	-25.31	-37.240	-40.572	72.716	-0.79800	0.56311	-0.21375	0.01740	30.4	13111	100
2025-3-27 14:52:52.398	WT901BLE68-01(48591DE3C19B)	-0.254	-0.919	0.263	-15.198	16.052	-69.885	-76.08	9.89	-25.62	-37.240	-40.572	72.716	-0.79800	0.56311	-0.21375	0.01740	30.4	13111	100
2025-3-27 14:52:52.398	WT901BLE68-01(48591DE3C19B)	-0.259	-0.919	0.263	-15.198	16.052	-69.885	-76.27	9.28	-25.92	-37.240	-40.572	72.716	-0.79800	0.56311	-0.21375	0.01740	30.4	13111	100
2025-3-27 14:52:52.398	WT901BLE68-01(48591DE3C19B)	-0.259	-0.953	0.265	-15.442	15.686	-71.716	-76.46	8.66	-26.21	-37.240	-40.572	72.716	-0.79800	0.56311	-0.21375	0.01740	30.4	13111	100
2025-3-27 14:52:52.398	WT901BLE68-01(48591DE3C19B)	-0.278	-0.953	0.265	-15.442	15.686	-71.716	-76.65	8.03	-26.50	-37.240	-40.572	72.716	-0.79800	0.56311	-0.21375	0.01740	30.4	13111	100
2025-3-27 14:52:52.399	WT901BLE68-01(48591DE3C19B)	-0.278	-0.953	0.273	-15.015	16.296	-73.181	-76.83	7.40	-26.80	-37.240	-40.572	72.716	-0.79800	0.56311	-0.21375	0.01740	30.4	13111	100
2025-3-27 14:52:52.399	WT901BLE68-01(48591DE3C19B)	-0.288	-0.953	0.273	-15.015	16.296	-73.181	-77.00	6.77	-27.09	-37.240	-40.572	72.716	-0.79800	0.56311	-0.21375	0.01740	30.4	13111	100
2025-3-27 14:52:52.427	WT901BLE68-01(48591DE3C19B)	-0.288	-0.947	0.279	-17.822	14.343	-74.707	-77.20	6.12	-27.36	-37.240	-40.572	72.716	-0.79800	0.56311	-0.21375	0.01740	30.4	13111	100
2025-3-27 14:52:52.427	WT901BLE68-01(48591DE3C19B)	-0.290	-0.947	0.279	-17.822	14.343	-74.707	-77.39	5.49	-27.62	-37.240	-40.572	72.716	-0.79800	0.56311	-0.21375	0.01740	30.4	13111	100
2025-3-27 14:52:52.427	WT901BLE68-01(48591DE3C19B)	-0.290	-0.978	0.288	-21.301	13.611	-75.500	-77.61	4.84	-27.87	-37.240	-40.572	72.716	-0.79800	0.56311	-0.21375	0.01740	30.4	13111	100
2025-3-27 14:52:52.427	WT901BLE68-01(48591DE3C19B)	-0.282	-0.978	0.288	-21.301	13.611	-75.500	-77.83	4.20	-28.13	-37.240	-40.572	72.716	-0.75977	0.60199	-0.18018	0.16660	30.4	13111	100
2025-3-27 14:52:52.486	WT901BLE68-01(48591DE3C19B)	-0.282	-1.022	0.285	-20.264	15.869	-75.378	-78.04	3.56	-28.39	-37.240	-40.572	72.716	-0.75977	0.60199	-0.18018	0.16660	30.4	13111	100
2025-3-27 14:52:52.486	WT901BLE68-01(48591DE3C19B)	-0.272	-1.022	0.285	-20.264	15.869	-75.378	-78.23	2.93	-28.66	-37.240	-40.572	72.716	-0.75977	0.60199	-0.18018	0.16660	30.4	13111	100
2025-3-27 14:52:52.486	WT901BLE68-01(48591DE3C19B)	-0.272	-1.011	0.272	-15.259	20.935	-73.486	-78.38	2.33	-28.97	-37.240	-40.572	72.716	-0.75977	0.60199	-0.18018	0.16660	30.4	13111	100
2025-3-27 14:52:52.486	WT901BLE68-01(48591DE3C19B)	-0.278	-1.011	0.272	-15.259	20.935	-73.486	-78.53	1.73	-29.27	-37.240	-40.572	72.716	-0.75977	0.60199	-0.18018	0.16660	30.4	13111	100
2025-3-27 14:52:52.518	WT901BLE68-01(48591DE3C19B)	-0.278	-0.974	0.274	-14.954	27.283	-72.021	-78.67	1.16	-29.62	-37.240	-40.572	72.716	-0.75977	0.60199	-0.18018	0.16660	30.4	13111	100
2025-3-27 14:52:52.519	WT901BLE68-01(48591DE3C19B)	-0.302	-0.974	0.274	-14.954	27.283	-72.021	-78.80	0.60	-29.98	-37.240	-40.572	72.716	-0.75977	0.60199	-0.18018	0.16660	30.4	13111	100
2025-3-27 14:52:52.519	WT901BLE68-01(48591DE3C19B)	-0.302	-0.997	0.274	-17.822	31.128	-70.801	-78.96	0.05	-30.37	-37.240	-40.572	72.716	-0.75977	0.60199	-0.18018	0.16660	30.4	13111	100
2025-3-27 14:52:52.519	WT901BLE68-01(48591DE3C19B)	-0.319	-0.997	0.274	-17.822	31.128	-70.801	-79.12	-0.48	-30.75	-37.240	-40.572	72.716	-0.75977	0.60199	-0.18018	0.16660	30.4	13111	100
2025-3-27 14:52:52.549	WT901BLE68-01(48591DE3C19B)	-0.319	-1.001	0.274	-17.578	32.959	-68.665	-79.27	-0.99	-31.15	-37.240	-40.572	72.716	-0.75977	0.60199	-0.18018	0.16660	30.4	13111	100
2025-3-27 14:52:52.549	WT901BLE68-01(48591DE3C19B)	-0.341	-1.001	0.274	-17.578	32.959	-68.665	-79.41	-1.51	-31.53	-37.240	-40.572	72.716	-0.75977	0.60199	-0.18018	0.16660	30.4	13111	100
2025-3-27 14:52:52.549	WT901BLE68-01(48591DE3C19B)	-0.341	-0.979	0.269	-17.639	33.691	-66.467	-79.56	-1.99	-31.92	-39.298	-33.222	75.754	-0.75977	0.60199	-0.18018	0.16660	30.4	13111	100
2025-3-27 14:52:52.549	WT901BLE68-01(48591DE3C19B)	-0.380	-0.979	0.269	-17.639	33.691	-66.467	-79.69	-2.47	-32.31	-39.298	-33.222	75.754	-0.75977	0.60199	-0.18018	0.16660	30.4	13111	100
2025-3-27 14:52:52.607	WT901BLE68-01(48591DE3C19B)	-0.448	-0.917	0.283	-18.005	32.349	-65.186	-79.84	-2.93	-32.67	-39.298	-33.222	75.754	-0.75977	0.60199	-0.18018	0.16660	30.4	13111	100
2025-3-27 14:52:52.607	WT901BLE68-01(48591DE3C19B)	-0.448	-0.902	0.313	-27.649	23.193	-65.002	-80.02	-3.40	-32.98	-39.298	-33.222	75.754	-0.75977	0.60199	-0.18018	0.16660	30.4	13111	100
2025-3-27 14:52:52.607	WT901BLE68-01(48591DE3C19B)	-0.518	-0.902	0.313	-27.649	23.193	-65.002	-80.26	-3.87	-33.24	-39.298	-33.222	75.754	-0.75977	0.60199	-0.18018	0.16660	30.4	13111	100
2025-3-27 14:52:52.608	WT901BLE68-01(48591DE3C19B)	-0.518	-0.966	0.339	-33.875	7.263	-63.660	-80.52	-4.33	-33.41	-39.298	-33.222	75.754	-0.75977	0.60199	-0.18018	0.16660	30.4	13111	100
2025-3-27 14:52:52.697	WT901BLE68-01(48591DE3C19B)	-0.588	-0.966	0.339	-33.875	7.263	-63.660	-80.82	-4.80	-33.50	-39.298	-33.222	75.754	-0.75977	0.60199	-0.18018	0.16660	30.4	13111	100
2025-3-27 14:52:52.697	WT901BLE68-01(48591DE3C19B)	-0.588	-1.040	0.370	-37.170	-13.916	-60.242	-81.15	-5.26	-33.48	-39.298	-33.222	75.754	-0.75977	0.60199	-0.18018	0.16660	30.4	13111	100
2025-3-27 14:52:52.697	WT901BLE68-01(48591DE3C19B)	-0.630	-1.040	0.370	-37.170	-13.916	-60.242	-81.50	-5.71	-33.34	-39.298	-33.222	75.754	-0.75977	0.60199	-0.18018	0.16660	30.4	13111	100
2025-3-27 14:52:52.697	WT901BLE68-01(48591DE3C19B)	-0.630	-1.098	0.397	-32.349	-31.799	-51.636	-81.83	-6.12	-33.10	-39.298	-33.222	75.754	-0.75977	0.60199	-0.18018	0.16660	30.4	13111	100
2025-3-27 14:52:52.698	WT901BLE68-01(48591DE3C19B)	-0.668	-1.098	0.397	-32.349	-31.799	-51.636	-82.15	-6.50	-32.76	-39.298	-33.222	75.754	-0.75977	0.60199	-0.18018	0.16660	30.4	13111	100
2025-3-27 14:52:52.698	WT901BLE68-01(48591DE3C19B)	-0.668	-1.077	0.404	-21.362	-44.983	-38.025	-82.42	-6.81	-32.34	-39.298	-33.222	75.754	-0.75977	0.60199	-0.18018	0.16660	30.4	13111	100
2025-3-27 14:52:52.699	WT901BLE68-01(48591DE3C19B)	-0.707	-1.077	0.404	-21.362	-44.983	-38.025	-82.66	-7.05	-31.84	-39.298	-33.222	75.754	-0.75977	0.60199	-0.18018	0.16660	30.4	13111	100
2025-3-27 14:52:52.699	WT901BLE68-01(48591DE3C19B)	-0.707	-1.084	0.399	-20.386	-58.167	-18.982	-82.89	-7.20	-31.26	-39.298	-33.222	75.754	-0.75977	0.60199	-0.18018	0.16660	30.4	13111	100
2025-3-27 14:52:52.728	WT901BLE68-01(48591DE3C19B)	-0.703	-1.084	0.399	-20.386	-58.167	-18.982	-83.13	-7.26	-30.60	-39.298	-33.222	75.754	-0.75977	0.60199	-0.18018	0.16660	30.4	13111	100
2025-3-27 14:52:52.728	WT901BLE68-01(48591DE3C19B)	-0.703	-1.079	0.385	-5.005	-69.763	6.714	-83.30	-7.19	-29.87	-39.298	-33.222	75.754	-0.75977	0.60199	-0.18018	0.16660	30.4	13111	100
2025-3-27 14:52:52.728	WT901BLE68-01(48591DE3C19B)	-0.629	-1.079	0.385	-5.005	-69.763	6.714	-83.40	-6.99	-29.06	-39.298	-33.222	75.754	-0.75977	0.60199	-0.18018	0.16660	30.4	13111	100
2025-3-27 14:52:52.729	WT901BLE68-01(48591DE3C19B)	-0.629	-0.880	0.358	13.672	-77.087	41.016	-83.41	-6.62	-28.20	-39.298	-33.222	75.754	-0.75977	0.60199	-0.18018	0.16660	30.4	13111	100
2025-3-27 14:52:52.758	WT901BLE68-01(48591DE3C19B)	-0.528	-0.880	0.358	13.672	-77.087	41.016	-83.33	-6.10	-27.29	-39.298	-33.222	75.754	-0.75977	0.60199	-0.18018	0.16660	30.4	13111	100
2025-3-27 14:52:52.758	WT901BLE68-01(48591DE3C19B)	-0.528	-0.685	0.303	16.541	-80.994	79.224	-83.23	-5.38	-26.33	-39.298	-33.222	75.754	-0.75977	0.60199	-0.18018	0.16660	30.4	13111	100
2025-3-27 14:52:52.758	WT901BLE68-01(48591DE3C19B)	-0.407	-0.685	0.303	16.541	-80.994	79.224	-83.10	-4.48	-25.33	-39.298	-33.222	75.754	-0.75977	0.60199	-0.18018	0.16660	30.4	13111	100
2025-3-27 14:52:52.758	WT901BLE68-01(48591DE3C19B)	-0.407	-0.677	0.262	3.845	-75.439	117.065	-83.02	-3.40	-24.34	-39.298	-33.222	75.754	-0.72922	0.65186	-0.11917	0.17032	30.4	13111	100
2025-3-27 14:52:52.788	WT901BLE68-01(48591DE3C19B)	-0.352	-0.677	0.262	3.845	-75.439	117.065	-82.98	-2.13	-23.35	-39.298	-33.222	75.754	-0.72922	0.65186	-0.11917	0.17032	30.4	13111	100
2025-3-27 14:52:52.788	WT901BLE68-01(48591DE3C19B)	-0.352	-0.831	0.231	1.953	-61.951	147.156	-82.93	-0.71	-22.42	-39.298	-33.222	75.754	-0.72922	0.65186	-0.11917	0.17032	30.4	13111	100
2025-3-27 14:52:52.788	WT901BLE68-01(48591DE3C19B)	-0.369	-0.831	0.231	1.953	-61.951	147.156	-82.86	0.84	-21.54	-39.298	-33.222	75.754	-0.72922	0.65186	-0.11917	0.17032	30.4	13111	100
2025-3-27 14:52:52.788	WT901BLE68-01(48591DE3C19B)	-0.369	-0.911	0.235	10.498	-51.636	166.748	-82.73	2.49	-20.70	-39.298	-33.222	75.754	-0.72922	0.65186	-0.11917	0.17032	30.4	13111	100
2025-3-27 14:52:52.878	WT901BLE68-01(48591DE3C19B)	-0.419	-0.911	0.235	10.498	-51.636	166.748	-82.54	4.22	-19.90	-39.298	-33.222	75.754	-0.72922	0.65186	-0.11917	0.17032	30.4	13111	100
2025-3-27 14:52:52.879	WT901BLE68-01(48591DE3C19B)	-0.419	-0.993	0.257	7.629	-54.565	174.072	-82.34	5.98	-19.07	-39.298	-33.222	75.754	-0.72922	0.65186	-0.11917	0.17032	30.4	13111	100
2025-3-27 14:52:52.879	WT901BLE68-01(48591DE3C19B)	-0.453	-0.993	0.257	7.629	-54.565	174.072	-82.12	7.75	-18.22	-39.298	-33.222	75.754	-0.72922	0.65186	-0.11917	0.17032	30.4	13111	100
2025-3-27 14:52:52.879	WT901BLE68-01(48591DE3C19B)	-0.453	-1.183	0.276	3.540	-65.918	172.485	-81.89	9.49	-17.31	-39.298	-33.222	75.754	-0.72922	0.65186	-0.11917	0.17032	30.4	13111	100
2025-3-27 14:52:52.879	WT901BLE68-01(48591DE3C19B)	-0.453	-1.183	0.276	3.540	-65.918	172.485	-81.65	11.20	-16.34	-39.298	-33.222	75.754	-0.72922	0.65186	-0.11917	0.17032	30.4	13111	100
2025-3-27 14:52:52.879	WT901BLE68-01(48591DE3C19B)	-1.813	-1.379	0.267	14.954	-77.759	164.063	-81.32	12.83	-15.30	-39.298	-33.222	75.754	-0.72922	0.65186	-0.11917	0.17032	30.4	13111	100
2025-3-27 14:52:52.879	WT901BLE68-01(48591DE3C19B)	-0.482	-5.518	1.068	14.954	-77.759	164.063	-80.89	14.39	-14.22	-39.298	-33.222	75.754	-0.72922	0.65186	-0.11917	0.17032	30.4	13111	100
2025-3-27 14:52:52.879	WT901BLE68-01(48591DE3C19B)	-0.482	-1.472	0.218	30.396	-74.829	152.466	-80.36	15.86	-13.15	-39.298	-33.222	75.754	-0.72922	0.65186	-0.11917	0.17032	30.4	13111	100
2025-3-27 14:52:52.906	WT901BLE68-01(48591DE3C19B)	-0.502	-1.472	0.218	30.396	-74.829	152.466	-79.74	17.25	-12.08	-39.298	-33.222	75.754	-0.72922	0.65186	-0.11917	0.17032	30.4	13111	100
2025-3-27 14:52:52.907	WT901BLE68-01(48591DE3C19B)	-0.502	-1.502	0.174	43.884	-74.341	139.404	-79.04	18.57	-11.02	-39.298	-33.222	75.754	-0.72922	0.65186	-0.11917	0.17032	30.4	13111	100
2025-3-27 14:52:52.907	WT901BLE68-01(48591DE3C19B)	-0.453	-1.502	0.174	43.884	-74.341	139.404	-78.25	19.79	-9.95	-39.298	-33.222	75.754	-0.72922	0.65186	-0.11917	0.17032	30.4	13111	100
2025-3-27 14:52:52.907	WT901BLE68-01(48591DE3C19B)	-0.453	-1.473	0.158	54.199	-72.327	127.991	-77.39	20.94	-8.89	-39.298	-33.222	75.754	-0.72922	0.65186	-0.11917	0.17032	30.4	13111	100
2025-3-27 14:52:52.966	WT901BLE68-01(48591DE3C19B)	-0.403	-1.473	0.158	54.199	-72.327	127.991	-76.48	22.01	-7.83	-39.298	-33.222	75.754	-0.72922	0.65186	-0.11917	0.17032	30.4	13111	100
2025-3-27 14:52:52.967	WT901BLE68-01(48591DE3C19B)	-0.403	-1.405	0.127	64.392	-70.007	125.183	-75.49	23.05	-6.77	-39.298	-33.222	75.754	-0.72922	0.65186	-0.11917	0.17032	30.4	13111	100
2025-3-27 14:52:52.967	WT901BLE68-01(48591DE3C19B)	-0.355	-1.405	0.127	64.392	-70.007	125.183	-74.44	24.05	-5.70	-39.298	-33.222	75.754	-0.72922	0.65186	-0.11917	0.17032	30.4	13111	100
2025-3-27 14:52:52.967	WT901BLE68-01(48591DE3C19B)	-0.355	-1.304	0.088	71.472	-63.660	127.136	-73.35	25.04	-4.64	-39.298	-33.222	75.754	-0.72922	0.65186	-0.11917	0.17032	30.4	13111	100
2025-3-27 14:52:52.996	WT901BLE68-01(48591DE3C19B)	-0.308	-1.304	0.088	71.472	-63.660	127.136	-72.22	26.03	-3.59	-28.224	-44.198	63.112	-0.72922	0.65186	-0.11917	0.17032	30.4	13111	100
2025-3-27 14:52:52.996	WT901BLE68-01(48591DE3C19B)	-0.308	-1.211	0.056	76.233	-53.772	128.540	-71.07	27.02	-2.56	-28.224	-44.198	63.112	-0.72922	0.65186	-0.11917	0.17032	30.4	13111	100
2025-3-27 14:52:52.996	WT901BLE68-01(48591DE3C19B)	-0.267	-1.211	0.056	76.233	-53.772	128.540	-69.89	27.99	-1.57	-28.224	-44.198	63.112	-0.72922	0.65186	-0.11917	0.17032	30.4	13111	100
2025-3-27 14:52:52.997	WT901BLE68-01(48591DE3C19B)	-0.267	-1.135	0.061	76.721	-43.030	133.057	-68.71	28.99	-0.59	-28.224	-44.198	63.112	-0.72922	0.65186	-0.11917	0.17032	30.4	13111	100
2025-3-27 14:52:53.26	WT901BLE68-01(48591DE3C19B)	-0.255	-1.135	0.061	76.721	-43.030	133.057	-67.54	30.00	0.35	-28.224	-44.198	63.112	-0.72922	0.65186	-0.11917	0.17032	30.4	13111	100
2025-3-27 14:52:53.27	WT901BLE68-01(48591DE3C19B)	-0.255	-1.114	0.105	71.655	-30.640	136.963	-66.40	31.03	1.27	-28.224	-44.198	63.112	-0.72922	0.65186	-0.11917	0.17032	30.4	13111	100
2025-3-27 14:52:53.27	WT901BLE68-01(48591DE3C19B)	-0.250	-1.114	0.105	71.655	-30.640	136.963	-65.29	32.07	2.15	-28.224	-44.198	63.112	-0.72922	0.65186	-0.11917	0.17032	30.4	13111	100
2025-3-27 14:52:53.27	WT901BLE68-01(48591DE3C19B)	-0.250	-1.138	0.113	64.270	-20.813	139.221	-64.28	33.16	2.97	-28.224	-44.198	63.112	-0.72922	0.65186	-0.11917	0.17032	30.4	13111	100
2025-3-27 14:52:53.116	WT901BLE68-01(48591DE3C19B)	-0.207	-1.138	0.113	64.270	-20.813	139.221	-63.25	34.23	3.80	-28.224	-44.198	63.112	-0.72922	0.65186	-0.11917	0.17032	30.4	13111	100
2025-3-27 14:52:53.117	WT901BLE68-01(48591DE3C19B)	-0.207	-1.096	0.098	63.843	-4.822	140.564	-62.29	35.36	4.50	-28.224	-44.198	63.112	-0.72922	0.65186	-0.11917	0.17032	30.4	13111	100
2025-3-27 14:52:53.117	WT901BLE68-01(48591DE3C19B)	-0.177	-1.096	0.098	63.843	-4.822	140.564	-61.30	36.47	5.22	-28.224	-44.198	63.112	-0.72922	0.65186	-0.11917	0.17032	30.4	13111	100
2025-3-27 14:52:53.117	WT901BLE68-01(48591DE3C19B)	-0.177	-1.019	0.091	58.411	13.000	138.428	-60.48	37.64	5.75	-28.224	-44.198	63.112	-0.72922	0.65186	-0.11917	0.17032	30.4	13111	100
2025-3-27 14:52:53.146	WT901BLE68-01(48591DE3C19B)	-0.176	-1.019	0.091	58.411	13.000	138.428	-59.63	38.79	6.31	-28.224	-44.198	63.112	-0.72922	0.65186	-0.11917	0.17032	30.4	13111	100
2025-3-27 14:52:53.146	WT901BLE68-01(48591DE3C19B)	-0.176	-0.988	0.094	48.096	24.902	133.972	-58.97	39.95	6.72	-28.224	-44.198	63.112	-0.72922	0.65186	-0.11917	0.17032	30.4	13111	100
2025-3-27 14:52:53.147	WT901BLE68-01(48591DE3C19B)	-0.112	-0.988	0.094	48.096	24.902	133.972	-58.29	41.09	7.15	-28.224	-44.198	63.112	-0.72922	0.65186	-0.11917	0.17032	30.4	13111	100
2025-3-27 14:52:53.147	WT901BLE68-01(48591DE3C19B)	-0.112	-0.959	0.075	41.809	32.776	125.854	-57.76	42.20	7.44	-28.224	-44.198	63.112	-0.72922	0.65186	-0.11917	0.17032	30.4	13111	100
2025-3-27 14:52:53.148	WT901BLE68-01(48591DE3C19B)	-0.035	-0.959	0.075	41.809	32.776	125.854	-57.21	43.30	7.75	-28.224	-44.198	63.112	-0.72922	0.65186	-0.11917	0.17032	30.4	13111	100
2025-3-27 14:52:53.148	WT901BLE68-01(48591DE3C19B)	-0.035	-0.848	0.063	41.870	47.913	115.479	-56.82	44.39	7.81	-28.224	-44.198	63.112	-0.72922	0.65186	-0.11917	0.17032	30.4	13111	100
2025-3-27 14:52:53.148	WT901BLE68-01(48591DE3C19B)	-0.024	-0.848	0.063	41.870	47.913	115.479	-56.44	45.47	7.87	-28.224	-44.198	63.112	-0.72922	0.65186	-0.11917	0.17032	30.4	13111	100
2025-3-27 14:52:53.148	WT901BLE68-01(48591DE3C19B)	-0.024	-0.759	0.083	29.419	60.242	101.807	-56.36	46.49	7.66	-28.224	-44.198	63.112	-0.72922	0.65186	-0.11917	0.17032	30.4	13111	100
2025-3-27 14:52:53.208	WT901BLE68-01(48591DE3C19B)	-0.030	-0.759	0.083	29.419	60.242	101.807	-56.29	47.50	7.45	-28.224	-44.198	63.112	-0.72922	0.65186	-0.11917	0.17032	30.4	13111	100
2025-3-27 14:52:53.208	WT901BLE68-01(48591DE3C19B)	-0.030	-0.797	0.088	11.719	61.707	85.999	-56.51	48.38	7.08	-28.224	-44.198	63.112	-0.78836	0.45297	-0.33725	-0.24384	30.4	13111	100
2025-3-27 14:52:53.208	WT901BLE68-01(48591DE3C19B)	-0.034	-0.797	0.088	11.719	61.707	85.999	-56.75	49.26	6.69	-28.224	-44.198	63.112	-0.78836	0.45297	-0.33725	-0.24384	30.4	13111	100
2025-3-27 14:52:53.208	WT901BLE68-01(48591DE3C19B)	-0.034	-0.845	0.113	5.005	60.730	65.796	-57.18	49.96	6.12	-28.224	-44.198	63.112	-0.78836	0.45297	-0.33725	-0.24384	30.4	13111	100
2025-3-27 14:52:53.236	WT901BLE68-01(48591DE3C19B)	-0.090	-0.845	0.113	5.005	60.730	65.796	-57.64	50.65	5.53	-28.224	-44.198	63.112	-0.78836	0.45297	-0.33725	-0.24384	30.4	13111	100
2025-3-27 14:52:53.236	WT901BLE68-01(48591DE3C19B)	-0.090	-0.927	0.135	-8.240	54.932	44.067	-58.32	51.11	4.81	-28.224	-44.198	63.112	-0.78836	0.45297	-0.33725	-0.24384	30.4	13111	100
2025-3-27 14:52:53.236	WT901BLE68-01(48591DE3C19B)	-0.110	-0.927	0.135	-8.240	54.932	44.067	-59.02	51.56	4.08	-28.224	-44.198	63.112	-0.78836	0.45297	-0.33725	-0.24384	30.4	13111	100
2025-3-27 14:52:53.236	WT901BLE68-01(48591DE3C19B)	-0.110	-1.066	0.141	-15.015	37.720	17.151	-59.78	51.70	3.35	-28.224	-44.198	63.112	-0.78836	0.45297	-0.33725	-0.24384	30.4	13111	100
2025-3-27 14:52:53.266	WT901BLE68-01(48591DE3C19B)	-0.098	-1.066	0.141	-15.015	37.720	17.151	-60.53	51.82	2.61	-28.224	-44.198	63.112	-0.78836	0.45297	-0.33725	-0.24384	30.4	13111	100
2025-3-27 14:52:53.266	WT901BLE68-01(48591DE3C19B)	-0.098	-1.145	0.125	-14.587	22.339	-9.827	-61.28	51.62	1.88	-28.224	-44.198	63.112	-0.78836	0.45297	-0.33725	-0.24384	30.4	13111	100
2025-3-27 14:52:53.267	WT901BLE68-01(48591DE3C19B)	-0.052	-1.145	0.125	-14.587	22.339	-9.827	-62.02	51.43	1.15	-28.224	-44.198	63.112	-0.78836	0.45297	-0.33725	-0.24384	30.4	13111	100
2025-3-27 14:52:53.267	WT901BLE68-01(48591DE3C19B)	-0.052	-1.234	0.096	-18.188	15.320	-41.687	-62.89	50.91	0.30	-28.224	-44.198	63.112	-0.78836	0.45297	-0.33725	-0.24384	30.4	13111	100
2025-3-27 14:52:53.329	WT901BLE68-01(48591DE3C19B)	-0.033	-1.234	0.096	-18.188	15.320	-41.687	-63.74	50.38	-0.52	-28.224	-44.198	63.112	-0.78836	0.45297	-0.33725	-0.24384	30.4	13111	100
2025-3-27 14:52:53.329	WT901BLE68-01(48591DE3C19B)	-0.033	-1.271	0.085	-10.010	20.203	-76.416	-64.71	49.56	-1.63	-28.224	-44.198	63.112	-0.78836	0.45297	-0.33725	-0.24384	30.4	13111	100
2025-3-27 14:52:53.329	WT901BLE68-01(48591DE3C19B)	-0.025	-1.271	0.085	-10.010	20.203	-76.416	-65.64	48.73	-2.70	-28.224	-44.198	63.112	-0.78836	0.45297	-0.33725	-0.24384	30.4	13111	100
2025-3-27 14:52:53.329	WT901BLE68-01(48591DE3C19B)	-0.025	-1.254	0.060	-15.137	35.095	-112.305	-66.89	47.63	-4.14	-28.224	-44.198	63.112	-0.78836	0.45297	-0.33725	-0.24384	30.4	13111	100
2025-3-27 14:52:53.386	WT901BLE68-01(48591DE3C19B)	-0.076	-1.254	0.060	-15.137	35.095	-112.305	-68.07	46.50	-5.50	-28.224	-44.198	63.112	-0.78836	0.45297	-0.33725	-0.24384	30.4	13111	100
2025-3-27 14:52:53.387	WT901BLE68-01(48591DE3C19B)	-0.076	-1.426	0.027	-20.630	56.824	-149.780	-69.58	45.09	-7.27	-28.224	-44.198	63.112	-0.78836	0.45297	-0.33725	-0.24384	30.4	13111	100
2025-3-27 14:52:53.387	WT901BLE68-01(48591DE3C19B)	-0.203	-1.426	0.027	-20.630	56.824	-149.780	-70.98	43.66	-8.94	-28.224	-44.198	63.112	-0.78836	0.45297	-0.33725	-0.24384	30.4	13111	100
2025-3-27 14:52:53.387	WT901BLE68-01(48591DE3C19B)	-0.203	-1.373	0.070	-6.470	72.937	-182.678	-72.38	41.95	-10.85	-40.376	-57.428	65.954	-0.78836	0.45297	-0.33725	-0.24384	30.4	13111	100
2025-3-27 14:52:53.388	WT901BLE68-01(48591DE3C19B)	-0.291	-1.373	0.070	-6.470	72.937	-182.678	-73.65	40.22	-12.65	-40.376	-57.428	65.954	-0.78836	0.45297	-0.33725	-0.24384	30.4	13111	100
2025-3-27 14:52:53.388	WT901BLE68-01(48591DE3C19B)	-0.291	-1.202	0.118	-6.104	76.538	-203.552	-74.88	38.28	-14.44	-40.376	-57.428	65.954	-0.78836	0.45297	-0.33725	-0.24384	30.4	13111	100
2025-3-27 14:52:53.388	WT901BLE68-01(48591DE3C19B)	-0.305	-1.202	0.118	-6.104	76.538	-203.552	-75.99	36.33	-16.12	-40.376	-57.428	65.954	-0.78836	0.45297	-0.33725	-0.24384	30.4	13111	100
2025-3-27 14:52:53.388	WT901BLE68-01(48591DE3C19B)	-0.305	-1.080	0.178	-5.371	73.486	-213.501	-76.98	34.26	-17.68	-40.376	-57.428	65.954	-0.78836	0.45297	-0.33725	-0.24384	30.4	13111	100
2025-3-27 14:52:53.447	WT901BLE68-01(48591DE3C19B)	-0.340	-1.080	0.178	-5.371	73.486	-213.501	-77.87	32.20	-19.15	-40.376	-57.428	65.954	-0.78836	0.45297	-0.33725	-0.24384	30.4	13111	100
2025-3-27 14:52:53.447	WT901BLE68-01(48591DE3C19B)	-0.340	-1.023	0.216	-8.362	66.467	-215.332	-78.66	30.09	-20.46	-40.376	-57.428	65.954	-0.78836	0.45297	-0.33725	-0.24384	30.4	13111	100
2025-3-27 14:52:53.447	WT901BLE68-01(48591DE3C19B)	-0.368	-1.023	0.216	-8.362	66.467	-215.332	-79.37	27.99	-21.70	-40.376	-57.428	65.954	-0.78836	0.45297	-0.33725	-0.24384	30.4	13111	100
2025-3-27 14:52:53.447	WT901BLE68-01(48591DE3C19B)	-0.368	-1.096	0.196	-20.813	49.255	-218.140	-80.04	25.84	-22.68	-40.376	-57.428	65.954	-0.78836	0.45297	-0.33725	-0.24384	30.4	13111	100
2025-3-27 14:52:53.507	WT901BLE68-01(48591DE3C19B)	-0.281	-1.096	0.196	-20.813	49.255	-218.140	-80.66	23.69	-23.61	-40.376	-57.428	65.954	-0.78836	0.45297	-0.33725	-0.24384	30.4	13111	100
2025-3-27 14:52:53.507	WT901BLE68-01(48591DE3C19B)	-0.281	-1.262	0.123	-27.222	32.288	-217.163	-81.22	21.53	-24.30	-40.376	-57.428	65.954	-0.78836	0.45297	-0.33725	-0.24384	30.4	13111	100
2025-3-27 14:52:53.507	WT901BLE68-01(48591DE3C19B)	-0.205	-1.262	0.123	-27.222	32.288	-217.163	-81.74	19.38	-24.96	-40.376	-57.428	65.954	-0.78836	0.45297	-0.33725	-0.24384	30.4	13111	100
2025-3-27 14:52:53.507	WT901BLE68-01(48591DE3C19B)	-0.205	-1.390	0.070	-19.958	40.833	-219.177	-82.18	17.23	-25.68	-40.376	-57.428	65.954	-0.78836	0.45297	-0.33725	-0.24384	30.4	13111	100
2025-3-27 14:52:53.508	WT901BLE68-01(48591DE3C19B)	-0.261	-1.390	0.070	-19.958	40.833	-219.177	-82.59	15.08	-26.37	-40.376	-57.428	65.954	-0.78836	0.45297	-0.33725	-0.24384	30.4	13111	100
2025-3-27 14:52:53.509	WT901BLE68-01(48591DE3C19B)	-0.368	-1.503	0.092	-8.301	65.002	-223.511	-82.91	12.93	-27.28	-40.376	-57.428	65.954	-0.78836	0.45297	-0.33725	-0.24384	30.4	13111	100
2025-3-27 14:52:53.509	WT901BLE68-01(48591DE3C19B)	-0.368	-1.552	0.146	8.728	86.853	-229.431	-83.13	10.77	-28.28	-40.376	-57.428	65.954	-0.78836	0.45297	-0.33725	-0.24384	30.4	13111	100
2025-3-27 14:52:53.509	WT901BLE68-01(48591DE3C19B)	-0.403	-1.552	0.146	8.728	86.853	-229.431	-83.25	8.61	-29.37	-40.376	-57.428	65.954	-0.78836	0.45297	-0.33725	-0.24384	30.4	13111	100
2025-3-27 14:52:53.566	WT901BLE68-01(48591DE3C19B)	-0.403	-1.469	0.153	24.414	105.713	-230.652	-83.25	6.46	-30.54	-40.376	-57.428	65.954	-0.78836	0.45297	-0.33725	-0.24384	30.4	13111	100
2025-3-27 14:52:53.567	WT901BLE68-01(48591DE3C19B)	-0.412	-1.469	0.153	24.414	105.713	-230.652	-83.14	4.34	-31.79	-40.376	-57.428	65.954	-0.78836	0.45297	-0.33725	-0.24384	30.4	13111	100
2025-3-27 14:52:53.567	WT901BLE68-01(48591DE3C19B)	-0.412	-1.364	0.126	31.921	129.150	-228.882	-82.96	2.25	-33.15	-40.376	-57.428	65.954	-0.78836	0.45297	-0.33725	-0.24384	30.4	13111	100
2025-3-27 14:52:53.567	WT901BLE68-01(48591DE3C19B)	-0.517	-1.364	0.126	31.921	129.150	-228.882	-82.69	0.21	-34.62	-40.376	-57.428	65.954	-0.78836	0.45297	-0.33725	-0.24384	30.4	13111	100
2025-3-27 14:52:53.596	WT901BLE68-01(48591DE3C19B)	-0.517	-1.311	0.128	38.635	144.104	-224.182	-82.34	-1.76	-36.17	-40.376	-57.428	65.954	-0.71225	0.62930	-0.19330	0.24329	30.4	13111	100
2025-3-27 14:52:53.596	WT901BLE68-01(48591DE3C19B)	-0.645	-1.311	0.128	38.635	144.104	-224.182	-81.91	-3.69	-37.79	-40.376	-57.428	65.954	-0.71225	0.62930	-0.19330	0.24329	30.4	13111	100
2025-3-27 14:52:53.596	WT901BLE68-01(48591DE3C19B)	-0.645	-1.266	0.168	42.480	135.498	-217.834	-81.40	-5.56	-39.37	-40.376	-57.428	65.954	-0.71225	0.62930	-0.19330	0.24329	30.4	13111	100
2025-3-27 14:52:53.596	WT901BLE68-01(48591DE3C19B)	-0.686	-1.266	0.168	42.480	135.498	-217.834	-80.83	-7.37	-40.92	-40.376	-57.428	65.954	-0.71225	0.62930	-0.19330	0.24329	30.4	13111	100
2025-3-27 14:52:53.626	WT901BLE68-01(48591DE3C19B)	-0.686	-1.192	0.190	42.236	112.488	-206.543	-80.23	-9.11	-42.35	-40.376	-57.428	65.954	-0.71225	0.62930	-0.19330	0.24329	30.4	13111	100
2025-3-27 14:52:53.627	WT901BLE68-01(48591DE3C19B)	-0.674	-1.192	0.190	42.236	112.488	-206.543	-79.62	-10.79	-43.68	-40.376	-57.428	65.954	-0.71225	0.62930	-0.19330	0.24329	30.4	13111	100
2025-3-27 14:52:53.627	WT901BLE68-01(48591DE3C19B)	-0.674	-1.118	0.166	39.734	90.210	-189.087	-79.00	-12.37	-44.90	-40.376	-57.428	65.954	-0.71225	0.62930	-0.19330	0.24329	30.4	13111	100
2025-3-27 14:52:53.627	WT901BLE68-01(48591DE3C19B)	-0.696	-1.118	0.166	39.734	90.210	-189.087	-78.39	-13.86	-46.01	-40.376	-57.428	65.954	-0.71225	0.62930	-0.19330	0.24329	30.4	13111	100
2025-3-27 14:52:53.717	WT901BLE68-01(48591DE3C19B)	-0.696	-1.034	0.151	38.452	66.467	-167.847	-77.79	-15.24	-46.99	-40.376	-57.428	65.954	-0.71225	0.62930	-0.19330	0.24329	30.4	13111	100
2025-3-27 14:52:53.717	WT901BLE68-01(48591DE3C19B)	-0.702	-1.034	0.151	38.452	66.467	-167.847	-77.22	-16.52	-47.84	-40.376	-57.428	65.954	-0.71225	0.62930	-0.19330	0.24329	30.4	13111	100
2025-3-27 14:52:53.717	WT901BLE68-01(48591DE3C19B)	-0.702	-0.956	0.161	30.334	39.978	-142.578	-76.71	-17.69	-48.54	-40.376	-57.428	65.954	-0.71225	0.62930	-0.19330	0.24329	30.4	13111	100
2025-3-27 14:52:53.717	WT901BLE68-01(48591DE3C19B)	-0.649	-0.956	0.161	30.334	39.978	-142.578	-76.28	-18.75	-49.09	-40.376	-57.428	65.954	-0.71225	0.62930	-0.19330	0.24329	30.4	13111	100
2025-3-27 14:52:53.718	WT901BLE68-01(48591DE3C19B)	-0.649	-0.896	0.174	21.362	26.428	-113.953	-75.92	-19.67	-49.54	-40.376	-57.428	65.954	-0.71225	0.62930	-0.19330	0.24329	30.4	13111	100
2025-3-27 14:52:53.718	WT901BLE68-01(48591DE3C19B)	-0.604	-0.896	0.174	21.362	26.428	-113.953	-75.63	-20.46	-49.88	-40.376	-57.428	65.954	-0.71225	0.62930	-0.19330	0.24329	30.4	13111	100
2025-3-27 14:52:53.718	WT901BLE68-01(48591DE3C19B)	-0.604	-0.833	0.174	17.517	27.710	-81.604	-75.37	-21.08	-50.20	-40.376	-57.428	65.954	-0.71225	0.62930	-0.19330	0.24329	30.4	13111	100
2025-3-27 14:52:53.719	WT901BLE68-01(48591DE3C19B)	-0.574	-0.833	0.174	17.517	27.710	-81.604	-75.14	-21.54	-50.48	-40.376	-57.428	65.954	-0.71225	0.62930	-0.19330	0.24329	30.4	13111	100
2025-3-27 14:52:53.748	WT901BLE68-01(48591DE3C19B)	-0.574	-0.736	0.149	13.062	28.625	-51.575	-74.94	-21.84	-50.72	-40.376	-57.428	65.954	-0.71225	0.62930	-0.19330	0.24329	30.4	13111	100
2025-3-27 14:52:53.748	WT901BLE68-01(48591DE3C19B)	-0.561	-0.736	0.149	13.062	28.625	-51.575	-74.78	-21.99	-50.93	-40.376	-57.428	65.954	-0.71225	0.62930	-0.19330	0.24329	30.4	13111	100
2025-3-27 14:52:53.748	WT901BLE68-01(48591DE3C19B)	-0.561	-0.692	0.138	0.671	28.687	-23.804	-74.70	-22.00	-51.10	-40.376	-57.428	65.954	-0.71225	0.62930	-0.19330	0.24329	30.4	13111	100
2025-3-27 14:52:53.748	WT901BLE68-01(48591DE3C19B)	-0.601	-0.692	0.138	0.671	28.687	-23.804	-74.69	-21.87	-51.22	-40.376	-57.428	65.954	-0.71225	0.62930	-0.19330	0.24329	30.4	13111	100
2025-3-27 14:52:53.837	WT901BLE68-01(48591DE3C19B)	-0.601	-0.760	0.154	-8.850	24.048	-0.732	-74.75	-21.64	-51.29	-40.376	-57.428	65.954	-0.71225	0.62930	-0.19330	0.24329	30.4	13111	100
2025-3-27 14:52:53.837	WT901BLE68-01(48591DE3C19B)	-0.647	-0.760	0.154	-8.850	24.048	-0.732	-74.89	-21.30	-51.30	-44.688	-18.326	79.772	-0.71225	0.62930	-0.19330	0.24329	30.4	13111	100
2025-3-27 14:52:53.837	WT901BLE68-01(48591DE3C19B)	-0.647	-0.812	0.178	-11.414	11.292	16.418	-75.06	-20.90	-51.22	-44.688	-18.326	79.772	-0.71225	0.62930	-0.19330	0.24329	30.4	13111	100
2025-3-27 14:52:53.837	WT901BLE68-01(48591DE3C19B)	-0.657	-0.812	0.178	-11.414	11.292	16.418	-75.28	-20.42	-51.06	-44.688	-18.326	79.772	-0.71225	0.62930	-0.19330	0.24329	30.4	13111	100
2025-3-27 14:52:53.838	WT901BLE68-01(48591DE3C19B)	-0.657	-0.839	0.186	-16.724	-3.845	31.311	-75.56	-19.90	-50.80	-44.688	-18.326	79.772	-0.71225	0.62930	-0.19330	0.24329	30.4	13111	100
2025-3-27 14:52:53.839	WT901BLE68-01(48591DE3C19B)	-0.648	-0.839	0.186	-16.724	-3.845	31.311	-75.89	-19.31	-50.44	-44.688	-18.326	79.772	-0.71225	0.62930	-0.19330	0.24329	30.4	13111	100
2025-3-27 14:52:53.839	WT901BLE68-01(48591DE3C19B)	-0.648	-0.915	0.178	-25.940	-13.428	46.326	-76.29	-18.67	-50.02	-44.688	-18.326	79.772	-0.71225	0.62930	-0.19330	0.24329	30.4	13111	100
2025-3-27 14:52:53.839	WT901BLE68-01(48591DE3C19B)	-0.686	-0.915	0.178	-25.940	-13.428	46.326	-76.74	-17.97	-49.54	-44.688	-18.326	79.772	-0.71225	0.62930	-0.19330	0.24329	30.4	13111	100
2025-3-27 14:52:53.868	WT901BLE68-01(48591DE3C19B)	-0.686	-1.084	0.211	-32.410	-23.010	62.317	-77.24	-17.20	-49.00	-44.688	-18.326	79.772	-0.71225	0.62930	-0.19330	0.24329	30.4	13111	100
2025-3-27 14:52:53.869	WT901BLE68-01(48591DE3C19B)	-0.687	-1.084	0.211	-32.410	-23.010	62.317	-77.77	-16.36	-48.42	-44.688	-18.326	79.772	-0.71225	0.62930	-0.19330	0.24329	30.4	13111	100
2025-3-27 14:52:53.869	WT901BLE68-01(48591DE3C19B)	-0.687	-1.184	0.237	-28.809	-40.466	78.796	-78.31	-15.47	-47.73	-44.688	-18.326	79.772	-0.71225	0.62930	-0.19330	0.24329	30.4	13111	100
2025-3-27 14:52:53.869	WT901BLE68-01(48591DE3C19B)	-0.605	-1.184	0.237	-28.809	-40.466	78.796	-78.83	-14.51	-46.96	-44.688	-18.326	79.772	-0.71225	0.62930	-0.19330	0.24329	30.4	13111	100
2025-3-27 14:52:53.926	WT901BLE68-01(48591DE3C19B)	-0.605	-1.169	0.275	-28.625	-53.589	99.731	-79.35	-13.46	-46.11	-44.688	-18.326	79.772	-0.71225	0.62930	-0.19330	0.24329	30.4	13111	100
2025-3-27 14:52:53.926	WT901BLE68-01(48591DE3C19B)	-0.617	-1.169	0.275	-28.625	-53.589	99.731	-79.87	-12.32	-45.20	-44.688	-18.326	79.772	-0.71225	0.62930	-0.19330	0.24329	30.4	13111	100
2025-3-27 14:52:53.926	WT901BLE68-01(48591DE3C19B)	-0.617	-1.263	0.354	-30.212	-66.589	124.390	-80.38	-11.08	-44.21	-44.688	-18.326	79.772	-0.71225	0.62930	-0.19330	0.24329	30.4	13111	100
2025-3-27 14:52:53.926	WT901BLE68-01(48591DE3C19B)	-0.583	-1.263	0.354	-30.212	-66.589	124.390	-80.89	-9.72	-43.17	-44.688	-18.326	79.772	-0.71225	0.62930	-0.19330	0.24329	30.4	13111	100
2025-3-27 14:52:53.986	WT901BLE68-01(48591DE3C19B)	-0.583	-1.274	0.383	-21.606	-79.041	147.644	-81.33	-8.27	-42.06	-44.688	-18.326	79.772	-0.71225	0.62930	-0.19330	0.24329	30.4	13111	100
2025-3-27 14:52:53.986	WT901BLE68-01(48591DE3C19B)	-0.497	-1.274	0.383	-21.606	-79.041	147.644	-81.71	-6.71	-40.90	-44.688	-18.326	79.772	-0.71225	0.62930	-0.19330	0.24329	30.4	13111	100
2025-3-27 14:52:53.987	WT901BLE68-01(48591DE3C19B)	-0.497	-1.214	0.349	-18.738	-83.984	175.842	-82.03	-5.02	-39.71	-44.688	-18.326	79.772	-0.71225	0.62930	-0.19330	0.24329	30.4	13111	100
2025-3-27 14:52:53.987	WT901BLE68-01(48591DE3C19B)	-0.479	-1.214	0.349	-18.738	-83.984	175.842	-82.30	-3.20	-38.50	-44.688	-18.326	79.772	-0.71225	0.62930	-0.19330	0.24329	30.4	13111	100
2025-3-27 14:52:54.16	WT901BLE68-01(48591DE3C19B)	-0.479	-1.287	0.265	-22.461	-87.952	202.087	-82.57	-1.14	-37.22	-44.688	-18.326	79.772	-0.71225	0.62930	-0.19330	0.24329	30.4	13111	100
2025-3-27 14:52:54.16	WT901BLE68-01(48591DE3C19B)	-0.485	-1.287	0.265	-22.461	-87.952	202.087	-82.80	0.91	-35.97	-44.688	-18.326	79.772	-0.71774	0.62662	-0.21313	0.21600	30.4	13111	100
2025-3-27 14:52:54.16	WT901BLE68-01(48591DE3C19B)	-0.485	-1.443	0.198	-20.996	-99.121	220.703	-82.96	3.12	-34.60	-44.688	-18.326	79.772	-0.71774	0.62662	-0.21313	0.21600	30.4	13111	100
2025-3-27 14:52:54.16	WT901BLE68-01(48591DE3C19B)	-0.500	-1.443	0.198	-20.996	-99.121	220.703	-83.07	5.31	-33.23	-44.688	-18.326	79.772	-0.71774	0.62662	-0.21313	0.21600	30.4	13111	100
2025-3-27 14:52:54.46	WT901BLE68-01(48591DE3C19B)	-0.500	-1.624	0.145	-20.630	-124.146	233.521	-83.10	7.59	-31.61	-44.688	-18.326	79.772	-0.71774	0.62662	-0.21313	0.21600	30.4	13111	100
2025-3-27 14:52:54.46	WT901BLE68-01(48591DE3C19B)	-0.464	-1.624	0.145	-20.630	-124.146	233.521	-83.06	9.84	-29.98	-44.688	-18.326	79.772	-0.71774	0.62662	-0.21313	0.21600	30.4	13111	100
2025-3-27 14:52:54.46	WT901BLE68-01(48591DE3C19B)	-0.464	-1.859	0.080	-18.188	-152.222	239.685	-82.89	12.10	-28.06	-44.688	-18.326	79.772	-0.71774	0.62662	-0.21313	0.21600	30.4	13111	100
2025-3-27 14:52:54.46	WT901BLE68-01(48591DE3C19B)	-0.368	-1.859	0.080	-18.188	-152.222	239.685	-82.64	14.33	-26.14	-44.688	-18.326	79.772	-0.71774	0.62662	-0.21313	0.21600	30.4	13111	100
2025-3-27 14:52:54.79	WT901BLE68-01(48591DE3C19B)	-0.368	-2.043	0.087	5.737	-164.917	240.479	-82.04	16.51	-24.05	-44.688	-18.326	79.772	-0.71774	0.62662	-0.21313	0.21600	30.4	13111	100
2025-3-27 14:52:54.79	WT901BLE68-01(48591DE3C19B)	-0.273	-2.043	0.087	5.737	-164.917	240.479	-81.36	18.65	-21.93	-44.688	-18.326	79.772	-0.71774	0.62662	-0.21313	0.21600	30.4	13111	100
2025-3-27 14:52:54.79	WT901BLE68-01(48591DE3C19B)	-0.273	-1.945	0.133	34.119	-153.748	240.723	-80.36	20.77	-19.89	-44.688	-18.326	79.772	-0.71774	0.62662	-0.21313	0.21600	30.4	13111	100
2025-3-27 14:52:54.79	WT901BLE68-01(48591DE3C19B)	-0.237	-1.945	0.133	34.119	-153.748	240.723	-79.27	22.83	-17.79	-44.688	-18.326	79.772	-0.71774	0.62662	-0.21313	0.21600	30.4	13111	100
2025-3-27 14:52:54.139	WT901BLE68-01(48591DE3C19B)	-0.237	-1.701	0.168	46.936	-128.601	240.906	-78.06	24.89	-15.90	-44.688	-18.326	79.772	-0.71774	0.62662	-0.21313	0.21600	30.4	13111	100
2025-3-27 14:52:54.139	WT901BLE68-01(48591DE3C19B)	-0.235	-1.701	0.168	46.936	-128.601	240.906	-76.77	26.89	-13.94	-44.688	-18.326	79.772	-0.71774	0.62662	-0.21313	0.21600	30.4	13111	100
2025-3-27 14:52:54.139	WT901BLE68-01(48591DE3C19B)	-0.235	-1.538	0.161	46.631	-101.746	239.075	-75.53	28.88	-12.21	-44.688	-18.326	79.772	-0.71774	0.62662	-0.21313	0.21600	30.4	13111	100
2025-3-27 14:52:54.139	WT901BLE68-01(48591DE3C19B)	-0.245	-1.538	0.161	46.631	-101.746	239.075	-74.21	30.83	-10.41	-44.688	-18.326	79.772	-0.71774	0.62662	-0.21313	0.21600	30.4	13111	100
2025-3-27 14:52:54.168	WT901BLE68-01(48591DE3C19B)	-0.245	-1.439	0.151	48.279	-72.449	235.291	-72.96	32.77	-8.87	-44.688	-18.326	79.772	-0.71774	0.62662	-0.21313	0.21600	30.4	13111	100
2025-3-27 14:52:54.168	WT901BLE68-01(48591DE3C19B)	-0.258	-1.439	0.151	48.279	-72.449	235.291	-71.63	34.67	-7.26	-44.688	-18.326	79.772	-0.71774	0.62662	-0.21313	0.21600	30.4	13111	100
2025-3-27 14:52:54.169	WT901BLE68-01(48591DE3C19B)	-0.258	-1.357	0.134	47.607	-50.598	228.455	-70.38	36.54	-5.84	-44.688	-18.326	79.772	-0.71774	0.62662	-0.21313	0.21600	30.4	13111	100
2025-3-27 14:52:54.169	WT901BLE68-01(48591DE3C19B)	-0.269	-1.357	0.134	47.607	-50.598	228.455	-69.05	38.36	-4.36	-30.968	-41.846	67.816	-0.71774	0.62662	-0.21313	0.21600	30.4	13111	100
2025-3-27 14:52:54.199	WT901BLE68-01(48591DE3C19B)	-0.269	-1.311	0.122	44.983	-39.001	219.910	-67.78	40.11	-2.97	-30.968	-41.846	67.816	-0.71774	0.62662	-0.21313	0.21600	30.4	13111	100
2025-3-27 14:52:54.199	WT901BLE68-01(48591DE3C19B)	-0.276	-1.311	0.122	44.983	-39.001	219.910	-66.43	41.83	-1.51	-30.968	-41.846	67.816	-0.71774	0.62662	-0.21313	0.21600	30.4	13111	100
2025-3-27 14:52:54.199	WT901BLE68-01(48591DE3C19B)	-0.276	-1.280	0.071	45.837	-36.926	209.473	-65.04	43.42	-0.04	-30.968	-41.846	67.816	-0.71774	0.62662	-0.21313	0.21600	30.4	13111	100
2025-3-27 14:52:54.199	WT901BLE68-01(48591DE3C19B)	-0.263	-1.280	0.071	45.837	-36.926	209.473	-63.56	44.98	1.51	-30.968	-41.846	67.816	-0.71774	0.62662	-0.21313	0.21600	30.4	13111	100
2025-3-27 14:52:54.256	WT901BLE68-01(48591DE3C19B)	-0.263	-1.181	0.021	50.293	-39.673	198.914	-61.98	46.40	3.11	-30.968	-41.846	67.816	-0.71774	0.62662	-0.21313	0.21600	30.4	13111	100
2025-3-27 14:52:54.256	WT901BLE68-01(48591DE3C19B)	-0.205	-1.181	0.021	50.293	-39.673	198.914	-60.30	47.77	4.81	-30.968	-41.846	67.816	-0.71774	0.62662	-0.21313	0.21600	30.4	13111	100
2025-3-27 14:52:54.256	WT901BLE68-01(48591DE3C19B)	-0.205	-1.093	0.003	50.232	-43.396	185.059	-58.59	48.96	6.54	-30.968	-41.846	67.816	-0.71774	0.62662	-0.21313	0.21600	30.4	13111	100
2025-3-27 14:52:54.256	WT901BLE68-01(48591DE3C19B)	-0.118	-1.093	0.003	50.232	-43.396	185.059	-56.79	50.11	8.34	-30.968	-41.846	67.816	-0.71774	0.62662	-0.21313	0.21600	30.4	13111	100
2025-3-27 14:52:54.285	WT901BLE68-01(48591DE3C19B)	-0.118	-1.019	0.017	52.063	-40.710	168.884	-55.03	51.11	10.06	-30.968	-41.846	67.816	-0.71774	0.62662	-0.21313	0.21600	30.4	13111	100
2025-3-27 14:52:54.285	WT901BLE68-01(48591DE3C19B)	-0.030	-1.019	0.017	52.063	-40.710	168.884	-53.19	52.06	11.85	-30.968	-41.846	67.816	-0.71774	0.62662	-0.21313	0.21600	30.4	13111	100
2025-3-27 14:52:54.286	WT901BLE68-01(48591DE3C19B)	-0.030	-0.937	0.046	51.636	-30.334	153.625	-51.51	52.91	13.41	-30.968	-41.846	67.816	-0.71774	0.62662	-0.21313	0.21600	30.4	13111	100
2025-3-27 14:52:54.286	WT901BLE68-01(48591DE3C19B)	0.075	-0.937	0.046	51.636	-30.334	153.625	-49.79	53.72	15.03	-30.968	-41.846	67.816	-0.71774	0.62662	-0.21313	0.21600	30.4	13111	100
2025-3-27 14:52:54.316	WT901BLE68-01(48591DE3C19B)	0.075	-0.841	0.058	51.331	-10.315	137.146	-48.37	54.51	16.27	-30.968	-41.846	67.816	-0.71774	0.62662	-0.21313	0.21600	30.4	13111	100
2025-3-27 14:52:54.316	WT901BLE68-01(48591DE3C19B)	0.145	-0.841	0.058	51.331	-10.315	137.146	-46.90	55.28	17.53	-30.968	-41.846	67.816	-0.71774	0.62662	-0.21313	0.21600	30.4	13111	100
2025-3-27 14:52:54.316	WT901BLE68-01(48591DE3C19B)	0.145	-0.730	0.057	48.096	17.822	121.521	-45.88	56.10	18.28	-30.968	-41.846	67.816	-0.71774	0.62662	-0.21313	0.21600	30.4	13111	100
2025-3-27 14:52:54.316	WT901BLE68-01(48591DE3C19B)	0.157	-0.730	0.057	48.096	17.822	121.521	-44.84	56.91	19.06	-30.968	-41.846	67.816	-0.71774	0.62662	-0.21313	0.21600	30.4	13111	100
2025-3-27 14:52:54.407	WT901BLE68-01(48591DE3C19B)	0.157	-0.646	0.069	41.626	44.312	103.333	-44.32	57.77	19.27	-30.968	-41.846	67.816	-0.71774	0.62662	-0.21313	0.21600	30.4	13111	100
2025-3-27 14:52:54.407	WT901BLE68-01(48591DE3C19B)	0.116	-0.646	0.069	41.626	44.312	103.333	-43.79	58.61	19.48	-30.968	-41.846	67.816	-0.71774	0.62662	-0.21313	0.21600	30.4	13111	100
2025-3-27 14:52:54.407	WT901BLE68-01(48591DE3C19B)	0.116	-0.640	0.090	22.644	53.589	78.491	-43.86	59.35	19.23	-30.968	-41.846	67.816	-0.71774	0.62662	-0.21313	0.21600	30.4	13111	100
2025-3-27 14:52:54.407	WT901BLE68-01(48591DE3C19B)	0.074	-0.640	0.090	22.644	53.589	78.491	-43.93	60.08	18.95	-30.968	-41.846	67.816	-0.71774	0.62662	-0.21313	0.21600	30.4	13111	100
2025-3-27 14:52:54.408	WT901BLE68-01(48591DE3C19B)	0.074	-0.769	0.094	3.052	45.715	47.668	-44.51	60.53	18.32	-30.968	-41.846	67.816	-0.75757	0.39786	-0.41034	-0.31509	30.4	13111	100
2025-3-27 14:52:54.408	WT901BLE68-01(48591DE3C19B)	0.073	-0.769	0.094	3.052	45.715	47.668	-45.10	60.98	17.67	-30.968	-41.846	67.816	-0.75757	0.39786	-0.41034	-0.31509	30.4	13111	100
2025-3-27 14:52:54.408	WT901BLE68-01(48591DE3C19B)	0.073	-0.911	0.061	-4.333	36.621	16.235	-46.07	61.13	16.67	-30.968	-41.846	67.816	-0.75757	0.39786	-0.41034	-0.31509	30.4	13111	100
2025-3-27 14:52:54.408	WT901BLE68-01(48591DE3C19B)	0.067	-0.911	0.061	-4.333	36.621	16.235	-47.04	61.27	15.66	-30.968	-41.846	67.816	-0.75757	0.39786	-0.41034	-0.31509	30.4	13111	100
2025-3-27 14:52:54.438	WT901BLE68-01(48591DE3C19B)	0.029	-0.980	0.025	-4.150	40.710	-14.954	-48.46	61.20	14.15	-30.968	-41.846	67.816	-0.75757	0.39786	-0.41034	-0.31509	30.4	13111	100
2025-3-27 14:52:54.438	WT901BLE68-01(48591DE3C19B)	0.029	-1.074	-0.018	-13.062	48.584	-48.462	-50.15	61.01	12.37	-30.968	-41.846	67.816	-0.75757	0.39786	-0.41034	-0.31509	30.4	13111	100
2025-3-27 14:52:54.438	WT901BLE68-01(48591DE3C19B)	-0.023	-1.074	-0.018	-13.062	48.584	-48.462	-52.10	60.69	10.34	-30.968	-41.846	67.816	-0.75757	0.39786	-0.41034	-0.31509	30.4	13111	100
2025-3-27 14:52:54.439	WT901BLE68-01(48591DE3C19B)	-0.023	-1.209	-0.012	-13.367	50.171	-84.534	-54.20	60.19	8.14	-30.968	-41.846	67.816	-0.75757	0.39786	-0.41034	-0.31509	30.4	13111	100
2025-3-27 14:52:54.496	WT901BLE68-01(48591DE3C19B)	-0.043	-1.209	-0.012	-13.367	50.171	-84.534	-56.40	59.52	5.82	-30.968	-41.846	67.816	-0.75757	0.39786	-0.41034	-0.31509	30.4	13111	100
2025-3-27 14:52:54.496	WT901BLE68-01(48591DE3C19B)	-0.043	-1.291	-0.013	-15.808	52.063	-125.732	-58.68	58.64	3.38	-30.968	-41.846	67.816	-0.75757	0.39786	-0.41034	-0.31509	30.4	13111	100
2025-3-27 14:52:54.496	WT901BLE68-01(48591DE3C19B)	-0.048	-1.291	-0.013	-15.808	52.063	-125.732	-61.01	57.54	0.90	-30.968	-41.846	67.816	-0.75757	0.39786	-0.41034	-0.31509	30.4	13111	100
2025-3-27 14:52:54.496	WT901BLE68-01(48591DE3C19B)	-0.048	-1.391	-0.023	-18.494	64.697	-169.006	-63.41	56.23	-1.70	-30.968	-41.846	67.816	-0.75757	0.39786	-0.41034	-0.31509	30.4	13111	100
2025-3-27 14:52:54.526	WT901BLE68-01(48591DE3C19B)	-0.146	-1.391	-0.023	-18.494	64.697	-169.006	-65.84	54.71	-4.35	-30.968	-41.846	67.816	-0.75757	0.39786	-0.41034	-0.31509	30.4	13111	100
2025-3-27 14:52:54.526	WT901BLE68-01(48591DE3C19B)	-0.146	-1.398	0.021	-15.808	89.966	-207.947	-68.27	53.00	-7.08	-30.968	-41.846	67.816	-0.75757	0.39786	-0.41034	-0.31509	30.4	13111	100
2025-3-27 14:52:54.526	WT901BLE68-01(48591DE3C19B)	-0.303	-1.398	0.021	-15.808	89.966	-207.947	-70.69	51.10	-9.87	-30.968	-41.846	67.816	-0.75757	0.39786	-0.41034	-0.31509	30.4	13111	100
2025-3-27 14:52:54.526	WT901BLE68-01(48591DE3C19B)	-0.303	-1.377	0.064	-21.118	103.699	-242.920	-73.01	48.99	-12.58	-30.968	-41.846	67.816	-0.75757	0.39786	-0.41034	-0.31509	30.4	13111	100
2025-3-27 14:52:54.558	WT901BLE68-01(48591DE3C19B)	-0.357	-1.377	0.064	-21.118	103.699	-242.920	-75.21	46.69	-15.19	-30.968	-41.846	67.816	-0.75757	0.39786	-0.41034	-0.31509	30.4	13111	100
2025-3-27 14:52:54.558	WT901BLE68-01(48591DE3C19B)	-0.357	-1.410	0.125	-23.376	105.408	-264.587	-77.20	44.24	-17.60	-30.968	-41.846	67.816	-0.75757	0.39786	-0.41034	-0.31509	30.4	13111	100
2025-3-27 14:52:54.558	WT901BLE68-01(48591DE3C19B)	-0.406	-1.410	0.125	-23.376	105.408	-264.587	-78.99	41.66	-19.81	-30.968	-41.846	67.816	-0.75757	0.39786	-0.41034	-0.31509	30.4	13111	100
2025-3-27 14:52:54.558	WT901BLE68-01(48591DE3C19B)	-0.406	-1.479	0.146	-19.043	97.900	-278.259	-80.51	38.97	-21.79	-30.968	-41.846	67.816	-0.75757	0.39786	-0.41034	-0.31509	30.4	13111	100
2025-3-27 14:52:54.617	WT901BLE68-01(48591DE3C19B)	-0.400	-1.479	0.146	-19.043	97.900	-278.259	-81.82	36.20	-23.55	-30.968	-41.846	67.816	-0.75757	0.39786	-0.41034	-0.31509	30.4	13111	100
2025-3-27 14:52:54.617	WT901BLE68-01(48591DE3C19B)	-0.400	-1.551	0.101	-11.230	80.872	-287.903	-82.88	33.35	-25.07	-34.398	-44.002	72.422	-0.75757	0.39786	-0.41034	-0.31509	30.4	13111	100
2025-3-27 14:52:54.617	WT901BLE68-01(48591DE3C19B)	-0.328	-1.551	0.101	-11.230	80.872	-287.903	-83.72	30.46	-26.38	-34.398	-44.002	72.422	-0.75757	0.39786	-0.41034	-0.31509	30.4	13111	100
2025-3-27 14:52:54.617	WT901BLE68-01(48591DE3C19B)	-0.328	-1.649	0.068	-6.775	72.266	-296.814	-84.40	27.52	-27.56	-34.398	-44.002	72.422	-0.75757	0.39786	-0.41034	-0.31509	30.4	13111	100
2025-3-27 14:52:54.646	WT901BLE68-01(48591DE3C19B)	-0.316	-1.649	0.068	-6.775	72.266	-296.814	-84.97	24.54	-28.61	-34.398	-44.002	72.422	-0.75757	0.39786	-0.41034	-0.31509	30.4	13111	100
2025-3-27 14:52:54.646	WT901BLE68-01(48591DE3C19B)	-0.316	-1.826	0.044	-3.235	80.872	-303.955	-85.45	21.53	-29.66	-34.398	-44.002	72.422	-0.75757	0.39786	-0.41034	-0.31509	30.4	13111	100
2025-3-27 14:52:54.646	WT901BLE68-01(48591DE3C19B)	-0.418	-1.826	0.044	-3.235	80.872	-303.955	-85.86	18.51	-30.70	-34.398	-44.002	72.422	-0.75757	0.39786	-0.41034	-0.31509	30.4	13111	100
2025-3-27 14:52:54.646	WT901BLE68-01(48591DE3C19B)	-0.418	-1.934	0.042	12.268	92.407	-308.716	-86.15	15.47	-31.76	-34.398	-44.002	72.422	-0.75757	0.39786	-0.41034	-0.31509	30.4	13111	100
2025-3-27 14:52:54.678	WT901BLE68-01(48591DE3C19B)	-0.538	-1.934	0.042	12.268	92.407	-308.716	-86.32	12.43	-32.84	-34.398	-44.002	72.422	-0.75757	0.39786	-0.41034	-0.31509	30.4	13111	100
2025-3-27 14:52:54.678	WT901BLE68-01(48591DE3C19B)	-0.538	-1.875	0.076	27.527	93.384	-307.373	-86.34	9.42	-33.91	-34.398	-44.002	72.422	-0.75757	0.39786	-0.41034	-0.31509	30.4	13111	100
2025-3-27 14:52:54.678	WT901BLE68-01(48591DE3C19B)	-0.591	-1.875	0.076	27.527	93.384	-307.373	-86.24	6.43	-34.97	-34.398	-44.002	72.422	-0.75757	0.39786	-0.41034	-0.31509	30.4	13111	100
2025-3-27 14:52:54.678	WT901BLE68-01(48591DE3C19B)	-0.591	-1.747	0.125	35.767	86.548	-300.232	-86.03	3.51	-35.99	-34.398	-44.002	72.422	-0.75757	0.39786	-0.41034	-0.31509	30.4	13111	100
2025-3-27 14:52:54.737	WT901BLE68-01(48591DE3C19B)	-0.568	-1.747	0.125	35.767	86.548	-300.232	-85.73	0.64	-36.97	-34.398	-44.002	72.422	-0.75757	0.39786	-0.41034	-0.31509	30.4	13111	100
2025-3-27 14:52:54.737	WT901BLE68-01(48591DE3C19B)	-0.568	-1.621	0.154	38.696	83.252	-289.490	-85.37	-2.14	-37.95	-34.398	-44.002	72.422	-0.75757	0.39786	-0.41034	-0.31509	30.4	13111	100
2025-3-27 14:52:54.737	WT901BLE68-01(48591DE3C19B)	-0.558	-1.621	0.154	38.696	83.252	-289.490	-84.95	-4.85	-38.92	-34.398	-44.002	72.422	-0.75757	0.39786	-0.41034	-0.31509	30.4	13111	100
2025-3-27 14:52:54.737	WT901BLE68-01(48591DE3C19B)	-0.558	-1.521	0.146	37.231	86.670	-273.376	-84.48	-7.45	-39.92	-34.398	-44.002	72.422	-0.75757	0.39786	-0.41034	-0.31509	30.4	13111	100
2025-3-27 14:52:54.766	WT901BLE68-01(48591DE3C19B)	-0.554	-1.521	0.146	37.231	86.670	-273.376	-83.97	-9.94	-40.96	-34.398	-44.002	72.422	-0.75757	0.39786	-0.41034	-0.31509	30.4	13111	100
2025-3-27 14:52:54.766	WT901BLE68-01(48591DE3C19B)	-0.554	-1.469	0.117	35.339	96.252	-252.625	-83.41	-12.30	-42.06	-34.398	-44.002	72.422	-0.75757	0.39786	-0.41034	-0.31509	30.4	13111	100
2025-3-27 14:52:54.766	WT901BLE68-01(48591DE3C19B)	-0.557	-1.469	0.117	35.339	96.252	-252.625	-82.81	-14.52	-43.22	-34.398	-44.002	72.422	-0.75757	0.39786	-0.41034	-0.31509	30.4	13111	100
2025-3-27 14:52:54.766	WT901BLE68-01(48591DE3C19B)	-0.557	-1.439	0.088	35.583	113.708	-229.797	-82.13	-16.59	-44.49	-34.398	-44.002	72.422	-0.75757	0.39786	-0.41034	-0.31509	30.4	13111	100
2025-3-27 14:52:54.948	WT901BLE68-01(48591DE3C19B)	-0.637	-1.439	0.088	35.583	113.708	-229.797	-81.39	-18.50	-45.88	-34.398	-44.002	72.422	-0.75757	0.39786	-0.41034	-0.31509	30.4	13111	100
2025-3-27 14:52:54.948	WT901BLE68-01(48591DE3C19B)	-0.637	-1.392	0.070	38.940	128.540	-204.590	-80.55	-20.25	-47.36	-34.398	-44.002	72.422	-0.75757	0.39786	-0.41034	-0.31509	30.4	13111	100
2025-3-27 14:52:54.948	WT901BLE68-01(48591DE3C19B)	-0.706	-1.392	0.070	38.940	128.540	-204.590	-79.63	-21.82	-48.93	-34.398	-44.002	72.422	-0.63626	0.63248	-0.12799	0.42267	30.4	13111	100
2025-3-27 14:52:54.948	WT901BLE68-01(48591DE3C19B)	-0.706	-1.304	0.066	40.100	128.418	-177.063	-78.66	-23.23	-50.51	-34.398	-44.002	72.422	-0.63626	0.63248	-0.12799	0.42267	30.4	13111	100
2025-3-27 14:52:54.949	WT901BLE68-01(48591DE3C19B)	-0.712	-1.304	0.066	40.100	128.418	-177.063	-77.66	-24.46	-52.09	-34.398	-44.002	72.422	-0.63626	0.63248	-0.12799	0.42267	30.4	13111	100
2025-3-27 14:52:54.949	WT901BLE68-01(48591DE3C19B)	-0.712	-1.191	0.062	38.696	121.582	-149.292	-76.66	-25.52	-53.64	-34.398	-44.002	72.422	-0.63626	0.63248	-0.12799	0.42267	30.4	13111	100
2025-3-27 14:52:54.949	WT901BLE68-01(48591DE3C19B)	-0.721	-1.191	0.062	38.696	121.582	-149.292	-75.66	-26.43	-55.14	-34.398	-44.002	72.422	-0.63626	0.63248	-0.12799	0.42267	30.4	13111	100
2025-3-27 14:52:54.949	WT901BLE68-01(48591DE3C19B)	-0.721	-1.059	0.069	36.499	116.028	-121.521	-74.69	-27.17	-56.60	-34.398	-44.002	72.422	-0.63626	0.63248	-0.12799	0.42267	30.4	13111	100
2025-3-27 14:52:54.950	WT901BLE68-01(48591DE3C19B)	-0.726	-1.059	0.069	36.499	116.028	-121.521	-73.73	-27.76	-57.99	-34.398	-44.002	72.422	-0.63626	0.63248	-0.12799	0.42267	30.4	13111	100
2025-3-27 14:52:54.950	WT901BLE68-01(48591DE3C19B)	-0.726	-0.901	0.078	33.813	108.765	-94.482	-72.82	-28.20	-59.32	-34.398	-44.002	72.422	-0.63626	0.63248	-0.12799	0.42267	30.4	13111	100
2025-3-27 14:52:54.950	WT901BLE68-01(48591DE3C19B)	-0.715	-0.901	0.078	33.813	108.765	-94.482	-71.95	-28.50	-60.57	-34.398	-44.002	72.422	-0.63626	0.63248	-0.12799	0.42267	30.4	13111	100
2025-3-27 14:52:54.950	WT901BLE68-01(48591DE3C19B)	-0.357	-0.738	0.063	27.222	96.436	-70.313	-71.26	-28.58	-61.60	-34.398	-44.002	72.422	-0.63626	0.63248	-0.12799	0.42267	30.4	13111	100
2025-3-27 14:52:54.951	WT901BLE68-01(48591DE3C19B)	-0.723	-0.369	0.031	27.222	96.436	-70.313	-70.57	-28.65	-62.63	-34.398	-44.002	72.422	-0.63626	0.63248	-0.12799	0.42267	30.4	13111	100
2025-3-27 14:52:54.951	WT901BLE68-01(48591DE3C19B)	-0.723	-0.678	0.068	13.062	78.796	-46.814	-70.16	-28.54	-63.37	-34.398	-44.002	72.422	-0.63626	0.63248	-0.12799	0.42267	30.4	13111	100
2025-3-27 14:52:54.951	WT901BLE68-01(48591DE3C19B)	-0.753	-0.678	0.068	13.062	78.796	-46.814	-69.76	-28.42	-64.12	-34.398	-44.002	72.422	-0.63626	0.63248	-0.12799	0.42267	30.4	13111	100
2025-3-27 14:52:54.951	WT901BLE68-01(48591DE3C19B)	-0.753	-0.736	0.083	2.014	55.115	-28.625	-69.64	-28.20	-64.53	-34.398	-44.002	72.422	-0.63626	0.63248	-0.12799	0.42267	30.4	13111	100
2025-3-27 14:52:54.979	WT901BLE68-01(48591DE3C19B)	-0.758	-0.736	0.083	2.014	55.115	-28.625	-69.51	-27.98	-64.93	-34.398	-44.002	72.422	-0.63626	0.63248	-0.12799	0.42267	30.4	13111	100
2025-3-27 14:52:54.979	WT901BLE68-01(48591DE3C19B)	-0.758	-0.718	0.090	0.610	28.442	-16.785	-69.56	-27.73	-65.01	-34.398	-44.002	72.422	-0.63626	0.63248	-0.12799	0.42267	30.4	13111	100
2025-3-27 14:52:54.979	WT901BLE68-01(48591DE3C19B)	-0.764	-0.718	0.090	0.610	28.442	-16.785	-69.61	-27.49	-65.08	-34.398	-44.002	72.422	-0.63626	0.63248	-0.12799	0.42267	30.4	13111	100
2025-3-27 14:52:54.979	WT901BLE68-01(48591DE3C19B)	-0.764	-0.668	0.083	-6.958	6.104	-3.845	-69.87	-27.19	-64.87	-34.398	-44.002	72.422	-0.63626	0.63248	-0.12799	0.42267	30.4	13111	100
2025-3-27 14:52:55.9	WT901BLE68-01(48591DE3C19B)	-0.812	-0.668	0.083	-6.958	6.104	-3.845	-70.13	-26.89	-64.65	-64.092	-7.448	80.948	-0.63626	0.63248	-0.12799	0.42267	30.4	13111	100
2025-3-27 14:52:55.9	WT901BLE68-01(48591DE3C19B)	-0.812	-0.792	0.087	-22.827	-12.085	11.658	-70.65	-26.50	-64.19	-64.092	-7.448	80.948	-0.63626	0.63248	-0.12799	0.42267	30.4	13111	100
2025-3-27 14:52:55.9	WT901BLE68-01(48591DE3C19B)	-0.858	-0.792	0.087	-22.827	-12.085	11.658	-71.17	-26.11	-63.74	-64.092	-7.448	80.948	-0.63626	0.63248	-0.12799	0.42267	30.4	13111	100
2025-3-27 14:52:55.9	WT901BLE68-01(48591DE3C19B)	-0.858	-0.997	0.125	-27.771	-30.151	29.053	-71.84	-25.61	-63.04	-64.092	-7.448	80.948	-0.63626	0.63248	-0.12799	0.42267	30.4	13111	100
2025-3-27 14:52:55.38	WT901BLE68-01(48591DE3C19B)	-0.817	-0.997	0.125	-27.771	-30.151	29.053	-72.50	-25.10	-62.35	-64.092	-7.448	80.948	-0.63626	0.63248	-0.12799	0.42267	30.4	13111	100
2025-3-27 14:52:55.38	WT901BLE68-01(48591DE3C19B)	-0.817	-1.015	0.140	-30.212	-42.725	53.711	-73.25	-24.38	-61.47	-64.092	-7.448	80.948	-0.63626	0.63248	-0.12799	0.42267	30.4	13111	100
2025-3-27 14:52:55.38	WT901BLE68-01(48591DE3C19B)	-0.823	-1.015	0.140	-30.212	-42.725	53.711	-73.98	-23.66	-60.60	-64.092	-7.448	80.948	-0.63626	0.63248	-0.12799	0.42267	30.4	13111	100
2025-3-27 14:52:55.38	WT901BLE68-01(48591DE3C19B)	-0.823	-1.138	0.183	-45.471	-54.077	90.088	-74.93	-22.62	-59.53	-64.092	-7.448	80.948	-0.63626	0.63248	-0.12799	0.42267	30.4	13111	100
2025-3-27 14:52:55.97	WT901BLE68-01(48591DE3C19B)	-0.823	-1.138	0.183	-45.471	-54.077	90.088	-75.84	-21.57	-58.49	-64.092	-7.448	80.948	-0.63626	0.63248	-0.12799	0.42267	30.4	13111	100
2025-3-27 14:52:55.97	WT901BLE68-01(48591DE3C19B)	-0.823	-1.262	0.243	-47.791	-71.472	125.610	-76.83	-20.20	-57.22	-64.092	-7.448	80.948	-0.63626	0.63248	-0.12799	0.42267	30.4	13111	100
2025-3-27 14:52:55.97	WT901BLE68-01(48591DE3C19B)	-0.696	-1.262	0.243	-47.791	-71.472	125.610	-77.78	-18.83	-55.99	-64.092	-7.448	80.948	-0.63626	0.63248	-0.12799	0.42267	30.4	13111	100
2025-3-27 14:52:55.97	WT901BLE68-01(48591DE3C19B)	-0.696	-1.202	0.288	-44.006	-91.614	167.786	-78.72	-17.07	-54.50	-64.092	-7.448	80.948	-0.63626	0.63248	-0.12799	0.42267	30.4	13111	100
2025-3-27 14:52:55.158	WT901BLE68-01(48591DE3C19B)	-0.514	-1.202	0.288	-44.006	-91.614	167.786	-79.60	-15.31	-53.06	-64.092	-7.448	80.948	-0.63626	0.63248	-0.12799	0.42267	30.4	13111	100
2025-3-27 14:52:55.158	WT901BLE68-01(48591DE3C19B)	-0.514	-1.180	0.317	-47.729	-98.572	219.421	-80.49	-13.05	-51.51	-64.092	-7.448	80.948	-0.63626	0.63248	-0.12799	0.42267	30.4	13111	100
2025-3-27 14:52:55.158	WT901BLE68-01(48591DE3C19B)	-0.404	-1.180	0.317	-47.729	-98.572	219.421	-81.29	-10.78	-50.02	-64.092	-7.448	80.948	-0.63626	0.63248	-0.12799	0.42267	30.4	13111	100
2025-3-27 14:52:55.159	WT901BLE68-01(48591DE3C19B)	-0.404	-1.352	0.274	-60.669	-82.825	260.376	-82.13	-8.08	-48.67	-64.092	-7.448	80.948	-0.63626	0.63248	-0.12799	0.42267	30.4	13111	100
2025-3-27 14:52:55.159	WT901BLE68-01(48591DE3C19B)	-0.391	-1.352	0.274	-60.669	-82.825	260.376	-82.90	-5.39	-47.38	-64.092	-7.448	80.948	-0.63626	0.63248	-0.12799	0.42267	30.4	13111	100
2025-3-27 14:52:55.159	WT901BLE68-01(48591DE3C19B)	-0.391	-1.555	0.144	-60.120	-65.186	291.626	-83.58	-2.38	-46.27	-64.092	-7.448	80.948	-0.63626	0.63248	-0.12799	0.42267	30.4	13111	100
2025-3-27 14:52:55.160	WT901BLE68-01(48591DE3C19B)	-0.440	-1.555	0.144	-60.120	-65.186	291.626	-84.21	0.60	-45.21	-64.092	-7.448	80.948	-0.63626	0.63248	-0.12799	0.42267	30.4	13111	100
2025-3-27 14:52:55.160	WT901BLE68-01(48591DE3C19B)	-0.440	-1.719	0.020	-59.692	-67.627	311.157	-84.77	3.77	-44.14	-64.092	-7.448	80.948	-0.63626	0.63248	-0.12799	0.42267	30.4	13111	100
2025-3-27 14:52:55.217	WT901BLE68-01(48591DE3C19B)	-0.518	-1.719	0.020	-59.692	-67.627	311.157	-85.28	6.92	-43.10	-64.092	-7.448	80.948	-0.63626	0.63248	-0.12799	0.42267	30.4	13111	100
2025-3-27 14:52:55.217	WT901BLE68-01(48591DE3C19B)	-0.518	-1.939	0.005	-60.059	-91.736	314.575	-85.71	10.06	-41.84	-64.092	-7.448	80.948	-0.70337	0.60989	-0.30197	0.20496	30.4	13111	100
2025-3-27 14:52:55.217	WT901BLE68-01(48591DE3C19B)	-0.546	-1.939	0.005	-60.059	-91.736	314.575	-86.07	13.19	-40.58	-64.092	-7.448	80.948	-0.70337	0.60989	-0.30197	0.20496	30.4	13111	100
2025-3-27 14:52:55.217	WT901BLE68-01(48591DE3C19B)	-0.546	-2.141	0.077	-49.255	-127.991	306.030	-86.18	16.19	-38.97	-64.092	-7.448	80.948	-0.70337	0.60989	-0.30197	0.20496	30.4	13111	100
2025-3-27 14:52:55.245	WT901BLE68-01(48591DE3C19B)	-0.431	-2.141	0.077	-49.255	-127.991	306.030	-86.19	19.17	-37.34	-64.092	-7.448	80.948	-0.70337	0.60989	-0.30197	0.20496	30.4	13111	100
2025-3-27 14:52:55.246	WT901BLE68-01(48591DE3C19B)	-0.431	-2.150	0.175	-25.024	-145.935	292.664	-85.81	21.98	-35.49	-64.092	-7.448	80.948	-0.70337	0.60989	-0.30197	0.20496	30.4	13111	100
2025-3-27 14:52:55.246	WT901BLE68-01(48591DE3C19B)	-0.349	-2.150	0.175	-25.024	-145.935	292.664	-85.34	24.75	-33.60	-64.092	-7.448	80.948	-0.70337	0.60989	-0.30197	0.20496	30.4	13111	100
2025-3-27 14:52:55.246	WT901BLE68-01(48591DE3C19B)	-0.349	-1.959	0.221	-4.883	-134.766	282.959	-84.60	27.39	-31.76	-64.092	-7.448	80.948	-0.70337	0.60989	-0.30197	0.20496	30.4	13111	100
2025-3-27 14:52:55.278	WT901BLE68-01(48591DE3C19B)	-0.375	-1.959	0.221	-4.883	-134.766	282.959	-83.76	29.99	-29.85	-64.092	-7.448	80.948	-0.70337	0.60989	-0.30197	0.20496	30.4	13111	100
2025-3-27 14:52:55.279	WT901BLE68-01(48591DE3C19B)	-0.375	-1.786	0.199	2.930	-117.920	270.447	-82.83	32.44	-28.06	-64.092	-7.448	80.948	-0.70337	0.60989	-0.30197	0.20496	30.4	13111	100
2025-3-27 14:52:55.279	WT901BLE68-01(48591DE3C19B)	-0.378	-1.786	0.199	2.930	-117.920	270.447	-81.79	34.85	-26.17	-64.092	-7.448	80.948	-0.70337	0.60989	-0.30197	0.20496	30.4	13111	100
2025-3-27 14:52:55.279	WT901BLE68-01(48591DE3C19B)	-0.378	-1.659	0.145	5.188	-104.004	257.202	-80.72	37.11	-24.38	-64.092	-7.448	80.948	-0.70337	0.60989	-0.30197	0.20496	30.4	13111	100
2025-3-27 14:52:55.336	WT901BLE68-01(48591DE3C19B)	-0.311	-1.659	0.145	5.188	-104.004	257.202	-79.54	39.33	-22.49	-64.092	-7.448	80.948	-0.70337	0.60989	-0.30197	0.20496	30.4	13111	100
2025-3-27 14:52:55.336	WT901BLE68-01(48591DE3C19B)	-0.311	-1.530	0.084	8.179	-88.501	240.173	-78.37	41.35	-20.72	-64.092	-7.448	80.948	-0.70337	0.60989	-0.30197	0.20496	30.4	13111	100
2025-3-27 14:52:55.336	WT901BLE68-01(48591DE3C19B)	-0.279	-1.530	0.084	8.179	-88.501	240.173	-77.07	43.34	-18.85	-64.092	-7.448	80.948	-0.70337	0.60989	-0.30197	0.20496	30.4	13111	100
2025-3-27 14:52:55.336	WT901BLE68-01(48591DE3C19B)	-0.283	-1.371	0.046	10.437	-76.233	224.365	-75.79	45.16	-17.08	-64.092	-7.448	80.948	-0.70337	0.60989	-0.30197	0.20496	30.4	13111	100
2025-3-27 14:52:55.368	WT901BLE68-01(48591DE3C19B)	-0.283	-1.260	0.042	9.766	-76.538	210.571	-74.42	46.87	-15.22	-64.092	-7.448	80.948	-0.70337	0.60989	-0.30197	0.20496	30.4	13111	100
2025-3-27 14:52:55.369	WT901BLE68-01(48591DE3C19B)	-0.300	-1.260	0.042	9.766	-76.538	210.571	-72.96	48.48	-13.28	-64.092	-7.448	80.948	-0.70337	0.60989	-0.30197	0.20496	30.4	13111	100
2025-3-27 14:52:55.369	WT901BLE68-01(48591DE3C19B)	-0.300	-1.254	0.029	5.920	-84.229	195.496	-71.38	49.95	-11.20	-64.092	-7.448	80.948	-0.70337	0.60989	-0.30197	0.20496	30.4	13111	100
2025-3-27 14:52:55.369	WT901BLE68-01(48591DE3C19B)	-0.241	-1.254	0.029	5.920	-84.229	195.496	-69.69	51.30	-8.98	-64.092	-7.448	80.948	-0.70337	0.60989	-0.30197	0.20496	30.4	13111	100
2025-3-27 14:52:55.427	WT901BLE68-01(48591DE3C19B)	-0.241	-1.243	0.005	13.672	-93.140	181.396	-67.82	52.51	-6.62	-64.092	-7.448	80.948	-0.70337	0.60989	-0.30197	0.20496	30.4	13111	100
2025-3-27 14:52:55.427	WT901BLE68-01(48591DE3C19B)	-0.125	-1.243	0.005	13.672	-93.140	181.396	-65.79	53.59	-4.12	-21.168	-32.340	70.462	-0.70337	0.60989	-0.30197	0.20496	30.4	13111	100
2025-3-27 14:52:55.427	WT901BLE68-01(48591DE3C19B)	-0.125	-1.132	-0.008	25.940	-91.064	168.518	-63.62	54.55	-1.57	-21.168	-32.340	70.462	-0.70337	0.60989	-0.30197	0.20496	30.4	13111	100
2025-3-27 14:52:55.427	WT901BLE68-01(48591DE3C19B)	0.017	-1.132	-0.008	25.940	-91.064	168.518	-61.35	55.39	1.01	-21.168	-32.340	70.462	-0.70337	0.60989	-0.30197	0.20496	30.4	13111	100
2025-3-27 14:52:55.455	WT901BLE68-01(48591DE3C19B)	0.017	-1.006	-0.018	30.701	-75.378	154.053	-59.11	56.14	3.50	-21.168	-32.340	70.462	-0.70337	0.60989	-0.30197	0.20496	30.4	13111	100
2025-3-27 14:52:55.456	WT901BLE68-01(48591DE3C19B)	0.197	-1.006	-0.018	30.701	-75.378	154.053	-56.93	56.81	5.89	-21.168	-32.340	70.462	-0.70337	0.60989	-0.30197	0.20496	30.4	13111	100
2025-3-27 14:52:55.456	WT901BLE68-01(48591DE3C19B)	0.197	-0.886	-0.030	35.095	-41.992	138.489	-54.95	57.45	8.00	-21.168	-32.340	70.462	-0.70337	0.60989	-0.30197	0.20496	30.4	13111	100
2025-3-27 14:52:55.456	WT901BLE68-01(48591DE3C19B)	0.438	-0.886	-0.030	35.095	-41.992	138.489	-53.17	58.08	9.83	-21.168	-32.340	70.462	-0.70337	0.60989	-0.30197	0.20496	30.4	13111	100
2025-3-27 14:52:55.517	WT901BLE68-01(48591DE3C19B)	0.438	-0.728	-0.002	42.725	2.930	116.028	-51.71	58.73	11.23	-21.168	-32.340	70.462	-0.70337	0.60989	-0.30197	0.20496	30.4	13111	100
2025-3-27 14:52:55.517	WT901BLE68-01(48591DE3C19B)	0.417	-0.728	-0.002	42.725	2.930	116.028	-50.59	59.40	12.18	-21.168	-32.340	70.462	-0.70337	0.60989	-0.30197	0.20496	30.4	13111	100
2025-3-27 14:52:55.517	WT901BLE68-01(48591DE3C19B)	0.417	-0.583	0.135	39.734	47.607	92.529	-49.89	60.10	12.65	-21.168	-32.340	70.462	-0.70337	0.60989	-0.30197	0.20496	30.4	13111	100
2025-3-27 14:52:55.517	WT901BLE68-01(48591DE3C19B)	0.189	-0.583	0.135	39.734	47.607	92.529	-49.63	60.84	12.61	-21.168	-32.340	70.462	-0.70337	0.60989	-0.30197	0.20496	30.4	13111	100
2025-3-27 14:52:55.547	WT901BLE68-01(48591DE3C19B)	0.189	-0.670	0.184	2.869	71.167	57.190	-49.93	61.52	12.13	-21.168	-32.340	70.462	-0.70337	0.60989	-0.30197	0.20496	30.4	13111	100
2025-3-27 14:52:55.547	WT901BLE68-01(48591DE3C19B)	0.104	-0.670	0.184	2.869	71.167	57.190	-50.82	62.12	11.20	-21.168	-32.340	70.462	-0.70337	0.60989	-0.30197	0.20496	30.4	13111	100
2025-3-27 14:52:55.547	WT901BLE68-01(48591DE3C19B)	0.104	-0.869	0.183	-9.460	68.115	20.630	-52.00	62.56	10.00	-21.168	-32.340	70.462	-0.70337	0.60989	-0.30197	0.20496	30.4	13111	100
2025-3-27 14:52:55.547	WT901BLE68-01(48591DE3C19B)	0.095	-0.869	0.183	-9.460	68.115	20.630	-53.45	62.83	8.55	-21.168	-32.340	70.462	-0.70337	0.60989	-0.30197	0.20496	30.4	13111	100
2025-3-27 14:52:55.577	WT901BLE68-01(48591DE3C19B)	0.095	-0.914	0.127	-8.179	61.401	-11.841	-55.05	62.92	6.93	-21.168	-32.340	70.462	-0.70337	0.60989	-0.30197	0.20496	30.4	13111	100
2025-3-27 14:52:55.578	WT901BLE68-01(48591DE3C19B)	-0.005	-0.914	0.127	-8.179	61.401	-11.841	-56.76	62.84	5.17	-21.168	-32.340	70.462	-0.70337	0.60989	-0.30197	0.20496	30.4	13111	100
2025-3-27 14:52:55.578	WT901BLE68-01(48591DE3C19B)	-0.005	-0.988	0.046	-19.104	49.683	-43.823	-58.56	62.57	3.36	-21.168	-32.340	70.462	-0.70337	0.60989	-0.30197	0.20496	30.4	13111	100
2025-3-27 14:52:55.578	WT901BLE68-01(48591DE3C19B)	-0.077	-0.988	0.046	-19.104	49.683	-43.823	-60.42	62.11	1.54	-21.168	-32.340	70.462	-0.73627	0.43994	-0.43967	-0.26639	30.4	13111	100
2025-3-27 14:52:55.608	WT901BLE68-01(48591DE3C19B)	-0.077	-1.184	-0.041	-29.724	22.949	-79.956	-62.20	61.41	-0.14	-21.168	-32.340	70.462	-0.73627	0.43994	-0.43967	-0.26639	30.4	13111	100
2025-3-27 14:52:55.608	WT901BLE68-01(48591DE3C19B)	-0.085	-1.184	-0.041	-29.724	22.949	-79.956	-63.87	60.46	-1.64	-21.168	-32.340	70.462	-0.73627	0.43994	-0.43967	-0.26639	30.4	13111	100
2025-3-27 14:52:55.608	WT901BLE68-01(48591DE3C19B)	-0.085	-1.358	-0.077	-24.902	4.211	-113.403	-65.39	59.32	-3.00	-21.168	-32.340	70.462	-0.73627	0.43994	-0.43967	-0.26639	30.4	13111	100
2025-3-27 14:52:55.608	WT901BLE68-01(48591DE3C19B)	-0.110	-1.358	-0.077	-24.902	4.211	-113.403	-66.75	57.99	-4.21	-21.168	-32.340	70.462	-0.73627	0.43994	-0.43967	-0.26639	30.4	13111	100
2025-3-27 14:52:55.667	WT901BLE68-01(48591DE3C19B)	-0.110	-1.508	-0.091	-22.461	-3.540	-151.672	-68.04	56.45	-5.38	-21.168	-32.340	70.462	-0.73627	0.43994	-0.43967	-0.26639	30.4	13111	100
2025-3-27 14:52:55.667	WT901BLE68-01(48591DE3C19B)	-0.109	-1.508	-0.091	-22.461	-3.540	-151.672	-69.26	54.72	-6.49	-21.168	-32.340	70.462	-0.73627	0.43994	-0.43967	-0.26639	30.4	13111	100
2025-3-27 14:52:55.667	WT901BLE68-01(48591DE3C19B)	-0.109	-1.520	-0.003	-14.282	-2.930	-195.862	-70.42	52.78	-7.61	-21.168	-32.340	70.462	-0.73627	0.43994	-0.43967	-0.26639	30.4	13111	100
2025-3-27 14:52:55.667	WT901BLE68-01(48591DE3C19B)	-0.158	-1.520	-0.003	-14.282	-2.930	-195.862	-71.53	50.64	-8.72	-21.168	-32.340	70.462	-0.73627	0.43994	-0.43967	-0.26639	30.4	13111	100
2025-3-27 14:52:55.696	WT901BLE68-01(48591DE3C19B)	-0.158	-1.446	0.120	-22.278	4.700	-225.830	-72.64	48.37	-9.83	-21.168	-32.340	70.462	-0.73627	0.43994	-0.43967	-0.26639	30.4	13111	100
2025-3-27 14:52:55.696	WT901BLE68-01(48591DE3C19B)	-0.242	-1.446	0.120	-22.278	4.700	-225.830	-73.75	45.96	-10.94	-21.168	-32.340	70.462	-0.73627	0.43994	-0.43967	-0.26639	30.4	13111	100
2025-3-27 14:52:55.696	WT901BLE68-01(48591DE3C19B)	-0.242	-1.425	0.198	-35.889	23.010	-246.094	-74.91	43.48	-12.07	-21.168	-32.340	70.462	-0.73627	0.43994	-0.43967	-0.26639	30.4	13111	100
2025-3-27 14:52:55.696	WT901BLE68-01(48591DE3C19B)	-0.296	-1.425	0.198	-35.889	23.010	-246.094	-76.12	40.94	-13.23	-21.168	-32.340	70.462	-0.73627	0.43994	-0.43967	-0.26639	30.4	13111	100
2025-3-27 14:52:55.726	WT901BLE68-01(48591DE3C19B)	-0.296	-1.442	0.220	-37.659	51.636	-249.268	-77.33	38.40	-14.45	-21.168	-32.340	70.462	-0.73627	0.43994	-0.43967	-0.26639	30.4	13111	100
2025-3-27 14:52:55.727	WT901BLE68-01(48591DE3C19B)	-0.314	-1.442	0.220	-37.659	51.636	-249.268	-78.54	35.89	-15.73	-21.168	-32.340	70.462	-0.73627	0.43994	-0.43967	-0.26639	30.4	13111	100
2025-3-27 14:52:55.727	WT901BLE68-01(48591DE3C19B)	-0.314	-1.484	0.181	-33.630	83.923	-253.235	-79.71	33.38	-17.09	-21.168	-32.340	70.462	-0.73627	0.43994	-0.43967	-0.26639	30.4	13111	100
2025-3-27 14:52:55.727	WT901BLE68-01(48591DE3C19B)	-0.285	-1.484	0.181	-33.630	83.923	-253.235	-80.86	30.87	-18.53	-21.168	-32.340	70.462	-0.73627	0.43994	-0.43967	-0.26639	30.4	13111	100
2025-3-27 14:52:55.817	WT901BLE68-01(48591DE3C19B)	-0.285	-1.561	0.057	-26.001	105.164	-256.104	-81.92	28.36	-20.00	-21.168	-32.340	70.462	-0.73627	0.43994	-0.43967	-0.26639	30.4	13111	100
2025-3-27 14:52:55.817	WT901BLE68-01(48591DE3C19B)	-0.243	-1.561	0.057	-26.001	105.164	-256.104	-82.90	25.85	-21.48	-21.168	-32.340	70.462	-0.73627	0.43994	-0.43967	-0.26639	30.4	13111	100
2025-3-27 14:52:55.817	WT901BLE68-01(48591DE3C19B)	-0.243	-1.605	-0.033	-13.733	118.225	-257.874	-83.74	23.32	-22.97	-21.168	-32.340	70.462	-0.73627	0.43994	-0.43967	-0.26639	30.4	13111	100
2025-3-27 14:52:55.817	WT901BLE68-01(48591DE3C19B)	-0.298	-1.605	-0.033	-13.733	118.225	-257.874	-84.47	20.79	-24.45	-21.168	-32.340	70.462	-0.73627	0.43994	-0.43967	-0.26639	30.4	13111	100
2025-3-27 14:52:55.818	WT901BLE68-01(48591DE3C19B)	-0.298	-1.622	-0.067	-2.747	124.207	-261.841	-85.07	18.25	-25.91	-21.266	-20.776	73.892	-0.73627	0.43994	-0.43967	-0.26639	30.4	13111	100
2025-3-27 14:52:55.818	WT901BLE68-01(48591DE3C19B)	-0.424	-1.622	-0.067	-2.747	124.207	-261.841	-85.55	15.69	-27.34	-21.266	-20.776	73.892	-0.73627	0.43994	-0.43967	-0.26639	30.4	13111	100
2025-3-27 14:52:55.818	WT901BLE68-01(48591DE3C19B)	-0.424	-1.616	-0.044	7.080	120.117	-265.320	-85.90	13.12	-28.72	-21.266	-20.776	73.892	-0.73627	0.43994	-0.43967	-0.26639	30.4	13111	100
2025-3-27 14:52:55.819	WT901BLE68-01(48591DE3C19B)	-0.512	-1.616	-0.044	7.080	120.117	-265.320	-86.14	10.54	-30.05	-21.266	-20.776	73.892	-0.73627	0.43994	-0.43967	-0.26639	30.4	13111	100
2025-3-27 14:52:55.848	WT901BLE68-01(48591DE3C19B)	-0.512	-1.611	0.013	14.832	113.037	-267.029	-86.22	7.96	-31.28	-21.266	-20.776	73.892	-0.73627	0.43994	-0.43967	-0.26639	30.4	13111	100
2025-3-27 14:52:55.848	WT901BLE68-01(48591DE3C19B)	-0.538	-1.611	0.013	14.832	113.037	-267.029	-86.24	5.39	-32.50	-21.266	-20.776	73.892	-0.73627	0.43994	-0.43967	-0.26639	30.4	13111	100
2025-3-27 14:52:55.848	WT901BLE68-01(48591DE3C19B)	-0.538	-1.615	0.074	21.912	103.638	-266.479	-86.13	2.85	-33.63	-21.266	-20.776	73.892	-0.73627	0.43994	-0.43967	-0.26639	30.4	13111	100
2025-3-27 14:52:55.848	WT901BLE68-01(48591DE3C19B)	-0.521	-1.615	0.074	21.912	103.638	-266.479	-85.97	0.33	-34.76	-21.266	-20.776	73.892	-0.73627	0.43994	-0.43967	-0.26639	30.4	13111	100
2025-3-27 14:52:55.937	WT901BLE68-01(48591DE3C19B)	-0.521	-1.617	0.082	25.574	98.206	-265.137	-85.72	-2.15	-35.83	-21.266	-20.776	73.892	-0.73627	0.43994	-0.43967	-0.26639	30.4	13111	100
2025-3-27 14:52:55.937	WT901BLE68-01(48591DE3C19B)	-0.562	-1.617	0.082	25.574	98.206	-265.137	-85.42	-4.62	-36.93	-21.266	-20.776	73.892	-0.73627	0.43994	-0.43967	-0.26639	30.4	13111	100
2025-3-27 14:52:55.937	WT901BLE68-01(48591DE3C19B)	-0.562	-1.629	0.053	28.015	103.760	-260.010	-85.05	-7.00	-38.08	-21.266	-20.776	73.892	-0.73627	0.43994	-0.43967	-0.26639	30.4	13111	100
2025-3-27 14:52:55.937	WT901BLE68-01(48591DE3C19B)	-0.610	-1.629	0.053	28.015	103.760	-260.010	-84.63	-9.37	-39.27	-21.266	-20.776	73.892	-0.73627	0.43994	-0.43967	-0.26639	30.4	13111	100
2025-3-27 14:52:55.968	WT901BLE68-01(48591DE3C19B)	-0.610	-1.617	0.033	32.349	114.502	-251.648	-84.09	-11.61	-40.58	-21.266	-20.776	73.892	-0.73627	0.43994	-0.43967	-0.26639	30.4	13111	100
2025-3-27 14:52:55.968	WT901BLE68-01(48591DE3C19B)	-0.673	-1.617	0.033	32.349	114.502	-251.648	-83.50	-13.82	-41.92	-21.266	-20.776	73.892	-0.73627	0.43994	-0.43967	-0.26639	30.4	13111	100
2025-3-27 14:52:55.968	WT901BLE68-01(48591DE3C19B)	-0.673	-1.568	0.029	35.583	125.122	-238.831	-82.80	-15.86	-43.39	-21.266	-20.776	73.892	-0.73627	0.43994	-0.43967	-0.26639	30.4	13111	100
2025-3-27 14:52:55.968	WT901BLE68-01(48591DE3C19B)	-0.739	-1.568	0.029	35.583	125.122	-238.831	-82.04	-17.86	-44.90	-21.266	-20.776	73.892	-0.73627	0.43994	-0.43967	-0.26639	30.4	13111	100
2025-3-27 14:52:55.969	WT901BLE68-01(48591DE3C19B)	-0.739	-1.479	0.027	38.452	129.517	-218.994	-81.19	-19.63	-46.47	-21.266	-20.776	73.892	-0.73627	0.43994	-0.43967	-0.26639	30.4	13111	100
2025-3-27 14:52:55.969	WT901BLE68-01(48591DE3C19B)	-0.764	-1.479	0.027	38.452	129.517	-218.994	-80.28	-21.36	-48.09	-21.266	-20.776	73.892	-0.73627	0.43994	-0.43967	-0.26639	30.4	13111	100
2025-3-27 14:52:55.969	WT901BLE68-01(48591DE3C19B)	-0.764	-1.322	0.003	38.635	131.226	-192.505	-79.33	-22.79	-49.71	-21.266	-20.776	73.892	-0.73627	0.43994	-0.43967	-0.26639	30.4	13111	100
2025-3-27 14:52:55.969	WT901BLE68-01(48591DE3C19B)	-0.809	-1.322	0.003	38.635	131.226	-192.505	-78.33	-24.17	-51.38	-21.266	-20.776	73.892	-0.73627	0.43994	-0.43967	-0.26639	30.4	13111	100
2025-3-27 14:52:56.27	WT901BLE68-01(48591DE3C19B)	-0.809	-1.148	-0.006	34.790	135.071	-160.950	-77.34	-25.20	-53.05	-21.266	-20.776	73.892	-0.73627	0.43994	-0.43967	-0.26639	30.4	13111	100
2025-3-27 14:52:56.27	WT901BLE68-01(48591DE3C19B)	-0.820	-1.148	-0.006	34.790	135.071	-160.950	-76.32	-26.20	-54.75	-21.266	-20.776	73.892	-0.61365	0.61374	-0.11832	0.48236	30.4	13111	100
2025-3-27 14:52:56.27	WT901BLE68-01(48591DE3C19B)	-0.820	-0.969	0.038	33.203	122.314	-130.310	-75.38	-26.88	-56.26	-21.266	-20.776	73.892	-0.61365	0.61374	-0.11832	0.48236	30.4	13111	100
2025-3-27 14:52:56.27	WT901BLE68-01(48591DE3C19B)	-0.712	-0.969	0.038	33.203	122.314	-130.310	-74.43	-27.54	-57.78	-21.266	-20.776	73.892	-0.61365	0.61374	-0.11832	0.48236	30.4	13111	100
2025-3-27 14:52:56.55	WT901BLE68-01(48591DE3C19B)	-0.712	-0.804	0.124	29.480	91.675	-103.821	-73.68	-27.99	-58.91	-21.266	-20.776	73.892	-0.61365	0.61374	-0.11832	0.48236	30.4	13111	100
2025-3-27 14:52:56.55	WT901BLE68-01(48591DE3C19B)	-0.614	-0.804	0.124	29.480	91.675	-103.821	-72.93	-28.43	-60.04	-21.266	-20.776	73.892	-0.61365	0.61374	-0.11832	0.48236	30.4	13111	100
2025-3-27 14:52:56.56	WT901BLE68-01(48591DE3C19B)	-0.614	-0.709	0.191	19.287	62.622	-78.674	-72.45	-28.69	-60.78	-21.266	-20.776	73.892	-0.61365	0.61374	-0.11832	0.48236	30.4	13111	100
2025-3-27 14:52:56.56	WT901BLE68-01(48591DE3C19B)	-0.632	-0.709	0.191	19.287	62.622	-78.674	-71.98	-28.94	-61.52	-21.266	-20.776	73.892	-0.61365	0.61374	-0.11832	0.48236	30.4	13111	100
2025-3-27 14:52:56.86	WT901BLE68-01(48591DE3C19B)	-0.632	-0.711	0.176	6.653	54.504	-54.199	-71.71	-28.97	-62.09	-21.266	-20.776	73.892	-0.61365	0.61374	-0.11832	0.48236	30.4	13111	100
2025-3-27 14:52:56.86	WT901BLE68-01(48591DE3C19B)	-0.747	-0.711	0.176	6.653	54.504	-54.199	-71.44	-29.00	-62.67	-21.266	-20.776	73.892	-0.61365	0.61374	-0.11832	0.48236	30.4	13111	100
2025-3-27 14:52:56.86	WT901BLE68-01(48591DE3C19B)	-0.747	-0.727	0.161	5.615	56.091	-31.921	-71.21	-28.80	-63.17	-21.266	-20.776	73.892	-0.61365	0.61374	-0.11832	0.48236	30.4	13111	100
2025-3-27 14:52:56.86	WT901BLE68-01(48591DE3C19B)	-0.793	-0.727	0.161	5.615	56.091	-31.921	-70.98	-28.59	-63.67	-21.266	-20.776	73.892	-0.61365	0.61374	-0.11832	0.48236	30.4	13111	100
2025-3-27 14:52:56.209	WT901BLE68-01(48591DE3C19B)	-0.793	-0.720	0.145	-0.305	46.509	-17.639	-70.90	-28.28	-64.01	-21.266	-20.776	73.892	-0.61365	0.61374	-0.11832	0.48236	30.4	13111	100
2025-3-27 14:52:56.209	WT901BLE68-01(48591DE3C19B)	-0.797	-0.720	0.145	-0.305	46.509	-17.639	-70.82	-27.96	-64.34	-21.266	-20.776	73.892	-0.61365	0.61374	-0.11832	0.48236	30.4	13111	100
2025-3-27 14:52:56.209	WT901BLE68-01(48591DE3C19B)	-0.797	-0.772	0.108	-10.498	36.133	-0.610	-70.92	-27.51	-64.50	-21.266	-20.776	73.892	-0.61365	0.61374	-0.11832	0.48236	30.4	13111	100
2025-3-27 14:52:56.209	WT901BLE68-01(48591DE3C19B)	-0.866	-0.772	0.108	-10.498	36.133	-0.610	-71.03	-27.06	-64.66	-21.266	-20.776	73.892	-0.61365	0.61374	-0.11832	0.48236	30.4	13111	100
2025-3-27 14:52:56.210	WT901BLE68-01(48591DE3C19B)	-0.866	-0.940	0.093	-17.761	26.550	19.043	-71.28	-26.46	-64.64	-21.266	-20.776	73.892	-0.61365	0.61374	-0.11832	0.48236	30.4	13111	100
2025-3-27 14:52:56.210	WT901BLE68-01(48591DE3C19B)	-0.878	-0.940	0.093	-17.761	26.550	19.043	-71.54	-25.86	-64.63	-21.266	-20.776	73.892	-0.61365	0.61374	-0.11832	0.48236	30.4	13111	100
2025-3-27 14:52:56.210	WT901BLE68-01(48591DE3C19B)	-0.878	-0.986	0.123	-17.700	8.911	42.664	-71.92	-25.09	-64.35	-21.266	-20.776	73.892	-0.61365	0.61374	-0.11832	0.48236	30.4	13111	100
2025-3-27 14:52:56.210	WT901BLE68-01(48591DE3C19B)	-0.894	-0.986	0.123	-17.700	8.911	42.664	-72.28	-24.32	-64.08	-21.266	-20.776	73.892	-0.61365	0.61374	-0.11832	0.48236	30.4	13111	100
2025-3-27 14:52:56.236	WT901BLE68-01(48591DE3C19B)	-0.894	-1.040	0.188	-32.471	-23.987	73.425	-72.96	-23.36	-63.39	-21.266	-20.776	73.892	-0.61365	0.61374	-0.11832	0.48236	30.4	13111	100
2025-3-27 14:52:56.236	WT901BLE68-01(48591DE3C19B)	-0.897	-1.040	0.188	-32.471	-23.987	73.425	-73.62	-22.39	-62.70	-21.266	-20.776	73.892	-0.61365	0.61374	-0.11832	0.48236	30.4	13111	100
2025-3-27 14:52:56.236	WT901BLE68-01(48591DE3C19B)	-0.897	-1.220	0.242	-43.274	-60.486	104.736	-74.54	-21.22	-61.57	-21.266	-20.776	73.892	-0.61365	0.61374	-0.11832	0.48236	30.4	13111	100
2025-3-27 14:52:56.236	WT901BLE68-01(48591DE3C19B)	-0.770	-1.220	0.242	-43.274	-60.486	104.736	-75.42	-20.04	-60.48	-21.266	-20.776	73.892	-0.61365	0.61374	-0.11832	0.48236	30.4	13111	100
2025-3-27 14:52:56.266	WT901BLE68-01(48591DE3C19B)	-0.770	-1.174	0.243	-35.583	-81.970	137.146	-76.27	-18.60	-59.11	-21.266	-20.776	73.892	-0.61365	0.61374	-0.11832	0.48236	30.4	13111	100
2025-3-27 14:52:56.266	WT901BLE68-01(48591DE3C19B)	-0.601	-1.174	0.243	-35.583	-81.970	137.146	-77.09	-17.15	-57.78	-72.226	10.192	80.458	-0.61365	0.61374	-0.11832	0.48236	30.4	13111	100
2025-3-27 14:52:56.267	WT901BLE68-01(48591DE3C19B)	-0.601	-1.053	0.234	-40.588	-90.576	180.664	-77.94	-15.29	-56.31	-72.226	10.192	80.458	-0.61365	0.61374	-0.11832	0.48236	30.4	13111	100
2025-3-27 14:52:56.267	WT901BLE68-01(48591DE3C19B)	-0.548	-1.053	0.234	-40.588	-90.576	180.664	-78.74	-13.41	-54.88	-72.226	10.192	80.458	-0.61365	0.61374	-0.11832	0.48236	30.4	13111	100
2025-3-27 14:52:56.298	WT901BLE68-01(48591DE3C19B)	-0.559	-1.200	0.219	-52.490	-96.619	220.947	-79.62	-11.16	-53.36	-72.226	10.192	80.458	-0.61365	0.61374	-0.11832	0.48236	30.4	13111	100
2025-3-27 14:52:56.298	WT901BLE68-01(48591DE3C19B)	-0.559	-1.417	0.189	-55.603	-111.511	250.549	-80.46	-8.77	-51.79	-72.226	10.192	80.458	-0.61365	0.61374	-0.11832	0.48236	30.4	13111	100
2025-3-27 14:52:56.298	WT901BLE68-01(48591DE3C19B)	-0.522	-1.417	0.189	-55.603	-111.511	250.549	-81.24	-6.24	-50.17	-72.226	10.192	80.458	-0.61365	0.61374	-0.11832	0.48236	30.4	13111	100
2025-3-27 14:52:56.298	WT901BLE68-01(48591DE3C19B)	-0.522	-1.612	0.095	-60.974	-130.554	273.804	-81.99	-3.61	-48.49	-72.226	10.192	80.458	-0.61365	0.61374	-0.11832	0.48236	30.4	13111	100
2025-3-27 14:52:56.326	WT901BLE68-01(48591DE3C19B)	-0.470	-1.612	0.095	-60.974	-130.554	273.804	-82.69	-0.89	-46.74	-72.226	10.192	80.458	-0.61365	0.61374	-0.11832	0.48236	30.4	13111	100
2025-3-27 14:52:56.326	WT901BLE68-01(48591DE3C19B)	-0.470	-1.838	0.018	-55.908	-146.973	288.574	-83.28	1.88	-44.93	-72.226	10.192	80.458	-0.61365	0.61374	-0.11832	0.48236	30.4	13111	100
2025-3-27 14:52:56.326	WT901BLE68-01(48591DE3C19B)	-0.458	-1.838	0.018	-55.908	-146.973	288.574	-83.74	4.72	-43.07	-72.226	10.192	80.458	-0.61365	0.61374	-0.11832	0.48236	30.4	13111	100
2025-3-27 14:52:56.326	WT901BLE68-01(48591DE3C19B)	-0.458	-2.027	0.024	-41.382	-168.335	286.926	-84.05	7.52	-41.11	-72.226	10.192	80.458	-0.61365	0.61374	-0.11832	0.48236	30.4	13111	100
2025-3-27 14:52:56.387	WT901BLE68-01(48591DE3C19B)	-0.413	-2.027	0.024	-41.382	-168.335	286.926	-84.16	10.28	-39.05	-72.226	10.192	80.458	-0.61365	0.61374	-0.11832	0.48236	30.4	13111	100
2025-3-27 14:52:56.387	WT901BLE68-01(48591DE3C19B)	-0.413	-2.109	0.105	-20.935	-192.383	280.701	-84.06	12.98	-36.86	-72.226	10.192	80.458	-0.61365	0.61374	-0.11832	0.48236	30.4	13111	100
2025-3-27 14:52:56.387	WT901BLE68-01(48591DE3C19B)	-0.357	-2.109	0.105	-20.935	-192.383	280.701	-83.72	15.60	-34.52	-72.226	10.192	80.458	-0.61365	0.61374	-0.11832	0.48236	30.4	13111	100
2025-3-27 14:52:56.387	WT901BLE68-01(48591DE3C19B)	-0.357	-2.039	0.167	-0.366	-185.486	278.931	-83.17	18.17	-32.18	-72.226	10.192	80.458	-0.61365	0.61374	-0.11832	0.48236	30.4	13111	100
2025-3-27 14:52:56.419	WT901BLE68-01(48591DE3C19B)	-0.379	-2.039	0.167	-0.366	-185.486	278.931	-82.42	20.69	-29.81	-72.226	10.192	80.458	-0.74554	0.59152	-0.29730	0.07599	30.4	13111	100
2025-3-27 14:52:56.419	WT901BLE68-01(48591DE3C19B)	-0.379	-1.938	0.150	9.521	-158.630	274.597	-81.56	23.16	-27.52	-72.226	10.192	80.458	-0.74554	0.59152	-0.29730	0.07599	30.4	13111	100
2025-3-27 14:52:56.419	WT901BLE68-01(48591DE3C19B)	-0.346	-1.938	0.150	9.521	-158.630	274.597	-80.58	25.58	-25.30	-72.226	10.192	80.458	-0.74554	0.59152	-0.29730	0.07599	30.4	13111	100
2025-3-27 14:52:56.419	WT901BLE68-01(48591DE3C19B)	-0.346	-1.781	0.091	23.071	-131.714	266.846	-79.50	27.93	-23.14	-72.226	10.192	80.458	-0.74554	0.59152	-0.29730	0.07599	30.4	13111	100
2025-3-27 14:52:56.448	WT901BLE68-01(48591DE3C19B)	-0.284	-1.781	0.091	23.071	-131.714	266.846	-78.31	30.21	-21.06	-72.226	10.192	80.458	-0.74554	0.59152	-0.29730	0.07599	30.4	13111	100
2025-3-27 14:52:56.448	WT901BLE68-01(48591DE3C19B)	-0.284	-1.591	0.039	27.100	-104.309	255.493	-77.06	32.40	-19.03	-72.226	10.192	80.458	-0.74554	0.59152	-0.29730	0.07599	30.4	13111	100
2025-3-27 14:52:56.448	WT901BLE68-01(48591DE3C19B)	-0.278	-1.591	0.039	27.100	-104.309	255.493	-75.79	34.52	-17.09	-72.226	10.192	80.458	-0.74554	0.59152	-0.29730	0.07599	30.4	13111	100
2025-3-27 14:52:56.448	WT901BLE68-01(48591DE3C19B)	-0.278	-1.458	0.029	27.649	-82.031	240.906	-74.49	36.55	-15.20	-72.226	10.192	80.458	-0.74554	0.59152	-0.29730	0.07599	30.4	13111	100
2025-3-27 14:52:56.509	WT901BLE68-01(48591DE3C19B)	-0.340	-1.458	0.029	27.649	-82.031	240.906	-73.18	38.50	-13.36	-72.226	10.192	80.458	-0.74554	0.59152	-0.29730	0.07599	30.4	13111	100
2025-3-27 14:52:56.509	WT901BLE68-01(48591DE3C19B)	-0.340	-1.384	0.054	26.123	-73.792	227.173	-71.82	40.34	-11.50	-72.226	10.192	80.458	-0.74554	0.59152	-0.29730	0.07599	30.4	13111	100
2025-3-27 14:52:56.509	WT901BLE68-01(48591DE3C19B)	-0.366	-1.384	0.054	26.123	-73.792	227.173	-70.41	42.08	-9.62	-72.226	10.192	80.458	-0.74554	0.59152	-0.29730	0.07599	30.4	13111	100
2025-3-27 14:52:56.509	WT901BLE68-01(48591DE3C19B)	-0.366	-1.373	0.033	26.001	-86.487	211.121	-68.87	43.68	-7.59	-72.226	10.192	80.458	-0.74554	0.59152	-0.29730	0.07599	30.4	13111	100
2025-3-27 14:52:56.538	WT901BLE68-01(48591DE3C19B)	-0.263	-1.373	0.033	26.001	-86.487	211.121	-67.19	45.14	-5.42	-72.226	10.192	80.458	-0.74554	0.59152	-0.29730	0.07599	30.4	13111	100
2025-3-27 14:52:56.538	WT901BLE68-01(48591DE3C19B)	-0.263	-1.324	0.016	35.950	-99.548	196.533	-65.32	46.44	-3.09	-72.226	10.192	80.458	-0.74554	0.59152	-0.29730	0.07599	30.4	13111	100
2025-3-27 14:52:56.538	WT901BLE68-01(48591DE3C19B)	-0.106	-1.324	0.016	35.950	-99.548	196.533	-63.28	47.59	-0.61	-72.226	10.192	80.458	-0.74554	0.59152	-0.29730	0.07599	30.4	13111	100
2025-3-27 14:52:56.538	WT901BLE68-01(48591DE3C19B)	-0.106	-1.239	0.009	46.204	-99.365	182.495	-61.11	48.60	1.92	-72.226	10.192	80.458	-0.74554	0.59152	-0.29730	0.07599	30.4	13111	100
2025-3-27 14:52:56.568	WT901BLE68-01(48591DE3C19B)	0.207	-1.239	0.009	46.204	-99.365	182.495	-58.84	49.49	4.48	-72.226	10.192	80.458	-0.74554	0.59152	-0.29730	0.07599	30.4	13111	100
2025-3-27 14:52:56.568	WT901BLE68-01(48591DE3C19B)	0.207	-1.090	-0.050	53.650	-77.820	163.513	-56.63	50.27	6.90	-72.226	10.192	80.458	-0.74554	0.59152	-0.29730	0.07599	30.4	13111	100
2025-3-27 14:52:56.568	WT901BLE68-01(48591DE3C19B)	0.501	-1.090	-0.050	53.650	-77.820	163.513	-54.49	50.97	9.17	-72.226	10.192	80.458	-0.74554	0.59152	-0.29730	0.07599	30.4	13111	100
2025-3-27 14:52:56.569	WT901BLE68-01(48591DE3C19B)	0.501	-0.871	-0.074	63.110	-19.165	144.409	-52.61	51.71	11.01	-72.226	10.192	80.458	-0.74554	0.59152	-0.29730	0.07599	30.4	13111	100
2025-3-27 14:52:56.626	WT901BLE68-01(48591DE3C19B)	0.485	-0.871	-0.074	63.110	-19.165	144.409	-51.02	52.50	12.43	-72.226	10.192	80.458	-0.74554	0.59152	-0.29730	0.07599	30.4	13111	100
2025-3-27 14:52:56.626	WT901BLE68-01(48591DE3C19B)	0.485	-0.676	0.032	66.589	52.246	122.253	-49.83	53.40	13.29	-10.486	-34.594	64.582	-0.74554	0.59152	-0.29730	0.07599	30.4	13111	100
2025-3-27 14:52:56.626	WT901BLE68-01(48591DE3C19B)	0.204	-0.676	0.032	66.589	52.246	122.253	-49.06	54.42	13.61	-10.486	-34.594	64.582	-0.74554	0.59152	-0.29730	0.07599	30.4	13111	100
2025-3-27 14:52:56.626	WT901BLE68-01(48591DE3C19B)	0.204	-0.654	0.127	44.006	98.267	97.656	-48.76	55.49	13.48	-10.486	-34.594	64.582	-0.74554	0.59152	-0.29730	0.07599	30.4	13111	100
2025-3-27 14:52:56.656	WT901BLE68-01(48591DE3C19B)	0.046	-0.654	0.127	44.006	98.267	97.656	-48.95	56.61	12.89	-10.486	-34.594	64.582	-0.74554	0.59152	-0.29730	0.07599	30.4	13111	100
2025-3-27 14:52:56.657	WT901BLE68-01(48591DE3C19B)	0.046	-0.730	0.190	30.212	106.628	67.749	-49.43	57.62	12.03	-10.486	-34.594	64.582	-0.74554	0.59152	-0.29730	0.07599	30.4	13111	100
2025-3-27 14:52:56.657	WT901BLE68-01(48591DE3C19B)	-0.021	-0.730	0.190	30.212	106.628	67.749	-50.22	58.55	10.89	-10.486	-34.594	64.582	-0.74554	0.59152	-0.29730	0.07599	30.4	13111	100
2025-3-27 14:52:56.657	WT901BLE68-01(48591DE3C19B)	-0.021	-0.773	0.205	18.005	99.121	41.016	-51.22	59.32	9.58	-10.486	-34.594	64.582	-0.74554	0.59152	-0.29730	0.07599	30.4	13111	100
2025-3-27 14:52:56.685	WT901BLE68-01(48591DE3C19B)	-0.058	-0.773	0.205	18.005	99.121	41.016	-52.40	59.96	8.12	-10.486	-34.594	64.582	-0.74554	0.59152	-0.29730	0.07599	30.4	13111	100
2025-3-27 14:52:56.685	WT901BLE68-01(48591DE3C19B)	-0.058	-0.909	0.154	3.418	69.946	12.390	-53.64	60.37	6.70	-10.486	-34.594	64.582	-0.74554	0.59152	-0.29730	0.07599	30.4	13111	100
2025-3-27 14:52:56.685	WT901BLE68-01(48591DE3C19B)	-0.057	-0.909	0.154	3.418	69.946	12.390	-54.90	60.57	5.31	-10.486	-34.594	64.582	-0.74554	0.59152	-0.29730	0.07599	30.4	13111	100
2025-3-27 14:52:56.685	WT901BLE68-01(48591DE3C19B)	-0.057	-1.008	0.080	1.282	31.250	-10.193	-56.01	60.55	4.12	-10.486	-34.594	64.582	-0.74554	0.59152	-0.29730	0.07599	30.4	13111	100
2025-3-27 14:52:56.746	WT901BLE68-01(48591DE3C19B)	-0.048	-1.008	0.080	1.282	31.250	-10.193	-56.94	60.31	3.14	-10.486	-34.594	64.582	-0.74554	0.59152	-0.29730	0.07599	30.4	13111	100
2025-3-27 14:52:56.747	WT901BLE68-01(48591DE3C19B)	-0.048	-1.088	0.021	-9.949	2.930	-31.189	-57.79	59.92	2.31	-10.486	-34.594	64.582	-0.74554	0.59152	-0.29730	0.07599	30.4	13111	100
2025-3-27 14:52:56.747	WT901BLE68-01(48591DE3C19B)	-0.028	-1.088	0.021	-9.949	2.930	-31.189	-58.57	59.36	1.64	-10.486	-34.594	64.582	-0.74554	0.59152	-0.29730	0.07599	30.4	13111	100
2025-3-27 14:52:56.747	WT901BLE68-01(48591DE3C19B)	-0.028	-1.230	-0.015	-17.090	-9.277	-57.922	-59.44	58.50	0.94	-10.486	-34.594	64.582	-0.74554	0.59152	-0.29730	0.07599	30.4	13111	100
2025-3-27 14:52:56.779	WT901BLE68-01(48591DE3C19B)	-0.032	-1.230	-0.015	-17.090	-9.277	-57.922	-60.27	57.65	0.27	-10.486	-34.594	64.582	-0.74554	0.59152	-0.29730	0.07599	30.4	13111	100
2025-3-27 14:52:56.779	WT901BLE68-01(48591DE3C19B)	-0.032	-1.260	0.009	-10.864	-15.564	-87.097	-61.13	56.51	-0.49	-10.486	-34.594	64.582	-0.74554	0.59152	-0.29730	0.07599	30.4	13111	100
2025-3-27 14:52:56.779	WT901BLE68-01(48591DE3C19B)	-0.028	-1.260	0.009	-10.864	-15.564	-87.097	-61.94	55.38	-1.21	-10.486	-34.594	64.582	-0.74554	0.59152	-0.29730	0.07599	30.4	13111	100
2025-3-27 14:52:56.779	WT901BLE68-01(48591DE3C19B)	-0.028	-1.321	-0.021	-28.564	-6.104	-125.061	-63.23	53.94	-2.32	-10.486	-34.594	64.582	-0.74554	0.59152	-0.29730	0.07599	30.4	13111	100
2025-3-27 14:52:56.837	WT901BLE68-01(48591DE3C19B)	-0.108	-1.321	-0.021	-28.564	-6.104	-125.061	-64.42	52.51	-3.32	-10.486	-34.594	64.582	-0.74554	0.59152	-0.29730	0.07599	30.4	13111	100
2025-3-27 14:52:56.837	WT901BLE68-01(48591DE3C19B)	-0.108	-1.412	-0.019	-32.471	23.376	-167.175	-66.12	50.81	-4.94	-10.486	-34.594	64.582	-0.74554	0.59152	-0.29730	0.07599	30.4	13111	100
2025-3-27 14:52:56.837	WT901BLE68-01(48591DE3C19B)	-0.280	-1.412	-0.019	-32.471	23.376	-167.175	-67.68	49.09	-6.41	-10.486	-34.594	64.582	-0.76724	0.48645	-0.37283	-0.18872	30.4	13111	100
2025-3-27 14:52:56.837	WT901BLE68-01(48591DE3C19B)	-0.280	-1.362	0.081	-33.752	44.983	-209.778	-69.50	47.04	-8.27	-10.486	-34.594	64.582	-0.76724	0.48645	-0.37283	-0.18872	30.4	13111	100
2025-3-27 14:52:56.865	WT901BLE68-01(48591DE3C19B)	-0.333	-1.362	0.081	-33.752	44.983	-209.778	-71.15	44.97	-9.95	-10.486	-34.594	64.582	-0.76724	0.48645	-0.37283	-0.18872	30.4	13111	100
2025-3-27 14:52:56.865	WT901BLE68-01(48591DE3C19B)	-0.333	-1.317	0.199	-40.161	60.913	-238.708	-72.92	42.67	-11.79	-10.486	-34.594	64.582	-0.76724	0.48645	-0.37283	-0.18872	30.4	13111	100
2025-3-27 14:52:56.866	WT901BLE68-01(48591DE3C19B)	-0.371	-1.317	0.199	-40.161	60.913	-238.708	-74.51	40.33	-13.46	-10.486	-34.594	64.582	-0.76724	0.48645	-0.37283	-0.18872	30.4	13111	100
2025-3-27 14:52:56.866	WT901BLE68-01(48591DE3C19B)	-0.371	-1.303	0.258	-35.522	76.965	-253.296	-76.06	37.89	-15.23	-10.486	-34.594	64.582	-0.76724	0.48645	-0.37283	-0.18872	30.4	13111	100
2025-3-27 14:52:56.900	WT901BLE68-01(48591DE3C19B)	-0.407	-1.303	0.258	-35.522	76.965	-253.296	-77.45	35.43	-16.84	-10.486	-34.594	64.582	-0.76724	0.48645	-0.37283	-0.18872	30.4	13111	100
2025-3-27 14:52:56.900	WT901BLE68-01(48591DE3C19B)	-0.407	-1.292	0.218	-29.419	79.529	-265.015	-78.67	32.84	-18.37	-10.486	-34.594	64.582	-0.76724	0.48645	-0.37283	-0.18872	30.4	13111	100
2025-3-27 14:52:56.900	WT901BLE68-01(48591DE3C19B)	-0.347	-1.292	0.218	-29.419	79.529	-265.015	-79.77	30.26	-19.80	-10.486	-34.594	64.582	-0.76724	0.48645	-0.37283	-0.18872	30.4	13111	100
2025-3-27 14:52:56.900	WT901BLE68-01(48591DE3C19B)	-0.347	-1.364	0.116	-24.292	61.218	-273.193	-80.61	27.56	-20.94	-10.486	-34.594	64.582	-0.76724	0.48645	-0.37283	-0.18872	30.4	13111	100
2025-3-27 14:52:56.956	WT901BLE68-01(48591DE3C19B)	-0.221	-1.364	0.116	-24.292	61.218	-273.193	-81.37	24.87	-22.01	-10.486	-34.594	64.582	-0.76724	0.48645	-0.37283	-0.18872	30.4	13111	100
2025-3-27 14:52:56.956	WT901BLE68-01(48591DE3C19B)	-0.221	-1.483	0.040	-17.090	54.810	-279.114	-81.96	22.11	-22.96	-10.486	-34.594	64.582	-0.76724	0.48645	-0.37283	-0.18872	30.4	13111	100
2025-3-27 14:52:56.957	WT901BLE68-01(48591DE3C19B)	-0.238	-1.483	0.040	-17.090	54.810	-279.114	-82.49	19.36	-23.86	-10.486	-34.594	64.582	-0.76724	0.48645	-0.37283	-0.18872	30.4	13111	100
2025-3-27 14:52:56.957	WT901BLE68-01(48591DE3C19B)	-0.238	-1.589	-0.006	-6.836	66.040	-282.166	-82.90	16.60	-24.83	-10.486	-34.594	64.582	-0.76724	0.48645	-0.37283	-0.18872	30.4	13111	100
2025-3-27 14:52:56.988	WT901BLE68-01(48591DE3C19B)	-0.311	-1.589	-0.006	-6.836	66.040	-282.166	-83.25	13.85	-25.78	-10.486	-34.594	64.582	-0.76724	0.48645	-0.37283	-0.18872	30.4	13111	100
2025-3-27 14:52:56.988	WT901BLE68-01(48591DE3C19B)	-0.311	-1.661	0.000	-0.977	81.177	-284.302	-83.53	11.10	-26.86	-10.486	-34.594	64.582	-0.76724	0.48645	-0.37283	-0.18872	30.4	13111	100
2025-3-27 14:52:56.988	WT901BLE68-01(48591DE3C19B)	-0.393	-1.661	0.000	-0.977	81.177	-284.302	-83.75	8.37	-27.92	-10.486	-34.594	64.582	-0.76724	0.48645	-0.37283	-0.18872	30.4	13111	100
2025-3-27 14:52:56.988	WT901BLE68-01(48591DE3C19B)	-0.393	-1.725	0.059	1.831	101.257	-285.095	-83.92	5.66	-29.15	-10.486	-34.594	64.582	-0.76724	0.48645	-0.37283	-0.18872	30.4	13111	100
2025-3-27 14:52:57.18	WT901BLE68-01(48591DE3C19B)	-0.436	-1.725	0.059	1.831	101.257	-285.095	-84.02	2.98	-30.38	-10.486	-34.594	64.582	-0.76724	0.48645	-0.37283	-0.18872	30.4	13111	100
2025-3-27 14:52:57.18	WT901BLE68-01(48591DE3C19B)	-0.436	-1.760	0.124	5.493	122.192	-283.813	-84.04	0.34	-31.80	-10.486	-34.594	64.582	-0.76724	0.48645	-0.37283	-0.18872	30.4	13111	100
2025-3-27 14:52:57.18	WT901BLE68-01(48591DE3C19B)	-0.497	-1.760	0.124	5.493	122.192	-283.813	-83.98	-2.28	-33.22	-30.968	-2.548	83.006	-0.76724	0.48645	-0.37283	-0.18872	30.4	13111	100
2025-3-27 14:52:57.19	WT901BLE68-01(48591DE3C19B)	-0.497	-1.760	0.179	13.184	141.174	-277.893	-83.78	-4.80	-34.83	-30.968	-2.548	83.006	-0.76724	0.48645	-0.37283	-0.18872	30.4	13111	100
2025-3-27 14:52:57.77	WT901BLE68-01(48591DE3C19B)	-0.609	-1.760	0.179	13.184	141.174	-277.893	-83.50	-7.29	-36.46	-30.968	-2.548	83.006	-0.76724	0.48645	-0.37283	-0.18872	30.4	13111	100
2025-3-27 14:52:57.78	WT901BLE68-01(48591DE3C19B)	-0.609	-1.712	0.160	19.409	147.339	-268.555	-83.07	-9.66	-38.16	-30.968	-2.548	83.006	-0.76724	0.48645	-0.37283	-0.18872	30.4	13111	100
2025-3-27 14:52:57.78	WT901BLE68-01(48591DE3C19B)	-0.657	-1.712	0.160	19.409	147.339	-268.555	-82.58	-12.00	-39.89	-30.968	-2.548	83.006	-0.76724	0.48645	-0.37283	-0.18872	30.4	13111	100
2025-3-27 14:52:57.78	WT901BLE68-01(48591DE3C19B)	-0.657	-1.624	0.093	25.757	142.334	-255.310	-81.96	-14.18	-41.58	-30.968	-2.548	83.006	-0.76724	0.48645	-0.37283	-0.18872	30.4	13111	100
