time	DeviceName	AccX(g)	AccY(g)	AccZ(g)	AsX(°/s)	AsY(°/s)	AsZ(°/s)	AngleX(°)	AngleY(°)	AngleZ(°)	HX(uT)	HY(uT)	HZ(uT)	Q0()	Q1()	Q2()	Q3()	Temperature(°C)	Version()	Battery level(%)
2025-3-27 14:46:43.501	WT901BLE68-01(48591DE3C19B)	-0.273	-0.927	0.294	4.211	5.981	1.465	-74.21	15.74	-19.50	-19.698	-42.924	44.198	-0.79095	0.57156	-0.21054	0.05722	29.7	13111	100
2025-3-27 14:46:43.501	WT901BLE68-01(48591DE3C19B)	-0.273	-0.923	0.292	4.456	7.202	1.282	-74.17	15.78	-19.49	-19.698	-42.924	44.198	-0.79095	0.57156	-0.21054	0.05722	29.7	13111	100
2025-3-27 14:46:43.501	WT901BLE68-01(48591DE3C19B)	-0.277	-0.923	0.292	4.456	7.202	1.282	-74.14	15.81	-19.48	-19.698	-42.924	44.198	-0.79095	0.57156	-0.21054	0.05722	29.7	13111	100
2025-3-27 14:46:43.501	WT901BLE68-01(48591DE3C19B)	-0.277	-0.927	0.295	4.395	8.118	0.977	-74.11	15.85	-19.49	-19.698	-42.924	44.198	-0.79095	0.57156	-0.21054	0.05722	29.7	13111	100
2025-3-27 14:46:43.531	WT901BLE68-01(48591DE3C19B)	-0.280	-0.927	0.295	4.395	8.118	0.977	-74.08	15.89	-19.49	-19.698	-42.924	44.198	-0.79095	0.57156	-0.21054	0.05722	29.7	13111	100
2025-3-27 14:46:43.531	WT901BLE68-01(48591DE3C19B)	-0.280	-0.923	0.300	5.005	8.179	0.793	-74.04	15.92	-19.50	-19.698	-42.924	44.198	-0.79349	0.56876	-0.21005	0.05170	29.7	13111	100
2025-3-27 14:46:43.531	WT901BLE68-01(48591DE3C19B)	-0.276	-0.923	0.300	5.005	8.179	0.793	-74.00	15.95	-19.50	-19.698	-42.924	44.198	-0.79349	0.56876	-0.21005	0.05170	29.7	13111	100
2025-3-27 14:46:43.531	WT901BLE68-01(48591DE3C19B)	-0.276	-0.910	0.294	4.761	7.874	0.793	-73.96	15.98	-19.51	-19.698	-42.924	44.198	-0.79349	0.56876	-0.21005	0.05170	29.7	13111	100
2025-3-27 14:46:43.561	WT901BLE68-01(48591DE3C19B)	-0.274	-0.910	0.294	4.761	7.874	0.793	-73.93	16.01	-19.51	-19.698	-42.924	44.198	-0.79349	0.56876	-0.21005	0.05170	29.7	13111	100
2025-3-27 14:46:43.561	WT901BLE68-01(48591DE3C19B)	-0.274	-0.915	0.288	4.761	7.690	0.305	-73.89	16.04	-19.51	-19.698	-42.924	44.198	-0.79349	0.56876	-0.21005	0.05170	29.7	13111	100
2025-3-27 14:46:43.562	WT901BLE68-01(48591DE3C19B)	-0.282	-0.915	0.288	4.761	7.690	0.305	-73.85	16.06	-19.52	-19.698	-42.924	44.198	-0.79349	0.56876	-0.21005	0.05170	29.7	13111	100
2025-3-27 14:46:43.562	WT901BLE68-01(48591DE3C19B)	-0.282	-0.912	0.291	5.066	6.653	-0.488	-73.81	16.08	-19.51	-19.698	-42.924	44.198	-0.79349	0.56876	-0.21005	0.05170	29.7	13111	100
2025-3-27 14:46:43.593	WT901BLE68-01(48591DE3C19B)	-0.282	-0.912	0.291	5.066	6.653	-0.488	-73.77	16.09	-19.51	-19.698	-42.924	44.198	-0.79349	0.56876	-0.21005	0.05170	29.7	13111	100
2025-3-27 14:46:43.593	WT901BLE68-01(48591DE3C19B)	-0.282	-0.908	0.296	4.639	4.700	-1.221	-73.73	16.09	-19.48	-19.698	-42.924	44.198	-0.79349	0.56876	-0.21005	0.05170	29.7	13111	100
2025-3-27 14:46:43.593	WT901BLE68-01(48591DE3C19B)	-0.279	-0.908	0.296	4.639	4.700	-1.221	-73.69	16.10	-19.46	-19.698	-42.924	44.198	-0.79349	0.56876	-0.21005	0.05170	29.7	13111	100
2025-3-27 14:46:43.593	WT901BLE68-01(48591DE3C19B)	-0.279	-0.909	0.295	4.517	3.601	-2.014	-73.65	16.09	-19.42	-19.698	-42.924	44.198	-0.79349	0.56876	-0.21005	0.05170	29.7	13111	100
2025-3-27 14:46:43.653	WT901BLE68-01(48591DE3C19B)	-0.275	-0.909	0.295	4.517	3.601	-2.014	-73.60	16.08	-19.39	-19.698	-42.924	44.198	-0.79349	0.56876	-0.21005	0.05170	29.7	13111	100
2025-3-27 14:46:43.653	WT901BLE68-01(48591DE3C19B)	-0.275	-0.903	0.294	4.272	3.235	-2.625	-73.56	16.07	-19.36	-19.698	-42.924	44.198	-0.79349	0.56876	-0.21005	0.05170	29.7	13111	100
2025-3-27 14:46:43.653	WT901BLE68-01(48591DE3C19B)	-0.270	-0.903	0.294	4.272	3.235	-2.625	-73.53	16.06	-19.32	-19.698	-42.924	44.198	-0.79349	0.56876	-0.21005	0.05170	29.7	13111	100
2025-3-27 14:46:43.653	WT901BLE68-01(48591DE3C19B)	-0.270	-0.900	0.290	3.723	3.601	-2.930	-73.49	16.04	-19.30	-19.698	-42.924	44.198	-0.79349	0.56876	-0.21005	0.05170	29.7	13111	100
2025-3-27 14:46:43.683	WT901BLE68-01(48591DE3C19B)	-0.277	-0.900	0.290	3.723	3.601	-2.930	-73.46	16.02	-19.27	-19.698	-42.924	44.198	-0.79349	0.56876	-0.21005	0.05170	29.7	13111	100
2025-3-27 14:46:43.684	WT901BLE68-01(48591DE3C19B)	-0.277	-0.903	0.285	3.479	3.662	-3.479	-73.43	16.00	-19.24	-19.698	-42.924	44.198	-0.79349	0.56876	-0.21005	0.05170	29.7	13111	100
2025-3-27 14:46:43.684	WT901BLE68-01(48591DE3C19B)	-0.288	-0.903	0.285	3.479	3.662	-3.479	-73.40	15.98	-19.22	-19.698	-42.924	44.198	-0.79349	0.56876	-0.21005	0.05170	29.7	13111	100
2025-3-27 14:46:43.684	WT901BLE68-01(48591DE3C19B)	-0.292	-0.906	0.288	2.808	2.136	-4.150	-73.38	15.95	-19.18	-19.894	-42.630	46.354	-0.79349	0.56876	-0.21005	0.05170	29.7	13111	100
2025-3-27 14:46:43.713	WT901BLE68-01(48591DE3C19B)	-0.292	-0.914	0.289	2.197	-0.244	-4.517	-73.35	15.91	-19.13	-19.894	-42.630	46.354	-0.79349	0.56876	-0.21005	0.05170	29.7	13111	100
2025-3-27 14:46:43.713	WT901BLE68-01(48591DE3C19B)	-0.282	-0.914	0.289	2.197	-0.244	-4.517	-73.32	15.88	-19.06	-19.894	-42.630	46.354	-0.79349	0.56876	-0.21005	0.05170	29.7	13111	100
2025-3-27 14:46:43.713	WT901BLE68-01(48591DE3C19B)	-0.282	-0.914	0.290	1.770	-1.587	-4.578	-73.30	15.83	-18.99	-19.894	-42.630	46.354	-0.79349	0.56876	-0.21005	0.05170	29.7	13111	100
2025-3-27 14:46:43.713	WT901BLE68-01(48591DE3C19B)	-0.271	-0.914	0.290	1.770	-1.587	-4.578	-73.28	15.79	-18.92	-19.894	-42.630	46.354	-0.79349	0.56876	-0.21005	0.05170	29.7	13111	100
2025-3-27 14:46:43.772	WT901BLE68-01(48591DE3C19B)	-0.271	-0.914	0.287	1.587	-0.305	-4.333	-73.26	15.74	-18.85	-19.894	-42.630	46.354	-0.79349	0.56876	-0.21005	0.05170	29.7	13111	100
2025-3-27 14:46:43.772	WT901BLE68-01(48591DE3C19B)	-0.272	-0.914	0.287	1.587	-0.305	-4.333	-73.23	15.71	-18.79	-19.894	-42.630	46.354	-0.79349	0.56876	-0.21005	0.05170	29.7	13111	100
2025-3-27 14:46:43.772	WT901BLE68-01(48591DE3C19B)	-0.272	-0.917	0.281	1.587	1.953	-4.150	-73.22	15.67	-18.74	-19.894	-42.630	46.354	-0.79349	0.56876	-0.21005	0.05170	29.7	13111	100
2025-3-27 14:46:43.772	WT901BLE68-01(48591DE3C19B)	-0.284	-0.917	0.281	1.587	1.953	-4.150	-73.21	15.64	-18.69	-19.894	-42.630	46.354	-0.79349	0.56876	-0.21005	0.05170	29.7	13111	100
2025-3-27 14:46:43.800	WT901BLE68-01(48591DE3C19B)	-0.284	-0.920	0.284	1.587	2.563	-4.150	-73.20	15.62	-18.66	-19.894	-42.630	46.354	-0.79349	0.56876	-0.21005	0.05170	29.7	13111	100
2025-3-27 14:46:43.801	WT901BLE68-01(48591DE3C19B)	-0.296	-0.920	0.284	1.587	2.563	-4.150	-73.19	15.58	-18.63	-19.894	-42.630	46.354	-0.79349	0.56876	-0.21005	0.05170	29.7	13111	100
2025-3-27 14:46:43.801	WT901BLE68-01(48591DE3C19B)	-0.296	-0.916	0.291	0.977	0.366	-4.150	-73.18	15.56	-18.58	-19.894	-42.630	46.354	-0.79349	0.56876	-0.21005	0.05170	29.7	13111	100
2025-3-27 14:46:43.801	WT901BLE68-01(48591DE3C19B)	-0.289	-0.916	0.291	0.977	0.366	-4.150	-73.17	15.52	-18.53	-19.894	-42.630	46.354	-0.79349	0.56876	-0.21005	0.05170	29.7	13111	100
2025-3-27 14:46:43.831	WT901BLE68-01(48591DE3C19B)	-0.289	-0.909	0.295	-0.183	-2.319	-3.906	-73.16	15.49	-18.46	-19.894	-42.630	46.354	-0.79349	0.56876	-0.21005	0.05170	29.7	13111	100
2025-3-27 14:46:43.832	WT901BLE68-01(48591DE3C19B)	-0.277	-0.909	0.295	-0.183	-2.319	-3.906	-73.16	15.45	-18.38	-19.894	-42.630	46.354	-0.79349	0.56876	-0.21005	0.05170	29.7	13111	100
2025-3-27 14:46:43.832	WT901BLE68-01(48591DE3C19B)	-0.277	-0.898	0.296	-0.732	-3.357	-3.479	-73.16	15.41	-18.29	-19.894	-42.630	46.354	-0.79349	0.56876	-0.21005	0.05170	29.7	13111	100
2025-3-27 14:46:43.832	WT901BLE68-01(48591DE3C19B)	-0.267	-0.898	0.296	-0.732	-3.357	-3.479	-73.15	15.38	-18.20	-19.894	-42.630	46.354	-0.79349	0.56876	-0.21005	0.05170	29.7	13111	100
2025-3-27 14:46:43.893	WT901BLE68-01(48591DE3C19B)	-0.267	-0.885	0.296	-1.038	-2.686	-2.930	-73.15	15.34	-18.11	-19.894	-42.630	46.354	-0.79349	0.56876	-0.21005	0.05170	29.7	13111	100
2025-3-27 14:46:43.894	WT901BLE68-01(48591DE3C19B)	-0.265	-0.885	0.296	-1.038	-2.686	-2.930	-73.15	15.31	-18.02	-19.894	-42.630	46.354	-0.79349	0.56876	-0.21005	0.05170	29.7	13111	100
2025-3-27 14:46:43.894	WT901BLE68-01(48591DE3C19B)	-0.265	-0.877	0.299	-1.404	-1.892	-2.197	-73.16	15.29	-17.94	-19.894	-42.630	46.354	-0.79349	0.56876	-0.21005	0.05170	29.7	13111	100
2025-3-27 14:46:43.894	WT901BLE68-01(48591DE3C19B)	-0.272	-0.877	0.299	-1.404	-1.892	-2.197	-73.16	15.27	-17.85	-19.894	-42.630	46.354	-0.79349	0.56876	-0.21005	0.05170	29.7	13111	100
2025-3-27 14:46:43.922	WT901BLE68-01(48591DE3C19B)	-0.272	-0.878	0.301	-1.648	-2.197	-1.709	-73.16	15.25	-17.77	-19.894	-42.630	46.354	-0.79849	0.56714	-0.19656	0.04477	29.7	13111	100
2025-3-27 14:46:43.923	WT901BLE68-01(48591DE3C19B)	-0.278	-0.878	0.301	-1.648	-2.197	-1.709	-73.17	15.24	-17.69	-19.894	-42.630	46.354	-0.79849	0.56714	-0.19656	0.04477	29.7	13111	100
2025-3-27 14:46:43.923	WT901BLE68-01(48591DE3C19B)	-0.278	-0.888	0.300	-2.075	-4.211	-1.892	-73.17	15.22	-17.59	-19.894	-42.630	46.354	-0.79849	0.56714	-0.19656	0.04477	29.7	13111	100
2025-3-27 14:46:43.923	WT901BLE68-01(48591DE3C19B)	-0.271	-0.888	0.300	-2.075	-4.211	-1.892	-73.18	15.20	-17.50	-19.894	-42.630	46.354	-0.79849	0.56714	-0.19656	0.04477	29.7	13111	100
2025-3-27 14:46:43.982	WT901BLE68-01(48591DE3C19B)	-0.271	-0.918	0.300	-2.502	-5.676	-2.686	-73.18	15.17	-17.39	-19.894	-42.630	46.354	-0.79849	0.56714	-0.19656	0.04477	29.7	13111	100
2025-3-27 14:46:43.982	WT901BLE68-01(48591DE3C19B)	-0.266	-0.918	0.300	-2.502	-5.676	-2.686	-73.19	15.13	-17.28	-19.894	-42.630	46.354	-0.79849	0.56714	-0.19656	0.04477	29.7	13111	100
2025-3-27 14:46:43.982	WT901BLE68-01(48591DE3C19B)	-0.266	-0.953	0.306	-1.282	-5.249	-3.540	-73.19	15.10	-17.17	-19.894	-42.630	46.354	-0.79849	0.56714	-0.19656	0.04477	29.7	13111	100
2025-3-27 14:46:43.982	WT901BLE68-01(48591DE3C19B)	-0.255	-0.953	0.306	-1.282	-5.249	-3.540	-73.18	15.05	-17.07	-19.894	-42.630	46.354	-0.79849	0.56714	-0.19656	0.04477	29.7	13111	100
2025-3-27 14:46:44.11	WT901BLE68-01(48591DE3C19B)	-0.255	-0.944	0.308	1.160	-2.625	-3.845	-73.16	15.01	-16.98	-19.894	-42.630	46.354	-0.79849	0.56714	-0.19656	0.04477	29.7	13111	100
2025-3-27 14:46:44.12	WT901BLE68-01(48591DE3C19B)	-0.239	-0.944	0.308	1.160	-2.625	-3.845	-73.14	14.97	-16.91	-19.894	-42.630	46.354	-0.79849	0.56714	-0.19656	0.04477	29.7	13111	100
2025-3-27 14:46:44.12	WT901BLE68-01(48591DE3C19B)	-0.239	-0.916	0.294	2.563	2.747	-2.747	-73.12	14.95	-16.86	-19.894	-42.630	46.354	-0.79849	0.56714	-0.19656	0.04477	29.7	13111	100
2025-3-27 14:46:44.12	WT901BLE68-01(48591DE3C19B)	-0.242	-0.916	0.294	2.563	2.747	-2.747	-73.10	14.93	-16.85	-19.894	-42.630	46.354	-0.79849	0.56714	-0.19656	0.04477	29.7	13111	100
2025-3-27 14:46:44.42	WT901BLE68-01(48591DE3C19B)	-0.242	-0.901	0.275	3.296	7.996	-0.732	-73.08	14.94	-16.86	-19.894	-42.630	46.354	-0.79849	0.56714	-0.19656	0.04477	29.7	13111	100
2025-3-27 14:46:44.42	WT901BLE68-01(48591DE3C19B)	-0.253	-0.901	0.275	3.296	7.996	-0.732	-73.06	14.95	-16.89	-19.894	-42.630	46.354	-0.79849	0.56714	-0.19656	0.04477	29.7	13111	100
2025-3-27 14:46:44.42	WT901BLE68-01(48591DE3C19B)	-0.253	-0.902	0.265	2.991	9.827	1.282	-73.04	14.98	-16.93	-19.894	-42.630	46.354	-0.79849	0.56714	-0.19656	0.04477	29.7	13111	100
2025-3-27 14:46:44.42	WT901BLE68-01(48591DE3C19B)	-0.264	-0.902	0.265	2.991	9.827	1.282	-73.03	15.02	-16.97	-19.894	-42.630	46.354	-0.79849	0.56714	-0.19656	0.04477	29.7	13111	100
2025-3-27 14:46:44.73	WT901BLE68-01(48591DE3C19B)	-0.264	-0.922	0.269	2.258	8.728	2.686	-73.03	15.07	-17.01	-19.894	-42.630	46.354	-0.79849	0.56714	-0.19656	0.04477	29.7	13111	100
2025-3-27 14:46:44.73	WT901BLE68-01(48591DE3C19B)	-0.268	-0.922	0.269	2.258	8.728	2.686	-73.02	15.12	-17.03	-19.894	-42.630	46.354	-0.79849	0.56714	-0.19656	0.04477	29.7	13111	100
2025-3-27 14:46:44.73	WT901BLE68-01(48591DE3C19B)	-0.268	-0.930	0.279	1.526	6.653	3.296	-73.02	15.18	-17.05	-19.894	-42.630	46.354	-0.79849	0.56714	-0.19656	0.04477	29.7	13111	100
2025-3-27 14:46:44.73	WT901BLE68-01(48591DE3C19B)	-0.257	-0.930	0.279	1.526	6.653	3.296	-73.02	15.23	-17.06	-19.894	-42.630	46.354	-0.79849	0.56714	-0.19656	0.04477	29.7	13111	100
2025-3-27 14:46:44.162	WT901BLE68-01(48591DE3C19B)	-0.257	-0.929	0.277	0.549	5.920	3.113	-73.02	15.28	-17.06	-19.894	-42.630	46.354	-0.79849	0.56714	-0.19656	0.04477	29.7	13111	100
2025-3-27 14:46:44.162	WT901BLE68-01(48591DE3C19B)	-0.246	-0.929	0.277	0.549	5.920	3.113	-73.02	15.32	-17.06	-19.600	-41.846	46.452	-0.79849	0.56714	-0.19656	0.04477	29.7	13111	100
2025-3-27 14:46:44.162	WT901BLE68-01(48591DE3C19B)	-0.246	-0.945	0.268	-1.831	7.446	2.441	-73.04	15.36	-17.07	-19.600	-41.846	46.452	-0.79849	0.56714	-0.19656	0.04477	29.7	13111	100
2025-3-27 14:46:44.162	WT901BLE68-01(48591DE3C19B)	-0.252	-0.945	0.268	-1.831	7.446	2.441	-73.08	15.41	-17.08	-19.600	-41.846	46.452	-0.79849	0.56714	-0.19656	0.04477	29.7	13111	100
2025-3-27 14:46:44.163	WT901BLE68-01(48591DE3C19B)	-0.252	-0.976	0.266	-3.540	9.155	0.366	-73.13	15.45	-17.11	-19.600	-41.846	46.452	-0.79849	0.56714	-0.19656	0.04477	29.7	13111	100
2025-3-27 14:46:44.163	WT901BLE68-01(48591DE3C19B)	-0.262	-0.976	0.266	-3.540	9.155	0.366	-73.19	15.47	-17.16	-19.600	-41.846	46.452	-0.79849	0.56714	-0.19656	0.04477	29.7	13111	100
2025-3-27 14:46:44.163	WT901BLE68-01(48591DE3C19B)	-0.262	-0.980	0.280	-4.395	8.972	-2.869	-73.26	15.46	-17.20	-19.600	-41.846	46.452	-0.79849	0.56714	-0.19656	0.04477	29.7	13111	100
2025-3-27 14:46:44.163	WT901BLE68-01(48591DE3C19B)	-0.262	-0.980	0.280	-4.395	8.972	-2.869	-73.33	15.46	-17.25	-19.600	-41.846	46.452	-0.79849	0.56714	-0.19656	0.04477	29.7	13111	100
2025-3-27 14:46:44.194	WT901BLE68-01(48591DE3C19B)	-0.262	-0.949	0.293	-5.493	7.690	-5.920	-73.41	15.42	-17.30	-19.600	-41.846	46.452	-0.79849	0.56714	-0.19656	0.04477	29.7	13111	100
2025-3-27 14:46:44.194	WT901BLE68-01(48591DE3C19B)	-0.262	-0.949	0.293	-5.493	7.690	-5.920	-73.49	15.38	-17.35	-19.600	-41.846	46.452	-0.79849	0.56714	-0.19656	0.04477	29.7	13111	100
2025-3-27 14:46:44.194	WT901BLE68-01(48591DE3C19B)	-0.262	-0.907	0.292	-7.446	5.737	-9.155	-73.58	15.31	-17.38	-19.600	-41.846	46.452	-0.79849	0.56714	-0.19656	0.04477	29.7	13111	100
2025-3-27 14:46:44.194	WT901BLE68-01(48591DE3C19B)	-0.255	-0.907	0.292	-7.446	5.737	-9.155	-73.67	15.23	-17.41	-19.600	-41.846	46.452	-0.79849	0.56714	-0.19656	0.04477	29.7	13111	100
2025-3-27 14:46:44.251	WT901BLE68-01(48591DE3C19B)	-0.255	-0.868	0.288	-8.972	3.113	-12.695	-73.78	15.12	-17.44	-19.600	-41.846	46.452	-0.79849	0.56714	-0.19656	0.04477	29.7	13111	100
2025-3-27 14:46:44.251	WT901BLE68-01(48591DE3C19B)	-0.246	-0.868	0.288	-8.972	3.113	-12.695	-73.88	15.01	-17.45	-19.600	-41.846	46.452	-0.79849	0.56714	-0.19656	0.04477	29.7	13111	100
2025-3-27 14:46:44.251	WT901BLE68-01(48591DE3C19B)	-0.246	-0.839	0.282	-10.620	0.793	-15.991	-73.99	14.85	-17.45	-19.600	-41.846	46.452	-0.79849	0.56714	-0.19656	0.04477	29.7	13111	100
2025-3-27 14:46:44.251	WT901BLE68-01(48591DE3C19B)	-0.240	-0.839	0.282	-10.620	0.793	-15.991	-74.11	14.71	-17.45	-19.600	-41.846	46.452	-0.79849	0.56714	-0.19656	0.04477	29.7	13111	100
2025-3-27 14:46:44.283	WT901BLE68-01(48591DE3C19B)	-0.240	-0.829	0.271	-12.085	-0.610	-20.386	-74.23	14.51	-17.45	-19.600	-41.846	46.452	-0.79849	0.56714	-0.19656	0.04477	29.7	13111	100
2025-3-27 14:46:44.283	WT901BLE68-01(48591DE3C19B)	-0.242	-0.829	0.271	-12.085	-0.610	-20.386	-74.36	14.32	-17.45	-19.600	-41.846	46.452	-0.79849	0.56714	-0.19656	0.04477	29.7	13111	100
2025-3-27 14:46:44.283	WT901BLE68-01(48591DE3C19B)	-0.242	-0.830	0.273	-12.878	-1.709	-26.184	-74.48	14.07	-17.45	-19.600	-41.846	46.452	-0.79849	0.56714	-0.19656	0.04477	29.7	13111	100
2025-3-27 14:46:44.283	WT901BLE68-01(48591DE3C19B)	-0.251	-0.830	0.273	-12.878	-1.709	-26.184	-74.61	13.82	-17.46	-19.600	-41.846	46.452	-0.79849	0.56714	-0.19656	0.04477	29.7	13111	100
2025-3-27 14:46:44.313	WT901BLE68-01(48591DE3C19B)	-0.251	-0.844	0.281	-13.550	-2.686	-32.776	-74.75	13.51	-17.47	-19.600	-41.846	46.452	-0.79849	0.56714	-0.19656	0.04477	29.7	13111	100
2025-3-27 14:46:44.314	WT901BLE68-01(48591DE3C19B)	-0.260	-0.844	0.281	-13.550	-2.686	-32.776	-74.88	13.20	-17.47	-19.600	-41.846	46.452	-0.79849	0.56714	-0.19656	0.04477	29.7	13111	100
2025-3-27 14:46:44.314	WT901BLE68-01(48591DE3C19B)	-0.260	-0.854	0.292	-15.076	-3.540	-39.490	-75.04	12.83	-17.49	-19.600	-41.846	46.452	-0.78934	0.58469	-0.17960	0.05258	29.7	13111	100
2025-3-27 14:46:44.314	WT901BLE68-01(48591DE3C19B)	-0.257	-0.854	0.292	-15.076	-3.540	-39.490	-75.18	12.45	-17.51	-19.600	-41.846	46.452	-0.78934	0.58469	-0.17960	0.05258	29.7	13111	100
2025-3-27 14:46:44.373	WT901BLE68-01(48591DE3C19B)	-0.257	-0.871	0.294	-16.663	-2.930	-45.837	-75.35	12.02	-17.54	-19.600	-41.846	46.452	-0.78934	0.58469	-0.17960	0.05258	29.7	13111	100
2025-3-27 14:46:44.373	WT901BLE68-01(48591DE3C19B)	-0.260	-0.871	0.294	-16.663	-2.930	-45.837	-75.52	11.60	-17.57	-19.600	-41.846	46.452	-0.78934	0.58469	-0.17960	0.05258	29.7	13111	100
2025-3-27 14:46:44.374	WT901BLE68-01(48591DE3C19B)	-0.260	-0.893	0.291	-18.005	-0.671	-51.270	-75.70	11.12	-17.64	-19.600	-41.846	46.452	-0.78934	0.58469	-0.17960	0.05258	29.7	13111	100
2025-3-27 14:46:44.374	WT901BLE68-01(48591DE3C19B)	-0.270	-0.893	0.291	-18.005	-0.671	-51.270	-75.88	10.66	-17.70	-19.600	-41.846	46.452	-0.78934	0.58469	-0.17960	0.05258	29.7	13111	100
2025-3-27 14:46:44.403	WT901BLE68-01(48591DE3C19B)	-0.270	-0.916	0.295	-19.226	0.916	-55.237	-76.08	10.16	-17.79	-19.600	-41.846	46.452	-0.78934	0.58469	-0.17960	0.05258	29.7	13111	100
2025-3-27 14:46:44.403	WT901BLE68-01(48591DE3C19B)	-0.287	-0.916	0.295	-19.226	0.916	-55.237	-76.27	9.66	-17.87	-19.600	-41.846	46.452	-0.78934	0.58469	-0.17960	0.05258	29.7	13111	100
2025-3-27 14:46:44.403	WT901BLE68-01(48591DE3C19B)	-0.287	-0.920	0.298	-19.287	0.061	-57.373	-76.46	9.14	-17.95	-19.600	-41.846	46.452	-0.78934	0.58469	-0.17960	0.05258	29.7	13111	100
2025-3-27 14:46:44.403	WT901BLE68-01(48591DE3C19B)	-0.293	-0.920	0.298	-19.287	0.061	-57.373	-76.66	8.63	-18.03	-19.600	-41.846	46.452	-0.78934	0.58469	-0.17960	0.05258	29.7	13111	100
2025-3-27 14:46:44.433	WT901BLE68-01(48591DE3C19B)	-0.293	-0.903	0.294	-20.142	-3.235	-57.678	-76.85	8.11	-18.07	-19.600	-41.846	46.452	-0.78934	0.58469	-0.17960	0.05258	29.7	13111	100
2025-3-27 14:46:44.433	WT901BLE68-01(48591DE3C19B)	-0.295	-0.903	0.294	-20.142	-3.235	-57.678	-77.04	7.59	-18.11	-19.600	-41.846	46.452	-0.78934	0.58469	-0.17960	0.05258	29.7	13111	100
2025-3-27 14:46:44.433	WT901BLE68-01(48591DE3C19B)	-0.295	-0.900	0.291	-21.362	-7.324	-56.458	-77.23	7.08	-18.09	-19.600	-41.846	46.452	-0.78934	0.58469	-0.17960	0.05258	29.7	13111	100
2025-3-27 14:46:44.433	WT901BLE68-01(48591DE3C19B)	-0.299	-0.900	0.291	-21.362	-7.324	-56.458	-77.43	6.58	-18.08	-19.600	-41.846	46.452	-0.78934	0.58469	-0.17960	0.05258	29.7	13111	100
2025-3-27 14:46:44.493	WT901BLE68-01(48591DE3C19B)	-0.299	-0.900	0.293	-22.095	-11.658	-54.565	-77.62	6.08	-18.02	-19.600	-41.846	46.452	-0.78934	0.58469	-0.17960	0.05258	29.7	13111	100
2025-3-27 14:46:44.494	WT901BLE68-01(48591DE3C19B)	-0.298	-0.900	0.293	-22.095	-11.658	-54.565	-77.82	5.59	-17.96	-19.600	-41.846	46.452	-0.78934	0.58469	-0.17960	0.05258	29.7	13111	100
2025-3-27 14:46:44.494	WT901BLE68-01(48591DE3C19B)	-0.298	-0.898	0.295	-22.339	-15.503	-52.185	-78.01	5.11	-17.86	-19.600	-41.846	46.452	-0.78934	0.58469	-0.17960	0.05258	29.7	13111	100
2025-3-27 14:46:44.494	WT901BLE68-01(48591DE3C19B)	-0.301	-0.898	0.295	-22.339	-15.503	-52.185	-78.20	4.65	-17.75	-19.600	-41.846	46.452	-0.78934	0.58469	-0.17960	0.05258	29.7	13111	100
2025-3-27 14:46:44.521	WT901BLE68-01(48591DE3C19B)	-0.301	-0.890	0.291	-22.461	-18.799	-49.683	-78.38	4.20	-17.61	-17.934	-34.104	45.962	-0.78934	0.58469	-0.17960	0.05258	29.7	13111	100
2025-3-27 14:46:44.521	WT901BLE68-01(48591DE3C19B)	-0.308	-0.890	0.291	-22.461	-18.799	-49.683	-78.57	3.76	-17.46	-17.934	-34.104	45.962	-0.78934	0.58469	-0.17960	0.05258	29.7	13111	100
2025-3-27 14:46:44.521	WT901BLE68-01(48591DE3C19B)	-0.308	-0.889	0.290	-22.888	-21.606	-47.546	-78.76	3.33	-17.28	-17.934	-34.104	45.962	-0.78934	0.58469	-0.17960	0.05258	29.7	13111	100
2025-3-27 14:46:44.521	WT901BLE68-01(48591DE3C19B)	-0.318	-0.889	0.290	-22.888	-21.606	-47.546	-78.95	2.92	-17.10	-17.934	-34.104	45.962	-0.78934	0.58469	-0.17960	0.05258	29.7	13111	100
2025-3-27 14:46:44.581	WT901BLE68-01(48591DE3C19B)	-0.318	-0.898	0.290	-23.071	-25.391	-45.044	-79.14	2.52	-16.88	-17.934	-34.104	45.962	-0.78934	0.58469	-0.17960	0.05258	29.7	13111	100
2025-3-27 14:46:44.581	WT901BLE68-01(48591DE3C19B)	-0.317	-0.898	0.290	-23.071	-25.391	-45.044	-79.33	2.12	-16.66	-17.934	-34.104	45.962	-0.78934	0.58469	-0.17960	0.05258	29.7	13111	100
2025-3-27 14:46:44.581	WT901BLE68-01(48591DE3C19B)	-0.317	-0.904	0.283	-23.804	-29.419	-42.419	-79.52	1.75	-16.39	-17.934	-34.104	45.962	-0.78934	0.58469	-0.17960	0.05258	29.7	13111	100
2025-3-27 14:46:44.581	WT901BLE68-01(48591DE3C19B)	-0.322	-0.904	0.283	-23.804	-29.419	-42.419	-79.72	1.38	-16.12	-17.934	-34.104	45.962	-0.78934	0.58469	-0.17960	0.05258	29.7	13111	100
2025-3-27 14:46:44.610	WT901BLE68-01(48591DE3C19B)	-0.322	-0.935	0.279	-25.085	-32.166	-39.734	-79.93	1.03	-15.83	-17.934	-34.104	45.962	-0.78934	0.58469	-0.17960	0.05258	29.7	13111	100
2025-3-27 14:46:44.611	WT901BLE68-01(48591DE3C19B)	-0.334	-0.935	0.279	-25.085	-32.166	-39.734	-80.13	0.69	-15.53	-17.934	-34.104	45.962	-0.78934	0.58469	-0.17960	0.05258	29.7	13111	100
2025-3-27 14:46:44.611	WT901BLE68-01(48591DE3C19B)	-0.338	-0.939	0.282	-25.574	-35.828	-37.292	-80.35	0.37	-15.20	-17.934	-34.104	45.962	-0.78934	0.58469	-0.17960	0.05258	29.7	13111	100
2025-3-27 14:46:44.611	WT901BLE68-01(48591DE3C19B)	-0.338	-0.947	0.289	-28.870	-39.978	-35.034	-80.58	0.06	-14.84	-17.934	-34.104	45.962	-0.78934	0.58469	-0.17960	0.05258	29.7	13111	100
2025-3-27 14:46:44.641	WT901BLE68-01(48591DE3C19B)	-0.356	-0.947	0.289	-28.870	-39.978	-35.034	-80.83	-0.24	-14.46	-17.934	-34.104	45.962	-0.78934	0.58469	-0.17960	0.05258	29.7	13111	100
2025-3-27 14:46:44.641	WT901BLE68-01(48591DE3C19B)	-0.356	-1.001	0.294	-32.227	-44.067	-33.630	-81.10	-0.53	-14.07	-17.934	-34.104	45.962	-0.78934	0.58469	-0.17960	0.05258	29.7	13111	100
2025-3-27 14:46:44.641	WT901BLE68-01(48591DE3C19B)	-0.379	-1.001	0.294	-32.227	-44.067	-33.630	-81.38	-0.81	-13.65	-17.934	-34.104	45.962	-0.78934	0.58469	-0.17960	0.05258	29.7	13111	100
2025-3-27 14:46:44.641	WT901BLE68-01(48591DE3C19B)	-0.379	-1.094	0.308	-35.889	-50.171	-32.776	-81.68	-1.09	-13.21	-17.934	-34.104	45.962	-0.78934	0.58469	-0.17960	0.05258	29.7	13111	100
2025-3-27 14:46:44.701	WT901BLE68-01(48591DE3C19B)	-0.400	-1.094	0.308	-35.889	-50.171	-32.776	-82.00	-1.37	-12.73	-17.934	-34.104	45.962	-0.78934	0.58469	-0.17960	0.05258	29.7	13111	100
2025-3-27 14:46:44.701	WT901BLE68-01(48591DE3C19B)	-0.400	-1.186	0.343	-35.034	-57.617	-32.532	-82.32	-1.64	-12.22	-17.934	-34.104	45.962	-0.78934	0.58469	-0.17960	0.05258	29.7	13111	100
2025-3-27 14:46:44.701	WT901BLE68-01(48591DE3C19B)	-0.396	-1.186	0.343	-35.034	-57.617	-32.532	-82.63	-1.92	-11.68	-17.934	-34.104	45.962	-0.78934	0.58469	-0.17960	0.05258	29.7	13111	100
2025-3-27 14:46:44.702	WT901BLE68-01(48591DE3C19B)	-0.396	-1.169	0.358	-31.006	-62.378	-30.823	-82.93	-2.19	-11.12	-17.934	-34.104	45.962	-0.78934	0.58469	-0.17960	0.05258	29.7	13111	100
2025-3-27 14:46:44.732	WT901BLE68-01(48591DE3C19B)	-0.390	-1.169	0.358	-31.006	-62.378	-30.823	-83.21	-2.44	-10.54	-17.934	-34.104	45.962	-0.74237	0.66354	-0.04266	0.08157	29.7	13111	100
2025-3-27 14:46:44.732	WT901BLE68-01(48591DE3C19B)	-0.390	-1.198	0.364	-32.410	-62.195	-25.146	-83.49	-2.67	-9.96	-17.934	-34.104	45.962	-0.74237	0.66354	-0.04266	0.08157	29.7	13111	100
2025-3-27 14:46:44.732	WT901BLE68-01(48591DE3C19B)	-0.446	-1.198	0.364	-32.410	-62.195	-25.146	-83.78	-2.86	-9.38	-17.934	-34.104	45.962	-0.74237	0.66354	-0.04266	0.08157	29.7	13111	100
2025-3-27 14:46:44.732	WT901BLE68-01(48591DE3C19B)	-1.786	-1.305	0.406	-25.208	-65.063	-17.761	-84.03	-3.02	-8.79	-17.934	-34.104	45.962	-0.74237	0.66354	-0.04266	0.08157	29.7	13111	100
2025-3-27 14:46:44.761	WT901BLE68-01(48591DE3C19B)	-0.437	-5.221	1.625	-25.208	-65.063	-17.761	-84.25	-3.14	-8.18	-17.934	-34.104	45.962	-0.74237	0.66354	-0.04266	0.08157	29.7	13111	100
2025-3-27 14:46:44.761	WT901BLE68-01(48591DE3C19B)	-0.437	-1.284	0.444	-10.071	-70.923	-6.226	-84.40	-3.20	-7.56	-17.934	-34.104	45.962	-0.74237	0.66354	-0.04266	0.08157	29.7	13111	100
2025-3-27 14:46:44.761	WT901BLE68-01(48591DE3C19B)	-0.354	-1.284	0.444	-10.071	-70.923	-6.226	-84.46	-3.21	-6.90	-17.934	-34.104	45.962	-0.74237	0.66354	-0.04266	0.08157	29.7	13111	100
2025-3-27 14:46:44.761	WT901BLE68-01(48591DE3C19B)	-0.354	-1.129	0.398	9.705	-62.805	16.052	-84.42	-3.10	-6.27	-17.934	-34.104	45.962	-0.74237	0.66354	-0.04266	0.08157	29.7	13111	100
2025-3-27 14:46:44.822	WT901BLE68-01(48591DE3C19B)	-0.298	-1.129	0.398	9.705	-62.805	16.052	-84.28	-2.88	-5.69	-17.934	-34.104	45.962	-0.74237	0.66354	-0.04266	0.08157	29.7	13111	100
2025-3-27 14:46:44.822	WT901BLE68-01(48591DE3C19B)	-0.298	-0.915	0.308	28.320	-45.898	44.128	-84.04	-2.52	-5.18	-17.934	-34.104	45.962	-0.74237	0.66354	-0.04266	0.08157	29.7	13111	100
2025-3-27 14:46:44.822	WT901BLE68-01(48591DE3C19B)	-0.269	-0.915	0.308	28.320	-45.898	44.128	-83.70	-2.02	-4.75	-17.934	-34.104	45.962	-0.74237	0.66354	-0.04266	0.08157	29.7	13111	100
2025-3-27 14:46:44.822	WT901BLE68-01(48591DE3C19B)	-0.269	-0.718	0.239	35.522	-33.997	69.824	-83.31	-1.39	-4.36	-17.934	-34.104	45.962	-0.74237	0.66354	-0.04266	0.08157	29.7	13111	100
2025-3-27 14:46:44.851	WT901BLE68-01(48591DE3C19B)	-0.240	-0.718	0.239	35.522	-33.997	69.824	-82.89	-0.63	-4.02	-17.934	-34.104	45.962	-0.74237	0.66354	-0.04266	0.08157	29.7	13111	100
2025-3-27 14:46:44.851	WT901BLE68-01(48591DE3C19B)	-0.240	-0.668	0.191	28.076	-34.363	94.116	-82.51	0.23	-3.65	-17.934	-34.104	45.962	-0.74237	0.66354	-0.04266	0.08157	29.7	13111	100
2025-3-27 14:46:44.851	WT901BLE68-01(48591DE3C19B)	-0.222	-0.668	0.191	28.076	-34.363	94.116	-82.15	1.21	-3.27	-17.934	-34.104	45.962	-0.74237	0.66354	-0.04266	0.08157	29.7	13111	100
2025-3-27 14:46:44.851	WT901BLE68-01(48591DE3C19B)	-0.222	-0.763	0.148	23.193	-41.809	114.807	-81.81	2.29	-2.83	-17.934	-34.104	45.962	-0.74237	0.66354	-0.04266	0.08157	29.7	13111	100
2025-3-27 14:46:44.883	WT901BLE68-01(48591DE3C19B)	-0.247	-0.763	0.148	23.193	-41.809	114.807	-81.49	3.44	-2.35	-17.934	-34.104	45.962	-0.74237	0.66354	-0.04266	0.08157	29.7	13111	100
2025-3-27 14:46:44.883	WT901BLE68-01(48591DE3C19B)	-0.247	-0.876	0.123	25.269	-50.720	127.197	-81.15	4.64	-1.80	-17.934	-34.104	45.962	-0.74237	0.66354	-0.04266	0.08157	29.7	13111	100
2025-3-27 14:46:44.884	WT901BLE68-01(48591DE3C19B)	-0.320	-0.876	0.123	25.269	-50.720	127.197	-80.78	5.88	-1.20	-17.934	-34.104	45.962	-0.74237	0.66354	-0.04266	0.08157	29.7	13111	100
2025-3-27 14:46:44.884	WT901BLE68-01(48591DE3C19B)	-0.320	-0.999	0.126	28.931	-64.148	131.714	-80.37	7.12	-0.53	-17.934	-34.104	45.962	-0.74237	0.66354	-0.04266	0.08157	29.7	13111	100
2025-3-27 14:46:44.942	WT901BLE68-01(48591DE3C19B)	-0.385	-0.999	0.126	28.931	-64.148	131.714	-79.93	8.36	0.21	-17.934	-34.104	45.962	-0.74237	0.66354	-0.04266	0.08157	29.7	13111	100
2025-3-27 14:46:44.942	WT901BLE68-01(48591DE3C19B)	-0.385	-1.204	0.164	34.180	-84.595	128.662	-79.43	9.55	1.07	-20.188	-34.006	28.322	-0.74237	0.66354	-0.04266	0.08157	29.7	13111	100
2025-3-27 14:46:44.942	WT901BLE68-01(48591DE3C19B)	-0.403	-1.204	0.164	34.180	-84.595	128.662	-78.88	10.70	2.03	-20.188	-34.006	28.322	-0.74237	0.66354	-0.04266	0.08157	29.7	13111	100
2025-3-27 14:46:44.942	WT901BLE68-01(48591DE3C19B)	-0.403	-1.504	0.178	41.931	-103.394	126.221	-78.24	11.79	3.08	-20.188	-34.006	28.322	-0.74237	0.66354	-0.04266	0.08157	29.7	13111	100
2025-3-27 14:46:44.971	WT901BLE68-01(48591DE3C19B)	-0.341	-1.504	0.178	41.931	-103.394	126.221	-77.55	12.84	4.22	-20.188	-34.006	28.322	-0.74237	0.66354	-0.04266	0.08157	29.7	13111	100
2025-3-27 14:46:44.971	WT901BLE68-01(48591DE3C19B)	-0.341	-1.616	0.174	71.167	-100.403	116.943	-76.68	13.82	5.34	-20.188	-34.006	28.322	-0.74237	0.66354	-0.04266	0.08157	29.7	13111	100
2025-3-27 14:46:44.971	WT901BLE68-01(48591DE3C19B)	-0.273	-1.616	0.174	71.167	-100.403	116.943	-75.67	14.73	6.44	-20.188	-34.006	28.322	-0.74237	0.66354	-0.04266	0.08157	29.7	13111	100
2025-3-27 14:46:44.971	WT901BLE68-01(48591DE3C19B)	-0.273	-1.377	0.155	88.867	-76.599	107.910	-74.59	15.60	7.40	-20.188	-34.006	28.322	-0.74237	0.66354	-0.04266	0.08157	29.7	13111	100
2025-3-27 14:46:45.1	WT901BLE68-01(48591DE3C19B)	-0.239	-1.377	0.155	88.867	-76.599	107.910	-73.44	16.44	8.24	-20.188	-34.006	28.322	-0.74237	0.66354	-0.04266	0.08157	29.7	13111	100
2025-3-27 14:46:45.1	WT901BLE68-01(48591DE3C19B)	-0.239	-1.224	0.159	83.191	-43.701	106.506	-72.37	17.29	8.92	-20.188	-34.006	28.322	-0.74237	0.66354	-0.04266	0.08157	29.7	13111	100
2025-3-27 14:46:45.1	WT901BLE68-01(48591DE3C19B)	-0.199	-1.224	0.159	83.191	-43.701	106.506	-71.36	18.17	9.43	-20.188	-34.006	28.322	-0.74237	0.66354	-0.04266	0.08157	29.7	13111	100
2025-3-27 14:46:45.1	WT901BLE68-01(48591DE3C19B)	-0.199	-1.147	0.171	80.017	-6.165	106.384	-70.41	19.09	9.76	-20.188	-34.006	28.322	-0.74237	0.66354	-0.04266	0.08157	29.7	13111	100
2025-3-27 14:46:45.61	WT901BLE68-01(48591DE3C19B)	-0.179	-1.147	0.171	80.017	-6.165	106.384	-69.54	20.06	9.92	-20.188	-34.006	28.322	-0.74237	0.66354	-0.04266	0.08157	29.7	13111	100
2025-3-27 14:46:45.61	WT901BLE68-01(48591DE3C19B)	-0.179	-1.041	0.165	75.012	26.428	111.084	-68.74	21.10	9.92	-20.188	-34.006	28.322	-0.74237	0.66354	-0.04266	0.08157	29.7	13111	100
2025-3-27 14:46:45.61	WT901BLE68-01(48591DE3C19B)	-0.190	-1.041	0.165	75.012	26.428	111.084	-68.02	22.22	9.78	-20.188	-34.006	28.322	-0.74237	0.66354	-0.04266	0.08157	29.7	13111	100
2025-3-27 14:46:45.61	WT901BLE68-01(48591DE3C19B)	-0.190	-0.983	0.132	66.772	43.762	115.845	-67.37	23.38	9.57	-20.188	-34.006	28.322	-0.74237	0.66354	-0.04266	0.08157	29.7	13111	100
2025-3-27 14:46:45.93	WT901BLE68-01(48591DE3C19B)	-0.236	-0.983	0.132	66.772	43.762	115.845	-66.80	24.59	9.29	-20.188	-34.006	28.322	-0.74237	0.66354	-0.04266	0.08157	29.7	13111	100
2025-3-27 14:46:45.93	WT901BLE68-01(48591DE3C19B)	-0.236	-0.948	0.099	58.228	49.927	120.056	-66.33	25.86	8.99	-20.188	-34.006	28.322	-0.74237	0.66354	-0.04266	0.08157	29.7	13111	100
2025-3-27 14:46:45.94	WT901BLE68-01(48591DE3C19B)	-0.299	-0.948	0.099	58.228	49.927	120.056	-65.86	27.13	8.69	-20.188	-34.006	28.322	-0.74237	0.66354	-0.04266	0.08157	29.7	13111	100
2025-3-27 14:46:45.94	WT901BLE68-01(48591DE3C19B)	-0.299	-0.924	0.098	51.270	45.044	121.094	-65.44	28.38	8.46	-20.188	-34.006	28.322	-0.74237	0.66354	-0.04266	0.08157	29.7	13111	100
2025-3-27 14:46:45.121	WT901BLE68-01(48591DE3C19B)	-0.342	-0.924	0.098	51.270	45.044	121.094	-65.02	29.62	8.26	-20.188	-34.006	28.322	-0.74237	0.66354	-0.04266	0.08157	29.7	13111	100
2025-3-27 14:46:45.121	WT901BLE68-01(48591DE3C19B)	-0.342	-0.918	0.095	42.908	28.076	120.361	-64.58	30.78	8.23	-20.188	-34.006	28.322	-0.74237	0.66354	-0.04266	0.08157	29.7	13111	100
2025-3-27 14:46:45.121	WT901BLE68-01(48591DE3C19B)	-0.339	-0.918	0.095	42.908	28.076	120.361	-64.15	31.93	8.23	-20.188	-34.006	28.322	-0.80179	0.52393	-0.19943	-0.20676	29.7	13111	100
2025-3-27 14:46:45.121	WT901BLE68-01(48591DE3C19B)	-0.339	-0.926	0.095	37.964	5.188	117.432	-63.63	32.96	8.48	-20.188	-34.006	28.322	-0.80179	0.52393	-0.19943	-0.20676	29.7	13111	100
2025-3-27 14:46:45.180	WT901BLE68-01(48591DE3C19B)	-0.316	-0.926	0.095	37.964	5.188	117.432	-63.10	33.98	8.73	-20.188	-34.006	28.322	-0.80179	0.52393	-0.19943	-0.20676	29.7	13111	100
2025-3-27 14:46:45.180	WT901BLE68-01(48591DE3C19B)	-0.316	-0.904	0.102	35.583	-14.954	114.136	-62.47	34.86	9.21	-20.188	-34.006	28.322	-0.80179	0.52393	-0.19943	-0.20676	29.7	13111	100
2025-3-27 14:46:45.180	WT901BLE68-01(48591DE3C19B)	-0.266	-0.904	0.102	35.583	-14.954	114.136	-61.83	35.74	9.70	-20.188	-34.006	28.322	-0.80179	0.52393	-0.19943	-0.20676	29.7	13111	100
2025-3-27 14:46:45.181	WT901BLE68-01(48591DE3C19B)	-0.266	-0.870	0.116	33.386	-26.733	109.680	-61.13	36.52	10.31	-20.188	-34.006	28.322	-0.80179	0.52393	-0.19943	-0.20676	29.7	13111	100
2025-3-27 14:46:45.210	WT901BLE68-01(48591DE3C19B)	-0.199	-0.870	0.116	33.386	-26.733	109.680	-60.41	37.28	10.91	-20.188	-34.006	28.322	-0.80179	0.52393	-0.19943	-0.20676	29.7	13111	100
2025-3-27 14:46:45.210	WT901BLE68-01(48591DE3C19B)	-0.199	-0.836	0.108	30.029	-30.151	104.004	-59.72	37.97	11.54	-20.188	-34.006	28.322	-0.80179	0.52393	-0.19943	-0.20676	29.7	13111	100
2025-3-27 14:46:45.210	WT901BLE68-01(48591DE3C19B)	-0.109	-0.836	0.108	30.029	-30.151	104.004	-59.01	38.65	12.17	-20.188	-34.006	28.322	-0.80179	0.52393	-0.19943	-0.20676	29.7	13111	100
2025-3-27 14:46:45.210	WT901BLE68-01(48591DE3C19B)	-0.109	-0.804	0.092	27.039	-21.301	95.520	-58.43	39.29	12.65	-20.188	-34.006	28.322	-0.80179	0.52393	-0.19943	-0.20676	29.7	13111	100
2025-3-27 14:46:45.240	WT901BLE68-01(48591DE3C19B)	-0.087	-0.804	0.092	27.039	-21.301	95.520	-57.83	39.93	13.12	-20.188	-34.006	28.322	-0.80179	0.52393	-0.19943	-0.20676	29.7	13111	100
2025-3-27 14:46:45.240	WT901BLE68-01(48591DE3C19B)	-0.087	-0.814	0.134	20.020	-7.019	86.487	-57.44	40.56	13.37	-20.188	-34.006	28.322	-0.80179	0.52393	-0.19943	-0.20676	29.7	13111	100
2025-3-27 14:46:45.240	WT901BLE68-01(48591DE3C19B)	-0.101	-0.814	0.134	20.020	-7.019	86.487	-57.05	41.18	13.61	-20.188	-34.006	28.322	-0.80179	0.52393	-0.19943	-0.20676	29.7	13111	100
2025-3-27 14:46:45.240	WT901BLE68-01(48591DE3C19B)	-0.101	-0.916	0.191	11.169	2.441	73.914	-56.87	41.74	13.65	-20.188	-34.006	28.322	-0.80179	0.52393	-0.19943	-0.20676	29.7	13111	100
2025-3-27 14:46:45.300	WT901BLE68-01(48591DE3C19B)	-0.136	-0.916	0.191	11.169	2.441	73.914	-56.69	42.30	13.67	-20.188	-34.006	28.322	-0.80179	0.52393	-0.19943	-0.20676	29.7	13111	100
2025-3-27 14:46:45.300	WT901BLE68-01(48591DE3C19B)	-0.136	-0.982	0.246	7.996	4.944	57.068	-56.65	42.74	13.53	-20.188	-34.006	28.322	-0.80179	0.52393	-0.19943	-0.20676	29.7	13111	100
2025-3-27 14:46:45.300	WT901BLE68-01(48591DE3C19B)	-0.131	-0.982	0.246	7.996	4.944	57.068	-56.60	43.17	13.38	-20.188	-34.006	28.322	-0.80179	0.52393	-0.19943	-0.20676	29.7	13111	100
2025-3-27 14:46:45.300	WT901BLE68-01(48591DE3C19B)	-0.131	-1.013	0.249	1.160	5.676	37.781	-56.73	43.43	13.06	-20.188	-34.006	28.322	-0.80179	0.52393	-0.19943	-0.20676	29.7	13111	100
2025-3-27 14:46:45.330	WT901BLE68-01(48591DE3C19B)	-0.087	-1.013	0.249	1.160	5.676	37.781	-56.87	43.70	12.74	-40.376	-64.974	26.754	-0.80179	0.52393	-0.19943	-0.20676	29.7	13111	100
2025-3-27 14:46:45.330	WT901BLE68-01(48591DE3C19B)	-0.087	-1.061	0.183	-5.920	10.742	15.991	-57.23	43.81	12.18	-40.376	-64.974	26.754	-0.80179	0.52393	-0.19943	-0.20676	29.7	13111	100
2025-3-27 14:46:45.330	WT901BLE68-01(48591DE3C19B)	-0.060	-1.061	0.183	-5.920	10.742	15.991	-57.59	43.91	11.62	-40.376	-64.974	26.754	-0.80179	0.52393	-0.19943	-0.20676	29.7	13111	100
2025-3-27 14:46:45.330	WT901BLE68-01(48591DE3C19B)	-0.060	-1.124	0.134	-11.658	22.400	-12.390	-58.26	43.84	10.71	-40.376	-64.974	26.754	-0.80179	0.52393	-0.19943	-0.20676	29.7	13111	100
2025-3-27 14:46:45.359	WT901BLE68-01(48591DE3C19B)	-0.113	-1.124	0.134	-11.658	22.400	-12.390	-58.92	43.75	9.81	-40.376	-64.974	26.754	-0.80179	0.52393	-0.19943	-0.20676	29.7	13111	100
2025-3-27 14:46:45.360	WT901BLE68-01(48591DE3C19B)	-0.113	-1.227	0.134	-17.090	37.231	-44.006	-59.91	43.46	8.51	-40.376	-64.974	26.754	-0.80179	0.52393	-0.19943	-0.20676	29.7	13111	100
2025-3-27 14:46:45.360	WT901BLE68-01(48591DE3C19B)	-0.193	-1.227	0.134	-17.090	37.231	-44.006	-60.88	43.15	7.25	-40.376	-64.974	26.754	-0.80179	0.52393	-0.19943	-0.20676	29.7	13111	100
2025-3-27 14:46:45.360	WT901BLE68-01(48591DE3C19B)	-0.193	-1.245	0.174	-15.747	44.617	-76.294	-62.02	42.59	5.70	-40.376	-64.974	26.754	-0.80179	0.52393	-0.19943	-0.20676	29.7	13111	100
2025-3-27 14:46:45.420	WT901BLE68-01(48591DE3C19B)	-0.183	-1.245	0.174	-15.747	44.617	-76.294	-63.12	42.01	4.20	-40.376	-64.974	26.754	-0.80179	0.52393	-0.19943	-0.20676	29.7	13111	100
2025-3-27 14:46:45.420	WT901BLE68-01(48591DE3C19B)	-0.183	-1.268	0.212	-30.029	49.255	-100.769	-64.46	41.20	2.54	-40.376	-64.974	26.754	-0.80179	0.52393	-0.19943	-0.20676	29.7	13111	100
2025-3-27 14:46:45.420	WT901BLE68-01(48591DE3C19B)	-0.170	-1.268	0.212	-30.029	49.255	-100.769	-65.74	40.37	0.93	-40.376	-64.974	26.754	-0.80179	0.52393	-0.19943	-0.20676	29.7	13111	100
2025-3-27 14:46:45.420	WT901BLE68-01(48591DE3C19B)	-0.170	-1.332	0.184	-20.264	58.838	-139.709	-67.07	39.21	-0.92	-40.376	-64.974	26.754	-0.80179	0.52393	-0.19943	-0.20676	29.7	13111	100
2025-3-27 14:46:45.449	WT901BLE68-01(48591DE3C19B)	-0.231	-1.332	0.184	-20.264	58.838	-139.709	-68.32	38.02	-2.71	-40.376	-64.974	26.754	-0.80179	0.52393	-0.19943	-0.20676	29.7	13111	100
2025-3-27 14:46:45.449	WT901BLE68-01(48591DE3C19B)	-0.231	-1.104	0.176	-11.475	70.129	-164.551	-69.56	36.61	-4.65	-40.376	-64.974	26.754	-0.80179	0.52393	-0.19943	-0.20676	29.7	13111	100
2025-3-27 14:46:45.449	WT901BLE68-01(48591DE3C19B)	-0.250	-1.104	0.176	-11.475	70.129	-164.551	-70.71	35.18	-6.51	-40.376	-64.974	26.754	-0.80179	0.52393	-0.19943	-0.20676	29.7	13111	100
2025-3-27 14:46:45.450	WT901BLE68-01(48591DE3C19B)	-0.250	-0.934	0.172	-15.137	74.097	-176.697	-71.87	33.63	-8.37	-40.376	-64.974	26.754	-0.80179	0.52393	-0.19943	-0.20676	29.7	13111	100
2025-3-27 14:46:45.481	WT901BLE68-01(48591DE3C19B)	-0.246	-0.934	0.172	-15.137	74.097	-176.697	-72.93	32.06	-10.13	-40.376	-64.974	26.754	-0.80179	0.52393	-0.19943	-0.20676	29.7	13111	100
2025-3-27 14:46:45.481	WT901BLE68-01(48591DE3C19B)	-0.246	-0.828	0.198	-15.930	73.547	-182.495	-73.93	30.41	-11.82	-40.376	-64.974	26.754	-0.80179	0.52393	-0.19943	-0.20676	29.7	13111	100
2025-3-27 14:46:45.481	WT901BLE68-01(48591DE3C19B)	-0.254	-0.828	0.198	-15.930	73.547	-182.495	-74.84	28.76	-13.43	-40.376	-64.974	26.754	-0.80179	0.52393	-0.19943	-0.20676	29.7	13111	100
2025-3-27 14:46:45.481	WT901BLE68-01(48591DE3C19B)	-0.254	-0.834	0.204	-28.320	67.322	-184.265	-75.78	27.05	-14.90	-40.376	-64.974	26.754	-0.80179	0.52393	-0.19943	-0.20676	29.7	13111	100
2025-3-27 14:46:45.540	WT901BLE68-01(48591DE3C19B)	-0.257	-0.834	0.204	-28.320	67.322	-184.265	-76.65	25.35	-16.30	-40.376	-64.974	26.754	-0.80179	0.52393	-0.19943	-0.20676	29.7	13111	100
2025-3-27 14:46:45.540	WT901BLE68-01(48591DE3C19B)	-0.257	-1.003	0.174	-38.330	53.650	-185.608	-77.49	23.59	-17.48	-40.376	-64.974	26.754	-0.77402	0.58127	-0.25067	-0.01041	29.7	13111	100
2025-3-27 14:46:45.540	WT901BLE68-01(48591DE3C19B)	-0.231	-1.003	0.174	-38.330	53.650	-185.608	-78.28	21.82	-18.60	-40.376	-64.974	26.754	-0.77402	0.58127	-0.25067	-0.01041	29.7	13111	100
2025-3-27 14:46:45.540	WT901BLE68-01(48591DE3C19B)	-0.256	-1.180	0.150	-40.161	43.274	-187.439	-79.00	20.02	-19.56	-40.376	-64.974	26.754	-0.77402	0.58127	-0.25067	-0.01041	29.7	13111	100
2025-3-27 14:46:45.569	WT901BLE68-01(48591DE3C19B)	-0.256	-1.351	0.157	-38.513	44.128	-192.566	-79.67	18.19	-20.47	-40.376	-64.974	26.754	-0.77402	0.58127	-0.25067	-0.01041	29.7	13111	100
2025-3-27 14:46:45.569	WT901BLE68-01(48591DE3C19B)	-0.355	-1.351	0.157	-38.513	44.128	-192.566	-80.30	16.34	-21.35	-40.376	-64.974	26.754	-0.77402	0.58127	-0.25067	-0.01041	29.7	13111	100
2025-3-27 14:46:45.570	WT901BLE68-01(48591DE3C19B)	-0.355	-1.467	0.182	-29.785	49.316	-199.524	-80.86	14.47	-22.21	-40.376	-64.974	26.754	-0.77402	0.58127	-0.25067	-0.01041	29.7	13111	100
2025-3-27 14:46:45.570	WT901BLE68-01(48591DE3C19B)	-0.435	-1.467	0.182	-29.785	49.316	-199.524	-81.35	12.56	-23.07	-40.376	-64.974	26.754	-0.77402	0.58127	-0.25067	-0.01041	29.7	13111	100
2025-3-27 14:46:45.599	WT901BLE68-01(48591DE3C19B)	-0.435	-1.404	0.213	-21.118	49.255	-206.055	-81.77	10.63	-23.88	-40.376	-64.974	26.754	-0.77402	0.58127	-0.25067	-0.01041	29.7	13111	100
2025-3-27 14:46:45.600	WT901BLE68-01(48591DE3C19B)	-0.426	-1.404	0.213	-21.118	49.255	-206.055	-82.11	8.68	-24.68	-40.376	-64.974	26.754	-0.77402	0.58127	-0.25067	-0.01041	29.7	13111	100
2025-3-27 14:46:45.600	WT901BLE68-01(48591DE3C19B)	-0.426	-1.276	0.231	-18.982	47.485	-201.904	-82.41	6.77	-25.42	-40.376	-64.974	26.754	-0.77402	0.58127	-0.25067	-0.01041	29.7	13111	100
2025-3-27 14:46:45.600	WT901BLE68-01(48591DE3C19B)	-0.400	-1.276	0.231	-18.982	47.485	-201.904	-82.67	4.88	-26.13	-40.376	-64.974	26.754	-0.77402	0.58127	-0.25067	-0.01041	29.7	13111	100
2025-3-27 14:46:45.660	WT901BLE68-01(48591DE3C19B)	-0.400	-1.146	0.235	-15.869	49.927	-194.153	-82.88	3.04	-26.81	-40.376	-64.974	26.754	-0.77402	0.58127	-0.25067	-0.01041	29.7	13111	100
2025-3-27 14:46:45.660	WT901BLE68-01(48591DE3C19B)	-0.427	-1.146	0.235	-15.869	49.927	-194.153	-83.06	1.25	-27.49	-40.376	-64.974	26.754	-0.77402	0.58127	-0.25067	-0.01041	29.7	13111	100
2025-3-27 14:46:45.660	WT901BLE68-01(48591DE3C19B)	-0.427	-1.030	0.252	-16.418	47.729	-184.998	-83.22	-0.47	-28.14	-40.376	-64.974	26.754	-0.77402	0.58127	-0.25067	-0.01041	29.7	13111	100
2025-3-27 14:46:45.660	WT901BLE68-01(48591DE3C19B)	-0.448	-1.030	0.252	-16.418	47.729	-184.998	-83.36	-2.15	-28.75	-40.376	-64.974	26.754	-0.77402	0.58127	-0.25067	-0.01041	29.7	13111	100
2025-3-27 14:46:45.691	WT901BLE68-01(48591DE3C19B)	-0.448	-1.009	0.266	-23.865	36.011	-174.194	-83.52	-3.77	-29.29	-40.376	-64.974	26.754	-0.77402	0.58127	-0.25067	-0.01041	29.7	13111	100
2025-3-27 14:46:45.691	WT901BLE68-01(48591DE3C19B)	-0.448	-1.009	0.266	-23.865	36.011	-174.194	-83.71	-5.32	-29.75	-40.376	-64.974	26.754	-0.77402	0.58127	-0.25067	-0.01041	29.7	13111	100
2025-3-27 14:46:45.691	WT901BLE68-01(48591DE3C19B)	-0.448	-1.013	0.252	-26.062	23.743	-161.987	-83.90	-6.82	-30.14	-40.376	-64.974	26.754	-0.77402	0.58127	-0.25067	-0.01041	29.7	13111	100
2025-3-27 14:46:45.691	WT901BLE68-01(48591DE3C19B)	-0.474	-1.013	0.252	-26.062	23.743	-161.987	-84.11	-8.25	-30.44	-40.376	-64.974	26.754	-0.77402	0.58127	-0.25067	-0.01041	29.7	13111	100
2025-3-27 14:46:45.750	WT901BLE68-01(48591DE3C19B)	-0.474	-0.999	0.239	-26.428	14.099	-148.010	-84.30	-9.60	-30.68	-40.376	-64.974	26.754	-0.77402	0.58127	-0.25067	-0.01041	29.7	13111	100
2025-3-27 14:46:45.750	WT901BLE68-01(48591DE3C19B)	-0.510	-0.999	0.239	-26.428	14.099	-148.010	-84.51	-10.88	-30.87	-40.376	-64.974	26.754	-0.77402	0.58127	-0.25067	-0.01041	29.7	13111	100
2025-3-27 14:46:45.750	WT901BLE68-01(48591DE3C19B)	-0.510	-1.009	0.229	-27.649	2.502	-133.301	-84.73	-12.08	-30.98	-18.326	-27.146	35.182	-0.77402	0.58127	-0.25067	-0.01041	29.7	13111	100
2025-3-27 14:46:45.750	WT901BLE68-01(48591DE3C19B)	-0.531	-1.009	0.229	-27.649	2.502	-133.301	-84.97	-13.21	-31.01	-18.326	-27.146	35.182	-0.77402	0.58127	-0.25067	-0.01041	29.7	13111	100
2025-3-27 14:46:45.779	WT901BLE68-01(48591DE3C19B)	-0.531	-1.025	0.245	-26.245	-11.658	-117.920	-85.22	-14.25	-30.96	-18.326	-27.146	35.182	-0.77402	0.58127	-0.25067	-0.01041	29.7	13111	100
2025-3-27 14:46:45.779	WT901BLE68-01(48591DE3C19B)	-0.506	-1.025	0.245	-26.245	-11.658	-117.920	-85.48	-15.22	-30.84	-18.326	-27.146	35.182	-0.77402	0.58127	-0.25067	-0.01041	29.7	13111	100
2025-3-27 14:46:45.779	WT901BLE68-01(48591DE3C19B)	-0.506	-1.009	0.298	-22.217	-17.883	-99.487	-85.73	-16.08	-30.67	-18.326	-27.146	35.182	-0.77402	0.58127	-0.25067	-0.01041	29.7	13111	100
2025-3-27 14:46:45.780	WT901BLE68-01(48591DE3C19B)	-0.463	-1.009	0.298	-22.217	-17.883	-99.487	-85.97	-16.85	-30.46	-18.326	-27.146	35.182	-0.77402	0.58127	-0.25067	-0.01041	29.7	13111	100
2025-3-27 14:46:45.810	WT901BLE68-01(48591DE3C19B)	-0.463	-0.946	0.301	-18.066	-12.512	-78.735	-86.18	-17.51	-30.27	-18.326	-27.146	35.182	-0.77402	0.58127	-0.25067	-0.01041	29.7	13111	100
2025-3-27 14:46:45.810	WT901BLE68-01(48591DE3C19B)	-0.411	-0.946	0.301	-18.066	-12.512	-78.735	-86.36	-18.06	-30.10	-18.326	-27.146	35.182	-0.77402	0.58127	-0.25067	-0.01041	29.7	13111	100
2025-3-27 14:46:45.810	WT901BLE68-01(48591DE3C19B)	-0.411	-0.857	0.291	-12.390	1.221	-56.641	-86.50	-18.49	-30.00	-18.326	-27.146	35.182	-0.77402	0.58127	-0.25067	-0.01041	29.7	13111	100
2025-3-27 14:46:45.810	WT901BLE68-01(48591DE3C19B)	-0.386	-0.857	0.291	-12.390	1.221	-56.641	-86.57	-18.80	-29.96	-18.326	-27.146	35.182	-0.77402	0.58127	-0.25067	-0.01041	29.7	13111	100
2025-3-27 14:46:45.840	WT901BLE68-01(48591DE3C19B)	-0.386	-0.771	0.292	-9.277	13.184	-36.072	-86.61	-19.01	-29.99	-18.326	-27.146	35.182	-0.77402	0.58127	-0.25067	-0.01041	29.7	13111	100
2025-3-27 14:46:45.840	WT901BLE68-01(48591DE3C19B)	-0.412	-0.771	0.292	-9.277	13.184	-36.072	-86.62	-19.11	-30.07	-18.326	-27.146	35.182	-0.77402	0.58127	-0.25067	-0.01041	29.7	13111	100
2025-3-27 14:46:45.840	WT901BLE68-01(48591DE3C19B)	-0.412	-0.772	0.313	-14.404	13.306	-18.005	-86.64	-19.11	-30.15	-18.326	-27.146	35.182	-0.77402	0.58127	-0.25067	-0.01041	29.7	13111	100
2025-3-27 14:46:45.840	WT901BLE68-01(48591DE3C19B)	-0.440	-0.772	0.313	-14.404	13.306	-18.005	-86.70	-19.02	-30.23	-18.326	-27.146	35.182	-0.77402	0.58127	-0.25067	-0.01041	29.7	13111	100
2025-3-27 14:46:45.901	WT901BLE68-01(48591DE3C19B)	-0.440	-0.869	0.353	-16.357	10.559	-2.014	-86.76	-18.85	-30.28	-18.326	-27.146	35.182	-0.77402	0.58127	-0.25067	-0.01041	29.7	13111	100
2025-3-27 14:46:45.901	WT901BLE68-01(48591DE3C19B)	-0.490	-0.869	0.353	-16.357	10.559	-2.014	-86.84	-18.61	-30.32	-18.326	-27.146	35.182	-0.77402	0.58127	-0.25067	-0.01041	29.7	13111	100
2025-3-27 14:46:45.901	WT901BLE68-01(48591DE3C19B)	-0.490	-0.957	0.384	-8.972	8.850	12.939	-86.89	-18.29	-30.34	-18.326	-27.146	35.182	-0.77402	0.58127	-0.25067	-0.01041	29.7	13111	100
2025-3-27 14:46:45.901	WT901BLE68-01(48591DE3C19B)	-0.519	-0.957	0.384	-8.972	8.850	12.939	-86.90	-17.90	-30.35	-18.326	-27.146	35.182	-0.77402	0.58127	-0.25067	-0.01041	29.7	13111	100
2025-3-27 14:46:45.930	WT901BLE68-01(48591DE3C19B)	-0.519	-1.032	0.371	-6.714	6.958	26.672	-86.90	-17.44	-30.34	-18.326	-27.146	35.182	-0.77402	0.58127	-0.25067	-0.01041	29.7	13111	100
2025-3-27 14:46:45.930	WT901BLE68-01(48591DE3C19B)	-0.537	-1.032	0.371	-6.714	6.958	26.672	-86.89	-16.91	-30.33	-18.326	-27.146	35.182	-0.77402	0.58127	-0.25067	-0.01041	29.7	13111	100
2025-3-27 14:46:45.930	WT901BLE68-01(48591DE3C19B)	-0.537	-1.187	0.358	-2.563	7.629	41.199	-86.86	-16.32	-30.31	-18.326	-27.146	35.182	-0.77402	0.58127	-0.25067	-0.01041	29.7	13111	100
2025-3-27 14:46:45.930	WT901BLE68-01(48591DE3C19B)	-0.559	-1.187	0.358	-2.563	7.629	41.199	-86.82	-15.66	-30.28	-18.326	-27.146	35.182	-0.67020	0.68301	-0.08228	0.27832	29.7	13111	100
2025-3-27 14:46:46.20	WT901BLE68-01(48591DE3C19B)	-0.559	-1.277	0.370	9.094	1.953	58.289	-86.73	-14.92	-30.22	-18.326	-27.146	35.182	-0.67020	0.68301	-0.08228	0.27832	29.7	13111	100
2025-3-27 14:46:46.21	WT901BLE68-01(48591DE3C19B)	-0.554	-1.277	0.370	9.094	1.953	58.289	-86.59	-14.10	-30.12	-18.326	-27.146	35.182	-0.67020	0.68301	-0.08228	0.27832	29.7	13111	100
2025-3-27 14:46:46.21	WT901BLE68-01(48591DE3C19B)	-0.554	-1.404	0.406	7.324	-12.878	79.468	-86.48	-13.18	-29.94	-18.326	-27.146	35.182	-0.67020	0.68301	-0.08228	0.27832	29.7	13111	100
2025-3-27 14:46:46.21	WT901BLE68-01(48591DE3C19B)	-0.524	-1.404	0.406	7.324	-12.878	79.468	-86.40	-12.18	-29.67	-18.326	-27.146	35.182	-0.67020	0.68301	-0.08228	0.27832	29.7	13111	100
2025-3-27 14:46:46.21	WT901BLE68-01(48591DE3C19B)	-0.524	-1.560	0.424	18.616	-22.888	103.394	-86.26	-11.06	-29.35	-18.326	-27.146	35.182	-0.67020	0.68301	-0.08228	0.27832	29.7	13111	100
2025-3-27 14:46:46.21	WT901BLE68-01(48591DE3C19B)	-0.414	-1.560	0.424	18.616	-22.888	103.394	-86.08	-9.84	-28.97	-18.326	-27.146	35.182	-0.67020	0.68301	-0.08228	0.27832	29.7	13111	100
2025-3-27 14:46:46.21	WT901BLE68-01(48591DE3C19B)	-0.414	-1.294	0.410	50.537	-18.921	129.272	-85.57	-8.38	-28.60	-18.326	-27.146	35.182	-0.67020	0.68301	-0.08228	0.27832	29.7	13111	100
2025-3-27 14:46:46.21	WT901BLE68-01(48591DE3C19B)	-0.337	-1.294	0.410	50.537	-18.921	129.272	-85.06	-6.93	-28.22	-18.326	-27.146	35.182	-0.67020	0.68301	-0.08228	0.27832	29.7	13111	100
2025-3-27 14:46:46.50	WT901BLE68-01(48591DE3C19B)	-0.337	-0.952	0.347	51.086	-7.751	160.706	-84.52	-5.16	-27.92	-18.326	-27.146	35.182	-0.67020	0.68301	-0.08228	0.27832	29.7	13111	100
2025-3-27 14:46:46.50	WT901BLE68-01(48591DE3C19B)	-0.373	-0.952	0.347	51.086	-7.751	160.706	-83.98	-3.42	-27.59	-18.326	-27.146	35.182	-0.67020	0.68301	-0.08228	0.27832	29.7	13111	100
2025-3-27 14:46:46.50	WT901BLE68-01(48591DE3C19B)	-0.373	-0.920	0.244	33.203	-14.099	187.317	-83.62	-1.43	-27.16	-18.326	-27.146	35.182	-0.67020	0.68301	-0.08228	0.27832	29.7	13111	100
2025-3-27 14:46:46.50	WT901BLE68-01(48591DE3C19B)	-0.414	-0.920	0.244	33.203	-14.099	187.317	-83.25	0.54	-26.72	-18.326	-27.146	35.182	-0.67020	0.68301	-0.08228	0.27832	29.7	13111	100
2025-3-27 14:46:46.111	WT901BLE68-01(48591DE3C19B)	-0.414	-1.089	0.167	19.104	-41.016	206.604	-83.00	2.66	-25.97	-18.326	-27.146	35.182	-0.67020	0.68301	-0.08228	0.27832	29.7	13111	100
2025-3-27 14:46:46.111	WT901BLE68-01(48591DE3C19B)	-0.443	-1.089	0.167	19.104	-41.016	206.604	-82.73	4.77	-25.21	-18.326	-27.146	35.182	-0.67020	0.68301	-0.08228	0.27832	29.7	13111	100
2025-3-27 14:46:46.111	WT901BLE68-01(48591DE3C19B)	-0.443	-1.304	0.092	15.564	-77.454	218.323	-82.44	6.93	-24.06	-18.326	-27.146	35.182	-0.67020	0.68301	-0.08228	0.27832	29.7	13111	100
2025-3-27 14:46:46.111	WT901BLE68-01(48591DE3C19B)	-0.463	-1.304	0.092	15.564	-77.454	218.323	-82.12	9.06	-22.90	-18.326	-27.146	35.182	-0.67020	0.68301	-0.08228	0.27832	29.7	13111	100
2025-3-27 14:46:46.142	WT901BLE68-01(48591DE3C19B)	-0.463	-1.566	0.028	19.714	-118.469	224.915	-81.63	11.18	-21.31	-18.326	-32.830	34.104	-0.67020	0.68301	-0.08228	0.27832	29.7	13111	100
2025-3-27 14:46:46.142	WT901BLE68-01(48591DE3C19B)	-0.441	-1.566	0.028	19.714	-118.469	224.915	-81.11	13.27	-19.70	-18.326	-32.830	34.104	-0.67020	0.68301	-0.08228	0.27832	29.7	13111	100
2025-3-27 14:46:46.142	WT901BLE68-01(48591DE3C19B)	-0.441	-1.763	0.020	39.246	-153.564	225.891	-80.24	15.28	-17.71	-18.326	-32.830	34.104	-0.67020	0.68301	-0.08228	0.27832	29.7	13111	100
2025-3-27 14:46:46.142	WT901BLE68-01(48591DE3C19B)	-0.385	-1.763	0.020	39.246	-153.564	225.891	-79.30	17.24	-15.69	-18.326	-32.830	34.104	-0.67020	0.68301	-0.08228	0.27832	29.7	13111	100
2025-3-27 14:46:46.172	WT901BLE68-01(48591DE3C19B)	-0.385	-1.729	0.061	57.373	-173.279	218.872	-78.05	19.04	-13.45	-18.326	-32.830	34.104	-0.67020	0.68301	-0.08228	0.27832	29.7	13111	100
2025-3-27 14:46:46.172	WT901BLE68-01(48591DE3C19B)	-0.314	-1.729	0.061	57.373	-173.279	218.872	-76.73	20.78	-11.16	-18.326	-32.830	34.104	-0.67020	0.68301	-0.08228	0.27832	29.7	13111	100
2025-3-27 14:46:46.172	WT901BLE68-01(48591DE3C19B)	-0.314	-1.626	0.125	65.552	-171.204	210.144	-75.27	22.37	-8.88	-18.326	-32.830	34.104	-0.67020	0.68301	-0.08228	0.27832	29.7	13111	100
2025-3-27 14:46:46.172	WT901BLE68-01(48591DE3C19B)	-0.275	-1.626	0.125	65.552	-171.204	210.144	-73.73	23.90	-6.56	-18.326	-32.830	34.104	-0.67020	0.68301	-0.08228	0.27832	29.7	13111	100
2025-3-27 14:46:46.231	WT901BLE68-01(48591DE3C19B)	-0.275	-1.536	0.180	68.787	-155.090	199.646	-72.17	25.31	-4.40	-18.326	-32.830	34.104	-0.67020	0.68301	-0.08228	0.27832	29.7	13111	100
2025-3-27 14:46:46.232	WT901BLE68-01(48591DE3C19B)	-0.211	-1.536	0.180	68.787	-155.090	199.646	-70.55	26.65	-2.21	-18.326	-32.830	34.104	-0.67020	0.68301	-0.08228	0.27832	29.7	13111	100
2025-3-27 14:46:46.232	WT901BLE68-01(48591DE3C19B)	-0.211	-1.426	0.190	72.388	-123.657	192.566	-68.99	27.97	-0.35	-18.326	-32.830	34.104	-0.67020	0.68301	-0.08228	0.27832	29.7	13111	100
2025-3-27 14:46:46.232	WT901BLE68-01(48591DE3C19B)	-0.165	-1.426	0.190	72.388	-123.657	192.566	-67.38	29.24	1.54	-18.326	-32.830	34.104	-0.67020	0.68301	-0.08228	0.27832	29.7	13111	100
2025-3-27 14:46:46.260	WT901BLE68-01(48591DE3C19B)	-0.165	-1.346	0.161	69.397	-80.750	186.829	-65.97	30.57	2.99	-18.326	-32.830	34.104	-0.67020	0.68301	-0.08228	0.27832	29.7	13111	100
2025-3-27 14:46:46.260	WT901BLE68-01(48591DE3C19B)	-0.148	-1.346	0.161	69.397	-80.750	186.829	-64.52	31.87	4.46	-18.326	-32.830	34.104	-0.67020	0.68301	-0.08228	0.27832	29.7	13111	100
2025-3-27 14:46:46.261	WT901BLE68-01(48591DE3C19B)	-0.148	-1.255	0.128	69.763	-37.415	181.885	-63.28	33.27	5.48	-18.326	-32.830	34.104	-0.67020	0.68301	-0.08228	0.27832	29.7	13111	100
2025-3-27 14:46:46.261	WT901BLE68-01(48591DE3C19B)	-0.191	-1.255	0.128	69.763	-37.415	181.885	-61.99	34.64	6.54	-18.326	-32.830	34.104	-0.67020	0.68301	-0.08228	0.27832	29.7	13111	100
2025-3-27 14:46:46.293	WT901BLE68-01(48591DE3C19B)	-0.191	-1.169	0.087	69.336	-7.507	177.368	-60.86	36.09	7.28	-18.326	-32.830	34.104	-0.67020	0.68301	-0.08228	0.27832	29.7	13111	100
2025-3-27 14:46:46.293	WT901BLE68-01(48591DE3C19B)	-0.204	-1.169	0.087	69.336	-7.507	177.368	-59.69	37.52	8.07	-18.326	-32.830	34.104	-0.67020	0.68301	-0.08228	0.27832	29.7	13111	100
2025-3-27 14:46:46.293	WT901BLE68-01(48591DE3C19B)	-0.204	-1.084	0.033	67.627	9.216	172.791	-58.63	38.97	8.68	-18.326	-32.830	34.104	-0.67020	0.68301	-0.08228	0.27832	29.7	13111	100
2025-3-27 14:46:46.294	WT901BLE68-01(48591DE3C19B)	-0.230	-1.084	0.033	67.627	9.216	172.791	-57.53	40.41	9.34	-18.326	-32.830	34.104	-0.67020	0.68301	-0.08228	0.27832	29.7	13111	100
2025-3-27 14:46:46.351	WT901BLE68-01(48591DE3C19B)	-0.230	-1.027	-0.012	65.125	15.869	167.419	-56.49	41.82	9.93	-18.326	-32.830	34.104	-0.67020	0.68301	-0.08228	0.27832	29.7	13111	100
2025-3-27 14:46:46.351	WT901BLE68-01(48591DE3C19B)	-0.262	-1.027	-0.012	65.125	15.869	167.419	-55.40	43.23	10.56	-18.326	-32.830	34.104	-0.80316	0.45688	-0.28943	-0.24960	29.7	13111	100
2025-3-27 14:46:46.351	WT901BLE68-01(48591DE3C19B)	-0.262	-0.985	-0.017	60.730	9.155	161.133	-54.31	44.52	11.27	-18.326	-32.830	34.104	-0.80316	0.45688	-0.28943	-0.24960	29.7	13111	100
2025-3-27 14:46:46.351	WT901BLE68-01(48591DE3C19B)	-0.268	-0.985	-0.017	60.730	9.155	161.133	-53.16	45.79	12.04	-18.326	-32.830	34.104	-0.80316	0.45688	-0.28943	-0.24960	29.7	13111	100
2025-3-27 14:46:46.380	WT901BLE68-01(48591DE3C19B)	-0.268	-0.981	0.005	55.847	-5.859	153.564	-51.94	46.90	12.95	-18.326	-32.830	34.104	-0.80316	0.45688	-0.28943	-0.24960	29.7	13111	100
2025-3-27 14:46:46.380	WT901BLE68-01(48591DE3C19B)	-0.200	-0.981	0.005	55.847	-5.859	153.564	-50.67	47.98	13.93	-18.326	-32.830	34.104	-0.80316	0.45688	-0.28943	-0.24960	29.7	13111	100
2025-3-27 14:46:46.380	WT901BLE68-01(48591DE3C19B)	-0.200	-0.908	0.051	58.716	-18.250	145.203	-49.27	48.90	15.01	-18.326	-32.830	34.104	-0.80316	0.45688	-0.28943	-0.24960	29.7	13111	100
2025-3-27 14:46:46.381	WT901BLE68-01(48591DE3C19B)	-0.082	-0.908	0.051	58.716	-18.250	145.203	-47.83	49.80	16.13	-18.326	-32.830	34.104	-0.80316	0.45688	-0.28943	-0.24960	29.7	13111	100
2025-3-27 14:46:46.411	WT901BLE68-01(48591DE3C19B)	-0.082	-0.777	0.063	50.903	-19.348	136.230	-46.49	50.60	17.22	-18.326	-32.830	34.104	-0.80316	0.45688	-0.28943	-0.24960	29.7	13111	100
2025-3-27 14:46:46.411	WT901BLE68-01(48591DE3C19B)	0.056	-0.777	0.063	50.903	-19.348	136.230	-45.10	51.38	18.34	-18.326	-32.830	34.104	-0.80316	0.45688	-0.28943	-0.24960	29.7	13111	100
2025-3-27 14:46:46.411	WT901BLE68-01(48591DE3C19B)	0.056	-0.788	0.060	38.269	-5.066	122.864	-44.06	52.15	19.18	-18.326	-32.830	34.104	-0.80316	0.45688	-0.28943	-0.24960	29.7	13111	100
2025-3-27 14:46:46.411	WT901BLE68-01(48591DE3C19B)	0.097	-0.788	0.060	38.269	-5.066	122.864	-42.98	52.90	20.03	-18.326	-32.830	34.104	-0.80316	0.45688	-0.28943	-0.24960	29.7	13111	100
2025-3-27 14:46:46.470	WT901BLE68-01(48591DE3C19B)	0.097	-0.806	0.079	36.560	16.602	100.037	-42.33	53.65	20.37	-18.326	-32.830	34.104	-0.80316	0.45688	-0.28943	-0.24960	29.7	13111	100
2025-3-27 14:46:46.470	WT901BLE68-01(48591DE3C19B)	0.028	-0.806	0.079	36.560	16.602	100.037	-41.66	54.38	20.72	-18.326	-32.830	34.104	-0.80316	0.45688	-0.28943	-0.24960	29.7	13111	100
2025-3-27 14:46:46.471	WT901BLE68-01(48591DE3C19B)	-0.040	-0.793	0.150	28.748	32.776	72.632	-41.50	55.05	20.53	-18.326	-32.830	34.104	-0.80316	0.45688	-0.28943	-0.24960	29.7	13111	100
2025-3-27 14:46:46.471	WT901BLE68-01(48591DE3C19B)	-0.040	-0.852	0.195	12.024	44.373	44.495	-41.64	55.67	20.08	-18.326	-32.830	34.104	-0.80316	0.45688	-0.28943	-0.24960	29.7	13111	100
2025-3-27 14:46:46.502	WT901BLE68-01(48591DE3C19B)	-0.096	-0.852	0.195	12.024	44.373	44.495	-42.08	56.23	19.35	-18.326	-32.830	34.104	-0.80316	0.45688	-0.28943	-0.24960	29.7	13111	100
2025-3-27 14:46:46.502	WT901BLE68-01(48591DE3C19B)	-0.096	-0.918	0.207	-1.221	55.908	9.216	-42.85	56.70	18.30	-18.326	-32.830	34.104	-0.80316	0.45688	-0.28943	-0.24960	29.7	13111	100
2025-3-27 14:46:46.502	WT901BLE68-01(48591DE3C19B)	-0.158	-0.918	0.207	-1.221	55.908	9.216	-43.96	57.08	16.92	-18.326	-32.830	34.104	-0.80316	0.45688	-0.28943	-0.24960	29.7	13111	100
2025-3-27 14:46:46.502	WT901BLE68-01(48591DE3C19B)	-0.158	-0.985	0.209	-13.733	58.960	-27.710	-45.37	57.33	15.25	-18.326	-32.830	34.104	-0.80316	0.45688	-0.28943	-0.24960	29.7	13111	100
2025-3-27 14:46:46.531	WT901BLE68-01(48591DE3C19B)	-0.233	-0.985	0.209	-13.733	58.960	-27.710	-47.07	57.44	13.32	-18.326	-32.830	34.104	-0.80316	0.45688	-0.28943	-0.24960	29.7	13111	100
2025-3-27 14:46:46.531	WT901BLE68-01(48591DE3C19B)	-0.233	-0.994	0.249	-20.752	40.344	-66.040	-48.88	57.30	11.28	-18.326	-32.830	34.104	-0.80316	0.45688	-0.28943	-0.24960	29.7	13111	100
2025-3-27 14:46:46.531	WT901BLE68-01(48591DE3C19B)	-0.208	-0.994	0.249	-20.752	40.344	-66.040	-50.77	56.93	9.19	-54.292	-69.678	32.634	-0.80316	0.45688	-0.28943	-0.24960	29.7	13111	100
2025-3-27 14:46:46.531	WT901BLE68-01(48591DE3C19B)	-0.208	-1.068	0.206	-34.912	18.250	-101.318	-52.69	56.32	7.12	-54.292	-69.678	32.634	-0.80316	0.45688	-0.28943	-0.24960	29.7	13111	100
2025-3-27 14:46:46.593	WT901BLE68-01(48591DE3C19B)	-0.185	-1.068	0.206	-34.912	18.250	-101.318	-54.62	55.46	5.10	-54.292	-69.678	32.634	-0.80316	0.45688	-0.28943	-0.24960	29.7	13111	100
2025-3-27 14:46:46.593	WT901BLE68-01(48591DE3C19B)	-0.185	-1.108	0.184	-34.058	7.690	-137.024	-56.52	54.40	3.10	-54.292	-69.678	32.634	-0.80316	0.45688	-0.28943	-0.24960	29.7	13111	100
2025-3-27 14:46:46.593	WT901BLE68-01(48591DE3C19B)	-0.220	-1.108	0.184	-34.058	7.690	-137.024	-58.36	53.14	1.14	-54.292	-69.678	32.634	-0.80316	0.45688	-0.28943	-0.24960	29.7	13111	100
2025-3-27 14:46:46.594	WT901BLE68-01(48591DE3C19B)	-0.220	-0.962	0.213	-33.203	6.958	-162.964	-60.14	51.73	-0.79	-54.292	-69.678	32.634	-0.80316	0.45688	-0.28943	-0.24960	29.7	13111	100
2025-3-27 14:46:46.621	WT901BLE68-01(48591DE3C19B)	-0.241	-0.962	0.213	-33.203	6.958	-162.964	-61.85	50.18	-2.67	-54.292	-69.678	32.634	-0.80316	0.45688	-0.28943	-0.24960	29.7	13111	100
2025-3-27 14:46:46.621	WT901BLE68-01(48591DE3C19B)	-0.241	-0.919	0.238	-46.631	4.028	-180.969	-63.52	48.52	-4.45	-54.292	-69.678	32.634	-0.80316	0.45688	-0.28943	-0.24960	29.7	13111	100
2025-3-27 14:46:46.621	WT901BLE68-01(48591DE3C19B)	-0.206	-0.919	0.238	-46.631	4.028	-180.969	-65.14	46.75	-6.14	-54.292	-69.678	32.634	-0.80316	0.45688	-0.28943	-0.24960	29.7	13111	100
2025-3-27 14:46:46.621	WT901BLE68-01(48591DE3C19B)	-0.206	-0.942	0.258	-54.382	4.028	-196.167	-66.70	44.90	-7.73	-54.292	-69.678	32.634	-0.80316	0.45688	-0.28943	-0.24960	29.7	13111	100
2025-3-27 14:46:46.650	WT901BLE68-01(48591DE3C19B)	-0.200	-0.942	0.258	-54.382	4.028	-196.167	-68.21	42.95	-9.23	-54.292	-69.678	32.634	-0.80316	0.45688	-0.28943	-0.24960	29.7	13111	100
2025-3-27 14:46:46.650	WT901BLE68-01(48591DE3C19B)	-0.200	-0.981	0.246	-61.035	10.925	-204.285	-69.66	40.97	-10.68	-54.292	-69.678	32.634	-0.80316	0.45688	-0.28943	-0.24960	29.7	13111	100
2025-3-27 14:46:46.650	WT901BLE68-01(48591DE3C19B)	-0.195	-0.981	0.246	-61.035	10.925	-204.285	-71.08	38.94	-12.07	-54.292	-69.678	32.634	-0.80316	0.45688	-0.28943	-0.24960	29.7	13111	100
2025-3-27 14:46:46.651	WT901BLE68-01(48591DE3C19B)	-0.195	-1.106	0.206	-72.144	14.526	-211.487	-72.47	36.88	-13.39	-54.292	-69.678	32.634	-0.80316	0.45688	-0.28943	-0.24960	29.7	13111	100
2025-3-27 14:46:46.711	WT901BLE68-01(48591DE3C19B)	-0.157	-1.106	0.206	-72.144	14.526	-211.487	-73.83	34.77	-14.63	-54.292	-69.678	32.634	-0.80316	0.45688	-0.28943	-0.24960	29.7	13111	100
2025-3-27 14:46:46.711	WT901BLE68-01(48591DE3C19B)	-0.157	-1.300	0.175	-78.491	22.583	-219.604	-75.17	32.62	-15.84	-54.292	-69.678	32.634	-0.80316	0.45688	-0.28943	-0.24960	29.7	13111	100
2025-3-27 14:46:46.711	WT901BLE68-01(48591DE3C19B)	-0.201	-1.300	0.175	-78.491	22.583	-219.604	-76.49	30.44	-17.00	-54.292	-69.678	32.634	-0.80316	0.45688	-0.28943	-0.24960	29.7	13111	100
2025-3-27 14:46:46.711	WT901BLE68-01(48591DE3C19B)	-0.201	-1.484	0.166	-75.256	39.856	-227.844	-77.77	28.22	-18.18	-54.292	-69.678	32.634	-0.80316	0.45688	-0.28943	-0.24960	29.7	13111	100
2025-3-27 14:46:46.771	WT901BLE68-01(48591DE3C19B)	-0.318	-1.484	0.166	-75.256	39.856	-227.844	-79.00	25.97	-19.37	-54.292	-69.678	32.634	-0.80316	0.45688	-0.28943	-0.24960	29.7	13111	100
2025-3-27 14:46:46.771	WT901BLE68-01(48591DE3C19B)	-0.318	-1.563	0.184	-67.444	52.734	-237.122	-80.15	23.69	-20.55	-54.292	-69.678	32.634	-0.80316	0.45688	-0.28943	-0.24960	29.7	13111	100
2025-3-27 14:46:46.771	WT901BLE68-01(48591DE3C19B)	-0.405	-1.563	0.184	-67.444	52.734	-237.122	-81.22	21.36	-21.72	-54.292	-69.678	32.634	-0.80316	0.45688	-0.28943	-0.24960	29.7	13111	100
2025-3-27 14:46:46.772	WT901BLE68-01(48591DE3C19B)	-0.405	-1.492	0.226	-60.974	56.824	-243.164	-82.20	19.00	-22.84	-54.292	-69.678	32.634	-0.74994	0.61087	-0.25031	0.04077	29.7	13111	100
2025-3-27 14:46:46.773	WT901BLE68-01(48591DE3C19B)	-0.428	-1.492	0.226	-60.974	56.824	-243.164	-83.09	16.62	-23.90	-54.292	-69.678	32.634	-0.74994	0.61087	-0.25031	0.04077	29.7	13111	100
2025-3-27 14:46:46.773	WT901BLE68-01(48591DE3C19B)	-0.214	-1.387	0.242	-62.073	55.664	-241.516	-83.92	14.25	-24.89	-54.292	-69.678	32.634	-0.74994	0.61087	-0.25031	0.04077	29.7	13111	100
2025-3-27 14:46:46.773	WT901BLE68-01(48591DE3C19B)	-0.441	-0.693	0.121	-62.073	55.664	-241.516	-84.70	11.90	-25.81	-54.292	-69.678	32.634	-0.74994	0.61087	-0.25031	0.04077	29.7	13111	100
2025-3-27 14:46:46.773	WT901BLE68-01(48591DE3C19B)	-0.441	-1.328	0.237	-62.256	50.781	-234.314	-85.44	9.58	-26.64	-54.292	-69.678	32.634	-0.74994	0.61087	-0.25031	0.04077	29.7	13111	100
2025-3-27 14:46:46.831	WT901BLE68-01(48591DE3C19B)	-0.449	-1.328	0.237	-62.256	50.781	-234.314	-86.13	7.31	-27.39	-54.292	-69.678	32.634	-0.74994	0.61087	-0.25031	0.04077	29.7	13111	100
2025-3-27 14:46:46.831	WT901BLE68-01(48591DE3C19B)	-0.449	-1.276	0.255	-61.707	38.330	-228.394	-86.78	5.07	-28.03	-54.292	-69.678	32.634	-0.74994	0.61087	-0.25031	0.04077	29.7	13111	100
2025-3-27 14:46:46.831	WT901BLE68-01(48591DE3C19B)	-0.420	-1.276	0.255	-61.707	38.330	-228.394	-87.38	2.87	-28.56	-54.292	-69.678	32.634	-0.74994	0.61087	-0.25031	0.04077	29.7	13111	100
2025-3-27 14:46:46.831	WT901BLE68-01(48591DE3C19B)	-0.420	-1.275	0.256	-66.406	27.588	-220.337	-87.99	0.71	-28.99	-54.292	-69.678	32.634	-0.74994	0.61087	-0.25031	0.04077	29.7	13111	100
2025-3-27 14:46:46.893	WT901BLE68-01(48591DE3C19B)	-0.401	-1.275	0.256	-66.406	27.588	-220.337	-88.60	-1.38	-29.34	-54.292	-69.678	32.634	-0.74994	0.61087	-0.25031	0.04077	29.7	13111	100
2025-3-27 14:46:46.893	WT901BLE68-01(48591DE3C19B)	-0.401	-1.313	0.249	-64.331	30.823	-208.069	-89.19	-3.41	-29.67	-54.292	-69.678	32.634	-0.74994	0.61087	-0.25031	0.04077	29.7	13111	100
2025-3-27 14:46:46.893	WT901BLE68-01(48591DE3C19B)	-0.437	-1.313	0.249	-64.331	30.823	-208.069	-89.75	-5.36	-30.00	-54.292	-69.678	32.634	-0.74994	0.61087	-0.25031	0.04077	29.7	13111	100
2025-3-27 14:46:46.893	WT901BLE68-01(48591DE3C19B)	-0.437	-1.322	0.263	-57.129	38.330	-194.153	-90.26	-7.24	-30.33	-54.292	-69.678	32.634	-0.74994	0.61087	-0.25031	0.04077	29.7	13111	100
2025-3-27 14:46:46.893	WT901BLE68-01(48591DE3C19B)	-0.459	-1.322	0.263	-57.129	38.330	-194.153	-90.72	-9.04	-30.68	-54.292	-69.678	32.634	-0.74994	0.61087	-0.25031	0.04077	29.7	13111	100
2025-3-27 14:46:46.893	WT901BLE68-01(48591DE3C19B)	-0.459	-1.302	0.279	-51.514	46.692	-177.795	-91.13	-10.74	-31.06	-54.292	-69.678	32.634	-0.74994	0.61087	-0.25031	0.04077	29.7	13111	100
2025-3-27 14:46:46.893	WT901BLE68-01(48591DE3C19B)	-0.459	-1.302	0.279	-51.514	46.692	-177.795	-91.50	-12.37	-31.47	-54.292	-69.678	32.634	-0.74994	0.61087	-0.25031	0.04077	29.7	13111	100
2025-3-27 14:46:46.894	WT901BLE68-01(48591DE3C19B)	-0.459	-1.288	0.292	-45.532	56.396	-159.302	-91.81	-13.88	-31.92	-54.292	-69.678	32.634	-0.74994	0.61087	-0.25031	0.04077	29.7	13111	100
2025-3-27 14:46:46.951	WT901BLE68-01(48591DE3C19B)	-0.441	-1.288	0.292	-45.532	56.396	-159.302	-92.07	-15.30	-32.40	-54.292	-69.678	32.634	-0.74994	0.61087	-0.25031	0.04077	29.7	13111	100
2025-3-27 14:46:46.951	WT901BLE68-01(48591DE3C19B)	-0.441	-1.264	0.308	-36.804	68.726	-140.381	-92.19	-16.52	-33.02	-21.364	-29.008	31.164	-0.74994	0.61087	-0.25031	0.04077	29.7	13111	100
2025-3-27 14:46:46.951	WT901BLE68-01(48591DE3C19B)	-0.443	-1.264	0.308	-36.804	68.726	-140.381	-92.30	-17.74	-33.64	-21.364	-29.008	31.164	-0.74994	0.61087	-0.25031	0.04077	29.7	13111	100
2025-3-27 14:46:46.951	WT901BLE68-01(48591DE3C19B)	-0.443	-1.191	0.322	-25.146	83.801	-120.972	-92.22	-18.76	-34.42	-21.364	-29.008	31.164	-0.74994	0.61087	-0.25031	0.04077	29.7	13111	100
2025-3-27 14:46:46.980	WT901BLE68-01(48591DE3C19B)	-0.479	-1.191	0.322	-25.146	83.801	-120.972	-92.14	-19.78	-35.21	-21.364	-29.008	31.164	-0.74994	0.61087	-0.25031	0.04077	29.7	13111	100
2025-3-27 14:46:46.981	WT901BLE68-01(48591DE3C19B)	-0.479	-1.062	0.353	-13.245	95.642	-101.074	-91.87	-20.59	-36.12	-21.364	-29.008	31.164	-0.74994	0.61087	-0.25031	0.04077	29.7	13111	100
2025-3-27 14:46:46.981	WT901BLE68-01(48591DE3C19B)	-0.518	-1.062	0.353	-13.245	95.642	-101.074	-91.59	-21.39	-37.04	-21.364	-29.008	31.164	-0.74994	0.61087	-0.25031	0.04077	29.7	13111	100
2025-3-27 14:46:46.981	WT901BLE68-01(48591DE3C19B)	-0.518	-0.914	0.368	-6.653	102.051	-81.421	-91.20	-21.98	-38.03	-21.364	-29.008	31.164	-0.74994	0.61087	-0.25031	0.04077	29.7	13111	100
2025-3-27 14:46:47.10	WT901BLE68-01(48591DE3C19B)	-0.571	-0.914	0.368	-6.653	102.051	-81.421	-90.80	-22.55	-39.03	-21.364	-29.008	31.164	-0.74994	0.61087	-0.25031	0.04077	29.7	13111	100
2025-3-27 14:46:47.10	WT901BLE68-01(48591DE3C19B)	-0.571	-0.845	0.386	-6.409	96.985	-63.354	-90.41	-22.93	-39.97	-21.364	-29.008	31.164	-0.74994	0.61087	-0.25031	0.04077	29.7	13111	100
2025-3-27 14:46:47.10	WT901BLE68-01(48591DE3C19B)	-0.648	-0.845	0.386	-6.409	96.985	-63.354	-90.02	-23.29	-40.91	-21.364	-29.008	31.164	-0.74994	0.61087	-0.25031	0.04077	29.7	13111	100
2025-3-27 14:46:47.10	WT901BLE68-01(48591DE3C19B)	-0.648	-0.849	0.404	-7.813	77.942	-46.509	-89.72	-23.47	-41.63	-21.364	-29.008	31.164	-0.74994	0.61087	-0.25031	0.04077	29.7	13111	100
2025-3-27 14:46:47.70	WT901BLE68-01(48591DE3C19B)	-0.729	-0.849	0.404	-7.813	77.942	-46.509	-89.42	-23.64	-42.35	-21.364	-29.008	31.164	-0.74994	0.61087	-0.25031	0.04077	29.7	13111	100
2025-3-27 14:46:47.70	WT901BLE68-01(48591DE3C19B)	-0.729	-0.896	0.394	-10.254	46.448	-29.297	-89.29	-23.63	-42.71	-21.364	-29.008	31.164	-0.74994	0.61087	-0.25031	0.04077	29.7	13111	100
2025-3-27 14:46:47.71	WT901BLE68-01(48591DE3C19B)	-0.789	-0.896	0.394	-10.254	46.448	-29.297	-89.17	-23.61	-43.07	-21.364	-29.008	31.164	-0.74994	0.61087	-0.25031	0.04077	29.7	13111	100
2025-3-27 14:46:47.71	WT901BLE68-01(48591DE3C19B)	-0.789	-0.998	0.375	-13.062	8.667	-10.193	-89.24	-23.40	-43.00	-21.364	-29.008	31.164	-0.74994	0.61087	-0.25031	0.04077	29.7	13111	100
2025-3-27 14:46:47.101	WT901BLE68-01(48591DE3C19B)	-0.796	-0.998	0.375	-13.062	8.667	-10.193	-89.31	-23.18	-42.93	-21.364	-29.008	31.164	-0.74994	0.61087	-0.25031	0.04077	29.7	13111	100
2025-3-27 14:46:47.101	WT901BLE68-01(48591DE3C19B)	-0.796	-1.118	0.355	-8.362	-20.630	13.977	-89.46	-22.73	-42.54	-21.364	-29.008	31.164	-0.74994	0.61087	-0.25031	0.04077	29.7	13111	100
2025-3-27 14:46:47.101	WT901BLE68-01(48591DE3C19B)	-0.756	-1.118	0.355	-8.362	-20.630	13.977	-89.62	-22.27	-42.14	-21.364	-29.008	31.164	-0.74994	0.61087	-0.25031	0.04077	29.7	13111	100
2025-3-27 14:46:47.101	WT901BLE68-01(48591DE3C19B)	-0.756	-1.098	0.327	2.808	-45.349	42.358	-89.75	-21.54	-41.49	-21.364	-29.008	31.164	-0.74994	0.61087	-0.25031	0.04077	29.7	13111	100
2025-3-27 14:46:47.131	WT901BLE68-01(48591DE3C19B)	-0.710	-1.098	0.327	2.808	-45.349	42.358	-89.88	-20.80	-40.84	-21.364	-29.008	31.164	-0.74994	0.61087	-0.25031	0.04077	29.7	13111	100
2025-3-27 14:46:47.131	WT901BLE68-01(48591DE3C19B)	-0.710	-1.169	0.357	-2.991	-74.402	74.097	-90.16	-19.75	-39.89	-21.364	-29.008	31.164	-0.74994	0.61087	-0.25031	0.04077	29.7	13111	100
2025-3-27 14:46:47.131	WT901BLE68-01(48591DE3C19B)	-0.587	-1.169	0.357	-2.991	-74.402	74.097	-90.42	-18.70	-38.96	-21.364	-29.008	31.164	-0.61682	0.69833	-0.12558	0.34052	29.7	13111	100
2025-3-27 14:46:47.131	WT901BLE68-01(48591DE3C19B)	-0.587	-1.314	0.394	6.531	-100.952	102.966	-90.65	-17.37	-37.77	-21.364	-29.008	31.164	-0.61682	0.69833	-0.12558	0.34052	29.7	13111	100
2025-3-27 14:46:47.193	WT901BLE68-01(48591DE3C19B)	-0.375	-1.314	0.394	6.531	-100.952	102.966	-90.84	-16.05	-36.60	-21.364	-29.008	31.164	-0.61682	0.69833	-0.12558	0.34052	29.7	13111	100
2025-3-27 14:46:47.193	WT901BLE68-01(48591DE3C19B)	-0.375	-1.225	0.379	28.870	-99.365	133.606	-90.76	-14.43	-35.47	-21.364	-29.008	31.164	-0.61682	0.69833	-0.12558	0.34052	29.7	13111	100
2025-3-27 14:46:47.193	WT901BLE68-01(48591DE3C19B)	-0.264	-1.225	0.379	28.870	-99.365	133.606	-90.65	-12.83	-34.35	-21.364	-29.008	31.164	-0.61682	0.69833	-0.12558	0.34052	29.7	13111	100
2025-3-27 14:46:47.193	WT901BLE68-01(48591DE3C19B)	-0.264	-1.078	0.303	40.588	-74.280	164.612	-90.34	-10.94	-33.51	-21.364	-29.008	31.164	-0.61682	0.69833	-0.12558	0.34052	29.7	13111	100
2025-3-27 14:46:47.221	WT901BLE68-01(48591DE3C19B)	-0.280	-1.078	0.303	40.588	-74.280	164.612	-89.99	-9.08	-32.68	-21.364	-29.008	31.164	-0.61682	0.69833	-0.12558	0.34052	29.7	13111	100
2025-3-27 14:46:47.221	WT901BLE68-01(48591DE3C19B)	-0.280	-1.075	0.221	42.908	-56.641	188.965	-89.58	-6.99	-32.02	-21.364	-29.008	31.164	-0.61682	0.69833	-0.12558	0.34052	29.7	13111	100
2025-3-27 14:46:47.221	WT901BLE68-01(48591DE3C19B)	-0.310	-1.075	0.221	42.908	-56.641	188.965	-89.14	-4.93	-31.35	-21.364	-29.008	31.164	-0.61682	0.69833	-0.12558	0.34052	29.7	13111	100
2025-3-27 14:46:47.221	WT901BLE68-01(48591DE3C19B)	-0.310	-1.191	0.160	40.833	-58.960	208.435	-88.71	-2.70	-30.65	-21.364	-29.008	31.164	-0.61682	0.69833	-0.12558	0.34052	29.7	13111	100
2025-3-27 14:46:47.250	WT901BLE68-01(48591DE3C19B)	-0.305	-1.191	0.160	40.833	-58.960	208.435	-88.26	-0.49	-29.95	-21.364	-29.008	31.164	-0.61682	0.69833	-0.12558	0.34052	29.7	13111	100
2025-3-27 14:46:47.250	WT901BLE68-01(48591DE3C19B)	-0.305	-1.345	0.103	41.443	-67.505	224.304	-87.78	1.85	-29.14	-21.364	-29.008	31.164	-0.61682	0.69833	-0.12558	0.34052	29.7	13111	100
2025-3-27 14:46:47.250	WT901BLE68-01(48591DE3C19B)	-0.338	-1.345	0.103	41.443	-67.505	224.304	-87.28	4.16	-28.32	-21.364	-29.008	31.164	-0.61682	0.69833	-0.12558	0.34052	29.7	13111	100
2025-3-27 14:46:47.250	WT901BLE68-01(48591DE3C19B)	-0.338	-1.546	0.094	48.340	-78.247	235.168	-86.66	6.55	-27.37	-21.364	-29.008	31.164	-0.61682	0.69833	-0.12558	0.34052	29.7	13111	100
2025-3-27 14:46:47.312	WT901BLE68-01(48591DE3C19B)	-0.390	-1.546	0.094	48.340	-78.247	235.168	-86.01	8.91	-26.41	-21.364	-29.008	31.164	-0.61682	0.69833	-0.12558	0.34052	29.7	13111	100
2025-3-27 14:46:47.312	WT901BLE68-01(48591DE3C19B)	-0.390	-1.758	0.204	62.439	-93.567	241.577	-85.16	11.28	-25.25	-21.364	-29.008	31.164	-0.61682	0.69833	-0.12558	0.34052	29.7	13111	100
2025-3-27 14:46:47.312	WT901BLE68-01(48591DE3C19B)	-0.344	-1.758	0.204	62.439	-93.567	241.577	-84.25	13.63	-24.07	-21.364	-29.008	31.164	-0.61682	0.69833	-0.12558	0.34052	29.7	13111	100
2025-3-27 14:46:47.312	WT901BLE68-01(48591DE3C19B)	-0.344	-1.957	0.264	77.820	-93.872	243.958	-83.14	15.95	-22.85	-21.364	-29.008	31.164	-0.61682	0.69833	-0.12558	0.34052	29.7	13111	100
2025-3-27 14:46:47.341	WT901BLE68-01(48591DE3C19B)	-0.221	-1.957	0.264	77.820	-93.872	243.958	-81.97	18.24	-21.58	-21.364	-29.008	31.164	-0.61682	0.69833	-0.12558	0.34052	29.7	13111	100
2025-3-27 14:46:47.341	WT901BLE68-01(48591DE3C19B)	-0.221	-1.824	0.262	103.882	-61.584	239.563	-80.60	20.48	-20.61	-21.364	-29.008	31.164	-0.61682	0.69833	-0.12558	0.34052	29.7	13111	100
2025-3-27 14:46:47.341	WT901BLE68-01(48591DE3C19B)	-0.224	-1.824	0.262	103.882	-61.584	239.563	-79.17	22.68	-19.59	-21.364	-29.008	31.164	-0.61682	0.69833	-0.12558	0.34052	29.7	13111	100
2025-3-27 14:46:47.341	WT901BLE68-01(48591DE3C19B)	-0.224	-1.532	0.230	102.783	-15.686	241.638	-77.89	24.95	-19.00	-27.342	-43.904	29.400	-0.61682	0.69833	-0.12558	0.34052	29.7	13111	100
2025-3-27 14:46:47.372	WT901BLE68-01(48591DE3C19B)	-0.245	-1.532	0.230	102.783	-15.686	241.638	-76.56	27.19	-18.35	-27.342	-43.904	29.400	-0.61682	0.69833	-0.12558	0.34052	29.7	13111	100
2025-3-27 14:46:47.372	WT901BLE68-01(48591DE3C19B)	-0.235	-1.423	0.186	88.135	17.456	238.586	-75.52	29.45	-18.03	-27.342	-43.904	29.400	-0.61682	0.69833	-0.12558	0.34052	29.7	13111	100
2025-3-27 14:46:47.372	WT901BLE68-01(48591DE3C19B)	-0.235	-1.306	0.162	78.613	33.020	231.689	-74.54	31.68	-17.75	-27.342	-43.904	29.400	-0.61682	0.69833	-0.12558	0.34052	29.7	13111	100
2025-3-27 14:46:47.372	WT901BLE68-01(48591DE3C19B)	-0.243	-1.306	0.162	78.613	33.020	231.689	-73.63	33.89	-17.54	-27.342	-43.904	29.400	-0.61682	0.69833	-0.12558	0.34052	29.7	13111	100
2025-3-27 14:46:47.431	WT901BLE68-01(48591DE3C19B)	-0.243	-1.157	0.115	67.932	36.255	224.548	-72.76	36.04	-17.31	-27.342	-43.904	29.400	-0.61682	0.69833	-0.12558	0.34052	29.7	13111	100
2025-3-27 14:46:47.431	WT901BLE68-01(48591DE3C19B)	-0.276	-1.157	0.115	67.932	36.255	224.548	-71.93	38.15	-17.08	-27.342	-43.904	29.400	-0.61682	0.69833	-0.12558	0.34052	29.7	13111	100
2025-3-27 14:46:47.431	WT901BLE68-01(48591DE3C19B)	-0.276	-1.081	0.046	54.565	29.846	214.172	-71.13	40.19	-16.79	-27.342	-43.904	29.400	-0.61682	0.69833	-0.12558	0.34052	29.7	13111	100
2025-3-27 14:46:47.431	WT901BLE68-01(48591DE3C19B)	-0.329	-1.081	0.046	54.565	29.846	214.172	-70.35	42.15	-16.44	-27.342	-43.904	29.400	-0.61682	0.69833	-0.12558	0.34052	29.7	13111	100
2025-3-27 14:46:47.460	WT901BLE68-01(48591DE3C19B)	-0.329	-1.074	0.002	45.532	12.512	199.463	-69.53	44.01	-15.96	-27.342	-43.904	29.400	-0.61682	0.69833	-0.12558	0.34052	29.7	13111	100
2025-3-27 14:46:47.460	WT901BLE68-01(48591DE3C19B)	-0.373	-1.074	0.002	45.532	12.512	199.463	-68.65	45.74	-15.35	-27.342	-43.904	29.400	-0.61682	0.69833	-0.12558	0.34052	29.7	13111	100
2025-3-27 14:46:47.460	WT901BLE68-01(48591DE3C19B)	-0.373	-1.062	0.021	41.687	-14.832	182.800	-67.63	47.34	-14.55	-27.342	-43.904	29.400	-0.61682	0.69833	-0.12558	0.34052	29.7	13111	100
2025-3-27 14:46:47.461	WT901BLE68-01(48591DE3C19B)	-0.372	-1.062	0.021	41.687	-14.832	182.800	-66.48	48.78	-13.54	-27.342	-43.904	29.400	-0.61682	0.69833	-0.12558	0.34052	29.7	13111	100
2025-3-27 14:46:47.522	WT901BLE68-01(48591DE3C19B)	-0.372	-1.042	0.051	38.818	-48.096	167.114	-65.13	50.08	-12.27	-27.342	-43.904	29.400	-0.61682	0.69833	-0.12558	0.34052	29.7	13111	100
2025-3-27 14:46:47.522	WT901BLE68-01(48591DE3C19B)	-0.270	-1.042	0.051	38.818	-48.096	167.114	-63.57	51.20	-10.74	-27.342	-43.904	29.400	-0.61682	0.69833	-0.12558	0.34052	29.7	13111	100
2025-3-27 14:46:47.522	WT901BLE68-01(48591DE3C19B)	-0.270	-1.021	0.063	38.452	-68.420	149.597	-61.89	52.16	-9.06	-27.342	-43.904	29.400	-0.61682	0.69833	-0.12558	0.34052	29.7	13111	100
2025-3-27 14:46:47.522	WT901BLE68-01(48591DE3C19B)	-0.144	-1.021	0.063	38.452	-68.420	149.597	-60.07	52.97	-7.23	-27.342	-43.904	29.400	-0.61682	0.69833	-0.12558	0.34052	29.7	13111	100
2025-3-27 14:46:47.550	WT901BLE68-01(48591DE3C19B)	-0.144	-0.924	0.071	42.175	-70.496	132.507	-58.23	53.65	-5.41	-27.342	-43.904	29.400	-0.61682	0.69833	-0.12558	0.34052	29.7	13111	100
2025-3-27 14:46:47.550	WT901BLE68-01(48591DE3C19B)	-0.015	-0.924	0.071	42.175	-70.496	132.507	-56.37	54.22	-3.61	-27.342	-43.904	29.400	-0.61682	0.69833	-0.12558	0.34052	29.7	13111	100
2025-3-27 14:46:47.551	WT901BLE68-01(48591DE3C19B)	-0.015	-0.809	0.079	39.917	-56.274	117.859	-54.61	54.73	-1.95	-27.342	-43.904	29.400	-0.61682	0.69833	-0.12558	0.34052	29.7	13111	100
2025-3-27 14:46:47.551	WT901BLE68-01(48591DE3C19B)	0.086	-0.809	0.079	39.917	-56.274	117.859	-52.99	55.20	-0.44	-27.342	-43.904	29.400	-0.79453	0.39041	-0.41653	-0.20663	29.7	13111	100
2025-3-27 14:46:47.580	WT901BLE68-01(48591DE3C19B)	0.086	-0.702	0.081	35.828	-28.564	102.478	-51.60	55.66	0.80	-27.342	-43.904	29.400	-0.79453	0.39041	-0.41653	-0.20663	29.7	13111	100
2025-3-27 14:46:47.580	WT901BLE68-01(48591DE3C19B)	0.090	-0.702	0.081	35.828	-28.564	102.478	-50.43	56.12	1.77	-27.342	-43.904	29.400	-0.79453	0.39041	-0.41653	-0.20663	29.7	13111	100
2025-3-27 14:46:47.580	WT901BLE68-01(48591DE3C19B)	0.090	-0.634	0.094	24.780	2.441	84.717	-49.58	56.61	2.44	-27.342	-43.904	29.400	-0.79453	0.39041	-0.41653	-0.20663	29.7	13111	100
2025-3-27 14:46:47.580	WT901BLE68-01(48591DE3C19B)	0.011	-0.634	0.094	24.780	2.441	84.717	-49.03	57.12	2.79	-27.342	-43.904	29.400	-0.79453	0.39041	-0.41653	-0.20663	29.7	13111	100
2025-3-27 14:46:47.641	WT901BLE68-01(48591DE3C19B)	0.011	-0.699	0.121	7.507	24.292	62.622	-48.82	57.61	2.84	-27.342	-43.904	29.400	-0.79453	0.39041	-0.41653	-0.20663	29.7	13111	100
2025-3-27 14:46:47.641	WT901BLE68-01(48591DE3C19B)	-0.051	-0.699	0.121	7.507	24.292	62.622	-48.93	58.08	2.59	-27.342	-43.904	29.400	-0.79453	0.39041	-0.41653	-0.20663	29.7	13111	100
2025-3-27 14:46:47.641	WT901BLE68-01(48591DE3C19B)	-0.051	-0.838	0.155	-4.761	31.433	35.889	-49.31	58.47	2.12	-27.342	-43.904	29.400	-0.79453	0.39041	-0.41653	-0.20663	29.7	13111	100
2025-3-27 14:46:47.641	WT901BLE68-01(48591DE3C19B)	-0.094	-0.838	0.155	-4.761	31.433	35.889	-49.93	58.79	1.41	-27.342	-43.904	29.400	-0.79453	0.39041	-0.41653	-0.20663	29.7	13111	100
2025-3-27 14:46:47.670	WT901BLE68-01(48591DE3C19B)	-0.094	-0.872	0.194	-11.108	29.053	5.615	-50.74	58.97	0.52	-27.342	-43.904	29.400	-0.79453	0.39041	-0.41653	-0.20663	29.7	13111	100
2025-3-27 14:46:47.670	WT901BLE68-01(48591DE3C19B)	-0.140	-0.872	0.194	-11.108	29.053	5.615	-51.73	59.02	-0.54	-27.342	-43.904	29.400	-0.79453	0.39041	-0.41653	-0.20663	29.7	13111	100
2025-3-27 14:46:47.670	WT901BLE68-01(48591DE3C19B)	-0.140	-0.881	0.207	-22.705	20.752	-24.841	-52.86	58.92	-1.72	-27.342	-43.904	29.400	-0.79453	0.39041	-0.41653	-0.20663	29.7	13111	100
2025-3-27 14:46:47.671	WT901BLE68-01(48591DE3C19B)	-0.190	-0.881	0.207	-22.705	20.752	-24.841	-54.13	58.66	-3.00	-27.342	-43.904	29.400	-0.79453	0.39041	-0.41653	-0.20663	29.7	13111	100
2025-3-27 14:46:47.701	WT901BLE68-01(48591DE3C19B)	-0.190	-0.987	0.182	-33.936	7.446	-57.068	-55.48	58.21	-4.32	-27.342	-43.904	29.400	-0.79453	0.39041	-0.41653	-0.20663	29.7	13111	100
2025-3-27 14:46:47.701	WT901BLE68-01(48591DE3C19B)	-0.199	-0.987	0.182	-33.936	7.446	-57.068	-56.89	57.58	-5.65	-27.342	-43.904	29.400	-0.79453	0.39041	-0.41653	-0.20663	29.7	13111	100
2025-3-27 14:46:47.701	WT901BLE68-01(48591DE3C19B)	-0.199	-0.984	0.151	-35.461	-7.446	-89.050	-58.28	56.78	-6.97	-27.342	-43.904	29.400	-0.79453	0.39041	-0.41653	-0.20663	29.7	13111	100
2025-3-27 14:46:47.701	WT901BLE68-01(48591DE3C19B)	-0.158	-0.984	0.151	-35.461	-7.446	-89.050	-59.63	55.78	-8.24	-27.342	-43.904	29.400	-0.79453	0.39041	-0.41653	-0.20663	29.7	13111	100
2025-3-27 14:46:47.761	WT901BLE68-01(48591DE3C19B)	-0.158	-0.957	0.097	-44.678	-11.841	-116.455	-61.02	54.65	-9.51	-27.342	-43.904	29.400	-0.79453	0.39041	-0.41653	-0.20663	29.7	13111	100
2025-3-27 14:46:47.761	WT901BLE68-01(48591DE3C19B)	-0.150	-0.957	0.097	-44.678	-11.841	-116.455	-62.43	53.37	-10.77	-53.802	-67.718	33.810	-0.79453	0.39041	-0.41653	-0.20663	29.7	13111	100
2025-3-27 14:46:47.761	WT901BLE68-01(48591DE3C19B)	-0.150	-1.036	0.068	-54.321	-5.859	-144.592	-63.91	51.98	-12.08	-53.802	-67.718	33.810	-0.79453	0.39041	-0.41653	-0.20663	29.7	13111	100
2025-3-27 14:46:47.761	WT901BLE68-01(48591DE3C19B)	-0.185	-1.036	0.068	-54.321	-5.859	-144.592	-65.45	50.45	-13.41	-53.802	-67.718	33.810	-0.79453	0.39041	-0.41653	-0.20663	29.7	13111	100
2025-3-27 14:46:47.793	WT901BLE68-01(48591DE3C19B)	-0.185	-1.119	0.086	-61.523	7.751	-172.424	-67.05	48.82	-14.82	-53.802	-67.718	33.810	-0.79453	0.39041	-0.41653	-0.20663	29.7	13111	100
2025-3-27 14:46:47.794	WT901BLE68-01(48591DE3C19B)	-0.227	-1.119	0.086	-61.523	7.751	-172.424	-68.70	47.07	-16.27	-53.802	-67.718	33.810	-0.79453	0.39041	-0.41653	-0.20663	29.7	13111	100
2025-3-27 14:46:47.794	WT901BLE68-01(48591DE3C19B)	-0.227	-1.161	0.141	-67.871	20.996	-195.984	-70.36	45.21	-17.74	-53.802	-67.718	33.810	-0.79453	0.39041	-0.41653	-0.20663	29.7	13111	100
2025-3-27 14:46:47.794	WT901BLE68-01(48591DE3C19B)	-0.254	-1.161	0.141	-67.871	20.996	-195.984	-72.03	43.25	-19.21	-53.802	-67.718	33.810	-0.79453	0.39041	-0.41653	-0.20663	29.7	13111	100
2025-3-27 14:46:47.820	WT901BLE68-01(48591DE3C19B)	-0.254	-1.164	0.211	-75.562	32.227	-213.257	-73.68	41.21	-20.65	-53.802	-67.718	33.810	-0.79453	0.39041	-0.41653	-0.20663	29.7	13111	100
2025-3-27 14:46:47.821	WT901BLE68-01(48591DE3C19B)	-0.298	-1.164	0.211	-75.562	32.227	-213.257	-75.30	39.08	-22.07	-53.802	-67.718	33.810	-0.79453	0.39041	-0.41653	-0.20663	29.7	13111	100
2025-3-27 14:46:47.821	WT901BLE68-01(48591DE3C19B)	-0.298	-1.229	0.269	-84.473	37.720	-226.440	-76.88	36.89	-23.41	-53.802	-67.718	33.810	-0.79453	0.39041	-0.41653	-0.20663	29.7	13111	100
2025-3-27 14:46:47.821	WT901BLE68-01(48591DE3C19B)	-0.346	-1.229	0.269	-84.473	37.720	-226.440	-78.41	34.62	-24.68	-53.802	-67.718	33.810	-0.79453	0.39041	-0.41653	-0.20663	29.7	13111	100
2025-3-27 14:46:47.880	WT901BLE68-01(48591DE3C19B)	-0.346	-1.363	0.293	-90.637	36.804	-237.305	-79.87	32.28	-25.85	-53.802	-67.718	33.810	-0.79453	0.39041	-0.41653	-0.20663	29.7	13111	100
2025-3-27 14:46:47.881	WT901BLE68-01(48591DE3C19B)	-0.388	-1.363	0.293	-90.637	36.804	-237.305	-81.27	29.89	-26.91	-53.802	-67.718	33.810	-0.79453	0.39041	-0.41653	-0.20663	29.7	13111	100
2025-3-27 14:46:47.881	WT901BLE68-01(48591DE3C19B)	-0.388	-1.483	0.281	-86.487	30.823	-244.812	-82.50	27.41	-27.82	-53.802	-67.718	33.810	-0.79453	0.39041	-0.41653	-0.20663	29.7	13111	100
2025-3-27 14:46:47.881	WT901BLE68-01(48591DE3C19B)	-0.371	-1.483	0.281	-86.487	30.823	-244.812	-83.67	24.93	-28.64	-53.802	-67.718	33.810	-0.79453	0.39041	-0.41653	-0.20663	29.7	13111	100
2025-3-27 14:46:47.911	WT901BLE68-01(48591DE3C19B)	-0.371	-1.493	0.241	-75.500	30.090	-244.019	-84.65	22.47	-29.37	-53.802	-67.718	33.810	-0.79453	0.39041	-0.41653	-0.20663	29.7	13111	100
2025-3-27 14:46:47.911	WT901BLE68-01(48591DE3C19B)	-0.312	-1.493	0.241	-75.500	30.090	-244.019	-85.58	20.01	-30.04	-53.802	-67.718	33.810	-0.79453	0.39041	-0.41653	-0.20663	29.7	13111	100
2025-3-27 14:46:47.911	WT901BLE68-01(48591DE3C19B)	-0.312	-1.407	0.203	-62.012	46.936	-234.924	-86.39	17.66	-30.81	-53.802	-67.718	33.810	-0.79453	0.39041	-0.41653	-0.20663	29.7	13111	100
2025-3-27 14:46:47.911	WT901BLE68-01(48591DE3C19B)	-0.349	-1.407	0.203	-62.012	46.936	-234.924	-87.15	15.31	-31.53	-53.802	-67.718	33.810	-0.79453	0.39041	-0.41653	-0.20663	29.7	13111	100
2025-3-27 14:46:47.970	WT901BLE68-01(48591DE3C19B)	-0.349	-1.309	0.198	-51.575	63.477	-224.243	-87.81	13.09	-32.36	-53.802	-67.718	33.810	-0.79453	0.39041	-0.41653	-0.20663	29.7	13111	100
2025-3-27 14:46:47.970	WT901BLE68-01(48591DE3C19B)	-0.381	-1.309	0.198	-51.575	63.477	-224.243	-88.43	10.87	-33.15	-53.802	-67.718	33.810	-0.79453	0.39041	-0.41653	-0.20663	29.7	13111	100
2025-3-27 14:46:47.970	WT901BLE68-01(48591DE3C19B)	-0.381	-1.250	0.174	-51.392	62.317	-213.379	-89.02	8.77	-33.87	-53.802	-67.718	33.810	-0.69229	0.65601	-0.25208	0.16354	29.7	13111	100
2025-3-27 14:46:47.970	WT901BLE68-01(48591DE3C19B)	-0.353	-1.250	0.174	-51.392	62.317	-213.379	-89.57	6.69	-34.55	-53.802	-67.718	33.810	-0.69229	0.65601	-0.25208	0.16354	29.7	13111	100
2025-3-27 14:46:47.999	WT901BLE68-01(48591DE3C19B)	-0.353	-1.267	0.160	-51.025	54.382	-201.050	-90.08	4.72	-35.12	-53.802	-67.718	33.810	-0.69229	0.65601	-0.25208	0.16354	29.7	13111	100
2025-3-27 14:46:47.999	WT901BLE68-01(48591DE3C19B)	-0.338	-1.267	0.160	-51.025	54.382	-201.050	-90.57	2.77	-35.66	-53.802	-67.718	33.810	-0.69229	0.65601	-0.25208	0.16354	29.7	13111	100
2025-3-27 14:46:47.999	WT901BLE68-01(48591DE3C19B)	-0.338	-1.334	0.167	-50.049	53.528	-187.805	-91.03	0.97	-36.16	-53.802	-67.718	33.810	-0.69229	0.65601	-0.25208	0.16354	29.7	13111	100
2025-3-27 14:46:47.999	WT901BLE68-01(48591DE3C19B)	-0.393	-1.334	0.167	-50.049	53.528	-187.805	-91.48	-0.83	-36.63	-53.802	-67.718	33.810	-0.69229	0.65601	-0.25208	0.16354	29.7	13111	100
2025-3-27 14:46:48.30	WT901BLE68-01(48591DE3C19B)	-0.393	-1.396	0.192	-42.114	62.378	-173.889	-91.83	-2.49	-37.18	-53.802	-67.718	33.810	-0.69229	0.65601	-0.25208	0.16354	29.7	13111	100
2025-3-27 14:46:48.30	WT901BLE68-01(48591DE3C19B)	-0.488	-1.396	0.192	-42.114	62.378	-173.889	-92.16	-4.14	-37.72	-53.802	-67.718	33.810	-0.69229	0.65601	-0.25208	0.16354	29.7	13111	100
2025-3-27 14:46:48.30	WT901BLE68-01(48591DE3C19B)	-0.488	-1.404	0.218	-34.241	74.097	-164.734	-92.40	-5.69	-38.35	-53.802	-67.718	33.810	-0.69229	0.65601	-0.25208	0.16354	29.7	13111	100
2025-3-27 14:46:48.30	WT901BLE68-01(48591DE3C19B)	-0.559	-1.404	0.218	-34.241	74.097	-164.734	-92.60	-7.23	-38.96	-53.802	-67.718	33.810	-0.69229	0.65601	-0.25208	0.16354	29.7	13111	100
2025-3-27 14:46:48.60	WT901BLE68-01(48591DE3C19B)	-0.559	-1.382	0.242	-29.175	76.721	-157.715	-92.75	-8.70	-39.59	-53.802	-67.718	33.810	-0.69229	0.65601	-0.25208	0.16354	29.7	13111	100
2025-3-27 14:46:48.60	WT901BLE68-01(48591DE3C19B)	-0.597	-1.382	0.242	-29.175	76.721	-157.715	-92.88	-10.15	-40.22	-53.802	-67.718	33.810	-0.69229	0.65601	-0.25208	0.16354	29.7	13111	100
2025-3-27 14:46:48.60	WT901BLE68-01(48591DE3C19B)	-0.597	-1.344	0.283	-23.865	70.618	-149.048	-92.95	-11.49	-40.76	-53.802	-67.718	33.810	-0.69229	0.65601	-0.25208	0.16354	29.7	13111	100
2025-3-27 14:46:48.60	WT901BLE68-01(48591DE3C19B)	-0.602	-1.344	0.283	-23.865	70.618	-149.048	-93.01	-12.83	-41.31	-53.802	-67.718	33.810	-0.69229	0.65601	-0.25208	0.16354	29.7	13111	100
2025-3-27 14:46:48.151	WT901BLE68-01(48591DE3C19B)	-0.602	-1.237	0.325	-16.235	62.805	-140.442	-93.00	-14.06	-41.77	-53.802	-67.718	33.810	-0.69229	0.65601	-0.25208	0.16354	29.7	13111	100
2025-3-27 14:46:48.151	WT901BLE68-01(48591DE3C19B)	-0.569	-1.237	0.325	-16.235	62.805	-140.442	-92.98	-15.29	-42.23	-53.802	-67.718	33.810	-0.69229	0.65601	-0.25208	0.16354	29.7	13111	100
2025-3-27 14:46:48.151	WT901BLE68-01(48591DE3C19B)	-0.569	-1.103	0.334	-10.925	63.110	-127.014	-92.89	-16.36	-42.70	-53.802	-67.718	33.810	-0.69229	0.65601	-0.25208	0.16354	29.7	13111	100
2025-3-27 14:46:48.151	WT901BLE68-01(48591DE3C19B)	-0.525	-1.103	0.334	-10.925	63.110	-127.014	-92.79	-17.43	-43.17	-53.802	-67.718	33.810	-0.69229	0.65601	-0.25208	0.16354	29.7	13111	100
2025-3-27 14:46:48.211	WT901BLE68-01(48591DE3C19B)	-0.525	-0.966	0.309	-5.249	71.533	-111.572	-92.59	-18.34	-43.73	-53.802	-67.718	33.810	-0.69229	0.65601	-0.25208	0.16354	29.7	13111	100
2025-3-27 14:46:48.211	WT901BLE68-01(48591DE3C19B)	-0.449	-0.966	0.309	-5.249	71.533	-111.572	-92.39	-19.23	-44.29	-53.802	-67.718	33.810	-0.69229	0.65601	-0.25208	0.16354	29.7	13111	100
2025-3-27 14:46:48.211	WT901BLE68-01(48591DE3C19B)	-0.449	-0.844	0.293	0.488	83.862	-94.055	-92.07	-19.95	-44.99	-53.802	-67.718	33.810	-0.69229	0.65601	-0.25208	0.16354	29.7	13111	100
2025-3-27 14:46:48.212	WT901BLE68-01(48591DE3C19B)	-0.415	-0.844	0.293	0.488	83.862	-94.055	-91.74	-20.65	-45.70	-22.344	-24.402	36.750	-0.69229	0.65601	-0.25208	0.16354	29.7	13111	100
2025-3-27 14:46:48.212	WT901BLE68-01(48591DE3C19B)	-0.415	-0.788	0.290	4.944	82.214	-75.745	-91.36	-21.17	-46.40	-22.344	-24.402	36.750	-0.69229	0.65601	-0.25208	0.16354	29.7	13111	100
2025-3-27 14:46:48.212	WT901BLE68-01(48591DE3C19B)	-0.445	-0.788	0.290	4.944	82.214	-75.745	-90.98	-21.67	-47.09	-22.344	-24.402	36.750	-0.69229	0.65601	-0.25208	0.16354	29.7	13111	100
2025-3-27 14:46:48.212	WT901BLE68-01(48591DE3C19B)	-0.445	-0.788	0.312	5.737	74.524	-59.448	-90.61	-21.99	-47.72	-22.344	-24.402	36.750	-0.69229	0.65601	-0.25208	0.16354	29.7	13111	100
2025-3-27 14:46:48.212	WT901BLE68-01(48591DE3C19B)	-0.570	-0.788	0.312	5.737	74.524	-59.448	-90.24	-22.31	-48.34	-22.344	-24.402	36.750	-0.69229	0.65601	-0.25208	0.16354	29.7	13111	100
2025-3-27 14:46:48.271	WT901BLE68-01(48591DE3C19B)	-0.570	-0.835	0.305	11.108	86.731	-34.973	-89.76	-22.37	-49.09	-22.344	-24.402	36.750	-0.69229	0.65601	-0.25208	0.16354	29.7	13111	100
2025-3-27 14:46:48.271	WT901BLE68-01(48591DE3C19B)	-0.685	-0.835	0.305	11.108	86.731	-34.973	-89.29	-22.43	-49.83	-22.344	-24.402	36.750	-0.69229	0.65601	-0.25208	0.16354	29.7	13111	100
2025-3-27 14:46:48.271	WT901BLE68-01(48591DE3C19B)	-0.685	-0.875	0.286	16.113	92.285	-14.954	-88.76	-22.27	-50.63	-22.344	-24.402	36.750	-0.69229	0.65601	-0.25208	0.16354	29.7	13111	100
2025-3-27 14:46:48.271	WT901BLE68-01(48591DE3C19B)	-0.718	-0.875	0.286	16.113	92.285	-14.954	-88.24	-22.09	-51.40	-22.344	-24.402	36.750	-0.69229	0.65601	-0.25208	0.16354	29.7	13111	100
2025-3-27 14:46:48.272	WT901BLE68-01(48591DE3C19B)	-0.718	-0.997	0.246	21.729	105.408	3.418	-87.63	-21.73	-52.30	-22.344	-24.402	36.750	-0.69229	0.65601	-0.25208	0.16354	29.7	13111	100
2025-3-27 14:46:48.272	WT901BLE68-01(48591DE3C19B)	-0.681	-0.997	0.246	21.729	105.408	3.418	-87.03	-21.34	-53.18	-22.344	-24.402	36.750	-0.69229	0.65601	-0.25208	0.16354	29.7	13111	100
2025-3-27 14:46:48.272	WT901BLE68-01(48591DE3C19B)	-0.681	-1.090	0.363	40.222	117.615	19.836	-86.23	-20.78	-54.17	-22.344	-24.402	36.750	-0.69229	0.65601	-0.25208	0.16354	29.7	13111	100
2025-3-27 14:46:48.272	WT901BLE68-01(48591DE3C19B)	-0.468	-1.090	0.363	40.222	117.615	19.836	-85.45	-20.20	-55.15	-22.344	-24.402	36.750	-0.69229	0.65601	-0.25208	0.16354	29.7	13111	100
2025-3-27 14:46:48.300	WT901BLE68-01(48591DE3C19B)	-0.468	-1.061	0.475	36.194	158.997	45.593	-84.58	-19.32	-56.51	-22.344	-24.402	36.750	-0.69229	0.65601	-0.25208	0.16354	29.7	13111	100
2025-3-27 14:46:48.300	WT901BLE68-01(48591DE3C19B)	-0.404	-1.061	0.475	36.194	158.997	45.593	-83.75	-18.44	-57.86	-22.344	-24.402	36.750	-0.69229	0.65601	-0.25208	0.16354	29.7	13111	100
2025-3-27 14:46:48.300	WT901BLE68-01(48591DE3C19B)	-0.856	-1.194	0.307	0.977	224.609	81.238	-83.11	-17.11	-59.82	-22.344	-24.402	36.750	-0.69229	0.65601	-0.25208	0.16354	29.7	13111	100
2025-3-27 14:46:48.300	WT901BLE68-01(48591DE3C19B)	-0.856	-1.290	0.096	-10.193	250.793	131.104	-82.56	-15.51	-61.84	-22.344	-24.402	36.750	-0.69229	0.65601	-0.25208	0.16354	29.7	13111	100
2025-3-27 14:46:48.361	WT901BLE68-01(48591DE3C19B)	-1.200	-1.290	0.096	-10.193	250.793	131.104	-82.13	-13.63	-63.91	-22.344	-24.402	36.750	-0.69229	0.65601	-0.25208	0.16354	29.7	13111	100
2025-3-27 14:46:48.361	WT901BLE68-01(48591DE3C19B)	-1.200	-1.027	0.074	-21.423	175.293	170.410	-81.95	-11.62	-65.52	-22.344	-24.402	36.750	-0.69229	0.65601	-0.25208	0.16354	29.7	13111	100
2025-3-27 14:46:48.361	WT901BLE68-01(48591DE3C19B)	-1.148	-1.027	0.074	-21.423	175.293	170.410	-81.99	-9.46	-66.70	-22.344	-24.402	36.750	-0.69229	0.65601	-0.25208	0.16354	29.7	13111	100
2025-3-27 14:46:48.361	WT901BLE68-01(48591DE3C19B)	-1.148	-0.942	0.092	-62.500	54.321	201.721	-82.38	-7.24	-67.23	-22.344	-24.402	36.750	-0.69229	0.65601	-0.25208	0.16354	29.7	13111	100
2025-3-27 14:46:48.421	WT901BLE68-01(48591DE3C19B)	-0.962	-0.942	0.092	-62.500	54.321	201.721	-83.08	-4.95	-67.15	-22.344	-24.402	36.750	-0.60709	0.56985	-0.33942	0.43744	29.7	13111	100
2025-3-27 14:46:48.421	WT901BLE68-01(48591DE3C19B)	-0.962	-1.151	-0.018	-87.830	-43.945	228.149	-83.95	-2.60	-66.59	-22.344	-24.402	36.750	-0.60709	0.56985	-0.33942	0.43744	29.7	13111	100
2025-3-27 14:46:48.421	WT901BLE68-01(48591DE3C19B)	-0.867	-1.151	-0.018	-87.830	-43.945	228.149	-84.95	-0.18	-65.57	-22.344	-24.402	36.750	-0.60709	0.56985	-0.33942	0.43744	29.7	13111	100
2025-3-27 14:46:48.421	WT901BLE68-01(48591DE3C19B)	-0.867	-1.285	-0.091	-92.163	-142.822	239.563	-85.92	2.26	-64.10	-22.344	-24.402	36.750	-0.60709	0.56985	-0.33942	0.43744	29.7	13111	100
2025-3-27 14:46:48.422	WT901BLE68-01(48591DE3C19B)	-0.629	-1.285	-0.091	-92.163	-142.822	239.563	-86.83	4.74	-62.18	-22.344	-24.402	36.750	-0.60709	0.56985	-0.33942	0.43744	29.7	13111	100
2025-3-27 14:46:48.422	WT901BLE68-01(48591DE3C19B)	-0.629	-1.469	-0.103	-86.182	-243.591	237.671	-87.58	7.19	-59.79	-22.344	-24.402	36.750	-0.60709	0.56985	-0.33942	0.43744	29.7	13111	100
2025-3-27 14:46:48.422	WT901BLE68-01(48591DE3C19B)	-0.399	-1.469	-0.103	-86.182	-243.591	237.671	-88.14	9.62	-56.92	-22.344	-24.402	36.750	-0.60709	0.56985	-0.33942	0.43744	29.7	13111	100
2025-3-27 14:46:48.422	WT901BLE68-01(48591DE3C19B)	-0.399	-1.558	-0.022	-52.917	-320.068	222.229	-88.33	11.95	-53.68	-22.344	-24.402	36.750	-0.60709	0.56985	-0.33942	0.43744	29.7	13111	100
2025-3-27 14:46:48.480	WT901BLE68-01(48591DE3C19B)	-0.123	-1.558	-0.022	-52.917	-320.068	222.229	-88.14	14.18	-50.05	-22.344	-24.402	36.750	-0.60709	0.56985	-0.33942	0.43744	29.7	13111	100
2025-3-27 14:46:48.480	WT901BLE68-01(48591DE3C19B)	-0.123	-1.489	0.050	-22.461	-348.450	195.374	-87.62	16.22	-46.25	-22.344	-24.402	36.750	-0.60709	0.56985	-0.33942	0.43744	29.7	13111	100
2025-3-27 14:46:48.481	WT901BLE68-01(48591DE3C19B)	0.030	-1.489	0.050	-22.461	-348.450	195.374	-86.76	18.06	-42.29	-22.344	-24.402	36.750	-0.60709	0.56985	-0.33942	0.43744	29.7	13111	100
2025-3-27 14:46:48.481	WT901BLE68-01(48591DE3C19B)	0.030	-1.403	0.092	-6.287	-316.467	178.223	-85.75	19.73	-38.46	-22.344	-24.402	36.750	-0.60709	0.56985	-0.33942	0.43744	29.7	13111	100
2025-3-27 14:46:48.511	WT901BLE68-01(48591DE3C19B)	0.083	-1.403	0.092	-6.287	-316.467	178.223	-84.59	21.24	-34.77	-22.344	-24.402	36.750	-0.60709	0.56985	-0.33942	0.43744	29.7	13111	100
2025-3-27 14:46:48.511	WT901BLE68-01(48591DE3C19B)	0.083	-1.382	0.134	1.343	-226.929	160.583	-83.47	22.63	-31.55	-22.344	-24.402	36.750	-0.60709	0.56985	-0.33942	0.43744	29.7	13111	100
2025-3-27 14:46:48.511	WT901BLE68-01(48591DE3C19B)	-0.056	-1.382	0.134	1.343	-226.929	160.583	-82.42	23.91	-28.80	-22.344	-24.402	36.750	-0.60709	0.56985	-0.33942	0.43744	29.7	13111	100
2025-3-27 14:46:48.511	WT901BLE68-01(48591DE3C19B)	-0.056	-1.378	0.169	16.724	-138.367	141.968	-81.44	25.09	-26.54	-22.344	-24.402	36.750	-0.60709	0.56985	-0.33942	0.43744	29.7	13111	100
2025-3-27 14:46:48.541	WT901BLE68-01(48591DE3C19B)	-0.186	-1.378	0.169	16.724	-138.367	141.968	-80.55	26.21	-24.76	-22.344	-24.402	36.750	-0.60709	0.56985	-0.33942	0.43744	29.7	13111	100
2025-3-27 14:46:48.541	WT901BLE68-01(48591DE3C19B)	-0.186	-1.314	0.175	21.240	-84.412	125.916	-79.73	27.26	-23.30	-22.344	-24.402	36.750	-0.60709	0.56985	-0.33942	0.43744	29.7	13111	100
2025-3-27 14:46:48.541	WT901BLE68-01(48591DE3C19B)	-0.270	-1.314	0.175	21.240	-84.412	125.916	-79.00	28.25	-22.14	-29.106	-50.176	34.986	-0.60709	0.56985	-0.33942	0.43744	29.7	13111	100
2025-3-27 14:46:48.541	WT901BLE68-01(48591DE3C19B)	-0.270	-1.308	0.136	32.410	-49.744	118.347	-78.29	29.22	-21.17	-29.106	-50.176	34.986	-0.60709	0.56985	-0.33942	0.43744	29.7	13111	100
2025-3-27 14:46:48.600	WT901BLE68-01(48591DE3C19B)	-0.457	-1.308	0.136	32.410	-49.744	118.347	-77.61	30.17	-20.40	-29.106	-50.176	34.986	-0.60709	0.56985	-0.33942	0.43744	29.7	13111	100
2025-3-27 14:46:48.600	WT901BLE68-01(48591DE3C19B)	-0.457	-1.318	0.135	42.786	-44.678	116.882	-76.87	31.11	-19.65	-29.106	-50.176	34.986	-0.60709	0.56985	-0.33942	0.43744	29.7	13111	100
2025-3-27 14:46:48.600	WT901BLE68-01(48591DE3C19B)	-0.482	-1.318	0.135	42.786	-44.678	116.882	-76.07	32.04	-18.92	-29.106	-50.176	34.986	-0.60709	0.56985	-0.33942	0.43744	29.7	13111	100
2025-3-27 14:46:48.600	WT901BLE68-01(48591DE3C19B)	-0.482	-1.301	0.071	51.331	-67.932	116.150	-75.15	32.93	-18.04	-29.106	-50.176	34.986	-0.60709	0.56985	-0.33942	0.43744	29.7	13111	100
2025-3-27 14:46:48.630	WT901BLE68-01(48591DE3C19B)	-0.366	-1.301	0.071	51.331	-67.932	116.150	-74.09	33.76	-17.00	-29.106	-50.176	34.986	-0.60709	0.56985	-0.33942	0.43744	29.7	13111	100
2025-3-27 14:46:48.631	WT901BLE68-01(48591DE3C19B)	-0.366	-1.225	0.049	57.983	-89.966	123.169	-72.90	34.57	-15.80	-29.106	-50.176	34.986	-0.60709	0.56985	-0.33942	0.43744	29.7	13111	100
2025-3-27 14:46:48.631	WT901BLE68-01(48591DE3C19B)	-0.295	-1.225	0.049	57.983	-89.966	123.169	-71.57	35.37	-14.43	-29.106	-50.176	34.986	-0.60709	0.56985	-0.33942	0.43744	29.7	13111	100
2025-3-27 14:46:48.631	WT901BLE68-01(48591DE3C19B)	-0.295	-1.167	0.026	58.105	-99.060	130.737	-70.17	36.15	-12.97	-29.106	-50.176	34.986	-0.60709	0.56985	-0.33942	0.43744	29.7	13111	100
2025-3-27 14:46:48.660	WT901BLE68-01(48591DE3C19B)	-0.136	-1.167	0.026	58.105	-99.060	130.737	-68.70	36.92	-11.43	-29.106	-50.176	34.986	-0.60709	0.56985	-0.33942	0.43744	29.7	13111	100
2025-3-27 14:46:48.660	WT901BLE68-01(48591DE3C19B)	-0.136	-1.089	0.019	60.852	-98.816	137.695	-67.19	37.68	-9.84	-29.106	-50.176	34.986	-0.60709	0.56985	-0.33942	0.43744	29.7	13111	100
2025-3-27 14:46:48.660	WT901BLE68-01(48591DE3C19B)	0.096	-1.089	0.019	60.852	-98.816	137.695	-65.62	38.44	-8.22	-29.106	-50.176	34.986	-0.60709	0.56985	-0.33942	0.43744	29.7	13111	100
2025-3-27 14:46:48.660	WT901BLE68-01(48591DE3C19B)	0.096	-0.981	-0.005	58.594	-69.946	141.235	-64.13	39.24	-6.73	-29.106	-50.176	34.986	-0.60709	0.56985	-0.33942	0.43744	29.7	13111	100
2025-3-27 14:46:48.751	WT901BLE68-01(48591DE3C19B)	0.227	-0.981	-0.005	58.594	-69.946	141.235	-62.73	40.07	-5.40	-29.106	-50.176	34.986	-0.60709	0.56985	-0.33942	0.43744	29.7	13111	100
2025-3-27 14:46:48.751	WT901BLE68-01(48591DE3C19B)	0.227	-0.868	0.044	59.509	-12.451	138.489	-61.52	41.00	-4.38	-29.106	-50.176	34.986	-0.60709	0.56985	-0.33942	0.43744	29.7	13111	100
2025-3-27 14:46:48.751	WT901BLE68-01(48591DE3C19B)	0.195	-0.868	0.044	59.509	-12.451	138.489	-60.50	42.03	-3.70	-29.106	-50.176	34.986	-0.60709	0.56985	-0.33942	0.43744	29.7	13111	100
2025-3-27 14:46:48.751	WT901BLE68-01(48591DE3C19B)	0.195	-0.745	0.139	52.185	40.161	130.676	-59.73	43.13	-3.35	-29.106	-50.176	34.986	-0.60709	0.56985	-0.33942	0.43744	29.7	13111	100
2025-3-27 14:46:48.752	WT901BLE68-01(48591DE3C19B)	0.006	-0.745	0.139	52.185	40.161	130.676	-59.22	44.32	-3.33	-29.106	-50.176	34.986	-0.60709	0.56985	-0.33942	0.43744	29.7	13111	100
2025-3-27 14:46:48.752	WT901BLE68-01(48591DE3C19B)	0.006	-0.727	0.213	35.034	70.129	121.033	-58.94	45.54	-3.53	-29.106	-50.176	34.986	-0.60709	0.56985	-0.33942	0.43744	29.7	13111	100
2025-3-27 14:46:48.752	WT901BLE68-01(48591DE3C19B)	-0.226	-0.727	0.213	35.034	70.129	121.033	-58.91	46.79	-3.96	-29.106	-50.176	34.986	-0.60709	0.56985	-0.33942	0.43744	29.7	13111	100
2025-3-27 14:46:48.752	WT901BLE68-01(48591DE3C19B)	-0.226	-0.797	0.249	17.578	62.378	105.286	-58.97	47.93	-4.41	-29.106	-50.176	34.986	-0.80249	0.43579	-0.37064	-0.16916	29.7	13111	100
2025-3-27 14:46:48.810	WT901BLE68-01(48591DE3C19B)	-0.261	-0.797	0.249	17.578	62.378	105.286	-59.13	48.99	-4.88	-29.106	-50.176	34.986	-0.80249	0.43579	-0.37064	-0.16916	29.7	13111	100
2025-3-27 14:46:48.811	WT901BLE68-01(48591DE3C19B)	-0.261	-0.934	0.235	-3.784	26.550	85.815	-59.27	49.70	-5.05	-29.106	-50.176	34.986	-0.80249	0.43579	-0.37064	-0.16916	29.7	13111	100
2025-3-27 14:46:48.811	WT901BLE68-01(48591DE3C19B)	-0.014	-0.934	0.235	-3.784	26.550	85.815	-59.40	50.40	-5.21	-29.106	-50.176	34.986	-0.80249	0.43579	-0.37064	-0.16916	29.7	13111	100
2025-3-27 14:46:48.811	WT901BLE68-01(48591DE3C19B)	-0.014	-0.971	0.108	-7.324	-1.099	63.416	-59.41	50.77	-5.19	-29.106	-50.176	34.986	-0.80249	0.43579	-0.37064	-0.16916	29.7	13111	100
2025-3-27 14:46:48.871	WT901BLE68-01(48591DE3C19B)	0.085	-0.971	0.108	-7.324	-1.099	63.416	-59.44	51.14	-5.17	-29.106	-50.176	34.986	-0.80249	0.43579	-0.37064	-0.16916	29.7	13111	100
2025-3-27 14:46:48.871	WT901BLE68-01(48591DE3C19B)	0.085	-0.847	0.045	-4.456	4.456	37.537	-59.66	51.30	-5.44	-29.106	-50.176	34.986	-0.80249	0.43579	-0.37064	-0.16916	29.7	13111	100
2025-3-27 14:46:48.871	WT901BLE68-01(48591DE3C19B)	-0.018	-0.847	0.045	-4.456	4.456	37.537	-59.89	51.47	-5.72	-29.106	-50.176	34.986	-0.80249	0.43579	-0.37064	-0.16916	29.7	13111	100
2025-3-27 14:46:48.871	WT901BLE68-01(48591DE3C19B)	-0.018	-0.885	0.100	-28.137	8.911	1.770	-60.62	51.34	-6.36	-29.106	-50.176	34.986	-0.80249	0.43579	-0.37064	-0.16916	29.7	13111	100
2025-3-27 14:46:48.872	WT901BLE68-01(48591DE3C19B)	-0.039	-0.885	0.100	-28.137	8.911	1.770	-61.36	51.21	-6.98	-29.106	-50.176	34.986	-0.80249	0.43579	-0.37064	-0.16916	29.7	13111	100
2025-3-27 14:46:48.872	WT901BLE68-01(48591DE3C19B)	-0.039	-1.049	0.212	-33.203	0.671	-37.109	-62.27	50.70	-7.78	-29.106	-50.176	34.986	-0.80249	0.43579	-0.37064	-0.16916	29.7	13111	100
2025-3-27 14:46:48.872	WT901BLE68-01(48591DE3C19B)	-0.026	-1.049	0.212	-33.203	0.671	-37.109	-63.15	50.17	-8.56	-29.106	-50.176	34.986	-0.80249	0.43579	-0.37064	-0.16916	29.7	13111	100
2025-3-27 14:46:48.872	WT901BLE68-01(48591DE3C19B)	-0.026	-1.102	0.245	-38.940	9.094	-71.838	-64.34	49.37	-9.67	-29.106	-50.176	34.986	-0.80249	0.43579	-0.37064	-0.16916	29.7	13111	100
2025-3-27 14:46:48.961	WT901BLE68-01(48591DE3C19B)	-0.056	-1.102	0.245	-38.940	9.094	-71.838	-65.47	48.57	-10.73	-29.106	-50.176	34.986	-0.80249	0.43579	-0.37064	-0.16916	29.7	13111	100
2025-3-27 14:46:48.961	WT901BLE68-01(48591DE3C19B)	-0.056	-1.211	0.343	-34.729	50.232	-101.868	-67.07	47.64	-12.50	-29.106	-50.176	34.986	-0.80249	0.43579	-0.37064	-0.16916	29.7	13111	100
2025-3-27 14:46:48.961	WT901BLE68-01(48591DE3C19B)	-0.122	-1.211	0.343	-34.729	50.232	-101.868	-68.59	46.68	-14.19	-29.106	-50.176	34.986	-0.80249	0.43579	-0.37064	-0.16916	29.7	13111	100
2025-3-27 14:46:48.961	WT901BLE68-01(48591DE3C19B)	-0.122	-1.141	0.281	-39.246	94.543	-139.160	-70.63	45.50	-16.58	-29.106	-50.176	34.986	-0.80249	0.43579	-0.37064	-0.16916	29.7	13111	100
2025-3-27 14:46:48.962	WT901BLE68-01(48591DE3C19B)	-0.185	-1.141	0.281	-39.246	94.543	-139.160	-72.54	44.27	-18.85	-29.106	-50.176	34.986	-0.80249	0.43579	-0.37064	-0.16916	29.7	13111	100
2025-3-27 14:46:48.962	WT901BLE68-01(48591DE3C19B)	-0.185	-1.032	0.154	-39.063	120.056	-149.170	-74.59	42.98	-21.37	-29.106	-50.176	34.986	-0.80249	0.43579	-0.37064	-0.16916	29.7	13111	100
2025-3-27 14:46:48.962	WT901BLE68-01(48591DE3C19B)	-0.415	-1.032	0.154	-39.063	120.056	-149.170	-76.51	41.63	-23.75	-29.106	-50.176	34.986	-0.80249	0.43579	-0.37064	-0.16916	29.7	13111	100
2025-3-27 14:46:48.962	WT901BLE68-01(48591DE3C19B)	-0.415	-0.956	0.166	-31.738	114.502	-149.658	-78.18	40.23	-25.93	-29.106	-50.176	34.986	-0.80249	0.43579	-0.37064	-0.16916	29.7	13111	100
2025-3-27 14:46:48.992	WT901BLE68-01(48591DE3C19B)	-0.539	-0.956	0.166	-31.738	114.502	-149.658	-79.73	38.80	-27.99	-29.106	-50.176	34.986	-0.80249	0.43579	-0.37064	-0.16916	29.7	13111	100
2025-3-27 14:46:48.992	WT901BLE68-01(48591DE3C19B)	-0.539	-0.879	0.198	-34.363	70.801	-154.358	-80.87	37.24	-29.40	-29.106	-50.176	34.986	-0.80249	0.43579	-0.37064	-0.16916	29.7	13111	100
2025-3-27 14:46:48.992	WT901BLE68-01(48591DE3C19B)	-0.549	-0.879	0.198	-34.363	70.801	-154.358	-81.93	35.67	-30.71	-42.042	-64.190	32.830	-0.80249	0.43579	-0.37064	-0.16916	29.7	13111	100
2025-3-27 14:46:48.992	WT901BLE68-01(48591DE3C19B)	-0.549	-0.917	0.239	-45.593	19.958	-152.710	-82.66	34.06	-31.33	-42.042	-64.190	32.830	-0.80249	0.43579	-0.37064	-0.16916	29.7	13111	100
2025-3-27 14:46:49.51	WT901BLE68-01(48591DE3C19B)	-0.549	-0.917	0.239	-45.593	19.958	-152.710	-83.36	32.46	-31.89	-42.042	-64.190	32.830	-0.80249	0.43579	-0.37064	-0.16916	29.7	13111	100
2025-3-27 14:46:49.51	WT901BLE68-01(48591DE3C19B)	-0.549	-1.067	0.314	-51.575	-24.109	-154.175	-83.81	30.81	-31.89	-42.042	-64.190	32.830	-0.80249	0.43579	-0.37064	-0.16916	29.7	13111	100
2025-3-27 14:46:49.51	WT901BLE68-01(48591DE3C19B)	-0.402	-1.067	0.314	-51.575	-24.109	-154.175	-84.24	29.18	-31.85	-42.042	-64.190	32.830	-0.80249	0.43579	-0.37064	-0.16916	29.7	13111	100
2025-3-27 14:46:49.51	WT901BLE68-01(48591DE3C19B)	-0.402	-1.212	0.375	-47.241	-54.138	-154.358	-84.47	27.53	-31.48	-42.042	-64.190	32.830	-0.80249	0.43579	-0.37064	-0.16916	29.7	13111	100
2025-3-27 14:46:49.111	WT901BLE68-01(48591DE3C19B)	-0.180	-1.212	0.375	-47.241	-54.138	-154.358	-84.69	25.88	-31.10	-42.042	-64.190	32.830	-0.80249	0.43579	-0.37064	-0.16916	29.7	13111	100
2025-3-27 14:46:49.111	WT901BLE68-01(48591DE3C19B)	-0.180	-1.234	0.346	-42.603	-38.086	-155.151	-84.96	24.25	-30.90	-42.042	-64.190	32.830	-0.80249	0.43579	-0.37064	-0.16916	29.7	13111	100
2025-3-27 14:46:49.111	WT901BLE68-01(48591DE3C19B)	-0.076	-1.234	0.346	-42.603	-38.086	-155.151	-85.23	22.63	-30.72	-42.042	-64.190	32.830	-0.80249	0.43579	-0.37064	-0.16916	29.7	13111	100
2025-3-27 14:46:49.111	WT901BLE68-01(48591DE3C19B)	-0.076	-1.212	0.255	-37.109	30.457	-155.945	-85.72	21.05	-31.27	-42.042	-64.190	32.830	-0.80249	0.43579	-0.37064	-0.16916	29.7	13111	100
2025-3-27 14:46:49.112	WT901BLE68-01(48591DE3C19B)	-0.169	-1.212	0.255	-37.109	30.457	-155.945	-86.19	19.47	-31.80	-42.042	-64.190	32.830	-0.80249	0.43579	-0.37064	-0.16916	29.7	13111	100
2025-3-27 14:46:49.112	WT901BLE68-01(48591DE3C19B)	-0.169	-1.159	0.162	-33.569	102.173	-157.654	-86.85	17.92	-33.06	-42.042	-64.190	32.830	-0.80249	0.43579	-0.37064	-0.16916	29.7	13111	100
2025-3-27 14:46:49.113	WT901BLE68-01(48591DE3C19B)	-0.362	-1.159	0.162	-33.569	102.173	-157.654	-87.47	16.36	-34.27	-42.042	-64.190	32.830	-0.80249	0.43579	-0.37064	-0.16916	29.7	13111	100
2025-3-27 14:46:49.113	WT901BLE68-01(48591DE3C19B)	-0.362	-1.145	0.116	-27.954	135.254	-156.921	-88.08	14.83	-35.77	-42.042	-64.190	32.830	-0.80249	0.43579	-0.37064	-0.16916	29.7	13111	100
2025-3-27 14:46:49.171	WT901BLE68-01(48591DE3C19B)	-0.521	-1.145	0.116	-27.954	135.254	-156.921	-88.65	13.30	-37.22	-42.042	-64.190	32.830	-0.80249	0.43579	-0.37064	-0.16916	29.7	13111	100
2025-3-27 14:46:49.171	WT901BLE68-01(48591DE3C19B)	-0.521	-1.107	0.153	-19.592	121.704	-159.851	-89.07	11.74	-38.47	-42.042	-64.190	32.830	-0.80249	0.43579	-0.37064	-0.16916	29.7	13111	100
2025-3-27 14:46:49.171	WT901BLE68-01(48591DE3C19B)	-0.600	-1.107	0.153	-19.592	121.704	-159.851	-89.45	10.19	-39.68	-42.042	-64.190	32.830	-0.80249	0.43579	-0.37064	-0.16916	29.7	13111	100
2025-3-27 14:46:49.171	WT901BLE68-01(48591DE3C19B)	-0.600	-1.048	0.218	-16.785	85.083	-161.926	-89.70	8.63	-40.46	-42.042	-64.190	32.830	-0.80249	0.43579	-0.37064	-0.16916	29.7	13111	100
2025-3-27 14:46:49.200	WT901BLE68-01(48591DE3C19B)	-0.577	-1.048	0.218	-16.785	85.083	-161.926	-89.93	7.09	-41.22	-42.042	-64.190	32.830	-0.67407	0.64682	-0.28592	0.21298	29.7	13111	100
2025-3-27 14:46:49.200	WT901BLE68-01(48591DE3C19B)	-0.577	-1.040	0.280	-17.090	45.410	-163.879	-90.10	5.54	-41.54	-42.042	-64.190	32.830	-0.67407	0.64682	-0.28592	0.21298	29.7	13111	100
2025-3-27 14:46:49.200	WT901BLE68-01(48591DE3C19B)	-0.496	-1.040	0.280	-17.090	45.410	-163.879	-90.27	4.00	-41.85	-42.042	-64.190	32.830	-0.67407	0.64682	-0.28592	0.21298	29.7	13111	100
2025-3-27 14:46:49.200	WT901BLE68-01(48591DE3C19B)	-0.496	-1.060	0.301	-15.137	13.123	-161.682	-90.38	2.50	-41.81	-42.042	-64.190	32.830	-0.67407	0.64682	-0.28592	0.21298	29.7	13111	100
2025-3-27 14:46:49.230	WT901BLE68-01(48591DE3C19B)	-0.505	-1.060	0.301	-15.137	13.123	-161.682	-90.49	1.02	-41.77	-42.042	-64.190	32.830	-0.67407	0.64682	-0.28592	0.21298	29.7	13111	100
2025-3-27 14:46:49.230	WT901BLE68-01(48591DE3C19B)	-0.461	-1.075	0.230	-16.113	26.062	-150.208	-90.62	-0.34	-41.85	-42.042	-64.190	32.830	-0.67407	0.64682	-0.28592	0.21298	29.7	13111	100
2025-3-27 14:46:49.230	WT901BLE68-01(48591DE3C19B)	-0.461	-1.114	0.231	-11.047	58.411	-142.700	-90.71	-1.66	-42.08	-42.042	-64.190	32.830	-0.67407	0.64682	-0.28592	0.21298	29.7	13111	100
2025-3-27 14:46:49.231	WT901BLE68-01(48591DE3C19B)	-0.351	-1.114	0.231	-11.047	58.411	-142.700	-90.76	-2.93	-42.46	-42.042	-64.190	32.830	-0.67407	0.64682	-0.28592	0.21298	29.7	13111	100
2025-3-27 14:46:49.321	WT901BLE68-01(48591DE3C19B)	-0.351	-1.111	0.292	4.395	104.553	-132.019	-90.72	-4.15	-43.08	-42.042	-64.190	32.830	-0.67407	0.64682	-0.28592	0.21298	29.7	13111	100
2025-3-27 14:46:49.322	WT901BLE68-01(48591DE3C19B)	-0.561	-1.111	0.292	4.395	104.553	-132.019	-90.55	-5.31	-43.93	-42.042	-64.190	32.830	-0.67407	0.64682	-0.28592	0.21298	29.7	13111	100
2025-3-27 14:46:49.322	WT901BLE68-01(48591DE3C19B)	-0.561	-1.063	0.277	16.174	163.635	-110.352	-90.29	-6.36	-45.08	-42.042	-64.190	32.830	-0.67407	0.64682	-0.28592	0.21298	29.7	13111	100
2025-3-27 14:46:49.322	WT901BLE68-01(48591DE3C19B)	-0.615	-1.063	0.277	16.174	163.635	-110.352	-89.91	-7.28	-46.53	-42.042	-64.190	32.830	-0.67407	0.64682	-0.28592	0.21298	29.7	13111	100
2025-3-27 14:46:49.322	WT901BLE68-01(48591DE3C19B)	-0.615	-0.987	0.257	22.583	185.059	-98.877	-89.47	-8.12	-48.08	-42.042	-64.190	32.830	-0.67407	0.64682	-0.28592	0.21298	29.7	13111	100
2025-3-27 14:46:49.322	WT901BLE68-01(48591DE3C19B)	-0.667	-0.987	0.257	22.583	185.059	-98.877	-88.97	-8.89	-49.72	-42.042	-64.190	32.830	-0.67407	0.64682	-0.28592	0.21298	29.7	13111	100
2025-3-27 14:46:49.322	WT901BLE68-01(48591DE3C19B)	-0.667	-0.893	0.173	24.536	184.082	-79.224	-88.44	-9.53	-51.36	-42.042	-64.190	32.830	-0.67407	0.64682	-0.28592	0.21298	29.7	13111	100
2025-3-27 14:46:49.323	WT901BLE68-01(48591DE3C19B)	-0.898	-0.893	0.173	24.536	184.082	-79.224	-87.90	-10.04	-52.98	-42.042	-64.190	32.830	-0.67407	0.64682	-0.28592	0.21298	29.7	13111	100
2025-3-27 14:46:49.350	WT901BLE68-01(48591DE3C19B)	-0.898	-0.896	0.215	15.747	149.170	-59.326	-87.43	-10.45	-54.40	-42.042	-64.190	32.830	-0.67407	0.64682	-0.28592	0.21298	29.7	13111	100
2025-3-27 14:46:49.350	WT901BLE68-01(48591DE3C19B)	-0.984	-0.896	0.215	15.747	149.170	-59.326	-87.04	-10.74	-55.64	-42.042	-64.190	32.830	-0.67407	0.64682	-0.28592	0.21298	29.7	13111	100
2025-3-27 14:46:49.350	WT901BLE68-01(48591DE3C19B)	-0.984	-0.963	0.256	14.038	86.914	-44.617	-86.73	-10.95	-56.55	-21.854	-32.144	45.962	-0.67407	0.64682	-0.28592	0.21298	29.7	13111	100
2025-3-27 14:46:49.351	WT901BLE68-01(48591DE3C19B)	-0.700	-0.963	0.256	14.038	86.914	-44.617	-86.50	-11.10	-57.12	-21.854	-32.144	45.962	-0.67407	0.64682	-0.28592	0.21298	29.7	13111	100
2025-3-27 14:46:49.501	WT901BLE68-01(48591DE3C19B)	-0.700	-1.016	0.322	22.522	62.805	-41.870	-86.25	-11.24	-57.57	-21.854	-32.144	45.962	-0.67407	0.64682	-0.28592	0.21298	29.7	13111	100
2025-3-27 14:46:49.501	WT901BLE68-01(48591DE3C19B)	-0.585	-1.016	0.322	22.522	62.805	-41.870	-85.98	-11.37	-57.89	-21.854	-32.144	45.962	-0.67407	0.64682	-0.28592	0.21298	29.7	13111	100
2025-3-27 14:46:49.502	WT901BLE68-01(48591DE3C19B)	-0.585	-0.990	0.343	31.738	71.899	-29.480	-85.65	-11.42	-58.26	-21.854	-32.144	45.962	-0.67407	0.64682	-0.28592	0.21298	29.7	13111	100
2025-3-27 14:46:49.502	WT901BLE68-01(48591DE3C19B)	-0.641	-0.990	0.343	31.738	71.899	-29.480	-85.27	-11.41	-58.67	-21.854	-32.144	45.962	-0.67407	0.64682	-0.28592	0.21298	29.7	13111	100
2025-3-27 14:46:49.502	WT901BLE68-01(48591DE3C19B)	-0.641	-0.975	0.232	18.494	95.764	-14.404	-84.94	-11.31	-59.19	-21.854	-32.144	45.962	-0.67407	0.64682	-0.28592	0.21298	29.7	13111	100
2025-3-27 14:46:49.503	WT901BLE68-01(48591DE3C19B)	-0.777	-0.975	0.232	18.494	95.764	-14.404	-84.64	-11.12	-59.84	-21.854	-32.144	45.962	-0.67407	0.64682	-0.28592	0.21298	29.7	13111	100
2025-3-27 14:46:49.503	WT901BLE68-01(48591DE3C19B)	-0.777	-1.066	0.120	9.277	97.290	5.676	-84.41	-10.83	-60.47	-21.854	-32.144	45.962	-0.67407	0.64682	-0.28592	0.21298	29.7	13111	100
2025-3-27 14:46:49.503	WT901BLE68-01(48591DE3C19B)	-0.934	-1.066	0.120	9.277	97.290	5.676	-84.23	-10.44	-61.09	-21.854	-32.144	45.962	-0.67407	0.64682	-0.28592	0.21298	29.7	13111	100
2025-3-27 14:46:49.503	WT901BLE68-01(48591DE3C19B)	-0.934	-0.974	0.061	8.301	69.458	28.992	-84.10	-9.94	-61.56	-21.854	-32.144	45.962	-0.67407	0.64682	-0.28592	0.21298	29.7	13111	100
2025-3-27 14:46:49.503	WT901BLE68-01(48591DE3C19B)	-1.012	-0.974	0.061	8.301	69.458	28.992	-84.02	-9.34	-61.88	-21.854	-32.144	45.962	-0.67407	0.64682	-0.28592	0.21298	29.7	13111	100
2025-3-27 14:46:49.503	WT901BLE68-01(48591DE3C19B)	-1.012	-0.986	0.103	-10.132	18.066	51.575	-84.08	-8.66	-61.91	-21.854	-32.144	45.962	-0.67407	0.64682	-0.28592	0.21298	29.7	13111	100
2025-3-27 14:46:49.503	WT901BLE68-01(48591DE3C19B)	-0.917	-0.986	0.103	-10.132	18.066	51.575	-84.29	-7.90	-61.68	-21.854	-32.144	45.962	-0.67407	0.64682	-0.28592	0.21298	29.7	13111	100
2025-3-27 14:46:49.531	WT901BLE68-01(48591DE3C19B)	-0.917	-1.080	0.233	-10.559	-67.505	67.017	-84.55	-7.10	-61.01	-21.854	-32.144	45.962	-0.67407	0.64682	-0.28592	0.21298	29.7	13111	100
2025-3-27 14:46:49.531	WT901BLE68-01(48591DE3C19B)	-0.649	-1.080	0.233	-10.559	-67.505	67.017	-84.86	-6.26	-59.91	-21.854	-32.144	45.962	-0.67407	0.64682	-0.28592	0.21298	29.7	13111	100
2025-3-27 14:46:49.531	WT901BLE68-01(48591DE3C19B)	-0.649	-0.925	0.257	-8.545	-113.892	90.759	-85.17	-5.32	-58.58	-21.854	-32.144	45.962	-0.67407	0.64682	-0.28592	0.21298	29.7	13111	100
2025-3-27 14:46:49.532	WT901BLE68-01(48591DE3C19B)	-0.426	-0.925	0.257	-8.545	-113.892	90.759	-85.45	-4.28	-57.02	-21.854	-32.144	45.962	-0.67407	0.64682	-0.28592	0.21298	29.7	13111	100
2025-3-27 14:46:49.560	WT901BLE68-01(48591DE3C19B)	-0.426	-0.881	0.162	-30.090	-91.797	114.624	-85.81	-3.11	-55.59	-21.854	-32.144	45.962	-0.67407	0.64682	-0.28592	0.21298	29.7	13111	100
2025-3-27 14:46:49.560	WT901BLE68-01(48591DE3C19B)	-0.386	-0.881	0.162	-30.090	-91.797	114.624	-86.23	-1.82	-54.26	-21.854	-32.144	45.962	-0.67407	0.64682	-0.28592	0.21298	29.7	13111	100
2025-3-27 14:46:49.560	WT901BLE68-01(48591DE3C19B)	-0.386	-1.003	0.077	-41.626	-54.871	143.799	-86.68	-0.37	-53.13	-21.854	-32.144	45.962	-0.67407	0.64682	-0.28592	0.21298	29.7	13111	100
2025-3-27 14:46:49.561	WT901BLE68-01(48591DE3C19B)	-0.562	-1.003	0.077	-41.626	-54.871	143.799	-87.15	1.22	-52.20	-21.854	-32.144	45.962	-0.65585	0.61578	-0.31281	0.30447	29.7	13111	100
2025-3-27 14:46:49.593	WT901BLE68-01(48591DE3C19B)	-0.562	-1.122	0.034	-45.166	-45.532	167.542	-87.61	2.94	-51.32	-21.854	-32.144	45.962	-0.65585	0.61578	-0.31281	0.30447	29.7	13111	100
2025-3-27 14:46:49.593	WT901BLE68-01(48591DE3C19B)	-0.591	-1.122	0.034	-45.166	-45.532	167.542	-88.07	4.76	-50.51	-21.854	-32.144	45.962	-0.65585	0.61578	-0.31281	0.30447	29.7	13111	100
2025-3-27 14:46:49.593	WT901BLE68-01(48591DE3C19B)	-0.591	-1.265	0.026	-48.889	-72.083	183.655	-88.51	6.65	-49.58	-21.854	-32.144	45.962	-0.65585	0.61578	-0.31281	0.30447	29.7	13111	100
2025-3-27 14:46:49.593	WT901BLE68-01(48591DE3C19B)	-0.497	-1.265	0.026	-48.889	-72.083	183.655	-88.92	8.61	-48.53	-21.854	-32.144	45.962	-0.65585	0.61578	-0.31281	0.30447	29.7	13111	100
2025-3-27 14:46:49.651	WT901BLE68-01(48591DE3C19B)	-0.497	-1.457	0.066	-45.166	-106.628	192.993	-89.26	10.60	-47.32	-21.854	-32.144	45.962	-0.65585	0.61578	-0.31281	0.30447	29.7	13111	100
2025-3-27 14:46:49.651	WT901BLE68-01(48591DE3C19B)	-0.352	-1.457	0.066	-45.166	-106.628	192.993	-89.50	12.62	-45.96	-21.854	-32.144	45.962	-0.65585	0.61578	-0.31281	0.30447	29.7	13111	100
2025-3-27 14:46:49.651	WT901BLE68-01(48591DE3C19B)	-0.352	-1.569	0.117	-27.771	-123.352	196.960	-89.58	14.65	-44.51	-21.854	-32.144	45.962	-0.65585	0.61578	-0.31281	0.30447	29.7	13111	100
2025-3-27 14:46:49.651	WT901BLE68-01(48591DE3C19B)	-0.211	-1.569	0.117	-27.771	-123.352	196.960	-89.51	16.67	-42.97	-21.854	-32.144	45.962	-0.65585	0.61578	-0.31281	0.30447	29.7	13111	100
2025-3-27 14:46:49.680	WT901BLE68-01(48591DE3C19B)	-0.211	-1.460	0.163	-9.766	-98.145	195.129	-89.32	18.67	-41.57	-21.854	-32.144	45.962	-0.65585	0.61578	-0.31281	0.30447	29.7	13111	100
2025-3-27 14:46:49.680	WT901BLE68-01(48591DE3C19B)	-0.172	-1.460	0.163	-9.766	-98.145	195.129	-89.03	20.62	-40.30	-21.854	-32.144	45.962	-0.65585	0.61578	-0.31281	0.30447	29.7	13111	100
2025-3-27 14:46:49.680	WT901BLE68-01(48591DE3C19B)	-0.172	-1.278	0.149	-12.390	-48.462	187.866	-88.81	22.52	-39.28	-21.854	-32.144	45.962	-0.65585	0.61578	-0.31281	0.30447	29.7	13111	100
2025-3-27 14:46:49.680	WT901BLE68-01(48591DE3C19B)	-0.256	-1.278	0.149	-12.390	-48.462	187.866	-88.68	24.37	-38.53	-21.854	-32.144	45.962	-0.65585	0.61578	-0.31281	0.30447	29.7	13111	100
2025-3-27 14:46:49.710	WT901BLE68-01(48591DE3C19B)	-0.256	-1.218	0.083	-17.822	-9.521	183.899	-88.75	26.17	-38.22	-21.854	-32.144	45.962	-0.65585	0.61578	-0.31281	0.30447	29.7	13111	100
2025-3-27 14:46:49.711	WT901BLE68-01(48591DE3C19B)	-0.375	-1.218	0.083	-17.822	-9.521	183.899	-88.82	27.96	-37.91	-21.854	-32.144	45.962	-0.65585	0.61578	-0.31281	0.30447	29.7	13111	100
2025-3-27 14:46:49.711	WT901BLE68-01(48591DE3C19B)	-0.375	-1.150	0.073	-14.893	-3.418	175.659	-88.90	29.66	-37.67	-21.854	-32.144	45.962	-0.65585	0.61578	-0.31281	0.30447	29.7	13111	100
2025-3-27 14:46:49.711	WT901BLE68-01(48591DE3C19B)	-0.415	-1.150	0.073	-14.893	-3.418	175.659	-88.96	31.34	-37.45	-21.854	-32.144	45.962	-0.65585	0.61578	-0.31281	0.30447	29.7	13111	100
2025-3-27 14:46:49.771	WT901BLE68-01(48591DE3C19B)	-0.415	-1.071	0.112	-15.869	-19.287	167.297	-88.93	32.93	-37.03	-21.854	-32.144	45.962	-0.65585	0.61578	-0.31281	0.30447	29.7	13111	100
2025-3-27 14:46:49.771	WT901BLE68-01(48591DE3C19B)	-0.422	-1.071	0.112	-15.869	-19.287	167.297	-88.89	34.51	-36.62	-21.854	-32.144	45.962	-0.65585	0.61578	-0.31281	0.30447	29.7	13111	100
2025-3-27 14:46:49.771	WT901BLE68-01(48591DE3C19B)	-0.422	-1.028	0.118	-16.907	-41.138	160.645	-88.70	36.01	-35.94	-21.854	-32.144	45.962	-0.65585	0.61578	-0.31281	0.30447	29.7	13111	100
2025-3-27 14:46:49.771	WT901BLE68-01(48591DE3C19B)	-0.359	-1.028	0.118	-16.907	-41.138	160.645	-88.48	37.51	-35.24	-21.854	-32.144	45.962	-0.65585	0.61578	-0.31281	0.30447	29.7	13111	100
2025-3-27 14:46:49.800	WT901BLE68-01(48591DE3C19B)	-0.359	-0.986	0.124	-10.986	-67.444	153.381	-87.97	38.91	-34.19	-33.516	-57.820	43.512	-0.65585	0.61578	-0.31281	0.30447	29.7	13111	100
2025-3-27 14:46:49.800	WT901BLE68-01(48591DE3C19B)	-0.241	-0.986	0.124	-10.986	-67.444	153.381	-87.43	40.30	-33.12	-33.516	-57.820	43.512	-0.65585	0.61578	-0.31281	0.30447	29.7	13111	100
2025-3-27 14:46:49.800	WT901BLE68-01(48591DE3C19B)	-0.241	-0.934	0.100	-8.850	-79.590	146.057	-86.73	41.58	-31.88	-33.516	-57.820	43.512	-0.65585	0.61578	-0.31281	0.30447	29.7	13111	100
2025-3-27 14:46:49.800	WT901BLE68-01(48591DE3C19B)	-0.169	-0.934	0.100	-8.850	-79.590	146.057	-85.98	42.85	-30.61	-33.516	-57.820	43.512	-0.65585	0.61578	-0.31281	0.30447	29.7	13111	100
2025-3-27 14:46:49.830	WT901BLE68-01(48591DE3C19B)	-0.169	-0.921	0.070	-6.836	-75.256	137.939	-85.21	44.01	-29.37	-33.516	-57.820	43.512	-0.65585	0.61578	-0.31281	0.30447	29.7	13111	100
2025-3-27 14:46:49.831	WT901BLE68-01(48591DE3C19B)	-0.184	-0.921	0.070	-6.836	-75.256	137.939	-84.41	45.15	-28.12	-33.516	-57.820	43.512	-0.65585	0.61578	-0.31281	0.30447	29.7	13111	100
2025-3-27 14:46:49.831	WT901BLE68-01(48591DE3C19B)	-0.184	-0.908	0.083	-5.371	-71.960	128.906	-83.59	46.19	-26.90	-33.516	-57.820	43.512	-0.65585	0.61578	-0.31281	0.30447	29.7	13111	100
2025-3-27 14:46:49.831	WT901BLE68-01(48591DE3C19B)	-0.150	-0.908	0.083	-5.371	-71.960	128.906	-82.74	47.20	-25.66	-33.516	-57.820	43.512	-0.65585	0.61578	-0.31281	0.30447	29.7	13111	100
2025-3-27 14:46:49.892	WT901BLE68-01(48591DE3C19B)	-0.150	-0.880	0.088	-4.761	-73.242	116.577	-81.85	48.07	-24.40	-33.516	-57.820	43.512	-0.65585	0.61578	-0.31281	0.30447	29.7	13111	100
2025-3-27 14:46:49.892	WT901BLE68-01(48591DE3C19B)	-0.066	-0.880	0.088	-4.761	-73.242	116.577	-80.94	48.92	-23.13	-33.516	-57.820	43.512	-0.65585	0.61578	-0.31281	0.30447	29.7	13111	100
2025-3-27 14:46:49.892	WT901BLE68-01(48591DE3C19B)	-0.066	-0.826	0.081	-2.380	-69.702	102.112	-80.03	49.61	-21.92	-33.516	-57.820	43.512	-0.65585	0.61578	-0.31281	0.30447	29.7	13111	100
2025-3-27 14:46:49.892	WT901BLE68-01(48591DE3C19B)	-0.016	-0.826	0.081	-2.380	-69.702	102.112	-79.10	50.28	-20.71	-33.516	-57.820	43.512	-0.65585	0.61578	-0.31281	0.30447	29.7	13111	100
2025-3-27 14:46:49.920	WT901BLE68-01(48591DE3C19B)	-0.016	-0.781	0.087	-0.122	-63.782	85.815	-78.24	50.78	-19.63	-33.516	-57.820	43.512	-0.65585	0.61578	-0.31281	0.30447	29.7	13111	100
2025-3-27 14:46:49.921	WT901BLE68-01(48591DE3C19B)	0.017	-0.781	0.087	-0.122	-63.782	85.815	-77.38	51.26	-18.56	-33.516	-57.820	43.512	-0.65585	0.61578	-0.31281	0.30447	29.7	13111	100
