time	DeviceName	AccX(g)	AccY(g)	AccZ(g)	AsX(°/s)	AsY(°/s)	AsZ(°/s)	AngleX(°)	AngleY(°)	AngleZ(°)	HX(uT)	HY(uT)	HZ(uT)	Q0()	Q1()	Q2()	Q3()	Temperature(°C)	Version()	Battery level(%)
2025-3-27 14:55:41.739	WT901BLE68-01(48591DE3C19B)	-0.197	-0.947	0.247	-1.282	1.831	0.244	-77.05	11.55	-95.22	-78.106	-33.908	2.646	-0.57199	0.36102	-0.50833	0.53290	30.5	13111	100
2025-3-27 14:55:41.739	WT901BLE68-01(48591DE3C19B)	-0.197	-0.947	0.246	-1.343	2.197	0.305	-77.05	11.56	-95.24	-78.106	-33.908	2.646	-0.57199	0.36102	-0.50833	0.53290	30.5	13111	100
2025-3-27 14:55:41.739	WT901BLE68-01(48591DE3C19B)	-0.197	-0.947	0.246	-1.343	2.197	0.305	-77.06	11.56	-95.26	-78.106	-33.908	2.646	-0.57199	0.36102	-0.50833	0.53290	30.5	13111	100
2025-3-27 14:55:41.740	WT901BLE68-01(48591DE3C19B)	-0.197	-0.950	0.247	-1.343	2.686	0.305	-77.07	11.57	-95.28	-78.106	-33.516	2.450	-0.57199	0.36102	-0.50833	0.53290	30.5	13111	100
2025-3-27 14:55:41.772	WT901BLE68-01(48591DE3C19B)	-0.199	-0.950	0.247	-1.343	2.686	0.305	-77.08	11.58	-95.31	-78.106	-33.516	2.450	-0.57199	0.36102	-0.50833	0.53290	30.5	13111	100
2025-3-27 14:55:41.772	WT901BLE68-01(48591DE3C19B)	-0.199	-0.952	0.249	-1.038	3.113	0.244	-77.09	11.59	-95.33	-78.106	-33.516	2.450	-0.57199	0.36102	-0.50833	0.53290	30.5	13111	100
2025-3-27 14:55:41.772	WT901BLE68-01(48591DE3C19B)	-0.201	-0.952	0.249	-1.038	3.113	0.244	-77.09	11.60	-95.36	-78.106	-33.516	2.450	-0.57199	0.36102	-0.50833	0.53290	30.5	13111	100
2025-3-27 14:55:41.772	WT901BLE68-01(48591DE3C19B)	-0.201	-0.951	0.249	-0.916	3.052	0.183	-77.10	11.60	-95.39	-78.106	-33.516	2.450	-0.57199	0.36102	-0.50833	0.53290	30.5	13111	100
2025-3-27 14:55:41.773	WT901BLE68-01(48591DE3C19B)	-0.200	-0.951	0.249	-0.916	3.052	0.183	-77.10	11.61	-95.42	-78.106	-33.516	2.450	-0.57199	0.36102	-0.50833	0.53290	30.5	13111	100
2025-3-27 14:55:41.773	WT901BLE68-01(48591DE3C19B)	-0.200	-0.948	0.245	-0.916	2.625	0.061	-77.11	11.61	-95.44	-78.106	-33.516	2.450	-0.57199	0.36102	-0.50833	0.53290	30.5	13111	100
2025-3-27 14:55:41.773	WT901BLE68-01(48591DE3C19B)	-0.200	-0.948	0.245	-0.916	2.625	0.061	-77.11	11.62	-95.47	-78.106	-33.516	2.450	-0.57199	0.36102	-0.50833	0.53290	30.5	13111	100
2025-3-27 14:55:41.773	WT901BLE68-01(48591DE3C19B)	-0.200	-0.946	0.246	-0.854	1.831	-0.122	-77.11	11.62	-95.48	-78.106	-33.516	2.450	-0.57199	0.36102	-0.50833	0.53290	30.5	13111	100
2025-3-27 14:55:41.890	WT901BLE68-01(48591DE3C19B)	-0.197	-0.946	0.246	-0.854	1.831	-0.122	-77.11	11.62	-95.49	-78.106	-33.516	2.450	-0.57199	0.36102	-0.50833	0.53290	30.5	13111	100
2025-3-27 14:55:41.891	WT901BLE68-01(48591DE3C19B)	-0.197	-0.941	0.250	-0.793	1.343	-0.366	-77.11	11.62	-95.50	-78.106	-33.516	2.450	-0.57199	0.36102	-0.50833	0.53290	30.5	13111	100
2025-3-27 14:55:41.891	WT901BLE68-01(48591DE3C19B)	-0.196	-0.941	0.250	-0.793	1.343	-0.366	-77.11	11.62	-95.52	-78.106	-33.516	2.450	-0.57199	0.36102	-0.50833	0.53290	30.5	13111	100
2025-3-27 14:55:41.891	WT901BLE68-01(48591DE3C19B)	-0.196	-0.940	0.248	-1.160	1.587	-0.732	-77.12	11.61	-95.53	-78.106	-33.516	2.450	-0.57199	0.36102	-0.50833	0.53290	30.5	13111	100
2025-3-27 14:55:42.41	WT901BLE68-01(48591DE3C19B)	-0.200	-0.940	0.248	-1.160	1.587	-0.732	-77.12	11.61	-95.54	-78.106	-33.516	2.450	-0.57199	0.36102	-0.50833	0.53290	30.5	13111	100
2025-3-27 14:55:42.41	WT901BLE68-01(48591DE3C19B)	-0.200	-0.956	0.244	-1.221	1.648	-1.404	-77.13	11.60	-95.56	-78.106	-33.516	2.450	-0.57199	0.36102	-0.50833	0.53290	30.5	13111	100
2025-3-27 14:55:42.41	WT901BLE68-01(48591DE3C19B)	-0.206	-0.956	0.244	-1.221	1.648	-1.404	-77.14	11.59	-95.58	-78.106	-33.516	2.450	-0.56921	0.35822	-0.51242	0.53384	30.5	13111	100
2025-3-27 14:55:42.41	WT901BLE68-01(48591DE3C19B)	-0.206	-0.956	0.247	-0.671	1.038	-1.953	-77.14	11.57	-95.59	-78.106	-33.516	2.450	-0.56921	0.35822	-0.51242	0.53384	30.5	13111	100
2025-3-27 14:55:42.42	WT901BLE68-01(48591DE3C19B)	-0.208	-0.956	0.247	-0.671	1.038	-1.953	-77.13	11.55	-95.60	-78.106	-33.516	2.450	-0.56921	0.35822	-0.51242	0.53384	30.5	13111	100
2025-3-27 14:55:42.42	WT901BLE68-01(48591DE3C19B)	-0.208	-0.950	0.251	-0.732	-0.244	-2.197	-77.13	11.53	-95.60	-78.106	-33.516	2.450	-0.56921	0.35822	-0.51242	0.53384	30.5	13111	100
2025-3-27 14:55:42.42	WT901BLE68-01(48591DE3C19B)	-0.199	-0.950	0.251	-0.732	-0.244	-2.197	-77.13	11.51	-95.60	-78.106	-33.516	2.450	-0.56921	0.35822	-0.51242	0.53384	30.5	13111	100
2025-3-27 14:55:42.42	WT901BLE68-01(48591DE3C19B)	-0.201	-0.947	0.246	-0.793	-0.183	-2.075	-77.12	11.49	-95.60	-78.106	-33.516	2.450	-0.56921	0.35822	-0.51242	0.53384	30.5	13111	100
2025-3-27 14:55:42.42	WT901BLE68-01(48591DE3C19B)	-0.201	-0.939	0.247	-0.610	0.916	-1.831	-77.12	11.48	-95.60	-78.106	-33.516	2.450	-0.56921	0.35822	-0.51242	0.53384	30.5	13111	100
2025-3-27 14:55:42.42	WT901BLE68-01(48591DE3C19B)	-0.207	-0.939	0.247	-0.610	0.916	-1.831	-77.12	11.46	-95.61	-78.106	-33.516	2.450	-0.56921	0.35822	-0.51242	0.53384	30.5	13111	100
2025-3-27 14:55:42.43	WT901BLE68-01(48591DE3C19B)	-0.207	-0.937	0.251	-0.854	0.916	-1.648	-77.12	11.44	-95.62	-78.106	-33.516	2.450	-0.56921	0.35822	-0.51242	0.53384	30.5	13111	100
2025-3-27 14:55:42.43	WT901BLE68-01(48591DE3C19B)	-0.209	-0.937	0.251	-0.854	0.916	-1.648	-77.12	11.43	-95.63	-78.106	-33.516	2.450	-0.56921	0.35822	-0.51242	0.53384	30.5	13111	100
2025-3-27 14:55:42.43	WT901BLE68-01(48591DE3C19B)	-0.209	-0.939	0.252	-1.038	0.183	-1.648	-77.12	11.42	-95.64	-78.106	-33.516	2.450	-0.56921	0.35822	-0.51242	0.53384	30.5	13111	100
2025-3-27 14:55:42.43	WT901BLE68-01(48591DE3C19B)	-0.206	-0.939	0.252	-1.038	0.183	-1.648	-77.12	11.40	-95.64	-78.106	-33.516	2.450	-0.56921	0.35822	-0.51242	0.53384	30.5	13111	100
2025-3-27 14:55:42.43	WT901BLE68-01(48591DE3C19B)	-0.206	-0.945	0.249	-1.099	0.061	-1.648	-77.12	11.39	-95.64	-78.106	-33.516	2.450	-0.56921	0.35822	-0.51242	0.53384	30.5	13111	100
2025-3-27 14:55:42.43	WT901BLE68-01(48591DE3C19B)	-0.202	-0.945	0.249	-1.099	0.061	-1.648	-77.12	11.38	-95.64	-78.106	-33.516	2.450	-0.56921	0.35822	-0.51242	0.53384	30.5	13111	100
2025-3-27 14:55:42.44	WT901BLE68-01(48591DE3C19B)	-0.202	-0.949	0.246	-0.732	0.549	-1.404	-77.12	11.37	-95.65	-78.106	-33.516	2.450	-0.56921	0.35822	-0.51242	0.53384	30.5	13111	100
2025-3-27 14:55:42.44	WT901BLE68-01(48591DE3C19B)	-0.201	-0.949	0.246	-0.732	0.549	-1.404	-77.12	11.35	-95.65	-78.106	-33.516	2.450	-0.56921	0.35822	-0.51242	0.53384	30.5	13111	100
2025-3-27 14:55:42.44	WT901BLE68-01(48591DE3C19B)	-0.201	-0.946	0.248	-0.549	1.404	-0.916	-77.12	11.35	-95.66	-78.106	-33.516	2.450	-0.56921	0.35822	-0.51242	0.53384	30.5	13111	100
2025-3-27 14:55:42.44	WT901BLE68-01(48591DE3C19B)	-0.204	-0.946	0.248	-0.549	1.404	-0.916	-77.11	11.34	-95.67	-78.106	-33.516	2.450	-0.56921	0.35822	-0.51242	0.53384	30.5	13111	100
2025-3-27 14:55:42.45	WT901BLE68-01(48591DE3C19B)	-0.204	-0.952	0.245	-0.854	1.770	-0.610	-77.11	11.34	-95.69	-78.106	-33.516	2.450	-0.56921	0.35822	-0.51242	0.53384	30.5	13111	100
2025-3-27 14:55:42.45	WT901BLE68-01(48591DE3C19B)	-0.207	-0.952	0.245	-0.854	1.770	-0.610	-77.11	11.34	-95.70	-78.106	-33.516	2.450	-0.56921	0.35822	-0.51242	0.53384	30.5	13111	100
2025-3-27 14:55:42.45	WT901BLE68-01(48591DE3C19B)	-0.207	-0.956	0.247	-0.854	0.916	-0.488	-77.12	11.34	-95.71	-78.106	-33.516	2.450	-0.56921	0.35822	-0.51242	0.53384	30.5	13111	100
2025-3-27 14:55:42.45	WT901BLE68-01(48591DE3C19B)	-0.204	-0.956	0.247	-0.854	0.916	-0.488	-77.12	11.34	-95.72	-78.106	-33.516	2.450	-0.56921	0.35822	-0.51242	0.53384	30.5	13111	100
2025-3-27 14:55:42.101	WT901BLE68-01(48591DE3C19B)	-0.204	-0.954	0.248	-0.977	-0.244	-0.732	-77.11	11.34	-95.72	-78.106	-33.516	2.450	-0.56921	0.35822	-0.51242	0.53384	30.5	13111	100
2025-3-27 14:55:42.101	WT901BLE68-01(48591DE3C19B)	-0.199	-0.954	0.248	-0.977	-0.244	-0.732	-77.11	11.34	-95.72	-78.106	-33.516	2.450	-0.56921	0.35822	-0.51242	0.53384	30.5	13111	100
2025-3-27 14:55:42.101	WT901BLE68-01(48591DE3C19B)	-0.199	-0.952	0.246	-0.916	-0.916	-1.221	-77.11	11.33	-95.71	-77.910	-33.712	2.450	-0.56921	0.35822	-0.51242	0.53384	30.5	13111	100
2025-3-27 14:55:42.101	WT901BLE68-01(48591DE3C19B)	-0.195	-0.952	0.246	-0.916	-0.916	-1.221	-77.11	11.32	-95.70	-77.910	-33.712	2.450	-0.56921	0.35822	-0.51242	0.53384	30.5	13111	100
2025-3-27 14:55:42.251	WT901BLE68-01(48591DE3C19B)	-0.195	-0.950	0.243	-0.916	-1.221	-1.892	-77.11	11.30	-95.69	-77.910	-33.712	2.450	-0.56921	0.35822	-0.51242	0.53384	30.5	13111	100
2025-3-27 14:55:42.251	WT901BLE68-01(48591DE3C19B)	-0.195	-0.950	0.243	-0.916	-1.221	-1.892	-77.11	11.28	-95.68	-77.910	-33.712	2.450	-0.56921	0.35822	-0.51242	0.53384	30.5	13111	100
2025-3-27 14:55:42.251	WT901BLE68-01(48591DE3C19B)	-0.195	-0.947	0.243	-1.038	-1.282	-2.502	-77.10	11.26	-95.67	-77.910	-33.712	2.450	-0.56921	0.35822	-0.51242	0.53384	30.5	13111	100
2025-3-27 14:55:42.251	WT901BLE68-01(48591DE3C19B)	-0.198	-0.947	0.243	-1.038	-1.282	-2.502	-77.10	11.23	-95.66	-77.910	-33.712	2.450	-0.56921	0.35822	-0.51242	0.53384	30.5	13111	100
2025-3-27 14:55:42.252	WT901BLE68-01(48591DE3C19B)	-0.198	-0.944	0.245	-1.221	-1.770	-3.113	-77.10	11.21	-95.65	-77.910	-33.712	2.450	-0.56921	0.35822	-0.51242	0.53384	30.5	13111	100
2025-3-27 14:55:42.252	WT901BLE68-01(48591DE3C19B)	-0.199	-0.944	0.245	-1.221	-1.770	-3.113	-77.10	11.17	-95.63	-77.910	-33.712	2.450	-0.56921	0.35822	-0.51242	0.53384	30.5	13111	100
2025-3-27 14:55:42.252	WT901BLE68-01(48591DE3C19B)	-0.199	-0.945	0.246	-1.587	-2.502	-4.089	-77.11	11.13	-95.61	-77.910	-33.712	2.450	-0.56921	0.35822	-0.51242	0.53384	30.5	13111	100
2025-3-27 14:55:42.252	WT901BLE68-01(48591DE3C19B)	-0.200	-0.945	0.246	-1.587	-2.502	-4.089	-77.11	11.09	-95.60	-77.910	-33.712	2.450	-0.56921	0.35822	-0.51242	0.53384	30.5	13111	100
2025-3-27 14:55:42.280	WT901BLE68-01(48591DE3C19B)	-0.200	-0.949	0.246	-1.831	-2.991	-5.127	-77.11	11.05	-95.58	-77.910	-33.712	2.450	-0.56921	0.35822	-0.51242	0.53384	30.5	13111	100
2025-3-27 14:55:42.280	WT901BLE68-01(48591DE3C19B)	-0.200	-0.949	0.246	-1.831	-2.991	-5.127	-77.12	10.99	-95.55	-77.910	-33.712	2.450	-0.56921	0.35822	-0.51242	0.53384	30.5	13111	100
2025-3-27 14:55:42.280	WT901BLE68-01(48591DE3C19B)	-0.200	-0.957	0.246	-1.953	-3.174	-5.920	-77.12	10.93	-95.53	-77.910	-33.712	2.450	-0.56921	0.35822	-0.51242	0.53384	30.5	13111	100
2025-3-27 14:55:42.280	WT901BLE68-01(48591DE3C19B)	-0.202	-0.957	0.246	-1.953	-3.174	-5.920	-77.13	10.87	-95.52	-77.910	-33.712	2.450	-0.56921	0.35822	-0.51242	0.53384	30.5	13111	100
2025-3-27 14:55:42.372	WT901BLE68-01(48591DE3C19B)	-0.202	-0.954	0.244	-1.770	-3.052	-6.348	-77.14	10.81	-95.49	-77.910	-33.712	2.450	-0.56921	0.35822	-0.51242	0.53384	30.5	13111	100
2025-3-27 14:55:42.372	WT901BLE68-01(48591DE3C19B)	-0.208	-0.954	0.244	-1.770	-3.052	-6.348	-77.14	10.74	-95.47	-77.910	-33.712	2.450	-0.56921	0.35822	-0.51242	0.53384	30.5	13111	100
2025-3-27 14:55:42.372	WT901BLE68-01(48591DE3C19B)	-0.208	-0.948	0.245	-2.075	-3.479	-6.653	-77.15	10.68	-95.45	-77.910	-33.712	2.450	-0.56921	0.35822	-0.51242	0.53384	30.5	13111	100
2025-3-27 14:55:42.372	WT901BLE68-01(48591DE3C19B)	-0.213	-0.948	0.245	-2.075	-3.479	-6.653	-77.15	10.61	-95.43	-77.910	-33.712	2.450	-0.56921	0.35822	-0.51242	0.53384	30.5	13111	100
2025-3-27 14:55:42.373	WT901BLE68-01(48591DE3C19B)	-0.213	-0.945	0.247	-2.686	-4.700	-6.775	-77.16	10.55	-95.40	-77.910	-33.712	2.450	-0.56921	0.35822	-0.51242	0.53384	30.5	13111	100
2025-3-27 14:55:42.373	WT901BLE68-01(48591DE3C19B)	-0.215	-0.945	0.247	-2.686	-4.700	-6.775	-77.17	10.48	-95.37	-77.910	-33.712	2.450	-0.56921	0.35822	-0.51242	0.53384	30.5	13111	100
2025-3-27 14:55:42.373	WT901BLE68-01(48591DE3C19B)	-0.215	-0.947	0.248	-2.991	-6.042	-6.897	-77.18	10.40	-95.33	-77.910	-33.712	2.450	-0.56595	0.36627	-0.50674	0.53726	30.5	13111	100
2025-3-27 14:55:42.373	WT901BLE68-01(48591DE3C19B)	-0.216	-0.947	0.248	-2.991	-6.042	-6.897	-77.20	10.33	-95.28	-77.910	-33.712	2.450	-0.56595	0.36627	-0.50674	0.53726	30.5	13111	100
2025-3-27 14:55:42.490	WT901BLE68-01(48591DE3C19B)	-0.216	-0.952	0.250	-3.357	-7.263	-7.019	-77.21	10.26	-95.23	-77.910	-33.712	2.450	-0.56595	0.36627	-0.50674	0.53726	30.5	13111	100
2025-3-27 14:55:42.490	WT901BLE68-01(48591DE3C19B)	-0.212	-0.952	0.250	-3.357	-7.263	-7.019	-77.22	10.19	-95.17	-77.910	-33.712	2.450	-0.56595	0.36627	-0.50674	0.53726	30.5	13111	100
2025-3-27 14:55:42.490	WT901BLE68-01(48591DE3C19B)	-0.212	-0.961	0.253	-3.296	-7.935	-6.958	-77.23	10.11	-95.11	-77.910	-33.712	2.450	-0.56595	0.36627	-0.50674	0.53726	30.5	13111	100
2025-3-27 14:55:42.491	WT901BLE68-01(48591DE3C19B)	-0.216	-0.961	0.253	-3.296	-7.935	-6.958	-77.24	10.04	-95.05	-77.910	-33.712	2.450	-0.56595	0.36627	-0.50674	0.53726	30.5	13111	100
2025-3-27 14:55:42.491	WT901BLE68-01(48591DE3C19B)	-0.216	-0.964	0.254	-2.625	-8.118	-6.592	-77.25	9.97	-94.98	-77.910	-33.712	2.450	-0.56595	0.36627	-0.50674	0.53726	30.5	13111	100
2025-3-27 14:55:42.491	WT901BLE68-01(48591DE3C19B)	-0.215	-0.964	0.254	-2.625	-8.118	-6.592	-77.26	9.90	-94.92	-77.910	-33.712	2.450	-0.56595	0.36627	-0.50674	0.53726	30.5	13111	100
2025-3-27 14:55:42.491	WT901BLE68-01(48591DE3C19B)	-0.215	-0.961	0.252	-1.953	-8.667	-6.165	-77.25	9.83	-94.84	-77.910	-33.712	2.450	-0.56595	0.36627	-0.50674	0.53726	30.5	13111	100
2025-3-27 14:55:42.491	WT901BLE68-01(48591DE3C19B)	-0.208	-0.961	0.252	-1.953	-8.667	-6.165	-77.24	9.77	-94.77	-77.910	-33.712	2.450	-0.56595	0.36627	-0.50674	0.53726	30.5	13111	100
2025-3-27 14:55:42.492	WT901BLE68-01(48591DE3C19B)	-0.208	-0.966	0.251	-1.343	-8.423	-4.944	-77.24	9.71	-94.70	-77.910	-33.712	2.450	-0.56595	0.36627	-0.50674	0.53726	30.5	13111	100
2025-3-27 14:55:42.492	WT901BLE68-01(48591DE3C19B)	-0.199	-0.966	0.251	-1.343	-8.423	-4.944	-77.23	9.66	-94.63	-77.910	-33.712	2.450	-0.56595	0.36627	-0.50674	0.53726	30.5	13111	100
2025-3-27 14:55:42.492	WT901BLE68-01(48591DE3C19B)	-0.199	-0.976	0.249	-0.305	-6.775	-3.296	-77.21	9.63	-94.57	-77.910	-33.712	2.450	-0.56595	0.36627	-0.50674	0.53726	30.5	13111	100
2025-3-27 14:55:42.492	WT901BLE68-01(48591DE3C19B)	-0.185	-0.976	0.249	-0.305	-6.775	-3.296	-77.19	9.60	-94.52	-77.910	-33.712	2.450	-0.56595	0.36627	-0.50674	0.53726	30.5	13111	100
2025-3-27 14:55:42.492	WT901BLE68-01(48591DE3C19B)	-0.185	-0.980	0.244	0.854	-4.089	-1.282	-77.17	9.59	-94.48	-77.910	-33.712	2.450	-0.56595	0.36627	-0.50674	0.53726	30.5	13111	100
2025-3-27 14:55:42.492	WT901BLE68-01(48591DE3C19B)	-0.178	-0.980	0.244	0.854	-4.089	-1.282	-77.14	9.57	-94.44	-77.910	-33.712	2.450	-0.56595	0.36627	-0.50674	0.53726	30.5	13111	100
2025-3-27 14:55:42.493	WT901BLE68-01(48591DE3C19B)	-0.178	-0.982	0.247	2.014	-0.793	1.221	-77.11	9.60	-94.43	-77.910	-33.712	2.450	-0.56595	0.36627	-0.50674	0.53726	30.5	13111	100
2025-3-27 14:55:42.493	WT901BLE68-01(48591DE3C19B)	-0.169	-0.982	0.247	2.014	-0.793	1.221	-77.08	9.62	-94.42	-77.910	-33.712	2.450	-0.56595	0.36627	-0.50674	0.53726	30.5	13111	100
2025-3-27 14:55:42.521	WT901BLE68-01(48591DE3C19B)	-0.169	-0.971	0.241	3.418	1.648	4.150	-77.04	9.67	-94.43	-77.910	-33.712	2.450	-0.56595	0.36627	-0.50674	0.53726	30.5	13111	100
2025-3-27 14:55:42.521	WT901BLE68-01(48591DE3C19B)	-0.163	-0.971	0.241	3.418	1.648	4.150	-77.00	9.72	-94.44	-77.910	-33.712	2.450	-0.56595	0.36627	-0.50674	0.53726	30.5	13111	100
2025-3-27 14:55:42.521	WT901BLE68-01(48591DE3C19B)	-0.163	-0.970	0.233	3.174	2.319	6.714	-76.96	9.80	-94.44	-77.910	-33.712	2.450	-0.56595	0.36627	-0.50674	0.53726	30.5	13111	100
2025-3-27 14:55:42.521	WT901BLE68-01(48591DE3C19B)	-0.172	-0.970	0.233	3.174	2.319	6.714	-76.92	9.88	-94.45	-77.910	-33.712	2.450	-0.56595	0.36627	-0.50674	0.53726	30.5	13111	100
2025-3-27 14:55:42.522	WT901BLE68-01(48591DE3C19B)	-0.172	-0.985	0.229	3.906	1.404	9.216	-76.88	9.97	-94.44	-77.910	-33.712	2.450	-0.56595	0.36627	-0.50674	0.53726	30.5	13111	100
2025-3-27 14:55:42.522	WT901BLE68-01(48591DE3C19B)	-0.164	-0.985	0.229	3.906	1.404	9.216	-76.83	10.07	-94.44	-77.910	-33.712	2.450	-0.56595	0.36627	-0.50674	0.53726	30.5	13111	100
2025-3-27 14:55:42.522	WT901BLE68-01(48591DE3C19B)	-0.164	-0.966	0.221	4.517	-2.014	11.780	-76.77	10.18	-94.39	-78.792	-34.006	3.038	-0.56595	0.36627	-0.50674	0.53726	30.5	13111	100
2025-3-27 14:55:42.522	WT901BLE68-01(48591DE3C19B)	-0.143	-0.966	0.221	4.517	-2.014	11.780	-76.72	10.29	-94.34	-78.792	-34.006	3.038	-0.56595	0.36627	-0.50674	0.53726	30.5	13111	100
2025-3-27 14:55:42.580	WT901BLE68-01(48591DE3C19B)	-0.143	-0.967	0.217	1.892	-3.296	13.428	-76.68	10.41	-94.27	-78.792	-34.006	3.038	-0.56595	0.36627	-0.50674	0.53726	30.5	13111	100
2025-3-27 14:55:42.580	WT901BLE68-01(48591DE3C19B)	-0.144	-0.967	0.217	1.892	-3.296	13.428	-76.65	10.53	-94.21	-78.792	-34.006	3.038	-0.56595	0.36627	-0.50674	0.53726	30.5	13111	100
2025-3-27 14:55:42.580	WT901BLE68-01(48591DE3C19B)	-0.144	-0.999	0.226	0.366	-2.808	12.756	-76.64	10.64	-94.15	-78.792	-34.006	3.038	-0.56595	0.36627	-0.50674	0.53726	30.5	13111	100
2025-3-27 14:55:42.580	WT901BLE68-01(48591DE3C19B)	-0.134	-0.999	0.226	0.366	-2.808	12.756	-76.62	10.76	-94.09	-78.792	-34.006	3.038	-0.56595	0.36627	-0.50674	0.53726	30.5	13111	100
2025-3-27 14:55:42.701	WT901BLE68-01(48591DE3C19B)	-0.134	-0.993	0.238	0.061	-2.686	10.742	-76.61	10.84	-94.04	-78.792	-34.006	3.038	-0.56595	0.36627	-0.50674	0.53726	30.5	13111	100
2025-3-27 14:55:42.701	WT901BLE68-01(48591DE3C19B)	-0.120	-0.993	0.238	0.061	-2.686	10.742	-76.60	10.93	-93.98	-78.792	-34.006	3.038	-0.56595	0.36627	-0.50674	0.53726	30.5	13111	100
2025-3-27 14:55:42.701	WT901BLE68-01(48591DE3C19B)	-0.120	-0.978	0.250	-1.831	-1.099	5.920	-76.61	10.98	-93.96	-78.792	-34.006	3.038	-0.56595	0.36627	-0.50674	0.53726	30.5	13111	100
2025-3-27 14:55:42.701	WT901BLE68-01(48591DE3C19B)	-0.119	-0.978	0.250	-1.831	-1.099	5.920	-76.62	11.01	-93.93	-78.792	-34.006	3.038	-0.56595	0.36627	-0.50674	0.53726	30.5	13111	100
2025-3-27 14:55:42.702	WT901BLE68-01(48591DE3C19B)	-0.119	-0.950	0.255	-2.991	1.038	-0.854	-76.66	11.00	-93.94	-78.792	-34.006	3.038	-0.56595	0.36627	-0.50674	0.53726	30.5	13111	100
2025-3-27 14:55:42.702	WT901BLE68-01(48591DE3C19B)	-0.112	-0.950	0.255	-2.991	1.038	-0.854	-76.68	10.98	-93.96	-78.792	-34.006	3.038	-0.56595	0.36627	-0.50674	0.53726	30.5	13111	100
2025-3-27 14:55:42.702	WT901BLE68-01(48591DE3C19B)	-0.112	-0.906	0.257	-3.906	2.808	-8.972	-76.73	10.88	-94.01	-78.792	-34.006	3.038	-0.57492	0.36722	-0.50256	0.53098	30.5	13111	100
2025-3-27 14:55:42.702	WT901BLE68-01(48591DE3C19B)	-0.111	-0.906	0.257	-3.906	2.808	-8.972	-76.77	10.78	-94.06	-78.792	-34.006	3.038	-0.57492	0.36722	-0.50256	0.53098	30.5	13111	100
2025-3-27 14:55:42.703	WT901BLE68-01(48591DE3C19B)	-0.111	-0.867	0.253	-5.981	4.150	-17.212	-76.84	10.61	-94.14	-78.792	-34.006	3.038	-0.57492	0.36722	-0.50256	0.53098	30.5	13111	100
2025-3-27 14:55:42.703	WT901BLE68-01(48591DE3C19B)	-0.113	-0.867	0.253	-5.981	4.150	-17.212	-76.90	10.43	-94.22	-78.792	-34.006	3.038	-0.57492	0.36722	-0.50256	0.53098	30.5	13111	100
2025-3-27 14:55:42.703	WT901BLE68-01(48591DE3C19B)	-0.113	-0.841	0.245	-8.362	3.906	-25.574	-77.00	10.18	-94.32	-78.792	-34.006	3.038	-0.57492	0.36722	-0.50256	0.53098	30.5	13111	100
2025-3-27 14:55:42.703	WT901BLE68-01(48591DE3C19B)	-0.117	-0.841	0.245	-8.362	3.906	-25.574	-77.09	9.93	-94.42	-78.792	-34.006	3.038	-0.57492	0.36722	-0.50256	0.53098	30.5	13111	100
2025-3-27 14:55:42.730	WT901BLE68-01(48591DE3C19B)	-0.117	-0.843	0.238	-10.864	3.174	-33.691	-77.20	9.59	-94.52	-78.792	-34.006	3.038	-0.57492	0.36722	-0.50256	0.53098	30.5	13111	100
2025-3-27 14:55:42.730	WT901BLE68-01(48591DE3C19B)	-0.118	-0.843	0.238	-10.864	3.174	-33.691	-77.31	9.26	-94.63	-78.792	-34.006	3.038	-0.57492	0.36722	-0.50256	0.53098	30.5	13111	100
2025-3-27 14:55:42.730	WT901BLE68-01(48591DE3C19B)	-0.118	-0.845	0.243	-12.390	3.601	-40.771	-77.44	8.87	-94.76	-78.792	-34.006	3.038	-0.57492	0.36722	-0.50256	0.53098	30.5	13111	100
2025-3-27 14:55:42.730	WT901BLE68-01(48591DE3C19B)	-0.137	-0.845	0.243	-12.390	3.601	-40.771	-77.57	8.47	-94.88	-78.792	-34.006	3.038	-0.57492	0.36722	-0.50256	0.53098	30.5	13111	100
2025-3-27 14:55:42.760	WT901BLE68-01(48591DE3C19B)	-0.137	-0.855	0.244	-15.686	1.343	-47.180	-77.72	8.01	-94.99	-78.792	-34.006	3.038	-0.57492	0.36722	-0.50256	0.53098	30.5	13111	100
2025-3-27 14:55:42.760	WT901BLE68-01(48591DE3C19B)	-0.137	-0.855	0.244	-15.686	1.343	-47.180	-77.88	7.55	-95.11	-78.792	-34.006	3.038	-0.57492	0.36722	-0.50256	0.53098	30.5	13111	100
2025-3-27 14:55:42.760	WT901BLE68-01(48591DE3C19B)	-0.137	-0.881	0.243	-18.066	-0.977	-52.612	-78.05	7.04	-95.21	-78.792	-34.006	3.038	-0.57492	0.36722	-0.50256	0.53098	30.5	13111	100
2025-3-27 14:55:42.760	WT901BLE68-01(48591DE3C19B)	-0.141	-0.881	0.243	-18.066	-0.977	-52.612	-78.22	6.53	-95.31	-78.792	-34.006	3.038	-0.57492	0.36722	-0.50256	0.53098	30.5	13111	100
2025-3-27 14:55:42.822	WT901BLE68-01(48591DE3C19B)	-0.141	-0.897	0.243	-19.470	-2.258	-56.641	-78.40	5.98	-95.39	-78.792	-34.006	3.038	-0.57492	0.36722	-0.50256	0.53098	30.5	13111	100
2025-3-27 14:55:42.822	WT901BLE68-01(48591DE3C19B)	-0.138	-0.897	0.243	-19.470	-2.258	-56.641	-78.59	5.44	-95.48	-78.792	-34.006	3.038	-0.57492	0.36722	-0.50256	0.53098	30.5	13111	100
2025-3-27 14:55:42.822	WT901BLE68-01(48591DE3C19B)	-0.133	-0.901	0.239	-20.630	-3.174	-59.265	-78.78	4.87	-95.56	-78.792	-34.006	3.038	-0.57492	0.36722	-0.50256	0.53098	30.5	13111	100
2025-3-27 14:55:42.822	WT901BLE68-01(48591DE3C19B)	-0.133	-0.904	0.238	-22.095	-2.869	-60.730	-78.97	4.30	-95.65	-78.792	-34.006	3.038	-0.57492	0.36722	-0.50256	0.53098	30.5	13111	100
2025-3-27 14:55:42.880	WT901BLE68-01(48591DE3C19B)	-0.134	-0.904	0.238	-22.095	-2.869	-60.730	-79.17	3.72	-95.73	-78.792	-34.006	3.038	-0.57492	0.36722	-0.50256	0.53098	30.5	13111	100
2025-3-27 14:55:42.880	WT901BLE68-01(48591DE3C19B)	-0.134	-0.912	0.241	-22.522	-1.343	-61.829	-79.38	3.15	-95.82	-78.792	-34.006	3.038	-0.57492	0.36722	-0.50256	0.53098	30.5	13111	100
2025-3-27 14:55:42.880	WT901BLE68-01(48591DE3C19B)	-0.146	-0.912	0.241	-22.522	-1.343	-61.829	-79.58	2.57	-95.92	-78.792	-34.006	3.038	-0.57492	0.36722	-0.50256	0.53098	30.5	13111	100
2025-3-27 14:55:42.880	WT901BLE68-01(48591DE3C19B)	-0.146	-0.929	0.243	-22.339	0.732	-62.927	-79.78	1.99	-96.02	-78.008	-34.300	2.744	-0.57492	0.36722	-0.50256	0.53098	30.5	13111	100
2025-3-27 14:55:42.910	WT901BLE68-01(48591DE3C19B)	-0.153	-0.929	0.243	-22.339	0.732	-62.927	-79.97	1.42	-96.14	-78.008	-34.300	2.744	-0.57492	0.36722	-0.50256	0.53098	30.5	13111	100
2025-3-27 14:55:42.910	WT901BLE68-01(48591DE3C19B)	-0.153	-0.935	0.245	-21.179	2.686	-63.843	-80.17	0.84	-96.25	-78.008	-34.300	2.744	-0.57492	0.36722	-0.50256	0.53098	30.5	13111	100
2025-3-27 14:55:42.910	WT901BLE68-01(48591DE3C19B)	-0.162	-0.935	0.245	-21.179	2.686	-63.843	-80.35	0.26	-96.38	-78.008	-34.300	2.744	-0.57492	0.36722	-0.50256	0.53098	30.5	13111	100
2025-3-27 14:55:42.910	WT901BLE68-01(48591DE3C19B)	-0.162	-0.934	0.247	-20.447	5.310	-64.209	-80.52	-0.31	-96.52	-78.008	-34.300	2.744	-0.57492	0.36722	-0.50256	0.53098	30.5	13111	100
2025-3-27 14:55:42.940	WT901BLE68-01(48591DE3C19B)	-0.184	-0.934	0.247	-20.447	5.310	-64.209	-80.69	-0.87	-96.67	-78.008	-34.300	2.744	-0.57492	0.36722	-0.50256	0.53098	30.5	13111	100
2025-3-27 14:55:42.940	WT901BLE68-01(48591DE3C19B)	-0.184	-0.942	0.249	-19.958	7.141	-63.293	-80.86	-1.43	-96.83	-78.008	-34.300	2.744	-0.57492	0.36722	-0.50256	0.53098	30.5	13111	100
2025-3-27 14:55:42.941	WT901BLE68-01(48591DE3C19B)	-0.208	-0.942	0.249	-19.958	7.141	-63.293	-81.02	-1.98	-96.99	-78.008	-34.300	2.744	-0.57492	0.36722	-0.50256	0.53098	30.5	13111	100
2025-3-27 14:55:42.941	WT901BLE68-01(48591DE3C19B)	-0.208	-0.942	0.248	-19.226	6.531	-61.279	-81.17	-2.52	-97.15	-78.008	-34.300	2.744	-0.57492	0.36722	-0.50256	0.53098	30.5	13111	100
2025-3-27 14:55:43.1	WT901BLE68-01(48591DE3C19B)	-0.223	-0.942	0.248	-19.226	6.531	-61.279	-81.32	-3.04	-97.30	-78.008	-34.300	2.744	-0.57492	0.36722	-0.50256	0.53098	30.5	13111	100
2025-3-27 14:55:43.1	WT901BLE68-01(48591DE3C19B)	-0.223	-0.939	0.240	-19.470	4.089	-57.800	-81.47	-3.54	-97.43	-78.008	-34.300	2.744	-0.57492	0.36722	-0.50256	0.53098	30.5	13111	100
2025-3-27 14:55:43.1	WT901BLE68-01(48591DE3C19B)	-0.230	-0.939	0.240	-19.470	4.089	-57.800	-81.62	-4.02	-97.55	-78.008	-34.300	2.744	-0.57492	0.36722	-0.50256	0.53098	30.5	13111	100
2025-3-27 14:55:43.1	WT901BLE68-01(48591DE3C19B)	-0.230	-0.949	0.241	-20.935	1.038	-53.894	-81.78	-4.48	-97.65	-78.008	-34.300	2.744	-0.57492	0.36722	-0.50256	0.53098	30.5	13111	100
2025-3-27 14:55:43.2	WT901BLE68-01(48591DE3C19B)	-0.258	-0.949	0.241	-20.935	1.038	-53.894	-81.94	-4.92	-97.73	-78.008	-34.300	2.744	-0.57492	0.36722	-0.50256	0.53098	30.5	13111	100
2025-3-27 14:55:43.3	WT901BLE68-01(48591DE3C19B)	-0.258	-0.983	0.247	-21.423	-3.540	-50.293	-82.11	-5.34	-97.78	-78.008	-34.300	2.744	-0.57492	0.36722	-0.50256	0.53098	30.5	13111	100
2025-3-27 14:55:43.3	WT901BLE68-01(48591DE3C19B)	-0.271	-0.983	0.247	-21.423	-3.540	-50.293	-82.28	-5.74	-97.81	-78.008	-34.300	2.744	-0.57492	0.36722	-0.50256	0.53098	30.5	13111	100
2025-3-27 14:55:43.3	WT901BLE68-01(48591DE3C19B)	-0.271	-0.999	0.255	-21.790	-10.315	-46.570	-82.46	-6.12	-97.79	-78.008	-34.300	2.744	-0.57492	0.36722	-0.50256	0.53098	30.5	13111	100
2025-3-27 14:55:43.212	WT901BLE68-01(48591DE3C19B)	-0.275	-0.999	0.255	-21.790	-10.315	-46.570	-82.64	-6.49	-97.75	-78.008	-34.300	2.744	-0.57492	0.36722	-0.50256	0.53098	30.5	13111	100
2025-3-27 14:55:43.212	WT901BLE68-01(48591DE3C19B)	-0.275	-1.016	0.261	-22.034	-16.602	-42.480	-82.83	-6.83	-97.66	-78.008	-34.300	2.744	-0.57492	0.36722	-0.50256	0.53098	30.5	13111	100
2025-3-27 14:55:43.212	WT901BLE68-01(48591DE3C19B)	-0.289	-1.016	0.261	-22.034	-16.602	-42.480	-83.02	-7.16	-97.54	-78.008	-34.300	2.744	-0.57492	0.36722	-0.50256	0.53098	30.5	13111	100
2025-3-27 14:55:43.212	WT901BLE68-01(48591DE3C19B)	-0.289	-1.017	0.270	-22.034	-23.743	-37.659	-83.21	-7.46	-97.38	-78.008	-34.300	2.744	-0.57492	0.36722	-0.50256	0.53098	30.5	13111	100
2025-3-27 14:55:43.213	WT901BLE68-01(48591DE3C19B)	-0.286	-1.017	0.270	-22.034	-23.743	-37.659	-83.41	-7.74	-97.19	-78.008	-34.300	2.744	-0.45889	0.47681	-0.46454	0.58835	30.5	13111	100
2025-3-27 14:55:43.213	WT901BLE68-01(48591DE3C19B)	-0.286	-1.031	0.267	-23.254	-30.212	-33.325	-83.62	-7.99	-96.96	-78.008	-34.300	2.744	-0.45889	0.47681	-0.46454	0.58835	30.5	13111	100
2025-3-27 14:55:43.213	WT901BLE68-01(48591DE3C19B)	-0.281	-1.031	0.267	-23.254	-30.212	-33.325	-83.84	-8.23	-96.70	-78.008	-34.300	2.744	-0.45889	0.47681	-0.46454	0.58835	30.5	13111	100
2025-3-27 14:55:43.213	WT901BLE68-01(48591DE3C19B)	-0.281	-1.082	0.255	-25.269	-33.813	-27.954	-84.08	-8.44	-96.41	-78.008	-34.300	2.744	-0.45889	0.47681	-0.46454	0.58835	30.5	13111	100
2025-3-27 14:55:43.214	WT901BLE68-01(48591DE3C19B)	-0.286	-1.082	0.255	-25.269	-33.813	-27.954	-84.33	-8.62	-96.10	-78.008	-34.300	2.744	-0.45889	0.47681	-0.46454	0.58835	30.5	13111	100
2025-3-27 14:55:43.214	WT901BLE68-01(48591DE3C19B)	-0.286	-1.170	0.245	-26.855	-36.438	-22.034	-84.58	-8.77	-95.78	-78.008	-34.300	2.744	-0.45889	0.47681	-0.46454	0.58835	30.5	13111	100
2025-3-27 14:55:43.214	WT901BLE68-01(48591DE3C19B)	-0.304	-1.170	0.245	-26.855	-36.438	-22.034	-84.85	-8.88	-95.44	-78.008	-34.300	2.744	-0.45889	0.47681	-0.46454	0.58835	30.5	13111	100
2025-3-27 14:55:43.214	WT901BLE68-01(48591DE3C19B)	-0.304	-1.277	0.278	-27.832	-41.992	-16.602	-85.13	-8.98	-95.07	-78.008	-34.300	2.744	-0.45889	0.47681	-0.46454	0.58835	30.5	13111	100
2025-3-27 14:55:43.214	WT901BLE68-01(48591DE3C19B)	-0.324	-1.277	0.278	-27.832	-41.992	-16.602	-85.42	-9.04	-94.67	-78.008	-34.300	2.744	-0.45889	0.47681	-0.46454	0.58835	30.5	13111	100
2025-3-27 14:55:43.214	WT901BLE68-01(48591DE3C19B)	-1.298	-1.372	0.332	-26.245	-46.814	-11.230	-85.70	-9.08	-94.25	-78.008	-34.300	2.744	-0.45889	0.47681	-0.46454	0.58835	30.5	13111	100
2025-3-27 14:55:43.215	WT901BLE68-01(48591DE3C19B)	-0.350	-5.487	1.330	-26.245	-46.814	-11.230	-85.98	-9.09	-93.80	-78.008	-34.300	2.744	-0.45889	0.47681	-0.46454	0.58835	30.5	13111	100
2025-3-27 14:55:43.215	WT901BLE68-01(48591DE3C19B)	-0.350	-1.388	0.375	-19.165	-51.636	-4.333	-86.23	-9.07	-93.32	-78.008	-34.300	2.744	-0.45889	0.47681	-0.46454	0.58835	30.5	13111	100
2025-3-27 14:55:43.215	WT901BLE68-01(48591DE3C19B)	-0.343	-1.388	0.375	-19.165	-51.636	-4.333	-86.44	-9.01	-92.82	-78.008	-34.300	2.744	-0.45889	0.47681	-0.46454	0.58835	30.5	13111	100
2025-3-27 14:55:43.215	WT901BLE68-01(48591DE3C19B)	-0.343	-1.352	0.389	-9.521	-55.176	5.920	-86.60	-8.90	-92.30	-78.008	-34.300	2.744	-0.45889	0.47681	-0.46454	0.58835	30.5	13111	100
2025-3-27 14:55:43.215	WT901BLE68-01(48591DE3C19B)	-0.332	-1.352	0.389	-9.521	-55.176	5.920	-86.72	-8.75	-91.76	-78.008	-34.300	2.744	-0.45889	0.47681	-0.46454	0.58835	30.5	13111	100
2025-3-27 14:55:43.215	WT901BLE68-01(48591DE3C19B)	-0.332	-1.207	0.370	8.911	-52.734	24.963	-86.73	-8.50	-91.24	-78.008	-34.300	2.744	-0.45889	0.47681	-0.46454	0.58835	30.5	13111	100
2025-3-27 14:55:43.242	WT901BLE68-01(48591DE3C19B)	-0.315	-1.207	0.370	8.911	-52.734	24.963	-86.65	-8.15	-90.72	-78.008	-34.300	2.744	-0.45889	0.47681	-0.46454	0.58835	30.5	13111	100
2025-3-27 14:55:43.242	WT901BLE68-01(48591DE3C19B)	-0.315	-0.966	0.311	24.048	-49.377	47.729	-86.49	-7.69	-90.22	-78.008	-34.300	2.744	-0.45889	0.47681	-0.46454	0.58835	30.5	13111	100
2025-3-27 14:55:43.242	WT901BLE68-01(48591DE3C19B)	-0.280	-0.966	0.311	24.048	-49.377	47.729	-86.25	-7.12	-89.73	-81.242	-33.124	3.822	-0.45889	0.47681	-0.46454	0.58835	30.5	13111	100
2025-3-27 14:55:43.243	WT901BLE68-01(48591DE3C19B)	-0.280	-0.767	0.245	30.823	-47.791	72.205	-85.96	-6.44	-89.24	-81.242	-33.124	3.822	-0.45889	0.47681	-0.46454	0.58835	30.5	13111	100
2025-3-27 14:55:43.300	WT901BLE68-01(48591DE3C19B)	-0.253	-0.767	0.245	30.823	-47.791	72.205	-85.64	-5.64	-88.75	-81.242	-33.124	3.822	-0.45889	0.47681	-0.46454	0.58835	30.5	13111	100
2025-3-27 14:55:43.301	WT901BLE68-01(48591DE3C19B)	-0.253	-0.685	0.208	31.616	-47.241	98.083	-85.31	-4.58	-88.24	-81.242	-33.124	3.822	-0.45889	0.47681	-0.46454	0.58835	30.5	13111	100
2025-3-27 14:55:43.301	WT901BLE68-01(48591DE3C19B)	-0.256	-0.685	0.208	31.616	-47.241	98.083	-84.96	-3.53	-87.73	-81.242	-33.124	3.822	-0.45889	0.47681	-0.46454	0.58835	30.5	13111	100
2025-3-27 14:55:43.301	WT901BLE68-01(48591DE3C19B)	-0.256	-0.759	0.186	30.884	-52.307	119.934	-84.62	-2.29	-87.14	-81.242	-33.124	3.822	-0.45889	0.47681	-0.46454	0.58835	30.5	13111	100
2025-3-27 14:55:43.329	WT901BLE68-01(48591DE3C19B)	-0.296	-0.759	0.186	30.884	-52.307	119.934	-84.27	-1.04	-86.55	-81.242	-33.124	3.822	-0.45889	0.47681	-0.46454	0.58835	30.5	13111	100
2025-3-27 14:55:43.329	WT901BLE68-01(48591DE3C19B)	-0.296	-0.931	0.167	33.997	-62.561	134.949	-83.88	0.32	-85.84	-81.242	-33.124	3.822	-0.45889	0.47681	-0.46454	0.58835	30.5	13111	100
2025-3-27 14:55:43.329	WT901BLE68-01(48591DE3C19B)	-0.331	-0.931	0.167	33.997	-62.561	134.949	-83.47	1.67	-85.12	-81.242	-33.124	3.822	-0.45889	0.47681	-0.46454	0.58835	30.5	13111	100
2025-3-27 14:55:43.329	WT901BLE68-01(48591DE3C19B)	-0.331	-1.138	0.156	40.222	-82.520	140.808	-82.98	3.05	-84.18	-81.242	-33.124	3.822	-0.45889	0.47681	-0.46454	0.58835	30.5	13111	100
2025-3-27 14:55:43.359	WT901BLE68-01(48591DE3C19B)	-0.324	-1.138	0.156	40.222	-82.520	140.808	-82.47	4.41	-83.23	-81.242	-33.124	3.822	-0.45889	0.47681	-0.46454	0.58835	30.5	13111	100
2025-3-27 14:55:43.359	WT901BLE68-01(48591DE3C19B)	-0.324	-1.383	0.161	47.668	-100.464	140.015	-81.86	5.72	-82.09	-81.242	-33.124	3.822	-0.45889	0.47681	-0.46454	0.58835	30.5	13111	100
2025-3-27 14:55:43.359	WT901BLE68-01(48591DE3C19B)	-0.303	-1.383	0.161	47.668	-100.464	140.015	-81.23	7.00	-80.94	-81.242	-33.124	3.822	-0.45889	0.47681	-0.46454	0.58835	30.5	13111	100
2025-3-27 14:55:43.359	WT901BLE68-01(48591DE3C19B)	-0.303	-1.614	0.131	65.125	-106.506	135.376	-80.39	8.21	-79.72	-81.242	-33.124	3.822	-0.45889	0.47681	-0.46454	0.58835	30.5	13111	100
2025-3-27 14:55:43.421	WT901BLE68-01(48591DE3C19B)	-0.221	-1.614	0.131	65.125	-106.506	135.376	-79.54	9.39	-78.48	-81.242	-33.124	3.822	-0.45889	0.47681	-0.46454	0.58835	30.5	13111	100
2025-3-27 14:55:43.421	WT901BLE68-01(48591DE3C19B)	-0.221	-1.663	0.076	80.017	-97.839	128.662	-78.54	10.49	-77.32	-81.242	-33.124	3.822	-0.45889	0.47681	-0.46454	0.58835	30.5	13111	100
2025-3-27 14:55:43.421	WT901BLE68-01(48591DE3C19B)	-0.149	-1.663	0.076	80.017	-97.839	128.662	-77.52	11.55	-76.14	-81.242	-33.124	3.822	-0.45889	0.47681	-0.46454	0.58835	30.5	13111	100
2025-3-27 14:55:43.421	WT901BLE68-01(48591DE3C19B)	-0.149	-1.554	0.048	89.966	-74.585	123.352	-76.44	12.59	-75.18	-81.242	-33.124	3.822	-0.45889	0.47681	-0.46454	0.58835	30.5	13111	100
2025-3-27 14:55:43.449	WT901BLE68-01(48591DE3C19B)	-0.143	-1.554	0.048	89.966	-74.585	123.352	-75.34	13.60	-74.21	-81.242	-33.124	3.822	-0.45889	0.47681	-0.46454	0.58835	30.5	13111	100
2025-3-27 14:55:43.450	WT901BLE68-01(48591DE3C19B)	-0.143	-1.391	0.063	90.393	-48.462	122.925	-74.30	14.64	-73.47	-81.242	-33.124	3.822	-0.45889	0.47681	-0.46454	0.58835	30.5	13111	100
2025-3-27 14:55:43.450	WT901BLE68-01(48591DE3C19B)	-0.139	-1.391	0.063	90.393	-48.462	122.925	-73.24	15.66	-72.71	-81.242	-33.124	3.822	-0.45889	0.47681	-0.46454	0.58835	30.5	13111	100
2025-3-27 14:55:43.450	WT901BLE68-01(48591DE3C19B)	-0.139	-1.279	0.076	85.083	-23.804	127.380	-72.28	16.78	-72.17	-81.242	-33.124	3.822	-0.69626	0.40213	-0.43887	0.40097	30.5	13111	100
2025-3-27 14:55:43.480	WT901BLE68-01(48591DE3C19B)	-0.123	-1.279	0.076	85.083	-23.804	127.380	-71.32	17.87	-71.60	-81.242	-33.124	3.822	-0.69626	0.40213	-0.43887	0.40097	30.5	13111	100
2025-3-27 14:55:43.480	WT901BLE68-01(48591DE3C19B)	-0.123	-1.161	0.078	80.811	-0.671	133.179	-70.46	19.08	-71.23	-81.242	-33.124	3.822	-0.69626	0.40213	-0.43887	0.40097	30.5	13111	100
2025-3-27 14:55:43.480	WT901BLE68-01(48591DE3C19B)	-0.125	-1.161	0.078	80.811	-0.671	133.179	-69.58	20.28	-70.83	-81.242	-33.124	3.822	-0.69626	0.40213	-0.43887	0.40097	30.5	13111	100
2025-3-27 14:55:43.480	WT901BLE68-01(48591DE3C19B)	-0.125	-1.084	0.060	71.472	19.226	141.541	-68.85	21.61	-70.59	-81.242	-33.124	3.822	-0.69626	0.40213	-0.43887	0.40097	30.5	13111	100
2025-3-27 14:55:43.540	WT901BLE68-01(48591DE3C19B)	-0.164	-1.084	0.060	71.472	19.226	141.541	-68.11	22.93	-70.33	-81.242	-33.124	3.822	-0.69626	0.40213	-0.43887	0.40097	30.5	13111	100
2025-3-27 14:55:43.540	WT901BLE68-01(48591DE3C19B)	-0.164	-1.044	0.031	64.148	27.527	145.935	-67.46	24.30	-70.11	-81.242	-33.124	3.822	-0.69626	0.40213	-0.43887	0.40097	30.5	13111	100
2025-3-27 14:55:43.540	WT901BLE68-01(48591DE3C19B)	-0.200	-1.044	0.031	64.148	27.527	145.935	-66.80	25.67	-69.88	-81.242	-33.124	3.822	-0.69626	0.40213	-0.43887	0.40097	30.5	13111	100
2025-3-27 14:55:43.540	WT901BLE68-01(48591DE3C19B)	-0.200	-1.025	0.021	57.373	23.010	146.606	-66.18	27.02	-69.58	-81.242	-33.124	3.822	-0.69626	0.40213	-0.43887	0.40097	30.5	13111	100
2025-3-27 14:55:43.571	WT901BLE68-01(48591DE3C19B)	-0.213	-1.025	0.021	57.373	23.010	146.606	-65.55	28.36	-69.25	-81.242	-33.124	3.822	-0.69626	0.40213	-0.43887	0.40097	30.5	13111	100
2025-3-27 14:55:43.572	WT901BLE68-01(48591DE3C19B)	-0.213	-0.998	0.021	53.650	12.085	144.714	-64.89	29.62	-68.81	-81.242	-33.124	3.822	-0.69626	0.40213	-0.43887	0.40097	30.5	13111	100
2025-3-27 14:55:43.572	WT901BLE68-01(48591DE3C19B)	-0.208	-0.998	0.021	53.650	12.085	144.714	-64.22	30.87	-68.35	-81.242	-33.124	3.822	-0.69626	0.40213	-0.43887	0.40097	30.5	13111	100
2025-3-27 14:55:43.572	WT901BLE68-01(48591DE3C19B)	-0.208	-0.958	0.014	49.744	-1.282	140.137	-63.51	32.01	-67.75	-81.242	-33.124	3.822	-0.69626	0.40213	-0.43887	0.40097	30.5	13111	100
2025-3-27 14:55:43.632	WT901BLE68-01(48591DE3C19B)	-0.174	-0.958	0.014	49.744	-1.282	140.137	-62.78	33.15	-67.13	-81.242	-33.124	3.822	-0.69626	0.40213	-0.43887	0.40097	30.5	13111	100
2025-3-27 14:55:43.632	WT901BLE68-01(48591DE3C19B)	-0.174	-0.914	0.010	44.250	-13.123	133.179	-62.03	34.15	-66.41	-81.242	-33.124	3.822	-0.69626	0.40213	-0.43887	0.40097	30.5	13111	100
2025-3-27 14:55:43.632	WT901BLE68-01(48591DE3C19B)	-0.125	-0.914	0.010	44.250	-13.123	133.179	-61.28	35.14	-65.66	-81.242	-33.124	3.822	-0.69626	0.40213	-0.43887	0.40097	30.5	13111	100
2025-3-27 14:55:43.632	WT901BLE68-01(48591DE3C19B)	-0.125	-0.864	0.021	39.368	-19.531	125.183	-60.53	36.01	-64.87	-81.242	-33.124	3.822	-0.69626	0.40213	-0.43887	0.40097	30.5	13111	100
2025-3-27 14:55:43.662	WT901BLE68-01(48591DE3C19B)	-0.069	-0.864	0.021	39.368	-19.531	125.183	-59.77	36.88	-64.07	-81.242	-33.124	3.822	-0.69626	0.40213	-0.43887	0.40097	30.5	13111	100
2025-3-27 14:55:43.662	WT901BLE68-01(48591DE3C19B)	-0.069	-0.809	0.031	32.043	-19.287	115.845	-59.10	37.64	-63.31	-81.242	-33.124	3.822	-0.69626	0.40213	-0.43887	0.40097	30.5	13111	100
2025-3-27 14:55:43.662	WT901BLE68-01(48591DE3C19B)	-0.002	-0.809	0.031	32.043	-19.287	115.845	-58.42	38.40	-62.53	-81.242	-33.124	3.822	-0.69626	0.40213	-0.43887	0.40097	30.5	13111	100
2025-3-27 14:55:43.662	WT901BLE68-01(48591DE3C19B)	-0.002	-0.750	0.036	26.306	-14.709	103.271	-57.86	39.06	-61.89	-91.924	-22.050	9.506	-0.69626	0.40213	-0.43887	0.40097	30.5	13111	100
2025-3-27 14:55:43.692	WT901BLE68-01(48591DE3C19B)	0.053	-0.750	0.036	26.306	-14.709	103.271	-57.30	39.70	-61.23	-91.924	-22.050	9.506	-0.69626	0.40213	-0.43887	0.40097	30.5	13111	100
2025-3-27 14:55:43.692	WT901BLE68-01(48591DE3C19B)	0.053	-0.674	0.039	18.677	-5.310	86.792	-56.94	40.25	-60.78	-91.924	-22.050	9.506	-0.69626	0.40213	-0.43887	0.40097	30.5	13111	100
2025-3-27 14:55:43.692	WT901BLE68-01(48591DE3C19B)	0.056	-0.674	0.039	18.677	-5.310	86.792	-56.58	40.79	-60.33	-91.924	-22.050	9.506	-0.69626	0.40213	-0.43887	0.40097	30.5	13111	100
2025-3-27 14:55:43.692	WT901BLE68-01(48591DE3C19B)	0.056	-0.717	0.066	-1.587	6.287	68.909	-56.59	41.24	-60.14	-91.924	-22.050	9.506	-0.69626	0.40213	-0.43887	0.40097	30.5	13111	100
2025-3-27 14:55:43.750	WT901BLE68-01(48591DE3C19B)	0.046	-0.717	0.066	-1.587	6.287	68.909	-56.59	41.68	-59.95	-91.924	-22.050	9.506	-0.69626	0.40213	-0.43887	0.40097	30.5	13111	100
2025-3-27 14:55:43.750	WT901BLE68-01(48591DE3C19B)	0.073	-0.933	0.065	-16.113	13.367	46.387	-56.90	41.96	-60.01	-91.924	-22.050	9.506	-0.69626	0.40213	-0.43887	0.40097	30.5	13111	100
2025-3-27 14:55:43.750	WT901BLE68-01(48591DE3C19B)	0.073	-1.067	0.054	-15.442	15.259	20.386	-57.28	42.14	-60.18	-91.924	-22.050	9.506	-0.69626	0.40213	-0.43887	0.40097	30.5	13111	100
2025-3-27 14:55:43.750	WT901BLE68-01(48591DE3C19B)	0.139	-1.067	0.054	-15.442	15.259	20.386	-57.73	42.20	-60.46	-91.924	-22.050	9.506	-0.69626	0.40213	-0.43887	0.40097	30.5	13111	100
2025-3-27 14:55:43.779	WT901BLE68-01(48591DE3C19B)	0.139	-1.143	0.023	-22.278	23.254	-6.836	-58.31	42.17	-60.89	-91.924	-22.050	9.506	-0.69626	0.40213	-0.43887	0.40097	30.5	13111	100
2025-3-27 14:55:43.779	WT901BLE68-01(48591DE3C19B)	0.181	-1.143	0.023	-22.278	23.254	-6.836	-59.02	42.03	-61.46	-91.924	-22.050	9.506	-0.69626	0.40213	-0.43887	0.40097	30.5	13111	100
2025-3-27 14:55:43.779	WT901BLE68-01(48591DE3C19B)	0.181	-1.220	0.003	-27.588	36.072	-39.551	-59.87	41.78	-62.20	-91.924	-22.050	9.506	-0.69626	0.40213	-0.43887	0.40097	30.5	13111	100
2025-3-27 14:55:43.779	WT901BLE68-01(48591DE3C19B)	0.177	-1.220	0.003	-27.588	36.072	-39.551	-60.86	41.40	-63.12	-91.924	-22.050	9.506	-0.69626	0.40213	-0.43887	0.40097	30.5	13111	100
2025-3-27 14:55:43.809	WT901BLE68-01(48591DE3C19B)	0.177	-1.281	0.004	-32.288	49.438	-78.125	-61.98	40.87	-64.22	-91.924	-22.050	9.506	-0.69626	0.40213	-0.43887	0.40097	30.5	13111	100
2025-3-27 14:55:43.809	WT901BLE68-01(48591DE3C19B)	0.077	-1.281	0.004	-32.288	49.438	-78.125	-63.24	40.19	-65.49	-91.924	-22.050	9.506	-0.69626	0.40213	-0.43887	0.40097	30.5	13111	100
2025-3-27 14:55:43.809	WT901BLE68-01(48591DE3C19B)	0.077	-1.311	0.039	-40.527	62.134	-118.225	-64.61	39.33	-66.90	-91.924	-22.050	9.506	-0.69626	0.40213	-0.43887	0.40097	30.5	13111	100
2025-3-27 14:55:43.809	WT901BLE68-01(48591DE3C19B)	-0.045	-1.311	0.039	-40.527	62.134	-118.225	-66.07	38.30	-68.44	-91.924	-22.050	9.506	-0.69626	0.40213	-0.43887	0.40097	30.5	13111	100
2025-3-27 14:55:43.871	WT901BLE68-01(48591DE3C19B)	-0.045	-1.426	0.054	-54.749	70.435	-159.851	-67.63	37.06	-70.07	-91.924	-22.050	9.506	-0.69626	0.40213	-0.43887	0.40097	30.5	13111	100
2025-3-27 14:55:43.871	WT901BLE68-01(48591DE3C19B)	-0.145	-1.426	0.054	-54.749	70.435	-159.851	-69.27	35.62	-71.76	-91.924	-22.050	9.506	-0.69626	0.40213	-0.43887	0.40097	30.5	13111	100
2025-3-27 14:55:43.871	WT901BLE68-01(48591DE3C19B)	-0.145	-1.434	0.090	-55.542	67.139	-194.519	-70.84	34.00	-73.41	-91.924	-22.050	9.506	-0.69626	0.40213	-0.43887	0.40097	30.5	13111	100
2025-3-27 14:55:43.871	WT901BLE68-01(48591DE3C19B)	-0.191	-1.434	0.090	-55.542	67.139	-194.519	-72.34	32.17	-75.01	-91.924	-22.050	9.506	-0.69626	0.40213	-0.43887	0.40097	30.5	13111	100
2025-3-27 14:55:43.899	WT901BLE68-01(48591DE3C19B)	-0.191	-1.286	0.145	-57.617	51.270	-230.164	-73.75	30.14	-76.49	-91.924	-22.050	9.506	-0.69717	0.33301	-0.52109	0.36249	30.5	13111	100
2025-3-27 14:55:43.900	WT901BLE68-01(48591DE3C19B)	-0.175	-1.286	0.145	-57.617	51.270	-230.164	-75.04	27.91	-77.84	-91.924	-22.050	9.506	-0.69717	0.33301	-0.52109	0.36249	30.5	13111	100
2025-3-27 14:55:43.900	WT901BLE68-01(48591DE3C19B)	-0.175	-1.072	0.197	-57.861	29.358	-249.756	-76.20	25.54	-79.00	-91.924	-22.050	9.506	-0.69717	0.33301	-0.52109	0.36249	30.5	13111	100
2025-3-27 14:55:43.900	WT901BLE68-01(48591DE3C19B)	-0.210	-1.072	0.197	-57.861	29.358	-249.756	-77.23	23.05	-80.00	-91.924	-22.050	9.506	-0.69717	0.33301	-0.52109	0.36249	30.5	13111	100
2025-3-27 14:55:43.929	WT901BLE68-01(48591DE3C19B)	-0.210	-0.933	0.251	-62.866	5.615	-252.808	-78.17	20.53	-80.80	-91.924	-22.050	9.506	-0.69717	0.33301	-0.52109	0.36249	30.5	13111	100
2025-3-27 14:55:43.929	WT901BLE68-01(48591DE3C19B)	-0.242	-0.933	0.251	-62.866	5.615	-252.808	-79.04	17.97	-81.43	-91.924	-22.050	9.506	-0.69717	0.33301	-0.52109	0.36249	30.5	13111	100
2025-3-27 14:55:43.929	WT901BLE68-01(48591DE3C19B)	-0.242	-0.956	0.241	-80.627	-25.330	-252.869	-79.89	15.40	-81.85	-91.924	-22.050	9.506	-0.69717	0.33301	-0.52109	0.36249	30.5	13111	100
2025-3-27 14:55:43.929	WT901BLE68-01(48591DE3C19B)	-0.182	-0.956	0.241	-80.627	-25.330	-252.869	-80.76	12.82	-82.06	-91.924	-22.050	9.506	-0.69717	0.33301	-0.52109	0.36249	30.5	13111	100
2025-3-27 14:55:44.50	WT901BLE68-01(48591DE3C19B)	-0.182	-1.172	0.170	-87.158	-49.438	-242.371	-81.61	10.28	-82.11	-91.924	-22.050	9.506	-0.69717	0.33301	-0.52109	0.36249	30.5	13111	100
2025-3-27 14:55:44.50	WT901BLE68-01(48591DE3C19B)	-0.066	-1.172	0.170	-87.158	-49.438	-242.371	-82.46	7.80	-81.99	-91.924	-22.050	9.506	-0.69717	0.33301	-0.52109	0.36249	30.5	13111	100
2025-3-27 14:55:44.50	WT901BLE68-01(48591DE3C19B)	-0.066	-1.368	0.092	-81.421	-42.603	-231.628	-83.29	5.39	-81.86	-91.924	-22.050	9.506	-0.69717	0.33301	-0.52109	0.36249	30.5	13111	100
2025-3-27 14:55:44.51	WT901BLE68-01(48591DE3C19B)	-0.013	-1.368	0.092	-81.421	-42.603	-231.628	-84.08	3.05	-81.72	-91.924	-22.050	9.506	-0.69717	0.33301	-0.52109	0.36249	30.5	13111	100
2025-3-27 14:55:44.52	WT901BLE68-01(48591DE3C19B)	-0.013	-1.577	0.065	-80.872	-15.076	-225.281	-84.88	0.77	-81.69	-91.924	-22.050	9.506	-0.69717	0.33301	-0.52109	0.36249	30.5	13111	100
2025-3-27 14:55:44.52	WT901BLE68-01(48591DE3C19B)	-0.076	-1.577	0.065	-80.872	-15.076	-225.281	-85.68	-1.44	-81.75	-91.924	-22.050	9.506	-0.69717	0.33301	-0.52109	0.36249	30.5	13111	100
2025-3-27 14:55:44.52	WT901BLE68-01(48591DE3C19B)	-0.076	-1.813	0.116	-74.585	18.738	-216.919	-86.43	-3.60	-81.96	-91.924	-22.050	9.506	-0.69717	0.33301	-0.52109	0.36249	30.5	13111	100
2025-3-27 14:55:44.52	WT901BLE68-01(48591DE3C19B)	-0.174	-1.813	0.116	-74.585	18.738	-216.919	-87.14	-5.70	-82.30	-91.924	-22.050	9.506	-0.69717	0.33301	-0.52109	0.36249	30.5	13111	100
2025-3-27 14:55:44.82	WT901BLE68-01(48591DE3C19B)	-0.174	-1.788	0.225	-62.134	50.049	-209.167	-87.75	-7.75	-82.77	-91.924	-22.050	9.506	-0.69717	0.33301	-0.52109	0.36249	30.5	13111	100
2025-3-27 14:55:44.82	WT901BLE68-01(48591DE3C19B)	-0.214	-1.788	0.225	-62.134	50.049	-209.167	-88.26	-9.74	-83.38	-91.924	-22.050	9.506	-0.69717	0.33301	-0.52109	0.36249	30.5	13111	100
2025-3-27 14:55:44.82	WT901BLE68-01(48591DE3C19B)	-0.214	-1.641	0.286	-50.354	83.923	-188.660	-88.65	-11.62	-84.14	-91.924	-22.050	9.506	-0.69717	0.33301	-0.52109	0.36249	30.5	13111	100
2025-3-27 14:55:44.82	WT901BLE68-01(48591DE3C19B)	-0.248	-1.641	0.286	-50.354	83.923	-188.660	-88.92	-13.39	-85.06	-91.924	-22.050	9.506	-0.69717	0.33301	-0.52109	0.36249	30.5	13111	100
2025-3-27 14:55:44.112	WT901BLE68-01(48591DE3C19B)	-0.248	-1.355	0.290	-37.048	116.272	-172.607	-89.06	-15.06	-86.15	-91.924	-22.050	9.506	-0.69717	0.33301	-0.52109	0.36249	30.5	13111	100
2025-3-27 14:55:44.112	WT901BLE68-01(48591DE3C19B)	-0.295	-1.355	0.290	-37.048	116.272	-172.607	-89.05	-16.63	-87.41	-85.848	-33.320	5.488	-0.69717	0.33301	-0.52109	0.36249	30.5	13111	100
2025-3-27 14:55:44.112	WT901BLE68-01(48591DE3C19B)	-0.295	-1.113	0.269	-35.461	140.442	-151.550	-88.96	-18.09	-88.79	-85.848	-33.320	5.488	-0.69717	0.33301	-0.52109	0.36249	30.5	13111	100
2025-3-27 14:55:44.112	WT901BLE68-01(48591DE3C19B)	-0.335	-1.113	0.269	-35.461	140.442	-151.550	-88.78	-19.43	-90.32	-85.848	-33.320	5.488	-0.69717	0.33301	-0.52109	0.36249	30.5	13111	100
2025-3-27 14:55:44.140	WT901BLE68-01(48591DE3C19B)	-0.335	-1.005	0.247	-36.011	144.836	-128.052	-88.56	-20.63	-91.87	-85.848	-33.320	5.488	-0.69717	0.33301	-0.52109	0.36249	30.5	13111	100
2025-3-27 14:55:44.140	WT901BLE68-01(48591DE3C19B)	-0.380	-1.005	0.247	-36.011	144.836	-128.052	-88.30	-21.69	-93.46	-85.848	-33.320	5.488	-0.69717	0.33301	-0.52109	0.36249	30.5	13111	100
2025-3-27 14:55:44.140	WT901BLE68-01(48591DE3C19B)	-0.380	-0.959	0.235	-33.020	130.737	-105.530	-88.03	-22.63	-94.98	-85.848	-33.320	5.488	-0.69717	0.33301	-0.52109	0.36249	30.5	13111	100
2025-3-27 14:55:44.140	WT901BLE68-01(48591DE3C19B)	-0.446	-0.959	0.235	-33.020	130.737	-105.530	-87.74	-23.43	-96.43	-85.848	-33.320	5.488	-0.69717	0.33301	-0.52109	0.36249	30.5	13111	100
2025-3-27 14:55:44.173	WT901BLE68-01(48591DE3C19B)	-0.446	-0.933	0.202	-26.428	107.178	-83.191	-87.46	-24.12	-97.76	-85.848	-33.320	5.488	-0.69717	0.33301	-0.52109	0.36249	30.5	13111	100
2025-3-27 14:55:44.173	WT901BLE68-01(48591DE3C19B)	-0.477	-0.933	0.202	-26.428	107.178	-83.191	-87.18	-24.68	-98.96	-85.848	-33.320	5.488	-0.69717	0.33301	-0.52109	0.36249	30.5	13111	100
2025-3-27 14:55:44.173	WT901BLE68-01(48591DE3C19B)	-0.477	-0.915	0.173	-21.606	82.947	-62.439	-86.93	-25.14	-100.02	-85.848	-33.320	5.488	-0.69717	0.33301	-0.52109	0.36249	30.5	13111	100
2025-3-27 14:55:44.173	WT901BLE68-01(48591DE3C19B)	-0.486	-0.915	0.173	-21.606	82.947	-62.439	-86.70	-25.48	-100.95	-85.848	-33.320	5.488	-0.69717	0.33301	-0.52109	0.36249	30.5	13111	100
2025-3-27 14:55:44.230	WT901BLE68-01(48591DE3C19B)	-0.486	-0.921	0.155	-16.602	60.303	-43.884	-86.51	-25.72	-101.74	-85.848	-33.320	5.488	-0.69717	0.33301	-0.52109	0.36249	30.5	13111	100
2025-3-27 14:55:44.230	WT901BLE68-01(48591DE3C19B)	-0.497	-0.921	0.155	-16.602	60.303	-43.884	-86.35	-25.87	-102.41	-85.848	-33.320	5.488	-0.69717	0.33301	-0.52109	0.36249	30.5	13111	100
2025-3-27 14:55:44.231	WT901BLE68-01(48591DE3C19B)	-0.497	-0.923	0.178	-11.414	36.865	-29.114	-86.25	-25.88	-102.80	-85.848	-33.320	5.488	-0.69717	0.33301	-0.52109	0.36249	30.5	13111	100
2025-3-27 14:55:44.231	WT901BLE68-01(48591DE3C19B)	-0.468	-0.923	0.178	-11.414	36.865	-29.114	-86.15	-25.89	-103.19	-85.848	-33.320	5.488	-0.69717	0.33301	-0.52109	0.36249	30.5	13111	100
2025-3-27 14:55:44.259	WT901BLE68-01(48591DE3C19B)	-0.468	-0.901	0.209	-7.629	15.991	-17.517	-86.12	-25.79	-103.35	-85.848	-33.320	5.488	-0.69717	0.33301	-0.52109	0.36249	30.5	13111	100
2025-3-27 14:55:44.259	WT901BLE68-01(48591DE3C19B)	-0.417	-0.901	0.209	-7.629	15.991	-17.517	-86.08	-25.69	-103.51	-85.848	-33.320	5.488	-0.69717	0.33301	-0.52109	0.36249	30.5	13111	100
2025-3-27 14:55:44.259	WT901BLE68-01(48591DE3C19B)	-0.417	-0.845	0.244	-4.944	3.479	-6.409	-86.09	-25.48	-103.52	-85.848	-33.320	5.488	-0.69717	0.33301	-0.52109	0.36249	30.5	13111	100
2025-3-27 14:55:44.259	WT901BLE68-01(48591DE3C19B)	-0.370	-0.845	0.244	-4.944	3.479	-6.409	-86.08	-25.27	-103.55	-85.848	-33.320	5.488	-0.32397	0.53766	-0.42426	0.65256	30.5	13111	100
2025-3-27 14:55:44.320	WT901BLE68-01(48591DE3C19B)	-0.370	-0.796	0.255	-8.362	0.061	4.944	-86.13	-24.94	-103.52	-85.848	-33.320	5.488	-0.32397	0.53766	-0.42426	0.65256	30.5	13111	100
2025-3-27 14:55:44.320	WT901BLE68-01(48591DE3C19B)	-0.355	-0.796	0.255	-8.362	0.061	4.944	-86.18	-24.63	-103.50	-85.848	-33.320	5.488	-0.32397	0.53766	-0.42426	0.65256	30.5	13111	100
2025-3-27 14:55:44.320	WT901BLE68-01(48591DE3C19B)	-0.355	-0.834	0.256	-14.465	-0.793	14.771	-86.28	-24.21	-103.47	-85.848	-33.320	5.488	-0.32397	0.53766	-0.42426	0.65256	30.5	13111	100
2025-3-27 14:55:44.320	WT901BLE68-01(48591DE3C19B)	-0.376	-0.834	0.256	-14.465	-0.793	14.771	-86.39	-23.80	-103.44	-85.848	-33.320	5.488	-0.32397	0.53766	-0.42426	0.65256	30.5	13111	100
2025-3-27 14:55:44.349	WT901BLE68-01(48591DE3C19B)	-0.376	-0.905	0.279	-13.672	-4.517	21.667	-86.50	-23.32	-103.37	-85.848	-33.320	5.488	-0.32397	0.53766	-0.42426	0.65256	30.5	13111	100
2025-3-27 14:55:44.350	WT901BLE68-01(48591DE3C19B)	-0.409	-0.905	0.279	-13.672	-4.517	21.667	-86.60	-22.84	-103.30	-85.848	-33.320	5.488	-0.32397	0.53766	-0.42426	0.65256	30.5	13111	100
2025-3-27 14:55:44.350	WT901BLE68-01(48591DE3C19B)	-0.409	-0.936	0.313	-11.963	-13.000	27.222	-86.72	-22.32	-103.15	-85.848	-33.320	5.488	-0.32397	0.53766	-0.42426	0.65256	30.5	13111	100
2025-3-27 14:55:44.350	WT901BLE68-01(48591DE3C19B)	-0.437	-0.936	0.313	-11.963	-13.000	27.222	-86.83	-21.80	-102.99	-85.848	-33.320	5.488	-0.32397	0.53766	-0.42426	0.65256	30.5	13111	100
2025-3-27 14:55:44.379	WT901BLE68-01(48591DE3C19B)	-0.437	-1.007	0.327	-12.024	-26.306	32.715	-86.99	-21.23	-102.69	-85.848	-33.320	5.488	-0.32397	0.53766	-0.42426	0.65256	30.5	13111	100
2025-3-27 14:55:44.379	WT901BLE68-01(48591DE3C19B)	-0.463	-1.007	0.327	-12.024	-26.306	32.715	-87.14	-20.67	-102.40	-85.848	-33.320	5.488	-0.32397	0.53766	-0.42426	0.65256	30.5	13111	100
2025-3-27 14:55:44.379	WT901BLE68-01(48591DE3C19B)	-0.463	-1.126	0.308	-10.010	-43.091	39.246	-87.34	-20.04	-101.94	-85.848	-33.320	5.488	-0.32397	0.53766	-0.42426	0.65256	30.5	13111	100
2025-3-27 14:55:44.379	WT901BLE68-01(48591DE3C19B)	-0.475	-1.126	0.308	-10.010	-43.091	39.246	-87.52	-19.43	-101.48	-85.848	-33.320	5.488	-0.32397	0.53766	-0.42426	0.65256	30.5	13111	100
2025-3-27 14:55:44.472	WT901BLE68-01(48591DE3C19B)	-0.475	-1.287	0.318	-4.211	-62.622	49.072	-87.71	-18.73	-100.81	-85.848	-33.320	5.488	-0.32397	0.53766	-0.42426	0.65256	30.5	13111	100
2025-3-27 14:55:44.472	WT901BLE68-01(48591DE3C19B)	-0.463	-1.287	0.318	-4.211	-62.622	49.072	-87.89	-18.02	-100.14	-85.848	-33.320	5.488	-0.32397	0.53766	-0.42426	0.65256	30.5	13111	100
2025-3-27 14:55:44.472	WT901BLE68-01(48591DE3C19B)	-0.463	-1.390	0.344	7.996	-83.069	64.392	-88.00	-17.18	-99.26	-85.848	-33.320	5.488	-0.32397	0.53766	-0.42426	0.65256	30.5	13111	100
2025-3-27 14:55:44.472	WT901BLE68-01(48591DE3C19B)	-0.397	-1.390	0.344	7.996	-83.069	64.392	-88.10	-16.35	-98.39	-85.848	-33.320	5.488	-0.32397	0.53766	-0.42426	0.65256	30.5	13111	100
2025-3-27 14:55:44.473	WT901BLE68-01(48591DE3C19B)	-0.397	-1.450	0.363	14.160	-102.661	82.092	-88.18	-15.35	-97.32	-85.848	-33.320	5.488	-0.32397	0.53766	-0.42426	0.65256	30.5	13111	100
2025-3-27 14:55:44.473	WT901BLE68-01(48591DE3C19B)	-0.323	-1.450	0.363	14.160	-102.661	82.092	-88.24	-14.36	-96.26	-85.848	-33.320	5.488	-0.32397	0.53766	-0.42426	0.65256	30.5	13111	100
2025-3-27 14:55:44.473	WT901BLE68-01(48591DE3C19B)	-0.323	-1.588	0.399	24.719	-119.934	100.037	-88.21	-13.21	-95.02	-85.848	-33.320	5.488	-0.32397	0.53766	-0.42426	0.65256	30.5	13111	100
2025-3-27 14:55:44.473	WT901BLE68-01(48591DE3C19B)	-0.202	-1.588	0.399	24.719	-119.934	100.037	-88.16	-12.07	-93.78	-85.848	-33.320	5.488	-0.32397	0.53766	-0.42426	0.65256	30.5	13111	100
2025-3-27 14:55:44.499	WT901BLE68-01(48591DE3C19B)	-0.202	-1.532	0.415	54.688	-117.615	129.089	-87.78	-10.66	-92.57	-85.848	-33.320	5.488	-0.32397	0.53766	-0.42426	0.65256	30.5	13111	100
2025-3-27 14:55:44.500	WT901BLE68-01(48591DE3C19B)	-0.087	-1.532	0.415	54.688	-117.615	129.089	-87.37	-9.27	-91.36	-85.848	-33.320	5.488	-0.32397	0.53766	-0.42426	0.65256	30.5	13111	100
2025-3-27 14:55:44.500	WT901BLE68-01(48591DE3C19B)	-0.087	-1.235	0.359	81.421	-88.745	159.546	-86.63	-7.59	-90.41	-85.848	-33.320	5.488	-0.32397	0.53766	-0.42426	0.65256	30.5	13111	100
2025-3-27 14:55:44.500	WT901BLE68-01(48591DE3C19B)	-0.057	-1.235	0.359	81.421	-88.745	159.546	-85.86	-5.94	-89.45	-80.752	-33.320	4.018	-0.32397	0.53766	-0.42426	0.65256	30.5	13111	100
2025-3-27 14:55:44.529	WT901BLE68-01(48591DE3C19B)	-0.057	-1.121	0.292	80.872	-50.476	189.697	-85.05	-3.99	-88.84	-80.752	-33.320	4.018	-0.32397	0.53766	-0.42426	0.65256	30.5	13111	100
2025-3-27 14:55:44.529	WT901BLE68-01(48591DE3C19B)	-0.145	-1.121	0.292	80.872	-50.476	189.697	-84.22	-2.07	-88.19	-80.752	-33.320	4.018	-0.32397	0.53766	-0.42426	0.65256	30.5	13111	100
2025-3-27 14:55:44.529	WT901BLE68-01(48591DE3C19B)	-0.145	-1.298	0.213	76.843	-31.494	208.801	-83.40	0.04	-87.69	-80.752	-33.320	4.018	-0.32397	0.53766	-0.42426	0.65256	30.5	13111	100
2025-3-27 14:55:44.529	WT901BLE68-01(48591DE3C19B)	-0.206	-1.298	0.213	76.843	-31.494	208.801	-82.58	2.13	-87.15	-80.752	-33.320	4.018	-0.32397	0.53766	-0.42426	0.65256	30.5	13111	100
2025-3-27 14:55:44.589	WT901BLE68-01(48591DE3C19B)	-0.206	-1.520	0.170	73.975	-31.921	224.976	-81.78	4.35	-86.56	-80.752	-33.320	4.018	-0.32397	0.53766	-0.42426	0.65256	30.5	13111	100
2025-3-27 14:55:44.589	WT901BLE68-01(48591DE3C19B)	-0.284	-1.520	0.170	73.975	-31.921	224.976	-80.95	6.55	-85.93	-80.752	-33.320	4.018	-0.32397	0.53766	-0.42426	0.65256	30.5	13111	100
2025-3-27 14:55:44.590	WT901BLE68-01(48591DE3C19B)	-0.284	-1.848	0.107	80.078	-48.767	226.501	-80.02	8.71	-85.10	-80.752	-33.320	4.018	-0.32397	0.53766	-0.42426	0.65256	30.5	13111	100
2025-3-27 14:55:44.590	WT901BLE68-01(48591DE3C19B)	-0.313	-1.848	0.107	80.078	-48.767	226.501	-79.07	10.84	-84.23	-80.752	-33.320	4.018	-0.32397	0.53766	-0.42426	0.65256	30.5	13111	100
2025-3-27 14:55:44.619	WT901BLE68-01(48591DE3C19B)	-0.313	-2.059	0.076	88.745	-73.120	227.112	-77.95	12.91	-83.06	-80.752	-33.320	4.018	-0.32397	0.53766	-0.42426	0.65256	30.5	13111	100
2025-3-27 14:55:44.619	WT901BLE68-01(48591DE3C19B)	-0.252	-2.059	0.076	88.745	-73.120	227.112	-76.79	14.94	-81.85	-80.752	-33.320	4.018	-0.32397	0.53766	-0.42426	0.65256	30.5	13111	100
2025-3-27 14:55:44.619	WT901BLE68-01(48591DE3C19B)	-0.252	-2.022	0.092	105.103	-93.689	219.604	-75.38	16.80	-80.40	-80.752	-33.320	4.018	-0.32397	0.53766	-0.42426	0.65256	30.5	13111	100
2025-3-27 14:55:44.619	WT901BLE68-01(48591DE3C19B)	-0.164	-2.022	0.092	105.103	-93.689	219.604	-73.91	18.62	-78.90	-80.752	-33.320	4.018	-0.32397	0.53766	-0.42426	0.65256	30.5	13111	100
2025-3-27 14:55:44.650	WT901BLE68-01(48591DE3C19B)	-0.164	-1.756	0.109	107.300	-95.459	209.412	-72.37	20.29	-77.34	-80.752	-33.320	4.018	-0.32397	0.53766	-0.42426	0.65256	30.5	13111	100
2025-3-27 14:55:44.650	WT901BLE68-01(48591DE3C19B)	-0.110	-1.756	0.109	107.300	-95.459	209.412	-70.77	21.90	-75.73	-80.752	-33.320	4.018	-0.32397	0.53766	-0.42426	0.65256	30.5	13111	100
2025-3-27 14:55:44.650	WT901BLE68-01(48591DE3C19B)	-0.084	-1.563	0.080	99.731	-77.332	204.041	-69.28	23.47	-74.27	-80.752	-33.320	4.018	-0.32397	0.53766	-0.42426	0.65256	30.5	13111	100
2025-3-27 14:55:44.650	WT901BLE68-01(48591DE3C19B)	-0.084	-1.417	0.046	91.858	-54.443	198.975	-67.83	25.02	-72.88	-80.752	-33.320	4.018	-0.32397	0.53766	-0.42426	0.65256	30.5	13111	100
2025-3-27 14:55:44.710	WT901BLE68-01(48591DE3C19B)	-0.065	-1.417	0.046	91.858	-54.443	198.975	-66.42	26.54	-71.57	-80.752	-33.320	4.018	-0.32397	0.53766	-0.42426	0.65256	30.5	13111	100
2025-3-27 14:55:44.711	WT901BLE68-01(48591DE3C19B)	-0.065	-1.299	0.017	85.205	-29.663	194.641	-65.06	28.05	-70.34	-80.752	-33.320	4.018	-0.74365	0.30878	-0.46753	0.36459	30.5	13111	100
2025-3-27 14:55:44.711	WT901BLE68-01(48591DE3C19B)	-0.080	-1.299	0.017	85.205	-29.663	194.641	-63.76	29.56	-69.20	-80.752	-33.320	4.018	-0.74365	0.30878	-0.46753	0.36459	30.5	13111	100
2025-3-27 14:55:44.711	WT901BLE68-01(48591DE3C19B)	-0.080	-1.174	-0.002	80.322	-9.888	190.613	-62.49	31.06	-68.12	-80.752	-33.320	4.018	-0.74365	0.30878	-0.46753	0.36459	30.5	13111	100
2025-3-27 14:55:44.739	WT901BLE68-01(48591DE3C19B)	-0.115	-1.174	-0.002	80.322	-9.888	190.613	-61.26	32.57	-67.10	-80.752	-33.320	4.018	-0.74365	0.30878	-0.46753	0.36459	30.5	13111	100
2025-3-27 14:55:44.739	WT901BLE68-01(48591DE3C19B)	-0.115	-1.075	-0.023	73.669	0.061	185.181	-60.06	34.05	-66.11	-80.752	-33.320	4.018	-0.74365	0.30878	-0.46753	0.36459	30.5	13111	100
2025-3-27 14:55:44.739	WT901BLE68-01(48591DE3C19B)	-0.149	-1.075	-0.023	73.669	0.061	185.181	-58.88	35.50	-65.13	-80.752	-33.320	4.018	-0.74365	0.30878	-0.46753	0.36459	30.5	13111	100
2025-3-27 14:55:44.739	WT901BLE68-01(48591DE3C19B)	-0.149	-1.008	-0.033	67.932	-1.526	177.490	-57.71	36.89	-64.13	-80.752	-33.320	4.018	-0.74365	0.30878	-0.46753	0.36459	30.5	13111	100
2025-3-27 14:55:44.772	WT901BLE68-01(48591DE3C19B)	-0.160	-1.008	-0.033	67.932	-1.526	177.490	-56.52	38.22	-63.09	-80.752	-33.320	4.018	-0.74365	0.30878	-0.46753	0.36459	30.5	13111	100
2025-3-27 14:55:44.772	WT901BLE68-01(48591DE3C19B)	-0.160	-0.958	-0.046	63.110	-11.414	167.786	-55.31	39.46	-61.99	-80.752	-33.320	4.018	-0.74365	0.30878	-0.46753	0.36459	30.5	13111	100
2025-3-27 14:55:44.772	WT901BLE68-01(48591DE3C19B)	-0.108	-0.958	-0.046	63.110	-11.414	167.786	-54.07	40.61	-60.83	-80.752	-33.320	4.018	-0.74365	0.30878	-0.46753	0.36459	30.5	13111	100
2025-3-27 14:55:44.772	WT901BLE68-01(48591DE3C19B)	-0.108	-0.914	-0.060	59.753	-20.935	156.799	-52.79	41.66	-59.61	-80.752	-33.320	4.018	-0.74365	0.30878	-0.46753	0.36459	30.5	13111	100
2025-3-27 14:55:44.830	WT901BLE68-01(48591DE3C19B)	-0.022	-0.914	-0.060	59.753	-20.935	156.799	-51.49	42.62	-58.34	-80.752	-33.320	4.018	-0.74365	0.30878	-0.46753	0.36459	30.5	13111	100
2025-3-27 14:55:44.830	WT901BLE68-01(48591DE3C19B)	-0.022	-0.850	-0.068	56.763	-22.522	144.043	-50.20	43.49	-57.08	-80.752	-33.320	4.018	-0.74365	0.30878	-0.46753	0.36459	30.5	13111	100
2025-3-27 14:55:44.830	WT901BLE68-01(48591DE3C19B)	0.088	-0.850	-0.068	56.763	-22.522	144.043	-48.93	44.29	-55.83	-80.752	-33.320	4.018	-0.74365	0.30878	-0.46753	0.36459	30.5	13111	100
2025-3-27 14:55:44.830	WT901BLE68-01(48591DE3C19B)	0.088	-0.766	-0.066	54.382	-12.024	129.944	-47.72	45.04	-54.68	-80.752	-33.320	4.018	-0.74365	0.30878	-0.46753	0.36459	30.5	13111	100
2025-3-27 14:55:44.860	WT901BLE68-01(48591DE3C19B)	0.157	-0.766	-0.066	54.382	-12.024	129.944	-46.59	45.75	-53.61	-80.752	-33.320	4.018	-0.74365	0.30878	-0.46753	0.36459	30.5	13111	100
2025-3-27 14:55:44.860	WT901BLE68-01(48591DE3C19B)	0.157	-0.673	-0.045	50.903	9.338	115.845	-45.58	46.46	-52.71	-80.752	-33.320	4.018	-0.74365	0.30878	-0.46753	0.36459	30.5	13111	100
2025-3-27 14:55:44.860	WT901BLE68-01(48591DE3C19B)	0.160	-0.673	-0.045	50.903	9.338	115.845	-44.70	47.18	-51.98	-80.752	-33.320	4.018	-0.74365	0.30878	-0.46753	0.36459	30.5	13111	100
2025-3-27 14:55:44.860	WT901BLE68-01(48591DE3C19B)	0.160	-0.588	-0.012	38.452	30.701	100.403	-44.02	47.91	-51.42	-88.592	-19.992	11.466	-0.74365	0.30878	-0.46753	0.36459	30.5	13111	100
2025-3-27 14:55:44.889	WT901BLE68-01(48591DE3C19B)	0.113	-0.588	-0.012	38.452	30.701	100.403	-43.52	48.65	-51.04	-88.592	-19.992	11.466	-0.74365	0.30878	-0.46753	0.36459	30.5	13111	100
2025-3-27 14:55:44.890	WT901BLE68-01(48591DE3C19B)	0.113	-0.570	0.018	19.653	47.485	81.177	-43.26	49.37	-50.85	-88.592	-19.992	11.466	-0.74365	0.30878	-0.46753	0.36459	30.5	13111	100
2025-3-27 14:55:44.890	WT901BLE68-01(48591DE3C19B)	0.052	-0.570	0.018	19.653	47.485	81.177	-43.24	50.08	-50.86	-88.592	-19.992	11.466	-0.74365	0.30878	-0.46753	0.36459	30.5	13111	100
2025-3-27 14:55:44.890	WT901BLE68-01(48591DE3C19B)	0.052	-0.647	0.047	-3.296	57.922	55.786	-43.49	50.73	-51.07	-88.592	-19.992	11.466	-0.74365	0.30878	-0.46753	0.36459	30.5	13111	100
2025-3-27 14:55:44.979	WT901BLE68-01(48591DE3C19B)	0.034	-0.647	0.047	-3.296	57.922	55.786	-44.02	51.33	-51.50	-88.592	-19.992	11.466	-0.74365	0.30878	-0.46753	0.36459	30.5	13111	100
2025-3-27 14:55:44.979	WT901BLE68-01(48591DE3C19B)	0.034	-0.796	0.042	-14.404	63.049	27.039	-44.77	51.84	-52.14	-88.592	-19.992	11.466	-0.74365	0.30878	-0.46753	0.36459	30.5	13111	100
2025-3-27 14:55:44.979	WT901BLE68-01(48591DE3C19B)	0.010	-0.796	0.042	-14.404	63.049	27.039	-45.74	52.26	-52.99	-88.592	-19.992	11.466	-0.74365	0.30878	-0.46753	0.36459	30.5	13111	100
2025-3-27 14:55:44.979	WT901BLE68-01(48591DE3C19B)	0.010	-0.851	0.046	-26.489	57.922	-8.484	-46.91	52.52	-54.03	-88.592	-19.992	11.466	-0.74365	0.30878	-0.46753	0.36459	30.5	13111	100
2025-3-27 14:55:44.980	WT901BLE68-01(48591DE3C19B)	-0.028	-0.851	0.046	-26.489	57.922	-8.484	-48.28	52.62	-55.24	-88.592	-19.992	11.466	-0.74365	0.30878	-0.46753	0.36459	30.5	13111	100
2025-3-27 14:55:44.980	WT901BLE68-01(48591DE3C19B)	-0.028	-0.963	0.075	-46.875	47.974	-45.227	-49.86	52.53	-56.59	-88.592	-19.992	11.466	-0.74365	0.30878	-0.46753	0.36459	30.5	13111	100
2025-3-27 14:55:44.980	WT901BLE68-01(48591DE3C19B)	-0.089	-0.963	0.075	-46.875	47.974	-45.227	-51.60	52.24	-58.04	-88.592	-19.992	11.466	-0.74365	0.30878	-0.46753	0.36459	30.5	13111	100
2025-3-27 14:55:44.980	WT901BLE68-01(48591DE3C19B)	-0.089	-1.109	0.118	-51.453	29.358	-87.463	-53.40	51.71	-59.55	-88.592	-19.992	11.466	-0.74365	0.30878	-0.46753	0.36459	30.5	13111	100
2025-3-27 14:55:45.42	WT901BLE68-01(48591DE3C19B)	-0.136	-1.109	0.118	-51.453	29.358	-87.463	-55.22	50.92	-61.07	-88.592	-19.992	11.466	-0.74365	0.30878	-0.46753	0.36459	30.5	13111	100
2025-3-27 14:55:45.42	WT901BLE68-01(48591DE3C19B)	-0.136	-1.121	0.167	-49.377	7.935	-131.042	-56.99	49.88	-62.56	-88.592	-19.992	11.466	-0.74365	0.30878	-0.46753	0.36459	30.5	13111	100
2025-3-27 14:55:45.42	WT901BLE68-01(48591DE3C19B)	-0.108	-1.121	0.167	-49.377	7.935	-131.042	-58.67	48.57	-64.00	-88.592	-19.992	11.466	-0.74365	0.30878	-0.46753	0.36459	30.5	13111	100
2025-3-27 14:55:45.42	WT901BLE68-01(48591DE3C19B)	-0.108	-1.165	0.115	-64.880	-7.813	-176.575	-60.38	47.02	-65.41	-88.592	-19.992	11.466	-0.74365	0.30878	-0.46753	0.36459	30.5	13111	100
2025-3-27 14:55:45.71	WT901BLE68-01(48591DE3C19B)	-0.064	-1.165	0.115	-64.880	-7.813	-176.575	-62.08	45.20	-66.75	-88.592	-19.992	11.466	-0.74365	0.30878	-0.46753	0.36459	30.5	13111	100
2025-3-27 14:55:45.72	WT901BLE68-01(48591DE3C19B)	-0.064	-1.255	0.075	-75.745	-2.258	-217.163	-63.83	43.21	-68.13	-88.592	-19.992	11.466	-0.74365	0.30878	-0.46753	0.36459	30.5	13111	100
2025-3-27 14:55:45.72	WT901BLE68-01(48591DE3C19B)	-0.092	-1.255	0.075	-75.745	-2.258	-217.163	-65.60	41.03	-69.51	-88.592	-19.992	11.466	-0.74365	0.30878	-0.46753	0.36459	30.5	13111	100
2025-3-27 14:55:45.72	WT901BLE68-01(48591DE3C19B)	-0.092	-1.255	0.135	-85.999	15.503	-250.854	-67.41	38.70	-70.95	-88.592	-19.992	11.466	-0.74069	0.27539	-0.52698	0.31262	30.5	13111	100
2025-3-27 14:55:45.102	WT901BLE68-01(48591DE3C19B)	-0.116	-1.255	0.135	-85.999	15.503	-250.854	-69.24	36.24	-72.42	-88.592	-19.992	11.466	-0.74069	0.27539	-0.52698	0.31262	30.5	13111	100
2025-3-27 14:55:45.102	WT901BLE68-01(48591DE3C19B)	-0.116	-1.290	0.208	-101.257	32.104	-275.391	-71.08	33.67	-73.89	-88.592	-19.992	11.466	-0.74069	0.27539	-0.52698	0.31262	30.5	13111	100
2025-3-27 14:55:45.102	WT901BLE68-01(48591DE3C19B)	-0.080	-1.290	0.208	-101.257	32.104	-275.391	-72.92	30.99	-75.34	-88.592	-19.992	11.466	-0.74069	0.27539	-0.52698	0.31262	30.5	13111	100
2025-3-27 14:55:45.102	WT901BLE68-01(48591DE3C19B)	-0.080	-1.377	0.250	-106.812	39.429	-292.358	-74.69	28.22	-76.72	-88.592	-19.992	11.466	-0.74069	0.27539	-0.52698	0.31262	30.5	13111	100
2025-3-27 14:55:45.160	WT901BLE68-01(48591DE3C19B)	-0.074	-1.377	0.250	-106.812	39.429	-292.358	-76.38	25.36	-78.02	-88.592	-19.992	11.466	-0.74069	0.27539	-0.52698	0.31262	30.5	13111	100
2025-3-27 14:55:45.160	WT901BLE68-01(48591DE3C19B)	-0.074	-1.513	0.287	-100.342	39.185	-297.607	-77.89	22.43	-79.21	-88.592	-19.992	11.466	-0.74069	0.27539	-0.52698	0.31262	30.5	13111	100
2025-3-27 14:55:45.160	WT901BLE68-01(48591DE3C19B)	-0.135	-1.513	0.287	-100.342	39.185	-297.607	-79.29	19.48	-80.28	-88.592	-19.992	11.466	-0.74069	0.27539	-0.52698	0.31262	30.5	13111	100
2025-3-27 14:55:45.160	WT901BLE68-01(48591DE3C19B)	-0.135	-1.679	0.276	-90.698	38.208	-299.377	-80.51	16.52	-81.25	-88.592	-19.992	11.466	-0.74069	0.27539	-0.52698	0.31262	30.5	13111	100
2025-3-27 14:55:45.220	WT901BLE68-01(48591DE3C19B)	-0.225	-1.679	0.276	-90.698	38.208	-299.377	-81.65	13.56	-82.15	-88.592	-19.992	11.466	-0.74069	0.27539	-0.52698	0.31262	30.5	13111	100
2025-3-27 14:55:45.221	WT901BLE68-01(48591DE3C19B)	-0.225	-1.896	0.264	-78.064	40.344	-299.011	-82.61	10.61	-82.99	-88.592	-19.992	11.466	-0.74069	0.27539	-0.52698	0.31262	30.5	13111	100
2025-3-27 14:55:45.221	WT901BLE68-01(48591DE3C19B)	-0.289	-1.896	0.264	-78.064	40.344	-299.011	-83.50	7.66	-83.78	-88.592	-19.992	11.466	-0.74069	0.27539	-0.52698	0.31262	30.5	13111	100
2025-3-27 14:55:45.221	WT901BLE68-01(48591DE3C19B)	-0.144	-1.972	0.226	-59.998	47.791	-295.471	-84.18	4.77	-84.58	-88.592	-19.992	11.466	-0.74069	0.27539	-0.52698	0.31262	30.5	13111	100
2025-3-27 14:55:45.222	WT901BLE68-01(48591DE3C19B)	-0.281	-0.986	0.113	-59.998	47.791	-295.471	-84.81	1.90	-85.35	-88.592	-19.992	11.466	-0.74069	0.27539	-0.52698	0.31262	30.5	13111	100
2025-3-27 14:55:45.222	WT901BLE68-01(48591DE3C19B)	-0.281	-1.848	0.170	-48.035	64.453	-285.950	-85.28	-0.86	-86.23	-88.592	-19.992	11.466	-0.74069	0.27539	-0.52698	0.31262	30.5	13111	100
2025-3-27 14:55:45.222	WT901BLE68-01(48591DE3C19B)	-0.270	-1.848	0.170	-48.035	64.453	-285.950	-85.71	-3.61	-87.10	-88.592	-19.992	11.466	-0.74069	0.27539	-0.52698	0.31262	30.5	13111	100
2025-3-27 14:55:45.222	WT901BLE68-01(48591DE3C19B)	-0.270	-1.728	0.140	-41.748	86.914	-267.517	-86.02	-6.14	-88.15	-88.592	-19.992	11.466	-0.74069	0.27539	-0.52698	0.31262	30.5	13111	100
2025-3-27 14:55:45.280	WT901BLE68-01(48591DE3C19B)	-0.277	-1.728	0.140	-41.748	86.914	-267.517	-86.29	-8.66	-89.19	-88.592	-19.992	11.466	-0.74069	0.27539	-0.52698	0.31262	30.5	13111	100
2025-3-27 14:55:45.280	WT901BLE68-01(48591DE3C19B)	-0.277	-1.621	0.200	-39.917	111.023	-245.117	-86.45	-10.94	-90.46	-88.592	-19.992	11.466	-0.74069	0.27539	-0.52698	0.31262	30.5	13111	100
2025-3-27 14:55:45.280	WT901BLE68-01(48591DE3C19B)	-0.304	-1.621	0.200	-39.917	111.023	-245.117	-86.57	-13.20	-91.71	-88.592	-19.992	11.466	-0.74069	0.27539	-0.52698	0.31262	30.5	13111	100
2025-3-27 14:55:45.280	WT901BLE68-01(48591DE3C19B)	-0.304	-1.536	0.267	-36.682	130.066	-222.656	-86.56	-15.21	-93.16	-88.592	-19.992	11.466	-0.74069	0.27539	-0.52698	0.31262	30.5	13111	100
2025-3-27 14:55:45.309	WT901BLE68-01(48591DE3C19B)	-0.346	-1.536	0.267	-36.682	130.066	-222.656	-86.49	-17.20	-94.62	-80.752	-31.262	6.762	-0.74069	0.27539	-0.52698	0.31262	30.5	13111	100
2025-3-27 14:55:45.309	WT901BLE68-01(48591DE3C19B)	-0.346	-1.482	0.289	-33.813	143.677	-198.059	-86.31	-18.93	-96.21	-80.752	-31.262	6.762	-0.74069	0.27539	-0.52698	0.31262	30.5	13111	100
2025-3-27 14:55:45.309	WT901BLE68-01(48591DE3C19B)	-0.387	-1.482	0.289	-33.813	143.677	-198.059	-86.07	-20.64	-97.83	-80.752	-31.262	6.762	-0.74069	0.27539	-0.52698	0.31262	30.5	13111	100
2025-3-27 14:55:45.309	WT901BLE68-01(48591DE3C19B)	-0.387	-1.404	0.235	-27.039	153.442	-173.096	-85.68	-22.07	-99.55	-80.752	-31.262	6.762	-0.74069	0.27539	-0.52698	0.31262	30.5	13111	100
2025-3-27 14:55:45.340	WT901BLE68-01(48591DE3C19B)	-0.472	-1.404	0.235	-27.039	153.442	-173.096	-85.25	-23.48	-101.29	-80.752	-31.262	6.762	-0.74069	0.27539	-0.52698	0.31262	30.5	13111	100
2025-3-27 14:55:45.340	WT901BLE68-01(48591DE3C19B)	-0.472	-1.301	0.149	-18.921	148.804	-150.696	-84.72	-24.64	-102.98	-80.752	-31.262	6.762	-0.74069	0.27539	-0.52698	0.31262	30.5	13111	100
2025-3-27 14:55:45.340	WT901BLE68-01(48591DE3C19B)	-0.586	-1.301	0.149	-18.921	148.804	-150.696	-84.16	-25.78	-104.69	-80.752	-31.262	6.762	-0.74069	0.27539	-0.52698	0.31262	30.5	13111	100
2025-3-27 14:55:45.340	WT901BLE68-01(48591DE3C19B)	-0.586	-1.226	0.106	-8.728	123.535	-131.592	-83.59	-26.73	-106.12	-80.752	-31.262	6.762	-0.74069	0.27539	-0.52698	0.31262	30.5	13111	100
2025-3-27 14:55:45.399	WT901BLE68-01(48591DE3C19B)	-0.660	-1.226	0.106	-8.728	123.535	-131.592	-83.01	-27.65	-107.56	-80.752	-31.262	6.762	-0.74069	0.27539	-0.52698	0.31262	30.5	13111	100
2025-3-27 14:55:45.400	WT901BLE68-01(48591DE3C19B)	-0.660	-1.127	0.106	0.854	85.022	-113.892	-82.52	-28.42	-108.56	-80.752	-31.262	6.762	-0.74069	0.27539	-0.52698	0.31262	30.5	13111	100
2025-3-27 14:55:45.400	WT901BLE68-01(48591DE3C19B)	-0.662	-1.127	0.106	0.854	85.022	-113.892	-82.01	-29.17	-109.56	-80.752	-31.262	6.762	-0.74069	0.27539	-0.52698	0.31262	30.5	13111	100
2025-3-27 14:55:45.400	WT901BLE68-01(48591DE3C19B)	-0.662	-1.009	0.137	5.127	45.654	-96.802	-81.69	-29.80	-110.10	-80.752	-31.262	6.762	-0.74069	0.27539	-0.52698	0.31262	30.5	13111	100
2025-3-27 14:55:45.462	WT901BLE68-01(48591DE3C19B)	-0.605	-1.009	0.137	5.127	45.654	-96.802	-81.35	-30.40	-110.65	-80.752	-31.262	6.762	-0.74069	0.27539	-0.52698	0.31262	30.5	13111	100
2025-3-27 14:55:45.462	WT901BLE68-01(48591DE3C19B)	-0.605	-0.900	0.165	4.272	17.334	-80.933	-81.21	-30.89	-110.86	-80.752	-31.262	6.762	-0.74069	0.27539	-0.52698	0.31262	30.5	13111	100
2025-3-27 14:55:45.462	WT901BLE68-01(48591DE3C19B)	-0.541	-0.900	0.165	4.272	17.334	-80.933	-81.05	-31.37	-111.07	-80.752	-31.262	6.762	-0.74069	0.27539	-0.52698	0.31262	30.5	13111	100
2025-3-27 14:55:45.462	WT901BLE68-01(48591DE3C19B)	-0.541	-0.773	0.180	3.418	2.258	-63.232	-81.01	-31.68	-111.07	-80.752	-31.262	6.762	-0.74069	0.27539	-0.52698	0.31262	30.5	13111	100
2025-3-27 14:55:45.463	WT901BLE68-01(48591DE3C19B)	-0.506	-0.773	0.180	3.418	2.258	-63.232	-80.97	-31.99	-111.08	-80.752	-31.262	6.762	-0.74069	0.27539	-0.52698	0.31262	30.5	13111	100
2025-3-27 14:55:45.463	WT901BLE68-01(48591DE3C19B)	-0.506	-0.707	0.206	-5.432	-6.958	-45.166	-81.08	-32.12	-110.96	-80.752	-31.262	6.762	-0.74069	0.27539	-0.52698	0.31262	30.5	13111	100
2025-3-27 14:55:45.463	WT901BLE68-01(48591DE3C19B)	-0.486	-0.707	0.206	-5.432	-6.958	-45.166	-81.19	-32.26	-110.84	-80.752	-31.262	6.762	-0.74069	0.27539	-0.52698	0.31262	30.5	13111	100
2025-3-27 14:55:45.463	WT901BLE68-01(48591DE3C19B)	-0.486	-0.768	0.238	-13.245	-12.146	-28.503	-81.43	-32.23	-110.63	-80.752	-31.262	6.762	-0.74069	0.27539	-0.52698	0.31262	30.5	13111	100
2025-3-27 14:55:45.550	WT901BLE68-01(48591DE3C19B)	-0.469	-0.768	0.238	-13.245	-12.146	-28.503	-81.64	-32.20	-110.42	-80.752	-31.262	6.762	-0.74069	0.27539	-0.52698	0.31262	30.5	13111	100
2025-3-27 14:55:45.550	WT901BLE68-01(48591DE3C19B)	-0.469	-0.829	0.261	-11.719	-8.728	-13.916	-81.84	-32.01	-110.25	-80.752	-31.262	6.762	-0.26767	0.53107	-0.39798	0.69843	30.5	13111	100
2025-3-27 14:55:45.550	WT901BLE68-01(48591DE3C19B)	-0.476	-0.829	0.261	-11.719	-8.728	-13.916	-82.02	-31.83	-110.08	-80.752	-31.262	6.762	-0.26767	0.53107	-0.39798	0.69843	30.5	13111	100
2025-3-27 14:55:45.550	WT901BLE68-01(48591DE3C19B)	-0.476	-0.870	0.270	-10.437	2.075	1.587	-82.14	-31.48	-110.01	-80.752	-31.262	6.762	-0.26767	0.53107	-0.39798	0.69843	30.5	13111	100
2025-3-27 14:55:45.551	WT901BLE68-01(48591DE3C19B)	-0.507	-0.870	0.270	-10.437	2.075	1.587	-82.25	-31.12	-109.95	-80.752	-31.262	6.762	-0.26767	0.53107	-0.39798	0.69843	30.5	13111	100
2025-3-27 14:55:45.551	WT901BLE68-01(48591DE3C19B)	-0.507	-0.934	0.242	-11.230	12.695	18.494	-82.31	-30.60	-109.98	-80.752	-31.262	6.762	-0.26767	0.53107	-0.39798	0.69843	30.5	13111	100
2025-3-27 14:55:45.551	WT901BLE68-01(48591DE3C19B)	-0.526	-0.934	0.242	-11.230	12.695	18.494	-82.38	-30.06	-110.03	-80.752	-31.262	6.762	-0.26767	0.53107	-0.39798	0.69843	30.5	13111	100
2025-3-27 14:55:45.552	WT901BLE68-01(48591DE3C19B)	-0.526	-1.068	0.225	-13.916	21.362	38.696	-82.43	-29.33	-110.13	-80.752	-31.262	6.762	-0.26767	0.53107	-0.39798	0.69843	30.5	13111	100
2025-3-27 14:55:45.579	WT901BLE68-01(48591DE3C19B)	-0.531	-1.068	0.225	-13.916	21.362	38.696	-82.49	-28.60	-110.24	-80.752	-31.262	6.762	-0.26767	0.53107	-0.39798	0.69843	30.5	13111	100
2025-3-27 14:55:45.579	WT901BLE68-01(48591DE3C19B)	-0.541	-1.152	0.225	-8.545	27.954	60.974	-82.48	-27.64	-110.38	-80.752	-31.262	6.762	-0.26767	0.53107	-0.39798	0.69843	30.5	13111	100
2025-3-27 14:55:45.579	WT901BLE68-01(48591DE3C19B)	-0.541	-1.157	0.253	-10.071	25.635	87.219	-82.50	-26.56	-110.48	-80.752	-31.262	6.762	-0.26767	0.53107	-0.39798	0.69843	30.5	13111	100
2025-3-27 14:55:45.579	WT901BLE68-01(48591DE3C19B)	-0.580	-1.157	0.253	-10.071	25.635	87.219	-82.54	-25.36	-110.56	-80.752	-31.262	6.762	-0.26767	0.53107	-0.39798	0.69843	30.5	13111	100
2025-3-27 14:55:45.639	WT901BLE68-01(48591DE3C19B)	-0.580	-1.245	0.271	-15.991	6.897	113.342	-82.66	-24.05	-110.51	-80.752	-31.262	6.762	-0.26767	0.53107	-0.39798	0.69843	30.5	13111	100
2025-3-27 14:55:45.639	WT901BLE68-01(48591DE3C19B)	-0.576	-1.245	0.271	-15.991	6.897	113.342	-82.86	-22.63	-110.34	-80.752	-31.262	6.762	-0.26767	0.53107	-0.39798	0.69843	30.5	13111	100
2025-3-27 14:55:45.639	WT901BLE68-01(48591DE3C19B)	-0.576	-1.244	0.254	-13.489	-21.423	139.099	-83.11	-21.12	-110.01	-80.752	-31.262	6.762	-0.26767	0.53107	-0.39798	0.69843	30.5	13111	100
2025-3-27 14:55:45.640	WT901BLE68-01(48591DE3C19B)	-0.544	-1.244	0.254	-13.489	-21.423	139.099	-83.38	-19.49	-109.53	-80.752	-31.262	6.762	-0.26767	0.53107	-0.39798	0.69843	30.5	13111	100
2025-3-27 14:55:45.671	WT901BLE68-01(48591DE3C19B)	-0.544	-1.241	0.217	-16.052	-56.885	167.969	-83.72	-17.75	-108.86	-80.752	-31.262	6.762	-0.26767	0.53107	-0.39798	0.69843	30.5	13111	100
2025-3-27 14:55:45.671	WT901BLE68-01(48591DE3C19B)	-0.508	-1.241	0.217	-16.052	-56.885	167.969	-84.09	-15.90	-108.01	-80.752	-31.262	6.762	-0.26767	0.53107	-0.39798	0.69843	30.5	13111	100
2025-3-27 14:55:45.671	WT901BLE68-01(48591DE3C19B)	-0.508	-1.370	0.133	-19.287	-95.581	195.251	-84.51	-13.93	-106.97	-80.752	-31.262	6.762	-0.26767	0.53107	-0.39798	0.69843	30.5	13111	100
2025-3-27 14:55:45.671	WT901BLE68-01(48591DE3C19B)	-0.460	-1.370	0.133	-19.287	-95.581	195.251	-84.96	-11.85	-105.74	-80.752	-31.262	6.762	-0.26767	0.53107	-0.39798	0.69843	30.5	13111	100
2025-3-27 14:55:45.700	WT901BLE68-01(48591DE3C19B)	-0.460	-1.558	0.050	-12.939	-133.789	219.299	-85.36	-9.68	-104.33	-80.752	-31.262	6.762	-0.26767	0.53107	-0.39798	0.69843	30.5	13111	100
2025-3-27 14:55:45.700	WT901BLE68-01(48591DE3C19B)	-0.394	-1.558	0.050	-12.939	-133.789	219.299	-85.70	-7.42	-102.74	-80.752	-31.262	6.762	-0.26767	0.53107	-0.39798	0.69843	30.5	13111	100
2025-3-27 14:55:45.700	WT901BLE68-01(48591DE3C19B)	-0.394	-1.757	-0.050	-4.761	-168.091	237.732	-85.97	-5.08	-101.00	-70.658	-32.340	4.508	-0.26767	0.53107	-0.39798	0.69843	30.5	13111	100
2025-3-27 14:55:45.701	WT901BLE68-01(48591DE3C19B)	-0.310	-1.757	-0.050	-4.761	-168.091	237.732	-86.14	-2.68	-99.10	-70.658	-32.340	4.508	-0.26767	0.53107	-0.39798	0.69843	30.5	13111	100
2025-3-27 14:55:45.760	WT901BLE68-01(48591DE3C19B)	-0.310	-2.007	-0.110	10.437	-194.763	247.070	-86.16	-0.25	-97.07	-70.658	-32.340	4.508	-0.26767	0.53107	-0.39798	0.69843	30.5	13111	100
2025-3-27 14:55:45.760	WT901BLE68-01(48591DE3C19B)	-0.204	-2.007	-0.110	10.437	-194.763	247.070	-86.02	2.18	-94.91	-70.658	-32.340	4.508	-0.26767	0.53107	-0.39798	0.69843	30.5	13111	100
2025-3-27 14:55:45.760	WT901BLE68-01(48591DE3C19B)	-0.204	-2.188	-0.072	33.447	-207.397	253.174	-85.68	4.60	-92.68	-70.658	-32.340	4.508	-0.26767	0.53107	-0.39798	0.69843	30.5	13111	100
2025-3-27 14:55:45.760	WT901BLE68-01(48591DE3C19B)	-0.076	-2.188	-0.072	33.447	-207.397	253.174	-85.13	7.01	-90.37	-70.658	-32.340	4.508	-0.26767	0.53107	-0.39798	0.69843	30.5	13111	100
2025-3-27 14:55:45.790	WT901BLE68-01(48591DE3C19B)	-0.076	-2.189	-0.006	59.998	-202.393	254.150	-84.36	9.38	-88.05	-70.658	-32.340	4.508	-0.26767	0.53107	-0.39798	0.69843	30.5	13111	100
2025-3-27 14:55:45.790	WT901BLE68-01(48591DE3C19B)	0.032	-2.189	-0.006	59.998	-202.393	254.150	-83.36	11.70	-85.72	-70.658	-32.340	4.508	-0.26767	0.53107	-0.39798	0.69843	30.5	13111	100
2025-3-27 14:55:45.790	WT901BLE68-01(48591DE3C19B)	0.032	-1.973	0.047	82.642	-172.974	260.559	-82.18	14.01	-83.48	-70.658	-32.340	4.508	-0.26767	0.53107	-0.39798	0.69843	30.5	13111	100
2025-3-27 14:55:45.790	WT901BLE68-01(48591DE3C19B)	0.052	-1.973	0.047	82.642	-172.974	260.559	-80.84	16.30	-81.33	-70.658	-32.340	4.508	-0.26767	0.53107	-0.39798	0.69843	30.5	13111	100
2025-3-27 14:55:45.820	WT901BLE68-01(48591DE3C19B)	0.052	-1.695	0.072	88.257	-126.770	259.827	-79.43	18.55	-79.34	-70.658	-32.340	4.508	-0.26767	0.53107	-0.39798	0.69843	30.5	13111	100
2025-3-27 14:55:45.820	WT901BLE68-01(48591DE3C19B)	0.013	-1.695	0.072	88.257	-126.770	259.827	-77.99	20.78	-77.52	-70.658	-32.340	4.508	-0.26767	0.53107	-0.39798	0.69843	30.5	13111	100
2025-3-27 14:55:45.820	WT901BLE68-01(48591DE3C19B)	0.013	-1.518	0.081	83.984	-75.134	261.353	-76.58	23.01	-75.89	-70.658	-32.340	4.508	-0.26767	0.53107	-0.39798	0.69843	30.5	13111	100
2025-3-27 14:55:45.820	WT901BLE68-01(48591DE3C19B)	-0.057	-1.518	0.081	83.984	-75.134	261.353	-75.22	25.26	-74.47	-70.658	-32.340	4.508	-0.26767	0.53107	-0.39798	0.69843	30.5	13111	100
2025-3-27 14:55:45.880	WT901BLE68-01(48591DE3C19B)	-0.057	-1.393	0.072	75.134	-35.645	255.371	-73.92	27.48	-73.18	-70.658	-32.340	4.508	-0.26767	0.53107	-0.39798	0.69843	30.5	13111	100
2025-3-27 14:55:45.880	WT901BLE68-01(48591DE3C19B)	-0.109	-1.393	0.072	75.134	-35.645	255.371	-72.69	29.70	-72.04	-70.658	-32.340	4.508	-0.26767	0.53107	-0.39798	0.69843	30.5	13111	100
2025-3-27 14:55:45.880	WT901BLE68-01(48591DE3C19B)	-0.109	-1.328	0.074	65.918	-15.869	246.338	-71.50	31.85	-70.96	-70.658	-32.340	4.508	-0.26767	0.53107	-0.39798	0.69843	30.5	13111	100
2025-3-27 14:55:45.880	WT901BLE68-01(48591DE3C19B)	-0.170	-1.328	0.074	65.918	-15.869	246.338	-70.36	33.98	-69.93	-70.658	-32.340	4.508	-0.26767	0.53107	-0.39798	0.69843	30.5	13111	100
2025-3-27 14:55:45.909	WT901BLE68-01(48591DE3C19B)	-0.170	-1.314	0.077	58.716	-15.381	234.802	-69.20	36.02	-68.87	-70.658	-32.340	4.508	-0.74487	0.30148	-0.51523	0.29782	30.5	13111	100
2025-3-27 14:55:45.909	WT901BLE68-01(48591DE3C19B)	-0.191	-1.314	0.077	58.716	-15.381	234.802	-68.02	37.97	-67.75	-70.658	-32.340	4.508	-0.74487	0.30148	-0.51523	0.29782	30.5	13111	100
2025-3-27 14:55:45.909	WT901BLE68-01(48591DE3C19B)	-0.191	-1.319	0.029	57.800	-26.489	217.896	-66.76	39.80	-66.54	-70.658	-32.340	4.508	-0.74487	0.30148	-0.51523	0.29782	30.5	13111	100
2025-3-27 14:55:45.909	WT901BLE68-01(48591DE3C19B)	-0.195	-1.319	0.029	57.800	-26.489	217.896	-65.41	41.50	-65.23	-70.658	-32.340	4.508	-0.74487	0.30148	-0.51523	0.29782	30.5	13111	100
2025-3-27 14:55:45.939	WT901BLE68-01(48591DE3C19B)	-0.195	-1.255	-0.012	62.134	-38.635	203.003	-63.93	43.07	-63.80	-70.658	-32.340	4.508	-0.74487	0.30148	-0.51523	0.29782	30.5	13111	100
2025-3-27 14:55:45.939	WT901BLE68-01(48591DE3C19B)	-0.140	-1.255	-0.012	62.134	-38.635	203.003	-62.34	44.52	-62.25	-70.658	-32.340	4.508	-0.74487	0.30148	-0.51523	0.29782	30.5	13111	100
2025-3-27 14:55:45.939	WT901BLE68-01(48591DE3C19B)	-0.140	-1.152	-0.048	65.125	-48.218	187.073	-60.64	45.82	-60.62	-70.658	-32.340	4.508	-0.74487	0.30148	-0.51523	0.29782	30.5	13111	100
2025-3-27 14:55:45.939	WT901BLE68-01(48591DE3C19B)	-0.028	-1.152	-0.048	65.125	-48.218	187.073	-58.84	47.01	-58.90	-70.658	-32.340	4.508	-0.74487	0.30148	-0.51523	0.29782	30.5	13111	100
2025-3-27 14:55:46.0	WT901BLE68-01(48591DE3C19B)	-0.028	-1.040	-0.048	67.078	-47.302	169.067	-57.02	48.06	-57.17	-70.658	-32.340	4.508	-0.74487	0.30148	-0.51523	0.29782	30.5	13111	100
2025-3-27 14:55:46.0	WT901BLE68-01(48591DE3C19B)	0.102	-1.040	-0.048	67.078	-47.302	169.067	-55.17	49.00	-55.45	-70.658	-32.340	4.508	-0.74487	0.30148	-0.51523	0.29782	30.5	13111	100
2025-3-27 14:55:46.0	WT901BLE68-01(48591DE3C19B)	0.102	-0.932	-0.048	65.002	-32.959	151.489	-53.40	49.87	-53.83	-70.658	-32.340	4.508	-0.74487	0.30148	-0.51523	0.29782	30.5	13111	100
2025-3-27 14:55:46.0	WT901BLE68-01(48591DE3C19B)	0.201	-0.932	-0.048	65.002	-32.959	151.489	-51.72	50.67	-52.33	-70.658	-32.340	4.508	-0.74487	0.30148	-0.51523	0.29782	30.5	13111	100
2025-3-27 14:55:46.30	WT901BLE68-01(48591DE3C19B)	0.201	-0.800	-0.042	65.857	-7.935	135.193	-50.17	51.46	-51.02	-70.658	-32.340	4.508	-0.74487	0.30148	-0.51523	0.29782	30.5	13111	100
2025-3-27 14:55:46.30	WT901BLE68-01(48591DE3C19B)	0.233	-0.800	-0.042	65.857	-7.935	135.193	-48.77	52.23	-49.90	-70.658	-32.340	4.508	-0.74487	0.30148	-0.51523	0.29782	30.5	13111	100
2025-3-27 14:55:46.30	WT901BLE68-01(48591DE3C19B)	0.233	-0.638	-0.021	61.768	22.400	117.859	-47.58	53.01	-49.02	-70.658	-32.340	4.508	-0.74487	0.30148	-0.51523	0.29782	30.5	13111	100
2025-3-27 14:55:46.30	WT901BLE68-01(48591DE3C19B)	0.172	-0.638	-0.021	61.768	22.400	117.859	-46.60	53.82	-48.40	-70.658	-32.340	4.508	-0.74487	0.30148	-0.51523	0.29782	30.5	13111	100
2025-3-27 14:55:46.61	WT901BLE68-01(48591DE3C19B)	0.172	-0.602	0.023	36.987	45.593	96.741	-45.94	54.61	-48.02	-70.658	-32.340	4.508	-0.74487	0.30148	-0.51523	0.29782	30.5	13111	100
2025-3-27 14:55:46.62	WT901BLE68-01(48591DE3C19B)	0.083	-0.602	0.023	36.987	45.593	96.741	-45.62	55.39	-47.91	-70.658	-32.340	4.508	-0.74487	0.30148	-0.51523	0.29782	30.5	13111	100
2025-3-27 14:55:46.62	WT901BLE68-01(48591DE3C19B)	0.083	-0.776	0.062	7.751	48.584	68.787	-45.89	55.99	-48.18	-70.658	-32.340	4.508	-0.74487	0.30148	-0.51523	0.29782	30.5	13111	100
2025-3-27 14:55:46.62	WT901BLE68-01(48591DE3C19B)	0.033	-0.776	0.062	7.751	48.584	68.787	-46.18	56.59	-48.45	-70.658	-32.340	4.508	-0.74487	0.30148	-0.51523	0.29782	30.5	13111	100
2025-3-27 14:55:46.121	WT901BLE68-01(48591DE3C19B)	0.033	-0.885	0.053	2.869	40.527	37.354	-46.76	56.89	-49.03	-70.658	-32.340	4.508	-0.74487	0.30148	-0.51523	0.29782	30.5	13111	100
2025-3-27 14:55:46.121	WT901BLE68-01(48591DE3C19B)	0.045	-0.885	0.053	2.869	40.527	37.354	-47.35	57.19	-49.61	-83.104	-18.424	13.034	-0.74487	0.30148	-0.51523	0.29782	30.5	13111	100
2025-3-27 14:55:46.121	WT901BLE68-01(48591DE3C19B)	0.045	-0.846	0.049	-2.991	30.457	1.526	-48.25	57.16	-50.51	-83.104	-18.424	13.034	-0.74487	0.30148	-0.51523	0.29782	30.5	13111	100
2025-3-27 14:55:46.121	WT901BLE68-01(48591DE3C19B)	0.056	-0.846	0.049	-2.991	30.457	1.526	-49.15	57.12	-51.40	-83.104	-18.424	13.034	-0.74487	0.30148	-0.51523	0.29782	30.5	13111	100
2025-3-27 14:55:46.150	WT901BLE68-01(48591DE3C19B)	0.056	-0.905	0.047	-26.184	23.315	-39.673	-50.59	56.70	-52.66	-83.104	-18.424	13.034	-0.74487	0.30148	-0.51523	0.29782	30.5	13111	100
2025-3-27 14:55:46.150	WT901BLE68-01(48591DE3C19B)	0.013	-0.905	0.047	-26.184	23.315	-39.673	-51.98	56.27	-53.89	-83.104	-18.424	13.034	-0.74487	0.30148	-0.51523	0.29782	30.5	13111	100
2025-3-27 14:55:46.150	WT901BLE68-01(48591DE3C19B)	0.013	-1.054	0.068	-36.255	15.259	-84.106	-53.73	55.43	-55.43	-83.104	-18.424	13.034	-0.74487	0.30148	-0.51523	0.29782	30.5	13111	100
2025-3-27 14:55:46.150	WT901BLE68-01(48591DE3C19B)	-0.019	-1.054	0.068	-36.255	15.259	-84.106	-55.39	54.56	-56.89	-83.104	-18.424	13.034	-0.74487	0.30148	-0.51523	0.29782	30.5	13111	100
2025-3-27 14:55:46.180	WT901BLE68-01(48591DE3C19B)	-0.019	-1.106	0.035	-38.574	10.864	-127.136	-57.25	53.29	-58.59	-83.104	-18.424	13.034	-0.74487	0.30148	-0.51523	0.29782	30.5	13111	100
2025-3-27 14:55:46.180	WT901BLE68-01(48591DE3C19B)	0.000	-1.106	0.035	-38.574	10.864	-127.136	-58.99	52.01	-60.17	-83.104	-18.424	13.034	-0.74487	0.30148	-0.51523	0.29782	30.5	13111	100
2025-3-27 14:55:46.180	WT901BLE68-01(48591DE3C19B)	0.000	-1.131	-0.011	-43.884	14.160	-171.326	-60.97	50.33	-62.02	-83.104	-18.424	13.034	-0.74487	0.30148	-0.51523	0.29782	30.5	13111	100
2025-3-27 14:55:46.180	WT901BLE68-01(48591DE3C19B)	-0.093	-1.131	-0.011	-43.884	14.160	-171.326	-62.79	48.63	-63.72	-83.104	-18.424	13.034	-0.74487	0.30148	-0.51523	0.29782	30.5	13111	100
2025-3-27 14:55:46.271	WT901BLE68-01(48591DE3C19B)	-0.093	-1.122	0.019	-56.702	26.367	-207.397	-64.87	46.63	-65.64	-83.104	-18.424	13.034	-0.74487	0.30148	-0.51523	0.29782	30.5	13111	100
2025-3-27 14:55:46.271	WT901BLE68-01(48591DE3C19B)	-0.188	-1.122	0.019	-56.702	26.367	-207.397	-66.78	44.60	-67.39	-83.104	-18.424	13.034	-0.74487	0.30148	-0.51523	0.29782	30.5	13111	100
2025-3-27 14:55:46.272	WT901BLE68-01(48591DE3C19B)	-0.188	-1.244	0.068	-72.632	27.954	-245.239	-68.82	42.21	-69.18	-83.104	-18.424	13.034	-0.74487	0.30148	-0.51523	0.29782	30.5	13111	100
2025-3-27 14:55:46.272	WT901BLE68-01(48591DE3C19B)	-0.193	-1.244	0.068	-72.632	27.954	-245.239	-70.68	39.79	-70.78	-83.104	-18.424	13.034	-0.74487	0.30148	-0.51523	0.29782	30.5	13111	100
2025-3-27 14:55:46.272	WT901BLE68-01(48591DE3C19B)	-0.193	-1.320	0.143	-74.646	25.024	-269.409	-72.43	37.12	-72.28	-83.104	-18.424	13.034	-0.74487	0.30148	-0.51523	0.29782	30.5	13111	100
2025-3-27 14:55:46.272	WT901BLE68-01(48591DE3C19B)	-0.178	-1.320	0.143	-74.646	25.024	-269.409	-74.03	34.43	-73.63	-83.104	-18.424	13.034	-0.74487	0.30148	-0.51523	0.29782	30.5	13111	100
2025-3-27 14:55:46.272	WT901BLE68-01(48591DE3C19B)	-0.178	-1.333	0.178	-76.172	26.672	-284.546	-75.53	31.59	-74.90	-83.104	-18.424	13.034	-0.74487	0.30148	-0.51523	0.29782	30.5	13111	100
2025-3-27 14:55:46.272	WT901BLE68-01(48591DE3C19B)	-0.107	-1.333	0.178	-76.172	26.672	-284.546	-76.92	28.74	-76.04	-83.104	-18.424	13.034	-0.74487	0.30148	-0.51523	0.29782	30.5	13111	100
2025-3-27 14:55:46.302	WT901BLE68-01(48591DE3C19B)	-0.107	-1.416	0.142	-81.543	29.480	-291.931	-78.26	25.82	-77.12	-83.104	-18.424	13.034	-0.74487	0.30148	-0.51523	0.29782	30.5	13111	100
2025-3-27 14:55:46.302	WT901BLE68-01(48591DE3C19B)	-0.045	-1.416	0.142	-81.543	29.480	-291.931	-79.51	22.90	-78.09	-83.104	-18.424	13.034	-0.74487	0.30148	-0.51523	0.29782	30.5	13111	100
2025-3-27 14:55:46.302	WT901BLE68-01(48591DE3C19B)	-0.045	-1.554	0.106	-80.994	35.706	-296.021	-80.69	19.95	-79.04	-83.104	-18.424	13.034	-0.65033	0.40784	-0.50760	0.39111	30.5	13111	100
2025-3-27 14:55:46.302	WT901BLE68-01(48591DE3C19B)	-0.060	-1.554	0.106	-80.994	35.706	-296.021	-81.80	17.00	-79.91	-83.104	-18.424	13.034	-0.65033	0.40784	-0.50760	0.39111	30.5	13111	100
2025-3-27 14:55:46.360	WT901BLE68-01(48591DE3C19B)	-0.060	-1.720	0.068	-77.332	50.598	-293.518	-82.85	14.08	-80.85	-83.104	-18.424	13.034	-0.65033	0.40784	-0.50760	0.39111	30.5	13111	100
2025-3-27 14:55:46.360	WT901BLE68-01(48591DE3C19B)	-0.174	-1.720	0.068	-77.332	50.598	-293.518	-83.83	11.18	-81.73	-83.104	-18.424	13.034	-0.65033	0.40784	-0.50760	0.39111	30.5	13111	100
2025-3-27 14:55:46.360	WT901BLE68-01(48591DE3C19B)	-0.174	-1.845	0.059	-67.688	65.369	-292.236	-84.68	8.30	-82.69	-83.104	-18.424	13.034	-0.65033	0.40784	-0.50760	0.39111	30.5	13111	100
2025-3-27 14:55:46.360	WT901BLE68-01(48591DE3C19B)	-0.292	-1.845	0.059	-67.688	65.369	-292.236	-85.47	5.43	-83.59	-83.104	-18.424	13.034	-0.65033	0.40784	-0.50760	0.39111	30.5	13111	100
2025-3-27 14:55:46.480	WT901BLE68-01(48591DE3C19B)	-0.292	-1.860	0.096	-57.617	71.594	-289.490	-86.12	2.60	-84.51	-83.104	-18.424	13.034	-0.65033	0.40784	-0.50760	0.39111	30.5	13111	100
2025-3-27 14:55:46.480	WT901BLE68-01(48591DE3C19B)	-0.351	-1.860	0.096	-57.617	71.594	-289.490	-86.72	-0.21	-85.40	-83.104	-18.424	13.034	-0.65033	0.40784	-0.50760	0.39111	30.5	13111	100
2025-3-27 14:55:46.480	WT901BLE68-01(48591DE3C19B)	-0.351	-1.779	0.138	-50.110	71.167	-282.593	-87.19	-2.95	-86.24	-83.104	-18.424	13.034	-0.65033	0.40784	-0.50760	0.39111	30.5	13111	100
2025-3-27 14:55:46.480	WT901BLE68-01(48591DE3C19B)	-0.354	-1.779	0.138	-50.110	71.167	-282.593	-87.63	-5.67	-87.06	-83.104	-18.424	13.034	-0.65033	0.40784	-0.50760	0.39111	30.5	13111	100
2025-3-27 14:55:46.482	WT901BLE68-01(48591DE3C19B)	-0.354	-1.700	0.140	-42.664	69.031	-271.179	-87.95	-8.27	-87.84	-83.104	-18.424	13.034	-0.65033	0.40784	-0.50760	0.39111	30.5	13111	100
2025-3-27 14:55:46.482	WT901BLE68-01(48591DE3C19B)	-0.354	-1.700	0.140	-42.664	69.031	-271.179	-88.24	-10.85	-88.60	-83.104	-18.424	13.034	-0.65033	0.40784	-0.50760	0.39111	30.5	13111	100
2025-3-27 14:55:46.482	WT901BLE68-01(48591DE3C19B)	-0.354	-1.614	0.151	-41.504	69.580	-259.216	-88.48	-13.30	-89.36	-83.104	-18.424	13.034	-0.65033	0.40784	-0.50760	0.39111	30.5	13111	100
2025-3-27 14:55:46.482	WT901BLE68-01(48591DE3C19B)	-0.357	-1.614	0.151	-41.504	69.580	-259.216	-88.69	-15.73	-90.11	-83.104	-18.424	13.034	-0.65033	0.40784	-0.50760	0.39111	30.5	13111	100
2025-3-27 14:55:46.511	WT901BLE68-01(48591DE3C19B)	-0.357	-1.600	0.180	-45.227	73.914	-241.272	-88.89	-17.97	-90.90	-83.104	-18.424	13.034	-0.65033	0.40784	-0.50760	0.39111	30.5	13111	100
2025-3-27 14:55:46.512	WT901BLE68-01(48591DE3C19B)	-0.376	-1.600	0.180	-45.227	73.914	-241.272	-89.06	-20.20	-91.69	-83.104	-18.424	13.034	-0.65033	0.40784	-0.50760	0.39111	30.5	13111	100
2025-3-27 14:55:46.512	WT901BLE68-01(48591DE3C19B)	-0.376	-1.596	0.234	-41.687	86.548	-218.262	-89.12	-22.19	-92.61	-83.104	-18.424	13.034	-0.65033	0.40784	-0.50760	0.39111	30.5	13111	100
2025-3-27 14:55:46.512	WT901BLE68-01(48591DE3C19B)	-0.439	-1.596	0.234	-41.687	86.548	-218.262	-89.14	-24.15	-93.55	-83.104	-18.424	13.034	-0.65033	0.40784	-0.50760	0.39111	30.5	13111	100
2025-3-27 14:55:46.512	WT901BLE68-01(48591DE3C19B)	-0.439	-1.522	0.242	-35.461	99.243	-193.604	-89.00	-25.86	-94.63	-83.104	-18.424	13.034	-0.65033	0.40784	-0.50760	0.39111	30.5	13111	100
2025-3-27 14:55:46.512	WT901BLE68-01(48591DE3C19B)	-0.501	-1.522	0.242	-35.461	99.243	-193.604	-88.82	-27.55	-95.73	-83.104	-18.424	13.034	-0.65033	0.40784	-0.50760	0.39111	30.5	13111	100
2025-3-27 14:55:46.513	WT901BLE68-01(48591DE3C19B)	-0.541	-1.404	0.226	-27.832	100.281	-168.091	-88.53	-28.97	-96.85	-83.104	-18.424	13.034	-0.65033	0.40784	-0.50760	0.39111	30.5	13111	100
2025-3-27 14:55:46.513	WT901BLE68-01(48591DE3C19B)	-0.541	-1.251	0.222	-19.592	91.553	-142.761	-88.20	-30.25	-97.94	-73.696	-33.320	7.644	-0.65033	0.40784	-0.50760	0.39111	30.5	13111	100
2025-3-27 14:55:46.572	WT901BLE68-01(48591DE3C19B)	-0.572	-1.251	0.222	-19.592	91.553	-142.761	-87.81	-31.38	-98.99	-73.696	-33.320	7.644	-0.65033	0.40784	-0.50760	0.39111	30.5	13111	100
2025-3-27 14:55:46.572	WT901BLE68-01(48591DE3C19B)	-0.572	-1.106	0.216	-14.771	78.552	-117.188	-87.43	-32.37	-99.98	-73.696	-33.320	7.644	-0.65033	0.40784	-0.50760	0.39111	30.5	13111	100
2025-3-27 14:55:46.572	WT901BLE68-01(48591DE3C19B)	-0.574	-1.106	0.216	-14.771	78.552	-117.188	-87.04	-33.22	-100.90	-73.696	-33.320	7.644	-0.65033	0.40784	-0.50760	0.39111	30.5	13111	100
2025-3-27 14:55:46.572	WT901BLE68-01(48591DE3C19B)	-0.574	-0.976	0.204	-9.399	63.416	-93.689	-86.67	-33.95	-101.73	-73.696	-33.320	7.644	-0.65033	0.40784	-0.50760	0.39111	30.5	13111	100
2025-3-27 14:55:46.600	WT901BLE68-01(48591DE3C19B)	-0.573	-0.976	0.204	-9.399	63.416	-93.689	-86.30	-34.54	-102.48	-73.696	-33.320	7.644	-0.65033	0.40784	-0.50760	0.39111	30.5	13111	100
2025-3-27 14:55:46.600	WT901BLE68-01(48591DE3C19B)	-0.573	-0.844	0.201	-6.897	47.363	-71.777	-85.98	-35.02	-103.13	-73.696	-33.320	7.644	-0.65033	0.40784	-0.50760	0.39111	30.5	13111	100
2025-3-27 14:55:46.600	WT901BLE68-01(48591DE3C19B)	-0.595	-0.844	0.201	-6.897	47.363	-71.777	-85.69	-35.39	-103.67	-73.696	-33.320	7.644	-0.65033	0.40784	-0.50760	0.39111	30.5	13111	100
2025-3-27 14:55:46.600	WT901BLE68-01(48591DE3C19B)	-0.595	-0.812	0.234	-11.719	28.748	-51.270	-85.51	-35.65	-104.10	-73.696	-33.320	7.644	-0.65033	0.40784	-0.50760	0.39111	30.5	13111	100
2025-3-27 14:55:46.630	WT901BLE68-01(48591DE3C19B)	-0.603	-0.812	0.234	-11.719	28.748	-51.270	-85.40	-35.80	-104.41	-73.696	-33.320	7.644	-0.65033	0.40784	-0.50760	0.39111	30.5	13111	100
2025-3-27 14:55:46.630	WT901BLE68-01(48591DE3C19B)	-0.603	-0.858	0.268	-12.756	6.470	-35.950	-85.39	-35.88	-104.58	-73.696	-33.320	7.644	-0.65033	0.40784	-0.50760	0.39111	30.5	13111	100
2025-3-27 14:55:46.630	WT901BLE68-01(48591DE3C19B)	-0.564	-0.858	0.268	-12.756	6.470	-35.950	-85.46	-35.89	-104.61	-73.696	-33.320	7.644	-0.65033	0.40784	-0.50760	0.39111	30.5	13111	100
2025-3-27 14:55:46.630	WT901BLE68-01(48591DE3C19B)	-0.564	-0.871	0.285	-8.667	-10.803	-23.560	-85.57	-35.84	-104.53	-73.696	-33.320	7.644	-0.65033	0.40784	-0.50760	0.39111	30.5	13111	100
2025-3-27 14:55:46.690	WT901BLE68-01(48591DE3C19B)	-0.541	-0.871	0.285	-8.667	-10.803	-23.560	-85.73	-35.73	-104.34	-73.696	-33.320	7.644	-0.65033	0.40784	-0.50760	0.39111	30.5	13111	100
2025-3-27 14:55:46.690	WT901BLE68-01(48591DE3C19B)	-0.541	-0.907	0.285	-9.460	-14.404	-10.620	-85.89	-35.56	-104.13	-73.696	-33.320	7.644	-0.65033	0.40784	-0.50760	0.39111	30.5	13111	100
2025-3-27 14:55:46.690	WT901BLE68-01(48591DE3C19B)	-0.601	-0.907	0.285	-9.460	-14.404	-10.620	-86.06	-35.32	-103.91	-73.696	-33.320	7.644	-0.65033	0.40784	-0.50760	0.39111	30.5	13111	100
2025-3-27 14:55:46.691	WT901BLE68-01(48591DE3C19B)	-0.601	-1.043	0.299	-10.437	-14.160	3.296	-86.24	-35.01	-103.68	-73.696	-33.320	7.644	-0.65033	0.40784	-0.50760	0.39111	30.5	13111	100
2025-3-27 14:55:46.725	WT901BLE68-01(48591DE3C19B)	-0.649	-1.043	0.299	-10.437	-14.160	3.296	-86.42	-34.63	-103.46	-73.696	-33.320	7.644	-0.27216	0.57501	-0.37970	0.67157	30.5	13111	100
2025-3-27 14:55:46.726	WT901BLE68-01(48591DE3C19B)	-0.649	-1.122	0.304	-1.587	-19.897	20.874	-86.57	-34.17	-103.21	-73.696	-33.320	7.644	-0.27216	0.57501	-0.37970	0.67157	30.5	13111	100
2025-3-27 14:55:46.726	WT901BLE68-01(48591DE3C19B)	-0.622	-1.122	0.304	-1.587	-19.897	20.874	-86.69	-33.62	-102.91	-73.696	-33.320	7.644	-0.27216	0.57501	-0.37970	0.67157	30.5	13111	100
2025-3-27 14:55:46.726	WT901BLE68-01(48591DE3C19B)	-0.622	-1.107	0.285	-0.549	-21.057	48.523	-86.81	-32.94	-102.61	-73.696	-33.320	7.644	-0.27216	0.57501	-0.37970	0.67157	30.5	13111	100
2025-3-27 14:55:46.752	WT901BLE68-01(48591DE3C19B)	-0.658	-1.107	0.285	-0.549	-21.057	48.523	-86.92	-32.12	-102.29	-73.696	-33.320	7.644	-0.27216	0.57501	-0.37970	0.67157	30.5	13111	100
2025-3-27 14:55:46.752	WT901BLE68-01(48591DE3C19B)	-0.658	-1.275	0.309	-4.272	-29.541	84.045	-87.08	-31.13	-101.93	-73.696	-33.320	7.644	-0.27216	0.57501	-0.37970	0.67157	30.5	13111	100
2025-3-27 14:55:46.752	WT901BLE68-01(48591DE3C19B)	-0.629	-1.275	0.309	-4.272	-29.541	84.045	-87.28	-29.97	-101.51	-73.696	-33.320	7.644	-0.27216	0.57501	-0.37970	0.67157	30.5	13111	100
2025-3-27 14:55:46.753	WT901BLE68-01(48591DE3C19B)	-0.629	-1.309	0.321	9.399	-49.438	114.990	-87.45	-28.66	-100.98	-73.696	-33.320	7.644	-0.27216	0.57501	-0.37970	0.67157	30.5	13111	100
2025-3-27 14:55:46.810	WT901BLE68-01(48591DE3C19B)	-0.468	-1.309	0.321	9.399	-49.438	114.990	-87.60	-27.22	-100.34	-73.696	-33.320	7.644	-0.27216	0.57501	-0.37970	0.67157	30.5	13111	100
2025-3-27 14:55:46.810	WT901BLE68-01(48591DE3C19B)	-0.468	-1.208	0.316	16.357	-67.261	155.212	-87.73	-25.58	-99.61	-73.696	-33.320	7.644	-0.27216	0.57501	-0.37970	0.67157	30.5	13111	100
2025-3-27 14:55:46.810	WT901BLE68-01(48591DE3C19B)	-0.350	-1.208	0.316	16.357	-67.261	155.212	-87.85	-23.76	-98.78	-73.696	-33.320	7.644	-0.27216	0.57501	-0.37970	0.67157	30.5	13111	100
2025-3-27 14:55:46.810	WT901BLE68-01(48591DE3C19B)	-0.350	-1.239	0.279	19.775	-75.317	195.068	-87.94	-21.75	-97.93	-73.696	-33.320	7.644	-0.27216	0.57501	-0.37970	0.67157	30.5	13111	100
2025-3-27 14:55:46.839	WT901BLE68-01(48591DE3C19B)	-0.342	-1.239	0.279	19.775	-75.317	195.068	-87.99	-19.57	-97.04	-73.696	-33.320	7.644	-0.27216	0.57501	-0.37970	0.67157	30.5	13111	100
2025-3-27 14:55:46.839	WT901BLE68-01(48591DE3C19B)	-0.342	-1.355	0.220	25.940	-82.703	228.882	-87.99	-17.23	-96.12	-73.696	-33.320	7.644	-0.27216	0.57501	-0.37970	0.67157	30.5	13111	100
2025-3-27 14:55:46.839	WT901BLE68-01(48591DE3C19B)	-0.351	-1.355	0.220	25.940	-82.703	228.882	-87.93	-14.75	-95.16	-73.696	-33.320	7.644	-0.27216	0.57501	-0.37970	0.67157	30.5	13111	100
2025-3-27 14:55:46.839	WT901BLE68-01(48591DE3C19B)	-0.351	-1.550	0.136	31.311	-101.013	252.991	-87.84	-12.17	-94.12	-73.696	-33.320	7.644	-0.27216	0.57501	-0.37970	0.67157	30.5	13111	100
2025-3-27 14:55:46.871	WT901BLE68-01(48591DE3C19B)	-0.333	-1.550	0.136	31.311	-101.013	252.991	-87.68	-9.50	-92.98	-73.696	-33.320	7.644	-0.27216	0.57501	-0.37970	0.67157	30.5	13111	100
2025-3-27 14:55:46.871	WT901BLE68-01(48591DE3C19B)	-0.333	-1.773	0.044	44.006	-122.681	270.630	-87.44	-6.76	-91.72	-73.696	-33.320	7.644	-0.27216	0.57501	-0.37970	0.67157	30.5	13111	100
2025-3-27 14:55:46.872	WT901BLE68-01(48591DE3C19B)	-0.292	-1.773	0.044	44.006	-122.681	270.630	-87.09	-3.98	-90.35	-73.696	-33.320	7.644	-0.27216	0.57501	-0.37970	0.67157	30.5	13111	100
2025-3-27 14:55:46.872	WT901BLE68-01(48591DE3C19B)	-0.292	-1.965	0.008	57.983	-143.616	279.114	-86.62	-1.19	-88.85	-73.696	-33.320	7.644	-0.27216	0.57501	-0.37970	0.67157	30.5	13111	100
2025-3-27 14:55:46.929	WT901BLE68-01(48591DE3C19B)	-0.202	-1.965	0.008	57.983	-143.616	279.114	-86.02	1.59	-87.23	-73.696	-33.320	7.644	-0.27216	0.57501	-0.37970	0.67157	30.5	13111	100
2025-3-27 14:55:46.929	WT901BLE68-01(48591DE3C19B)	-0.202	-2.123	0.039	74.585	-156.006	274.475	-85.25	4.31	-85.52	-76.244	-31.066	9.898	-0.27216	0.57501	-0.37970	0.67157	30.5	13111	100
2025-3-27 14:55:46.930	WT901BLE68-01(48591DE3C19B)	-0.100	-2.123	0.039	74.585	-156.006	274.475	-84.33	6.95	-83.70	-76.244	-31.066	9.898	-0.27216	0.57501	-0.37970	0.67157	30.5	13111	100
2025-3-27 14:55:46.930	WT901BLE68-01(48591DE3C19B)	-0.100	-2.115	0.129	95.093	-151.733	268.616	-83.22	9.50	-81.88	-76.244	-31.066	9.898	-0.27216	0.57501	-0.37970	0.67157	30.5	13111	100
2025-3-27 14:55:46.959	WT901BLE68-01(48591DE3C19B)	-0.103	-2.115	0.129	95.093	-151.733	268.616	-81.94	11.98	-80.01	-76.244	-31.066	9.898	-0.27216	0.57501	-0.37970	0.67157	30.5	13111	100
2025-3-27 14:55:46.959	WT901BLE68-01(48591DE3C19B)	-0.103	-1.985	0.198	99.976	-126.404	264.648	-80.57	14.38	-78.21	-76.244	-31.066	9.898	-0.27216	0.57501	-0.37970	0.67157	30.5	13111	100
2025-3-27 14:55:46.959	WT901BLE68-01(48591DE3C19B)	-0.123	-1.985	0.198	99.976	-126.404	264.648	-79.13	16.73	-76.47	-76.244	-31.066	9.898	-0.27216	0.57501	-0.37970	0.67157	30.5	13111	100
2025-3-27 14:55:46.959	WT901BLE68-01(48591DE3C19B)	-0.123	-1.854	0.168	101.074	-94.727	256.042	-77.66	19.00	-74.83	-76.244	-31.066	9.898	-0.27216	0.57501	-0.37970	0.67157	30.5	13111	100
2025-3-27 14:55:46.989	WT901BLE68-01(48591DE3C19B)	-0.116	-1.854	0.168	101.074	-94.727	256.042	-76.15	21.21	-73.30	-76.244	-31.066	9.898	-0.27216	0.57501	-0.37970	0.67157	30.5	13111	100
2025-3-27 14:55:46.989	WT901BLE68-01(48591DE3C19B)	-0.116	-1.694	0.103	96.741	-62.988	249.329	-74.75	23.38	-72.03	-76.244	-31.066	9.898	-0.27216	0.57501	-0.37970	0.67157	30.5	13111	100
2025-3-27 14:55:46.990	WT901BLE68-01(48591DE3C19B)	-0.103	-1.694	0.103	96.741	-62.988	249.329	-73.27	25.51	-70.69	-76.244	-31.066	9.898	-0.27216	0.57501	-0.37970	0.67157	30.5	13111	100
2025-3-27 14:55:46.990	WT901BLE68-01(48591DE3C19B)	-0.103	-1.554	0.049	90.515	-36.194	240.967	-71.93	27.59	-69.59	-76.244	-31.066	9.898	-0.27216	0.57501	-0.37970	0.67157	30.5	13111	100
2025-3-27 14:55:47.50	WT901BLE68-01(48591DE3C19B)	-0.120	-1.554	0.049	90.515	-36.194	240.967	-70.53	29.64	-68.41	-76.244	-31.066	9.898	-0.27216	0.57501	-0.37970	0.67157	30.5	13111	100
2025-3-27 14:55:47.51	WT901BLE68-01(48591DE3C19B)	-0.120	-1.458	0.033	83.618	-21.606	230.652	-69.23	31.60	-67.37	-76.244	-31.066	9.898	-0.27216	0.57501	-0.37970	0.67157	30.5	13111	100
2025-3-27 14:55:47.51	WT901BLE68-01(48591DE3C19B)	-0.115	-1.458	0.033	83.618	-21.606	230.652	-67.87	33.52	-66.25	-76.244	-31.066	9.898	-0.27216	0.57501	-0.37970	0.67157	30.5	13111	100
2025-3-27 14:55:47.51	WT901BLE68-01(48591DE3C19B)	-0.115	-1.412	-0.001	79.041	-18.372	218.689	-66.54	35.32	-65.15	-76.244	-31.066	9.898	-0.27216	0.57501	-0.37970	0.67157	30.5	13111	100
2025-3-27 14:55:47.82	WT901BLE68-01(48591DE3C19B)	-0.060	-1.412	-0.001	79.041	-18.372	218.689	-65.14	37.07	-63.99	-76.244	-31.066	9.898	-0.27216	0.57501	-0.37970	0.67157	30.5	13111	100
2025-3-27 14:55:47.82	WT901BLE68-01(48591DE3C19B)	-0.060	-1.316	-0.053	82.642	-18.555	206.665	-63.69	38.69	-62.81	-76.244	-31.066	9.898	-0.27216	0.57501	-0.37970	0.67157	30.5	13111	100
2025-3-27 14:55:47.82	WT901BLE68-01(48591DE3C19B)	0.009	-1.316	-0.053	82.642	-18.555	206.665	-62.17	40.28	-61.57	-76.244	-31.066	9.898	-0.27216	0.57501	-0.37970	0.67157	30.5	13111	100
2025-3-27 14:55:47.82	WT901BLE68-01(48591DE3C19B)	0.009	-1.162	-0.090	82.886	-16.602	193.787	-60.64	41.72	-60.34	-76.244	-31.066	9.898	-0.27216	0.57501	-0.37970	0.67157	30.5	13111	100
2025-3-27 14:55:47.112	WT901BLE68-01(48591DE3C19B)	0.079	-1.162	-0.090	82.886	-16.602	193.787	-59.06	43.12	-59.05	-76.244	-31.066	9.898	-0.27216	0.57501	-0.37970	0.67157	30.5	13111	100
2025-3-27 14:55:47.112	WT901BLE68-01(48591DE3C19B)	0.079	-1.027	-0.059	79.651	-11.414	179.138	-57.55	44.40	-57.85	-76.244	-31.066	9.898	-0.27216	0.57501	-0.37970	0.67157	30.5	13111	100
2025-3-27 14:55:47.112	WT901BLE68-01(48591DE3C19B)	0.141	-1.027	-0.059	79.651	-11.414	179.138	-55.99	45.64	-56.60	-76.244	-31.066	9.898	-0.80469	0.21332	-0.50748	0.22208	30.5	13111	100
2025-3-27 14:55:47.112	WT901BLE68-01(48591DE3C19B)	0.141	-0.939	-0.055	73.914	-0.122	166.138	-54.60	46.80	-55.51	-76.244	-31.066	9.898	-0.80469	0.21332	-0.50748	0.22208	30.5	13111	100
2025-3-27 14:55:47.171	WT901BLE68-01(48591DE3C19B)	0.178	-0.939	-0.055	73.914	-0.122	166.138	-53.15	47.93	-54.37	-76.244	-31.066	9.898	-0.80469	0.21332	-0.50748	0.22208	30.5	13111	100
2025-3-27 14:55:47.171	WT901BLE68-01(48591DE3C19B)	0.178	-0.867	-0.024	72.632	15.930	152.222	-51.90	49.03	-53.50	-76.244	-31.066	9.898	-0.80469	0.21332	-0.50748	0.22208	30.5	13111	100
2025-3-27 14:55:47.171	WT901BLE68-01(48591DE3C19B)	0.195	-0.867	-0.024	72.632	15.930	152.222	-50.62	50.10	-52.58	-76.244	-31.066	9.898	-0.80469	0.21332	-0.50748	0.22208	30.5	13111	100
2025-3-27 14:55:47.171	WT901BLE68-01(48591DE3C19B)	0.195	-0.774	0.010	64.636	32.349	135.803	-49.65	51.12	-51.97	-76.244	-31.066	9.898	-0.80469	0.21332	-0.50748	0.22208	30.5	13111	100
2025-3-27 14:55:47.199	WT901BLE68-01(48591DE3C19B)	0.187	-0.774	0.010	64.636	32.349	135.803	-48.64	52.14	-51.33	-76.244	-31.066	9.898	-0.80469	0.21332	-0.50748	0.22208	30.5	13111	100
2025-3-27 14:55:47.199	WT901BLE68-01(48591DE3C19B)	0.187	-0.783	0.056	45.410	42.053	114.441	-48.08	53.04	-51.02	-76.244	-31.066	9.898	-0.80469	0.21332	-0.50748	0.22208	30.5	13111	100
2025-3-27 14:55:47.199	WT901BLE68-01(48591DE3C19B)	0.164	-0.783	0.056	45.410	42.053	114.441	-47.50	53.93	-50.69	-76.244	-31.066	9.898	-0.80469	0.21332	-0.50748	0.22208	30.5	13111	100
2025-3-27 14:55:47.200	WT901BLE68-01(48591DE3C19B)	0.164	-0.847	0.066	29.724	40.833	83.801	-47.33	54.57	-50.69	-76.244	-31.066	9.898	-0.80469	0.21332	-0.50748	0.22208	30.5	13111	100
2025-3-27 14:55:47.230	WT901BLE68-01(48591DE3C19B)	0.140	-0.847	0.066	29.724	40.833	83.801	-47.17	55.22	-50.68	-76.244	-31.066	9.898	-0.80469	0.21332	-0.50748	0.22208	30.5	13111	100
2025-3-27 14:55:47.230	WT901BLE68-01(48591DE3C19B)	0.140	-0.838	0.081	16.724	38.940	53.223	-47.42	55.62	-51.02	-76.244	-31.066	9.898	-0.80469	0.21332	-0.50748	0.22208	30.5	13111	100
2025-3-27 14:55:47.230	WT901BLE68-01(48591DE3C19B)	0.121	-0.838	0.081	16.724	38.940	53.223	-47.66	56.01	-51.37	-76.244	-31.066	9.898	-0.80469	0.21332	-0.50748	0.22208	30.5	13111	100
2025-3-27 14:55:47.230	WT901BLE68-01(48591DE3C19B)	0.121	-0.892	0.074	-7.568	40.649	13.428	-48.58	56.11	-52.22	-76.244	-31.066	9.898	-0.80469	0.21332	-0.50748	0.22208	30.5	13111	100
2025-3-27 14:55:47.290	WT901BLE68-01(48591DE3C19B)	0.078	-0.892	0.074	-7.568	40.649	13.428	-49.48	56.21	-53.07	-76.244	-31.066	9.898	-0.80469	0.21332	-0.50748	0.22208	30.5	13111	100
2025-3-27 14:55:47.290	WT901BLE68-01(48591DE3C19B)	0.078	-1.028	0.066	-23.926	37.354	-29.785	-50.92	55.94	-54.38	-76.244	-31.066	9.898	-0.80469	0.21332	-0.50748	0.22208	30.5	13111	100
2025-3-27 14:55:47.290	WT901BLE68-01(48591DE3C19B)	0.020	-1.028	0.066	-23.926	37.354	-29.785	-52.33	55.66	-55.65	-76.244	-31.066	9.898	-0.80469	0.21332	-0.50748	0.22208	30.5	13111	100
2025-3-27 14:55:47.291	WT901BLE68-01(48591DE3C19B)	0.020	-1.076	0.063	-24.353	29.358	-72.571	-53.98	54.97	-57.23	-76.244	-31.066	9.898	-0.80469	0.21332	-0.50748	0.22208	30.5	13111	100
2025-3-27 14:55:47.322	WT901BLE68-01(48591DE3C19B)	-0.003	-1.076	0.063	-24.353	29.358	-72.571	-55.56	54.26	-58.73	-80.850	-21.364	13.524	-0.80469	0.21332	-0.50748	0.22208	30.5	13111	100
2025-3-27 14:55:47.322	WT901BLE68-01(48591DE3C19B)	-0.003	-1.094	0.001	-29.175	20.447	-117.310	-57.34	53.11	-60.45	-80.850	-21.364	13.524	-0.80469	0.21332	-0.50748	0.22208	30.5	13111	100
2025-3-27 14:55:47.322	WT901BLE68-01(48591DE3C19B)	-0.046	-1.094	0.001	-29.175	20.447	-117.310	-59.01	51.94	-62.06	-80.850	-21.364	13.524	-0.80469	0.21332	-0.50748	0.22208	30.5	13111	100
2025-3-27 14:55:47.322	WT901BLE68-01(48591DE3C19B)	-0.046	-1.051	0.002	-34.668	18.066	-157.410	-60.85	50.40	-63.84	-80.850	-21.364	13.524	-0.80469	0.21332	-0.50748	0.22208	30.5	13111	100
2025-3-27 14:55:47.351	WT901BLE68-01(48591DE3C19B)	-0.153	-1.051	0.002	-34.668	18.066	-157.410	-62.55	48.83	-65.48	-80.850	-21.364	13.524	-0.80469	0.21332	-0.50748	0.22208	30.5	13111	100
2025-3-27 14:55:47.351	WT901BLE68-01(48591DE3C19B)	-0.153	-1.104	0.044	-54.016	19.104	-192.810	-64.48	46.93	-67.23	-80.850	-21.364	13.524	-0.80469	0.21332	-0.50748	0.22208	30.5	13111	100
2025-3-27 14:55:47.351	WT901BLE68-01(48591DE3C19B)	-0.204	-1.104	0.044	-54.016	19.104	-192.810	-66.25	45.01	-68.81	-80.850	-21.364	13.524	-0.80469	0.21332	-0.50748	0.22208	30.5	13111	100
2025-3-27 14:55:47.351	WT901BLE68-01(48591DE3C19B)	-0.204	-1.191	0.082	-57.068	16.602	-219.910	-67.98	42.81	-70.36	-80.850	-21.364	13.524	-0.80469	0.21332	-0.50748	0.22208	30.5	13111	100
2025-3-27 14:55:47.409	WT901BLE68-01(48591DE3C19B)	-0.184	-1.191	0.082	-57.068	16.602	-219.910	-69.57	40.60	-71.76	-80.850	-21.364	13.524	-0.80469	0.21332	-0.50748	0.22208	30.5	13111	100
2025-3-27 14:55:47.410	WT901BLE68-01(48591DE3C19B)	-0.184	-1.157	0.138	-59.326	15.442	-239.197	-71.09	38.19	-73.09	-80.850	-21.364	13.524	-0.80469	0.21332	-0.50748	0.22208	30.5	13111	100
2025-3-27 14:55:47.410	WT901BLE68-01(48591DE3C19B)	-0.146	-1.157	0.138	-59.326	15.442	-239.197	-72.48	35.78	-74.30	-80.850	-21.364	13.524	-0.80469	0.21332	-0.50748	0.22208	30.5	13111	100
2025-3-27 14:55:47.410	WT901BLE68-01(48591DE3C19B)	-0.146	-1.199	0.151	-71.777	14.648	-251.770	-73.89	33.24	-75.42	-80.850	-21.364	13.524	-0.80469	0.21332	-0.50748	0.22208	30.5	13111	100
2025-3-27 14:55:47.439	WT901BLE68-01(48591DE3C19B)	-0.095	-1.199	0.151	-71.777	14.648	-251.770	-75.20	30.69	-76.44	-80.850	-21.364	13.524	-0.80469	0.21332	-0.50748	0.22208	30.5	13111	100
2025-3-27 14:55:47.439	WT901BLE68-01(48591DE3C19B)	-0.052	-1.336	0.122	-77.026	15.137	-263.245	-76.49	28.03	-77.39	-80.850	-21.364	13.524	-0.80469	0.21332	-0.50748	0.22208	30.5	13111	100
2025-3-27 14:55:47.439	WT901BLE68-01(48591DE3C19B)	-0.052	-1.461	0.067	-75.134	26.855	-272.217	-77.71	25.34	-78.33	-80.850	-21.364	13.524	-0.80469	0.21332	-0.50748	0.22208	30.5	13111	100
2025-3-27 14:55:47.439	WT901BLE68-01(48591DE3C19B)	-0.063	-1.461	0.067	-75.134	26.855	-272.217	-78.88	22.61	-79.24	-80.850	-21.364	13.524	-0.80469	0.21332	-0.50748	0.22208	30.5	13111	100
2025-3-27 14:55:47.470	WT901BLE68-01(48591DE3C19B)	-0.063	-1.563	0.009	-75.806	49.988	-281.494	-80.02	19.86	-80.22	-80.850	-21.364	13.524	-0.80469	0.21332	-0.50748	0.22208	30.5	13111	100
2025-3-27 14:55:47.470	WT901BLE68-01(48591DE3C19B)	-0.146	-1.563	0.009	-75.806	49.988	-281.494	-81.13	17.08	-81.23	-80.850	-21.364	13.524	-0.80469	0.21332	-0.50748	0.22208	30.5	13111	100
2025-3-27 14:55:47.470	WT901BLE68-01(48591DE3C19B)	-0.146	-1.651	-0.011	-73.669	72.998	-290.283	-82.20	14.27	-82.30	-80.850	-21.364	13.524	-0.80469	0.21332	-0.50748	0.22208	30.5	13111	100
2025-3-27 14:55:47.470	WT901BLE68-01(48591DE3C19B)	-0.247	-1.651	-0.011	-73.669	72.998	-290.283	-83.21	11.43	-83.41	-80.850	-21.364	13.524	-0.80469	0.21332	-0.50748	0.22208	30.5	13111	100
2025-3-27 14:55:47.560	WT901BLE68-01(48591DE3C19B)	-0.247	-1.715	0.021	-69.031	87.769	-296.082	-84.14	8.57	-84.54	-80.850	-21.364	13.524	-0.80469	0.21332	-0.50748	0.22208	30.5	13111	100
2025-3-27 14:55:47.560	WT901BLE68-01(48591DE3C19B)	-0.330	-1.715	0.021	-69.031	87.769	-296.082	-85.00	5.69	-85.68	-80.850	-21.364	13.524	-0.56271	0.46982	-0.48563	0.47607	30.5	13111	100
2025-3-27 14:55:47.560	WT901BLE68-01(48591DE3C19B)	-0.330	-1.790	0.063	-64.148	90.576	-298.889	-85.76	2.81	-86.78	-80.850	-21.364	13.524	-0.56271	0.46982	-0.48563	0.47607	30.5	13111	100
2025-3-27 14:55:47.560	WT901BLE68-01(48591DE3C19B)	-0.383	-1.790	0.063	-64.148	90.576	-298.889	-86.44	-0.08	-87.86	-80.850	-21.364	13.524	-0.56271	0.46982	-0.48563	0.47607	30.5	13111	100
2025-3-27 14:55:47.589	WT901BLE68-01(48591DE3C19B)	-0.383	-1.822	0.083	-59.082	83.862	-297.607	-87.04	-2.96	-88.86	-80.850	-21.364	13.524	-0.56271	0.46982	-0.48563	0.47607	30.5	13111	100
2025-3-27 14:55:47.590	WT901BLE68-01(48591DE3C19B)	-0.409	-1.822	0.083	-59.082	83.862	-297.607	-87.57	-5.82	-89.79	-80.850	-21.364	13.524	-0.56271	0.46982	-0.48563	0.47607	30.5	13111	100
2025-3-27 14:55:47.590	WT901BLE68-01(48591DE3C19B)	-0.409	-1.863	0.087	-53.894	76.172	-289.185	-88.02	-8.63	-90.66	-80.850	-21.364	13.524	-0.56271	0.46982	-0.48563	0.47607	30.5	13111	100
2025-3-27 14:55:47.590	WT901BLE68-01(48591DE3C19B)	-0.418	-1.863	0.087	-53.894	76.172	-289.185	-88.41	-11.38	-91.47	-80.850	-21.364	13.524	-0.56271	0.46982	-0.48563	0.47607	30.5	13111	100
2025-3-27 14:55:47.590	WT901BLE68-01(48591DE3C19B)	-0.418	-1.824	0.088	-47.180	75.500	-278.442	-88.74	-14.07	-92.26	-80.850	-21.364	13.524	-0.56271	0.46982	-0.48563	0.47607	30.5	13111	100
2025-3-27 14:55:47.590	WT901BLE68-01(48591DE3C19B)	-0.444	-1.824	0.088	-47.180	75.500	-278.442	-88.99	-16.69	-93.04	-80.850	-21.364	13.524	-0.56271	0.46982	-0.48563	0.47607	30.5	13111	100
2025-3-27 14:55:47.591	WT901BLE68-01(48591DE3C19B)	-0.444	-1.773	0.106	-44.067	84.656	-257.813	-89.18	-19.19	-93.86	-80.850	-21.364	13.524	-0.56271	0.46982	-0.48563	0.47607	30.5	13111	100
2025-3-27 14:55:47.591	WT901BLE68-01(48591DE3C19B)	-0.483	-1.773	0.106	-44.067	84.656	-257.813	-89.30	-21.57	-94.72	-80.850	-21.364	13.524	-0.56271	0.46982	-0.48563	0.47607	30.5	13111	100
2025-3-27 14:55:47.830	WT901BLE68-01(48591DE3C19B)	-0.483	-1.682	0.156	-39.246	100.525	-229.126	-89.33	-23.80	-95.67	-80.850	-21.364	13.524	-0.56271	0.46982	-0.48563	0.47607	30.5	13111	100
2025-3-27 14:55:47.830	WT901BLE68-01(48591DE3C19B)	-0.497	-1.682	0.156	-39.246	100.525	-229.126	-89.26	-25.86	-96.73	-80.850	-21.364	13.524	-0.56271	0.46982	-0.48563	0.47607	30.5	13111	100
2025-3-27 14:55:47.830	WT901BLE68-01(48591DE3C19B)	-0.497	-1.539	0.177	-33.325	118.652	-195.374	-89.07	-27.73	-97.90	-80.850	-21.364	13.524	-0.56271	0.46982	-0.48563	0.47607	30.5	13111	100
2025-3-27 14:55:47.830	WT901BLE68-01(48591DE3C19B)	-0.494	-1.539	0.177	-33.325	118.652	-195.374	-88.75	-29.43	-99.20	-80.850	-21.364	13.524	-0.56271	0.46982	-0.48563	0.47607	30.5	13111	100
2025-3-27 14:55:47.831	WT901BLE68-01(48591DE3C19B)	-0.494	-1.347	0.193	-28.137	124.023	-158.875	-88.35	-30.92	-100.54	-80.850	-21.364	13.524	-0.56271	0.46982	-0.48563	0.47607	30.5	13111	100
2025-3-27 14:55:47.831	WT901BLE68-01(48591DE3C19B)	-0.460	-1.347	0.193	-28.137	124.023	-158.875	-87.87	-32.20	-101.94	-80.850	-21.364	13.524	-0.56271	0.46982	-0.48563	0.47607	30.5	13111	100
2025-3-27 14:55:47.831	WT901BLE68-01(48591DE3C19B)	-0.460	-1.173	0.213	-26.245	120.239	-123.108	-87.36	-33.28	-103.33	-80.850	-21.364	13.524	-0.56271	0.46982	-0.48563	0.47607	30.5	13111	100
2025-3-27 14:55:47.831	WT901BLE68-01(48591DE3C19B)	-0.476	-1.173	0.213	-26.245	120.239	-123.108	-86.82	-34.17	-104.72	-80.850	-21.364	13.524	-0.56271	0.46982	-0.48563	0.47607	30.5	13111	100
2025-3-27 14:55:47.832	WT901BLE68-01(48591DE3C19B)	-0.476	-1.048	0.212	-22.827	115.173	-89.294	-86.27	-34.87	-106.07	-80.850	-21.364	13.524	-0.56271	0.46982	-0.48563	0.47607	30.5	13111	100
2025-3-27 14:55:47.832	WT901BLE68-01(48591DE3C19B)	-0.559	-1.048	0.212	-22.827	115.173	-89.294	-85.70	-35.39	-107.40	-80.850	-21.364	13.524	-0.56271	0.46982	-0.48563	0.47607	30.5	13111	100
2025-3-27 14:55:47.832	WT901BLE68-01(48591DE3C19B)	-0.559	-0.976	0.191	-18.311	103.394	-63.782	-85.15	-35.77	-108.64	-80.850	-21.364	13.524	-0.56271	0.46982	-0.48563	0.47607	30.5	13111	100
2025-3-27 14:55:47.832	WT901BLE68-01(48591DE3C19B)	-0.654	-0.976	0.191	-18.311	103.394	-63.782	-84.62	-36.00	-109.81	-80.850	-21.364	13.524	-0.56271	0.46982	-0.48563	0.47607	30.5	13111	100
2025-3-27 14:55:47.833	WT901BLE68-01(48591DE3C19B)	-0.654	-0.932	0.176	-15.564	78.491	-44.495	-84.16	-36.15	-110.81	-80.850	-21.364	13.524	-0.56271	0.46982	-0.48563	0.47607	30.5	13111	100
2025-3-27 14:55:47.833	WT901BLE68-01(48591DE3C19B)	-0.725	-0.932	0.176	-15.564	78.491	-44.495	-83.80	-36.19	-111.65	-80.850	-21.364	13.524	-0.56271	0.46982	-0.48563	0.47607	30.5	13111	100
2025-3-27 14:55:47.833	WT901BLE68-01(48591DE3C19B)	-0.725	-0.935	0.200	-14.099	42.786	-33.264	-83.56	-36.18	-112.25	-80.850	-21.364	13.524	-0.56271	0.46982	-0.48563	0.47607	30.5	13111	100
2025-3-27 14:55:47.833	WT901BLE68-01(48591DE3C19B)	-0.745	-0.935	0.200	-14.099	42.786	-33.264	-83.45	-36.14	-112.63	-80.850	-21.364	13.524	-0.56271	0.46982	-0.48563	0.47607	30.5	13111	100
2025-3-27 14:55:47.891	WT901BLE68-01(48591DE3C19B)	-0.745	-0.931	0.222	-10.559	6.165	-24.841	-83.46	-36.06	-112.77	-80.850	-21.364	13.524	-0.56271	0.46982	-0.48563	0.47607	30.5	13111	100
2025-3-27 14:55:47.891	WT901BLE68-01(48591DE3C19B)	-0.715	-0.931	0.222	-10.559	6.165	-24.841	-83.59	-35.96	-112.69	-80.850	-21.364	13.524	-0.56271	0.46982	-0.48563	0.47607	30.5	13111	100
2025-3-27 14:55:47.891	WT901BLE68-01(48591DE3C19B)	-0.715	-0.926	0.231	-10.864	-21.362	-16.785	-83.82	-35.83	-112.45	-80.850	-21.364	13.524	-0.56271	0.46982	-0.48563	0.47607	30.5	13111	100
2025-3-27 14:55:47.891	WT901BLE68-01(48591DE3C19B)	-0.683	-0.926	0.231	-10.864	-21.362	-16.785	-84.14	-35.66	-112.02	-80.850	-21.364	13.524	-0.56271	0.46982	-0.48563	0.47607	30.5	13111	100
2025-3-27 14:55:47.892	WT901BLE68-01(48591DE3C19B)	-0.683	-0.994	0.262	-12.878	-35.767	-4.578	-84.53	-35.44	-111.52	-80.850	-21.364	13.524	-0.56271	0.46982	-0.48563	0.47607	30.5	13111	100
2025-3-27 14:55:47.892	WT901BLE68-01(48591DE3C19B)	-0.640	-0.994	0.262	-12.878	-35.767	-4.578	-84.97	-35.15	-110.92	-80.850	-21.364	13.524	-0.56271	0.46982	-0.48563	0.47607	30.5	13111	100
2025-3-27 14:55:47.892	WT901BLE68-01(48591DE3C19B)	-0.640	-0.970	0.249	-7.507	-48.950	10.498	-85.42	-34.79	-110.25	-80.850	-21.364	13.524	-0.56271	0.46982	-0.48563	0.47607	30.5	13111	100
2025-3-27 14:55:47.892	WT901BLE68-01(48591DE3C19B)	-0.595	-0.970	0.249	-7.507	-48.950	10.498	-85.87	-34.36	-109.51	-80.850	-21.364	13.524	-0.56271	0.46982	-0.48563	0.47607	30.5	13111	100
2025-3-27 14:55:47.893	WT901BLE68-01(48591DE3C19B)	-0.595	-0.998	0.295	-11.658	-57.251	34.851	-86.37	-33.80	-108.73	-80.850	-21.364	13.524	-0.56271	0.46982	-0.48563	0.47607	30.5	13111	100
2025-3-27 14:55:47.893	WT901BLE68-01(48591DE3C19B)	-0.567	-0.998	0.295	-11.658	-57.251	34.851	-86.90	-33.13	-107.90	-62.132	-31.360	8.232	-0.56271	0.46982	-0.48563	0.47607	30.5	13111	100
2025-3-27 14:55:47.893	WT901BLE68-01(48591DE3C19B)	-0.567	-1.108	0.332	-6.409	-64.392	62.500	-87.40	-32.32	-107.05	-62.132	-31.360	8.232	-0.56271	0.46982	-0.48563	0.47607	30.5	13111	100
2025-3-27 14:55:47.893	WT901BLE68-01(48591DE3C19B)	-0.473	-1.108	0.332	-6.409	-64.392	62.500	-87.87	-31.37	-106.17	-62.132	-31.360	8.232	-0.56271	0.46982	-0.48563	0.47607	30.5	13111	100
2025-3-27 14:55:47.919	WT901BLE68-01(48591DE3C19B)	-0.473	-1.023	0.314	8.484	-65.735	92.651	-88.24	-30.27	-105.30	-62.132	-31.360	8.232	-0.56271	0.46982	-0.48563	0.47607	30.5	13111	100
2025-3-27 14:55:47.919	WT901BLE68-01(48591DE3C19B)	-0.360	-1.023	0.314	8.484	-65.735	92.651	-88.52	-29.02	-104.45	-62.132	-31.360	8.232	-0.56271	0.46982	-0.48563	0.47607	30.5	13111	100
2025-3-27 14:55:47.920	WT901BLE68-01(48591DE3C19B)	-0.360	-0.970	0.269	7.568	-57.251	131.409	-88.73	-27.39	-103.70	-62.132	-31.360	8.232	-0.56271	0.46982	-0.48563	0.47607	30.5	13111	100
2025-3-27 14:55:47.920	WT901BLE68-01(48591DE3C19B)	-0.353	-0.970	0.269	7.568	-57.251	131.409	-88.91	-25.78	-102.97	-62.132	-31.360	8.232	-0.31094	0.54968	-0.43506	0.64169	30.5	13111	100
2025-3-27 14:55:47.979	WT901BLE68-01(48591DE3C19B)	-0.353	-1.126	0.250	7.935	-47.363	168.213	-89.02	-23.81	-102.37	-62.132	-31.360	8.232	-0.31094	0.54968	-0.43506	0.64169	30.5	13111	100
2025-3-27 14:55:47.979	WT901BLE68-01(48591DE3C19B)	-0.387	-1.126	0.250	7.935	-47.363	168.213	-89.10	-21.85	-101.77	-62.132	-31.360	8.232	-0.31094	0.54968	-0.43506	0.64169	30.5	13111	100
2025-3-27 14:55:47.979	WT901BLE68-01(48591DE3C19B)	-0.387	-1.311	0.215	12.878	-54.810	199.463	-89.15	-19.59	-101.11	-62.132	-31.360	8.232	-0.31094	0.54968	-0.43506	0.64169	30.5	13111	100
2025-3-27 14:55:47.979	WT901BLE68-01(48591DE3C19B)	-0.366	-1.311	0.215	12.878	-54.810	199.463	-89.17	-17.36	-100.45	-62.132	-31.360	8.232	-0.31094	0.54968	-0.43506	0.64169	30.5	13111	100
2025-3-27 14:55:48.9	WT901BLE68-01(48591DE3C19B)	-0.366	-1.522	0.138	15.503	-70.801	224.243	-89.18	-14.90	-99.62	-62.132	-31.360	8.232	-0.31094	0.54968	-0.43506	0.64169	30.5	13111	100
2025-3-27 14:55:48.9	WT901BLE68-01(48591DE3C19B)	-0.346	-1.522	0.138	15.503	-70.801	224.243	-89.16	-12.46	-98.81	-62.132	-31.360	8.232	-0.31094	0.54968	-0.43506	0.64169	30.5	13111	100
2025-3-27 14:55:48.9	WT901BLE68-01(48591DE3C19B)	-0.346	-1.721	0.031	24.658	-87.463	240.723	-89.06	-9.88	-97.82	-62.132	-31.360	8.232	-0.31094	0.54968	-0.43506	0.64169	30.5	13111	100
2025-3-27 14:55:48.9	WT901BLE68-01(48591DE3C19B)	-0.351	-1.721	0.031	24.658	-87.463	240.723	-88.92	-7.32	-96.84	-62.132	-31.360	8.232	-0.31094	0.54968	-0.43506	0.64169	30.5	13111	100
2025-3-27 14:55:48.39	WT901BLE68-01(48591DE3C19B)	-0.351	-1.832	0.004	35.583	-108.398	250.244	-88.66	-4.70	-95.64	-62.132	-31.360	8.232	-0.31094	0.54968	-0.43506	0.64169	30.5	13111	100
2025-3-27 14:55:48.39	WT901BLE68-01(48591DE3C19B)	-0.310	-1.832	0.004	35.583	-108.398	250.244	-88.36	-2.11	-94.43	-62.132	-31.360	8.232	-0.31094	0.54968	-0.43506	0.64169	30.5	13111	100
2025-3-27 14:55:48.39	WT901BLE68-01(48591DE3C19B)	-0.310	-1.938	0.044	42.175	-130.981	254.456	-87.94	0.49	-92.99	-62.132	-31.360	8.232	-0.31094	0.54968	-0.43506	0.64169	30.5	13111	100
2025-3-27 14:55:48.39	WT901BLE68-01(48591DE3C19B)	-0.189	-1.938	0.044	42.175	-130.981	254.456	-87.46	3.05	-91.54	-62.132	-31.360	8.232	-0.31094	0.54968	-0.43506	0.64169	30.5	13111	100
2025-3-27 14:55:48.99	WT901BLE68-01(48591DE3C19B)	-0.189	-2.010	0.060	58.899	-139.160	257.813	-86.75	5.62	-89.97	-62.132	-31.360	8.232	-0.31094	0.54968	-0.43506	0.64169	30.5	13111	100
2025-3-27 14:55:48.100	WT901BLE68-01(48591DE3C19B)	-0.094	-2.010	0.060	58.899	-139.160	257.813	-85.97	8.14	-88.38	-62.132	-31.360	8.232	-0.31094	0.54968	-0.43506	0.64169	30.5	13111	100
2025-3-27 14:55:48.100	WT901BLE68-01(48591DE3C19B)	-0.094	-1.786	0.080	79.285	-130.066	257.813	-84.94	10.61	-86.84	-62.132	-31.360	8.232	-0.31094	0.54968	-0.43506	0.64169	30.5	13111	100
2025-3-27 14:55:48.100	WT901BLE68-01(48591DE3C19B)	-0.108	-1.786	0.080	79.285	-130.066	257.813	-83.83	13.05	-85.24	-62.132	-31.360	8.232	-0.31094	0.54968	-0.43506	0.64169	30.5	13111	100
2025-3-27 14:55:48.129	WT901BLE68-01(48591DE3C19B)	-0.108	-1.558	0.088	74.402	-111.694	255.310	-82.74	15.42	-83.79	-73.598	-28.322	9.898	-0.31094	0.54968	-0.43506	0.64169	30.5	13111	100
2025-3-27 14:55:48.129	WT901BLE68-01(48591DE3C19B)	-0.150	-1.558	0.088	74.402	-111.694	255.310	-81.59	17.76	-82.28	-73.598	-28.322	9.898	-0.31094	0.54968	-0.43506	0.64169	30.5	13111	100
2025-3-27 14:55:48.129	WT901BLE68-01(48591DE3C19B)	-0.150	-1.524	0.087	63.477	-93.506	245.239	-80.55	19.97	-80.91	-73.598	-28.322	9.898	-0.31094	0.54968	-0.43506	0.64169	30.5	13111	100
2025-3-27 14:55:48.129	WT901BLE68-01(48591DE3C19B)	-0.193	-1.524	0.087	63.477	-93.506	245.239	-79.43	22.15	-79.49	-73.598	-28.322	9.898	-0.31094	0.54968	-0.43506	0.64169	30.5	13111	100
