time	DeviceName	AccX(g)	AccY(g)	AccZ(g)	AsX(°/s)	AsY(°/s)	AsZ(°/s)	AngleX(°)	AngleY(°)	AngleZ(°)	HX(uT)	HY(uT)	HZ(uT)	Q0()	Q1()	Q2()	Q3()	Temperature(°C)	Version()	Battery level(%)
2025-3-27 15:13:41.252	WT901BLE68-01(48591DE3C19B)	-0.155	-0.956	0.226	-0.793	0.977	-1.343	-77.76	8.75	-36.30	-67.522	-14.014	92.022	0.75333	-0.57562	0.25183	-0.19394	31.3	13111	100
2025-3-27 15:13:41.252	WT901BLE68-01(48591DE3C19B)	-0.155	-0.964	0.228	-0.549	1.709	-1.404	-77.76	8.74	-36.31	-67.522	-14.014	92.022	0.75241	-0.57617	0.25140	-0.19641	31.3	13111	100
2025-3-27 15:13:41.252	WT901BLE68-01(48591DE3C19B)	-0.157	-0.964	0.228	-0.549	1.709	-1.404	-77.76	8.73	-36.33	-67.522	-14.014	92.022	0.75241	-0.57617	0.25140	-0.19641	31.3	13111	100
2025-3-27 15:13:41.252	WT901BLE68-01(48591DE3C19B)	-0.157	-0.957	0.229	-0.244	1.160	-1.282	-77.76	8.72	-36.34	-67.522	-14.014	92.022	0.75241	-0.57617	0.25140	-0.19641	31.3	13111	100
2025-3-27 15:13:41.253	WT901BLE68-01(48591DE3C19B)	-0.160	-0.957	0.229	-0.244	1.160	-1.282	-77.76	8.71	-36.34	-67.522	-14.014	92.022	0.75241	-0.57617	0.25140	-0.19641	31.3	13111	100
2025-3-27 15:13:41.253	WT901BLE68-01(48591DE3C19B)	-0.160	-0.965	0.226	-0.916	0.793	-0.977	-77.76	8.71	-36.35	-67.522	-14.014	92.022	0.75241	-0.57617	0.25140	-0.19641	31.3	13111	100
2025-3-27 15:13:41.253	WT901BLE68-01(48591DE3C19B)	-0.162	-0.965	0.226	-0.916	0.793	-0.977	-77.77	8.70	-36.35	-67.522	-14.014	92.022	0.75241	-0.57617	0.25140	-0.19641	31.3	13111	100
2025-3-27 15:13:41.253	WT901BLE68-01(48591DE3C19B)	-0.162	-0.971	0.226	-0.610	0.366	-0.671	-77.77	8.70	-36.35	-67.522	-14.014	92.022	0.75241	-0.57617	0.25140	-0.19641	31.3	13111	100
2025-3-27 15:13:41.283	WT901BLE68-01(48591DE3C19B)	-0.158	-0.971	0.226	-0.610	0.366	-0.671	-77.77	8.69	-36.35	-67.522	-14.014	92.022	0.75241	-0.57617	0.25140	-0.19641	31.3	13111	100
2025-3-27 15:13:41.283	WT901BLE68-01(48591DE3C19B)	-0.158	-0.968	0.228	-0.610	0.183	-0.183	-77.77	8.69	-36.35	-67.522	-14.014	92.022	0.75241	-0.57617	0.25140	-0.19641	31.3	13111	100
2025-3-27 15:13:41.283	WT901BLE68-01(48591DE3C19B)	-0.154	-0.968	0.228	-0.610	0.183	-0.183	-77.77	8.69	-36.34	-67.522	-14.014	92.022	0.75241	-0.57617	0.25140	-0.19641	31.3	13111	100
2025-3-27 15:13:41.284	WT901BLE68-01(48591DE3C19B)	-0.154	-0.963	0.228	-0.183	1.038	0.366	-77.77	8.70	-36.35	-67.522	-14.014	92.022	0.75241	-0.57617	0.25140	-0.19641	31.3	13111	100
2025-3-27 15:13:41.372	WT901BLE68-01(48591DE3C19B)	-0.153	-0.963	0.228	-0.183	1.038	0.366	-77.76	8.71	-36.35	-67.522	-14.014	92.022	0.75241	-0.57617	0.25140	-0.19641	31.3	13111	100
2025-3-27 15:13:41.373	WT901BLE68-01(48591DE3C19B)	-0.153	-0.953	0.228	-0.122	2.075	0.732	-77.76	8.72	-36.36	-67.522	-14.014	92.022	0.75241	-0.57617	0.25140	-0.19641	31.3	13111	100
2025-3-27 15:13:41.373	WT901BLE68-01(48591DE3C19B)	-0.151	-0.953	0.228	-0.122	2.075	0.732	-77.76	8.73	-36.38	-67.522	-14.014	92.022	0.75241	-0.57617	0.25140	-0.19641	31.3	13111	100
2025-3-27 15:13:41.373	WT901BLE68-01(48591DE3C19B)	-0.151	-0.950	0.230	-0.183	2.380	0.671	-77.76	8.75	-36.40	-67.522	-14.014	92.022	0.75241	-0.57617	0.25140	-0.19641	31.3	13111	100
2025-3-27 15:13:41.373	WT901BLE68-01(48591DE3C19B)	-0.155	-0.950	0.230	-0.183	2.380	0.671	-77.76	8.76	-36.41	-67.522	-14.014	92.022	0.75241	-0.57617	0.25140	-0.19641	31.3	13111	100
2025-3-27 15:13:41.373	WT901BLE68-01(48591DE3C19B)	-0.155	-0.957	0.231	-0.061	2.197	0.427	-77.75	8.77	-36.43	-67.522	-14.014	92.022	0.75241	-0.57617	0.25140	-0.19641	31.3	13111	100
2025-3-27 15:13:41.373	WT901BLE68-01(48591DE3C19B)	-0.150	-0.957	0.231	-0.061	2.197	0.427	-77.75	8.78	-36.44	-67.522	-14.014	92.022	0.75241	-0.57617	0.25140	-0.19641	31.3	13111	100
2025-3-27 15:13:41.373	WT901BLE68-01(48591DE3C19B)	-0.150	-0.954	0.228	0.305	1.404	0.000	-77.74	8.78	-36.45	-67.522	-14.014	92.022	0.75241	-0.57617	0.25140	-0.19641	31.3	13111	100
2025-3-27 15:13:41.431	WT901BLE68-01(48591DE3C19B)	-0.150	-0.954	0.228	0.305	1.404	0.000	-77.73	8.78	-36.46	-67.522	-14.014	92.022	0.75241	-0.57617	0.25140	-0.19641	31.3	13111	100
2025-3-27 15:13:41.431	WT901BLE68-01(48591DE3C19B)	-0.150	-0.958	0.225	0.122	1.709	-0.305	-77.73	8.78	-36.47	-67.522	-14.014	92.022	0.75241	-0.57617	0.25140	-0.19641	31.3	13111	100
2025-3-27 15:13:41.432	WT901BLE68-01(48591DE3C19B)	-0.156	-0.958	0.225	0.122	1.709	-0.305	-77.72	8.79	-36.49	-67.914	-14.112	92.022	0.75241	-0.57617	0.25140	-0.19641	31.3	13111	100
2025-3-27 15:13:41.432	WT901BLE68-01(48591DE3C19B)	-0.156	-0.959	0.224	0.305	1.160	-0.305	-77.72	8.79	-36.49	-67.914	-14.112	92.022	0.75241	-0.57617	0.25140	-0.19641	31.3	13111	100
2025-3-27 15:13:41.491	WT901BLE68-01(48591DE3C19B)	-0.148	-0.959	0.224	0.305	1.160	-0.305	-77.71	8.79	-36.50	-67.914	-14.112	92.022	0.75241	-0.57617	0.25140	-0.19641	31.3	13111	100
2025-3-27 15:13:41.491	WT901BLE68-01(48591DE3C19B)	-0.148	-0.959	0.223	-0.244	1.038	-0.122	-77.71	8.79	-36.50	-67.914	-14.112	92.022	0.75241	-0.57617	0.25140	-0.19641	31.3	13111	100
2025-3-27 15:13:41.491	WT901BLE68-01(48591DE3C19B)	-0.159	-0.959	0.223	-0.244	1.038	-0.122	-77.71	8.79	-36.51	-67.914	-14.112	92.022	0.75241	-0.57617	0.25140	-0.19641	31.3	13111	100
2025-3-27 15:13:41.491	WT901BLE68-01(48591DE3C19B)	-0.159	-0.967	0.223	-0.305	1.160	0.061	-77.70	8.79	-36.51	-67.914	-14.112	92.022	0.75241	-0.57617	0.25140	-0.19641	31.3	13111	100
2025-3-27 15:13:41.492	WT901BLE68-01(48591DE3C19B)	-0.157	-0.967	0.223	-0.305	1.160	0.061	-77.70	8.79	-36.52	-67.914	-14.112	92.022	0.75241	-0.57617	0.25140	-0.19641	31.3	13111	100
2025-3-27 15:13:41.492	WT901BLE68-01(48591DE3C19B)	-0.157	-0.964	0.222	-0.488	-0.488	0.000	-77.70	8.79	-36.51	-67.914	-14.112	92.022	0.75241	-0.57617	0.25140	-0.19641	31.3	13111	100
2025-3-27 15:13:41.492	WT901BLE68-01(48591DE3C19B)	-0.151	-0.964	0.222	-0.488	-0.488	0.000	-77.70	8.79	-36.50	-67.914	-14.112	92.022	0.75241	-0.57617	0.25140	-0.19641	31.3	13111	100
2025-3-27 15:13:41.493	WT901BLE68-01(48591DE3C19B)	-0.151	-0.963	0.224	-0.732	-0.732	0.000	-77.70	8.79	-36.49	-67.914	-14.112	92.022	0.75241	-0.57617	0.25140	-0.19641	31.3	13111	100
2025-3-27 15:13:41.522	WT901BLE68-01(48591DE3C19B)	-0.149	-0.963	0.224	-0.732	-0.732	0.000	-77.70	8.79	-36.47	-67.914	-14.112	92.022	0.75241	-0.57617	0.25140	-0.19641	31.3	13111	100
2025-3-27 15:13:41.522	WT901BLE68-01(48591DE3C19B)	-0.149	-0.962	0.225	-0.427	-0.305	-0.122	-77.70	8.79	-36.46	-67.914	-14.112	92.022	0.75241	-0.57617	0.25140	-0.19641	31.3	13111	100
2025-3-27 15:13:41.522	WT901BLE68-01(48591DE3C19B)	-0.147	-0.962	0.225	-0.427	-0.305	-0.122	-77.70	8.79	-36.45	-67.914	-14.112	92.022	0.75241	-0.57617	0.25140	-0.19641	31.3	13111	100
2025-3-27 15:13:41.522	WT901BLE68-01(48591DE3C19B)	-0.147	-0.956	0.224	-0.427	0.610	0.000	-77.70	8.79	-36.45	-67.914	-14.112	92.022	0.75241	-0.57617	0.25140	-0.19641	31.3	13111	100
2025-3-27 15:13:41.611	WT901BLE68-01(48591DE3C19B)	-0.152	-0.956	0.224	-0.427	0.610	0.000	-77.70	8.79	-36.46	-67.914	-14.112	92.022	0.75241	-0.57617	0.25140	-0.19641	31.3	13111	100
2025-3-27 15:13:41.611	WT901BLE68-01(48591DE3C19B)	-0.152	-0.955	0.224	-0.671	0.854	0.061	-77.70	8.79	-36.46	-67.914	-14.112	92.022	0.75241	-0.57617	0.25140	-0.19641	31.3	13111	100
2025-3-27 15:13:41.611	WT901BLE68-01(48591DE3C19B)	-0.154	-0.955	0.224	-0.671	0.854	0.061	-77.71	8.79	-36.46	-67.914	-14.112	92.022	0.75241	-0.57617	0.25140	-0.19641	31.3	13111	100
2025-3-27 15:13:41.611	WT901BLE68-01(48591DE3C19B)	-0.154	-0.961	0.226	-0.610	0.122	0.061	-77.71	8.80	-36.46	-67.914	-14.112	92.022	0.75241	-0.57617	0.25140	-0.19641	31.3	13111	100
2025-3-27 15:13:41.611	WT901BLE68-01(48591DE3C19B)	-0.152	-0.961	0.226	-0.610	0.122	0.061	-77.71	8.80	-36.45	-67.914	-14.112	92.022	0.75241	-0.57617	0.25140	-0.19641	31.3	13111	100
2025-3-27 15:13:41.611	WT901BLE68-01(48591DE3C19B)	-0.152	-0.960	0.225	-0.549	-0.488	0.000	-77.71	8.80	-36.45	-67.914	-14.112	92.022	0.75241	-0.57617	0.25140	-0.19641	31.3	13111	100
2025-3-27 15:13:41.611	WT901BLE68-01(48591DE3C19B)	-0.150	-0.960	0.225	-0.549	-0.488	0.000	-77.71	8.79	-36.44	-67.914	-14.112	92.022	0.75241	-0.57617	0.25140	-0.19641	31.3	13111	100
2025-3-27 15:13:41.611	WT901BLE68-01(48591DE3C19B)	-0.150	-0.964	0.223	-0.793	-0.427	-0.061	-77.71	8.79	-36.43	-67.914	-14.112	92.022	0.75253	-0.57544	0.25223	-0.19696	31.3	13111	100
2025-3-27 15:13:41.671	WT901BLE68-01(48591DE3C19B)	-0.147	-0.964	0.223	-0.793	-0.427	-0.061	-77.71	8.79	-36.42	-67.914	-14.112	92.022	0.75253	-0.57544	0.25223	-0.19696	31.3	13111	100
2025-3-27 15:13:41.672	WT901BLE68-01(48591DE3C19B)	-0.147	-0.965	0.226	-0.732	-0.366	-0.305	-77.71	8.79	-36.41	-67.914	-14.112	92.022	0.75253	-0.57544	0.25223	-0.19696	31.3	13111	100
2025-3-27 15:13:41.672	WT901BLE68-01(48591DE3C19B)	-0.152	-0.965	0.226	-0.732	-0.366	-0.305	-77.71	8.78	-36.40	-67.914	-14.112	92.022	0.75253	-0.57544	0.25223	-0.19696	31.3	13111	100
2025-3-27 15:13:41.672	WT901BLE68-01(48591DE3C19B)	-0.150	-0.963	0.228	-0.793	-0.061	-0.366	-77.71	8.78	-36.40	-67.914	-14.112	92.022	0.75253	-0.57544	0.25223	-0.19696	31.3	13111	100
2025-3-27 15:13:41.731	WT901BLE68-01(48591DE3C19B)	-0.150	-0.963	0.227	-0.793	-0.671	-0.427	-77.72	8.78	-36.39	-67.914	-14.112	92.022	0.75253	-0.57544	0.25223	-0.19696	31.3	13111	100
2025-3-27 15:13:41.732	WT901BLE68-01(48591DE3C19B)	-0.147	-0.963	0.227	-0.793	-0.671	-0.427	-77.72	8.77	-36.38	-67.914	-14.112	92.022	0.75253	-0.57544	0.25223	-0.19696	31.3	13111	100
2025-3-27 15:13:41.732	WT901BLE68-01(48591DE3C19B)	-0.147	-0.962	0.226	-0.610	-0.366	-0.244	-77.72	8.77	-36.37	-67.914	-14.112	92.022	0.75253	-0.57544	0.25223	-0.19696	31.3	13111	100
2025-3-27 15:13:41.732	WT901BLE68-01(48591DE3C19B)	-0.146	-0.962	0.226	-0.610	-0.366	-0.244	-77.72	8.76	-36.36	-67.914	-14.112	92.022	0.75253	-0.57544	0.25223	-0.19696	31.3	13111	100
2025-3-27 15:13:41.732	WT901BLE68-01(48591DE3C19B)	-0.146	-0.962	0.228	-0.305	-0.061	-0.061	-77.72	8.76	-36.35	-67.914	-14.112	92.022	0.75253	-0.57544	0.25223	-0.19696	31.3	13111	100
2025-3-27 15:13:41.733	WT901BLE68-01(48591DE3C19B)	-0.146	-0.962	0.228	-0.305	-0.061	-0.061	-77.72	8.76	-36.35	-67.914	-14.112	92.022	0.75253	-0.57544	0.25223	-0.19696	31.3	13111	100
2025-3-27 15:13:41.733	WT901BLE68-01(48591DE3C19B)	-0.146	-0.960	0.229	-0.305	0.305	0.000	-77.71	8.76	-36.35	-67.914	-14.112	92.022	0.75253	-0.57544	0.25223	-0.19696	31.3	13111	100
2025-3-27 15:13:41.733	WT901BLE68-01(48591DE3C19B)	-0.147	-0.960	0.229	-0.305	0.305	0.000	-77.71	8.76	-36.34	-67.914	-14.112	92.022	0.75253	-0.57544	0.25223	-0.19696	31.3	13111	100
2025-3-27 15:13:41.791	WT901BLE68-01(48591DE3C19B)	-0.147	-0.964	0.229	-0.244	0.183	-0.122	-77.71	8.76	-36.34	-67.914	-14.112	92.022	0.75253	-0.57544	0.25223	-0.19696	31.3	13111	100
2025-3-27 15:13:41.792	WT901BLE68-01(48591DE3C19B)	-0.141	-0.964	0.229	-0.244	0.183	-0.122	-77.71	8.75	-36.34	-67.914	-14.112	92.022	0.75253	-0.57544	0.25223	-0.19696	31.3	13111	100
2025-3-27 15:13:41.792	WT901BLE68-01(48591DE3C19B)	-0.141	-0.964	0.228	-0.122	-0.244	-0.366	-77.70	8.75	-36.34	-67.914	-14.112	92.022	0.75253	-0.57544	0.25223	-0.19696	31.3	13111	100
2025-3-27 15:13:41.792	WT901BLE68-01(48591DE3C19B)	-0.142	-0.964	0.228	-0.122	-0.244	-0.366	-77.70	8.75	-36.33	-67.914	-14.112	92.022	0.75253	-0.57544	0.25223	-0.19696	31.3	13111	100
2025-3-27 15:13:41.911	WT901BLE68-01(48591DE3C19B)	-0.142	-0.963	0.227	0.000	0.183	-0.732	-77.69	8.73	-36.33	-67.914	-14.112	92.022	0.75253	-0.57544	0.25223	-0.19696	31.3	13111	100
2025-3-27 15:13:41.911	WT901BLE68-01(48591DE3C19B)	-0.141	-0.963	0.227	0.000	0.183	-0.732	-77.68	8.73	-36.33	-67.914	-14.014	92.218	0.75253	-0.57544	0.25223	-0.19696	31.3	13111	100
2025-3-27 15:13:41.911	WT901BLE68-01(48591DE3C19B)	-0.141	-0.959	0.230	-0.183	-0.061	-1.099	-77.68	8.72	-36.33	-67.914	-14.014	92.218	0.75253	-0.57544	0.25223	-0.19696	31.3	13111	100
2025-3-27 15:13:41.911	WT901BLE68-01(48591DE3C19B)	-0.143	-0.959	0.230	-0.183	-0.061	-1.099	-77.68	8.71	-36.33	-67.914	-14.014	92.218	0.75253	-0.57544	0.25223	-0.19696	31.3	13111	100
2025-3-27 15:13:41.912	WT901BLE68-01(48591DE3C19B)	-0.143	-0.957	0.229	-0.183	-0.305	-1.343	-77.67	8.69	-36.32	-67.914	-14.014	92.218	0.75253	-0.57544	0.25223	-0.19696	31.3	13111	100
2025-3-27 15:13:41.913	WT901BLE68-01(48591DE3C19B)	-0.148	-0.957	0.229	-0.183	-0.305	-1.343	-77.67	8.67	-36.32	-67.914	-14.014	92.218	0.75253	-0.57544	0.25223	-0.19696	31.3	13111	100
2025-3-27 15:13:41.913	WT901BLE68-01(48591DE3C19B)	-0.148	-0.964	0.227	-0.488	-1.038	-1.587	-77.66	8.66	-36.31	-67.914	-14.014	92.218	0.75253	-0.57544	0.25223	-0.19696	31.3	13111	100
2025-3-27 15:13:41.913	WT901BLE68-01(48591DE3C19B)	-0.145	-0.964	0.227	-0.488	-1.038	-1.587	-77.66	8.64	-36.30	-67.914	-14.014	92.218	0.75253	-0.57544	0.25223	-0.19696	31.3	13111	100
2025-3-27 15:13:41.913	WT901BLE68-01(48591DE3C19B)	-0.145	-0.971	0.229	-0.244	-1.648	-1.892	-77.66	8.62	-36.28	-67.914	-14.014	92.218	0.75253	-0.57544	0.25223	-0.19696	31.3	13111	100
2025-3-27 15:13:41.913	WT901BLE68-01(48591DE3C19B)	-0.144	-0.971	0.229	-0.244	-1.648	-1.892	-77.65	8.59	-36.27	-67.914	-14.014	92.218	0.75253	-0.57544	0.25223	-0.19696	31.3	13111	100
2025-3-27 15:13:41.913	WT901BLE68-01(48591DE3C19B)	-0.144	-0.968	0.229	0.000	-1.831	-2.197	-77.65	8.57	-36.25	-67.914	-14.014	92.218	0.75253	-0.57544	0.25223	-0.19696	31.3	13111	100
2025-3-27 15:13:41.913	WT901BLE68-01(48591DE3C19B)	-0.141	-0.968	0.229	0.000	-1.831	-2.197	-77.64	8.54	-36.24	-67.914	-14.014	92.218	0.75253	-0.57544	0.25223	-0.19696	31.3	13111	100
2025-3-27 15:13:41.971	WT901BLE68-01(48591DE3C19B)	-0.141	-0.958	0.230	-0.061	-2.075	-2.563	-77.63	8.51	-36.22	-67.914	-14.014	92.218	0.75253	-0.57544	0.25223	-0.19696	31.3	13111	100
2025-3-27 15:13:41.972	WT901BLE68-01(48591DE3C19B)	-0.142	-0.958	0.230	-0.061	-2.075	-2.563	-77.62	8.48	-36.20	-67.914	-14.014	92.218	0.75253	-0.57544	0.25223	-0.19696	31.3	13111	100
2025-3-27 15:13:41.972	WT901BLE68-01(48591DE3C19B)	-0.142	-0.951	0.231	-0.244	-1.953	-3.113	-77.62	8.45	-36.18	-67.914	-14.014	92.218	0.75253	-0.57544	0.25223	-0.19696	31.3	13111	100
2025-3-27 15:13:41.972	WT901BLE68-01(48591DE3C19B)	-0.147	-0.951	0.231	-0.244	-1.953	-3.113	-77.61	8.42	-36.17	-67.914	-14.014	92.218	0.75253	-0.57544	0.25223	-0.19696	31.3	13111	100
2025-3-27 15:13:41.972	WT901BLE68-01(48591DE3C19B)	-0.147	-0.952	0.231	-0.549	-2.563	-3.601	-77.61	8.38	-36.15	-67.914	-14.014	92.218	0.75253	-0.57544	0.25223	-0.19696	31.3	13111	100
2025-3-27 15:13:41.972	WT901BLE68-01(48591DE3C19B)	-0.148	-0.952	0.231	-0.549	-2.563	-3.601	-77.60	8.33	-36.13	-67.914	-14.014	92.218	0.75253	-0.57544	0.25223	-0.19696	31.3	13111	100
2025-3-27 15:13:41.973	WT901BLE68-01(48591DE3C19B)	-0.148	-0.959	0.229	-0.488	-3.540	-3.906	-77.60	8.29	-36.11	-67.914	-14.014	92.218	0.75253	-0.57544	0.25223	-0.19696	31.3	13111	100
2025-3-27 15:13:41.973	WT901BLE68-01(48591DE3C19B)	-0.148	-0.959	0.229	-0.488	-3.540	-3.906	-77.60	8.25	-36.07	-67.914	-14.014	92.218	0.75253	-0.57544	0.25223	-0.19696	31.3	13111	100
2025-3-27 15:13:42.30	WT901BLE68-01(48591DE3C19B)	-0.148	-0.958	0.229	-0.549	-3.601	-3.845	-77.59	8.20	-36.05	-67.914	-14.014	92.218	0.75253	-0.57544	0.25223	-0.19696	31.3	13111	100
2025-3-27 15:13:42.31	WT901BLE68-01(48591DE3C19B)	-0.152	-0.958	0.229	-0.549	-3.601	-3.845	-77.59	8.16	-36.02	-67.914	-14.014	92.218	0.75311	-0.57721	0.24573	-0.19797	31.3	13111	100
2025-3-27 15:13:42.31	WT901BLE68-01(48591DE3C19B)	-0.152	-0.965	0.229	-0.916	-3.296	-3.540	-77.58	8.12	-35.99	-67.914	-14.014	92.218	0.75311	-0.57721	0.24573	-0.19797	31.3	13111	100
2025-3-27 15:13:42.31	WT901BLE68-01(48591DE3C19B)	-0.155	-0.965	0.229	-0.916	-3.296	-3.540	-77.58	8.07	-35.96	-67.914	-14.014	92.218	0.75311	-0.57721	0.24573	-0.19797	31.3	13111	100
2025-3-27 15:13:42.60	WT901BLE68-01(48591DE3C19B)	-0.155	-0.969	0.230	-0.549	-3.174	-3.235	-77.58	8.04	-35.94	-67.914	-14.014	92.218	0.75311	-0.57721	0.24573	-0.19797	31.3	13111	100
2025-3-27 15:13:42.60	WT901BLE68-01(48591DE3C19B)	-0.155	-0.969	0.230	-0.549	-3.174	-3.235	-77.57	8.00	-35.91	-67.914	-14.014	92.218	0.75311	-0.57721	0.24573	-0.19797	31.3	13111	100
2025-3-27 15:13:42.60	WT901BLE68-01(48591DE3C19B)	-0.155	-0.968	0.230	-0.854	-3.052	-2.930	-77.57	7.97	-35.88	-67.914	-14.014	92.218	0.75311	-0.57721	0.24573	-0.19797	31.3	13111	100
2025-3-27 15:13:42.60	WT901BLE68-01(48591DE3C19B)	-0.162	-0.968	0.230	-0.854	-3.052	-2.930	-77.57	7.94	-35.85	-67.914	-14.014	92.218	0.75311	-0.57721	0.24573	-0.19797	31.3	13111	100
2025-3-27 15:13:42.90	WT901BLE68-01(48591DE3C19B)	-0.162	-0.971	0.231	-0.671	-3.479	-2.747	-77.57	7.91	-35.83	-67.914	-14.014	92.218	0.75311	-0.57721	0.24573	-0.19797	31.3	13111	100
2025-3-27 15:13:42.90	WT901BLE68-01(48591DE3C19B)	-0.168	-0.971	0.231	-0.671	-3.479	-2.747	-77.57	7.88	-35.79	-67.914	-14.014	92.218	0.75311	-0.57721	0.24573	-0.19797	31.3	13111	100
2025-3-27 15:13:42.90	WT901BLE68-01(48591DE3C19B)	-0.168	-0.974	0.230	-0.854	-5.371	-2.747	-77.56	7.85	-35.76	-67.914	-14.014	92.218	0.75311	-0.57721	0.24573	-0.19797	31.3	13111	100
2025-3-27 15:13:42.90	WT901BLE68-01(48591DE3C19B)	-0.168	-0.974	0.230	-0.854	-5.371	-2.747	-77.56	7.82	-35.71	-67.914	-14.014	92.218	0.75311	-0.57721	0.24573	-0.19797	31.3	13111	100
2025-3-27 15:13:42.150	WT901BLE68-01(48591DE3C19B)	-0.168	-0.979	0.232	-1.343	-7.751	-2.869	-77.56	7.78	-35.65	-67.914	-14.014	92.218	0.75311	-0.57721	0.24573	-0.19797	31.3	13111	100
2025-3-27 15:13:42.150	WT901BLE68-01(48591DE3C19B)	-0.172	-0.979	0.232	-1.343	-7.751	-2.869	-77.56	7.75	-35.57	-67.914	-14.014	92.218	0.75311	-0.57721	0.24573	-0.19797	31.3	13111	100
2025-3-27 15:13:42.150	WT901BLE68-01(48591DE3C19B)	-0.172	-0.986	0.238	-1.038	-10.071	-3.113	-77.55	7.70	-35.49	-67.914	-14.014	92.218	0.75311	-0.57721	0.24573	-0.19797	31.3	13111	100
2025-3-27 15:13:42.150	WT901BLE68-01(48591DE3C19B)	-0.167	-0.986	0.238	-1.038	-10.071	-3.113	-77.54	7.66	-35.40	-67.914	-14.014	92.218	0.75311	-0.57721	0.24573	-0.19797	31.3	13111	100
2025-3-27 15:13:42.181	WT901BLE68-01(48591DE3C19B)	-0.167	-0.978	0.244	-0.610	-11.719	-3.296	-77.53	7.61	-35.29	-67.914	-14.014	92.218	0.75311	-0.57721	0.24573	-0.19797	31.3	13111	100
2025-3-27 15:13:42.181	WT901BLE68-01(48591DE3C19B)	-0.156	-0.978	0.244	-0.610	-11.719	-3.296	-77.51	7.56	-35.18	-67.914	-14.014	92.218	0.75311	-0.57721	0.24573	-0.19797	31.3	13111	100
2025-3-27 15:13:42.181	WT901BLE68-01(48591DE3C19B)	-0.156	-0.969	0.239	-0.122	-12.207	-3.540	-77.49	7.51	-35.07	-67.914	-14.014	92.218	0.75311	-0.57721	0.24573	-0.19797	31.3	13111	100
2025-3-27 15:13:42.181	WT901BLE68-01(48591DE3C19B)	-0.152	-0.969	0.239	-0.122	-12.207	-3.540	-77.48	7.46	-34.95	-67.914	-14.014	92.218	0.75311	-0.57721	0.24573	-0.19797	31.3	13111	100
2025-3-27 15:13:42.210	WT901BLE68-01(48591DE3C19B)	-0.152	-0.968	0.238	-0.305	-11.658	-3.906	-77.46	7.40	-34.85	-67.914	-14.014	92.218	0.75311	-0.57721	0.24573	-0.19797	31.3	13111	100
2025-3-27 15:13:42.210	WT901BLE68-01(48591DE3C19B)	-0.167	-0.968	0.238	-0.305	-11.658	-3.906	-77.44	7.36	-34.74	-67.914	-14.014	92.218	0.75311	-0.57721	0.24573	-0.19797	31.3	13111	100
2025-3-27 15:13:42.210	WT901BLE68-01(48591DE3C19B)	-0.167	-0.981	0.250	0.488	-12.451	-4.456	-77.42	7.29	-34.63	-66.542	-14.210	92.218	0.75311	-0.57721	0.24573	-0.19797	31.3	13111	100
2025-3-27 15:13:42.210	WT901BLE68-01(48591DE3C19B)	-0.163	-0.981	0.250	0.488	-12.451	-4.456	-77.39	7.23	-34.52	-66.542	-14.210	92.218	0.75311	-0.57721	0.24573	-0.19797	31.3	13111	100
2025-3-27 15:13:42.271	WT901BLE68-01(48591DE3C19B)	-0.163	-0.971	0.250	1.343	-15.137	-4.639	-77.35	7.17	-34.39	-66.542	-14.210	92.218	0.75311	-0.57721	0.24573	-0.19797	31.3	13111	100
2025-3-27 15:13:42.271	WT901BLE68-01(48591DE3C19B)	-0.151	-0.971	0.250	1.343	-15.137	-4.639	-77.31	7.10	-34.25	-66.542	-14.210	92.218	0.75311	-0.57721	0.24573	-0.19797	31.3	13111	100
2025-3-27 15:13:42.271	WT901BLE68-01(48591DE3C19B)	-0.151	-0.964	0.242	1.770	-15.503	-4.150	-77.27	7.04	-34.11	-66.542	-14.210	92.218	0.75311	-0.57721	0.24573	-0.19797	31.3	13111	100
2025-3-27 15:13:42.271	WT901BLE68-01(48591DE3C19B)	-0.146	-0.964	0.242	1.770	-15.503	-4.150	-77.23	6.98	-33.97	-66.542	-14.210	92.218	0.75311	-0.57721	0.24573	-0.19797	31.3	13111	100
2025-3-27 15:13:42.301	WT901BLE68-01(48591DE3C19B)	-0.146	-0.961	0.235	2.258	-13.977	-2.991	-77.18	6.93	-33.84	-66.542	-14.210	92.218	0.75311	-0.57721	0.24573	-0.19797	31.3	13111	100
2025-3-27 15:13:42.301	WT901BLE68-01(48591DE3C19B)	-0.148	-0.961	0.235	2.258	-13.977	-2.991	-77.14	6.88	-33.72	-66.542	-14.210	92.218	0.75311	-0.57721	0.24573	-0.19797	31.3	13111	100
2025-3-27 15:13:42.301	WT901BLE68-01(48591DE3C19B)	-0.148	-0.966	0.234	1.587	-12.329	-1.404	-77.10	6.85	-33.61	-66.542	-14.210	92.218	0.75311	-0.57721	0.24573	-0.19797	31.3	13111	100
2025-3-27 15:13:42.301	WT901BLE68-01(48591DE3C19B)	-0.159	-0.966	0.234	1.587	-12.329	-1.404	-77.07	6.82	-33.50	-66.542	-14.210	92.218	0.75311	-0.57721	0.24573	-0.19797	31.3	13111	100
2025-3-27 15:13:42.330	WT901BLE68-01(48591DE3C19B)	-0.159	-0.973	0.235	1.343	-12.573	0.244	-77.04	6.81	-33.38	-66.542	-14.210	92.218	0.75311	-0.57721	0.24573	-0.19797	31.3	13111	100
2025-3-27 15:13:42.330	WT901BLE68-01(48591DE3C19B)	-0.159	-0.973	0.235	1.343	-12.573	0.244	-77.00	6.80	-33.26	-66.542	-14.210	92.218	0.75311	-0.57721	0.24573	-0.19797	31.3	13111	100
2025-3-27 15:13:42.330	WT901BLE68-01(48591DE3C19B)	-0.159	-0.970	0.231	0.671	-14.648	1.465	-76.97	6.79	-33.12	-66.542	-14.210	92.218	0.75311	-0.57721	0.24573	-0.19797	31.3	13111	100
2025-3-27 15:13:42.331	WT901BLE68-01(48591DE3C19B)	-0.159	-0.970	0.231	0.671	-14.648	1.465	-76.94	6.78	-32.98	-66.542	-14.210	92.218	0.75311	-0.57721	0.24573	-0.19797	31.3	13111	100
2025-3-27 15:13:42.390	WT901BLE68-01(48591DE3C19B)	-0.159	-0.976	0.228	0.183	-16.296	2.625	-76.92	6.78	-32.82	-66.542	-14.210	92.218	0.75311	-0.57721	0.24573	-0.19797	31.3	13111	100
2025-3-27 15:13:42.390	WT901BLE68-01(48591DE3C19B)	-0.158	-0.976	0.228	0.183	-16.296	2.625	-76.89	6.78	-32.67	-66.542	-14.210	92.218	0.75311	-0.57721	0.24573	-0.19797	31.3	13111	100
2025-3-27 15:13:42.390	WT901BLE68-01(48591DE3C19B)	-0.158	-0.980	0.227	-0.488	-17.944	4.272	-76.87	6.80	-32.49	-66.542	-14.210	92.218	0.75311	-0.57721	0.24573	-0.19797	31.3	13111	100
2025-3-27 15:13:42.390	WT901BLE68-01(48591DE3C19B)	-0.156	-0.980	0.227	-0.488	-17.944	4.272	-76.85	6.81	-32.31	-66.542	-14.210	92.218	0.75311	-0.57721	0.24573	-0.19797	31.3	13111	100
2025-3-27 15:13:42.420	WT901BLE68-01(48591DE3C19B)	-0.156	-0.984	0.227	-1.099	-19.043	6.653	-76.84	6.84	-32.12	-66.542	-14.210	92.218	0.75311	-0.57721	0.24573	-0.19797	31.3	13111	100
2025-3-27 15:13:42.420	WT901BLE68-01(48591DE3C19B)	-0.137	-0.984	0.227	-1.099	-19.043	6.653	-76.82	6.88	-31.93	-66.542	-14.210	92.218	0.75311	-0.57721	0.24573	-0.19797	31.3	13111	100
2025-3-27 15:13:42.420	WT901BLE68-01(48591DE3C19B)	-0.137	-0.965	0.218	-1.343	-19.653	8.789	-76.81	6.93	-31.73	-66.542	-14.210	92.218	0.75311	-0.57721	0.24573	-0.19797	31.3	13111	100
2025-3-27 15:13:42.420	WT901BLE68-01(48591DE3C19B)	-0.125	-0.965	0.218	-1.343	-19.653	8.789	-76.80	6.98	-31.53	-66.542	-14.210	92.218	0.76321	-0.58380	0.21411	-0.17529	31.3	13111	100
2025-3-27 15:13:42.450	WT901BLE68-01(48591DE3C19B)	-0.125	-0.948	0.211	-3.296	-18.005	10.010	-76.81	7.05	-31.34	-66.542	-14.210	92.218	0.76321	-0.58380	0.21411	-0.17529	31.3	13111	100
2025-3-27 15:13:42.451	WT901BLE68-01(48591DE3C19B)	-0.128	-0.948	0.211	-3.296	-18.005	10.010	-76.82	7.11	-31.16	-66.542	-14.210	92.218	0.76321	-0.58380	0.21411	-0.17529	31.3	13111	100
2025-3-27 15:13:42.451	WT901BLE68-01(48591DE3C19B)	-0.128	-0.964	0.219	-4.456	-17.029	10.315	-76.83	7.19	-30.98	-66.542	-14.210	92.218	0.76321	-0.58380	0.21411	-0.17529	31.3	13111	100
2025-3-27 15:13:42.451	WT901BLE68-01(48591DE3C19B)	-0.137	-0.964	0.219	-4.456	-17.029	10.315	-76.85	7.25	-30.81	-66.542	-14.210	92.218	0.76321	-0.58380	0.21411	-0.17529	31.3	13111	100
2025-3-27 15:13:42.510	WT901BLE68-01(48591DE3C19B)	-0.137	-0.957	0.225	-4.517	-18.372	10.742	-76.88	7.32	-30.62	-66.542	-14.210	92.218	0.76321	-0.58380	0.21411	-0.17529	31.3	13111	100
2025-3-27 15:13:42.510	WT901BLE68-01(48591DE3C19B)	-0.139	-0.957	0.225	-4.517	-18.372	10.742	-76.89	7.39	-30.43	-66.542	-14.210	92.218	0.76321	-0.58380	0.21411	-0.17529	31.3	13111	100
2025-3-27 15:13:42.510	WT901BLE68-01(48591DE3C19B)	-0.139	-0.958	0.225	-6.897	-20.630	11.658	-76.93	7.46	-30.22	-66.542	-14.210	92.218	0.76321	-0.58380	0.21411	-0.17529	31.3	13111	100
2025-3-27 15:13:42.510	WT901BLE68-01(48591DE3C19B)	-0.127	-0.958	0.225	-6.897	-20.630	11.658	-76.97	7.53	-30.01	-66.542	-14.210	92.218	0.76321	-0.58380	0.21411	-0.17529	31.3	13111	100
2025-3-27 15:13:42.540	WT901BLE68-01(48591DE3C19B)	-0.127	-0.994	0.218	-8.545	-22.034	12.878	-77.03	7.61	-29.78	-66.542	-14.210	92.218	0.76321	-0.58380	0.21411	-0.17529	31.3	13111	100
2025-3-27 15:13:42.540	WT901BLE68-01(48591DE3C19B)	-0.092	-0.994	0.218	-8.545	-22.034	12.878	-77.07	7.68	-29.55	-66.542	-14.210	92.218	0.76321	-0.58380	0.21411	-0.17529	31.3	13111	100
2025-3-27 15:13:42.541	WT901BLE68-01(48591DE3C19B)	-0.092	-1.007	0.213	-8.789	-20.447	13.306	-77.13	7.77	-29.34	-66.542	-14.210	92.218	0.76321	-0.58380	0.21411	-0.17529	31.3	13111	100
2025-3-27 15:13:42.541	WT901BLE68-01(48591DE3C19B)	-0.062	-1.007	0.213	-8.789	-20.447	13.306	-77.19	7.86	-29.14	-66.542	-14.210	92.218	0.76321	-0.58380	0.21411	-0.17529	31.3	13111	100
2025-3-27 15:13:42.571	WT901BLE68-01(48591DE3C19B)	-0.062	-0.989	0.213	-9.094	-13.733	12.512	-77.26	7.94	-29.00	-66.542	-14.210	92.218	0.76321	-0.58380	0.21411	-0.17529	31.3	13111	100
2025-3-27 15:13:42.572	WT901BLE68-01(48591DE3C19B)	-0.068	-0.989	0.213	-9.094	-13.733	12.512	-77.33	8.03	-28.86	-66.542	-14.210	92.218	0.76321	-0.58380	0.21411	-0.17529	31.3	13111	100
2025-3-27 15:13:42.572	WT901BLE68-01(48591DE3C19B)	-0.068	-0.995	0.224	-9.705	-9.827	10.193	-77.40	8.09	-28.76	-66.542	-14.210	92.218	0.76321	-0.58380	0.21411	-0.17529	31.3	13111	100
2025-3-27 15:13:42.572	WT901BLE68-01(48591DE3C19B)	-0.060	-0.995	0.224	-9.705	-9.827	10.193	-77.49	8.16	-28.67	-66.542	-14.210	92.218	0.76321	-0.58380	0.21411	-0.17529	31.3	13111	100
2025-3-27 15:13:42.630	WT901BLE68-01(48591DE3C19B)	-0.031	-0.966	0.227	-9.460	-10.925	6.836	-77.56	8.19	-28.58	-66.542	-14.210	92.218	0.76321	-0.58380	0.21411	-0.17529	31.3	13111	100
2025-3-27 15:13:42.631	WT901BLE68-01(48591DE3C19B)	-0.031	-0.951	0.217	-11.841	-14.404	1.465	-77.65	8.19	-28.47	-60.074	-14.994	92.316	0.76321	-0.58380	0.21411	-0.17529	31.3	13111	100
2025-3-27 15:13:42.631	WT901BLE68-01(48591DE3C19B)	-0.002	-0.951	0.217	-11.841	-14.404	1.465	-77.74	8.15	-28.35	-60.074	-14.994	92.316	0.76321	-0.58380	0.21411	-0.17529	31.3	13111	100
2025-3-27 15:13:42.631	WT901BLE68-01(48591DE3C19B)	-0.002	-0.977	0.215	-13.245	-15.869	-4.822	-77.84	8.09	-28.23	-60.074	-14.994	92.316	0.76321	-0.58380	0.21411	-0.17529	31.3	13111	100
2025-3-27 15:13:42.661	WT901BLE68-01(48591DE3C19B)	0.029	-0.977	0.215	-13.245	-15.869	-4.822	-77.95	7.99	-28.12	-60.074	-14.994	92.316	0.76321	-0.58380	0.21411	-0.17529	31.3	13111	100
2025-3-27 15:13:42.661	WT901BLE68-01(48591DE3C19B)	0.029	-0.991	0.211	-13.672	-15.442	-11.597	-78.06	7.85	-28.02	-60.074	-14.994	92.316	0.76321	-0.58380	0.21411	-0.17529	31.3	13111	100
2025-3-27 15:13:42.661	WT901BLE68-01(48591DE3C19B)	0.062	-0.991	0.211	-13.672	-15.442	-11.597	-78.18	7.68	-27.92	-60.074	-14.994	92.316	0.76321	-0.58380	0.21411	-0.17529	31.3	13111	100
2025-3-27 15:13:42.661	WT901BLE68-01(48591DE3C19B)	0.062	-0.976	0.212	-13.000	-12.146	-19.592	-78.30	7.47	-27.84	-60.074	-14.994	92.316	0.76321	-0.58380	0.21411	-0.17529	31.3	13111	100
2025-3-27 15:13:42.690	WT901BLE68-01(48591DE3C19B)	0.088	-0.976	0.212	-13.000	-12.146	-19.592	-78.41	7.22	-27.80	-60.074	-14.994	92.316	0.76321	-0.58380	0.21411	-0.17529	31.3	13111	100
2025-3-27 15:13:42.690	WT901BLE68-01(48591DE3C19B)	0.088	-0.975	0.207	-16.357	-7.019	-28.198	-78.55	6.94	-27.79	-60.074	-14.994	92.316	0.76321	-0.58380	0.21411	-0.17529	31.3	13111	100
2025-3-27 15:13:42.690	WT901BLE68-01(48591DE3C19B)	0.089	-0.975	0.207	-16.357	-7.019	-28.198	-78.71	6.61	-27.81	-60.074	-14.994	92.316	0.76321	-0.58380	0.21411	-0.17529	31.3	13111	100
2025-3-27 15:13:42.691	WT901BLE68-01(48591DE3C19B)	0.089	-1.000	0.212	-16.724	-1.831	-37.537	-78.87	6.25	-27.87	-60.074	-14.994	92.316	0.76321	-0.58380	0.21411	-0.17529	31.3	13111	100
2025-3-27 15:13:42.751	WT901BLE68-01(48591DE3C19B)	0.100	-1.000	0.212	-16.724	-1.831	-37.537	-79.04	5.83	-27.96	-60.074	-14.994	92.316	0.76321	-0.58380	0.21411	-0.17529	31.3	13111	100
2025-3-27 15:13:42.751	WT901BLE68-01(48591DE3C19B)	0.100	-1.003	0.221	-16.907	2.014	-46.021	-79.21	5.39	-28.08	-60.074	-14.994	92.316	0.76321	-0.58380	0.21411	-0.17529	31.3	13111	100
2025-3-27 15:13:42.751	WT901BLE68-01(48591DE3C19B)	0.089	-1.003	0.221	-16.907	2.014	-46.021	-79.38	4.91	-28.22	-60.074	-14.994	92.316	0.76321	-0.58380	0.21411	-0.17529	31.3	13111	100
2025-3-27 15:13:42.751	WT901BLE68-01(48591DE3C19B)	0.089	-1.004	0.240	-16.968	3.601	-55.115	-79.55	4.37	-28.38	-60.074	-14.994	92.316	0.76321	-0.58380	0.21411	-0.17529	31.3	13111	100
2025-3-27 15:13:42.781	WT901BLE68-01(48591DE3C19B)	0.063	-1.004	0.240	-16.968	3.601	-55.115	-79.71	3.80	-28.55	-60.074	-14.994	92.316	0.76321	-0.58380	0.21411	-0.17529	31.3	13111	100
2025-3-27 15:13:42.781	WT901BLE68-01(48591DE3C19B)	0.063	-1.032	0.247	-16.357	0.916	-64.392	-79.88	3.19	-28.72	-60.074	-14.994	92.316	0.76321	-0.58380	0.21411	-0.17529	31.3	13111	100
2025-3-27 15:13:42.782	WT901BLE68-01(48591DE3C19B)	0.040	-1.032	0.247	-16.357	0.916	-64.392	-80.03	2.52	-28.88	-60.074	-14.994	92.316	0.76321	-0.58380	0.21411	-0.17529	31.3	13111	100
2025-3-27 15:13:42.782	WT901BLE68-01(48591DE3C19B)	0.040	-1.053	0.251	-13.550	-2.563	-72.205	-80.17	1.82	-29.02	-60.074	-14.994	92.316	0.76321	-0.58380	0.21411	-0.17529	31.3	13111	100
2025-3-27 15:13:42.810	WT901BLE68-01(48591DE3C19B)	0.025	-1.053	0.251	-13.550	-2.563	-72.205	-80.29	1.08	-29.15	-60.074	-14.994	92.316	0.76321	-0.58380	0.21411	-0.17529	31.3	13111	100
2025-3-27 15:13:42.810	WT901BLE68-01(48591DE3C19B)	0.025	-1.087	0.270	-10.010	-5.798	-78.308	-80.39	0.31	-29.27	-60.074	-14.994	92.316	0.76321	-0.58380	0.21411	-0.17529	31.3	13111	100
2025-3-27 15:13:42.810	WT901BLE68-01(48591DE3C19B)	0.030	-1.087	0.270	-10.010	-5.798	-78.308	-80.47	-0.47	-29.38	-60.074	-14.994	92.316	0.73770	-0.62558	0.16074	-0.19620	31.3	13111	100
2025-3-27 15:13:42.810	WT901BLE68-01(48591DE3C19B)	0.030	-1.104	0.291	-4.883	-5.371	-81.726	-80.52	-1.28	-29.49	-60.074	-14.994	92.316	0.73770	-0.62558	0.16074	-0.19620	31.3	13111	100
2025-3-27 15:13:42.870	WT901BLE68-01(48591DE3C19B)	0.037	-1.104	0.291	-4.883	-5.371	-81.726	-80.54	-2.10	-29.61	-60.074	-14.994	92.316	0.73770	-0.62558	0.16074	-0.19620	31.3	13111	100
2025-3-27 15:13:42.870	WT901BLE68-01(48591DE3C19B)	0.037	-1.088	0.292	0.488	-0.671	-83.191	-80.54	-2.91	-29.75	-60.074	-14.994	92.316	0.73770	-0.62558	0.16074	-0.19620	31.3	13111	100
2025-3-27 15:13:42.870	WT901BLE68-01(48591DE3C19B)	0.046	-1.088	0.292	0.488	-0.671	-83.191	-80.50	-3.72	-29.91	-60.074	-14.994	92.316	0.73770	-0.62558	0.16074	-0.19620	31.3	13111	100
2025-3-27 15:13:42.870	WT901BLE68-01(48591DE3C19B)	0.046	-1.067	0.294	3.662	9.949	-82.947	-80.44	-4.52	-30.13	-60.074	-14.994	92.316	0.73770	-0.62558	0.16074	-0.19620	31.3	13111	100
2025-3-27 15:13:42.900	WT901BLE68-01(48591DE3C19B)	0.025	-1.067	0.294	3.662	9.949	-82.947	-80.35	-5.31	-30.40	-60.074	-14.994	92.316	0.73770	-0.62558	0.16074	-0.19620	31.3	13111	100
2025-3-27 15:13:42.900	WT901BLE68-01(48591DE3C19B)	0.025	-1.098	0.310	6.592	22.888	-81.055	-80.24	-6.06	-30.73	-60.074	-14.994	92.316	0.73770	-0.62558	0.16074	-0.19620	31.3	13111	100
2025-3-27 15:13:42.900	WT901BLE68-01(48591DE3C19B)	0.001	-1.098	0.310	6.592	22.888	-81.055	-80.11	-6.80	-31.13	-60.074	-14.994	92.316	0.73770	-0.62558	0.16074	-0.19620	31.3	13111	100
2025-3-27 15:13:42.900	WT901BLE68-01(48591DE3C19B)	0.001	-1.105	0.319	12.695	34.302	-77.881	-79.93	-7.50	-31.58	-60.074	-14.994	92.316	0.73770	-0.62558	0.16074	-0.19620	31.3	13111	100
2025-3-27 15:13:42.960	WT901BLE68-01(48591DE3C19B)	-0.027	-1.105	0.319	12.695	34.302	-77.881	-79.71	-8.17	-32.09	-60.074	-14.994	92.316	0.73770	-0.62558	0.16074	-0.19620	31.3	13111	100
2025-3-27 15:13:42.960	WT901BLE68-01(48591DE3C19B)	-0.027	-1.068	0.329	17.944	43.457	-73.120	-79.45	-8.80	-32.63	-60.074	-14.994	92.316	0.73770	-0.62558	0.16074	-0.19620	31.3	13111	100
2025-3-27 15:13:42.961	WT901BLE68-01(48591DE3C19B)	-0.062	-1.068	0.329	17.944	43.457	-73.120	-79.16	-9.39	-33.23	-60.074	-14.994	92.316	0.73770	-0.62558	0.16074	-0.19620	31.3	13111	100
2025-3-27 15:13:42.961	WT901BLE68-01(48591DE3C19B)	-0.062	-1.037	0.331	20.874	48.401	-67.749	-78.84	-9.94	-33.84	-60.074	-14.994	92.316	0.73770	-0.62558	0.16074	-0.19620	31.3	13111	100
2025-3-27 15:13:43.21	WT901BLE68-01(48591DE3C19B)	-0.072	-1.037	0.331	20.874	48.401	-67.749	-78.49	-10.45	-34.48	-60.074	-14.994	92.316	0.73770	-0.62558	0.16074	-0.19620	31.3	13111	100
2025-3-27 15:13:43.21	WT901BLE68-01(48591DE3C19B)	-0.072	-1.027	0.304	22.827	49.805	-61.340	-78.13	-10.92	-35.11	-60.074	-14.994	92.316	0.73770	-0.62558	0.16074	-0.19620	31.3	13111	100
2025-3-27 15:13:43.21	WT901BLE68-01(48591DE3C19B)	-0.073	-1.027	0.304	22.827	49.805	-61.340	-77.76	-11.35	-35.75	-60.074	-14.994	92.316	0.73770	-0.62558	0.16074	-0.19620	31.3	13111	100
2025-3-27 15:13:43.22	WT901BLE68-01(48591DE3C19B)	-0.073	-1.012	0.244	24.170	45.654	-54.443	-77.39	-11.73	-36.36	-60.074	-14.994	92.316	0.73770	-0.62558	0.16074	-0.19620	31.3	13111	100
2025-3-27 15:13:43.22	WT901BLE68-01(48591DE3C19B)	-0.120	-1.012	0.244	24.170	45.654	-54.443	-77.01	-12.09	-36.94	-60.074	-14.994	92.316	0.73770	-0.62558	0.16074	-0.19620	31.3	13111	100
2025-3-27 15:13:43.23	WT901BLE68-01(48591DE3C19B)	-0.120	-0.997	0.278	30.090	36.804	-44.312	-76.61	-12.39	-37.47	-60.074	-14.994	92.316	0.73770	-0.62558	0.16074	-0.19620	31.3	13111	100
2025-3-27 15:13:43.23	WT901BLE68-01(48591DE3C19B)	-0.159	-0.997	0.278	30.090	36.804	-44.312	-76.20	-12.65	-37.94	-60.074	-14.994	92.316	0.73770	-0.62558	0.16074	-0.19620	31.3	13111	100
2025-3-27 15:13:43.23	WT901BLE68-01(48591DE3C19B)	-0.159	-0.974	0.314	31.982	30.029	-30.640	-75.78	-12.84	-38.36	-66.934	-15.484	92.610	0.73770	-0.62558	0.16074	-0.19620	31.3	13111	100
2025-3-27 15:13:43.52	WT901BLE68-01(48591DE3C19B)	-0.193	-0.974	0.314	31.982	30.029	-30.640	-75.38	-12.97	-38.73	-66.934	-15.484	92.610	0.73770	-0.62558	0.16074	-0.19620	31.3	13111	100
2025-3-27 15:13:43.53	WT901BLE68-01(48591DE3C19B)	-0.193	-1.014	0.385	32.837	34.546	-14.771	-74.96	-13.01	-39.11	-66.934	-15.484	92.610	0.73770	-0.62558	0.16074	-0.19620	31.3	13111	100
2025-3-27 15:13:43.53	WT901BLE68-01(48591DE3C19B)	-0.221	-1.014	0.385	32.837	34.546	-14.771	-74.54	-12.96	-39.48	-66.934	-15.484	92.610	0.73770	-0.62558	0.16074	-0.19620	31.3	13111	100
2025-3-27 15:13:43.53	WT901BLE68-01(48591DE3C19B)	-0.221	-1.032	0.413	33.508	43.518	1.892	-74.11	-12.72	-39.89	-66.934	-15.484	92.610	0.73770	-0.62558	0.16074	-0.19620	31.3	13111	100
2025-3-27 15:13:43.111	WT901BLE68-01(48591DE3C19B)	-0.286	-1.032	0.413	33.508	43.518	1.892	-73.67	-12.47	-40.30	-66.934	-15.484	92.610	0.73770	-0.62558	0.16074	-0.19620	31.3	13111	100
2025-3-27 15:13:43.111	WT901BLE68-01(48591DE3C19B)	-0.286	-1.023	0.428	32.104	45.654	17.578	-73.26	-12.06	-40.68	-66.934	-15.484	92.610	0.73770	-0.62558	0.16074	-0.19620	31.3	13111	100
2025-3-27 15:13:43.111	WT901BLE68-01(48591DE3C19B)	-0.357	-1.023	0.428	32.104	45.654	17.578	-72.86	-11.65	-41.06	-66.934	-15.484	92.610	0.73770	-0.62558	0.16074	-0.19620	31.3	13111	100
2025-3-27 15:13:43.111	WT901BLE68-01(48591DE3C19B)	-0.357	-1.002	0.422	30.823	32.227	31.311	-72.50	-11.13	-41.25	-66.934	-15.484	92.610	0.73770	-0.62558	0.16074	-0.19620	31.3	13111	100
2025-3-27 15:13:43.141	WT901BLE68-01(48591DE3C19B)	-0.464	-1.002	0.422	30.823	32.227	31.311	-72.14	-10.62	-41.45	-66.934	-15.484	92.610	0.73770	-0.62558	0.16074	-0.19620	31.3	13111	100
2025-3-27 15:13:43.141	WT901BLE68-01(48591DE3C19B)	-0.464	-1.013	0.437	30.701	13.916	45.776	-71.83	-10.01	-41.41	-66.934	-15.484	92.610	0.73770	-0.62558	0.16074	-0.19620	31.3	13111	100
2025-3-27 15:13:43.141	WT901BLE68-01(48591DE3C19B)	-0.550	-1.013	0.437	30.701	13.916	45.776	-71.53	-9.40	-41.37	-66.934	-15.484	92.610	0.73770	-0.62558	0.16074	-0.19620	31.3	13111	100
2025-3-27 15:13:43.142	WT901BLE68-01(48591DE3C19B)	-0.550	-1.048	0.402	30.273	-7.202	63.599	-71.26	-8.70	-41.07	-66.934	-15.484	92.610	0.73770	-0.62558	0.16074	-0.19620	31.3	13111	100
2025-3-27 15:13:43.171	WT901BLE68-01(48591DE3C19B)	-0.543	-1.048	0.402	30.273	-7.202	63.599	-71.00	-7.98	-40.76	-66.934	-15.484	92.610	0.73770	-0.62558	0.16074	-0.19620	31.3	13111	100
2025-3-27 15:13:43.171	WT901BLE68-01(48591DE3C19B)	-0.543	-1.097	0.363	29.663	-25.696	84.473	-70.77	-7.12	-40.20	-66.934	-15.484	92.610	0.73770	-0.62558	0.16074	-0.19620	31.3	13111	100
2025-3-27 15:13:43.171	WT901BLE68-01(48591DE3C19B)	-0.593	-1.097	0.363	29.663	-25.696	84.473	-70.54	-6.27	-39.64	-66.934	-15.484	92.610	0.73770	-0.62558	0.16074	-0.19620	31.3	13111	100
2025-3-27 15:13:43.171	WT901BLE68-01(48591DE3C19B)	-0.593	-1.189	0.374	28.320	-39.917	105.286	-70.34	-5.28	-38.88	-66.934	-15.484	92.610	0.73770	-0.62558	0.16074	-0.19620	31.3	13111	100
2025-3-27 15:13:43.231	WT901BLE68-01(48591DE3C19B)	-1.155	-1.189	0.374	28.320	-39.917	105.286	-70.13	-4.28	-38.12	-66.934	-15.484	92.610	0.73770	-0.62558	0.16074	-0.19620	31.3	13111	100
2025-3-27 15:13:43.231	WT901BLE68-01(48591DE3C19B)	-4.621	-2.594	0.742	30.518	-56.091	122.375	-69.90	-3.19	-37.14	-66.934	-15.484	92.610	0.77158	-0.55005	0.16071	-0.27603	31.3	13111	100
2025-3-27 15:13:43.232	WT901BLE68-01(48591DE3C19B)	-0.448	-10.376	2.969	30.518	-56.091	122.375	-69.65	-2.10	-36.16	-66.934	-15.484	92.610	0.77158	-0.55005	0.16071	-0.27603	31.3	13111	100
2025-3-27 15:13:43.232	WT901BLE68-01(48591DE3C19B)	-0.448	-1.269	0.406	41.443	-60.669	133.240	-69.29	-0.93	-35.09	-66.934	-15.484	92.610	0.77158	-0.55005	0.16071	-0.27603	31.3	13111	100
2025-3-27 15:13:43.260	WT901BLE68-01(48591DE3C19B)	-0.357	-1.269	0.406	41.443	-60.669	133.240	-68.91	0.21	-34.03	-66.934	-15.484	92.610	0.77158	-0.55005	0.16071	-0.27603	31.3	13111	100
2025-3-27 15:13:43.260	WT901BLE68-01(48591DE3C19B)	-0.357	-1.037	0.385	48.035	-50.232	137.146	-68.43	1.43	-33.04	-66.934	-15.484	92.610	0.77158	-0.55005	0.16071	-0.27603	31.3	13111	100
2025-3-27 15:13:43.260	WT901BLE68-01(48591DE3C19B)	-0.238	-1.037	0.385	48.035	-50.232	137.146	-67.94	2.62	-32.05	-66.934	-15.484	92.610	0.77158	-0.55005	0.16071	-0.27603	31.3	13111	100
2025-3-27 15:13:43.260	WT901BLE68-01(48591DE3C19B)	-0.238	-0.856	0.319	40.833	-32.654	128.479	-67.52	3.78	-31.25	-66.934	-15.484	92.610	0.77158	-0.55005	0.16071	-0.27603	31.3	13111	100
2025-3-27 15:13:43.321	WT901BLE68-01(48591DE3C19B)	-0.173	-0.856	0.319	40.833	-32.654	128.479	-67.08	4.94	-30.45	-66.934	-15.484	92.610	0.77158	-0.55005	0.16071	-0.27603	31.3	13111	100
2025-3-27 15:13:43.321	WT901BLE68-01(48591DE3C19B)	-0.173	-0.720	0.291	33.997	-5.249	110.168	-66.72	6.01	-29.97	-66.934	-15.484	92.610	0.77158	-0.55005	0.16071	-0.27603	31.3	13111	100
2025-3-27 15:13:43.321	WT901BLE68-01(48591DE3C19B)	-0.172	-0.720	0.291	33.997	-5.249	110.168	-66.35	7.08	-29.48	-66.934	-15.484	92.610	0.77158	-0.55005	0.16071	-0.27603	31.3	13111	100
2025-3-27 15:13:43.321	WT901BLE68-01(48591DE3C19B)	-0.172	-0.526	0.269	29.663	22.278	89.294	-66.07	8.05	-29.32	-66.934	-15.484	92.610	0.77158	-0.55005	0.16071	-0.27603	31.3	13111	100
2025-3-27 15:13:43.381	WT901BLE68-01(48591DE3C19B)	-0.183	-0.526	0.269	29.663	22.278	89.294	-65.78	9.02	-29.16	-66.934	-15.484	92.610	0.77158	-0.55005	0.16071	-0.27603	31.3	13111	100
2025-3-27 15:13:43.381	WT901BLE68-01(48591DE3C19B)	-0.183	-0.294	0.216	19.714	37.659	70.435	-65.61	9.87	-29.21	-66.934	-15.484	92.610	0.77158	-0.55005	0.16071	-0.27603	31.3	13111	100
2025-3-27 15:13:43.381	WT901BLE68-01(48591DE3C19B)	-0.172	-0.294	0.216	19.714	37.659	70.435	-65.45	10.72	-29.27	-66.934	-15.484	92.610	0.77158	-0.55005	0.16071	-0.27603	31.3	13111	100
2025-3-27 15:13:43.382	WT901BLE68-01(48591DE3C19B)	-0.172	-0.103	0.159	7.690	52.185	53.406	-65.44	11.48	-29.52	-66.934	-15.484	92.610	0.77158	-0.55005	0.16071	-0.27603	31.3	13111	100
2025-3-27 15:13:43.382	WT901BLE68-01(48591DE3C19B)	-0.214	-0.103	0.159	7.690	52.185	53.406	-65.43	12.23	-29.78	-66.934	-15.484	92.610	0.77158	-0.55005	0.16071	-0.27603	31.3	13111	100
2025-3-27 15:13:43.382	WT901BLE68-01(48591DE3C19B)	-0.214	0.074	0.116	4.272	70.557	37.842	-65.51	12.92	-30.26	-66.934	-15.484	92.610	0.77158	-0.55005	0.16071	-0.27603	31.3	13111	100
2025-3-27 15:13:43.382	WT901BLE68-01(48591DE3C19B)	-0.254	0.074	0.116	4.272	70.557	37.842	-65.59	13.61	-30.75	-66.934	-15.484	92.610	0.77158	-0.55005	0.16071	-0.27603	31.3	13111	100
2025-3-27 15:13:43.382	WT901BLE68-01(48591DE3C19B)	-0.254	0.253	0.076	2.502	74.463	23.987	-65.71	14.21	-31.32	-66.934	-15.484	92.610	0.77158	-0.55005	0.16071	-0.27603	31.3	13111	100
2025-3-27 15:13:43.441	WT901BLE68-01(48591DE3C19B)	-0.334	0.253	0.076	2.502	74.463	23.987	-65.82	14.81	-31.88	-66.934	-15.484	92.610	0.77158	-0.55005	0.16071	-0.27603	31.3	13111	100
2025-3-27 15:13:43.441	WT901BLE68-01(48591DE3C19B)	-0.334	0.408	0.043	-14.465	57.556	18.921	-66.07	15.32	-32.28	-62.818	-4.704	87.024	0.77158	-0.55005	0.16071	-0.27603	31.3	13111	100
2025-3-27 15:13:43.441	WT901BLE68-01(48591DE3C19B)	-0.465	0.408	0.043	-14.465	57.556	18.921	-66.32	15.86	-32.66	-62.818	-4.704	87.024	0.77158	-0.55005	0.16071	-0.27603	31.3	13111	100
2025-3-27 15:13:43.442	WT901BLE68-01(48591DE3C19B)	-0.465	0.354	-0.000	-59.265	33.813	36.804	-66.93	16.50	-32.72	-62.818	-4.704	87.024	0.77158	-0.55005	0.16071	-0.27603	31.3	13111	100
2025-3-27 15:13:43.470	WT901BLE68-01(48591DE3C19B)	-0.654	0.354	-0.000	-59.265	33.813	36.804	-67.55	17.18	-32.73	-62.818	-4.704	87.024	0.77158	-0.55005	0.16071	-0.27603	31.3	13111	100
2025-3-27 15:13:43.470	WT901BLE68-01(48591DE3C19B)	-0.654	0.115	-0.024	-74.646	19.836	54.260	-68.30	18.00	-32.52	-62.818	-4.704	87.024	0.77158	-0.55005	0.16071	-0.27603	31.3	13111	100
2025-3-27 15:13:43.470	WT901BLE68-01(48591DE3C19B)	-0.988	0.115	-0.024	-74.646	19.836	54.260	-69.07	18.85	-32.29	-62.818	-4.704	87.024	0.77158	-0.55005	0.16071	-0.27603	31.3	13111	100
2025-3-27 15:13:43.470	WT901BLE68-01(48591DE3C19B)	-0.988	-0.055	-0.063	-83.435	13.916	88.379	-69.91	20.01	-31.89	-62.818	-4.704	87.024	0.77158	-0.55005	0.16071	-0.27603	31.3	13111	100
2025-3-27 15:13:43.508	WT901BLE68-01(48591DE3C19B)	-1.330	-0.055	-0.063	-83.435	13.916	88.379	-70.76	21.18	-31.50	-62.818	-4.704	87.024	0.77158	-0.55005	0.16071	-0.27603	31.3	13111	100
2025-3-27 15:13:43.508	WT901BLE68-01(48591DE3C19B)	-1.330	-0.315	-0.096	-103.271	16.541	140.991	-71.78	22.85	-30.98	-62.818	-4.704	87.024	0.77158	-0.55005	0.16071	-0.27603	31.3	13111	100
2025-3-27 15:13:43.508	WT901BLE68-01(48591DE3C19B)	-1.681	-0.315	-0.096	-103.271	16.541	140.991	-72.80	24.52	-30.50	-62.818	-4.704	87.024	0.77158	-0.55005	0.16071	-0.27603	31.3	13111	100
2025-3-27 15:13:43.508	WT901BLE68-01(48591DE3C19B)	-2.136	-0.626	-0.256	-119.446	13.733	208.923	-73.89	26.83	-29.81	-62.818	-4.704	87.024	0.77158	-0.55005	0.16071	-0.27603	31.3	13111	100
2025-3-27 15:13:43.561	WT901BLE68-01(48591DE3C19B)	-2.136	-0.902	-0.461	-149.658	34.668	278.076	-75.14	29.48	-29.20	-62.818	-4.704	87.024	0.77158	-0.55005	0.16071	-0.27603	31.3	13111	100
2025-3-27 15:13:43.561	WT901BLE68-01(48591DE3C19B)	-2.997	-0.902	-0.461	-149.658	34.668	278.076	-76.55	32.48	-28.67	-62.818	-4.704	87.024	0.77158	-0.55005	0.16071	-0.27603	31.3	13111	100
2025-3-27 15:13:43.561	WT901BLE68-01(48591DE3C19B)	-2.997	-1.412	-0.600	-187.744	112.732	353.271	-78.40	35.91	-28.61	-62.818	-4.704	87.024	0.77158	-0.55005	0.16071	-0.27603	31.3	13111	100
2025-3-27 15:13:43.561	WT901BLE68-01(48591DE3C19B)	-4.046	-1.412	-0.600	-187.744	112.732	353.271	-80.77	39.76	-29.11	-62.818	-4.704	87.024	0.77158	-0.55005	0.16071	-0.27603	31.3	13111	100
2025-3-27 15:13:43.592	WT901BLE68-01(48591DE3C19B)	-4.046	-2.271	-0.763	-240.356	130.798	421.204	-83.65	43.90	-29.94	-62.818	-4.704	87.024	0.77158	-0.55005	0.16071	-0.27603	31.3	13111	100
2025-3-27 15:13:43.592	WT901BLE68-01(48591DE3C19B)	-4.618	-2.271	-0.763	-240.356	130.798	421.204	-87.17	48.30	-31.27	-62.818	-4.704	87.024	0.77158	-0.55005	0.16071	-0.27603	31.3	13111	100
2025-3-27 15:13:43.592	WT901BLE68-01(48591DE3C19B)	-4.618	-3.114	-0.735	-234.070	-4.150	450.500	-90.28	52.75	-32.04	-62.818	-4.704	87.024	0.77158	-0.55005	0.16071	-0.27603	31.3	13111	100
2025-3-27 15:13:43.592	WT901BLE68-01(48591DE3C19B)	-3.569	-3.114	-0.735	-234.070	-4.150	450.500	-92.82	57.28	-32.11	-62.818	-4.704	87.024	0.77158	-0.55005	0.16071	-0.27603	31.3	13111	100
2025-3-27 15:13:43.620	WT901BLE68-01(48591DE3C19B)	-3.569	-3.003	-0.614	-188.477	-168.701	466.492	-93.99	61.91	-30.88	-62.818	-4.704	87.024	0.77158	-0.55005	0.16071	-0.27603	31.3	13111	100
2025-3-27 15:13:43.621	WT901BLE68-01(48591DE3C19B)	-2.360	-3.003	-0.614	-188.477	-168.701	466.492	-93.04	66.63	-27.61	-62.818	-4.704	87.024	0.77158	-0.55005	0.16071	-0.27603	31.3	13111	100
2025-3-27 15:13:43.621	WT901BLE68-01(48591DE3C19B)	-2.360	-2.660	-0.482	-158.508	-216.492	482.544	-90.19	71.36	-22.60	-62.818	-4.704	87.024	0.63831	-0.47470	0.51804	0.31421	31.3	13111	100
2025-3-27 15:13:43.621	WT901BLE68-01(48591DE3C19B)	-1.377	-2.660	-0.482	-158.508	-216.492	482.544	-83.67	75.95	-14.05	-62.818	-4.704	87.024	0.63831	-0.47470	0.51804	0.31421	31.3	13111	100
2025-3-27 15:13:43.681	WT901BLE68-01(48591DE3C19B)	-1.377	-2.413	-0.410	-127.747	-227.905	459.656	-70.32	79.94	1.13	-62.818	-4.704	87.024	0.63831	-0.47470	0.51804	0.31421	31.3	13111	100
2025-3-27 15:13:43.681	WT901BLE68-01(48591DE3C19B)	-0.358	-2.413	-0.410	-127.747	-227.905	459.656	-43.73	82.50	29.40	-62.818	-4.704	87.024	0.63831	-0.47470	0.51804	0.31421	31.3	13111	100
2025-3-27 15:13:43.681	WT901BLE68-01(48591DE3C19B)	-0.358	-2.075	-0.350	-94.604	-180.725	401.855	-9.70	82.57	64.90	-62.818	-4.704	87.024	0.63831	-0.47470	0.51804	0.31421	31.3	13111	100
2025-3-27 15:13:43.681	WT901BLE68-01(48591DE3C19B)	0.324	-2.075	-0.350	-94.604	-180.725	401.855	14.49	80.64	90.37	-62.818	-4.704	87.024	0.63831	-0.47470	0.51804	0.31421	31.3	13111	100
2025-3-27 15:13:43.710	WT901BLE68-01(48591DE3C19B)	0.324	-1.486	-0.230	-61.523	-60.730	321.289	28.21	78.37	105.19	-62.818	-4.704	87.024	0.63831	-0.47470	0.51804	0.31421	31.3	13111	100
2025-3-27 15:13:43.710	WT901BLE68-01(48591DE3C19B)	0.353	-1.486	-0.230	-61.523	-60.730	321.289	37.21	76.37	115.09	-62.818	-4.704	87.024	0.63831	-0.47470	0.51804	0.31421	31.3	13111	100
2025-3-27 15:13:43.710	WT901BLE68-01(48591DE3C19B)	0.353	-0.801	-0.059	-77.148	69.580	234.497	44.05	74.90	122.93	-62.818	-4.704	87.024	0.63831	-0.47470	0.51804	0.31421	31.3	13111	100
2025-3-27 15:13:43.710	WT901BLE68-01(48591DE3C19B)	-0.195	-0.801	-0.059	-77.148	69.580	234.497	50.20	73.99	130.16	-62.818	-4.704	87.024	0.63831	-0.47470	0.51804	0.31421	31.3	13111	100
2025-3-27 15:13:43.741	WT901BLE68-01(48591DE3C19B)	-0.195	-0.608	0.079	-134.094	102.478	143.921	54.87	73.37	136.15	-62.818	-4.704	87.024	0.63831	-0.47470	0.51804	0.31421	31.3	13111	100
2025-3-27 15:13:43.741	WT901BLE68-01(48591DE3C19B)	-0.358	-0.608	0.079	-134.094	102.478	143.921	58.56	73.11	141.42	-62.818	-4.704	87.024	0.63831	-0.47470	0.51804	0.31421	31.3	13111	100
2025-3-27 15:13:43.741	WT901BLE68-01(48591DE3C19B)	-0.358	-0.655	0.190	-149.780	26.489	47.791	60.19	73.00	144.61	-62.818	-4.704	87.024	0.63831	-0.47470	0.51804	0.31421	31.3	13111	100
2025-3-27 15:13:43.741	WT901BLE68-01(48591DE3C19B)	-0.031	-0.655	0.190	-149.780	26.489	47.791	59.87	73.11	145.83	-62.818	-4.704	87.024	0.63831	-0.47470	0.51804	0.31421	31.3	13111	100
2025-3-27 15:13:43.807	WT901BLE68-01(48591DE3C19B)	-0.031	-0.460	0.151	-152.893	-59.082	-22.461	57.73	73.30	145.15	-62.818	-4.704	87.024	0.63831	-0.47470	0.51804	0.31421	31.3	13111	100
2025-3-27 15:13:43.807	WT901BLE68-01(48591DE3C19B)	0.443	-0.460	0.151	-152.893	-59.082	-22.461	53.70	73.54	142.50	-62.818	-4.704	87.024	0.63831	-0.47470	0.51804	0.31421	31.3	13111	100
2025-3-27 15:13:43.808	WT901BLE68-01(48591DE3C19B)	0.443	-0.423	0.099	-186.035	-96.497	-76.599	48.35	73.81	138.65	-62.818	-4.704	87.024	0.63831	-0.47470	0.51804	0.31421	31.3	13111	100
2025-3-27 15:13:43.808	WT901BLE68-01(48591DE3C19B)	0.842	-0.423	0.099	-186.035	-96.497	-76.599	41.59	74.04	133.50	-62.818	-4.704	87.024	0.63831	-0.47470	0.51804	0.31421	31.3	13111	100
2025-3-27 15:13:43.833	WT901BLE68-01(48591DE3C19B)	0.842	-0.739	-0.047	-220.581	-105.286	-116.333	33.91	74.20	127.56	-62.818	-4.704	87.024	0.63831	-0.47470	0.51804	0.31421	31.3	13111	100
2025-3-27 15:13:43.833	WT901BLE68-01(48591DE3C19B)	1.167	-0.739	-0.047	-220.581	-105.286	-116.333	25.33	74.21	120.86	-62.818	-4.704	87.024	0.63831	-0.47470	0.51804	0.31421	31.3	13111	100
2025-3-27 15:13:43.833	WT901BLE68-01(48591DE3C19B)	1.167	-1.036	-0.158	-209.534	-82.153	-144.348	16.56	74.14	113.88	-62.818	-4.704	87.024	0.63831	-0.47470	0.51804	0.31421	31.3	13111	100
2025-3-27 15:13:43.833	WT901BLE68-01(48591DE3C19B)	1.195	-1.036	-0.158	-209.534	-82.153	-144.348	7.60	73.95	106.64	-51.940	-54.978	78.694	0.63831	-0.47470	0.51804	0.31421	31.3	13111	100
2025-3-27 15:13:43.862	WT901BLE68-01(48591DE3C19B)	1.195	-1.005	-0.035	-163.757	-26.611	-162.231	-1.15	73.78	99.36	-51.940	-54.978	78.694	0.63831	-0.47470	0.51804	0.31421	31.3	13111	100
2025-3-27 15:13:43.863	WT901BLE68-01(48591DE3C19B)	0.982	-1.005	-0.035	-163.757	-26.611	-162.231	-9.87	73.59	91.89	-51.940	-54.978	78.694	0.63831	-0.47470	0.51804	0.31421	31.3	13111	100
2025-3-27 15:13:43.863	WT901BLE68-01(48591DE3C19B)	0.982	-1.042	0.125	-152.405	7.690	-206.787	-19.12	73.20	83.79	-51.940	-54.978	78.694	0.63831	-0.47470	0.51804	0.31421	31.3	13111	100
2025-3-27 15:13:43.863	WT901BLE68-01(48591DE3C19B)	0.891	-1.042	0.125	-152.405	7.690	-206.787	-28.65	72.52	75.32	-51.940	-54.978	78.694	0.63831	-0.47470	0.51804	0.31421	31.3	13111	100
2025-3-27 15:13:43.921	WT901BLE68-01(48591DE3C19B)	0.891	-1.417	0.242	-124.084	27.222	-269.592	-38.13	71.35	66.71	-51.940	-54.978	78.694	0.63831	-0.47470	0.51804	0.31421	31.3	13111	100
2025-3-27 15:13:43.921	WT901BLE68-01(48591DE3C19B)	0.750	-1.417	0.242	-124.084	27.222	-269.592	-47.04	69.64	58.49	-51.940	-54.978	78.694	0.63831	-0.47470	0.51804	0.31421	31.3	13111	100
2025-3-27 15:13:43.921	WT901BLE68-01(48591DE3C19B)	0.750	-1.704	0.124	-54.932	85.693	-324.280	-55.13	67.52	50.66	-51.940	-54.978	78.694	0.63831	-0.47470	0.51804	0.31421	31.3	13111	100
2025-3-27 15:13:43.921	WT901BLE68-01(48591DE3C19B)	0.600	-1.704	0.124	-54.932	85.693	-324.280	-62.28	64.97	43.37	-51.940	-54.978	78.694	0.63831	-0.47470	0.51804	0.31421	31.3	13111	100
2025-3-27 15:13:43.950	WT901BLE68-01(48591DE3C19B)	0.600	-1.746	-0.084	32.410	147.217	-380.798	-68.35	61.98	36.62	-51.940	-54.978	78.694	0.63831	-0.47470	0.51804	0.31421	31.3	13111	100
2025-3-27 15:13:43.950	WT901BLE68-01(48591DE3C19B)	0.246	-1.746	-0.084	32.410	147.217	-380.798	-73.36	58.57	30.40	-51.940	-54.978	78.694	0.63831	-0.47470	0.51804	0.31421	31.3	13111	100
2025-3-27 15:13:43.950	WT901BLE68-01(48591DE3C19B)	0.246	-1.872	-0.206	81.482	193.542	-420.898	-77.39	54.81	24.83	-51.940	-54.978	78.694	0.63831	-0.47470	0.51804	0.31421	31.3	13111	100
2025-3-27 15:13:43.950	WT901BLE68-01(48591DE3C19B)	-1.339	-1.872	-0.206	81.482	193.542	-420.898	-80.56	50.73	19.76	-51.940	-54.978	78.694	0.63831	-0.47470	0.51804	0.31421	31.3	13111	100
2025-3-27 15:13:43.983	WT901BLE68-01(48591DE3C19B)	-1.339	-2.685	0.220	127.441	199.097	-412.170	-82.73	46.58	15.43	-51.940	-54.978	78.694	0.63831	-0.47470	0.51804	0.31421	31.3	13111	100
2025-3-27 15:13:43.983	WT901BLE68-01(48591DE3C19B)	-3.966	-2.685	0.220	127.441	199.097	-412.170	-84.09	42.45	11.61	-51.940	-54.978	78.694	0.63831	-0.47470	0.51804	0.31421	31.3	13111	100
2025-3-27 15:13:43.983	WT901BLE68-01(48591DE3C19B)	-3.966	-4.406	0.569	201.965	114.136	-394.226	-84.25	38.38	8.74	-51.940	-54.978	78.694	0.63831	-0.47470	0.51804	0.31421	31.3	13111	100
2025-3-27 15:13:43.983	WT901BLE68-01(48591DE3C19B)	-3.667	-4.406	0.569	201.965	114.136	-394.226	-83.46	34.44	6.60	-51.940	-54.978	78.694	0.63831	-0.47470	0.51804	0.31421	31.3	13111	100
2025-3-27 15:13:44.40	WT901BLE68-01(48591DE3C19B)	-3.667	-3.191	0.846	341.736	50.842	-339.417	-80.72	31.07	5.30	-51.940	-54.978	78.694	0.63831	-0.47470	0.51804	0.31421	31.3	13111	100
2025-3-27 15:13:44.40	WT901BLE68-01(48591DE3C19B)	-3.560	-3.191	0.846	341.736	50.842	-339.417	-77.98	27.80	3.89	-51.940	-54.978	78.694	0.74890	-0.61670	0.16586	0.17670	31.3	13111	100
2025-3-27 15:13:44.40	WT901BLE68-01(48591DE3C19B)	-3.560	-2.081	0.623	271.851	181.824	-189.148	-76.42	26.37	1.36	-51.940	-54.978	78.694	0.74890	-0.61670	0.16586	0.17670	31.3	13111	100
2025-3-27 15:13:44.40	WT901BLE68-01(48591DE3C19B)	-3.137	-2.081	0.623	271.851	181.824	-189.148	-74.81	25.04	-1.15	-51.940	-54.978	78.694	0.74890	-0.61670	0.16586	0.17670	31.3	13111	100
2025-3-27 15:13:44.109	WT901BLE68-01(48591DE3C19B)	-3.137	-1.758	0.105	261.841	231.323	-78.369	-73.37	24.99	-3.85	-51.940	-54.978	78.694	0.74890	-0.61670	0.16586	0.17670	31.3	13111	100
2025-3-27 15:13:44.109	WT901BLE68-01(48591DE3C19B)	-2.678	-1.758	0.105	261.841	231.323	-78.369	-71.95	25.02	-6.53	-51.940	-54.978	78.694	0.74890	-0.61670	0.16586	0.17670	31.3	13111	100
2025-3-27 15:13:44.109	WT901BLE68-01(48591DE3C19B)	-2.678	-0.990	0.067	268.005	226.990	-14.465	-70.38	25.71	-8.93	-51.940	-54.978	78.694	0.74890	-0.61670	0.16586	0.17670	31.3	13111	100
2025-3-27 15:13:44.109	WT901BLE68-01(48591DE3C19B)	-2.344	-0.990	0.067	268.005	226.990	-14.465	-68.85	26.48	-11.31	-51.940	-54.978	78.694	0.74890	-0.61670	0.16586	0.17670	31.3	13111	100
2025-3-27 15:13:44.109	WT901BLE68-01(48591DE3C19B)	-2.344	-0.411	0.030	227.722	167.664	20.996	-67.41	27.42	-12.91	-51.940	-54.978	78.694	0.74890	-0.61670	0.16586	0.17670	31.3	13111	100
2025-3-27 15:13:44.109	WT901BLE68-01(48591DE3C19B)	-1.733	-0.411	0.030	227.722	167.664	20.996	-66.01	28.39	-14.49	-51.940	-54.978	78.694	0.74890	-0.61670	0.16586	0.17670	31.3	13111	100
2025-3-27 15:13:44.109	WT901BLE68-01(48591DE3C19B)	-1.733	-0.120	-0.138	181.274	109.192	38.452	-64.76	29.33	-15.35	-51.940	-54.978	78.694	0.74890	-0.61670	0.16586	0.17670	31.3	13111	100
2025-3-27 15:13:44.109	WT901BLE68-01(48591DE3C19B)	-1.052	-0.120	-0.138	181.274	109.192	38.452	-63.53	30.29	-16.21	-51.940	-54.978	78.694	0.74890	-0.61670	0.16586	0.17670	31.3	13111	100
2025-3-27 15:13:44.160	WT901BLE68-01(48591DE3C19B)	-1.052	0.128	-0.363	166.321	103.882	37.109	-62.45	31.23	-17.00	-51.940	-54.978	78.694	0.74890	-0.61670	0.16586	0.17670	31.3	13111	100
2025-3-27 15:13:44.160	WT901BLE68-01(48591DE3C19B)	-0.456	0.128	-0.363	166.321	103.882	37.109	-61.39	32.20	-17.79	-51.940	-54.978	78.694	0.74890	-0.61670	0.16586	0.17670	31.3	13111	100
2025-3-27 15:13:44.161	WT901BLE68-01(48591DE3C19B)	-0.456	0.437	-0.404	180.847	143.921	31.921	-60.44	33.33	-19.01	-51.940	-54.978	78.694	0.74890	-0.61670	0.16586	0.17670	31.3	13111	100
2025-3-27 15:13:44.161	WT901BLE68-01(48591DE3C19B)	-0.020	0.437	-0.404	180.847	143.921	31.921	-59.53	34.48	-20.22	-51.940	-54.978	78.694	0.74890	-0.61670	0.16586	0.17670	31.3	13111	100
2025-3-27 15:13:44.190	WT901BLE68-01(48591DE3C19B)	-0.020	0.806	-0.517	159.119	194.519	25.330	-59.21	35.84	-22.02	-51.940	-54.978	78.694	0.74890	-0.61670	0.16586	0.17670	31.3	13111	100
2025-3-27 15:13:44.190	WT901BLE68-01(48591DE3C19B)	0.115	0.806	-0.517	159.119	194.519	25.330	-58.95	37.22	-23.83	-51.940	-54.978	78.694	0.74890	-0.61670	0.16586	0.17670	31.3	13111	100
2025-3-27 15:13:44.190	WT901BLE68-01(48591DE3C19B)	0.115	1.030	-0.621	58.838	213.989	46.997	-59.84	38.89	-25.77	-51.940	-54.978	78.694	0.74890	-0.61670	0.16586	0.17670	31.3	13111	100
2025-3-27 15:13:44.191	WT901BLE68-01(48591DE3C19B)	0.055	1.030	-0.621	58.838	213.989	46.997	-60.85	40.55	-27.80	-51.940	-54.978	78.694	0.74890	-0.61670	0.16586	0.17670	31.3	13111	100
2025-3-27 15:13:44.220	WT901BLE68-01(48591DE3C19B)	0.055	0.917	-0.607	-19.348	198.303	55.359	-62.64	42.18	-29.71	-51.940	-54.978	78.694	0.74890	-0.61670	0.16586	0.17670	31.3	13111	100
2025-3-27 15:13:44.220	WT901BLE68-01(48591DE3C19B)	0.031	0.917	-0.607	-19.348	198.303	55.359	-64.58	43.78	-31.75	-51.940	-54.978	78.694	0.74890	-0.61670	0.16586	0.17670	31.3	13111	100
2025-3-27 15:13:44.220	WT901BLE68-01(48591DE3C19B)	0.031	0.816	-0.528	-46.387	161.743	43.457	-66.67	45.07	-33.54	-63.602	-5.096	79.576	0.74890	-0.61670	0.16586	0.17670	31.3	13111	100
2025-3-27 15:13:44.221	WT901BLE68-01(48591DE3C19B)	0.081	0.816	-0.528	-46.387	161.743	43.457	-68.90	46.33	-35.47	-63.602	-5.096	79.576	0.74890	-0.61670	0.16586	0.17670	31.3	13111	100
2025-3-27 15:13:44.279	WT901BLE68-01(48591DE3C19B)	0.081	0.851	-0.350	-73.059	127.197	32.776	-71.23	47.33	-37.11	-63.602	-5.096	79.576	0.74890	-0.61670	0.16586	0.17670	31.3	13111	100
2025-3-27 15:13:44.279	WT901BLE68-01(48591DE3C19B)	0.044	0.851	-0.350	-73.059	127.197	32.776	-73.67	48.30	-38.87	-63.602	-5.096	79.576	0.74890	-0.61670	0.16586	0.17670	31.3	13111	100
2025-3-27 15:13:44.279	WT901BLE68-01(48591DE3C19B)	0.044	0.811	-0.129	-110.779	104.980	34.424	-76.35	49.19	-40.40	-63.602	-5.096	79.576	0.74890	-0.61670	0.16586	0.17670	31.3	13111	100
2025-3-27 15:13:44.279	WT901BLE68-01(48591DE3C19B)	-0.115	0.811	-0.129	-110.779	104.980	34.424	-79.13	50.04	-42.04	-63.602	-5.096	79.576	0.74890	-0.61670	0.16586	0.17670	31.3	13111	100
2025-3-27 15:13:44.310	WT901BLE68-01(48591DE3C19B)	-0.115	0.665	-0.042	-133.057	69.946	39.551	-81.79	50.85	-43.21	-63.602	-5.096	79.576	0.74890	-0.61670	0.16586	0.17670	31.3	13111	100
2025-3-27 15:13:44.310	WT901BLE68-01(48591DE3C19B)	-0.345	0.665	-0.042	-133.057	69.946	39.551	-84.53	51.64	-44.46	-63.602	-5.096	79.576	0.74890	-0.61670	0.16586	0.17670	31.3	13111	100
2025-3-27 15:13:44.310	WT901BLE68-01(48591DE3C19B)	-0.345	0.532	-0.151	-165.527	26.306	47.607	-87.08	52.44	-45.06	-63.602	-5.096	79.576	0.74890	-0.61670	0.16586	0.17670	31.3	13111	100
2025-3-27 15:13:44.310	WT901BLE68-01(48591DE3C19B)	-0.861	0.532	-0.151	-165.527	26.306	47.607	-89.69	53.22	-45.73	-63.602	-5.096	79.576	0.74890	-0.61670	0.16586	0.17670	31.3	13111	100
2025-3-27 15:13:44.340	WT901BLE68-01(48591DE3C19B)	-0.861	0.319	-0.695	-215.332	7.446	67.017	-92.59	54.17	-46.14	-63.602	-5.096	79.576	0.74890	-0.61670	0.16586	0.17670	31.3	13111	100
2025-3-27 15:13:44.341	WT901BLE68-01(48591DE3C19B)	-1.945	0.319	-0.695	-215.332	7.446	67.017	-95.54	55.08	-46.64	-63.602	-5.096	79.576	0.74890	-0.61670	0.16586	0.17670	31.3	13111	100
2025-3-27 15:13:44.341	WT901BLE68-01(48591DE3C19B)	-1.945	0.077	-0.894	-299.744	-13.855	128.784	-99.16	56.58	-46.95	-63.602	-5.096	79.576	0.74890	-0.61670	0.16586	0.17670	31.3	13111	100
2025-3-27 15:13:44.341	WT901BLE68-01(48591DE3C19B)	-3.466	0.077	-0.894	-299.744	-13.855	128.784	-102.89	58.05	-47.40	-63.602	-5.096	79.576	0.74890	-0.61670	0.16586	0.17670	31.3	13111	100
2025-3-27 15:13:44.407	WT901BLE68-01(48591DE3C19B)	-3.466	-0.389	-1.141	-338.806	87.830	230.347	-109.23	60.15	-50.49	-63.602	-5.096	79.576	0.74890	-0.61670	0.16586	0.17670	31.3	13111	100
2025-3-27 15:13:44.407	WT901BLE68-01(48591DE3C19B)	-5.150	-0.389	-1.141	-338.806	87.830	230.347	-116.11	62.03	-54.16	-63.602	-5.096	79.576	0.74890	-0.61670	0.16586	0.17670	31.3	13111	100
2025-3-27 15:13:44.407	WT901BLE68-01(48591DE3C19B)	-5.150	-0.551	-1.501	-306.091	156.006	257.690	-124.68	63.54	-60.07	-63.602	-5.096	79.576	0.74890	-0.61670	0.16586	0.17670	31.3	13111	100
2025-3-27 15:13:44.407	WT901BLE68-01(48591DE3C19B)	-4.893	-0.551	-1.501	-306.091	156.006	257.690	-133.86	64.59	-66.62	-63.602	-5.096	79.576	0.74890	-0.61670	0.16586	0.17670	31.3	13111	100
2025-3-27 15:13:44.461	WT901BLE68-01(48591DE3C19B)	-4.893	-1.534	-1.378	-341.858	20.142	281.372	-142.36	66.36	-71.98	-63.602	-5.096	79.576	0.74890	-0.61670	0.16586	0.17670	31.3	13111	100
2025-3-27 15:13:44.461	WT901BLE68-01(48591DE3C19B)	-2.977	-1.534	-1.378	-341.858	20.142	281.372	-151.72	67.74	-78.24	-63.602	-5.096	79.576	0.74890	-0.61670	0.16586	0.17670	31.3	13111	100
2025-3-27 15:13:44.461	WT901BLE68-01(48591DE3C19B)	-2.977	-2.058	-1.329	-278.503	-33.081	253.540	-160.01	69.08	-84.02	-63.602	-5.096	79.576	0.74890	-0.61670	0.16586	0.17670	31.3	13111	100
2025-3-27 15:13:44.461	WT901BLE68-01(48591DE3C19B)	-1.955	-2.058	-1.329	-278.503	-33.081	253.540	-169.01	70.07	-90.53	-63.602	-5.096	79.576	0.46109	-0.53455	0.61761	0.34653	31.3	13111	100
2025-3-27 15:13:44.461	WT901BLE68-01(48591DE3C19B)	-1.507	-1.593	-0.789	-197.693	-5.859	226.318	-177.02	70.41	-96.84	-63.602	-5.096	79.576	0.46109	-0.53455	0.61761	0.34653	31.3	13111	100
2025-3-27 15:13:44.462	WT901BLE68-01(48591DE3C19B)	-1.507	-0.939	-0.191	-209.351	-58.228	184.814	175.37	70.72	-102.65	-63.602	-5.096	79.576	0.46109	-0.53455	0.61761	0.34653	31.3	13111	100
2025-3-27 15:13:44.462	WT901BLE68-01(48591DE3C19B)	-0.947	-0.939	-0.191	-209.351	-58.228	184.814	168.11	71.06	-108.06	-63.602	-5.096	79.576	0.46109	-0.53455	0.61761	0.34653	31.3	13111	100
2025-3-27 15:13:44.462	WT901BLE68-01(48591DE3C19B)	-0.947	-0.954	-0.073	-217.346	-179.321	128.540	160.91	71.84	-113.35	-63.602	-5.096	79.576	0.46109	-0.53455	0.61761	0.34653	31.3	13111	100
2025-3-27 15:13:44.520	WT901BLE68-01(48591DE3C19B)	-0.228	-0.954	-0.073	-217.346	-179.321	128.540	153.25	73.06	-119.05	-63.602	-5.096	79.576	0.46109	-0.53455	0.61761	0.34653	31.3	13111	100
2025-3-27 15:13:44.520	WT901BLE68-01(48591DE3C19B)	-0.228	-0.768	-0.150	-168.030	-265.076	89.050	144.71	74.49	-125.91	-63.602	-5.096	79.576	0.46109	-0.53455	0.61761	0.34653	31.3	13111	100
2025-3-27 15:13:44.520	WT901BLE68-01(48591DE3C19B)	0.601	-0.768	-0.150	-168.030	-265.076	89.050	134.55	76.04	-134.65	-63.602	-5.096	79.576	0.46109	-0.53455	0.61761	0.34653	31.3	13111	100
2025-3-27 15:13:44.520	WT901BLE68-01(48591DE3C19B)	0.601	-0.563	-0.245	-165.100	-257.263	39.185	123.31	77.32	-144.48	-63.602	-5.096	79.576	0.46109	-0.53455	0.61761	0.34653	31.3	13111	100
2025-3-27 15:13:44.550	WT901BLE68-01(48591DE3C19B)	1.209	-0.563	-0.245	-165.100	-257.263	39.185	110.98	78.32	-155.39	-63.602	-5.096	79.576	0.46109	-0.53455	0.61761	0.34653	31.3	13111	100
2025-3-27 15:13:44.550	WT901BLE68-01(48591DE3C19B)	1.209	-0.847	-0.235	-204.041	-197.754	-3.418	98.76	78.95	-165.99	-63.602	-5.096	79.576	0.46109	-0.53455	0.61761	0.34653	31.3	13111	100
2025-3-27 15:13:44.550	WT901BLE68-01(48591DE3C19B)	1.554	-0.847	-0.235	-204.041	-197.754	-3.418	87.19	79.34	-175.72	-63.602	-5.096	79.576	0.46109	-0.53455	0.61761	0.34653	31.3	13111	100
2025-3-27 15:13:44.550	WT901BLE68-01(48591DE3C19B)	1.554	-1.219	-0.256	-174.194	-129.822	-41.260	77.05	79.66	175.84	-63.602	-5.096	79.576	0.46109	-0.53455	0.61761	0.34653	31.3	13111	100
2025-3-27 15:13:44.580	WT901BLE68-01(48591DE3C19B)	1.547	-1.219	-0.256	-174.194	-129.822	-41.260	68.26	80.05	168.61	-63.602	-5.096	79.576	0.46109	-0.53455	0.61761	0.34653	31.3	13111	100
2025-3-27 15:13:44.580	WT901BLE68-01(48591DE3C19B)	1.547	-1.075	-0.109	-81.299	-63.538	-92.773	60.51	80.67	161.95	-63.602	-5.096	79.576	0.46109	-0.53455	0.61761	0.34653	31.3	13111	100
2025-3-27 15:13:44.580	WT901BLE68-01(48591DE3C19B)	1.138	-1.075	-0.109	-81.299	-63.538	-92.773	53.14	81.58	155.21	-63.602	-5.096	79.576	0.46109	-0.53455	0.61761	0.34653	31.3	13111	100
2025-3-27 15:13:44.580	WT901BLE68-01(48591DE3C19B)	1.138	-0.931	-0.027	-66.650	-20.813	-146.362	43.95	82.72	146.57	-63.602	-5.096	79.576	0.46109	-0.53455	0.61761	0.34653	31.3	13111	100
2025-3-27 15:13:44.641	WT901BLE68-01(48591DE3C19B)	0.921	-0.931	-0.027	-66.650	-20.813	-146.362	30.84	83.96	133.95	-63.602	-5.096	79.576	0.46109	-0.53455	0.61761	0.34653	31.3	13111	100
2025-3-27 15:13:44.641	WT901BLE68-01(48591DE3C19B)	0.921	-1.335	0.004	-49.988	-18.250	-215.332	8.85	84.86	112.33	-63.602	-5.096	79.576	0.46109	-0.53455	0.61761	0.34653	31.3	13111	100
2025-3-27 15:13:44.641	WT901BLE68-01(48591DE3C19B)	0.786	-1.335	0.004	-49.988	-18.250	-215.332	-20.54	84.72	83.22	-63.602	-5.096	79.576	0.46109	-0.53455	0.61761	0.34653	31.3	13111	100
2025-3-27 15:13:44.641	WT901BLE68-01(48591DE3C19B)	0.786	-1.497	0.053	12.329	-14.526	-272.156	-44.76	83.25	58.94	-63.602	-5.096	79.576	0.46109	-0.53455	0.61761	0.34653	31.3	13111	100
2025-3-27 15:13:44.670	WT901BLE68-01(48591DE3C19B)	0.490	-1.497	0.053	12.329	-14.526	-272.156	-59.52	80.82	43.82	-54.978	-53.900	72.324	0.46109	-0.53455	0.61761	0.34653	31.3	13111	100
2025-3-27 15:13:44.670	WT901BLE68-01(48591DE3C19B)	0.490	-1.355	0.121	55.542	-2.380	-317.627	-68.16	77.85	34.58	-54.978	-53.900	72.324	0.46109	-0.53455	0.61761	0.34653	31.3	13111	100
2025-3-27 15:13:44.670	WT901BLE68-01(48591DE3C19B)	0.148	-1.355	0.121	55.542	-2.380	-317.627	-73.45	74.52	28.46	-54.978	-53.900	72.324	0.46109	-0.53455	0.61761	0.34653	31.3	13111	100
2025-3-27 15:13:44.670	WT901BLE68-01(48591DE3C19B)	0.148	-1.397	0.278	65.674	19.043	-349.365	-77.05	70.97	23.96	-54.978	-53.900	72.324	0.46109	-0.53455	0.61761	0.34653	31.3	13111	100
2025-3-27 15:13:44.731	WT901BLE68-01(48591DE3C19B)	-1.024	-1.397	0.278	65.674	19.043	-349.365	-79.62	67.23	20.41	-54.978	-53.900	72.324	0.46109	-0.53455	0.61761	0.34653	31.3	13111	100
2025-3-27 15:13:44.731	WT901BLE68-01(48591DE3C19B)	-1.024	-1.820	0.605	86.365	107.239	-328.003	-82.03	63.63	16.80	-54.978	-53.900	72.324	0.46109	-0.53455	0.61761	0.34653	31.3	13111	100
2025-3-27 15:13:44.731	WT901BLE68-01(48591DE3C19B)	-3.137	-1.820	0.605	86.365	107.239	-328.003	-84.33	60.16	13.10	-54.978	-53.900	72.324	0.46109	-0.53455	0.61761	0.34653	31.3	13111	100
2025-3-27 15:13:44.731	WT901BLE68-01(48591DE3C19B)	-3.137	-3.010	0.547	135.376	101.624	-352.356	-85.66	56.55	10.09	-54.978	-53.900	72.324	0.46109	-0.53455	0.61761	0.34653	31.3	13111	100
2025-3-27 15:13:44.763	WT901BLE68-01(48591DE3C19B)	-4.316	-3.010	0.547	135.376	101.624	-352.356	-86.23	52.86	7.59	-54.978	-53.900	72.324	0.46109	-0.53455	0.61761	0.34653	31.3	13111	100
2025-3-27 15:13:44.763	WT901BLE68-01(48591DE3C19B)	-4.316	-2.987	0.622	233.643	-62.439	-319.824	-85.01	49.34	6.67	-54.978	-53.900	72.324	0.46109	-0.53455	0.61761	0.34653	31.3	13111	100
2025-3-27 15:13:44.763	WT901BLE68-01(48591DE3C19B)	-3.327	-2.987	0.622	233.643	-62.439	-319.824	-82.40	45.98	6.93	-54.978	-53.900	72.324	0.46109	-0.53455	0.61761	0.34653	31.3	13111	100
2025-3-27 15:13:44.763	WT901BLE68-01(48591DE3C19B)	-3.327	-2.581	0.745	201.538	5.066	-225.525	-80.36	43.18	6.66	-54.978	-53.900	72.324	0.46109	-0.53455	0.61761	0.34653	31.3	13111	100
2025-3-27 15:13:44.851	WT901BLE68-01(48591DE3C19B)	-3.094	-2.581	0.745	201.538	5.066	-225.525	-78.78	40.94	5.97	-54.978	-53.900	72.324	0.46109	-0.53455	0.61761	0.34653	31.3	13111	100
2025-3-27 15:13:44.851	WT901BLE68-01(48591DE3C19B)	-3.094	-2.031	0.448	221.924	213.989	-103.394	-77.85	39.56	4.09	-54.978	-53.900	72.324	0.46109	-0.53455	0.61761	0.34653	31.3	13111	100
2025-3-27 15:13:44.851	WT901BLE68-01(48591DE3C19B)	-2.508	-2.031	0.448	221.924	213.989	-103.394	-77.54	39.01	1.09	-54.978	-53.900	72.324	0.46109	-0.53455	0.61761	0.34653	31.3	13111	100
2025-3-27 15:13:44.851	WT901BLE68-01(48591DE3C19B)	-2.508	-1.133	0.030	238.159	215.942	-42.786	-77.07	38.80	-1.80	-54.978	-53.900	72.324	0.46109	-0.53455	0.61761	0.34653	31.3	13111	100
2025-3-27 15:13:44.852	WT901BLE68-01(48591DE3C19B)	-1.801	-1.133	0.030	238.159	215.942	-42.786	-76.49	38.91	-4.61	-54.978	-53.900	72.324	0.46109	-0.53455	0.61761	0.34653	31.3	13111	100
2025-3-27 15:13:44.852	WT901BLE68-01(48591DE3C19B)	-1.801	-0.304	-0.233	251.953	226.135	-22.705	-75.87	39.17	-7.43	-54.978	-53.900	72.324	0.75790	-0.55441	0.31003	0.14822	31.3	13111	100
2025-3-27 15:13:44.852	WT901BLE68-01(48591DE3C19B)	-1.363	-0.304	-0.233	251.953	226.135	-22.705	-75.23	39.58	-10.29	-54.978	-53.900	72.324	0.75790	-0.55441	0.31003	0.14822	31.3	13111	100
2025-3-27 15:13:44.852	WT901BLE68-01(48591DE3C19B)	-1.363	0.320	-0.320	260.193	265.137	-41.931	-74.77	39.97	-13.41	-54.978	-53.900	72.324	0.75790	-0.55441	0.31003	0.14822	31.3	13111	100
2025-3-27 15:13:44.880	WT901BLE68-01(48591DE3C19B)	-1.072	0.320	-0.320	260.193	265.137	-41.931	-74.48	40.35	-16.82	-54.978	-53.900	72.324	0.75790	-0.55441	0.31003	0.14822	31.3	13111	100
2025-3-27 15:13:44.880	WT901BLE68-01(48591DE3C19B)	-1.072	0.781	-0.229	206.604	283.447	-37.476	-74.58	40.80	-20.34	-54.978	-53.900	72.324	0.75790	-0.55441	0.31003	0.14822	31.3	13111	100
2025-3-27 15:13:44.880	WT901BLE68-01(48591DE3C19B)	-0.648	0.781	-0.229	206.604	283.447	-37.476	-75.06	41.29	-23.97	-54.978	-53.900	72.324	0.75790	-0.55441	0.31003	0.14822	31.3	13111	100
2025-3-27 15:13:44.880	WT901BLE68-01(48591DE3C19B)	-0.648	0.955	-0.106	96.741	258.911	-1.465	-76.01	41.91	-27.41	-54.978	-53.900	72.324	0.75790	-0.55441	0.31003	0.14822	31.3	13111	100
2025-3-27 15:13:44.910	WT901BLE68-01(48591DE3C19B)	-0.246	0.955	-0.106	96.741	258.911	-1.465	-77.43	42.63	-30.66	-54.978	-53.900	72.324	0.75790	-0.55441	0.31003	0.14822	31.3	13111	100
2025-3-27 15:13:44.910	WT901BLE68-01(48591DE3C19B)	-0.246	0.771	-0.080	61.218	254.822	14.099	-79.08	43.37	-33.91	-54.978	-53.900	72.324	0.75790	-0.55441	0.31003	0.14822	31.3	13111	100
2025-3-27 15:13:44.910	WT901BLE68-01(48591DE3C19B)	-0.059	0.771	-0.080	61.218	254.822	14.099	-80.96	44.12	-37.17	-54.978	-53.900	72.324	0.75790	-0.55441	0.31003	0.14822	31.3	13111	100
2025-3-27 15:13:44.910	WT901BLE68-01(48591DE3C19B)	-0.059	0.803	-0.206	58.716	267.151	16.846	-83.09	44.84	-40.66	-54.978	-53.900	72.324	0.75790	-0.55441	0.31003	0.14822	31.3	13111	100
2025-3-27 15:13:44.970	WT901BLE68-01(48591DE3C19B)	0.063	0.803	-0.206	58.716	267.151	16.846	-85.31	45.47	-44.23	-54.978	-53.900	72.324	0.75790	-0.55441	0.31003	0.14822	31.3	13111	100
2025-3-27 15:13:44.970	WT901BLE68-01(48591DE3C19B)	0.063	0.966	-0.340	60.120	263.428	17.090	-87.59	46.01	-47.81	-54.978	-53.900	72.324	0.75790	-0.55441	0.31003	0.14822	31.3	13111	100
2025-3-27 15:13:44.970	WT901BLE68-01(48591DE3C19B)	0.039	0.966	-0.340	60.120	263.428	17.090	-89.99	46.46	-51.46	-54.978	-53.900	72.324	0.75790	-0.55441	0.31003	0.14822	31.3	13111	100
2025-3-27 15:13:44.970	WT901BLE68-01(48591DE3C19B)	0.039	1.213	-0.417	10.315	203.247	10.986	-92.35	46.76	-54.32	-54.978	-53.900	72.324	0.75790	-0.55441	0.31003	0.14822	31.3	13111	100
2025-3-27 15:13:45.7	WT901BLE68-01(48591DE3C19B)	-0.057	1.213	-0.417	10.315	203.247	10.986	-94.81	46.99	-57.25	-54.978	-53.900	72.324	0.75790	-0.55441	0.31003	0.14822	31.3	13111	100
2025-3-27 15:13:45.7	WT901BLE68-01(48591DE3C19B)	-0.057	1.105	-0.406	-51.453	121.887	42.542	-97.14	47.53	-59.12	-54.978	-53.900	72.324	0.75790	-0.55441	0.31003	0.14822	31.3	13111	100
2025-3-27 15:13:45.7	WT901BLE68-01(48591DE3C19B)	0.042	1.105	-0.406	-51.453	121.887	42.542	-99.57	48.02	-61.08	-54.978	-53.900	72.324	0.75790	-0.55441	0.31003	0.14822	31.3	13111	100
2025-3-27 15:13:45.7	WT901BLE68-01(48591DE3C19B)	0.042	1.125	-0.418	-97.656	16.418	41.016	-101.39	48.64	-61.57	-54.978	-53.900	72.324	0.75790	-0.55441	0.31003	0.14822	31.3	13111	100
2025-3-27 15:13:45.33	WT901BLE68-01(48591DE3C19B)	-0.169	1.125	-0.418	-97.656	16.418	41.016	-103.27	49.24	-62.14	-54.978	-53.900	72.324	0.75790	-0.55441	0.31003	0.14822	31.3	13111	100
2025-3-27 15:13:45.33	WT901BLE68-01(48591DE3C19B)	-0.169	0.731	-0.371	-173.218	-41.199	26.733	-105.26	49.83	-61.88	-54.978	-53.900	72.324	0.75790	-0.55441	0.31003	0.14822	31.3	13111	100
2025-3-27 15:13:45.33	WT901BLE68-01(48591DE3C19B)	-0.603	0.731	-0.371	-173.218	-41.199	26.733	-107.28	50.43	-61.65	-73.892	-14.994	74.186	0.75790	-0.55441	0.31003	0.14822	31.3	13111	100
2025-3-27 15:13:45.33	WT901BLE68-01(48591DE3C19B)	-0.603	0.422	-0.691	-206.421	-95.276	54.321	-109.11	51.45	-60.78	-73.892	-14.994	74.186	0.75790	-0.55441	0.31003	0.14822	31.3	13111	100
2025-3-27 15:13:45.90	WT901BLE68-01(48591DE3C19B)	-1.228	0.422	-0.691	-206.421	-95.276	54.321	-110.94	52.49	-59.95	-73.892	-14.994	74.186	0.75790	-0.55441	0.31003	0.14822	31.3	13111	100
2025-3-27 15:13:45.90	WT901BLE68-01(48591DE3C19B)	-1.228	0.271	-1.176	-289.246	-132.874	108.887	-113.39	54.16	-58.90	-73.892	-14.994	74.186	0.75790	-0.55441	0.31003	0.14822	31.3	13111	100
2025-3-27 15:13:45.90	WT901BLE68-01(48591DE3C19B)	-2.253	0.271	-1.176	-289.246	-132.874	108.887	-115.85	55.83	-57.91	-73.892	-14.994	74.186	0.75790	-0.55441	0.31003	0.14822	31.3	13111	100
2025-3-27 15:13:45.90	WT901BLE68-01(48591DE3C19B)	-2.253	-0.089	-1.379	-350.037	-137.024	192.688	-119.45	58.27	-57.64	-73.892	-14.994	74.186	0.75790	-0.55441	0.31003	0.14822	31.3	13111	100
2025-3-27 15:13:45.151	WT901BLE68-01(48591DE3C19B)	-3.383	-0.089	-1.379	-350.037	-137.024	192.688	-123.23	60.69	-57.61	-73.892	-14.994	74.186	0.75790	-0.55441	0.31003	0.14822	31.3	13111	100
2025-3-27 15:13:45.151	WT901BLE68-01(48591DE3C19B)	-3.383	-0.463	-1.992	-330.017	39.246	222.778	-130.04	62.28	-61.30	-73.892	-14.994	74.186	0.75790	-0.55441	0.31003	0.14822	31.3	13111	100
2025-3-27 15:13:45.151	WT901BLE68-01(48591DE3C19B)	-4.451	-0.463	-1.992	-330.017	39.246	222.778	-137.32	63.62	-65.50	-73.892	-14.994	74.186	0.75790	-0.55441	0.31003	0.14822	31.3	13111	100
2025-3-27 15:13:45.151	WT901BLE68-01(48591DE3C19B)	-4.451	-0.893	-2.040	-332.092	123.474	245.483	-146.43	64.14	-71.73	-73.892	-14.994	74.186	0.75790	-0.55441	0.31003	0.14822	31.3	13111	100
2025-3-27 15:13:45.151	WT901BLE68-01(48591DE3C19B)	-4.005	-0.893	-2.040	-332.092	123.474	245.483	-155.62	64.23	-78.05	-73.892	-14.994	74.186	0.75790	-0.55441	0.31003	0.14822	31.3	13111	100
2025-3-27 15:13:45.152	WT901BLE68-01(48591DE3C19B)	-4.005	-1.657	-1.885	-320.679	46.631	235.779	-163.87	64.58	-83.47	-73.892	-14.994	74.186	0.75790	-0.55441	0.31003	0.14822	31.3	13111	100
2025-3-27 15:13:45.152	WT901BLE68-01(48591DE3C19B)	-2.748	-1.657	-1.885	-320.679	46.631	235.779	-172.12	64.59	-88.92	-73.892	-14.994	74.186	0.75790	-0.55441	0.31003	0.14822	31.3	13111	100
2025-3-27 15:13:45.152	WT901BLE68-01(48591DE3C19B)	-2.748	-1.998	-1.582	-261.230	-20.752	194.702	-178.70	64.93	-93.21	-73.892	-14.994	74.186	0.75790	-0.55441	0.31003	0.14822	31.3	13111	100
2025-3-27 15:13:45.211	WT901BLE68-01(48591DE3C19B)	-1.854	-1.998	-1.582	-261.230	-20.752	194.702	174.68	65.07	-97.55	-73.892	-14.994	74.186	0.75790	-0.55441	0.31003	0.14822	31.3	13111	100
2025-3-27 15:13:45.211	WT901BLE68-01(48591DE3C19B)	-1.854	-1.278	-0.796	-190.002	-54.199	153.992	169.57	65.40	-101.03	-73.892	-14.994	74.186	0.75790	-0.55441	0.31003	0.14822	31.3	13111	100
2025-3-27 15:13:45.211	WT901BLE68-01(48591DE3C19B)	-1.316	-1.278	-0.796	-190.002	-54.199	153.992	164.42	65.60	-104.57	-73.892	-14.994	74.186	0.75790	-0.55441	0.31003	0.14822	31.3	13111	100
2025-3-27 15:13:45.211	WT901BLE68-01(48591DE3C19B)	-1.316	-0.847	-0.192	-213.623	-132.507	109.375	159.36	66.56	-107.74	-73.892	-14.994	74.186	0.75790	-0.55441	0.31003	0.14822	31.3	13111	100
2025-3-27 15:13:45.270	WT901BLE68-01(48591DE3C19B)	-0.725	-0.847	-0.192	-213.623	-132.507	109.375	154.02	67.39	-111.20	-73.892	-14.994	74.186	0.75790	-0.55441	0.31003	0.14822	31.3	13111	100
2025-3-27 15:13:45.271	WT901BLE68-01(48591DE3C19B)	-0.725	-0.813	-0.023	-214.844	-238.037	58.716	148.13	69.25	-115.22	-73.892	-14.994	74.186	0.75790	-0.55441	0.31003	0.14822	31.3	13111	100
2025-3-27 15:13:45.271	WT901BLE68-01(48591DE3C19B)	0.130	-0.813	-0.023	-214.844	-238.037	58.716	141.39	70.94	-120.11	-73.892	-14.994	74.186	0.75790	-0.55441	0.31003	0.14822	31.3	13111	100
2025-3-27 15:13:45.271	WT901BLE68-01(48591DE3C19B)	0.130	-0.672	-0.054	-199.951	-282.471	4.761	134.04	73.09	-125.75	-73.892	-14.994	74.186	0.34720	-0.54105	0.54312	0.54001	31.3	13111	100
2025-3-27 15:13:45.271	WT901BLE68-01(48591DE3C19B)	0.829	-0.672	-0.054	-199.951	-282.471	4.761	125.05	74.97	-133.06	-73.892	-14.994	74.186	0.34720	-0.54105	0.54312	0.54001	31.3	13111	100
2025-3-27 15:13:45.271	WT901BLE68-01(48591DE3C19B)	0.829	-0.673	-0.062	-217.163	-223.694	-58.472	117.33	76.77	-138.81	-73.892	-14.994	74.186	0.34720	-0.54105	0.54312	0.54001	31.3	13111	100
2025-3-27 15:13:45.271	WT901BLE68-01(48591DE3C19B)	1.439	-0.673	-0.062	-217.163	-223.694	-58.472	107.82	78.34	-146.38	-73.892	-14.994	74.186	0.34720	-0.54105	0.54312	0.54001	31.3	13111	100
2025-3-27 15:13:45.271	WT901BLE68-01(48591DE3C19B)	1.439	-0.950	-0.158	-228.821	-140.259	-191.406	102.13	80.77	-149.91	-73.892	-14.994	74.186	0.34720	-0.54105	0.54312	0.54001	31.3	13111	100
2025-3-27 15:13:45.331	WT901BLE68-01(48591DE3C19B)	1.925	-0.950	-0.158	-228.821	-140.259	-191.406	93.64	83.11	-156.29	-73.892	-14.994	74.186	0.34720	-0.54105	0.54312	0.54001	31.3	13111	100
2025-3-27 15:13:45.331	WT901BLE68-01(48591DE3C19B)	1.925	-1.139	0.097	-155.273	-142.822	-157.593	79.85	84.93	-168.71	-73.892	-14.994	74.186	0.34720	-0.54105	0.54312	0.54001	31.3	13111	100
2025-3-27 15:13:45.331	WT901BLE68-01(48591DE3C19B)	1.516	-1.139	0.097	-155.273	-142.822	-157.593	54.85	86.30	167.63	-73.892	-14.994	74.186	0.34720	-0.54105	0.54312	0.54001	31.3	13111	100
2025-3-27 15:13:45.331	WT901BLE68-01(48591DE3C19B)	1.516	-1.076	0.318	-121.460	-80.505	-131.226	25.89	87.05	139.68	-73.892	-14.994	74.186	0.34720	-0.54105	0.54312	0.54001	31.3	13111	100
2025-3-27 15:13:45.360	WT901BLE68-01(48591DE3C19B)	1.273	-1.076	0.318	-121.460	-80.505	-131.226	-8.78	86.84	106.01	-73.892	-14.994	74.186	0.34720	-0.54105	0.54312	0.54001	31.3	13111	100
2025-3-27 15:13:45.360	WT901BLE68-01(48591DE3C19B)	1.273	-1.027	0.342	-77.637	-53.467	-191.650	-41.03	85.65	74.30	-73.892	-14.994	74.186	0.34720	-0.54105	0.54312	0.54001	31.3	13111	100
2025-3-27 15:13:45.360	WT901BLE68-01(48591DE3C19B)	1.167	-1.027	0.342	-77.637	-53.467	-191.650	-57.01	83.76	58.86	-73.892	-14.994	74.186	0.34720	-0.54105	0.54312	0.54001	31.3	13111	100
2025-3-27 15:13:45.360	WT901BLE68-01(48591DE3C19B)	0.929	-1.052	0.277	-30.334	-14.404	-247.131	-68.87	81.26	47.05	-73.892	-14.994	74.186	0.34720	-0.54105	0.54312	0.54001	31.3	13111	100
2025-3-27 15:13:45.420	WT901BLE68-01(48591DE3C19B)	0.929	-1.074	0.108	18.738	42.480	-295.410	-76.78	78.40	38.92	-73.892	-14.994	74.186	0.34720	-0.54105	0.54312	0.54001	31.3	13111	100
2025-3-27 15:13:45.421	WT901BLE68-01(48591DE3C19B)	0.645	-1.074	0.108	18.738	42.480	-295.410	-82.47	75.21	32.73	-73.892	-14.994	74.186	0.34720	-0.54105	0.54312	0.54001	31.3	13111	100
2025-3-27 15:13:45.421	WT901BLE68-01(48591DE3C19B)	0.645	-1.096	-0.020	57.251	89.905	-331.421	-86.62	71.75	27.87	-73.892	-14.994	74.186	0.34720	-0.54105	0.54312	0.54001	31.3	13111	100
2025-3-27 15:13:45.421	WT901BLE68-01(48591DE3C19B)	0.246	-1.096	-0.020	57.251	89.905	-331.421	-89.76	68.05	23.79	-73.892	-14.994	74.186	0.34720	-0.54105	0.54312	0.54001	31.3	13111	100
2025-3-27 15:13:45.450	WT901BLE68-01(48591DE3C19B)	0.246	-1.272	0.035	80.811	133.850	-340.454	-92.19	64.26	20.25	-73.892	-14.994	74.186	0.34720	-0.54105	0.54312	0.54001	31.3	13111	100
2025-3-27 15:13:45.450	WT901BLE68-01(48591DE3C19B)	-1.005	-1.272	0.035	80.811	133.850	-340.454	-94.11	60.37	17.04	-73.892	-14.994	74.186	0.34720	-0.54105	0.54312	0.54001	31.3	13111	100
2025-3-27 15:13:45.450	WT901BLE68-01(48591DE3C19B)	-1.005	-1.810	0.188	92.712	151.794	-267.151	-95.55	56.82	14.20	-73.892	-14.994	74.186	0.34720	-0.54105	0.54312	0.54001	31.3	13111	100
2025-3-27 15:13:45.450	WT901BLE68-01(48591DE3C19B)	-3.674	-1.810	0.188	92.712	151.794	-267.151	-96.66	53.63	11.56	-73.892	-14.994	74.186	0.34720	-0.54105	0.54312	0.54001	31.3	13111	100
2025-3-27 15:13:45.480	WT901BLE68-01(48591DE3C19B)	-3.674	-3.451	0.235	152.405	135.559	-252.441	-97.03	50.55	9.37	-44.590	-49.098	64.974	0.34720	-0.54105	0.54312	0.54001	31.3	13111	100
2025-3-27 15:13:45.480	WT901BLE68-01(48591DE3C19B)	-4.126	-3.451	0.235	152.405	135.559	-252.441	-96.76	47.65	7.50	-44.590	-49.098	64.974	0.34720	-0.54105	0.54312	0.54001	31.3	13111	100
2025-3-27 15:13:45.480	WT901BLE68-01(48591DE3C19B)	-4.126	-3.051	0.095	281.250	4.211	-262.939	-95.05	44.85	6.70	-44.590	-49.098	64.974	0.34720	-0.54105	0.54312	0.54001	31.3	13111	100
2025-3-27 15:13:45.480	WT901BLE68-01(48591DE3C19B)	-3.460	-3.051	0.095	281.250	4.211	-262.939	-92.11	42.13	6.73	-44.590	-49.098	64.974	0.34720	-0.54105	0.54312	0.54001	31.3	13111	100
2025-3-27 15:13:45.509	WT901BLE68-01(48591DE3C19B)	-3.460	-1.996	0.250	243.591	115.479	-152.466	-89.96	40.00	5.89	-44.590	-49.098	64.974	0.34720	-0.54105	0.54312	0.54001	31.3	13111	100
2025-3-27 15:13:45.510	WT901BLE68-01(48591DE3C19B)	-3.074	-1.996	0.250	243.591	115.479	-152.466	-88.48	38.49	4.31	-44.590	-49.098	64.974	0.34720	-0.54105	0.54312	0.54001	31.3	13111	100
2025-3-27 15:13:45.510	WT901BLE68-01(48591DE3C19B)	-3.074	-2.225	0.098	210.876	234.619	-37.476	-87.58	37.62	2.01	-44.590	-49.098	64.974	0.34720	-0.54105	0.54312	0.54001	31.3	13111	100
2025-3-27 15:13:45.510	WT901BLE68-01(48591DE3C19B)	-2.412	-2.225	0.098	210.876	234.619	-37.476	-87.28	37.38	-0.98	-44.590	-49.098	64.974	0.34720	-0.54105	0.54312	0.54001	31.3	13111	100
2025-3-27 15:13:45.570	WT901BLE68-01(48591DE3C19B)	-2.412	-1.391	-0.063	248.718	249.634	25.391	-86.84	37.48	-4.03	-44.590	-49.098	64.974	0.34720	-0.54105	0.54312	0.54001	31.3	13111	100
2025-3-27 15:13:45.570	WT901BLE68-01(48591DE3C19B)	-1.787	-1.391	-0.063	248.718	249.634	25.391	-86.27	37.93	-7.14	-44.590	-49.098	64.974	0.34720	-0.54105	0.54312	0.54001	31.3	13111	100
2025-3-27 15:13:45.570	WT901BLE68-01(48591DE3C19B)	-1.787	-0.564	-0.116	262.695	258.606	48.645	-85.70	38.53	-10.31	-44.590	-49.098	64.974	0.34720	-0.54105	0.54312	0.54001	31.3	13111	100
2025-3-27 15:13:45.571	WT901BLE68-01(48591DE3C19B)	-1.415	-0.564	-0.116	262.695	258.606	48.645	-85.14	39.28	-13.52	-44.590	-49.098	64.974	0.34720	-0.54105	0.54312	0.54001	31.3	13111	100
2025-3-27 15:13:45.607	WT901BLE68-01(48591DE3C19B)	-1.415	-0.011	-0.262	249.329	256.775	53.345	-84.70	40.08	-16.74	-44.590	-49.098	64.974	0.34720	-0.54105	0.54312	0.54001	31.3	13111	100
2025-3-27 15:13:45.607	WT901BLE68-01(48591DE3C19B)	-1.048	-0.011	-0.262	249.329	256.775	53.345	-84.39	40.92	-19.95	-44.590	-49.098	64.974	0.34720	-0.54105	0.54312	0.54001	31.3	13111	100
2025-3-27 15:13:45.607	WT901BLE68-01(48591DE3C19B)	-1.048	0.337	-0.355	235.657	228.333	40.771	-84.10	41.72	-23.01	-44.590	-49.098	64.974	0.34720	-0.54105	0.54312	0.54001	31.3	13111	100
2025-3-27 15:13:45.607	WT901BLE68-01(48591DE3C19B)	-0.615	0.337	-0.355	235.657	228.333	40.771	-83.82	42.44	-25.92	-44.590	-49.098	64.974	0.34720	-0.54105	0.54312	0.54001	31.3	13111	100
2025-3-27 15:13:45.633	WT901BLE68-01(48591DE3C19B)	-0.615	0.643	-0.308	203.491	202.026	16.907	-83.66	43.06	-28.67	-44.590	-49.098	64.974	0.34720	-0.54105	0.54312	0.54001	31.3	13111	100
2025-3-27 15:13:45.633	WT901BLE68-01(48591DE3C19B)	-0.202	0.643	-0.308	203.491	202.026	16.907	-83.59	43.55	-31.29	-44.590	-49.098	64.974	0.34720	-0.54105	0.54312	0.54001	31.3	13111	100
2025-3-27 15:13:45.633	WT901BLE68-01(48591DE3C19B)	-0.202	0.887	-0.327	123.352	189.819	21.545	-83.91	44.07	-33.84	-44.590	-49.098	64.974	0.73245	-0.51166	0.44727	0.03940	31.3	13111	100
2025-3-27 15:13:45.633	WT901BLE68-01(48591DE3C19B)	0.006	0.887	-0.327	123.352	189.819	21.545	-84.63	44.60	-36.32	-44.590	-49.098	64.974	0.73245	-0.51166	0.44727	0.03940	31.3	13111	100
2025-3-27 15:13:45.690	WT901BLE68-01(48591DE3C19B)	0.006	0.830	-0.398	47.852	171.387	40.100	-85.70	45.20	-38.70	-44.590	-49.098	64.974	0.73245	-0.51166	0.44727	0.03940	31.3	13111	100
2025-3-27 15:13:45.690	WT901BLE68-01(48591DE3C19B)	0.069	0.830	-0.398	47.852	171.387	40.100	-87.12	45.86	-40.99	-44.590	-49.098	64.974	0.73245	-0.51166	0.44727	0.03940	31.3	13111	100
2025-3-27 15:13:45.691	WT901BLE68-01(48591DE3C19B)	0.069	0.940	-0.466	60.364	159.180	46.021	-88.50	46.52	-43.25	-44.590	-49.098	64.974	0.73245	-0.51166	0.44727	0.03940	31.3	13111	100
2025-3-27 15:13:45.691	WT901BLE68-01(48591DE3C19B)	0.145	0.940	-0.466	60.364	159.180	46.021	-89.85	47.17	-45.49	-44.590	-49.098	64.974	0.73245	-0.51166	0.44727	0.03940	31.3	13111	100
2025-3-27 15:13:45.720	WT901BLE68-01(48591DE3C19B)	0.145	1.267	-0.437	2.869	126.160	22.095	-91.42	47.69	-47.58	-44.590	-49.098	64.974	0.73245	-0.51166	0.44727	0.03940	31.3	13111	100
2025-3-27 15:13:45.720	WT901BLE68-01(48591DE3C19B)	0.136	1.267	-0.437	2.869	126.160	22.095	-93.19	48.06	-49.49	-44.590	-49.098	64.974	0.73245	-0.51166	0.44727	0.03940	31.3	13111	100
2025-3-27 15:13:45.720	WT901BLE68-01(48591DE3C19B)	0.136	1.343	-0.315	-79.956	83.801	4.395	-95.22	48.34	-51.15	-44.590	-49.098	64.974	0.73245	-0.51166	0.44727	0.03940	31.3	13111	100
2025-3-27 15:13:45.720	WT901BLE68-01(48591DE3C19B)	-0.092	1.343	-0.315	-79.956	83.801	4.395	-97.49	48.53	-52.56	-44.590	-49.098	64.974	0.73245	-0.51166	0.44727	0.03940	31.3	13111	100
2025-3-27 15:13:45.750	WT901BLE68-01(48591DE3C19B)	-0.092	0.884	-0.105	-158.081	45.837	-7.874	-99.99	48.66	-53.72	-44.590	-49.098	64.974	0.73245	-0.51166	0.44727	0.03940	31.3	13111	100
2025-3-27 15:13:45.750	WT901BLE68-01(48591DE3C19B)	-0.298	0.884	-0.105	-158.081	45.837	-7.874	-102.67	48.75	-54.60	-44.590	-49.098	64.974	0.73245	-0.51166	0.44727	0.03940	31.3	13111	100
2025-3-27 15:13:45.750	WT901BLE68-01(48591DE3C19B)	-0.298	0.606	-0.049	-181.152	5.615	0.427	-105.26	48.91	-55.22	-44.590	-49.098	64.974	0.73245	-0.51166	0.44727	0.03940	31.3	13111	100
2025-3-27 15:13:45.750	WT901BLE68-01(48591DE3C19B)	-0.574	0.606	-0.049	-181.152	5.615	0.427	-107.76	49.16	-55.56	-44.590	-49.098	64.974	0.73245	-0.51166	0.44727	0.03940	31.3	13111	100
2025-3-27 15:13:45.811	WT901BLE68-01(48591DE3C19B)	-0.574	0.455	-0.612	-201.599	-37.170	33.569	-110.20	49.63	-55.69	-44.590	-49.098	64.974	0.73245	-0.51166	0.44727	0.03940	31.3	13111	100
2025-3-27 15:13:45.811	WT901BLE68-01(48591DE3C19B)	-1.537	0.455	-0.612	-201.599	-37.170	33.569	-112.58	50.30	-55.63	-44.590	-49.098	64.974	0.73245	-0.51166	0.44727	0.03940	31.3	13111	100
2025-3-27 15:13:45.811	WT901BLE68-01(48591DE3C19B)	-1.537	0.385	-1.075	-337.708	-95.093	81.726	-115.44	51.31	-55.35	-44.590	-49.098	64.974	0.73245	-0.51166	0.44727	0.03940	31.3	13111	100
2025-3-27 15:13:45.811	WT901BLE68-01(48591DE3C19B)	-4.120	0.385	-1.075	-337.708	-95.093	81.726	-118.80	52.64	-54.87	-44.590	-49.098	64.974	0.73245	-0.51166	0.44727	0.03940	31.3	13111	100
2025-3-27 15:13:45.870	WT901BLE68-01(48591DE3C19B)	-4.120	-0.526	-0.797	-395.935	-80.261	204.041	-122.99	54.45	-55.10	-44.590	-49.098	64.974	0.73245	-0.51166	0.44727	0.03940	31.3	13111	100
2025-3-27 15:13:45.871	WT901BLE68-01(48591DE3C19B)	-4.072	-0.526	-0.797	-395.935	-80.261	204.041	-128.13	56.71	-56.20	-44.590	-49.098	64.974	0.73245	-0.51166	0.44727	0.03940	31.3	13111	100
2025-3-27 15:13:45.871	WT901BLE68-01(48591DE3C19B)	-4.072	-0.634	-1.699	-279.114	2.502	216.919	-133.56	58.65	-58.33	-44.590	-49.098	64.974	0.73245	-0.51166	0.44727	0.03940	31.3	13111	100
2025-3-27 15:13:45.871	WT901BLE68-01(48591DE3C19B)	-4.396	-0.634	-1.699	-279.114	2.502	216.919	-139.31	60.19	-61.53	-67.914	-29.106	74.480	0.73245	-0.51166	0.44727	0.03940	31.3	13111	100
2025-3-27 15:13:45.871	WT901BLE68-01(48591DE3C19B)	-4.396	-1.041	-1.747	-289.307	72.571	283.081	-147.24	61.36	-67.09	-67.914	-29.106	74.480	0.73245	-0.51166	0.44727	0.03940	31.3	13111	100
2025-3-27 15:13:45.872	WT901BLE68-01(48591DE3C19B)	-3.183	-1.041	-1.747	-289.307	72.571	283.081	-155.54	62.12	-73.05	-67.914	-29.106	74.480	0.73245	-0.51166	0.44727	0.03940	31.3	13111	100
2025-3-27 15:13:45.872	WT901BLE68-01(48591DE3C19B)	-3.183	-1.661	-1.629	-297.913	28.320	280.396	-163.81	62.85	-78.87	-67.914	-29.106	74.480	0.73245	-0.51166	0.44727	0.03940	31.3	13111	100
2025-3-27 15:13:45.872	WT901BLE68-01(48591DE3C19B)	-1.903	-1.661	-1.629	-297.913	28.320	280.396	-172.25	63.18	-84.89	-67.914	-29.106	74.480	0.73245	-0.51166	0.44727	0.03940	31.3	13111	100
2025-3-27 15:13:45.931	WT901BLE68-01(48591DE3C19B)	-1.903	-1.513	-1.158	-208.374	35.400	234.192	-178.89	63.03	-89.91	-67.914	-29.106	74.480	0.73245	-0.51166	0.44727	0.03940	31.3	13111	100
2025-3-27 15:13:45.931	WT901BLE68-01(48591DE3C19B)	-1.370	-1.513	-1.158	-208.374	35.400	234.192	174.66	62.62	-94.75	-67.914	-29.106	74.480	0.73245	-0.51166	0.44727	0.03940	31.3	13111	100
2025-3-27 15:13:45.931	WT901BLE68-01(48591DE3C19B)	-1.370	-0.685	-0.513	-175.415	5.127	190.796	169.49	62.35	-98.54	-67.914	-29.106	74.480	0.73245	-0.51166	0.44727	0.03940	31.3	13111	100
2025-3-27 15:13:45.931	WT901BLE68-01(48591DE3C19B)	-0.884	-0.685	-0.513	-175.415	5.127	190.796	164.48	61.93	-102.18	-67.914	-29.106	74.480	0.73245	-0.51166	0.44727	0.03940	31.3	13111	100
2025-3-27 15:13:45.960	WT901BLE68-01(48591DE3C19B)	-0.884	-0.546	-0.201	-208.069	-82.886	135.498	159.74	62.37	-105.17	-67.914	-29.106	74.480	0.73245	-0.51166	0.44727	0.03940	31.3	13111	100
2025-3-27 15:13:45.960	WT901BLE68-01(48591DE3C19B)	-0.334	-0.546	-0.201	-208.069	-82.886	135.498	154.92	62.70	-108.24	-67.914	-29.106	74.480	0.73245	-0.51166	0.44727	0.03940	31.3	13111	100
2025-3-27 15:13:45.960	WT901BLE68-01(48591DE3C19B)	-0.334	-0.499	-0.118	-191.711	-163.208	86.365	150.31	63.85	-111.25	-67.914	-29.106	74.480	0.73245	-0.51166	0.44727	0.03940	31.3	13111	100
2025-3-27 15:13:45.960	WT901BLE68-01(48591DE3C19B)	0.313	-0.499	-0.118	-191.711	-163.208	86.365	145.43	64.87	-114.57	-67.914	-29.106	74.480	0.73245	-0.51166	0.44727	0.03940	31.3	13111	100
2025-3-27 15:13:45.990	WT901BLE68-01(48591DE3C19B)	0.313	-0.420	-0.163	-195.496	-182.617	15.381	141.21	66.35	-117.08	-67.914	-29.106	74.480	0.73245	-0.51166	0.44727	0.03940	31.3	13111	100
2025-3-27 15:13:45.990	WT901BLE68-01(48591DE3C19B)	0.759	-0.420	-0.163	-195.496	-182.617	15.381	136.63	67.73	-119.97	-67.914	-29.106	74.480	0.73245	-0.51166	0.44727	0.03940	31.3	13111	100
2025-3-27 15:13:45.990	WT901BLE68-01(48591DE3C19B)	0.759	-0.583	-0.223	-236.511	-144.043	-117.126	134.38	69.69	-119.89	-67.914	-29.106	74.480	0.73245	-0.51166	0.44727	0.03940	31.3	13111	100
2025-3-27 15:13:45.990	WT901BLE68-01(48591DE3C19B)	1.643	-0.583	-0.223	-236.511	-144.043	-117.126	132.03	71.64	-119.97	-67.914	-29.106	74.480	0.73245	-0.51166	0.44727	0.03940	31.3	13111	100
2025-3-27 15:13:46.141	WT901BLE68-01(48591DE3C19B)	1.643	-0.960	-0.440	-212.402	-143.433	-252.808	133.04	74.56	-116.80	-67.914	-29.106	74.480	0.73245	-0.51166	0.44727	0.03940	31.3	13111	100
2025-3-27 15:13:46.141	WT901BLE68-01(48591DE3C19B)	2.306	-0.960	-0.440	-212.402	-143.433	-252.808	135.32	77.43	-112.41	-67.914	-29.106	74.480	0.73245	-0.51166	0.44727	0.03940	31.3	13111	100
2025-3-27 15:13:46.141	WT901BLE68-01(48591DE3C19B)	2.306	-1.088	-0.010	-82.397	-174.927	-178.467	137.08	79.96	-109.93	-67.914	-29.106	74.480	0.73245	-0.51166	0.44727	0.03940	31.3	13111	100
2025-3-27 15:13:46.141	WT901BLE68-01(48591DE3C19B)	1.449	-1.088	-0.010	-82.397	-174.927	-178.467	140.83	82.44	-105.47	-67.914	-29.106	74.480	0.73245	-0.51166	0.44727	0.03940	31.3	13111	100
2025-3-27 15:13:46.142	WT901BLE68-01(48591DE3C19B)	1.449	-0.950	0.105	-101.013	-90.393	-163.513	151.63	84.03	-93.74	-67.914	-29.106	74.480	0.34915	-0.61206	0.41354	0.57645	31.3	13111	100
2025-3-27 15:13:46.142	WT901BLE68-01(48591DE3C19B)	1.214	-0.950	0.105	-101.013	-90.393	-163.513	169.54	85.23	-74.91	-67.914	-29.106	74.480	0.34915	-0.61206	0.41354	0.57645	31.3	13111	100
2025-3-27 15:13:46.142	WT901BLE68-01(48591DE3C19B)	1.214	-1.217	0.157	-62.256	-102.112	-255.676	-152.94	85.44	-36.81	-67.914	-29.106	74.480	0.34915	-0.61206	0.41354	0.57645	31.3	13111	100
2025-3-27 15:13:46.142	WT901BLE68-01(48591DE3C19B)	1.356	-1.217	0.157	-62.256	-102.112	-255.676	-124.55	83.90	-7.83	-67.914	-29.106	74.480	0.34915	-0.61206	0.41354	0.57645	31.3	13111	100
2025-3-27 15:13:46.143	WT901BLE68-01(48591DE3C19B)	1.356	-1.401	0.190	-9.766	-67.566	-321.716	-110.14	80.77	6.64	-67.914	-29.106	74.480	0.34915	-0.61206	0.41354	0.57645	31.3	13111	100
2025-3-27 15:13:46.143	WT901BLE68-01(48591DE3C19B)	1.167	-1.401	0.190	-9.766	-67.566	-321.716	-103.28	77.34	13.58	-67.914	-29.106	74.480	0.34915	-0.61206	0.41354	0.57645	31.3	13111	100
2025-3-27 15:13:46.143	WT901BLE68-01(48591DE3C19B)	1.167	-1.475	0.131	23.926	19.226	-370.300	-101.69	73.18	14.83	-67.914	-29.106	74.480	0.34915	-0.61206	0.41354	0.57645	31.3	13111	100
2025-3-27 15:13:46.143	WT901BLE68-01(48591DE3C19B)	0.825	-1.475	0.131	23.926	19.226	-370.300	-100.67	69.02	15.53	-67.914	-29.106	74.480	0.34915	-0.61206	0.41354	0.57645	31.3	13111	100
2025-3-27 15:13:46.170	WT901BLE68-01(48591DE3C19B)	0.825	-1.630	0.064	48.218	105.774	-394.531	-101.43	64.47	14.05	-67.914	-29.106	74.480	0.34915	-0.61206	0.41354	0.57645	31.3	13111	100
2025-3-27 15:13:46.170	WT901BLE68-01(48591DE3C19B)	0.221	-1.630	0.064	48.218	105.774	-394.531	-101.85	59.92	12.91	-67.914	-29.106	74.480	0.34915	-0.61206	0.41354	0.57645	31.3	13111	100
2025-3-27 15:13:46.170	WT901BLE68-01(48591DE3C19B)	0.221	-1.986	0.313	67.993	199.219	-366.882	-103.29	55.46	10.26	-67.914	-29.106	74.480	0.34915	-0.61206	0.41354	0.57645	31.3	13111	100
2025-3-27 15:13:46.170	WT901BLE68-01(48591DE3C19B)	-2.089	-1.986	0.313	67.993	199.219	-366.882	-104.25	50.99	8.06	-67.914	-29.106	74.480	0.34915	-0.61206	0.41354	0.57645	31.3	13111	100
2025-3-27 15:13:46.208	WT901BLE68-01(48591DE3C19B)	-2.089	-3.524	-0.056	69.702	269.775	-158.386	-106.24	48.38	4.35	-67.914	-29.106	74.480	0.34915	-0.61206	0.41354	0.57645	31.3	13111	100
2025-3-27 15:13:46.208	WT901BLE68-01(48591DE3C19B)	-5.228	-3.524	-0.056	69.702	269.775	-158.386	-107.85	45.75	0.98	-67.914	-29.106	74.480	0.34915	-0.61206	0.41354	0.57645	31.3	13111	100
2025-3-27 15:13:46.208	WT901BLE68-01(48591DE3C19B)	-5.228	-4.656	-0.564	299.866	194.580	-225.708	-106.00	42.79	-0.89	-67.914	-29.106	74.480	0.34915	-0.61206	0.41354	0.57645	31.3	13111	100
2025-3-27 15:13:46.208	WT901BLE68-01(48591DE3C19B)	-4.560	-4.656	-0.564	299.866	194.580	-225.708	-104.10	39.96	-2.75	-67.914	-29.106	74.480	0.34915	-0.61206	0.41354	0.57645	31.3	13111	100
2025-3-27 15:13:46.261	WT901BLE68-01(48591DE3C19B)	-4.560	-1.867	-0.492	308.960	100.220	-186.462	-101.42	37.85	-3.58	-67.914	-29.106	74.480	0.34915	-0.61206	0.41354	0.57645	31.3	13111	100
2025-3-27 15:13:46.261	WT901BLE68-01(48591DE3C19B)	-3.519	-1.867	-0.492	308.960	100.220	-186.462	-98.80	35.82	-4.48	-67.914	-29.106	74.480	0.34915	-0.61206	0.41354	0.57645	31.3	13111	100
2025-3-27 15:13:46.261	WT901BLE68-01(48591DE3C19B)	-3.519	-2.083	-0.170	186.584	222.351	-65.308	-98.40	34.85	-7.11	-67.914	-29.106	74.480	0.34915	-0.61206	0.41354	0.57645	31.3	13111	100
2025-3-27 15:13:46.261	WT901BLE68-01(48591DE3C19B)	-2.939	-2.083	-0.170	186.584	222.351	-65.308	-97.95	33.93	-9.70	-67.914	-29.106	74.480	0.34915	-0.61206	0.41354	0.57645	31.3	13111	100
2025-3-27 15:13:46.290	WT901BLE68-01(48591DE3C19B)	-2.939	-1.741	-0.094	235.291	258.423	23.865	-97.32	33.87	-12.83	-52.920	-33.320	73.108	0.34915	-0.61206	0.41354	0.57645	31.3	13111	100
2025-3-27 15:13:46.290	WT901BLE68-01(48591DE3C19B)	-2.061	-1.741	-0.094	235.291	258.423	23.865	-96.70	33.85	-15.95	-52.920	-33.320	73.108	0.34915	-0.61206	0.41354	0.57645	31.3	13111	100
2025-3-27 15:13:46.290	WT901BLE68-01(48591DE3C19B)	-2.061	-0.724	-0.121	283.203	208.801	49.316	-95.30	34.20	-18.50	-52.920	-33.320	73.108	0.34915	-0.61206	0.41354	0.57645	31.3	13111	100
2025-3-27 15:13:46.290	WT901BLE68-01(48591DE3C19B)	-1.540	-0.724	-0.121	283.203	208.801	49.316	-93.93	34.61	-21.04	-52.920	-33.320	73.108	0.34915	-0.61206	0.41354	0.57645	31.3	13111	100
2025-3-27 15:13:46.320	WT901BLE68-01(48591DE3C19B)	-1.163	0.035	-0.358	291.382	153.687	37.231	-92.11	34.99	-22.89	-52.920	-33.320	73.108	0.34915	-0.61206	0.41354	0.57645	31.3	13111	100
2025-3-27 15:13:46.320	WT901BLE68-01(48591DE3C19B)	-1.163	0.498	-0.545	261.353	106.201	23.193	-90.31	35.36	-24.44	-52.920	-33.320	73.108	0.34915	-0.61206	0.41354	0.57645	31.3	13111	100
2025-3-27 15:13:46.320	WT901BLE68-01(48591DE3C19B)	-0.734	0.498	-0.545	261.353	106.201	23.193	-88.52	35.72	-25.69	-52.920	-33.320	73.108	0.34915	-0.61206	0.41354	0.57645	31.3	13111	100
2025-3-27 15:13:46.320	WT901BLE68-01(48591DE3C19B)	-0.734	0.698	-0.497	159.729	69.641	37.659	-87.13	36.18	-26.70	-52.920	-33.320	73.108	0.34915	-0.61206	0.41354	0.57645	31.3	13111	100
2025-3-27 15:13:46.380	WT901BLE68-01(48591DE3C19B)	-0.489	0.698	-0.497	159.729	69.641	37.659	-86.14	36.73	-27.48	-52.920	-33.320	73.108	0.34915	-0.61206	0.41354	0.57645	31.3	13111	100
2025-3-27 15:13:46.380	WT901BLE68-01(48591DE3C19B)	-0.489	0.709	-0.387	91.248	42.114	37.354	-85.41	37.29	-28.09	-52.920	-33.320	73.108	0.34915	-0.61206	0.41354	0.57645	31.3	13111	100
2025-3-27 15:13:46.380	WT901BLE68-01(48591DE3C19B)	-0.216	0.709	-0.387	91.248	42.114	37.354	-84.94	37.85	-28.53	-52.920	-33.320	73.108	0.34915	-0.61206	0.41354	0.57645	31.3	13111	100
2025-3-27 15:13:46.380	WT901BLE68-01(48591DE3C19B)	-0.216	0.598	-0.434	64.636	13.855	50.415	-84.50	38.47	-28.78	-52.920	-33.320	73.108	0.34915	-0.61206	0.41354	0.57645	31.3	13111	100
2025-3-27 15:13:46.411	WT901BLE68-01(48591DE3C19B)	-0.043	0.598	-0.434	64.636	13.855	50.415	-84.11	39.16	-28.85	-52.920	-33.320	73.108	0.34915	-0.61206	0.41354	0.57645	31.3	13111	100
2025-3-27 15:13:46.411	WT901BLE68-01(48591DE3C19B)	-0.043	0.651	-0.487	73.669	27.039	47.791	-83.74	39.85	-29.01	-52.920	-33.320	73.108	0.34915	-0.61206	0.41354	0.57645	31.3	13111	100
2025-3-27 15:13:46.411	WT901BLE68-01(48591DE3C19B)	0.130	0.651	-0.487	73.669	27.039	47.791	-83.42	40.55	-29.28	-52.920	-33.320	73.108	0.34915	-0.61206	0.41354	0.57645	31.3	13111	100
2025-3-27 15:13:46.411	WT901BLE68-01(48591DE3C19B)	0.130	0.939	-0.544	67.444	43.579	42.603	-83.24	41.23	-29.68	-52.920	-33.320	73.108	0.34915	-0.61206	0.41354	0.57645	31.3	13111	100
2025-3-27 15:13:46.440	WT901BLE68-01(48591DE3C19B)	0.351	0.939	-0.544	67.444	43.579	42.603	-83.20	41.92	-30.22	-52.920	-33.320	73.108	0.34915	-0.61206	0.41354	0.57645	31.3	13111	100
2025-3-27 15:13:46.440	WT901BLE68-01(48591DE3C19B)	0.351	1.304	-0.522	-11.047	34.363	44.861	-83.58	42.63	-30.74	-52.920	-33.320	73.108	0.34915	-0.61206	0.41354	0.57645	31.3	13111	100
2025-3-27 15:13:46.441	WT901BLE68-01(48591DE3C19B)	0.329	1.304	-0.522	-11.047	34.363	44.861	-84.38	43.37	-31.25	-52.920	-33.320	73.108	0.72769	-0.52744	0.43481	0.05563	31.3	13111	100
2025-3-27 15:13:46.441	WT901BLE68-01(48591DE3C19B)	0.329	1.078	-0.432	-110.352	31.067	17.700	-85.73	44.00	-31.82	-52.920	-33.320	73.108	0.72769	-0.52744	0.43481	0.05563	31.3	13111	100
2025-3-27 15:13:46.509	WT901BLE68-01(48591DE3C19B)	0.020	1.078	-0.432	-110.352	31.067	17.700	-87.64	44.50	-32.45	-52.920	-33.320	73.108	0.72769	-0.52744	0.43481	0.05563	31.3	13111	100
2025-3-27 15:13:46.509	WT901BLE68-01(48591DE3C19B)	0.020	0.731	-0.129	-175.720	36.499	6.897	-89.94	44.95	-33.17	-52.920	-33.320	73.108	0.72769	-0.52744	0.43481	0.05563	31.3	13111	100
2025-3-27 15:13:46.509	WT901BLE68-01(48591DE3C19B)	-0.291	0.731	-0.129	-175.720	36.499	6.897	-92.62	45.34	-33.97	-52.920	-33.320	73.108	0.72769	-0.52744	0.43481	0.05563	31.3	13111	100
2025-3-27 15:13:46.509	WT901BLE68-01(48591DE3C19B)	-0.291	0.483	-0.108	-183.594	19.775	16.357	-95.27	45.77	-34.67	-52.920	-33.320	73.108	0.72769	-0.52744	0.43481	0.05563	31.3	13111	100
2025-3-27 15:13:46.531	WT901BLE68-01(48591DE3C19B)	-0.620	0.483	-0.108	-183.594	19.775	16.357	-97.89	46.24	-35.28	-52.920	-33.320	73.108	0.72769	-0.52744	0.43481	0.05563	31.3	13111	100
2025-3-27 15:13:46.531	WT901BLE68-01(48591DE3C19B)	-0.620	0.356	-0.584	-214.111	-11.230	50.903	-100.55	46.90	-35.73	-52.920	-33.320	73.108	0.72769	-0.52744	0.43481	0.05563	31.3	13111	100
2025-3-27 15:13:46.531	WT901BLE68-01(48591DE3C19B)	-1.978	0.356	-0.584	-214.111	-11.230	50.903	-103.25	47.71	-36.04	-52.920	-33.320	73.108	0.72769	-0.52744	0.43481	0.05563	31.3	13111	100
2025-3-27 15:13:46.531	WT901BLE68-01(48591DE3C19B)	-1.978	0.222	-0.821	-376.465	-21.362	117.615	-106.83	48.85	-36.45	-52.920	-33.320	73.108	0.72769	-0.52744	0.43481	0.05563	31.3	13111	100
2025-3-27 15:13:46.560	WT901BLE68-01(48591DE3C19B)	-4.216	0.222	-0.821	-376.465	-21.362	117.615	-111.30	50.26	-37.01	-52.920	-33.320	73.108	0.72769	-0.52744	0.43481	0.05563	31.3	13111	100
2025-3-27 15:13:46.560	WT901BLE68-01(48591DE3C19B)	-4.216	-0.599	-1.046	-325.623	62.683	243.469	-116.41	52.02	-38.74	-52.920	-33.320	73.108	0.72769	-0.52744	0.43481	0.05563	31.3	13111	100
2025-3-27 15:13:46.560	WT901BLE68-01(48591DE3C19B)	-4.405	-0.599	-1.046	-325.623	62.683	243.469	-122.32	54.00	-41.80	-52.920	-33.320	73.108	0.72769	-0.52744	0.43481	0.05563	31.3	13111	100
2025-3-27 15:13:46.560	WT901BLE68-01(48591DE3C19B)	-4.405	-0.697	-1.608	-287.415	122.925	259.338	-128.80	55.63	-45.77	-52.920	-33.320	73.108	0.72769	-0.52744	0.43481	0.05563	31.3	13111	100
2025-3-27 15:13:46.621	WT901BLE68-01(48591DE3C19B)	-4.793	-0.697	-1.608	-287.415	122.925	259.338	-135.87	56.82	-50.64	-52.920	-33.320	73.108	0.72769	-0.52744	0.43481	0.05563	31.3	13111	100
2025-3-27 15:13:46.621	WT901BLE68-01(48591DE3C19B)	-4.793	-0.932	-1.457	-277.039	32.715	291.199	-142.95	58.11	-55.54	-52.920	-33.320	73.108	0.72769	-0.52744	0.43481	0.05563	31.3	13111	100
2025-3-27 15:13:46.621	WT901BLE68-01(48591DE3C19B)	-3.396	-0.932	-1.457	-277.039	32.715	291.199	-150.16	59.51	-60.60	-52.920	-33.320	73.108	0.72769	-0.52744	0.43481	0.05563	31.3	13111	100
2025-3-27 15:13:46.621	WT901BLE68-01(48591DE3C19B)	-3.396	-1.415	-1.389	-306.824	-58.044	285.522	-157.58	60.95	-65.69	-52.920	-33.320	73.108	0.72769	-0.52744	0.43481	0.05563	31.3	13111	100
2025-3-27 15:13:46.650	WT901BLE68-01(48591DE3C19B)	-2.011	-1.415	-1.389	-306.824	-58.044	285.522	-165.34	62.45	-70.94	-52.920	-33.320	73.108	0.72769	-0.52744	0.43481	0.05563	31.3	13111	100
2025-3-27 15:13:46.650	WT901BLE68-01(48591DE3C19B)	-2.011	-1.755	-1.080	-259.949	-44.067	255.493	-173.13	63.49	-76.46	-52.920	-33.320	73.108	0.72769	-0.52744	0.43481	0.05563	31.3	13111	100
2025-3-27 15:13:46.650	WT901BLE68-01(48591DE3C19B)	-1.233	-1.755	-1.080	-259.949	-44.067	255.493	179.26	64.09	-82.01	-52.920	-33.320	73.108	0.72769	-0.52744	0.43481	0.05563	31.3	13111	100
2025-3-27 15:13:46.650	WT901BLE68-01(48591DE3C19B)	-1.233	-1.305	-0.502	-193.115	-34.851	206.360	172.38	64.36	-87.13	-62.818	-38.318	74.088	0.72769	-0.52744	0.43481	0.05563	31.3	13111	100
2025-3-27 15:13:46.680	WT901BLE68-01(48591DE3C19B)	-0.709	-1.305	-0.502	-193.115	-34.851	206.360	166.35	64.37	-91.68	-62.818	-38.318	74.088	0.72769	-0.52744	0.43481	0.05563	31.3	13111	100
2025-3-27 15:13:46.680	WT901BLE68-01(48591DE3C19B)	-0.709	-0.887	-0.119	-204.956	-83.435	143.738	160.82	64.51	-95.65	-62.818	-38.318	74.088	0.72769	-0.52744	0.43481	0.05563	31.3	13111	100
2025-3-27 15:13:46.680	WT901BLE68-01(48591DE3C19B)	-0.130	-0.887	-0.119	-204.956	-83.435	143.738	155.65	64.82	-99.14	-62.818	-38.318	74.088	0.72769	-0.52744	0.43481	0.05563	31.3	13111	100
2025-3-27 15:13:46.680	WT901BLE68-01(48591DE3C19B)	-0.130	-0.800	-0.002	-219.971	-158.630	88.745	150.50	65.47	-102.54	-62.818	-38.318	74.088	0.72769	-0.52744	0.43481	0.05563	31.3	13111	100
2025-3-27 15:13:46.740	WT901BLE68-01(48591DE3C19B)	0.422	-0.800	-0.002	-219.971	-158.630	88.745	145.16	66.45	-106.03	-62.818	-38.318	74.088	0.72769	-0.52744	0.43481	0.05563	31.3	13111	100
2025-3-27 15:13:46.740	WT901BLE68-01(48591DE3C19B)	0.422	-0.871	-0.106	-241.150	-196.228	35.095	139.64	67.60	-109.61	-62.818	-38.318	74.088	0.72769	-0.52744	0.43481	0.05563	31.3	13111	100
2025-3-27 15:13:46.741	WT901BLE68-01(48591DE3C19B)	1.000	-0.871	-0.106	-241.150	-196.228	35.095	133.80	68.92	-113.41	-62.818	-38.318	74.088	0.72769	-0.52744	0.43481	0.05563	31.3	13111	100
2025-3-27 15:13:46.741	WT901BLE68-01(48591DE3C19B)	1.000	-1.034	-0.273	-253.967	-126.831	-99.915	129.33	70.39	-115.68	-62.818	-38.318	74.088	0.72769	-0.52744	0.43481	0.05563	31.3	13111	100
2025-3-27 15:13:46.806	WT901BLE68-01(48591DE3C19B)	1.951	-1.034	-0.273	-253.967	-126.831	-99.915	126.48	72.11	-116.15	-62.818	-38.318	74.088	0.72769	-0.52744	0.43481	0.05563	31.3	13111	100
2025-3-27 15:13:46.806	WT901BLE68-01(48591DE3C19B)	1.951	-1.211	-0.387	-150.391	-93.872	-271.667	126.21	74.42	-114.51	-62.818	-38.318	74.088	0.72769	-0.52744	0.43481	0.05563	31.3	13111	100
2025-3-27 15:13:46.806	WT901BLE68-01(48591DE3C19B)	2.257	-1.211	-0.387	-150.391	-93.872	-271.667	129.95	77.27	-109.31	-62.818	-38.318	74.088	0.72769	-0.52744	0.43481	0.05563	31.3	13111	100
2025-3-27 15:13:46.806	WT901BLE68-01(48591DE3C19B)	2.257	-0.829	0.166	-58.472	-101.318	-164.429	133.12	79.26	-105.69	-62.818	-38.318	74.088	0.72769	-0.52744	0.43481	0.05563	31.3	13111	100
2025-3-27 15:13:46.807	WT901BLE68-01(48591DE3C19B)	1.350	-0.829	0.166	-58.472	-101.318	-164.429	138.20	81.17	-100.17	-62.818	-38.318	74.088	0.72769	-0.52744	0.43481	0.05563	31.3	13111	100
2025-3-27 15:13:46.807	WT901BLE68-01(48591DE3C19B)	1.350	-1.027	0.152	-91.370	-14.465	-202.576	151.98	82.41	-85.55	-62.818	-38.318	74.088	0.72769	-0.52744	0.43481	0.05563	31.3	13111	100
2025-3-27 15:13:46.807	WT901BLE68-01(48591DE3C19B)	1.013	-1.027	0.152	-91.370	-14.465	-202.576	169.79	83.01	-66.91	-62.818	-38.318	74.088	0.72769	-0.52744	0.43481	0.05563	31.3	13111	100
2025-3-27 15:13:46.807	WT901BLE68-01(48591DE3C19B)	1.013	-1.229	0.189	-20.874	0.977	-275.146	-165.34	82.51	-41.86	-62.818	-38.318	74.088	0.72769	-0.52744	0.43481	0.05563	31.3	13111	100
2025-3-27 15:13:46.861	WT901BLE68-01(48591DE3C19B)	0.787	-1.229	0.189	-20.874	0.977	-275.146	-146.63	80.85	-22.97	-62.818	-38.318	74.088	0.72769	-0.52744	0.43481	0.05563	31.3	13111	100
2025-3-27 15:13:46.861	WT901BLE68-01(48591DE3C19B)	0.787	-1.228	0.083	37.537	37.659	-320.618	-133.80	77.96	-10.51	-62.818	-38.318	74.088	0.72769	-0.52744	0.43481	0.05563	31.3	13111	100
2025-3-27 15:13:46.861	WT901BLE68-01(48591DE3C19B)	0.453	-1.228	0.083	37.537	37.659	-320.618	-126.10	74.71	-3.19	-62.818	-38.318	74.088	0.72769	-0.52744	0.43481	0.05563	31.3	13111	100
2025-3-27 15:13:46.861	WT901BLE68-01(48591DE3C19B)	0.453	-1.231	-0.053	68.848	71.899	-342.957	-121.31	70.93	0.89	-62.818	-38.318	74.088	0.72769	-0.52744	0.43481	0.05563	31.3	13111	100
2025-3-27 15:13:46.920	WT901BLE68-01(48591DE3C19B)	-0.043	-1.231	-0.053	68.848	71.899	-342.957	-118.00	67.09	3.50	-62.818	-38.318	74.088	0.41452	-0.72272	0.26263	0.48657	31.3	13111	100
2025-3-27 15:13:46.920	WT901BLE68-01(48591DE3C19B)	-0.043	-1.453	0.101	77.759	110.901	-343.811	-116.13	63.05	4.50	-62.818	-38.318	74.088	0.41452	-0.72272	0.26263	0.48657	31.3	13111	100
2025-3-27 15:13:46.920	WT901BLE68-01(48591DE3C19B)	-1.615	-1.453	0.101	77.759	110.901	-343.811	-114.61	59.02	5.14	-62.818	-38.318	74.088	0.41452	-0.72272	0.26263	0.48657	31.3	13111	100
2025-3-27 15:13:46.920	WT901BLE68-01(48591DE3C19B)	-1.615	-2.291	0.218	91.675	144.714	-231.689	-114.30	55.92	4.19	-62.818	-38.318	74.088	0.41452	-0.72272	0.26263	0.48657	31.3	13111	100
2025-3-27 15:13:46.921	WT901BLE68-01(48591DE3C19B)	-3.804	-2.291	0.218	91.675	144.714	-231.689	-113.88	52.87	3.32	-62.818	-38.318	74.088	0.41452	-0.72272	0.26263	0.48657	31.3	13111	100
2025-3-27 15:13:46.921	WT901BLE68-01(48591DE3C19B)	-3.804	-3.675	0.076	188.049	142.517	-225.586	-112.45	49.98	2.48	-62.818	-38.318	74.088	0.41452	-0.72272	0.26263	0.48657	31.3	13111	100
2025-3-27 15:13:46.921	WT901BLE68-01(48591DE3C19B)	-3.612	-3.675	0.076	188.049	142.517	-225.586	-111.02	47.17	1.63	-62.818	-38.318	74.088	0.41452	-0.72272	0.26263	0.48657	31.3	13111	100
2025-3-27 15:13:46.921	WT901BLE68-01(48591DE3C19B)	-3.612	-2.263	-0.460	293.091	158.813	-185.303	-108.87	44.76	0.31	-62.818	-38.318	74.088	0.41452	-0.72272	0.26263	0.48657	31.3	13111	100
2025-3-27 15:13:46.980	WT901BLE68-01(48591DE3C19B)	-3.788	-2.263	-0.460	293.091	158.813	-185.303	-106.75	42.45	-1.04	-62.818	-38.318	74.088	0.41452	-0.72272	0.26263	0.48657	31.3	13111	100
2025-3-27 15:13:46.980	WT901BLE68-01(48591DE3C19B)	-3.788	-1.196	-0.347	255.127	248.596	-81.177	-106.05	40.94	-3.97	-62.818	-38.318	74.088	0.41452	-0.72272	0.26263	0.48657	31.3	13111	100
2025-3-27 15:13:46.980	WT901BLE68-01(48591DE3C19B)	-3.272	-1.196	-0.347	255.127	248.596	-81.177	-105.27	39.51	-6.82	-62.818	-38.318	74.088	0.41452	-0.72272	0.26263	0.48657	31.3	13111	100
2025-3-27 15:13:46.981	WT901BLE68-01(48591DE3C19B)	-3.272	-1.380	-0.120	180.481	216.675	-16.174	-105.07	38.83	-9.45	-62.818	-38.318	74.088	0.41452	-0.72272	0.26263	0.48657	31.3	13111	100
2025-3-27 15:13:47.10	WT901BLE68-01(48591DE3C19B)	-2.350	-1.380	-0.120	180.481	216.675	-16.174	-104.84	38.18	-12.05	-62.818	-38.318	74.088	0.41452	-0.72272	0.26263	0.48657	31.3	13111	100
2025-3-27 15:13:47.10	WT901BLE68-01(48591DE3C19B)	-2.350	-1.022	-0.071	215.515	185.059	23.865	-104.09	38.03	-14.36	-62.818	-38.318	74.088	0.41452	-0.72272	0.26263	0.48657	31.3	13111	100
2025-3-27 15:13:47.10	WT901BLE68-01(48591DE3C19B)	-1.878	-1.022	-0.071	215.515	185.059	23.865	-103.34	37.91	-16.67	-62.818	-38.318	74.088	0.41452	-0.72272	0.26263	0.48657	31.3	13111	100
2025-3-27 15:13:47.10	WT901BLE68-01(48591DE3C19B)	-1.878	-0.375	-0.166	233.826	149.048	46.326	-102.19	38.13	-18.60	-62.818	-38.318	74.088	0.41452	-0.72272	0.26263	0.48657	31.3	13111	100
2025-3-27 15:13:47.42	WT901BLE68-01(48591DE3C19B)	-1.346	-0.375	-0.166	233.826	149.048	46.326	-101.06	38.40	-20.52	-62.818	-38.318	74.088	0.41452	-0.72272	0.26263	0.48657	31.3	13111	100
2025-3-27 15:13:47.42	WT901BLE68-01(48591DE3C19B)	-1.346	-0.008	-0.363	203.979	93.506	40.466	-99.81	38.74	-21.73	-62.818	-38.318	74.088	0.41452	-0.72272	0.26263	0.48657	31.3	13111	100
2025-3-27 15:13:47.42	WT901BLE68-01(48591DE3C19B)	-0.813	-0.008	-0.363	203.979	93.506	40.466	-98.59	39.11	-22.93	-62.818	-38.318	74.088	0.41452	-0.72272	0.26263	0.48657	31.3	13111	100
2025-3-27 15:13:47.42	WT901BLE68-01(48591DE3C19B)	-0.813	0.198	-0.441	203.979	67.261	45.532	-97.17	39.59	-23.81	-62.818	-38.318	74.088	0.41452	-0.72272	0.26263	0.48657	31.3	13111	100
2025-3-27 15:13:47.107	WT901BLE68-01(48591DE3C19B)	-0.474	0.198	-0.441	203.979	67.261	45.532	-95.79	40.11	-24.69	-62.818	-38.318	74.088	0.41452	-0.72272	0.26263	0.48657	31.3	13111	100
2025-3-27 15:13:47.107	WT901BLE68-01(48591DE3C19B)	-0.474	0.460	-0.306	202.393	75.317	26.123	-94.49	40.44	-25.65	-52.038	-19.992	74.676	0.41452	-0.72272	0.26263	0.48657	31.3	13111	100
2025-3-27 15:13:47.107	WT901BLE68-01(48591DE3C19B)	-0.192	0.460	-0.306	202.393	75.317	26.123	-93.21	40.79	-26.60	-52.038	-19.992	74.676	0.41452	-0.72272	0.26263	0.48657	31.3	13111	100
2025-3-27 15:13:47.108	WT901BLE68-01(48591DE3C19B)	-0.192	0.713	-0.206	170.654	80.811	21.423	-92.32	41.12	-27.63	-52.038	-19.992	74.676	0.41452	-0.72272	0.26263	0.48657	31.3	13111	100
2025-3-27 15:13:47.130	WT901BLE68-01(48591DE3C19B)	0.033	0.713	-0.206	170.654	80.811	21.423	-91.46	41.47	-28.66	-52.038	-19.992	74.676	0.41452	-0.72272	0.26263	0.48657	31.3	13111	100
2025-3-27 15:13:47.130	WT901BLE68-01(48591DE3C19B)	0.033	0.967	-0.235	126.465	75.378	64.209	-91.03	42.28	-29.64	-52.038	-19.992	74.676	0.41452	-0.72272	0.26263	0.48657	31.3	13111	100
2025-3-27 15:13:47.131	WT901BLE68-01(48591DE3C19B)	0.296	0.967	-0.235	126.465	75.378	64.209	-90.65	43.11	-30.64	-52.038	-19.992	74.676	0.41452	-0.72272	0.26263	0.48657	31.3	13111	100
2025-3-27 15:13:47.131	WT901BLE68-01(48591DE3C19B)	0.296	1.204	-0.326	73.059	53.955	58.594	-90.67	43.91	-31.37	-52.038	-19.992	74.676	0.41452	-0.72272	0.26263	0.48657	31.3	13111	100
2025-3-27 15:13:47.160	WT901BLE68-01(48591DE3C19B)	0.447	1.204	-0.326	73.059	53.955	58.594	-90.75	44.74	-32.15	-52.038	-19.992	74.676	0.41452	-0.72272	0.26263	0.48657	31.3	13111	100
2025-3-27 15:13:47.160	WT901BLE68-01(48591DE3C19B)	0.447	1.211	-0.308	-9.094	45.471	16.174	-91.64	45.16	-32.85	-52.038	-19.992	74.676	0.41452	-0.72272	0.26263	0.48657	31.3	13111	100
2025-3-27 15:13:47.160	WT901BLE68-01(48591DE3C19B)	0.213	1.211	-0.308	-9.094	45.471	16.174	-92.59	45.61	-33.61	-52.038	-19.992	74.676	0.41452	-0.72272	0.26263	0.48657	31.3	13111	100
2025-3-27 15:13:47.160	WT901BLE68-01(48591DE3C19B)	0.213	0.892	-0.207	-66.589	59.021	-4.944	-94.31	45.85	-34.60	-52.038	-19.992	74.676	0.41452	-0.72272	0.26263	0.48657	31.3	13111	100
2025-3-27 15:13:47.221	WT901BLE68-01(48591DE3C19B)	-0.042	0.892	-0.207	-66.589	59.021	-4.944	-96.06	46.09	-35.64	-52.038	-19.992	74.676	0.41452	-0.72272	0.26263	0.48657	31.3	13111	100
2025-3-27 15:13:47.221	WT901BLE68-01(48591DE3C19B)	-0.042	0.740	-0.079	-96.680	49.438	-5.249	-98.04	46.33	-36.56	-52.038	-19.992	74.676	0.41452	-0.72272	0.26263	0.48657	31.3	13111	100
2025-3-27 15:13:47.221	WT901BLE68-01(48591DE3C19B)	-0.320	0.740	-0.079	-96.680	49.438	-5.249	-100.04	46.56	-37.50	-52.038	-19.992	74.676	0.41452	-0.72272	0.26263	0.48657	31.3	13111	100
2025-3-27 15:13:47.221	WT901BLE68-01(48591DE3C19B)	-0.918	0.538	-0.227	-133.545	29.541	-5.798	-102.19	46.80	-38.17	-52.038	-19.992	74.676	0.41452	-0.72272	0.26263	0.48657	31.3	13111	100
2025-3-27 15:13:47.250	WT901BLE68-01(48591DE3C19B)	-0.918	0.451	-0.786	-204.529	-42.236	27.710	-104.39	47.27	-38.39	-52.038	-19.992	74.676	0.41452	-0.72272	0.26263	0.48657	31.3	13111	100
2025-3-27 15:13:47.250	WT901BLE68-01(48591DE3C19B)	-3.215	0.451	-0.786	-204.529	-42.236	27.710	-106.59	47.96	-38.18	-52.038	-19.992	74.676	0.41452	-0.72272	0.26263	0.48657	31.3	13111	100
2025-3-27 15:13:47.250	WT901BLE68-01(48591DE3C19B)	-3.215	-0.077	-0.487	-380.066	-14.099	123.535	-109.99	49.05	-38.41	-52.038	-19.992	74.676	0.41452	-0.72272	0.26263	0.48657	31.3	13111	100
2025-3-27 15:13:47.251	WT901BLE68-01(48591DE3C19B)	-4.394	-0.077	-0.487	-380.066	-14.099	123.535	-114.59	50.49	-39.13	-52.038	-19.992	74.676	0.58063	-0.63992	0.47202	0.17453	31.3	13111	100
2025-3-27 15:13:47.280	WT901BLE68-01(48591DE3C19B)	-4.394	-0.568	-1.126	-247.253	58.899	219.238	-119.28	52.12	-40.85	-52.038	-19.992	74.676	0.58063	-0.63992	0.47202	0.17453	31.3	13111	100
2025-3-27 15:13:47.280	WT901BLE68-01(48591DE3C19B)	-4.389	-0.568	-1.126	-247.253	58.899	219.238	-124.22	53.86	-43.70	-52.038	-19.992	74.676	0.58063	-0.63992	0.47202	0.17453	31.3	13111	100
2025-3-27 15:13:47.280	WT901BLE68-01(48591DE3C19B)	-4.389	-1.032	-1.284	-261.963	91.675	263.245	-129.89	55.48	-47.34	-52.038	-19.992	74.676	0.58063	-0.63992	0.47202	0.17453	31.3	13111	100
2025-3-27 15:13:47.280	WT901BLE68-01(48591DE3C19B)	-4.116	-1.032	-1.284	-261.963	91.675	263.245	-136.37	56.89	-51.82	-52.038	-19.992	74.676	0.58063	-0.63992	0.47202	0.17453	31.3	13111	100
2025-3-27 15:13:47.340	WT901BLE68-01(48591DE3C19B)	-4.116	-1.230	-1.095	-245.728	-3.784	273.743	-142.72	58.40	-56.21	-52.038	-19.992	74.676	0.58063	-0.63992	0.47202	0.17453	31.3	13111	100
2025-3-27 15:13:47.340	WT901BLE68-01(48591DE3C19B)	-2.696	-1.230	-1.095	-245.728	-3.784	273.743	-149.03	60.05	-60.58	-52.038	-19.992	74.676	0.58063	-0.63992	0.47202	0.17453	31.3	13111	100
2025-3-27 15:13:47.341	WT901BLE68-01(48591DE3C19B)	-2.696	-1.405	-0.940	-244.019	-66.528	257.324	-155.43	61.67	-65.02	-52.038	-19.992	74.676	0.58063	-0.63992	0.47202	0.17453	31.3	13111	100
2025-3-27 15:13:47.341	WT901BLE68-01(48591DE3C19B)	-1.657	-1.405	-0.940	-244.019	-66.528	257.324	-162.00	63.28	-69.59	-52.038	-19.992	74.676	0.58063	-0.63992	0.47202	0.17453	31.3	13111	100
2025-3-27 15:13:47.370	WT901BLE68-01(48591DE3C19B)	-1.657	-1.212	-0.461	-183.228	-81.970	223.145	-168.43	64.65	-74.31	-52.038	-19.992	74.676	0.58063	-0.63992	0.47202	0.17453	31.3	13111	100
2025-3-27 15:13:47.370	WT901BLE68-01(48591DE3C19B)	-0.997	-1.212	-0.461	-183.228	-81.970	223.145	-174.64	65.84	-79.10	-52.038	-19.992	74.676	0.58063	-0.63992	0.47202	0.17453	31.3	13111	100
2025-3-27 15:13:47.370	WT901BLE68-01(48591DE3C19B)	-0.997	-0.772	-0.160	-161.743	-148.560	182.434	179.27	67.12	-83.81	-52.038	-19.992	74.676	0.58063	-0.63992	0.47202	0.17453	31.3	13111	100
2025-3-27 15:13:47.370	WT901BLE68-01(48591DE3C19B)	-0.244	-0.772	-0.160	-161.743	-148.560	182.434	173.20	68.53	-88.60	-52.038	-19.992	74.676	0.58063	-0.63992	0.47202	0.17453	31.3	13111	100
2025-3-27 15:13:47.406	WT901BLE68-01(48591DE3C19B)	-0.244	-0.662	-0.167	-185.364	-219.116	125.000	166.93	70.13	-93.43	-52.038	-19.992	74.676	0.58063	-0.63992	0.47202	0.17453	31.3	13111	100
2025-3-27 15:13:47.406	WT901BLE68-01(48591DE3C19B)	0.615	-0.662	-0.167	-185.364	-219.116	125.000	160.18	71.93	-98.60	-52.038	-19.992	74.676	0.58063	-0.63992	0.47202	0.17453	31.3	13111	100
2025-3-27 15:13:47.406	WT901BLE68-01(48591DE3C19B)	0.615	-0.682	-0.264	-196.228	-227.478	49.316	153.33	73.71	-103.78	-52.038	-19.992	74.676	0.58063	-0.63992	0.47202	0.17453	31.3	13111	100
2025-3-27 15:13:47.406	WT901BLE68-01(48591DE3C19B)	0.986	-0.682	-0.264	-196.228	-227.478	49.316	146.30	75.50	-109.05	-52.038	-19.992	74.676	0.58063	-0.63992	0.47202	0.17453	31.3	13111	100
2025-3-27 15:13:47.460	WT901BLE68-01(48591DE3C19B)	0.986	-0.735	-0.310	-211.426	-135.193	-44.495	140.59	77.03	-112.86	-52.038	-19.992	74.676	0.58063	-0.63992	0.47202	0.17453	31.3	13111	100
2025-3-27 15:13:47.460	WT901BLE68-01(48591DE3C19B)	1.905	-0.735	-0.310	-211.426	-135.193	-44.495	136.97	78.42	-114.46	-52.038	-19.992	74.676	0.58063	-0.63992	0.47202	0.17453	31.3	13111	100
2025-3-27 15:13:47.461	WT901BLE68-01(48591DE3C19B)	1.905	-1.286	-0.527	-186.157	-99.365	-199.585	136.87	80.20	-112.62	-52.038	-19.992	74.676	0.58063	-0.63992	0.47202	0.17453	31.3	13111	100
2025-3-27 15:13:47.461	WT901BLE68-01(48591DE3C19B)	2.364	-1.286	-0.527	-186.157	-99.365	-199.585	142.98	82.30	-104.66	-52.038	-19.992	74.676	0.58063	-0.63992	0.47202	0.17453	31.3	13111	100
2025-3-27 15:13:47.490	WT901BLE68-01(48591DE3C19B)	2.364	-1.106	0.065	-49.805	-100.281	-113.403	151.62	83.97	-94.89	-49.882	-51.548	68.698	0.58063	-0.63992	0.47202	0.17453	31.3	13111	100
2025-3-27 15:13:47.490	WT901BLE68-01(48591DE3C19B)	1.312	-1.106	0.065	-49.805	-100.281	-113.403	163.00	85.23	-83.11	-49.882	-51.548	68.698	0.58063	-0.63992	0.47202	0.17453	31.3	13111	100
2025-3-27 15:13:47.490	WT901BLE68-01(48591DE3C19B)	1.312	-0.732	0.116	-75.500	-18.677	-155.212	-175.81	85.70	-61.38	-49.882	-51.548	68.698	0.58063	-0.63992	0.47202	0.17453	31.3	13111	100
2025-3-27 15:13:47.490	WT901BLE68-01(48591DE3C19B)	1.100	-0.732	0.116	-75.500	-18.677	-155.212	-153.30	85.02	-38.19	-49.882	-51.548	68.698	0.58063	-0.63992	0.47202	0.17453	31.3	13111	100
2025-3-27 15:13:47.580	WT901BLE68-01(48591DE3C19B)	1.100	-1.108	0.009	-76.477	-18.372	-251.404	-135.03	83.42	-19.22	-49.882	-51.548	68.698	0.58063	-0.63992	0.47202	0.17453	31.3	13111	100
2025-3-27 15:13:47.580	WT901BLE68-01(48591DE3C19B)	1.110	-1.108	0.009	-76.477	-18.372	-251.404	-123.05	81.01	-6.49	-49.882	-51.548	68.698	0.58063	-0.63992	0.47202	0.17453	31.3	13111	100
2025-3-27 15:13:47.580	WT901BLE68-01(48591DE3C19B)	1.110	-1.331	-0.066	-36.011	23.071	-310.425	-116.58	78.01	0.51	-49.882	-51.548	68.698	0.58063	-0.63992	0.47202	0.17453	31.3	13111	100
2025-3-27 15:13:47.581	WT901BLE68-01(48591DE3C19B)	0.849	-1.331	-0.066	-36.011	23.071	-310.425	-112.98	74.55	4.44	-49.882	-51.548	68.698	0.58063	-0.63992	0.47202	0.17453	31.3	13111	100
2025-3-27 15:13:47.581	WT901BLE68-01(48591DE3C19B)	0.849	-1.412	-0.117	-12.451	94.238	-347.168	-111.44	70.76	6.17	-49.882	-51.548	68.698	0.58063	-0.63992	0.47202	0.17453	31.3	13111	100
2025-3-27 15:13:47.581	WT901BLE68-01(48591DE3C19B)	0.625	-1.412	-0.117	-12.451	94.238	-347.168	-110.98	66.68	6.66	-49.882	-51.548	68.698	0.58063	-0.63992	0.47202	0.17453	31.3	13111	100
2025-3-27 15:13:47.581	WT901BLE68-01(48591DE3C19B)	0.625	-1.753	-0.071	5.798	180.542	-367.432	-111.29	62.36	6.22	-49.882	-51.548	68.698	0.58063	-0.63992	0.47202	0.17453	31.3	13111	100
2025-3-27 15:13:47.581	WT901BLE68-01(48591DE3C19B)	-0.358	-1.753	-0.071	5.798	180.542	-367.432	-112.00	57.80	5.20	-49.882	-51.548	68.698	0.58063	-0.63992	0.47202	0.17453	31.3	13111	100
2025-3-27 15:13:47.610	WT901BLE68-01(48591DE3C19B)	-0.358	-2.529	-0.032	33.325	177.307	-263.306	-112.61	53.76	4.06	-49.882	-51.548	68.698	0.58063	-0.63992	0.47202	0.17453	31.3	13111	100
2025-3-27 15:13:47.610	WT901BLE68-01(48591DE3C19B)	-3.747	-2.529	-0.032	33.325	177.307	-263.306	-113.13	50.23	2.81	-49.882	-51.548	68.698	0.58063	-0.63992	0.47202	0.17453	31.3	13111	100
2025-3-27 15:13:47.610	WT901BLE68-01(48591DE3C19B)	-3.747	-4.382	-0.665	157.227	184.204	-161.987	-113.13	47.20	1.34	-49.882	-51.548	68.698	0.58063	-0.63992	0.47202	0.17453	31.3	13111	100
2025-3-27 15:13:47.610	WT901BLE68-01(48591DE3C19B)	-4.728	-4.382	-0.665	157.227	184.204	-161.987	-112.63	44.73	-0.36	-49.882	-51.548	68.698	0.58063	-0.63992	0.47202	0.17453	31.3	13111	100
2025-3-27 15:13:47.706	WT901BLE68-01(48591DE3C19B)	-4.728	-2.805	-0.545	312.927	78.674	-293.762	-110.58	41.92	-1.01	-49.882	-51.548	68.698	0.58063	-0.63992	0.47202	0.17453	31.3	13111	100
2025-3-27 15:13:47.706	WT901BLE68-01(48591DE3C19B)	-3.668	-2.805	-0.545	312.927	78.674	-293.762	-107.23	38.78	-0.83	-49.882	-51.548	68.698	0.58063	-0.63992	0.47202	0.17453	31.3	13111	100
2025-3-27 15:13:47.706	WT901BLE68-01(48591DE3C19B)	-3.668	-1.763	0.082	202.515	159.424	-177.124	-104.98	36.14	-1.54	-49.882	-51.548	68.698	0.58063	-0.63992	0.47202	0.17453	31.3	13111	100
2025-3-27 15:13:47.707	WT901BLE68-01(48591DE3C19B)	-3.370	-1.763	0.082	202.515	159.424	-177.124	-103.69	34.03	-2.95	-49.882	-51.548	68.698	0.58063	-0.63992	0.47202	0.17453	31.3	13111	100
