time	DeviceName	AccX(g)	AccY(g)	AccZ(g)	AsX(°/s)	AsY(°/s)	AsZ(°/s)	AngleX(°)	AngleY(°)	AngleZ(°)	HX(uT)	HY(uT)	HZ(uT)	Q0()	Q1()	Q2()	Q3()	Temperature(°C)	Version()	Battery level(%)
2025-3-27 15:8:10.777	WT901BLE68-01(48591DE3C19B)	-0.421	-0.868	0.303	0.183	15.259	-7.874	-74.47	24.09	-15.10	-59.584	-16.562	91.728	-0.78867	0.56458	-0.23917	-0.04431	31.3	13111	100
2025-3-27 15:8:10.778	WT901BLE68-01(48591DE3C19B)	-0.427	-0.868	0.303	0.183	15.259	-7.874	-74.52	24.04	-15.35	-59.584	-16.562	91.728	-0.78867	0.56458	-0.23917	-0.04431	31.3	13111	100
2025-3-27 15:8:10.778	WT901BLE68-01(48591DE3C19B)	-0.427	-0.859	0.301	0.244	16.541	-6.714	-74.57	24.01	-15.60	-59.584	-16.562	91.728	-0.78867	0.56458	-0.23917	-0.04431	31.3	13111	100
2025-3-27 15:8:10.778	WT901BLE68-01(48591DE3C19B)	-0.447	-0.859	0.301	0.244	16.541	-6.714	-74.62	23.98	-15.85	-59.584	-16.562	91.728	-0.78867	0.56458	-0.23917	-0.04431	31.3	13111	100
2025-3-27 15:8:10.805	WT901BLE68-01(48591DE3C19B)	-0.447	-0.846	0.303	0.000	15.808	-5.676	-74.67	23.96	-16.10	-59.584	-16.562	91.728	-0.78867	0.56458	-0.23917	-0.04431	31.3	13111	100
2025-3-27 15:8:10.805	WT901BLE68-01(48591DE3C19B)	-0.469	-0.846	0.303	0.000	15.808	-5.676	-74.72	23.93	-16.34	-59.584	-16.562	91.728	-0.78867	0.56458	-0.23917	-0.04431	31.3	13111	100
2025-3-27 15:8:10.805	WT901BLE68-01(48591DE3C19B)	-0.469	-0.839	0.307	-1.038	12.634	-4.883	-74.77	23.92	-16.55	-59.584	-16.562	91.728	-0.78867	0.56458	-0.23917	-0.04431	31.3	13111	100
2025-3-27 15:8:10.805	WT901BLE68-01(48591DE3C19B)	-0.480	-0.839	0.307	-1.038	12.634	-4.883	-74.82	23.91	-16.75	-59.584	-16.562	91.728	-0.78867	0.56458	-0.23917	-0.04431	31.3	13111	100
2025-3-27 15:8:10.834	WT901BLE68-01(48591DE3C19B)	-0.480	-0.843	0.302	-1.953	7.446	-4.150	-74.85	23.89	-16.92	-62.328	-16.660	91.826	-0.78867	0.56458	-0.23917	-0.04431	31.3	13111	100
2025-3-27 15:8:10.834	WT901BLE68-01(48591DE3C19B)	-0.465	-0.843	0.302	-1.953	7.446	-4.150	-74.88	23.87	-17.05	-62.328	-16.660	91.826	-0.78867	0.56458	-0.23917	-0.04431	31.3	13111	100
2025-3-27 15:8:10.834	WT901BLE68-01(48591DE3C19B)	-0.465	-0.843	0.296	-2.258	3.357	-3.357	-74.90	23.86	-17.17	-62.328	-16.660	91.826	-0.78867	0.56458	-0.23917	-0.04431	31.3	13111	100
2025-3-27 15:8:10.834	WT901BLE68-01(48591DE3C19B)	-0.458	-0.843	0.296	-2.258	3.357	-3.357	-74.92	23.84	-17.25	-62.328	-16.660	91.826	-0.78867	0.56458	-0.23917	-0.04431	31.3	13111	100
2025-3-27 15:8:10.864	WT901BLE68-01(48591DE3C19B)	-0.458	-0.838	0.290	-2.441	2.197	-2.258	-74.93	23.83	-17.33	-62.328	-16.660	91.826	-0.78867	0.56458	-0.23917	-0.04431	31.3	13111	100
2025-3-27 15:8:10.864	WT901BLE68-01(48591DE3C19B)	-0.448	-0.838	0.290	-2.441	2.197	-2.258	-74.94	23.82	-17.40	-62.328	-16.660	91.826	-0.78867	0.56458	-0.23917	-0.04431	31.3	13111	100
2025-3-27 15:8:10.865	WT901BLE68-01(48591DE3C19B)	-0.448	-0.832	0.290	-2.625	3.967	-1.282	-74.95	23.83	-17.48	-62.328	-16.660	91.826	-0.78867	0.56458	-0.23917	-0.04431	31.3	13111	100
2025-3-27 15:8:10.865	WT901BLE68-01(48591DE3C19B)	-0.447	-0.832	0.290	-2.625	3.967	-1.282	-74.97	23.84	-17.57	-62.328	-16.660	91.826	-0.78867	0.56458	-0.23917	-0.04431	31.3	13111	100
2025-3-27 15:8:10.923	WT901BLE68-01(48591DE3C19B)	-0.447	-0.838	0.295	-2.869	7.080	-0.244	-74.99	23.86	-17.67	-62.328	-16.660	91.826	-0.78867	0.56458	-0.23917	-0.04431	31.3	13111	100
2025-3-27 15:8:10.923	WT901BLE68-01(48591DE3C19B)	-0.455	-0.838	0.295	-2.869	7.080	-0.244	-75.02	23.88	-17.78	-62.328	-16.660	91.826	-0.78867	0.56458	-0.23917	-0.04431	31.3	13111	100
2025-3-27 15:8:10.923	WT901BLE68-01(48591DE3C19B)	-0.455	-0.842	0.300	-2.869	9.460	0.488	-75.06	23.92	-17.90	-62.328	-16.660	91.826	-0.78867	0.56458	-0.23917	-0.04431	31.3	13111	100
2025-3-27 15:8:10.923	WT901BLE68-01(48591DE3C19B)	-0.461	-0.842	0.300	-2.869	9.460	0.488	-75.10	23.96	-18.04	-62.328	-16.660	91.826	-0.78867	0.56458	-0.23917	-0.04431	31.3	13111	100
2025-3-27 15:8:10.952	WT901BLE68-01(48591DE3C19B)	-0.461	-0.848	0.297	-2.808	9.888	0.977	-75.14	24.01	-18.17	-62.328	-16.660	91.826	-0.78867	0.56458	-0.23917	-0.04431	31.3	13111	100
2025-3-27 15:8:10.952	WT901BLE68-01(48591DE3C19B)	-0.465	-0.848	0.297	-2.808	9.888	0.977	-75.18	24.05	-18.31	-62.328	-16.660	91.826	-0.78867	0.56458	-0.23917	-0.04431	31.3	13111	100
2025-3-27 15:8:10.952	WT901BLE68-01(48591DE3C19B)	-0.465	-0.839	0.292	-2.136	8.728	1.221	-75.22	24.10	-18.44	-62.328	-16.660	91.826	-0.78867	0.56458	-0.23917	-0.04431	31.3	13111	100
2025-3-27 15:8:10.952	WT901BLE68-01(48591DE3C19B)	-0.470	-0.839	0.292	-2.136	8.728	1.221	-75.25	24.15	-18.56	-62.328	-16.660	91.826	-0.78867	0.56458	-0.23917	-0.04431	31.3	13111	100
2025-3-27 15:8:11.12	WT901BLE68-01(48591DE3C19B)	-0.470	-0.829	0.291	-2.991	4.944	1.343	-75.27	24.19	-18.66	-62.328	-16.660	91.826	-0.78867	0.56458	-0.23917	-0.04431	31.3	13111	100
2025-3-27 15:8:11.12	WT901BLE68-01(48591DE3C19B)	-0.458	-0.829	0.291	-2.991	4.944	1.343	-75.29	24.24	-18.74	-62.328	-16.660	91.826	-0.78867	0.56458	-0.23917	-0.04431	31.3	13111	100
2025-3-27 15:8:11.12	WT901BLE68-01(48591DE3C19B)	-0.458	-0.831	0.288	-3.418	0.854	1.526	-75.31	24.27	-18.80	-62.328	-16.660	91.826	-0.78867	0.56458	-0.23917	-0.04431	31.3	13111	100
2025-3-27 15:8:11.12	WT901BLE68-01(48591DE3C19B)	-0.458	-0.831	0.288	-3.418	0.854	1.526	-75.32	24.30	-18.84	-62.328	-16.660	91.826	-0.78867	0.56458	-0.23917	-0.04431	31.3	13111	100
2025-3-27 15:8:11.44	WT901BLE68-01(48591DE3C19B)	-0.458	-0.838	0.292	-4.272	-2.930	1.892	-75.32	24.33	-18.85	-62.328	-16.660	91.826	-0.78445	0.56183	-0.26245	-0.00040	31.3	13111	100
2025-3-27 15:8:11.44	WT901BLE68-01(48591DE3C19B)	-0.455	-0.838	0.292	-4.272	-2.930	1.892	-75.32	24.36	-18.84	-62.328	-16.660	91.826	-0.78445	0.56183	-0.26245	-0.00040	31.3	13111	100
2025-3-27 15:8:11.44	WT901BLE68-01(48591DE3C19B)	-0.455	-0.861	0.295	-4.822	-7.446	2.136	-75.31	24.38	-18.81	-62.328	-16.660	91.826	-0.78445	0.56183	-0.26245	-0.00040	31.3	13111	100
2025-3-27 15:8:11.44	WT901BLE68-01(48591DE3C19B)	-0.426	-0.861	0.295	-4.822	-7.446	2.136	-75.29	24.40	-18.75	-62.328	-16.660	91.826	-0.78445	0.56183	-0.26245	-0.00040	31.3	13111	100
2025-3-27 15:8:11.77	WT901BLE68-01(48591DE3C19B)	-0.426	-0.865	0.292	-3.845	-7.629	2.686	-75.27	24.42	-18.70	-62.328	-16.660	91.826	-0.78445	0.56183	-0.26245	-0.00040	31.3	13111	100
2025-3-27 15:8:11.78	WT901BLE68-01(48591DE3C19B)	-0.412	-0.865	0.292	-3.845	-7.629	2.686	-75.25	24.44	-18.64	-62.328	-16.660	91.826	-0.78445	0.56183	-0.26245	-0.00040	31.3	13111	100
2025-3-27 15:8:11.78	WT901BLE68-01(48591DE3C19B)	-0.412	-0.861	0.287	-3.723	-3.967	3.113	-75.23	24.47	-18.62	-62.328	-16.660	91.826	-0.78445	0.56183	-0.26245	-0.00040	31.3	13111	100
2025-3-27 15:8:11.78	WT901BLE68-01(48591DE3C19B)	-0.412	-0.861	0.287	-3.723	-3.967	3.113	-75.22	24.50	-18.61	-62.328	-16.660	91.826	-0.78445	0.56183	-0.26245	-0.00040	31.3	13111	100
2025-3-27 15:8:11.134	WT901BLE68-01(48591DE3C19B)	-0.412	-0.869	0.286	-3.662	-0.366	3.479	-75.23	24.54	-18.63	-62.328	-16.660	91.826	-0.78445	0.56183	-0.26245	-0.00040	31.3	13111	100
2025-3-27 15:8:11.134	WT901BLE68-01(48591DE3C19B)	-0.419	-0.869	0.286	-3.662	-0.366	3.479	-75.23	24.58	-18.64	-62.328	-16.660	91.826	-0.78445	0.56183	-0.26245	-0.00040	31.3	13111	100
2025-3-27 15:8:11.135	WT901BLE68-01(48591DE3C19B)	-0.419	-0.885	0.289	-3.540	2.075	3.967	-75.25	24.63	-18.69	-62.328	-16.660	91.826	-0.78445	0.56183	-0.26245	-0.00040	31.3	13111	100
2025-3-27 15:8:11.135	WT901BLE68-01(48591DE3C19B)	-0.422	-0.885	0.289	-3.540	2.075	3.967	-75.27	24.68	-18.74	-62.328	-16.660	91.826	-0.78445	0.56183	-0.26245	-0.00040	31.3	13111	100
2025-3-27 15:8:11.164	WT901BLE68-01(48591DE3C19B)	-0.422	-0.894	0.287	-2.747	2.136	4.517	-75.27	24.73	-18.79	-62.328	-16.660	91.826	-0.78445	0.56183	-0.26245	-0.00040	31.3	13111	100
2025-3-27 15:8:11.164	WT901BLE68-01(48591DE3C19B)	-0.407	-0.894	0.287	-2.747	2.136	4.517	-75.28	24.78	-18.83	-62.328	-16.660	91.826	-0.78445	0.56183	-0.26245	-0.00040	31.3	13111	100
2025-3-27 15:8:11.165	WT901BLE68-01(48591DE3C19B)	-0.407	-0.893	0.284	-1.587	2.258	5.066	-75.28	24.83	-18.88	-62.328	-16.660	91.826	-0.78445	0.56183	-0.26245	-0.00040	31.3	13111	100
2025-3-27 15:8:11.165	WT901BLE68-01(48591DE3C19B)	-0.403	-0.893	0.284	-1.587	2.258	5.066	-75.28	24.89	-18.92	-62.328	-16.660	91.826	-0.78445	0.56183	-0.26245	-0.00040	31.3	13111	100
2025-3-27 15:8:11.253	WT901BLE68-01(48591DE3C19B)	-0.403	-0.886	0.280	-1.099	2.991	5.554	-75.27	24.95	-18.98	-62.328	-16.660	91.826	-0.78445	0.56183	-0.26245	-0.00040	31.3	13111	100
2025-3-27 15:8:11.253	WT901BLE68-01(48591DE3C19B)	-0.396	-0.886	0.280	-1.099	2.991	5.554	-75.27	25.01	-19.03	-62.328	-16.660	91.826	-0.78445	0.56183	-0.26245	-0.00040	31.3	13111	100
2025-3-27 15:8:11.253	WT901BLE68-01(48591DE3C19B)	-0.396	-0.876	0.274	-0.305	3.174	5.737	-75.26	25.07	-19.09	-63.308	-17.542	91.826	-0.78445	0.56183	-0.26245	-0.00040	31.3	13111	100
2025-3-27 15:8:11.254	WT901BLE68-01(48591DE3C19B)	-0.392	-0.876	0.274	-0.305	3.174	5.737	-75.25	25.13	-19.14	-63.308	-17.542	91.826	-0.78445	0.56183	-0.26245	-0.00040	31.3	13111	100
2025-3-27 15:8:11.255	WT901BLE68-01(48591DE3C19B)	-0.392	-0.862	0.272	-0.305	3.723	5.676	-75.25	25.19	-19.20	-63.308	-17.542	91.826	-0.78445	0.56183	-0.26245	-0.00040	31.3	13111	100
2025-3-27 15:8:11.255	WT901BLE68-01(48591DE3C19B)	-0.398	-0.862	0.272	-0.305	3.723	5.676	-75.24	25.24	-19.26	-63.308	-17.542	91.826	-0.78445	0.56183	-0.26245	-0.00040	31.3	13111	100
2025-3-27 15:8:11.255	WT901BLE68-01(48591DE3C19B)	-0.398	-0.863	0.276	-0.916	3.357	5.127	-75.24	25.30	-19.32	-63.308	-17.542	91.826	-0.78445	0.56183	-0.26245	-0.00040	31.3	13111	100
2025-3-27 15:8:11.255	WT901BLE68-01(48591DE3C19B)	-0.392	-0.863	0.276	-0.916	3.357	5.127	-75.24	25.35	-19.39	-63.308	-17.542	91.826	-0.78445	0.56183	-0.26245	-0.00040	31.3	13111	100
2025-3-27 15:8:11.284	WT901BLE68-01(48591DE3C19B)	-0.392	-0.853	0.268	-0.488	2.563	4.211	-75.23	25.38	-19.44	-63.308	-17.542	91.826	-0.78445	0.56183	-0.26245	-0.00040	31.3	13111	100
2025-3-27 15:8:11.284	WT901BLE68-01(48591DE3C19B)	-0.389	-0.853	0.268	-0.488	2.563	4.211	-75.23	25.42	-19.49	-63.308	-17.542	91.826	-0.78445	0.56183	-0.26245	-0.00040	31.3	13111	100
2025-3-27 15:8:11.284	WT901BLE68-01(48591DE3C19B)	-0.389	-0.843	0.257	-1.587	1.953	2.441	-75.23	25.44	-19.54	-63.308	-17.542	91.826	-0.78445	0.56183	-0.26245	-0.00040	31.3	13111	100
2025-3-27 15:8:11.285	WT901BLE68-01(48591DE3C19B)	-0.406	-0.843	0.257	-1.587	1.953	2.441	-75.23	25.46	-19.59	-63.308	-17.542	91.826	-0.78445	0.56183	-0.26245	-0.00040	31.3	13111	100
2025-3-27 15:8:11.313	WT901BLE68-01(48591DE3C19B)	-0.406	-0.874	0.258	-3.235	0.732	0.000	-75.26	25.45	-19.64	-63.308	-17.542	91.826	-0.78445	0.56183	-0.26245	-0.00040	31.3	13111	100
2025-3-27 15:8:11.314	WT901BLE68-01(48591DE3C19B)	-0.431	-0.874	0.258	-3.235	0.732	0.000	-75.27	25.44	-19.68	-63.308	-17.542	91.826	-0.78445	0.56183	-0.26245	-0.00040	31.3	13111	100
2025-3-27 15:8:11.314	WT901BLE68-01(48591DE3C19B)	-0.431	-0.883	0.264	-2.441	-3.357	-2.502	-75.27	25.41	-19.69	-63.308	-17.542	91.826	-0.78445	0.56183	-0.26245	-0.00040	31.3	13111	100
2025-3-27 15:8:11.314	WT901BLE68-01(48591DE3C19B)	-0.425	-0.883	0.264	-2.441	-3.357	-2.502	-75.27	25.36	-19.70	-63.308	-17.542	91.826	-0.78445	0.56183	-0.26245	-0.00040	31.3	13111	100
2025-3-27 15:8:11.374	WT901BLE68-01(48591DE3C19B)	-0.425	-0.871	0.264	-2.991	-9.460	-4.883	-75.25	25.29	-19.64	-63.308	-17.542	91.826	-0.78445	0.56183	-0.26245	-0.00040	31.3	13111	100
2025-3-27 15:8:11.375	WT901BLE68-01(48591DE3C19B)	-0.413	-0.871	0.264	-2.991	-9.460	-4.883	-75.22	25.21	-19.59	-63.308	-17.542	91.826	-0.78445	0.56183	-0.26245	-0.00040	31.3	13111	100
2025-3-27 15:8:11.375	WT901BLE68-01(48591DE3C19B)	-0.413	-0.876	0.260	-4.272	-12.268	-7.202	-75.21	25.10	-19.52	-63.308	-17.542	91.826	-0.78445	0.56183	-0.26245	-0.00040	31.3	13111	100
2025-3-27 15:8:11.375	WT901BLE68-01(48591DE3C19B)	-0.410	-0.876	0.260	-4.272	-12.268	-7.202	-75.18	24.99	-19.44	-63.308	-17.542	91.826	-0.78445	0.56183	-0.26245	-0.00040	31.3	13111	100
2025-3-27 15:8:11.463	WT901BLE68-01(48591DE3C19B)	-0.410	-0.866	0.260	-3.601	-12.817	-9.033	-75.16	24.87	-19.37	-63.308	-17.542	91.826	-0.78445	0.56183	-0.26245	-0.00040	31.3	13111	100
2025-3-27 15:8:11.463	WT901BLE68-01(48591DE3C19B)	-0.400	-0.866	0.260	-3.601	-12.817	-9.033	-75.14	24.75	-19.29	-63.308	-17.542	91.826	-0.78445	0.56183	-0.26245	-0.00040	31.3	13111	100
2025-3-27 15:8:11.463	WT901BLE68-01(48591DE3C19B)	-0.400	-0.845	0.253	-4.700	-12.756	-10.376	-75.13	24.61	-19.22	-63.308	-17.542	91.826	-0.78445	0.56183	-0.26245	-0.00040	31.3	13111	100
2025-3-27 15:8:11.463	WT901BLE68-01(48591DE3C19B)	-0.406	-0.845	0.253	-4.700	-12.756	-10.376	-75.12	24.48	-19.15	-63.308	-17.542	91.826	-0.78540	0.55969	-0.26419	0.00156	31.3	13111	100
2025-3-27 15:8:11.464	WT901BLE68-01(48591DE3C19B)	-0.406	-0.853	0.248	-5.737	-13.123	-11.353	-75.12	24.33	-19.08	-63.308	-17.542	91.826	-0.78540	0.55969	-0.26419	0.00156	31.3	13111	100
2025-3-27 15:8:11.464	WT901BLE68-01(48591DE3C19B)	-0.400	-0.853	0.248	-5.737	-13.123	-11.353	-75.12	24.19	-19.01	-63.308	-17.542	91.826	-0.78540	0.55969	-0.26419	0.00156	31.3	13111	100
2025-3-27 15:8:11.464	WT901BLE68-01(48591DE3C19B)	-0.400	-0.859	0.240	-6.165	-15.137	-12.024	-75.12	24.04	-18.92	-63.308	-17.542	91.826	-0.78540	0.55969	-0.26419	0.00156	31.3	13111	100
2025-3-27 15:8:11.464	WT901BLE68-01(48591DE3C19B)	-0.392	-0.859	0.240	-6.165	-15.137	-12.024	-75.12	23.88	-18.83	-63.308	-17.542	91.826	-0.78540	0.55969	-0.26419	0.00156	31.3	13111	100
2025-3-27 15:8:11.495	WT901BLE68-01(48591DE3C19B)	-0.392	-0.857	0.230	-7.263	-17.883	-13.000	-75.12	23.71	-18.72	-63.308	-17.542	91.826	-0.78540	0.55969	-0.26419	0.00156	31.3	13111	100
2025-3-27 15:8:11.495	WT901BLE68-01(48591DE3C19B)	-0.393	-0.857	0.230	-7.263	-17.883	-13.000	-75.12	23.55	-18.60	-63.308	-17.542	91.826	-0.78540	0.55969	-0.26419	0.00156	31.3	13111	100
2025-3-27 15:8:11.495	WT901BLE68-01(48591DE3C19B)	-0.393	-0.882	0.225	-9.766	-20.691	-14.404	-75.14	23.36	-18.46	-63.308	-17.542	91.826	-0.78540	0.55969	-0.26419	0.00156	31.3	13111	100
2025-3-27 15:8:11.495	WT901BLE68-01(48591DE3C19B)	-0.391	-0.882	0.225	-9.766	-20.691	-14.404	-75.16	23.18	-18.33	-63.308	-17.542	91.826	-0.78540	0.55969	-0.26419	0.00156	31.3	13111	100
2025-3-27 15:8:11.524	WT901BLE68-01(48591DE3C19B)	-0.364	-0.914	0.224	-11.047	-24.963	-16.479	-75.18	22.96	-18.14	-63.308	-17.542	91.826	-0.78540	0.55969	-0.26419	0.00156	31.3	13111	100
2025-3-27 15:8:11.524	WT901BLE68-01(48591DE3C19B)	-0.364	-0.896	0.220	-11.353	-29.297	-17.761	-75.20	22.73	-17.95	-63.308	-17.542	91.826	-0.78540	0.55969	-0.26419	0.00156	31.3	13111	100
2025-3-27 15:8:11.524	WT901BLE68-01(48591DE3C19B)	-0.340	-0.896	0.220	-11.353	-29.297	-17.761	-75.21	22.49	-17.74	-63.308	-17.542	91.826	-0.78540	0.55969	-0.26419	0.00156	31.3	13111	100
2025-3-27 15:8:11.524	WT901BLE68-01(48591DE3C19B)	-0.340	-0.871	0.213	-13.977	-32.471	-18.311	-75.23	22.24	-17.51	-63.308	-17.542	91.826	-0.78540	0.55969	-0.26419	0.00156	31.3	13111	100
2025-3-27 15:8:11.553	WT901BLE68-01(48591DE3C19B)	-0.312	-0.871	0.213	-13.977	-32.471	-18.311	-75.26	21.98	-17.27	-63.308	-17.542	91.826	-0.78540	0.55969	-0.26419	0.00156	31.3	13111	100
2025-3-27 15:8:11.553	WT901BLE68-01(48591DE3C19B)	-0.312	-0.858	0.211	-16.724	-34.851	-18.616	-75.29	21.73	-17.01	-63.308	-17.542	91.826	-0.78540	0.55969	-0.26419	0.00156	31.3	13111	100
2025-3-27 15:8:11.553	WT901BLE68-01(48591DE3C19B)	-0.284	-0.858	0.211	-16.724	-34.851	-18.616	-75.34	21.47	-16.75	-63.308	-17.542	91.826	-0.78540	0.55969	-0.26419	0.00156	31.3	13111	100
2025-3-27 15:8:11.553	WT901BLE68-01(48591DE3C19B)	-0.284	-0.853	0.208	-19.165	-36.804	-18.066	-75.40	21.20	-16.48	-63.308	-17.542	91.826	-0.78540	0.55969	-0.26419	0.00156	31.3	13111	100
2025-3-27 15:8:11.643	WT901BLE68-01(48591DE3C19B)	-0.254	-0.853	0.208	-19.165	-36.804	-18.066	-75.48	20.94	-16.20	-63.308	-17.542	91.826	-0.78540	0.55969	-0.26419	0.00156	31.3	13111	100
2025-3-27 15:8:11.643	WT901BLE68-01(48591DE3C19B)	-0.254	-0.868	0.208	-22.278	-38.452	-17.273	-75.56	20.68	-15.91	-63.308	-17.542	91.826	-0.78540	0.55969	-0.26419	0.00156	31.3	13111	100
2025-3-27 15:8:11.643	WT901BLE68-01(48591DE3C19B)	-0.220	-0.868	0.208	-22.278	-38.452	-17.273	-75.66	20.42	-15.62	-63.308	-17.542	91.826	-0.78540	0.55969	-0.26419	0.00156	31.3	13111	100
2025-3-27 15:8:11.643	WT901BLE68-01(48591DE3C19B)	-0.220	-0.896	0.217	-25.024	-39.368	-17.700	-75.77	20.15	-15.32	-63.308	-17.542	91.826	-0.78540	0.55969	-0.26419	0.00156	31.3	13111	100
2025-3-27 15:8:11.644	WT901BLE68-01(48591DE3C19B)	-0.159	-0.896	0.217	-25.024	-39.368	-17.700	-75.90	19.89	-15.02	-57.820	-20.090	91.826	-0.78540	0.55969	-0.26419	0.00156	31.3	13111	100
2025-3-27 15:8:11.644	WT901BLE68-01(48591DE3C19B)	-0.159	-0.958	0.219	-27.222	-38.696	-20.935	-76.04	19.60	-14.74	-57.820	-20.090	91.826	-0.78540	0.55969	-0.26419	0.00156	31.3	13111	100
2025-3-27 15:8:11.644	WT901BLE68-01(48591DE3C19B)	-0.075	-0.958	0.219	-27.222	-38.696	-20.935	-76.20	19.29	-14.46	-57.820	-20.090	91.826	-0.78540	0.55969	-0.26419	0.00156	31.3	13111	100
2025-3-27 15:8:11.645	WT901BLE68-01(48591DE3C19B)	-0.075	-1.007	0.215	-28.198	-33.447	-28.076	-76.37	18.96	-14.23	-57.820	-20.090	91.826	-0.78540	0.55969	-0.26419	0.00156	31.3	13111	100
2025-3-27 15:8:11.703	WT901BLE68-01(48591DE3C19B)	-0.038	-1.007	0.215	-28.198	-33.447	-28.076	-76.56	18.59	-14.04	-57.820	-20.090	91.826	-0.78540	0.55969	-0.26419	0.00156	31.3	13111	100
2025-3-27 15:8:11.703	WT901BLE68-01(48591DE3C19B)	-0.038	-1.095	0.226	-29.785	-20.813	-38.086	-76.79	18.18	-13.93	-57.820	-20.090	91.826	-0.78540	0.55969	-0.26419	0.00156	31.3	13111	100
2025-3-27 15:8:11.703	WT901BLE68-01(48591DE3C19B)	-0.022	-1.095	0.226	-29.785	-20.813	-38.086	-77.06	17.73	-13.89	-57.820	-20.090	91.826	-0.78540	0.55969	-0.26419	0.00156	31.3	13111	100
2025-3-27 15:8:11.703	WT901BLE68-01(48591DE3C19B)	-0.022	-1.187	0.238	-27.283	-5.249	-50.232	-77.33	17.24	-13.95	-57.820	-20.090	91.826	-0.78540	0.55969	-0.26419	0.00156	31.3	13111	100
2025-3-27 15:8:11.736	WT901BLE68-01(48591DE3C19B)	0.027	-1.187	0.238	-27.283	-5.249	-50.232	-77.63	16.70	-14.10	-57.820	-20.090	91.826	-0.78540	0.55969	-0.26419	0.00156	31.3	13111	100
2025-3-27 15:8:11.736	WT901BLE68-01(48591DE3C19B)	0.027	-1.225	0.243	-21.118	13.184	-63.599	-77.92	16.11	-14.36	-57.820	-20.090	91.826	-0.78540	0.55969	-0.26419	0.00156	31.3	13111	100
2025-3-27 15:8:11.736	WT901BLE68-01(48591DE3C19B)	0.032	-1.225	0.243	-21.118	13.184	-63.599	-78.21	15.47	-14.73	-57.820	-20.090	91.826	-0.78540	0.55969	-0.26419	0.00156	31.3	13111	100
2025-3-27 15:8:11.736	WT901BLE68-01(48591DE3C19B)	0.032	-1.192	0.246	-14.771	34.729	-77.332	-78.49	14.78	-15.21	-57.820	-20.090	91.826	-0.78540	0.55969	-0.26419	0.00156	31.3	13111	100
2025-3-27 15:8:11.762	WT901BLE68-01(48591DE3C19B)	-0.028	-1.192	0.246	-14.771	34.729	-77.332	-78.76	14.04	-15.81	-57.820	-20.090	91.826	-0.78540	0.55969	-0.26419	0.00156	31.3	13111	100
2025-3-27 15:8:11.762	WT901BLE68-01(48591DE3C19B)	-0.028	-1.146	0.262	-11.536	50.781	-90.393	-79.04	13.25	-16.51	-57.820	-20.090	91.826	-0.78540	0.55969	-0.26419	0.00156	31.3	13111	100
2025-3-27 15:8:11.762	WT901BLE68-01(48591DE3C19B)	-0.099	-1.146	0.262	-11.536	50.781	-90.393	-79.30	12.41	-17.28	-57.820	-20.090	91.826	-0.78540	0.55969	-0.26419	0.00156	31.3	13111	100
2025-3-27 15:8:11.762	WT901BLE68-01(48591DE3C19B)	-0.099	-1.117	0.285	-10.010	55.237	-102.539	-79.55	11.52	-18.08	-57.820	-20.090	91.826	-0.78540	0.55969	-0.26419	0.00156	31.3	13111	100
2025-3-27 15:8:11.793	WT901BLE68-01(48591DE3C19B)	-0.141	-1.117	0.285	-10.010	55.237	-102.539	-79.78	10.57	-18.90	-57.820	-20.090	91.826	-0.78540	0.55969	-0.26419	0.00156	31.3	13111	100
2025-3-27 15:8:11.793	WT901BLE68-01(48591DE3C19B)	-0.141	-1.089	0.317	-8.484	51.025	-112.854	-79.99	9.57	-19.71	-57.820	-20.090	91.826	-0.78540	0.55969	-0.26419	0.00156	31.3	13111	100
2025-3-27 15:8:11.793	WT901BLE68-01(48591DE3C19B)	-0.151	-1.089	0.317	-8.484	51.025	-112.854	-80.17	8.53	-20.49	-57.820	-20.090	91.826	-0.78540	0.55969	-0.26419	0.00156	31.3	13111	100
2025-3-27 15:8:11.793	WT901BLE68-01(48591DE3C19B)	-0.151	-1.064	0.316	-5.981	45.471	-120.728	-80.31	7.44	-21.24	-57.820	-20.090	91.826	-0.78540	0.55969	-0.26419	0.00156	31.3	13111	100
2025-3-27 15:8:11.853	WT901BLE68-01(48591DE3C19B)	-0.146	-1.064	0.316	-5.981	45.471	-120.728	-80.43	6.31	-21.97	-57.820	-20.090	91.826	-0.78540	0.55969	-0.26419	0.00156	31.3	13111	100
2025-3-27 15:8:11.854	WT901BLE68-01(48591DE3C19B)	-0.146	-1.055	0.304	-4.761	44.250	-126.221	-80.52	5.17	-22.68	-57.820	-20.090	91.826	-0.75314	0.62619	-0.16071	0.12134	31.3	13111	100
2025-3-27 15:8:11.854	WT901BLE68-01(48591DE3C19B)	-0.171	-1.055	0.304	-4.761	44.250	-126.221	-80.58	4.00	-23.39	-57.820	-20.090	91.826	-0.75314	0.62619	-0.16071	0.12134	31.3	13111	100
2025-3-27 15:8:11.854	WT901BLE68-01(48591DE3C19B)	-0.171	-1.134	0.284	-4.578	45.532	-130.737	-80.64	2.82	-24.10	-57.820	-20.090	91.826	-0.75314	0.62619	-0.16071	0.12134	31.3	13111	100
2025-3-27 15:8:11.882	WT901BLE68-01(48591DE3C19B)	-0.188	-1.134	0.284	-4.578	45.532	-130.737	-80.68	1.63	-24.82	-57.820	-20.090	91.826	-0.75314	0.62619	-0.16071	0.12134	31.3	13111	100
2025-3-27 15:8:11.882	WT901BLE68-01(48591DE3C19B)	-0.188	-1.207	0.266	3.540	50.903	-130.676	-80.67	0.45	-25.57	-57.820	-20.090	91.826	-0.75314	0.62619	-0.16071	0.12134	31.3	13111	100
2025-3-27 15:8:11.882	WT901BLE68-01(48591DE3C19B)	-0.233	-1.207	0.266	3.540	50.903	-130.676	-80.60	-0.71	-26.33	-57.820	-20.090	91.826	-0.75314	0.62619	-0.16071	0.12134	31.3	13111	100
2025-3-27 15:8:11.882	WT901BLE68-01(48591DE3C19B)	-0.233	-1.119	0.267	12.817	56.824	-124.817	-80.47	-1.83	-27.13	-57.820	-20.090	91.826	-0.75314	0.62619	-0.16071	0.12134	31.3	13111	100
2025-3-27 15:8:11.913	WT901BLE68-01(48591DE3C19B)	-0.307	-1.119	0.267	12.817	56.824	-124.817	-80.28	-2.91	-27.94	-57.820	-20.090	91.826	-0.75314	0.62619	-0.16071	0.12134	31.3	13111	100
2025-3-27 15:8:11.913	WT901BLE68-01(48591DE3C19B)	-0.307	-0.963	0.286	15.503	53.345	-114.929	-80.06	-3.93	-28.73	-57.820	-20.090	91.826	-0.75314	0.62619	-0.16071	0.12134	31.3	13111	100
2025-3-27 15:8:11.913	WT901BLE68-01(48591DE3C19B)	-0.389	-0.963	0.286	15.503	53.345	-114.929	-79.83	-4.88	-29.49	-57.820	-20.090	91.826	-0.75314	0.62619	-0.16071	0.12134	31.3	13111	100
2025-3-27 15:8:11.913	WT901BLE68-01(48591DE3C19B)	-0.389	-0.889	0.339	7.080	36.072	-103.638	-79.62	-5.79	-30.16	-57.820	-20.090	91.826	-0.75314	0.62619	-0.16071	0.12134	31.3	13111	100
2025-3-27 15:8:11.978	WT901BLE68-01(48591DE3C19B)	-0.395	-0.889	0.339	7.080	36.072	-103.638	-79.46	-6.64	-30.74	-57.820	-20.090	91.826	-0.75314	0.62619	-0.16071	0.12134	31.3	13111	100
2025-3-27 15:8:11.978	WT901BLE68-01(48591DE3C19B)	-0.395	-0.954	0.379	-0.977	12.817	-90.637	-79.35	-7.44	-31.18	-57.820	-20.090	91.826	-0.75314	0.62619	-0.16071	0.12134	31.3	13111	100
2025-3-27 15:8:11.978	WT901BLE68-01(48591DE3C19B)	-0.335	-0.954	0.379	-0.977	12.817	-90.637	-79.28	-8.18	-31.50	-57.820	-20.090	91.826	-0.75314	0.62619	-0.16071	0.12134	31.3	13111	100
2025-3-27 15:8:11.978	WT901BLE68-01(48591DE3C19B)	-0.335	-0.961	0.387	0.977	-3.296	-77.026	-79.22	-8.82	-31.64	-57.820	-20.090	91.826	-0.75314	0.62619	-0.16071	0.12134	31.3	13111	100
2025-3-27 15:8:12.34	WT901BLE68-01(48591DE3C19B)	-0.304	-0.961	0.387	0.977	-3.296	-77.026	-79.15	-9.44	-31.77	-57.820	-20.090	91.826	-0.75314	0.62619	-0.16071	0.12134	31.3	13111	100
2025-3-27 15:8:12.34	WT901BLE68-01(48591DE3C19B)	-0.304	-0.977	0.420	1.221	-5.798	-64.148	-79.08	-9.94	-31.86	-57.820	-20.090	91.826	-0.75314	0.62619	-0.16071	0.12134	31.3	13111	100
2025-3-27 15:8:12.34	WT901BLE68-01(48591DE3C19B)	-0.345	-0.977	0.420	1.221	-5.798	-64.148	-79.01	-10.44	-31.95	-57.820	-20.090	91.826	-0.75314	0.62619	-0.16071	0.12134	31.3	13111	100
2025-3-27 15:8:12.34	WT901BLE68-01(48591DE3C19B)	-0.345	-1.078	0.441	4.883	-1.282	-51.575	-78.89	-10.80	-32.06	-69.188	-23.128	91.924	-0.75314	0.62619	-0.16071	0.12134	31.3	13111	100
2025-3-27 15:8:12.35	WT901BLE68-01(48591DE3C19B)	-0.366	-1.078	0.441	4.883	-1.282	-51.575	-78.78	-11.16	-32.17	-69.188	-23.128	91.924	-0.75314	0.62619	-0.16071	0.12134	31.3	13111	100
2025-3-27 15:8:12.35	WT901BLE68-01(48591DE3C19B)	-0.366	-1.167	0.392	8.911	-0.183	-36.682	-78.62	-11.36	-32.27	-69.188	-23.128	91.924	-0.75314	0.62619	-0.16071	0.12134	31.3	13111	100
2025-3-27 15:8:12.35	WT901BLE68-01(48591DE3C19B)	-0.868	-1.167	0.392	8.911	-0.183	-36.682	-78.47	-11.56	-32.36	-69.188	-23.128	91.924	-0.75314	0.62619	-0.16071	0.12134	31.3	13111	100
2025-3-27 15:8:12.35	WT901BLE68-01(48591DE3C19B)	-3.472	-2.587	1.008	10.254	-3.235	-16.846	-78.32	-11.57	-32.38	-69.188	-23.128	91.924	-0.75314	0.62619	-0.16071	0.12134	31.3	13111	100
2025-3-27 15:8:12.123	WT901BLE68-01(48591DE3C19B)	-0.599	-10.349	4.034	10.254	-3.235	-16.846	-78.17	-11.58	-32.40	-69.188	-23.128	91.924	-0.75314	0.62619	-0.16071	0.12134	31.3	13111	100
2025-3-27 15:8:12.123	WT901BLE68-01(48591DE3C19B)	-0.599	-1.351	0.557	18.188	-17.029	2.502	-77.96	-11.43	-32.24	-69.188	-23.128	91.924	-0.75314	0.62619	-0.16071	0.12134	31.3	13111	100
2025-3-27 15:8:12.123	WT901BLE68-01(48591DE3C19B)	-0.697	-1.351	0.557	18.188	-17.029	2.502	-77.77	-11.27	-32.09	-69.188	-23.128	91.924	-0.75314	0.62619	-0.16071	0.12134	31.3	13111	100
2025-3-27 15:8:12.123	WT901BLE68-01(48591DE3C19B)	-0.697	-1.418	0.454	20.508	-33.936	22.339	-77.59	-10.95	-31.72	-69.188	-23.128	91.924	-0.75314	0.62619	-0.16071	0.12134	31.3	13111	100
2025-3-27 15:8:12.124	WT901BLE68-01(48591DE3C19B)	-0.673	-1.418	0.454	20.508	-33.936	22.339	-77.41	-10.63	-31.34	-69.188	-23.128	91.924	-0.75314	0.62619	-0.16071	0.12134	31.3	13111	100
2025-3-27 15:8:12.124	WT901BLE68-01(48591DE3C19B)	-0.673	-1.602	0.307	20.874	-45.837	38.391	-77.26	-10.19	-30.82	-69.188	-23.128	91.924	-0.75314	0.62619	-0.16071	0.12134	31.3	13111	100
2025-3-27 15:8:12.124	WT901BLE68-01(48591DE3C19B)	-0.593	-1.602	0.307	20.874	-45.837	38.391	-77.10	-9.74	-30.29	-69.188	-23.128	91.924	-0.75314	0.62619	-0.16071	0.12134	31.3	13111	100
2025-3-27 15:8:12.124	WT901BLE68-01(48591DE3C19B)	-0.593	-1.646	0.245	38.086	-44.922	48.645	-76.78	-9.20	-29.75	-69.188	-23.128	91.924	-0.75314	0.62619	-0.16071	0.12134	31.3	13111	100
2025-3-27 15:8:12.183	WT901BLE68-01(48591DE3C19B)	-0.571	-1.646	0.245	38.086	-44.922	48.645	-76.47	-8.66	-29.20	-69.188	-23.128	91.924	-0.75314	0.62619	-0.16071	0.12134	31.3	13111	100
2025-3-27 15:8:12.183	WT901BLE68-01(48591DE3C19B)	-0.571	-1.313	0.237	48.706	-32.288	55.664	-76.03	-8.04	-28.76	-69.188	-23.128	91.924	-0.75314	0.62619	-0.16071	0.12134	31.3	13111	100
2025-3-27 15:8:12.183	WT901BLE68-01(48591DE3C19B)	-0.587	-1.313	0.237	48.706	-32.288	55.664	-75.59	-7.41	-28.32	-69.188	-23.128	91.924	-0.75314	0.62619	-0.16071	0.12134	31.3	13111	100
2025-3-27 15:8:12.183	WT901BLE68-01(48591DE3C19B)	-0.587	-1.017	0.270	43.823	-16.235	59.387	-75.18	-6.71	-28.02	-69.188	-23.128	91.924	-0.75314	0.62619	-0.16071	0.12134	31.3	13111	100
2025-3-27 15:8:12.243	WT901BLE68-01(48591DE3C19B)	-0.598	-1.017	0.270	43.823	-16.235	59.387	-74.78	-6.02	-27.71	-69.188	-23.128	91.924	-0.75314	0.62619	-0.16071	0.12134	31.3	13111	100
2025-3-27 15:8:12.243	WT901BLE68-01(48591DE3C19B)	-0.598	-0.723	0.303	35.400	-2.014	61.340	-74.44	-5.27	-27.53	-69.188	-23.128	91.924	-0.75314	0.62619	-0.16071	0.12134	31.3	13111	100
2025-3-27 15:8:12.243	WT901BLE68-01(48591DE3C19B)	-0.586	-0.723	0.303	35.400	-2.014	61.340	-74.10	-4.52	-27.34	-69.188	-23.128	91.924	-0.75314	0.62619	-0.16071	0.12134	31.3	13111	100
2025-3-27 15:8:12.243	WT901BLE68-01(48591DE3C19B)	-0.586	-0.438	0.275	25.879	10.193	63.110	-73.84	-3.72	-27.26	-69.188	-23.128	91.924	-0.75314	0.62619	-0.16071	0.12134	31.3	13111	100
2025-3-27 15:8:12.244	WT901BLE68-01(48591DE3C19B)	-0.571	-0.438	0.275	25.879	10.193	63.110	-73.59	-2.92	-27.17	-69.188	-23.128	91.924	-0.77451	0.58676	-0.12082	0.20285	31.3	13111	100
2025-3-27 15:8:12.244	WT901BLE68-01(48591DE3C19B)	-0.571	-0.200	0.149	13.428	16.663	66.406	-73.45	-2.05	-27.13	-69.188	-23.128	91.924	-0.77451	0.58676	-0.12082	0.20285	31.3	13111	100
2025-3-27 15:8:12.244	WT901BLE68-01(48591DE3C19B)	-0.590	-0.200	0.149	13.428	16.663	66.406	-73.31	-1.19	-27.07	-69.188	-23.128	91.924	-0.77451	0.58676	-0.12082	0.20285	31.3	13111	100
2025-3-27 15:8:12.244	WT901BLE68-01(48591DE3C19B)	-0.590	0.060	0.126	13.672	11.292	70.923	-73.17	-0.29	-26.94	-69.188	-23.128	91.924	-0.77451	0.58676	-0.12082	0.20285	31.3	13111	100
2025-3-27 15:8:12.275	WT901BLE68-01(48591DE3C19B)	-0.702	0.060	0.126	13.672	11.292	70.923	-73.04	0.62	-26.79	-69.188	-23.128	91.924	-0.77451	0.58676	-0.12082	0.20285	31.3	13111	100
2025-3-27 15:8:12.275	WT901BLE68-01(48591DE3C19B)	-0.702	0.324	0.252	20.264	-22.461	75.928	-72.82	1.49	-26.29	-69.188	-23.128	91.924	-0.77451	0.58676	-0.12082	0.20285	31.3	13111	100
2025-3-27 15:8:12.275	WT901BLE68-01(48591DE3C19B)	-0.788	0.324	0.252	20.264	-22.461	75.928	-72.60	2.39	-25.76	-69.188	-23.128	91.924	-0.77451	0.58676	-0.12082	0.20285	31.3	13111	100
2025-3-27 15:8:12.275	WT901BLE68-01(48591DE3C19B)	-0.788	0.604	0.194	7.507	-74.341	102.661	-72.48	3.42	-24.63	-69.188	-23.128	91.924	-0.77451	0.58676	-0.12082	0.20285	31.3	13111	100
2025-3-27 15:8:12.363	WT901BLE68-01(48591DE3C19B)	-0.591	0.604	0.194	7.507	-74.341	102.661	-72.34	4.47	-23.45	-69.188	-23.128	91.924	-0.77451	0.58676	-0.12082	0.20285	31.3	13111	100
2025-3-27 15:8:12.363	WT901BLE68-01(48591DE3C19B)	-0.591	0.608	-0.048	-25.757	-116.455	129.395	-72.49	5.67	-21.76	-69.188	-23.128	91.924	-0.77451	0.58676	-0.12082	0.20285	31.3	13111	100
2025-3-27 15:8:12.363	WT901BLE68-01(48591DE3C19B)	-0.428	0.608	-0.048	-25.757	-116.455	129.395	-72.64	6.90	-20.04	-69.188	-23.128	91.924	-0.77451	0.58676	-0.12082	0.20285	31.3	13111	100
2025-3-27 15:8:12.363	WT901BLE68-01(48591DE3C19B)	-0.428	0.427	-0.196	-49.316	-101.868	147.400	-73.02	8.38	-18.40	-69.188	-23.128	91.924	-0.77451	0.58676	-0.12082	0.20285	31.3	13111	100
2025-3-27 15:8:12.364	WT901BLE68-01(48591DE3C19B)	-0.713	0.427	-0.196	-49.316	-101.868	147.400	-73.38	9.88	-16.76	-69.188	-23.128	91.924	-0.77451	0.58676	-0.12082	0.20285	31.3	13111	100
2025-3-27 15:8:12.364	WT901BLE68-01(48591DE3C19B)	-0.713	0.138	-0.170	-64.514	-62.500	173.096	-73.92	11.75	-15.45	-69.188	-23.128	91.924	-0.77451	0.58676	-0.12082	0.20285	31.3	13111	100
2025-3-27 15:8:12.364	WT901BLE68-01(48591DE3C19B)	-1.268	0.138	-0.170	-64.514	-62.500	173.096	-74.44	13.63	-14.16	-69.188	-23.128	91.924	-0.77451	0.58676	-0.12082	0.20285	31.3	13111	100
2025-3-27 15:8:12.364	WT901BLE68-01(48591DE3C19B)	-1.268	-0.238	-0.075	-66.589	-57.800	212.952	-74.93	15.91	-12.82	-69.188	-23.128	91.924	-0.77451	0.58676	-0.12082	0.20285	31.3	13111	100
2025-3-27 15:8:12.423	WT901BLE68-01(48591DE3C19B)	-1.678	-0.238	-0.075	-66.589	-57.800	212.952	-75.37	18.18	-11.51	-69.188	-23.128	91.924	-0.77451	0.58676	-0.12082	0.20285	31.3	13111	100
2025-3-27 15:8:12.423	WT901BLE68-01(48591DE3C19B)	-1.678	-0.569	0.132	-68.787	-80.688	261.169	-75.65	20.84	-9.84	-69.188	-23.128	91.924	-0.77451	0.58676	-0.12082	0.20285	31.3	13111	100
2025-3-27 15:8:12.423	WT901BLE68-01(48591DE3C19B)	-2.175	-0.569	0.132	-68.787	-80.688	261.169	-75.85	23.49	-8.17	-69.188	-23.128	91.924	-0.77451	0.58676	-0.12082	0.20285	31.3	13111	100
2025-3-27 15:8:12.423	WT901BLE68-01(48591DE3C19B)	-2.175	-1.057	0.393	-88.379	-68.115	346.252	-76.10	26.97	-6.38	-69.188	-23.128	91.924	-0.77451	0.58676	-0.12082	0.20285	31.3	13111	100
2025-3-27 15:8:12.454	WT901BLE68-01(48591DE3C19B)	-2.967	-1.057	0.393	-88.379	-68.115	346.252	-76.23	30.43	-4.56	-47.824	-26.950	88.592	-0.77451	0.58676	-0.12082	0.20285	31.3	13111	100
2025-3-27 15:8:12.454	WT901BLE68-01(48591DE3C19B)	-3.670	-1.795	0.303	-102.966	-32.043	402.527	-76.50	34.48	-2.96	-47.824	-26.950	88.592	-0.77451	0.58676	-0.12082	0.20285	31.3	13111	100
2025-3-27 15:8:12.454	WT901BLE68-01(48591DE3C19B)	-3.670	-2.852	0.167	-108.215	-69.214	417.664	-76.52	38.52	-1.06	-47.824	-26.950	88.592	-0.77451	0.58676	-0.12082	0.20285	31.3	13111	100
2025-3-27 15:8:12.454	WT901BLE68-01(48591DE3C19B)	-3.226	-2.852	0.167	-108.215	-69.214	417.664	-76.22	42.54	1.19	-47.824	-26.950	88.592	-0.77451	0.58676	-0.12082	0.20285	31.3	13111	100
2025-3-27 15:8:12.482	WT901BLE68-01(48591DE3C19B)	-3.226	-4.123	-0.158	-48.096	-117.371	420.593	-75.14	46.47	3.95	-47.824	-26.950	88.592	-0.77451	0.58676	-0.12082	0.20285	31.3	13111	100
2025-3-27 15:8:12.482	WT901BLE68-01(48591DE3C19B)	-2.063	-4.123	-0.158	-48.096	-117.371	420.593	-73.12	50.23	7.38	-47.824	-26.950	88.592	-0.77451	0.58676	-0.12082	0.20285	31.3	13111	100
2025-3-27 15:8:12.482	WT901BLE68-01(48591DE3C19B)	-2.063	-3.494	-0.330	38.940	-85.144	411.377	-70.37	53.87	11.01	-47.824	-26.950	88.592	-0.77451	0.58676	-0.12082	0.20285	31.3	13111	100
2025-3-27 15:8:12.482	WT901BLE68-01(48591DE3C19B)	-1.343	-3.494	-0.330	38.940	-85.144	411.377	-66.76	57.35	14.98	-47.824	-26.950	88.592	-0.77451	0.58676	-0.12082	0.20285	31.3	13111	100
2025-3-27 15:8:12.542	WT901BLE68-01(48591DE3C19B)	-1.343	-2.848	-0.277	36.987	-4.883	385.986	-63.09	60.72	18.90	-47.824	-26.950	88.592	-0.77451	0.58676	-0.12082	0.20285	31.3	13111	100
2025-3-27 15:8:12.543	WT901BLE68-01(48591DE3C19B)	-0.916	-2.848	-0.277	36.987	-4.883	385.986	-59.36	64.00	22.75	-47.824	-26.950	88.592	-0.77451	0.58676	-0.12082	0.20285	31.3	13111	100
2025-3-27 15:8:12.543	WT901BLE68-01(48591DE3C19B)	-0.916	-2.330	-0.013	20.020	58.777	338.928	-55.65	67.09	26.57	-47.824	-26.950	88.592	-0.77451	0.58676	-0.12082	0.20285	31.3	13111	100
2025-3-27 15:8:12.543	WT901BLE68-01(48591DE3C19B)	-0.777	-2.330	-0.013	20.020	58.777	338.928	-52.03	70.07	30.29	-47.824	-26.950	88.592	-0.77451	0.58676	-0.12082	0.20285	31.3	13111	100
2025-3-27 15:8:12.578	WT901BLE68-01(48591DE3C19B)	-0.777	-1.857	0.132	2.197	67.261	288.940	-47.95	72.75	34.52	-47.824	-26.950	88.592	-0.77451	0.58676	-0.12082	0.20285	31.3	13111	100
2025-3-27 15:8:12.578	WT901BLE68-01(48591DE3C19B)	-0.665	-1.857	0.132	2.197	67.261	288.940	-43.35	75.16	39.31	-47.824	-26.950	88.592	-0.77451	0.58676	-0.12082	0.20285	31.3	13111	100
2025-3-27 15:8:12.578	WT901BLE68-01(48591DE3C19B)	-0.665	-1.504	0.094	-15.564	-21.912	214.294	-37.28	76.84	45.65	-47.824	-26.950	88.592	-0.77451	0.58676	-0.12082	0.20285	31.3	13111	100
2025-3-27 15:8:12.578	WT901BLE68-01(48591DE3C19B)	-0.252	-1.504	0.094	-15.564	-21.912	214.294	-30.17	77.74	53.11	-47.824	-26.950	88.592	-0.77451	0.58676	-0.12082	0.20285	31.3	13111	100
2025-3-27 15:8:12.602	WT901BLE68-01(48591DE3C19B)	-0.252	-1.078	0.020	-33.020	-111.023	145.203	-22.93	77.88	60.77	-47.824	-26.950	88.592	-0.77451	0.58676	-0.12082	0.20285	31.3	13111	100
2025-3-27 15:8:12.602	WT901BLE68-01(48591DE3C19B)	0.159	-1.078	0.020	-33.020	-111.023	145.203	-16.76	77.30	67.43	-47.824	-26.950	88.592	-0.77451	0.58676	-0.12082	0.20285	31.3	13111	100
2025-3-27 15:8:12.602	WT901BLE68-01(48591DE3C19B)	0.159	-0.780	-0.029	-69.153	-141.846	91.248	-12.40	76.38	72.42	-47.824	-26.950	88.592	-0.77451	0.58676	-0.12082	0.20285	31.3	13111	100
2025-3-27 15:8:12.602	WT901BLE68-01(48591DE3C19B)	0.741	-0.780	-0.029	-69.153	-141.846	91.248	-9.82	75.19	75.80	-47.824	-26.950	88.592	-0.77451	0.58676	-0.12082	0.20285	31.3	13111	100
2025-3-27 15:8:12.662	WT901BLE68-01(48591DE3C19B)	0.741	-0.803	-0.210	-110.657	-160.278	49.805	-8.59	73.87	77.99	-47.824	-26.950	88.592	-0.77451	0.58676	-0.12082	0.20285	31.3	13111	100
2025-3-27 15:8:12.662	WT901BLE68-01(48591DE3C19B)	1.271	-0.803	-0.210	-110.657	-160.278	49.805	-8.50	72.43	79.23	-47.824	-26.950	88.592	-0.59210	0.42087	-0.40961	-0.55170	31.3	13111	100
2025-3-27 15:8:12.663	WT901BLE68-01(48591DE3C19B)	1.271	-0.841	-0.338	-128.662	-131.165	26.672	-9.05	71.15	79.89	-47.824	-26.950	88.592	-0.59210	0.42087	-0.40961	-0.55170	31.3	13111	100
2025-3-27 15:8:12.663	WT901BLE68-01(48591DE3C19B)	1.399	-0.841	-0.338	-128.662	-131.165	26.672	-10.15	70.02	80.06	-47.824	-26.950	88.592	-0.59210	0.42087	-0.40961	-0.55170	31.3	13111	100
2025-3-27 15:8:12.695	WT901BLE68-01(48591DE3C19B)	1.399	-0.857	-0.280	-135.681	-68.726	1.404	-11.79	69.18	79.69	-47.824	-26.950	88.592	-0.59210	0.42087	-0.40961	-0.55170	31.3	13111	100
2025-3-27 15:8:12.695	WT901BLE68-01(48591DE3C19B)	1.250	-0.857	-0.280	-135.681	-68.726	1.404	-13.95	68.65	78.81	-47.824	-26.950	88.592	-0.59210	0.42087	-0.40961	-0.55170	31.3	13111	100
2025-3-27 15:8:12.695	WT901BLE68-01(48591DE3C19B)	1.250	-0.990	-0.181	-137.207	-13.550	-35.278	-16.72	68.33	77.26	-47.824	-26.950	88.592	-0.59210	0.42087	-0.40961	-0.55170	31.3	13111	100
2025-3-27 15:8:12.695	WT901BLE68-01(48591DE3C19B)	1.086	-0.990	-0.181	-137.207	-13.550	-35.278	-20.14	68.20	75.03	-47.824	-26.950	88.592	-0.59210	0.42087	-0.40961	-0.55170	31.3	13111	100
2025-3-27 15:8:12.722	WT901BLE68-01(48591DE3C19B)	1.086	-1.196	-0.072	-120.483	15.198	-87.830	-24.21	68.07	72.00	-47.824	-26.950	88.592	-0.59210	0.42087	-0.40961	-0.55170	31.3	13111	100
2025-3-27 15:8:12.722	WT901BLE68-01(48591DE3C19B)	0.964	-1.196	-0.072	-120.483	15.198	-87.830	-28.91	67.86	68.22	-47.824	-26.950	88.592	-0.59210	0.42087	-0.40961	-0.55170	31.3	13111	100
2025-3-27 15:8:12.722	WT901BLE68-01(48591DE3C19B)	0.964	-1.372	-0.029	-88.562	44.983	-146.118	-34.13	67.51	63.67	-47.824	-26.950	88.592	-0.59210	0.42087	-0.40961	-0.55170	31.3	13111	100
2025-3-27 15:8:12.722	WT901BLE68-01(48591DE3C19B)	0.884	-1.372	-0.029	-88.562	44.983	-146.118	-39.79	66.95	58.48	-47.824	-26.950	88.592	-0.59210	0.42087	-0.40961	-0.55170	31.3	13111	100
2025-3-27 15:8:12.782	WT901BLE68-01(48591DE3C19B)	0.884	-1.464	-0.085	-47.241	72.876	-206.787	-45.65	66.09	52.81	-47.824	-26.950	88.592	-0.59210	0.42087	-0.40961	-0.55170	31.3	13111	100
2025-3-27 15:8:12.782	WT901BLE68-01(48591DE3C19B)	0.858	-1.464	-0.085	-47.241	72.876	-206.787	-51.50	64.88	46.87	-47.824	-26.950	88.592	-0.59210	0.42087	-0.40961	-0.55170	31.3	13111	100
2025-3-27 15:8:12.783	WT901BLE68-01(48591DE3C19B)	0.858	-1.418	-0.146	-4.517	121.399	-253.967	-57.22	63.37	40.79	-47.824	-26.950	88.592	-0.59210	0.42087	-0.40961	-0.55170	31.3	13111	100
2025-3-27 15:8:12.783	WT901BLE68-01(48591DE3C19B)	0.659	-1.418	-0.146	-4.517	121.399	-253.967	-62.66	61.55	34.69	-47.824	-26.950	88.592	-0.59210	0.42087	-0.40961	-0.55170	31.3	13111	100
2025-3-27 15:8:12.812	WT901BLE68-01(48591DE3C19B)	0.659	-1.415	-0.111	26.001	199.646	-288.147	-67.93	59.47	28.49	-47.824	-26.950	88.592	-0.59210	0.42087	-0.40961	-0.55170	31.3	13111	100
2025-3-27 15:8:12.812	WT901BLE68-01(48591DE3C19B)	-0.089	-1.415	-0.111	26.001	199.646	-288.147	-72.95	57.11	22.28	-47.824	-26.950	88.592	-0.59210	0.42087	-0.40961	-0.55170	31.3	13111	100
2025-3-27 15:8:12.812	WT901BLE68-01(48591DE3C19B)	-0.089	-1.819	0.049	51.758	271.057	-316.467	-77.58	54.45	16.20	-47.824	-26.950	88.592	-0.59210	0.42087	-0.40961	-0.55170	31.3	13111	100
2025-3-27 15:8:12.812	WT901BLE68-01(48591DE3C19B)	-2.338	-1.819	0.049	51.758	271.057	-316.467	-81.77	51.48	10.29	-44.296	-56.252	77.420	-0.59210	0.42087	-0.40961	-0.55170	31.3	13111	100
2025-3-27 15:8:12.841	WT901BLE68-01(48591DE3C19B)	-2.338	-2.800	0.061	80.688	280.945	-324.524	-85.08	48.28	5.06	-44.296	-56.252	77.420	-0.59210	0.42087	-0.40961	-0.55170	31.3	13111	100
2025-3-27 15:8:12.842	WT901BLE68-01(48591DE3C19B)	-4.228	-2.800	0.061	80.688	280.945	-324.524	-87.64	44.95	0.38	-44.296	-56.252	77.420	-0.59210	0.42087	-0.40961	-0.55170	31.3	13111	100
2025-3-27 15:8:12.842	WT901BLE68-01(48591DE3C19B)	-4.228	-3.637	0.025	185.852	93.689	-321.289	-88.28	41.56	-2.53	-44.296	-56.252	77.420	-0.59210	0.42087	-0.40961	-0.55170	31.3	13111	100
2025-3-27 15:8:12.842	WT901BLE68-01(48591DE3C19B)	-3.800	-3.637	0.025	185.852	93.689	-321.289	-87.36	38.25	-4.03	-44.296	-56.252	77.420	-0.59210	0.42087	-0.40961	-0.55170	31.3	13111	100
2025-3-27 15:8:12.902	WT901BLE68-01(48591DE3C19B)	-3.800	-2.586	0.257	196.289	18.799	-239.380	-86.03	35.40	-4.99	-44.296	-56.252	77.420	-0.59210	0.42087	-0.40961	-0.55170	31.3	13111	100
2025-3-27 15:8:12.902	WT901BLE68-01(48591DE3C19B)	-2.947	-2.586	0.257	196.289	18.799	-239.380	-84.36	33.01	-5.50	-44.296	-56.252	77.420	-0.59210	0.42087	-0.40961	-0.55170	31.3	13111	100
2025-3-27 15:8:12.902	WT901BLE68-01(48591DE3C19B)	-2.947	-2.107	0.283	186.646	151.489	-128.296	-83.13	31.29	-6.74	-44.296	-56.252	77.420	-0.59210	0.42087	-0.40961	-0.55170	31.3	13111	100
2025-3-27 15:8:12.902	WT901BLE68-01(48591DE3C19B)	-2.562	-2.107	0.283	186.646	151.489	-128.296	-82.29	30.24	-8.67	-44.296	-56.252	77.420	-0.59210	0.42087	-0.40961	-0.55170	31.3	13111	100
2025-3-27 15:8:12.932	WT901BLE68-01(48591DE3C19B)	-2.562	-1.395	0.044	207.275	231.079	-53.833	-81.63	30.08	-11.37	-44.296	-56.252	77.420	-0.59210	0.42087	-0.40961	-0.55170	31.3	13111	100
2025-3-27 15:8:12.932	WT901BLE68-01(48591DE3C19B)	-2.120	-1.395	0.044	207.275	231.079	-53.833	-80.97	29.96	-14.05	-44.296	-56.252	77.420	-0.59210	0.42087	-0.40961	-0.55170	31.3	13111	100
2025-3-27 15:8:12.932	WT901BLE68-01(48591DE3C19B)	-2.120	-0.811	-0.049	222.961	224.060	-20.020	-80.10	30.21	-16.57	-44.296	-56.252	77.420	-0.59210	0.42087	-0.40961	-0.55170	31.3	13111	100
2025-3-27 15:8:12.932	WT901BLE68-01(48591DE3C19B)	-1.932	-0.811	-0.049	222.961	224.060	-20.020	-79.24	30.50	-19.08	-44.296	-56.252	77.420	-0.59210	0.42087	-0.40961	-0.55170	31.3	13111	100
2025-3-27 15:8:12.963	WT901BLE68-01(48591DE3C19B)	-1.932	-0.348	-0.138	218.262	173.096	0.977	-78.14	30.94	-20.96	-44.296	-56.252	77.420	-0.59210	0.42087	-0.40961	-0.55170	31.3	13111	100
2025-3-27 15:8:12.963	WT901BLE68-01(48591DE3C19B)	-1.621	-0.348	-0.138	218.262	173.096	0.977	-77.06	31.42	-22.84	-44.296	-56.252	77.420	-0.59210	0.42087	-0.40961	-0.55170	31.3	13111	100
2025-3-27 15:8:12.963	WT901BLE68-01(48591DE3C19B)	-1.621	-0.036	-0.221	192.993	102.539	6.531	-75.83	31.84	-23.87	-44.296	-56.252	77.420	-0.59210	0.42087	-0.40961	-0.55170	31.3	13111	100
2025-3-27 15:8:12.963	WT901BLE68-01(48591DE3C19B)	-1.056	-0.036	-0.221	192.993	102.539	6.531	-74.62	32.28	-24.91	-44.296	-56.252	77.420	-0.59210	0.42087	-0.40961	-0.55170	31.3	13111	100
2025-3-27 15:8:13.22	WT901BLE68-01(48591DE3C19B)	-1.056	0.217	-0.331	183.716	66.467	2.747	-73.31	32.62	-25.54	-44.296	-56.252	77.420	-0.59210	0.42087	-0.40961	-0.55170	31.3	13111	100
2025-3-27 15:8:13.22	WT901BLE68-01(48591DE3C19B)	-0.679	0.217	-0.331	183.716	66.467	2.747	-72.02	32.99	-26.16	-44.296	-56.252	77.420	-0.59210	0.42087	-0.40961	-0.55170	31.3	13111	100
2025-3-27 15:8:13.22	WT901BLE68-01(48591DE3C19B)	-0.679	0.475	-0.507	184.692	72.327	-6.104	-70.78	33.31	-26.88	-44.296	-56.252	77.420	-0.59210	0.42087	-0.40961	-0.55170	31.3	13111	100
2025-3-27 15:8:13.22	WT901BLE68-01(48591DE3C19B)	-0.468	0.475	-0.507	184.692	72.327	-6.104	-69.58	33.65	-27.60	-44.296	-56.252	77.420	-0.59210	0.42087	-0.40961	-0.55170	31.3	13111	100
2025-3-27 15:8:13.53	WT901BLE68-01(48591DE3C19B)	-0.468	0.873	-0.633	148.682	75.378	-8.301	-68.78	34.01	-28.37	-44.296	-56.252	77.420	-0.80676	0.45993	-0.36902	0.03622	31.3	13111	100
2025-3-27 15:8:13.53	WT901BLE68-01(48591DE3C19B)	-0.313	0.873	-0.633	148.682	75.378	-8.301	-68.02	34.40	-29.15	-44.296	-56.252	77.420	-0.80676	0.45993	-0.36902	0.03622	31.3	13111	100
2025-3-27 15:8:13.53	WT901BLE68-01(48591DE3C19B)	-0.313	1.129	-0.608	61.462	83.984	12.146	-68.16	35.03	-29.94	-44.296	-56.252	77.420	-0.80676	0.45993	-0.36902	0.03622	31.3	13111	100
2025-3-27 15:8:13.53	WT901BLE68-01(48591DE3C19B)	-0.198	1.129	-0.608	61.462	83.984	12.146	-68.34	35.67	-30.75	-44.296	-56.252	77.420	-0.80676	0.45993	-0.36902	0.03622	31.3	13111	100
2025-3-27 15:8:13.81	WT901BLE68-01(48591DE3C19B)	-0.198	1.165	-0.483	11.169	92.590	26.428	-69.09	36.50	-31.61	-44.296	-56.252	77.420	-0.80676	0.45993	-0.36902	0.03622	31.3	13111	100
2025-3-27 15:8:13.81	WT901BLE68-01(48591DE3C19B)	-0.090	1.165	-0.483	11.169	92.590	26.428	-69.90	37.34	-32.52	-44.296	-56.252	77.420	-0.80676	0.45993	-0.36902	0.03622	31.3	13111	100
2025-3-27 15:8:13.81	WT901BLE68-01(48591DE3C19B)	-0.090	1.227	-0.488	-3.113	109.436	32.532	-71.01	38.29	-33.65	-44.296	-56.252	77.420	-0.80676	0.45993	-0.36902	0.03622	31.3	13111	100
2025-3-27 15:8:13.81	WT901BLE68-01(48591DE3C19B)	0.026	1.227	-0.488	-3.113	109.436	32.532	-72.19	39.25	-34.83	-44.296	-56.252	77.420	-0.80676	0.45993	-0.36902	0.03622	31.3	13111	100
2025-3-27 15:8:13.172	WT901BLE68-01(48591DE3C19B)	0.026	1.365	-0.427	-23.193	120.605	34.912	-73.72	40.26	-36.22	-44.296	-56.252	77.420	-0.80676	0.45993	-0.36902	0.03622	31.3	13111	100
2025-3-27 15:8:13.172	WT901BLE68-01(48591DE3C19B)	-0.048	1.365	-0.427	-23.193	120.605	34.912	-75.34	41.26	-37.69	-44.296	-56.252	77.420	-0.80676	0.45993	-0.36902	0.03622	31.3	13111	100
2025-3-27 15:8:13.173	WT901BLE68-01(48591DE3C19B)	-0.048	1.168	-0.385	-88.379	119.263	47.668	-77.66	42.35	-39.18	-44.296	-56.252	77.420	-0.80676	0.45993	-0.36902	0.03622	31.3	13111	100
2025-3-27 15:8:13.173	WT901BLE68-01(48591DE3C19B)	-0.321	1.168	-0.385	-88.379	119.263	47.668	-80.07	43.40	-40.78	-44.296	-56.252	77.420	-0.80676	0.45993	-0.36902	0.03622	31.3	13111	100
2025-3-27 15:8:13.173	WT901BLE68-01(48591DE3C19B)	-0.321	0.784	-0.295	-145.508	75.623	62.927	-82.69	44.49	-41.84	-44.296	-56.252	77.420	-0.80676	0.45993	-0.36902	0.03622	31.3	13111	100
2025-3-27 15:8:13.173	WT901BLE68-01(48591DE3C19B)	-0.865	0.784	-0.295	-145.508	75.623	62.927	-85.39	45.54	-42.99	-44.296	-56.252	77.420	-0.80676	0.45993	-0.36902	0.03622	31.3	13111	100
2025-3-27 15:8:13.174	WT901BLE68-01(48591DE3C19B)	-0.865	0.526	-0.379	-208.191	6.042	106.689	-88.03	46.94	-43.18	-44.296	-56.252	77.420	-0.80676	0.45993	-0.36902	0.03622	31.3	13111	100
2025-3-27 15:8:13.174	WT901BLE68-01(48591DE3C19B)	-2.108	0.526	-0.379	-208.191	6.042	106.689	-90.74	48.32	-43.45	-44.296	-56.252	77.420	-0.80676	0.45993	-0.36902	0.03622	31.3	13111	100
2025-3-27 15:8:13.203	WT901BLE68-01(48591DE3C19B)	-2.108	0.025	-0.271	-276.978	19.226	198.853	-94.37	50.58	-44.06	-44.296	-56.252	77.420	-0.80676	0.45993	-0.36902	0.03622	31.3	13111	100
2025-3-27 15:8:13.203	WT901BLE68-01(48591DE3C19B)	-3.024	0.025	-0.271	-276.978	19.226	198.853	-98.15	52.79	-44.87	-44.296	-56.252	77.420	-0.80676	0.45993	-0.36902	0.03622	31.3	13111	100
2025-3-27 15:8:13.203	WT901BLE68-01(48591DE3C19B)	-3.024	-0.764	-0.273	-274.780	76.477	277.771	-103.08	55.59	-47.13	-44.296	-56.252	77.420	-0.80676	0.45993	-0.36902	0.03622	31.3	13111	100
2025-3-27 15:8:13.203	WT901BLE68-01(48591DE3C19B)	-3.484	-0.764	-0.273	-274.780	76.477	277.771	-108.49	58.23	-49.92	-44.296	-56.252	77.420	-0.80676	0.45993	-0.36902	0.03622	31.3	13111	100
2025-3-27 15:8:13.262	WT901BLE68-01(48591DE3C19B)	-3.484	-0.892	-0.590	-257.141	82.397	320.435	-114.70	61.03	-53.79	-44.296	-56.252	77.420	-0.80676	0.45993	-0.36902	0.03622	31.3	13111	100
2025-3-27 15:8:13.262	WT901BLE68-01(48591DE3C19B)	-4.983	-0.892	-0.590	-257.141	82.397	320.435	-121.81	63.57	-58.61	-70.070	-28.812	86.926	-0.80676	0.45993	-0.36902	0.03622	31.3	13111	100
2025-3-27 15:8:13.262	WT901BLE68-01(48591DE3C19B)	-4.983	-0.950	-0.732	-290.894	67.139	335.388	-130.26	65.97	-64.46	-70.070	-28.812	86.926	-0.80676	0.45993	-0.36902	0.03622	31.3	13111	100
2025-3-27 15:8:13.262	WT901BLE68-01(48591DE3C19B)	-4.986	-0.950	-0.732	-290.894	67.139	335.388	-140.02	67.92	-71.65	-70.070	-28.812	86.926	-0.80676	0.45993	-0.36902	0.03622	31.3	13111	100
2025-3-27 15:8:13.295	WT901BLE68-01(48591DE3C19B)	-4.986	-1.794	-0.783	-333.435	-132.080	312.988	-148.09	70.87	-76.50	-70.070	-28.812	86.926	-0.80676	0.45993	-0.36902	0.03622	31.3	13111	100
2025-3-27 15:8:13.295	WT901BLE68-01(48591DE3C19B)	-2.913	-1.794	-0.783	-333.435	-132.080	312.988	-158.23	73.50	-83.45	-70.070	-28.812	86.926	-0.80676	0.45993	-0.36902	0.03622	31.3	13111	100
2025-3-27 15:8:13.295	WT901BLE68-01(48591DE3C19B)	-2.913	-2.705	-1.178	-294.556	-172.974	288.696	-169.38	75.99	-91.80	-70.070	-28.812	86.926	-0.80676	0.45993	-0.36902	0.03622	31.3	13111	100
2025-3-27 15:8:13.295	WT901BLE68-01(48591DE3C19B)	-1.711	-2.705	-1.178	-294.556	-172.974	288.696	176.06	77.90	-103.59	-70.070	-28.812	86.926	-0.80676	0.45993	-0.36902	0.03622	31.3	13111	100
2025-3-27 15:8:13.322	WT901BLE68-01(48591DE3C19B)	-1.711	-1.915	-0.675	-106.995	-95.581	237.244	163.58	78.47	-115.13	-70.070	-28.812	86.926	-0.80676	0.45993	-0.36902	0.03622	31.3	13111	100
2025-3-27 15:8:13.322	WT901BLE68-01(48591DE3C19B)	-1.128	-1.915	-0.675	-106.995	-95.581	237.244	150.64	78.49	-127.15	-70.070	-28.812	86.926	-0.80676	0.45993	-0.36902	0.03622	31.3	13111	100
2025-3-27 15:8:13.322	WT901BLE68-01(48591DE3C19B)	-1.128	-0.985	-0.212	-109.314	-60.791	202.942	140.55	77.95	-136.25	-70.070	-28.812	86.926	-0.80676	0.45993	-0.36902	0.03622	31.3	13111	100
2025-3-27 15:8:13.322	WT901BLE68-01(48591DE3C19B)	-0.635	-0.985	-0.212	-109.314	-60.791	202.942	131.57	77.11	-144.25	-70.070	-28.812	86.926	-0.80676	0.45993	-0.36902	0.03622	31.3	13111	100
2025-3-27 15:8:13.381	WT901BLE68-01(48591DE3C19B)	-0.279	-0.792	-0.034	-115.967	-98.389	151.733	123.64	76.68	-151.12	-70.070	-28.812	86.926	-0.80676	0.45993	-0.36902	0.03622	31.3	13111	100
2025-3-27 15:8:13.381	WT901BLE68-01(48591DE3C19B)	-0.279	-0.552	-0.123	-100.586	-170.166	96.985	115.60	76.45	-158.22	-70.070	-28.812	86.926	-0.80676	0.45993	-0.36902	0.03622	31.3	13111	100
2025-3-27 15:8:13.381	WT901BLE68-01(48591DE3C19B)	0.390	-0.552	-0.123	-100.586	-170.166	96.985	107.01	76.38	-165.95	-70.070	-28.812	86.926	-0.80676	0.45993	-0.36902	0.03622	31.3	13111	100
2025-3-27 15:8:13.381	WT901BLE68-01(48591DE3C19B)	0.390	-0.542	-0.252	-129.700	-193.298	45.105	98.28	76.32	-173.70	-70.070	-28.812	86.926	-0.80676	0.45993	-0.36902	0.03622	31.3	13111	100
2025-3-27 15:8:13.412	WT901BLE68-01(48591DE3C19B)	1.086	-0.542	-0.252	-129.700	-193.298	45.105	89.26	76.25	178.39	-70.070	-28.812	86.926	-0.80676	0.45993	-0.36902	0.03622	31.3	13111	100
2025-3-27 15:8:13.412	WT901BLE68-01(48591DE3C19B)	1.086	-0.900	-0.303	-151.550	-176.941	-22.888	80.57	76.26	170.93	-70.070	-28.812	86.926	-0.80676	0.45993	-0.36902	0.03622	31.3	13111	100
2025-3-27 15:8:13.412	WT901BLE68-01(48591DE3C19B)	1.411	-0.900	-0.303	-151.550	-176.941	-22.888	71.93	76.37	163.59	-70.070	-28.812	86.926	-0.80676	0.45993	-0.36902	0.03622	31.3	13111	100
2025-3-27 15:8:13.412	WT901BLE68-01(48591DE3C19B)	1.411	-1.229	-0.389	-137.390	-133.667	-56.946	63.93	76.51	156.85	-70.070	-28.812	86.926	-0.80676	0.45993	-0.36902	0.03622	31.3	13111	100
2025-3-27 15:8:13.441	WT901BLE68-01(48591DE3C19B)	1.445	-1.229	-0.389	-137.390	-133.667	-56.946	56.42	76.74	150.50	-70.070	-28.812	86.926	-0.80676	0.45993	-0.36902	0.03622	31.3	13111	100
2025-3-27 15:8:13.441	WT901BLE68-01(48591DE3C19B)	1.445	-1.353	-0.412	-99.792	-85.327	-90.393	49.33	77.11	144.37	-70.070	-28.812	86.926	-0.80676	0.45993	-0.36902	0.03622	31.3	13111	100
2025-3-27 15:8:13.441	WT901BLE68-01(48591DE3C19B)	1.346	-1.353	-0.412	-99.792	-85.327	-90.393	42.34	77.63	138.16	-70.070	-28.812	86.926	-0.47086	0.44553	-0.47153	-0.59781	31.3	13111	100
2025-3-27 15:8:13.442	WT901BLE68-01(48591DE3C19B)	1.346	-1.294	-0.353	-65.918	-27.466	-138.062	34.89	78.39	131.32	-70.070	-28.812	86.926	-0.47086	0.44553	-0.47153	-0.59781	31.3	13111	100
2025-3-27 15:8:13.503	WT901BLE68-01(48591DE3C19B)	1.063	-1.294	-0.353	-65.918	-27.466	-138.062	26.32	79.34	123.17	-70.070	-28.812	86.926	-0.47086	0.44553	-0.47153	-0.59781	31.3	13111	100
2025-3-27 15:8:13.503	WT901BLE68-01(48591DE3C19B)	1.063	-1.432	-0.282	-44.739	27.527	-191.833	15.36	80.39	112.54	-70.070	-28.812	86.926	-0.47086	0.44553	-0.47153	-0.59781	31.3	13111	100
2025-3-27 15:8:13.503	WT901BLE68-01(48591DE3C19B)	0.714	-1.432	-0.282	-44.739	27.527	-191.833	0.79	81.31	98.16	-70.070	-28.812	86.926	-0.47086	0.44553	-0.47153	-0.59781	31.3	13111	100
2025-3-27 15:8:13.503	WT901BLE68-01(48591DE3C19B)	0.714	-1.534	-0.191	-4.333	57.861	-243.530	-17.68	81.66	79.67	-70.070	-28.812	86.926	-0.47086	0.44553	-0.47153	-0.59781	31.3	13111	100
2025-3-27 15:8:13.533	WT901BLE68-01(48591DE3C19B)	0.344	-1.534	-0.191	-4.333	57.861	-243.530	-37.44	81.10	59.67	-70.070	-28.812	86.926	-0.47086	0.44553	-0.47153	-0.59781	31.3	13111	100
2025-3-27 15:8:13.533	WT901BLE68-01(48591DE3C19B)	0.344	-1.476	-0.048	32.715	60.974	-287.781	-53.79	79.48	42.87	-70.070	-28.812	86.926	-0.47086	0.44553	-0.47153	-0.59781	31.3	13111	100
2025-3-27 15:8:13.533	WT901BLE68-01(48591DE3C19B)	0.109	-1.476	-0.048	32.715	60.974	-287.781	-65.32	77.06	30.71	-70.070	-28.812	86.926	-0.47086	0.44553	-0.47153	-0.59781	31.3	13111	100
2025-3-27 15:8:13.533	WT901BLE68-01(48591DE3C19B)	0.109	-1.433	0.070	55.237	46.326	-325.073	-72.70	74.08	22.58	-70.070	-28.812	86.926	-0.47086	0.44553	-0.47153	-0.59781	31.3	13111	100
2025-3-27 15:8:13.561	WT901BLE68-01(48591DE3C19B)	-0.148	-1.433	0.070	55.237	46.326	-325.073	-77.34	70.72	17.06	-70.070	-28.812	86.926	-0.47086	0.44553	-0.47153	-0.59781	31.3	13111	100
2025-3-27 15:8:13.562	WT901BLE68-01(48591DE3C19B)	-0.148	-1.468	0.194	74.524	13.489	-349.731	-79.99	67.12	13.46	-70.070	-28.812	86.926	-0.47086	0.44553	-0.47153	-0.59781	31.3	13111	100
2025-3-27 15:8:13.562	WT901BLE68-01(48591DE3C19B)	-1.285	-1.468	0.194	74.524	13.489	-349.731	-81.38	63.35	11.04	-70.070	-28.812	86.926	-0.47086	0.44553	-0.47153	-0.59781	31.3	13111	100
2025-3-27 15:8:13.562	WT901BLE68-01(48591DE3C19B)	-1.285	-1.733	0.509	69.824	-63.599	-347.107	-81.63	59.53	9.88	-70.070	-28.812	86.926	-0.47086	0.44553	-0.47153	-0.59781	31.3	13111	100
2025-3-27 15:8:13.622	WT901BLE68-01(48591DE3C19B)	-3.171	-1.733	0.509	69.824	-63.599	-347.107	-81.10	55.72	9.59	-70.070	-28.812	86.926	-0.47086	0.44553	-0.47153	-0.59781	31.3	13111	100
2025-3-27 15:8:13.622	WT901BLE68-01(48591DE3C19B)	-3.171	-2.676	0.741	7.202	-99.731	-370.972	-80.65	51.80	9.60	-70.070	-28.812	86.926	-0.47086	0.44553	-0.47153	-0.59781	31.3	13111	100
2025-3-27 15:8:13.622	WT901BLE68-01(48591DE3C19B)	-3.346	-2.676	0.741	7.202	-99.731	-370.972	-80.27	47.79	9.90	-70.070	-28.812	86.926	-0.47086	0.44553	-0.47153	-0.59781	31.3	13111	100
2025-3-27 15:8:13.622	WT901BLE68-01(48591DE3C19B)	-3.346	-2.740	1.231	104.004	-3.296	-360.657	-79.90	43.97	9.56	-70.070	-28.812	86.926	-0.47086	0.44553	-0.47153	-0.59781	31.3	13111	100
2025-3-27 15:8:13.653	WT901BLE68-01(48591DE3C19B)	-3.554	-2.740	1.231	104.004	-3.296	-360.657	-79.45	40.34	8.62	-42.238	-52.724	73.206	-0.47086	0.44553	-0.47153	-0.59781	31.3	13111	100
2025-3-27 15:8:13.653	WT901BLE68-01(48591DE3C19B)	-3.554	-2.425	1.396	98.694	177.124	-234.375	-79.55	37.54	6.78	-42.238	-52.724	73.206	-0.47086	0.44553	-0.47153	-0.59781	31.3	13111	100
2025-3-27 15:8:13.653	WT901BLE68-01(48591DE3C19B)	-3.402	-2.425	1.396	98.694	177.124	-234.375	-80.14	35.55	4.10	-42.238	-52.724	73.206	-0.47086	0.44553	-0.47153	-0.59781	31.3	13111	100
2025-3-27 15:8:13.653	WT901BLE68-01(48591DE3C19B)	-3.402	-2.094	0.788	164.856	248.718	-115.662	-80.45	34.21	1.23	-42.238	-52.724	73.206	-0.47086	0.44553	-0.47153	-0.59781	31.3	13111	100
2025-3-27 15:8:13.681	WT901BLE68-01(48591DE3C19B)	-2.737	-2.094	0.788	164.856	248.718	-115.662	-80.54	33.52	-1.87	-42.238	-52.724	73.206	-0.47086	0.44553	-0.47153	-0.59781	31.3	13111	100
2025-3-27 15:8:13.681	WT901BLE68-01(48591DE3C19B)	-2.737	-1.160	0.197	222.412	277.222	-31.738	-80.36	33.29	-5.03	-42.238	-52.724	73.206	-0.47086	0.44553	-0.47153	-0.59781	31.3	13111	100
2025-3-27 15:8:13.681	WT901BLE68-01(48591DE3C19B)	-2.224	-1.160	0.197	222.412	277.222	-31.738	-79.96	33.54	-8.25	-42.238	-52.724	73.206	-0.47086	0.44553	-0.47153	-0.59781	31.3	13111	100
2025-3-27 15:8:13.681	WT901BLE68-01(48591DE3C19B)	-2.224	-0.405	0.060	242.371	272.278	6.104	-79.45	33.99	-11.39	-42.238	-52.724	73.206	-0.47086	0.44553	-0.47153	-0.59781	31.3	13111	100
2025-3-27 15:8:13.742	WT901BLE68-01(48591DE3C19B)	-1.943	-0.405	0.060	242.371	272.278	6.104	-78.85	34.66	-14.47	-42.238	-52.724	73.206	-0.47086	0.44553	-0.47153	-0.59781	31.3	13111	100
2025-3-27 15:8:13.743	WT901BLE68-01(48591DE3C19B)	-1.943	0.201	0.056	203.674	209.656	19.775	-78.27	35.36	-17.16	-42.238	-52.724	73.206	-0.47086	0.44553	-0.47153	-0.59781	31.3	13111	100
2025-3-27 15:8:13.743	WT901BLE68-01(48591DE3C19B)	-1.417	0.201	0.056	203.674	209.656	19.775	-77.71	36.12	-19.45	-42.238	-52.724	73.206	-0.47086	0.44553	-0.47153	-0.59781	31.3	13111	100
2025-3-27 15:8:13.743	WT901BLE68-01(48591DE3C19B)	-1.417	0.456	0.042	138.000	122.253	36.011	-77.18	36.88	-21.19	-42.238	-52.724	73.206	-0.47086	0.44553	-0.47153	-0.59781	31.3	13111	100
2025-3-27 15:8:13.777	WT901BLE68-01(48591DE3C19B)	-0.815	0.456	0.042	138.000	122.253	36.011	-76.70	37.64	-22.39	-42.238	-52.724	73.206	-0.47086	0.44553	-0.47153	-0.59781	31.3	13111	100
2025-3-27 15:8:13.777	WT901BLE68-01(48591DE3C19B)	-0.815	0.471	-0.115	112.488	84.961	36.255	-76.22	38.39	-23.35	-42.238	-52.724	73.206	-0.47086	0.44553	-0.47153	-0.59781	31.3	13111	100
2025-3-27 15:8:13.777	WT901BLE68-01(48591DE3C19B)	-0.318	0.471	-0.115	112.488	84.961	36.255	-75.76	39.10	-24.08	-42.238	-52.724	73.206	-0.47086	0.44553	-0.47153	-0.59781	31.3	13111	100
2025-3-27 15:8:13.777	WT901BLE68-01(48591DE3C19B)	-0.318	0.597	-0.280	120.178	105.713	26.123	-75.37	39.80	-24.97	-42.238	-52.724	73.206	-0.47086	0.44553	-0.47153	-0.59781	31.3	13111	100
2025-3-27 15:8:13.833	WT901BLE68-01(48591DE3C19B)	-0.078	0.597	-0.280	120.178	105.713	26.123	-75.06	40.50	-26.00	-42.238	-52.724	73.206	-0.47086	0.44553	-0.47153	-0.59781	31.3	13111	100
2025-3-27 15:8:13.833	WT901BLE68-01(48591DE3C19B)	-0.078	0.994	-0.456	101.990	110.168	32.104	-74.90	41.23	-27.06	-42.238	-52.724	73.206	-0.47086	0.44553	-0.47153	-0.59781	31.3	13111	100
2025-3-27 15:8:13.833	WT901BLE68-01(48591DE3C19B)	-0.054	0.994	-0.456	101.990	110.168	32.104	-74.88	42.02	-28.17	-42.238	-52.724	73.206	-0.47086	0.44553	-0.47153	-0.59781	31.3	13111	100
2025-3-27 15:8:13.833	WT901BLE68-01(48591DE3C19B)	-0.054	1.219	-0.525	13.489	75.989	39.185	-75.50	42.81	-28.83	-42.238	-52.724	73.206	-0.47086	0.44553	-0.47153	-0.59781	31.3	13111	100
2025-3-27 15:8:13.864	WT901BLE68-01(48591DE3C19B)	0.055	1.219	-0.525	13.489	75.989	39.185	-76.17	43.61	-29.54	-42.238	-52.724	73.206	-0.76218	0.48065	-0.43182	-0.03818	31.3	13111	100
2025-3-27 15:8:13.864	WT901BLE68-01(48591DE3C19B)	0.055	1.109	-0.414	-48.340	55.054	47.363	-77.32	44.46	-30.00	-42.238	-52.724	73.206	-0.76218	0.48065	-0.43182	-0.03818	31.3	13111	100
2025-3-27 15:8:13.864	WT901BLE68-01(48591DE3C19B)	0.134	1.109	-0.414	-48.340	55.054	47.363	-78.53	45.31	-30.51	-42.238	-52.724	73.206	-0.76218	0.48065	-0.43182	-0.03818	31.3	13111	100
2025-3-27 15:8:13.864	WT901BLE68-01(48591DE3C19B)	0.134	1.090	-0.302	-74.402	48.584	49.744	-80.01	46.19	-31.00	-42.238	-52.724	73.206	-0.76218	0.48065	-0.43182	-0.03818	31.3	13111	100
2025-3-27 15:8:13.894	WT901BLE68-01(48591DE3C19B)	0.128	1.090	-0.302	-74.402	48.584	49.744	-81.55	47.08	-31.56	-42.238	-52.724	73.206	-0.76218	0.48065	-0.43182	-0.03818	31.3	13111	100
2025-3-27 15:8:13.894	WT901BLE68-01(48591DE3C19B)	0.128	1.094	-0.190	-106.262	36.865	55.786	-83.35	48.02	-32.03	-42.238	-52.724	73.206	-0.76218	0.48065	-0.43182	-0.03818	31.3	13111	100
2025-3-27 15:8:13.894	WT901BLE68-01(48591DE3C19B)	0.042	1.094	-0.190	-106.262	36.865	55.786	-85.23	48.97	-32.57	-42.238	-52.724	73.206	-0.76218	0.48065	-0.43182	-0.03818	31.3	13111	100
2025-3-27 15:8:13.894	WT901BLE68-01(48591DE3C19B)	0.042	0.900	-0.116	-147.461	21.729	61.462	-87.40	49.97	-32.98	-42.238	-52.724	73.206	-0.76218	0.48065	-0.43182	-0.03818	31.3	13111	100
2025-3-27 15:8:13.953	WT901BLE68-01(48591DE3C19B)	-0.163	0.900	-0.116	-147.461	21.729	61.462	-89.64	50.96	-33.45	-42.238	-52.724	73.206	-0.76218	0.48065	-0.43182	-0.03818	31.3	13111	100
2025-3-27 15:8:13.953	WT901BLE68-01(48591DE3C19B)	-0.163	0.643	-0.163	-179.871	4.089	67.810	-92.05	52.01	-33.74	-42.238	-52.724	73.206	-0.76218	0.48065	-0.43182	-0.03818	31.3	13111	100
2025-3-27 15:8:13.953	WT901BLE68-01(48591DE3C19B)	-0.819	0.643	-0.163	-179.871	4.089	67.810	-94.52	53.06	-34.11	-42.238	-52.724	73.206	-0.76218	0.48065	-0.43182	-0.03818	31.3	13111	100
2025-3-27 15:8:13.953	WT901BLE68-01(48591DE3C19B)	-0.819	0.458	-0.403	-248.413	-17.944	101.318	-97.49	54.44	-34.25	-42.238	-52.724	73.206	-0.76218	0.48065	-0.43182	-0.03818	31.3	13111	100
2025-3-27 15:8:13.982	WT901BLE68-01(48591DE3C19B)	-2.495	0.458	-0.403	-248.413	-17.944	101.318	-100.54	55.79	-34.50	-42.238	-52.724	73.206	-0.76218	0.48065	-0.43182	-0.03818	31.3	13111	100
2025-3-27 15:8:13.982	WT901BLE68-01(48591DE3C19B)	-2.495	-0.049	-0.381	-310.547	58.960	178.711	-105.69	57.67	-36.54	-42.238	-52.724	73.206	-0.76218	0.48065	-0.43182	-0.03818	31.3	13111	100
2025-3-27 15:8:13.982	WT901BLE68-01(48591DE3C19B)	-3.741	-0.049	-0.381	-310.547	58.960	178.711	-111.12	59.40	-38.89	-42.238	-52.724	73.206	-0.76218	0.48065	-0.43182	-0.03818	31.3	13111	100
2025-3-27 15:8:13.982	WT901BLE68-01(48591DE3C19B)	-3.741	-0.364	-0.807	-244.019	121.399	241.577	-117.68	61.28	-43.28	-42.238	-52.724	73.206	-0.76218	0.48065	-0.43182	-0.03818	31.3	13111	100
2025-3-27 15:8:14.13	WT901BLE68-01(48591DE3C19B)	-5.007	-0.364	-0.807	-244.019	121.399	241.577	-124.80	62.85	-48.27	-42.238	-52.724	73.206	-0.76218	0.48065	-0.43182	-0.03818	31.3	13111	100
2025-3-27 15:8:14.13	WT901BLE68-01(48591DE3C19B)	-5.007	-0.358	-1.271	-272.949	95.276	280.334	-132.90	64.53	-53.98	-42.238	-52.724	73.206	-0.76218	0.48065	-0.43182	-0.03818	31.3	13111	100
2025-3-27 15:8:14.13	WT901BLE68-01(48591DE3C19B)	-5.078	-0.358	-1.271	-272.949	95.276	280.334	-141.74	65.81	-60.45	-42.238	-52.724	73.206	-0.76218	0.48065	-0.43182	-0.03818	31.3	13111	100
2025-3-27 15:8:14.13	WT901BLE68-01(48591DE3C19B)	-5.078	-1.333	-1.114	-294.800	-35.645	329.773	-150.84	67.99	-66.91	-42.238	-52.724	73.206	-0.76218	0.48065	-0.43182	-0.03818	31.3	13111	100
2025-3-27 15:8:14.73	WT901BLE68-01(48591DE3C19B)	-3.389	-1.333	-1.114	-294.800	-35.645	329.773	-161.30	69.70	-74.76	-42.238	-52.724	73.206	-0.76218	0.48065	-0.43182	-0.03818	31.3	13111	100
2025-3-27 15:8:14.74	WT901BLE68-01(48591DE3C19B)	-3.389	-2.052	-1.206	-263.184	-93.140	305.237	-171.69	71.35	-82.82	-69.286	-51.940	74.578	-0.76218	0.48065	-0.43182	-0.03818	31.3	13111	100
2025-3-27 15:8:14.74	WT901BLE68-01(48591DE3C19B)	-2.101	-2.052	-1.206	-263.184	-93.140	305.237	176.61	72.44	-92.22	-69.286	-51.940	74.578	-0.76218	0.48065	-0.43182	-0.03818	31.3	13111	100
2025-3-27 15:8:14.74	WT901BLE68-01(48591DE3C19B)	-2.101	-1.943	-0.916	-138.489	-60.852	261.108	166.96	72.71	-100.75	-69.286	-51.940	74.578	-0.76218	0.48065	-0.43182	-0.03818	31.3	13111	100
2025-3-27 15:8:14.101	WT901BLE68-01(48591DE3C19B)	-1.417	-1.943	-0.916	-138.489	-60.852	261.108	157.38	72.55	-109.24	-69.286	-51.940	74.578	-0.76218	0.48065	-0.43182	-0.03818	31.3	13111	100
2025-3-27 15:8:14.101	WT901BLE68-01(48591DE3C19B)	-1.417	-1.151	-0.402	-105.957	-53.650	223.450	149.68	72.11	-116.13	-69.286	-51.940	74.578	-0.76218	0.48065	-0.43182	-0.03818	31.3	13111	100
2025-3-27 15:8:14.101	WT901BLE68-01(48591DE3C19B)	-0.765	-1.151	-0.402	-105.957	-53.650	223.450	142.49	71.42	-122.51	-69.286	-51.940	74.578	-0.76218	0.48065	-0.43182	-0.03818	31.3	13111	100
2025-3-27 15:8:14.101	WT901BLE68-01(48591DE3C19B)	-0.765	-0.986	-0.248	-119.324	-108.704	172.852	135.74	71.25	-128.31	-69.286	-51.940	74.578	-0.76218	0.48065	-0.43182	-0.03818	31.3	13111	100
2025-3-27 15:8:14.135	WT901BLE68-01(48591DE3C19B)	-0.124	-0.986	-0.248	-119.324	-108.704	172.852	129.23	70.86	-133.88	-69.286	-51.940	74.578	-0.76218	0.48065	-0.43182	-0.03818	31.3	13111	100
2025-3-27 15:8:14.135	WT901BLE68-01(48591DE3C19B)	-0.124	-0.821	-0.194	-104.492	-152.283	118.896	123.02	70.98	-139.30	-69.286	-51.940	74.578	-0.76218	0.48065	-0.43182	-0.03818	31.3	13111	100
2025-3-27 15:8:14.135	WT901BLE68-01(48591DE3C19B)	0.510	-0.821	-0.194	-104.492	-152.283	118.896	116.88	70.91	-144.68	-69.286	-51.940	74.578	-0.76218	0.48065	-0.43182	-0.03818	31.3	13111	100
2025-3-27 15:8:14.135	WT901BLE68-01(48591DE3C19B)	0.510	-0.692	-0.184	-124.817	-159.363	58.472	111.14	71.24	-149.43	-69.286	-51.940	74.578	-0.76218	0.48065	-0.43182	-0.03818	31.3	13111	100
2025-3-27 15:8:14.194	WT901BLE68-01(48591DE3C19B)	0.988	-0.692	-0.184	-124.817	-159.363	58.472	105.33	71.43	-154.25	-69.286	-51.940	74.578	-0.76218	0.48065	-0.43182	-0.03818	31.3	13111	100
2025-3-27 15:8:14.194	WT901BLE68-01(48591DE3C19B)	0.988	-1.028	-0.212	-163.940	-153.931	0.854	99.64	72.03	-158.56	-69.286	-51.940	74.578	-0.76218	0.48065	-0.43182	-0.03818	31.3	13111	100
2025-3-27 15:8:14.194	WT901BLE68-01(48591DE3C19B)	1.435	-1.028	-0.212	-163.940	-153.931	0.854	93.77	72.50	-163.08	-69.286	-51.940	74.578	-0.76218	0.48065	-0.43182	-0.03818	31.3	13111	100
2025-3-27 15:8:14.194	WT901BLE68-01(48591DE3C19B)	1.435	-1.313	-0.249	-150.696	-126.831	-47.668	88.80	73.36	-166.82	-69.286	-51.940	74.578	-0.76218	0.48065	-0.43182	-0.03818	31.3	13111	100
2025-3-27 15:8:14.225	WT901BLE68-01(48591DE3C19B)	1.503	-1.313	-0.249	-150.696	-126.831	-47.668	83.56	74.14	-170.85	-69.286	-51.940	74.578	-0.76218	0.48065	-0.43182	-0.03818	31.3	13111	100
2025-3-27 15:8:14.225	WT901BLE68-01(48591DE3C19B)	1.503	-1.316	-0.197	-116.699	-70.190	-87.524	80.21	75.33	-173.30	-69.286	-51.940	74.578	-0.76218	0.48065	-0.43182	-0.03818	31.3	13111	100
2025-3-27 15:8:14.225	WT901BLE68-01(48591DE3C19B)	1.291	-1.316	-0.197	-116.699	-70.190	-87.524	76.51	76.51	-176.11	-69.286	-51.940	74.578	-0.76218	0.48065	-0.43182	-0.03818	31.3	13111	100
2025-3-27 15:8:14.225	WT901BLE68-01(48591DE3C19B)	1.291	-1.281	-0.106	-91.980	-24.414	-146.484	73.86	78.35	-178.08	-69.286	-51.940	74.578	-0.37256	0.51779	-0.45111	-0.62408	31.3	13111	100
2025-3-27 15:8:14.254	WT901BLE68-01(48591DE3C19B)	1.085	-1.281	-0.106	-91.980	-24.414	-146.484	70.46	80.19	179.18	-69.286	-51.940	74.578	-0.37256	0.51779	-0.45111	-0.62408	31.3	13111	100
2025-3-27 15:8:14.255	WT901BLE68-01(48591DE3C19B)	1.085	-1.421	-0.041	-68.970	13.550	-216.553	66.52	82.79	175.70	-69.286	-51.940	74.578	-0.37256	0.51779	-0.45111	-0.62408	31.3	13111	100
2025-3-27 15:8:14.255	WT901BLE68-01(48591DE3C19B)	0.853	-1.421	-0.041	-68.970	13.550	-216.553	58.63	85.33	168.27	-69.286	-51.940	74.578	-0.37256	0.51779	-0.45111	-0.62408	31.3	13111	100
2025-3-27 15:8:14.255	WT901BLE68-01(48591DE3C19B)	0.853	-1.584	-0.035	-28.442	53.467	-281.677	25.45	88.29	135.14	-69.286	-51.940	74.578	-0.37256	0.51779	-0.45111	-0.62408	31.3	13111	100
2025-3-27 15:8:14.313	WT901BLE68-01(48591DE3C19B)	0.525	-1.584	-0.035	-28.442	53.467	-281.677	-75.55	87.40	34.19	-69.286	-51.940	74.578	-0.37256	0.51779	-0.45111	-0.62408	31.3	13111	100
2025-3-27 15:8:14.313	WT901BLE68-01(48591DE3C19B)	0.275	-1.628	-0.038	21.362	77.698	-333.557	-94.15	83.71	15.14	-69.286	-51.940	74.578	-0.37256	0.51779	-0.45111	-0.62408	31.3	13111	100
2025-3-27 15:8:14.313	WT901BLE68-01(48591DE3C19B)	0.275	-1.647	0.030	57.678	123.535	-364.075	-99.61	79.67	9.05	-69.286	-51.940	74.578	-0.37256	0.51779	-0.45111	-0.62408	31.3	13111	100
2025-3-27 15:8:14.313	WT901BLE68-01(48591DE3C19B)	-0.578	-1.647	0.030	57.678	123.535	-364.075	-102.40	75.41	5.42	-69.286	-51.940	74.578	-0.37256	0.51779	-0.45111	-0.62408	31.3	13111	100
2025-3-27 15:8:14.342	WT901BLE68-01(48591DE3C19B)	-0.578	-1.929	-0.001	81.238	192.261	-362.549	-104.58	71.06	2.23	-69.286	-51.940	74.578	-0.37256	0.51779	-0.45111	-0.62408	31.3	13111	100
2025-3-27 15:8:14.342	WT901BLE68-01(48591DE3C19B)	-3.809	-1.929	-0.001	81.238	192.261	-362.549	-106.41	66.63	-0.78	-69.286	-51.940	74.578	-0.37256	0.51779	-0.45111	-0.62408	31.3	13111	100
2025-3-27 15:8:14.342	WT901BLE68-01(48591DE3C19B)	-3.809	-3.251	-0.197	115.845	199.036	-328.491	-107.41	62.37	-3.18	-69.286	-51.940	74.578	-0.37256	0.51779	-0.45111	-0.62408	31.3	13111	100
2025-3-27 15:8:14.342	WT901BLE68-01(48591DE3C19B)	-5.110	-3.251	-0.197	115.845	199.036	-328.491	-107.86	58.34	-5.22	-69.286	-51.940	74.578	-0.37256	0.51779	-0.45111	-0.62408	31.3	13111	100
2025-3-27 15:8:14.404	WT901BLE68-01(48591DE3C19B)	-5.110	-3.048	-0.223	258.911	21.606	-320.618	-106.10	54.68	-5.50	-69.286	-51.940	74.578	-0.37256	0.51779	-0.45111	-0.62408	31.3	13111	100
2025-3-27 15:8:14.404	WT901BLE68-01(48591DE3C19B)	-4.234	-3.048	-0.223	258.911	21.606	-320.618	-102.68	51.38	-4.58	-69.286	-51.940	74.578	-0.37256	0.51779	-0.45111	-0.62408	31.3	13111	100
2025-3-27 15:8:14.404	WT901BLE68-01(48591DE3C19B)	-4.234	-1.686	0.237	232.361	142.822	-191.956	-100.51	48.63	-5.02	-69.286	-51.940	74.578	-0.37256	0.51779	-0.45111	-0.62408	31.3	13111	100
2025-3-27 15:8:14.404	WT901BLE68-01(48591DE3C19B)	-3.819	-1.686	0.237	232.361	142.822	-191.956	-99.32	46.46	-6.57	-69.286	-51.940	74.578	-0.37256	0.51779	-0.45111	-0.62408	31.3	13111	100
2025-3-27 15:8:14.434	WT901BLE68-01(48591DE3C19B)	-3.819	-1.479	0.093	229.858	255.859	-69.275	-98.76	44.87	-9.00	-69.286	-51.940	74.578	-0.37256	0.51779	-0.45111	-0.62408	31.3	13111	100
2025-3-27 15:8:14.435	WT901BLE68-01(48591DE3C19B)	-2.850	-1.479	0.093	229.858	255.859	-69.275	-98.79	43.82	-12.28	-69.286	-51.940	74.578	-0.37256	0.51779	-0.45111	-0.62408	31.3	13111	100
2025-3-27 15:8:14.435	WT901BLE68-01(48591DE3C19B)	-2.850	-0.737	-0.155	270.996	221.069	-25.330	-98.43	43.04	-15.29	-69.286	-51.940	74.578	-0.37256	0.51779	-0.45111	-0.62408	31.3	13111	100
2025-3-27 15:8:14.435	WT901BLE68-01(48591DE3C19B)	-2.103	-0.737	-0.155	270.996	221.069	-25.330	-97.70	42.55	-18.07	-69.286	-51.940	74.578	-0.37256	0.51779	-0.45111	-0.62408	31.3	13111	100
2025-3-27 15:8:14.464	WT901BLE68-01(48591DE3C19B)	-2.103	0.083	-0.422	271.240	177.856	-10.315	-96.77	42.20	-20.56	-49.294	-52.332	71.834	-0.37256	0.51779	-0.45111	-0.62408	31.3	13111	100
2025-3-27 15:8:14.464	WT901BLE68-01(48591DE3C19B)	-1.657	0.083	-0.422	271.240	177.856	-10.315	-95.67	42.00	-22.76	-49.294	-52.332	71.834	-0.37256	0.51779	-0.45111	-0.62408	31.3	13111	100
2025-3-27 15:8:14.464	WT901BLE68-01(48591DE3C19B)	-1.657	0.556	-0.494	213.745	147.461	4.089	-94.75	41.93	-24.77	-49.294	-52.332	71.834	-0.37256	0.51779	-0.45111	-0.62408	31.3	13111	100
2025-3-27 15:8:14.464	WT901BLE68-01(48591DE3C19B)	-1.144	0.556	-0.494	213.745	147.461	4.089	-94.01	41.97	-26.59	-49.294	-52.332	71.834	-0.37256	0.51779	-0.45111	-0.62408	31.3	13111	100
2025-3-27 15:8:14.494	WT901BLE68-01(48591DE3C19B)	-1.144	0.741	-0.378	163.086	100.220	11.353	-93.33	42.11	-28.09	-49.294	-52.332	71.834	-0.37256	0.51779	-0.45111	-0.62408	31.3	13111	100
2025-3-27 15:8:14.494	WT901BLE68-01(48591DE3C19B)	-0.561	0.741	-0.378	163.086	100.220	11.353	-92.73	42.30	-29.29	-49.294	-52.332	71.834	-0.37256	0.51779	-0.45111	-0.62408	31.3	13111	100
2025-3-27 15:8:14.494	WT901BLE68-01(48591DE3C19B)	-0.561	0.896	-0.342	142.639	73.181	25.024	-92.13	42.59	-30.31	-49.294	-52.332	71.834	-0.37256	0.51779	-0.45111	-0.62408	31.3	13111	100
2025-3-27 15:8:14.494	WT901BLE68-01(48591DE3C19B)	-0.112	0.896	-0.342	142.639	73.181	25.024	-91.55	42.98	-31.17	-49.294	-52.332	71.834	-0.37256	0.51779	-0.45111	-0.62408	31.3	13111	100
2025-3-27 15:8:14.553	WT901BLE68-01(48591DE3C19B)	-0.112	1.026	-0.407	110.291	63.110	22.278	-91.10	43.37	-31.97	-49.294	-52.332	71.834	-0.37256	0.51779	-0.45111	-0.62408	31.3	13111	100
2025-3-27 15:8:14.553	WT901BLE68-01(48591DE3C19B)	0.022	1.026	-0.407	110.291	63.110	22.278	-90.81	43.76	-32.72	-49.294	-52.332	71.834	-0.37256	0.51779	-0.45111	-0.62408	31.3	13111	100
2025-3-27 15:8:14.553	WT901BLE68-01(48591DE3C19B)	0.022	1.187	-0.416	56.824	56.396	26.611	-90.79	44.19	-33.45	-49.294	-52.332	71.834	-0.37256	0.51779	-0.45111	-0.62408	31.3	13111	100
2025-3-27 15:8:14.553	WT901BLE68-01(48591DE3C19B)	0.036	1.187	-0.416	56.824	56.396	26.611	-91.05	44.65	-34.16	-49.294	-52.332	71.834	-0.37256	0.51779	-0.45111	-0.62408	31.3	13111	100
2025-3-27 15:8:14.615	WT901BLE68-01(48591DE3C19B)	0.036	1.241	-0.388	8.057	40.833	31.616	-91.53	45.15	-34.80	-49.294	-52.332	71.834	-0.37256	0.51779	-0.45111	-0.62408	31.3	13111	100
2025-3-27 15:8:14.615	WT901BLE68-01(48591DE3C19B)	0.132	1.241	-0.388	8.057	40.833	31.616	-92.24	45.70	-35.39	-49.294	-52.332	71.834	-0.37256	0.51779	-0.45111	-0.62408	31.3	13111	100
2025-3-27 15:8:14.615	WT901BLE68-01(48591DE3C19B)	0.132	1.272	-0.368	-25.757	23.682	33.447	-93.07	46.26	-35.90	-49.294	-52.332	71.834	-0.37256	0.51779	-0.45111	-0.62408	31.3	13111	100
2025-3-27 15:8:14.615	WT901BLE68-01(48591DE3C19B)	0.190	1.272	-0.368	-25.757	23.682	33.447	-94.04	46.85	-36.35	-49.294	-52.332	71.834	-0.37256	0.51779	-0.45111	-0.62408	31.3	13111	100
2025-3-27 15:8:14.616	WT901BLE68-01(48591DE3C19B)	0.190	1.221	-0.344	-74.341	11.475	33.203	-95.24	47.45	-36.77	-49.294	-52.332	71.834	-0.37256	0.51779	-0.45111	-0.62408	31.3	13111	100
2025-3-27 15:8:14.616	WT901BLE68-01(48591DE3C19B)	0.078	1.221	-0.344	-74.341	11.475	33.203	-96.67	48.07	-37.17	-49.294	-52.332	71.834	-0.37256	0.51779	-0.45111	-0.62408	31.3	13111	100
2025-3-27 15:8:14.616	WT901BLE68-01(48591DE3C19B)	0.078	0.930	-0.318	-131.531	2.747	41.199	-98.39	48.74	-37.57	-49.294	-52.332	71.834	-0.37256	0.51779	-0.45111	-0.62408	31.3	13111	100
2025-3-27 15:8:14.616	WT901BLE68-01(48591DE3C19B)	-0.166	0.930	-0.318	-131.531	2.747	41.199	-100.40	49.45	-37.99	-49.294	-52.332	71.834	-0.37256	0.51779	-0.45111	-0.62408	31.3	13111	100
2025-3-27 15:8:14.674	WT901BLE68-01(48591DE3C19B)	-0.166	0.612	-0.386	-182.678	-10.681	54.626	-102.66	50.23	-38.38	-49.294	-52.332	71.834	-0.37256	0.51779	-0.45111	-0.62408	31.3	13111	100
2025-3-27 15:8:14.675	WT901BLE68-01(48591DE3C19B)	-0.974	0.612	-0.386	-182.678	-10.681	54.626	-105.14	51.09	-38.76	-49.294	-52.332	71.834	-0.63086	0.58890	-0.48499	-0.14108	31.3	13111	100
2025-3-27 15:8:14.675	WT901BLE68-01(48591DE3C19B)	-0.974	0.472	-0.690	-278.625	-11.108	98.267	-108.25	52.14	-39.31	-49.294	-52.332	71.834	-0.63086	0.58890	-0.48499	-0.14108	31.3	13111	100
2025-3-27 15:8:14.675	WT901BLE68-01(48591DE3C19B)	-3.110	0.472	-0.690	-278.625	-11.108	98.267	-111.99	53.34	-40.07	-49.294	-52.332	71.834	-0.63086	0.58890	-0.48499	-0.14108	31.3	13111	100
2025-3-27 15:8:14.704	WT901BLE68-01(48591DE3C19B)	-3.110	-0.241	-0.572	-351.196	113.586	199.158	-117.26	54.68	-42.28	-49.294	-52.332	71.834	-0.63086	0.58890	-0.48499	-0.14108	31.3	13111	100
2025-3-27 15:8:14.704	WT901BLE68-01(48591DE3C19B)	-4.128	-0.241	-0.572	-351.196	113.586	199.158	-124.18	55.98	-46.03	-49.294	-52.332	71.834	-0.63086	0.58890	-0.48499	-0.14108	31.3	13111	100
2025-3-27 15:8:14.704	WT901BLE68-01(48591DE3C19B)	-4.128	-0.446	-1.006	-264.771	148.438	252.136	-131.35	57.08	-50.60	-49.294	-52.332	71.834	-0.63086	0.58890	-0.48499	-0.14108	31.3	13111	100
2025-3-27 15:8:14.704	WT901BLE68-01(48591DE3C19B)	-5.144	-0.446	-1.006	-264.771	148.438	252.136	-138.79	57.91	-55.97	-49.294	-52.332	71.834	-0.63086	0.58890	-0.48499	-0.14108	31.3	13111	100
2025-3-27 15:8:14.740	WT901BLE68-01(48591DE3C19B)	-5.144	-0.604	-1.392	-289.795	104.126	292.114	-146.57	58.65	-61.58	-49.294	-52.332	71.834	-0.63086	0.58890	-0.48499	-0.14108	31.3	13111	100
2025-3-27 15:8:14.740	WT901BLE68-01(48591DE3C19B)	-4.364	-0.604	-1.392	-289.795	104.126	292.114	-154.75	59.25	-67.49	-49.294	-52.332	71.834	-0.63086	0.58890	-0.48499	-0.14108	31.3	13111	100
2025-3-27 15:8:14.740	WT901BLE68-01(48591DE3C19B)	-4.364	-1.263	-1.210	-264.893	-24.475	310.669	-162.71	60.05	-73.28	-49.294	-52.332	71.834	-0.63086	0.58890	-0.48499	-0.14108	31.3	13111	100
2025-3-27 15:8:14.740	WT901BLE68-01(48591DE3C19B)	-2.572	-1.263	-1.210	-264.893	-24.475	310.669	-170.69	61.07	-79.21	-49.294	-52.332	71.834	-0.63086	0.58890	-0.48499	-0.14108	31.3	13111	100
2025-3-27 15:8:14.794	WT901BLE68-01(48591DE3C19B)	-2.572	-1.697	-1.224	-242.798	-32.471	282.837	-178.22	61.73	-84.85	-49.294	-52.332	71.834	-0.63086	0.58890	-0.48499	-0.14108	31.3	13111	100
2025-3-27 15:8:14.794	WT901BLE68-01(48591DE3C19B)	-1.597	-1.697	-1.224	-242.798	-32.471	282.837	174.11	62.03	-90.65	-49.294	-52.332	71.834	-0.63086	0.58890	-0.48499	-0.14108	31.3	13111	100
2025-3-27 15:8:14.794	WT901BLE68-01(48591DE3C19B)	-1.597	-1.452	-0.679	-142.700	-1.465	230.591	168.55	61.77	-95.23	-49.294	-52.332	71.834	-0.63086	0.58890	-0.48499	-0.14108	31.3	13111	100
2025-3-27 15:8:14.794	WT901BLE68-01(48591DE3C19B)	-1.249	-1.452	-0.679	-142.700	-1.465	230.591	163.16	61.31	-99.65	-49.294	-52.332	71.834	-0.63086	0.58890	-0.48499	-0.14108	31.3	13111	100
2025-3-27 15:8:14.824	WT901BLE68-01(48591DE3C19B)	-1.249	-0.786	-0.109	-127.075	-40.894	185.974	158.65	61.20	-103.27	-49.294	-52.332	71.834	-0.63086	0.58890	-0.48499	-0.14108	31.3	13111	100
2025-3-27 15:8:14.825	WT901BLE68-01(48591DE3C19B)	-0.775	-0.786	-0.109	-127.075	-40.894	185.974	154.22	60.96	-106.83	-49.294	-52.332	71.834	-0.63086	0.58890	-0.48499	-0.14108	31.3	13111	100
2025-3-27 15:8:14.825	WT901BLE68-01(48591DE3C19B)	-0.775	-0.706	-0.075	-146.179	-166.626	131.470	149.42	61.95	-110.57	-49.294	-52.332	71.834	-0.63086	0.58890	-0.48499	-0.14108	31.3	13111	100
2025-3-27 15:8:14.825	WT901BLE68-01(48591DE3C19B)	0.033	-0.706	-0.075	-146.179	-166.626	131.470	144.39	62.78	-114.57	-49.294	-52.332	71.834	-0.63086	0.58890	-0.48499	-0.14108	31.3	13111	100
2025-3-27 15:8:14.853	WT901BLE68-01(48591DE3C19B)	0.033	-0.693	-0.238	-141.174	-235.901	80.566	139.08	64.29	-118.91	-49.294	-52.332	71.834	-0.63086	0.58890	-0.48499	-0.14108	31.3	13111	100
2025-3-27 15:8:14.853	WT901BLE68-01(48591DE3C19B)	0.893	-0.693	-0.238	-141.174	-235.901	80.566	133.29	65.60	-123.73	-49.294	-52.332	71.834	-0.63086	0.58890	-0.48499	-0.14108	31.3	13111	100
2025-3-27 15:8:14.853	WT901BLE68-01(48591DE3C19B)	0.893	-0.844	-0.351	-169.006	-235.657	18.066	127.68	67.16	-128.05	-82.712	-61.740	67.326	-0.63086	0.58890	-0.48499	-0.14108	31.3	13111	100
2025-3-27 15:8:14.853	WT901BLE68-01(48591DE3C19B)	1.555	-0.844	-0.351	-169.006	-235.657	18.066	121.50	68.54	-132.95	-82.712	-61.740	67.326	-0.63086	0.58890	-0.48499	-0.14108	31.3	13111	100
2025-3-27 15:8:14.912	WT901BLE68-01(48591DE3C19B)	1.555	-1.253	-0.433	-179.504	-178.223	-38.757	116.80	69.96	-136.17	-82.712	-61.740	67.326	-0.63086	0.58890	-0.48499	-0.14108	31.3	13111	100
2025-3-27 15:8:14.912	WT901BLE68-01(48591DE3C19B)	1.638	-1.253	-0.433	-179.504	-178.223	-38.757	111.73	71.28	-139.80	-82.712	-61.740	67.326	-0.63086	0.58890	-0.48499	-0.14108	31.3	13111	100
2025-3-27 15:8:14.912	WT901BLE68-01(48591DE3C19B)	1.638	-1.450	-0.299	-141.907	-92.224	-75.378	109.59	72.57	-140.73	-82.712	-61.740	67.326	-0.63086	0.58890	-0.48499	-0.14108	31.3	13111	100
2025-3-27 15:8:14.912	WT901BLE68-01(48591DE3C19B)	1.191	-1.450	-0.299	-141.907	-92.224	-75.378	107.43	73.86	-141.73	-82.712	-61.740	67.326	-0.63086	0.58890	-0.48499	-0.14108	31.3	13111	100
2025-3-27 15:8:14.941	WT901BLE68-01(48591DE3C19B)	1.191	-1.375	-0.083	-105.774	-47.974	-131.042	107.76	75.54	-140.52	-82.712	-61.740	67.326	-0.63086	0.58890	-0.48499	-0.14108	31.3	13111	100
2025-3-27 15:8:14.941	WT901BLE68-01(48591DE3C19B)	1.038	-1.375	-0.083	-105.774	-47.974	-131.042	108.42	77.22	-138.98	-82.712	-61.740	67.326	-0.63086	0.58890	-0.48499	-0.14108	31.3	13111	100
2025-3-27 15:8:14.941	WT901BLE68-01(48591DE3C19B)	1.038	-1.567	-0.126	-92.346	-32.593	-200.989	111.74	79.50	-134.91	-82.712	-61.740	67.326	-0.63086	0.58890	-0.48499	-0.14108	31.3	13111	100
2025-3-27 15:8:14.941	WT901BLE68-01(48591DE3C19B)	0.955	-1.567	-0.126	-92.346	-32.593	-200.989	117.14	81.70	-128.73	-82.712	-61.740	67.326	-0.63086	0.58890	-0.48499	-0.14108	31.3	13111	100
2025-3-27 15:8:14.973	WT901BLE68-01(48591DE3C19B)	0.955	-1.754	-0.141	-49.438	12.939	-264.893	134.14	83.93	-111.33	-82.712	-61.740	67.326	-0.63086	0.58890	-0.48499	-0.14108	31.3	13111	100
2025-3-27 15:8:14.973	WT901BLE68-01(48591DE3C19B)	0.661	-1.754	-0.141	-49.438	12.939	-264.893	164.19	85.12	-80.88	-82.712	-61.740	67.326	-0.63086	0.58890	-0.48499	-0.14108	31.3	13111	100
2025-3-27 15:8:14.973	WT901BLE68-01(48591DE3C19B)	0.661	-1.756	-0.185	0.732	50.781	-319.092	-157.76	84.00	-42.91	-82.712	-61.740	67.326	-0.63086	0.58890	-0.48499	-0.14108	31.3	13111	100
2025-3-27 15:8:14.973	WT901BLE68-01(48591DE3C19B)	0.403	-1.756	-0.185	0.732	50.781	-319.092	-137.56	81.31	-22.77	-82.712	-61.740	67.326	-0.63086	0.58890	-0.48499	-0.14108	31.3	13111	100
2025-3-27 15:8:15.32	WT901BLE68-01(48591DE3C19B)	0.403	-1.704	-0.152	37.781	87.402	-359.558	-127.44	77.54	-13.08	-82.712	-61.740	67.326	-0.63086	0.58890	-0.48499	-0.14108	31.3	13111	100
2025-3-27 15:8:15.32	WT901BLE68-01(48591DE3C19B)	0.106	-1.704	-0.152	37.781	87.402	-359.558	-122.01	73.59	-8.07	-82.712	-61.740	67.326	-0.63086	0.58890	-0.48499	-0.14108	31.3	13111	100
2025-3-27 15:8:15.33	WT901BLE68-01(48591DE3C19B)	0.106	-1.870	-0.110	66.772	152.588	-380.188	-119.61	69.07	-6.45	-82.712	-61.740	67.326	-0.63086	0.58890	-0.48499	-0.14108	31.3	13111	100
2025-3-27 15:8:15.33	WT901BLE68-01(48591DE3C19B)	-2.348	-1.870	-0.110	66.772	152.588	-380.188	-117.91	64.56	-5.53	-82.712	-61.740	67.326	-0.63086	0.58890	-0.48499	-0.14108	31.3	13111	100
2025-3-27 15:8:15.62	WT901BLE68-01(48591DE3C19B)	-2.348	-2.771	-0.276	89.355	229.004	-301.025	-118.21	60.43	-7.10	-82.712	-61.740	67.326	-0.63086	0.58890	-0.48499	-0.14108	31.3	13111	100
2025-3-27 15:8:15.63	WT901BLE68-01(48591DE3C19B)	-5.994	-2.771	-0.276	89.355	229.004	-301.025	-118.25	56.37	-8.40	-82.712	-61.740	67.326	-0.63086	0.58890	-0.48499	-0.14108	31.3	13111	100
2025-3-27 15:8:15.63	WT901BLE68-01(48591DE3C19B)	-5.994	-3.844	-0.299	230.225	128.479	-326.355	-115.39	52.65	-7.94	-82.712	-61.740	67.326	-0.63086	0.58890	-0.48499	-0.14108	31.3	13111	100
2025-3-27 15:8:15.63	WT901BLE68-01(48591DE3C19B)	-4.976	-3.844	-0.299	230.225	128.479	-326.355	-112.79	49.00	-7.73	-82.712	-61.740	67.326	-0.52573	0.74063	-0.28009	-0.31067	31.3	13111	100
2025-3-27 15:8:15.95	WT901BLE68-01(48591DE3C19B)	-4.976	-1.852	-0.001	250.916	104.919	-220.520	-110.36	46.50	-7.97	-82.712	-61.740	67.326	-0.52573	0.74063	-0.28009	-0.31067	31.3	13111	100
2025-3-27 15:8:15.96	WT901BLE68-01(48591DE3C19B)	-4.317	-1.852	-0.001	250.916	104.919	-220.520	-108.04	44.06	-8.32	-82.712	-61.740	67.326	-0.52573	0.74063	-0.28009	-0.31067	31.3	13111	100
2025-3-27 15:8:15.96	WT901BLE68-01(48591DE3C19B)	-4.317	-1.751	0.041	218.689	239.075	-64.514	-107.74	42.73	-11.11	-82.712	-61.740	67.326	-0.52573	0.74063	-0.28009	-0.31067	31.3	13111	100
2025-3-27 15:8:15.96	WT901BLE68-01(48591DE3C19B)	-3.082	-1.751	0.041	218.689	239.075	-64.514	-107.37	41.43	-13.83	-82.712	-61.740	67.326	-0.52573	0.74063	-0.28009	-0.31067	31.3	13111	100
2025-3-27 15:8:15.153	WT901BLE68-01(48591DE3C19B)	-3.082	-0.988	-0.150	278.381	233.398	-6.714	-106.47	40.76	-16.67	-82.712	-61.740	67.326	-0.52573	0.74063	-0.28009	-0.31067	31.3	13111	100
2025-3-27 15:8:15.153	WT901BLE68-01(48591DE3C19B)	-2.187	-0.988	-0.150	278.381	233.398	-6.714	-105.55	40.14	-19.48	-82.712	-61.740	67.326	-0.52573	0.74063	-0.28009	-0.31067	31.3	13111	100
2025-3-27 15:8:15.153	WT901BLE68-01(48591DE3C19B)	-2.187	-0.063	-0.412	319.763	195.007	2.258	-103.91	39.77	-21.82	-82.712	-61.740	67.326	-0.52573	0.74063	-0.28009	-0.31067	31.3	13111	100
2025-3-27 15:8:15.153	WT901BLE68-01(48591DE3C19B)	-1.687	-0.063	-0.412	319.763	195.007	2.258	-102.29	39.46	-24.16	-82.712	-61.740	67.326	-0.52573	0.74063	-0.28009	-0.31067	31.3	13111	100
2025-3-27 15:8:15.181	WT901BLE68-01(48591DE3C19B)	-1.687	0.632	-0.527	295.288	170.288	-2.869	-100.73	39.21	-26.18	-82.712	-61.740	67.326	-0.52573	0.74063	-0.28009	-0.31067	31.3	13111	100
2025-3-27 15:8:15.181	WT901BLE68-01(48591DE3C19B)	-1.187	0.632	-0.527	295.288	170.288	-2.869	-99.20	39.03	-28.20	-82.712	-61.740	67.326	-0.52573	0.74063	-0.28009	-0.31067	31.3	13111	100
2025-3-27 15:8:15.181	WT901BLE68-01(48591DE3C19B)	-1.187	1.076	-0.411	203.308	126.160	43.579	-98.32	39.41	-29.76	-82.712	-61.740	67.326	-0.52573	0.74063	-0.28009	-0.31067	31.3	13111	100
2025-3-27 15:8:15.181	WT901BLE68-01(48591DE3C19B)	-0.537	1.076	-0.411	203.308	126.160	43.579	-97.47	39.84	-31.33	-82.712	-61.740	67.326	-0.52573	0.74063	-0.28009	-0.31067	31.3	13111	100
2025-3-27 15:8:15.242	WT901BLE68-01(48591DE3C19B)	0.006	0.980	-0.308	136.841	97.534	65.308	-97.12	40.53	-32.57	-82.712	-61.740	67.326	-0.52573	0.74063	-0.28009	-0.31067	31.3	13111	100
2025-3-27 15:8:15.242	WT901BLE68-01(48591DE3C19B)	0.006	0.968	-0.353	128.296	97.168	45.349	-96.83	41.14	-33.82	-82.712	-61.740	67.326	-0.52573	0.74063	-0.28009	-0.31067	31.3	13111	100
2025-3-27 15:8:15.243	WT901BLE68-01(48591DE3C19B)	0.180	0.968	-0.353	128.296	97.168	45.349	-96.62	41.67	-35.06	-82.712	-61.740	67.326	-0.52573	0.74063	-0.28009	-0.31067	31.3	13111	100
2025-3-27 15:8:15.243	WT901BLE68-01(48591DE3C19B)	0.180	1.244	-0.419	100.830	83.740	46.875	-96.53	42.21	-36.24	-82.712	-61.740	67.326	-0.52573	0.74063	-0.28009	-0.31067	31.3	13111	100
2025-3-27 15:8:15.274	WT901BLE68-01(48591DE3C19B)	0.167	1.244	-0.419	100.830	83.740	46.875	-96.58	42.79	-37.36	-68.796	-34.790	83.496	-0.52573	0.74063	-0.28009	-0.31067	31.3	13111	100
2025-3-27 15:8:15.274	WT901BLE68-01(48591DE3C19B)	0.167	1.374	-0.464	23.865	49.194	54.810	-96.91	43.44	-38.30	-68.796	-34.790	83.496	-0.52573	0.74063	-0.28009	-0.31067	31.3	13111	100
2025-3-27 15:8:15.274	WT901BLE68-01(48591DE3C19B)	0.292	1.374	-0.464	23.865	49.194	54.810	-97.54	44.15	-39.06	-68.796	-34.790	83.496	-0.52573	0.74063	-0.28009	-0.31067	31.3	13111	100
2025-3-27 15:8:15.274	WT901BLE68-01(48591DE3C19B)	0.292	1.240	-0.361	-29.053	25.452	47.729	-98.38	44.86	-39.72	-68.796	-34.790	83.496	-0.52573	0.74063	-0.28009	-0.31067	31.3	13111	100
2025-3-27 15:8:15.304	WT901BLE68-01(48591DE3C19B)	0.283	1.240	-0.361	-29.053	25.452	47.729	-99.44	45.55	-40.26	-68.796	-34.790	83.496	-0.52573	0.74063	-0.28009	-0.31067	31.3	13111	100
2025-3-27 15:8:15.304	WT901BLE68-01(48591DE3C19B)	0.283	1.097	-0.233	-72.205	21.545	39.856	-100.74	46.21	-40.85	-68.796	-34.790	83.496	-0.52573	0.74063	-0.28009	-0.31067	31.3	13111	100
2025-3-27 15:8:15.304	WT901BLE68-01(48591DE3C19B)	0.104	1.097	-0.233	-72.205	21.545	39.856	-102.29	46.83	-41.46	-68.796	-34.790	83.496	-0.52573	0.74063	-0.28009	-0.31067	31.3	13111	100
2025-3-27 15:8:15.304	WT901BLE68-01(48591DE3C19B)	0.104	0.877	-0.145	-117.859	7.019	37.292	-104.05	47.47	-42.03	-68.796	-34.790	83.496	-0.52573	0.74063	-0.28009	-0.31067	31.3	13111	100
2025-3-27 15:8:15.361	WT901BLE68-01(48591DE3C19B)	-0.061	0.877	-0.145	-117.859	7.019	37.292	-106.00	48.10	-42.54	-68.796	-34.790	83.496	-0.52573	0.74063	-0.28009	-0.31067	31.3	13111	100
2025-3-27 15:8:15.362	WT901BLE68-01(48591DE3C19B)	-0.061	0.640	-0.206	-159.180	-15.320	49.438	-108.09	48.82	-42.98	-68.796	-34.790	83.496	-0.52573	0.74063	-0.28009	-0.31067	31.3	13111	100
2025-3-27 15:8:15.362	WT901BLE68-01(48591DE3C19B)	-0.653	0.640	-0.206	-159.180	-15.320	49.438	-110.34	49.63	-43.34	-68.796	-34.790	83.496	-0.52573	0.74063	-0.28009	-0.31067	31.3	13111	100
2025-3-27 15:8:15.362	WT901BLE68-01(48591DE3C19B)	-0.653	0.479	-0.678	-229.187	-19.775	78.125	-113.01	50.56	-43.82	-68.796	-34.790	83.496	-0.52573	0.74063	-0.28009	-0.31067	31.3	13111	100
2025-3-27 15:8:15.395	WT901BLE68-01(48591DE3C19B)	-2.031	0.479	-0.678	-229.187	-19.775	78.125	-116.13	51.60	-44.43	-68.796	-34.790	83.496	-0.52573	0.74063	-0.28009	-0.31067	31.3	13111	100
2025-3-27 15:8:15.395	WT901BLE68-01(48591DE3C19B)	-2.031	0.079	-0.695	-337.341	64.697	165.405	-120.60	52.78	-46.08	-68.796	-34.790	83.496	-0.52573	0.74063	-0.28009	-0.31067	31.3	13111	100
2025-3-27 15:8:15.395	WT901BLE68-01(48591DE3C19B)	-3.096	0.079	-0.695	-337.341	64.697	165.405	-126.50	53.97	-48.83	-68.796	-34.790	83.496	-0.52573	0.74063	-0.28009	-0.31067	31.3	13111	100
2025-3-27 15:8:15.395	WT901BLE68-01(48591DE3C19B)	-3.096	-0.288	-1.127	-259.888	184.326	241.333	-133.15	54.86	-52.98	-68.796	-34.790	83.496	-0.52573	0.74063	-0.28009	-0.31067	31.3	13111	100
2025-3-27 15:8:15.453	WT901BLE68-01(48591DE3C19B)	-4.536	-0.288	-1.127	-259.888	184.326	241.333	-140.47	55.28	-58.44	-68.796	-34.790	83.496	-0.52573	0.74063	-0.28009	-0.31067	31.3	13111	100
2025-3-27 15:8:15.453	WT901BLE68-01(48591DE3C19B)	-4.536	0.446	-1.750	-285.767	179.871	249.634	-147.94	55.33	-63.92	-68.796	-34.790	83.496	-0.52573	0.74063	-0.28009	-0.31067	31.3	13111	100
2025-3-27 15:8:15.453	WT901BLE68-01(48591DE3C19B)	-5.406	0.446	-1.750	-285.767	179.871	249.634	-155.45	55.00	-69.34	-68.796	-34.790	83.496	-0.52573	0.74063	-0.28009	-0.31067	31.3	13111	100
2025-3-27 15:8:15.453	WT901BLE68-01(48591DE3C19B)	-5.406	-0.207	-1.452	-327.515	19.592	302.917	-162.93	55.13	-74.52	-68.796	-34.790	83.496	-0.52573	0.74063	-0.28009	-0.31067	31.3	13111	100
2025-3-27 15:8:15.482	WT901BLE68-01(48591DE3C19B)	-4.045	-0.207	-1.452	-327.515	19.592	302.917	-170.70	55.71	-79.78	-68.796	-34.790	83.496	-0.52573	0.74063	-0.28009	-0.31067	31.3	13111	100
2025-3-27 15:8:15.482	WT901BLE68-01(48591DE3C19B)	-4.045	-0.906	-1.447	-286.255	-137.390	328.003	-178.48	56.66	-85.29	-68.796	-34.790	83.496	-0.52573	0.74063	-0.28009	-0.31067	31.3	13111	100
2025-3-27 15:8:15.482	WT901BLE68-01(48591DE3C19B)	-2.394	-0.906	-1.447	-286.255	-137.390	328.003	173.42	57.96	-91.38	-68.796	-34.790	83.496	-0.52573	0.74063	-0.28009	-0.31067	31.3	13111	100
2025-3-27 15:8:15.482	WT901BLE68-01(48591DE3C19B)	-2.394	-1.466	-1.257	-272.339	-142.761	294.006	165.26	58.84	-97.58	-68.796	-34.790	83.496	-0.52573	0.74063	-0.28009	-0.31067	31.3	13111	100
2025-3-27 15:8:15.515	WT901BLE68-01(48591DE3C19B)	-1.254	-1.466	-1.257	-272.339	-142.761	294.006	157.21	59.33	-103.71	-68.796	-34.790	83.496	-0.26678	0.59595	-0.60980	-0.44910	31.3	13111	100
2025-3-27 15:8:15.515	WT901BLE68-01(48591DE3C19B)	-1.254	-1.573	-0.681	-169.556	-123.352	231.079	150.19	59.44	-109.27	-68.796	-34.790	83.496	-0.26678	0.59595	-0.60980	-0.44910	31.3	13111	100
2025-3-27 15:8:15.515	WT901BLE68-01(48591DE3C19B)	-0.454	-1.573	-0.681	-169.556	-123.352	231.079	144.28	59.34	-114.14	-68.796	-34.790	83.496	-0.26678	0.59595	-0.60980	-0.44910	31.3	13111	100
2025-3-27 15:8:15.515	WT901BLE68-01(48591DE3C19B)	-0.454	-0.794	-0.301	-90.576	-86.670	191.528	139.36	58.98	-118.37	-68.796	-34.790	83.496	-0.26678	0.59595	-0.60980	-0.44910	31.3	13111	100
2025-3-27 15:8:15.544	WT901BLE68-01(48591DE3C19B)	0.087	-0.794	-0.301	-90.576	-86.670	191.528	135.43	58.46	-121.93	-68.796	-34.790	83.496	-0.26678	0.59595	-0.60980	-0.44910	31.3	13111	100
2025-3-27 15:8:15.544	WT901BLE68-01(48591DE3C19B)	0.087	-0.477	-0.209	-125.183	-108.032	130.310	131.69	58.13	-125.08	-68.796	-34.790	83.496	-0.26678	0.59595	-0.60980	-0.44910	31.3	13111	100
2025-3-27 15:8:15.544	WT901BLE68-01(48591DE3C19B)	0.428	-0.477	-0.209	-125.183	-108.032	130.310	128.07	57.99	-127.92	-68.796	-34.790	83.496	-0.26678	0.59595	-0.60980	-0.44910	31.3	13111	100
2025-3-27 15:8:15.544	WT901BLE68-01(48591DE3C19B)	0.428	-0.771	-0.200	-182.312	-137.146	70.190	124.32	58.10	-130.60	-68.796	-34.790	83.496	-0.26678	0.59595	-0.60980	-0.44910	31.3	13111	100
2025-3-27 15:8:15.602	WT901BLE68-01(48591DE3C19B)	0.762	-0.771	-0.200	-182.312	-137.146	70.190	120.37	58.43	-133.19	-68.796	-34.790	83.496	-0.26678	0.59595	-0.60980	-0.44910	31.3	13111	100
2025-3-27 15:8:15.602	WT901BLE68-01(48591DE3C19B)	0.762	-1.221	-0.193	-175.842	-157.715	-4.517	116.59	59.06	-135.63	-68.796	-34.790	83.496	-0.26678	0.59595	-0.60980	-0.44910	31.3	13111	100
2025-3-27 15:8:15.602	WT901BLE68-01(48591DE3C19B)	0.874	-1.221	-0.193	-175.842	-157.715	-4.517	112.91	60.00	-138.02	-68.796	-34.790	83.496	-0.26678	0.59595	-0.60980	-0.44910	31.3	13111	100
2025-3-27 15:8:15.602	WT901BLE68-01(48591DE3C19B)	0.874	-1.232	-0.115	-130.554	-181.030	-51.086	109.30	61.13	-140.60	-68.796	-34.790	83.496	-0.26678	0.59595	-0.60980	-0.44910	31.3	13111	100
2025-3-27 15:8:15.663	WT901BLE68-01(48591DE3C19B)	0.995	-1.232	-0.115	-130.554	-181.030	-51.086	105.68	62.44	-143.43	-68.796	-34.790	83.496	-0.26678	0.59595	-0.60980	-0.44910	31.3	13111	100
2025-3-27 15:8:15.663	WT901BLE68-01(48591DE3C19B)	0.995	-1.091	-0.074	-128.235	-189.758	-92.896	101.88	63.90	-146.48	-68.796	-34.790	83.496	-0.26678	0.59595	-0.60980	-0.44910	31.3	13111	100
2025-3-27 15:8:15.663	WT901BLE68-01(48591DE3C19B)	1.122	-1.091	-0.074	-128.235	-189.758	-92.896	97.77	65.48	-149.86	-68.796	-34.790	83.496	-0.26678	0.59595	-0.60980	-0.44910	31.3	13111	100
2025-3-27 15:8:15.663	WT901BLE68-01(48591DE3C19B)	1.122	-1.430	-0.169	-148.560	-157.532	-144.470	93.58	67.21	-153.18	-68.796	-34.790	83.496	-0.26678	0.59595	-0.60980	-0.44910	31.3	13111	100
2025-3-27 15:8:15.664	WT901BLE68-01(48591DE3C19B)	1.315	-1.430	-0.169	-148.560	-157.532	-144.470	89.20	69.10	-156.57	-68.796	-34.790	83.496	-0.26678	0.59595	-0.60980	-0.44910	31.3	13111	100
2025-3-27 15:8:15.664	WT901BLE68-01(48591DE3C19B)	1.315	-1.835	-0.369	-99.609	-51.270	-228.882	85.86	71.37	-159.07	-68.796	-34.790	83.496	-0.26678	0.59595	-0.60980	-0.44910	31.3	13111	100
2025-3-27 15:8:15.664	WT901BLE68-01(48591DE3C19B)	1.034	-1.835	-0.369	-99.609	-51.270	-228.882	83.70	74.06	-160.53	-68.796	-34.790	83.496	-0.26678	0.59595	-0.60980	-0.44910	31.3	13111	100
2025-3-27 15:8:15.664	WT901BLE68-01(48591DE3C19B)	1.034	-1.753	-0.391	-22.583	72.449	-296.326	83.75	77.16	-160.10	-68.796	-34.790	83.496	-0.26678	0.59595	-0.60980	-0.44910	31.3	13111	100
2025-3-27 15:8:15.723	WT901BLE68-01(48591DE3C19B)	0.777	-1.753	-0.391	-22.583	72.449	-296.326	87.98	80.62	-155.79	-68.796	-34.790	83.496	-0.26678	0.59595	-0.60980	-0.44910	31.3	13111	100
2025-3-27 15:8:15.723	WT901BLE68-01(48591DE3C19B)	0.777	-1.721	-0.342	-3.845	162.781	-347.595	106.92	84.28	-136.87	-68.894	-57.330	68.894	-0.26678	0.59595	-0.60980	-0.44910	31.3	13111	100
2025-3-27 15:8:15.723	WT901BLE68-01(48591DE3C19B)	0.767	-1.721	-0.342	-3.845	162.781	-347.595	156.69	86.02	-87.12	-68.894	-57.330	68.894	-0.26678	0.59595	-0.60980	-0.44910	31.3	13111	100
2025-3-27 15:8:15.723	WT901BLE68-01(48591DE3C19B)	0.767	-1.908	-0.152	34.424	290.100	-369.324	-159.63	82.64	-43.81	-68.894	-57.330	68.894	-0.26678	0.59595	-0.60980	-0.44910	31.3	13111	100
2025-3-27 15:8:15.752	WT901BLE68-01(48591DE3C19B)	-0.567	-1.908	-0.152	34.424	290.100	-369.324	-146.44	77.87	-31.00	-68.894	-57.330	68.894	-0.26678	0.59595	-0.60980	-0.44910	31.3	13111	100
2025-3-27 15:8:15.752	WT901BLE68-01(48591DE3C19B)	-0.567	-2.236	-0.295	87.769	388.794	-326.904	-143.28	72.33	-28.87	-68.894	-57.330	68.894	-0.26678	0.59595	-0.60980	-0.44910	31.3	13111	100
2025-3-27 15:8:15.752	WT901BLE68-01(48591DE3C19B)	-5.380	-2.236	-0.295	87.769	388.794	-326.904	-141.39	66.82	-28.02	-68.894	-57.330	68.894	-0.26678	0.59595	-0.60980	-0.44910	31.3	13111	100
2025-3-27 15:8:15.752	WT901BLE68-01(48591DE3C19B)	-5.380	-3.587	-0.498	195.068	337.585	-340.881	-138.20	61.70	-26.89	-68.894	-57.330	68.894	-0.26678	0.59595	-0.60980	-0.44910	31.3	13111	100
2025-3-27 15:8:15.781	WT901BLE68-01(48591DE3C19B)	-6.164	-3.587	-0.498	195.068	337.585	-340.881	-135.63	56.68	-26.43	-68.894	-57.330	68.894	-0.26678	0.59595	-0.60980	-0.44910	31.3	13111	100
2025-3-27 15:8:15.781	WT901BLE68-01(48591DE3C19B)	-6.164	-2.164	-0.667	284.668	-26.123	-374.084	-128.64	53.94	-21.62	-68.894	-57.330	68.894	-0.26678	0.59595	-0.60980	-0.44910	31.3	13111	100
2025-3-27 15:8:15.781	WT901BLE68-01(48591DE3C19B)	-4.593	-2.164	-0.667	284.668	-26.123	-374.084	-122.53	50.98	-17.66	-68.894	-57.330	68.894	-0.26678	0.59595	-0.60980	-0.44910	31.3	13111	100
2025-3-27 15:8:15.782	WT901BLE68-01(48591DE3C19B)	-4.593	-1.902	0.129	181.702	76.477	-233.887	-119.92	48.56	-16.75	-68.894	-57.330	68.894	-0.26678	0.59595	-0.60980	-0.44910	31.3	13111	100
2025-3-27 15:8:15.872	WT901BLE68-01(48591DE3C19B)	-4.109	-1.902	0.129	181.702	76.477	-233.887	-117.50	46.15	-16.03	-68.894	-57.330	68.894	-0.26678	0.59595	-0.60980	-0.44910	31.3	13111	100
2025-3-27 15:8:15.872	WT901BLE68-01(48591DE3C19B)	-4.109	-1.614	-0.025	221.375	165.527	-111.694	-116.17	44.45	-17.36	-68.894	-57.330	68.894	-0.26678	0.59595	-0.60980	-0.44910	31.3	13111	100
2025-3-27 15:8:15.872	WT901BLE68-01(48591DE3C19B)	-2.857	-1.614	-0.025	221.375	165.527	-111.694	-114.83	42.80	-18.69	-68.894	-57.330	68.894	-0.26678	0.59595	-0.60980	-0.44910	31.3	13111	100
2025-3-27 15:8:15.873	WT901BLE68-01(48591DE3C19B)	-2.857	-0.761	-0.189	255.920	161.072	-57.983	-113.33	41.70	-20.29	-68.894	-57.330	68.894	-0.26678	0.59595	-0.60980	-0.44910	31.3	13111	100
2025-3-27 15:8:15.874	WT901BLE68-01(48591DE3C19B)	-1.912	-0.761	-0.189	255.920	161.072	-57.983	-111.82	40.65	-21.88	-68.894	-57.330	68.894	-0.26678	0.59595	-0.60980	-0.44910	31.3	13111	100
2025-3-27 15:8:15.874	WT901BLE68-01(48591DE3C19B)	-1.912	-0.016	-0.461	289.917	162.720	-34.546	-110.07	39.86	-23.63	-68.894	-57.330	68.894	-0.26678	0.59595	-0.60980	-0.44910	31.3	13111	100
2025-3-27 15:8:15.874	WT901BLE68-01(48591DE3C19B)	-1.516	-0.016	-0.461	289.917	162.720	-34.546	-108.34	39.13	-25.38	-68.894	-57.330	68.894	-0.26678	0.59595	-0.60980	-0.44910	31.3	13111	100
2025-3-27 15:8:15.874	WT901BLE68-01(48591DE3C19B)	-1.516	0.607	-0.539	271.301	122.986	-31.921	-106.51	38.60	-26.67	-68.894	-57.330	68.894	-0.26678	0.59595	-0.60980	-0.44910	31.3	13111	100
2025-3-27 15:8:15.903	WT901BLE68-01(48591DE3C19B)	-1.110	0.607	-0.539	271.301	122.986	-31.921	-104.71	38.12	-27.98	-68.894	-57.330	68.894	-0.26678	0.59595	-0.60980	-0.44910	31.3	13111	100
2025-3-27 15:8:15.903	WT901BLE68-01(48591DE3C19B)	-1.110	1.091	-0.374	200.317	60.364	17.029	-103.27	38.30	-28.68	-68.894	-57.330	68.894	-0.26678	0.59595	-0.60980	-0.44910	31.3	13111	100
2025-3-27 15:8:15.903	WT901BLE68-01(48591DE3C19B)	-0.478	1.091	-0.374	200.317	60.364	17.029	-101.85	38.52	-29.39	-68.894	-57.330	68.894	-0.64407	0.65176	-0.38864	-0.09610	31.3	13111	100
2025-3-27 15:8:15.903	WT901BLE68-01(48591DE3C19B)	-0.478	1.000	-0.352	144.043	2.747	27.710	-100.59	38.98	-29.40	-68.894	-57.330	68.894	-0.64407	0.65176	-0.38864	-0.09610	31.3	13111	100
2025-3-27 15:8:15.961	WT901BLE68-01(48591DE3C19B)	-0.024	1.000	-0.352	144.043	2.747	27.710	-99.35	39.45	-29.42	-68.894	-57.330	68.894	-0.64407	0.65176	-0.38864	-0.09610	31.3	13111	100
2025-3-27 15:8:15.961	WT901BLE68-01(48591DE3C19B)	-0.024	0.978	-0.516	150.330	-19.287	5.005	-97.87	39.74	-29.12	-68.894	-57.330	68.894	-0.64407	0.65176	-0.38864	-0.09610	31.3	13111	100
2025-3-27 15:8:15.962	WT901BLE68-01(48591DE3C19B)	0.289	0.978	-0.516	150.330	-19.287	5.005	-96.41	40.03	-28.82	-68.894	-57.330	68.894	-0.64407	0.65176	-0.38864	-0.09610	31.3	13111	100
2025-3-27 15:8:15.962	WT901BLE68-01(48591DE3C19B)	0.289	1.210	-0.604	140.381	1.709	2.258	-95.26	40.29	-28.82	-68.894	-57.330	68.894	-0.64407	0.65176	-0.38864	-0.09610	31.3	13111	100
2025-3-27 15:8:15.994	WT901BLE68-01(48591DE3C19B)	0.608	1.210	-0.604	140.381	1.709	2.258	-94.16	40.56	-28.84	-68.894	-57.330	68.894	-0.64407	0.65176	-0.38864	-0.09610	31.3	13111	100
2025-3-27 15:8:15.994	WT901BLE68-01(48591DE3C19B)	0.608	1.486	-0.710	95.215	24.902	3.540	-93.76	40.84	-29.22	-68.894	-57.330	68.894	-0.64407	0.65176	-0.38864	-0.09610	31.3	13111	100
2025-3-27 15:8:15.994	WT901BLE68-01(48591DE3C19B)	0.587	1.486	-0.710	95.215	24.902	3.540	-93.42	41.14	-29.64	-68.894	-57.330	68.894	-0.64407	0.65176	-0.38864	-0.09610	31.3	13111	100
2025-3-27 15:8:15.994	WT901BLE68-01(48591DE3C19B)	0.587	1.414	-0.719	3.174	52.185	-5.005	-94.29	41.36	-30.48	-68.894	-57.330	68.894	-0.64407	0.65176	-0.38864	-0.09610	31.3	13111	100
2025-3-27 15:8:16.22	WT901BLE68-01(48591DE3C19B)	0.274	1.414	-0.719	3.174	52.185	-5.005	-95.22	41.58	-31.37	-68.894	-57.330	68.894	-0.64407	0.65176	-0.38864	-0.09610	31.3	13111	100
2025-3-27 15:8:16.22	WT901BLE68-01(48591DE3C19B)	0.274	1.081	-0.536	-55.908	61.646	-14.526	-96.84	41.69	-32.42	-68.894	-57.330	68.894	-0.64407	0.65176	-0.38864	-0.09610	31.3	13111	100
2025-3-27 15:8:16.22	WT901BLE68-01(48591DE3C19B)	-0.092	1.081	-0.536	-55.908	61.646	-14.526	-98.48	41.79	-33.49	-68.894	-57.330	68.894	-0.64407	0.65176	-0.38864	-0.09610	31.3	13111	100
2025-3-27 15:8:16.22	WT901BLE68-01(48591DE3C19B)	-0.092	0.876	-0.435	-96.924	40.955	-4.517	-100.38	42.00	-34.32	-68.894	-57.330	68.894	-0.64407	0.65176	-0.38864	-0.09610	31.3	13111	100
2025-3-27 15:8:16.83	WT901BLE68-01(48591DE3C19B)	-0.548	0.876	-0.435	-96.924	40.955	-4.517	-102.28	42.20	-35.17	-68.894	-57.330	68.894	-0.64407	0.65176	-0.38864	-0.09610	31.3	13111	100
2025-3-27 15:8:16.83	WT901BLE68-01(48591DE3C19B)	-0.548	0.687	-0.553	-155.762	-8.606	19.165	-104.38	42.71	-35.45	-70.462	-25.970	78.204	-0.64407	0.65176	-0.38864	-0.09610	31.3	13111	100
2025-3-27 15:8:16.83	WT901BLE68-01(48591DE3C19B)	-1.436	0.687	-0.553	-155.762	-8.606	19.165	-106.49	43.23	-35.73	-70.462	-25.970	78.204	-0.64407	0.65176	-0.38864	-0.09610	31.3	13111	100
2025-3-27 15:8:16.83	WT901BLE68-01(48591DE3C19B)	-1.436	0.495	-0.824	-266.418	-26.184	81.543	-109.72	44.36	-36.06	-70.462	-25.970	78.204	-0.64407	0.65176	-0.38864	-0.09610	31.3	13111	100
2025-3-27 15:8:16.113	WT901BLE68-01(48591DE3C19B)	-2.563	0.495	-0.824	-266.418	-26.184	81.543	-112.98	45.47	-36.45	-70.462	-25.970	78.204	-0.64407	0.65176	-0.38864	-0.09610	31.3	13111	100
2025-3-27 15:8:16.113	WT901BLE68-01(48591DE3C19B)	-2.563	-0.221	-0.907	-300.293	87.097	212.463	-118.27	47.23	-39.19	-70.462	-25.970	78.204	-0.64407	0.65176	-0.38864	-0.09610	31.3	13111	100
2025-3-27 15:8:16.113	WT901BLE68-01(48591DE3C19B)	-4.080	-0.221	-0.907	-300.293	87.097	212.463	-123.76	48.78	-42.18	-70.462	-25.970	78.204	-0.64407	0.65176	-0.38864	-0.09610	31.3	13111	100
2025-3-27 15:8:16.113	WT901BLE68-01(48591DE3C19B)	-4.080	-0.108	-1.549	-255.737	227.966	254.395	-130.57	49.59	-47.49	-70.462	-25.970	78.204	-0.64407	0.65176	-0.38864	-0.09610	31.3	13111	100
2025-3-27 15:8:16.144	WT901BLE68-01(48591DE3C19B)	-5.774	-0.108	-1.549	-255.737	227.966	254.395	-137.47	49.96	-52.89	-70.462	-25.970	78.204	-0.64407	0.65176	-0.38864	-0.09610	31.3	13111	100
2025-3-27 15:8:16.144	WT901BLE68-01(48591DE3C19B)	-5.295	-0.584	-1.371	-356.567	134.888	302.185	-145.16	50.92	-58.00	-70.462	-25.970	78.204	-0.64407	0.65176	-0.38864	-0.09610	31.3	13111	100
2025-3-27 15:8:16.144	WT901BLE68-01(48591DE3C19B)	-5.295	-1.538	-0.938	-336.975	-79.224	325.073	-152.37	52.42	-62.60	-70.462	-25.970	78.204	-0.64407	0.65176	-0.38864	-0.09610	31.3	13111	100
2025-3-27 15:8:16.144	WT901BLE68-01(48591DE3C19B)	-3.631	-1.538	-0.938	-336.975	-79.224	325.073	-159.43	54.57	-67.03	-70.462	-25.970	78.204	-0.64407	0.65176	-0.38864	-0.09610	31.3	13111	100
2025-3-27 15:8:16.201	WT901BLE68-01(48591DE3C19B)	-3.631	-2.167	-1.139	-314.026	-156.433	301.147	-166.60	56.71	-71.68	-70.462	-25.970	78.204	-0.64407	0.65176	-0.38864	-0.09610	31.3	13111	100
2025-3-27 15:8:16.202	WT901BLE68-01(48591DE3C19B)	-1.971	-2.167	-1.139	-314.026	-156.433	301.147	-174.01	58.84	-76.65	-70.462	-25.970	78.204	-0.64407	0.65176	-0.38864	-0.09610	31.3	13111	100
2025-3-27 15:8:16.202	WT901BLE68-01(48591DE3C19B)	-1.971	-2.151	-0.737	-204.102	-158.508	244.446	178.94	60.60	-81.77	-70.462	-25.970	78.204	-0.64407	0.65176	-0.38864	-0.09610	31.3	13111	100
2025-3-27 15:8:16.202	WT901BLE68-01(48591DE3C19B)	-0.861	-2.151	-0.737	-204.102	-158.508	244.446	172.40	62.07	-86.90	-70.462	-25.970	78.204	-0.64407	0.65176	-0.38864	-0.09610	31.3	13111	100
2025-3-27 15:8:16.232	WT901BLE68-01(48591DE3C19B)	-0.861	-1.266	-0.304	-123.413	-143.860	223.511	166.01	63.19	-92.26	-70.462	-25.970	78.204	-0.64407	0.65176	-0.38864	-0.09610	31.3	13111	100
2025-3-27 15:8:16.232	WT901BLE68-01(48591DE3C19B)	0.002	-1.266	-0.304	-123.413	-143.860	223.511	159.92	64.00	-97.71	-70.462	-25.970	78.204	-0.64407	0.65176	-0.38864	-0.09610	31.3	13111	100
2025-3-27 15:8:16.232	WT901BLE68-01(48591DE3C19B)	0.002	-0.876	-0.188	-129.700	-167.175	164.612	154.01	64.77	-102.90	-70.462	-25.970	78.204	-0.64407	0.65176	-0.38864	-0.09610	31.3	13111	100
2025-3-27 15:8:16.232	WT901BLE68-01(48591DE3C19B)	0.531	-0.876	-0.188	-129.700	-167.175	164.612	148.26	65.54	-107.87	-70.462	-25.970	78.204	-0.64407	0.65176	-0.38864	-0.09610	31.3	13111	100
2025-3-27 15:8:16.261	WT901BLE68-01(48591DE3C19B)	0.531	-0.692	-0.241	-137.390	-218.628	107.117	142.40	66.48	-112.91	-70.462	-25.970	78.204	-0.64407	0.65176	-0.38864	-0.09610	31.3	13111	100
2025-3-27 15:8:16.261	WT901BLE68-01(48591DE3C19B)	0.875	-0.692	-0.241	-137.390	-218.628	107.117	136.26	67.58	-118.16	-70.462	-25.970	78.204	-0.64407	0.65176	-0.38864	-0.09610	31.3	13111	100
2025-3-27 15:8:16.261	WT901BLE68-01(48591DE3C19B)	0.875	-0.769	-0.234	-178.589	-248.413	44.312	129.72	68.77	-123.62	-70.462	-25.970	78.204	-0.28494	0.56436	-0.54507	-0.55051	31.3	13111	100
2025-3-27 15:8:16.261	WT901BLE68-01(48591DE3C19B)	1.177	-0.769	-0.234	-178.589	-248.413	44.312	122.57	70.04	-129.46	-70.462	-25.970	78.204	-0.28494	0.56436	-0.54507	-0.55051	31.3	13111	100
2025-3-27 15:8:16.322	WT901BLE68-01(48591DE3C19B)	1.177	-1.220	-0.181	-206.909	-248.535	-4.578	114.95	71.27	-135.64	-70.462	-25.970	78.204	-0.28494	0.56436	-0.54507	-0.55051	31.3	13111	100
2025-3-27 15:8:16.322	WT901BLE68-01(48591DE3C19B)	1.556	-1.220	-0.181	-206.909	-248.535	-4.578	106.75	72.44	-142.26	-70.462	-25.970	78.204	-0.28494	0.56436	-0.54507	-0.55051	31.3	13111	100
2025-3-27 15:8:16.322	WT901BLE68-01(48591DE3C19B)	1.556	-1.528	-0.241	-173.035	-203.003	-46.875	98.87	73.48	-148.71	-70.462	-25.970	78.204	-0.28494	0.56436	-0.54507	-0.55051	31.3	13111	100
2025-3-27 15:8:16.322	WT901BLE68-01(48591DE3C19B)	1.611	-1.528	-0.241	-173.035	-203.003	-46.875	91.37	74.48	-154.92	-70.462	-25.970	78.204	-0.28494	0.56436	-0.54507	-0.55051	31.3	13111	100
2025-3-27 15:8:16.351	WT901BLE68-01(48591DE3C19B)	1.611	-1.343	-0.283	-93.750	-129.272	-92.346	84.95	75.52	-160.42	-70.462	-25.970	78.204	-0.28494	0.56436	-0.54507	-0.55051	31.3	13111	100
2025-3-27 15:8:16.351	WT901BLE68-01(48591DE3C19B)	1.420	-1.343	-0.283	-93.750	-129.272	-92.346	79.57	76.71	-165.22	-70.462	-25.970	78.204	-0.28494	0.56436	-0.54507	-0.55051	31.3	13111	100
2025-3-27 15:8:16.351	WT901BLE68-01(48591DE3C19B)	1.420	-1.313	-0.446	-86.792	1.831	-167.786	75.90	78.34	-168.26	-70.462	-25.970	78.204	-0.28494	0.56436	-0.54507	-0.55051	31.3	13111	100
2025-3-27 15:8:16.352	WT901BLE68-01(48591DE3C19B)	1.213	-1.313	-0.446	-86.792	1.831	-167.786	74.31	80.47	-169.21	-70.462	-25.970	78.204	-0.28494	0.56436	-0.54507	-0.55051	31.3	13111	100
2025-3-27 15:8:16.381	WT901BLE68-01(48591DE3C19B)	1.213	-1.735	-0.590	-64.514	153.076	-254.761	77.15	83.22	-165.77	-70.462	-25.970	78.204	-0.28494	0.56436	-0.54507	-0.55051	31.3	13111	100
2025-3-27 15:8:16.382	WT901BLE68-01(48591DE3C19B)	0.826	-1.735	-0.590	-64.514	153.076	-254.761	95.68	86.35	-146.70	-70.462	-25.970	78.204	-0.28494	0.56436	-0.54507	-0.55051	31.3	13111	100
2025-3-27 15:8:16.382	WT901BLE68-01(48591DE3C19B)	0.826	-1.998	-0.552	0.061	279.114	-295.410	170.74	87.06	-71.40	-70.462	-25.970	78.204	-0.28494	0.56436	-0.54507	-0.55051	31.3	13111	100
2025-3-27 15:8:16.382	WT901BLE68-01(48591DE3C19B)	0.268	-1.998	-0.552	0.061	279.114	-295.410	-154.52	83.28	-36.75	-70.462	-25.970	78.204	-0.28494	0.56436	-0.54507	-0.55051	31.3	13111	100
2025-3-27 15:8:16.442	WT901BLE68-01(48591DE3C19B)	0.268	-2.009	-0.373	75.378	357.605	-306.763	-146.41	78.51	-29.11	-70.462	-25.970	78.204	-0.28494	0.56436	-0.54507	-0.55051	31.3	13111	100
2025-3-27 15:8:16.442	WT901BLE68-01(48591DE3C19B)	-0.807	-2.009	-0.373	75.378	357.605	-306.763	-143.29	73.32	-26.86	-70.462	-25.970	78.204	-0.28494	0.56436	-0.54507	-0.55051	31.3	13111	100
2025-3-27 15:8:16.442	WT901BLE68-01(48591DE3C19B)	-0.807	-2.073	-0.334	140.808	365.479	-273.926	-141.51	68.21	-26.33	-70.462	-25.970	78.204	-0.28494	0.56436	-0.54507	-0.55051	31.3	13111	100
2025-3-27 15:8:16.442	WT901BLE68-01(48591DE3C19B)	-3.717	-2.073	-0.334	140.808	365.479	-273.926	-140.19	63.22	-26.64	-70.462	-25.970	78.204	-0.28494	0.56436	-0.54507	-0.55051	31.3	13111	100
2025-3-27 15:8:16.470	WT901BLE68-01(48591DE3C19B)	-3.717	-2.667	-0.326	211.853	257.751	-241.028	-138.27	58.80	-26.69	-70.462	-25.970	78.204	-0.28494	0.56436	-0.54507	-0.55051	31.3	13111	100
2025-3-27 15:8:16.470	WT901BLE68-01(48591DE3C19B)	-4.703	-2.667	-0.326	211.853	257.751	-241.028	-135.87	54.99	-26.60	-70.462	-25.970	78.204	-0.28494	0.56436	-0.54507	-0.55051	31.3	13111	100
2025-3-27 15:8:16.470	WT901BLE68-01(48591DE3C19B)	-4.703	-2.572	-0.682	267.700	14.648	-290.283	-132.07	51.92	-25.07	-70.462	-25.970	78.204	-0.28494	0.56436	-0.54507	-0.55051	31.3	13111	100
2025-3-27 15:8:16.470	WT901BLE68-01(48591DE3C19B)	-4.410	-2.572	-0.682	267.700	14.648	-290.283	-127.09	49.44	-22.29	-61.740	-55.860	70.462	-0.28494	0.56436	-0.54507	-0.55051	31.3	13111	100
2025-3-27 15:8:16.502	WT901BLE68-01(48591DE3C19B)	-4.410	-1.312	-0.812	263.611	83.008	-227.905	-123.07	46.97	-20.63	-61.740	-55.860	70.462	-0.28494	0.56436	-0.54507	-0.55051	31.3	13111	100
2025-3-27 15:8:16.502	WT901BLE68-01(48591DE3C19B)	-4.462	-1.312	-0.812	263.611	83.008	-227.905	-119.84	44.57	-19.91	-61.740	-55.860	70.462	-0.28494	0.56436	-0.54507	-0.55051	31.3	13111	100
2025-3-27 15:8:16.502	WT901BLE68-01(48591DE3C19B)	-4.462	-1.169	-0.459	204.529	203.003	-101.135	-117.86	42.46	-20.51	-61.740	-55.860	70.462	-0.28494	0.56436	-0.54507	-0.55051	31.3	13111	100
2025-3-27 15:8:16.502	WT901BLE68-01(48591DE3C19B)	-3.564	-1.169	-0.459	204.529	203.003	-101.135	-116.94	40.68	-22.25	-61.740	-55.860	70.462	-0.28494	0.56436	-0.54507	-0.55051	31.3	13111	100
2025-3-27 15:8:16.561	WT901BLE68-01(48591DE3C19B)	-3.564	-0.836	-0.344	219.910	183.716	-11.719	-116.02	39.40	-24.11	-61.740	-55.860	70.462	-0.28494	0.56436	-0.54507	-0.55051	31.3	13111	100
2025-3-27 15:8:16.561	WT901BLE68-01(48591DE3C19B)	-2.515	-0.836	-0.344	219.910	183.716	-11.719	-115.09	38.61	-26.11	-61.740	-55.860	70.462	-0.28494	0.56436	-0.54507	-0.55051	31.3	13111	100
2025-3-27 15:8:16.561	WT901BLE68-01(48591DE3C19B)	-2.515	-0.145	-0.453	247.437	173.096	33.447	-114.06	38.09	-28.15	-61.740	-55.860	70.462	-0.28494	0.56436	-0.54507	-0.55051	31.3	13111	100
2025-3-27 15:8:16.561	WT901BLE68-01(48591DE3C19B)	-1.887	-0.145	-0.453	247.437	173.096	33.447	-112.93	37.84	-30.24	-61.740	-55.860	70.462	-0.28494	0.56436	-0.54507	-0.55051	31.3	13111	100
2025-3-27 15:8:16.590	WT901BLE68-01(48591DE3C19B)	-1.887	0.324	-0.527	248.352	145.874	31.494	-111.71	37.68	-32.17	-61.740	-55.860	70.462	-0.28494	0.56436	-0.54507	-0.55051	31.3	13111	100
2025-3-27 15:8:16.590	WT901BLE68-01(48591DE3C19B)	-1.305	0.324	-0.527	248.352	145.874	31.494	-110.42	37.61	-33.93	-61.740	-55.860	70.462	-0.28494	0.56436	-0.54507	-0.55051	31.3	13111	100
2025-3-27 15:8:16.590	WT901BLE68-01(48591DE3C19B)	-1.305	0.693	-0.450	203.857	71.655	73.975	-109.15	37.89	-35.35	-61.740	-55.860	70.462	-0.28494	0.56436	-0.54507	-0.55051	31.3	13111	100
2025-3-27 15:8:16.590	WT901BLE68-01(48591DE3C19B)	-0.625	0.693	-0.450	203.857	71.655	73.975	-107.92	38.53	-36.41	-61.740	-55.860	70.462	-0.28494	0.56436	-0.54507	-0.55051	31.3	13111	100
2025-3-27 15:8:16.652	WT901BLE68-01(48591DE3C19B)	-0.625	0.656	-0.379	138.916	-3.601	85.449	-106.82	39.53	-36.61	-61.740	-55.860	70.462	-0.28494	0.56436	-0.54507	-0.55051	31.3	13111	100
2025-3-27 15:8:16.652	WT901BLE68-01(48591DE3C19B)	-0.058	0.656	-0.379	138.916	-3.601	85.449	-105.73	40.53	-36.79	-61.740	-55.860	70.462	-0.28494	0.56436	-0.54507	-0.55051	31.3	13111	100
2025-3-27 15:8:16.652	WT901BLE68-01(48591DE3C19B)	-0.058	0.608	-0.413	130.127	-37.842	63.110	-104.40	41.41	-36.45	-61.740	-55.860	70.462	-0.28494	0.56436	-0.54507	-0.55051	31.3	13111	100
2025-3-27 15:8:16.652	WT901BLE68-01(48591DE3C19B)	0.405	0.608	-0.413	130.127	-37.842	63.110	-103.08	42.29	-36.10	-61.740	-55.860	70.462	-0.28494	0.56436	-0.54507	-0.55051	31.3	13111	100
2025-3-27 15:8:16.681	WT901BLE68-01(48591DE3C19B)	0.405	0.705	-0.499	124.329	-17.578	38.757	-101.95	42.87	-35.94	-61.740	-55.860	70.462	-0.28494	0.56436	-0.54507	-0.55051	31.3	13111	100
2025-3-27 15:8:16.681	WT901BLE68-01(48591DE3C19B)	0.617	0.705	-0.499	124.329	-17.578	38.757	-100.85	43.46	-35.80	-61.740	-55.860	70.462	-0.28494	0.56436	-0.54507	-0.55051	31.3	13111	100
2025-3-27 15:8:16.681	WT901BLE68-01(48591DE3C19B)	0.617	0.955	-0.486	97.534	18.433	18.982	-100.35	43.80	-36.11	-61.740	-55.860	70.462	-0.28494	0.56436	-0.54507	-0.55051	31.3	13111	100
2025-3-27 15:8:16.681	WT901BLE68-01(48591DE3C19B)	0.524	0.955	-0.486	97.534	18.433	18.982	-99.91	44.14	-36.46	-61.740	-55.860	70.462	-0.65515	0.59790	-0.45364	-0.08600	31.3	13111	100
2025-3-27 15:8:16.712	WT901BLE68-01(48591DE3C19B)	0.524	1.187	-0.300	29.785	48.828	3.540	-100.46	44.29	-37.24	-61.740	-55.860	70.462	-0.65515	0.59790	-0.45364	-0.08600	31.3	13111	100
2025-3-27 15:8:16.712	WT901BLE68-01(48591DE3C19B)	0.444	1.187	-0.300	29.785	48.828	3.540	-101.07	44.45	-38.06	-61.740	-55.860	70.462	-0.65515	0.59790	-0.45364	-0.08600	31.3	13111	100
2025-3-27 15:8:16.712	WT901BLE68-01(48591DE3C19B)	0.444	1.151	-0.174	-16.235	46.936	-5.371	-102.16	44.54	-38.89	-61.740	-55.860	70.462	-0.65515	0.59790	-0.45364	-0.08600	31.3	13111	100
2025-3-27 15:8:16.712	WT901BLE68-01(48591DE3C19B)	0.402	1.151	-0.174	-16.235	46.936	-5.371	-103.30	44.65	-39.75	-61.740	-55.860	70.462	-0.65515	0.59790	-0.45364	-0.08600	31.3	13111	100
2025-3-27 15:8:16.771	WT901BLE68-01(48591DE3C19B)	0.402	1.025	-0.121	-57.007	52.002	-8.179	-104.92	44.73	-40.72	-61.740	-55.860	70.462	-0.65515	0.59790	-0.45364	-0.08600	31.3	13111	100
2025-3-27 15:8:16.771	WT901BLE68-01(48591DE3C19B)	0.112	1.025	-0.121	-57.007	52.002	-8.179	-106.57	44.80	-41.73	-61.740	-55.860	70.462	-0.65515	0.59790	-0.45364	-0.08600	31.3	13111	100
2025-3-27 15:8:16.771	WT901BLE68-01(48591DE3C19B)	0.112	0.856	-0.148	-101.624	62.988	-8.057	-108.78	44.84	-42.89	-61.740	-55.860	70.462	-0.65515	0.59790	-0.45364	-0.08600	31.3	13111	100
2025-3-27 15:8:16.771	WT901BLE68-01(48591DE3C19B)	-0.390	0.856	-0.148	-101.624	62.988	-8.057	-110.99	44.86	-44.07	-61.740	-55.860	70.462	-0.65515	0.59790	-0.45364	-0.08600	31.3	13111	100
2025-3-27 15:8:16.801	WT901BLE68-01(48591DE3C19B)	-0.390	0.754	-0.443	-145.386	44.495	11.719	-113.54	45.09	-45.09	-61.740	-55.860	70.462	-0.65515	0.59790	-0.45364	-0.08600	31.3	13111	100
2025-3-27 15:8:16.801	WT901BLE68-01(48591DE3C19B)	-1.189	0.754	-0.443	-145.386	44.495	11.719	-116.09	45.29	-46.13	-61.740	-55.860	70.462	-0.65515	0.59790	-0.45364	-0.08600	31.3	13111	100
2025-3-27 15:8:16.801	WT901BLE68-01(48591DE3C19B)	-1.189	0.695	-0.770	-237.366	57.129	75.317	-119.97	45.94	-47.73	-61.740	-55.860	70.462	-0.65515	0.59790	-0.45364	-0.08600	31.3	13111	100
2025-3-27 15:8:16.801	WT901BLE68-01(48591DE3C19B)	-2.288	0.695	-0.770	-237.366	57.129	75.317	-123.87	46.49	-49.36	-61.740	-55.860	70.462	-0.65515	0.59790	-0.45364	-0.08600	31.3	13111	100
2025-3-27 15:8:16.832	WT901BLE68-01(48591DE3C19B)	-2.288	0.448	-1.235	-295.654	140.076	175.171	-129.69	47.24	-52.84	-61.740	-55.860	70.462	-0.65515	0.59790	-0.45364	-0.08600	31.3	13111	100
2025-3-27 15:8:16.832	WT901BLE68-01(48591DE3C19B)	-4.335	0.448	-1.235	-295.654	140.076	175.171	-135.55	47.73	-56.39	-61.740	-55.860	70.462	-0.65515	0.59790	-0.45364	-0.08600	31.3	13111	100
2025-3-27 15:8:16.832	WT901BLE68-01(48591DE3C19B)	-4.335	0.898	-1.758	-313.477	216.919	167.053	-142.04	47.33	-60.56	-61.740	-55.860	70.462	-0.65515	0.59790	-0.45364	-0.08600	31.3	13111	100
2025-3-27 15:8:16.832	WT901BLE68-01(48591DE3C19B)	-5.396	0.898	-1.758	-313.477	216.919	167.053	-148.32	46.63	-64.52	-61.740	-55.860	70.462	-0.65515	0.59790	-0.45364	-0.08600	31.3	13111	100
2025-3-27 15:8:16.891	WT901BLE68-01(48591DE3C19B)	-5.396	0.009	-1.710	-400.940	93.872	238.953	-155.33	47.04	-68.33	-61.740	-55.860	70.462	-0.65515	0.59790	-0.45364	-0.08600	31.3	13111	100
2025-3-27 15:8:16.891	WT901BLE68-01(48591DE3C19B)	-4.506	0.009	-1.710	-400.940	93.872	238.953	-162.32	47.14	-72.14	-80.948	-41.258	77.518	-0.65515	0.59790	-0.45364	-0.08600	31.3	13111	100
2025-3-27 15:8:16.891	WT901BLE68-01(48591DE3C19B)	-4.506	-0.908	-1.697	-346.436	-57.312	277.588	-168.75	48.50	-75.94	-80.948	-41.258	77.518	-0.65515	0.59790	-0.45364	-0.08600	31.3	13111	100
2025-3-27 15:8:16.891	WT901BLE68-01(48591DE3C19B)	-2.958	-0.908	-1.697	-346.436	-57.312	277.588	-175.40	49.55	-79.97	-80.948	-41.258	77.518	-0.65515	0.59790	-0.45364	-0.08600	31.3	13111	100
2025-3-27 15:8:16.921	WT901BLE68-01(48591DE3C19B)	-2.958	-1.449	-1.597	-348.938	-95.398	254.700	178.04	50.66	-83.85	-80.948	-41.258	77.518	-0.65515	0.59790	-0.45364	-0.08600	31.3	13111	100
2025-3-27 15:8:16.921	WT901BLE68-01(48591DE3C19B)	-1.722	-1.449	-1.597	-348.938	-95.398	254.700	171.32	51.47	-87.92	-80.948	-41.258	77.518	-0.65515	0.59790	-0.45364	-0.08600	31.3	13111	100
2025-3-27 15:8:16.921	WT901BLE68-01(48591DE3C19B)	-1.722	-1.735	-1.003	-269.470	-99.426	203.125	165.91	52.13	-91.32	-80.948	-41.258	77.518	-0.65515	0.59790	-0.45364	-0.08600	31.3	13111	100
2025-3-27 15:8:16.921	WT901BLE68-01(48591DE3C19B)	-0.942	-1.735	-1.003	-269.470	-99.426	203.125	160.44	52.60	-94.81	-80.948	-41.258	77.518	-0.65515	0.59790	-0.45364	-0.08600	31.3	13111	100
2025-3-27 15:8:16.950	WT901BLE68-01(48591DE3C19B)	-0.942	-1.011	-0.465	-172.974	-127.380	148.865	156.42	53.34	-97.70	-80.948	-41.258	77.518	-0.65515	0.59790	-0.45364	-0.08600	31.3	13111	100
2025-3-27 15:8:16.950	WT901BLE68-01(48591DE3C19B)	-0.362	-1.011	-0.465	-172.974	-127.380	148.865	152.31	53.95	-100.68	-80.948	-41.258	77.518	-0.65515	0.59790	-0.45364	-0.08600	31.3	13111	100
2025-3-27 15:8:16.950	WT901BLE68-01(48591DE3C19B)	-0.362	-0.696	-0.290	-199.219	-185.181	96.313	148.08	55.20	-103.47	-80.948	-41.258	77.518	-0.65515	0.59790	-0.45364	-0.08600	31.3	13111	100
2025-3-27 15:8:16.950	WT901BLE68-01(48591DE3C19B)	0.393	-0.696	-0.290	-199.219	-185.181	96.313	143.66	56.32	-106.47	-80.948	-41.258	77.518	-0.65515	0.59790	-0.45364	-0.08600	31.3	13111	100
2025-3-27 15:8:17.11	WT901BLE68-01(48591DE3C19B)	0.393	-1.005	-0.348	-230.591	-234.924	32.471	139.01	58.07	-109.35	-80.948	-41.258	77.518	-0.65515	0.59790	-0.45364	-0.08600	31.3	13111	100
2025-3-27 15:8:17.11	WT901BLE68-01(48591DE3C19B)	1.430	-1.005	-0.348	-230.591	-234.924	32.471	134.03	59.69	-112.59	-80.948	-41.258	77.518	-0.65515	0.59790	-0.45364	-0.08600	31.3	13111	100
2025-3-27 15:8:17.11	WT901BLE68-01(48591DE3C19B)	1.430	-1.406	-0.501	-213.074	-216.370	-28.137	129.87	61.47	-115.06	-80.948	-41.258	77.518	-0.65515	0.59790	-0.45364	-0.08600	31.3	13111	100
2025-3-27 15:8:17.11	WT901BLE68-01(48591DE3C19B)	2.136	-1.406	-0.501	-213.074	-216.370	-28.137	125.44	63.16	-117.85	-80.948	-41.258	77.518	-0.65515	0.59790	-0.45364	-0.08600	31.3	13111	100
2025-3-27 15:8:17.42	WT901BLE68-01(48591DE3C19B)	2.136	-1.428	-0.354	-129.272	-114.014	-72.266	123.87	64.55	-118.38	-80.948	-41.258	77.518	-0.65515	0.59790	-0.45364	-0.08600	31.3	13111	100
2025-3-27 15:8:17.42	WT901BLE68-01(48591DE3C19B)	1.479	-1.428	-0.354	-129.272	-114.014	-72.266	122.35	65.92	-118.88	-80.948	-41.258	77.518	-0.65515	0.59790	-0.45364	-0.08600	31.3	13111	100
2025-3-27 15:8:17.42	WT901BLE68-01(48591DE3C19B)	1.479	-1.007	-0.114	-81.726	7.019	-131.531	124.49	67.12	-115.92	-80.948	-41.258	77.518	-0.65515	0.59790	-0.45364	-0.08600	31.3	13111	100
2025-3-27 15:8:17.42	WT901BLE68-01(48591DE3C19B)	0.923	-1.007	-0.114	-81.726	7.019	-131.531	127.00	68.25	-112.61	-80.948	-41.258	77.518	-0.65515	0.59790	-0.45364	-0.08600	31.3	13111	100
2025-3-27 15:8:17.70	WT901BLE68-01(48591DE3C19B)	0.848	-1.310	-0.054	-97.168	10.315	-205.444	131.08	69.86	-107.48	-80.948	-41.258	77.518	-0.65515	0.59790	-0.45364	-0.08600	31.3	13111	100
2025-3-27 15:8:17.70	WT901BLE68-01(48591DE3C19B)	0.848	-1.722	-0.116	-56.152	6.897	-269.958	136.83	71.55	-100.86	-80.948	-41.258	77.518	-0.65515	0.59790	-0.45364	-0.08600	31.3	13111	100
2025-3-27 15:8:17.70	WT901BLE68-01(48591DE3C19B)	0.685	-1.722	-0.116	-56.152	6.897	-269.958	144.79	73.17	-92.21	-80.948	-41.258	77.518	-0.24707	0.66739	-0.41748	-0.56491	31.3	13111	100
2025-3-27 15:8:17.70	WT901BLE68-01(48591DE3C19B)	0.685	-1.799	-0.155	18.005	27.039	-315.613	155.53	74.37	-81.12	-80.948	-41.258	77.518	-0.24707	0.66739	-0.41748	-0.56491	31.3	13111	100
2025-3-27 15:8:17.133	WT901BLE68-01(48591DE3C19B)	0.478	-1.799	-0.155	18.005	27.039	-315.613	168.82	74.86	-67.82	-80.948	-41.258	77.518	-0.24707	0.66739	-0.41748	-0.56491	31.3	13111	100
2025-3-27 15:8:17.133	WT901BLE68-01(48591DE3C19B)	0.478	-1.710	-0.110	65.796	65.735	-341.675	-177.12	74.32	-53.97	-80.948	-41.258	77.518	-0.24707	0.66739	-0.41748	-0.56491	31.3	13111	100
2025-3-27 15:8:17.133	WT901BLE68-01(48591DE3C19B)	0.263	-1.710	-0.110	65.796	65.735	-341.675	-164.23	72.71	-41.49	-80.948	-41.258	77.518	-0.24707	0.66739	-0.41748	-0.56491	31.3	13111	100
2025-3-27 15:8:17.133	WT901BLE68-01(48591DE3C19B)	0.263	-1.653	-0.021	101.257	130.188	-350.830	-154.01	70.12	-31.87	-80.948	-41.258	77.518	-0.24707	0.66739	-0.41748	-0.56491	31.3	13111	100
2025-3-27 15:8:17.161	WT901BLE68-01(48591DE3C19B)	-0.754	-1.653	-0.021	101.257	130.188	-350.830	-146.40	66.80	-25.05	-80.948	-41.258	77.518	-0.24707	0.66739	-0.41748	-0.56491	31.3	13111	100
2025-3-27 15:8:17.161	WT901BLE68-01(48591DE3C19B)	-0.754	-1.821	0.051	118.164	216.553	-319.275	-141.35	62.99	-20.97	-80.948	-41.258	77.518	-0.24707	0.66739	-0.41748	-0.56491	31.3	13111	100
2025-3-27 15:8:17.161	WT901BLE68-01(48591DE3C19B)	-4.867	-1.821	0.051	118.164	216.553	-319.275	-138.03	58.88	-18.81	-80.948	-41.258	77.518	-0.24707	0.66739	-0.41748	-0.56491	31.3	13111	100
2025-3-27 15:8:17.162	WT901BLE68-01(48591DE3C19B)	-4.867	-3.067	-0.447	161.072	220.825	-296.936	-135.24	54.83	-17.45	-80.948	-41.258	77.518	-0.24707	0.66739	-0.41748	-0.56491	31.3	13111	100
