time	DeviceName	AccX(g)	AccY(g)	AccZ(g)	AsX(°/s)	AsY(°/s)	AsZ(°/s)	AngleX(°)	AngleY(°)	AngleZ(°)	HX(uT)	HY(uT)	HZ(uT)	Q0()	Q1()	Q2()	Q3()	Temperature(°C)	Version()	Battery level(%)
2025-3-27 15:16:8.996	WT901BLE68-01(48591DE3C19B)	-0.186	-0.941	0.280	-0.122	-0.488	2.380	-74.15	11.11	-116.31	-47.922	-52.430	2.940	0.46210	-0.24939	0.55295	-0.64685	31.3	13111	100
2025-3-27 15:16:8.996	WT901BLE68-01(48591DE3C19B)	-0.187	-0.941	0.280	-0.122	-0.488	2.380	-74.14	11.13	-116.24	-47.922	-52.430	2.940	0.46210	-0.24939	0.55295	-0.64685	31.3	13111	100
2025-3-27 15:16:8.996	WT901BLE68-01(48591DE3C19B)	-0.187	-0.939	0.280	0.122	0.427	2.747	-74.14	11.16	-116.19	-47.922	-52.430	2.940	0.46210	-0.24939	0.55295	-0.64685	31.3	13111	100
2025-3-27 15:16:8.996	WT901BLE68-01(48591DE3C19B)	-0.189	-0.939	0.280	0.122	0.427	2.747	-74.13	11.18	-116.14	-47.922	-52.430	2.940	0.46210	-0.24939	0.55295	-0.64685	31.3	13111	100
2025-3-27 15:16:8.997	WT901BLE68-01(48591DE3C19B)	-0.189	-0.934	0.285	0.122	0.427	3.052	-74.13	11.22	-116.08	-47.922	-52.430	2.940	0.46210	-0.24939	0.55295	-0.64685	31.3	13111	100
2025-3-27 15:16:8.998	WT901BLE68-01(48591DE3C19B)	-0.189	-0.934	0.285	0.122	0.427	3.052	-74.12	11.24	-116.03	-47.922	-52.430	2.940	0.46210	-0.24939	0.55295	-0.64685	31.3	13111	100
2025-3-27 15:16:8.998	WT901BLE68-01(48591DE3C19B)	-0.189	-0.937	0.286	0.000	-0.183	3.235	-74.11	11.28	-115.97	-47.922	-52.430	2.940	0.46210	-0.24939	0.55295	-0.64685	31.3	13111	100
2025-3-27 15:16:8.998	WT901BLE68-01(48591DE3C19B)	-0.189	-0.937	0.286	0.000	-0.183	3.235	-74.11	11.30	-115.91	-47.922	-52.430	2.940	0.46210	-0.24939	0.55295	-0.64685	31.3	13111	100
2025-3-27 15:16:9.58	WT901BLE68-01(48591DE3C19B)	-0.189	-0.934	0.285	0.061	-1.099	3.174	-74.10	11.33	-115.84	-47.922	-52.430	2.940	0.46210	-0.24939	0.55295	-0.64685	31.3	13111	100
2025-3-27 15:16:9.58	WT901BLE68-01(48591DE3C19B)	-0.187	-0.934	0.285	0.061	-1.099	3.174	-74.09	11.36	-115.77	-47.922	-52.430	2.940	0.46210	-0.24939	0.55295	-0.64685	31.3	13111	100
2025-3-27 15:16:9.58	WT901BLE68-01(48591DE3C19B)	-0.187	-0.939	0.289	-0.244	-1.770	2.808	-74.09	11.38	-115.70	-47.922	-52.430	2.940	0.46210	-0.24939	0.55295	-0.64685	31.3	13111	100
2025-3-27 15:16:9.58	WT901BLE68-01(48591DE3C19B)	-0.182	-0.939	0.289	-0.244	-1.770	2.808	-74.08	11.40	-115.63	-47.922	-52.430	2.940	0.46210	-0.24939	0.55295	-0.64685	31.3	13111	100
2025-3-27 15:16:9.116	WT901BLE68-01(48591DE3C19B)	-0.182	-0.943	0.289	0.000	-1.770	2.563	-74.07	11.41	-115.57	-47.922	-52.430	2.940	0.46210	-0.24939	0.55295	-0.64685	31.3	13111	100
2025-3-27 15:16:9.116	WT901BLE68-01(48591DE3C19B)	-0.180	-0.943	0.289	0.000	-1.770	2.563	-74.06	11.43	-115.49	-47.922	-52.430	2.940	0.46210	-0.24939	0.55295	-0.64685	31.3	13111	100
2025-3-27 15:16:9.116	WT901BLE68-01(48591DE3C19B)	-0.182	-0.945	0.287	0.122	-1.465	2.380	-74.05	11.45	-115.43	-47.922	-52.430	2.940	0.46210	-0.24939	0.55295	-0.64685	31.3	13111	100
2025-3-27 15:16:9.116	WT901BLE68-01(48591DE3C19B)	-0.182	-0.949	0.288	0.244	-0.854	2.014	-74.04	11.46	-115.37	-47.922	-52.430	2.940	0.46210	-0.24939	0.55295	-0.64685	31.3	13111	100
2025-3-27 15:16:9.117	WT901BLE68-01(48591DE3C19B)	-0.189	-0.949	0.288	0.244	-0.854	2.014	-74.03	11.48	-115.31	-47.922	-52.430	2.940	0.47607	-0.25305	0.54871	-0.63885	31.3	13111	100
2025-3-27 15:16:9.118	WT901BLE68-01(48591DE3C19B)	-0.189	-0.946	0.290	0.488	-1.404	1.587	-74.01	11.49	-115.25	-47.922	-52.430	2.940	0.47607	-0.25305	0.54871	-0.63885	31.3	13111	100
2025-3-27 15:16:9.118	WT901BLE68-01(48591DE3C19B)	-0.188	-0.946	0.290	0.488	-1.404	1.587	-74.00	11.50	-115.19	-47.922	-52.430	2.940	0.47607	-0.25305	0.54871	-0.63885	31.3	13111	100
2025-3-27 15:16:9.118	WT901BLE68-01(48591DE3C19B)	-0.188	-0.947	0.292	0.183	-2.991	1.404	-73.99	11.50	-115.13	-47.922	-52.430	2.940	0.47607	-0.25305	0.54871	-0.63885	31.3	13111	100
2025-3-27 15:16:9.195	WT901BLE68-01(48591DE3C19B)	-0.181	-0.947	0.292	0.183	-2.991	1.404	-73.97	11.50	-115.05	-47.922	-52.430	2.940	0.47607	-0.25305	0.54871	-0.63885	31.3	13111	100
2025-3-27 15:16:9.196	WT901BLE68-01(48591DE3C19B)	-0.181	-0.941	0.294	0.610	-3.235	1.465	-73.95	11.50	-114.97	-47.922	-52.430	2.940	0.47607	-0.25305	0.54871	-0.63885	31.3	13111	100
2025-3-27 15:16:9.196	WT901BLE68-01(48591DE3C19B)	-0.182	-0.941	0.294	0.610	-3.235	1.465	-73.94	11.50	-114.90	-47.922	-52.430	2.940	0.47607	-0.25305	0.54871	-0.63885	31.3	13111	100
2025-3-27 15:16:9.196	WT901BLE68-01(48591DE3C19B)	-0.182	-0.932	0.292	1.038	-2.930	1.526	-73.92	11.50	-114.82	-47.922	-52.430	2.940	0.47607	-0.25305	0.54871	-0.63885	31.3	13111	100
2025-3-27 15:16:9.296	WT901BLE68-01(48591DE3C19B)	-0.179	-0.932	0.292	1.038	-2.930	1.526	-73.89	11.50	-114.75	-47.922	-52.430	2.940	0.47607	-0.25305	0.54871	-0.63885	31.3	13111	100
2025-3-27 15:16:9.296	WT901BLE68-01(48591DE3C19B)	-0.179	-0.925	0.290	0.977	-2.930	1.221	-73.87	11.51	-114.68	-47.922	-52.430	2.940	0.47607	-0.25305	0.54871	-0.63885	31.3	13111	100
2025-3-27 15:16:9.296	WT901BLE68-01(48591DE3C19B)	-0.181	-0.925	0.290	0.977	-2.930	1.221	-73.85	11.50	-114.61	-47.922	-52.430	2.940	0.47607	-0.25305	0.54871	-0.63885	31.3	13111	100
2025-3-27 15:16:9.296	WT901BLE68-01(48591DE3C19B)	-0.181	-0.925	0.291	0.977	-3.052	0.793	-73.83	11.50	-114.54	-47.922	-52.430	2.940	0.47607	-0.25305	0.54871	-0.63885	31.3	13111	100
2025-3-27 15:16:9.297	WT901BLE68-01(48591DE3C19B)	-0.186	-0.925	0.291	0.977	-3.052	0.793	-73.81	11.50	-114.48	-47.922	-52.430	2.940	0.47607	-0.25305	0.54871	-0.63885	31.3	13111	100
2025-3-27 15:16:9.297	WT901BLE68-01(48591DE3C19B)	-0.186	-0.926	0.292	0.732	-3.906	0.183	-73.78	11.49	-114.41	-47.922	-52.430	2.940	0.47607	-0.25305	0.54871	-0.63885	31.3	13111	100
2025-3-27 15:16:9.297	WT901BLE68-01(48591DE3C19B)	-0.186	-0.926	0.292	0.732	-3.906	0.183	-73.76	11.47	-114.33	-47.922	-52.430	2.940	0.47607	-0.25305	0.54871	-0.63885	31.3	13111	100
2025-3-27 15:16:9.297	WT901BLE68-01(48591DE3C19B)	-0.186	-0.927	0.295	0.854	-4.944	-0.610	-73.74	11.45	-114.26	-47.922	-52.430	2.940	0.47607	-0.25305	0.54871	-0.63885	31.3	13111	100
2025-3-27 15:16:9.386	WT901BLE68-01(48591DE3C19B)	-0.184	-0.927	0.295	0.854	-4.944	-0.610	-73.71	11.43	-114.18	-47.922	-52.430	2.940	0.47607	-0.25305	0.54871	-0.63885	31.3	13111	100
2025-3-27 15:16:9.386	WT901BLE68-01(48591DE3C19B)	-0.184	-0.923	0.295	0.610	-5.615	-1.160	-73.69	11.40	-114.10	-47.922	-52.430	2.940	0.47607	-0.25305	0.54871	-0.63885	31.3	13111	100
2025-3-27 15:16:9.386	WT901BLE68-01(48591DE3C19B)	-0.181	-0.923	0.295	0.610	-5.615	-1.160	-73.67	11.37	-114.01	-47.922	-52.430	2.940	0.47607	-0.25305	0.54871	-0.63885	31.3	13111	100
2025-3-27 15:16:9.386	WT901BLE68-01(48591DE3C19B)	-0.181	-0.928	0.294	0.122	-5.615	-1.587	-73.65	11.34	-113.93	-47.922	-52.430	2.940	0.47607	-0.25305	0.54871	-0.63885	31.3	13111	100
2025-3-27 15:16:9.387	WT901BLE68-01(48591DE3C19B)	-0.181	-0.928	0.294	0.122	-5.615	-1.587	-73.63	11.30	-113.85	-47.922	-52.430	2.940	0.47607	-0.25305	0.54871	-0.63885	31.3	13111	100
2025-3-27 15:16:9.387	WT901BLE68-01(48591DE3C19B)	-0.181	-0.947	0.292	0.488	-5.066	-2.014	-73.61	11.27	-113.77	-47.922	-52.430	2.940	0.47607	-0.25305	0.54871	-0.63885	31.3	13111	100
2025-3-27 15:16:9.387	WT901BLE68-01(48591DE3C19B)	-0.184	-0.947	0.292	0.488	-5.066	-2.014	-73.59	11.23	-113.70	-47.922	-52.430	2.940	0.47607	-0.25305	0.54871	-0.63885	31.3	13111	100
2025-3-27 15:16:9.387	WT901BLE68-01(48591DE3C19B)	-0.184	-0.940	0.290	1.221	-4.028	-2.380	-73.57	11.20	-113.63	-47.922	-52.430	2.940	0.47607	-0.25305	0.54871	-0.63885	31.3	13111	100
2025-3-27 15:16:9.388	WT901BLE68-01(48591DE3C19B)	-0.188	-0.940	0.290	1.221	-4.028	-2.380	-73.55	11.16	-113.57	-48.608	-53.018	3.038	0.47607	-0.25305	0.54871	-0.63885	31.3	13111	100
2025-3-27 15:16:9.388	WT901BLE68-01(48591DE3C19B)	-0.188	-0.939	0.291	0.916	-3.906	-2.930	-73.53	11.12	-113.51	-48.608	-53.018	3.038	0.47607	-0.25305	0.54871	-0.63885	31.3	13111	100
2025-3-27 15:16:9.388	WT901BLE68-01(48591DE3C19B)	-0.192	-0.939	0.291	0.916	-3.906	-2.930	-73.50	11.07	-113.44	-48.608	-53.018	3.038	0.47607	-0.25305	0.54871	-0.63885	31.3	13111	100
2025-3-27 15:16:9.388	WT901BLE68-01(48591DE3C19B)	-0.192	-0.947	0.292	1.099	-4.089	-3.235	-73.48	11.03	-113.39	-48.608	-53.018	3.038	0.47607	-0.25305	0.54871	-0.63885	31.3	13111	100
2025-3-27 15:16:9.389	WT901BLE68-01(48591DE3C19B)	-0.192	-0.947	0.292	1.099	-4.089	-3.235	-73.46	10.99	-113.33	-48.608	-53.018	3.038	0.47607	-0.25305	0.54871	-0.63885	31.3	13111	100
2025-3-27 15:16:9.389	WT901BLE68-01(48591DE3C19B)	-0.192	-0.942	0.294	1.343	-4.211	-3.174	-73.44	10.94	-113.27	-48.608	-53.018	3.038	0.47607	-0.25305	0.54871	-0.63885	31.3	13111	100
2025-3-27 15:16:9.389	WT901BLE68-01(48591DE3C19B)	-0.191	-0.942	0.294	1.343	-4.211	-3.174	-73.42	10.90	-113.21	-48.608	-53.018	3.038	0.47607	-0.25305	0.54871	-0.63885	31.3	13111	100
2025-3-27 15:16:9.389	WT901BLE68-01(48591DE3C19B)	-0.191	-0.932	0.292	1.221	-4.150	-2.869	-73.39	10.86	-113.15	-48.608	-53.018	3.038	0.47607	-0.25305	0.54871	-0.63885	31.3	13111	100
2025-3-27 15:16:9.476	WT901BLE68-01(48591DE3C19B)	-0.195	-0.932	0.292	1.221	-4.150	-2.869	-73.37	10.82	-113.09	-48.608	-53.018	3.038	0.47607	-0.25305	0.54871	-0.63885	31.3	13111	100
2025-3-27 15:16:9.477	WT901BLE68-01(48591DE3C19B)	-0.195	-0.923	0.289	0.488	-4.578	-2.747	-73.35	10.78	-113.03	-48.608	-53.018	3.038	0.47607	-0.25305	0.54871	-0.63885	31.3	13111	100
2025-3-27 15:16:9.477	WT901BLE68-01(48591DE3C19B)	-0.199	-0.923	0.289	0.488	-4.578	-2.747	-73.33	10.74	-112.97	-48.608	-53.018	3.038	0.47607	-0.25305	0.54871	-0.63885	31.3	13111	100
2025-3-27 15:16:9.477	WT901BLE68-01(48591DE3C19B)	-0.199	-0.927	0.290	0.061	-5.676	-2.747	-73.32	10.70	-112.91	-48.608	-53.018	3.038	0.47607	-0.25305	0.54871	-0.63885	31.3	13111	100
2025-3-27 15:16:9.477	WT901BLE68-01(48591DE3C19B)	-0.200	-0.927	0.290	0.061	-5.676	-2.747	-73.31	10.66	-112.84	-48.608	-53.018	3.038	0.47607	-0.25305	0.54871	-0.63885	31.3	13111	100
2025-3-27 15:16:9.477	WT901BLE68-01(48591DE3C19B)	-0.200	-0.930	0.287	-0.183	-7.324	-2.808	-73.30	10.62	-112.75	-48.608	-53.018	3.038	0.47607	-0.25305	0.54871	-0.63885	31.3	13111	100
2025-3-27 15:16:9.478	WT901BLE68-01(48591DE3C19B)	-0.196	-0.930	0.287	-0.183	-7.324	-2.808	-73.28	10.57	-112.67	-48.608	-53.018	3.038	0.47607	-0.25305	0.54871	-0.63885	31.3	13111	100
2025-3-27 15:16:9.478	WT901BLE68-01(48591DE3C19B)	-0.196	-0.942	0.281	-0.244	-8.362	-3.296	-73.27	10.52	-112.58	-48.608	-53.018	3.038	0.47607	-0.25305	0.54871	-0.63885	31.3	13111	100
2025-3-27 15:16:9.506	WT901BLE68-01(48591DE3C19B)	-0.198	-0.942	0.281	-0.244	-8.362	-3.296	-73.25	10.48	-112.48	-48.608	-53.018	3.038	0.47607	-0.25305	0.54871	-0.63885	31.3	13111	100
2025-3-27 15:16:9.507	WT901BLE68-01(48591DE3C19B)	-0.198	-0.934	0.283	-0.122	-9.033	-3.906	-73.24	10.42	-112.39	-48.608	-53.018	3.038	0.47607	-0.25305	0.54871	-0.63885	31.3	13111	100
2025-3-27 15:16:9.507	WT901BLE68-01(48591DE3C19B)	-0.201	-0.934	0.283	-0.122	-9.033	-3.906	-73.22	10.36	-112.29	-48.608	-53.018	3.038	0.49002	-0.27066	0.53366	-0.63382	31.3	13111	100
2025-3-27 15:16:9.507	WT901BLE68-01(48591DE3C19B)	-0.201	-0.935	0.283	-1.709	-10.620	-4.700	-73.22	10.30	-112.19	-48.608	-53.018	3.038	0.49002	-0.27066	0.53366	-0.63382	31.3	13111	100
2025-3-27 15:16:9.656	WT901BLE68-01(48591DE3C19B)	-0.205	-0.935	0.283	-1.709	-10.620	-4.700	-73.22	10.23	-112.08	-48.608	-53.018	3.038	0.49002	-0.27066	0.53366	-0.63382	31.3	13111	100
2025-3-27 15:16:9.656	WT901BLE68-01(48591DE3C19B)	-0.205	-0.939	0.276	-2.319	-12.329	-5.798	-73.22	10.15	-111.96	-48.608	-53.018	3.038	0.49002	-0.27066	0.53366	-0.63382	31.3	13111	100
2025-3-27 15:16:9.656	WT901BLE68-01(48591DE3C19B)	-0.208	-0.939	0.276	-2.319	-12.329	-5.798	-73.22	10.06	-111.84	-48.608	-53.018	3.038	0.49002	-0.27066	0.53366	-0.63382	31.3	13111	100
2025-3-27 15:16:9.656	WT901BLE68-01(48591DE3C19B)	-0.208	-0.925	0.273	-3.479	-14.771	-6.958	-73.24	9.96	-111.69	-48.608	-53.018	3.038	0.49002	-0.27066	0.53366	-0.63382	31.3	13111	100
2025-3-27 15:16:9.657	WT901BLE68-01(48591DE3C19B)	-0.211	-0.925	0.273	-3.479	-14.771	-6.958	-73.25	9.86	-111.55	-48.608	-53.018	3.038	0.49002	-0.27066	0.53366	-0.63382	31.3	13111	100
2025-3-27 15:16:9.657	WT901BLE68-01(48591DE3C19B)	-0.211	-0.930	0.275	-5.371	-18.005	-7.935	-73.28	9.74	-111.38	-48.608	-53.018	3.038	0.49002	-0.27066	0.53366	-0.63382	31.3	13111	100
2025-3-27 15:16:9.657	WT901BLE68-01(48591DE3C19B)	-0.216	-0.930	0.275	-5.371	-18.005	-7.935	-73.31	9.63	-111.21	-48.608	-53.018	3.038	0.49002	-0.27066	0.53366	-0.63382	31.3	13111	100
2025-3-27 15:16:9.657	WT901BLE68-01(48591DE3C19B)	-0.216	-0.938	0.275	-6.348	-21.484	-8.972	-73.34	9.50	-111.02	-48.608	-53.018	3.038	0.49002	-0.27066	0.53366	-0.63382	31.3	13111	100
2025-3-27 15:16:9.658	WT901BLE68-01(48591DE3C19B)	-0.212	-0.938	0.275	-6.348	-21.484	-8.972	-73.37	9.36	-110.82	-48.608	-53.018	3.038	0.49002	-0.27066	0.53366	-0.63382	31.3	13111	100
2025-3-27 15:16:9.658	WT901BLE68-01(48591DE3C19B)	-0.212	-0.939	0.274	-7.263	-24.536	-9.766	-73.41	9.21	-110.60	-48.608	-53.018	3.038	0.49002	-0.27066	0.53366	-0.63382	31.3	13111	100
2025-3-27 15:16:9.658	WT901BLE68-01(48591DE3C19B)	-0.203	-0.939	0.274	-7.263	-24.536	-9.766	-73.45	9.07	-110.38	-48.608	-53.018	3.038	0.49002	-0.27066	0.53366	-0.63382	31.3	13111	100
2025-3-27 15:16:9.658	WT901BLE68-01(48591DE3C19B)	-0.203	-0.943	0.271	-8.118	-25.818	-10.010	-73.50	8.92	-110.15	-48.608	-53.018	3.038	0.49002	-0.27066	0.53366	-0.63382	31.3	13111	100
2025-3-27 15:16:9.687	WT901BLE68-01(48591DE3C19B)	-0.201	-0.943	0.271	-8.118	-25.818	-10.010	-73.54	8.77	-109.92	-48.608	-53.018	3.038	0.49002	-0.27066	0.53366	-0.63382	31.3	13111	100
2025-3-27 15:16:9.688	WT901BLE68-01(48591DE3C19B)	-0.201	-0.954	0.268	-8.484	-25.513	-10.010	-73.60	8.61	-109.69	-48.608	-53.018	3.038	0.49002	-0.27066	0.53366	-0.63382	31.3	13111	100
2025-3-27 15:16:9.688	WT901BLE68-01(48591DE3C19B)	-0.208	-0.954	0.268	-8.484	-25.513	-10.010	-73.65	8.46	-109.47	-48.608	-53.018	3.038	0.49002	-0.27066	0.53366	-0.63382	31.3	13111	100
2025-3-27 15:16:9.688	WT901BLE68-01(48591DE3C19B)	-0.208	-0.953	0.271	-8.850	-25.452	-9.827	-73.70	8.32	-109.24	-48.608	-53.018	3.038	0.49002	-0.27066	0.53366	-0.63382	31.3	13111	100
2025-3-27 15:16:9.746	WT901BLE68-01(48591DE3C19B)	-0.214	-0.953	0.271	-8.850	-25.452	-9.827	-73.76	8.18	-109.02	-48.608	-53.018	3.038	0.49002	-0.27066	0.53366	-0.63382	31.3	13111	100
2025-3-27 15:16:9.746	WT901BLE68-01(48591DE3C19B)	-0.214	-0.955	0.273	-9.460	-26.855	-9.521	-73.82	8.04	-108.79	-48.608	-53.018	3.038	0.49002	-0.27066	0.53366	-0.63382	31.3	13111	100
2025-3-27 15:16:9.746	WT901BLE68-01(48591DE3C19B)	-0.216	-0.955	0.273	-9.460	-26.855	-9.521	-73.88	7.89	-108.55	-48.608	-53.018	3.038	0.49002	-0.27066	0.53366	-0.63382	31.3	13111	100
2025-3-27 15:16:9.746	WT901BLE68-01(48591DE3C19B)	-0.216	-0.951	0.271	-10.071	-28.931	-8.972	-73.95	7.75	-108.30	-50.568	-52.136	1.470	0.49002	-0.27066	0.53366	-0.63382	31.3	13111	100
2025-3-27 15:16:9.748	WT901BLE68-01(48591DE3C19B)	-0.214	-0.951	0.271	-10.071	-28.931	-8.972	-74.01	7.61	-108.05	-50.568	-52.136	1.470	0.49002	-0.27066	0.53366	-0.63382	31.3	13111	100
2025-3-27 15:16:9.748	WT901BLE68-01(48591DE3C19B)	-0.214	-0.957	0.270	-10.559	-31.006	-8.301	-74.08	7.47	-107.77	-50.568	-52.136	1.470	0.49002	-0.27066	0.53366	-0.63382	31.3	13111	100
2025-3-27 15:16:9.748	WT901BLE68-01(48591DE3C19B)	-0.211	-0.957	0.270	-10.559	-31.006	-8.301	-74.15	7.33	-107.50	-50.568	-52.136	1.470	0.49002	-0.27066	0.53366	-0.63382	31.3	13111	100
2025-3-27 15:16:9.748	WT901BLE68-01(48591DE3C19B)	-0.211	-0.948	0.272	-10.315	-33.020	-7.385	-74.21	7.20	-107.20	-50.568	-52.136	1.470	0.49002	-0.27066	0.53366	-0.63382	31.3	13111	100
2025-3-27 15:16:9.807	WT901BLE68-01(48591DE3C19B)	-0.207	-0.948	0.272	-10.315	-33.020	-7.385	-74.28	7.07	-106.91	-50.568	-52.136	1.470	0.49002	-0.27066	0.53366	-0.63382	31.3	13111	100
2025-3-27 15:16:9.807	WT901BLE68-01(48591DE3C19B)	-0.207	-0.928	0.272	-10.803	-35.034	-6.653	-74.34	6.94	-106.61	-50.568	-52.136	1.470	0.49002	-0.27066	0.53366	-0.63382	31.3	13111	100
2025-3-27 15:16:9.807	WT901BLE68-01(48591DE3C19B)	-0.202	-0.928	0.272	-10.803	-35.034	-6.653	-74.41	6.82	-106.29	-50.568	-52.136	1.470	0.49002	-0.27066	0.53366	-0.63382	31.3	13111	100
2025-3-27 15:16:9.807	WT901BLE68-01(48591DE3C19B)	-0.202	-0.933	0.275	-11.475	-36.804	-6.226	-74.48	6.69	-105.97	-50.568	-52.136	1.470	0.49002	-0.27066	0.53366	-0.63382	31.3	13111	100
2025-3-27 15:16:9.835	WT901BLE68-01(48591DE3C19B)	-0.193	-0.933	0.275	-11.475	-36.804	-6.226	-74.55	6.56	-105.65	-50.568	-52.136	1.470	0.49002	-0.27066	0.53366	-0.63382	31.3	13111	100
2025-3-27 15:16:9.835	WT901BLE68-01(48591DE3C19B)	-0.193	-0.942	0.282	-10.376	-37.415	-5.676	-74.61	6.44	-105.32	-50.568	-52.136	1.470	0.49002	-0.27066	0.53366	-0.63382	31.3	13111	100
2025-3-27 15:16:9.836	WT901BLE68-01(48591DE3C19B)	-0.178	-0.942	0.282	-10.376	-37.415	-5.676	-74.67	6.32	-105.00	-50.568	-52.136	1.470	0.49002	-0.27066	0.53366	-0.63382	31.3	13111	100
2025-3-27 15:16:9.836	WT901BLE68-01(48591DE3C19B)	-0.178	-0.937	0.286	-8.728	-36.011	-4.272	-74.71	6.22	-104.68	-50.568	-52.136	1.470	0.49002	-0.27066	0.53366	-0.63382	31.3	13111	100
2025-3-27 15:16:9.895	WT901BLE68-01(48591DE3C19B)	-0.160	-0.937	0.286	-8.728	-36.011	-4.272	-74.75	6.11	-104.37	-50.568	-52.136	1.470	0.49002	-0.27066	0.53366	-0.63382	31.3	13111	100
2025-3-27 15:16:9.896	WT901BLE68-01(48591DE3C19B)	-0.160	-0.951	0.282	-7.446	-32.471	-1.892	-74.79	6.04	-104.09	-50.568	-52.136	1.470	0.49002	-0.27066	0.53366	-0.63382	31.3	13111	100
2025-3-27 15:16:9.896	WT901BLE68-01(48591DE3C19B)	-0.137	-0.951	0.282	-7.446	-32.471	-1.892	-74.82	5.97	-103.81	-50.568	-52.136	1.470	0.49002	-0.27066	0.53366	-0.63382	31.3	13111	100
2025-3-27 15:16:9.896	WT901BLE68-01(48591DE3C19B)	-0.137	-0.961	0.272	-4.883	-25.879	0.854	-74.83	5.94	-103.58	-50.568	-52.136	1.470	0.49002	-0.27066	0.53366	-0.63382	31.3	13111	100
2025-3-27 15:16:9.925	WT901BLE68-01(48591DE3C19B)	-0.121	-0.961	0.272	-4.883	-25.879	0.854	-74.85	5.91	-103.36	-50.568	-52.136	1.470	0.51669	-0.34448	0.50134	-0.60242	31.3	13111	100
2025-3-27 15:16:9.925	WT901BLE68-01(48591DE3C19B)	-0.121	-0.948	0.270	-3.052	-17.517	3.174	-74.86	5.92	-103.21	-50.568	-52.136	1.470	0.51669	-0.34448	0.50134	-0.60242	31.3	13111	100
2025-3-27 15:16:9.925	WT901BLE68-01(48591DE3C19B)	-0.121	-0.948	0.270	-3.052	-17.517	3.174	-74.86	5.93	-103.06	-50.568	-52.136	1.470	0.51669	-0.34448	0.50134	-0.60242	31.3	13111	100
2025-3-27 15:16:9.925	WT901BLE68-01(48591DE3C19B)	-0.121	-0.942	0.272	-3.235	-10.986	4.761	-74.87	5.97	-102.97	-50.568	-52.136	1.470	0.51669	-0.34448	0.50134	-0.60242	31.3	13111	100
2025-3-27 15:16:10.16	WT901BLE68-01(48591DE3C19B)	-0.125	-0.942	0.272	-3.235	-10.986	4.761	-74.88	6.00	-102.88	-50.568	-52.136	1.470	0.51669	-0.34448	0.50134	-0.60242	31.3	13111	100
2025-3-27 15:16:10.16	WT901BLE68-01(48591DE3C19B)	-0.125	-0.960	0.279	-3.418	-7.874	5.554	-74.90	6.05	-102.82	-50.568	-52.136	1.470	0.51669	-0.34448	0.50134	-0.60242	31.3	13111	100
2025-3-27 15:16:10.16	WT901BLE68-01(48591DE3C19B)	-0.113	-0.960	0.279	-3.418	-7.874	5.554	-74.92	6.10	-102.76	-50.568	-52.136	1.470	0.51669	-0.34448	0.50134	-0.60242	31.3	13111	100
2025-3-27 15:16:10.16	WT901BLE68-01(48591DE3C19B)	-0.113	-0.978	0.276	-3.845	-8.301	4.822	-74.94	6.14	-102.69	-50.568	-52.136	1.470	0.51669	-0.34448	0.50134	-0.60242	31.3	13111	100
2025-3-27 15:16:10.18	WT901BLE68-01(48591DE3C19B)	-0.093	-0.978	0.276	-3.845	-8.301	4.822	-74.96	6.18	-102.63	-50.568	-52.136	1.470	0.51669	-0.34448	0.50134	-0.60242	31.3	13111	100
2025-3-27 15:16:10.18	WT901BLE68-01(48591DE3C19B)	-0.093	-0.971	0.269	-3.540	-10.376	3.479	-74.98	6.20	-102.55	-50.568	-52.136	1.470	0.51669	-0.34448	0.50134	-0.60242	31.3	13111	100
2025-3-27 15:16:10.18	WT901BLE68-01(48591DE3C19B)	-0.051	-0.971	0.269	-3.540	-10.376	3.479	-74.99	6.22	-102.46	-50.568	-52.136	1.470	0.51669	-0.34448	0.50134	-0.60242	31.3	13111	100
2025-3-27 15:16:10.18	WT901BLE68-01(48591DE3C19B)	-0.013	-0.946	0.262	-3.967	-11.414	1.221	-75.01	6.21	-102.38	-50.568	-52.136	1.470	0.51669	-0.34448	0.50134	-0.60242	31.3	13111	100
2025-3-27 15:16:10.226	WT901BLE68-01(48591DE3C19B)	-0.013	-0.917	0.263	-6.226	-10.376	-3.052	-75.05	6.17	-102.30	-50.568	-52.136	1.470	0.51669	-0.34448	0.50134	-0.60242	31.3	13111	100
2025-3-27 15:16:10.226	WT901BLE68-01(48591DE3C19B)	0.011	-0.917	0.263	-6.226	-10.376	-3.052	-75.09	6.12	-102.24	-50.568	-52.136	1.470	0.51669	-0.34448	0.50134	-0.60242	31.3	13111	100
2025-3-27 15:16:10.227	WT901BLE68-01(48591DE3C19B)	0.011	-0.918	0.268	-10.193	-8.240	-7.996	-75.16	6.04	-102.18	-50.568	-52.136	1.470	0.51669	-0.34448	0.50134	-0.60242	31.3	13111	100
2025-3-27 15:16:10.227	WT901BLE68-01(48591DE3C19B)	0.004	-0.918	0.268	-10.193	-8.240	-7.996	-75.25	5.94	-102.15	-50.568	-52.136	1.470	0.51669	-0.34448	0.50134	-0.60242	31.3	13111	100
2025-3-27 15:16:10.256	WT901BLE68-01(48591DE3C19B)	0.004	-0.943	0.289	-11.658	-6.897	-13.855	-75.34	5.81	-102.13	-50.568	-52.136	1.470	0.51669	-0.34448	0.50134	-0.60242	31.3	13111	100
2025-3-27 15:16:10.257	WT901BLE68-01(48591DE3C19B)	0.010	-0.943	0.289	-11.658	-6.897	-13.855	-75.45	5.65	-102.12	-50.568	-52.136	1.470	0.51669	-0.34448	0.50134	-0.60242	31.3	13111	100
2025-3-27 15:16:10.257	WT901BLE68-01(48591DE3C19B)	0.010	-0.983	0.291	-11.902	-9.460	-19.897	-75.55	5.45	-102.11	-50.568	-52.136	1.470	0.51669	-0.34448	0.50134	-0.60242	31.3	13111	100
2025-3-27 15:16:10.257	WT901BLE68-01(48591DE3C19B)	0.025	-0.983	0.291	-11.902	-9.460	-19.897	-75.66	5.22	-102.10	-50.568	-52.136	1.470	0.51669	-0.34448	0.50134	-0.60242	31.3	13111	100
2025-3-27 15:16:10.258	WT901BLE68-01(48591DE3C19B)	0.025	-0.990	0.295	-9.033	-10.498	-26.489	-75.75	4.96	-102.08	-50.568	-52.136	1.470	0.51669	-0.34448	0.50134	-0.60242	31.3	13111	100
2025-3-27 15:16:10.258	WT901BLE68-01(48591DE3C19B)	0.014	-0.990	0.295	-9.033	-10.498	-26.489	-75.82	4.66	-102.07	-50.568	-52.136	1.470	0.51669	-0.34448	0.50134	-0.60242	31.3	13111	100
2025-3-27 15:16:10.258	WT901BLE68-01(48591DE3C19B)	0.014	-1.025	0.297	-8.789	-10.925	-32.959	-75.90	4.33	-102.06	-50.568	-52.136	1.470	0.51669	-0.34448	0.50134	-0.60242	31.3	13111	100
2025-3-27 15:16:10.258	WT901BLE68-01(48591DE3C19B)	-0.015	-1.025	0.297	-8.789	-10.925	-32.959	-75.97	3.97	-102.06	-50.568	-52.136	1.470	0.51669	-0.34448	0.50134	-0.60242	31.3	13111	100
2025-3-27 15:16:10.259	WT901BLE68-01(48591DE3C19B)	-0.015	-1.089	0.321	-7.019	-14.832	-39.185	-76.03	3.58	-102.05	-50.568	-52.136	1.470	0.51669	-0.34448	0.50134	-0.60242	31.3	13111	100
2025-3-27 15:16:10.259	WT901BLE68-01(48591DE3C19B)	-0.019	-1.089	0.321	-7.019	-14.832	-39.185	-76.09	3.15	-102.02	-50.568	-52.136	1.470	0.51669	-0.34448	0.50134	-0.60242	31.3	13111	100
2025-3-27 15:16:10.259	WT901BLE68-01(48591DE3C19B)	-0.019	-1.141	0.344	-4.395	-22.705	-44.617	-76.12	2.69	-101.96	-50.568	-52.136	1.470	0.51669	-0.34448	0.50134	-0.60242	31.3	13111	100
2025-3-27 15:16:10.259	WT901BLE68-01(48591DE3C19B)	-0.013	-1.141	0.344	-4.395	-22.705	-44.617	-76.15	2.20	-101.88	-50.568	-52.136	1.470	0.51669	-0.34448	0.50134	-0.60242	31.3	13111	100
2025-3-27 15:16:10.260	WT901BLE68-01(48591DE3C19B)	-0.013	-1.155	0.354	-1.099	-27.588	-48.950	-76.16	1.68	-101.77	-50.568	-52.136	1.470	0.51669	-0.34448	0.50134	-0.60242	31.3	13111	100
2025-3-27 15:16:10.260	WT901BLE68-01(48591DE3C19B)	-0.025	-1.155	0.354	-1.099	-27.588	-48.950	-76.15	1.14	-101.65	-50.568	-52.136	1.470	0.51669	-0.34448	0.50134	-0.60242	31.3	13111	100
2025-3-27 15:16:10.260	WT901BLE68-01(48591DE3C19B)	-0.025	-1.155	0.359	0.916	-31.006	-52.246	-76.13	0.58	-101.51	-50.568	-52.136	1.470	0.51669	-0.34448	0.50134	-0.60242	31.3	13111	100
2025-3-27 15:16:10.260	WT901BLE68-01(48591DE3C19B)	-0.038	-1.155	0.359	0.916	-31.006	-52.246	-76.10	0.00	-101.37	-50.568	-52.136	1.470	0.51669	-0.34448	0.50134	-0.60242	31.3	13111	100
2025-3-27 15:16:10.261	WT901BLE68-01(48591DE3C19B)	-0.038	-1.164	0.363	1.648	-34.546	-54.810	-76.07	-0.58	-101.21	-50.568	-52.136	1.470	0.51669	-0.34448	0.50134	-0.60242	31.3	13111	100
2025-3-27 15:16:10.261	WT901BLE68-01(48591DE3C19B)	-0.061	-1.164	0.363	1.648	-34.546	-54.810	-76.04	-1.19	-101.05	-50.568	-52.136	1.470	0.51669	-0.34448	0.50134	-0.60242	31.3	13111	100
2025-3-27 15:16:10.261	WT901BLE68-01(48591DE3C19B)	-0.061	-1.173	0.374	2.625	-36.743	-55.786	-76.01	-1.79	-100.87	-50.568	-52.136	1.470	0.51669	-0.34448	0.50134	-0.60242	31.3	13111	100
2025-3-27 15:16:10.261	WT901BLE68-01(48591DE3C19B)	-0.091	-1.173	0.374	2.625	-36.743	-55.786	-75.97	-2.40	-100.68	-50.568	-52.136	1.470	0.51669	-0.34448	0.50134	-0.60242	31.3	13111	100
2025-3-27 15:16:10.286	WT901BLE68-01(48591DE3C19B)	-0.091	-1.174	0.372	4.456	-38.818	-54.871	-75.93	-3.00	-100.49	-54.292	-48.804	-2.254	0.51669	-0.34448	0.50134	-0.60242	31.3	13111	100
2025-3-27 15:16:10.286	WT901BLE68-01(48591DE3C19B)	-0.103	-1.174	0.372	4.456	-38.818	-54.871	-75.88	-3.60	-100.29	-54.292	-48.804	-2.254	0.51669	-0.34448	0.50134	-0.60242	31.3	13111	100
2025-3-27 15:16:10.286	WT901BLE68-01(48591DE3C19B)	-0.103	-1.134	0.361	6.104	-41.870	-52.429	-75.82	-4.18	-100.08	-54.292	-48.804	-2.254	0.51669	-0.34448	0.50134	-0.60242	31.3	13111	100
2025-3-27 15:16:10.286	WT901BLE68-01(48591DE3C19B)	-0.107	-1.134	0.361	6.104	-41.870	-52.429	-75.76	-4.75	-99.85	-54.292	-48.804	-2.254	0.51669	-0.34448	0.50134	-0.60242	31.3	13111	100
2025-3-27 15:16:10.315	WT901BLE68-01(48591DE3C19B)	-0.107	-1.087	0.350	6.836	-44.556	-48.279	-75.70	-5.30	-99.60	-54.292	-48.804	-2.254	0.51669	-0.34448	0.50134	-0.60242	31.3	13111	100
2025-3-27 15:16:10.315	WT901BLE68-01(48591DE3C19B)	-0.102	-1.087	0.350	6.836	-44.556	-48.279	-75.65	-5.82	-99.34	-54.292	-48.804	-2.254	0.51669	-0.34448	0.50134	-0.60242	31.3	13111	100
2025-3-27 15:16:10.316	WT901BLE68-01(48591DE3C19B)	-0.102	-1.021	0.335	8.606	-44.983	-42.786	-75.58	-6.32	-99.08	-54.292	-48.804	-2.254	0.48615	-0.43173	0.43539	-0.62256	31.3	13111	100
2025-3-27 15:16:10.316	WT901BLE68-01(48591DE3C19B)	-0.067	-1.021	0.335	8.606	-44.983	-42.786	-75.51	-6.79	-98.81	-54.292	-48.804	-2.254	0.48615	-0.43173	0.43539	-0.62256	31.3	13111	100
2025-3-27 15:16:10.375	WT901BLE68-01(48591DE3C19B)	-0.067	-0.923	0.321	10.986	-42.358	-36.377	-75.43	-7.22	-98.54	-54.292	-48.804	-2.254	0.48615	-0.43173	0.43539	-0.62256	31.3	13111	100
2025-3-27 15:16:10.375	WT901BLE68-01(48591DE3C19B)	0.019	-0.923	0.321	10.986	-42.358	-36.377	-75.33	-7.61	-98.28	-54.292	-48.804	-2.254	0.48615	-0.43173	0.43539	-0.62256	31.3	13111	100
2025-3-27 15:16:10.376	WT901BLE68-01(48591DE3C19B)	0.019	-0.790	0.297	9.949	-32.776	-33.447	-75.24	-7.98	-98.07	-54.292	-48.804	-2.254	0.48615	-0.43173	0.43539	-0.62256	31.3	13111	100
2025-3-27 15:16:10.376	WT901BLE68-01(48591DE3C19B)	0.082	-0.790	0.297	9.949	-32.776	-33.447	-75.15	-8.32	-97.90	-54.292	-48.804	-2.254	0.48615	-0.43173	0.43539	-0.62256	31.3	13111	100
2025-3-27 15:16:10.408	WT901BLE68-01(48591DE3C19B)	0.082	-0.731	0.315	5.005	-0.854	-28.687	-75.06	-8.60	-97.89	-54.292	-48.804	-2.254	0.48615	-0.43173	0.43539	-0.62256	31.3	13111	100
2025-3-27 15:16:10.408	WT901BLE68-01(48591DE3C19B)	0.001	-0.731	0.315	5.005	-0.854	-28.687	-74.97	-8.82	-98.03	-54.292	-48.804	-2.254	0.48615	-0.43173	0.43539	-0.62256	31.3	13111	100
2025-3-27 15:16:10.408	WT901BLE68-01(48591DE3C19B)	0.001	-0.736	0.347	7.690	25.085	-23.926	-74.85	-8.98	-98.28	-54.292	-48.804	-2.254	0.48615	-0.43173	0.43539	-0.62256	31.3	13111	100
2025-3-27 15:16:10.408	WT901BLE68-01(48591DE3C19B)	-0.118	-0.736	0.347	7.690	25.085	-23.926	-74.69	-9.08	-98.66	-54.292	-48.804	-2.254	0.48615	-0.43173	0.43539	-0.62256	31.3	13111	100
2025-3-27 15:16:10.495	WT901BLE68-01(48591DE3C19B)	-0.118	-0.766	0.382	12.512	33.875	-17.700	-74.50	-9.14	-99.08	-54.292	-48.804	-2.254	0.48615	-0.43173	0.43539	-0.62256	31.3	13111	100
2025-3-27 15:16:10.496	WT901BLE68-01(48591DE3C19B)	-0.316	-0.766	0.382	12.512	33.875	-17.700	-74.28	-9.16	-99.53	-54.292	-48.804	-2.254	0.48615	-0.43173	0.43539	-0.62256	31.3	13111	100
2025-3-27 15:16:10.496	WT901BLE68-01(48591DE3C19B)	-0.316	-0.866	0.418	17.151	26.794	-5.981	-74.04	-9.12	-99.93	-54.292	-48.804	-2.254	0.48615	-0.43173	0.43539	-0.62256	31.3	13111	100
2025-3-27 15:16:10.496	WT901BLE68-01(48591DE3C19B)	-0.583	-0.866	0.418	17.151	26.794	-5.981	-73.78	-9.03	-100.29	-54.292	-48.804	-2.254	0.48615	-0.43173	0.43539	-0.62256	31.3	13111	100
2025-3-27 15:16:10.496	WT901BLE68-01(48591DE3C19B)	-0.583	-1.078	0.453	22.217	-5.676	17.029	-73.53	-8.86	-100.46	-54.292	-48.804	-2.254	0.48615	-0.43173	0.43539	-0.62256	31.3	13111	100
2025-3-27 15:16:10.497	WT901BLE68-01(48591DE3C19B)	-1.607	-1.078	0.453	22.217	-5.676	17.029	-73.28	-8.61	-100.44	-54.292	-48.804	-2.254	0.48615	-0.43173	0.43539	-0.62256	31.3	13111	100
2025-3-27 15:16:10.497	WT901BLE68-01(48591DE3C19B)	-6.430	-2.597	0.697	24.902	-48.889	43.152	-73.08	-8.22	-99.94	-54.292	-48.804	-2.254	0.48615	-0.43173	0.43539	-0.62256	31.3	13111	100
2025-3-27 15:16:10.497	WT901BLE68-01(48591DE3C19B)	-0.816	-10.390	2.789	24.902	-48.889	43.152	-72.87	-7.79	-99.45	-54.292	-48.804	-2.254	0.48615	-0.43173	0.43539	-0.62256	31.3	13111	100
2025-3-27 15:16:10.525	WT901BLE68-01(48591DE3C19B)	-0.816	-1.434	0.221	33.020	-73.181	74.524	-72.63	-7.12	-98.64	-54.292	-48.804	-2.254	0.48615	-0.43173	0.43539	-0.62256	31.3	13111	100
2025-3-27 15:16:10.525	WT901BLE68-01(48591DE3C19B)	-0.676	-1.434	0.221	33.020	-73.181	74.524	-72.38	-6.45	-97.83	-54.292	-48.804	-2.254	0.48615	-0.43173	0.43539	-0.62256	31.3	13111	100
2025-3-27 15:16:10.525	WT901BLE68-01(48591DE3C19B)	-0.676	-1.485	0.214	41.687	-75.256	99.487	-72.05	-5.56	-96.92	-54.292	-48.804	-2.254	0.48615	-0.43173	0.43539	-0.62256	31.3	13111	100
2025-3-27 15:16:10.525	WT901BLE68-01(48591DE3C19B)	-0.630	-1.485	0.214	41.687	-75.256	99.487	-71.72	-4.69	-96.00	-56.644	-49.784	-3.038	0.48615	-0.43173	0.43539	-0.62256	31.3	13111	100
2025-3-27 15:16:10.555	WT901BLE68-01(48591DE3C19B)	-0.630	-1.433	0.240	51.697	-55.054	117.981	-71.26	-3.58	-95.22	-56.644	-49.784	-3.038	0.48615	-0.43173	0.43539	-0.62256	31.3	13111	100
2025-3-27 15:16:10.555	WT901BLE68-01(48591DE3C19B)	-0.615	-1.433	0.240	51.697	-55.054	117.981	-70.79	-2.48	-94.42	-56.644	-49.784	-3.038	0.48615	-0.43173	0.43539	-0.62256	31.3	13111	100
2025-3-27 15:16:10.555	WT901BLE68-01(48591DE3C19B)	-0.615	-1.205	0.207	60.669	-28.992	120.850	-70.21	-1.29	-93.86	-56.644	-49.784	-3.038	0.48615	-0.43173	0.43539	-0.62256	31.3	13111	100
2025-3-27 15:16:10.555	WT901BLE68-01(48591DE3C19B)	-0.604	-1.205	0.207	60.669	-28.992	120.850	-69.63	-0.10	-93.28	-56.644	-49.784	-3.038	0.48615	-0.43173	0.43539	-0.62256	31.3	13111	100
2025-3-27 15:16:10.645	WT901BLE68-01(48591DE3C19B)	-0.604	-0.950	0.234	59.143	-1.099	118.530	-69.05	1.14	-92.96	-56.644	-49.784	-3.038	0.48615	-0.43173	0.43539	-0.62256	31.3	13111	100
2025-3-27 15:16:10.646	WT901BLE68-01(48591DE3C19B)	-0.655	-0.950	0.234	59.143	-1.099	118.530	-68.46	2.38	-92.63	-56.644	-49.784	-3.038	0.48615	-0.43173	0.43539	-0.62256	31.3	13111	100
2025-3-27 15:16:10.646	WT901BLE68-01(48591DE3C19B)	-0.655	-0.671	0.254	54.993	21.545	110.046	-67.92	3.63	-92.54	-56.644	-49.784	-3.038	0.48615	-0.43173	0.43539	-0.62256	31.3	13111	100
2025-3-27 15:16:10.646	WT901BLE68-01(48591DE3C19B)	-0.785	-0.671	0.254	54.993	21.545	110.046	-67.38	4.87	-92.44	-56.644	-49.784	-3.038	0.48615	-0.43173	0.43539	-0.62256	31.3	13111	100
2025-3-27 15:16:10.646	WT901BLE68-01(48591DE3C19B)	-0.785	-0.410	0.122	37.109	12.451	107.300	-66.99	6.05	-92.27	-56.644	-49.784	-3.038	0.48615	-0.43173	0.43539	-0.62256	31.3	13111	100
2025-3-27 15:16:10.647	WT901BLE68-01(48591DE3C19B)	-0.681	-0.410	0.122	37.109	12.451	107.300	-66.60	7.23	-92.10	-56.644	-49.784	-3.038	0.48615	-0.43173	0.43539	-0.62256	31.3	13111	100
2025-3-27 15:16:10.647	WT901BLE68-01(48591DE3C19B)	-0.681	-0.254	0.000	17.578	-9.705	108.765	-66.37	8.34	-91.72	-56.644	-49.784	-3.038	0.48615	-0.43173	0.43539	-0.62256	31.3	13111	100
2025-3-27 15:16:10.647	WT901BLE68-01(48591DE3C19B)	-0.475	-0.254	0.000	17.578	-9.705	108.765	-66.13	9.46	-91.35	-56.644	-49.784	-3.038	0.48615	-0.43173	0.43539	-0.62256	31.3	13111	100
2025-3-27 15:16:10.706	WT901BLE68-01(48591DE3C19B)	-0.475	-0.074	-0.041	9.521	-17.944	109.314	-65.93	10.55	-90.91	-56.644	-49.784	-3.038	0.48615	-0.43173	0.43539	-0.62256	31.3	13111	100
2025-3-27 15:16:10.706	WT901BLE68-01(48591DE3C19B)	-0.376	-0.074	-0.041	9.521	-17.944	109.314	-65.73	11.65	-90.47	-56.644	-49.784	-3.038	0.48615	-0.43173	0.43539	-0.62256	31.3	13111	100
2025-3-27 15:16:10.706	WT901BLE68-01(48591DE3C19B)	-0.376	0.196	-0.032	17.334	-24.780	116.211	-65.40	12.78	-89.95	-56.644	-49.784	-3.038	0.48615	-0.43173	0.43539	-0.62256	31.3	13111	100
2025-3-27 15:16:10.706	WT901BLE68-01(48591DE3C19B)	-0.368	0.196	-0.032	17.334	-24.780	116.211	-65.04	13.91	-89.46	-56.644	-49.784	-3.038	0.48615	-0.43173	0.43539	-0.62256	31.3	13111	100
2025-3-27 15:16:10.735	WT901BLE68-01(48591DE3C19B)	-0.368	0.397	-0.031	9.033	-42.419	130.188	-64.66	15.11	-88.79	-56.644	-49.784	-3.038	0.48615	-0.43173	0.43539	-0.62256	31.3	13111	100
2025-3-27 15:16:10.735	WT901BLE68-01(48591DE3C19B)	-0.363	0.397	-0.031	9.033	-42.419	130.188	-64.20	16.29	-88.19	-56.644	-49.784	-3.038	0.65457	-0.29428	0.45224	-0.52942	31.3	13111	100
2025-3-27 15:16:10.736	WT901BLE68-01(48591DE3C19B)	-0.363	0.502	-0.122	-29.541	-45.227	149.292	-64.01	17.61	-87.54	-56.644	-49.784	-3.038	0.65457	-0.29428	0.45224	-0.52942	31.3	13111	100
2025-3-27 15:16:10.736	WT901BLE68-01(48591DE3C19B)	-0.578	0.502	-0.122	-29.541	-45.227	149.292	-63.73	18.89	-86.92	-56.644	-49.784	-3.038	0.65457	-0.29428	0.45224	-0.52942	31.3	13111	100
2025-3-27 15:16:10.796	WT901BLE68-01(48591DE3C19B)	-0.578	0.195	-0.117	-109.192	-16.296	168.213	-64.24	20.46	-86.49	-56.644	-49.784	-3.038	0.65457	-0.29428	0.45224	-0.52942	31.3	13111	100
2025-3-27 15:16:10.796	WT901BLE68-01(48591DE3C19B)	-1.044	0.195	-0.117	-109.192	-16.296	168.213	-64.70	22.01	-86.05	-56.644	-49.784	-3.038	0.65457	-0.29428	0.45224	-0.52942	31.3	13111	100
2025-3-27 15:16:10.796	WT901BLE68-01(48591DE3C19B)	-1.044	-0.271	-0.101	-119.629	14.648	198.364	-65.30	23.97	-85.78	-56.644	-49.784	-3.038	0.65457	-0.29428	0.45224	-0.52942	31.3	13111	100
2025-3-27 15:16:10.796	WT901BLE68-01(48591DE3C19B)	-1.891	-0.271	-0.101	-119.629	14.648	198.364	-65.87	25.92	-85.51	-56.644	-49.784	-3.038	0.65457	-0.29428	0.45224	-0.52942	31.3	13111	100
2025-3-27 15:16:10.797	WT901BLE68-01(48591DE3C19B)	-1.891	-0.551	-0.069	-119.873	-1.526	245.728	-66.26	28.25	-84.86	-56.644	-49.784	-3.038	0.65457	-0.29428	0.45224	-0.52942	31.3	13111	100
2025-3-27 15:16:10.797	WT901BLE68-01(48591DE3C19B)	-3.263	-0.551	-0.069	-119.873	-1.526	245.728	-66.60	30.57	-84.20	-56.644	-49.784	-3.038	0.65457	-0.29428	0.45224	-0.52942	31.3	13111	100
2025-3-27 15:16:10.797	WT901BLE68-01(48591DE3C19B)	-3.263	-1.058	0.124	-167.664	-8.118	319.763	-67.17	33.56	-83.13	-56.644	-49.784	-3.038	0.65457	-0.29428	0.45224	-0.52942	31.3	13111	100
2025-3-27 15:16:10.798	WT901BLE68-01(48591DE3C19B)	-4.495	-1.058	0.124	-167.664	-8.118	319.763	-67.67	36.55	-82.03	-56.644	-49.784	-3.038	0.65457	-0.29428	0.45224	-0.52942	31.3	13111	100
2025-3-27 15:16:10.916	WT901BLE68-01(48591DE3C19B)	-4.495	-2.166	-0.115	-239.075	-54.016	392.639	-68.26	40.06	-80.02	-56.644	-49.784	-3.038	0.65457	-0.29428	0.45224	-0.52942	31.3	13111	100
2025-3-27 15:16:10.916	WT901BLE68-01(48591DE3C19B)	-3.526	-2.166	-0.115	-239.075	-54.016	392.639	-68.70	43.58	-77.94	-56.644	-49.784	-3.038	0.65457	-0.29428	0.45224	-0.52942	31.3	13111	100
2025-3-27 15:16:10.916	WT901BLE68-01(48591DE3C19B)	-3.526	-3.208	-0.462	-173.950	-102.173	446.167	-67.80	47.38	-74.27	-56.644	-49.784	-3.038	0.65457	-0.29428	0.45224	-0.52942	31.3	13111	100
2025-3-27 15:16:10.916	WT901BLE68-01(48591DE3C19B)	-2.098	-3.208	-0.462	-173.950	-102.173	446.167	-66.57	51.17	-70.16	-56.644	-49.784	-3.038	0.65457	-0.29428	0.45224	-0.52942	31.3	13111	100
2025-3-27 15:16:10.917	WT901BLE68-01(48591DE3C19B)	-2.098	-2.822	-0.628	-104.431	-23.376	471.802	-64.89	55.41	-66.62	-56.644	-49.784	-3.038	0.65457	-0.29428	0.45224	-0.52942	31.3	13111	100
2025-3-27 15:16:10.917	WT901BLE68-01(48591DE3C19B)	-1.536	-2.822	-0.628	-104.431	-23.376	471.802	-62.52	59.54	-62.45	-56.644	-49.784	-3.038	0.65457	-0.29428	0.45224	-0.52942	31.3	13111	100
2025-3-27 15:16:10.918	WT901BLE68-01(48591DE3C19B)	-1.536	-2.138	-0.547	-96.130	69.092	447.144	-60.95	63.78	-59.44	-56.644	-49.784	-3.038	0.65457	-0.29428	0.45224	-0.52942	31.3	13111	100
2025-3-27 15:16:10.918	WT901BLE68-01(48591DE3C19B)	-1.225	-2.138	-0.547	-96.130	69.092	447.144	-58.54	67.93	-55.64	-56.644	-49.784	-3.038	0.65457	-0.29428	0.45224	-0.52942	31.3	13111	100
2025-3-27 15:16:10.918	WT901BLE68-01(48591DE3C19B)	-1.225	-1.942	-0.323	-135.498	90.088	388.062	-56.74	71.61	-52.20	-56.644	-49.784	-3.038	0.65457	-0.29428	0.45224	-0.52942	31.3	13111	100
2025-3-27 15:16:10.918	WT901BLE68-01(48591DE3C19B)	-1.238	-1.942	-0.323	-135.498	90.088	388.062	-53.71	75.22	-47.55	-56.644	-49.784	-3.038	0.65457	-0.29428	0.45224	-0.52942	31.3	13111	100
2025-3-27 15:16:10.918	WT901BLE68-01(48591DE3C19B)	-1.050	-1.902	-0.121	-125.854	41.138	296.875	-49.39	77.70	-41.76	-56.644	-49.784	-3.038	0.65457	-0.29428	0.45224	-0.52942	31.3	13111	100
2025-3-27 15:16:10.918	WT901BLE68-01(48591DE3C19B)	-1.050	-1.544	-0.044	-119.385	-79.590	202.148	-42.40	79.26	-33.34	-56.644	-49.784	-3.038	0.65457	-0.29428	0.45224	-0.52942	31.3	13111	100
2025-3-27 15:16:10.975	WT901BLE68-01(48591DE3C19B)	-0.437	-1.544	-0.044	-119.385	-79.590	202.148	-33.55	79.79	-23.10	-56.644	-49.784	-3.038	0.65457	-0.29428	0.45224	-0.52942	31.3	13111	100
2025-3-27 15:16:10.975	WT901BLE68-01(48591DE3C19B)	-0.437	-1.192	-0.045	-115.906	-169.495	116.272	-25.16	79.44	-13.36	-73.892	-13.622	1.568	0.65457	-0.29428	0.45224	-0.52942	31.3	13111	100
2025-3-27 15:16:10.975	WT901BLE68-01(48591DE3C19B)	0.129	-1.192	-0.045	-115.906	-169.495	116.272	-18.97	78.30	-5.86	-73.892	-13.622	1.568	0.65457	-0.29428	0.45224	-0.52942	31.3	13111	100
2025-3-27 15:16:10.975	WT901BLE68-01(48591DE3C19B)	0.129	-0.860	-0.131	-130.798	-220.154	48.401	-15.33	76.70	-0.86	-73.892	-13.622	1.568	0.65457	-0.29428	0.45224	-0.52942	31.3	13111	100
2025-3-27 15:16:11.6	WT901BLE68-01(48591DE3C19B)	0.756	-0.860	-0.131	-130.798	-220.154	48.401	-13.79	74.74	2.10	-73.892	-13.622	1.568	0.65457	-0.29428	0.45224	-0.52942	31.3	13111	100
2025-3-27 15:16:11.6	WT901BLE68-01(48591DE3C19B)	0.756	-0.741	-0.305	-150.391	-215.332	4.761	-13.61	72.75	3.77	-73.892	-13.622	1.568	0.65457	-0.29428	0.45224	-0.52942	31.3	13111	100
2025-3-27 15:16:11.6	WT901BLE68-01(48591DE3C19B)	1.211	-0.741	-0.305	-150.391	-215.332	4.761	-14.40	70.75	4.54	-73.892	-13.622	1.568	0.65457	-0.29428	0.45224	-0.52942	31.3	13111	100
2025-3-27 15:16:11.7	WT901BLE68-01(48591DE3C19B)	1.211	-0.768	-0.367	-154.358	-153.442	-14.099	-15.72	69.03	4.79	-73.892	-13.622	1.568	0.65457	-0.29428	0.45224	-0.52942	31.3	13111	100
2025-3-27 15:16:11.36	WT901BLE68-01(48591DE3C19B)	1.379	-0.768	-0.367	-154.358	-153.442	-14.099	-17.49	67.60	4.60	-73.892	-13.622	1.568	0.65457	-0.29428	0.45224	-0.52942	31.3	13111	100
2025-3-27 15:16:11.36	WT901BLE68-01(48591DE3C19B)	1.379	-0.837	-0.359	-149.048	-68.420	-27.588	-19.65	66.56	3.95	-73.892	-13.622	1.568	0.65457	-0.29428	0.45224	-0.52942	31.3	13111	100
2025-3-27 15:16:11.36	WT901BLE68-01(48591DE3C19B)	1.261	-0.837	-0.359	-149.048	-68.420	-27.588	-22.23	65.88	2.83	-73.892	-13.622	1.568	0.65457	-0.29428	0.45224	-0.52942	31.3	13111	100
2025-3-27 15:16:11.36	WT901BLE68-01(48591DE3C19B)	1.261	-0.895	-0.193	-136.902	0.977	-55.969	-25.31	65.43	1.10	-73.892	-13.622	1.568	0.65457	-0.29428	0.45224	-0.52942	31.3	13111	100
2025-3-27 15:16:11.98	WT901BLE68-01(48591DE3C19B)	0.859	-0.895	-0.193	-136.902	0.977	-55.969	-28.91	65.19	-1.26	-73.892	-13.622	1.568	0.65457	-0.29428	0.45224	-0.52942	31.3	13111	100
2025-3-27 15:16:11.98	WT901BLE68-01(48591DE3C19B)	0.859	-0.976	0.043	-113.342	28.564	-95.520	-32.87	64.89	-4.16	-73.892	-13.622	1.568	0.65457	-0.29428	0.45224	-0.52942	31.3	13111	100
2025-3-27 15:16:11.98	WT901BLE68-01(48591DE3C19B)	0.561	-0.976	0.043	-113.342	28.564	-95.520	-37.14	64.50	-7.55	-73.892	-13.622	1.568	0.65457	-0.29428	0.45224	-0.52942	31.3	13111	100
2025-3-27 15:16:11.98	WT901BLE68-01(48591DE3C19B)	0.561	-1.046	0.252	-81.604	5.737	-140.686	-41.31	63.75	-11.02	-73.892	-13.622	1.568	0.65457	-0.29428	0.45224	-0.52942	31.3	13111	100
2025-3-27 15:16:11.128	WT901BLE68-01(48591DE3C19B)	0.543	-1.046	0.252	-81.604	5.737	-140.686	-45.25	62.66	-14.45	-73.892	-13.622	1.568	0.65457	-0.29428	0.45224	-0.52942	31.3	13111	100
2025-3-27 15:16:11.128	WT901BLE68-01(48591DE3C19B)	0.543	-1.092	0.338	-50.537	-15.930	-182.373	-48.82	61.24	-17.68	-73.892	-13.622	1.568	0.65457	-0.29428	0.45224	-0.52942	31.3	13111	100
2025-3-27 15:16:11.128	WT901BLE68-01(48591DE3C19B)	0.518	-1.092	0.338	-50.537	-15.930	-182.373	-51.97	59.50	-20.67	-73.892	-13.622	1.568	0.65457	-0.29428	0.45224	-0.52942	31.3	13111	100
2025-3-27 15:16:11.129	WT901BLE68-01(48591DE3C19B)	0.518	-1.155	0.319	-18.433	5.310	-218.567	-54.92	57.59	-23.66	-73.892	-13.622	1.568	0.80658	-0.30783	0.50119	0.05792	31.3	13111	100
2025-3-27 15:16:11.157	WT901BLE68-01(48591DE3C19B)	0.531	-1.155	0.319	-18.433	5.310	-218.567	-57.64	55.52	-26.66	-73.892	-13.622	1.568	0.80658	-0.30783	0.50119	0.05792	31.3	13111	100
2025-3-27 15:16:11.157	WT901BLE68-01(48591DE3C19B)	0.531	-1.203	0.197	5.127	65.979	-254.883	-60.39	53.38	-29.91	-73.892	-13.622	1.568	0.80658	-0.30783	0.50119	0.05792	31.3	13111	100
2025-3-27 15:16:11.157	WT901BLE68-01(48591DE3C19B)	0.610	-1.203	0.197	5.127	65.979	-254.883	-63.13	51.14	-33.39	-73.892	-13.622	1.568	0.80658	-0.30783	0.50119	0.05792	31.3	13111	100
2025-3-27 15:16:11.158	WT901BLE68-01(48591DE3C19B)	0.610	-1.356	0.175	29.846	175.842	-288.574	-66.05	48.89	-37.39	-73.892	-13.622	1.568	0.80658	-0.30783	0.50119	0.05792	31.3	13111	100
2025-3-27 15:16:11.215	WT901BLE68-01(48591DE3C19B)	0.159	-1.356	0.175	29.846	175.842	-288.574	-69.09	46.57	-41.87	-73.892	-13.622	1.568	0.80658	-0.30783	0.50119	0.05792	31.3	13111	100
2025-3-27 15:16:11.215	WT901BLE68-01(48591DE3C19B)	0.159	-1.755	0.081	75.745	277.588	-307.068	-72.02	44.19	-46.68	-73.892	-13.622	1.568	0.80658	-0.30783	0.50119	0.05792	31.3	13111	100
2025-3-27 15:16:11.216	WT901BLE68-01(48591DE3C19B)	-1.699	-1.755	0.081	75.745	277.588	-307.068	-74.78	41.72	-51.82	-73.892	-13.622	1.568	0.80658	-0.30783	0.50119	0.05792	31.3	13111	100
2025-3-27 15:16:11.216	WT901BLE68-01(48591DE3C19B)	-1.699	-2.775	-0.255	105.225	286.621	-285.339	-77.01	39.24	-56.61	-73.892	-13.622	1.568	0.80658	-0.30783	0.50119	0.05792	31.3	13111	100
2025-3-27 15:16:11.245	WT901BLE68-01(48591DE3C19B)	-4.026	-2.775	-0.255	105.225	286.621	-285.339	-78.76	36.82	-61.13	-73.892	-13.622	1.568	0.80658	-0.30783	0.50119	0.05792	31.3	13111	100
2025-3-27 15:16:11.245	WT901BLE68-01(48591DE3C19B)	-4.026	-3.636	-0.462	230.713	119.812	-308.899	-79.04	34.11	-64.43	-73.892	-13.622	1.568	0.80658	-0.30783	0.50119	0.05792	31.3	13111	100
2025-3-27 15:16:11.245	WT901BLE68-01(48591DE3C19B)	-3.477	-3.636	-0.462	230.713	119.812	-308.899	-77.98	31.23	-66.69	-73.892	-13.622	1.568	0.80658	-0.30783	0.50119	0.05792	31.3	13111	100
2025-3-27 15:16:11.245	WT901BLE68-01(48591DE3C19B)	-3.477	-2.325	0.030	225.647	-34.607	-283.081	-76.42	28.40	-68.03	-73.892	-13.622	1.568	0.80658	-0.30783	0.50119	0.05792	31.3	13111	100
2025-3-27 15:16:11.306	WT901BLE68-01(48591DE3C19B)	-2.263	-2.325	0.030	225.647	-34.607	-283.081	-74.45	25.60	-68.55	-73.892	-13.622	1.568	0.80658	-0.30783	0.50119	0.05792	31.3	13111	100
2025-3-27 15:16:11.306	WT901BLE68-01(48591DE3C19B)	-2.263	-2.359	0.580	148.071	92.957	-178.589	-73.09	23.53	-69.65	-73.892	-13.622	1.568	0.80658	-0.30783	0.50119	0.05792	31.3	13111	100
2025-3-27 15:16:11.306	WT901BLE68-01(48591DE3C19B)	-2.328	-2.359	0.580	148.071	92.957	-178.589	-72.30	22.18	-71.26	-73.892	-13.622	1.568	0.80658	-0.30783	0.50119	0.05792	31.3	13111	100
2025-3-27 15:16:11.306	WT901BLE68-01(48591DE3C19B)	-2.328	-1.897	0.548	157.166	219.299	-85.815	-71.60	21.50	-73.37	-73.892	-13.622	1.568	0.80658	-0.30783	0.50119	0.05792	31.3	13111	100
2025-3-27 15:16:11.335	WT901BLE68-01(48591DE3C19B)	-2.100	-1.897	0.548	157.166	219.299	-85.815	-71.03	21.49	-75.95	-73.892	-13.622	1.568	0.80658	-0.30783	0.50119	0.05792	31.3	13111	100
2025-3-27 15:16:11.335	WT901BLE68-01(48591DE3C19B)	-2.100	-1.208	0.297	141.846	184.875	-39.490	-70.43	21.67	-78.27	-73.892	-13.622	1.568	0.80658	-0.30783	0.50119	0.05792	31.3	13111	100
2025-3-27 15:16:11.335	WT901BLE68-01(48591DE3C19B)	-1.578	-1.208	0.297	141.846	184.875	-39.490	-69.84	22.04	-80.33	-73.892	-13.622	1.568	0.80658	-0.30783	0.50119	0.05792	31.3	13111	100
2025-3-27 15:16:11.335	WT901BLE68-01(48591DE3C19B)	-1.578	-0.684	-0.037	130.615	153.809	-23.987	-69.24	22.46	-82.19	-83.398	-25.676	0.980	0.80658	-0.30783	0.50119	0.05792	31.3	13111	100
2025-3-27 15:16:11.366	WT901BLE68-01(48591DE3C19B)	-1.355	-0.684	-0.037	130.615	153.809	-23.987	-68.65	22.92	-83.87	-83.398	-25.676	0.980	0.80658	-0.30783	0.50119	0.05792	31.3	13111	100
2025-3-27 15:16:11.366	WT901BLE68-01(48591DE3C19B)	-1.355	-0.296	-0.267	132.019	137.817	-17.700	-68.03	23.41	-85.45	-83.398	-25.676	0.980	0.80658	-0.30783	0.50119	0.05792	31.3	13111	100
2025-3-27 15:16:11.366	WT901BLE68-01(48591DE3C19B)	-1.186	-0.296	-0.267	132.019	137.817	-17.700	-67.39	23.91	-86.92	-83.398	-25.676	0.980	0.80658	-0.30783	0.50119	0.05792	31.3	13111	100
2025-3-27 15:16:11.366	WT901BLE68-01(48591DE3C19B)	-1.186	0.044	-0.402	116.577	113.464	-17.761	-66.80	24.38	-88.26	-83.398	-25.676	0.980	0.80658	-0.30783	0.50119	0.05792	31.3	13111	100
2025-3-27 15:16:11.426	WT901BLE68-01(48591DE3C19B)	-0.944	0.044	-0.402	116.577	113.464	-17.761	-66.25	24.83	-89.46	-83.398	-25.676	0.980	0.80658	-0.30783	0.50119	0.05792	31.3	13111	100
2025-3-27 15:16:11.426	WT901BLE68-01(48591DE3C19B)	-0.944	0.236	-0.429	115.112	92.163	-13.672	-65.65	25.25	-90.40	-83.398	-25.676	0.980	0.80658	-0.30783	0.50119	0.05792	31.3	13111	100
2025-3-27 15:16:11.426	WT901BLE68-01(48591DE3C19B)	-0.658	0.236	-0.429	115.112	92.163	-13.672	-65.09	25.68	-91.30	-83.398	-25.676	0.980	0.80658	-0.30783	0.50119	0.05792	31.3	13111	100
2025-3-27 15:16:11.426	WT901BLE68-01(48591DE3C19B)	-0.658	0.498	-0.371	108.215	77.271	-1.526	-64.53	26.16	-91.94	-83.398	-25.676	0.980	0.80658	-0.30783	0.50119	0.05792	31.3	13111	100
2025-3-27 15:16:11.455	WT901BLE68-01(48591DE3C19B)	-0.488	0.498	-0.371	108.215	77.271	-1.526	-64.04	26.61	-92.47	-83.398	-25.676	0.980	0.80658	-0.30783	0.50119	0.05792	31.3	13111	100
2025-3-27 15:16:11.455	WT901BLE68-01(48591DE3C19B)	-0.488	0.765	-0.232	80.933	66.467	13.611	-63.80	27.06	-92.67	-83.398	-25.676	0.980	0.80658	-0.30783	0.50119	0.05792	31.3	13111	100
2025-3-27 15:16:11.455	WT901BLE68-01(48591DE3C19B)	-0.319	0.765	-0.232	80.933	66.467	13.611	-63.58	27.45	-92.81	-83.398	-25.676	0.980	0.80658	-0.30783	0.50119	0.05792	31.3	13111	100
2025-3-27 15:16:11.455	WT901BLE68-01(48591DE3C19B)	-0.319	0.915	-0.214	53.040	58.899	31.311	-63.59	27.94	-92.80	-83.398	-25.676	0.980	0.80658	-0.30783	0.50119	0.05792	31.3	13111	100
2025-3-27 15:16:11.487	WT901BLE68-01(48591DE3C19B)	-0.124	0.915	-0.214	53.040	58.899	31.311	-63.26	28.48	-93.23	-83.398	-25.676	0.980	0.80658	-0.30783	0.50119	0.05792	31.3	13111	100
2025-3-27 15:16:11.488	WT901BLE68-01(48591DE3C19B)	-0.124	0.954	-0.267	27.222	71.289	41.870	-62.85	29.27	-94.14	-83.398	-25.676	0.980	0.80658	-0.30783	0.50119	0.05792	31.3	13111	100
2025-3-27 15:16:11.488	WT901BLE68-01(48591DE3C19B)	0.013	0.954	-0.267	27.222	71.289	41.870	-62.40	30.06	-95.00	-83.398	-25.676	0.980	0.80658	-0.30783	0.50119	0.05792	31.3	13111	100
2025-3-27 15:16:11.488	WT901BLE68-01(48591DE3C19B)	0.013	0.967	-0.313	7.080	94.299	45.959	-62.23	31.00	-96.04	-83.398	-25.676	0.980	0.80658	-0.30783	0.50119	0.05792	31.3	13111	100
2025-3-27 15:16:11.546	WT901BLE68-01(48591DE3C19B)	0.008	0.967	-0.313	7.080	94.299	45.959	-62.03	31.95	-97.03	-83.398	-25.676	0.980	0.80658	-0.30783	0.50119	0.05792	31.3	13111	100
2025-3-27 15:16:11.546	WT901BLE68-01(48591DE3C19B)	0.008	0.963	-0.343	-31.067	106.079	53.284	-62.24	33.02	-98.05	-83.398	-25.676	0.980	0.64767	-0.13605	0.53665	-0.52335	31.3	13111	100
2025-3-27 15:16:11.546	WT901BLE68-01(48591DE3C19B)	-0.237	0.963	-0.343	-31.067	106.079	53.284	-62.42	34.09	-99.04	-83.398	-25.676	0.980	0.64767	-0.13605	0.53665	-0.52335	31.3	13111	100
2025-3-27 15:16:11.546	WT901BLE68-01(48591DE3C19B)	-0.237	0.762	-0.359	-82.520	105.225	56.335	-63.11	35.19	-99.96	-83.398	-25.676	0.980	0.64767	-0.13605	0.53665	-0.52335	31.3	13111	100
2025-3-27 15:16:11.575	WT901BLE68-01(48591DE3C19B)	-0.760	0.762	-0.359	-82.520	105.225	56.335	-63.80	36.28	-100.89	-83.398	-25.676	0.980	0.64767	-0.13605	0.53665	-0.52335	31.3	13111	100
2025-3-27 15:16:11.575	WT901BLE68-01(48591DE3C19B)	-0.760	0.533	-0.534	-135.742	63.782	71.960	-64.73	37.33	-101.29	-83.398	-25.676	0.980	0.64767	-0.13605	0.53665	-0.52335	31.3	13111	100
2025-3-27 15:16:11.575	WT901BLE68-01(48591DE3C19B)	-1.754	0.533	-0.534	-135.742	63.782	71.960	-65.67	38.37	-101.71	-83.398	-25.676	0.980	0.64767	-0.13605	0.53665	-0.52335	31.3	13111	100
2025-3-27 15:16:11.575	WT901BLE68-01(48591DE3C19B)	-1.754	0.205	-0.818	-222.473	10.559	125.305	-66.95	39.69	-101.28	-83.398	-25.676	0.980	0.64767	-0.13605	0.53665	-0.52335	31.3	13111	100
2025-3-27 15:16:11.606	WT901BLE68-01(48591DE3C19B)	-2.743	0.205	-0.818	-222.473	10.559	125.305	-68.26	41.01	-100.90	-83.398	-25.676	0.980	0.64767	-0.13605	0.53665	-0.52335	31.3	13111	100
2025-3-27 15:16:11.606	WT901BLE68-01(48591DE3C19B)	-2.743	-0.435	-0.765	-283.325	36.316	219.910	-70.15	43.31	-100.49	-83.398	-25.676	0.980	0.64767	-0.13605	0.53665	-0.52335	31.3	13111	100
2025-3-27 15:16:11.606	WT901BLE68-01(48591DE3C19B)	-3.814	-0.435	-0.765	-283.325	36.316	219.910	-72.11	45.62	-100.20	-83.398	-25.676	0.980	0.64767	-0.13605	0.53665	-0.52335	31.3	13111	100
2025-3-27 15:16:11.606	WT901BLE68-01(48591DE3C19B)	-3.814	-0.903	-1.448	-296.753	147.217	292.908	-76.21	48.74	-100.84	-83.398	-25.676	0.980	0.64767	-0.13605	0.53665	-0.52335	31.3	13111	100
2025-3-27 15:16:11.665	WT901BLE68-01(48591DE3C19B)	-5.095	-0.903	-1.448	-296.753	147.217	292.908	-80.63	51.82	-101.89	-83.398	-25.676	0.980	0.64767	-0.13605	0.53665	-0.52335	31.3	13111	100
2025-3-27 15:16:11.666	WT901BLE68-01(48591DE3C19B)	-5.095	-1.689	-1.666	-328.003	176.941	349.121	-86.13	55.42	-103.85	-83.398	-25.676	0.980	0.64767	-0.13605	0.53665	-0.52335	31.3	13111	100
2025-3-27 15:16:11.666	WT901BLE68-01(48591DE3C19B)	-4.361	-1.689	-1.666	-328.003	176.941	349.121	-92.41	58.86	-106.69	-83.398	-25.676	0.980	0.64767	-0.13605	0.53665	-0.52335	31.3	13111	100
2025-3-27 15:16:11.666	WT901BLE68-01(48591DE3C19B)	-4.361	-2.523	-1.453	-346.375	1.709	350.281	-96.67	62.29	-106.93	-83.398	-25.676	0.980	0.64767	-0.13605	0.53665	-0.52335	31.3	13111	100
2025-3-27 15:16:11.698	WT901BLE68-01(48591DE3C19B)	-2.657	-2.523	-1.453	-346.375	1.709	350.281	-101.53	65.70	-107.87	-83.398	-25.676	0.980	0.64767	-0.13605	0.53665	-0.52335	31.3	13111	100
2025-3-27 15:16:11.698	WT901BLE68-01(48591DE3C19B)	-2.657	-2.430	-1.247	-287.659	-76.294	318.909	-104.51	68.91	-107.47	-83.398	-25.676	0.980	0.64767	-0.13605	0.53665	-0.52335	31.3	13111	100
2025-3-27 15:16:11.698	WT901BLE68-01(48591DE3C19B)	-1.612	-2.430	-1.247	-287.659	-76.294	318.909	-107.95	72.11	-107.63	-83.398	-25.676	0.980	0.64767	-0.13605	0.53665	-0.52335	31.3	13111	100
2025-3-27 15:16:11.698	WT901BLE68-01(48591DE3C19B)	-1.612	-1.608	-0.751	-258.423	-81.604	270.752	-111.06	74.84	-107.80	-83.398	-25.676	0.980	0.64767	-0.13605	0.53665	-0.52335	31.3	13111	100
2025-3-27 15:16:11.728	WT901BLE68-01(48591DE3C19B)	-1.002	-1.608	-0.751	-258.423	-81.604	270.752	-114.88	77.54	-108.76	-83.398	-25.676	0.980	0.64767	-0.13605	0.53665	-0.52335	31.3	13111	100
2025-3-27 15:16:11.728	WT901BLE68-01(48591DE3C19B)	-1.002	-1.367	-0.384	-282.959	-111.206	203.491	-117.11	79.73	-107.87	-83.398	-25.676	0.980	0.64767	-0.13605	0.53665	-0.52335	31.3	13111	100
2025-3-27 15:16:11.728	WT901BLE68-01(48591DE3C19B)	-0.612	-1.367	-0.384	-282.959	-111.206	203.491	-119.71	81.90	-107.41	-60.172	-8.330	3.038	0.64767	-0.13605	0.53665	-0.52335	31.3	13111	100
2025-3-27 15:16:11.728	WT901BLE68-01(48591DE3C19B)	-0.612	-1.218	-0.157	-253.418	-186.157	139.648	-113.79	83.83	-98.71	-60.172	-8.330	3.038	0.64767	-0.13605	0.53665	-0.52335	31.3	13111	100
2025-3-27 15:16:11.786	WT901BLE68-01(48591DE3C19B)	-0.163	-1.218	-0.157	-253.418	-186.157	139.648	-101.90	85.56	-84.08	-60.172	-8.330	3.038	0.64767	-0.13605	0.53665	-0.52335	31.3	13111	100
2025-3-27 15:16:11.786	WT901BLE68-01(48591DE3C19B)	-0.163	-0.878	-0.194	-211.975	-264.221	87.646	-67.85	86.04	-47.68	-60.172	-8.330	3.038	0.64767	-0.13605	0.53665	-0.52335	31.3	13111	100
2025-3-27 15:16:11.786	WT901BLE68-01(48591DE3C19B)	0.540	-0.878	-0.194	-211.975	-264.221	87.646	-38.37	85.02	-15.89	-60.172	-8.330	3.038	0.64767	-0.13605	0.53665	-0.52335	31.3	13111	100
2025-3-27 15:16:11.786	WT901BLE68-01(48591DE3C19B)	0.540	-0.692	-0.281	-218.933	-279.907	38.696	-25.80	82.82	-0.96	-60.172	-8.330	3.038	0.64767	-0.13605	0.53665	-0.52335	31.3	13111	100
2025-3-27 15:16:11.815	WT901BLE68-01(48591DE3C19B)	1.235	-0.692	-0.281	-218.933	-279.907	38.696	-19.98	80.44	7.21	-60.172	-8.330	3.038	0.64767	-0.13605	0.53665	-0.52335	31.3	13111	100
2025-3-27 15:16:11.815	WT901BLE68-01(48591DE3C19B)	1.235	-0.860	-0.298	-236.511	-213.135	-17.639	-20.82	78.45	8.82	-60.172	-8.330	3.038	0.64767	-0.13605	0.53665	-0.52335	31.3	13111	100
2025-3-27 15:16:11.815	WT901BLE68-01(48591DE3C19B)	1.682	-0.860	-0.298	-236.511	-213.135	-17.639	-21.91	76.49	10.18	-60.172	-8.330	3.038	0.64767	-0.13605	0.53665	-0.52335	31.3	13111	100
2025-3-27 15:16:11.815	WT901BLE68-01(48591DE3C19B)	1.682	-1.169	-0.257	-189.087	-131.653	-63.965	-25.49	75.11	8.48	-60.172	-8.330	3.038	0.64767	-0.13605	0.53665	-0.52335	31.3	13111	100
2025-3-27 15:16:11.846	WT901BLE68-01(48591DE3C19B)	1.603	-1.169	-0.257	-189.087	-131.653	-63.965	-28.78	73.71	7.07	-60.172	-8.330	3.038	0.64767	-0.13605	0.53665	-0.52335	31.3	13111	100
2025-3-27 15:16:11.846	WT901BLE68-01(48591DE3C19B)	1.603	-1.199	-0.121	-119.812	-51.270	-87.158	-33.13	72.86	3.82	-60.172	-8.330	3.038	0.64767	-0.13605	0.53665	-0.52335	31.3	13111	100
2025-3-27 15:16:11.846	WT901BLE68-01(48591DE3C19B)	1.272	-1.199	-0.121	-119.812	-51.270	-87.158	-37.21	71.92	0.85	-60.172	-8.330	3.038	0.64767	-0.13605	0.53665	-0.52335	31.3	13111	100
2025-3-27 15:16:11.846	WT901BLE68-01(48591DE3C19B)	0.984	-1.123	-0.037	-68.665	-14.893	-130.310	-42.12	70.91	-3.56	-60.172	-8.330	3.038	0.64767	-0.13605	0.53665	-0.52335	31.3	13111	100
2025-3-27 15:16:11.907	WT901BLE68-01(48591DE3C19B)	0.984	-1.239	-0.012	-32.898	6.836	-197.083	-47.21	69.60	-8.39	-60.172	-8.330	3.038	0.64767	-0.13605	0.53665	-0.52335	31.3	13111	100
2025-3-27 15:16:11.907	WT901BLE68-01(48591DE3C19B)	0.746	-1.239	-0.012	-32.898	6.836	-197.083	-52.25	67.96	-13.39	-60.172	-8.330	3.038	0.64767	-0.13605	0.53665	-0.52335	31.3	13111	100
2025-3-27 15:16:11.907	WT901BLE68-01(48591DE3C19B)	0.746	-1.363	-0.016	16.052	14.709	-258.911	-56.78	65.94	-18.17	-60.172	-8.330	3.038	0.64767	-0.13605	0.53665	-0.52335	31.3	13111	100
2025-3-27 15:16:11.907	WT901BLE68-01(48591DE3C19B)	0.543	-1.363	-0.016	16.052	14.709	-258.911	-60.70	63.54	-22.63	-60.172	-8.330	3.038	0.64767	-0.13605	0.53665	-0.52335	31.3	13111	100
2025-3-27 15:16:11.938	WT901BLE68-01(48591DE3C19B)	0.543	-1.397	0.008	54.749	21.851	-308.960	-63.97	60.82	-26.66	-60.172	-8.330	3.038	0.64767	-0.13605	0.53665	-0.52335	31.3	13111	100
2025-3-27 15:16:11.938	WT901BLE68-01(48591DE3C19B)	0.397	-1.397	0.008	54.749	21.851	-308.960	-66.62	57.80	-30.32	-60.172	-8.330	3.038	0.64767	-0.13605	0.53665	-0.52335	31.3	13111	100
2025-3-27 15:16:11.938	WT901BLE68-01(48591DE3C19B)	0.397	-1.470	0.069	78.308	42.847	-346.008	-68.83	54.59	-33.71	-60.172	-8.330	3.038	0.64767	-0.13605	0.53665	-0.52335	31.3	13111	100
2025-3-27 15:16:11.938	WT901BLE68-01(48591DE3C19B)	0.270	-1.470	0.069	78.308	42.847	-346.008	-70.64	51.17	-36.90	-60.172	-8.330	3.038	0.77686	-0.38898	0.49490	-0.01166	31.3	13111	100
2025-3-27 15:16:11.968	WT901BLE68-01(48591DE3C19B)	0.270	-1.683	0.362	91.797	90.088	-370.789	-72.26	47.69	-40.08	-60.172	-8.330	3.038	0.77686	-0.38898	0.49490	-0.01166	31.3	13111	100
2025-3-27 15:16:11.968	WT901BLE68-01(48591DE3C19B)	-0.449	-1.683	0.362	91.797	90.088	-370.789	-73.67	44.10	-43.26	-60.172	-8.330	3.038	0.77686	-0.38898	0.49490	-0.01166	31.3	13111	100
2025-3-27 15:16:11.968	WT901BLE68-01(48591DE3C19B)	-0.449	-2.436	0.520	91.431	195.984	-366.394	-75.17	40.65	-46.79	-60.172	-8.330	3.038	0.77686	-0.38898	0.49490	-0.01166	31.3	13111	100
2025-3-27 15:16:11.968	WT901BLE68-01(48591DE3C19B)	-2.264	-2.436	0.520	91.431	195.984	-366.394	-76.72	37.32	-50.65	-60.172	-8.330	3.038	0.77686	-0.38898	0.49490	-0.01166	31.3	13111	100
2025-3-27 15:16:12.26	WT901BLE68-01(48591DE3C19B)	-2.264	-4.288	-0.066	158.203	234.619	-361.572	-77.70	34.02	-54.45	-60.172	-8.330	3.038	0.77686	-0.38898	0.49490	-0.01166	31.3	13111	100
2025-3-27 15:16:12.26	WT901BLE68-01(48591DE3C19B)	-3.871	-4.288	-0.066	158.203	234.619	-361.572	-78.17	30.81	-58.25	-60.172	-8.330	3.038	0.77686	-0.38898	0.49490	-0.01166	31.3	13111	100
2025-3-27 15:16:12.26	WT901BLE68-01(48591DE3C19B)	-3.871	-3.363	-0.112	308.289	122.314	-348.206	-77.34	27.60	-61.25	-60.172	-8.330	3.038	0.77686	-0.38898	0.49490	-0.01166	31.3	13111	100
2025-3-27 15:16:12.26	WT901BLE68-01(48591DE3C19B)	-3.211	-3.363	-0.112	308.289	122.314	-348.206	-75.33	24.47	-63.63	-60.172	-8.330	3.038	0.77686	-0.38898	0.49490	-0.01166	31.3	13111	100
2025-3-27 15:16:12.55	WT901BLE68-01(48591DE3C19B)	-3.211	-2.652	0.329	206.543	111.694	-233.276	-73.67	22.00	-65.81	-60.172	-8.330	3.038	0.77686	-0.38898	0.49490	-0.01166	31.3	13111	100
2025-3-27 15:16:12.55	WT901BLE68-01(48591DE3C19B)	-2.856	-2.652	0.329	206.543	111.694	-233.276	-72.36	20.14	-67.77	-60.172	-8.330	3.038	0.77686	-0.38898	0.49490	-0.01166	31.3	13111	100
2025-3-27 15:16:12.55	WT901BLE68-01(48591DE3C19B)	-2.856	-2.150	0.191	214.233	236.328	-104.614	-71.11	19.17	-70.16	-60.172	-8.330	3.038	0.77686	-0.38898	0.49490	-0.01166	31.3	13111	100
2025-3-27 15:16:12.55	WT901BLE68-01(48591DE3C19B)	-2.699	-2.150	0.191	214.233	236.328	-104.614	-69.96	19.06	-72.95	-60.172	-8.330	3.038	0.77686	-0.38898	0.49490	-0.01166	31.3	13111	100
2025-3-27 15:16:12.86	WT901BLE68-01(48591DE3C19B)	-2.699	-1.241	-0.068	214.172	253.296	-36.194	-68.79	19.37	-75.68	-60.172	-8.330	3.038	0.77686	-0.38898	0.49490	-0.01166	31.3	13111	100
2025-3-27 15:16:12.86	WT901BLE68-01(48591DE3C19B)	-2.276	-1.241	-0.068	214.172	253.296	-36.194	-67.64	20.09	-78.35	-60.172	-8.330	3.038	0.77686	-0.38898	0.49490	-0.01166	31.3	13111	100
2025-3-27 15:16:12.86	WT901BLE68-01(48591DE3C19B)	-2.276	-0.520	-0.274	212.830	202.881	-24.719	-66.44	20.83	-80.73	-60.172	-8.330	3.038	0.77686	-0.38898	0.49490	-0.01166	31.3	13111	100
2025-3-27 15:16:12.87	WT901BLE68-01(48591DE3C19B)	-2.034	-0.520	-0.274	212.830	202.881	-24.719	-65.19	21.57	-82.83	-60.172	-8.330	3.038	0.77686	-0.38898	0.49490	-0.01166	31.3	13111	100
2025-3-27 15:16:12.146	WT901BLE68-01(48591DE3C19B)	-2.034	0.095	-0.637	210.815	134.888	-31.311	-63.86	22.19	-84.58	-60.172	-8.330	3.038	0.77686	-0.38898	0.49490	-0.01166	31.3	13111	100
2025-3-27 15:16:12.146	WT901BLE68-01(48591DE3C19B)	-1.627	0.095	-0.637	210.815	134.888	-31.311	-62.46	22.68	-86.00	-60.172	-8.330	3.038	0.77686	-0.38898	0.49490	-0.01166	31.3	13111	100
2025-3-27 15:16:12.146	WT901BLE68-01(48591DE3C19B)	-1.627	0.410	-0.782	159.607	82.092	-23.682	-61.25	23.12	-87.10	-60.172	-8.330	3.038	0.77686	-0.38898	0.49490	-0.01166	31.3	13111	100
2025-3-27 15:16:12.147	WT901BLE68-01(48591DE3C19B)	-1.065	0.410	-0.782	159.607	82.092	-23.682	-60.22	23.48	-87.89	-60.172	-8.330	3.038	0.77686	-0.38898	0.49490	-0.01166	31.3	13111	100
2025-3-27 15:16:12.175	WT901BLE68-01(48591DE3C19B)	-1.065	0.582	-0.828	119.385	57.007	11.597	-59.35	23.93	-88.37	-77.224	-31.458	-0.490	0.77686	-0.38898	0.49490	-0.01166	31.3	13111	100
2025-3-27 15:16:12.175	WT901BLE68-01(48591DE3C19B)	-0.540	0.582	-0.828	119.385	57.007	11.597	-58.65	24.42	-88.56	-77.224	-31.458	-0.490	0.77686	-0.38898	0.49490	-0.01166	31.3	13111	100
2025-3-27 15:16:12.175	WT901BLE68-01(48591DE3C19B)	-0.540	0.812	-0.769	85.938	56.091	24.536	-58.14	24.92	-88.64	-77.224	-31.458	-0.490	0.77686	-0.38898	0.49490	-0.01166	31.3	13111	100
2025-3-27 15:16:12.175	WT901BLE68-01(48591DE3C19B)	-0.216	0.812	-0.769	85.938	56.091	24.536	-57.80	25.43	-88.64	-77.224	-31.458	-0.490	0.77686	-0.38898	0.49490	-0.01166	31.3	13111	100
2025-3-27 15:16:12.235	WT901BLE68-01(48591DE3C19B)	-0.216	1.125	-0.622	31.067	66.162	31.616	-57.78	25.97	-88.66	-77.224	-31.458	-0.490	0.77686	-0.38898	0.49490	-0.01166	31.3	13111	100
2025-3-27 15:16:12.235	WT901BLE68-01(48591DE3C19B)	-0.032	1.125	-0.622	31.067	66.162	31.616	-58.07	26.54	-88.72	-77.224	-31.458	-0.490	0.77686	-0.38898	0.49490	-0.01166	31.3	13111	100
2025-3-27 15:16:12.235	WT901BLE68-01(48591DE3C19B)	-0.032	1.238	-0.576	-31.677	88.745	47.668	-58.74	27.21	-88.87	-77.224	-31.458	-0.490	0.77686	-0.38898	0.49490	-0.01166	31.3	13111	100
2025-3-27 15:16:12.236	WT901BLE68-01(48591DE3C19B)	0.081	1.238	-0.576	-31.677	88.745	47.668	-59.79	28.00	-89.13	-77.224	-31.458	-0.490	0.77686	-0.38898	0.49490	-0.01166	31.3	13111	100
2025-3-27 15:16:12.265	WT901BLE68-01(48591DE3C19B)	0.081	1.123	-0.526	-84.045	121.155	46.021	-61.23	28.85	-89.62	-77.224	-31.458	-0.490	0.77686	-0.38898	0.49490	-0.01166	31.3	13111	100
2025-3-27 15:16:12.265	WT901BLE68-01(48591DE3C19B)	-0.013	1.123	-0.526	-84.045	121.155	46.021	-63.07	29.73	-90.35	-77.224	-31.458	-0.490	0.77686	-0.38898	0.49490	-0.01166	31.3	13111	100
2025-3-27 15:16:12.265	WT901BLE68-01(48591DE3C19B)	-0.013	0.977	-0.390	-123.047	140.259	36.438	-65.24	30.59	-91.30	-77.224	-31.458	-0.490	0.77686	-0.38898	0.49490	-0.01166	31.3	13111	100
2025-3-27 15:16:12.265	WT901BLE68-01(48591DE3C19B)	-0.243	0.977	-0.390	-123.047	140.259	36.438	-67.73	31.39	-92.46	-77.224	-31.458	-0.490	0.77686	-0.38898	0.49490	-0.01166	31.3	13111	100
2025-3-27 15:16:12.295	WT901BLE68-01(48591DE3C19B)	-0.243	0.778	-0.300	-171.021	130.310	35.645	-70.50	32.11	-93.65	-77.224	-31.458	-0.490	0.77686	-0.38898	0.49490	-0.01166	31.3	13111	100
2025-3-27 15:16:12.295	WT901BLE68-01(48591DE3C19B)	-0.745	0.778	-0.300	-171.021	130.310	35.645	-73.54	32.75	-94.87	-77.224	-31.458	-0.490	0.77686	-0.38898	0.49490	-0.01166	31.3	13111	100
2025-3-27 15:16:12.295	WT901BLE68-01(48591DE3C19B)	-0.745	0.530	-0.487	-241.333	69.580	56.519	-76.76	33.35	-95.77	-77.224	-31.458	-0.490	0.77686	-0.38898	0.49490	-0.01166	31.3	13111	100
2025-3-27 15:16:12.295	WT901BLE68-01(48591DE3C19B)	-2.043	0.530	-0.487	-241.333	69.580	56.519	-80.16	33.94	-96.35	-77.224	-31.458	-0.490	0.77686	-0.38898	0.49490	-0.01166	31.3	13111	100
2025-3-27 15:16:12.325	WT901BLE68-01(48591DE3C19B)	-2.043	0.141	-0.750	-347.900	-12.573	123.657	-83.81	34.78	-96.42	-77.224	-31.458	-0.490	0.77686	-0.38898	0.49490	-0.01166	31.3	13111	100
2025-3-27 15:16:12.326	WT901BLE68-01(48591DE3C19B)	-3.656	0.141	-0.750	-347.900	-12.573	123.657	-87.70	35.92	-95.99	-77.224	-31.458	-0.490	0.77686	-0.38898	0.49490	-0.01166	31.3	13111	100
2025-3-27 15:16:12.326	WT901BLE68-01(48591DE3C19B)	-3.656	-0.802	-0.752	-366.577	40.955	274.536	-92.18	38.61	-96.28	-77.224	-31.458	-0.490	0.61411	-0.28293	0.65936	-0.32855	31.3	13111	100
2025-3-27 15:16:12.326	WT901BLE68-01(48591DE3C19B)	-3.778	-0.802	-0.752	-366.577	40.955	274.536	-96.81	41.27	-96.82	-77.224	-31.458	-0.490	0.61411	-0.28293	0.65936	-0.32855	31.3	13111	100
2025-3-27 15:16:12.384	WT901BLE68-01(48591DE3C19B)	-3.778	-1.129	-1.332	-350.342	48.523	317.017	-101.63	44.31	-97.87	-77.224	-31.458	-0.490	0.61411	-0.28293	0.65936	-0.32855	31.3	13111	100
2025-3-27 15:16:12.384	WT901BLE68-01(48591DE3C19B)	-4.562	-1.129	-1.332	-350.342	48.523	317.017	-106.77	47.26	-99.35	-77.224	-31.458	-0.490	0.61411	-0.28293	0.65936	-0.32855	31.3	13111	100
2025-3-27 15:16:12.384	WT901BLE68-01(48591DE3C19B)	-4.562	-1.663	-1.360	-366.455	80.811	363.220	-113.01	50.41	-102.07	-77.224	-31.458	-0.490	0.61411	-0.28293	0.65936	-0.32855	31.3	13111	100
2025-3-27 15:16:12.384	WT901BLE68-01(48591DE3C19B)	-3.848	-1.663	-1.360	-366.455	80.811	363.220	-119.89	53.33	-105.55	-77.224	-31.458	-0.490	0.61411	-0.28293	0.65936	-0.32855	31.3	13111	100
2025-3-27 15:16:12.414	WT901BLE68-01(48591DE3C19B)	-3.848	-2.221	-1.218	-340.515	10.925	343.933	-126.26	56.18	-108.64	-77.224	-31.458	-0.490	0.61411	-0.28293	0.65936	-0.32855	31.3	13111	100
2025-3-27 15:16:12.415	WT901BLE68-01(48591DE3C19B)	-2.284	-2.221	-1.218	-340.515	10.925	343.933	-133.35	58.78	-112.59	-77.224	-31.458	-0.490	0.61411	-0.28293	0.65936	-0.32855	31.3	13111	100
2025-3-27 15:16:12.415	WT901BLE68-01(48591DE3C19B)	-2.284	-2.202	-1.176	-293.945	-0.732	300.537	-140.07	60.87	-116.64	-77.224	-31.458	-0.490	0.61411	-0.28293	0.65936	-0.32855	31.3	13111	100
2025-3-27 15:16:12.415	WT901BLE68-01(48591DE3C19B)	-1.344	-2.202	-1.176	-293.945	-0.732	300.537	-147.46	62.67	-121.43	-77.224	-31.458	-0.490	0.61411	-0.28293	0.65936	-0.32855	31.3	13111	100
2025-3-27 15:16:12.445	WT901BLE68-01(48591DE3C19B)	-1.344	-1.561	-0.716	-212.036	6.592	233.521	-153.55	63.77	-125.67	-77.224	-31.458	-0.490	0.61411	-0.28293	0.65936	-0.32855	31.3	13111	100
2025-3-27 15:16:12.445	WT901BLE68-01(48591DE3C19B)	-0.860	-1.561	-0.716	-212.036	6.592	233.521	-159.97	64.64	-130.29	-77.224	-31.458	-0.490	0.61411	-0.28293	0.65936	-0.32855	31.3	13111	100
2025-3-27 15:16:12.445	WT901BLE68-01(48591DE3C19B)	-0.860	-0.970	-0.264	-192.566	-45.532	165.039	-164.74	65.59	-133.29	-77.224	-31.458	-0.490	0.61411	-0.28293	0.65936	-0.32855	31.3	13111	100
2025-3-27 15:16:12.445	WT901BLE68-01(48591DE3C19B)	-0.409	-0.970	-0.264	-192.566	-45.532	165.039	-169.76	66.42	-136.56	-77.224	-31.458	-0.490	0.61411	-0.28293	0.65936	-0.32855	31.3	13111	100
2025-3-27 15:16:12.506	WT901BLE68-01(48591DE3C19B)	-0.409	-0.743	-0.154	-184.448	-138.855	112.244	-173.39	67.98	-138.42	-77.224	-31.458	-0.490	0.61411	-0.28293	0.65936	-0.32855	31.3	13111	100
2025-3-27 15:16:12.506	WT901BLE68-01(48591DE3C19B)	0.100	-0.743	-0.154	-184.448	-138.855	112.244	-177.39	69.47	-140.67	-77.224	-31.458	-0.490	0.61411	-0.28293	0.65936	-0.32855	31.3	13111	100
2025-3-27 15:16:12.506	WT901BLE68-01(48591DE3C19B)	0.100	-0.507	-0.173	-172.363	-202.393	55.115	179.98	71.52	-141.60	-77.224	-31.458	-0.490	0.61411	-0.28293	0.65936	-0.32855	31.3	13111	100
2025-3-27 15:16:12.506	WT901BLE68-01(48591DE3C19B)	0.691	-0.507	-0.173	-172.363	-202.393	55.115	176.96	73.53	-142.93	-77.224	-31.458	-0.490	0.61411	-0.28293	0.65936	-0.32855	31.3	13111	100
2025-3-27 15:16:12.536	WT901BLE68-01(48591DE3C19B)	0.691	-0.517	-0.257	-195.068	-199.707	-0.732	175.33	75.50	-142.60	-77.224	-31.458	-0.490	0.61411	-0.28293	0.65936	-0.32855	31.3	13111	100
2025-3-27 15:16:12.536	WT901BLE68-01(48591DE3C19B)	1.276	-0.517	-0.257	-195.068	-199.707	-0.732	173.58	77.46	-142.40	-77.224	-31.458	-0.490	0.61411	-0.28293	0.65936	-0.32855	31.3	13111	100
2025-3-27 15:16:12.536	WT901BLE68-01(48591DE3C19B)	1.276	-0.854	-0.211	-207.825	-172.485	-60.181	174.84	79.18	-139.03	-77.224	-31.458	-0.490	0.61411	-0.28293	0.65936	-0.32855	31.3	13111	100
2025-3-27 15:16:12.536	WT901BLE68-01(48591DE3C19B)	1.667	-0.854	-0.211	-207.825	-172.485	-60.181	177.16	80.85	-134.62	-57.330	-0.098	13.426	0.61411	-0.28293	0.65936	-0.32855	31.3	13111	100
2025-3-27 15:16:12.567	WT901BLE68-01(48591DE3C19B)	1.667	-1.137	-0.131	-140.930	-110.901	-107.056	-174.97	81.78	-125.32	-57.330	-0.098	13.426	0.61411	-0.28293	0.65936	-0.32855	31.3	13111	100
2025-3-27 15:16:12.567	WT901BLE68-01(48591DE3C19B)	1.544	-1.137	-0.131	-140.930	-110.901	-107.056	-164.97	82.44	-113.88	-57.330	-0.098	13.426	0.61411	-0.28293	0.65936	-0.32855	31.3	13111	100
2025-3-27 15:16:12.567	WT901BLE68-01(48591DE3C19B)	1.544	-0.966	0.039	-52.673	-25.940	-122.498	-154.22	81.92	-102.59	-57.330	-0.098	13.426	0.61411	-0.28293	0.65936	-0.32855	31.3	13111	100
2025-3-27 15:16:12.567	WT901BLE68-01(48591DE3C19B)	1.099	-0.966	0.039	-52.673	-25.940	-122.498	-144.96	81.12	-92.80	-57.330	-0.098	13.426	0.61411	-0.28293	0.65936	-0.32855	31.3	13111	100
2025-3-27 15:16:12.626	WT901BLE68-01(48591DE3C19B)	1.099	-1.051	0.109	-32.776	23.376	-173.584	-136.99	79.38	-84.48	-57.330	-0.098	13.426	0.61411	-0.28293	0.65936	-0.32855	31.3	13111	100
2025-3-27 15:16:12.626	WT901BLE68-01(48591DE3C19B)	0.822	-1.051	0.109	-32.776	23.376	-173.584	-131.34	77.49	-78.47	-57.330	-0.098	13.426	0.61411	-0.28293	0.65936	-0.32855	31.3	13111	100
2025-3-27 15:16:12.626	WT901BLE68-01(48591DE3C19B)	0.822	-1.375	0.120	2.747	20.996	-229.126	-125.55	75.06	-72.64	-57.330	-0.098	13.426	0.61411	-0.28293	0.65936	-0.32855	31.3	13111	100
2025-3-27 15:16:12.626	WT901BLE68-01(48591DE3C19B)	0.592	-1.375	0.120	2.747	20.996	-229.126	-121.37	72.53	-68.44	-57.330	-0.098	13.426	0.61411	-0.28293	0.65936	-0.32855	31.3	13111	100
2025-3-27 15:16:12.655	WT901BLE68-01(48591DE3C19B)	0.592	-1.526	0.086	61.279	13.000	-269.226	-117.01	69.63	-64.58	-57.330	-0.098	13.426	0.61411	-0.28293	0.65936	-0.32855	31.3	13111	100
2025-3-27 15:16:12.655	WT901BLE68-01(48591DE3C19B)	0.329	-1.526	0.086	61.279	13.000	-269.226	-113.67	66.65	-61.75	-57.330	-0.098	13.426	0.61411	-0.28293	0.65936	-0.32855	31.3	13111	100
2025-3-27 15:16:12.655	WT901BLE68-01(48591DE3C19B)	0.329	-1.575	0.061	104.858	10.925	-311.523	-110.26	63.25	-59.27	-57.330	-0.098	13.426	0.61411	-0.28293	0.65936	-0.32855	31.3	13111	100
2025-3-27 15:16:12.655	WT901BLE68-01(48591DE3C19B)	0.179	-1.575	0.061	104.858	10.925	-311.523	-107.52	59.82	-57.45	-57.330	-0.098	13.426	0.61411	-0.28293	0.65936	-0.32855	31.3	13111	100
2025-3-27 15:16:12.716	WT901BLE68-01(48591DE3C19B)	0.179	-1.702	-0.015	134.399	29.541	-346.497	-105.08	55.99	-56.27	-57.330	-0.098	13.426	0.61411	-0.28293	0.65936	-0.32855	31.3	13111	100
2025-3-27 15:16:12.716	WT901BLE68-01(48591DE3C19B)	-0.093	-1.702	-0.015	134.399	29.541	-346.497	-102.99	52.16	-55.47	-57.330	-0.098	13.426	0.61411	-0.28293	0.65936	-0.32855	31.3	13111	100
2025-3-27 15:16:12.716	WT901BLE68-01(48591DE3C19B)	-0.093	-1.923	0.036	173.279	90.698	-357.788	-101.44	48.10	-55.82	-57.330	-0.098	13.426	0.61411	-0.28293	0.65936	-0.32855	31.3	13111	100
2025-3-27 15:16:12.716	WT901BLE68-01(48591DE3C19B)	-1.209	-1.923	0.036	173.279	90.698	-357.788	-99.97	44.09	-56.29	-57.330	-0.098	13.426	0.61411	-0.28293	0.65936	-0.32855	31.3	13111	100
2025-3-27 15:16:12.745	WT901BLE68-01(48591DE3C19B)	-1.209	-2.528	-0.293	195.618	180.298	-350.708	-99.11	40.05	-58.05	-57.330	-0.098	13.426	0.61411	-0.28293	0.65936	-0.32855	31.3	13111	100
2025-3-27 15:16:12.745	WT901BLE68-01(48591DE3C19B)	-3.291	-2.528	-0.293	195.618	180.298	-350.708	-98.16	36.08	-59.77	-57.330	-0.098	13.426	0.61411	-0.28293	0.65936	-0.32855	31.3	13111	100
2025-3-27 15:16:12.745	WT901BLE68-01(48591DE3C19B)	-3.291	-3.801	-0.530	263.550	186.035	-366.638	-96.47	32.05	-61.56	-57.330	-0.098	13.426	0.61411	-0.28293	0.65936	-0.32855	31.3	13111	100
2025-3-27 15:16:12.745	WT901BLE68-01(48591DE3C19B)	-4.207	-3.801	-0.530	263.550	186.035	-366.638	-94.71	28.14	-63.40	-57.330	-0.098	13.426	0.65363	-0.51791	0.50943	-0.21191	31.3	13111	100
2025-3-27 15:16:12.775	WT901BLE68-01(48591DE3C19B)	-4.207	-3.254	-0.161	289.490	135.437	-311.890	-92.41	24.92	-64.79	-57.330	-0.098	13.426	0.65363	-0.51791	0.50943	-0.21191	31.3	13111	100
2025-3-27 15:16:12.775	WT901BLE68-01(48591DE3C19B)	-3.824	-3.254	-0.161	289.490	135.437	-311.890	-90.09	21.81	-66.28	-57.330	-0.098	13.426	0.65363	-0.51791	0.50943	-0.21191	31.3	13111	100
2025-3-27 15:16:12.776	WT901BLE68-01(48591DE3C19B)	-3.328	-3.143	0.217	236.267	224.304	-153.992	-88.62	20.36	-68.76	-57.330	-0.098	13.426	0.65363	-0.51791	0.50943	-0.21191	31.3	13111	100
2025-3-27 15:16:12.776	WT901BLE68-01(48591DE3C19B)	-3.328	-1.987	-0.271	246.155	250.977	-47.852	-87.09	19.54	-71.38	-57.330	-0.098	13.426	0.65363	-0.51791	0.50943	-0.21191	31.3	13111	100
2025-3-27 15:16:12.836	WT901BLE68-01(48591DE3C19B)	-2.387	-1.987	-0.271	246.155	250.977	-47.852	-85.56	19.34	-74.10	-57.330	-0.098	13.426	0.65363	-0.51791	0.50943	-0.21191	31.3	13111	100
2025-3-27 15:16:12.836	WT901BLE68-01(48591DE3C19B)	-2.387	-1.016	-0.688	229.919	199.646	-1.160	-84.02	19.43	-76.51	-57.330	-0.098	13.426	0.65363	-0.51791	0.50943	-0.21191	31.3	13111	100
2025-3-27 15:16:12.836	WT901BLE68-01(48591DE3C19B)	-1.808	-1.016	-0.688	229.919	199.646	-1.160	-82.49	19.79	-78.61	-57.330	-0.098	13.426	0.65363	-0.51791	0.50943	-0.21191	31.3	13111	100
2025-3-27 15:16:12.836	WT901BLE68-01(48591DE3C19B)	-1.808	-0.195	-0.864	250.000	161.743	-10.376	-80.83	20.14	-80.49	-57.330	-0.098	13.426	0.65363	-0.51791	0.50943	-0.21191	31.3	13111	100
2025-3-27 15:16:12.896	WT901BLE68-01(48591DE3C19B)	-1.491	-0.195	-0.864	250.000	161.743	-10.376	-79.05	20.47	-82.14	-57.330	-0.098	13.426	0.65363	-0.51791	0.50943	-0.21191	31.3	13111	100
2025-3-27 15:16:12.896	WT901BLE68-01(48591DE3C19B)	-1.491	0.382	-0.897	277.100	127.747	-33.447	-77.11	20.70	-83.61	-57.330	-0.098	13.426	0.65363	-0.51791	0.50943	-0.21191	31.3	13111	100
2025-3-27 15:16:12.896	WT901BLE68-01(48591DE3C19B)	-1.088	0.382	-0.897	277.100	127.747	-33.447	-75.02	20.84	-84.87	-57.330	-0.098	13.426	0.65363	-0.51791	0.50943	-0.21191	31.3	13111	100
2025-3-27 15:16:12.896	WT901BLE68-01(48591DE3C19B)	-1.088	0.925	-0.720	178.955	81.360	1.587	-73.37	21.11	-85.80	-57.330	-0.098	13.426	0.65363	-0.51791	0.50943	-0.21191	31.3	13111	100
2025-3-27 15:16:12.925	WT901BLE68-01(48591DE3C19B)	-0.652	0.925	-0.720	178.955	81.360	1.587	-72.15	21.48	-86.36	-57.330	-0.098	13.426	0.65363	-0.51791	0.50943	-0.21191	31.3	13111	100
2025-3-27 15:16:12.926	WT901BLE68-01(48591DE3C19B)	-0.652	1.009	-0.606	73.547	27.954	32.166	-71.38	21.91	-86.56	-57.330	-0.098	13.426	0.65363	-0.51791	0.50943	-0.21191	31.3	13111	100
2025-3-27 15:16:12.926	WT901BLE68-01(48591DE3C19B)	-0.413	1.009	-0.606	73.547	27.954	32.166	-71.04	22.36	-86.38	-57.330	-0.098	13.426	0.65363	-0.51791	0.50943	-0.21191	31.3	13111	100
2025-3-27 15:16:12.926	WT901BLE68-01(48591DE3C19B)	-0.413	1.022	-0.626	61.523	-11.658	28.503	-70.72	22.71	-86.00	-57.330	-0.098	13.426	0.65363	-0.51791	0.50943	-0.21191	31.3	13111	100
2025-3-27 15:16:12.985	WT901BLE68-01(48591DE3C19B)	-0.169	1.022	-0.626	61.523	-11.658	28.503	-70.41	22.96	-85.42	-57.330	-0.098	13.426	0.65363	-0.51791	0.50943	-0.21191	31.3	13111	100
2025-3-27 15:16:12.985	WT901BLE68-01(48591DE3C19B)	-0.169	1.256	-0.694	47.485	-19.714	38.940	-70.18	23.22	-84.79	-57.330	-0.098	13.426	0.65363	-0.51791	0.50943	-0.21191	31.3	13111	100
2025-3-27 15:16:12.985	WT901BLE68-01(48591DE3C19B)	0.109	1.256	-0.694	47.485	-19.714	38.940	-70.02	23.51	-84.12	-57.330	-0.098	13.426	0.65363	-0.51791	0.50943	-0.21191	31.3	13111	100
2025-3-27 15:16:12.986	WT901BLE68-01(48591DE3C19B)	0.109	1.321	-0.683	-14.771	1.953	36.072	-70.24	23.81	-83.60	-57.330	-0.098	13.426	0.65363	-0.51791	0.50943	-0.21191	31.3	13111	100
2025-3-27 15:16:12.986	WT901BLE68-01(48591DE3C19B)	0.235	1.321	-0.683	-14.771	1.953	36.072	-70.86	24.13	-83.23	-66.640	-36.162	4.018	0.65363	-0.51791	0.50943	-0.21191	31.3	13111	100
2025-3-27 15:16:12.986	WT901BLE68-01(48591DE3C19B)	0.235	1.217	-0.490	-66.040	21.301	34.912	-71.81	24.47	-83.02	-66.640	-36.162	4.018	0.65363	-0.51791	0.50943	-0.21191	31.3	13111	100
2025-3-27 15:16:12.986	WT901BLE68-01(48591DE3C19B)	0.007	1.217	-0.490	-66.040	21.301	34.912	-73.10	24.83	-82.95	-66.640	-36.162	4.018	0.65363	-0.51791	0.50943	-0.21191	31.3	13111	100
2025-3-27 15:16:12.986	WT901BLE68-01(48591DE3C19B)	0.007	0.978	-0.334	-115.601	29.724	33.447	-74.67	25.20	-82.99	-66.640	-36.162	4.018	0.65363	-0.51791	0.50943	-0.21191	31.3	13111	100
2025-3-27 15:16:13.15	WT901BLE68-01(48591DE3C19B)	-0.409	0.978	-0.334	-115.601	29.724	33.447	-76.55	25.56	-83.11	-66.640	-36.162	4.018	0.65363	-0.51791	0.50943	-0.21191	31.3	13111	100
2025-3-27 15:16:13.15	WT901BLE68-01(48591DE3C19B)	-0.409	0.758	-0.305	-163.452	6.226	39.185	-78.62	25.92	-83.13	-66.640	-36.162	4.018	0.65363	-0.51791	0.50943	-0.21191	31.3	13111	100
2025-3-27 15:16:13.15	WT901BLE68-01(48591DE3C19B)	-1.045	0.758	-0.305	-163.452	6.226	39.185	-80.88	26.28	-83.05	-66.640	-36.162	4.018	0.65363	-0.51791	0.50943	-0.21191	31.3	13111	100
2025-3-27 15:16:13.15	WT901BLE68-01(48591DE3C19B)	-1.045	0.502	-0.642	-246.033	-75.378	72.266	-83.35	26.77	-82.51	-66.640	-36.162	4.018	0.65363	-0.51791	0.50943	-0.21191	31.3	13111	100
2025-3-27 15:16:13.76	WT901BLE68-01(48591DE3C19B)	-2.590	0.502	-0.642	-246.033	-75.378	72.266	-86.02	27.40	-81.51	-66.640	-36.162	4.018	0.65363	-0.51791	0.50943	-0.21191	31.3	13111	100
2025-3-27 15:16:13.76	WT901BLE68-01(48591DE3C19B)	-2.590	-0.238	-0.383	-345.886	-50.720	213.806	-89.21	28.80	-80.63	-66.640	-36.162	4.018	0.65363	-0.51791	0.50943	-0.21191	31.3	13111	100
2025-3-27 15:16:13.76	WT901BLE68-01(48591DE3C19B)	-3.914	-0.238	-0.383	-345.886	-50.720	213.806	-92.96	30.96	-79.94	-66.640	-36.162	4.018	0.65363	-0.51791	0.50943	-0.21191	31.3	13111	100
2025-3-27 15:16:13.77	WT901BLE68-01(48591DE3C19B)	-3.914	-1.123	-0.811	-301.392	14.404	285.767	-96.72	33.49	-79.78	-66.640	-36.162	4.018	0.65363	-0.51791	0.50943	-0.21191	31.3	13111	100
2025-3-27 15:16:13.107	WT901BLE68-01(48591DE3C19B)	-4.421	-1.123	-0.811	-301.392	14.404	285.767	-100.56	36.34	-80.24	-66.640	-36.162	4.018	0.65363	-0.51791	0.50943	-0.21191	31.3	13111	100
2025-3-27 15:16:13.107	WT901BLE68-01(48591DE3C19B)	-4.421	-1.419	-1.272	-280.151	99.060	324.219	-104.81	39.25	-81.52	-66.640	-36.162	4.018	0.65363	-0.51791	0.50943	-0.21191	31.3	13111	100
2025-3-27 15:16:13.107	WT901BLE68-01(48591DE3C19B)	-5.316	-1.419	-1.272	-280.151	99.060	324.219	-109.58	42.12	-83.76	-66.640	-36.162	4.018	0.65363	-0.51791	0.50943	-0.21191	31.3	13111	100
2025-3-27 15:16:13.107	WT901BLE68-01(48591DE3C19B)	-5.316	-2.300	-1.232	-304.260	31.006	371.277	-114.59	45.18	-86.13	-66.640	-36.162	4.018	0.65363	-0.51791	0.50943	-0.21191	31.3	13111	100
2025-3-27 15:16:13.138	WT901BLE68-01(48591DE3C19B)	-3.410	-2.300	-1.232	-304.260	31.006	371.277	-119.95	48.41	-88.74	-66.640	-36.162	4.018	0.65363	-0.51791	0.50943	-0.21191	31.3	13111	100
2025-3-27 15:16:13.138	WT901BLE68-01(48591DE3C19B)	-3.410	-2.956	-1.274	-273.071	-46.387	341.614	-125.20	51.53	-91.35	-66.640	-36.162	4.018	0.65363	-0.51791	0.50943	-0.21191	31.3	13111	100
2025-3-27 15:16:13.138	WT901BLE68-01(48591DE3C19B)	-1.950	-2.956	-1.274	-273.071	-46.387	341.614	-130.31	54.58	-93.97	-66.640	-36.162	4.018	0.55527	-0.40579	0.72528	0.02939	31.3	13111	100
2025-3-27 15:16:13.138	WT901BLE68-01(48591DE3C19B)	-1.950	-2.036	-0.802	-165.833	-1.404	309.021	-135.54	57.17	-97.36	-66.640	-36.162	4.018	0.55527	-0.40579	0.72528	0.02939	31.3	13111	100
2025-3-27 15:16:13.196	WT901BLE68-01(48591DE3C19B)	-1.171	-2.036	-0.802	-165.833	-1.404	309.021	-140.86	59.27	-101.46	-66.640	-36.162	4.018	0.55527	-0.40579	0.72528	0.02939	31.3	13111	100
2025-3-27 15:16:13.196	WT901BLE68-01(48591DE3C19B)	-1.171	-1.317	-0.217	-190.002	-19.531	255.920	-146.38	61.06	-105.63	-66.640	-36.162	4.018	0.55527	-0.40579	0.72528	0.02939	31.3	13111	100
2025-3-27 15:16:13.196	WT901BLE68-01(48591DE3C19B)	-0.563	-1.317	-0.217	-190.002	-19.531	255.920	-152.03	62.56	-109.76	-66.640	-36.162	4.018	0.55527	-0.40579	0.72528	0.02939	31.3	13111	100
2025-3-27 15:16:13.196	WT901BLE68-01(48591DE3C19B)	-0.563	-1.200	-0.168	-187.378	-135.925	193.359	-157.07	64.24	-113.23	-66.640	-36.162	4.018	0.55527	-0.40579	0.72528	0.02939	31.3	13111	100
2025-3-27 15:16:13.225	WT901BLE68-01(48591DE3C19B)	0.187	-1.200	-0.168	-187.378	-135.925	193.359	-161.53	66.21	-116.03	-66.640	-36.162	4.018	0.55527	-0.40579	0.72528	0.02939	31.3	13111	100
2025-3-27 15:16:13.225	WT901BLE68-01(48591DE3C19B)	0.187	-0.928	-0.150	-178.406	-226.135	131.836	-165.48	68.41	-118.32	-66.640	-36.162	4.018	0.55527	-0.40579	0.72528	0.02939	31.3	13111	100
2025-3-27 15:16:13.225	WT901BLE68-01(48591DE3C19B)	0.878	-0.928	-0.150	-178.406	-226.135	131.836	-168.89	70.88	-120.09	-66.640	-36.162	4.018	0.55527	-0.40579	0.72528	0.02939	31.3	13111	100
2025-3-27 15:16:13.225	WT901BLE68-01(48591DE3C19B)	0.878	-0.850	-0.094	-203.064	-205.933	79.163	-172.29	73.16	-121.71	-66.640	-36.162	4.018	0.55527	-0.40579	0.72528	0.02939	31.3	13111	100
2025-3-27 15:16:13.255	WT901BLE68-01(48591DE3C19B)	1.426	-0.850	-0.094	-203.064	-205.933	79.163	-175.55	75.23	-123.06	-66.640	-36.162	4.018	0.55527	-0.40579	0.72528	0.02939	31.3	13111	100
2025-3-27 15:16:13.256	WT901BLE68-01(48591DE3C19B)	1.426	-1.146	-0.137	-237.122	-162.903	14.221	-178.19	77.04	-123.63	-66.640	-36.162	4.018	0.55527	-0.40579	0.72528	0.02939	31.3	13111	100
2025-3-27 15:16:13.256	WT901BLE68-01(48591DE3C19B)	1.764	-1.146	-0.137	-237.122	-162.903	14.221	-179.76	78.57	-122.94	-66.640	-36.162	4.018	0.55527	-0.40579	0.72528	0.02939	31.3	13111	100
2025-3-27 15:16:13.256	WT901BLE68-01(48591DE3C19B)	1.764	-1.226	-0.010	-148.987	-110.535	-54.138	-176.63	79.52	-118.38	-66.640	-36.162	4.018	0.55527	-0.40579	0.72528	0.02939	31.3	13111	100
2025-3-27 15:16:13.316	WT901BLE68-01(48591DE3C19B)	1.655	-1.226	-0.010	-148.987	-110.535	-54.138	-172.54	80.38	-112.88	-66.640	-36.162	4.018	0.55527	-0.40579	0.72528	0.02939	31.3	13111	100
2025-3-27 15:16:13.316	WT901BLE68-01(48591DE3C19B)	1.655	-0.871	0.096	-95.337	-49.011	-97.961	-165.18	80.41	-104.61	-66.640	-36.162	4.018	0.55527	-0.40579	0.72528	0.02939	31.3	13111	100
2025-3-27 15:16:13.316	WT901BLE68-01(48591DE3C19B)	1.325	-0.871	0.096	-95.337	-49.011	-97.961	-157.79	80.24	-96.31	-66.640	-36.162	4.018	0.55527	-0.40579	0.72528	0.02939	31.3	13111	100
2025-3-27 15:16:13.316	WT901BLE68-01(48591DE3C19B)	1.325	-1.026	0.023	-89.294	5.615	-168.152	-148.94	79.04	-86.58	-66.640	-36.162	4.018	0.55527	-0.40579	0.72528	0.02939	31.3	13111	100
2025-3-27 15:16:13.346	WT901BLE68-01(48591DE3C19B)	1.133	-1.026	0.023	-89.294	5.615	-168.152	-142.04	77.60	-78.79	-66.640	-36.162	4.018	0.55527	-0.40579	0.72528	0.02939	31.3	13111	100
2025-3-27 15:16:13.346	WT901BLE68-01(48591DE3C19B)	1.133	-1.372	-0.079	-43.701	42.358	-234.985	-135.46	75.26	-71.73	-66.640	-36.162	4.018	0.55527	-0.40579	0.72528	0.02939	31.3	13111	100
2025-3-27 15:16:13.346	WT901BLE68-01(48591DE3C19B)	0.845	-1.372	-0.079	-43.701	42.358	-234.985	-130.80	72.76	-66.58	-66.640	-36.162	4.018	0.55527	-0.40579	0.72528	0.02939	31.3	13111	100
2025-3-27 15:16:13.346	WT901BLE68-01(48591DE3C19B)	0.845	-1.446	-0.101	33.386	61.829	-277.344	-126.43	69.71	-62.47	-69.090	-4.018	17.542	0.55527	-0.40579	0.72528	0.02939	31.3	13111	100
2025-3-27 15:16:13.375	WT901BLE68-01(48591DE3C19B)	0.438	-1.446	-0.101	33.386	61.829	-277.344	-123.17	66.59	-59.47	-69.090	-4.018	17.542	0.55527	-0.40579	0.72528	0.02939	31.3	13111	100
2025-3-27 15:16:13.375	WT901BLE68-01(48591DE3C19B)	0.438	-1.357	-0.128	89.722	65.430	-306.030	-119.90	63.16	-57.00	-69.090	-4.018	17.542	0.55527	-0.40579	0.72528	0.02939	31.3	13111	100
2025-3-27 15:16:13.375	WT901BLE68-01(48591DE3C19B)	0.146	-1.357	-0.128	89.722	65.430	-306.030	-117.28	59.70	-55.19	-69.090	-4.018	17.542	0.55527	-0.40579	0.72528	0.02939	31.3	13111	100
2025-3-27 15:16:13.375	WT901BLE68-01(48591DE3C19B)	0.146	-1.359	-0.114	113.831	60.974	-343.384	-114.58	55.90	-53.50	-69.090	-4.018	17.542	0.55527	-0.40579	0.72528	0.02939	31.3	13111	100
2025-3-27 15:16:13.436	WT901BLE68-01(48591DE3C19B)	-0.191	-1.359	-0.114	113.831	60.974	-343.384	-112.31	52.10	-52.25	-69.090	-4.018	17.542	0.55527	-0.40579	0.72528	0.02939	31.3	13111	100
2025-3-27 15:16:13.436	WT901BLE68-01(48591DE3C19B)	-0.191	-1.541	0.139	129.089	98.816	-353.088	-110.57	48.07	-51.81	-69.090	-4.018	17.542	0.55527	-0.40579	0.72528	0.02939	31.3	13111	100
2025-3-27 15:16:13.436	WT901BLE68-01(48591DE3C19B)	-2.305	-1.541	0.139	129.089	98.816	-353.088	-108.99	44.06	-51.57	-69.090	-4.018	17.542	0.55527	-0.40579	0.72528	0.02939	31.3	13111	100
2025-3-27 15:16:13.436	WT901BLE68-01(48591DE3C19B)	-2.305	-2.666	-0.172	133.240	214.905	-305.847	-108.58	40.19	-53.13	-69.090	-4.018	17.542	0.55527	-0.40579	0.72528	0.02939	31.3	13111	100
2025-3-27 15:16:13.465	WT901BLE68-01(48591DE3C19B)	-4.372	-2.666	-0.172	133.240	214.905	-305.847	-108.06	36.41	-54.65	-69.090	-4.018	17.542	0.55527	-0.40579	0.72528	0.02939	31.3	13111	100
2025-3-27 15:16:13.465	WT901BLE68-01(48591DE3C19B)	-4.372	-3.782	-0.454	242.371	115.479	-360.962	-105.62	32.50	-54.85	-69.090	-4.018	17.542	0.55527	-0.40579	0.72528	0.02939	31.3	13111	100
2025-3-27 15:16:13.465	WT901BLE68-01(48591DE3C19B)	-3.957	-3.782	-0.454	242.371	115.479	-360.962	-103.28	28.67	-55.23	-69.090	-4.018	17.542	0.55527	-0.40579	0.72528	0.02939	31.3	13111	100
2025-3-27 15:16:13.465	WT901BLE68-01(48591DE3C19B)	-3.957	-2.771	0.067	220.825	132.019	-248.047	-101.41	25.98	-56.21	-69.090	-4.018	17.542	0.55527	-0.40579	0.72528	0.02939	31.3	13111	100
2025-3-27 15:16:13.555	WT901BLE68-01(48591DE3C19B)	-3.756	-2.771	0.067	220.825	132.019	-248.047	-99.55	23.36	-57.26	-69.090	-4.018	17.542	0.55527	-0.40579	0.72528	0.02939	31.3	13111	100
2025-3-27 15:16:13.556	WT901BLE68-01(48591DE3C19B)	-3.756	-2.579	0.077	201.294	304.810	-83.984	-98.69	22.13	-60.47	-69.090	-4.018	17.542	0.55527	-0.40579	0.72528	0.02939	31.3	13111	100
2025-3-27 15:16:13.556	WT901BLE68-01(48591DE3C19B)	-3.142	-2.579	0.077	201.294	304.810	-83.984	-97.78	20.97	-63.67	-69.090	-4.018	17.542	0.55527	-0.40579	0.72528	0.02939	31.3	13111	100
2025-3-27 15:16:13.556	WT901BLE68-01(48591DE3C19B)	-3.142	-1.498	-0.127	225.098	293.579	-2.747	-96.60	20.71	-66.83	-69.090	-4.018	17.542	0.55527	-0.40579	0.72528	0.02939	31.3	13111	100
2025-3-27 15:16:13.556	WT901BLE68-01(48591DE3C19B)	-1.958	-1.498	-0.127	225.098	293.579	-2.747	-95.42	20.52	-69.98	-69.090	-4.018	17.542	0.55527	-0.40579	0.72528	0.02939	31.3	13111	100
2025-3-27 15:16:13.556	WT901BLE68-01(48591DE3C19B)	-1.958	-0.574	-0.269	236.328	218.811	15.808	-93.87	20.67	-72.33	-69.090	-4.018	17.542	0.55527	-0.40579	0.72528	0.02939	31.3	13111	100
2025-3-27 15:16:13.556	WT901BLE68-01(48591DE3C19B)	-1.354	-0.574	-0.269	236.328	218.811	15.808	-92.35	20.87	-74.67	-69.090	-4.018	17.542	0.55527	-0.40579	0.72528	0.02939	31.3	13111	100
2025-3-27 15:16:13.557	WT901BLE68-01(48591DE3C19B)	-1.354	0.159	-0.511	248.535	175.110	7.446	-90.57	21.08	-76.50	-69.090	-4.018	17.542	0.55527	-0.40579	0.72528	0.02939	31.3	13111	100
2025-3-27 15:16:13.585	WT901BLE68-01(48591DE3C19B)	-1.086	0.159	-0.511	248.535	175.110	7.446	-88.82	21.35	-78.29	-69.090	-4.018	17.542	0.55527	-0.40579	0.72528	0.02939	31.3	13111	100
2025-3-27 15:16:13.585	WT901BLE68-01(48591DE3C19B)	-1.086	0.626	-0.568	223.633	149.536	2.136	-87.28	21.60	-79.76	-69.090	-4.018	17.542	0.55527	-0.40579	0.72528	0.02939	31.3	13111	100
2025-3-27 15:16:13.585	WT901BLE68-01(48591DE3C19B)	-0.773	0.626	-0.568	223.633	149.536	2.136	-85.79	21.90	-81.16	-69.090	-4.018	17.542	0.55527	-0.40579	0.72528	0.02939	31.3	13111	100
2025-3-27 15:16:13.585	WT901BLE68-01(48591DE3C19B)	-0.773	0.893	-0.488	124.756	107.849	18.982	-85.17	22.33	-82.02	-69.090	-4.018	17.542	0.63101	-0.40735	0.54321	-0.37506	31.3	13111	100
2025-3-27 15:16:13.614	WT901BLE68-01(48591DE3C19B)	-0.536	0.893	-0.488	124.756	107.849	18.982	-84.61	22.75	-82.83	-69.090	-4.018	17.542	0.63101	-0.40735	0.54321	-0.37506	31.3	13111	100
2025-3-27 15:16:13.615	WT901BLE68-01(48591DE3C19B)	-0.536	0.755	-0.382	65.796	52.795	16.907	-84.45	23.08	-83.01	-69.090	-4.018	17.542	0.63101	-0.40735	0.54321	-0.37506	31.3	13111	100
2025-3-27 15:16:13.615	WT901BLE68-01(48591DE3C19B)	-0.366	0.755	-0.382	65.796	52.795	16.907	-84.33	23.39	-83.18	-69.090	-4.018	17.542	0.63101	-0.40735	0.54321	-0.37506	31.3	13111	100
2025-3-27 15:16:13.615	WT901BLE68-01(48591DE3C19B)	-0.366	0.774	-0.430	74.707	13.855	20.081	-83.97	23.68	-82.92	-69.090	-4.018	17.542	0.63101	-0.40735	0.54321	-0.37506	31.3	13111	100
2025-3-27 15:16:13.705	WT901BLE68-01(48591DE3C19B)	-0.111	0.774	-0.430	74.707	13.855	20.081	-83.64	23.95	-82.67	-69.090	-4.018	17.542	0.63101	-0.40735	0.54321	-0.37506	31.3	13111	100
2025-3-27 15:16:13.705	WT901BLE68-01(48591DE3C19B)	-0.111	0.997	-0.544	86.243	6.042	28.687	-83.18	24.29	-82.34	-69.090	-4.018	17.542	0.63101	-0.40735	0.54321	-0.37506	31.3	13111	100
2025-3-27 15:16:13.705	WT901BLE68-01(48591DE3C19B)	0.158	0.997	-0.544	86.243	6.042	28.687	-82.77	24.61	-82.03	-69.090	-4.018	17.542	0.63101	-0.40735	0.54321	-0.37506	31.3	13111	100
2025-3-27 15:16:13.705	WT901BLE68-01(48591DE3C19B)	0.158	1.315	-0.604	38.147	17.639	41.626	-82.91	25.07	-81.88	-69.090	-4.018	17.542	0.63101	-0.40735	0.54321	-0.37506	31.3	13111	100
2025-3-27 15:16:13.706	WT901BLE68-01(48591DE3C19B)	0.341	1.315	-0.604	38.147	17.639	41.626	-83.10	25.52	-81.78	-69.090	-4.018	17.542	0.63101	-0.40735	0.54321	-0.37506	31.3	13111	100
2025-3-27 15:16:13.706	WT901BLE68-01(48591DE3C19B)	0.341	1.291	-0.542	-45.044	22.339	43.701	-84.18	25.98	-81.78	-69.090	-4.018	17.542	0.63101	-0.40735	0.54321	-0.37506	31.3	13111	100
2025-3-27 15:16:13.706	WT901BLE68-01(48591DE3C19B)	0.180	1.291	-0.542	-45.044	22.339	43.701	-85.31	26.43	-81.84	-69.090	-4.018	17.542	0.63101	-0.40735	0.54321	-0.37506	31.3	13111	100
2025-3-27 15:16:13.706	WT901BLE68-01(48591DE3C19B)	-0.252	0.885	-0.407	-108.337	18.738	38.208	-87.08	26.81	-81.93	-69.090	-4.018	17.542	0.63101	-0.40735	0.54321	-0.37506	31.3	13111	100
2025-3-27 15:16:13.736	WT901BLE68-01(48591DE3C19B)	-0.252	0.682	-0.424	-145.630	10.193	46.326	-89.05	27.22	-82.01	-69.090	-4.018	17.542	0.63101	-0.40735	0.54321	-0.37506	31.3	13111	100
2025-3-27 15:16:13.736	WT901BLE68-01(48591DE3C19B)	-0.823	0.682	-0.424	-145.630	10.193	46.326	-91.19	27.66	-82.08	-69.090	-4.018	17.542	0.63101	-0.40735	0.54321	-0.37506	31.3	13111	100
2025-3-27 15:16:13.736	WT901BLE68-01(48591DE3C19B)	-0.823	0.566	-0.919	-210.815	-43.152	88.379	-93.53	28.32	-81.89	-69.090	-4.018	17.542	0.63101	-0.40735	0.54321	-0.37506	31.3	13111	100
2025-3-27 15:16:13.737	WT901BLE68-01(48591DE3C19B)	-1.965	0.566	-0.919	-210.815	-43.152	88.379	-96.05	29.21	-81.44	-69.090	-4.018	17.542	0.63101	-0.40735	0.54321	-0.37506	31.3	13111	100
2025-3-27 15:16:13.795	WT901BLE68-01(48591DE3C19B)	-1.965	0.268	-1.165	-339.111	23.865	184.265	-99.45	30.55	-81.49	-69.090	-4.018	17.542	0.63101	-0.40735	0.54321	-0.37506	31.3	13111	100
2025-3-27 15:16:13.795	WT901BLE68-01(48591DE3C19B)	-4.148	0.268	-1.165	-339.111	23.865	184.265	-103.78	32.29	-82.11	-60.172	-31.850	5.978	0.63101	-0.40735	0.54321	-0.37506	31.3	13111	100
2025-3-27 15:16:13.795	WT901BLE68-01(48591DE3C19B)	-4.148	-0.337	-1.442	-308.899	211.182	266.846	-108.69	34.11	-84.08	-60.172	-31.850	5.978	0.63101	-0.40735	0.54321	-0.37506	31.3	13111	100
2025-3-27 15:16:13.795	WT901BLE68-01(48591DE3C19B)	-5.169	-0.337	-1.442	-308.899	211.182	266.846	-114.29	35.83	-87.50	-60.172	-31.850	5.978	0.63101	-0.40735	0.54321	-0.37506	31.3	13111	100
2025-3-27 15:16:13.826	WT901BLE68-01(48591DE3C19B)	-5.169	-0.660	-1.937	-353.149	142.822	271.790	-120.08	37.45	-90.77	-60.172	-31.850	5.978	0.63101	-0.40735	0.54321	-0.37506	31.3	13111	100
2025-3-27 15:16:13.826	WT901BLE68-01(48591DE3C19B)	-4.815	-0.660	-1.937	-353.149	142.822	271.790	-126.07	38.99	-93.94	-60.172	-31.850	5.978	0.63101	-0.40735	0.54321	-0.37506	31.3	13111	100
2025-3-27 15:16:13.826	WT901BLE68-01(48591DE3C19B)	-4.815	-2.095	-1.668	-400.818	-13.733	330.811	-132.14	40.98	-96.82	-60.172	-31.850	5.978	0.63101	-0.40735	0.54321	-0.37506	31.3	13111	100
2025-3-27 15:16:13.826	WT901BLE68-01(48591DE3C19B)	-3.161	-2.095	-1.668	-400.818	-13.733	330.811	-138.43	43.47	-99.58	-60.172	-31.850	5.978	0.63101	-0.40735	0.54321	-0.37506	31.3	13111	100
2025-3-27 15:16:13.855	WT901BLE68-01(48591DE3C19B)	-3.161	-2.669	-1.369	-293.823	-68.054	279.907	-144.17	45.77	-102.29	-60.172	-31.850	5.978	0.63101	-0.40735	0.54321	-0.37506	31.3	13111	100
2025-3-27 15:16:13.855	WT901BLE68-01(48591DE3C19B)	-1.941	-2.669	-1.369	-293.823	-68.054	279.907	-149.32	47.96	-104.86	-60.172	-31.850	5.978	0.63101	-0.40735	0.54321	-0.37506	31.3	13111	100
2025-3-27 15:16:13.855	WT901BLE68-01(48591DE3C19B)	-1.941	-1.690	-0.618	-188.843	-82.214	239.685	-153.98	49.93	-107.51	-60.172	-31.850	5.978	0.63101	-0.40735	0.54321	-0.37506	31.3	13111	100
2025-3-27 15:16:13.855	WT901BLE68-01(48591DE3C19B)	-1.052	-1.690	-0.618	-188.843	-82.214	239.685	-158.15	51.73	-110.14	-60.172	-31.850	5.978	0.63101	-0.40735	0.54321	-0.37506	31.3	13111	100
2025-3-27 15:16:13.916	WT901BLE68-01(48591DE3C19B)	-1.052	-1.049	-0.129	-211.487	-143.555	201.965	-162.32	53.62	-112.62	-60.172	-31.850	5.978	0.63101	-0.40735	0.54321	-0.37506	31.3	13111	100
2025-3-27 15:16:13.916	WT901BLE68-01(48591DE3C19B)	-0.170	-1.049	-0.129	-211.487	-143.555	201.965	-166.53	55.62	-114.99	-60.172	-31.850	5.978	0.63101	-0.40735	0.54321	-0.37506	31.3	13111	100
2025-3-27 15:16:13.916	WT901BLE68-01(48591DE3C19B)	-0.170	-1.014	-0.210	-217.041	-203.125	131.470	-170.47	57.73	-117.00	-60.172	-31.850	5.978	0.63101	-0.40735	0.54321	-0.37506	31.3	13111	100
2025-3-27 15:16:13.916	WT901BLE68-01(48591DE3C19B)	0.558	-1.014	-0.210	-217.041	-203.125	131.470	-174.14	59.99	-118.65	-60.172	-31.850	5.978	0.63101	-0.40735	0.54321	-0.37506	31.3	13111	100
2025-3-27 15:16:13.945	WT901BLE68-01(48591DE3C19B)	0.558	-0.800	-0.232	-188.782	-195.496	73.242	-177.47	62.11	-120.08	-60.172	-31.850	5.978	0.63101	-0.40735	0.54321	-0.37506	31.3	13111	100
2025-3-27 15:16:13.945	WT901BLE68-01(48591DE3C19B)	1.233	-0.800	-0.232	-188.782	-195.496	73.242	179.62	64.11	-121.21	-60.172	-31.850	5.978	0.63101	-0.40735	0.54321	-0.37506	31.3	13111	100
2025-3-27 15:16:13.945	WT901BLE68-01(48591DE3C19B)	1.233	-0.851	-0.214	-238.098	-166.504	-26.550	177.34	65.93	-121.41	-60.172	-31.850	5.978	0.63101	-0.40735	0.54321	-0.37506	31.3	13111	100
2025-3-27 15:16:13.945	WT901BLE68-01(48591DE3C19B)	1.824	-0.851	-0.214	-238.098	-166.504	-26.550	175.91	67.59	-120.46	-60.172	-31.850	5.978	0.46780	-0.42953	0.71097	0.30173	31.3	13111	100
2025-3-27 15:16:13.974	WT901BLE68-01(48591DE3C19B)	1.824	-1.285	-0.266	-223.633	-111.145	-191.528	176.81	69.01	-117.14	-60.172	-31.850	5.978	0.46780	-0.42953	0.71097	0.30173	31.3	13111	100
2025-3-27 15:16:13.975	WT901BLE68-01(48591DE3C19B)	2.187	-1.285	-0.266	-223.633	-111.145	-191.528	-179.54	70.05	-111.02	-60.172	-31.850	5.978	0.46780	-0.42953	0.71097	0.30173	31.3	13111	100
2025-3-27 15:16:13.975	WT901BLE68-01(48591DE3C19B)	2.187	-1.162	0.027	-88.501	-95.215	-164.429	-175.04	70.83	-104.78	-60.172	-31.850	5.978	0.46780	-0.42953	0.71097	0.30173	31.3	13111	100
2025-3-27 15:16:13.975	WT901BLE68-01(48591DE3C19B)	1.404	-1.162	0.027	-88.501	-95.215	-164.429	-169.80	71.30	-98.51	-60.172	-31.850	5.978	0.46780	-0.42953	0.71097	0.30173	31.3	13111	100
2025-3-27 15:16:14.35	WT901BLE68-01(48591DE3C19B)	1.404	-0.823	0.111	-93.323	-14.404	-187.927	-164.30	71.11	-91.94	-60.172	-31.850	5.978	0.46780	-0.42953	0.71097	0.30173	31.3	13111	100
2025-3-27 15:16:14.35	WT901BLE68-01(48591DE3C19B)	1.190	-0.823	0.111	-93.323	-14.404	-187.927	-159.08	70.28	-85.63	-60.172	-31.850	5.978	0.46780	-0.42953	0.71097	0.30173	31.3	13111	100
2025-3-27 15:16:14.35	WT901BLE68-01(48591DE3C19B)	1.190	-1.273	-0.031	-94.116	-12.146	-277.527	-153.33	69.04	-78.70	-60.172	-31.850	5.978	0.46780	-0.42953	0.71097	0.30173	31.3	13111	100
2025-3-27 15:16:14.35	WT901BLE68-01(48591DE3C19B)	1.124	-1.273	-0.031	-94.116	-12.146	-277.527	-147.45	67.32	-71.56	-60.172	-31.850	5.978	0.46780	-0.42953	0.71097	0.30173	31.3	13111	100
2025-3-27 15:16:14.95	WT901BLE68-01(48591DE3C19B)	1.124	-1.641	-0.052	-32.471	7.568	-324.036	-141.99	65.14	-65.11	-60.172	-31.850	5.978	0.46780	-0.42953	0.71097	0.30173	31.3	13111	100
2025-3-27 15:16:14.95	WT901BLE68-01(48591DE3C19B)	0.721	-1.641	-0.052	-32.471	7.568	-324.036	-137.05	62.50	-59.46	-60.172	-31.850	5.978	0.46780	-0.42953	0.71097	0.30173	31.3	13111	100
2025-3-27 15:16:14.95	WT901BLE68-01(48591DE3C19B)	0.721	-1.594	0.003	29.602	41.016	-343.018	-132.88	59.49	-54.88	-60.172	-31.850	5.978	0.46780	-0.42953	0.71097	0.30173	31.3	13111	100
2025-3-27 15:16:14.96	WT901BLE68-01(48591DE3C19B)	0.359	-1.594	0.003	29.602	41.016	-343.018	-129.33	56.16	-51.23	-60.172	-31.850	5.978	0.46780	-0.42953	0.71097	0.30173	31.3	13111	100
2025-3-27 15:16:14.127	WT901BLE68-01(48591DE3C19B)	0.359	-1.666	-0.071	61.584	69.885	-380.798	-126.28	52.51	-48.25	-60.172	-31.850	5.978	0.46780	-0.42953	0.71097	0.30173	31.3	13111	100
2025-3-27 15:16:14.127	WT901BLE68-01(48591DE3C19B)	-0.101	-1.666	-0.071	61.584	69.885	-380.798	-123.63	48.55	-45.84	-60.172	-31.850	5.978	0.46780	-0.42953	0.71097	0.30173	31.3	13111	100
2025-3-27 15:16:14.127	WT901BLE68-01(48591DE3C19B)	-0.101	-1.963	-0.060	98.938	70.435	-377.686	-121.25	44.58	-43.89	-60.172	-31.850	5.978	0.46780	-0.42953	0.71097	0.30173	31.3	13111	100
2025-3-27 15:16:14.127	WT901BLE68-01(48591DE3C19B)	-1.664	-1.963	-0.060	98.938	70.435	-377.686	-119.04	40.59	-42.32	-60.172	-31.850	5.978	0.46780	-0.42953	0.71097	0.30173	31.3	13111	100
2025-3-27 15:16:14.157	WT901BLE68-01(48591DE3C19B)	-1.664	-2.789	-0.167	121.033	82.214	-323.975	-117.12	36.81	-41.26	-60.172	-31.850	5.978	0.46780	-0.42953	0.71097	0.30173	31.3	13111	100
2025-3-27 15:16:14.157	WT901BLE68-01(48591DE3C19B)	-3.798	-2.789	-0.167	121.033	82.214	-323.975	-115.38	33.28	-40.63	-60.172	-31.850	5.978	0.46780	-0.42953	0.71097	0.30173	31.3	13111	100
2025-3-27 15:16:14.157	WT901BLE68-01(48591DE3C19B)	-3.798	-4.186	-0.165	177.856	106.384	-374.512	-113.47	29.51	-40.17	-60.172	-31.850	5.978	0.46780	-0.42953	0.71097	0.30173	31.3	13111	100
2025-3-27 15:16:14.157	WT901BLE68-01(48591DE3C19B)	-3.736	-4.186	-0.165	177.856	106.384	-374.512	-111.38	25.53	-39.89	-73.206	-11.074	10.780	0.46780	-0.42953	0.71097	0.30173	31.3	13111	100
2025-3-27 15:16:14.187	WT901BLE68-01(48591DE3C19B)	-3.736	-2.952	0.375	191.589	114.746	-293.396	-109.40	21.96	-39.98	-73.206	-11.074	10.780	0.46780	-0.42953	0.71097	0.30173	31.3	13111	100
2025-3-27 15:16:14.188	WT901BLE68-01(48591DE3C19B)	-3.412	-2.952	0.375	191.589	114.746	-293.396	-107.44	18.81	-40.39	-73.206	-11.074	10.780	0.46780	-0.42953	0.71097	0.30173	31.3	13111	100
2025-3-27 15:16:14.188	WT901BLE68-01(48591DE3C19B)	-3.412	-3.222	0.329	158.447	278.870	-117.493	-106.50	16.91	-43.06	-73.206	-11.074	10.780	0.46780	-0.42953	0.71097	0.30173	31.3	13111	100
2025-3-27 15:16:14.188	WT901BLE68-01(48591DE3C19B)	-3.184	-3.222	0.329	158.447	278.870	-117.493	-105.47	15.07	-45.72	-73.206	-11.074	10.780	0.46780	-0.42953	0.71097	0.30173	31.3	13111	100
2025-3-27 15:16:14.274	WT901BLE68-01(48591DE3C19B)	-3.184	-2.011	-0.083	210.693	354.004	-3.540	-104.14	14.22	-49.44	-73.206	-11.074	10.780	0.46780	-0.42953	0.71097	0.30173	31.3	13111	100
2025-3-27 15:16:14.275	WT901BLE68-01(48591DE3C19B)	-2.260	-2.011	-0.083	210.693	354.004	-3.540	-102.78	13.48	-53.15	-73.206	-11.074	10.780	0.46780	-0.42953	0.71097	0.30173	31.3	13111	100
2025-3-27 15:16:14.275	WT901BLE68-01(48591DE3C19B)	-2.260	-0.908	-0.415	225.647	308.411	43.457	-101.17	13.40	-56.50	-73.206	-11.074	10.780	0.46780	-0.42953	0.71097	0.30173	31.3	13111	100
2025-3-27 15:16:14.275	WT901BLE68-01(48591DE3C19B)	-1.543	-0.908	-0.415	225.647	308.411	43.457	-99.58	13.44	-59.83	-73.206	-11.074	10.780	0.46780	-0.42953	0.71097	0.30173	31.3	13111	100
2025-3-27 15:16:14.305	WT901BLE68-01(48591DE3C19B)	-1.543	-0.113	-0.520	268.555	283.997	30.701	-97.52	13.49	-62.86	-73.206	-11.074	10.780	0.46780	-0.42953	0.71097	0.30173	31.3	13111	100
2025-3-27 15:16:14.305	WT901BLE68-01(48591DE3C19B)	-1.296	-0.113	-0.520	268.555	283.997	30.701	-95.50	13.67	-65.86	-73.206	-11.074	10.780	0.46780	-0.42953	0.71097	0.30173	31.3	13111	100
2025-3-27 15:16:14.305	WT901BLE68-01(48591DE3C19B)	-1.296	0.534	-0.478	255.066	231.873	10.010	-93.52	13.79	-68.27	-73.206	-11.074	10.780	0.46780	-0.42953	0.71097	0.30173	31.3	13111	100
2025-3-27 15:16:14.305	WT901BLE68-01(48591DE3C19B)	-1.053	0.534	-0.478	255.066	231.873	10.010	-91.59	14.01	-70.63	-73.206	-11.074	10.780	0.46780	-0.42953	0.71097	0.30173	31.3	13111	100
2025-3-27 15:16:14.306	WT901BLE68-01(48591DE3C19B)	-1.053	1.014	-0.386	171.204	152.405	55.664	-90.36	14.78	-72.09	-73.206	-11.074	10.780	0.46780	-0.42953	0.71097	0.30173	31.3	13111	100
2025-3-27 15:16:14.306	WT901BLE68-01(48591DE3C19B)	-0.521	1.014	-0.386	171.204	152.405	55.664	-89.22	15.55	-73.45	-73.206	-11.074	10.780	0.46780	-0.42953	0.71097	0.30173	31.3	13111	100
2025-3-27 15:16:14.306	WT901BLE68-01(48591DE3C19B)	-0.521	0.943	-0.367	65.735	84.412	69.580	-89.03	16.45	-74.00	-73.206	-11.074	10.780	0.46780	-0.42953	0.71097	0.30173	31.3	13111	100
2025-3-27 15:16:14.306	WT901BLE68-01(48591DE3C19B)	-0.230	0.943	-0.367	65.735	84.412	69.580	-88.90	17.31	-74.49	-73.206	-11.074	10.780	0.46780	-0.42953	0.71097	0.30173	31.3	13111	100
2025-3-27 15:16:14.365	WT901BLE68-01(48591DE3C19B)	-0.230	0.844	-0.391	61.707	59.570	59.448	-88.78	18.04	-74.72	-73.206	-11.074	10.780	0.46780	-0.42953	0.71097	0.30173	31.3	13111	100
2025-3-27 15:16:14.365	WT901BLE68-01(48591DE3C19B)	-0.078	0.844	-0.391	61.707	59.570	59.448	-88.69	18.75	-74.94	-73.206	-11.074	10.780	0.46780	-0.42953	0.71097	0.30173	31.3	13111	100
2025-3-27 15:16:14.366	WT901BLE68-01(48591DE3C19B)	-0.078	1.014	-0.509	77.637	47.974	62.195	-88.44	19.48	-75.05	-73.206	-11.074	10.780	0.46780	-0.42953	0.71097	0.30173	31.3	13111	100
2025-3-27 15:16:14.366	WT901BLE68-01(48591DE3C19B)	0.130	1.014	-0.509	77.637	47.974	62.195	-88.23	20.19	-75.19	-73.206	-11.074	10.780	0.46780	-0.42953	0.71097	0.30173	31.3	13111	100
2025-3-27 15:16:14.397	WT901BLE68-01(48591DE3C19B)	0.130	1.240	-0.603	30.090	43.152	49.927	-88.53	20.76	-75.32	-73.206	-11.074	10.780	0.63431	-0.46387	0.52359	-0.32895	31.3	13111	100
2025-3-27 15:16:14.398	WT901BLE68-01(48591DE3C19B)	0.283	1.240	-0.603	30.090	43.152	49.927	-88.87	21.32	-75.50	-73.206	-11.074	10.780	0.63431	-0.46387	0.52359	-0.32895	31.3	13111	100
2025-3-27 15:16:14.398	WT901BLE68-01(48591DE3C19B)	0.283	1.193	-0.539	-40.344	50.659	43.335	-89.99	21.80	-75.82	-73.206	-11.074	10.780	0.63431	-0.46387	0.52359	-0.32895	31.3	13111	100
2025-3-27 15:16:14.398	WT901BLE68-01(48591DE3C19B)	0.154	1.193	-0.539	-40.344	50.659	43.335	-91.16	22.25	-76.20	-73.206	-11.074	10.780	0.63431	-0.46387	0.52359	-0.32895	31.3	13111	100
2025-3-27 15:16:14.426	WT901BLE68-01(48591DE3C19B)	0.154	0.932	-0.378	-100.159	46.265	37.964	-92.94	22.63	-76.58	-73.206	-11.074	10.780	0.63431	-0.46387	0.52359	-0.32895	31.3	13111	100
2025-3-27 15:16:14.426	WT901BLE68-01(48591DE3C19B)	-0.177	0.932	-0.378	-100.159	46.265	37.964	-94.75	22.99	-77.01	-73.206	-11.074	10.780	0.63431	-0.46387	0.52359	-0.32895	31.3	13111	100
2025-3-27 15:16:14.426	WT901BLE68-01(48591DE3C19B)	-0.177	0.718	-0.260	-143.921	19.104	43.884	-96.89	23.41	-77.20	-73.206	-11.074	10.780	0.63431	-0.46387	0.52359	-0.32895	31.3	13111	100
2025-3-27 15:16:14.426	WT901BLE68-01(48591DE3C19B)	-0.678	0.718	-0.260	-143.921	19.104	43.884	-99.06	23.82	-77.42	-73.206	-11.074	10.780	0.63431	-0.46387	0.52359	-0.32895	31.3	13111	100
2025-3-27 15:16:14.485	WT901BLE68-01(48591DE3C19B)	-0.678	0.570	-0.646	-215.576	-77.087	77.637	-101.55	24.73	-76.68	-73.206	-11.074	10.780	0.63431	-0.46387	0.52359	-0.32895	31.3	13111	100
2025-3-27 15:16:14.486	WT901BLE68-01(48591DE3C19B)	-1.957	0.570	-0.646	-215.576	-77.087	77.637	-104.03	25.66	-75.99	-73.206	-11.074	10.780	0.63431	-0.46387	0.52359	-0.32895	31.3	13111	100
2025-3-27 15:16:14.486	WT901BLE68-01(48591DE3C19B)	-1.957	0.247	-1.004	-353.027	-56.641	178.223	-108.09	27.55	-75.84	-73.206	-11.074	10.780	0.63431	-0.46387	0.52359	-0.32895	31.3	13111	100
2025-3-27 15:16:14.486	WT901BLE68-01(48591DE3C19B)	-3.771	0.247	-1.004	-353.027	-56.641	178.223	-112.19	29.45	-75.83	-73.206	-11.074	10.780	0.63431	-0.46387	0.52359	-0.32895	31.3	13111	100
2025-3-27 15:16:14.515	WT901BLE68-01(48591DE3C19B)	-3.771	-0.799	-1.045	-327.209	171.387	258.911	-117.47	31.12	-78.72	-73.206	-11.074	10.780	0.63431	-0.46387	0.52359	-0.32895	31.3	13111	100
2025-3-27 15:16:14.515	WT901BLE68-01(48591DE3C19B)	-4.808	-0.799	-1.045	-327.209	171.387	258.911	-122.85	32.57	-81.78	-73.206	-11.074	10.780	0.63431	-0.46387	0.52359	-0.32895	31.3	13111	100
2025-3-27 15:16:14.515	WT901BLE68-01(48591DE3C19B)	-4.808	-0.608	-1.805	-277.588	203.125	281.494	-128.12	33.77	-85.46	-73.206	-11.074	10.780	0.63431	-0.46387	0.52359	-0.32895	31.3	13111	100
2025-3-27 15:16:14.515	WT901BLE68-01(48591DE3C19B)	-5.576	-0.608	-1.805	-277.588	203.125	281.494	-133.49	34.66	-89.27	-73.206	-11.074	10.780	0.63431	-0.46387	0.52359	-0.32895	31.3	13111	100
2025-3-27 15:16:14.547	WT901BLE68-01(48591DE3C19B)	-5.576	-1.525	-1.486	-367.188	54.321	331.177	-139.41	36.65	-92.41	-73.206	-11.074	10.780	0.63431	-0.46387	0.52359	-0.32895	31.3	13111	100
2025-3-27 15:16:14.548	WT901BLE68-01(48591DE3C19B)	-3.632	-1.525	-1.486	-367.188	54.321	331.177	-145.55	38.36	-95.84	-73.206	-11.074	10.780	0.63431	-0.46387	0.52359	-0.32895	31.3	13111	100
2025-3-27 15:16:14.548	WT901BLE68-01(48591DE3C19B)	-3.632	-2.445	-1.428	-366.943	-64.514	315.491	-151.31	40.69	-98.61	-73.206	-11.074	10.780	0.63431	-0.46387	0.52359	-0.32895	31.3	13111	100
2025-3-27 15:16:14.548	WT901BLE68-01(48591DE3C19B)	-2.117	-2.445	-1.428	-366.943	-64.514	315.491	-157.35	42.77	-101.76	-73.206	-11.074	10.780	0.63431	-0.46387	0.52359	-0.32895	31.3	13111	100
2025-3-27 15:16:14.606	WT901BLE68-01(48591DE3C19B)	-2.117	-2.304	-1.028	-221.252	-73.547	251.343	-161.58	44.47	-104.39	-73.206	-11.074	10.780	0.63431	-0.46387	0.52359	-0.32895	31.3	13111	100
2025-3-27 15:16:14.606	WT901BLE68-01(48591DE3C19B)	-1.273	-2.304	-1.028	-221.252	-73.547	251.343	-165.98	46.02	-107.26	-53.704	-17.836	7.056	0.63431	-0.46387	0.52359	-0.32895	31.3	13111	100
2025-3-27 15:16:14.606	WT901BLE68-01(48591DE3C19B)	-1.273	-1.255	-0.334	-176.819	-103.394	207.031	-169.59	47.59	-109.64	-53.704	-17.836	7.056	0.63431	-0.46387	0.52359	-0.32895	31.3	13111	100
2025-3-27 15:16:14.606	WT901BLE68-01(48591DE3C19B)	-0.626	-1.255	-0.334	-176.819	-103.394	207.031	-173.36	49.05	-112.23	-53.704	-17.836	7.056	0.63431	-0.46387	0.52359	-0.32895	31.3	13111	100
2025-3-27 15:16:14.635	WT901BLE68-01(48591DE3C19B)	-0.626	-0.994	-0.140	-188.904	-197.021	145.142	-176.62	51.26	-113.96	-53.704	-17.836	7.056	0.63431	-0.46387	0.52359	-0.32895	31.3	13111	100
2025-3-27 15:16:14.635	WT901BLE68-01(48591DE3C19B)	0.120	-0.994	-0.140	-188.904	-197.021	145.142	179.89	53.38	-115.98	-53.704	-17.836	7.056	0.63431	-0.46387	0.52359	-0.32895	31.3	13111	100
2025-3-27 15:16:14.635	WT901BLE68-01(48591DE3C19B)	0.747	-0.758	-0.165	-170.898	-261.353	81.116	177.20	56.06	-117.23	-53.704	-17.836	7.056	0.63431	-0.46387	0.52359	-0.32895	31.3	13111	100
2025-3-27 15:16:14.635	WT901BLE68-01(48591DE3C19B)	0.747	-0.528	-0.260	-173.584	-237.000	23.682	174.71	58.59	-118.23	-53.704	-17.836	7.056	0.63431	-0.46387	0.52359	-0.32895	31.3	13111	100
2025-3-27 15:16:14.666	WT901BLE68-01(48591DE3C19B)	1.486	-0.528	-0.260	-173.584	-237.000	23.682	172.50	60.97	-118.89	-53.704	-17.836	7.056	0.63431	-0.46387	0.52359	-0.32895	31.3	13111	100
2025-3-27 15:16:14.666	WT901BLE68-01(48591DE3C19B)	1.486	-0.710	-0.428	-234.802	-201.294	-81.543	170.88	63.21	-118.58	-53.704	-17.836	7.056	0.63431	-0.46387	0.52359	-0.32895	31.3	13111	100
2025-3-27 15:16:14.666	WT901BLE68-01(48591DE3C19B)	2.146	-0.710	-0.428	-234.802	-201.294	-81.543	170.07	65.31	-117.04	-53.704	-17.836	7.056	0.63431	-0.46387	0.52359	-0.32895	31.3	13111	100
2025-3-27 15:16:14.666	WT901BLE68-01(48591DE3C19B)	2.146	-1.137	-0.380	-176.819	-126.648	-186.279	171.10	67.09	-113.87	-53.704	-17.836	7.056	0.63431	-0.46387	0.52359	-0.32895	31.3	13111	100
2025-3-27 15:16:14.727	WT901BLE68-01(48591DE3C19B)	1.913	-1.137	-0.380	-176.819	-126.648	-186.279	174.30	68.45	-108.74	-53.704	-17.836	7.056	0.63431	-0.46387	0.52359	-0.32895	31.3	13111	100
2025-3-27 15:16:14.727	WT901BLE68-01(48591DE3C19B)	1.913	-1.096	-0.033	-79.651	-71.411	-116.699	177.70	69.34	-103.95	-53.704	-17.836	7.056	0.63431	-0.46387	0.52359	-0.32895	31.3	13111	100
2025-3-27 15:16:14.727	WT901BLE68-01(48591DE3C19B)	1.214	-1.096	-0.033	-79.651	-71.411	-116.699	-178.93	69.80	-99.76	-53.704	-17.836	7.056	0.63431	-0.46387	0.52359	-0.32895	31.3	13111	100
2025-3-27 15:16:14.727	WT901BLE68-01(48591DE3C19B)	1.214	-1.014	-0.013	-69.397	-15.442	-184.204	-174.46	69.82	-94.43	-53.704	-17.836	7.056	0.63431	-0.46387	0.52359	-0.32895	31.3	13111	100
2025-3-27 15:16:14.755	WT901BLE68-01(48591DE3C19B)	1.183	-1.014	-0.013	-69.397	-15.442	-184.204	-169.19	69.35	-88.30	-53.704	-17.836	7.056	0.63431	-0.46387	0.52359	-0.32895	31.3	13111	100
2025-3-27 15:16:14.755	WT901BLE68-01(48591DE3C19B)	1.183	-1.375	-0.057	-49.194	2.441	-256.897	-163.28	68.49	-81.57	-53.704	-17.836	7.056	0.63431	-0.46387	0.52359	-0.32895	31.3	13111	100
2025-3-27 15:16:14.755	WT901BLE68-01(48591DE3C19B)	1.006	-1.375	-0.057	-49.194	2.441	-256.897	-157.10	67.15	-74.60	-53.704	-17.836	7.056	0.63431	-0.46387	0.52359	-0.32895	31.3	13111	100
2025-3-27 15:16:14.755	WT901BLE68-01(48591DE3C19B)	1.006	-1.532	-0.164	0.549	46.387	-295.776	-151.34	65.27	-68.26	-53.704	-17.836	7.056	0.46875	-0.60928	0.56143	0.30618	31.3	13111	100
2025-3-27 15:16:14.785	WT901BLE68-01(48591DE3C19B)	0.601	-1.532	-0.164	0.549	46.387	-295.776	-146.17	62.86	-62.74	-53.704	-17.836	7.056	0.46875	-0.60928	0.56143	0.30618	31.3	13111	100
2025-3-27 15:16:14.785	WT901BLE68-01(48591DE3C19B)	0.601	-1.574	-0.229	39.978	68.115	-336.670	-141.55	60.06	-57.95	-53.704	-17.836	7.056	0.46875	-0.60928	0.56143	0.30618	31.3	13111	100
2025-3-27 15:16:14.786	WT901BLE68-01(48591DE3C19B)	0.290	-1.574	-0.229	39.978	68.115	-336.670	-137.46	56.89	-53.84	-53.704	-17.836	7.056	0.46875	-0.60928	0.56143	0.30618	31.3	13111	100
2025-3-27 15:16:14.786	WT901BLE68-01(48591DE3C19B)	0.290	-1.767	-0.305	71.045	86.487	-360.229	-133.93	53.44	-50.45	-53.704	-17.836	7.056	0.46875	-0.60928	0.56143	0.30618	31.3	13111	100
2025-3-27 15:16:14.845	WT901BLE68-01(48591DE3C19B)	-0.687	-1.767	-0.305	71.045	86.487	-360.229	-130.85	49.77	-47.65	-53.704	-17.836	7.056	0.46875	-0.60928	0.56143	0.30618	31.3	13111	100
2025-3-27 15:16:14.845	WT901BLE68-01(48591DE3C19B)	-0.687	-2.160	-0.022	116.333	88.562	-292.542	-128.27	46.30	-45.68	-53.704	-17.836	7.056	0.46875	-0.60928	0.56143	0.30618	31.3	13111	100
2025-3-27 15:16:14.845	WT901BLE68-01(48591DE3C19B)	-3.348	-2.160	-0.022	116.333	88.562	-292.542	-125.99	43.07	-44.35	-53.704	-17.836	7.056	0.46875	-0.60928	0.56143	0.30618	31.3	13111	100
2025-3-27 15:16:14.846	WT901BLE68-01(48591DE3C19B)	-3.348	-3.320	0.001	160.034	166.199	-267.944	-124.02	39.73	-43.78	-53.704	-17.836	7.056	0.46875	-0.60928	0.56143	0.30618	31.3	13111	100
2025-3-27 15:16:14.875	WT901BLE68-01(48591DE3C19B)	-4.105	-3.320	0.001	160.034	166.199	-267.944	-122.27	36.35	-43.87	-53.704	-17.836	7.056	0.46875	-0.60928	0.56143	0.30618	31.3	13111	100
2025-3-27 15:16:14.875	WT901BLE68-01(48591DE3C19B)	-4.105	-2.816	-0.233	264.587	70.496	-312.195	-119.70	33.10	-43.48	-53.704	-17.836	7.056	0.46875	-0.60928	0.56143	0.30618	31.3	13111	100
2025-3-27 15:16:14.875	WT901BLE68-01(48591DE3C19B)	-3.831	-2.816	-0.233	264.587	70.496	-312.195	-116.42	29.94	-42.70	-53.704	-17.836	7.056	0.46875	-0.60928	0.56143	0.30618	31.3	13111	100
2025-3-27 15:16:14.875	WT901BLE68-01(48591DE3C19B)	-3.831	-1.517	-0.033	214.600	148.926	-211.060	-113.85	27.09	-42.79	-53.704	-17.836	7.056	0.46875	-0.60928	0.56143	0.30618	31.3	13111	100
2025-3-27 15:16:14.937	WT901BLE68-01(48591DE3C19B)	-3.656	-1.517	-0.033	214.600	148.926	-211.060	-111.85	24.59	-43.61	-53.704	-17.836	7.056	0.46875	-0.60928	0.56143	0.30618	31.3	13111	100
2025-3-27 15:16:14.937	WT901BLE68-01(48591DE3C19B)	-3.656	-1.967	0.295	145.813	236.572	-97.900	-110.46	22.54	-45.16	-53.704	-17.836	7.056	0.46875	-0.60928	0.56143	0.30618	31.3	13111	100
2025-3-27 15:16:14.938	WT901BLE68-01(48591DE3C19B)	-3.016	-1.967	0.295	145.813	236.572	-97.900	-109.63	20.91	-47.39	-53.704	-17.836	7.056	0.46875	-0.60928	0.56143	0.30618	31.3	13111	100
2025-3-27 15:16:14.938	WT901BLE68-01(48591DE3C19B)	-3.016	-1.555	0.317	184.021	239.136	-21.912	-108.60	19.69	-49.76	-53.704	-17.836	7.056	0.46875	-0.60928	0.56143	0.30618	31.3	13111	100
2025-3-27 15:16:14.967	WT901BLE68-01(48591DE3C19B)	-2.185	-1.555	0.317	184.021	239.136	-21.912	-107.40	18.88	-52.27	-53.704	-17.836	7.056	0.46875	-0.60928	0.56143	0.30618	31.3	13111	100
2025-3-27 15:16:14.968	WT901BLE68-01(48591DE3C19B)	-2.185	-0.731	0.165	203.369	192.566	19.226	-106.03	18.40	-54.61	-53.704	-17.836	7.056	0.46875	-0.60928	0.56143	0.30618	31.3	13111	100
2025-3-27 15:16:14.968	WT901BLE68-01(48591DE3C19B)	-1.505	-0.731	0.165	203.369	192.566	19.226	-104.50	18.25	-56.78	-53.704	-17.836	7.056	0.46875	-0.60928	0.56143	0.30618	31.3	13111	100
2025-3-27 15:16:14.968	WT901BLE68-01(48591DE3C19B)	-1.505	-0.140	-0.129	192.261	150.208	28.809	-102.97	18.26	-58.73	-53.704	-17.836	7.056	0.46875	-0.60928	0.56143	0.30618	31.3	13111	100
2025-3-27 15:16:15.26	WT901BLE68-01(48591DE3C19B)	-0.966	-0.140	-0.129	192.261	150.208	28.809	-101.45	18.43	-60.47	-53.704	-17.836	7.056	0.46875	-0.60928	0.56143	0.30618	31.3	13111	100
2025-3-27 15:16:15.26	WT901BLE68-01(48591DE3C19B)	-0.966	0.286	-0.365	181.274	125.671	21.973	-99.97	18.63	-62.06	-53.704	-17.836	7.056	0.46875	-0.60928	0.56143	0.30618	31.3	13111	100
2025-3-27 15:16:15.26	WT901BLE68-01(48591DE3C19B)	-0.593	0.286	-0.365	181.274	125.671	21.973	-98.53	18.88	-63.49	-53.704	-17.836	7.056	0.46875	-0.60928	0.56143	0.30618	31.3	13111	100
2025-3-27 15:16:15.26	WT901BLE68-01(48591DE3C19B)	-0.593	0.515	-0.390	219.543	126.160	-5.493	-96.93	19.03	-64.85	-67.522	-25.676	2.450	0.46875	-0.60928	0.56143	0.30618	31.3	13111	100
2025-3-27 15:16:15.27	WT901BLE68-01(48591DE3C19B)	-0.305	0.515	-0.390	219.543	126.160	-5.493	-95.20	19.10	-66.10	-67.522	-25.676	2.450	0.46875	-0.60928	0.56143	0.30618	31.3	13111	100
2025-3-27 15:16:15.27	WT901BLE68-01(48591DE3C19B)	-0.305	0.927	-0.422	195.557	121.155	36.194	-93.69	19.40	-67.21	-67.522	-25.676	2.450	0.46875	-0.60928	0.56143	0.30618	31.3	13111	100
2025-3-27 15:16:15.27	WT901BLE68-01(48591DE3C19B)	-0.091	0.927	-0.422	195.557	121.155	36.194	-92.40	19.88	-68.18	-67.522	-25.676	2.450	0.46875	-0.60928	0.56143	0.30618	31.3	13111	100
2025-3-27 15:16:15.27	WT901BLE68-01(48591DE3C19B)	-0.091	1.190	-0.488	91.919	96.497	38.513	-91.65	20.37	-68.97	-67.522	-25.676	2.450	0.46875	-0.60928	0.56143	0.30618	31.3	13111	100
2025-3-27 15:16:15.85	WT901BLE68-01(48591DE3C19B)	0.010	1.190	-0.488	91.919	96.497	38.513	-91.42	20.85	-69.62	-67.522	-25.676	2.450	0.46875	-0.60928	0.56143	0.30618	31.3	13111	100
2025-3-27 15:16:15.86	WT901BLE68-01(48591DE3C19B)	0.010	1.169	-0.498	27.893	74.829	35.217	-91.53	21.30	-70.18	-67.522	-25.676	2.450	0.46875	-0.60928	0.56143	0.30618	31.3	13111	100
2025-3-27 15:16:15.86	WT901BLE68-01(48591DE3C19B)	0.048	1.169	-0.498	27.893	74.829	35.217	-91.96	21.73	-70.65	-67.522	-25.676	2.450	0.46875	-0.60928	0.56143	0.30618	31.3	13111	100
2025-3-27 15:16:15.86	WT901BLE68-01(48591DE3C19B)	0.048	1.143	-0.502	3.906	68.054	29.419	-92.54	22.11	-71.13	-67.522	-25.676	2.450	0.46875	-0.60928	0.56143	0.30618	31.3	13111	100
2025-3-27 15:16:15.114	WT901BLE68-01(48591DE3C19B)	0.091	1.143	-0.502	3.906	68.054	29.419	-93.27	22.45	-71.62	-67.522	-25.676	2.450	0.46875	-0.60928	0.56143	0.30618	31.3	13111	100
2025-3-27 15:16:15.115	WT901BLE68-01(48591DE3C19B)	0.091	1.159	-0.476	-33.325	62.439	28.748	-94.21	22.76	-72.13	-67.522	-25.676	2.450	0.46875	-0.60928	0.56143	0.30618	31.3	13111	100
2025-3-27 15:16:15.115	WT901BLE68-01(48591DE3C19B)	0.032	1.159	-0.476	-33.325	62.439	28.748	-95.37	23.04	-72.66	-67.522	-25.676	2.450	0.46875	-0.60928	0.56143	0.30618	31.3	13111	100
2025-3-27 15:16:15.115	WT901BLE68-01(48591DE3C19B)	0.032	1.062	-0.349	-87.585	54.138	31.982	-97.07	23.35	-73.16	-67.522	-25.676	2.450	0.46875	-0.60928	0.56143	0.30618	31.3	13111	100
2025-3-27 15:16:15.175	WT901BLE68-01(48591DE3C19B)	-0.229	1.062	-0.349	-87.585	54.138	31.982	-98.80	23.64	-73.70	-67.522	-25.676	2.450	0.46875	-0.60928	0.56143	0.30618	31.3	13111	100
2025-3-27 15:16:15.175	WT901BLE68-01(48591DE3C19B)	-0.229	0.773	-0.246	-144.836	37.659	39.368	-101.05	23.99	-74.10	-67.522	-25.676	2.450	0.46875	-0.60928	0.56143	0.30618	31.3	13111	100
2025-3-27 15:16:15.176	WT901BLE68-01(48591DE3C19B)	-0.789	0.773	-0.246	-144.836	37.659	39.368	-103.31	24.33	-74.54	-67.522	-25.676	2.450	0.46875	-0.60928	0.56143	0.30618	31.3	13111	100
2025-3-27 15:16:15.176	WT901BLE68-01(48591DE3C19B)	-0.789	0.597	-0.561	-219.360	-38.086	70.618	-106.02	25.15	-74.27	-67.522	-25.676	2.450	0.46875	-0.60928	0.56143	0.30618	31.3	13111	100
2025-3-27 15:16:15.206	WT901BLE68-01(48591DE3C19B)	-2.242	0.597	-0.561	-219.360	-38.086	70.618	-108.73	25.97	-74.04	-67.522	-25.676	2.450	0.46875	-0.60928	0.56143	0.30618	31.3	13111	100
2025-3-27 15:16:15.206	WT901BLE68-01(48591DE3C19B)	-2.242	0.229	-0.854	-336.182	-52.612	142.273	-112.65	27.53	-73.95	-67.522	-25.676	2.450	0.54929	-0.56635	0.59155	-0.16568	31.3	13111	100
2025-3-27 15:16:15.206	WT901BLE68-01(48591DE3C19B)	-4.167	0.229	-0.854	-336.182	-52.612	142.273	-116.59	29.10	-73.95	-67.522	-25.676	2.450	0.54929	-0.56635	0.59155	-0.16568	31.3	13111	100
2025-3-27 15:16:15.206	WT901BLE68-01(48591DE3C19B)	-4.167	-0.663	-1.028	-309.875	109.497	249.084	-121.38	30.83	-76.27	-67.522	-25.676	2.450	0.54929	-0.56635	0.59155	-0.16568	31.3	13111	100
2025-3-27 15:16:15.238	WT901BLE68-01(48591DE3C19B)	-5.034	-0.663	-1.028	-309.875	109.497	249.084	-126.28	32.38	-78.74	-67.522	-25.676	2.450	0.54929	-0.56635	0.59155	-0.16568	31.3	13111	100
2025-3-27 15:16:15.238	WT901BLE68-01(48591DE3C19B)	-5.034	-0.846	-1.754	-290.283	179.138	279.358	-131.56	33.54	-82.24	-67.522	-25.676	2.450	0.54929	-0.56635	0.59155	-0.16568	31.3	13111	100
2025-3-27 15:16:15.238	WT901BLE68-01(48591DE3C19B)	-4.895	-0.846	-1.754	-290.283	179.138	279.358	-136.93	34.40	-85.88	-67.522	-25.676	2.450	0.54929	-0.56635	0.59155	-0.16568	31.3	13111	100
2025-3-27 15:16:15.238	WT901BLE68-01(48591DE3C19B)	-4.895	-1.704	-1.512	-341.370	57.068	318.970	-142.56	36.16	-89.04	-67.522	-25.676	2.450	0.54929	-0.56635	0.59155	-0.16568	31.3	13111	100
2025-3-27 15:16:15.266	WT901BLE68-01(48591DE3C19B)	-2.985	-1.704	-1.512	-341.370	57.068	318.970	-148.38	37.63	-92.46	-67.522	-25.676	2.450	0.54929	-0.56635	0.59155	-0.16568	31.3	13111	100
2025-3-27 15:16:15.266	WT901BLE68-01(48591DE3C19B)	-2.985	-2.095	-1.372	-312.988	-7.324	294.678	-153.66	39.27	-95.43	-67.522	-25.676	2.450	0.54929	-0.56635	0.59155	-0.16568	31.3	13111	100
2025-3-27 15:16:15.266	WT901BLE68-01(48591DE3C19B)	-1.853	-2.095	-1.372	-312.988	-7.324	294.678	-159.10	40.67	-98.66	-67.522	-25.676	2.450	0.54929	-0.56635	0.59155	-0.16568	31.3	13111	100
2025-3-27 15:16:15.266	WT901BLE68-01(48591DE3C19B)	-1.853	-1.570	-0.812	-194.580	-15.137	231.323	-162.94	41.72	-101.26	-67.522	-25.676	2.450	0.54929	-0.56635	0.59155	-0.16568	31.3	13111	100
2025-3-27 15:16:15.326	WT901BLE68-01(48591DE3C19B)	-1.246	-1.570	-0.812	-194.580	-15.137	231.323	-166.86	42.62	-103.98	-67.522	-25.676	2.450	0.54929	-0.56635	0.59155	-0.16568	31.3	13111	100
2025-3-27 15:16:15.326	WT901BLE68-01(48591DE3C19B)	-1.246	-0.864	-0.273	-188.843	-75.439	190.186	-170.32	43.88	-106.11	-67.522	-25.676	2.450	0.54929	-0.56635	0.59155	-0.16568	31.3	13111	100
2025-3-27 15:16:15.326	WT901BLE68-01(48591DE3C19B)	-0.676	-0.864	-0.273	-188.843	-75.439	190.186	-173.87	45.05	-108.38	-67.522	-25.676	2.450	0.54929	-0.56635	0.59155	-0.16568	31.3	13111	100
2025-3-27 15:16:15.326	WT901BLE68-01(48591DE3C19B)	-0.676	-0.766	-0.145	-213.013	-204.529	121.643	-176.98	47.33	-109.68	-67.522	-25.676	2.450	0.54929	-0.56635	0.59155	-0.16568	31.3	13111	100
2025-3-27 15:16:15.357	WT901BLE68-01(48591DE3C19B)	0.052	-0.766	-0.145	-213.013	-204.529	121.643	179.72	49.54	-111.23	-67.522	-25.676	2.450	0.54929	-0.56635	0.59155	-0.16568	31.3	13111	100
2025-3-27 15:16:15.357	WT901BLE68-01(48591DE3C19B)	0.052	-0.640	-0.235	-205.261	-290.344	58.411	177.04	52.54	-112.07	-67.522	-25.676	2.450	0.54929	-0.56635	0.59155	-0.16568	31.3	13111	100
2025-3-27 15:16:15.357	WT901BLE68-01(48591DE3C19B)	0.806	-0.640	-0.235	-205.261	-290.344	58.411	174.13	55.49	-113.22	-67.522	-25.676	2.450	0.54929	-0.56635	0.59155	-0.16568	31.3	13111	100
2025-3-27 15:16:15.358	WT901BLE68-01(48591DE3C19B)	0.806	-0.638	-0.434	-227.295	-290.894	-4.333	171.69	58.45	-113.55	-67.522	-25.676	2.450	0.54929	-0.56635	0.59155	-0.16568	31.3	13111	100
2025-3-27 15:16:15.385	WT901BLE68-01(48591DE3C19B)	1.822	-0.638	-0.434	-227.295	-290.894	-4.333	169.05	61.35	-114.15	-67.522	-25.676	2.450	0.54929	-0.56635	0.59155	-0.16568	31.3	13111	100
2025-3-27 15:16:15.385	WT901BLE68-01(48591DE3C19B)	1.822	-1.114	-0.762	-292.786	-218.506	-126.831	168.19	63.73	-112.02	-67.522	-25.676	2.450	0.54929	-0.56635	0.59155	-0.16568	31.3	13111	100
