time	DeviceName	AccX(g)	AccY(g)	AccZ(g)	AsX(°/s)	AsY(°/s)	AsZ(°/s)	AngleX(°)	AngleY(°)	AngleZ(°)	HX(uT)	HY(uT)	HZ(uT)	Q0()	Q1()	Q2()	Q3()	Temperature(°C)	Version()	Battery level(%)
2025-3-27 15:21:8.296	WT901BLE68-01(48591DE3C19B)	-0.390	-0.900	0.218	-8.057	-8.118	-4.700	-76.92	25.03	-4.05	-58.408	-24.892	87.808	-0.76859	0.59921	-0.19559	-0.10873	31.4	13111	100
2025-3-27 15:21:8.296	WT901BLE68-01(48591DE3C19B)	-0.195	-0.923	0.221	-9.399	-0.854	-3.662	-77.02	24.96	-4.16	-58.408	-24.892	87.808	-0.76859	0.59921	-0.19559	-0.10873	31.4	13111	100
2025-3-27 15:21:8.296	WT901BLE68-01(48591DE3C19B)	-0.408	-0.461	0.110	-9.399	-0.854	-3.662	-77.12	24.90	-4.27	-58.408	-24.892	87.808	-0.76859	0.59921	-0.19559	-0.10873	31.4	13111	100
2025-3-27 15:21:8.296	WT901BLE68-01(48591DE3C19B)	-0.408	-0.905	0.215	-7.080	0.732	-3.357	-77.21	24.85	-4.39	-58.408	-24.892	87.808	-0.76859	0.59921	-0.19559	-0.10873	31.4	13111	100
2025-3-27 15:21:8.389	WT901BLE68-01(48591DE3C19B)	-0.416	-0.905	0.215	-7.080	0.732	-3.357	-77.29	24.79	-4.52	-58.408	-24.892	87.808	-0.76859	0.59921	-0.19559	-0.10873	31.4	13111	100
2025-3-27 15:21:8.389	WT901BLE68-01(48591DE3C19B)	-0.416	-0.873	0.195	-7.874	-2.319	-4.272	-77.37	24.72	-4.60	-58.408	-24.892	87.808	-0.76859	0.59921	-0.19559	-0.10873	31.4	13111	100
2025-3-27 15:21:8.389	WT901BLE68-01(48591DE3C19B)	-0.420	-0.873	0.195	-7.874	-2.319	-4.272	-77.44	24.66	-4.69	-58.408	-24.892	87.808	-0.76859	0.59921	-0.19559	-0.10873	31.4	13111	100
2025-3-27 15:21:8.389	WT901BLE68-01(48591DE3C19B)	-0.420	-0.877	0.184	-9.033	-9.277	-6.775	-77.50	24.56	-4.70	-58.408	-24.892	87.808	-0.76859	0.59921	-0.19559	-0.10873	31.4	13111	100
2025-3-27 15:21:8.390	WT901BLE68-01(48591DE3C19B)	-0.423	-0.877	0.184	-9.033	-9.277	-6.775	-77.55	24.46	-4.71	-58.408	-24.892	87.808	-0.76859	0.59921	-0.19559	-0.10873	31.4	13111	100
2025-3-27 15:21:8.390	WT901BLE68-01(48591DE3C19B)	-0.423	-0.879	0.203	-9.888	-20.081	-9.644	-77.57	24.31	-4.61	-58.408	-24.892	87.808	-0.76859	0.59921	-0.19559	-0.10873	31.4	13111	100
2025-3-27 15:21:8.390	WT901BLE68-01(48591DE3C19B)	-0.407	-0.879	0.203	-9.888	-20.081	-9.644	-77.60	24.16	-4.52	-58.408	-24.892	87.808	-0.76859	0.59921	-0.19559	-0.10873	31.4	13111	100
2025-3-27 15:21:8.390	WT901BLE68-01(48591DE3C19B)	-0.407	-0.905	0.220	-11.230	-27.100	-11.719	-77.60	23.99	-4.35	-58.408	-24.892	87.808	-0.76859	0.59921	-0.19559	-0.10873	31.4	13111	100
2025-3-27 15:21:8.416	WT901BLE68-01(48591DE3C19B)	-0.391	-0.905	0.220	-11.230	-27.100	-11.719	-77.61	23.81	-4.17	-58.408	-24.892	87.808	-0.76859	0.59921	-0.19559	-0.10873	31.4	13111	100
2025-3-27 15:21:8.416	WT901BLE68-01(48591DE3C19B)	-0.391	-0.889	0.225	-9.827	-28.198	-12.756	-77.59	23.62	-4.00	-58.408	-24.892	87.808	-0.76859	0.59921	-0.19559	-0.10873	31.4	13111	100
2025-3-27 15:21:8.416	WT901BLE68-01(48591DE3C19B)	-0.372	-0.889	0.225	-9.827	-28.198	-12.756	-77.58	23.43	-3.82	-48.706	-25.970	85.848	-0.76859	0.59921	-0.19559	-0.10873	31.4	13111	100
2025-3-27 15:21:8.416	WT901BLE68-01(48591DE3C19B)	-0.372	-0.865	0.218	-10.864	-26.245	-13.367	-77.59	23.24	-3.66	-48.706	-25.970	85.848	-0.76859	0.59921	-0.19559	-0.10873	31.4	13111	100
2025-3-27 15:21:8.475	WT901BLE68-01(48591DE3C19B)	-0.366	-0.865	0.218	-10.864	-26.245	-13.367	-77.60	23.05	-3.51	-48.706	-25.970	85.848	-0.76859	0.59921	-0.19559	-0.10873	31.4	13111	100
2025-3-27 15:21:8.475	WT901BLE68-01(48591DE3C19B)	-0.366	-0.874	0.211	-12.390	-22.888	-13.000	-77.63	22.88	-3.39	-48.706	-25.970	85.848	-0.76859	0.59921	-0.19559	-0.10873	31.4	13111	100
2025-3-27 15:21:8.475	WT901BLE68-01(48591DE3C19B)	-0.361	-0.874	0.211	-12.390	-22.888	-13.000	-77.67	22.70	-3.27	-48.706	-25.970	85.848	-0.76859	0.59921	-0.19559	-0.10873	31.4	13111	100
2025-3-27 15:21:8.475	WT901BLE68-01(48591DE3C19B)	-0.361	-0.884	0.204	-12.390	-20.386	-11.597	-77.71	22.55	-3.18	-48.706	-25.970	85.848	-0.76859	0.59921	-0.19559	-0.10873	31.4	13111	100
2025-3-27 15:21:8.505	WT901BLE68-01(48591DE3C19B)	-0.362	-0.884	0.204	-12.390	-20.386	-11.597	-77.76	22.39	-3.09	-48.706	-25.970	85.848	-0.76859	0.59921	-0.19559	-0.10873	31.4	13111	100
2025-3-27 15:21:8.505	WT901BLE68-01(48591DE3C19B)	-0.362	-0.887	0.202	-11.536	-18.738	-9.949	-77.80	22.25	-3.00	-48.706	-25.970	85.848	-0.76859	0.59921	-0.19559	-0.10873	31.4	13111	100
2025-3-27 15:21:8.505	WT901BLE68-01(48591DE3C19B)	-0.361	-0.887	0.202	-11.536	-18.738	-9.949	-77.84	22.12	-2.93	-48.706	-25.970	85.848	-0.76859	0.59921	-0.19559	-0.10873	31.4	13111	100
2025-3-27 15:21:8.506	WT901BLE68-01(48591DE3C19B)	-0.361	-0.889	0.203	-11.658	-18.616	-8.179	-77.89	22.00	-2.85	-48.706	-25.970	85.848	-0.76859	0.59921	-0.19559	-0.10873	31.4	13111	100
2025-3-27 15:21:8.535	WT901BLE68-01(48591DE3C19B)	-0.356	-0.889	0.203	-11.658	-18.616	-8.179	-77.93	21.88	-2.76	-48.706	-25.970	85.848	-0.76859	0.59921	-0.19559	-0.10873	31.4	13111	100
2025-3-27 15:21:8.536	WT901BLE68-01(48591DE3C19B)	-0.340	-0.908	0.203	-12.085	-18.494	-6.836	-77.98	21.78	-2.68	-48.706	-25.970	85.848	-0.76859	0.59921	-0.19559	-0.10873	31.4	13111	100
2025-3-27 15:21:8.536	WT901BLE68-01(48591DE3C19B)	-0.340	-0.932	0.201	-11.169	-16.907	-5.676	-78.02	21.68	-2.60	-48.706	-25.970	85.848	-0.76859	0.59921	-0.19559	-0.10873	31.4	13111	100
2025-3-27 15:21:8.536	WT901BLE68-01(48591DE3C19B)	-0.329	-0.932	0.201	-11.169	-16.907	-5.676	-78.07	21.59	-2.53	-48.706	-25.970	85.848	-0.76859	0.59921	-0.19559	-0.10873	31.4	13111	100
2025-3-27 15:21:8.597	WT901BLE68-01(48591DE3C19B)	-0.329	-0.942	0.199	-9.521	-13.489	-4.578	-78.11	21.51	-2.48	-48.706	-25.970	85.848	-0.76859	0.59921	-0.19559	-0.10873	31.4	13111	100
2025-3-27 15:21:8.597	WT901BLE68-01(48591DE3C19B)	-0.316	-0.942	0.199	-9.521	-13.489	-4.578	-78.15	21.43	-2.45	-48.706	-25.970	85.848	-0.76859	0.59921	-0.19559	-0.10873	31.4	13111	100
2025-3-27 15:21:8.597	WT901BLE68-01(48591DE3C19B)	-0.316	-0.941	0.197	-8.423	-8.667	-3.906	-78.20	21.37	-2.44	-48.706	-25.970	85.848	-0.76859	0.59921	-0.19559	-0.10873	31.4	13111	100
2025-3-27 15:21:8.597	WT901BLE68-01(48591DE3C19B)	-0.304	-0.941	0.197	-8.423	-8.667	-3.906	-78.25	21.31	-2.46	-48.706	-25.970	85.848	-0.76859	0.59921	-0.19559	-0.10873	31.4	13111	100
2025-3-27 15:21:8.626	WT901BLE68-01(48591DE3C19B)	-0.304	-0.942	0.191	-7.813	-2.747	-3.845	-78.31	21.25	-2.51	-48.706	-25.970	85.848	-0.76859	0.59921	-0.19559	-0.10873	31.4	13111	100
2025-3-27 15:21:8.627	WT901BLE68-01(48591DE3C19B)	-0.296	-0.942	0.191	-7.813	-2.747	-3.845	-78.38	21.20	-2.59	-48.706	-25.970	85.848	-0.76859	0.59921	-0.19559	-0.10873	31.4	13111	100
2025-3-27 15:21:8.627	WT901BLE68-01(48591DE3C19B)	-0.296	-0.941	0.186	-6.775	3.113	-4.028	-78.45	21.16	-2.70	-48.706	-25.970	85.848	-0.76859	0.59921	-0.19559	-0.10873	31.4	13111	100
2025-3-27 15:21:8.627	WT901BLE68-01(48591DE3C19B)	-0.283	-0.941	0.186	-6.775	3.113	-4.028	-78.52	21.12	-2.85	-48.706	-25.970	85.848	-0.76373	0.61844	-0.15729	-0.09698	31.4	13111	100
2025-3-27 15:21:8.655	WT901BLE68-01(48591DE3C19B)	-0.283	-0.927	0.181	-6.287	7.813	-4.639	-78.61	21.07	-3.02	-48.706	-25.970	85.848	-0.76373	0.61844	-0.15729	-0.09698	31.4	13111	100
2025-3-27 15:21:8.655	WT901BLE68-01(48591DE3C19B)	-0.258	-0.927	0.181	-6.287	7.813	-4.639	-78.71	21.03	-3.21	-48.706	-25.970	85.848	-0.76373	0.61844	-0.15729	-0.09698	31.4	13111	100
2025-3-27 15:21:8.655	WT901BLE68-01(48591DE3C19B)	-0.258	-0.926	0.173	-6.775	12.573	-5.920	-78.82	20.99	-3.43	-48.706	-25.970	85.848	-0.76373	0.61844	-0.15729	-0.09698	31.4	13111	100
2025-3-27 15:21:8.656	WT901BLE68-01(48591DE3C19B)	-0.224	-0.926	0.173	-6.775	12.573	-5.920	-78.93	20.94	-3.68	-48.706	-25.970	85.848	-0.76373	0.61844	-0.15729	-0.09698	31.4	13111	100
2025-3-27 15:21:8.715	WT901BLE68-01(48591DE3C19B)	-0.224	-0.939	0.158	-6.714	18.677	-8.179	-79.06	20.88	-3.96	-48.706	-25.970	85.848	-0.76373	0.61844	-0.15729	-0.09698	31.4	13111	100
2025-3-27 15:21:8.716	WT901BLE68-01(48591DE3C19B)	-0.175	-0.939	0.158	-6.714	18.677	-8.179	-79.21	20.82	-4.28	-48.706	-25.970	85.848	-0.76373	0.61844	-0.15729	-0.09698	31.4	13111	100
2025-3-27 15:21:8.716	WT901BLE68-01(48591DE3C19B)	-0.175	-0.939	0.135	-4.578	28.503	-10.864	-79.35	20.75	-4.65	-48.706	-25.970	85.848	-0.76373	0.61844	-0.15729	-0.09698	31.4	13111	100
2025-3-27 15:21:8.716	WT901BLE68-01(48591DE3C19B)	-0.140	-0.939	0.135	-4.578	28.503	-10.864	-79.52	20.67	-5.08	-48.706	-25.970	85.848	-0.76373	0.61844	-0.15729	-0.09698	31.4	13111	100
2025-3-27 15:21:8.745	WT901BLE68-01(48591DE3C19B)	-0.140	-0.919	0.121	-3.723	41.992	-14.526	-79.70	20.58	-5.58	-48.706	-25.970	85.848	-0.76373	0.61844	-0.15729	-0.09698	31.4	13111	100
2025-3-27 15:21:8.746	WT901BLE68-01(48591DE3C19B)	-0.116	-0.919	0.121	-3.723	41.992	-14.526	-79.90	20.48	-6.15	-48.706	-25.970	85.848	-0.76373	0.61844	-0.15729	-0.09698	31.4	13111	100
2025-3-27 15:21:8.746	WT901BLE68-01(48591DE3C19B)	-0.116	-0.943	0.104	-5.371	55.786	-18.982	-80.15	20.36	-6.80	-48.706	-25.970	85.848	-0.76373	0.61844	-0.15729	-0.09698	31.4	13111	100
2025-3-27 15:21:8.746	WT901BLE68-01(48591DE3C19B)	-0.111	-0.943	0.104	-5.371	55.786	-18.982	-80.42	20.23	-7.52	-48.706	-25.970	85.848	-0.76373	0.61844	-0.15729	-0.09698	31.4	13111	100
2025-3-27 15:21:8.806	WT901BLE68-01(48591DE3C19B)	-0.111	-0.995	0.093	-3.906	68.787	-23.254	-80.71	20.08	-8.32	-48.706	-25.970	85.848	-0.76373	0.61844	-0.15729	-0.09698	31.4	13111	100
2025-3-27 15:21:8.807	WT901BLE68-01(48591DE3C19B)	-0.087	-0.995	0.093	-3.906	68.787	-23.254	-81.02	19.92	-9.18	-48.706	-25.970	85.848	-0.76373	0.61844	-0.15729	-0.09698	31.4	13111	100
2025-3-27 15:21:8.807	WT901BLE68-01(48591DE3C19B)	-0.087	-0.988	0.080	0.671	78.674	-27.893	-81.32	19.73	-10.09	-48.706	-25.970	85.848	-0.76373	0.61844	-0.15729	-0.09698	31.4	13111	100
2025-3-27 15:21:8.807	WT901BLE68-01(48591DE3C19B)	-0.090	-0.988	0.080	0.671	78.674	-27.893	-81.62	19.52	-11.06	-48.706	-25.970	85.848	-0.76373	0.61844	-0.15729	-0.09698	31.4	13111	100
2025-3-27 15:21:8.836	WT901BLE68-01(48591DE3C19B)	-0.090	-0.956	0.083	0.610	84.106	-32.898	-81.92	19.29	-12.05	-48.706	-25.970	85.848	-0.76373	0.61844	-0.15729	-0.09698	31.4	13111	100
2025-3-27 15:21:8.836	WT901BLE68-01(48591DE3C19B)	-0.094	-0.956	0.083	0.610	84.106	-32.898	-82.23	19.02	-13.07	-48.706	-25.970	85.848	-0.76373	0.61844	-0.15729	-0.09698	31.4	13111	100
2025-3-27 15:21:8.836	WT901BLE68-01(48591DE3C19B)	-0.094	-0.982	0.096	-3.052	81.482	-39.612	-82.55	18.72	-14.08	-48.706	-25.970	85.848	-0.76373	0.61844	-0.15729	-0.09698	31.4	13111	100
2025-3-27 15:21:8.836	WT901BLE68-01(48591DE3C19B)	-0.108	-0.982	0.096	-3.052	81.482	-39.612	-82.88	18.37	-15.07	-52.136	-26.852	86.534	-0.76373	0.61844	-0.15729	-0.09698	31.4	13111	100
2025-3-27 15:21:8.896	WT901BLE68-01(48591DE3C19B)	-0.108	-1.020	0.115	-2.625	73.730	-46.936	-83.18	17.98	-16.02	-52.136	-26.852	86.534	-0.76373	0.61844	-0.15729	-0.09698	31.4	13111	100
2025-3-27 15:21:8.896	WT901BLE68-01(48591DE3C19B)	-0.151	-1.020	0.115	-2.625	73.730	-46.936	-83.46	17.55	-16.92	-52.136	-26.852	86.534	-0.76373	0.61844	-0.15729	-0.09698	31.4	13111	100
2025-3-27 15:21:8.896	WT901BLE68-01(48591DE3C19B)	-0.151	-1.030	0.137	-2.808	59.998	-54.932	-83.72	17.07	-17.75	-52.136	-26.852	86.534	-0.76373	0.61844	-0.15729	-0.09698	31.4	13111	100
2025-3-27 15:21:8.896	WT901BLE68-01(48591DE3C19B)	-0.186	-1.030	0.137	-2.808	59.998	-54.932	-83.95	16.53	-18.51	-52.136	-26.852	86.534	-0.76373	0.61844	-0.15729	-0.09698	31.4	13111	100
2025-3-27 15:21:8.926	WT901BLE68-01(48591DE3C19B)	-0.186	-1.092	0.155	-9.399	39.001	-64.392	-84.17	15.95	-19.15	-52.136	-26.852	86.534	-0.76373	0.61844	-0.15729	-0.09698	31.4	13111	100
2025-3-27 15:21:8.926	WT901BLE68-01(48591DE3C19B)	-0.191	-1.092	0.155	-9.399	39.001	-64.392	-84.38	15.30	-19.69	-52.136	-26.852	86.534	-0.76373	0.61844	-0.15729	-0.09698	31.4	13111	100
2025-3-27 15:21:8.926	WT901BLE68-01(48591DE3C19B)	-0.191	-1.202	0.156	-11.047	16.907	-74.158	-84.57	14.60	-20.12	-52.136	-26.852	86.534	-0.76373	0.61844	-0.15729	-0.09698	31.4	13111	100
2025-3-27 15:21:8.926	WT901BLE68-01(48591DE3C19B)	-0.192	-1.202	0.156	-11.047	16.907	-74.158	-84.73	13.84	-20.42	-52.136	-26.852	86.534	-0.76373	0.61844	-0.15729	-0.09698	31.4	13111	100
2025-3-27 15:21:8.955	WT901BLE68-01(48591DE3C19B)	-0.192	-1.235	0.174	-8.667	-0.854	-83.252	-84.85	13.04	-20.64	-52.136	-26.852	86.534	-0.76373	0.61844	-0.15729	-0.09698	31.4	13111	100
2025-3-27 15:21:8.955	WT901BLE68-01(48591DE3C19B)	-0.215	-1.235	0.174	-8.667	-0.854	-83.252	-84.95	12.18	-20.77	-52.136	-26.852	86.534	-0.76373	0.61844	-0.15729	-0.09698	31.4	13111	100
2025-3-27 15:21:8.955	WT901BLE68-01(48591DE3C19B)	-0.215	-1.274	0.202	-11.536	-18.677	-92.468	-85.03	11.28	-20.81	-52.136	-26.852	86.534	-0.76373	0.61844	-0.15729	-0.09698	31.4	13111	100
2025-3-27 15:21:8.956	WT901BLE68-01(48591DE3C19B)	-0.203	-1.274	0.202	-11.536	-18.677	-92.468	-85.11	10.33	-20.76	-52.136	-26.852	86.534	-0.76373	0.61844	-0.15729	-0.09698	31.4	13111	100
2025-3-27 15:21:8.989	WT901BLE68-01(48591DE3C19B)	-0.203	-1.331	0.228	-11.047	-33.569	-101.379	-85.17	9.34	-20.65	-52.136	-26.852	86.534	-0.76373	0.61844	-0.15729	-0.09698	31.4	13111	100
2025-3-27 15:21:8.989	WT901BLE68-01(48591DE3C19B)	-0.153	-1.331	0.228	-11.047	-33.569	-101.379	-85.23	8.30	-20.46	-52.136	-26.852	86.534	-0.76373	0.61844	-0.15729	-0.09698	31.4	13111	100
2025-3-27 15:21:8.989	WT901BLE68-01(48591DE3C19B)	-0.153	-1.335	0.245	-5.615	-35.828	-108.215	-85.25	7.23	-20.26	-52.136	-26.852	86.534	-0.76373	0.61844	-0.15729	-0.09698	31.4	13111	100
2025-3-27 15:21:8.990	WT901BLE68-01(48591DE3C19B)	-0.123	-1.335	0.245	-5.615	-35.828	-108.215	-85.25	6.14	-20.06	-52.136	-26.852	86.534	-0.76373	0.61844	-0.15729	-0.09698	31.4	13111	100
2025-3-27 15:21:9.46	WT901BLE68-01(48591DE3C19B)	-0.123	-1.271	0.256	-0.793	-23.254	-111.816	-85.24	5.03	-19.92	-52.136	-26.852	86.534	-0.76373	0.61844	-0.15729	-0.09698	31.4	13111	100
2025-3-27 15:21:9.46	WT901BLE68-01(48591DE3C19B)	-0.112	-1.271	0.256	-0.793	-23.254	-111.816	-85.21	3.92	-19.86	-52.136	-26.852	86.534	-0.76373	0.61844	-0.15729	-0.09698	31.4	13111	100
2025-3-27 15:21:9.46	WT901BLE68-01(48591DE3C19B)	-0.112	-1.241	0.265	0.977	-1.526	-113.525	-85.17	2.81	-20.01	-52.136	-26.852	86.534	-0.76373	0.61844	-0.15729	-0.09698	31.4	13111	100
2025-3-27 15:21:9.46	WT901BLE68-01(48591DE3C19B)	-0.111	-1.241	0.265	0.977	-1.526	-113.525	-85.13	1.71	-20.16	-52.136	-26.852	86.534	-0.76373	0.61844	-0.15729	-0.09698	31.4	13111	100
2025-3-27 15:21:9.75	WT901BLE68-01(48591DE3C19B)	-0.111	-1.220	0.262	8.179	21.423	-112.671	-85.03	0.64	-20.54	-52.136	-26.852	86.534	-0.72549	0.66425	-0.12216	0.13205	31.4	13111	100
2025-3-27 15:21:9.75	WT901BLE68-01(48591DE3C19B)	-0.143	-1.220	0.262	8.179	21.423	-112.671	-84.91	-0.42	-20.92	-52.136	-26.852	86.534	-0.72549	0.66425	-0.12216	0.13205	31.4	13111	100
2025-3-27 15:21:9.75	WT901BLE68-01(48591DE3C19B)	-0.143	-1.146	0.247	15.198	39.551	-107.788	-84.72	-1.42	-21.47	-52.136	-26.852	86.534	-0.72549	0.66425	-0.12216	0.13205	31.4	13111	100
2025-3-27 15:21:9.75	WT901BLE68-01(48591DE3C19B)	-0.201	-1.146	0.247	15.198	39.551	-107.788	-84.51	-2.40	-22.03	-52.136	-26.852	86.534	-0.72549	0.66425	-0.12216	0.13205	31.4	13111	100
2025-3-27 15:21:9.105	WT901BLE68-01(48591DE3C19B)	-0.201	-1.087	0.224	16.479	50.049	-99.365	-84.28	-3.28	-22.69	-52.136	-26.852	86.534	-0.72549	0.66425	-0.12216	0.13205	31.4	13111	100
2025-3-27 15:21:9.105	WT901BLE68-01(48591DE3C19B)	-0.297	-1.087	0.224	16.479	50.049	-99.365	-84.05	-4.15	-23.35	-52.136	-26.852	86.534	-0.72549	0.66425	-0.12216	0.13205	31.4	13111	100
2025-3-27 15:21:9.106	WT901BLE68-01(48591DE3C19B)	-0.297	-1.097	0.204	14.709	50.171	-87.341	-83.82	-4.89	-23.99	-52.136	-26.852	86.534	-0.72549	0.66425	-0.12216	0.13205	31.4	13111	100
2025-3-27 15:21:9.106	WT901BLE68-01(48591DE3C19B)	-0.373	-1.097	0.204	14.709	50.171	-87.341	-83.58	-5.63	-24.64	-52.136	-26.852	86.534	-0.72549	0.66425	-0.12216	0.13205	31.4	13111	100
2025-3-27 15:21:9.166	WT901BLE68-01(48591DE3C19B)	-0.373	-1.080	0.217	17.151	39.429	-74.341	-83.33	-6.23	-25.16	-52.136	-26.852	86.534	-0.72549	0.66425	-0.12216	0.13205	31.4	13111	100
2025-3-27 15:21:9.166	WT901BLE68-01(48591DE3C19B)	-0.436	-1.080	0.217	17.151	39.429	-74.341	-83.08	-6.82	-25.69	-52.136	-26.852	86.534	-0.72549	0.66425	-0.12216	0.13205	31.4	13111	100
2025-3-27 15:21:9.166	WT901BLE68-01(48591DE3C19B)	-0.436	-1.006	0.254	17.395	20.203	-61.951	-82.84	-7.29	-26.00	-52.136	-26.852	86.534	-0.72549	0.66425	-0.12216	0.13205	31.4	13111	100
2025-3-27 15:21:9.166	WT901BLE68-01(48591DE3C19B)	-0.513	-1.006	0.254	17.395	20.203	-61.951	-82.60	-7.77	-26.32	-52.136	-26.852	86.534	-0.72549	0.66425	-0.12216	0.13205	31.4	13111	100
2025-3-27 15:21:9.196	WT901BLE68-01(48591DE3C19B)	-0.513	-0.943	0.314	10.803	-5.981	-49.194	-82.46	-8.13	-26.36	-52.136	-26.852	86.534	-0.72549	0.66425	-0.12216	0.13205	31.4	13111	100
2025-3-27 15:21:9.197	WT901BLE68-01(48591DE3C19B)	-0.556	-0.943	0.314	10.803	-5.981	-49.194	-82.32	-8.49	-26.39	-52.136	-26.852	86.534	-0.72549	0.66425	-0.12216	0.13205	31.4	13111	100
2025-3-27 15:21:9.197	WT901BLE68-01(48591DE3C19B)	-0.556	-0.954	0.348	-0.488	-35.278	-33.569	-82.33	-8.72	-26.11	-52.136	-26.852	86.534	-0.72549	0.66425	-0.12216	0.13205	31.4	13111	100
2025-3-27 15:21:9.197	WT901BLE68-01(48591DE3C19B)	-0.559	-0.954	0.348	-0.488	-35.278	-33.569	-82.34	-8.94	-25.82	-52.136	-26.852	86.534	-0.72549	0.66425	-0.12216	0.13205	31.4	13111	100
2025-3-27 15:21:9.226	WT901BLE68-01(48591DE3C19B)	-0.559	-0.949	0.326	-6.775	-59.082	-15.564	-82.46	-9.01	-25.28	-52.136	-26.852	86.534	-0.72549	0.66425	-0.12216	0.13205	31.4	13111	100
2025-3-27 15:21:9.226	WT901BLE68-01(48591DE3C19B)	-0.480	-0.949	0.326	-6.775	-59.082	-15.564	-82.57	-9.07	-24.73	-52.136	-26.852	86.534	-0.72549	0.66425	-0.12216	0.13205	31.4	13111	100
2025-3-27 15:21:9.226	WT901BLE68-01(48591DE3C19B)	-0.480	-0.939	0.279	-11.780	-60.669	4.578	-82.73	-8.93	-24.14	-52.136	-26.852	86.534	-0.72549	0.66425	-0.12216	0.13205	31.4	13111	100
2025-3-27 15:21:9.226	WT901BLE68-01(48591DE3C19B)	-0.363	-0.939	0.279	-11.780	-60.669	4.578	-82.90	-8.79	-23.55	-52.136	-26.852	86.534	-0.72549	0.66425	-0.12216	0.13205	31.4	13111	100
2025-3-27 15:21:9.290	WT901BLE68-01(48591DE3C19B)	-0.363	-0.952	0.275	-11.414	-28.870	23.071	-83.01	-8.42	-23.26	-52.136	-26.852	86.534	-0.72549	0.66425	-0.12216	0.13205	31.4	13111	100
2025-3-27 15:21:9.290	WT901BLE68-01(48591DE3C19B)	-0.398	-0.952	0.275	-11.414	-28.870	23.071	-83.11	-8.05	-22.98	-58.310	-23.814	87.808	-0.72549	0.66425	-0.12216	0.13205	31.4	13111	100
2025-3-27 15:21:9.291	WT901BLE68-01(48591DE3C19B)	-0.398	-0.991	0.339	0.549	18.066	38.696	-83.03	-7.48	-23.14	-58.310	-23.814	87.808	-0.72549	0.66425	-0.12216	0.13205	31.4	13111	100
2025-3-27 15:21:9.291	WT901BLE68-01(48591DE3C19B)	-0.565	-0.991	0.339	0.549	18.066	38.696	-82.95	-6.91	-23.30	-58.310	-23.814	87.808	-0.72549	0.66425	-0.12216	0.13205	31.4	13111	100
2025-3-27 15:21:9.316	WT901BLE68-01(48591DE3C19B)	-0.565	-0.981	0.327	10.071	47.729	47.852	-82.75	-6.21	-23.74	-58.310	-23.814	87.808	-0.72549	0.66425	-0.12216	0.13205	31.4	13111	100
2025-3-27 15:21:9.316	WT901BLE68-01(48591DE3C19B)	-0.609	-0.981	0.327	10.071	47.729	47.852	-82.55	-5.51	-24.18	-58.310	-23.814	87.808	-0.72549	0.66425	-0.12216	0.13205	31.4	13111	100
2025-3-27 15:21:9.316	WT901BLE68-01(48591DE3C19B)	-0.305	-0.940	0.175	19.592	64.026	53.284	-82.25	-4.73	-24.75	-58.310	-23.814	87.808	-0.72549	0.66425	-0.12216	0.13205	31.4	13111	100
2025-3-27 15:21:9.317	WT901BLE68-01(48591DE3C19B)	-0.647	-0.470	0.087	19.592	64.026	53.284	-81.97	-3.95	-25.32	-58.310	-23.814	87.808	-0.72549	0.66425	-0.12216	0.13205	31.4	13111	100
2025-3-27 15:21:9.346	WT901BLE68-01(48591DE3C19B)	-0.647	-0.866	0.051	27.344	73.730	60.913	-81.62	-3.07	-25.96	-58.310	-23.814	87.808	-0.72549	0.66425	-0.12216	0.13205	31.4	13111	100
2025-3-27 15:21:9.346	WT901BLE68-01(48591DE3C19B)	-0.702	-0.866	0.051	27.344	73.730	60.913	-81.29	-2.19	-26.59	-58.310	-23.814	87.808	-0.72549	0.66425	-0.12216	0.13205	31.4	13111	100
2025-3-27 15:21:9.346	WT901BLE68-01(48591DE3C19B)	-0.702	-0.767	-0.066	29.358	71.289	65.918	-80.97	-1.26	-27.17	-58.310	-23.814	87.808	-0.72549	0.66425	-0.12216	0.13205	31.4	13111	100
2025-3-27 15:21:9.346	WT901BLE68-01(48591DE3C19B)	-0.718	-0.767	-0.066	29.358	71.289	65.918	-80.66	-0.31	-27.75	-58.310	-23.814	87.808	-0.72549	0.66425	-0.12216	0.13205	31.4	13111	100
2025-3-27 15:21:9.407	WT901BLE68-01(48591DE3C19B)	-0.718	-0.640	-0.148	29.663	59.509	66.284	-80.38	0.61	-28.19	-58.310	-23.814	87.808	-0.72549	0.66425	-0.12216	0.13205	31.4	13111	100
2025-3-27 15:21:9.407	WT901BLE68-01(48591DE3C19B)	-0.685	-0.640	-0.148	29.663	59.509	66.284	-80.11	1.55	-28.62	-58.310	-23.814	87.808	-0.72549	0.66425	-0.12216	0.13205	31.4	13111	100
2025-3-27 15:21:9.407	WT901BLE68-01(48591DE3C19B)	-0.685	-0.416	-0.136	30.884	43.091	68.359	-79.85	2.49	-28.87	-58.310	-23.814	87.808	-0.72549	0.66425	-0.12216	0.13205	31.4	13111	100
2025-3-27 15:21:9.407	WT901BLE68-01(48591DE3C19B)	-0.686	-0.416	-0.136	30.884	43.091	68.359	-79.60	3.43	-29.12	-58.310	-23.814	87.808	-0.72549	0.66425	-0.12216	0.13205	31.4	13111	100
2025-3-27 15:21:9.466	WT901BLE68-01(48591DE3C19B)	-0.686	-0.166	-0.104	21.362	22.400	71.350	-79.44	4.37	-29.15	-58.310	-23.814	87.808	-0.72549	0.66425	-0.12216	0.13205	31.4	13111	100
2025-3-27 15:21:9.466	WT901BLE68-01(48591DE3C19B)	-0.670	-0.166	-0.104	21.362	22.400	71.350	-79.29	5.33	-29.16	-58.310	-23.814	87.808	-0.72549	0.66425	-0.12216	0.13205	31.4	13111	100
2025-3-27 15:21:9.466	WT901BLE68-01(48591DE3C19B)	-0.670	-0.039	-0.109	-3.906	-9.338	70.801	-79.38	6.22	-28.86	-58.310	-23.814	87.808	-0.72549	0.66425	-0.12216	0.13205	31.4	13111	100
2025-3-27 15:21:9.466	WT901BLE68-01(48591DE3C19B)	-0.657	-0.039	-0.109	-3.906	-9.338	70.801	-79.48	7.14	-28.55	-58.310	-23.814	87.808	-0.75406	0.60651	-0.20511	0.14618	31.4	13111	100
2025-3-27 15:21:9.467	WT901BLE68-01(48591DE3C19B)	-0.657	0.016	-0.041	-10.010	-36.377	72.937	-79.59	8.03	-27.96	-58.310	-23.814	87.808	-0.75406	0.60651	-0.20511	0.14618	31.4	13111	100
2025-3-27 15:21:9.467	WT901BLE68-01(48591DE3C19B)	-0.793	0.016	-0.041	-10.010	-36.377	72.937	-79.71	8.94	-27.37	-58.310	-23.814	87.808	-0.75406	0.60651	-0.20511	0.14618	31.4	13111	100
2025-3-27 15:21:9.467	WT901BLE68-01(48591DE3C19B)	-0.933	0.154	-0.010	7.263	-49.866	84.717	-79.62	9.95	-26.60	-58.310	-23.814	87.808	-0.75406	0.60651	-0.20511	0.14618	31.4	13111	100
2025-3-27 15:21:9.467	WT901BLE68-01(48591DE3C19B)	-0.933	0.240	-0.162	-1.526	-74.829	111.450	-79.56	11.09	-25.68	-58.310	-23.814	87.808	-0.75406	0.60651	-0.20511	0.14618	31.4	13111	100
2025-3-27 15:21:9.588	WT901BLE68-01(48591DE3C19B)	-1.028	0.240	-0.162	-1.526	-74.829	111.450	-79.50	12.35	-24.59	-58.310	-23.814	87.808	-0.75406	0.60651	-0.20511	0.14618	31.4	13111	100
2025-3-27 15:21:9.588	WT901BLE68-01(48591DE3C19B)	-1.028	0.062	-0.429	-36.865	-95.154	152.954	-79.58	13.80	-23.36	-58.310	-23.814	87.808	-0.75406	0.60651	-0.20511	0.14618	31.4	13111	100
2025-3-27 15:21:9.588	WT901BLE68-01(48591DE3C19B)	-1.134	0.062	-0.429	-36.865	-95.154	152.954	-79.79	15.46	-21.99	-58.310	-23.814	87.808	-0.75406	0.60651	-0.20511	0.14618	31.4	13111	100
2025-3-27 15:21:9.588	WT901BLE68-01(48591DE3C19B)	-1.134	-0.318	-0.675	-63.538	-39.063	216.248	-80.17	17.47	-20.86	-58.310	-23.814	87.808	-0.75406	0.60651	-0.20511	0.14618	31.4	13111	100
2025-3-27 15:21:9.589	WT901BLE68-01(48591DE3C19B)	-1.645	-0.318	-0.675	-63.538	-39.063	216.248	-80.73	19.84	-20.00	-58.310	-23.814	87.808	-0.75406	0.60651	-0.20511	0.14618	31.4	13111	100
2025-3-27 15:21:9.589	WT901BLE68-01(48591DE3C19B)	-1.645	-0.699	-1.037	-114.929	81.848	284.668	-81.75	22.62	-19.76	-58.310	-23.814	87.808	-0.75406	0.60651	-0.20511	0.14618	31.4	13111	100
2025-3-27 15:21:9.589	WT901BLE68-01(48591DE3C19B)	-3.193	-0.699	-1.037	-114.929	81.848	284.668	-83.30	25.81	-20.21	-58.310	-23.814	87.808	-0.75406	0.60651	-0.20511	0.14618	31.4	13111	100
2025-3-27 15:21:9.589	WT901BLE68-01(48591DE3C19B)	-12.772	-1.588	-1.203	-190.857	179.077	372.620	-85.55	29.43	-21.30	-58.310	-23.814	87.808	-0.75406	0.60651	-0.20511	0.14618	31.4	13111	100
2025-3-27 15:21:9.589	WT901BLE68-01(48591DE3C19B)	-4.272	-6.355	-4.813	-190.857	179.077	372.620	-88.62	33.43	-23.16	-58.310	-23.814	87.808	-0.75406	0.60651	-0.20511	0.14618	31.4	13111	100
2025-3-27 15:21:9.589	WT901BLE68-01(48591DE3C19B)	-4.272	-2.940	-1.073	-275.879	83.069	427.368	-92.05	37.57	-24.79	-58.310	-23.814	87.808	-0.75406	0.60651	-0.20511	0.14618	31.4	13111	100
2025-3-27 15:21:9.589	WT901BLE68-01(48591DE3C19B)	-3.963	-2.940	-1.073	-275.879	83.069	427.368	-95.89	41.89	-26.24	-58.310	-23.814	87.808	-0.75406	0.60651	-0.20511	0.14618	31.4	13111	100
2025-3-27 15:21:9.589	WT901BLE68-01(48591DE3C19B)	-3.963	-4.036	-1.222	-307.007	-39.673	448.975	-99.71	46.29	-27.36	-58.310	-23.814	87.808	-0.75406	0.60651	-0.20511	0.14618	31.4	13111	100
2025-3-27 15:21:9.646	WT901BLE68-01(48591DE3C19B)	-2.854	-4.036	-1.222	-307.007	-39.673	448.975	-103.45	50.80	-28.11	-58.310	-23.814	87.808	-0.75406	0.60651	-0.20511	0.14618	31.4	13111	100
2025-3-27 15:21:9.646	WT901BLE68-01(48591DE3C19B)	-2.854	-3.894	-1.404	-262.939	-107.971	436.523	-106.96	55.27	-28.85	-58.310	-23.814	87.808	-0.75406	0.60651	-0.20511	0.14618	31.4	13111	100
2025-3-27 15:21:9.646	WT901BLE68-01(48591DE3C19B)	-1.724	-3.894	-1.404	-262.939	-107.971	436.523	-110.21	59.70	-29.51	-58.310	-23.814	87.808	-0.75406	0.60651	-0.20511	0.14618	31.4	13111	100
2025-3-27 15:21:9.646	WT901BLE68-01(48591DE3C19B)	-1.724	-3.294	-1.208	-237.488	-147.888	415.161	-113.47	64.05	-30.33	-58.310	-23.814	87.808	-0.75406	0.60651	-0.20511	0.14618	31.4	13111	100
2025-3-27 15:21:9.675	WT901BLE68-01(48591DE3C19B)	-0.937	-3.294	-1.208	-237.488	-147.888	415.161	-116.78	68.31	-31.33	-63.210	-38.514	81.536	-0.75406	0.60651	-0.20511	0.14618	31.4	13111	100
2025-3-27 15:21:9.676	WT901BLE68-01(48591DE3C19B)	-0.937	-2.765	-0.798	-203.552	-171.631	369.324	-120.21	72.37	-32.63	-63.210	-38.514	81.536	-0.75406	0.60651	-0.20511	0.14618	31.4	13111	100
2025-3-27 15:21:9.676	WT901BLE68-01(48591DE3C19B)	-0.546	-2.765	-0.798	-203.552	-171.631	369.324	-123.89	76.22	-34.35	-63.210	-38.514	81.536	-0.75406	0.60651	-0.20511	0.14618	31.4	13111	100
2025-3-27 15:21:9.676	WT901BLE68-01(48591DE3C19B)	-0.546	-2.241	-0.522	-177.490	-206.421	313.599	-127.68	79.88	-36.30	-63.210	-38.514	81.536	-0.75406	0.60651	-0.20511	0.14618	31.4	13111	100
2025-3-27 15:21:9.705	WT901BLE68-01(48591DE3C19B)	-0.416	-2.241	-0.522	-177.490	-206.421	313.599	-131.72	83.37	-38.62	-63.210	-38.514	81.536	-0.75406	0.60651	-0.20511	0.14618	31.4	13111	100
2025-3-27 15:21:9.705	WT901BLE68-01(48591DE3C19B)	-0.416	-1.900	-0.373	-155.823	-250.854	248.169	-135.43	86.72	-40.73	-63.210	-38.514	81.536	-0.75406	0.60651	-0.20511	0.14618	31.4	13111	100
2025-3-27 15:21:9.705	WT901BLE68-01(48591DE3C19B)	-0.086	-1.900	-0.373	-155.823	-250.854	248.169	-77.18	89.92	19.01	-63.210	-38.514	81.536	-0.75406	0.60651	-0.20511	0.14618	31.4	13111	100
2025-3-27 15:21:9.705	WT901BLE68-01(48591DE3C19B)	-0.086	-1.551	-0.197	-121.033	-271.790	181.763	35.07	86.94	132.59	-63.210	-38.514	81.536	-0.75406	0.60651	-0.20511	0.14618	31.4	13111	100
2025-3-27 15:21:9.766	WT901BLE68-01(48591DE3C19B)	0.504	-1.551	-0.197	-121.033	-271.790	181.763	31.93	83.97	130.59	-63.210	-38.514	81.536	-0.75406	0.60651	-0.20511	0.14618	31.4	13111	100
2025-3-27 15:21:9.766	WT901BLE68-01(48591DE3C19B)	0.504	-1.144	-0.051	-103.455	-255.188	129.272	29.34	81.23	129.05	-63.210	-38.514	81.536	-0.75406	0.60651	-0.20511	0.14618	31.4	13111	100
2025-3-27 15:21:9.766	WT901BLE68-01(48591DE3C19B)	1.084	-1.144	-0.051	-103.455	-255.188	129.272	26.82	78.71	127.47	-63.210	-38.514	81.536	-0.75406	0.60651	-0.20511	0.14618	31.4	13111	100
2025-3-27 15:21:9.766	WT901BLE68-01(48591DE3C19B)	1.084	-0.888	-0.036	-114.136	-179.260	81.116	24.73	76.64	126.37	-63.210	-38.514	81.536	-0.75406	0.60651	-0.20511	0.14618	31.4	13111	100
2025-3-27 15:21:9.796	WT901BLE68-01(48591DE3C19B)	1.262	-0.888	-0.036	-114.136	-179.260	81.116	22.74	75.04	125.41	-63.210	-38.514	81.536	-0.75406	0.60651	-0.20511	0.14618	31.4	13111	100
2025-3-27 15:21:9.796	WT901BLE68-01(48591DE3C19B)	1.262	-0.905	-0.041	-138.977	-50.720	46.448	21.13	74.11	124.97	-63.210	-38.514	81.536	-0.75406	0.60651	-0.20511	0.14618	31.4	13111	100
2025-3-27 15:21:9.796	WT901BLE68-01(48591DE3C19B)	1.157	-0.905	-0.041	-138.977	-50.720	46.448	19.71	73.86	124.84	-63.210	-38.514	81.536	-0.75406	0.60651	-0.20511	0.14618	31.4	13111	100
2025-3-27 15:21:9.796	WT901BLE68-01(48591DE3C19B)	1.157	-1.076	-0.011	-136.963	30.518	11.963	18.18	74.06	124.57	-63.210	-38.514	81.536	-0.75406	0.60651	-0.20511	0.14618	31.4	13111	100
2025-3-27 15:21:9.827	WT901BLE68-01(48591DE3C19B)	1.094	-1.076	-0.011	-136.963	30.518	11.963	16.47	74.73	124.11	-63.210	-38.514	81.536	-0.75406	0.60651	-0.20511	0.14618	31.4	13111	100
2025-3-27 15:21:9.827	WT901BLE68-01(48591DE3C19B)	1.094	-1.085	0.104	-110.718	62.683	-20.935	14.34	75.60	123.06	-63.210	-38.514	81.536	-0.75406	0.60651	-0.20511	0.14618	31.4	13111	100
2025-3-27 15:21:9.828	WT901BLE68-01(48591DE3C19B)	0.895	-1.085	0.104	-110.718	62.683	-20.935	11.61	76.66	121.25	-63.210	-38.514	81.536	-0.75406	0.60651	-0.20511	0.14618	31.4	13111	100
2025-3-27 15:21:9.828	WT901BLE68-01(48591DE3C19B)	0.895	-1.074	0.161	-87.341	79.773	-77.637	7.36	77.84	117.76	-63.210	-38.514	81.536	-0.75406	0.60651	-0.20511	0.14618	31.4	13111	100
2025-3-27 15:21:9.891	WT901BLE68-01(48591DE3C19B)	0.611	-1.074	0.161	-87.341	79.773	-77.637	1.01	79.05	112.02	-63.210	-38.514	81.536	-0.75406	0.60651	-0.20511	0.14618	31.4	13111	100
2025-3-27 15:21:9.891	WT901BLE68-01(48591DE3C19B)	0.611	-1.204	0.211	-59.814	81.299	-144.104	-8.49	80.09	102.95	-63.210	-38.514	81.536	-0.43817	0.53726	-0.35526	-0.62692	31.4	13111	100
2025-3-27 15:21:9.891	WT901BLE68-01(48591DE3C19B)	0.686	-1.204	0.211	-59.814	81.299	-144.104	-21.56	80.71	90.15	-63.210	-38.514	81.536	-0.43817	0.53726	-0.35526	-0.62692	31.4	13111	100
2025-3-27 15:21:9.891	WT901BLE68-01(48591DE3C19B)	0.686	-1.387	0.250	-4.761	98.267	-204.407	-37.16	80.71	74.50	-63.210	-38.514	81.536	-0.43817	0.53726	-0.35526	-0.62692	31.4	13111	100
2025-3-27 15:21:9.946	WT901BLE68-01(48591DE3C19B)	0.770	-1.387	0.250	-4.761	98.267	-204.407	-52.84	79.87	58.47	-63.210	-38.514	81.536	-0.43817	0.53726	-0.35526	-0.62692	31.4	13111	100
2025-3-27 15:21:9.947	WT901BLE68-01(48591DE3C19B)	0.770	-1.517	0.256	74.890	150.146	-245.605	-66.48	78.33	44.06	-63.210	-38.514	81.536	-0.43817	0.53726	-0.35526	-0.62692	31.4	13111	100
2025-3-27 15:21:9.947	WT901BLE68-01(48591DE3C19B)	0.564	-1.517	0.256	74.890	150.146	-245.605	-77.25	76.14	32.07	-63.210	-38.514	81.536	-0.43817	0.53726	-0.35526	-0.62692	31.4	13111	100
2025-3-27 15:21:9.947	WT901BLE68-01(48591DE3C19B)	0.564	-1.788	0.209	151.672	228.943	-279.602	-85.69	73.43	21.98	-63.210	-38.514	81.536	-0.43817	0.53726	-0.35526	-0.62692	31.4	13111	100
2025-3-27 15:21:9.947	WT901BLE68-01(48591DE3C19B)	0.211	-1.788	0.209	151.672	228.943	-279.602	-92.14	70.25	13.44	-63.210	-38.514	81.536	-0.43817	0.53726	-0.35526	-0.62692	31.4	13111	100
2025-3-27 15:21:9.947	WT901BLE68-01(48591DE3C19B)	0.211	-2.273	-0.117	240.723	341.064	-290.588	-98.16	66.61	4.21	-63.210	-38.514	81.536	-0.43817	0.53726	-0.35526	-0.62692	31.4	13111	100
2025-3-27 15:21:9.947	WT901BLE68-01(48591DE3C19B)	-0.987	-2.273	-0.117	240.723	341.064	-290.588	-102.04	62.72	-2.89	-63.210	-38.514	81.536	-0.43817	0.53726	-0.35526	-0.62692	31.4	13111	100
2025-3-27 15:21:9.948	WT901BLE68-01(48591DE3C19B)	-0.987	-2.849	-1.268	362.793	424.683	-262.817	-104.82	58.77	-10.38	-63.210	-38.514	81.536	-0.43817	0.53726	-0.35526	-0.62692	31.4	13111	100
2025-3-27 15:21:10.6	WT901BLE68-01(48591DE3C19B)	-3.390	-2.849	-1.268	362.793	424.683	-262.817	-106.40	54.73	-16.73	-63.210	-38.514	81.536	-0.43817	0.53726	-0.35526	-0.62692	31.4	13111	100
2025-3-27 15:21:10.6	WT901BLE68-01(48591DE3C19B)	-3.390	-2.904	-1.908	510.315	307.007	-237.366	-104.42	51.34	-20.70	-63.210	-38.514	81.536	-0.43817	0.53726	-0.35526	-0.62692	31.4	13111	100
2025-3-27 15:21:10.6	WT901BLE68-01(48591DE3C19B)	-3.862	-2.904	-1.908	510.315	307.007	-237.366	-102.23	48.10	-24.55	-63.210	-38.514	81.536	-0.43817	0.53726	-0.35526	-0.62692	31.4	13111	100
2025-3-27 15:21:10.6	WT901BLE68-01(48591DE3C19B)	-3.862	-1.699	-1.299	450.623	112.488	-183.594	-98.62	45.93	-25.72	-63.210	-38.514	81.536	-0.43817	0.53726	-0.35526	-0.62692	31.4	13111	100
2025-3-27 15:21:10.35	WT901BLE68-01(48591DE3C19B)	-3.696	-1.699	-1.299	450.623	112.488	-183.594	-95.10	43.87	-27.02	-63.210	-38.514	81.536	-0.43817	0.53726	-0.35526	-0.62692	31.4	13111	100
2025-3-27 15:21:10.35	WT901BLE68-01(48591DE3C19B)	-3.696	-1.575	-0.819	320.251	209.412	-67.200	-93.92	42.97	-29.83	-63.210	-38.514	81.536	-0.43817	0.53726	-0.35526	-0.62692	31.4	13111	100
2025-3-27 15:21:10.35	WT901BLE68-01(48591DE3C19B)	-3.393	-1.575	-0.819	320.251	209.412	-67.200	-92.71	42.14	-32.60	-63.210	-38.514	81.536	-0.43817	0.53726	-0.35526	-0.62692	31.4	13111	100
2025-3-27 15:21:10.36	WT901BLE68-01(48591DE3C19B)	-3.393	-1.094	-1.212	258.789	233.887	18.066	-92.36	42.21	-35.72	-65.660	-34.398	79.772	-0.43817	0.53726	-0.35526	-0.62692	31.4	13111	100
2025-3-27 15:21:10.65	WT901BLE68-01(48591DE3C19B)	-2.179	-1.094	-1.212	258.789	233.887	18.066	-92.03	42.31	-38.84	-65.660	-34.398	79.772	-0.43817	0.53726	-0.35526	-0.62692	31.4	13111	100
2025-3-27 15:21:10.65	WT901BLE68-01(48591DE3C19B)	-2.179	-0.466	-1.603	214.050	173.035	38.940	-91.64	42.66	-41.15	-65.660	-34.398	79.772	-0.43817	0.53726	-0.35526	-0.62692	31.4	13111	100
2025-3-27 15:21:10.65	WT901BLE68-01(48591DE3C19B)	-1.993	-0.466	-1.603	214.050	173.035	38.940	-91.28	43.02	-43.47	-65.660	-34.398	79.772	-0.43817	0.53726	-0.35526	-0.62692	31.4	13111	100
2025-3-27 15:21:10.65	WT901BLE68-01(48591DE3C19B)	-1.993	0.128	-1.525	168.762	107.605	40.894	-90.81	43.44	-44.91	-65.660	-34.398	79.772	-0.43817	0.53726	-0.35526	-0.62692	31.4	13111	100
2025-3-27 15:21:10.126	WT901BLE68-01(48591DE3C19B)	-1.827	0.128	-1.525	168.762	107.605	40.894	-90.37	43.87	-46.37	-65.660	-34.398	79.772	-0.43817	0.53726	-0.35526	-0.62692	31.4	13111	100
2025-3-27 15:21:10.126	WT901BLE68-01(48591DE3C19B)	-1.827	0.284	-1.167	94.177	29.785	62.012	-89.96	44.54	-46.76	-65.660	-34.398	79.772	-0.43817	0.53726	-0.35526	-0.62692	31.4	13111	100
2025-3-27 15:21:10.126	WT901BLE68-01(48591DE3C19B)	-1.378	0.284	-1.167	94.177	29.785	62.012	-89.58	45.21	-47.16	-65.660	-34.398	79.772	-0.43817	0.53726	-0.35526	-0.62692	31.4	13111	100
2025-3-27 15:21:10.126	WT901BLE68-01(48591DE3C19B)	-1.378	0.212	-0.793	62.500	-61.523	72.693	-88.58	45.98	-46.25	-65.660	-34.398	79.772	-0.43817	0.53726	-0.35526	-0.62692	31.4	13111	100
2025-3-27 15:21:10.155	WT901BLE68-01(48591DE3C19B)	-0.798	0.212	-0.793	62.500	-61.523	72.693	-87.58	46.75	-45.33	-65.660	-34.398	79.772	-0.43817	0.53726	-0.35526	-0.62692	31.4	13111	100
2025-3-27 15:21:10.155	WT901BLE68-01(48591DE3C19B)	-0.798	0.326	-0.595	61.096	-112.854	69.275	-86.02	47.45	-43.64	-65.660	-34.398	79.772	-0.43817	0.53726	-0.35526	-0.62692	31.4	13111	100
2025-3-27 15:21:10.155	WT901BLE68-01(48591DE3C19B)	-0.197	0.326	-0.595	61.096	-112.854	69.275	-84.44	48.12	-41.92	-65.660	-34.398	79.772	-0.43817	0.53726	-0.35526	-0.62692	31.4	13111	100
2025-3-27 15:21:10.155	WT901BLE68-01(48591DE3C19B)	-0.197	0.455	-0.468	66.589	-94.055	60.059	-82.99	48.70	-40.46	-65.660	-34.398	79.772	-0.43817	0.53726	-0.35526	-0.62692	31.4	13111	100
2025-3-27 15:21:10.217	WT901BLE68-01(48591DE3C19B)	0.266	0.455	-0.468	66.589	-94.055	60.059	-81.52	49.26	-39.00	-65.660	-34.398	79.772	-0.43817	0.53726	-0.35526	-0.62692	31.4	13111	100
2025-3-27 15:21:10.217	WT901BLE68-01(48591DE3C19B)	0.266	0.611	-0.336	63.477	-36.865	57.922	-80.75	49.87	-38.39	-65.660	-34.398	79.772	-0.43817	0.53726	-0.35526	-0.62692	31.4	13111	100
2025-3-27 15:21:10.217	WT901BLE68-01(48591DE3C19B)	0.511	0.611	-0.336	63.477	-36.865	57.922	-79.99	50.48	-37.79	-65.660	-34.398	79.772	-0.43817	0.53726	-0.35526	-0.62692	31.4	13111	100
2025-3-27 15:21:10.217	WT901BLE68-01(48591DE3C19B)	0.511	0.797	-0.278	36.804	33.264	59.326	-80.35	51.23	-38.29	-65.660	-34.398	79.772	-0.43817	0.53726	-0.35526	-0.62692	31.4	13111	100
2025-3-27 15:21:10.245	WT901BLE68-01(48591DE3C19B)	0.506	0.797	-0.278	36.804	33.264	59.326	-80.77	51.99	-38.85	-65.660	-34.398	79.772	-0.43817	0.53726	-0.35526	-0.62692	31.4	13111	100
2025-3-27 15:21:10.245	WT901BLE68-01(48591DE3C19B)	0.506	0.811	-0.156	-13.794	102.173	72.632	-82.62	52.99	-40.56	-65.660	-34.398	79.772	-0.43817	0.53726	-0.35526	-0.62692	31.4	13111	100
2025-3-27 15:21:10.245	WT901BLE68-01(48591DE3C19B)	0.407	0.811	-0.156	-13.794	102.173	72.632	-84.61	53.96	-42.40	-65.660	-34.398	79.772	-0.43817	0.53726	-0.35526	-0.62692	31.4	13111	100
2025-3-27 15:21:10.246	WT901BLE68-01(48591DE3C19B)	0.407	0.935	-0.146	-27.832	135.376	46.204	-87.37	54.66	-44.98	-65.660	-34.398	79.772	-0.70969	0.44080	-0.54739	-0.04776	31.4	13111	100
2025-3-27 15:21:10.275	WT901BLE68-01(48591DE3C19B)	0.259	0.935	-0.146	-27.832	135.376	46.204	-90.26	55.32	-47.70	-65.660	-34.398	79.772	-0.70969	0.44080	-0.54739	-0.04776	31.4	13111	100
2025-3-27 15:21:10.275	WT901BLE68-01(48591DE3C19B)	0.259	0.931	-0.104	-72.815	148.804	37.842	-93.93	55.81	-50.78	-65.660	-34.398	79.772	-0.70969	0.44080	-0.54739	-0.04776	31.4	13111	100
2025-3-27 15:21:10.275	WT901BLE68-01(48591DE3C19B)	0.115	0.931	-0.104	-72.815	148.804	37.842	-97.71	56.22	-53.98	-65.660	-34.398	79.772	-0.70969	0.44080	-0.54739	-0.04776	31.4	13111	100
2025-3-27 15:21:10.275	WT901BLE68-01(48591DE3C19B)	0.115	0.803	-0.104	-113.159	147.034	28.320	-101.91	56.43	-57.19	-65.660	-34.398	79.772	-0.70969	0.44080	-0.54739	-0.04776	31.4	13111	100
2025-3-27 15:21:10.336	WT901BLE68-01(48591DE3C19B)	-0.142	0.803	-0.104	-113.159	147.034	28.320	-106.16	56.52	-60.44	-65.660	-34.398	79.772	-0.70969	0.44080	-0.54739	-0.04776	31.4	13111	100
2025-3-27 15:21:10.336	WT901BLE68-01(48591DE3C19B)	-0.142	0.595	-0.331	-147.766	145.325	21.057	-110.69	56.41	-63.62	-65.660	-34.398	79.772	-0.70969	0.44080	-0.54739	-0.04776	31.4	13111	100
2025-3-27 15:21:10.336	WT901BLE68-01(48591DE3C19B)	-0.823	0.595	-0.331	-147.766	145.325	21.057	-115.16	56.17	-66.74	-65.660	-34.398	79.772	-0.70969	0.44080	-0.54739	-0.04776	31.4	13111	100
2025-3-27 15:21:10.336	WT901BLE68-01(48591DE3C19B)	-0.823	0.413	-0.975	-192.261	120.056	16.052	-119.61	55.85	-69.30	-65.660	-34.398	79.772	-0.70969	0.44080	-0.54739	-0.04776	31.4	13111	100
2025-3-27 15:21:10.365	WT901BLE68-01(48591DE3C19B)	-2.703	0.413	-0.975	-192.261	120.056	16.052	-123.91	55.42	-71.74	-65.660	-34.398	79.772	-0.70969	0.44080	-0.54739	-0.04776	31.4	13111	100
2025-3-27 15:21:10.365	WT901BLE68-01(48591DE3C19B)	-2.703	0.194	-1.138	-305.176	63.599	41.138	-128.72	55.40	-73.42	-65.660	-34.398	79.772	-0.70969	0.44080	-0.54739	-0.04776	31.4	13111	100
2025-3-27 15:21:10.365	WT901BLE68-01(48591DE3C19B)	-4.198	0.194	-1.138	-305.176	63.599	41.138	-133.39	55.34	-74.99	-65.660	-34.398	79.772	-0.70969	0.44080	-0.54739	-0.04776	31.4	13111	100
2025-3-27 15:21:10.366	WT901BLE68-01(48591DE3C19B)	-4.198	-0.497	-1.451	-317.993	-69.153	163.208	-138.02	57.01	-76.37	-65.660	-34.398	79.772	-0.70969	0.44080	-0.54739	-0.04776	31.4	13111	100
2025-3-27 15:21:10.395	WT901BLE68-01(48591DE3C19B)	-4.568	-0.497	-1.451	-317.993	-69.153	163.208	-142.82	58.61	-77.98	-65.660	-34.398	79.772	-0.70969	0.44080	-0.54739	-0.04776	31.4	13111	100
2025-3-27 15:21:10.395	WT901BLE68-01(48591DE3C19B)	-4.329	-1.160	-1.841	-358.704	-15.930	237.610	-149.84	60.08	-81.71	-65.660	-34.398	79.772	-0.70969	0.44080	-0.54739	-0.04776	31.4	13111	100
2025-3-27 15:21:10.396	WT901BLE68-01(48591DE3C19B)	-4.329	-1.654	-1.760	-328.186	-5.371	283.203	-157.50	61.34	-86.34	-65.660	-34.398	79.772	-0.70969	0.44080	-0.54739	-0.04776	31.4	13111	100
2025-3-27 15:21:10.396	WT901BLE68-01(48591DE3C19B)	-2.664	-1.654	-1.760	-328.186	-5.371	283.203	-165.82	62.30	-91.88	-65.660	-34.398	79.772	-0.70969	0.44080	-0.54739	-0.04776	31.4	13111	100
2025-3-27 15:21:10.455	WT901BLE68-01(48591DE3C19B)	-2.664	-1.765	-1.619	-310.547	10.742	271.790	-174.24	62.76	-97.64	-65.660	-34.398	79.772	-0.70969	0.44080	-0.54739	-0.04776	31.4	13111	100
2025-3-27 15:21:10.456	WT901BLE68-01(48591DE3C19B)	-1.687	-1.765	-1.619	-310.547	10.742	271.790	177.48	62.75	-103.33	-65.660	-34.398	79.772	-0.70969	0.44080	-0.54739	-0.04776	31.4	13111	100
2025-3-27 15:21:10.456	WT901BLE68-01(48591DE3C19B)	-1.687	-1.382	-1.083	-235.352	51.331	227.966	170.24	62.21	-108.34	-65.660	-34.398	79.772	-0.70969	0.44080	-0.54739	-0.04776	31.4	13111	100
2025-3-27 15:21:10.456	WT901BLE68-01(48591DE3C19B)	-1.232	-1.382	-1.083	-235.352	51.331	227.966	164.21	61.25	-112.46	-65.660	-34.398	79.772	-0.70969	0.44080	-0.54739	-0.04776	31.4	13111	100
2025-3-27 15:21:10.490	WT901BLE68-01(48591DE3C19B)	-1.232	-0.891	-0.397	-234.497	14.893	167.603	158.96	60.39	-115.75	-82.222	-33.026	78.008	-0.70969	0.44080	-0.54739	-0.04776	31.4	13111	100
2025-3-27 15:21:10.490	WT901BLE68-01(48591DE3C19B)	-0.637	-0.891	-0.397	-234.497	14.893	167.603	154.34	59.68	-118.36	-82.222	-33.026	78.008	-0.70969	0.44080	-0.54739	-0.04776	31.4	13111	100
2025-3-27 15:21:10.491	WT901BLE68-01(48591DE3C19B)	-0.637	-0.835	-0.029	-234.314	-68.970	101.135	150.06	59.40	-120.61	-82.222	-33.026	78.008	-0.70969	0.44080	-0.54739	-0.04776	31.4	13111	100
2025-3-27 15:21:10.491	WT901BLE68-01(48591DE3C19B)	-0.006	-0.835	-0.029	-234.314	-68.970	101.135	145.98	59.58	-122.65	-82.222	-33.026	78.008	-0.70969	0.44080	-0.54739	-0.04776	31.4	13111	100
2025-3-27 15:21:10.515	WT901BLE68-01(48591DE3C19B)	-0.006	-0.630	0.124	-201.599	-139.709	46.570	142.06	60.13	-124.69	-82.222	-33.026	78.008	-0.70969	0.44080	-0.54739	-0.04776	31.4	13111	100
2025-3-27 15:21:10.516	WT901BLE68-01(48591DE3C19B)	0.518	-0.630	0.124	-201.599	-139.709	46.570	138.21	61.06	-126.85	-82.222	-33.026	78.008	-0.70969	0.44080	-0.54739	-0.04776	31.4	13111	100
2025-3-27 15:21:10.516	WT901BLE68-01(48591DE3C19B)	0.518	-0.503	0.128	-210.693	-150.452	-4.272	134.43	62.13	-128.88	-82.222	-33.026	78.008	-0.70969	0.44080	-0.54739	-0.04776	31.4	13111	100
2025-3-27 15:21:10.516	WT901BLE68-01(48591DE3C19B)	0.812	-0.503	0.128	-210.693	-150.452	-4.272	130.70	63.36	-130.79	-82.222	-33.026	78.008	-0.70969	0.44080	-0.54739	-0.04776	31.4	13111	100
2025-3-27 15:21:10.575	WT901BLE68-01(48591DE3C19B)	0.812	-0.875	0.184	-241.760	-128.784	-68.298	127.20	64.71	-132.27	-82.222	-33.026	78.008	-0.70969	0.44080	-0.54739	-0.04776	31.4	13111	100
2025-3-27 15:21:10.575	WT901BLE68-01(48591DE3C19B)	1.261	-0.875	0.184	-241.760	-128.784	-68.298	123.98	66.23	-133.30	-82.222	-33.026	78.008	-0.70969	0.44080	-0.54739	-0.04776	31.4	13111	100
2025-3-27 15:21:10.576	WT901BLE68-01(48591DE3C19B)	1.261	-1.278	0.190	-168.274	-112.122	-137.146	121.57	67.97	-133.85	-82.222	-33.026	78.008	-0.70969	0.44080	-0.54739	-0.04776	31.4	13111	100
2025-3-27 15:21:10.576	WT901BLE68-01(48591DE3C19B)	1.318	-1.278	0.190	-168.274	-112.122	-137.146	120.15	69.96	-133.79	-82.222	-33.026	78.008	-0.70969	0.44080	-0.54739	-0.04776	31.4	13111	100
2025-3-27 15:21:10.605	WT901BLE68-01(48591DE3C19B)	1.318	-1.121	0.307	-70.435	-63.110	-170.898	120.15	71.98	-132.77	-82.222	-33.026	78.008	-0.70969	0.44080	-0.54739	-0.04776	31.4	13111	100
2025-3-27 15:21:10.605	WT901BLE68-01(48591DE3C19B)	0.968	-1.121	0.307	-70.435	-63.110	-170.898	122.03	74.03	-130.34	-82.222	-33.026	78.008	-0.70969	0.44080	-0.54739	-0.04776	31.4	13111	100
2025-3-27 15:21:10.606	WT901BLE68-01(48591DE3C19B)	0.968	-1.091	0.342	-40.710	-19.775	-202.698	125.90	76.04	-126.04	-82.222	-33.026	78.008	-0.70969	0.44080	-0.54739	-0.04776	31.4	13111	100
2025-3-27 15:21:10.606	WT901BLE68-01(48591DE3C19B)	0.770	-1.091	0.342	-40.710	-19.775	-202.698	132.62	77.92	-119.00	-82.222	-33.026	78.008	-0.70969	0.44080	-0.54739	-0.04776	31.4	13111	100
2025-3-27 15:21:10.636	WT901BLE68-01(48591DE3C19B)	0.770	-1.332	0.212	12.390	-2.625	-244.324	143.23	79.62	-108.32	-82.222	-33.026	78.008	-0.70969	0.44080	-0.54739	-0.04776	31.4	13111	100
2025-3-27 15:21:10.636	WT901BLE68-01(48591DE3C19B)	0.581	-1.332	0.212	12.390	-2.625	-244.324	158.99	80.82	-92.74	-82.222	-33.026	78.008	-0.70969	0.44080	-0.54739	-0.04776	31.4	13111	100
2025-3-27 15:21:10.636	WT901BLE68-01(48591DE3C19B)	0.581	-1.418	0.080	80.078	11.230	-276.123	178.97	81.11	-73.25	-82.222	-33.026	78.008	-0.70969	0.44080	-0.54739	-0.04776	31.4	13111	100
2025-3-27 15:21:10.637	WT901BLE68-01(48591DE3C19B)	0.316	-1.418	0.080	80.078	11.230	-276.123	-161.03	80.22	-54.06	-82.222	-33.026	78.008	-0.70969	0.44080	-0.54739	-0.04776	31.4	13111	100
2025-3-27 15:21:10.695	WT901BLE68-01(48591DE3C19B)	0.316	-1.518	-0.012	135.437	12.878	-299.622	-145.01	78.36	-39.11	-82.222	-33.026	78.008	-0.70969	0.44080	-0.54739	-0.04776	31.4	13111	100
2025-3-27 15:21:10.695	WT901BLE68-01(48591DE3C19B)	0.246	-1.518	-0.012	135.437	12.878	-299.622	-133.27	75.82	-28.70	-82.222	-33.026	78.008	-0.45349	0.64514	-0.40991	-0.45825	31.4	13111	100
2025-3-27 15:21:10.695	WT901BLE68-01(48591DE3C19B)	0.246	-1.625	-0.065	190.918	26.123	-315.674	-124.85	72.82	-21.87	-82.222	-33.026	78.008	-0.45349	0.64514	-0.40991	-0.45825	31.4	13111	100
2025-3-27 15:21:10.696	WT901BLE68-01(48591DE3C19B)	0.018	-1.625	-0.065	190.918	26.123	-315.674	-118.55	69.52	-17.45	-82.222	-33.026	78.008	-0.45349	0.64514	-0.40991	-0.45825	31.4	13111	100
2025-3-27 15:21:10.725	WT901BLE68-01(48591DE3C19B)	0.018	-1.713	-0.010	246.948	101.746	-316.406	-114.25	65.96	-15.38	-82.222	-33.026	78.008	-0.45349	0.64514	-0.40991	-0.45825	31.4	13111	100
2025-3-27 15:21:10.726	WT901BLE68-01(48591DE3C19B)	-1.098	-1.713	-0.010	246.948	101.746	-316.406	-111.17	62.22	-14.89	-82.222	-33.026	78.008	-0.45349	0.64514	-0.40991	-0.45825	31.4	13111	100
2025-3-27 15:21:10.726	WT901BLE68-01(48591DE3C19B)	-1.098	-2.000	-0.159	274.841	217.896	-301.514	-109.28	58.38	-15.91	-82.222	-33.026	78.008	-0.45349	0.64514	-0.40991	-0.45825	31.4	13111	100
2025-3-27 15:21:10.726	WT901BLE68-01(48591DE3C19B)	-3.609	-2.000	-0.159	274.841	217.896	-301.514	-108.14	54.48	-18.02	-82.222	-33.026	78.008	-0.45349	0.64514	-0.40991	-0.45825	31.4	13111	100
2025-3-27 15:21:10.755	WT901BLE68-01(48591DE3C19B)	-3.609	-3.134	-0.807	295.166	247.803	-265.320	-107.01	50.78	-20.35	-82.222	-33.026	78.008	-0.45349	0.64514	-0.40991	-0.45825	31.4	13111	100
2025-3-27 15:21:10.755	WT901BLE68-01(48591DE3C19B)	-4.396	-3.134	-0.807	295.166	247.803	-265.320	-105.87	47.34	-22.87	-82.222	-33.026	78.008	-0.45349	0.64514	-0.40991	-0.45825	31.4	13111	100
2025-3-27 15:21:10.755	WT901BLE68-01(48591DE3C19B)	-4.396	-2.502	-1.348	357.300	133.789	-168.518	-103.88	44.61	-24.71	-82.222	-33.026	78.008	-0.45349	0.64514	-0.40991	-0.45825	31.4	13111	100
2025-3-27 15:21:10.755	WT901BLE68-01(48591DE3C19B)	-3.968	-2.502	-1.348	357.300	133.789	-168.518	-101.19	42.60	-26.01	-82.222	-33.026	78.008	-0.45349	0.64514	-0.40991	-0.45825	31.4	13111	100
2025-3-27 15:21:10.816	WT901BLE68-01(48591DE3C19B)	-3.968	-1.614	-0.819	267.700	193.970	-48.828	-99.34	41.22	-27.89	-82.222	-33.026	78.008	-0.45349	0.64514	-0.40991	-0.45825	31.4	13111	100
2025-3-27 15:21:10.816	WT901BLE68-01(48591DE3C19B)	-3.313	-1.614	-0.819	267.700	193.970	-48.828	-98.29	40.44	-30.29	-82.222	-33.026	78.008	-0.45349	0.64514	-0.40991	-0.45825	31.4	13111	100
2025-3-27 15:21:10.817	WT901BLE68-01(48591DE3C19B)	-3.313	-1.458	-0.761	228.210	257.935	40.588	-97.73	40.11	-33.15	-82.222	-33.026	78.008	-0.45349	0.64514	-0.40991	-0.45825	31.4	13111	100
2025-3-27 15:21:10.817	WT901BLE68-01(48591DE3C19B)	-2.533	-1.458	-0.761	228.210	257.935	40.588	-97.71	40.21	-36.50	-82.222	-33.026	78.008	-0.45349	0.64514	-0.40991	-0.45825	31.4	13111	100
2025-3-27 15:21:10.875	WT901BLE68-01(48591DE3C19B)	-2.533	-0.736	-0.733	216.858	211.365	77.515	-97.58	40.53	-39.56	-82.222	-33.026	78.008	-0.45349	0.64514	-0.40991	-0.45825	31.4	13111	100
2025-3-27 15:21:10.876	WT901BLE68-01(48591DE3C19B)	-2.031	-0.736	-0.733	216.858	211.365	77.515	-97.38	41.08	-42.37	-82.222	-33.026	78.008	-0.45349	0.64514	-0.40991	-0.45825	31.4	13111	100
2025-3-27 15:21:10.876	WT901BLE68-01(48591DE3C19B)	-2.031	-0.055	-0.777	176.025	117.920	77.515	-97.02	41.70	-44.57	-82.222	-33.026	78.008	-0.45349	0.64514	-0.40991	-0.45825	31.4	13111	100
2025-3-27 15:21:10.876	WT901BLE68-01(48591DE3C19B)	-1.563	-0.055	-0.777	176.025	117.920	77.515	-96.50	42.40	-46.17	-69.972	-24.500	76.734	-0.45349	0.64514	-0.40991	-0.45825	31.4	13111	100
2025-3-27 15:21:10.877	WT901BLE68-01(48591DE3C19B)	-1.563	0.229	-0.755	119.324	48.157	80.139	-95.98	43.16	-47.31	-69.972	-24.500	76.734	-0.45349	0.64514	-0.40991	-0.45825	31.4	13111	100
2025-3-27 15:21:10.877	WT901BLE68-01(48591DE3C19B)	-1.021	0.229	-0.755	119.324	48.157	80.139	-95.45	43.98	-47.98	-69.972	-24.500	76.734	-0.45349	0.64514	-0.40991	-0.45825	31.4	13111	100
2025-3-27 15:21:10.877	WT901BLE68-01(48591DE3C19B)	-1.021	0.289	-0.619	88.928	-6.836	78.430	-94.72	44.85	-47.89	-69.972	-24.500	76.734	-0.45349	0.64514	-0.40991	-0.45825	31.4	13111	100
2025-3-27 15:21:10.877	WT901BLE68-01(48591DE3C19B)	-0.569	0.289	-0.619	88.928	-6.836	78.430	-93.99	45.71	-47.80	-69.972	-24.500	76.734	-0.45349	0.64514	-0.40991	-0.45825	31.4	13111	100
2025-3-27 15:21:10.936	WT901BLE68-01(48591DE3C19B)	-0.569	0.495	-0.460	88.440	-49.438	70.984	-92.83	46.54	-47.08	-69.972	-24.500	76.734	-0.45349	0.64514	-0.40991	-0.45825	31.4	13111	100
2025-3-27 15:21:10.936	WT901BLE68-01(48591DE3C19B)	-0.135	0.495	-0.460	88.440	-49.438	70.984	-91.66	47.35	-46.34	-69.972	-24.500	76.734	-0.45349	0.64514	-0.40991	-0.45825	31.4	13111	100
2025-3-27 15:21:10.936	WT901BLE68-01(48591DE3C19B)	-0.135	0.681	-0.414	92.896	-63.660	55.725	-90.28	48.01	-45.37	-69.972	-24.500	76.734	-0.45349	0.64514	-0.40991	-0.45825	31.4	13111	100
2025-3-27 15:21:10.936	WT901BLE68-01(48591DE3C19B)	0.340	0.681	-0.414	92.896	-63.660	55.725	-88.90	48.66	-44.38	-69.972	-24.500	76.734	-0.45349	0.64514	-0.40991	-0.45825	31.4	13111	100
2025-3-27 15:21:10.965	WT901BLE68-01(48591DE3C19B)	0.340	0.840	-0.403	89.844	-32.410	55.664	-87.90	49.31	-43.87	-69.972	-24.500	76.734	-0.45349	0.64514	-0.40991	-0.45825	31.4	13111	100
2025-3-27 15:21:10.965	WT901BLE68-01(48591DE3C19B)	0.573	0.840	-0.403	89.844	-32.410	55.664	-86.93	49.97	-43.36	-69.972	-24.500	76.734	-0.45349	0.64514	-0.40991	-0.45825	31.4	13111	100
2025-3-27 15:21:10.965	WT901BLE68-01(48591DE3C19B)	0.573	0.996	-0.395	24.475	23.804	56.458	-87.32	50.66	-43.75	-69.972	-24.500	76.734	-0.45349	0.64514	-0.40991	-0.45825	31.4	13111	100
2025-3-27 15:21:10.965	WT901BLE68-01(48591DE3C19B)	0.480	0.996	-0.395	24.475	23.804	56.458	-87.79	51.37	-44.20	-69.972	-24.500	76.734	-0.45349	0.64514	-0.40991	-0.45825	31.4	13111	100
2025-3-27 15:21:11.26	WT901BLE68-01(48591DE3C19B)	0.480	1.063	-0.358	-41.443	70.068	33.142	-89.58	51.86	-45.49	-69.972	-24.500	76.734	-0.45349	0.64514	-0.40991	-0.45825	31.4	13111	100
2025-3-27 15:21:11.26	WT901BLE68-01(48591DE3C19B)	0.260	1.063	-0.358	-41.443	70.068	33.142	-91.47	52.35	-46.87	-69.972	-24.500	76.734	-0.45349	0.64514	-0.40991	-0.45825	31.4	13111	100
2025-3-27 15:21:11.26	WT901BLE68-01(48591DE3C19B)	0.260	0.895	-0.234	-91.187	77.698	21.545	-94.03	52.70	-48.45	-69.972	-24.500	76.734	-0.45349	0.64514	-0.40991	-0.45825	31.4	13111	100
2025-3-27 15:21:11.26	WT901BLE68-01(48591DE3C19B)	0.135	0.895	-0.234	-91.187	77.698	21.545	-96.66	53.03	-50.10	-69.972	-24.500	76.734	-0.45349	0.64514	-0.40991	-0.45825	31.4	13111	100
2025-3-27 15:21:11.55	WT901BLE68-01(48591DE3C19B)	0.135	0.782	-0.121	-121.643	52.856	16.174	-99.31	53.31	-51.39	-69.972	-24.500	76.734	-0.45349	0.64514	-0.40991	-0.45825	31.4	13111	100
2025-3-27 15:21:11.55	WT901BLE68-01(48591DE3C19B)	0.045	0.782	-0.121	-121.643	52.856	16.174	-102.01	53.56	-52.72	-69.972	-24.500	76.734	-0.45349	0.64514	-0.40991	-0.45825	31.4	13111	100
2025-3-27 15:21:11.55	WT901BLE68-01(48591DE3C19B)	0.045	0.629	-0.121	-159.485	31.677	17.029	-104.83	53.86	-53.76	-69.972	-24.500	76.734	-0.45349	0.64514	-0.40991	-0.45825	31.4	13111	100
2025-3-27 15:21:11.55	WT901BLE68-01(48591DE3C19B)	-0.223	0.629	-0.121	-159.485	31.677	17.029	-107.69	54.14	-54.83	-69.972	-24.500	76.734	-0.45349	0.64514	-0.40991	-0.45825	31.4	13111	100
2025-3-27 15:21:11.87	WT901BLE68-01(48591DE3C19B)	-0.223	0.396	-0.313	-201.782	42.297	16.296	-111.12	54.34	-56.09	-69.972	-24.500	76.734	-0.62109	0.52609	-0.57288	-0.09579	31.4	13111	100
2025-3-27 15:21:11.87	WT901BLE68-01(48591DE3C19B)	-0.952	0.396	-0.313	-201.782	42.297	16.296	-114.55	54.50	-57.36	-69.972	-24.500	76.734	-0.62109	0.52609	-0.57288	-0.09579	31.4	13111	100
2025-3-27 15:21:11.87	WT901BLE68-01(48591DE3C19B)	-0.952	0.255	-0.907	-250.488	98.694	19.897	-119.16	54.36	-59.49	-69.972	-24.500	76.734	-0.62109	0.52609	-0.57288	-0.09579	31.4	13111	100
2025-3-27 15:21:11.87	WT901BLE68-01(48591DE3C19B)	-2.539	0.255	-0.907	-250.488	98.694	19.897	-123.66	54.11	-61.52	-69.972	-24.500	76.734	-0.62109	0.52609	-0.57288	-0.09579	31.4	13111	100
2025-3-27 15:21:11.115	WT901BLE68-01(48591DE3C19B)	-2.539	-0.037	-1.403	-339.905	188.477	72.205	-130.29	53.62	-65.12	-69.972	-24.500	76.734	-0.62109	0.52609	-0.57288	-0.09579	31.4	13111	100
2025-3-27 15:21:11.115	WT901BLE68-01(48591DE3C19B)	-4.063	-0.037	-1.403	-339.905	188.477	72.205	-136.64	52.90	-68.44	-69.972	-24.500	76.734	-0.62109	0.52609	-0.57288	-0.09579	31.4	13111	100
2025-3-27 15:21:11.115	WT901BLE68-01(48591DE3C19B)	-4.063	-0.460	-2.654	-354.065	236.450	192.627	-144.44	52.33	-73.48	-69.972	-24.500	76.734	-0.62109	0.52609	-0.57288	-0.09579	31.4	13111	100
2025-3-27 15:21:11.115	WT901BLE68-01(48591DE3C19B)	-4.725	-0.460	-2.654	-354.065	236.450	192.627	-151.89	51.36	-78.19	-69.972	-24.500	76.734	-0.62109	0.52609	-0.57288	-0.09579	31.4	13111	100
2025-3-27 15:21:11.175	WT901BLE68-01(48591DE3C19B)	-4.725	-1.119	-2.666	-381.226	192.505	230.469	-159.43	50.58	-82.76	-69.972	-24.500	76.734	-0.62109	0.52609	-0.57288	-0.09579	31.4	13111	100
2025-3-27 15:21:11.175	WT901BLE68-01(48591DE3C19B)	-3.320	-1.119	-2.666	-381.226	192.505	230.469	-166.63	49.45	-86.99	-69.972	-24.500	76.734	-0.62109	0.52609	-0.57288	-0.09579	31.4	13111	100
2025-3-27 15:21:11.176	WT901BLE68-01(48591DE3C19B)	-3.320	-1.611	-2.036	-357.056	114.685	242.310	-173.20	48.79	-90.82	-69.972	-24.500	76.734	-0.62109	0.52609	-0.57288	-0.09579	31.4	13111	100
2025-3-27 15:21:11.176	WT901BLE68-01(48591DE3C19B)	-2.000	-1.611	-2.036	-357.056	114.685	242.310	-179.54	47.86	-94.41	-69.972	-24.500	76.734	-0.62109	0.52609	-0.57288	-0.09579	31.4	13111	100
2025-3-27 15:21:11.205	WT901BLE68-01(48591DE3C19B)	-2.000	-1.698	-1.703	-318.848	88.562	215.149	175.05	46.96	-97.36	-69.972	-24.500	76.734	-0.62109	0.52609	-0.57288	-0.09579	31.4	13111	100
2025-3-27 15:21:11.206	WT901BLE68-01(48591DE3C19B)	-1.324	-1.698	-1.703	-318.848	88.562	215.149	169.87	45.88	-100.08	-69.972	-24.500	76.734	-0.62109	0.52609	-0.57288	-0.09579	31.4	13111	100
2025-3-27 15:21:11.206	WT901BLE68-01(48591DE3C19B)	-1.324	-1.175	-0.966	-213.501	43.030	153.564	166.45	45.24	-101.88	-69.972	-24.500	76.734	-0.62109	0.52609	-0.57288	-0.09579	31.4	13111	100
2025-3-27 15:21:11.206	WT901BLE68-01(48591DE3C19B)	-0.986	-1.175	-0.966	-213.501	43.030	153.564	163.14	44.53	-103.58	-69.972	-24.500	76.734	-0.62109	0.52609	-0.57288	-0.09579	31.4	13111	100
2025-3-27 15:21:11.236	WT901BLE68-01(48591DE3C19B)	-0.986	-0.615	-0.371	-192.871	-68.848	73.242	160.51	45.07	-104.63	-69.972	-24.500	76.734	-0.62109	0.52609	-0.57288	-0.09579	31.4	13111	100
2025-3-27 15:21:11.236	WT901BLE68-01(48591DE3C19B)	-0.533	-0.615	-0.371	-192.871	-68.848	73.242	157.86	45.58	-105.71	-69.972	-24.500	76.734	-0.62109	0.52609	-0.57288	-0.09579	31.4	13111	100
2025-3-27 15:21:11.236	WT901BLE68-01(48591DE3C19B)	-0.533	-0.347	-0.070	-199.768	-185.364	3.479	155.29	47.40	-106.58	-69.972	-24.500	76.734	-0.62109	0.52609	-0.57288	-0.09579	31.4	13111	100
2025-3-27 15:21:11.236	WT901BLE68-01(48591DE3C19B)	0.016	-0.347	-0.070	-199.768	-185.364	3.479	152.59	49.17	-107.58	-69.972	-24.500	76.734	-0.62109	0.52609	-0.57288	-0.09579	31.4	13111	100
2025-3-27 15:21:11.295	WT901BLE68-01(48591DE3C19B)	0.016	-0.346	0.040	-217.896	-247.681	-58.533	149.88	51.75	-108.37	-69.972	-24.500	76.734	-0.62109	0.52609	-0.57288	-0.09579	31.4	13111	100
2025-3-27 15:21:11.295	WT901BLE68-01(48591DE3C19B)	0.613	-0.346	0.040	-217.896	-247.681	-58.533	146.96	54.28	-109.39	-80.850	-43.708	67.130	-0.62109	0.52609	-0.57288	-0.09579	31.4	13111	100
2025-3-27 15:21:11.295	WT901BLE68-01(48591DE3C19B)	0.613	-0.498	0.029	-222.168	-269.775	-91.675	143.99	57.13	-110.41	-80.850	-43.708	67.130	-0.62109	0.52609	-0.57288	-0.09579	31.4	13111	100
2025-3-27 15:21:11.296	WT901BLE68-01(48591DE3C19B)	1.231	-0.498	0.029	-222.168	-269.775	-91.675	140.72	59.94	-111.77	-80.850	-43.708	67.130	-0.62109	0.52609	-0.57288	-0.09579	31.4	13111	100
2025-3-27 15:21:11.325	WT901BLE68-01(48591DE3C19B)	1.231	-0.694	-0.029	-219.543	-239.441	-115.784	137.85	62.61	-112.69	-80.850	-43.708	67.130	-0.62109	0.52609	-0.57288	-0.09579	31.4	13111	100
2025-3-27 15:21:11.325	WT901BLE68-01(48591DE3C19B)	1.267	-0.694	-0.029	-219.543	-239.441	-115.784	134.72	65.23	-113.92	-80.850	-43.708	67.130	-0.62109	0.52609	-0.57288	-0.09579	31.4	13111	100
2025-3-27 15:21:11.325	WT901BLE68-01(48591DE3C19B)	1.008	-1.028	0.019	-180.420	-151.489	-151.245	133.78	67.46	-113.18	-80.850	-43.708	67.130	-0.62109	0.52609	-0.57288	-0.09579	31.4	13111	100
2025-3-27 15:21:11.326	WT901BLE68-01(48591DE3C19B)	1.008	-1.208	0.142	-118.591	-92.224	-170.898	134.06	69.55	-111.52	-80.850	-43.708	67.130	-0.62109	0.52609	-0.57288	-0.09579	31.4	13111	100
2025-3-27 15:21:11.355	WT901BLE68-01(48591DE3C19B)	0.885	-1.208	0.142	-118.591	-92.224	-170.898	135.84	71.48	-108.62	-80.850	-43.708	67.130	-0.62109	0.52609	-0.57288	-0.09579	31.4	13111	100
2025-3-27 15:21:11.355	WT901BLE68-01(48591DE3C19B)	0.885	-1.265	0.236	-58.838	-52.795	-182.922	139.17	73.26	-104.47	-80.850	-43.708	67.130	-0.62109	0.52609	-0.57288	-0.09579	31.4	13111	100
2025-3-27 15:21:11.355	WT901BLE68-01(48591DE3C19B)	0.738	-1.265	0.236	-58.838	-52.795	-182.922	144.38	74.82	-98.72	-80.850	-43.708	67.130	-0.62109	0.52609	-0.57288	-0.09579	31.4	13111	100
2025-3-27 15:21:11.355	WT901BLE68-01(48591DE3C19B)	0.738	-1.286	0.204	-3.967	-0.854	-207.336	152.04	76.03	-90.77	-80.850	-43.708	67.130	-0.62109	0.52609	-0.57288	-0.09579	31.4	13111	100
2025-3-27 15:21:11.446	WT901BLE68-01(48591DE3C19B)	0.528	-1.286	0.204	-3.967	-0.854	-207.336	162.13	76.72	-80.65	-80.850	-43.708	67.130	-0.62109	0.52609	-0.57288	-0.09579	31.4	13111	100
2025-3-27 15:21:11.447	WT901BLE68-01(48591DE3C19B)	0.528	-1.328	0.099	56.274	48.218	-232.117	173.89	76.72	-69.12	-80.850	-43.708	67.130	-0.62109	0.52609	-0.57288	-0.09579	31.4	13111	100
2025-3-27 15:21:11.447	WT901BLE68-01(48591DE3C19B)	0.383	-1.328	0.099	56.274	48.218	-232.117	-174.12	75.93	-57.65	-80.850	-43.708	67.130	-0.62109	0.52609	-0.57288	-0.09579	31.4	13111	100
2025-3-27 15:21:11.447	WT901BLE68-01(48591DE3C19B)	0.383	-1.365	-0.032	114.685	96.741	-251.038	-163.39	74.37	-47.71	-80.850	-43.708	67.130	-0.62109	0.52609	-0.57288	-0.09579	31.4	13111	100
2025-3-27 15:21:11.447	WT901BLE68-01(48591DE3C19B)	0.414	-1.365	-0.032	114.685	96.741	-251.038	-154.54	72.14	-39.96	-80.850	-43.708	67.130	-0.62109	0.52609	-0.57288	-0.09579	31.4	13111	100
2025-3-27 15:21:11.448	WT901BLE68-01(48591DE3C19B)	0.414	-1.457	-0.075	178.101	221.313	-249.390	-148.23	69.11	-35.10	-80.850	-43.708	67.130	-0.62109	0.52609	-0.57288	-0.09579	31.4	13111	100
2025-3-27 15:21:11.448	WT901BLE68-01(48591DE3C19B)	-0.536	-1.457	-0.075	178.101	221.313	-249.390	-143.88	65.44	-32.59	-80.850	-43.708	67.130	-0.62109	0.52609	-0.57288	-0.09579	31.4	13111	100
2025-3-27 15:21:11.448	WT901BLE68-01(48591DE3C19B)	-0.536	-1.697	-0.498	242.065	374.146	-217.163	-141.23	61.24	-32.26	-80.850	-43.708	67.130	-0.62109	0.52609	-0.57288	-0.09579	31.4	13111	100
2025-3-27 15:21:11.476	WT901BLE68-01(48591DE3C19B)	-3.652	-1.697	-0.498	242.065	374.146	-217.163	-139.60	56.60	-33.45	-80.850	-43.708	67.130	-0.62109	0.52609	-0.57288	-0.09579	31.4	13111	100
2025-3-27 15:21:11.476	WT901BLE68-01(48591DE3C19B)	-3.652	-2.842	-1.610	317.810	389.954	-163.086	-137.97	52.15	-35.17	-80.850	-43.708	67.130	-0.62109	0.52609	-0.57288	-0.09579	31.4	13111	100
2025-3-27 15:21:11.476	WT901BLE68-01(48591DE3C19B)	-4.235	-2.842	-1.610	317.810	389.954	-163.086	-136.27	47.97	-37.32	-80.850	-43.708	67.130	-0.44305	0.75485	-0.41473	-0.24857	31.4	13111	100
2025-3-27 15:21:11.476	WT901BLE68-01(48591DE3C19B)	-4.235	-2.453	-2.006	382.019	115.051	-115.723	-133.40	45.05	-38.36	-80.850	-43.708	67.130	-0.44305	0.75485	-0.41473	-0.24857	31.4	13111	100
2025-3-27 15:21:11.536	WT901BLE68-01(48591DE3C19B)	-3.096	-2.453	-2.006	382.019	115.051	-115.723	-129.52	43.35	-38.41	-80.850	-43.708	67.130	-0.44305	0.75485	-0.41473	-0.24857	31.4	13111	100
2025-3-27 15:21:11.536	WT901BLE68-01(48591DE3C19B)	-3.096	-0.973	-1.533	332.703	190.247	-56.641	-126.47	41.70	-39.25	-80.850	-43.708	67.130	-0.44305	0.75485	-0.41473	-0.24857	31.4	13111	100
2025-3-27 15:21:11.536	WT901BLE68-01(48591DE3C19B)	-3.497	-0.973	-1.533	332.703	190.247	-56.641	-124.16	40.13	-40.80	-80.850	-43.708	67.130	-0.44305	0.75485	-0.41473	-0.24857	31.4	13111	100
2025-3-27 15:21:11.536	WT901BLE68-01(48591DE3C19B)	-3.497	-1.036	-1.349	214.355	259.583	45.532	-122.92	38.87	-43.11	-80.850	-43.708	67.130	-0.44305	0.75485	-0.41473	-0.24857	31.4	13111	100
2025-3-27 15:21:11.565	WT901BLE68-01(48591DE3C19B)	-2.739	-1.036	-1.349	214.355	259.583	45.532	-122.70	37.89	-46.13	-80.850	-43.708	67.130	-0.44305	0.75485	-0.41473	-0.24857	31.4	13111	100
2025-3-27 15:21:11.565	WT901BLE68-01(48591DE3C19B)	-2.739	-0.748	-1.296	190.552	160.828	78.674	-122.32	37.35	-48.69	-80.850	-43.708	67.130	-0.44305	0.75485	-0.41473	-0.24857	31.4	13111	100
2025-3-27 15:21:11.565	WT901BLE68-01(48591DE3C19B)	-1.927	-0.748	-1.296	190.552	160.828	78.674	-121.80	37.23	-50.83	-80.850	-43.708	67.130	-0.44305	0.75485	-0.41473	-0.24857	31.4	13111	100
2025-3-27 15:21:11.565	WT901BLE68-01(48591DE3C19B)	-1.927	-0.215	-1.177	154.053	63.965	90.820	-121.19	37.45	-52.49	-80.850	-43.708	67.130	-0.44305	0.75485	-0.41473	-0.24857	31.4	13111	100
2025-3-27 15:21:11.595	WT901BLE68-01(48591DE3C19B)	-1.611	-0.215	-1.177	154.053	63.965	90.820	-120.50	37.97	-53.68	-80.850	-43.708	67.130	-0.44305	0.75485	-0.41473	-0.24857	31.4	13111	100
2025-3-27 15:21:11.595	WT901BLE68-01(48591DE3C19B)	-1.611	0.113	-0.878	129.822	-29.602	88.440	-119.64	38.74	-54.34	-80.850	-43.708	67.130	-0.44305	0.75485	-0.41473	-0.24857	31.4	13111	100
2025-3-27 15:21:11.595	WT901BLE68-01(48591DE3C19B)	-1.233	0.113	-0.878	129.822	-29.602	88.440	-118.59	39.74	-54.48	-80.850	-43.708	67.130	-0.44305	0.75485	-0.41473	-0.24857	31.4	13111	100
2025-3-27 15:21:11.595	WT901BLE68-01(48591DE3C19B)	-1.233	0.276	-0.606	108.093	-135.620	82.947	-117.24	40.96	-53.97	-80.850	-43.708	67.130	-0.44305	0.75485	-0.41473	-0.24857	31.4	13111	100
2025-3-27 15:21:11.665	WT901BLE68-01(48591DE3C19B)	-0.624	0.276	-0.606	108.093	-135.620	82.947	-115.55	42.39	-52.78	-80.850	-43.708	67.130	-0.44305	0.75485	-0.41473	-0.24857	31.4	13111	100
2025-3-27 15:21:11.666	WT901BLE68-01(48591DE3C19B)	-0.624	0.399	-0.451	126.282	-188.477	69.702	-113.46	43.83	-51.14	-80.850	-43.708	67.130	-0.44305	0.75485	-0.41473	-0.24857	31.4	13111	100
2025-3-27 15:21:11.666	WT901BLE68-01(48591DE3C19B)	0.004	0.399	-0.451	126.282	-188.477	69.702	-110.92	45.26	-49.03	-80.850	-43.708	67.130	-0.44305	0.75485	-0.41473	-0.24857	31.4	13111	100
2025-3-27 15:21:11.666	WT901BLE68-01(48591DE3C19B)	0.004	0.575	-0.412	158.447	-163.879	56.030	-108.22	46.53	-46.94	-80.850	-43.708	67.130	-0.44305	0.75485	-0.41473	-0.24857	31.4	13111	100
2025-3-27 15:21:11.687	WT901BLE68-01(48591DE3C19B)	0.483	0.575	-0.412	158.447	-163.879	56.030	-105.37	47.61	-44.89	-68.992	-26.264	73.402	-0.44305	0.75485	-0.41473	-0.24857	31.4	13111	100
2025-3-27 15:21:11.687	WT901BLE68-01(48591DE3C19B)	0.483	0.699	-0.389	150.024	-95.520	59.753	-102.87	48.57	-43.26	-68.992	-26.264	73.402	-0.44305	0.75485	-0.41473	-0.24857	31.4	13111	100
2025-3-27 15:21:11.687	WT901BLE68-01(48591DE3C19B)	0.838	0.699	-0.389	150.024	-95.520	59.753	-100.77	49.43	-42.11	-68.992	-26.264	73.402	-0.44305	0.75485	-0.41473	-0.24857	31.4	13111	100
2025-3-27 15:21:11.687	WT901BLE68-01(48591DE3C19B)	0.838	0.954	-0.454	128.723	-17.029	36.804	-99.20	50.09	-41.50	-68.992	-26.264	73.402	-0.44305	0.75485	-0.41473	-0.24857	31.4	13111	100
2025-3-27 15:21:11.745	WT901BLE68-01(48591DE3C19B)	0.871	0.954	-0.454	128.723	-17.029	36.804	-98.22	50.56	-41.50	-68.992	-26.264	73.402	-0.44305	0.75485	-0.41473	-0.24857	31.4	13111	100
2025-3-27 15:21:11.746	WT901BLE68-01(48591DE3C19B)	0.871	1.203	-0.507	41.809	81.970	9.521	-98.33	50.84	-42.31	-68.992	-26.264	73.402	-0.44305	0.75485	-0.41473	-0.24857	31.4	13111	100
2025-3-27 15:21:11.746	WT901BLE68-01(48591DE3C19B)	0.610	1.203	-0.507	41.809	81.970	9.521	-99.53	50.92	-43.94	-68.992	-26.264	73.402	-0.44305	0.75485	-0.41473	-0.24857	31.4	13111	100
2025-3-27 15:21:11.746	WT901BLE68-01(48591DE3C19B)	0.610	1.032	-0.399	-57.373	153.625	-13.184	-101.70	50.80	-46.17	-68.992	-26.264	73.402	-0.44305	0.75485	-0.41473	-0.24857	31.4	13111	100
2025-3-27 15:21:11.775	WT901BLE68-01(48591DE3C19B)	0.225	1.032	-0.399	-57.373	153.625	-13.184	-104.78	50.45	-48.94	-68.992	-26.264	73.402	-0.44305	0.75485	-0.41473	-0.24857	31.4	13111	100
2025-3-27 15:21:11.775	WT901BLE68-01(48591DE3C19B)	0.225	0.832	-0.162	-113.586	175.537	-32.043	-108.20	49.89	-51.80	-68.992	-26.264	73.402	-0.44305	0.75485	-0.41473	-0.24857	31.4	13111	100
2025-3-27 15:21:11.775	WT901BLE68-01(48591DE3C19B)	-0.066	0.832	-0.162	-113.586	175.537	-32.043	-111.90	49.13	-54.68	-68.992	-26.264	73.402	-0.44305	0.75485	-0.41473	-0.24857	31.4	13111	100
2025-3-27 15:21:11.775	WT901BLE68-01(48591DE3C19B)	-0.066	0.595	0.035	-144.043	138.855	-35.645	-115.43	48.33	-57.17	-68.992	-26.264	73.402	-0.44305	0.75485	-0.41473	-0.24857	31.4	13111	100
2025-3-27 15:21:11.805	WT901BLE68-01(48591DE3C19B)	-0.227	0.595	0.035	-144.043	138.855	-35.645	-118.81	47.52	-59.28	-68.992	-26.264	73.402	-0.44305	0.75485	-0.41473	-0.24857	31.4	13111	100
2025-3-27 15:21:11.806	WT901BLE68-01(48591DE3C19B)	-0.227	0.335	-0.296	-135.315	100.098	-25.696	-121.69	46.92	-60.85	-68.992	-26.264	73.402	-0.44305	0.75485	-0.41473	-0.24857	31.4	13111	100
2025-3-27 15:21:11.806	WT901BLE68-01(48591DE3C19B)	-0.855	0.335	-0.296	-135.315	100.098	-25.696	-124.49	46.27	-62.33	-68.992	-26.264	73.402	-0.44305	0.75485	-0.41473	-0.24857	31.4	13111	100
2025-3-27 15:21:11.806	WT901BLE68-01(48591DE3C19B)	-0.855	0.339	-1.434	-171.753	124.451	-25.879	-127.74	45.41	-63.96	-68.992	-26.264	73.402	-0.44305	0.75485	-0.41473	-0.24857	31.4	13111	100
2025-3-27 15:21:11.865	WT901BLE68-01(48591DE3C19B)	-2.586	0.339	-1.434	-171.753	124.451	-25.879	-130.86	44.46	-65.45	-68.992	-26.264	73.402	-0.44305	0.75485	-0.41473	-0.24857	31.4	13111	100
2025-3-27 15:21:11.865	WT901BLE68-01(48591DE3C19B)	-2.586	0.235	-1.980	-322.266	117.554	-16.174	-135.31	43.57	-66.75	-68.992	-26.264	73.402	-0.44305	0.75485	-0.41473	-0.24857	31.4	13111	100
2025-3-27 15:21:11.865	WT901BLE68-01(48591DE3C19B)	-3.979	0.235	-1.980	-322.266	117.554	-16.174	-139.58	42.63	-67.85	-68.992	-26.264	73.402	-0.44305	0.75485	-0.41473	-0.24857	31.4	13111	100
2025-3-27 15:21:11.865	WT901BLE68-01(48591DE3C19B)	-3.979	-0.396	-2.915	-335.693	49.194	106.323	-144.32	42.93	-69.52	-68.992	-26.264	73.402	-0.44305	0.75485	-0.41473	-0.24857	31.4	13111	100
2025-3-27 15:21:11.896	WT901BLE68-01(48591DE3C19B)	-3.830	-0.396	-2.915	-335.693	49.194	106.323	-149.01	43.14	-71.16	-68.992	-26.264	73.402	-0.39526	0.67419	-0.60376	-0.15689	31.4	13111	100
2025-3-27 15:21:11.896	WT901BLE68-01(48591DE3C19B)	-3.830	-1.112	-2.783	-378.601	6.042	166.077	-154.41	43.91	-73.24	-68.992	-26.264	73.402	-0.39526	0.67419	-0.60376	-0.15689	31.4	13111	100
2025-3-27 15:21:11.896	WT901BLE68-01(48591DE3C19B)	-3.278	-1.112	-2.783	-378.601	6.042	166.077	-159.84	44.52	-75.39	-68.992	-26.264	73.402	-0.39526	0.67419	-0.60376	-0.15689	31.4	13111	100
2025-3-27 15:21:11.896	WT901BLE68-01(48591DE3C19B)	-3.278	-1.699	-2.269	-341.003	-33.325	182.068	-164.95	45.42	-77.65	-68.992	-26.264	73.402	-0.39526	0.67419	-0.60376	-0.15689	31.4	13111	100
2025-3-27 15:21:11.925	WT901BLE68-01(48591DE3C19B)	-2.134	-1.699	-2.269	-341.003	-33.325	182.068	-170.13	46.16	-80.01	-68.992	-26.264	73.402	-0.39526	0.67419	-0.60376	-0.15689	31.4	13111	100
2025-3-27 15:21:11.926	WT901BLE68-01(48591DE3C19B)	-2.134	-1.485	-1.770	-284.607	-27.405	180.481	-174.79	46.69	-82.43	-68.992	-26.264	73.402	-0.39526	0.67419	-0.60376	-0.15689	31.4	13111	100
2025-3-27 15:21:11.926	WT901BLE68-01(48591DE3C19B)	-1.611	-1.485	-1.770	-284.607	-27.405	180.481	-179.47	47.09	-84.90	-68.992	-26.264	73.402	-0.39526	0.67419	-0.60376	-0.15689	31.4	13111	100
2025-3-27 15:21:11.926	WT901BLE68-01(48591DE3C19B)	-1.611	-1.021	-1.106	-242.188	-54.382	150.513	176.57	47.63	-86.97	-68.992	-26.264	73.402	-0.39526	0.67419	-0.60376	-0.15689	31.4	13111	100
2025-3-27 15:21:11.991	WT901BLE68-01(48591DE3C19B)	-1.268	-1.021	-1.106	-242.188	-54.382	150.513	172.59	48.07	-89.09	-68.992	-26.264	73.402	-0.39526	0.67419	-0.60376	-0.15689	31.4	13111	100
2025-3-27 15:21:11.991	WT901BLE68-01(48591DE3C19B)	-1.268	-0.721	-0.551	-239.563	-143.005	114.868	168.82	49.33	-90.95	-68.992	-26.264	73.402	-0.39526	0.67419	-0.60376	-0.15689	31.4	13111	100
2025-3-27 15:21:11.991	WT901BLE68-01(48591DE3C19B)	-0.611	-0.721	-0.551	-239.563	-143.005	114.868	164.92	50.52	-92.97	-68.992	-26.264	73.402	-0.39526	0.67419	-0.60376	-0.15689	31.4	13111	100
2025-3-27 15:21:11.991	WT901BLE68-01(48591DE3C19B)	-0.611	-0.640	-0.255	-225.769	-234.314	74.097	161.15	52.59	-94.95	-68.992	-26.264	73.402	-0.39526	0.67419	-0.60376	-0.15689	31.4	13111	100
2025-3-27 15:21:12.16	WT901BLE68-01(48591DE3C19B)	0.059	-0.640	-0.255	-225.769	-234.314	74.097	157.12	54.57	-97.25	-68.992	-26.264	73.402	-0.39526	0.67419	-0.60376	-0.15689	31.4	13111	100
2025-3-27 15:21:12.16	WT901BLE68-01(48591DE3C19B)	0.059	-0.580	-0.099	-206.970	-259.216	41.382	153.24	56.80	-99.53	-68.992	-26.264	73.402	-0.39526	0.67419	-0.60376	-0.15689	31.4	13111	100
2025-3-27 15:21:12.16	WT901BLE68-01(48591DE3C19B)	0.557	-0.580	-0.099	-206.970	-259.216	41.382	148.99	58.93	-102.19	-68.992	-26.264	73.402	-0.39526	0.67419	-0.60376	-0.15689	31.4	13111	100
2025-3-27 15:21:12.17	WT901BLE68-01(48591DE3C19B)	0.557	-0.688	-0.073	-226.257	-232.239	-1.282	145.03	60.94	-104.28	-68.992	-26.264	73.402	-0.39526	0.67419	-0.60376	-0.15689	31.4	13111	100
2025-3-27 15:21:12.48	WT901BLE68-01(48591DE3C19B)	0.970	-0.688	-0.073	-226.257	-232.239	-1.282	140.72	62.86	-106.74	-68.992	-26.264	73.402	-0.39526	0.67419	-0.60376	-0.15689	31.4	13111	100
2025-3-27 15:21:12.48	WT901BLE68-01(48591DE3C19B)	0.970	-1.088	-0.122	-234.802	-198.669	-53.162	137.21	64.78	-108.19	-68.992	-26.264	73.402	-0.39526	0.67419	-0.60376	-0.15689	31.4	13111	100
2025-3-27 15:21:12.48	WT901BLE68-01(48591DE3C19B)	1.388	-1.088	-0.122	-234.802	-198.669	-53.162	133.43	66.63	-109.95	-68.992	-26.264	73.402	-0.39526	0.67419	-0.60376	-0.15689	31.4	13111	100
2025-3-27 15:21:12.48	WT901BLE68-01(48591DE3C19B)	1.388	-1.410	-0.056	-158.752	-155.396	-104.492	131.81	68.53	-110.20	-68.992	-26.264	73.402	-0.39526	0.67419	-0.60376	-0.15689	31.4	13111	100
2025-3-27 15:21:12.105	WT901BLE68-01(48591DE3C19B)	1.398	-1.410	-0.056	-158.752	-155.396	-104.492	130.17	70.42	-110.50	-68.992	-26.264	73.402	-0.39526	0.67419	-0.60376	-0.15689	31.4	13111	100
2025-3-27 15:21:12.106	WT901BLE68-01(48591DE3C19B)	1.398	-1.363	0.090	-80.017	-71.899	-140.869	132.00	72.02	-107.99	-68.404	-54.586	63.112	-0.39526	0.67419	-0.60376	-0.15689	31.4	13111	100
2025-3-27 15:21:12.106	WT901BLE68-01(48591DE3C19B)	1.052	-1.363	0.090	-80.017	-71.899	-140.869	134.36	73.60	-104.94	-68.404	-54.586	63.112	-0.39526	0.67419	-0.60376	-0.15689	31.4	13111	100
2025-3-27 15:21:12.106	WT901BLE68-01(48591DE3C19B)	1.052	-1.383	0.147	-40.527	-8.484	-188.843	140.69	74.95	-98.23	-68.404	-54.586	63.112	-0.39526	0.67419	-0.60376	-0.15689	31.4	13111	100
2025-3-27 15:21:12.135	WT901BLE68-01(48591DE3C19B)	0.743	-1.383	0.147	-40.527	-8.484	-188.843	148.22	76.06	-90.30	-68.404	-54.586	63.112	-0.39526	0.67419	-0.60376	-0.15689	31.4	13111	100
2025-3-27 15:21:12.135	WT901BLE68-01(48591DE3C19B)	0.743	-1.616	0.170	8.789	23.621	-236.450	159.82	76.76	-78.74	-68.404	-54.586	63.112	-0.39526	0.67419	-0.60376	-0.15689	31.4	13111	100
2025-3-27 15:21:12.135	WT901BLE68-01(48591DE3C19B)	0.436	-1.616	0.170	8.789	23.621	-236.450	172.14	76.87	-66.46	-68.404	-54.586	63.112	-0.39526	0.67419	-0.60376	-0.15689	31.4	13111	100
2025-3-27 15:21:12.135	WT901BLE68-01(48591DE3C19B)	0.436	-1.732	0.062	75.012	46.509	-279.114	-173.61	76.10	-52.87	-68.404	-54.586	63.112	-0.39526	0.67419	-0.60376	-0.15689	31.4	13111	100
2025-3-27 15:21:12.165	WT901BLE68-01(48591DE3C19B)	0.257	-1.732	0.062	75.012	46.509	-279.114	-161.44	74.64	-41.34	-68.404	-54.586	63.112	-0.39526	0.67419	-0.60376	-0.15689	31.4	13111	100
2025-3-27 15:21:12.165	WT901BLE68-01(48591DE3C19B)	0.257	-1.686	-0.042	138.306	57.251	-321.045	-150.06	72.34	-31.20	-68.404	-54.586	63.112	-0.39526	0.67419	-0.60376	-0.15689	31.4	13111	100
2025-3-27 15:21:12.165	WT901BLE68-01(48591DE3C19B)	0.324	-1.686	-0.042	138.306	57.251	-321.045	-141.36	69.60	-23.72	-68.404	-54.586	63.112	-0.39526	0.67419	-0.60376	-0.15689	31.4	13111	100
2025-3-27 15:21:12.165	WT901BLE68-01(48591DE3C19B)	0.324	-1.785	-0.084	191.406	137.756	-346.558	-135.04	65.81	-19.22	-68.404	-54.586	63.112	-0.39526	0.67419	-0.60376	-0.15689	31.4	13111	100
2025-3-27 15:21:12.226	WT901BLE68-01(48591DE3C19B)	-0.485	-1.785	-0.084	191.406	137.756	-346.558	-130.19	61.89	-16.20	-68.404	-54.586	63.112	-0.39526	0.67419	-0.60376	-0.15689	31.4	13111	100
2025-3-27 15:21:12.226	WT901BLE68-01(48591DE3C19B)	-0.485	-2.135	-0.285	254.517	264.526	-340.820	-127.35	57.17	-16.12	-68.404	-54.586	63.112	-0.39526	0.67419	-0.60376	-0.15689	31.4	13111	100
2025-3-27 15:21:12.226	WT901BLE68-01(48591DE3C19B)	-3.474	-2.135	-0.285	254.517	264.526	-340.820	-124.84	52.49	-16.41	-68.404	-54.586	63.112	-0.39526	0.67419	-0.60376	-0.15689	31.4	13111	100
2025-3-27 15:21:12.226	WT901BLE68-01(48591DE3C19B)	-3.474	-3.210	-1.229	324.097	271.423	-305.359	-122.17	48.17	-17.39	-68.404	-54.586	63.112	-0.39526	0.67419	-0.60376	-0.15689	31.4	13111	100
2025-3-27 15:21:12.258	WT901BLE68-01(48591DE3C19B)	-4.892	-3.210	-1.229	324.097	271.423	-305.359	-119.61	43.95	-18.54	-68.404	-54.586	63.112	-0.39526	0.67419	-0.60376	-0.15689	31.4	13111	100
2025-3-27 15:21:12.258	WT901BLE68-01(48591DE3C19B)	-4.162	-2.575	-1.473	373.901	126.892	-231.140	-115.83	41.20	-18.65	-68.404	-54.586	63.112	-0.39526	0.67419	-0.60376	-0.15689	31.4	13111	100
2025-3-27 15:21:12.258	WT901BLE68-01(48591DE3C19B)	-4.162	-1.254	-0.930	298.279	187.866	-116.028	-113.02	38.92	-19.62	-68.404	-54.586	63.112	-0.39526	0.67419	-0.60376	-0.15689	31.4	13111	100
2025-3-27 15:21:12.258	WT901BLE68-01(48591DE3C19B)	-3.912	-1.254	-0.930	298.279	187.866	-116.028	-111.03	37.14	-21.29	-68.404	-54.586	63.112	-0.39526	0.67419	-0.60376	-0.15689	31.4	13111	100
2025-3-27 15:21:12.289	WT901BLE68-01(48591DE3C19B)	-3.912	-1.082	-0.871	232.544	235.901	9.460	-109.69	35.95	-23.53	-68.404	-54.586	63.112	-0.39526	0.67419	-0.60376	-0.15689	31.4	13111	100
2025-3-27 15:21:12.289	WT901BLE68-01(48591DE3C19B)	-2.782	-1.082	-0.871	232.544	235.901	9.460	-108.99	35.32	-26.28	-68.404	-54.586	63.112	-0.39526	0.67419	-0.60376	-0.15689	31.4	13111	100
2025-3-27 15:21:12.289	WT901BLE68-01(48591DE3C19B)	-2.782	-0.574	-0.861	209.290	179.749	76.660	-108.28	35.15	-28.83	-68.404	-54.586	63.112	-0.60483	0.69824	-0.37167	-0.09167	31.4	13111	100
2025-3-27 15:21:12.289	WT901BLE68-01(48591DE3C19B)	-1.817	-0.574	-0.861	209.290	179.749	76.660	-107.61	35.43	-31.17	-68.404	-54.586	63.112	-0.60483	0.69824	-0.37167	-0.09167	31.4	13111	100
2025-3-27 15:21:12.376	WT901BLE68-01(48591DE3C19B)	-1.817	-0.032	-0.894	181.580	141.602	114.380	-107.00	35.97	-33.36	-68.404	-54.586	63.112	-0.60483	0.69824	-0.37167	-0.09167	31.4	13111	100
2025-3-27 15:21:12.376	WT901BLE68-01(48591DE3C19B)	-1.279	-0.032	-0.894	181.580	141.602	114.380	-106.50	36.77	-35.40	-68.404	-54.586	63.112	-0.60483	0.69824	-0.37167	-0.09167	31.4	13111	100
2025-3-27 15:21:12.376	WT901BLE68-01(48591DE3C19B)	-1.279	0.339	-0.802	153.931	121.887	128.540	-106.12	37.68	-37.37	-68.404	-54.586	63.112	-0.60483	0.69824	-0.37167	-0.09167	31.4	13111	100
2025-3-27 15:21:12.376	WT901BLE68-01(48591DE3C19B)	-0.895	0.339	-0.802	153.931	121.887	128.540	-105.89	38.69	-39.26	-68.404	-54.586	63.112	-0.60483	0.69824	-0.37167	-0.09167	31.4	13111	100
2025-3-27 15:21:12.377	WT901BLE68-01(48591DE3C19B)	-0.895	0.520	-0.593	110.535	82.153	137.451	-105.79	39.81	-40.95	-68.404	-54.586	63.112	-0.60483	0.69824	-0.37167	-0.09167	31.4	13111	100
2025-3-27 15:21:12.377	WT901BLE68-01(48591DE3C19B)	-0.461	0.520	-0.593	110.535	82.153	137.451	-105.81	41.02	-42.43	-68.404	-54.586	63.112	-0.60483	0.69824	-0.37167	-0.09167	31.4	13111	100
2025-3-27 15:21:12.377	WT901BLE68-01(48591DE3C19B)	-0.461	0.556	-0.410	79.163	28.687	134.644	-105.82	42.29	-43.60	-68.404	-54.586	63.112	-0.60483	0.69824	-0.37167	-0.09167	31.4	13111	100
2025-3-27 15:21:12.378	WT901BLE68-01(48591DE3C19B)	-0.106	0.556	-0.410	79.163	28.687	134.644	-105.80	43.63	-44.45	-68.404	-54.586	63.112	-0.60483	0.69824	-0.37167	-0.09167	31.4	13111	100
2025-3-27 15:21:12.408	WT901BLE68-01(48591DE3C19B)	-0.106	0.536	-0.305	66.895	-13.489	123.169	-105.68	44.96	-45.02	-68.404	-54.586	63.112	-0.60483	0.69824	-0.37167	-0.09167	31.4	13111	100
2025-3-27 15:21:12.409	WT901BLE68-01(48591DE3C19B)	0.328	0.536	-0.305	66.895	-13.489	123.169	-105.42	46.29	-45.30	-68.404	-54.586	63.112	-0.60483	0.69824	-0.37167	-0.09167	31.4	13111	100
2025-3-27 15:21:12.409	WT901BLE68-01(48591DE3C19B)	0.328	0.575	-0.381	73.486	-14.221	109.985	-105.15	47.57	-45.57	-68.404	-54.586	63.112	-0.60483	0.69824	-0.37167	-0.09167	31.4	13111	100
2025-3-27 15:21:12.409	WT901BLE68-01(48591DE3C19B)	0.740	0.575	-0.381	73.486	-14.221	109.985	-104.85	48.77	-45.83	-68.404	-54.586	63.112	-0.60483	0.69824	-0.37167	-0.09167	31.4	13111	100
2025-3-27 15:21:12.465	WT901BLE68-01(48591DE3C19B)	0.740	0.715	-0.512	79.651	33.813	94.299	-104.82	49.83	-46.44	-68.404	-54.586	63.112	-0.60483	0.69824	-0.37167	-0.09167	31.4	13111	100
2025-3-27 15:21:12.465	WT901BLE68-01(48591DE3C19B)	0.789	0.715	-0.512	79.651	33.813	94.299	-105.08	50.75	-47.46	-68.404	-54.586	63.112	-0.60483	0.69824	-0.37167	-0.09167	31.4	13111	100
2025-3-27 15:21:12.465	WT901BLE68-01(48591DE3C19B)	0.789	1.029	-0.427	34.302	98.083	78.430	-106.03	51.49	-49.03	-68.404	-54.586	63.112	-0.60483	0.69824	-0.37167	-0.09167	31.4	13111	100
2025-3-27 15:21:12.465	WT901BLE68-01(48591DE3C19B)	0.460	1.029	-0.427	34.302	98.083	78.430	-107.70	52.04	-51.19	-68.404	-54.586	63.112	-0.60483	0.69824	-0.37167	-0.09167	31.4	13111	100
2025-3-27 15:21:12.526	WT901BLE68-01(48591DE3C19B)	0.460	1.179	-0.326	-89.233	125.244	41.809	-110.21	52.33	-53.58	-67.816	-14.994	72.324	-0.60483	0.69824	-0.37167	-0.09167	31.4	13111	100
2025-3-27 15:21:12.526	WT901BLE68-01(48591DE3C19B)	0.162	1.179	-0.326	-89.233	125.244	41.809	-113.49	52.36	-56.16	-67.816	-14.994	72.324	-0.60483	0.69824	-0.37167	-0.09167	31.4	13111	100
2025-3-27 15:21:12.526	WT901BLE68-01(48591DE3C19B)	0.162	0.743	-0.094	-171.631	95.337	36.011	-117.04	52.34	-58.55	-67.816	-14.994	72.324	-0.60483	0.69824	-0.37167	-0.09167	31.4	13111	100
2025-3-27 15:21:12.527	WT901BLE68-01(48591DE3C19B)	0.021	0.743	-0.094	-171.631	95.337	36.011	-120.82	52.30	-60.71	-67.816	-14.994	72.324	-0.60483	0.69824	-0.37167	-0.09167	31.4	13111	100
2025-3-27 15:21:12.556	WT901BLE68-01(48591DE3C19B)	0.021	0.493	-0.011	-165.894	50.354	30.212	-124.29	52.29	-62.53	-67.816	-14.994	72.324	-0.60483	0.69824	-0.37167	-0.09167	31.4	13111	100
2025-3-27 15:21:12.556	WT901BLE68-01(48591DE3C19B)	-0.132	0.493	-0.011	-165.894	50.354	30.212	-127.49	52.34	-64.03	-67.816	-14.994	72.324	-0.60483	0.69824	-0.37167	-0.09167	31.4	13111	100
2025-3-27 15:21:12.556	WT901BLE68-01(48591DE3C19B)	-0.132	0.476	-0.244	-175.598	14.832	21.484	-130.51	52.44	-65.26	-67.816	-14.994	72.324	-0.60483	0.69824	-0.37167	-0.09167	31.4	13111	100
2025-3-27 15:21:12.556	WT901BLE68-01(48591DE3C19B)	-0.712	0.476	-0.244	-175.598	14.832	21.484	-133.37	52.59	-66.23	-67.816	-14.994	72.324	-0.60483	0.69824	-0.37167	-0.09167	31.4	13111	100
2025-3-27 15:21:12.591	WT901BLE68-01(48591DE3C19B)	-0.712	0.440	-0.962	-229.370	0.549	5.005	-136.34	52.70	-67.02	-67.816	-14.994	72.324	-0.60483	0.69824	-0.37167	-0.09167	31.4	13111	100
2025-3-27 15:21:12.591	WT901BLE68-01(48591DE3C19B)	-2.303	0.440	-0.962	-229.370	0.549	5.005	-139.39	52.77	-67.58	-67.816	-14.994	72.324	-0.60483	0.69824	-0.37167	-0.09167	31.4	13111	100
2025-3-27 15:21:12.591	WT901BLE68-01(48591DE3C19B)	-2.303	0.333	-1.146	-334.839	30.151	5.005	-143.03	52.70	-68.24	-67.816	-14.994	72.324	-0.60483	0.69824	-0.37167	-0.09167	31.4	13111	100
2025-3-27 15:21:12.591	WT901BLE68-01(48591DE3C19B)	-3.857	0.333	-1.146	-334.839	30.151	5.005	-147.17	52.51	-68.91	-67.816	-14.994	72.324	-0.60483	0.69824	-0.37167	-0.09167	31.4	13111	100
2025-3-27 15:21:12.616	WT901BLE68-01(48591DE3C19B)	-3.857	0.183	-1.978	-281.555	81.360	89.905	-151.56	52.29	-70.28	-67.816	-14.994	72.324	-0.60483	0.69824	-0.37167	-0.09167	31.4	13111	100
2025-3-27 15:21:12.616	WT901BLE68-01(48591DE3C19B)	-4.792	0.183	-1.978	-281.555	81.360	89.905	-156.19	51.99	-72.33	-67.816	-14.994	72.324	-0.60483	0.69824	-0.37167	-0.09167	31.4	13111	100
2025-3-27 15:21:12.616	WT901BLE68-01(48591DE3C19B)	-4.792	-0.301	-2.550	-369.995	176.086	150.024	-161.69	51.26	-74.98	-67.816	-14.994	72.324	-0.60483	0.69824	-0.37167	-0.09167	31.4	13111	100
2025-3-27 15:21:12.617	WT901BLE68-01(48591DE3C19B)	-3.967	-0.301	-2.550	-369.995	176.086	150.024	-167.88	50.00	-78.02	-67.816	-14.994	72.324	-0.60483	0.69824	-0.37167	-0.09167	31.4	13111	100
2025-3-27 15:21:12.646	WT901BLE68-01(48591DE3C19B)	-3.967	-1.823	-2.183	-384.644	130.981	203.003	-174.06	48.82	-81.07	-67.816	-14.994	72.324	-0.60483	0.69824	-0.37167	-0.09167	31.4	13111	100
2025-3-27 15:21:12.646	WT901BLE68-01(48591DE3C19B)	-2.685	-1.823	-2.183	-384.644	130.981	203.003	179.72	47.68	-84.16	-67.816	-14.994	72.324	-0.60483	0.69824	-0.37167	-0.09167	31.4	13111	100
2025-3-27 15:21:12.646	WT901BLE68-01(48591DE3C19B)	-2.685	-1.708	-1.286	-204.224	102.295	145.935	175.00	46.51	-86.54	-67.816	-14.994	72.324	-0.60483	0.69824	-0.37167	-0.09167	31.4	13111	100
2025-3-27 15:21:12.646	WT901BLE68-01(48591DE3C19B)	-2.086	-1.708	-1.286	-204.224	102.295	145.935	171.67	45.42	-88.35	-67.816	-14.994	72.324	-0.60483	0.69824	-0.37167	-0.09167	31.4	13111	100
2025-3-27 15:21:12.705	WT901BLE68-01(48591DE3C19B)	-2.086	-0.471	-0.591	-176.331	5.615	124.634	168.62	44.76	-89.98	-67.816	-14.994	72.324	-0.60483	0.69824	-0.37167	-0.09167	31.4	13111	100
2025-3-27 15:21:12.705	WT901BLE68-01(48591DE3C19B)	-1.233	-0.471	-0.591	-176.331	5.615	124.634	165.79	44.56	-91.53	-67.816	-14.994	72.324	-0.18970	0.67410	-0.62518	-0.34439	31.4	13111	100
2025-3-27 15:21:12.705	WT901BLE68-01(48591DE3C19B)	-1.233	-0.409	-0.357	-263.489	-137.695	87.952	162.53	45.03	-93.09	-67.816	-14.994	72.324	-0.18970	0.67410	-0.62518	-0.34439	31.4	13111	100
2025-3-27 15:21:12.706	WT901BLE68-01(48591DE3C19B)	-0.415	-0.409	-0.357	-263.489	-137.695	87.952	158.72	46.17	-94.78	-67.816	-14.994	72.324	-0.18970	0.67410	-0.62518	-0.34439	31.4	13111	100
2025-3-27 15:21:12.735	WT901BLE68-01(48591DE3C19B)	-0.415	-0.666	-0.209	-259.460	-244.141	39.307	154.85	47.81	-96.59	-67.816	-14.994	72.324	-0.18970	0.67410	-0.62518	-0.34439	31.4	13111	100
2025-3-27 15:21:12.735	WT901BLE68-01(48591DE3C19B)	0.453	-0.666	-0.209	-259.460	-244.141	39.307	150.78	49.93	-98.63	-67.816	-14.994	72.324	-0.18970	0.67410	-0.62518	-0.34439	31.4	13111	100
2025-3-27 15:21:12.735	WT901BLE68-01(48591DE3C19B)	0.453	-0.566	-0.128	-220.825	-275.146	17.334	146.87	52.33	-100.92	-67.816	-14.994	72.324	-0.18970	0.67410	-0.62518	-0.34439	31.4	13111	100
2025-3-27 15:21:12.735	WT901BLE68-01(48591DE3C19B)	1.267	-0.566	-0.128	-220.825	-275.146	17.334	142.61	54.60	-103.57	-67.816	-14.994	72.324	-0.18970	0.67410	-0.62518	-0.34439	31.4	13111	100
2025-3-27 15:21:12.765	WT901BLE68-01(48591DE3C19B)	1.267	-0.668	-0.193	-268.860	-231.995	-17.090	138.33	56.61	-105.65	-67.816	-14.994	72.324	-0.18970	0.67410	-0.62518	-0.34439	31.4	13111	100
2025-3-27 15:21:12.765	WT901BLE68-01(48591DE3C19B)	1.915	-0.668	-0.193	-268.860	-231.995	-17.090	133.76	58.51	-108.05	-67.816	-14.994	72.324	-0.18970	0.67410	-0.62518	-0.34439	31.4	13111	100
2025-3-27 15:21:12.765	WT901BLE68-01(48591DE3C19B)	1.915	-1.210	-0.245	-247.070	-141.174	-103.333	131.30	60.34	-108.23	-67.816	-14.994	72.324	-0.18970	0.67410	-0.62518	-0.34439	31.4	13111	100
2025-3-27 15:21:12.765	WT901BLE68-01(48591DE3C19B)	1.595	-1.210	-0.245	-247.070	-141.174	-103.333	128.85	62.15	-108.46	-67.816	-14.994	72.324	-0.18970	0.67410	-0.62518	-0.34439	31.4	13111	100
2025-3-27 15:21:12.825	WT901BLE68-01(48591DE3C19B)	1.595	-1.476	-0.168	-130.554	-41.809	-145.996	129.68	63.64	-106.34	-67.816	-14.994	72.324	-0.18970	0.67410	-0.62518	-0.34439	31.4	13111	100
2025-3-27 15:21:12.825	WT901BLE68-01(48591DE3C19B)	1.057	-1.476	-0.168	-130.554	-41.809	-145.996	130.81	65.11	-103.93	-67.816	-14.994	72.324	-0.18970	0.67410	-0.62518	-0.34439	31.4	13111	100
2025-3-27 15:21:12.826	WT901BLE68-01(48591DE3C19B)	1.057	-1.419	0.026	-67.688	-22.095	-180.115	133.76	66.65	-100.27	-67.816	-14.994	72.324	-0.18970	0.67410	-0.62518	-0.34439	31.4	13111	100
2025-3-27 15:21:12.826	WT901BLE68-01(48591DE3C19B)	0.823	-1.419	0.026	-67.688	-22.095	-180.115	137.21	68.10	-96.11	-67.816	-14.994	72.324	-0.18970	0.67410	-0.62518	-0.34439	31.4	13111	100
2025-3-27 15:21:12.856	WT901BLE68-01(48591DE3C19B)	0.823	-1.465	0.023	-17.639	-32.410	-227.173	142.56	69.80	-90.51	-67.816	-14.994	72.324	-0.18970	0.67410	-0.62518	-0.34439	31.4	13111	100
2025-3-27 15:21:12.856	WT901BLE68-01(48591DE3C19B)	0.686	-1.465	0.023	-17.639	-32.410	-227.173	148.85	71.29	-83.96	-67.816	-14.994	72.324	-0.18970	0.67410	-0.62518	-0.34439	31.4	13111	100
2025-3-27 15:21:12.856	WT901BLE68-01(48591DE3C19B)	0.686	-1.528	-0.042	46.204	-9.277	-269.531	158.31	72.44	-74.81	-67.816	-14.994	72.324	-0.18970	0.67410	-0.62518	-0.34439	31.4	13111	100
2025-3-27 15:21:12.856	WT901BLE68-01(48591DE3C19B)	0.463	-1.528	-0.042	46.204	-9.277	-269.531	168.73	73.07	-64.68	-67.816	-14.994	72.324	-0.18970	0.67410	-0.62518	-0.34439	31.4	13111	100
2025-3-27 15:21:12.890	WT901BLE68-01(48591DE3C19B)	0.463	-1.487	-0.147	99.915	25.696	-311.584	-178.54	72.77	-52.71	-67.816	-14.994	72.324	-0.18970	0.67410	-0.62518	-0.34439	31.4	13111	100
2025-3-27 15:21:12.890	WT901BLE68-01(48591DE3C19B)	0.282	-1.487	-0.147	99.915	25.696	-311.584	-166.76	71.74	-41.67	-67.816	-14.994	72.324	-0.18970	0.67410	-0.62518	-0.34439	31.4	13111	100
2025-3-27 15:21:12.890	WT901BLE68-01(48591DE3C19B)	0.282	-1.630	-0.230	137.634	85.327	-347.839	-155.93	69.39	-31.93	-53.508	-55.174	64.092	-0.18970	0.67410	-0.62518	-0.34439	31.4	13111	100
2025-3-27 15:21:12.890	WT901BLE68-01(48591DE3C19B)	-0.205	-1.630	-0.230	137.634	85.327	-347.839	-147.40	66.54	-24.48	-53.508	-55.174	64.092	-0.18970	0.67410	-0.62518	-0.34439	31.4	13111	100
2025-3-27 15:21:12.946	WT901BLE68-01(48591DE3C19B)	-0.205	-2.048	-0.140	199.524	201.538	-358.032	-141.37	62.39	-20.28	-53.508	-55.174	64.092	-0.18970	0.67410	-0.62518	-0.34439	31.4	13111	100
2025-3-27 15:21:12.946	WT901BLE68-01(48591DE3C19B)	-2.776	-2.048	-0.140	199.524	201.538	-358.032	-136.67	58.12	-17.43	-53.508	-55.174	64.092	-0.18970	0.67410	-0.62518	-0.34439	31.4	13111	100
2025-3-27 15:21:12.946	WT901BLE68-01(48591DE3C19B)	-2.776	-3.345	-1.060	269.592	274.048	-352.661	-132.95	53.36	-16.46	-53.508	-55.174	64.092	-0.18970	0.67410	-0.62518	-0.34439	31.4	13111	100
2025-3-27 15:21:12.946	WT901BLE68-01(48591DE3C19B)	-5.582	-3.345	-1.060	269.592	274.048	-352.661	-129.73	48.64	-16.05	-53.508	-55.174	64.092	-0.18970	0.67410	-0.62518	-0.34439	31.4	13111	100
2025-3-27 15:21:12.975	WT901BLE68-01(48591DE3C19B)	-5.582	-3.490	-1.283	370.667	129.395	-284.912	-125.12	45.43	-15.03	-53.508	-55.174	64.092	-0.18970	0.67410	-0.62518	-0.34439	31.4	13111	100
2025-3-27 15:21:12.975	WT901BLE68-01(48591DE3C19B)	-4.698	-3.490	-1.283	370.667	129.395	-284.912	-120.86	42.24	-14.42	-53.508	-55.174	64.092	-0.18970	0.67410	-0.62518	-0.34439	31.4	13111	100
2025-3-27 15:21:12.975	WT901BLE68-01(48591DE3C19B)	-4.698	-1.768	-0.664	281.799	148.865	-155.640	-118.41	40.12	-15.14	-53.508	-55.174	64.092	-0.18970	0.67410	-0.62518	-0.34439	31.4	13111	100
2025-3-27 15:21:12.975	WT901BLE68-01(48591DE3C19B)	-3.963	-1.768	-0.664	281.799	148.865	-155.640	-116.03	38.07	-15.94	-53.508	-55.174	64.092	-0.18970	0.67410	-0.62518	-0.34439	31.4	13111	100
2025-3-27 15:21:13.5	WT901BLE68-01(48591DE3C19B)	-3.963	-1.508	-0.658	235.901	287.354	-3.174	-115.58	36.84	-19.18	-53.508	-55.174	64.092	-0.18970	0.67410	-0.62518	-0.34439	31.4	13111	100
2025-3-27 15:21:13.5	WT901BLE68-01(48591DE3C19B)	-2.889	-1.508	-0.658	235.901	287.354	-3.174	-115.07	35.65	-22.37	-53.508	-55.174	64.092	-0.18970	0.67410	-0.62518	-0.34439	31.4	13111	100
2025-3-27 15:21:13.5	WT901BLE68-01(48591DE3C19B)	-2.889	-0.599	-0.618	255.493	271.851	48.889	-114.38	35.05	-25.62	-53.508	-55.174	64.092	-0.18970	0.67410	-0.62518	-0.34439	31.4	13111	100
2025-3-27 15:21:13.5	WT901BLE68-01(48591DE3C19B)	-1.998	-0.599	-0.618	255.493	271.851	48.889	-113.67	34.50	-28.84	-53.508	-55.174	64.092	-0.18970	0.67410	-0.62518	-0.34439	31.4	13111	100
2025-3-27 15:21:13.65	WT901BLE68-01(48591DE3C19B)	-1.998	0.250	-0.656	203.491	191.101	78.308	-113.06	34.58	-31.30	-53.508	-55.174	64.092	-0.18970	0.67410	-0.62518	-0.34439	31.4	13111	100
2025-3-27 15:21:13.65	WT901BLE68-01(48591DE3C19B)	-1.501	0.250	-0.656	203.491	191.101	78.308	-112.47	34.71	-33.76	-53.508	-55.174	64.092	-0.18970	0.67410	-0.62518	-0.34439	31.4	13111	100
2025-3-27 15:21:13.65	WT901BLE68-01(48591DE3C19B)	-1.501	0.687	-0.627	141.418	126.831	92.163	-112.16	35.22	-35.56	-53.508	-55.174	64.092	-0.18970	0.67410	-0.62518	-0.34439	31.4	13111	100
2025-3-27 15:21:13.65	WT901BLE68-01(48591DE3C19B)	-1.086	0.687	-0.627	141.418	126.831	92.163	-111.89	35.76	-37.38	-53.508	-55.174	64.092	-0.18970	0.67410	-0.62518	-0.34439	31.4	13111	100
2025-3-27 15:21:13.95	WT901BLE68-01(48591DE3C19B)	-1.086	0.646	-0.473	66.284	51.392	99.976	-111.92	36.65	-38.38	-53.508	-55.174	64.092	-0.18970	0.67410	-0.62518	-0.34439	31.4	13111	100
2025-3-27 15:21:13.95	WT901BLE68-01(48591DE3C19B)	-0.438	0.646	-0.473	66.284	51.392	99.976	-111.99	37.55	-39.39	-53.508	-55.174	64.092	-0.18970	0.67410	-0.62518	-0.34439	31.4	13111	100
2025-3-27 15:21:13.95	WT901BLE68-01(48591DE3C19B)	-0.438	0.548	-0.318	57.251	-6.653	95.032	-111.76	38.62	-39.72	-53.508	-55.174	64.092	-0.18970	0.67410	-0.62518	-0.34439	31.4	13111	100
2025-3-27 15:21:13.96	WT901BLE68-01(48591DE3C19B)	0.063	0.548	-0.318	57.251	-6.653	95.032	-111.54	39.70	-40.06	-53.508	-55.174	64.092	-0.59320	0.66519	-0.44577	-0.08252	31.4	13111	100
2025-3-27 15:21:13.155	WT901BLE68-01(48591DE3C19B)	0.063	0.654	-0.288	107.117	-38.574	93.567	-110.59	40.87	-40.00	-53.508	-55.174	64.092	-0.59320	0.66519	-0.44577	-0.08252	31.4	13111	100
2025-3-27 15:21:13.155	WT901BLE68-01(48591DE3C19B)	0.424	0.654	-0.288	107.117	-38.574	93.567	-109.65	42.05	-39.94	-53.508	-55.174	64.092	-0.59320	0.66519	-0.44577	-0.08252	31.4	13111	100
2025-3-27 15:21:13.155	WT901BLE68-01(48591DE3C19B)	0.424	0.867	-0.370	95.398	-37.842	78.796	-108.80	43.09	-39.81	-53.508	-55.174	64.092	-0.59320	0.66519	-0.44577	-0.08252	31.4	13111	100
2025-3-27 15:21:13.155	WT901BLE68-01(48591DE3C19B)	0.724	0.867	-0.370	95.398	-37.842	78.796	-107.98	44.13	-39.69	-53.508	-55.174	64.092	-0.59320	0.66519	-0.44577	-0.08252	31.4	13111	100
2025-3-27 15:21:13.190	WT901BLE68-01(48591DE3C19B)	0.724	0.964	-0.419	51.758	-5.310	80.505	-107.95	45.08	-40.05	-53.508	-55.174	64.092	-0.59320	0.66519	-0.44577	-0.08252	31.4	13111	100
2025-3-27 15:21:13.190	WT901BLE68-01(48591DE3C19B)	0.778	0.964	-0.419	51.758	-5.310	80.505	-107.98	46.04	-40.46	-53.508	-55.174	64.092	-0.59320	0.66519	-0.44577	-0.08252	31.4	13111	100
2025-3-27 15:21:13.190	WT901BLE68-01(48591DE3C19B)	0.533	1.101	-0.382	8.423	34.485	39.917	-108.80	46.49	-41.31	-53.508	-55.174	64.092	-0.59320	0.66519	-0.44577	-0.08252	31.4	13111	100
2025-3-27 15:21:13.190	WT901BLE68-01(48591DE3C19B)	0.533	0.983	-0.265	-59.021	61.401	16.968	-110.13	46.80	-42.38	-53.508	-55.174	64.092	-0.59320	0.66519	-0.44577	-0.08252	31.4	13111	100
2025-3-27 15:21:13.215	WT901BLE68-01(48591DE3C19B)	0.330	0.983	-0.265	-59.021	61.401	16.968	-111.96	46.95	-43.64	-53.508	-55.174	64.092	-0.59320	0.66519	-0.44577	-0.08252	31.4	13111	100
2025-3-27 15:21:13.215	WT901BLE68-01(48591DE3C19B)	0.330	0.778	-0.133	-90.393	56.580	5.676	-113.93	47.04	-44.89	-53.508	-55.174	64.092	-0.59320	0.66519	-0.44577	-0.08252	31.4	13111	100
2025-3-27 15:21:13.216	WT901BLE68-01(48591DE3C19B)	0.156	0.778	-0.133	-90.393	56.580	5.676	-116.05	47.09	-46.10	-53.508	-55.174	64.092	-0.59320	0.66519	-0.44577	-0.08252	31.4	13111	100
2025-3-27 15:21:13.216	WT901BLE68-01(48591DE3C19B)	0.156	0.681	-0.108	-122.009	42.664	2.563	-118.27	47.14	-47.24	-53.508	-55.174	64.092	-0.59320	0.66519	-0.44577	-0.08252	31.4	13111	100
2025-3-27 15:21:13.275	WT901BLE68-01(48591DE3C19B)	-0.244	0.681	-0.108	-122.009	42.664	2.563	-120.57	47.19	-48.29	-53.508	-55.174	64.092	-0.59320	0.66519	-0.44577	-0.08252	31.4	13111	100
2025-3-27 15:21:13.275	WT901BLE68-01(48591DE3C19B)	-0.244	0.496	-0.451	-170.959	35.156	-0.916	-123.09	47.24	-49.28	-53.508	-55.174	64.092	-0.59320	0.66519	-0.44577	-0.08252	31.4	13111	100
2025-3-27 15:21:13.275	WT901BLE68-01(48591DE3C19B)	-1.430	0.496	-0.451	-170.959	35.156	-0.916	-125.78	47.25	-50.20	-53.508	-55.174	64.092	-0.59320	0.66519	-0.44577	-0.08252	31.4	13111	100
2025-3-27 15:21:13.275	WT901BLE68-01(48591DE3C19B)	-1.430	0.372	-1.106	-240.662	43.701	6.226	-128.85	47.23	-51.17	-53.508	-55.174	64.092	-0.59320	0.66519	-0.44577	-0.08252	31.4	13111	100
2025-3-27 15:21:13.305	WT901BLE68-01(48591DE3C19B)	-3.617	0.372	-1.106	-240.662	43.701	6.226	-132.25	47.15	-52.14	-62.034	-19.992	76.146	-0.59320	0.66519	-0.44577	-0.08252	31.4	13111	100
2025-3-27 15:21:13.306	WT901BLE68-01(48591DE3C19B)	-3.617	-0.142	-1.462	-294.617	155.518	107.971	-136.62	46.98	-54.12	-62.034	-19.992	76.146	-0.59320	0.66519	-0.44577	-0.08252	31.4	13111	100
2025-3-27 15:21:13.306	WT901BLE68-01(48591DE3C19B)	-4.457	-0.142	-1.462	-294.617	155.518	107.971	-141.90	46.63	-57.02	-62.034	-19.992	76.146	-0.59320	0.66519	-0.44577	-0.08252	31.4	13111	100
2025-3-27 15:21:13.306	WT901BLE68-01(48591DE3C19B)	-4.457	-0.187	-2.185	-306.396	153.503	190.308	-147.42	46.34	-60.25	-62.034	-19.992	76.146	-0.59320	0.66519	-0.44577	-0.08252	31.4	13111	100
2025-3-27 15:21:13.335	WT901BLE68-01(48591DE3C19B)	-5.290	-0.187	-2.185	-306.396	153.503	190.308	-153.22	46.05	-63.84	-62.034	-19.992	76.146	-0.59320	0.66519	-0.44577	-0.08252	31.4	13111	100
2025-3-27 15:21:13.335	WT901BLE68-01(48591DE3C19B)	-5.290	-0.998	-1.963	-360.107	56.458	248.291	-159.24	46.08	-67.41	-62.034	-19.992	76.146	-0.59320	0.66519	-0.44577	-0.08252	31.4	13111	100
2025-3-27 15:21:13.335	WT901BLE68-01(48591DE3C19B)	-3.984	-0.998	-1.963	-360.107	56.458	248.291	-165.59	46.40	-71.09	-62.034	-19.992	76.146	-0.59320	0.66519	-0.44577	-0.08252	31.4	13111	100
2025-3-27 15:21:13.335	WT901BLE68-01(48591DE3C19B)	-3.984	-1.628	-1.835	-333.252	-85.388	250.732	-171.68	47.13	-74.62	-62.034	-19.992	76.146	-0.59320	0.66519	-0.44577	-0.08252	31.4	13111	100
2025-3-27 15:21:13.396	WT901BLE68-01(48591DE3C19B)	-2.488	-1.628	-1.835	-333.252	-85.388	250.732	-177.66	48.31	-78.16	-62.034	-19.992	76.146	-0.59320	0.66519	-0.44577	-0.08252	31.4	13111	100
2025-3-27 15:21:13.396	WT901BLE68-01(48591DE3C19B)	-2.488	-1.720	-1.355	-250.366	-121.338	220.337	176.76	49.42	-81.67	-62.034	-19.992	76.146	-0.59320	0.66519	-0.44577	-0.08252	31.4	13111	100
2025-3-27 15:21:13.396	WT901BLE68-01(48591DE3C19B)	-1.454	-1.720	-1.355	-250.366	-121.338	220.337	171.61	50.49	-85.14	-62.034	-19.992	76.146	-0.59320	0.66519	-0.44577	-0.08252	31.4	13111	100
2025-3-27 15:21:13.396	WT901BLE68-01(48591DE3C19B)	-1.454	-1.142	-0.654	-172.607	-132.690	191.101	166.85	51.44	-88.57	-62.034	-19.992	76.146	-0.59320	0.66519	-0.44577	-0.08252	31.4	13111	100
2025-3-27 15:21:13.426	WT901BLE68-01(48591DE3C19B)	-0.733	-1.142	-0.654	-172.607	-132.690	191.101	162.52	52.32	-91.94	-62.034	-19.992	76.146	-0.59320	0.66519	-0.44577	-0.08252	31.4	13111	100
2025-3-27 15:21:13.426	WT901BLE68-01(48591DE3C19B)	-0.733	-0.712	-0.270	-167.236	-170.837	154.419	158.21	53.27	-95.27	-62.034	-19.992	76.146	-0.59320	0.66519	-0.44577	-0.08252	31.4	13111	100
2025-3-27 15:21:13.426	WT901BLE68-01(48591DE3C19B)	-0.036	-0.712	-0.270	-167.236	-170.837	154.419	153.91	54.32	-98.60	-62.034	-19.992	76.146	-0.59320	0.66519	-0.44577	-0.08252	31.4	13111	100
2025-3-27 15:21:13.427	WT901BLE68-01(48591DE3C19B)	-0.036	-0.544	-0.142	-171.448	-212.769	108.765	149.55	55.50	-101.93	-62.034	-19.992	76.146	-0.59320	0.66519	-0.44577	-0.08252	31.4	13111	100
2025-3-27 15:21:13.456	WT901BLE68-01(48591DE3C19B)	0.678	-0.544	-0.142	-171.448	-212.769	108.765	145.06	56.83	-105.35	-62.034	-19.992	76.146	-0.59320	0.66519	-0.44577	-0.08252	31.4	13111	100
2025-3-27 15:21:13.456	WT901BLE68-01(48591DE3C19B)	0.678	-0.517	-0.188	-197.021	-229.187	45.715	140.50	58.26	-108.67	-62.034	-19.992	76.146	-0.59320	0.66519	-0.44577	-0.08252	31.4	13111	100
2025-3-27 15:21:13.456	WT901BLE68-01(48591DE3C19B)	1.523	-0.517	-0.188	-197.021	-229.187	45.715	135.81	59.79	-111.93	-62.034	-19.992	76.146	-0.59320	0.66519	-0.44577	-0.08252	31.4	13111	100
2025-3-27 15:21:13.456	WT901BLE68-01(48591DE3C19B)	1.523	-0.823	-0.368	-278.381	-200.134	-2.563	130.89	61.26	-114.98	-62.034	-19.992	76.146	-0.59320	0.66519	-0.44577	-0.08252	31.4	13111	100
2025-3-27 15:21:13.515	WT901BLE68-01(48591DE3C19B)	2.000	-0.823	-0.368	-278.381	-200.134	-2.563	125.78	62.67	-117.77	-62.034	-19.992	76.146	-0.59320	0.66519	-0.44577	-0.08252	31.4	13111	100
2025-3-27 15:21:13.516	WT901BLE68-01(48591DE3C19B)	2.000	-1.576	-0.212	-187.195	-89.600	-88.806	122.29	64.03	-119.25	-62.034	-19.992	76.146	-0.19397	0.59848	-0.50323	-0.59232	31.4	13111	100
2025-3-27 15:21:13.516	WT901BLE68-01(48591DE3C19B)	1.266	-1.576	-0.212	-187.195	-89.600	-88.806	120.71	65.43	-119.15	-62.034	-19.992	76.146	-0.19397	0.59848	-0.50323	-0.59232	31.4	13111	100
2025-3-27 15:21:13.516	WT901BLE68-01(48591DE3C19B)	1.266	-1.196	0.063	-58.289	21.851	-128.723	121.20	66.73	-117.53	-62.034	-19.992	76.146	-0.19397	0.59848	-0.50323	-0.59232	31.4	13111	100
2025-3-27 15:21:13.545	WT901BLE68-01(48591DE3C19B)	0.793	-1.196	0.063	-58.289	21.851	-128.723	123.98	67.87	-114.15	-62.034	-19.992	76.146	-0.19397	0.59848	-0.50323	-0.59232	31.4	13111	100
2025-3-27 15:21:13.545	WT901BLE68-01(48591DE3C19B)	0.793	-0.997	0.162	-60.120	9.094	-187.317	127.46	69.21	-110.03	-62.034	-19.992	76.146	-0.19397	0.59848	-0.50323	-0.59232	31.4	13111	100
2025-3-27 15:21:13.545	WT901BLE68-01(48591DE3C19B)	0.808	-0.997	0.162	-60.120	9.094	-187.317	131.91	70.71	-104.95	-62.034	-19.992	76.146	-0.19397	0.59848	-0.50323	-0.59232	31.4	13111	100
2025-3-27 15:21:13.545	WT901BLE68-01(48591DE3C19B)	0.808	-1.354	0.063	-44.678	-1.526	-247.192	137.80	72.28	-98.48	-62.034	-19.992	76.146	-0.19397	0.59848	-0.50323	-0.59232	31.4	13111	100
2025-3-27 15:21:13.575	WT901BLE68-01(48591DE3C19B)	0.674	-1.354	0.063	-44.678	-1.526	-247.192	145.63	73.83	-90.11	-62.034	-19.992	76.146	-0.19397	0.59848	-0.50323	-0.59232	31.4	13111	100
2025-3-27 15:21:13.575	WT901BLE68-01(48591DE3C19B)	0.674	-1.520	-0.059	17.151	28.442	-282.043	156.06	74.92	-79.43	-62.034	-19.992	76.146	-0.19397	0.59848	-0.50323	-0.59232	31.4	13111	100
2025-3-27 15:21:13.575	WT901BLE68-01(48591DE3C19B)	0.375	-1.520	-0.059	17.151	28.442	-282.043	168.72	75.31	-66.79	-62.034	-19.992	76.146	-0.19397	0.59848	-0.50323	-0.59232	31.4	13111	100
2025-3-27 15:21:13.575	WT901BLE68-01(48591DE3C19B)	0.375	-1.439	-0.150	77.332	50.354	-305.664	-177.88	74.85	-53.70	-62.034	-19.992	76.146	-0.19397	0.59848	-0.50323	-0.59232	31.4	13111	100
2025-3-27 15:21:13.667	WT901BLE68-01(48591DE3C19B)	0.103	-1.439	-0.150	77.332	50.354	-305.664	-165.29	73.52	-41.69	-62.034	-19.992	76.146	-0.19397	0.59848	-0.50323	-0.59232	31.4	13111	100
2025-3-27 15:21:13.667	WT901BLE68-01(48591DE3C19B)	0.103	-1.366	-0.168	115.662	88.196	-322.876	-154.75	71.36	-31.92	-62.034	-19.992	76.146	-0.19397	0.59848	-0.50323	-0.59232	31.4	13111	100
2025-3-27 15:21:13.667	WT901BLE68-01(48591DE3C19B)	-0.464	-1.366	-0.168	115.662	88.196	-322.876	-146.42	68.56	-24.54	-62.034	-19.992	76.146	-0.19397	0.59848	-0.50323	-0.59232	31.4	13111	100
2025-3-27 15:21:13.667	WT901BLE68-01(48591DE3C19B)	-0.464	-1.481	0.026	168.335	182.495	-301.880	-140.56	65.18	-19.98	-62.034	-19.992	76.146	-0.19397	0.59848	-0.50323	-0.59232	31.4	13111	100
2025-3-27 15:21:13.668	WT901BLE68-01(48591DE3C19B)	-2.925	-1.481	0.026	168.335	182.495	-301.880	-136.45	61.40	-17.53	-62.034	-19.992	76.146	-0.19397	0.59848	-0.50323	-0.59232	31.4	13111	100
2025-3-27 15:21:13.668	WT901BLE68-01(48591DE3C19B)	-2.925	-2.021	-0.354	254.578	228.394	-270.996	-133.14	57.54	-16.90	-62.034	-19.992	76.146	-0.19397	0.59848	-0.50323	-0.59232	31.4	13111	100
2025-3-27 15:21:13.668	WT901BLE68-01(48591DE3C19B)	-5.732	-2.021	-0.354	254.578	228.394	-270.996	-130.20	53.74	-16.68	-62.034	-19.992	76.146	-0.19397	0.59848	-0.50323	-0.59232	31.4	13111	100
2025-3-27 15:21:13.668	WT901BLE68-01(48591DE3C19B)	-5.732	-2.354	-0.506	265.076	-112.488	-284.424	-123.90	52.00	-12.31	-62.034	-19.992	76.146	-0.19397	0.59848	-0.50323	-0.59232	31.4	13111	100
2025-3-27 15:21:13.695	WT901BLE68-01(48591DE3C19B)	-4.390	-2.354	-0.506	265.076	-112.488	-284.424	-118.10	50.07	-8.42	-62.034	-19.992	76.146	-0.19397	0.59848	-0.50323	-0.59232	31.4	13111	100
2025-3-27 15:21:13.695	WT901BLE68-01(48591DE3C19B)	-4.390	-1.612	-0.188	211.243	-292.847	-226.685	-111.65	49.22	-2.85	-62.034	-19.992	76.146	-0.19397	0.59848	-0.50323	-0.59232	31.4	13111	100
2025-3-27 15:21:13.695	WT901BLE68-01(48591DE3C19B)	-2.643	-1.612	-0.188	211.243	-292.847	-226.685	-105.52	48.01	2.43	-40.474	-41.846	67.032	-0.19397	0.59848	-0.50323	-0.59232	31.4	13111	100
2025-3-27 15:21:13.696	WT901BLE68-01(48591DE3C19B)	-2.643	-2.173	0.553	158.325	10.742	-98.022	-103.73	47.05	2.62	-40.474	-41.846	67.032	-0.19397	0.59848	-0.50323	-0.59232	31.4	13111	100
2025-3-27 15:21:13.791	WT901BLE68-01(48591DE3C19B)	-2.241	-2.173	0.553	158.325	10.742	-98.022	-101.98	46.10	2.77	-40.474	-41.846	67.032	-0.19397	0.59848	-0.50323	-0.59232	31.4	13111	100
2025-3-27 15:21:13.791	WT901BLE68-01(48591DE3C19B)	-2.241	-1.811	0.078	232.361	308.533	36.133	-102.80	45.82	-1.66	-40.474	-41.846	67.032	-0.19397	0.59848	-0.50323	-0.59232	31.4	13111	100
2025-3-27 15:21:13.791	WT901BLE68-01(48591DE3C19B)	-1.943	-1.811	0.078	232.361	308.533	36.133	-103.57	45.50	-6.05	-40.474	-41.846	67.032	-0.19397	0.59848	-0.50323	-0.59232	31.4	13111	100
2025-3-27 15:21:13.791	WT901BLE68-01(48591DE3C19B)	-1.943	-0.804	-0.273	259.583	368.774	85.510	-104.77	45.47	-11.40	-40.474	-41.846	67.032	-0.19397	0.59848	-0.50323	-0.59232	31.4	13111	100
2025-3-27 15:21:13.791	WT901BLE68-01(48591DE3C19B)	-1.509	-0.804	-0.273	259.583	368.774	85.510	-105.95	45.37	-16.72	-40.474	-41.846	67.032	-0.19397	0.59848	-0.50323	-0.59232	31.4	13111	100
2025-3-27 15:21:13.791	WT901BLE68-01(48591DE3C19B)	-1.509	-0.221	-0.356	258.789	327.393	91.614	-106.75	45.38	-21.47	-40.474	-41.846	67.032	-0.19397	0.59848	-0.50323	-0.59232	31.4	13111	100
2025-3-27 15:21:13.791	WT901BLE68-01(48591DE3C19B)	-1.336	-0.221	-0.356	258.789	327.393	91.614	-107.56	45.36	-26.21	-40.474	-41.846	67.032	-0.19397	0.59848	-0.50323	-0.59232	31.4	13111	100
2025-3-27 15:21:13.791	WT901BLE68-01(48591DE3C19B)	-1.336	0.238	-0.375	246.033	213.501	82.275	-107.39	45.59	-29.36	-40.474	-41.846	67.032	-0.19397	0.59848	-0.50323	-0.59232	31.4	13111	100
2025-3-27 15:21:13.815	WT901BLE68-01(48591DE3C19B)	-0.881	0.238	-0.375	246.033	213.501	82.275	-107.26	45.82	-32.51	-40.474	-41.846	67.032	-0.19397	0.59848	-0.50323	-0.59232	31.4	13111	100
2025-3-27 15:21:13.815	WT901BLE68-01(48591DE3C19B)	-0.881	0.571	-0.382	198.792	88.135	72.815	-106.38	46.37	-33.92	-40.474	-41.846	67.032	-0.19397	0.59848	-0.50323	-0.59232	31.4	13111	100
2025-3-27 15:21:13.816	WT901BLE68-01(48591DE3C19B)	-0.244	0.571	-0.382	198.792	88.135	72.815	-105.53	46.93	-35.34	-40.474	-41.846	67.032	-0.19397	0.59848	-0.50323	-0.59232	31.4	13111	100
2025-3-27 15:21:13.816	WT901BLE68-01(48591DE3C19B)	-0.244	0.716	-0.345	166.199	7.263	35.706	-104.10	47.37	-35.48	-40.474	-41.846	67.032	-0.19397	0.59848	-0.50323	-0.59232	31.4	13111	100
2025-3-27 15:21:13.875	WT901BLE68-01(48591DE3C19B)	0.140	0.716	-0.345	166.199	7.263	35.706	-102.69	47.82	-35.62	-40.474	-41.846	67.032	-0.19397	0.59848	-0.50323	-0.59232	31.4	13111	100
2025-3-27 15:21:13.875	WT901BLE68-01(48591DE3C19B)	0.140	0.715	-0.348	169.678	0.610	53.650	-101.25	48.48	-35.72	-40.474	-41.846	67.032	-0.19397	0.59848	-0.50323	-0.59232	31.4	13111	100
2025-3-27 15:21:13.875	WT901BLE68-01(48591DE3C19B)	0.544	0.715	-0.348	169.678	0.610	53.650	-99.82	49.14	-35.83	-40.474	-41.846	67.032	-0.19397	0.59848	-0.50323	-0.59232	31.4	13111	100
2025-3-27 15:21:13.875	WT901BLE68-01(48591DE3C19B)	0.544	0.899	-0.477	177.002	1.709	4.822	-98.28	49.32	-35.84	-40.474	-41.846	67.032	-0.19397	0.59848	-0.50323	-0.59232	31.4	13111	100
2025-3-27 15:21:13.905	WT901BLE68-01(48591DE3C19B)	0.801	0.899	-0.477	177.002	1.709	4.822	-96.80	49.53	-35.90	-40.474	-41.846	67.032	-0.19397	0.59848	-0.50323	-0.59232	31.4	13111	100
2025-3-27 15:21:13.905	WT901BLE68-01(48591DE3C19B)	0.801	1.235	-0.438	141.846	46.448	-30.151	-96.22	49.36	-36.63	-40.474	-41.846	67.032	-0.19397	0.59848	-0.50323	-0.59232	31.4	13111	100
2025-3-27 15:21:13.906	WT901BLE68-01(48591DE3C19B)	0.793	1.235	-0.438	141.846	46.448	-30.151	-95.73	49.22	-37.45	-40.474	-41.846	67.032	-0.19397	0.59848	-0.50323	-0.59232	31.4	13111	100
2025-3-27 15:21:13.906	WT901BLE68-01(48591DE3C19B)	0.793	1.415	-0.523	26.245	106.384	-30.640	-97.19	49.04	-39.26	-40.474	-41.846	67.032	-0.67130	0.55051	-0.48776	-0.09100	31.4	13111	100
2025-3-27 15:21:13.935	WT901BLE68-01(48591DE3C19B)	0.565	1.415	-0.523	26.245	106.384	-30.640	-98.71	48.86	-41.15	-40.474	-41.846	67.032	-0.67130	0.55051	-0.48776	-0.09100	31.4	13111	100
2025-3-27 15:21:13.935	WT901BLE68-01(48591DE3C19B)	0.565	1.091	-0.491	-55.237	133.789	-27.649	-101.38	48.64	-43.49	-40.474	-41.846	67.032	-0.67130	0.55051	-0.48776	-0.09100	31.4	13111	100
2025-3-27 15:21:13.935	WT901BLE68-01(48591DE3C19B)	0.167	1.091	-0.491	-55.237	133.789	-27.649	-104.04	48.37	-45.84	-40.474	-41.846	67.032	-0.67130	0.55051	-0.48776	-0.09100	31.4	13111	100
2025-3-27 15:21:13.935	WT901BLE68-01(48591DE3C19B)	0.167	0.944	-0.458	-89.417	114.502	-28.076	-106.81	48.09	-47.88	-40.474	-41.846	67.032	-0.67130	0.55051	-0.48776	-0.09100	31.4	13111	100
2025-3-27 15:21:13.995	WT901BLE68-01(48591DE3C19B)	-0.246	0.944	-0.458	-89.417	114.502	-28.076	-109.54	47.75	-49.89	-40.474	-41.846	67.032	-0.67130	0.55051	-0.48776	-0.09100	31.4	13111	100
2025-3-27 15:21:13.996	WT901BLE68-01(48591DE3C19B)	-0.246	0.858	-0.638	-145.630	55.969	-16.541	-112.24	47.66	-51.10	-40.474	-41.846	67.032	-0.67130	0.55051	-0.48776	-0.09100	31.4	13111	100
2025-3-27 15:21:13.996	WT901BLE68-01(48591DE3C19B)	-0.970	0.858	-0.638	-145.630	55.969	-16.541	-114.92	47.53	-52.28	-40.474	-41.846	67.032	-0.67130	0.55051	-0.48776	-0.09100	31.4	13111	100
2025-3-27 15:21:13.996	WT901BLE68-01(48591DE3C19B)	-0.970	0.751	-1.273	-247.559	8.179	-0.427	-118.18	47.70	-52.88	-40.474	-41.846	67.032	-0.67130	0.55051	-0.48776	-0.09100	31.4	13111	100
2025-3-27 15:21:14.25	WT901BLE68-01(48591DE3C19B)	-2.395	0.751	-1.273	-247.559	8.179	-0.427	-121.42	47.83	-53.46	-40.474	-41.846	67.032	-0.67130	0.55051	-0.48776	-0.09100	31.4	13111	100
2025-3-27 15:21:14.26	WT901BLE68-01(48591DE3C19B)	-2.395	0.360	-1.540	-358.032	112.976	35.706	-126.86	47.63	-55.56	-40.474	-41.846	67.032	-0.67130	0.55051	-0.48776	-0.09100	31.4	13111	100
2025-3-27 15:21:14.26	WT901BLE68-01(48591DE3C19B)	-4.352	0.360	-1.540	-358.032	112.976	35.706	-132.17	47.30	-57.53	-40.474	-41.846	67.032	-0.67130	0.55051	-0.48776	-0.09100	31.4	13111	100
2025-3-27 15:21:14.26	WT901BLE68-01(48591DE3C19B)	-4.352	0.129	-2.101	-294.128	187.073	76.843	-137.55	46.62	-60.51	-40.474	-41.846	67.032	-0.67130	0.55051	-0.48776	-0.09100	31.4	13111	100
2025-3-27 15:21:14.56	WT901BLE68-01(48591DE3C19B)	-5.745	0.129	-2.101	-294.128	187.073	76.843	-142.71	45.77	-63.25	-40.474	-41.846	67.032	-0.67130	0.55051	-0.48776	-0.09100	31.4	13111	100
2025-3-27 15:21:14.56	WT901BLE68-01(48591DE3C19B)	-5.745	-0.612	-2.408	-443.176	96.558	183.716	-149.53	46.08	-66.32	-40.474	-41.846	67.032	-0.67130	0.55051	-0.48776	-0.09100	31.4	13111	100
2025-3-27 15:21:14.56	WT901BLE68-01(48591DE3C19B)	-3.914	-0.612	-2.408	-443.176	96.558	183.716	-156.32	46.15	-69.36	-40.474	-41.846	67.032	-0.67130	0.55051	-0.48776	-0.09100	31.4	13111	100
2025-3-27 15:21:14.57	WT901BLE68-01(48591DE3C19B)	-3.914	-1.908	-2.207	-472.351	9.277	235.596	-163.54	46.95	-72.63	-40.474	-41.846	67.032	-0.67130	0.55051	-0.48776	-0.09100	31.4	13111	100
2025-3-27 15:21:14.116	WT901BLE68-01(48591DE3C19B)	-2.435	-1.908	-2.207	-472.351	9.277	235.596	-170.82	47.45	-76.00	-40.474	-41.846	67.032	-0.67130	0.55051	-0.48776	-0.09100	31.4	13111	100
2025-3-27 15:21:14.116	WT901BLE68-01(48591DE3C19B)	-2.435	-2.353	-1.587	-332.825	29.480	184.509	-176.16	47.44	-78.68	-66.934	-36.162	73.598	-0.67130	0.55051	-0.48776	-0.09100	31.4	13111	100
2025-3-27 15:21:14.116	WT901BLE68-01(48591DE3C19B)	-1.856	-2.353	-1.587	-332.825	29.480	184.509	178.57	47.26	-81.29	-66.934	-36.162	73.598	-0.67130	0.55051	-0.48776	-0.09100	31.4	13111	100
2025-3-27 15:21:14.116	WT901BLE68-01(48591DE3C19B)	-0.975	-1.216	-0.530	-229.126	-38.391	147.339	174.76	47.64	-83.36	-66.934	-36.162	73.598	-0.67130	0.55051	-0.48776	-0.09100	31.4	13111	100
2025-3-27 15:21:14.145	WT901BLE68-01(48591DE3C19B)	-0.975	-0.828	-0.295	-300.903	-171.265	115.723	170.65	48.61	-85.36	-66.934	-36.162	73.598	-0.67130	0.55051	-0.48776	-0.09100	31.4	13111	100
2025-3-27 15:21:14.145	WT901BLE68-01(48591DE3C19B)	0.207	-0.828	-0.295	-300.903	-171.265	115.723	166.09	50.15	-87.45	-66.934	-36.162	73.598	-0.67130	0.55051	-0.48776	-0.09100	31.4	13111	100
2025-3-27 15:21:14.145	WT901BLE68-01(48591DE3C19B)	0.207	-1.168	-0.094	-328.125	-234.131	67.505	161.37	51.93	-89.55	-66.934	-36.162	73.598	-0.67130	0.55051	-0.48776	-0.09100	31.4	13111	100
2025-3-27 15:21:14.145	WT901BLE68-01(48591DE3C19B)	1.362	-1.168	-0.094	-328.125	-234.131	67.505	156.41	53.97	-91.75	-66.934	-36.162	73.598	-0.67130	0.55051	-0.48776	-0.09100	31.4	13111	100
2025-3-27 15:21:14.175	WT901BLE68-01(48591DE3C19B)	1.362	-1.509	0.099	-268.921	-217.712	19.714	151.81	55.91	-93.86	-66.934	-36.162	73.598	-0.67130	0.55051	-0.48776	-0.09100	31.4	13111	100
2025-3-27 15:21:14.175	WT901BLE68-01(48591DE3C19B)	2.181	-1.509	0.099	-268.921	-217.712	19.714	147.62	57.79	-95.81	-66.934	-36.162	73.598	-0.67130	0.55051	-0.48776	-0.09100	31.4	13111	100
2025-3-27 15:21:14.175	WT901BLE68-01(48591DE3C19B)	2.181	-1.572	0.086	-117.004	-119.873	-77.637	145.12	59.45	-96.71	-66.934	-36.162	73.598	-0.67130	0.55051	-0.48776	-0.09100	31.4	13111	100
2025-3-27 15:21:14.175	WT901BLE68-01(48591DE3C19B)	1.647	-1.572	0.086	-117.004	-119.873	-77.637	144.56	60.96	-96.25	-66.934	-36.162	73.598	-0.67130	0.55051	-0.48776	-0.09100	31.4	13111	100
2025-3-27 15:21:14.235	WT901BLE68-01(48591DE3C19B)	1.647	-1.087	0.191	-37.415	8.484	-112.122	145.50	62.02	-94.61	-66.934	-36.162	73.598	-0.67130	0.55051	-0.48776	-0.09100	31.4	13111	100
2025-3-27 15:21:14.236	WT901BLE68-01(48591DE3C19B)	0.961	-1.087	0.191	-37.415	8.484	-112.122	147.97	62.59	-91.71	-66.934	-36.162	73.598	-0.67130	0.55051	-0.48776	-0.09100	31.4	13111	100
2025-3-27 15:21:14.236	WT901BLE68-01(48591DE3C19B)	0.961	-1.017	0.066	-13.916	21.240	-174.377	151.33	63.18	-87.97	-66.934	-36.162	73.598	-0.67130	0.55051	-0.48776	-0.09100	31.4	13111	100
2025-3-27 15:21:14.236	WT901BLE68-01(48591DE3C19B)	0.740	-1.017	0.066	-13.916	21.240	-174.377	155.62	63.72	-83.36	-66.934	-36.162	73.598	-0.67130	0.55051	-0.48776	-0.09100	31.4	13111	100
2025-3-27 15:21:14.266	WT901BLE68-01(48591DE3C19B)	0.740	-1.219	-0.134	20.874	-26.062	-232.239	160.66	64.40	-78.13	-66.934	-36.162	73.598	-0.67130	0.55051	-0.48776	-0.09100	31.4	13111	100
2025-3-27 15:21:14.266	WT901BLE68-01(48591DE3C19B)	0.714	-1.219	-0.134	20.874	-26.062	-232.239	166.60	65.14	-72.14	-66.934	-36.162	73.598	-0.67130	0.55051	-0.48776	-0.09100	31.4	13111	100
2025-3-27 15:21:14.267	WT901BLE68-01(48591DE3C19B)	0.714	-1.408	-0.259	68.909	-51.941	-252.563	173.25	65.74	-65.64	-66.934	-36.162	73.598	-0.67130	0.55051	-0.48776	-0.09100	31.4	13111	100
2025-3-27 15:21:14.267	WT901BLE68-01(48591DE3C19B)	0.537	-1.408	-0.259	68.909	-51.941	-252.563	-179.38	66.13	-58.65	-66.934	-36.162	73.598	-0.67130	0.55051	-0.48776	-0.09100	31.4	13111	100
2025-3-27 15:21:14.295	WT901BLE68-01(48591DE3C19B)	0.537	-1.455	-0.235	115.540	-37.659	-268.921	-171.54	66.06	-51.38	-66.934	-36.162	73.598	-0.67130	0.55051	-0.48776	-0.09100	31.4	13111	100
2025-3-27 15:21:14.295	WT901BLE68-01(48591DE3C19B)	0.402	-1.455	-0.235	115.540	-37.659	-268.921	-163.52	65.48	-44.14	-66.934	-36.162	73.598	-0.67130	0.55051	-0.48776	-0.09100	31.4	13111	100
2025-3-27 15:21:14.295	WT901BLE68-01(48591DE3C19B)	0.402	-1.536	-0.065	150.085	15.259	-282.898	-155.91	64.23	-37.48	-66.934	-36.162	73.598	-0.33441	0.74872	-0.37115	-0.43558	31.4	13111	100
2025-3-27 15:21:14.295	WT901BLE68-01(48591DE3C19B)	-0.149	-1.536	-0.065	150.085	15.259	-282.898	-149.02	62.38	-31.72	-66.934	-36.162	73.598	-0.33441	0.74872	-0.37115	-0.43558	31.4	13111	100
2025-3-27 15:21:14.355	WT901BLE68-01(48591DE3C19B)	-0.149	-1.698	0.226	182.251	116.333	-276.733	-143.38	59.86	-27.45	-66.934	-36.162	73.598	-0.33441	0.74872	-0.37115	-0.43558	31.4	13111	100
2025-3-27 15:21:14.355	WT901BLE68-01(48591DE3C19B)	-2.149	-1.698	0.226	182.251	116.333	-276.733	-138.90	56.83	-24.61	-66.934	-36.162	73.598	-0.33441	0.74872	-0.37115	-0.43558	31.4	13111	100
2025-3-27 15:21:14.355	WT901BLE68-01(48591DE3C19B)	-2.149	-2.399	-0.328	192.505	210.693	-238.037	-135.60	53.52	-23.17	-66.934	-36.162	73.598	-0.33441	0.74872	-0.37115	-0.43558	31.4	13111	100
2025-3-27 15:21:14.356	WT901BLE68-01(48591DE3C19B)	-4.747	-2.399	-0.328	192.505	210.693	-238.037	-133.21	50.05	-22.86	-66.934	-36.162	73.598	-0.33441	0.74872	-0.37115	-0.43558	31.4	13111	100
2025-3-27 15:21:14.390	WT901BLE68-01(48591DE3C19B)	-4.747	-3.514	-1.190	253.357	140.015	-198.303	-130.56	47.03	-22.58	-66.934	-36.162	73.598	-0.33441	0.74872	-0.37115	-0.43558	31.4	13111	100
2025-3-27 15:21:14.390	WT901BLE68-01(48591DE3C19B)	-3.842	-3.514	-1.190	253.357	140.015	-198.303	-127.66	44.48	-22.30	-66.934	-36.162	73.598	-0.33441	0.74872	-0.37115	-0.43558	31.4	13111	100
2025-3-27 15:21:14.390	WT901BLE68-01(48591DE3C19B)	-3.842	-1.699	-1.452	295.593	112.427	-133.972	-124.79	42.32	-22.31	-66.934	-36.162	73.598	-0.33441	0.74872	-0.37115	-0.43558	31.4	13111	100
2025-3-27 15:21:14.390	WT901BLE68-01(48591DE3C19B)	-3.723	-1.699	-1.452	295.593	112.427	-133.972	-121.90	40.55	-22.54	-66.934	-36.162	73.598	-0.33441	0.74872	-0.37115	-0.43558	31.4	13111	100
2025-3-27 15:21:14.415	WT901BLE68-01(48591DE3C19B)	-3.723	-1.274	-0.967	212.585	274.902	-21.484	-120.32	38.90	-24.15	-66.934	-36.162	73.598	-0.33441	0.74872	-0.37115	-0.43558	31.4	13111	100
2025-3-27 15:21:14.415	WT901BLE68-01(48591DE3C19B)	-3.395	-1.274	-0.967	212.585	274.902	-21.484	-119.92	37.38	-26.98	-66.934	-36.162	73.598	-0.33441	0.74872	-0.37115	-0.43558	31.4	13111	100
2025-3-27 15:21:14.416	WT901BLE68-01(48591DE3C19B)	-3.395	-0.962	-0.716	214.050	304.993	42.664	-119.65	36.10	-30.12	-66.934	-36.162	73.598	-0.33441	0.74872	-0.37115	-0.43558	31.4	13111	100
2025-3-27 15:21:14.416	WT901BLE68-01(48591DE3C19B)	-2.788	-0.962	-0.716	214.050	304.993	42.664	-119.53	35.05	-33.57	-66.934	-36.162	73.598	-0.33441	0.74872	-0.37115	-0.43558	31.4	13111	100
2025-3-27 15:21:14.505	WT901BLE68-01(48591DE3C19B)	-2.788	-0.333	-0.671	194.336	182.495	74.158	-119.14	34.48	-36.42	-66.934	-36.162	73.598	-0.33441	0.74872	-0.37115	-0.43558	31.4	13111	100
2025-3-27 15:21:14.505	WT901BLE68-01(48591DE3C19B)	-2.079	-0.333	-0.671	194.336	182.495	74.158	-118.54	34.37	-38.70	-66.934	-36.162	73.598	-0.33441	0.74872	-0.37115	-0.43558	31.4	13111	100
2025-3-27 15:21:14.505	WT901BLE68-01(48591DE3C19B)	-2.079	0.170	-0.696	140.137	48.523	89.294	-117.84	34.68	-40.30	-66.934	-36.162	73.598	-0.33441	0.74872	-0.37115	-0.43558	31.4	13111	100
2025-3-27 15:21:14.505	WT901BLE68-01(48591DE3C19B)	-1.391	0.170	-0.696	140.137	48.523	89.294	-117.07	35.39	-41.24	-66.934	-36.162	73.598	-0.33441	0.74872	-0.37115	-0.43558	31.4	13111	100
2025-3-27 15:21:14.505	WT901BLE68-01(48591DE3C19B)	-1.391	0.335	-0.550	94.727	-39.917	103.882	-116.28	36.38	-41.73	-66.934	-36.162	73.598	-0.33441	0.74872	-0.37115	-0.43558	31.4	13111	100
2025-3-27 15:21:14.505	WT901BLE68-01(48591DE3C19B)	-0.744	0.335	-0.550	94.727	-39.917	103.882	-115.48	37.63	-41.76	-66.934	-36.162	73.598	-0.33441	0.74872	-0.37115	-0.43558	31.4	13111	100
2025-3-27 15:21:14.505	WT901BLE68-01(48591DE3C19B)	-0.744	0.421	-0.395	96.008	-93.628	99.854	-114.47	38.97	-41.46	-66.934	-36.162	73.598	-0.33441	0.74872	-0.37115	-0.43558	31.4	13111	100
2025-3-27 15:21:14.505	WT901BLE68-01(48591DE3C19B)	-0.086	0.421	-0.395	96.008	-93.628	99.854	-113.24	40.41	-40.80	-66.934	-36.162	73.598	-0.33441	0.74872	-0.37115	-0.43558	31.4	13111	100
2025-3-27 15:21:14.564	WT901BLE68-01(48591DE3C19B)	-0.086	0.542	-0.318	160.461	-100.159	79.041	-111.60	41.75	-40.02	-66.934	-36.162	73.598	-0.33441	0.74872	-0.37115	-0.43558	31.4	13111	100
2025-3-27 15:21:14.564	WT901BLE68-01(48591DE3C19B)	0.501	0.542	-0.318	160.461	-100.159	79.041	-109.53	42.97	-39.08	-66.934	-36.162	73.598	-0.33441	0.74872	-0.37115	-0.43558	31.4	13111	100
2025-3-27 15:21:14.564	WT901BLE68-01(48591DE3C19B)	0.501	0.768	-0.396	180.847	-34.729	96.130	-107.66	44.16	-38.56	-60.466	-28.224	75.362	-0.33441	0.74872	-0.37115	-0.43558	31.4	13111	100
2025-3-27 15:21:14.564	WT901BLE68-01(48591DE3C19B)	0.960	0.768	-0.396	180.847	-34.729	96.130	-106.00	45.31	-38.47	-60.466	-28.224	75.362	-0.33441	0.74872	-0.37115	-0.43558	31.4	13111	100
2025-3-27 15:21:14.594	WT901BLE68-01(48591DE3C19B)	0.960	1.301	-0.471	143.860	32.593	49.744	-104.82	46.15	-38.77	-60.466	-28.224	75.362	-0.33441	0.74872	-0.37115	-0.43558	31.4	13111	100
2025-3-27 15:21:14.595	WT901BLE68-01(48591DE3C19B)	0.737	1.301	-0.471	143.860	32.593	49.744	-104.17	46.69	-39.48	-60.466	-28.224	75.362	-0.33441	0.74872	-0.37115	-0.43558	31.4	13111	100
2025-3-27 15:21:14.595	WT901BLE68-01(48591DE3C19B)	0.737	1.415	-0.557	-2.991	109.741	44.434	-105.85	46.99	-41.34	-60.466	-28.224	75.362	-0.33441	0.74872	-0.37115	-0.43558	31.4	13111	100
2025-3-27 15:21:14.595	WT901BLE68-01(48591DE3C19B)	0.381	1.415	-0.557	-2.991	109.741	44.434	-107.63	47.27	-43.29	-60.466	-28.224	75.362	-0.33441	0.74872	-0.37115	-0.43558	31.4	13111	100
2025-3-27 15:21:14.625	WT901BLE68-01(48591DE3C19B)	0.381	1.060	-0.388	-72.998	118.042	26.733	-110.20	47.31	-45.34	-60.466	-28.224	75.362	-0.33441	0.74872	-0.37115	-0.43558	31.4	13111	100
2025-3-27 15:21:14.625	WT901BLE68-01(48591DE3C19B)	0.154	1.060	-0.388	-72.998	118.042	26.733	-112.81	47.30	-47.43	-60.466	-28.224	75.362	-0.33441	0.74872	-0.37115	-0.43558	31.4	13111	100
2025-3-27 15:21:14.625	WT901BLE68-01(48591DE3C19B)	0.154	0.925	-0.220	-110.962	82.703	23.987	-115.46	47.37	-49.06	-60.466	-28.224	75.362	-0.33441	0.74872	-0.37115	-0.43558	31.4	13111	100
2025-3-27 15:21:14.625	WT901BLE68-01(48591DE3C19B)	0.098	0.925	-0.220	-110.962	82.703	23.987	-118.13	47.40	-50.71	-60.466	-28.224	75.362	-0.33441	0.74872	-0.37115	-0.43558	31.4	13111	100
2025-3-27 15:21:14.685	WT901BLE68-01(48591DE3C19B)	0.098	0.817	-0.102	-150.757	29.297	27.283	-120.72	47.68	-51.71	-60.466	-28.224	75.362	-0.33441	0.74872	-0.37115	-0.43558	31.4	13111	100
2025-3-27 15:21:14.685	WT901BLE68-01(48591DE3C19B)	0.003	0.817	-0.102	-150.757	29.297	27.283	-123.34	47.96	-52.75	-60.466	-28.224	75.362	-0.33441	0.74872	-0.37115	-0.43558	31.4	13111	100
2025-3-27 15:21:14.685	WT901BLE68-01(48591DE3C19B)	0.003	0.683	-0.071	-195.435	2.380	35.278	-126.23	48.42	-53.55	-60.466	-28.224	75.362	-0.33441	0.74872	-0.37115	-0.43558	31.4	13111	100
