time	DeviceName	AccX(g)	AccY(g)	AccZ(g)	AsX(°/s)	AsY(°/s)	AsZ(°/s)	AngleX(°)	AngleY(°)	AngleZ(°)	HX(uT)	HY(uT)	HZ(uT)	Q0()	Q1()	Q2()	Q3()	Temperature(°C)	Version()	Battery level(%)
2025-3-27 18:15:56.125	WT901BLE68-01(48591DE3C19B)	-0.271	-0.909	0.295	-1.160	-1.038	0.916	-71.47	16.84	-37.97	-69.482	-25.284	71.148	-0.78702	0.50671	-0.30106	0.18198	31.0	13111	100
2025-3-27 18:15:56.126	WT901BLE68-01(48591DE3C19B)	-0.272	-0.909	0.295	-1.160	-1.038	0.916	-71.48	16.84	-37.99	-69.482	-25.284	71.148	-0.78702	0.50671	-0.30106	0.18198	31.0	13111	100
2025-3-27 18:15:56.126	WT901BLE68-01(48591DE3C19B)	-0.272	-0.904	0.293	-0.732	0.793	0.000	-71.49	16.84	-38.01	-69.482	-25.284	71.148	-0.78702	0.50671	-0.30106	0.18198	31.0	13111	100
2025-3-27 18:15:56.126	WT901BLE68-01(48591DE3C19B)	-0.285	-0.904	0.293	-0.732	0.793	0.000	-71.50	16.84	-38.04	-69.482	-25.284	71.148	-0.78702	0.50671	-0.30106	0.18198	31.0	13111	100
2025-3-27 18:15:56.126	WT901BLE68-01(48591DE3C19B)	-0.285	-0.898	0.293	-0.793	1.587	-0.977	-71.52	16.83	-38.08	-69.482	-25.284	71.148	-0.78702	0.50671	-0.30106	0.18198	31.0	13111	100
2025-3-27 18:15:56.126	WT901BLE68-01(48591DE3C19B)	-0.299	-0.898	0.293	-0.793	1.587	-0.977	-71.54	16.83	-38.12	-69.482	-25.284	71.148	-0.78702	0.50671	-0.30106	0.18198	31.0	13111	100
2025-3-27 18:15:56.126	WT901BLE68-01(48591DE3C19B)	-0.299	-0.908	0.300	-0.916	0.000	-1.465	-71.55	16.81	-38.14	-69.482	-25.284	71.148	-0.78702	0.50671	-0.30106	0.18198	31.0	13111	100
2025-3-27 18:15:56.126	WT901BLE68-01(48591DE3C19B)	-0.293	-0.908	0.300	-0.916	0.000	-1.465	-71.56	16.79	-38.17	-68.992	-25.480	71.344	-0.78702	0.50671	-0.30106	0.18198	31.0	13111	100
2025-3-27 18:15:56.155	WT901BLE68-01(48591DE3C19B)	-0.293	-0.913	0.305	-1.221	-2.502	-1.953	-71.58	16.77	-38.17	-68.992	-25.480	71.344	-0.78702	0.50671	-0.30106	0.18198	31.0	13111	100
2025-3-27 18:15:56.155	WT901BLE68-01(48591DE3C19B)	-0.281	-0.913	0.305	-1.221	-2.502	-1.953	-71.58	16.74	-38.17	-68.992	-25.480	71.344	-0.78702	0.50671	-0.30106	0.18198	31.0	13111	100
2025-3-27 18:15:56.155	WT901BLE68-01(48591DE3C19B)	-0.281	-0.909	0.299	-1.221	-2.075	-2.441	-71.59	16.71	-38.18	-68.992	-25.480	71.344	-0.78702	0.50671	-0.30106	0.18198	31.0	13111	100
2025-3-27 18:15:56.155	WT901BLE68-01(48591DE3C19B)	-0.292	-0.909	0.299	-1.221	-2.075	-2.441	-71.60	16.68	-38.19	-68.992	-25.480	71.344	-0.78702	0.50671	-0.30106	0.18198	31.0	13111	100
2025-3-27 18:15:56.246	WT901BLE68-01(48591DE3C19B)	-0.292	-0.908	0.293	-1.343	-1.953	-2.380	-71.61	16.65	-38.19	-68.992	-25.480	71.344	-0.78702	0.50671	-0.30106	0.18198	31.0	13111	100
2025-3-27 18:15:56.246	WT901BLE68-01(48591DE3C19B)	-0.299	-0.908	0.293	-1.343	-1.953	-2.380	-71.63	16.62	-38.20	-68.992	-25.480	71.344	-0.78702	0.50671	-0.30106	0.18198	31.0	13111	100
2025-3-27 18:15:56.246	WT901BLE68-01(48591DE3C19B)	-0.299	-0.920	0.293	-1.892	-3.723	-2.197	-71.64	16.59	-38.19	-68.992	-25.480	71.344	-0.78702	0.50671	-0.30106	0.18198	31.0	13111	100
2025-3-27 18:15:56.246	WT901BLE68-01(48591DE3C19B)	-0.299	-0.920	0.293	-1.892	-3.723	-2.197	-71.65	16.56	-38.18	-68.992	-25.480	71.344	-0.78702	0.50671	-0.30106	0.18198	31.0	13111	100
2025-3-27 18:15:56.247	WT901BLE68-01(48591DE3C19B)	-0.299	-0.925	0.290	-2.136	-5.981	-2.014	-71.66	16.52	-38.14	-68.992	-25.480	71.344	-0.78702	0.50671	-0.30106	0.18198	31.0	13111	100
2025-3-27 18:15:56.247	WT901BLE68-01(48591DE3C19B)	-0.303	-0.925	0.290	-2.136	-5.981	-2.014	-71.67	16.48	-38.11	-68.992	-25.480	71.344	-0.78702	0.50671	-0.30106	0.18198	31.0	13111	100
2025-3-27 18:15:56.247	WT901BLE68-01(48591DE3C19B)	-0.303	-0.920	0.288	-3.418	-9.094	-2.075	-71.68	16.44	-38.05	-68.992	-25.480	71.344	-0.78702	0.50671	-0.30106	0.18198	31.0	13111	100
2025-3-27 18:15:56.247	WT901BLE68-01(48591DE3C19B)	-0.309	-0.920	0.288	-3.418	-9.094	-2.075	-71.69	16.40	-37.98	-68.992	-25.480	71.344	-0.78702	0.50671	-0.30106	0.18198	31.0	13111	100
2025-3-27 18:15:56.276	WT901BLE68-01(48591DE3C19B)	-0.309	-0.926	0.290	-5.310	-13.794	-2.441	-71.71	16.33	-37.87	-68.992	-25.480	71.344	-0.78702	0.50671	-0.30106	0.18198	31.0	13111	100
2025-3-27 18:15:56.277	WT901BLE68-01(48591DE3C19B)	-0.304	-0.926	0.290	-5.310	-13.794	-2.441	-71.74	16.27	-37.76	-68.992	-25.480	71.344	-0.78702	0.50671	-0.30106	0.18198	31.0	13111	100
2025-3-27 18:15:56.277	WT901BLE68-01(48591DE3C19B)	-0.304	-0.933	0.290	-6.775	-18.616	-2.991	-71.76	16.19	-37.61	-68.992	-25.480	71.344	-0.78702	0.50671	-0.30106	0.18198	31.0	13111	100
2025-3-27 18:15:56.277	WT901BLE68-01(48591DE3C19B)	-0.296	-0.933	0.290	-6.775	-18.616	-2.991	-71.78	16.11	-37.45	-68.992	-25.480	71.344	-0.78702	0.50671	-0.30106	0.18198	31.0	13111	100
2025-3-27 18:15:56.336	WT901BLE68-01(48591DE3C19B)	-0.296	-0.923	0.292	-7.690	-21.912	-3.845	-71.80	16.01	-37.27	-68.992	-25.480	71.344	-0.78702	0.50671	-0.30106	0.18198	31.0	13111	100
2025-3-27 18:15:56.336	WT901BLE68-01(48591DE3C19B)	-0.289	-0.923	0.292	-7.690	-21.912	-3.845	-71.82	15.91	-37.08	-68.992	-25.480	71.344	-0.78629	0.51559	-0.29022	0.17764	31.0	13111	100
2025-3-27 18:15:56.336	WT901BLE68-01(48591DE3C19B)	-0.289	-0.916	0.292	-8.545	-23.621	-5.066	-71.86	15.80	-36.89	-68.992	-25.480	71.344	-0.78629	0.51559	-0.29022	0.17764	31.0	13111	100
2025-3-27 18:15:56.336	WT901BLE68-01(48591DE3C19B)	-0.287	-0.916	0.292	-8.545	-23.621	-5.066	-71.88	15.68	-36.69	-68.992	-25.480	71.344	-0.78629	0.51559	-0.29022	0.17764	31.0	13111	100
2025-3-27 18:15:56.425	WT901BLE68-01(48591DE3C19B)	-0.281	-0.917	0.293	-8.728	-24.597	-6.409	-71.91	15.56	-36.49	-68.992	-25.480	71.344	-0.78629	0.51559	-0.29022	0.17764	31.0	13111	100
2025-3-27 18:15:56.426	WT901BLE68-01(48591DE3C19B)	-0.281	-0.910	0.293	-8.301	-24.048	-7.202	-71.94	15.42	-36.30	-68.992	-25.480	71.344	-0.78629	0.51559	-0.29022	0.17764	31.0	13111	100
2025-3-27 18:15:56.426	WT901BLE68-01(48591DE3C19B)	-0.287	-0.910	0.293	-8.301	-24.048	-7.202	-71.97	15.29	-36.11	-68.992	-25.480	71.344	-0.78629	0.51559	-0.29022	0.17764	31.0	13111	100
2025-3-27 18:15:56.426	WT901BLE68-01(48591DE3C19B)	-0.287	-0.917	0.289	-8.240	-23.987	-7.568	-72.00	15.16	-35.92	-68.992	-25.480	71.344	-0.78629	0.51559	-0.29022	0.17764	31.0	13111	100
2025-3-27 18:15:56.426	WT901BLE68-01(48591DE3C19B)	-0.284	-0.917	0.289	-8.240	-23.987	-7.568	-72.03	15.02	-35.74	-68.992	-25.480	71.344	-0.78629	0.51559	-0.29022	0.17764	31.0	13111	100
2025-3-27 18:15:56.426	WT901BLE68-01(48591DE3C19B)	-0.284	-0.929	0.287	-7.507	-24.292	-7.935	-72.05	14.89	-35.55	-68.992	-25.480	71.344	-0.78629	0.51559	-0.29022	0.17764	31.0	13111	100
2025-3-27 18:15:56.426	WT901BLE68-01(48591DE3C19B)	-0.279	-0.929	0.287	-7.507	-24.292	-7.935	-72.08	14.75	-35.36	-68.992	-25.480	71.344	-0.78629	0.51559	-0.29022	0.17764	31.0	13111	100
2025-3-27 18:15:56.426	WT901BLE68-01(48591DE3C19B)	-0.279	-0.935	0.284	-6.714	-24.048	-8.179	-72.09	14.61	-35.18	-68.992	-25.480	71.344	-0.78629	0.51559	-0.29022	0.17764	31.0	13111	100
2025-3-27 18:15:56.456	WT901BLE68-01(48591DE3C19B)	-0.262	-0.935	0.284	-6.714	-24.048	-8.179	-72.11	14.47	-35.00	-68.992	-25.480	71.344	-0.78629	0.51559	-0.29022	0.17764	31.0	13111	100
2025-3-27 18:15:56.456	WT901BLE68-01(48591DE3C19B)	-0.262	-0.939	0.283	-6.226	-23.987	-8.362	-72.13	14.33	-34.82	-68.992	-25.480	71.344	-0.78629	0.51559	-0.29022	0.17764	31.0	13111	100
2025-3-27 18:15:56.456	WT901BLE68-01(48591DE3C19B)	-0.251	-0.939	0.283	-6.226	-23.987	-8.362	-72.14	14.19	-34.64	-68.992	-25.480	71.344	-0.78629	0.51559	-0.29022	0.17764	31.0	13111	100
2025-3-27 18:15:56.456	WT901BLE68-01(48591DE3C19B)	-0.251	-0.949	0.286	-5.432	-22.217	-8.728	-72.15	14.05	-34.48	-68.992	-25.480	71.344	-0.78629	0.51559	-0.29022	0.17764	31.0	13111	100
2025-3-27 18:15:56.492	WT901BLE68-01(48591DE3C19B)	-0.245	-0.949	0.286	-5.432	-22.217	-8.728	-72.16	13.91	-34.32	-68.992	-25.480	71.344	-0.78629	0.51559	-0.29022	0.17764	31.0	13111	100
2025-3-27 18:15:56.493	WT901BLE68-01(48591DE3C19B)	-0.245	-0.962	0.283	-4.700	-21.179	-8.972	-72.17	13.78	-34.17	-68.992	-25.480	71.344	-0.78629	0.51559	-0.29022	0.17764	31.0	13111	100
2025-3-27 18:15:56.493	WT901BLE68-01(48591DE3C19B)	-0.225	-0.962	0.283	-4.700	-21.179	-8.972	-72.18	13.63	-34.02	-68.992	-25.480	71.344	-0.78629	0.51559	-0.29022	0.17764	31.0	13111	100
2025-3-27 18:15:56.493	WT901BLE68-01(48591DE3C19B)	-0.225	-0.969	0.277	-4.395	-20.874	-8.911	-72.19	13.50	-33.88	-68.992	-25.480	71.344	-0.78629	0.51559	-0.29022	0.17764	31.0	13111	100
2025-3-27 18:15:56.515	WT901BLE68-01(48591DE3C19B)	-0.198	-0.969	0.277	-4.395	-20.874	-8.911	-72.19	13.36	-33.74	-68.992	-25.480	71.344	-0.78629	0.51559	-0.29022	0.17764	31.0	13111	100
2025-3-27 18:15:56.515	WT901BLE68-01(48591DE3C19B)	-0.198	-0.968	0.277	-4.211	-20.447	-9.766	-72.20	13.22	-33.61	-68.992	-25.480	71.344	-0.78629	0.51559	-0.29022	0.17764	31.0	13111	100
2025-3-27 18:15:56.516	WT901BLE68-01(48591DE3C19B)	-0.186	-0.968	0.277	-4.211	-20.447	-9.766	-72.21	13.07	-33.48	-65.366	-27.244	71.932	-0.78629	0.51559	-0.29022	0.17764	31.0	13111	100
2025-3-27 18:15:56.516	WT901BLE68-01(48591DE3C19B)	-0.186	-0.984	0.273	-4.578	-19.165	-11.414	-72.22	12.91	-33.36	-65.366	-27.244	71.932	-0.78629	0.51559	-0.29022	0.17764	31.0	13111	100
2025-3-27 18:15:56.575	WT901BLE68-01(48591DE3C19B)	-0.170	-0.984	0.273	-4.578	-19.165	-11.414	-72.25	12.76	-33.25	-65.366	-27.244	71.932	-0.78629	0.51559	-0.29022	0.17764	31.0	13111	100
2025-3-27 18:15:56.575	WT901BLE68-01(48591DE3C19B)	-0.170	-1.014	0.278	-4.211	-18.799	-12.817	-72.26	12.59	-33.15	-65.366	-27.244	71.932	-0.78629	0.51559	-0.29022	0.17764	31.0	13111	100
2025-3-27 18:15:56.575	WT901BLE68-01(48591DE3C19B)	-0.124	-1.014	0.278	-4.211	-18.799	-12.817	-72.28	12.41	-33.05	-65.366	-27.244	71.932	-0.78629	0.51559	-0.29022	0.17764	31.0	13111	100
2025-3-27 18:15:56.575	WT901BLE68-01(48591DE3C19B)	-0.124	-1.032	0.271	-2.625	-16.846	-14.465	-72.30	12.23	-32.96	-65.366	-27.244	71.932	-0.78629	0.51559	-0.29022	0.17764	31.0	13111	100
2025-3-27 18:15:56.636	WT901BLE68-01(48591DE3C19B)	-0.089	-1.032	0.271	-2.625	-16.846	-14.465	-72.31	12.04	-32.89	-65.366	-27.244	71.932	-0.78629	0.51559	-0.29022	0.17764	31.0	13111	100
2025-3-27 18:15:56.636	WT901BLE68-01(48591DE3C19B)	-0.089	-1.021	0.266	-0.732	-10.803	-16.174	-72.32	11.85	-32.85	-65.366	-27.244	71.932	-0.78629	0.51559	-0.29022	0.17764	31.0	13111	100
2025-3-27 18:15:56.636	WT901BLE68-01(48591DE3C19B)	-0.081	-1.021	0.266	-0.732	-10.803	-16.174	-72.33	11.66	-32.85	-65.366	-27.244	71.932	-0.78629	0.51559	-0.29022	0.17764	31.0	13111	100
2025-3-27 18:15:56.636	WT901BLE68-01(48591DE3C19B)	-0.081	-1.005	0.264	0.671	-4.639	-18.433	-72.33	11.46	-32.89	-65.366	-27.244	71.932	-0.78629	0.51559	-0.29022	0.17764	31.0	13111	100
2025-3-27 18:15:56.637	WT901BLE68-01(48591DE3C19B)	-0.057	-1.005	0.264	0.671	-4.639	-18.433	-72.34	11.26	-32.95	-65.366	-27.244	71.932	-0.78629	0.51559	-0.29022	0.17764	31.0	13111	100
2025-3-27 18:15:56.637	WT901BLE68-01(48591DE3C19B)	-0.057	-0.989	0.269	2.625	0.122	-20.874	-72.35	11.06	-33.05	-65.366	-27.244	71.932	-0.78629	0.51559	-0.29022	0.17764	31.0	13111	100
2025-3-27 18:15:56.637	WT901BLE68-01(48591DE3C19B)	-0.025	-0.989	0.269	2.625	0.122	-20.874	-72.35	10.84	-33.17	-65.366	-27.244	71.932	-0.78629	0.51559	-0.29022	0.17764	31.0	13111	100
2025-3-27 18:15:56.637	WT901BLE68-01(48591DE3C19B)	-0.025	-0.970	0.271	5.188	7.324	-22.583	-72.34	10.63	-33.33	-65.366	-27.244	71.932	-0.78629	0.51559	-0.29022	0.17764	31.0	13111	100
2025-3-27 18:15:56.696	WT901BLE68-01(48591DE3C19B)	-0.001	-0.970	0.271	5.188	7.324	-22.583	-72.33	10.42	-33.53	-65.366	-27.244	71.932	-0.78629	0.51559	-0.29022	0.17764	31.0	13111	100
2025-3-27 18:15:56.696	WT901BLE68-01(48591DE3C19B)	-0.001	-0.925	0.268	8.728	16.418	-23.743	-72.31	10.22	-33.78	-65.366	-27.244	71.932	-0.78629	0.51559	-0.29022	0.17764	31.0	13111	100
2025-3-27 18:15:56.696	WT901BLE68-01(48591DE3C19B)	0.018	-0.925	0.268	8.728	16.418	-23.743	-72.28	10.02	-34.07	-65.366	-27.244	71.932	-0.78629	0.51559	-0.29022	0.17764	31.0	13111	100
2025-3-27 18:15:56.696	WT901BLE68-01(48591DE3C19B)	0.018	-0.887	0.257	10.925	26.489	-24.353	-72.25	9.83	-34.41	-65.366	-27.244	71.932	-0.78629	0.51559	-0.29022	0.17764	31.0	13111	100
2025-3-27 18:15:56.725	WT901BLE68-01(48591DE3C19B)	0.042	-0.887	0.257	10.925	26.489	-24.353	-72.21	9.65	-34.80	-65.366	-27.244	71.932	-0.78629	0.51559	-0.29022	0.17764	31.0	13111	100
2025-3-27 18:15:56.726	WT901BLE68-01(48591DE3C19B)	0.042	-0.856	0.247	12.085	35.461	-24.292	-72.17	9.49	-35.24	-65.366	-27.244	71.932	-0.78629	0.51559	-0.29022	0.17764	31.0	13111	100
2025-3-27 18:15:56.726	WT901BLE68-01(48591DE3C19B)	0.073	-0.856	0.247	12.085	35.461	-24.292	-72.14	9.33	-35.71	-65.366	-27.244	71.932	-0.78629	0.51559	-0.29022	0.17764	31.0	13111	100
2025-3-27 18:15:56.726	WT901BLE68-01(48591DE3C19B)	0.073	-0.851	0.227	10.315	44.312	-25.818	-72.11	9.18	-36.23	-65.366	-27.244	71.932	-0.78049	0.53748	-0.24393	0.20581	31.0	13111	100
2025-3-27 18:15:56.756	WT901BLE68-01(48591DE3C19B)	0.075	-0.851	0.227	10.315	44.312	-25.818	-72.11	9.03	-36.80	-65.366	-27.244	71.932	-0.78049	0.53748	-0.24393	0.20581	31.0	13111	100
2025-3-27 18:15:56.756	WT901BLE68-01(48591DE3C19B)	0.075	-0.890	0.215	5.432	51.331	-30.396	-72.13	8.87	-37.40	-65.366	-27.244	71.932	-0.78049	0.53748	-0.24393	0.20581	31.0	13111	100
2025-3-27 18:15:56.756	WT901BLE68-01(48591DE3C19B)	-0.025	-0.890	0.215	5.432	51.331	-30.396	-72.19	8.69	-38.05	-65.366	-27.244	71.932	-0.78049	0.53748	-0.24393	0.20581	31.0	13111	100
2025-3-27 18:15:56.757	WT901BLE68-01(48591DE3C19B)	-0.025	-1.009	0.252	-0.793	51.636	-39.368	-72.27	8.47	-38.70	-65.366	-27.244	71.932	-0.78049	0.53748	-0.24393	0.20581	31.0	13111	100
2025-3-27 18:15:56.815	WT901BLE68-01(48591DE3C19B)	-0.179	-1.009	0.252	-0.793	51.636	-39.368	-72.39	8.21	-39.36	-65.366	-27.244	71.932	-0.78049	0.53748	-0.24393	0.20581	31.0	13111	100
2025-3-27 18:15:56.815	WT901BLE68-01(48591DE3C19B)	-0.179	-1.154	0.332	-3.113	38.269	-49.927	-72.50	7.88	-39.98	-65.366	-27.244	71.932	-0.78049	0.53748	-0.24393	0.20581	31.0	13111	100
2025-3-27 18:15:56.815	WT901BLE68-01(48591DE3C19B)	-0.296	-1.154	0.332	-3.113	38.269	-49.927	-72.62	7.48	-40.53	-65.366	-27.244	71.932	-0.78049	0.53748	-0.24393	0.20581	31.0	13111	100
2025-3-27 18:15:56.816	WT901BLE68-01(48591DE3C19B)	-0.296	-1.224	0.408	-0.977	17.639	-59.570	-72.69	6.94	-40.92	-65.366	-27.244	71.932	-0.78049	0.53748	-0.24393	0.20581	31.0	13111	100
2025-3-27 18:15:56.845	WT901BLE68-01(48591DE3C19B)	-0.334	-1.224	0.408	-0.977	17.639	-59.570	-72.75	6.42	-41.30	-65.366	-27.244	71.932	-0.78049	0.53748	-0.24393	0.20581	31.0	13111	100
2025-3-27 18:15:56.845	WT901BLE68-01(48591DE3C19B)	-0.334	-1.132	0.441	1.770	-4.578	-66.528	-72.75	5.77	-41.48	-65.366	-27.244	71.932	-0.78049	0.53748	-0.24393	0.20581	31.0	13111	100
2025-3-27 18:15:56.845	WT901BLE68-01(48591DE3C19B)	-0.277	-1.132	0.441	1.770	-4.578	-66.528	-72.75	5.13	-41.67	-65.366	-27.244	71.932	-0.78049	0.53748	-0.24393	0.20581	31.0	13111	100
2025-3-27 18:15:56.845	WT901BLE68-01(48591DE3C19B)	-0.277	-0.989	0.416	0.488	-20.203	-66.956	-72.74	4.44	-41.70	-65.366	-27.244	71.932	-0.78049	0.53748	-0.24393	0.20581	31.0	13111	100
2025-3-27 18:15:56.875	WT901BLE68-01(48591DE3C19B)	-0.230	-0.989	0.416	0.488	-20.203	-66.956	-72.73	3.77	-41.73	-65.366	-27.244	71.932	-0.78049	0.53748	-0.24393	0.20581	31.0	13111	100
2025-3-27 18:15:56.875	WT901BLE68-01(48591DE3C19B)	-0.230	-0.875	0.386	0.000	-25.513	-64.148	-72.72	3.11	-41.70	-65.366	-27.244	71.932	-0.78049	0.53748	-0.24393	0.20581	31.0	13111	100
2025-3-27 18:15:56.875	WT901BLE68-01(48591DE3C19B)	-0.167	-0.875	0.386	0.000	-25.513	-64.148	-72.71	2.47	-41.68	-65.366	-27.244	71.932	-0.78049	0.53748	-0.24393	0.20581	31.0	13111	100
2025-3-27 18:15:56.875	WT901BLE68-01(48591DE3C19B)	-0.167	-0.777	0.369	-2.197	-25.452	-60.547	-72.71	1.86	-41.64	-65.366	-27.244	71.932	-0.78049	0.53748	-0.24393	0.20581	31.0	13111	100
2025-3-27 18:15:56.996	WT901BLE68-01(48591DE3C19B)	-0.113	-0.777	0.369	-2.197	-25.452	-60.547	-72.71	1.25	-41.61	-65.366	-27.244	71.932	-0.78049	0.53748	-0.24393	0.20581	31.0	13111	100
2025-3-27 18:15:56.996	WT901BLE68-01(48591DE3C19B)	-0.113	-0.753	0.367	-4.944	-17.151	-56.458	-72.74	0.71	-41.64	-65.366	-27.244	71.932	-0.78049	0.53748	-0.24393	0.20581	31.0	13111	100
2025-3-27 18:15:56.996	WT901BLE68-01(48591DE3C19B)	-0.105	-0.753	0.367	-4.944	-17.151	-56.458	-72.77	0.17	-41.68	-65.366	-27.244	71.932	-0.78049	0.53748	-0.24393	0.20581	31.0	13111	100
2025-3-27 18:15:56.996	WT901BLE68-01(48591DE3C19B)	-0.105	-0.772	0.361	-5.066	-3.540	-53.528	-72.79	-0.29	-41.84	-65.366	-27.244	71.932	-0.78049	0.53748	-0.24393	0.20581	31.0	13111	100
2025-3-27 18:15:56.997	WT901BLE68-01(48591DE3C19B)	-0.148	-0.772	0.361	-5.066	-3.540	-53.528	-72.81	-0.75	-42.00	-67.816	-28.812	69.972	-0.78049	0.53748	-0.24393	0.20581	31.0	13111	100
2025-3-27 18:15:56.997	WT901BLE68-01(48591DE3C19B)	-0.148	-0.804	0.369	-3.052	9.827	-51.453	-72.81	-1.16	-42.28	-67.816	-28.812	69.972	-0.78049	0.53748	-0.24393	0.20581	31.0	13111	100
2025-3-27 18:15:56.997	WT901BLE68-01(48591DE3C19B)	-0.219	-0.804	0.369	-3.052	9.827	-51.453	-72.80	-1.56	-42.55	-67.816	-28.812	69.972	-0.78049	0.53748	-0.24393	0.20581	31.0	13111	100
2025-3-27 18:15:56.997	WT901BLE68-01(48591DE3C19B)	-0.219	-0.850	0.382	1.038	19.043	-49.683	-72.75	-1.91	-42.91	-67.816	-28.812	69.972	-0.78049	0.53748	-0.24393	0.20581	31.0	13111	100
2025-3-27 18:15:56.997	WT901BLE68-01(48591DE3C19B)	-0.268	-0.850	0.382	1.038	19.043	-49.683	-72.69	-2.26	-43.27	-67.816	-28.812	69.972	-0.78049	0.53748	-0.24393	0.20581	31.0	13111	100
2025-3-27 18:15:56.997	WT901BLE68-01(48591DE3C19B)	-0.268	-0.836	0.415	7.813	21.240	-46.631	-72.56	-2.57	-43.64	-67.816	-28.812	69.972	-0.78049	0.53748	-0.24393	0.20581	31.0	13111	100
2025-3-27 18:15:56.997	WT901BLE68-01(48591DE3C19B)	-0.285	-0.836	0.415	7.813	21.240	-46.631	-72.43	-2.87	-44.00	-67.816	-28.812	69.972	-0.78049	0.53748	-0.24393	0.20581	31.0	13111	100
2025-3-27 18:15:56.997	WT901BLE68-01(48591DE3C19B)	-0.285	-0.790	0.433	12.329	21.057	-44.617	-72.25	-3.14	-44.36	-67.816	-28.812	69.972	-0.78049	0.53748	-0.24393	0.20581	31.0	13111	100
2025-3-27 18:15:57.55	WT901BLE68-01(48591DE3C19B)	-0.302	-0.790	0.433	12.329	21.057	-44.617	-72.07	-3.41	-44.71	-67.816	-28.812	69.972	-0.78049	0.53748	-0.24393	0.20581	31.0	13111	100
2025-3-27 18:15:57.56	WT901BLE68-01(48591DE3C19B)	-0.302	-0.784	0.438	14.832	19.714	-43.213	-71.86	-3.66	-45.05	-67.816	-28.812	69.972	-0.78049	0.53748	-0.24393	0.20581	31.0	13111	100
2025-3-27 18:15:57.56	WT901BLE68-01(48591DE3C19B)	-0.329	-0.784	0.438	14.832	19.714	-43.213	-71.65	-3.91	-45.38	-67.816	-28.812	69.972	-0.78049	0.53748	-0.24393	0.20581	31.0	13111	100
2025-3-27 18:15:57.56	WT901BLE68-01(48591DE3C19B)	-0.329	-0.828	0.444	16.418	15.625	-40.344	-71.42	-4.14	-45.68	-67.816	-28.812	69.972	-0.78049	0.53748	-0.24393	0.20581	31.0	13111	100
2025-3-27 18:15:57.176	WT901BLE68-01(48591DE3C19B)	-0.359	-0.828	0.444	16.418	15.625	-40.344	-71.20	-4.36	-45.96	-67.816	-28.812	69.972	-0.78049	0.53748	-0.24393	0.20581	31.0	13111	100
2025-3-27 18:15:57.176	WT901BLE68-01(48591DE3C19B)	-0.359	-0.875	0.454	19.836	10.559	-35.706	-70.94	-4.54	-46.18	-67.816	-28.812	69.972	-0.78049	0.53748	-0.24393	0.20581	31.0	13111	100
2025-3-27 18:15:57.176	WT901BLE68-01(48591DE3C19B)	-0.391	-0.875	0.454	19.836	10.559	-35.706	-70.69	-4.72	-46.40	-67.816	-28.812	69.972	-0.78049	0.53748	-0.24393	0.20581	31.0	13111	100
2025-3-27 18:15:57.176	WT901BLE68-01(48591DE3C19B)	-0.391	-0.917	0.445	19.714	3.601	-27.100	-70.44	-4.84	-46.53	-67.816	-28.812	69.972	-0.78049	0.53748	-0.24393	0.20581	31.0	13111	100
2025-3-27 18:15:57.177	WT901BLE68-01(48591DE3C19B)	-0.378	-0.917	0.445	19.714	3.601	-27.100	-70.20	-4.96	-46.65	-67.816	-28.812	69.972	-0.78049	0.53748	-0.24393	0.20581	31.0	13111	100
2025-3-27 18:15:57.177	WT901BLE68-01(48591DE3C19B)	-0.378	-0.950	0.413	16.357	-3.296	-16.174	-70.00	-4.99	-46.66	-67.816	-28.812	69.972	-0.78049	0.53748	-0.24393	0.20581	31.0	13111	100
2025-3-27 18:15:57.177	WT901BLE68-01(48591DE3C19B)	-0.336	-0.950	0.413	16.357	-3.296	-16.174	-69.80	-5.02	-46.68	-67.816	-28.812	69.972	-0.74231	0.53906	-0.19348	0.34763	31.0	13111	100
2025-3-27 18:15:57.177	WT901BLE68-01(48591DE3C19B)	-0.336	-1.036	0.381	8.118	-5.737	-6.287	-69.70	-4.97	-46.64	-67.816	-28.812	69.972	-0.74231	0.53906	-0.19348	0.34763	31.0	13111	100
2025-3-27 18:15:57.177	WT901BLE68-01(48591DE3C19B)	-0.331	-1.036	0.381	8.118	-5.737	-6.287	-69.60	-4.91	-46.59	-67.816	-28.812	69.972	-0.74231	0.53906	-0.19348	0.34763	31.0	13111	100
2025-3-27 18:15:57.178	WT901BLE68-01(48591DE3C19B)	-0.331	-1.164	0.390	1.099	-6.897	2.075	-69.58	-4.78	-46.51	-67.816	-28.812	69.972	-0.74231	0.53906	-0.19348	0.34763	31.0	13111	100
2025-3-27 18:15:57.178	WT901BLE68-01(48591DE3C19B)	-0.338	-1.164	0.390	1.099	-6.897	2.075	-69.56	-4.66	-46.41	-67.816	-28.812	69.972	-0.74231	0.53906	-0.19348	0.34763	31.0	13111	100
2025-3-27 18:15:57.178	WT901BLE68-01(48591DE3C19B)	-0.338	-1.238	0.413	-4.395	-10.437	10.010	-69.60	-4.47	-46.26	-67.816	-28.812	69.972	-0.74231	0.53906	-0.19348	0.34763	31.0	13111	100
2025-3-27 18:15:57.235	WT901BLE68-01(48591DE3C19B)	-0.327	-1.238	0.413	-4.395	-10.437	10.010	-69.65	-4.29	-46.12	-67.816	-28.812	69.972	-0.74231	0.53906	-0.19348	0.34763	31.0	13111	100
2025-3-27 18:15:57.236	WT901BLE68-01(48591DE3C19B)	-0.327	-1.249	0.416	-10.742	-12.085	16.785	-69.76	-4.05	-45.92	-67.816	-28.812	69.972	-0.74231	0.53906	-0.19348	0.34763	31.0	13111	100
2025-3-27 18:15:57.236	WT901BLE68-01(48591DE3C19B)	-0.337	-1.249	0.416	-10.742	-12.085	16.785	-69.88	-3.82	-45.74	-67.816	-28.812	69.972	-0.74231	0.53906	-0.19348	0.34763	31.0	13111	100
2025-3-27 18:15:57.236	WT901BLE68-01(48591DE3C19B)	-0.337	-1.276	0.380	-21.301	-11.780	20.325	-70.10	-3.55	-45.54	-67.816	-28.812	69.972	-0.74231	0.53906	-0.19348	0.34763	31.0	13111	100
2025-3-27 18:15:57.266	WT901BLE68-01(48591DE3C19B)	-0.795	-1.276	0.380	-21.301	-11.780	20.325	-70.32	-3.29	-45.34	-67.816	-28.812	69.972	-0.74231	0.53906	-0.19348	0.34763	31.0	13111	100
2025-3-27 18:15:57.266	WT901BLE68-01(48591DE3C19B)	-3.181	-2.653	0.666	-31.555	-14.526	20.325	-70.65	-3.03	-45.12	-67.816	-28.812	69.972	-0.74231	0.53906	-0.19348	0.34763	31.0	13111	100
2025-3-27 18:15:57.266	WT901BLE68-01(48591DE3C19B)	-0.491	-10.611	2.663	-31.555	-14.526	20.325	-70.99	-2.78	-44.88	-67.816	-28.812	69.972	-0.74231	0.53906	-0.19348	0.34763	31.0	13111	100
2025-3-27 18:15:57.266	WT901BLE68-01(48591DE3C19B)	-0.552	-1.340	0.326	-39.795	-34.912	18.677	-71.42	-2.60	-44.47	-67.816	-28.812	69.972	-0.74231	0.53906	-0.19348	0.34763	31.0	13111	100
2025-3-27 18:15:57.296	WT901BLE68-01(48591DE3C19B)	-0.552	-1.280	0.363	-42.908	-69.885	20.752	-71.87	-2.47	-43.88	-67.816	-28.812	69.972	-0.74231	0.53906	-0.19348	0.34763	31.0	13111	100
2025-3-27 18:15:57.296	WT901BLE68-01(48591DE3C19B)	-0.525	-1.280	0.363	-42.908	-69.885	20.752	-72.34	-2.37	-43.13	-67.816	-28.812	69.972	-0.74231	0.53906	-0.19348	0.34763	31.0	13111	100
2025-3-27 18:15:57.296	WT901BLE68-01(48591DE3C19B)	-0.525	-1.150	0.359	-41.138	-106.750	33.081	-72.81	-2.26	-42.19	-67.816	-28.812	69.972	-0.74231	0.53906	-0.19348	0.34763	31.0	13111	100
2025-3-27 18:15:57.296	WT901BLE68-01(48591DE3C19B)	-0.434	-1.150	0.359	-41.138	-106.750	33.081	-73.27	-2.14	-41.06	-67.816	-28.812	69.972	-0.74231	0.53906	-0.19348	0.34763	31.0	13111	100
2025-3-27 18:15:57.356	WT901BLE68-01(48591DE3C19B)	-0.434	-0.981	0.274	-36.011	-127.991	57.556	-73.70	-1.91	-39.79	-67.816	-28.812	69.972	-0.74231	0.53906	-0.19348	0.34763	31.0	13111	100
2025-3-27 18:15:57.356	WT901BLE68-01(48591DE3C19B)	-0.375	-0.981	0.274	-36.011	-127.991	57.556	-74.10	-1.59	-38.39	-67.816	-28.812	69.972	-0.74231	0.53906	-0.19348	0.34763	31.0	13111	100
2025-3-27 18:15:57.356	WT901BLE68-01(48591DE3C19B)	-0.375	-0.858	0.133	-33.325	-134.399	83.069	-74.48	-1.15	-36.93	-62.916	-29.890	71.442	-0.74231	0.53906	-0.19348	0.34763	31.0	13111	100
2025-3-27 18:15:57.356	WT901BLE68-01(48591DE3C19B)	-0.289	-0.858	0.133	-33.325	-134.399	83.069	-74.83	-0.59	-35.41	-62.916	-29.890	71.442	-0.74231	0.53906	-0.19348	0.34763	31.0	13111	100
2025-3-27 18:15:57.385	WT901BLE68-01(48591DE3C19B)	-0.289	-0.892	-0.001	-33.264	-137.146	103.699	-75.17	0.07	-33.87	-62.916	-29.890	71.442	-0.74231	0.53906	-0.19348	0.34763	31.0	13111	100
2025-3-27 18:15:57.385	WT901BLE68-01(48591DE3C19B)	-0.180	-0.892	-0.001	-33.264	-137.146	103.699	-75.49	0.84	-32.28	-62.916	-29.890	71.442	-0.74231	0.53906	-0.19348	0.34763	31.0	13111	100
2025-3-27 18:15:57.385	WT901BLE68-01(48591DE3C19B)	-0.180	-1.042	-0.097	-27.527	-136.780	119.141	-75.76	1.69	-30.70	-62.916	-29.890	71.442	-0.74231	0.53906	-0.19348	0.34763	31.0	13111	100
2025-3-27 18:15:57.385	WT901BLE68-01(48591DE3C19B)	-0.122	-1.042	-0.097	-27.527	-136.780	119.141	-75.99	2.60	-29.10	-62.916	-29.890	71.442	-0.74231	0.53906	-0.19348	0.34763	31.0	13111	100
2025-3-27 18:15:57.415	WT901BLE68-01(48591DE3C19B)	-0.122	-1.133	-0.059	-14.648	-133.301	131.226	-76.13	3.58	-27.52	-62.916	-29.890	71.442	-0.74231	0.53906	-0.19348	0.34763	31.0	13111	100
2025-3-27 18:15:57.415	WT901BLE68-01(48591DE3C19B)	-0.108	-1.133	-0.059	-14.648	-133.301	131.226	-76.18	4.61	-25.94	-62.916	-29.890	71.442	-0.74231	0.53906	-0.19348	0.34763	31.0	13111	100
2025-3-27 18:15:57.415	WT901BLE68-01(48591DE3C19B)	-0.108	-1.271	0.018	0.000	-121.765	139.526	-76.15	5.69	-24.42	-62.916	-29.890	71.442	-0.74231	0.53906	-0.19348	0.34763	31.0	13111	100
2025-3-27 18:15:57.415	WT901BLE68-01(48591DE3C19B)	-0.077	-1.271	0.018	0.000	-121.765	139.526	-76.01	6.80	-22.94	-62.916	-29.890	71.442	-0.74231	0.53906	-0.19348	0.34763	31.0	13111	100
2025-3-27 18:15:57.445	WT901BLE68-01(48591DE3C19B)	-0.077	-1.198	0.068	22.156	-96.558	144.897	-75.76	7.95	-21.59	-62.916	-29.890	71.442	-0.74231	0.53906	-0.19348	0.34763	31.0	13111	100
2025-3-27 18:15:57.445	WT901BLE68-01(48591DE3C19B)	-0.043	-1.198	0.068	22.156	-96.558	144.897	-75.39	9.15	-20.36	-62.916	-29.890	71.442	-0.74231	0.53906	-0.19348	0.34763	31.0	13111	100
2025-3-27 18:15:57.446	WT901BLE68-01(48591DE3C19B)	-0.043	-0.982	0.077	31.799	-59.387	146.790	-74.98	10.37	-19.30	-62.916	-29.890	71.442	-0.74231	0.53906	-0.19348	0.34763	31.0	13111	100
2025-3-27 18:15:57.446	WT901BLE68-01(48591DE3C19B)	-0.073	-0.982	0.077	31.799	-59.387	146.790	-74.53	11.64	-18.41	-62.916	-29.890	71.442	-0.74231	0.53906	-0.19348	0.34763	31.0	13111	100
2025-3-27 18:15:57.536	WT901BLE68-01(48591DE3C19B)	-0.073	-0.863	0.060	32.410	-22.217	147.522	-74.09	12.94	-17.69	-62.916	-29.890	71.442	-0.74231	0.53906	-0.19348	0.34763	31.0	13111	100
2025-3-27 18:15:57.536	WT901BLE68-01(48591DE3C19B)	-0.089	-0.863	0.060	32.410	-22.217	147.522	-73.69	14.28	-17.15	-62.916	-29.890	71.442	-0.74231	0.53906	-0.19348	0.34763	31.0	13111	100
2025-3-27 18:15:57.536	WT901BLE68-01(48591DE3C19B)	-0.089	-0.819	0.049	29.785	7.385	147.339	-73.31	15.65	-16.74	-62.916	-29.890	71.442	-0.74231	0.53906	-0.19348	0.34763	31.0	13111	100
2025-3-27 18:15:57.536	WT901BLE68-01(48591DE3C19B)	-0.087	-0.819	0.049	29.785	7.385	147.339	-72.99	17.05	-16.47	-62.916	-29.890	71.442	-0.74231	0.53906	-0.19348	0.34763	31.0	13111	100
2025-3-27 18:15:57.537	WT901BLE68-01(48591DE3C19B)	-0.087	-0.858	0.047	25.391	28.259	148.254	-72.71	18.47	-16.30	-62.916	-29.890	71.442	-0.74231	0.53906	-0.19348	0.34763	31.0	13111	100
2025-3-27 18:15:57.537	WT901BLE68-01(48591DE3C19B)	-0.088	-0.858	0.047	25.391	28.259	148.254	-72.48	19.92	-16.23	-62.916	-29.890	71.442	-0.74231	0.53906	-0.19348	0.34763	31.0	13111	100
2025-3-27 18:15:57.537	WT901BLE68-01(48591DE3C19B)	-0.088	-0.852	0.043	22.217	39.429	147.888	-72.28	21.37	-16.21	-62.916	-29.890	71.442	-0.74231	0.53906	-0.19348	0.34763	31.0	13111	100
2025-3-27 18:15:57.537	WT901BLE68-01(48591DE3C19B)	-0.126	-0.852	0.043	22.217	39.429	147.888	-72.12	22.83	-16.24	-62.916	-29.890	71.442	-0.74231	0.53906	-0.19348	0.34763	31.0	13111	100
2025-3-27 18:15:57.565	WT901BLE68-01(48591DE3C19B)	-0.126	-0.866	0.039	13.489	37.720	146.362	-72.00	24.27	-16.27	-62.916	-29.890	71.442	-0.74231	0.53906	-0.19348	0.34763	31.0	13111	100
2025-3-27 18:15:57.565	WT901BLE68-01(48591DE3C19B)	-0.189	-0.866	0.039	13.489	37.720	146.362	-71.92	25.69	-16.28	-62.916	-29.890	71.442	-0.74231	0.53906	-0.19348	0.34763	31.0	13111	100
2025-3-27 18:15:57.565	WT901BLE68-01(48591DE3C19B)	-0.189	-1.045	0.016	2.869	24.658	141.479	-71.87	27.05	-16.23	-62.916	-29.890	71.442	-0.79807	0.53674	-0.27216	-0.02853	31.0	13111	100
2025-3-27 18:15:57.565	WT901BLE68-01(48591DE3C19B)	-0.215	-1.045	0.016	2.869	24.658	141.479	-71.85	28.37	-16.12	-62.916	-29.890	71.442	-0.79807	0.53674	-0.27216	-0.02853	31.0	13111	100
2025-3-27 18:15:57.625	WT901BLE68-01(48591DE3C19B)	-0.215	-1.259	-0.005	-1.892	5.432	136.963	-71.79	29.64	-15.91	-62.916	-29.890	71.442	-0.79807	0.53674	-0.27216	-0.02853	31.0	13111	100
2025-3-27 18:15:57.625	WT901BLE68-01(48591DE3C19B)	-0.241	-1.259	-0.005	-1.892	5.432	136.963	-71.71	30.84	-15.61	-62.916	-29.890	71.442	-0.79807	0.53674	-0.27216	-0.02853	31.0	13111	100
2025-3-27 18:15:57.625	WT901BLE68-01(48591DE3C19B)	-0.241	-1.434	0.009	-2.747	-17.273	129.639	-71.57	31.96	-15.18	-62.916	-29.890	71.442	-0.79807	0.53674	-0.27216	-0.02853	31.0	13111	100
2025-3-27 18:15:57.625	WT901BLE68-01(48591DE3C19B)	-0.216	-1.434	0.009	-2.747	-17.273	129.639	-71.36	33.01	-14.63	-62.916	-29.890	71.442	-0.79807	0.53674	-0.27216	-0.02853	31.0	13111	100
2025-3-27 18:15:57.655	WT901BLE68-01(48591DE3C19B)	-0.216	-1.590	0.031	-0.793	-40.466	119.141	-71.07	33.97	-13.97	-62.916	-29.890	71.442	-0.79807	0.53674	-0.27216	-0.02853	31.0	13111	100
2025-3-27 18:15:57.655	WT901BLE68-01(48591DE3C19B)	-0.150	-1.590	0.031	-0.793	-40.466	119.141	-70.69	34.83	-13.19	-62.916	-29.890	71.442	-0.79807	0.53674	-0.27216	-0.02853	31.0	13111	100
2025-3-27 18:15:57.655	WT901BLE68-01(48591DE3C19B)	-0.150	-1.678	0.034	-0.122	-57.495	103.149	-70.26	35.57	-12.33	-62.916	-29.890	71.442	-0.79807	0.53674	-0.27216	-0.02853	31.0	13111	100
2025-3-27 18:15:57.655	WT901BLE68-01(48591DE3C19B)	0.003	-1.678	0.034	-0.122	-57.495	103.149	-69.77	36.20	-11.40	-62.916	-29.890	71.442	-0.79807	0.53674	-0.27216	-0.02853	31.0	13111	100
2025-3-27 18:15:57.692	WT901BLE68-01(48591DE3C19B)	0.003	-1.734	0.015	7.385	-63.660	85.449	-69.24	36.72	-10.46	-62.916	-29.890	71.442	-0.79807	0.53674	-0.27216	-0.02853	31.0	13111	100
2025-3-27 18:15:57.693	WT901BLE68-01(48591DE3C19B)	0.121	-1.734	0.015	7.385	-63.660	85.449	-68.66	37.14	-9.53	-62.916	-29.890	71.442	-0.79807	0.53674	-0.27216	-0.02853	31.0	13111	100
2025-3-27 18:15:57.693	WT901BLE68-01(48591DE3C19B)	0.121	-1.629	0.037	12.146	-50.537	62.439	-68.14	37.46	-8.72	-62.916	-29.890	71.442	-0.79807	0.53674	-0.27216	-0.02853	31.0	13111	100
2025-3-27 18:15:57.693	WT901BLE68-01(48591DE3C19B)	0.190	-1.629	0.037	12.146	-50.537	62.439	-67.68	37.68	-8.05	-62.916	-29.890	71.442	-0.79807	0.53674	-0.27216	-0.02853	31.0	13111	100
2025-3-27 18:15:57.745	WT901BLE68-01(48591DE3C19B)	0.190	-1.601	0.053	10.376	-23.987	35.095	-67.35	37.82	-7.60	-62.916	-29.890	71.442	-0.79807	0.53674	-0.27216	-0.02853	31.0	13111	100
2025-3-27 18:15:57.746	WT901BLE68-01(48591DE3C19B)	0.323	-1.601	0.053	10.376	-23.987	35.095	-67.18	37.88	-7.37	-46.648	-29.988	70.266	-0.79807	0.53674	-0.27216	-0.02853	31.0	13111	100
2025-3-27 18:15:57.746	WT901BLE68-01(48591DE3C19B)	0.323	-1.643	0.065	13.428	10.376	-0.549	-67.16	37.83	-7.44	-46.648	-29.988	70.266	-0.79807	0.53674	-0.27216	-0.02853	31.0	13111	100
2025-3-27 18:15:57.746	WT901BLE68-01(48591DE3C19B)	0.354	-1.643	0.065	13.428	10.376	-0.549	-67.32	37.68	-7.79	-46.648	-29.988	70.266	-0.79807	0.53674	-0.27216	-0.02853	31.0	13111	100
2025-3-27 18:15:57.775	WT901BLE68-01(48591DE3C19B)	0.354	-1.606	0.042	21.912	48.279	-40.283	-67.77	37.30	-8.78	-46.648	-29.988	70.266	-0.79807	0.53674	-0.27216	-0.02853	31.0	13111	100
2025-3-27 18:15:57.775	WT901BLE68-01(48591DE3C19B)	0.204	-1.606	0.042	21.912	48.279	-40.283	-68.20	36.91	-9.76	-46.648	-29.988	70.266	-0.79807	0.53674	-0.27216	-0.02853	31.0	13111	100
2025-3-27 18:15:57.775	WT901BLE68-01(48591DE3C19B)	0.204	-1.452	0.083	24.658	74.646	-76.233	-68.88	36.27	-11.19	-46.648	-29.988	70.266	-0.79807	0.53674	-0.27216	-0.02853	31.0	13111	100
2025-3-27 18:15:57.775	WT901BLE68-01(48591DE3C19B)	0.025	-1.452	0.083	24.658	74.646	-76.233	-69.52	35.62	-12.59	-46.648	-29.988	70.266	-0.79807	0.53674	-0.27216	-0.02853	31.0	13111	100
2025-3-27 18:15:57.805	WT901BLE68-01(48591DE3C19B)	0.025	-1.371	0.132	28.198	90.942	-108.459	-70.28	34.71	-14.28	-46.648	-29.988	70.266	-0.79807	0.53674	-0.27216	-0.02853	31.0	13111	100
2025-3-27 18:15:57.805	WT901BLE68-01(48591DE3C19B)	-0.058	-1.371	0.132	28.198	90.942	-108.459	-70.99	33.79	-15.93	-46.648	-29.988	70.266	-0.79807	0.53674	-0.27216	-0.02853	31.0	13111	100
2025-3-27 18:15:57.805	WT901BLE68-01(48591DE3C19B)	-0.058	-1.191	0.162	38.513	94.360	-131.042	-71.61	32.66	-17.66	-46.648	-29.988	70.266	-0.79807	0.53674	-0.27216	-0.02853	31.0	13111	100
2025-3-27 18:15:57.805	WT901BLE68-01(48591DE3C19B)	-0.019	-1.191	0.162	38.513	94.360	-131.042	-72.18	31.52	-19.34	-46.648	-29.988	70.266	-0.79807	0.53674	-0.27216	-0.02853	31.0	13111	100
2025-3-27 18:15:57.865	WT901BLE68-01(48591DE3C19B)	-0.019	-0.997	0.182	44.983	90.576	-142.456	-72.63	30.26	-20.98	-46.648	-29.988	70.266	-0.79807	0.53674	-0.27216	-0.02853	31.0	13111	100
2025-3-27 18:15:57.865	WT901BLE68-01(48591DE3C19B)	0.004	-0.997	0.182	44.983	90.576	-142.456	-73.02	28.99	-22.57	-46.648	-29.988	70.266	-0.79807	0.53674	-0.27216	-0.02853	31.0	13111	100
2025-3-27 18:15:57.865	WT901BLE68-01(48591DE3C19B)	0.004	-0.940	0.192	44.922	86.609	-155.396	-73.36	27.59	-24.13	-46.648	-29.988	70.266	-0.79807	0.53674	-0.27216	-0.02853	31.0	13111	100
2025-3-27 18:15:57.866	WT901BLE68-01(48591DE3C19B)	-0.035	-0.940	0.192	44.922	86.609	-155.396	-73.65	26.18	-25.65	-46.648	-29.988	70.266	-0.79807	0.53674	-0.27216	-0.02853	31.0	13111	100
2025-3-27 18:15:57.896	WT901BLE68-01(48591DE3C19B)	-0.035	-0.981	0.190	42.725	80.750	-163.757	-73.89	24.69	-27.09	-46.648	-29.988	70.266	-0.79807	0.53674	-0.27216	-0.02853	31.0	13111	100
2025-3-27 18:15:57.896	WT901BLE68-01(48591DE3C19B)	-0.123	-0.981	0.190	42.725	80.750	-163.757	-74.09	23.19	-28.51	-46.648	-29.988	70.266	-0.79807	0.53674	-0.27216	-0.02853	31.0	13111	100
2025-3-27 18:15:57.896	WT901BLE68-01(48591DE3C19B)	-0.123	-0.991	0.197	42.053	71.655	-171.143	-74.22	21.61	-29.82	-46.648	-29.988	70.266	-0.79807	0.53674	-0.27216	-0.02853	31.0	13111	100
2025-3-27 18:15:57.896	WT901BLE68-01(48591DE3C19B)	-0.170	-0.991	0.197	42.053	71.655	-171.143	-74.30	20.04	-31.11	-46.648	-29.988	70.266	-0.79807	0.53674	-0.27216	-0.02853	31.0	13111	100
2025-3-27 18:15:57.925	WT901BLE68-01(48591DE3C19B)	-0.170	-0.989	0.199	39.124	65.613	-181.091	-74.36	18.37	-32.34	-46.648	-29.988	70.266	-0.79807	0.53674	-0.27216	-0.02853	31.0	13111	100
2025-3-27 18:15:57.925	WT901BLE68-01(48591DE3C19B)	-0.212	-0.989	0.199	39.124	65.613	-181.091	-74.37	16.71	-33.55	-46.648	-29.988	70.266	-0.79807	0.53674	-0.27216	-0.02853	31.0	13111	100
2025-3-27 18:15:57.925	WT901BLE68-01(48591DE3C19B)	-0.212	-1.004	0.196	36.560	67.505	-193.481	-74.39	14.95	-34.79	-46.648	-29.988	70.266	-0.77713	0.54095	-0.27814	0.16107	31.0	13111	100
2025-3-27 18:15:57.926	WT901BLE68-01(48591DE3C19B)	-0.253	-1.004	0.196	36.560	67.505	-193.481	-74.37	13.21	-36.02	-46.648	-29.988	70.266	-0.77713	0.54095	-0.27814	0.16107	31.0	13111	100
2025-3-27 18:15:57.985	WT901BLE68-01(48591DE3C19B)	-0.253	-1.004	0.189	35.645	72.266	-204.407	-74.33	11.39	-37.31	-46.648	-29.988	70.266	-0.77713	0.54095	-0.27814	0.16107	31.0	13111	100
2025-3-27 18:15:57.985	WT901BLE68-01(48591DE3C19B)	-0.273	-1.004	0.189	35.645	72.266	-204.407	-74.25	9.59	-38.58	-46.648	-29.988	70.266	-0.77713	0.54095	-0.27814	0.16107	31.0	13111	100
2025-3-27 18:15:57.985	WT901BLE68-01(48591DE3C19B)	-0.273	-0.964	0.197	36.499	77.515	-210.266	-74.12	7.76	-39.91	-46.648	-29.988	70.266	-0.77713	0.54095	-0.27814	0.16107	31.0	13111	100
2025-3-27 18:15:57.985	WT901BLE68-01(48591DE3C19B)	-0.285	-0.964	0.197	36.499	77.515	-210.266	-73.96	5.95	-41.23	-46.648	-29.988	70.266	-0.77713	0.54095	-0.27814	0.16107	31.0	13111	100
2025-3-27 18:15:58.15	WT901BLE68-01(48591DE3C19B)	-0.285	-0.910	0.211	36.804	84.656	-212.280	-73.76	4.17	-42.62	-46.648	-29.988	70.266	-0.77713	0.54095	-0.27814	0.16107	31.0	13111	100
2025-3-27 18:15:58.16	WT901BLE68-01(48591DE3C19B)	-0.303	-0.910	0.211	36.804	84.656	-212.280	-73.51	2.41	-44.01	-46.648	-29.988	70.266	-0.77713	0.54095	-0.27814	0.16107	31.0	13111	100
2025-3-27 18:15:58.16	WT901BLE68-01(48591DE3C19B)	-0.303	-0.840	0.208	38.635	91.553	-211.609	-73.21	0.69	-45.46	-46.648	-29.988	70.266	-0.77713	0.54095	-0.27814	0.16107	31.0	13111	100
2025-3-27 18:15:58.16	WT901BLE68-01(48591DE3C19B)	-0.332	-0.840	0.208	38.635	91.553	-211.609	-72.86	-1.00	-46.91	-46.648	-29.988	70.266	-0.77713	0.54095	-0.27814	0.16107	31.0	13111	100
2025-3-27 18:15:58.136	WT901BLE68-01(48591DE3C19B)	-0.332	-0.761	0.186	40.649	94.421	-208.435	-72.45	-2.63	-48.38	-46.648	-29.988	70.266	-0.77713	0.54095	-0.27814	0.16107	31.0	13111	100
2025-3-27 18:15:58.136	WT901BLE68-01(48591DE3C19B)	-0.360	-0.761	0.186	40.649	94.421	-208.435	-72.00	-4.24	-49.86	-46.648	-29.988	70.266	-0.77713	0.54095	-0.27814	0.16107	31.0	13111	100
2025-3-27 18:15:58.136	WT901BLE68-01(48591DE3C19B)	-0.360	-0.703	0.153	41.382	90.515	-203.857	-71.51	-5.78	-51.30	-46.648	-29.988	70.266	-0.77713	0.54095	-0.27814	0.16107	31.0	13111	100
2025-3-27 18:15:58.136	WT901BLE68-01(48591DE3C19B)	-0.374	-0.703	0.153	41.382	90.515	-203.857	-70.98	-7.30	-52.73	-46.648	-29.988	70.266	-0.77713	0.54095	-0.27814	0.16107	31.0	13111	100
2025-3-27 18:15:58.137	WT901BLE68-01(48591DE3C19B)	-0.374	-0.680	0.126	40.955	81.238	-197.083	-70.43	-8.76	-54.08	-46.648	-29.988	70.266	-0.77713	0.54095	-0.27814	0.16107	31.0	13111	100
2025-3-27 18:15:58.137	WT901BLE68-01(48591DE3C19B)	-0.390	-0.680	0.126	40.955	81.238	-197.083	-69.86	-10.18	-55.44	-46.648	-29.988	70.266	-0.77713	0.54095	-0.27814	0.16107	31.0	13111	100
2025-3-27 18:15:58.137	WT901BLE68-01(48591DE3C19B)	-0.390	-0.692	0.127	40.161	70.251	-187.927	-69.29	-11.54	-56.67	-46.648	-29.988	70.266	-0.77713	0.54095	-0.27814	0.16107	31.0	13111	100
2025-3-27 18:15:58.137	WT901BLE68-01(48591DE3C19B)	-0.445	-0.692	0.127	40.161	70.251	-187.927	-68.69	-12.86	-57.91	-46.648	-29.988	70.266	-0.77713	0.54095	-0.27814	0.16107	31.0	13111	100
2025-3-27 18:15:58.137	WT901BLE68-01(48591DE3C19B)	-0.445	-0.751	0.163	39.490	55.908	-176.819	-68.10	-14.12	-58.99	-46.648	-29.988	70.266	-0.77713	0.54095	-0.27814	0.16107	31.0	13111	100
2025-3-27 18:15:58.137	WT901BLE68-01(48591DE3C19B)	-0.521	-0.751	0.163	39.490	55.908	-176.819	-67.50	-15.35	-60.08	-46.648	-29.988	70.266	-0.77713	0.54095	-0.27814	0.16107	31.0	13111	100
2025-3-27 18:15:58.138	WT901BLE68-01(48591DE3C19B)	-0.521	-0.821	0.230	40.466	36.926	-161.133	-66.93	-16.48	-60.94	-46.648	-29.988	70.266	-0.77713	0.54095	-0.27814	0.16107	31.0	13111	100
2025-3-27 18:15:58.138	WT901BLE68-01(48591DE3C19B)	-0.538	-0.821	0.230	40.466	36.926	-161.133	-66.34	-17.59	-61.81	-46.648	-29.988	70.266	-0.77713	0.54095	-0.27814	0.16107	31.0	13111	100
2025-3-27 18:15:58.195	WT901BLE68-01(48591DE3C19B)	-0.538	-0.865	0.261	38.513	22.949	-142.883	-65.81	-18.58	-62.48	-46.648	-29.988	70.266	-0.77713	0.54095	-0.27814	0.16107	31.0	13111	100
2025-3-27 18:15:58.195	WT901BLE68-01(48591DE3C19B)	-0.529	-0.865	0.261	38.513	22.949	-142.883	-65.28	-19.54	-63.17	-46.648	-29.988	70.266	-0.77713	0.54095	-0.27814	0.16107	31.0	13111	100
2025-3-27 18:15:58.195	WT901BLE68-01(48591DE3C19B)	-0.529	-0.931	0.284	33.875	19.104	-120.789	-64.82	-20.31	-63.72	-71.736	-18.424	64.778	-0.77713	0.54095	-0.27814	0.16107	31.0	13111	100
2025-3-27 18:15:58.195	WT901BLE68-01(48591DE3C19B)	-0.534	-0.931	0.284	33.875	19.104	-120.789	-64.35	-21.08	-64.29	-71.736	-18.424	64.778	-0.77713	0.54095	-0.27814	0.16107	31.0	13111	100
2025-3-27 18:15:58.316	WT901BLE68-01(48591DE3C19B)	-0.562	-1.012	0.299	22.888	20.813	-95.032	-64.02	-21.59	-64.75	-71.736	-18.424	64.778	-0.77713	0.54095	-0.27814	0.16107	31.0	13111	100
2025-3-27 18:15:58.316	WT901BLE68-01(48591DE3C19B)	-0.562	-1.220	0.356	11.902	20.630	-62.683	-63.77	-21.95	-65.14	-71.736	-18.424	64.778	-0.77713	0.54095	-0.27814	0.16107	31.0	13111	100
2025-3-27 18:15:58.316	WT901BLE68-01(48591DE3C19B)	-0.564	-1.220	0.356	11.902	20.630	-62.683	-63.60	-22.16	-65.46	-71.736	-18.424	64.778	-0.77713	0.54095	-0.27814	0.16107	31.0	13111	100
2025-3-27 18:15:58.316	WT901BLE68-01(48591DE3C19B)	-0.564	-1.454	0.413	-0.854	20.020	-28.442	-63.52	-22.23	-65.70	-71.736	-18.424	64.778	-0.77713	0.54095	-0.27814	0.16107	31.0	13111	100
2025-3-27 18:15:58.317	WT901BLE68-01(48591DE3C19B)	-0.494	-1.454	0.413	-0.854	20.020	-28.442	-63.54	-22.14	-65.85	-71.736	-18.424	64.778	-0.77713	0.54095	-0.27814	0.16107	31.0	13111	100
2025-3-27 18:15:58.317	WT901BLE68-01(48591DE3C19B)	-0.494	-1.600	0.462	-8.850	24.048	9.583	-63.62	-21.87	-65.93	-71.736	-18.424	64.778	-0.77713	0.54095	-0.27814	0.16107	31.0	13111	100
2025-3-27 18:15:58.317	WT901BLE68-01(48591DE3C19B)	-0.456	-1.600	0.462	-8.850	24.048	9.583	-63.76	-21.44	-65.96	-71.736	-18.424	64.778	-0.77713	0.54095	-0.27814	0.16107	31.0	13111	100
2025-3-27 18:15:58.317	WT901BLE68-01(48591DE3C19B)	-0.456	-1.534	0.534	-15.808	26.672	50.537	-63.96	-20.82	-65.90	-71.736	-18.424	64.778	-0.77713	0.54095	-0.27814	0.16107	31.0	13111	100
2025-3-27 18:15:58.344	WT901BLE68-01(48591DE3C19B)	-0.476	-1.534	0.534	-15.808	26.672	50.537	-64.22	-20.02	-65.76	-71.736	-18.424	64.778	-0.77713	0.54095	-0.27814	0.16107	31.0	13111	100
2025-3-27 18:15:58.344	WT901BLE68-01(48591DE3C19B)	-0.476	-1.429	0.559	-28.625	22.278	84.656	-64.57	-19.09	-65.54	-71.736	-18.424	64.778	-0.77713	0.54095	-0.27814	0.16107	31.0	13111	100
2025-3-27 18:15:58.344	WT901BLE68-01(48591DE3C19B)	-0.519	-1.429	0.559	-28.625	22.278	84.656	-65.00	-18.01	-65.24	-71.736	-18.424	64.778	-0.77713	0.54095	-0.27814	0.16107	31.0	13111	100
2025-3-27 18:15:58.344	WT901BLE68-01(48591DE3C19B)	-0.519	-1.355	0.517	-42.480	3.662	109.863	-65.53	-16.86	-64.80	-71.736	-18.424	64.778	-0.77713	0.54095	-0.27814	0.16107	31.0	13111	100
2025-3-27 18:15:58.345	WT901BLE68-01(48591DE3C19B)	-0.549	-1.355	0.517	-42.480	3.662	109.863	-66.15	-15.64	-64.24	-71.736	-18.424	64.778	-0.77713	0.54095	-0.27814	0.16107	31.0	13111	100
2025-3-27 18:15:58.345	WT901BLE68-01(48591DE3C19B)	-0.549	-1.313	0.442	-54.993	-25.574	126.892	-66.86	-14.40	-63.53	-71.736	-18.424	64.778	-0.77713	0.54095	-0.27814	0.16107	31.0	13111	100
2025-3-27 18:15:58.345	WT901BLE68-01(48591DE3C19B)	-0.608	-1.313	0.442	-54.993	-25.574	126.892	-67.64	-13.14	-62.67	-71.736	-18.424	64.778	-0.77713	0.54095	-0.27814	0.16107	31.0	13111	100
2025-3-27 18:15:58.345	WT901BLE68-01(48591DE3C19B)	-0.608	-1.279	0.387	-63.416	-62.744	139.282	-68.48	-11.88	-61.63	-71.736	-18.424	64.778	-0.77713	0.54095	-0.27814	0.16107	31.0	13111	100
2025-3-27 18:15:58.375	WT901BLE68-01(48591DE3C19B)	-0.621	-1.279	0.387	-63.416	-62.744	139.282	-69.38	-10.62	-60.42	-71.736	-18.424	64.778	-0.68091	0.52802	-0.21936	0.45752	31.0	13111	100
2025-3-27 18:15:58.375	WT901BLE68-01(48591DE3C19B)	-0.621	-1.188	0.298	-68.359	-108.459	149.597	-70.31	-9.38	-59.01	-71.736	-18.424	64.778	-0.68091	0.52802	-0.21936	0.45752	31.0	13111	100
2025-3-27 18:15:58.375	WT901BLE68-01(48591DE3C19B)	-0.542	-1.188	0.298	-68.359	-108.459	149.597	-71.26	-8.15	-57.39	-71.736	-18.424	64.778	-0.68091	0.52802	-0.21936	0.45752	31.0	13111	100
2025-3-27 18:15:58.375	WT901BLE68-01(48591DE3C19B)	-0.542	-1.053	0.201	-70.313	-151.367	161.255	-72.20	-6.91	-55.57	-71.736	-18.424	64.778	-0.68091	0.52802	-0.21936	0.45752	31.0	13111	100
2025-3-27 18:15:58.404	WT901BLE68-01(48591DE3C19B)	-0.469	-1.053	0.201	-70.313	-151.367	161.255	-73.14	-5.65	-53.56	-71.736	-18.424	64.778	-0.68091	0.52802	-0.21936	0.45752	31.0	13111	100
2025-3-27 18:15:58.404	WT901BLE68-01(48591DE3C19B)	-0.469	-0.986	0.158	-70.190	-186.768	177.856	-74.04	-4.34	-51.38	-71.736	-18.424	64.778	-0.68091	0.52802	-0.21936	0.45752	31.0	13111	100
2025-3-27 18:15:58.404	WT901BLE68-01(48591DE3C19B)	-0.364	-0.986	0.158	-70.190	-186.768	177.856	-74.90	-2.97	-49.05	-71.736	-18.424	64.778	-0.68091	0.52802	-0.21936	0.45752	31.0	13111	100
2025-3-27 18:15:58.404	WT901BLE68-01(48591DE3C19B)	-0.364	-1.063	0.079	-65.735	-209.717	192.444	-75.68	-1.53	-46.61	-71.736	-18.424	64.778	-0.68091	0.52802	-0.21936	0.45752	31.0	13111	100
2025-3-27 18:15:58.464	WT901BLE68-01(48591DE3C19B)	-0.245	-1.063	0.079	-65.735	-209.717	192.444	-76.39	-0.03	-44.07	-71.736	-18.424	64.778	-0.68091	0.52802	-0.21936	0.45752	31.0	13111	100
2025-3-27 18:15:58.465	WT901BLE68-01(48591DE3C19B)	-0.245	-1.175	-0.004	-55.725	-217.712	202.576	-76.97	1.52	-41.51	-71.736	-18.424	64.778	-0.68091	0.52802	-0.21936	0.45752	31.0	13111	100
2025-3-27 18:15:58.465	WT901BLE68-01(48591DE3C19B)	-0.188	-1.175	-0.004	-55.725	-217.712	202.576	-77.43	3.13	-38.92	-71.736	-18.424	64.778	-0.68091	0.52802	-0.21936	0.45752	31.0	13111	100
2025-3-27 18:15:58.465	WT901BLE68-01(48591DE3C19B)	-0.188	-1.300	0.016	-39.917	-212.646	209.717	-77.74	4.77	-36.36	-71.736	-18.424	64.778	-0.68091	0.52802	-0.21936	0.45752	31.0	13111	100
2025-3-27 18:15:58.495	WT901BLE68-01(48591DE3C19B)	-0.144	-1.300	0.016	-39.917	-212.646	209.717	-77.91	6.46	-33.84	-71.736	-18.424	64.778	-0.68091	0.52802	-0.21936	0.45752	31.0	13111	100
2025-3-27 18:15:58.495	WT901BLE68-01(48591DE3C19B)	-0.144	-1.449	0.022	-18.372	-194.031	216.125	-77.91	8.18	-31.40	-71.736	-18.424	64.778	-0.68091	0.52802	-0.21936	0.45752	31.0	13111	100
2025-3-27 18:15:58.495	WT901BLE68-01(48591DE3C19B)	-0.056	-1.449	0.022	-18.372	-194.031	216.125	-77.74	9.93	-29.05	-71.736	-18.424	64.778	-0.68091	0.52802	-0.21936	0.45752	31.0	13111	100
2025-3-27 18:15:58.495	WT901BLE68-01(48591DE3C19B)	-0.056	-1.405	0.005	9.766	-155.823	225.647	-77.40	11.73	-26.88	-71.736	-18.424	64.778	-0.68091	0.52802	-0.21936	0.45752	31.0	13111	100
2025-3-27 18:15:58.524	WT901BLE68-01(48591DE3C19B)	-0.015	-1.405	0.005	9.766	-155.823	225.647	-76.89	13.60	-24.86	-71.736	-18.424	64.778	-0.68091	0.52802	-0.21936	0.45752	31.0	13111	100
2025-3-27 18:15:58.524	WT901BLE68-01(48591DE3C19B)	-0.015	-1.224	-0.011	28.015	-102.844	232.788	-76.29	15.52	-23.07	-71.736	-18.424	64.778	-0.68091	0.52802	-0.21936	0.45752	31.0	13111	100
2025-3-27 18:15:58.524	WT901BLE68-01(48591DE3C19B)	-0.025	-1.224	-0.011	28.015	-102.844	232.788	-75.60	17.50	-21.51	-52.038	-16.562	72.814	-0.68091	0.52802	-0.21936	0.45752	31.0	13111	100
2025-3-27 18:15:58.524	WT901BLE68-01(48591DE3C19B)	-0.025	-1.175	-0.040	33.691	-47.913	235.596	-74.92	19.53	-20.19	-52.038	-16.562	72.814	-0.68091	0.52802	-0.21936	0.45752	31.0	13111	100
2025-3-27 18:15:58.615	WT901BLE68-01(48591DE3C19B)	-0.063	-1.175	-0.040	33.691	-47.913	235.596	-74.26	21.62	-19.12	-52.038	-16.562	72.814	-0.68091	0.52802	-0.21936	0.45752	31.0	13111	100
2025-3-27 18:15:58.615	WT901BLE68-01(48591DE3C19B)	-0.063	-1.159	-0.066	37.903	-4.272	239.319	-73.61	23.75	-18.23	-52.038	-16.562	72.814	-0.68091	0.52802	-0.21936	0.45752	31.0	13111	100
2025-3-27 18:15:58.615	WT901BLE68-01(48591DE3C19B)	-0.083	-1.159	-0.066	37.903	-4.272	239.319	-73.00	25.94	-17.52	-52.038	-16.562	72.814	-0.68091	0.52802	-0.21936	0.45752	31.0	13111	100
2025-3-27 18:15:58.615	WT901BLE68-01(48591DE3C19B)	-0.083	-1.089	-0.075	35.339	23.804	243.713	-72.43	28.17	-16.92	-52.038	-16.562	72.814	-0.68091	0.52802	-0.21936	0.45752	31.0	13111	100
2025-3-27 18:15:58.615	WT901BLE68-01(48591DE3C19B)	-0.102	-1.089	-0.075	35.339	23.804	243.713	-71.91	30.45	-16.44	-52.038	-16.562	72.814	-0.68091	0.52802	-0.21936	0.45752	31.0	13111	100
2025-3-27 18:15:58.615	WT901BLE68-01(48591DE3C19B)	-0.102	-1.048	-0.067	26.611	42.114	245.483	-71.45	32.74	-16.02	-52.038	-16.562	72.814	-0.68091	0.52802	-0.21936	0.45752	31.0	13111	100
2025-3-27 18:15:58.615	WT901BLE68-01(48591DE3C19B)	-0.138	-1.048	-0.067	26.611	42.114	245.483	-71.07	35.05	-15.67	-52.038	-16.562	72.814	-0.68091	0.52802	-0.21936	0.45752	31.0	13111	100
2025-3-27 18:15:58.615	WT901BLE68-01(48591DE3C19B)	-0.138	-1.000	-0.062	18.066	50.720	243.225	-70.73	37.35	-15.35	-52.038	-16.562	72.814	-0.68091	0.52802	-0.21936	0.45752	31.0	13111	100
2025-3-27 18:15:58.674	WT901BLE68-01(48591DE3C19B)	-0.154	-1.000	-0.062	18.066	50.720	243.225	-70.46	39.64	-15.06	-52.038	-16.562	72.814	-0.68091	0.52802	-0.21936	0.45752	31.0	13111	100
2025-3-27 18:15:58.674	WT901BLE68-01(48591DE3C19B)	-0.154	-0.938	-0.055	7.751	47.363	236.450	-70.20	41.89	-14.75	-52.038	-16.562	72.814	-0.68091	0.52802	-0.21936	0.45752	31.0	13111	100
2025-3-27 18:15:58.674	WT901BLE68-01(48591DE3C19B)	-0.191	-0.938	-0.055	7.751	47.363	236.450	-69.97	44.07	-14.40	-52.038	-16.562	72.814	-0.68091	0.52802	-0.21936	0.45752	31.0	13111	100
2025-3-27 18:15:58.674	WT901BLE68-01(48591DE3C19B)	-0.191	-0.924	-0.071	-2.075	27.588	223.938	-69.67	46.07	-13.84	-52.038	-16.562	72.814	-0.68091	0.52802	-0.21936	0.45752	31.0	13111	100
2025-3-27 18:15:58.705	WT901BLE68-01(48591DE3C19B)	-0.217	-0.924	-0.071	-2.075	27.588	223.938	-69.33	48.05	-13.23	-52.038	-16.562	72.814	-0.68091	0.52802	-0.21936	0.45752	31.0	13111	100
2025-3-27 18:15:58.705	WT901BLE68-01(48591DE3C19B)	-0.217	-1.002	-0.085	-8.911	4.822	203.308	-68.86	49.74	-12.38	-52.038	-16.562	72.814	-0.68091	0.52802	-0.21936	0.45752	31.0	13111	100
2025-3-27 18:15:58.705	WT901BLE68-01(48591DE3C19B)	-0.193	-1.002	-0.085	-8.911	4.822	203.308	-68.34	51.43	-11.47	-52.038	-16.562	72.814	-0.68091	0.52802	-0.21936	0.45752	31.0	13111	100
2025-3-27 18:15:58.705	WT901BLE68-01(48591DE3C19B)	-0.193	-1.132	-0.060	-11.108	-8.728	172.607	-67.77	52.76	-10.50	-52.038	-16.562	72.814	-0.68091	0.52802	-0.21936	0.45752	31.0	13111	100
2025-3-27 18:15:58.734	WT901BLE68-01(48591DE3C19B)	-0.227	-1.132	-0.060	-11.108	-8.728	172.607	-67.15	54.09	-9.48	-52.038	-16.562	72.814	-0.68091	0.52802	-0.21936	0.45752	31.0	13111	100
2025-3-27 18:15:58.734	WT901BLE68-01(48591DE3C19B)	-0.227	-1.345	0.003	-15.259	-12.939	131.592	-66.69	55.01	-8.62	-52.038	-16.562	72.814	-0.68091	0.52802	-0.21936	0.45752	31.0	13111	100
2025-3-27 18:15:58.734	WT901BLE68-01(48591DE3C19B)	-0.349	-1.345	0.003	-15.259	-12.939	131.592	-66.19	55.92	-7.73	-52.038	-16.562	72.814	-0.75497	0.45425	-0.42453	-0.20810	31.0	13111	100
2025-3-27 18:15:58.734	WT901BLE68-01(48591DE3C19B)	-0.349	-1.614	0.065	-13.916	-25.085	81.665	-65.79	56.32	-6.99	-52.038	-16.562	72.814	-0.75497	0.45425	-0.42453	-0.20810	31.0	13111	100
2025-3-27 18:15:58.794	WT901BLE68-01(48591DE3C19B)	-0.408	-1.614	0.065	-13.916	-25.085	81.665	-65.37	56.71	-6.22	-52.038	-16.562	72.814	-0.75497	0.45425	-0.42453	-0.20810	31.0	13111	100
2025-3-27 18:15:58.794	WT901BLE68-01(48591DE3C19B)	-0.408	-1.722	0.165	-11.047	-42.542	31.677	-65.00	56.58	-5.54	-52.038	-16.562	72.814	-0.75497	0.45425	-0.42453	-0.20810	31.0	13111	100
2025-3-27 18:15:58.794	WT901BLE68-01(48591DE3C19B)	-0.387	-1.722	0.165	-11.047	-42.542	31.677	-64.61	56.44	-4.86	-52.038	-16.562	72.814	-0.75497	0.45425	-0.42453	-0.20810	31.0	13111	100
2025-3-27 18:15:58.794	WT901BLE68-01(48591DE3C19B)	-0.387	-1.675	0.244	-7.751	-54.382	-4.272	-64.27	55.93	-4.27	-52.038	-16.562	72.814	-0.75497	0.45425	-0.42453	-0.20810	31.0	13111	100
2025-3-27 18:15:58.824	WT901BLE68-01(48591DE3C19B)	-0.262	-1.675	0.244	-7.751	-54.382	-4.272	-63.93	55.43	-3.69	-52.038	-16.562	72.814	-0.75497	0.45425	-0.42453	-0.20810	31.0	13111	100
2025-3-27 18:15:58.824	WT901BLE68-01(48591DE3C19B)	-0.262	-1.505	0.346	-5.066	-59.692	-39.795	-63.74	54.57	-3.31	-52.038	-16.562	72.814	-0.75497	0.45425	-0.42453	-0.20810	31.0	13111	100
2025-3-27 18:15:58.824	WT901BLE68-01(48591DE3C19B)	-0.104	-1.505	0.346	-5.066	-59.692	-39.795	-63.55	53.73	-2.94	-52.038	-16.562	72.814	-0.75497	0.45425	-0.42453	-0.20810	31.0	13111	100
2025-3-27 18:15:58.824	WT901BLE68-01(48591DE3C19B)	-0.104	-1.410	0.371	-7.202	-62.134	-68.359	-63.53	52.61	-2.75	-52.038	-16.562	72.814	-0.75497	0.45425	-0.42453	-0.20810	31.0	13111	100
2025-3-27 18:15:58.854	WT901BLE68-01(48591DE3C19B)	-0.031	-1.410	0.371	-7.202	-62.134	-68.359	-63.51	51.50	-2.57	-52.038	-16.562	72.814	-0.75497	0.45425	-0.42453	-0.20810	31.0	13111	100
2025-3-27 18:15:58.854	WT901BLE68-01(48591DE3C19B)	-0.031	-1.310	0.337	-8.179	-55.420	-95.459	-63.72	50.18	-2.68	-52.038	-16.562	72.814	-0.75497	0.45425	-0.42453	-0.20810	31.0	13111	100
2025-3-27 18:15:58.854	WT901BLE68-01(48591DE3C19B)	-0.041	-1.310	0.337	-8.179	-55.420	-95.459	-63.92	48.86	-2.77	-52.038	-16.562	72.814	-0.75497	0.45425	-0.42453	-0.20810	31.0	13111	100
2025-3-27 18:15:58.854	WT901BLE68-01(48591DE3C19B)	-0.041	-1.209	0.305	-15.076	-43.762	-126.465	-64.44	47.32	-3.21	-52.038	-16.562	72.814	-0.75497	0.45425	-0.42453	-0.20810	31.0	13111	100
2025-3-27 18:15:58.916	WT901BLE68-01(48591DE3C19B)	-0.074	-1.209	0.305	-15.076	-43.762	-126.465	-64.92	45.78	-3.61	-52.038	-16.562	72.814	-0.75497	0.45425	-0.42453	-0.20810	31.0	13111	100
2025-3-27 18:15:58.916	WT901BLE68-01(48591DE3C19B)	-0.074	-1.208	0.341	-19.043	-35.217	-155.518	-65.61	44.02	-4.26	-52.038	-16.562	72.814	-0.75497	0.45425	-0.42453	-0.20810	31.0	13111	100
2025-3-27 18:15:58.916	WT901BLE68-01(48591DE3C19B)	-0.080	-1.208	0.341	-19.043	-35.217	-155.518	-66.24	42.25	-4.86	-52.038	-16.562	72.814	-0.75497	0.45425	-0.42453	-0.20810	31.0	13111	100
2025-3-27 18:15:58.916	WT901BLE68-01(48591DE3C19B)	-0.080	-1.137	0.410	-15.076	-32.166	-174.744	-66.87	40.34	-5.55	-52.038	-16.562	72.814	-0.75497	0.45425	-0.42453	-0.20810	31.0	13111	100
2025-3-27 18:15:58.944	WT901BLE68-01(48591DE3C19B)	-0.075	-1.137	0.410	-15.076	-32.166	-174.744	-67.46	38.41	-6.19	-52.038	-16.562	72.814	-0.75497	0.45425	-0.42453	-0.20810	31.0	13111	100
2025-3-27 18:15:58.944	WT901BLE68-01(48591DE3C19B)	-0.075	-1.031	0.497	-10.864	-25.452	-186.768	-68.03	36.42	-6.92	-52.038	-16.562	72.814	-0.75497	0.45425	-0.42453	-0.20810	31.0	13111	100
2025-3-27 18:15:58.944	WT901BLE68-01(48591DE3C19B)	-0.090	-1.031	0.497	-10.864	-25.452	-186.768	-68.54	34.43	-7.60	-52.038	-16.562	72.814	-0.75497	0.45425	-0.42453	-0.20810	31.0	13111	100
2025-3-27 18:15:58.944	WT901BLE68-01(48591DE3C19B)	-0.090	-1.009	0.521	-8.911	-11.780	-197.388	-69.10	32.38	-8.44	-33.418	-18.718	73.696	-0.75497	0.45425	-0.42453	-0.20810	31.0	13111	100
2025-3-27 18:15:58.991	WT901BLE68-01(48591DE3C19B)	-0.121	-1.009	0.521	-8.911	-11.780	-197.388	-69.60	30.35	-9.24	-33.418	-18.718	73.696	-0.75497	0.45425	-0.42453	-0.20810	31.0	13111	100
2025-3-27 18:15:58.991	WT901BLE68-01(48591DE3C19B)	-0.121	-1.052	0.484	-5.615	3.113	-203.308	-70.10	28.32	-10.18	-33.418	-18.718	73.696	-0.75497	0.45425	-0.42453	-0.20810	31.0	13111	100
2025-3-27 18:15:58.991	WT901BLE68-01(48591DE3C19B)	-0.115	-1.052	0.484	-5.615	3.113	-203.308	-70.56	26.29	-11.07	-33.418	-18.718	73.696	-0.75497	0.45425	-0.42453	-0.20810	31.0	13111	100
2025-3-27 18:15:58.991	WT901BLE68-01(48591DE3C19B)	-0.115	-1.083	0.437	-2.747	18.555	-210.876	-71.02	24.25	-12.12	-33.418	-18.718	73.696	-0.75497	0.45425	-0.42453	-0.20810	31.0	13111	100
2025-3-27 18:15:59.36	WT901BLE68-01(48591DE3C19B)	-0.090	-1.083	0.437	-2.747	18.555	-210.876	-71.43	22.21	-13.13	-33.418	-18.718	73.696	-0.75497	0.45425	-0.42453	-0.20810	31.0	13111	100
2025-3-27 18:15:59.36	WT901BLE68-01(48591DE3C19B)	-0.090	-1.140	0.392	-0.977	40.771	-220.825	-71.87	20.15	-14.37	-33.418	-18.718	73.696	-0.75497	0.45425	-0.42453	-0.20810	31.0	13111	100
2025-3-27 18:15:59.36	WT901BLE68-01(48591DE3C19B)	-0.095	-1.140	0.392	-0.977	40.771	-220.825	-72.25	18.09	-15.57	-33.418	-18.718	73.696	-0.75497	0.45425	-0.42453	-0.20810	31.0	13111	100
2025-3-27 18:15:59.36	WT901BLE68-01(48591DE3C19B)	-0.095	-1.184	0.350	5.310	73.608	-232.544	-72.63	16.03	-17.10	-33.418	-18.718	73.696	-0.75497	0.45425	-0.42453	-0.20810	31.0	13111	100
2025-3-27 18:15:59.65	WT901BLE68-01(48591DE3C19B)	-0.142	-1.184	0.350	5.310	73.608	-232.544	-72.94	13.97	-18.60	-33.418	-18.718	73.696	-0.75497	0.45425	-0.42453	-0.20810	31.0	13111	100
2025-3-27 18:15:59.65	WT901BLE68-01(48591DE3C19B)	-0.142	-1.186	0.286	12.451	112.122	-242.859	-73.23	11.93	-20.47	-33.418	-18.718	73.696	-0.75497	0.45425	-0.42453	-0.20810	31.0	13111	100
2025-3-27 18:15:59.65	WT901BLE68-01(48591DE3C19B)	-0.235	-1.186	0.286	12.451	112.122	-242.859	-73.44	9.89	-22.32	-33.418	-18.718	73.696	-0.75497	0.45425	-0.42453	-0.20810	31.0	13111	100
2025-3-27 18:15:59.65	WT901BLE68-01(48591DE3C19B)	-0.235	-1.199	0.191	19.226	150.879	-254.272	-73.59	7.87	-24.55	-33.418	-18.718	73.696	-0.75497	0.45425	-0.42453	-0.20810	31.0	13111	100
2025-3-27 18:15:59.94	WT901BLE68-01(48591DE3C19B)	-0.339	-1.199	0.191	19.226	150.879	-254.272	-73.66	5.86	-26.75	-33.418	-18.718	73.696	-0.75497	0.45425	-0.42453	-0.20810	31.0	13111	100
2025-3-27 18:15:59.94	WT901BLE68-01(48591DE3C19B)	-0.339	-1.247	0.138	29.053	182.495	-261.658	-73.59	3.88	-29.26	-33.418	-18.718	73.696	-0.75497	0.45425	-0.42453	-0.20810	31.0	13111	100
2025-3-27 18:15:59.94	WT901BLE68-01(48591DE3C19B)	-0.491	-1.247	0.138	29.053	182.495	-261.658	-73.44	1.92	-31.76	-33.418	-18.718	73.696	-0.75497	0.45425	-0.42453	-0.20810	31.0	13111	100
2025-3-27 18:15:59.94	WT901BLE68-01(48591DE3C19B)	-0.708	-1.306	0.146	42.786	197.449	-262.878	-73.08	0.02	-34.40	-33.418	-18.718	73.696	-0.75497	0.45425	-0.42453	-0.20810	31.0	13111	100
2025-3-27 18:15:59.155	WT901BLE68-01(48591DE3C19B)	-0.708	-1.257	0.209	61.646	185.059	-250.305	-72.54	-1.79	-36.96	-33.418	-18.718	73.696	-0.75497	0.45425	-0.42453	-0.20810	31.0	13111	100
2025-3-27 18:15:59.155	WT901BLE68-01(48591DE3C19B)	-0.787	-1.257	0.209	61.646	185.059	-250.305	-71.85	-3.51	-39.46	-33.418	-18.718	73.696	-0.75497	0.45425	-0.42453	-0.20810	31.0	13111	100
2025-3-27 18:15:59.155	WT901BLE68-01(48591DE3C19B)	-0.787	-1.042	0.175	76.843	161.255	-221.313	-71.02	-5.08	-41.80	-33.418	-18.718	73.696	-0.75497	0.45425	-0.42453	-0.20810	31.0	13111	100
2025-3-27 18:15:59.155	WT901BLE68-01(48591DE3C19B)	-0.713	-1.042	0.175	76.843	161.255	-221.313	-70.08	-6.50	-44.01	-33.418	-18.718	73.696	-0.75497	0.45425	-0.42453	-0.20810	31.0	13111	100
2025-3-27 18:15:59.185	WT901BLE68-01(48591DE3C19B)	-0.713	-0.674	0.022	80.139	142.944	-184.448	-69.09	-7.72	-46.08	-33.418	-18.718	73.696	-0.73932	0.53894	-0.16989	0.36603	31.0	13111	100
2025-3-27 18:15:59.185	WT901BLE68-01(48591DE3C19B)	-0.605	-0.674	0.022	80.139	142.944	-184.448	-68.08	-8.75	-48.02	-33.418	-18.718	73.696	-0.73932	0.53894	-0.16989	0.36603	31.0	13111	100
2025-3-27 18:15:59.185	WT901BLE68-01(48591DE3C19B)	-0.605	-0.372	-0.028	63.171	117.371	-151.001	-67.16	-9.62	-49.78	-33.418	-18.718	73.696	-0.73932	0.53894	-0.16989	0.36603	31.0	13111	100
2025-3-27 18:15:59.185	WT901BLE68-01(48591DE3C19B)	-0.594	-0.372	-0.028	63.171	117.371	-151.001	-66.34	-10.35	-51.37	-33.418	-18.718	73.696	-0.73932	0.53894	-0.16989	0.36603	31.0	13111	100
2025-3-27 18:15:59.215	WT901BLE68-01(48591DE3C19B)	-0.594	-0.430	0.140	41.931	79.163	-120.667	-65.65	-10.98	-52.73	-33.418	-18.718	73.696	-0.73932	0.53894	-0.16989	0.36603	31.0	13111	100
2025-3-27 18:15:59.215	WT901BLE68-01(48591DE3C19B)	-0.633	-0.430	0.140	41.931	79.163	-120.667	-65.12	-11.52	-53.84	-33.418	-18.718	73.696	-0.73932	0.53894	-0.16989	0.36603	31.0	13111	100
2025-3-27 18:15:59.215	WT901BLE68-01(48591DE3C19B)	-0.633	-0.701	0.269	28.137	35.034	-94.116	-64.69	-12.02	-54.70	-33.418	-18.718	73.696	-0.73932	0.53894	-0.16989	0.36603	31.0	13111	100
2025-3-27 18:15:59.216	WT901BLE68-01(48591DE3C19B)	-0.627	-0.701	0.269	28.137	35.034	-94.116	-64.37	-12.49	-55.29	-33.418	-18.718	73.696	-0.73932	0.53894	-0.16989	0.36603	31.0	13111	100
2025-3-27 18:15:59.274	WT901BLE68-01(48591DE3C19B)	-0.627	-0.912	0.288	20.386	10.803	-70.862	-64.13	-12.89	-55.73	-33.418	-18.718	73.696	-0.73932	0.53894	-0.16989	0.36603	31.0	13111	100
2025-3-27 18:15:59.274	WT901BLE68-01(48591DE3C19B)	-0.654	-0.912	0.288	20.386	10.803	-70.862	-63.95	-13.23	-56.00	-33.418	-18.718	73.696	-0.73932	0.53894	-0.16989	0.36603	31.0	13111	100
2025-3-27 18:15:59.274	WT901BLE68-01(48591DE3C19B)	-0.654	-1.146	0.190	8.728	10.803	-48.340	-63.85	-13.46	-56.23	-33.418	-18.718	73.696	-0.73932	0.53894	-0.16989	0.36603	31.0	13111	100
2025-3-27 18:15:59.274	WT901BLE68-01(48591DE3C19B)	-0.708	-1.146	0.190	8.728	10.803	-48.340	-63.81	-13.60	-56.40	-33.418	-18.718	73.696	-0.73932	0.53894	-0.16989	0.36603	31.0	13111	100
2025-3-27 18:15:59.306	WT901BLE68-01(48591DE3C19B)	-0.708	-1.308	0.083	-1.465	25.391	-34.180	-63.81	-13.65	-56.62	-33.418	-18.718	73.696	-0.73932	0.53894	-0.16989	0.36603	31.0	13111	100
2025-3-27 18:15:59.306	WT901BLE68-01(48591DE3C19B)	-0.733	-1.308	0.083	-1.465	25.391	-34.180	-63.87	-13.60	-56.87	-33.418	-18.718	73.696	-0.73932	0.53894	-0.16989	0.36603	31.0	13111	100
2025-3-27 18:15:59.307	WT901BLE68-01(48591DE3C19B)	-0.733	-1.307	0.077	-7.690	33.203	-13.062	-63.96	-13.44	-57.11	-33.418	-18.718	73.696	-0.73932	0.53894	-0.16989	0.36603	31.0	13111	100
2025-3-27 18:15:59.307	WT901BLE68-01(48591DE3C19B)	-0.707	-1.307	0.077	-7.690	33.203	-13.062	-64.09	-13.17	-57.33	-33.418	-18.718	73.696	-0.73932	0.53894	-0.16989	0.36603	31.0	13111	100
2025-3-27 18:15:59.335	WT901BLE68-01(48591DE3C19B)	-0.707	-1.058	0.144	-20.508	23.499	-2.136	-64.31	-12.88	-57.49	-33.418	-18.718	73.696	-0.73932	0.53894	-0.16989	0.36603	31.0	13111	100
2025-3-27 18:15:59.335	WT901BLE68-01(48591DE3C19B)	-0.667	-1.058	0.144	-20.508	23.499	-2.136	-64.60	-12.56	-57.58	-33.418	-18.718	73.696	-0.73932	0.53894	-0.16989	0.36603	31.0	13111	100
2025-3-27 18:15:59.335	WT901BLE68-01(48591DE3C19B)	-0.667	-1.022	0.197	-44.067	-0.549	7.813	-65.04	-12.26	-57.54	-77.518	-3.430	69.482	-0.73932	0.53894	-0.16989	0.36603	31.0	13111	100
2025-3-27 18:15:59.335	WT901BLE68-01(48591DE3C19B)	-0.709	-1.022	0.197	-44.067	-0.549	7.813	-65.62	-11.95	-57.37	-77.518	-3.430	69.482	-0.73932	0.53894	-0.16989	0.36603	31.0	13111	100
2025-3-27 18:15:59.394	WT901BLE68-01(48591DE3C19B)	-0.709	-1.055	0.197	-57.495	-29.602	18.799	-66.30	-11.65	-57.04	-77.518	-3.430	69.482	-0.73932	0.53894	-0.16989	0.36603	31.0	13111	100
2025-3-27 18:15:59.395	WT901BLE68-01(48591DE3C19B)	-0.767	-1.055	0.197	-57.495	-29.602	18.799	-67.06	-11.36	-56.55	-77.518	-3.430	69.482	-0.73932	0.53894	-0.16989	0.36603	31.0	13111	100
2025-3-27 18:15:59.395	WT901BLE68-01(48591DE3C19B)	-0.767	-0.948	0.180	-64.026	-64.575	31.860	-67.89	-11.06	-55.89	-77.518	-3.430	69.482	-0.73932	0.53894	-0.16989	0.36603	31.0	13111	100
2025-3-27 18:15:59.395	WT901BLE68-01(48591DE3C19B)	-0.778	-0.948	0.180	-64.026	-64.575	31.860	-68.77	-10.77	-55.04	-77.518	-3.430	69.482	-0.73932	0.53894	-0.16989	0.36603	31.0	13111	100
2025-3-27 18:15:59.424	WT901BLE68-01(48591DE3C19B)	-0.778	-0.915	0.111	-73.975	-109.436	50.964	-69.75	-10.44	-53.94	-77.518	-3.430	69.482	-0.73932	0.53894	-0.16989	0.36603	31.0	13111	100
2025-3-27 18:15:59.424	WT901BLE68-01(48591DE3C19B)	-0.764	-0.915	0.111	-73.975	-109.436	50.964	-70.80	-10.09	-52.61	-77.518	-3.430	69.482	-0.73932	0.53894	-0.16989	0.36603	31.0	13111	100
2025-3-27 18:15:59.424	WT901BLE68-01(48591DE3C19B)	-0.764	-1.137	0.022	-80.811	-155.212	77.454	-71.92	-9.65	-51.03	-77.518	-3.430	69.482	-0.73932	0.53894	-0.16989	0.36603	31.0	13111	100
2025-3-27 18:15:59.424	WT901BLE68-01(48591DE3C19B)	-0.652	-1.137	0.022	-80.811	-155.212	77.454	-73.09	-9.13	-49.20	-77.518	-3.430	69.482	-0.73932	0.53894	-0.16989	0.36603	31.0	13111	100
2025-3-27 18:15:59.455	WT901BLE68-01(48591DE3C19B)	-0.652	-1.282	-0.067	-76.111	-192.017	107.605	-74.26	-8.48	-47.16	-77.518	-3.430	69.482	-0.73932	0.53894	-0.16989	0.36603	31.0	13111	100
2025-3-27 18:15:59.455	WT901BLE68-01(48591DE3C19B)	-0.491	-1.282	-0.067	-76.111	-192.017	107.605	-75.39	-7.71	-44.93	-77.518	-3.430	69.482	-0.73932	0.53894	-0.16989	0.36603	31.0	13111	100
2025-3-27 18:15:59.455	WT901BLE68-01(48591DE3C19B)	-0.491	-1.301	-0.098	-67.627	-212.036	142.639	-76.47	-6.76	-42.59	-77.518	-3.430	69.482	-0.73932	0.53894	-0.16989	0.36603	31.0	13111	100
2025-3-27 18:15:59.455	WT901BLE68-01(48591DE3C19B)	-0.414	-1.301	-0.098	-67.627	-212.036	142.639	-77.47	-5.63	-40.15	-77.518	-3.430	69.482	-0.73932	0.53894	-0.16989	0.36603	31.0	13111	100
2025-3-27 18:15:59.516	WT901BLE68-01(48591DE3C19B)	-0.414	-1.363	-0.092	-59.631	-220.886	174.316	-78.38	-4.33	-37.66	-77.518	-3.430	69.482	-0.73932	0.53894	-0.16989	0.36603	31.0	13111	100
2025-3-27 18:15:59.516	WT901BLE68-01(48591DE3C19B)	-0.364	-1.363	-0.092	-59.631	-220.886	174.316	-79.19	-2.86	-35.14	-77.518	-3.430	69.482	-0.73932	0.53894	-0.16989	0.36603	31.0	13111	100
2025-3-27 18:15:59.516	WT901BLE68-01(48591DE3C19B)	-0.364	-1.456	-0.021	-45.227	-224.243	198.303	-79.85	-1.26	-32.61	-77.518	-3.430	69.482	-0.73932	0.53894	-0.16989	0.36603	31.0	13111	100
2025-3-27 18:15:59.516	WT901BLE68-01(48591DE3C19B)	-0.210	-1.456	-0.021	-45.227	-224.243	198.303	-80.37	0.46	-30.07	-77.518	-3.430	69.482	-0.73932	0.53894	-0.16989	0.36603	31.0	13111	100
2025-3-27 18:15:59.545	WT901BLE68-01(48591DE3C19B)	-0.210	-1.491	0.042	-28.076	-209.534	218.689	-80.72	2.30	-27.61	-77.518	-3.430	69.482	-0.73932	0.53894	-0.16989	0.36603	31.0	13111	100
2025-3-27 18:15:59.545	WT901BLE68-01(48591DE3C19B)	-0.079	-1.491	0.042	-28.076	-209.534	218.689	-80.90	4.24	-25.23	-77.518	-3.430	69.482	-0.73932	0.53894	-0.16989	0.36603	31.0	13111	100
2025-3-27 18:15:59.545	WT901BLE68-01(48591DE3C19B)	-0.079	-1.452	0.073	-9.460	-165.710	236.755	-80.93	6.29	-23.05	-77.518	-3.430	69.482	-0.73932	0.53894	-0.16989	0.36603	31.0	13111	100
2025-3-27 18:15:59.545	WT901BLE68-01(48591DE3C19B)	-0.024	-1.452	0.073	-9.460	-165.710	236.755	-80.80	8.43	-21.08	-77.518	-3.430	69.482	-0.75531	0.62521	-0.17334	0.09207	31.0	13111	100
2025-3-27 18:15:59.575	WT901BLE68-01(48591DE3C19B)	-0.024	-1.339	0.119	3.357	-101.013	251.770	-80.59	10.68	-19.41	-77.518	-3.430	69.482	-0.75531	0.62521	-0.17334	0.09207	31.0	13111	100
2025-3-27 18:15:59.575	WT901BLE68-01(48591DE3C19B)	-0.063	-1.339	0.119	3.357	-101.013	251.770	-80.30	13.02	-18.04	-77.518	-3.430	69.482	-0.75531	0.62521	-0.17334	0.09207	31.0	13111	100
2025-3-27 18:15:59.575	WT901BLE68-01(48591DE3C19B)	-0.063	-1.310	0.145	7.874	-34.912	263.489	-80.02	15.45	-16.97	-77.518	-3.430	69.482	-0.75531	0.62521	-0.17334	0.09207	31.0	13111	100
2025-3-27 18:15:59.575	WT901BLE68-01(48591DE3C19B)	-0.115	-1.310	0.145	7.874	-34.912	263.489	-79.74	17.96	-16.21	-77.518	-3.430	69.482	-0.75531	0.62521	-0.17334	0.09207	31.0	13111	100
2025-3-27 18:15:59.635	WT901BLE68-01(48591DE3C19B)	-0.115	-1.272	0.114	8.789	17.151	272.888	-79.59	20.64	-15.95	-77.518	-3.430	69.482	-0.75531	0.62521	-0.17334	0.09207	31.0	13111	100
2025-3-27 18:15:59.635	WT901BLE68-01(48591DE3C19B)	-0.165	-1.272	0.114	8.789	17.151	272.888	-79.43	23.29	-15.67	-77.518	-3.430	69.482	-0.75531	0.62521	-0.17334	0.09207	31.0	13111	100
2025-3-27 18:15:59.636	WT901BLE68-01(48591DE3C19B)	-0.165	-1.218	0.068	2.808	50.110	279.480	-79.44	26.05	-15.73	-77.518	-3.430	69.482	-0.75531	0.62521	-0.17334	0.09207	31.0	13111	100
2025-3-27 18:15:59.636	WT901BLE68-01(48591DE3C19B)	-0.240	-1.218	0.068	2.808	50.110	279.480	-79.46	28.80	-15.78	-77.518	-3.430	69.482	-0.75531	0.62521	-0.17334	0.09207	31.0	13111	100
2025-3-27 18:15:59.665	WT901BLE68-01(48591DE3C19B)	-0.240	-1.221	0.014	-8.240	52.002	280.273	-79.61	31.53	-15.86	-77.518	-3.430	69.482	-0.75531	0.62521	-0.17334	0.09207	31.0	13111	100
2025-3-27 18:15:59.665	WT901BLE68-01(48591DE3C19B)	-0.329	-1.221	0.014	-8.240	52.002	280.273	-79.76	34.25	-15.95	-77.518	-3.430	69.482	-0.75531	0.62521	-0.17334	0.09207	31.0	13111	100
2025-3-27 18:15:59.665	WT901BLE68-01(48591DE3C19B)	-0.329	-1.274	-0.026	-17.090	18.860	278.137	-79.78	36.88	-15.64	-77.518	-3.430	69.482	-0.75531	0.62521	-0.17334	0.09207	31.0	13111	100
2025-3-27 18:15:59.666	WT901BLE68-01(48591DE3C19B)	-0.355	-1.274	-0.026	-17.090	18.860	278.137	-79.78	39.49	-15.32	-77.518	-3.430	69.482	-0.75531	0.62521	-0.17334	0.09207	31.0	13111	100
2025-3-27 18:15:59.694	WT901BLE68-01(48591DE3C19B)	-0.355	-1.313	-0.014	-18.921	-23.132	273.376	-79.42	41.96	-14.45	-77.518	-3.430	69.482	-0.75531	0.62521	-0.17334	0.09207	31.0	13111	100
2025-3-27 18:15:59.695	WT901BLE68-01(48591DE3C19B)	-0.336	-1.313	-0.014	-18.921	-23.132	273.376	-79.00	44.42	-13.52	-77.518	-3.430	69.482	-0.75531	0.62521	-0.17334	0.09207	31.0	13111	100
2025-3-27 18:15:59.695	WT901BLE68-01(48591DE3C19B)	-0.336	-1.415	-0.011	-20.813	-56.274	262.756	-78.22	46.70	-12.09	-77.518	-3.430	69.482	-0.75531	0.62521	-0.17334	0.09207	31.0	13111	100
2025-3-27 18:15:59.695	WT901BLE68-01(48591DE3C19B)	-0.297	-1.415	-0.011	-20.813	-56.274	262.756	-77.32	48.94	-10.55	-77.518	-3.430	69.482	-0.75531	0.62521	-0.17334	0.09207	31.0	13111	100
2025-3-27 18:15:59.755	WT901BLE68-01(48591DE3C19B)	-0.297	-1.471	0.010	-13.184	-76.172	247.375	-76.02	50.95	-8.64	-77.518	-3.430	69.482	-0.75531	0.62521	-0.17334	0.09207	31.0	13111	100
2025-3-27 18:15:59.755	WT901BLE68-01(48591DE3C19B)	-0.235	-1.471	0.010	-13.184	-76.172	247.375	-74.56	52.93	-6.58	-77.518	-3.430	69.482	-0.75531	0.62521	-0.17334	0.09207	31.0	13111	100
2025-3-27 18:15:59.755	WT901BLE68-01(48591DE3C19B)	-0.235	-1.478	0.059	-9.033	-87.585	226.440	-72.82	54.62	-4.26	-77.518	-3.430	69.482	-0.75531	0.62521	-0.17334	0.09207	31.0	13111	100
2025-3-27 18:15:59.755	WT901BLE68-01(48591DE3C19B)	-0.148	-1.478	0.059	-9.033	-87.585	226.440	-70.89	56.26	-1.75	-77.518	-3.430	69.482	-0.75531	0.62521	-0.17334	0.09207	31.0	13111	100
2025-3-27 18:15:59.785	WT901BLE68-01(48591DE3C19B)	-0.148	-1.548	0.101	-7.263	-89.417	196.838	-68.88	57.55	0.77	-31.948	-23.422	80.066	-0.75531	0.62521	-0.17334	0.09207	31.0	13111	100
2025-3-27 18:15:59.785	WT901BLE68-01(48591DE3C19B)	-0.006	-1.548	0.101	-7.263	-89.417	196.838	-66.70	58.78	3.47	-31.948	-23.422	80.066	-0.75531	0.62521	-0.17334	0.09207	31.0	13111	100
2025-3-27 18:15:59.785	WT901BLE68-01(48591DE3C19B)	-0.006	-1.550	0.152	-1.465	-81.970	160.889	-64.67	59.66	5.91	-31.948	-23.422	80.066	-0.75531	0.62521	-0.17334	0.09207	31.0	13111	100
2025-3-27 18:15:59.785	WT901BLE68-01(48591DE3C19B)	0.128	-1.550	0.152	-1.465	-81.970	160.889	-62.53	60.47	8.44	-31.948	-23.422	80.066	-0.75531	0.62521	-0.17334	0.09207	31.0	13111	100
2025-3-27 18:15:59.815	WT901BLE68-01(48591DE3C19B)	0.128	-1.481	0.179	1.953	-63.477	117.615	-60.92	60.94	10.32	-31.948	-23.422	80.066	-0.75531	0.62521	-0.17334	0.09207	31.0	13111	100
2025-3-27 18:15:59.815	WT901BLE68-01(48591DE3C19B)	0.153	-1.481	0.179	1.953	-63.477	117.615	-59.26	61.38	12.24	-31.948	-23.422	80.066	-0.75531	0.62521	-0.17334	0.09207	31.0	13111	100
2025-3-27 18:15:59.816	WT901BLE68-01(48591DE3C19B)	0.153	-1.371	0.198	3.235	-32.959	67.505	-58.52	61.51	13.09	-31.948	-23.422	80.066	-0.75531	0.62521	-0.17334	0.09207	31.0	13111	100
2025-3-27 18:15:59.816	WT901BLE68-01(48591DE3C19B)	0.059	-1.371	0.198	3.235	-32.959	67.505	-57.78	61.64	13.95	-31.948	-23.422	80.066	-0.75531	0.62521	-0.17334	0.09207	31.0	13111	100
2025-3-27 18:15:59.874	WT901BLE68-01(48591DE3C19B)	0.059	-1.284	0.232	3.296	0.793	16.052	-58.07	61.50	13.62	-31.948	-23.422	80.066	-0.75531	0.62521	-0.17334	0.09207	31.0	13111	100
2025-3-27 18:15:59.875	WT901BLE68-01(48591DE3C19B)	-0.043	-1.284	0.232	3.296	0.793	16.052	-58.35	61.36	13.30	-31.948	-23.422	80.066	-0.75531	0.62521	-0.17334	0.09207	31.0	13111	100
2025-3-27 18:15:59.875	WT901BLE68-01(48591DE3C19B)	-0.043	-1.223	0.260	2.258	28.931	-39.429	-59.58	60.89	11.91	-31.948	-23.422	80.066	-0.75531	0.62521	-0.17334	0.09207	31.0	13111	100
2025-3-27 18:15:59.875	WT901BLE68-01(48591DE3C19B)	-0.094	-1.223	0.260	2.258	28.931	-39.429	-60.76	60.41	10.56	-31.948	-23.422	80.066	-0.75531	0.62521	-0.17334	0.09207	31.0	13111	100
2025-3-27 18:15:59.905	WT901BLE68-01(48591DE3C19B)	-0.094	-1.218	0.222	5.005	51.147	-96.985	-62.66	59.51	8.35	-31.948	-23.422	80.066	-0.75531	0.62521	-0.17334	0.09207	31.0	13111	100
2025-3-27 18:15:59.905	WT901BLE68-01(48591DE3C19B)	-0.138	-1.218	0.222	5.005	51.147	-96.985	-64.41	58.58	6.26	-31.948	-23.422	80.066	-0.75531	0.62521	-0.17334	0.09207	31.0	13111	100
2025-3-27 18:15:59.905	WT901BLE68-01(48591DE3C19B)	-0.138	-1.215	0.140	12.451	67.871	-149.658	-66.55	57.21	3.63	-31.948	-23.422	80.066	-0.75531	0.62521	-0.17334	0.09207	31.0	13111	100
2025-3-27 18:15:59.905	WT901BLE68-01(48591DE3C19B)	-0.191	-1.215	0.140	12.451	67.871	-149.658	-68.48	55.81	1.19	-31.948	-23.422	80.066	-0.75531	0.62521	-0.17334	0.09207	31.0	13111	100
2025-3-27 18:15:59.965	WT901BLE68-01(48591DE3C19B)	-0.191	-1.130	0.082	18.677	74.158	-192.200	-70.44	53.99	-1.41	-31.948	-23.422	80.066	-0.75531	0.62521	-0.17334	0.09207	31.0	13111	100
2025-3-27 18:15:59.965	WT901BLE68-01(48591DE3C19B)	-0.227	-1.130	0.082	18.677	74.158	-192.200	-72.18	52.14	-3.79	-31.948	-23.422	80.066	-0.75531	0.62521	-0.17334	0.09207	31.0	13111	100
2025-3-27 18:15:59.965	WT901BLE68-01(48591DE3C19B)	-0.227	-1.093	0.096	22.461	71.777	-223.816	-73.75	49.95	-6.08	-31.948	-23.422	80.066	-0.75531	0.62521	-0.17334	0.09207	31.0	13111	100
2025-3-27 18:15:59.965	WT901BLE68-01(48591DE3C19B)	-0.272	-1.093	0.096	22.461	71.777	-223.816	-75.12	47.74	-8.16	-31.948	-23.422	80.066	-0.75531	0.62521	-0.17334	0.09207	31.0	13111	100
2025-3-27 18:15:59.995	WT901BLE68-01(48591DE3C19B)	-0.272	-1.127	0.172	28.564	57.556	-250.427	-76.16	45.23	-9.97	-31.948	-23.422	80.066	-0.75531	0.62521	-0.17334	0.09207	31.0	13111	100
2025-3-27 18:15:59.995	WT901BLE68-01(48591DE3C19B)	-0.254	-1.127	0.172	28.564	57.556	-250.427	-77.05	42.71	-11.63	-31.948	-23.422	80.066	-0.74780	0.54819	-0.34222	-0.15179	31.0	13111	100
2025-3-27 18:15:59.995	WT901BLE68-01(48591DE3C19B)	-0.254	-1.184	0.226	36.011	42.542	-270.142	-77.63	39.97	-13.04	-31.948	-23.422	80.066	-0.74780	0.54819	-0.34222	-0.15179	31.0	13111	100
2025-3-27 18:15:59.995	WT901BLE68-01(48591DE3C19B)	-0.245	-1.184	0.226	36.011	42.542	-270.142	-78.10	37.24	-14.34	-31.948	-23.422	80.066	-0.74780	0.54819	-0.34222	-0.15179	31.0	13111	100
2025-3-27 18:16:0.25	WT901BLE68-01(48591DE3C19B)	-0.245	-1.236	0.202	42.358	33.508	-282.776	-78.37	34.39	-15.50	-31.948	-23.422	80.066	-0.74780	0.54819	-0.34222	-0.15179	31.0	13111	100
2025-3-27 18:16:0.25	WT901BLE68-01(48591DE3C19B)	-0.222	-1.236	0.202	42.358	33.508	-282.776	-78.56	31.54	-16.60	-31.948	-23.422	80.066	-0.74780	0.54819	-0.34222	-0.15179	31.0	13111	100
2025-3-27 18:16:0.25	WT901BLE68-01(48591DE3C19B)	-0.222	-1.306	0.146	43.396	27.954	-293.762	-78.65	28.59	-17.62	-31.948	-23.422	80.066	-0.74780	0.54819	-0.34222	-0.15179	31.0	13111	100
2025-3-27 18:16:0.25	WT901BLE68-01(48591DE3C19B)	-0.200	-1.306	0.146	43.396	27.954	-293.762	-78.68	25.66	-18.60	-31.948	-23.422	80.066	-0.74780	0.54819	-0.34222	-0.15179	31.0	13111	100
2025-3-27 18:16:0.85	WT901BLE68-01(48591DE3C19B)	-0.215	-1.397	0.110	42.725	37.476	-302.368	-78.71	22.69	-19.68	-31.948	-23.422	80.066	-0.74780	0.54819	-0.34222	-0.15179	31.0	13111	100
2025-3-27 18:16:0.85	WT901BLE68-01(48591DE3C19B)	-0.215	-1.441	0.106	42.053	63.232	-306.946	-78.74	19.73	-20.87	-31.948	-23.422	80.066	-0.74780	0.54819	-0.34222	-0.15179	31.0	13111	100
2025-3-27 18:16:0.85	WT901BLE68-01(48591DE3C19B)	-0.268	-1.441	0.106	42.053	63.232	-306.946	-78.75	16.79	-22.17	-31.948	-23.422	80.066	-0.74780	0.54819	-0.34222	-0.15179	31.0	13111	100
2025-3-27 18:16:0.85	WT901BLE68-01(48591DE3C19B)	-0.268	-1.445	0.111	40.588	93.445	-305.847	-78.74	13.90	-23.60	-31.948	-23.422	80.066	-0.74780	0.54819	-0.34222	-0.15179	31.0	13111	100
2025-3-27 18:16:0.116	WT901BLE68-01(48591DE3C19B)	-0.333	-1.445	0.111	40.588	93.445	-305.847	-78.70	11.06	-25.16	-31.948	-23.422	80.066	-0.74780	0.54819	-0.34222	-0.15179	31.0	13111	100
2025-3-27 18:16:0.116	WT901BLE68-01(48591DE3C19B)	-0.333	-1.405	0.150	42.053	117.004	-299.438	-78.60	8.31	-26.82	-31.948	-23.422	80.066	-0.74780	0.54819	-0.34222	-0.15179	31.0	13111	100
2025-3-27 18:16:0.116	WT901BLE68-01(48591DE3C19B)	-0.396	-1.405	0.150	42.053	117.004	-299.438	-78.42	5.63	-28.58	-31.948	-23.422	80.066	-0.74780	0.54819	-0.34222	-0.15179	31.0	13111	100
2025-3-27 18:16:0.117	WT901BLE68-01(48591DE3C19B)	-0.396	-1.321	0.203	46.082	125.183	-288.208	-78.15	3.03	-30.36	-31.948	-23.422	80.066	-0.74780	0.54819	-0.34222	-0.15179	31.0	13111	100
2025-3-27 18:16:0.145	WT901BLE68-01(48591DE3C19B)	-0.447	-1.321	0.203	46.082	125.183	-288.208	-77.78	0.53	-32.17	-31.948	-23.422	80.066	-0.74780	0.54819	-0.34222	-0.15179	31.0	13111	100
2025-3-27 18:16:0.145	WT901BLE68-01(48591DE3C19B)	-0.447	-1.202	0.214	50.720	115.723	-274.536	-77.31	-1.88	-33.94	-31.948	-23.422	80.066	-0.74780	0.54819	-0.34222	-0.15179	31.0	13111	100
2025-3-27 18:16:0.145	WT901BLE68-01(48591DE3C19B)	-0.486	-1.202	0.214	50.720	115.723	-274.536	-76.75	-4.20	-35.66	-55.174	-3.822	79.478	-0.74780	0.54819	-0.34222	-0.15179	31.0	13111	100
2025-3-27 18:16:0.145	WT901BLE68-01(48591DE3C19B)	-0.486	-1.098	0.182	53.040	91.248	-259.277	-76.12	-6.44	-37.27	-55.174	-3.822	79.478	-0.74780	0.54819	-0.34222	-0.15179	31.0	13111	100
2025-3-27 18:16:0.205	WT901BLE68-01(48591DE3C19B)	-0.536	-1.098	0.182	53.040	91.248	-259.277	-75.44	-8.60	-38.77	-55.174	-3.822	79.478	-0.74780	0.54819	-0.34222	-0.15179	31.0	13111	100
2025-3-27 18:16:0.205	WT901BLE68-01(48591DE3C19B)	-0.536	-1.054	0.143	53.284	57.068	-240.295	-74.72	-10.68	-40.11	-55.174	-3.822	79.478	-0.74780	0.54819	-0.34222	-0.15179	31.0	13111	100
2025-3-27 18:16:0.205	WT901BLE68-01(48591DE3C19B)	-0.580	-1.054	0.143	53.284	57.068	-240.295	-74.00	-12.67	-41.29	-55.174	-3.822	79.478	-0.74780	0.54819	-0.34222	-0.15179	31.0	13111	100
2025-3-27 18:16:0.205	WT901BLE68-01(48591DE3C19B)	-0.580	-1.040	0.106	52.490	20.447	-219.177	-73.30	-14.58	-42.29	-55.174	-3.822	79.478	-0.74780	0.54819	-0.34222	-0.15179	31.0	13111	100
2025-3-27 18:16:0.235	WT901BLE68-01(48591DE3C19B)	-0.576	-1.040	0.106	52.490	20.447	-219.177	-72.61	-16.42	-43.10	-55.174	-3.822	79.478	-0.74780	0.54819	-0.34222	-0.15179	31.0	13111	100
2025-3-27 18:16:0.235	WT901BLE68-01(48591DE3C19B)	-0.576	-1.007	0.068	48.828	-6.958	-194.031	-71.97	-18.16	-43.76	-55.174	-3.822	79.478	-0.74780	0.54819	-0.34222	-0.15179	31.0	13111	100
2025-3-27 18:16:0.235	WT901BLE68-01(48591DE3C19B)	-0.540	-1.007	0.068	48.828	-6.958	-194.031	-71.38	-19.80	-44.27	-55.174	-3.822	79.478	-0.74780	0.54819	-0.34222	-0.15179	31.0	13111	100
2025-3-27 18:16:0.235	WT901BLE68-01(48591DE3C19B)	-0.540	-0.976	0.035	42.358	-17.700	-166.809	-70.84	-21.30	-44.70	-55.174	-3.822	79.478	-0.74780	0.54819	-0.34222	-0.15179	31.0	13111	100
2025-3-27 18:16:0.265	WT901BLE68-01(48591DE3C19B)	-0.508	-0.976	0.035	42.358	-17.700	-166.809	-70.36	-22.69	-45.05	-55.174	-3.822	79.478	-0.74780	0.54819	-0.34222	-0.15179	31.0	13111	100
2025-3-27 18:16:0.265	WT901BLE68-01(48591DE3C19B)	-0.508	-0.960	0.042	33.997	-23.560	-137.634	-69.95	-23.92	-45.32	-55.174	-3.822	79.478	-0.74780	0.54819	-0.34222	-0.15179	31.0	13111	100
2025-3-27 18:16:0.265	WT901BLE68-01(48591DE3C19B)	-0.470	-0.960	0.042	33.997	-23.560	-137.634	-69.60	-25.03	-45.52	-55.174	-3.822	79.478	-0.74780	0.54819	-0.34222	-0.15179	31.0	13111	100
2025-3-27 18:16:0.266	WT901BLE68-01(48591DE3C19B)	-0.470	-0.991	0.087	22.522	-28.442	-110.840	-69.35	-26.00	-45.65	-55.174	-3.822	79.478	-0.74780	0.54819	-0.34222	-0.15179	31.0	13111	100
2025-3-27 18:16:0.326	WT901BLE68-01(48591DE3C19B)	-0.402	-0.991	0.087	22.522	-28.442	-110.840	-69.18	-26.86	-45.71	-55.174	-3.822	79.478	-0.74780	0.54819	-0.34222	-0.15179	31.0	13111	100
2025-3-27 18:16:0.326	WT901BLE68-01(48591DE3C19B)	-0.402	-1.096	0.140	11.902	-24.231	-86.975	-69.08	-27.59	-45.75	-55.174	-3.822	79.478	-0.74780	0.54819	-0.34222	-0.15179	31.0	13111	100
2025-3-27 18:16:0.326	WT901BLE68-01(48591DE3C19B)	-0.384	-1.096	0.140	11.902	-24.231	-86.975	-69.03	-28.20	-45.76	-55.174	-3.822	79.478	-0.74780	0.54819	-0.34222	-0.15179	31.0	13111	100
2025-3-27 18:16:0.326	WT901BLE68-01(48591DE3C19B)	-0.384	-1.199	0.181	2.808	-2.686	-61.829	-69.00	-28.65	-45.85	-55.174	-3.822	79.478	-0.74780	0.54819	-0.34222	-0.15179	31.0	13111	100
2025-3-27 18:16:0.355	WT901BLE68-01(48591DE3C19B)	-0.415	-1.199	0.181	2.808	-2.686	-61.829	-68.98	-28.95	-45.99	-55.174	-3.822	79.478	-0.74780	0.54819	-0.34222	-0.15179	31.0	13111	100
2025-3-27 18:16:0.355	WT901BLE68-01(48591DE3C19B)	-0.415	-1.219	0.208	-3.296	29.907	-37.903	-68.93	-29.08	-46.26	-55.174	-3.822	79.478	-0.74780	0.54819	-0.34222	-0.15179	31.0	13111	100
2025-3-27 18:16:0.355	WT901BLE68-01(48591DE3C19B)	-0.450	-1.219	0.208	-3.296	29.907	-37.903	-68.84	-29.03	-46.66	-55.174	-3.822	79.478	-0.74780	0.54819	-0.34222	-0.15179	31.0	13111	100
2025-3-27 18:16:0.355	WT901BLE68-01(48591DE3C19B)	-0.450	-1.214	0.206	-15.015	58.960	-15.930	-68.76	-28.84	-47.17	-55.174	-3.822	79.478	-0.67581	0.58286	-0.03308	0.44983	31.0	13111	100
2025-3-27 18:16:0.385	WT901BLE68-01(48591DE3C19B)	-0.510	-1.214	0.206	-15.015	58.960	-15.930	-68.69	-28.49	-47.78	-55.174	-3.822	79.478	-0.67581	0.58286	-0.03308	0.44983	31.0	13111	100
2025-3-27 18:16:0.385	WT901BLE68-01(48591DE3C19B)	-0.510	-1.282	0.229	-28.198	75.195	5.798	-68.67	-28.02	-48.43	-55.174	-3.822	79.478	-0.67581	0.58286	-0.03308	0.44983	31.0	13111	100
2025-3-27 18:16:0.385	WT901BLE68-01(48591DE3C19B)	-0.605	-1.282	0.229	-28.198	75.195	5.798	-68.70	-27.41	-49.11	-55.174	-3.822	79.478	-0.67581	0.58286	-0.03308	0.44983	31.0	13111	100
2025-3-27 18:16:0.385	WT901BLE68-01(48591DE3C19B)	-0.605	-1.314	0.290	-37.048	68.542	27.588	-68.82	-26.72	-49.71	-55.174	-3.822	79.478	-0.67581	0.58286	-0.03308	0.44983	31.0	13111	100
2025-3-27 18:16:0.445	WT901BLE68-01(48591DE3C19B)	-0.693	-1.314	0.290	-37.048	68.542	27.588	-69.03	-25.94	-50.23	-55.174	-3.822	79.478	-0.67581	0.58286	-0.03308	0.44983	31.0	13111	100
2025-3-27 18:16:0.446	WT901BLE68-01(48591DE3C19B)	-0.693	-1.207	0.324	-43.945	38.330	48.462	-69.36	-25.13	-50.55	-55.174	-3.822	79.478	-0.67581	0.58286	-0.03308	0.44983	31.0	13111	100
2025-3-27 18:16:0.446	WT901BLE68-01(48591DE3C19B)	-0.747	-1.207	0.324	-43.945	38.330	48.462	-69.80	-24.27	-50.67	-55.174	-3.822	79.478	-0.67581	0.58286	-0.03308	0.44983	31.0	13111	100
2025-3-27 18:16:0.446	WT901BLE68-01(48591DE3C19B)	-0.747	-1.088	0.295	-52.917	-6.836	72.388	-70.40	-23.38	-50.53	-55.174	-3.822	79.478	-0.67581	0.58286	-0.03308	0.44983	31.0	13111	100
2025-3-27 18:16:0.475	WT901BLE68-01(48591DE3C19B)	-0.781	-1.088	0.295	-52.917	-6.836	72.388	-71.14	-22.45	-50.13	-55.174	-3.822	79.478	-0.67581	0.58286	-0.03308	0.44983	31.0	13111	100
2025-3-27 18:16:0.475	WT901BLE68-01(48591DE3C19B)	-0.781	-1.059	0.248	-58.777	-60.364	101.868	-72.00	-21.46	-49.41	-55.174	-3.822	79.478	-0.67581	0.58286	-0.03308	0.44983	31.0	13111	100
2025-3-27 18:16:0.475	WT901BLE68-01(48591DE3C19B)	-0.702	-1.059	0.248	-58.777	-60.364	101.868	-72.99	-20.40	-48.39	-55.174	-3.822	79.478	-0.67581	0.58286	-0.03308	0.44983	31.0	13111	100
2025-3-27 18:16:0.475	WT901BLE68-01(48591DE3C19B)	-0.702	-1.083	0.194	-61.523	-114.075	136.719	-74.06	-19.23	-47.08	-55.174	-3.822	79.478	-0.67581	0.58286	-0.03308	0.44983	31.0	13111	100
2025-3-27 18:16:0.505	WT901BLE68-01(48591DE3C19B)	-0.569	-1.083	0.194	-61.523	-114.075	136.719	-75.21	-17.95	-45.48	-55.174	-3.822	79.478	-0.67581	0.58286	-0.03308	0.44983	31.0	13111	100
2025-3-27 18:16:0.505	WT901BLE68-01(48591DE3C19B)	-0.569	-1.175	0.128	-59.631	-157.593	174.683	-76.38	-16.51	-43.66	-55.174	-3.822	79.478	-0.67581	0.58286	-0.03308	0.44983	31.0	13111	100
2025-3-27 18:16:0.505	WT901BLE68-01(48591DE3C19B)	-0.446	-1.175	0.128	-59.631	-157.593	174.683	-77.55	-14.91	-41.62	-55.174	-3.822	79.478	-0.67581	0.58286	-0.03308	0.44983	31.0	13111	100
2025-3-27 18:16:0.505	WT901BLE68-01(48591DE3C19B)	-0.446	-1.297	0.071	-51.331	-187.622	210.205	-78.65	-13.00	-39.26	-55.174	-3.822	79.478	-0.67581	0.58286	-0.03308	0.44983	31.0	13111	100
2025-3-27 18:16:0.565	WT901BLE68-01(48591DE3C19B)	-0.332	-1.297	0.071	-51.331	-187.622	210.205	-79.65	-11.06	-36.96	-55.174	-3.822	79.478	-0.67581	0.58286	-0.03308	0.44983	31.0	13111	100
2025-3-27 18:16:0.565	WT901BLE68-01(48591DE3C19B)	-0.332	-1.474	0.038	-38.513	-204.346	238.403	-80.46	-8.86	-34.51	-55.174	-3.822	79.478	-0.67581	0.58286	-0.03308	0.44983	31.0	13111	100
2025-3-27 18:16:0.565	WT901BLE68-01(48591DE3C19B)	-0.200	-1.474	0.038	-38.513	-204.346	238.403	-81.18	-6.65	-32.11	-55.174	-3.822	79.478	-0.67581	0.58286	-0.03308	0.44983	31.0	13111	100
2025-3-27 18:16:0.566	WT901BLE68-01(48591DE3C19B)	-0.200	-1.626	0.038	-17.273	-204.041	258.667	-81.59	-4.24	-29.72	-55.174	-3.822	79.478	-0.67581	0.58286	-0.03308	0.44983	31.0	13111	100
2025-3-27 18:16:0.596	WT901BLE68-01(48591DE3C19B)	-0.061	-1.626	0.038	-17.273	-204.041	258.667	-81.89	-1.83	-27.37	-62.720	-4.116	79.772	-0.67581	0.58286	-0.03308	0.44983	31.0	13111	100
2025-3-27 18:16:0.597	WT901BLE68-01(48591DE3C19B)	-0.061	-1.657	0.068	6.958	-181.519	271.362	-81.85	0.70	-25.24	-62.720	-4.116	79.772	-0.67581	0.58286	-0.03308	0.44983	31.0	13111	100
2025-3-27 18:16:0.597	WT901BLE68-01(48591DE3C19B)	0.014	-1.657	0.068	6.958	-181.519	271.362	-81.72	3.21	-23.12	-62.720	-4.116	79.772	-0.67581	0.58286	-0.03308	0.44983	31.0	13111	100
2025-3-27 18:16:0.597	WT901BLE68-01(48591DE3C19B)	0.014	-1.579	0.131	28.015	-143.066	278.870	-81.31	5.82	-21.36	-62.720	-4.116	79.772	-0.67581	0.58286	-0.03308	0.44983	31.0	13111	100
2025-3-27 18:16:0.625	WT901BLE68-01(48591DE3C19B)	0.013	-1.579	0.131	28.015	-143.066	278.870	-80.82	8.39	-19.57	-62.720	-4.116	79.772	-0.67581	0.58286	-0.03308	0.44983	31.0	13111	100
2025-3-27 18:16:0.625	WT901BLE68-01(48591DE3C19B)	0.013	-1.450	0.215	40.894	-95.947	280.334	-80.19	11.00	-18.23	-62.720	-4.116	79.772	-0.67581	0.58286	-0.03308	0.44983	31.0	13111	100
2025-3-27 18:16:0.625	WT901BLE68-01(48591DE3C19B)	-0.034	-1.450	0.215	40.894	-95.947	280.334	-79.50	13.58	-16.84	-62.720	-4.116	79.772	-0.67581	0.58286	-0.03308	0.44983	31.0	13111	100
2025-3-27 18:16:0.625	WT901BLE68-01(48591DE3C19B)	-0.034	-1.321	0.250	48.462	-48.523	278.015	-78.79	16.19	-15.90	-62.720	-4.116	79.772	-0.67581	0.58286	-0.03308	0.44983	31.0	13111	100
2025-3-27 18:16:0.685	WT901BLE68-01(48591DE3C19B)	-0.108	-1.321	0.250	48.462	-48.523	278.015	-78.01	18.77	-14.91	-62.720	-4.116	79.772	-0.67581	0.58286	-0.03308	0.44983	31.0	13111	100
2025-3-27 18:16:0.685	WT901BLE68-01(48591DE3C19B)	-0.108	-1.190	0.235	50.232	-5.371	276.184	-77.32	21.38	-14.32	-62.720	-4.116	79.772	-0.67581	0.58286	-0.03308	0.44983	31.0	13111	100
2025-3-27 18:16:0.685	WT901BLE68-01(48591DE3C19B)	-0.152	-1.190	0.235	50.232	-5.371	276.184	-76.59	23.98	-13.68	-62.720	-4.116	79.772	-0.67581	0.58286	-0.03308	0.44983	31.0	13111	100
2025-3-27 18:16:0.685	WT901BLE68-01(48591DE3C19B)	-0.152	-1.089	0.201	46.326	31.555	270.325	-76.02	26.58	-13.41	-62.720	-4.116	79.772	-0.67581	0.58286	-0.03308	0.44983	31.0	13111	100
2025-3-27 18:16:0.715	WT901BLE68-01(48591DE3C19B)	-0.213	-1.089	0.201	46.326	31.555	270.325	-75.43	29.16	-13.11	-62.720	-4.116	79.772	-0.67581	0.58286	-0.03308	0.44983	31.0	13111	100
2025-3-27 18:16:0.715	WT901BLE68-01(48591DE3C19B)	-0.213	-1.054	0.168	37.903	53.955	261.292	-75.03	31.70	-13.04	-62.720	-4.116	79.772	-0.67581	0.58286	-0.03308	0.44983	31.0	13111	100
2025-3-27 18:16:0.715	WT901BLE68-01(48591DE3C19B)	-0.281	-1.054	0.168	37.903	53.955	261.292	-74.61	34.21	-12.94	-62.720	-4.116	79.772	-0.67581	0.58286	-0.03308	0.44983	31.0	13111	100
2025-3-27 18:16:0.715	WT901BLE68-01(48591DE3C19B)	-0.281	-1.056	0.127	27.405	52.673	250.061	-74.30	36.61	-12.84	-62.720	-4.116	79.772	-0.67581	0.58286	-0.03308	0.44983	31.0	13111	100
2025-3-27 18:16:0.774	WT901BLE68-01(48591DE3C19B)	-0.318	-1.056	0.127	27.405	52.673	250.061	-73.96	38.99	-12.72	-62.720	-4.116	79.772	-0.67581	0.58286	-0.03308	0.44983	31.0	13111	100
2025-3-27 18:16:0.774	WT901BLE68-01(48591DE3C19B)	-0.318	-1.097	0.099	17.395	30.029	238.953	-73.55	41.19	-12.33	-62.720	-4.116	79.772	-0.67581	0.58286	-0.03308	0.44983	31.0	13111	100
2025-3-27 18:16:0.774	WT901BLE68-01(48591DE3C19B)	-0.338	-1.097	0.099	17.395	30.029	238.953	-73.11	43.39	-11.89	-62.720	-4.116	79.772	-0.67581	0.58286	-0.03308	0.44983	31.0	13111	100
2025-3-27 18:16:0.774	WT901BLE68-01(48591DE3C19B)	-0.338	-1.232	0.073	10.498	-4.150	224.670	-72.42	45.32	-11.02	-62.720	-4.116	79.772	-0.67581	0.58286	-0.03308	0.44983	31.0	13111	100
2025-3-27 18:16:0.804	WT901BLE68-01(48591DE3C19B)	-0.340	-1.232	0.073	10.498	-4.150	224.670	-71.67	47.25	-10.09	-62.720	-4.116	79.772	-0.67581	0.58286	-0.03308	0.44983	31.0	13111	100
2025-3-27 18:16:0.804	WT901BLE68-01(48591DE3C19B)	-0.340	-1.416	0.038	8.118	-39.246	208.191	-70.56	48.89	-8.66	-62.720	-4.116	79.772	-0.75903	0.49878	-0.37653	-0.18219	31.0	13111	100
2025-3-27 18:16:0.804	WT901BLE68-01(48591DE3C19B)	-0.240	-1.416	0.038	8.118	-39.246	208.191	-69.36	50.49	-7.14	-62.720	-4.116	79.772	-0.75903	0.49878	-0.37653	-0.18219	31.0	13111	100
2025-3-27 18:16:0.804	WT901BLE68-01(48591DE3C19B)	-0.240	-1.656	-0.018	10.559	-64.087	186.890	-67.85	51.78	-5.28	-62.720	-4.116	79.772	-0.75903	0.49878	-0.37653	-0.18219	31.0	13111	100
2025-3-27 18:16:0.834	WT901BLE68-01(48591DE3C19B)	-0.050	-1.656	-0.018	10.559	-64.087	186.890	-66.24	53.03	-3.32	-62.720	-4.116	79.772	-0.75903	0.49878	-0.37653	-0.18219	31.0	13111	100
2025-3-27 18:16:0.834	WT901BLE68-01(48591DE3C19B)	-0.050	-1.779	-0.073	22.400	-69.641	164.795	-64.48	54.00	-1.33	-62.720	-4.116	79.772	-0.75903	0.49878	-0.37653	-0.18219	31.0	13111	100
2025-3-27 18:16:0.834	WT901BLE68-01(48591DE3C19B)	0.118	-1.779	-0.073	22.400	-69.641	164.795	-62.64	54.94	0.73	-62.720	-4.116	79.772	-0.75903	0.49878	-0.37653	-0.18219	31.0	13111	100
2025-3-27 18:16:0.834	WT901BLE68-01(48591DE3C19B)	0.118	-1.759	-0.094	25.818	-53.406	130.798	-61.13	55.60	2.34	-62.720	-4.116	79.772	-0.75903	0.49878	-0.37653	-0.18219	31.0	13111	100
2025-3-27 18:16:0.894	WT901BLE68-01(48591DE3C19B)	0.165	-1.759	-0.094	25.818	-53.406	130.798	-59.58	56.22	4.00	-62.720	-4.116	79.772	-0.75903	0.49878	-0.37653	-0.18219	31.0	13111	100
2025-3-27 18:16:0.894	WT901BLE68-01(48591DE3C19B)	0.165	-1.850	-0.029	20.935	-27.710	91.125	-58.69	56.61	4.92	-62.720	-4.116	79.772	-0.75903	0.49878	-0.37653	-0.18219	31.0	13111	100
2025-3-27 18:16:0.894	WT901BLE68-01(48591DE3C19B)	0.042	-1.850	-0.029	20.935	-27.710	91.125	-57.78	56.99	5.86	-62.720	-4.116	79.772	-0.75903	0.49878	-0.37653	-0.18219	31.0	13111	100
2025-3-27 18:16:0.894	WT901BLE68-01(48591DE3C19B)	0.042	-1.854	0.141	18.372	-7.751	47.852	-57.51	57.08	6.07	-62.720	-4.116	79.772	-0.75903	0.49878	-0.37653	-0.18219	31.0	13111	100
2025-3-27 18:16:0.954	WT901BLE68-01(48591DE3C19B)	-0.110	-1.854	0.141	18.372	-7.751	47.852	-57.24	57.19	6.28	-62.720	-4.116	79.772	-0.75903	0.49878	-0.37653	-0.18219	31.0	13111	100
2025-3-27 18:16:0.955	WT901BLE68-01(48591DE3C19B)	-0.110	-1.698	0.227	21.484	12.512	10.742	-57.50	57.08	5.82	-62.720	-4.116	79.772	-0.75903	0.49878	-0.37653	-0.18219	31.0	13111	100
2025-3-27 18:16:0.955	WT901BLE68-01(48591DE3C19B)	-0.058	-1.698	0.227	21.484	12.512	10.742	-57.75	56.98	5.37	-62.720	-4.116	79.772	-0.75903	0.49878	-0.37653	-0.18219	31.0	13111	100
2025-3-27 18:16:0.955	WT901BLE68-01(48591DE3C19B)	-0.058	-1.384	0.204	22.949	32.898	-28.931	-58.56	56.63	4.23	-62.720	-4.116	79.772	-0.75903	0.49878	-0.37653	-0.18219	31.0	13111	100
2025-3-27 18:16:0.955	WT901BLE68-01(48591DE3C19B)	0.136	-1.384	0.204	22.949	32.898	-28.931	-59.33	56.29	3.11	-62.720	-4.116	79.772	-0.75903	0.49878	-0.37653	-0.18219	31.0	13111	100
2025-3-27 18:16:0.955	WT901BLE68-01(48591DE3C19B)	0.136	-1.176	0.169	17.639	49.927	-68.054	-60.64	55.67	1.42	-62.720	-4.116	79.772	-0.75903	0.49878	-0.37653	-0.18219	31.0	13111	100
2025-3-27 18:16:0.955	WT901BLE68-01(48591DE3C19B)	0.212	-1.176	0.169	17.639	49.927	-68.054	-61.88	55.04	-0.21	-62.720	-4.116	79.772	-0.75903	0.49878	-0.37653	-0.18219	31.0	13111	100
2025-3-27 18:16:0.955	WT901BLE68-01(48591DE3C19B)	0.089	-1.130	0.142	13.123	64.636	-104.187	-63.52	54.13	-2.29	-26.950	-9.408	76.734	-0.75903	0.49878	-0.37653	-0.18219	31.0	13111	100
2025-3-27 18:16:0.984	WT901BLE68-01(48591DE3C19B)	0.089	-1.099	0.150	13.000	73.242	-134.644	-65.19	53.06	-4.44	-26.950	-9.408	76.734	-0.75903	0.49878	-0.37653	-0.18219	31.0	13111	100
2025-3-27 18:16:0.984	WT901BLE68-01(48591DE3C19B)	-0.064	-1.099	0.150	13.000	73.242	-134.644	-66.87	51.84	-6.65	-26.950	-9.408	76.734	-0.75903	0.49878	-0.37653	-0.18219	31.0	13111	100
2025-3-27 18:16:0.984	WT901BLE68-01(48591DE3C19B)	-0.064	-1.085	0.169	13.245	67.078	-161.499	-68.44	50.46	-8.76	-26.950	-9.408	76.734	-0.75903	0.49878	-0.37653	-0.18219	31.0	13111	100
2025-3-27 18:16:0.984	WT901BLE68-01(48591DE3C19B)	-0.127	-1.085	0.169	13.245	67.078	-161.499	-69.90	48.91	-10.77	-26.950	-9.408	76.734	-0.75903	0.49878	-0.37653	-0.18219	31.0	13111	100
2025-3-27 18:16:1.45	WT901BLE68-01(48591DE3C19B)	-0.127	-1.106	0.194	23.376	61.890	-183.716	-71.18	47.23	-12.67	-26.950	-9.408	76.734	-0.75903	0.49878	-0.37653	-0.18219	31.0	13111	100
2025-3-27 18:16:1.45	WT901BLE68-01(48591DE3C19B)	-0.164	-1.106	0.194	23.376	61.890	-183.716	-72.29	45.42	-14.46	-26.950	-9.408	76.734	-0.75903	0.49878	-0.37653	-0.18219	31.0	13111	100
2025-3-27 18:16:1.45	WT901BLE68-01(48591DE3C19B)	-0.164	-1.057	0.185	30.579	54.871	-202.515	-73.23	43.51	-16.13	-26.950	-9.408	76.734	-0.75903	0.49878	-0.37653	-0.18219	31.0	13111	100
2025-3-27 18:16:1.45	WT901BLE68-01(48591DE3C19B)	-0.198	-1.057	0.185	30.579	54.871	-202.515	-74.03	41.48	-17.69	-26.950	-9.408	76.734	-0.75903	0.49878	-0.37653	-0.18219	31.0	13111	100
2025-3-27 18:16:1.75	WT901BLE68-01(48591DE3C19B)	-0.198	-1.021	0.147	31.555	41.382	-218.872	-74.67	39.36	-19.11	-26.950	-9.408	76.734	-0.75903	0.49878	-0.37653	-0.18219	31.0	13111	100
2025-3-27 18:16:1.75	WT901BLE68-01(48591DE3C19B)	-0.210	-1.021	0.147	31.555	41.382	-218.872	-75.18	37.16	-20.39	-26.950	-9.408	76.734	-0.75903	0.49878	-0.37653	-0.18219	31.0	13111	100
2025-3-27 18:16:1.75	WT901BLE68-01(48591DE3C19B)	-0.210	-1.022	0.115	31.250	26.672	-234.924	-75.59	34.86	-21.54	-26.950	-9.408	76.734	-0.75903	0.49878	-0.37653	-0.18219	31.0	13111	100
2025-3-27 18:16:1.75	WT901BLE68-01(48591DE3C19B)	-0.206	-1.022	0.115	31.250	26.672	-234.924	-75.89	32.48	-22.59	-26.950	-9.408	76.734	-0.75903	0.49878	-0.37653	-0.18219	31.0	13111	100
2025-3-27 18:16:1.105	WT901BLE68-01(48591DE3C19B)	-0.206	-1.053	0.098	27.710	16.724	-253.052	-76.14	30.01	-23.55	-26.950	-9.408	76.734	-0.75903	0.49878	-0.37653	-0.18219	31.0	13111	100
2025-3-27 18:16:1.105	WT901BLE68-01(48591DE3C19B)	-0.192	-1.053	0.098	27.710	16.724	-253.052	-76.33	27.47	-24.45	-26.950	-9.408	76.734	-0.75903	0.49878	-0.37653	-0.18219	31.0	13111	100
2025-3-27 18:16:1.105	WT901BLE68-01(48591DE3C19B)	-0.192	-1.121	0.116	22.949	20.569	-275.146	-76.51	24.82	-25.37	-26.950	-9.408	76.734	-0.75903	0.49878	-0.37653	-0.18219	31.0	13111	100
2025-3-27 18:16:1.105	WT901BLE68-01(48591DE3C19B)	-0.220	-1.121	0.116	22.949	20.569	-275.146	-76.69	22.10	-26.30	-26.950	-9.408	76.734	-0.75903	0.49878	-0.37653	-0.18219	31.0	13111	100
2025-3-27 18:16:1.165	WT901BLE68-01(48591DE3C19B)	-0.220	-1.188	0.148	18.738	37.415	-297.180	-76.88	19.30	-27.32	-26.950	-9.408	76.734	-0.75903	0.49878	-0.37653	-0.18219	31.0	13111	100
2025-3-27 18:16:1.165	WT901BLE68-01(48591DE3C19B)	-0.307	-1.188	0.148	18.738	37.415	-297.180	-77.06	16.43	-28.43	-26.950	-9.408	76.734	-0.75903	0.49878	-0.37653	-0.18219	31.0	13111	100
2025-3-27 18:16:1.165	WT901BLE68-01(48591DE3C19B)	-0.307	-1.278	0.193	16.235	54.749	-315.430	-77.23	13.51	-29.61	-26.950	-9.408	76.734	-0.75903	0.49878	-0.37653	-0.18219	31.0	13111	100
2025-3-27 18:16:1.165	WT901BLE68-01(48591DE3C19B)	-0.427	-1.278	0.193	16.235	54.749	-315.430	-77.37	10.54	-30.87	-26.950	-9.408	76.734	-0.75903	0.49878	-0.37653	-0.18219	31.0	13111	100
2025-3-27 18:16:1.196	WT901BLE68-01(48591DE3C19B)	-0.427	-1.359	0.252	19.836	65.613	-326.721	-77.42	7.54	-32.18	-26.950	-9.408	76.734	-0.75946	0.58536	-0.22223	0.17627	31.0	13111	100
2025-3-27 18:16:1.196	WT901BLE68-01(48591DE3C19B)	-0.564	-1.359	0.252	19.836	65.613	-326.721	-77.39	4.52	-33.54	-26.950	-9.408	76.734	-0.75946	0.58536	-0.22223	0.17627	31.0	13111	100
2025-3-27 18:16:1.196	WT901BLE68-01(48591DE3C19B)	-0.564	-1.367	0.284	27.100	69.824	-326.721	-77.26	1.53	-34.91	-26.950	-9.408	76.734	-0.75946	0.58536	-0.22223	0.17627	31.0	13111	100
2025-3-27 18:16:1.196	WT901BLE68-01(48591DE3C19B)	-0.671	-1.367	0.284	27.100	69.824	-326.721	-77.02	-1.42	-36.31	-26.950	-9.408	76.734	-0.75946	0.58536	-0.22223	0.17627	31.0	13111	100
2025-3-27 18:16:1.225	WT901BLE68-01(48591DE3C19B)	-0.671	-1.312	0.258	33.447	60.425	-317.139	-76.68	-4.31	-37.66	-26.950	-9.408	76.734	-0.75946	0.58536	-0.22223	0.17627	31.0	13111	100
2025-3-27 18:16:1.226	WT901BLE68-01(48591DE3C19B)	-0.637	-1.312	0.258	33.447	60.425	-317.139	-76.24	-7.12	-38.98	-26.950	-9.408	76.734	-0.75946	0.58536	-0.22223	0.17627	31.0	13111	100
2025-3-27 18:16:1.226	WT901BLE68-01(48591DE3C19B)	-0.637	-1.210	0.197	35.400	42.542	-296.326	-75.75	-9.82	-40.21	-26.950	-9.408	76.734	-0.75946	0.58536	-0.22223	0.17627	31.0	13111	100
2025-3-27 18:16:1.226	WT901BLE68-01(48591DE3C19B)	-0.551	-1.210	0.197	35.400	42.542	-296.326	-75.20	-12.41	-41.36	-26.950	-9.408	76.734	-0.75946	0.58536	-0.22223	0.17627	31.0	13111	100
2025-3-27 18:16:1.285	WT901BLE68-01(48591DE3C19B)	-0.551	-1.116	0.184	32.166	22.278	-270.142	-74.65	-14.87	-42.40	-26.950	-9.408	76.734	-0.75946	0.58536	-0.22223	0.17627	31.0	13111	100
2025-3-27 18:16:1.285	WT901BLE68-01(48591DE3C19B)	-0.519	-1.116	0.184	32.166	22.278	-270.142	-74.11	-17.20	-43.34	-26.950	-9.408	76.734	-0.75946	0.58536	-0.22223	0.17627	31.0	13111	100
2025-3-27 18:16:1.285	WT901BLE68-01(48591DE3C19B)	-0.519	-1.010	0.236	26.733	0.610	-237.976	-73.60	-19.39	-44.15	-26.950	-9.408	76.734	-0.75946	0.58536	-0.22223	0.17627	31.0	13111	100
2025-3-27 18:16:1.285	WT901BLE68-01(48591DE3C19B)	-0.468	-1.010	0.236	26.733	0.610	-237.976	-73.14	-21.42	-44.84	-26.950	-9.408	76.734	-0.75946	0.58536	-0.22223	0.17627	31.0	13111	100
2025-3-27 18:16:1.314	WT901BLE68-01(48591DE3C19B)	-0.468	-1.046	0.333	13.916	-12.756	-207.642	-72.75	-23.32	-45.43	-26.950	-9.408	76.734	-0.75946	0.58536	-0.22223	0.17627	31.0	13111	100
2025-3-27 18:16:1.314	WT901BLE68-01(48591DE3C19B)	-0.455	-1.046	0.333	13.916	-12.756	-207.642	-72.44	-25.08	-45.92	-26.950	-9.408	76.734	-0.75946	0.58536	-0.22223	0.17627	31.0	13111	100
2025-3-27 18:16:1.315	WT901BLE68-01(48591DE3C19B)	-0.455	-1.237	0.396	9.949	-1.648	-170.715	-72.13	-26.63	-46.43	-26.950	-9.408	76.734	-0.75946	0.58536	-0.22223	0.17627	31.0	13111	100
2025-3-27 18:16:1.315	WT901BLE68-01(48591DE3C19B)	-0.499	-1.237	0.396	9.949	-1.648	-170.715	-71.82	-27.97	-46.96	-26.950	-9.408	76.734	-0.75946	0.58536	-0.22223	0.17627	31.0	13111	100
2025-3-27 18:16:1.345	WT901BLE68-01(48591DE3C19B)	-0.499	-1.313	0.352	12.878	38.818	-136.597	-71.41	-29.09	-47.65	-26.950	-9.408	76.734	-0.75946	0.58536	-0.22223	0.17627	31.0	13111	100
2025-3-27 18:16:1.345	WT901BLE68-01(48591DE3C19B)	-0.545	-1.313	0.352	12.878	38.818	-136.597	-70.88	-29.96	-48.52	-26.950	-9.408	76.734	-0.75946	0.58536	-0.22223	0.17627	31.0	13111	100
2025-3-27 18:16:1.345	WT901BLE68-01(48591DE3C19B)	-0.545	-1.356	0.261	13.916	89.539	-98.450	-70.23	-30.56	-49.60	-26.950	-9.408	76.734	-0.75946	0.58536	-0.22223	0.17627	31.0	13111	100
2025-3-27 18:16:1.345	WT901BLE68-01(48591DE3C19B)	-0.640	-1.356	0.261	13.916	89.539	-98.450	-69.46	-30.88	-50.90	-26.950	-9.408	76.734	-0.75946	0.58536	-0.22223	0.17627	31.0	13111	100
2025-3-27 18:16:1.405	WT901BLE68-01(48591DE3C19B)	-0.640	-1.409	0.174	12.939	132.324	-62.744	-68.62	-30.94	-52.36	-26.950	-9.408	76.734	-0.75946	0.58536	-0.22223	0.17627	31.0	13111	100
2025-3-27 18:16:1.405	WT901BLE68-01(48591DE3C19B)	-0.711	-1.409	0.174	12.939	132.324	-62.744	-67.71	-30.73	-53.96	-81.340	-3.626	73.892	-0.75946	0.58536	-0.22223	0.17627	31.0	13111	100
2025-3-27 18:16:1.405	WT901BLE68-01(48591DE3C19B)	-0.711	-1.366	0.163	8.667	153.564	-27.527	-66.84	-30.31	-55.59	-81.340	-3.626	73.892	-0.75946	0.58536	-0.22223	0.17627	31.0	13111	100
2025-3-27 18:16:1.405	WT901BLE68-01(48591DE3C19B)	-0.768	-1.366	0.163	8.667	153.564	-27.527	-66.00	-29.65	-57.22	-81.340	-3.626	73.892	-0.75946	0.58536	-0.22223	0.17627	31.0	13111	100
2025-3-27 18:16:1.435	WT901BLE68-01(48591DE3C19B)	-0.768	-1.359	0.233	-6.897	138.672	6.592	-65.35	-28.86	-58.66	-81.340	-3.626	73.892	-0.75946	0.58536	-0.22223	0.17627	31.0	13111	100
2025-3-27 18:16:1.435	WT901BLE68-01(48591DE3C19B)	-0.770	-1.359	0.233	-6.897	138.672	6.592	-64.90	-27.92	-59.92	-81.340	-3.626	73.892	-0.75946	0.58536	-0.22223	0.17627	31.0	13111	100
2025-3-27 18:16:1.435	WT901BLE68-01(48591DE3C19B)	-0.770	-1.356	0.294	-22.217	103.577	35.522	-64.66	-26.93	-60.91	-81.340	-3.626	73.892	-0.75946	0.58536	-0.22223	0.17627	31.0	13111	100
2025-3-27 18:16:1.435	WT901BLE68-01(48591DE3C19B)	-0.757	-1.356	0.294	-22.217	103.577	35.522	-64.63	-25.89	-61.64	-81.340	-3.626	73.892	-0.75946	0.58536	-0.22223	0.17627	31.0	13111	100
2025-3-27 18:16:1.494	WT901BLE68-01(48591DE3C19B)	-0.757	-1.179	0.300	-33.691	69.153	58.228	-64.92	-24.79	-61.92	-81.340	-3.626	73.892	-0.75946	0.58536	-0.22223	0.17627	31.0	13111	100
2025-3-27 18:16:1.495	WT901BLE68-01(48591DE3C19B)	-0.806	-1.179	0.300	-33.691	69.153	58.228	-65.22	-23.70	-62.20	-81.340	-3.626	73.892	-0.75946	0.58536	-0.22223	0.17627	31.0	13111	100
2025-3-27 18:16:1.495	WT901BLE68-01(48591DE3C19B)	-0.806	-1.006	0.253	-49.561	20.325	81.055	-65.91	-22.60	-61.90	-81.340	-3.626	73.892	-0.75946	0.58536	-0.22223	0.17627	31.0	13111	100
2025-3-27 18:16:1.495	WT901BLE68-01(48591DE3C19B)	-0.879	-1.006	0.253	-49.561	20.325	81.055	-66.58	-21.50	-61.62	-81.340	-3.626	73.892	-0.75946	0.58536	-0.22223	0.17627	31.0	13111	100
2025-3-27 18:16:1.525	WT901BLE68-01(48591DE3C19B)	-0.879	-0.931	0.201	-62.439	-54.626	104.736	-67.66	-20.47	-60.52	-81.340	-3.626	73.892	-0.75946	0.58536	-0.22223	0.17627	31.0	13111	100
2025-3-27 18:16:1.525	WT901BLE68-01(48591DE3C19B)	-0.814	-0.931	0.201	-62.439	-54.626	104.736	-68.71	-19.42	-59.44	-81.340	-3.626	73.892	-0.75946	0.58536	-0.22223	0.17627	31.0	13111	100
2025-3-27 18:16:1.525	WT901BLE68-01(48591DE3C19B)	-0.814	-0.938	0.120	-74.402	-136.841	131.958	-70.15	-18.38	-57.49	-81.340	-3.626	73.892	-0.75946	0.58536	-0.22223	0.17627	31.0	13111	100
2025-3-27 18:16:1.525	WT901BLE68-01(48591DE3C19B)	-0.626	-0.938	0.120	-74.402	-136.841	131.958	-71.53	-17.30	-55.58	-81.340	-3.626	73.892	-0.75946	0.58536	-0.22223	0.17627	31.0	13111	100
2025-3-27 18:16:1.555	WT901BLE68-01(48591DE3C19B)	-0.626	-1.104	0.042	-79.346	-194.275	164.307	-73.10	-16.05	-53.05	-81.340	-3.626	73.892	-0.75946	0.58536	-0.22223	0.17627	31.0	13111	100
2025-3-27 18:16:1.555	WT901BLE68-01(48591DE3C19B)	-0.458	-1.104	0.042	-79.346	-194.275	164.307	-74.59	-14.74	-50.57	-81.340	-3.626	73.892	-0.75946	0.58536	-0.22223	0.17627	31.0	13111	100
2025-3-27 18:16:1.555	WT901BLE68-01(48591DE3C19B)	-0.458	-1.323	-0.032	-71.045	-224.060	195.190	-76.01	-13.16	-47.78	-81.340	-3.626	73.892	-0.75946	0.58536	-0.22223	0.17627	31.0	13111	100
2025-3-27 18:16:1.555	WT901BLE68-01(48591DE3C19B)	-0.318	-1.323	-0.032	-71.045	-224.060	195.190	-77.34	-11.54	-45.05	-81.340	-3.626	73.892	-0.75946	0.58536	-0.22223	0.17627	31.0	13111	100
2025-3-27 18:16:1.615	WT901BLE68-01(48591DE3C19B)	-0.318	-1.523	-0.067	-54.810	-233.215	222.534	-78.44	-9.62	-42.25	-81.340	-3.626	73.892	-0.75946	0.58536	-0.22223	0.17627	31.0	13111	100
2025-3-27 18:16:1.615	WT901BLE68-01(48591DE3C19B)	-0.176	-1.523	-0.067	-54.810	-233.215	222.534	-79.44	-7.68	-39.51	-81.340	-3.626	73.892	-0.71182	0.61932	-0.16785	0.28546	31.0	13111	100
2025-3-27 18:16:1.615	WT901BLE68-01(48591DE3C19B)	-0.176	-1.589	-0.012	-30.090	-220.581	245.544	-80.07	-5.48	-36.90	-81.340	-3.626	73.892	-0.71182	0.61932	-0.16785	0.28546	31.0	13111	100
2025-3-27 18:16:1.616	WT901BLE68-01(48591DE3C19B)	-0.133	-1.589	-0.012	-30.090	-220.581	245.544	-80.59	-3.27	-34.34	-81.340	-3.626	73.892	-0.71182	0.61932	-0.16785	0.28546	31.0	13111	100
2025-3-27 18:16:1.647	WT901BLE68-01(48591DE3C19B)	-0.133	-1.531	0.083	-6.714	-188.477	262.573	-80.77	-0.85	-32.11	-81.340	-3.626	73.892	-0.71182	0.61932	-0.16785	0.28546	31.0	13111	100
2025-3-27 18:16:1.648	WT901BLE68-01(48591DE3C19B)	-0.154	-1.531	0.083	-6.714	-188.477	262.573	-80.84	1.54	-29.88	-81.340	-3.626	73.892	-0.71182	0.61932	-0.16785	0.28546	31.0	13111	100
2025-3-27 18:16:1.648	WT901BLE68-01(48591DE3C19B)	-0.154	-1.484	0.136	10.498	-144.775	272.644	-80.67	4.09	-28.08	-81.340	-3.626	73.892	-0.71182	0.61932	-0.16785	0.28546	31.0	13111	100
2025-3-27 18:16:1.648	WT901BLE68-01(48591DE3C19B)	-0.155	-1.484	0.136	10.498	-144.775	272.644	-80.41	6.61	-26.27	-81.340	-3.626	73.892	-0.71182	0.61932	-0.16785	0.28546	31.0	13111	100
2025-3-27 18:16:1.675	WT901BLE68-01(48591DE3C19B)	-0.155	-1.429	0.185	26.489	-97.900	281.006	-79.97	9.26	-24.89	-81.340	-3.626	73.892	-0.71182	0.61932	-0.16785	0.28546	31.0	13111	100
2025-3-27 18:16:1.675	WT901BLE68-01(48591DE3C19B)	-0.149	-1.429	0.185	26.489	-97.900	281.006	-79.47	11.87	-23.48	-81.340	-3.626	73.892	-0.71182	0.61932	-0.16785	0.28546	31.0	13111	100
2025-3-27 18:16:1.675	WT901BLE68-01(48591DE3C19B)	-0.149	-1.361	0.211	38.269	-50.964	288.574	-78.88	14.61	-22.50	-81.340	-3.626	73.892	-0.71182	0.61932	-0.16785	0.28546	31.0	13111	100
2025-3-27 18:16:1.675	WT901BLE68-01(48591DE3C19B)	-0.127	-1.361	0.211	38.269	-50.964	288.574	-78.23	17.32	-21.48	-81.340	-3.626	73.892	-0.71182	0.61932	-0.16785	0.28546	31.0	13111	100
2025-3-27 18:16:1.735	WT901BLE68-01(48591DE3C19B)	-0.127	-1.298	0.180	45.166	-6.287	295.532	-77.60	20.16	-20.85	-81.340	-3.626	73.892	-0.71182	0.61932	-0.16785	0.28546	31.0	13111	100
2025-3-27 18:16:1.735	WT901BLE68-01(48591DE3C19B)	-0.166	-1.298	0.180	45.166	-6.287	295.532	-76.92	22.97	-20.18	-81.340	-3.626	73.892	-0.71182	0.61932	-0.16785	0.28546	31.0	13111	100
2025-3-27 18:16:1.736	WT901BLE68-01(48591DE3C19B)	-0.166	-1.207	0.148	46.936	21.484	300.110	-76.28	25.86	-19.74	-81.340	-3.626	73.892	-0.71182	0.61932	-0.16785	0.28546	31.0	13111	100
2025-3-27 18:16:1.736	WT901BLE68-01(48591DE3C19B)	-0.200	-1.207	0.148	46.936	21.484	300.110	-75.61	28.73	-19.26	-81.340	-3.626	73.892	-0.71182	0.61932	-0.16785	0.28546	31.0	13111	100
2025-3-27 18:16:1.765	WT901BLE68-01(48591DE3C19B)	-0.200	-1.128	0.154	44.861	32.898	298.340	-74.98	31.59	-18.85	-81.340	-3.626	73.892	-0.71182	0.61932	-0.16785	0.28546	31.0	13111	100
2025-3-27 18:16:1.765	WT901BLE68-01(48591DE3C19B)	-0.234	-1.128	0.154	44.861	32.898	298.340	-74.30	34.42	-18.39	-81.340	-3.626	73.892	-0.71182	0.61932	-0.16785	0.28546	31.0	13111	100
2025-3-27 18:16:1.765	WT901BLE68-01(48591DE3C19B)	-0.234	-1.075	0.152	40.527	32.349	289.734	-73.63	37.14	-17.89	-81.340	-3.626	73.892	-0.71182	0.61932	-0.16785	0.28546	31.0	13111	100
2025-3-27 18:16:1.766	WT901BLE68-01(48591DE3C19B)	-0.272	-1.075	0.152	40.527	32.349	289.734	-72.91	39.85	-17.33	-43.120	7.056	73.794	-0.71182	0.61932	-0.16785	0.28546	31.0	13111	100
2025-3-27 18:16:1.796	WT901BLE68-01(48591DE3C19B)	-0.272	-1.077	0.148	34.119	21.423	278.687	-72.11	42.40	-16.60	-43.120	7.056	73.794	-0.71182	0.61932	-0.16785	0.28546	31.0	13111	100
2025-3-27 18:16:1.796	WT901BLE68-01(48591DE3C19B)	-0.290	-1.077	0.148	34.119	21.423	278.687	-71.25	44.93	-15.79	-43.120	7.056	73.794	-0.71182	0.61932	-0.16785	0.28546	31.0	13111	100
2025-3-27 18:16:1.796	WT901BLE68-01(48591DE3C19B)	-0.290	-1.222	0.138	25.146	3.723	260.071	-70.26	47.20	-14.72	-43.120	7.056	73.794	-0.71182	0.61932	-0.16785	0.28546	31.0	13111	100
2025-3-27 18:16:1.796	WT901BLE68-01(48591DE3C19B)	-0.300	-1.222	0.138	25.146	3.723	260.071	-69.18	49.44	-13.55	-43.120	7.056	73.794	-0.71182	0.61932	-0.16785	0.28546	31.0	13111	100
2025-3-27 18:16:1.856	WT901BLE68-01(48591DE3C19B)	-0.300	-1.395	0.136	24.109	-13.184	235.535	-67.91	51.37	-12.15	-43.120	7.056	73.794	-0.71182	0.61932	-0.16785	0.28546	31.0	13111	100
2025-3-27 18:16:1.856	WT901BLE68-01(48591DE3C19B)	-0.292	-1.395	0.136	24.109	-13.184	235.535	-66.51	53.26	-10.62	-43.120	7.056	73.794	-0.71182	0.61932	-0.16785	0.28546	31.0	13111	100
2025-3-27 18:16:1.856	WT901BLE68-01(48591DE3C19B)	-0.292	-1.647	0.090	18.433	-23.987	203.918	-65.07	54.78	-8.99	-43.120	7.056	73.794	-0.71182	0.61932	-0.16785	0.28546	31.0	13111	100
2025-3-27 18:16:1.856	WT901BLE68-01(48591DE3C19B)	-0.191	-1.647	0.090	18.433	-23.987	203.918	-63.51	56.27	-7.25	-43.120	7.056	73.794	-0.71182	0.61932	-0.16785	0.28546	31.0	13111	100
2025-3-27 18:16:1.885	WT901BLE68-01(48591DE3C19B)	-0.191	-1.899	0.019	20.020	-20.081	164.673	-62.14	57.39	-5.76	-43.120	7.056	73.794	-0.71182	0.61932	-0.16785	0.28546	31.0	13111	100
2025-3-27 18:16:1.885	WT901BLE68-01(48591DE3C19B)	-0.062	-1.899	0.019	20.020	-20.081	164.673	-60.68	58.49	-4.18	-43.120	7.056	73.794	-0.71182	0.61932	-0.16785	0.28546	31.0	13111	100
2025-3-27 18:16:1.885	WT901BLE68-01(48591DE3C19B)	-0.062	-1.861	0.011	23.315	-7.446	126.404	-59.62	59.28	-3.10	-43.120	7.056	73.794	-0.71182	0.61932	-0.16785	0.28546	31.0	13111	100
2025-3-27 18:16:1.885	WT901BLE68-01(48591DE3C19B)	-0.017	-1.861	0.011	23.315	-7.446	126.404	-58.50	60.06	-1.97	-43.120	7.056	73.794	-0.71182	0.61932	-0.16785	0.28546	31.0	13111	100
2025-3-27 18:16:1.915	WT901BLE68-01(48591DE3C19B)	-0.050	-1.853	0.069	11.719	11.658	83.191	-58.15	60.55	-1.58	-43.120	7.056	73.794	-0.71182	0.61932	-0.16785	0.28546	31.0	13111	100
2025-3-27 18:16:1.915	WT901BLE68-01(48591DE3C19B)	-0.050	-1.756	0.213	6.714	16.174	37.231	-58.06	60.85	-1.46	-43.120	7.056	73.794	-0.71182	0.61932	-0.16785	0.28546	31.0	13111	100
2025-3-27 18:16:1.915	WT901BLE68-01(48591DE3C19B)	-0.103	-1.756	0.213	6.714	16.174	37.231	-58.24	60.96	-1.63	-43.120	7.056	73.794	-0.71182	0.61932	-0.16785	0.28546	31.0	13111	100
2025-3-27 18:16:1.915	WT901BLE68-01(48591DE3C19B)	-0.103	-1.527	0.338	3.845	6.409	-2.502	-58.55	60.87	-1.91	-43.120	7.056	73.794	-0.71182	0.61932	-0.16785	0.28546	31.0	13111	100
2025-3-27 18:16:2.5	WT901BLE68-01(48591DE3C19B)	-0.071	-1.527	0.338	3.845	6.409	-2.502	-58.96	60.59	-2.31	-43.120	7.056	73.794	-0.71182	0.61932	-0.16785	0.28546	31.0	13111	100
2025-3-27 18:16:2.5	WT901BLE68-01(48591DE3C19B)	-0.071	-1.357	0.288	4.456	6.226	-41.565	-59.52	60.13	-2.89	-43.120	7.056	73.794	-0.71182	0.61932	-0.16785	0.28546	31.0	13111	100
2025-3-27 18:16:2.5	WT901BLE68-01(48591DE3C19B)	-0.007	-1.357	0.288	4.456	6.226	-41.565	-60.22	59.51	-3.64	-43.120	7.056	73.794	-0.71182	0.61932	-0.16785	0.28546	31.0	13111	100
2025-3-27 18:16:2.5	WT901BLE68-01(48591DE3C19B)	-0.007	-1.202	0.214	5.310	17.151	-78.369	-61.10	58.74	-4.62	-43.120	7.056	73.794	-0.71182	0.61932	-0.16785	0.28546	31.0	13111	100
2025-3-27 18:16:2.6	WT901BLE68-01(48591DE3C19B)	-0.053	-1.202	0.214	5.310	17.151	-78.369	-62.14	57.84	-5.80	-43.120	7.056	73.794	-0.76202	0.43246	-0.43484	-0.20755	31.0	13111	100
2025-3-27 18:16:2.6	WT901BLE68-01(48591DE3C19B)	-0.053	-1.090	0.208	5.066	22.095	-114.502	-63.28	56.78	-7.10	-43.120	7.056	73.794	-0.76202	0.43246	-0.43484	-0.20755	31.0	13111	100
2025-3-27 18:16:2.6	WT901BLE68-01(48591DE3C19B)	-0.100	-1.090	0.208	5.066	22.095	-114.502	-64.47	55.56	-8.50	-43.120	7.056	73.794	-0.76202	0.43246	-0.43484	-0.20755	31.0	13111	100
2025-3-27 18:16:2.6	WT901BLE68-01(48591DE3C19B)	-0.100	-1.070	0.279	11.902	17.761	-149.109	-65.60	54.16	-9.90	-43.120	7.056	73.794	-0.76202	0.43246	-0.43484	-0.20755	31.0	13111	100
2025-3-27 18:16:2.95	WT901BLE68-01(48591DE3C19B)	-0.138	-1.070	0.279	11.902	17.761	-149.109	-66.67	52.59	-11.28	-43.120	7.056	73.794	-0.76202	0.43246	-0.43484	-0.20755	31.0	13111	100
2025-3-27 18:16:2.95	WT901BLE68-01(48591DE3C19B)	-0.138	-1.081	0.289	25.024	9.460	-179.260	-67.58	50.86	-12.59	-43.120	7.056	73.794	-0.76202	0.43246	-0.43484	-0.20755	31.0	13111	100
2025-3-27 18:16:2.95	WT901BLE68-01(48591DE3C19B)	-0.103	-1.081	0.289	25.024	9.460	-179.260	-68.35	48.97	-13.83	-43.120	7.056	73.794	-0.76202	0.43246	-0.43484	-0.20755	31.0	13111	100
2025-3-27 18:16:2.95	WT901BLE68-01(48591DE3C19B)	-0.103	-1.055	0.216	32.471	9.094	-205.933	-69.03	46.96	-15.06	-43.120	7.056	73.794	-0.76202	0.43246	-0.43484	-0.20755	31.0	13111	100
2025-3-27 18:16:2.96	WT901BLE68-01(48591DE3C19B)	-0.086	-1.055	0.216	32.471	9.094	-205.933	-69.63	44.83	-16.27	-43.120	7.056	73.794	-0.76202	0.43246	-0.43484	-0.20755	31.0	13111	100
2025-3-27 18:16:2.96	WT901BLE68-01(48591DE3C19B)	-0.086	-1.046	0.145	35.217	20.264	-229.431	-70.22	42.61	-17.53	-43.120	7.056	73.794	-0.76202	0.43246	-0.43484	-0.20755	31.0	13111	100
2025-3-27 18:16:2.96	WT901BLE68-01(48591DE3C19B)	-0.132	-1.046	0.145	35.217	20.264	-229.431	-70.78	40.30	-18.84	-43.120	7.056	73.794	-0.76202	0.43246	-0.43484	-0.20755	31.0	13111	100
2025-3-27 18:16:2.96	WT901BLE68-01(48591DE3C19B)	-0.132	-1.061	0.114	34.546	28.503	-251.099	-71.33	37.91	-20.17	-43.120	7.056	73.794	-0.76202	0.43246	-0.43484	-0.20755	31.0	13111	100
2025-3-27 18:16:2.156	WT901BLE68-01(48591DE3C19B)	-0.183	-1.061	0.114	34.546	28.503	-251.099	-71.84	35.44	-21.51	-43.120	7.056	73.794	-0.76202	0.43246	-0.43484	-0.20755	31.0	13111	100
2025-3-27 18:16:2.156	WT901BLE68-01(48591DE3C19B)	-0.183	-1.080	0.167	33.630	30.396	-269.348	-72.30	32.89	-22.84	-43.120	7.056	73.794	-0.76202	0.43246	-0.43484	-0.20755	31.0	13111	100
2025-3-27 18:16:2.157	WT901BLE68-01(48591DE3C19B)	-0.231	-1.080	0.167	33.630	30.396	-269.348	-72.69	30.26	-24.14	-43.120	7.056	73.794	-0.76202	0.43246	-0.43484	-0.20755	31.0	13111	100
2025-3-27 18:16:2.157	WT901BLE68-01(48591DE3C19B)	-0.231	-1.148	0.229	28.564	38.513	-284.424	-73.06	27.58	-25.47	-43.120	7.056	73.794	-0.76202	0.43246	-0.43484	-0.20755	31.0	13111	100
2025-3-27 18:16:2.157	WT901BLE68-01(48591DE3C19B)	-0.293	-1.148	0.229	28.564	38.513	-284.424	-73.42	24.86	-26.80	-43.120	7.056	73.794	-0.76202	0.43246	-0.43484	-0.20755	31.0	13111	100
2025-3-27 18:16:2.157	WT901BLE68-01(48591DE3C19B)	-0.293	-1.249	0.253	25.635	51.270	-295.654	-73.73	22.10	-28.17	-43.120	7.056	73.794	-0.76202	0.43246	-0.43484	-0.20755	31.0	13111	100
2025-3-27 18:16:2.157	WT901BLE68-01(48591DE3C19B)	-0.364	-1.249	0.253	25.635	51.270	-295.654	-74.01	19.34	-29.59	-43.120	7.056	73.794	-0.76202	0.43246	-0.43484	-0.20755	31.0	13111	100
2025-3-27 18:16:2.157	WT901BLE68-01(48591DE3C19B)	-0.364	-1.308	0.275	24.170	57.190	-304.321	-74.23	16.55	-31.00	-43.120	7.056	73.794	-0.76202	0.43246	-0.43484	-0.20755	31.0	13111	100
2025-3-27 18:16:2.215	WT901BLE68-01(48591DE3C19B)	-0.390	-1.308	0.275	24.170	57.190	-304.321	-74.40	13.74	-32.43	-43.120	7.056	73.794	-0.76202	0.43246	-0.43484	-0.20755	31.0	13111	100
2025-3-27 18:16:2.215	WT901BLE68-01(48591DE3C19B)	-0.390	-1.339	0.300	20.508	61.768	-311.462	-74.51	10.92	-33.86	-50.274	12.936	70.462	-0.76202	0.43246	-0.43484	-0.20755	31.0	13111	100
2025-3-27 18:16:2.215	WT901BLE68-01(48591DE3C19B)	-0.428	-1.339	0.300	20.508	61.768	-311.462	-74.58	8.09	-35.30	-50.274	12.936	70.462	-0.76202	0.43246	-0.43484	-0.20755	31.0	13111	100
2025-3-27 18:16:2.216	WT901BLE68-01(48591DE3C19B)	-0.428	-1.342	0.329	21.118	68.115	-312.622	-74.56	5.29	-36.77	-50.274	12.936	70.462	-0.76202	0.43246	-0.43484	-0.20755	31.0	13111	100
2025-3-27 18:16:2.275	WT901BLE68-01(48591DE3C19B)	-0.498	-1.342	0.329	21.118	68.115	-312.622	-74.48	2.51	-38.26	-50.274	12.936	70.462	-0.76202	0.43246	-0.43484	-0.20755	31.0	13111	100
2025-3-27 18:16:2.275	WT901BLE68-01(48591DE3C19B)	-0.498	-1.300	0.339	24.841	67.139	-309.021	-74.31	-0.23	-39.74	-50.274	12.936	70.462	-0.76202	0.43246	-0.43484	-0.20755	31.0	13111	100
2025-3-27 18:16:2.275	WT901BLE68-01(48591DE3C19B)	-0.542	-1.300	0.339	24.841	67.139	-309.021	-74.04	-2.92	-41.22	-50.274	12.936	70.462	-0.76202	0.43246	-0.43484	-0.20755	31.0	13111	100
2025-3-27 18:16:2.275	WT901BLE68-01(48591DE3C19B)	-0.542	-1.230	0.317	29.297	56.641	-301.880	-73.69	-5.57	-42.65	-50.274	12.936	70.462	-0.76202	0.43246	-0.43484	-0.20755	31.0	13111	100
2025-3-27 18:16:2.276	WT901BLE68-01(48591DE3C19B)	-0.587	-1.230	0.317	29.297	56.641	-301.880	-73.26	-8.17	-44.04	-50.274	12.936	70.462	-0.76202	0.43246	-0.43484	-0.20755	31.0	13111	100
2025-3-27 18:16:2.276	WT901BLE68-01(48591DE3C19B)	-0.587	-1.188	0.280	32.288	39.978	-285.828	-72.76	-10.68	-45.36	-50.274	12.936	70.462	-0.76202	0.43246	-0.43484	-0.20755	31.0	13111	100
2025-3-27 18:16:2.276	WT901BLE68-01(48591DE3C19B)	-0.595	-1.188	0.280	32.288	39.978	-285.828	-72.21	-13.12	-46.60	-50.274	12.936	70.462	-0.76202	0.43246	-0.43484	-0.20755	31.0	13111	100
2025-3-27 18:16:2.276	WT901BLE68-01(48591DE3C19B)	-0.595	-1.127	0.211	36.316	19.836	-265.320	-71.62	-15.45	-47.74	-50.274	12.936	70.462	-0.76202	0.43246	-0.43484	-0.20755	31.0	13111	100
2025-3-27 18:16:2.335	WT901BLE68-01(48591DE3C19B)	-0.560	-1.127	0.211	36.316	19.836	-265.320	-70.99	-17.69	-48.79	-50.274	12.936	70.462	-0.76202	0.43246	-0.43484	-0.20755	31.0	13111	100
2025-3-27 18:16:2.335	WT901BLE68-01(48591DE3C19B)	-0.560	-1.064	0.157	34.668	1.953	-239.990	-70.38	-19.81	-49.74	-50.274	12.936	70.462	-0.76202	0.43246	-0.43484	-0.20755	31.0	13111	100
2025-3-27 18:16:2.335	WT901BLE68-01(48591DE3C19B)	-0.528	-1.064	0.157	34.668	1.953	-239.990	-69.77	-21.82	-50.58	-50.274	12.936	70.462	-0.76202	0.43246	-0.43484	-0.20755	31.0	13111	100
2025-3-27 18:16:2.336	WT901BLE68-01(48591DE3C19B)	-0.528	-1.034	0.154	30.273	-9.949	-211.548	-69.21	-23.69	-51.34	-50.274	12.936	70.462	-0.76202	0.43246	-0.43484	-0.20755	31.0	13111	100
2025-3-27 18:16:2.366	WT901BLE68-01(48591DE3C19B)	-0.513	-1.034	0.154	30.273	-9.949	-211.548	-68.68	-25.44	-52.01	-50.274	12.936	70.462	-0.76202	0.43246	-0.43484	-0.20755	31.0	13111	100
2025-3-27 18:16:2.366	WT901BLE68-01(48591DE3C19B)	-0.513	-1.074	0.193	23.560	-15.930	-182.007	-68.20	-27.04	-52.62	-50.274	12.936	70.462	-0.76202	0.43246	-0.43484	-0.20755	31.0	13111	100
2025-3-27 18:16:2.366	WT901BLE68-01(48591DE3C19B)	-0.531	-1.074	0.193	23.560	-15.930	-182.007	-67.77	-28.49	-53.15	-50.274	12.936	70.462	-0.76202	0.43246	-0.43484	-0.20755	31.0	13111	100
2025-3-27 18:16:2.366	WT901BLE68-01(48591DE3C19B)	-0.531	-1.162	0.226	16.541	-17.212	-151.794	-67.47	-29.67	-53.55	-50.274	12.936	70.462	-0.76202	0.43246	-0.43484	-0.20755	31.0	13111	100
2025-3-27 18:16:2.395	WT901BLE68-01(48591DE3C19B)	-0.526	-1.162	0.226	16.541	-17.212	-151.794	-67.16	-30.83	-53.96	-50.274	12.936	70.462	-0.76202	0.43246	-0.43484	-0.20755	31.0	13111	100
2025-3-27 18:16:2.395	WT901BLE68-01(48591DE3C19B)	-0.526	-1.208	0.264	11.963	-1.953	-120.117	-66.87	-31.64	-54.41	-50.274	12.936	70.462	-0.76202	0.43246	-0.43484	-0.20755	31.0	13111	100
2025-3-27 18:16:2.395	WT901BLE68-01(48591DE3C19B)	-0.555	-1.208	0.264	11.963	-1.953	-120.117	-66.57	-32.44	-54.86	-50.274	12.936	70.462	-0.64175	0.57529	-0.03549	0.50580	31.0	13111	100
2025-3-27 18:16:2.395	WT901BLE68-01(48591DE3C19B)	-0.555	-1.224	0.280	5.371	30.090	-84.656	-66.24	-32.78	-55.50	-50.274	12.936	70.462	-0.64175	0.57529	-0.03549	0.50580	31.0	13111	100
2025-3-27 18:16:2.455	WT901BLE68-01(48591DE3C19B)	-0.593	-1.224	0.280	5.371	30.090	-84.656	-65.90	-33.12	-56.14	-50.274	12.936	70.462	-0.64175	0.57529	-0.03549	0.50580	31.0	13111	100
2025-3-27 18:16:2.455	WT901BLE68-01(48591DE3C19B)	-0.593	-1.222	0.287	-3.601	60.730	-49.622	-65.56	-33.00	-56.94	-50.274	12.936	70.462	-0.64175	0.57529	-0.03549	0.50580	31.0	13111	100
2025-3-27 18:16:2.455	WT901BLE68-01(48591DE3C19B)	-0.604	-1.222	0.287	-3.601	60.730	-49.622	-65.21	-32.89	-57.74	-50.274	12.936	70.462	-0.64175	0.57529	-0.03549	0.50580	31.0	13111	100
2025-3-27 18:16:2.455	WT901BLE68-01(48591DE3C19B)	-0.604	-1.253	0.325	-16.235	75.439	-14.709	-65.02	-32.39	-58.52	-50.274	12.936	70.462	-0.64175	0.57529	-0.03549	0.50580	31.0	13111	100
2025-3-27 18:16:2.484	WT901BLE68-01(48591DE3C19B)	-0.655	-1.253	0.325	-16.235	75.439	-14.709	-64.84	-31.89	-59.29	-50.274	12.936	70.462	-0.64175	0.57529	-0.03549	0.50580	31.0	13111	100
2025-3-27 18:16:2.484	WT901BLE68-01(48591DE3C19B)	-0.655	-1.274	0.390	-25.452	69.824	19.043	-64.87	-31.11	-59.82	-50.274	12.936	70.462	-0.64175	0.57529	-0.03549	0.50580	31.0	13111	100
2025-3-27 18:16:2.484	WT901BLE68-01(48591DE3C19B)	-0.732	-1.274	0.390	-25.452	69.824	19.043	-64.92	-30.33	-60.35	-50.274	12.936	70.462	-0.64175	0.57529	-0.03549	0.50580	31.0	13111	100
2025-3-27 18:16:2.484	WT901BLE68-01(48591DE3C19B)	-0.732	-1.156	0.417	-31.250	42.908	49.377	-65.24	-29.40	-60.45	-50.274	12.936	70.462	-0.64175	0.57529	-0.03549	0.50580	31.0	13111	100
2025-3-27 18:16:2.514	WT901BLE68-01(48591DE3C19B)	-0.776	-1.156	0.417	-31.250	42.908	49.377	-65.55	-28.47	-60.55	-50.274	12.936	70.462	-0.64175	0.57529	-0.03549	0.50580	31.0	13111	100
2025-3-27 18:16:2.514	WT901BLE68-01(48591DE3C19B)	-0.776	-0.994	0.371	-41.077	-0.488	78.735	-66.23	-27.44	-60.08	-50.274	12.936	70.462	-0.64175	0.57529	-0.03549	0.50580	31.0	13111	100
2025-3-27 18:16:2.515	WT901BLE68-01(48591DE3C19B)	-0.778	-0.994	0.371	-41.077	-0.488	78.735	-66.89	-26.42	-59.62	-50.274	12.936	70.462	-0.64175	0.57529	-0.03549	0.50580	31.0	13111	100
2025-3-27 18:16:2.515	WT901BLE68-01(48591DE3C19B)	-0.778	-0.966	0.300	-50.659	-52.002	111.511	-67.91	-25.29	-58.52	-50.274	12.936	70.462	-0.64175	0.57529	-0.03549	0.50580	31.0	13111	100
