time	DeviceName	AccX(g)	AccY(g)	AccZ(g)	AsX(°/s)	AsY(°/s)	AsZ(°/s)	AngleX(°)	AngleY(°)	AngleZ(°)	HX(uT)	HY(uT)	HZ(uT)	Q0()	Q1()	Q2()	Q3()	Temperature(°C)	Version()	Battery level(%)
2025-3-27 18:47:3.585	WT901BLE68-01(48591DE3C19B)	-0.318	-0.935	0.292	-3.967	-17.090	-10.376	-73.73	15.52	-40.80	-68.208	-28.420	69.482	-0.77090	0.51730	-0.31262	0.20068	30.9	13111	100
2025-3-27 18:47:3.586	WT901BLE68-01(48591DE3C19B)	-0.318	-0.927	0.295	-4.395	-23.254	-10.254	-73.73	15.38	-40.63	-68.208	-28.420	69.482	-0.77090	0.51730	-0.31262	0.20068	30.9	13111	100
2025-3-27 18:47:3.586	WT901BLE68-01(48591DE3C19B)	-0.304	-0.927	0.295	-4.395	-23.254	-10.254	-73.71	15.23	-40.42	-68.208	-28.420	69.482	-0.77090	0.51730	-0.31262	0.20068	30.9	13111	100
2025-3-27 18:47:3.586	WT901BLE68-01(48591DE3C19B)	-0.304	-0.915	0.294	-5.066	-28.381	-10.254	-73.70	15.07	-40.20	-68.208	-28.420	69.482	-0.77090	0.51730	-0.31262	0.20068	30.9	13111	100
2025-3-27 18:47:3.613	WT901BLE68-01(48591DE3C19B)	-0.289	-0.915	0.294	-5.066	-28.381	-10.254	-73.67	14.91	-39.95	-68.208	-28.420	69.482	-0.77090	0.51730	-0.31262	0.20068	30.9	13111	100
2025-3-27 18:47:3.613	WT901BLE68-01(48591DE3C19B)	-0.289	-0.918	0.286	-5.798	-30.884	-10.071	-73.66	14.74	-39.69	-68.208	-28.420	69.482	-0.77090	0.51730	-0.31262	0.20068	30.9	13111	100
2025-3-27 18:47:3.613	WT901BLE68-01(48591DE3C19B)	-0.285	-0.918	0.286	-5.798	-30.884	-10.071	-73.64	14.58	-39.42	-68.208	-28.420	69.482	-0.77090	0.51730	-0.31262	0.20068	30.9	13111	100
2025-3-27 18:47:3.613	WT901BLE68-01(48591DE3C19B)	-0.285	-0.929	0.280	-6.226	-33.203	-9.216	-73.62	14.41	-39.13	-68.208	-28.420	69.482	-0.77090	0.51730	-0.31262	0.20068	30.9	13111	100
2025-3-27 18:47:3.674	WT901BLE68-01(48591DE3C19B)	-0.281	-0.929	0.280	-6.226	-33.203	-9.216	-73.60	14.24	-38.84	-68.208	-28.420	69.482	-0.77090	0.51730	-0.31262	0.20068	30.9	13111	100
2025-3-27 18:47:3.675	WT901BLE68-01(48591DE3C19B)	-0.281	-0.939	0.282	-7.202	-36.804	-7.263	-73.59	14.08	-38.53	-68.208	-28.420	69.482	-0.77090	0.51730	-0.31262	0.20068	30.9	13111	100
2025-3-27 18:47:3.675	WT901BLE68-01(48591DE3C19B)	-0.287	-0.939	0.282	-7.202	-36.804	-7.263	-73.57	13.93	-38.19	-68.208	-28.420	69.482	-0.77090	0.51730	-0.31262	0.20068	30.9	13111	100
2025-3-27 18:47:3.675	WT901BLE68-01(48591DE3C19B)	-0.287	-0.938	0.277	-7.813	-40.344	-4.700	-73.55	13.78	-37.84	-68.208	-28.420	69.482	-0.77090	0.51730	-0.31262	0.20068	30.9	13111	100
2025-3-27 18:47:3.705	WT901BLE68-01(48591DE3C19B)	-0.282	-0.938	0.277	-7.813	-40.344	-4.700	-73.54	13.64	-37.47	-68.208	-28.420	69.482	-0.77090	0.51730	-0.31262	0.20068	30.9	13111	100
2025-3-27 18:47:3.705	WT901BLE68-01(48591DE3C19B)	-0.282	-0.947	0.268	-9.827	-45.959	-0.854	-73.53	13.51	-37.07	-68.208	-28.420	69.482	-0.77090	0.51730	-0.31262	0.20068	30.9	13111	100
2025-3-27 18:47:3.705	WT901BLE68-01(48591DE3C19B)	-0.262	-0.947	0.268	-9.827	-45.959	-0.854	-73.52	13.39	-36.64	-68.208	-28.420	69.482	-0.77090	0.51730	-0.31262	0.20068	30.9	13111	100
2025-3-27 18:47:3.706	WT901BLE68-01(48591DE3C19B)	-0.262	-0.976	0.268	-10.803	-49.988	3.540	-73.50	13.29	-36.18	-64.680	-30.576	69.678	-0.77090	0.51730	-0.31262	0.20068	30.9	13111	100
2025-3-27 18:47:3.736	WT901BLE68-01(48591DE3C19B)	-0.227	-0.976	0.268	-10.803	-49.988	3.540	-73.50	13.20	-35.71	-64.680	-30.576	69.678	-0.77090	0.51730	-0.31262	0.20068	30.9	13111	100
2025-3-27 18:47:3.737	WT901BLE68-01(48591DE3C19B)	-0.227	-0.995	0.250	-11.963	-51.697	7.507	-73.49	13.13	-35.21	-64.680	-30.576	69.678	-0.77090	0.51730	-0.31262	0.20068	30.9	13111	100
2025-3-27 18:47:3.737	WT901BLE68-01(48591DE3C19B)	-0.121	-0.995	0.250	-11.963	-51.697	7.507	-73.49	13.07	-34.71	-64.680	-30.576	69.678	-0.77090	0.51730	-0.31262	0.20068	30.9	13111	100
2025-3-27 18:47:3.737	WT901BLE68-01(48591DE3C19B)	-0.121	-1.004	0.217	-13.000	-49.011	8.728	-73.52	13.02	-34.23	-64.680	-30.576	69.678	-0.77090	0.51730	-0.31262	0.20068	30.9	13111	100
2025-3-27 18:47:3.794	WT901BLE68-01(48591DE3C19B)	-0.040	-1.004	0.217	-13.000	-49.011	8.728	-73.54	12.98	-33.76	-64.680	-30.576	69.678	-0.77090	0.51730	-0.31262	0.20068	30.9	13111	100
2025-3-27 18:47:3.794	WT901BLE68-01(48591DE3C19B)	-0.040	-0.996	0.218	-14.709	-38.879	8.179	-73.60	12.95	-33.40	-64.680	-30.576	69.678	-0.77090	0.51730	-0.31262	0.20068	30.9	13111	100
2025-3-27 18:47:3.794	WT901BLE68-01(48591DE3C19B)	0.084	-0.996	0.218	-14.709	-38.879	8.179	-73.66	12.91	-33.04	-64.680	-30.576	69.678	-0.77090	0.51730	-0.31262	0.20068	30.9	13111	100
2025-3-27 18:47:3.795	WT901BLE68-01(48591DE3C19B)	0.084	-1.009	0.217	-16.663	-18.921	1.404	-73.80	12.86	-32.90	-64.680	-30.576	69.678	-0.77090	0.51730	-0.31262	0.20068	30.9	13111	100
2025-3-27 18:47:3.822	WT901BLE68-01(48591DE3C19B)	0.213	-1.009	0.217	-16.663	-18.921	1.404	-73.93	12.80	-32.77	-64.680	-30.576	69.678	-0.77090	0.51730	-0.31262	0.20068	30.9	13111	100
2025-3-27 18:47:3.823	WT901BLE68-01(48591DE3C19B)	0.213	-0.979	0.211	-12.512	13.489	-7.751	-74.11	12.73	-32.99	-64.680	-30.576	69.678	-0.77090	0.51730	-0.31262	0.20068	30.9	13111	100
2025-3-27 18:47:3.823	WT901BLE68-01(48591DE3C19B)	0.271	-0.979	0.211	-12.512	13.489	-7.751	-74.28	12.65	-33.21	-64.680	-30.576	69.678	-0.77090	0.51730	-0.31262	0.20068	30.9	13111	100
2025-3-27 18:47:3.823	WT901BLE68-01(48591DE3C19B)	0.271	-0.950	0.195	-7.263	52.002	-16.113	-74.49	12.58	-33.83	-64.680	-30.576	69.678	-0.77090	0.51730	-0.31262	0.20068	30.9	13111	100
2025-3-27 18:47:3.854	WT901BLE68-01(48591DE3C19B)	0.269	-0.950	0.195	-7.263	52.002	-16.113	-74.70	12.50	-34.46	-64.680	-30.576	69.678	-0.77090	0.51730	-0.31262	0.20068	30.9	13111	100
2025-3-27 18:47:3.854	WT901BLE68-01(48591DE3C19B)	0.269	-0.943	0.157	-0.732	91.309	-27.832	-74.94	12.40	-35.50	-64.680	-30.576	69.678	-0.77090	0.51730	-0.31262	0.20068	30.9	13111	100
2025-3-27 18:47:3.854	WT901BLE68-01(48591DE3C19B)	0.236	-0.943	0.157	-0.732	91.309	-27.832	-75.18	12.28	-36.55	-64.680	-30.576	69.678	-0.77090	0.51730	-0.31262	0.20068	30.9	13111	100
2025-3-27 18:47:3.854	WT901BLE68-01(48591DE3C19B)	0.236	-0.966	0.112	3.662	130.005	-41.382	-75.46	12.12	-38.00	-64.680	-30.576	69.678	-0.77090	0.51730	-0.31262	0.20068	30.9	13111	100
2025-3-27 18:47:3.914	WT901BLE68-01(48591DE3C19B)	0.130	-0.966	0.112	3.662	130.005	-41.382	-75.73	11.95	-39.45	-64.680	-30.576	69.678	-0.77090	0.51730	-0.31262	0.20068	30.9	13111	100
2025-3-27 18:47:3.914	WT901BLE68-01(48591DE3C19B)	0.130	-1.043	0.089	3.906	156.067	-57.068	-76.07	11.68	-41.18	-64.680	-30.576	69.678	-0.77090	0.51730	-0.31262	0.20068	30.9	13111	100
2025-3-27 18:47:3.914	WT901BLE68-01(48591DE3C19B)	-0.062	-1.043	0.089	3.906	156.067	-57.068	-76.39	11.40	-42.90	-64.680	-30.576	69.678	-0.77090	0.51730	-0.31262	0.20068	30.9	13111	100
2025-3-27 18:47:3.914	WT901BLE68-01(48591DE3C19B)	-0.062	-1.206	0.102	2.197	155.518	-74.341	-76.73	10.95	-44.64	-64.680	-30.576	69.678	-0.77090	0.51730	-0.31262	0.20068	30.9	13111	100
2025-3-27 18:47:3.945	WT901BLE68-01(48591DE3C19B)	-0.313	-1.206	0.102	2.197	155.518	-74.341	-77.05	10.50	-46.37	-64.680	-30.576	69.678	-0.73853	0.54193	-0.31000	0.25433	30.9	13111	100
2025-3-27 18:47:3.945	WT901BLE68-01(48591DE3C19B)	-0.313	-1.341	0.166	7.080	122.437	-91.553	-77.25	9.81	-47.80	-64.680	-30.576	69.678	-0.73853	0.54193	-0.31000	0.25433	30.9	13111	100
2025-3-27 18:47:3.946	WT901BLE68-01(48591DE3C19B)	-1.027	-1.341	0.166	7.080	122.437	-91.553	-77.44	9.13	-49.20	-64.680	-30.576	69.678	-0.73853	0.54193	-0.31000	0.25433	30.9	13111	100
2025-3-27 18:47:3.946	WT901BLE68-01(48591DE3C19B)	-4.110	-2.676	0.477	13.672	58.716	-106.201	-77.44	8.19	-50.00	-64.680	-30.576	69.678	-0.73853	0.54193	-0.31000	0.25433	30.9	13111	100
2025-3-27 18:47:4.4	WT901BLE68-01(48591DE3C19B)	-0.520	-10.704	1.907	13.672	58.716	-106.201	-77.44	7.29	-50.77	-64.680	-30.576	69.678	-0.73853	0.54193	-0.31000	0.25433	30.9	13111	100
2025-3-27 18:47:4.4	WT901BLE68-01(48591DE3C19B)	-0.520	-1.196	0.286	12.451	-14.709	-116.516	-77.34	6.15	-50.84	-64.680	-30.576	69.678	-0.73853	0.54193	-0.31000	0.25433	30.9	13111	100
2025-3-27 18:47:4.4	WT901BLE68-01(48591DE3C19B)	-0.464	-1.196	0.286	12.451	-14.709	-116.516	-77.25	5.03	-50.92	-64.680	-30.576	69.678	-0.73853	0.54193	-0.31000	0.25433	30.9	13111	100
2025-3-27 18:47:4.4	WT901BLE68-01(48591DE3C19B)	-0.464	-1.050	0.301	6.531	-74.280	-119.995	-77.17	3.75	-50.41	-64.680	-30.576	69.678	-0.73853	0.54193	-0.31000	0.25433	30.9	13111	100
2025-3-27 18:47:4.33	WT901BLE68-01(48591DE3C19B)	-0.419	-1.050	0.301	6.531	-74.280	-119.995	-77.10	2.48	-49.91	-64.680	-30.576	69.678	-0.73853	0.54193	-0.31000	0.25433	30.9	13111	100
2025-3-27 18:47:4.33	WT901BLE68-01(48591DE3C19B)	-0.419	-0.924	0.294	-3.357	-120.361	-118.225	-77.12	1.14	-48.96	-64.680	-30.576	69.678	-0.73853	0.54193	-0.31000	0.25433	30.9	13111	100
2025-3-27 18:47:4.33	WT901BLE68-01(48591DE3C19B)	-0.334	-0.924	0.294	-3.357	-120.361	-118.225	-77.16	-0.18	-48.02	-64.680	-30.576	69.678	-0.73853	0.54193	-0.31000	0.25433	30.9	13111	100
2025-3-27 18:47:4.33	WT901BLE68-01(48591DE3C19B)	-0.334	-0.847	0.308	-16.174	-151.428	-113.403	-77.35	-1.52	-46.76	-64.680	-30.576	69.678	-0.73853	0.54193	-0.31000	0.25433	30.9	13111	100
2025-3-27 18:47:4.64	WT901BLE68-01(48591DE3C19B)	-0.218	-0.847	0.308	-16.174	-151.428	-113.403	-77.56	-2.85	-45.50	-64.680	-30.576	69.678	-0.73853	0.54193	-0.31000	0.25433	30.9	13111	100
2025-3-27 18:47:4.64	WT901BLE68-01(48591DE3C19B)	-0.218	-0.832	0.332	-27.283	-156.189	-108.032	-77.92	-4.11	-44.19	-64.680	-30.576	69.678	-0.73853	0.54193	-0.31000	0.25433	30.9	13111	100
2025-3-27 18:47:4.64	WT901BLE68-01(48591DE3C19B)	-0.133	-0.832	0.332	-27.283	-156.189	-108.032	-78.29	-5.37	-42.86	-64.680	-30.576	69.678	-0.73853	0.54193	-0.31000	0.25433	30.9	13111	100
2025-3-27 18:47:4.64	WT901BLE68-01(48591DE3C19B)	-0.133	-0.868	0.363	-33.875	-133.972	-104.309	-78.72	-6.53	-41.75	-64.680	-30.576	69.678	-0.73853	0.54193	-0.31000	0.25433	30.9	13111	100
2025-3-27 18:47:4.124	WT901BLE68-01(48591DE3C19B)	-0.117	-0.868	0.363	-33.875	-133.972	-104.309	-79.18	-7.67	-40.64	-64.680	-30.576	69.678	-0.73853	0.54193	-0.31000	0.25433	30.9	13111	100
2025-3-27 18:47:4.124	WT901BLE68-01(48591DE3C19B)	-0.117	-0.933	0.377	-37.537	-101.257	-101.135	-79.64	-8.72	-39.84	-64.680	-30.576	69.678	-0.73853	0.54193	-0.31000	0.25433	30.9	13111	100
2025-3-27 18:47:4.124	WT901BLE68-01(48591DE3C19B)	-0.134	-0.933	0.377	-37.537	-101.257	-101.135	-80.11	-9.76	-39.03	-64.680	-30.576	69.678	-0.73853	0.54193	-0.31000	0.25433	30.9	13111	100
2025-3-27 18:47:4.124	WT901BLE68-01(48591DE3C19B)	-0.134	-1.007	0.394	-36.926	-66.528	-99.609	-80.52	-10.71	-38.56	-64.680	-30.576	69.678	-0.73853	0.54193	-0.31000	0.25433	30.9	13111	100
2025-3-27 18:47:4.152	WT901BLE68-01(48591DE3C19B)	-0.190	-1.007	0.394	-36.926	-66.528	-99.609	-80.94	-11.66	-38.10	-62.916	-35.672	68.012	-0.73853	0.54193	-0.31000	0.25433	30.9	13111	100
2025-3-27 18:47:4.152	WT901BLE68-01(48591DE3C19B)	-0.190	-1.044	0.423	-31.799	-38.147	-97.107	-81.24	-12.53	-37.90	-62.916	-35.672	68.012	-0.73853	0.54193	-0.31000	0.25433	30.9	13111	100
2025-3-27 18:47:4.153	WT901BLE68-01(48591DE3C19B)	-0.242	-1.044	0.423	-31.799	-38.147	-97.107	-81.55	-13.40	-37.71	-62.916	-35.672	68.012	-0.73853	0.54193	-0.31000	0.25433	30.9	13111	100
2025-3-27 18:47:4.153	WT901BLE68-01(48591DE3C19B)	-0.242	-1.062	0.445	-26.733	-20.447	-92.773	-81.77	-14.19	-37.68	-62.916	-35.672	68.012	-0.73853	0.54193	-0.31000	0.25433	30.9	13111	100
2025-3-27 18:47:4.183	WT901BLE68-01(48591DE3C19B)	-0.238	-1.062	0.445	-26.733	-20.447	-92.773	-81.98	-14.99	-37.65	-62.916	-35.672	68.012	-0.73853	0.54193	-0.31000	0.25433	30.9	13111	100
2025-3-27 18:47:4.183	WT901BLE68-01(48591DE3C19B)	-0.238	-1.071	0.386	-22.095	-11.536	-86.548	-82.12	-15.70	-37.71	-62.916	-35.672	68.012	-0.73853	0.54193	-0.31000	0.25433	30.9	13111	100
2025-3-27 18:47:4.183	WT901BLE68-01(48591DE3C19B)	-0.248	-1.071	0.386	-22.095	-11.536	-86.548	-82.27	-16.41	-37.75	-62.916	-35.672	68.012	-0.73853	0.54193	-0.31000	0.25433	30.9	13111	100
2025-3-27 18:47:4.183	WT901BLE68-01(48591DE3C19B)	-0.323	-1.055	0.365	-16.296	-4.944	-75.500	-82.34	-17.00	-37.85	-62.916	-35.672	68.012	-0.73853	0.54193	-0.31000	0.25433	30.9	13111	100
2025-3-27 18:47:4.244	WT901BLE68-01(48591DE3C19B)	-0.323	-1.044	0.400	-8.545	5.188	-64.453	-82.35	-17.52	-38.00	-62.916	-35.672	68.012	-0.73853	0.54193	-0.31000	0.25433	30.9	13111	100
2025-3-27 18:47:4.244	WT901BLE68-01(48591DE3C19B)	-0.385	-1.044	0.400	-8.545	5.188	-64.453	-82.32	-17.97	-38.18	-62.916	-35.672	68.012	-0.73853	0.54193	-0.31000	0.25433	30.9	13111	100
2025-3-27 18:47:4.244	WT901BLE68-01(48591DE3C19B)	-0.385	-1.002	0.436	-4.395	9.888	-50.476	-82.25	-18.35	-38.39	-62.916	-35.672	68.012	-0.73853	0.54193	-0.31000	0.25433	30.9	13111	100
2025-3-27 18:47:4.244	WT901BLE68-01(48591DE3C19B)	-0.400	-1.002	0.436	-4.395	9.888	-50.476	-82.16	-18.65	-38.59	-62.916	-35.672	68.012	-0.73853	0.54193	-0.31000	0.25433	30.9	13111	100
2025-3-27 18:47:4.303	WT901BLE68-01(48591DE3C19B)	-0.400	-0.981	0.472	-5.188	10.742	-35.278	-82.07	-18.86	-38.80	-62.916	-35.672	68.012	-0.73853	0.54193	-0.31000	0.25433	30.9	13111	100
2025-3-27 18:47:4.304	WT901BLE68-01(48591DE3C19B)	-0.424	-0.981	0.472	-5.188	10.742	-35.278	-81.99	-19.00	-39.00	-62.916	-35.672	68.012	-0.73853	0.54193	-0.31000	0.25433	30.9	13111	100
2025-3-27 18:47:4.304	WT901BLE68-01(48591DE3C19B)	-0.424	-1.018	0.511	-6.042	5.981	-19.409	-81.91	-19.06	-39.16	-62.916	-35.672	68.012	-0.73853	0.54193	-0.31000	0.25433	30.9	13111	100
2025-3-27 18:47:4.304	WT901BLE68-01(48591DE3C19B)	-0.455	-1.018	0.511	-6.042	5.981	-19.409	-81.85	-19.04	-39.28	-62.916	-35.672	68.012	-0.73853	0.54193	-0.31000	0.25433	30.9	13111	100
2025-3-27 18:47:4.305	WT901BLE68-01(48591DE3C19B)	-0.455	-1.141	0.540	-5.981	-7.874	-2.014	-81.83	-18.94	-39.31	-62.916	-35.672	68.012	-0.73853	0.54193	-0.31000	0.25433	30.9	13111	100
2025-3-27 18:47:4.305	WT901BLE68-01(48591DE3C19B)	-0.515	-1.141	0.540	-5.981	-7.874	-2.014	-81.82	-18.76	-39.25	-62.916	-35.672	68.012	-0.73853	0.54193	-0.31000	0.25433	30.9	13111	100
2025-3-27 18:47:4.305	WT901BLE68-01(48591DE3C19B)	-0.515	-1.271	0.544	0.366	-27.405	16.235	-81.82	-18.51	-39.08	-62.916	-35.672	68.012	-0.73853	0.54193	-0.31000	0.25433	30.9	13111	100
2025-3-27 18:47:4.305	WT901BLE68-01(48591DE3C19B)	-0.509	-1.271	0.544	0.366	-27.405	16.235	-81.82	-18.18	-38.80	-62.916	-35.672	68.012	-0.73853	0.54193	-0.31000	0.25433	30.9	13111	100
2025-3-27 18:47:4.363	WT901BLE68-01(48591DE3C19B)	-0.509	-1.349	0.440	11.414	-40.161	37.476	-81.79	-17.75	-38.43	-62.916	-35.672	68.012	-0.73853	0.54193	-0.31000	0.25433	30.9	13111	100
2025-3-27 18:47:4.363	WT901BLE68-01(48591DE3C19B)	-0.455	-1.349	0.440	11.414	-40.161	37.476	-81.74	-17.23	-37.97	-62.916	-35.672	68.012	-0.67661	0.64825	-0.10373	0.33331	30.9	13111	100
2025-3-27 18:47:4.363	WT901BLE68-01(48591DE3C19B)	-0.455	-1.199	0.279	24.841	-46.814	65.979	-81.63	-16.57	-37.46	-62.916	-35.672	68.012	-0.67661	0.64825	-0.10373	0.33331	30.9	13111	100
2025-3-27 18:47:4.363	WT901BLE68-01(48591DE3C19B)	-0.414	-1.199	0.279	24.841	-46.814	65.979	-81.47	-15.78	-36.90	-62.916	-35.672	68.012	-0.67661	0.64825	-0.10373	0.33331	30.9	13111	100
2025-3-27 18:47:4.394	WT901BLE68-01(48591DE3C19B)	-0.414	-1.031	0.161	30.090	-58.533	101.379	-81.30	-14.83	-36.23	-62.916	-35.672	68.012	-0.67661	0.64825	-0.10373	0.33331	30.9	13111	100
2025-3-27 18:47:4.394	WT901BLE68-01(48591DE3C19B)	-0.393	-1.031	0.161	30.090	-58.533	101.379	-81.13	-13.72	-35.49	-62.916	-35.672	68.012	-0.67661	0.64825	-0.10373	0.33331	30.9	13111	100
2025-3-27 18:47:4.394	WT901BLE68-01(48591DE3C19B)	-0.393	-1.031	0.073	30.457	-80.444	134.216	-80.97	-12.48	-34.60	-62.916	-35.672	68.012	-0.67661	0.64825	-0.10373	0.33331	30.9	13111	100
2025-3-27 18:47:4.394	WT901BLE68-01(48591DE3C19B)	-0.334	-1.031	0.073	30.457	-80.444	134.216	-80.84	-11.10	-33.57	-62.916	-35.672	68.012	-0.67661	0.64825	-0.10373	0.33331	30.9	13111	100
2025-3-27 18:47:4.423	WT901BLE68-01(48591DE3C19B)	-0.334	-1.209	0.013	33.142	-108.215	162.415	-80.69	-9.61	-32.39	-62.916	-35.672	68.012	-0.67661	0.64825	-0.10373	0.33331	30.9	13111	100
2025-3-27 18:47:4.424	WT901BLE68-01(48591DE3C19B)	-0.217	-1.209	0.013	33.142	-108.215	162.415	-80.55	-8.02	-31.05	-62.916	-35.672	68.012	-0.67661	0.64825	-0.10373	0.33331	30.9	13111	100
2025-3-27 18:47:4.424	WT901BLE68-01(48591DE3C19B)	-0.217	-1.382	0.042	46.326	-126.099	185.425	-80.31	-6.34	-29.60	-62.916	-35.672	68.012	-0.67661	0.64825	-0.10373	0.33331	30.9	13111	100
2025-3-27 18:47:4.424	WT901BLE68-01(48591DE3C19B)	-0.102	-1.382	0.042	46.326	-126.099	185.425	-79.99	-4.60	-28.05	-62.916	-35.672	68.012	-0.67661	0.64825	-0.10373	0.33331	30.9	13111	100
2025-3-27 18:47:4.485	WT901BLE68-01(48591DE3C19B)	-0.102	-1.496	0.085	64.514	-116.333	200.378	-79.52	-2.80	-26.55	-62.916	-35.672	68.012	-0.67661	0.64825	-0.10373	0.33331	30.9	13111	100
2025-3-27 18:47:4.485	WT901BLE68-01(48591DE3C19B)	-0.013	-1.496	0.085	64.514	-116.333	200.378	-78.93	-0.95	-25.07	-62.916	-35.672	68.012	-0.67661	0.64825	-0.10373	0.33331	30.9	13111	100
2025-3-27 18:47:4.485	WT901BLE68-01(48591DE3C19B)	-0.013	-1.515	0.084	81.238	-74.646	206.726	-78.22	0.93	-23.78	-62.916	-35.672	68.012	-0.67661	0.64825	-0.10373	0.33331	30.9	13111	100
2025-3-27 18:47:4.485	WT901BLE68-01(48591DE3C19B)	-0.017	-1.515	0.084	81.238	-74.646	206.726	-77.38	2.86	-22.67	-62.916	-35.672	68.012	-0.67661	0.64825	-0.10373	0.33331	30.9	13111	100
2025-3-27 18:47:4.515	WT901BLE68-01(48591DE3C19B)	-0.017	-1.411	0.095	89.539	-20.691	211.060	-76.50	4.83	-21.80	-62.916	-35.672	68.012	-0.67661	0.64825	-0.10373	0.33331	30.9	13111	100
2025-3-27 18:47:4.516	WT901BLE68-01(48591DE3C19B)	-0.104	-1.411	0.095	89.539	-20.691	211.060	-75.57	6.85	-21.15	-62.916	-35.672	68.012	-0.67661	0.64825	-0.10373	0.33331	30.9	13111	100
2025-3-27 18:47:4.516	WT901BLE68-01(48591DE3C19B)	-0.104	-1.314	0.087	88.745	27.161	209.839	-74.66	8.90	-20.72	-62.916	-35.672	68.012	-0.67661	0.64825	-0.10373	0.33331	30.9	13111	100
2025-3-27 18:47:4.516	WT901BLE68-01(48591DE3C19B)	-0.154	-1.314	0.087	88.745	27.161	209.839	-73.77	10.99	-20.48	-50.960	-32.634	70.364	-0.67661	0.64825	-0.10373	0.33331	30.9	13111	100
2025-3-27 18:47:4.545	WT901BLE68-01(48591DE3C19B)	-0.154	-1.225	0.077	84.167	63.660	208.618	-72.94	13.11	-20.40	-50.960	-32.634	70.364	-0.67661	0.64825	-0.10373	0.33331	30.9	13111	100
2025-3-27 18:47:4.545	WT901BLE68-01(48591DE3C19B)	-0.178	-1.225	0.077	84.167	63.660	208.618	-72.17	15.26	-20.47	-50.960	-32.634	70.364	-0.67661	0.64825	-0.10373	0.33331	30.9	13111	100
2025-3-27 18:47:4.545	WT901BLE68-01(48591DE3C19B)	-0.178	-1.143	0.083	74.036	86.975	208.069	-71.48	17.43	-20.62	-50.960	-32.634	70.364	-0.67661	0.64825	-0.10373	0.33331	30.9	13111	100
2025-3-27 18:47:4.545	WT901BLE68-01(48591DE3C19B)	-0.183	-1.143	0.083	74.036	86.975	208.069	-70.88	19.63	-20.87	-50.960	-32.634	70.364	-0.67661	0.64825	-0.10373	0.33331	30.9	13111	100
2025-3-27 18:47:4.603	WT901BLE68-01(48591DE3C19B)	-0.183	-1.125	0.042	62.073	97.412	206.909	-70.37	21.82	-21.15	-50.960	-32.634	70.364	-0.67661	0.64825	-0.10373	0.33331	30.9	13111	100
2025-3-27 18:47:4.603	WT901BLE68-01(48591DE3C19B)	-0.164	-1.125	0.042	62.073	97.412	206.909	-69.94	24.02	-21.47	-50.960	-32.634	70.364	-0.67661	0.64825	-0.10373	0.33331	30.9	13111	100
2025-3-27 18:47:4.603	WT901BLE68-01(48591DE3C19B)	-0.164	-1.093	-0.013	48.889	93.506	204.102	-69.58	26.19	-21.76	-50.960	-32.634	70.364	-0.67661	0.64825	-0.10373	0.33331	30.9	13111	100
2025-3-27 18:47:4.603	WT901BLE68-01(48591DE3C19B)	-0.104	-1.093	-0.013	48.889	93.506	204.102	-69.29	28.32	-22.04	-50.960	-32.634	70.364	-0.67661	0.64825	-0.10373	0.33331	30.9	13111	100
2025-3-27 18:47:4.633	WT901BLE68-01(48591DE3C19B)	-0.104	-1.099	-0.071	35.461	80.017	196.350	-69.04	30.38	-22.25	-50.960	-32.634	70.364	-0.67661	0.64825	-0.10373	0.33331	30.9	13111	100
2025-3-27 18:47:4.633	WT901BLE68-01(48591DE3C19B)	-0.021	-1.099	-0.071	35.461	80.017	196.350	-68.85	32.37	-22.40	-50.960	-32.634	70.364	-0.67661	0.64825	-0.10373	0.33331	30.9	13111	100
2025-3-27 18:47:4.633	WT901BLE68-01(48591DE3C19B)	-0.021	-1.175	-0.107	22.095	59.143	183.044	-68.68	34.25	-22.46	-50.960	-32.634	70.364	-0.67661	0.64825	-0.10373	0.33331	30.9	13111	100
2025-3-27 18:47:4.633	WT901BLE68-01(48591DE3C19B)	0.136	-1.175	-0.107	22.095	59.143	183.044	-68.53	36.01	-22.42	-50.960	-32.634	70.364	-0.67661	0.64825	-0.10373	0.33331	30.9	13111	100
2025-3-27 18:47:4.664	WT901BLE68-01(48591DE3C19B)	0.136	-1.316	-0.128	11.841	31.189	161.926	-68.36	37.62	-22.28	-50.960	-32.634	70.364	-0.67661	0.64825	-0.10373	0.33331	30.9	13111	100
2025-3-27 18:47:4.664	WT901BLE68-01(48591DE3C19B)	0.318	-1.316	-0.128	11.841	31.189	161.926	-68.18	39.06	-22.02	-50.960	-32.634	70.364	-0.67661	0.64825	-0.10373	0.33331	30.9	13111	100
2025-3-27 18:47:4.664	WT901BLE68-01(48591DE3C19B)	0.318	-1.459	-0.142	9.338	14.954	133.972	-67.98	40.16	-21.70	-50.960	-32.634	70.364	-0.67661	0.64825	-0.10373	0.33331	30.9	13111	100
2025-3-27 18:47:4.664	WT901BLE68-01(48591DE3C19B)	0.379	-1.459	-0.142	9.338	14.954	133.972	-67.77	41.24	-21.37	-50.960	-32.634	70.364	-0.67661	0.64825	-0.10373	0.33331	30.9	13111	100
2025-3-27 18:47:4.724	WT901BLE68-01(48591DE3C19B)	0.379	-1.530	-0.095	7.935	12.634	101.318	-67.67	42.00	-21.19	-50.960	-32.634	70.364	-0.67661	0.64825	-0.10373	0.33331	30.9	13111	100
2025-3-27 18:47:4.724	WT901BLE68-01(48591DE3C19B)	0.273	-1.530	-0.095	7.935	12.634	101.318	-67.57	42.75	-21.01	-50.960	-32.634	70.364	-0.67661	0.64825	-0.10373	0.33331	30.9	13111	100
2025-3-27 18:47:4.724	WT901BLE68-01(48591DE3C19B)	0.273	-1.580	-0.006	3.845	19.531	65.063	-67.70	43.18	-21.10	-50.960	-32.634	70.364	-0.67661	0.64825	-0.10373	0.33331	30.9	13111	100
2025-3-27 18:47:4.724	WT901BLE68-01(48591DE3C19B)	0.140	-1.580	-0.006	3.845	19.531	65.063	-67.83	43.61	-21.20	-50.960	-32.634	70.364	-0.67661	0.64825	-0.10373	0.33331	30.9	13111	100
2025-3-27 18:47:4.756	WT901BLE68-01(48591DE3C19B)	0.140	-1.586	0.096	2.075	25.146	22.583	-68.17	43.66	-21.60	-50.960	-32.634	70.364	-0.79419	0.45331	-0.39996	-0.06064	30.9	13111	100
2025-3-27 18:47:4.756	WT901BLE68-01(48591DE3C19B)	0.163	-1.586	0.096	2.075	25.146	22.583	-68.51	43.70	-21.99	-50.960	-32.634	70.364	-0.79419	0.45331	-0.39996	-0.06064	30.9	13111	100
2025-3-27 18:47:4.756	WT901BLE68-01(48591DE3C19B)	0.163	-1.576	0.179	-0.061	18.188	-20.508	-68.96	43.32	-22.51	-50.960	-32.634	70.364	-0.79419	0.45331	-0.39996	-0.06064	30.9	13111	100
2025-3-27 18:47:4.756	WT901BLE68-01(48591DE3C19B)	0.288	-1.576	0.179	-0.061	18.188	-20.508	-69.38	42.93	-23.01	-50.960	-32.634	70.364	-0.79419	0.45331	-0.39996	-0.06064	30.9	13111	100
2025-3-27 18:47:4.844	WT901BLE68-01(48591DE3C19B)	0.288	-1.587	0.183	-0.366	7.019	-58.899	-69.82	42.15	-23.54	-50.960	-32.634	70.364	-0.79419	0.45331	-0.39996	-0.06064	30.9	13111	100
2025-3-27 18:47:4.844	WT901BLE68-01(48591DE3C19B)	0.313	-1.587	0.183	-0.366	7.019	-58.899	-70.24	41.36	-24.05	-50.960	-32.634	70.364	-0.79419	0.45331	-0.39996	-0.06064	30.9	13111	100
2025-3-27 18:47:4.844	WT901BLE68-01(48591DE3C19B)	0.313	-1.541	0.080	4.578	13.855	-92.407	-70.74	40.28	-24.78	-50.960	-32.634	70.364	-0.79419	0.45331	-0.39996	-0.06064	30.9	13111	100
2025-3-27 18:47:4.844	WT901BLE68-01(48591DE3C19B)	0.235	-1.541	0.080	4.578	13.855	-92.407	-71.21	39.19	-25.48	-50.960	-32.634	70.364	-0.79419	0.45331	-0.39996	-0.06064	30.9	13111	100
2025-3-27 18:47:4.845	WT901BLE68-01(48591DE3C19B)	0.235	-1.335	0.044	1.404	22.034	-119.446	-71.82	37.88	-26.36	-50.960	-32.634	70.364	-0.79419	0.45331	-0.39996	-0.06064	30.9	13111	100
2025-3-27 18:47:4.845	WT901BLE68-01(48591DE3C19B)	0.194	-1.335	0.044	1.404	22.034	-119.446	-72.39	36.56	-27.21	-50.960	-32.634	70.364	-0.79419	0.45331	-0.39996	-0.06064	30.9	13111	100
2025-3-27 18:47:4.845	WT901BLE68-01(48591DE3C19B)	0.194	-1.201	0.052	-5.371	29.358	-143.433	-73.08	35.04	-28.19	-50.960	-32.634	70.364	-0.79419	0.45331	-0.39996	-0.06064	30.9	13111	100
2025-3-27 18:47:4.845	WT901BLE68-01(48591DE3C19B)	0.232	-1.201	0.052	-5.371	29.358	-143.433	-73.73	33.51	-29.12	-50.960	-32.634	70.364	-0.79419	0.45331	-0.39996	-0.06064	30.9	13111	100
2025-3-27 18:47:4.934	WT901BLE68-01(48591DE3C19B)	0.232	-1.155	0.097	-11.414	45.471	-164.001	-74.53	31.83	-30.27	-50.960	-32.634	70.364	-0.79419	0.45331	-0.39996	-0.06064	30.9	13111	100
2025-3-27 18:47:4.934	WT901BLE68-01(48591DE3C19B)	0.180	-1.155	0.097	-11.414	45.471	-164.001	-75.26	30.15	-31.35	-50.960	-32.634	70.364	-0.79419	0.45331	-0.39996	-0.06064	30.9	13111	100
2025-3-27 18:47:4.934	WT901BLE68-01(48591DE3C19B)	0.180	-1.211	0.128	-15.503	65.613	-180.298	-76.11	28.34	-32.66	-50.960	-32.634	70.364	-0.79419	0.45331	-0.39996	-0.06064	30.9	13111	100
2025-3-27 18:47:4.934	WT901BLE68-01(48591DE3C19B)	0.014	-1.211	0.128	-15.503	65.613	-180.298	-76.90	26.54	-33.91	-50.960	-32.634	70.364	-0.79419	0.45331	-0.39996	-0.06064	30.9	13111	100
2025-3-27 18:47:4.936	WT901BLE68-01(48591DE3C19B)	0.014	-1.285	0.178	-13.489	70.251	-190.002	-77.63	24.65	-35.18	-50.960	-32.634	70.364	-0.79419	0.45331	-0.39996	-0.06064	30.9	13111	100
2025-3-27 18:47:4.936	WT901BLE68-01(48591DE3C19B)	-0.230	-1.285	0.178	-13.489	70.251	-190.002	-78.30	22.76	-36.40	-50.960	-32.634	70.364	-0.79419	0.45331	-0.39996	-0.06064	30.9	13111	100
2025-3-27 18:47:4.936	WT901BLE68-01(48591DE3C19B)	-0.230	-1.284	0.232	-10.010	53.894	-199.463	-78.82	20.75	-37.41	-50.960	-32.634	70.364	-0.79419	0.45331	-0.39996	-0.06064	30.9	13111	100
2025-3-27 18:47:4.936	WT901BLE68-01(48591DE3C19B)	-0.315	-1.284	0.232	-10.010	53.894	-199.463	-79.28	18.76	-38.40	-50.960	-32.634	70.364	-0.79419	0.45331	-0.39996	-0.06064	30.9	13111	100
2025-3-27 18:47:4.966	WT901BLE68-01(48591DE3C19B)	-0.315	-1.240	0.266	-9.460	33.142	-208.496	-79.63	16.65	-39.14	-50.960	-32.634	70.364	-0.79419	0.45331	-0.39996	-0.06064	30.9	13111	100
2025-3-27 18:47:4.966	WT901BLE68-01(48591DE3C19B)	-0.324	-1.240	0.266	-9.460	33.142	-208.496	-79.94	14.56	-39.87	-50.960	-32.634	70.364	-0.79419	0.45331	-0.39996	-0.06064	30.9	13111	100
2025-3-27 18:47:4.966	WT901BLE68-01(48591DE3C19B)	-0.324	-1.202	0.253	-8.423	22.339	-212.402	-80.18	12.43	-40.47	-50.960	-32.634	70.364	-0.79419	0.45331	-0.39996	-0.06064	30.9	13111	100
2025-3-27 18:47:4.966	WT901BLE68-01(48591DE3C19B)	-0.319	-1.202	0.253	-8.423	22.339	-212.402	-80.40	10.32	-41.06	-50.960	-32.634	70.364	-0.79419	0.45331	-0.39996	-0.06064	30.9	13111	100
2025-3-27 18:47:4.995	WT901BLE68-01(48591DE3C19B)	-0.160	-1.172	0.189	-7.202	14.709	-215.515	-80.56	8.19	-41.55	-57.428	-23.618	71.540	-0.79419	0.45331	-0.39996	-0.06064	30.9	13111	100
2025-3-27 18:47:4.995	WT901BLE68-01(48591DE3C19B)	-0.298	-0.586	0.094	-7.202	14.709	-215.515	-80.71	6.07	-42.03	-57.428	-23.618	71.540	-0.79419	0.45331	-0.39996	-0.06064	30.9	13111	100
2025-3-27 18:47:4.995	WT901BLE68-01(48591DE3C19B)	-0.298	-1.116	0.135	-5.493	2.380	-218.628	-80.80	3.92	-42.39	-57.428	-23.618	71.540	-0.79419	0.45331	-0.39996	-0.06064	30.9	13111	100
2025-3-27 18:47:4.995	WT901BLE68-01(48591DE3C19B)	-0.281	-1.116	0.135	-5.493	2.380	-218.628	-80.89	1.79	-42.74	-57.428	-23.618	71.540	-0.79419	0.45331	-0.39996	-0.06064	30.9	13111	100
2025-3-27 18:47:5.23	WT901BLE68-01(48591DE3C19B)	-0.281	-1.016	0.144	-6.348	-6.897	-219.788	-80.96	-0.35	-42.99	-57.428	-23.618	71.540	-0.79419	0.45331	-0.39996	-0.06064	30.9	13111	100
2025-3-27 18:47:5.23	WT901BLE68-01(48591DE3C19B)	-0.292	-1.016	0.144	-6.348	-6.897	-219.788	-81.04	-2.48	-43.24	-57.428	-23.618	71.540	-0.79419	0.45331	-0.39996	-0.06064	30.9	13111	100
2025-3-27 18:47:5.24	WT901BLE68-01(48591DE3C19B)	-0.292	-0.928	0.199	-8.911	-6.775	-218.628	-81.11	-4.58	-43.49	-57.428	-23.618	71.540	-0.79419	0.45331	-0.39996	-0.06064	30.9	13111	100
2025-3-27 18:47:5.24	WT901BLE68-01(48591DE3C19B)	-0.349	-0.928	0.199	-8.911	-6.775	-218.628	-81.18	-6.65	-43.73	-57.428	-23.618	71.540	-0.79419	0.45331	-0.39996	-0.06064	30.9	13111	100
2025-3-27 18:47:5.113	WT901BLE68-01(48591DE3C19B)	-0.349	-0.876	0.251	-8.606	0.000	-215.637	-81.23	-8.68	-44.03	-57.428	-23.618	71.540	-0.79419	0.45331	-0.39996	-0.06064	30.9	13111	100
2025-3-27 18:47:5.113	WT901BLE68-01(48591DE3C19B)	-0.438	-0.876	0.251	-8.606	0.000	-215.637	-81.27	-10.68	-44.32	-57.428	-23.618	71.540	-0.79419	0.45331	-0.39996	-0.06064	30.9	13111	100
2025-3-27 18:47:5.113	WT901BLE68-01(48591DE3C19B)	-0.438	-0.850	0.276	-4.028	1.709	-208.069	-81.23	-12.59	-44.63	-57.428	-23.618	71.540	-0.79419	0.45331	-0.39996	-0.06064	30.9	13111	100
2025-3-27 18:47:5.113	WT901BLE68-01(48591DE3C19B)	-0.493	-0.850	0.276	-4.028	1.709	-208.069	-81.19	-14.49	-44.93	-57.428	-23.618	71.540	-0.79419	0.45331	-0.39996	-0.06064	30.9	13111	100
2025-3-27 18:47:5.114	WT901BLE68-01(48591DE3C19B)	-0.493	-0.819	0.276	2.136	-5.859	-197.388	-81.10	-16.26	-45.14	-57.428	-23.618	71.540	-0.79419	0.45331	-0.39996	-0.06064	30.9	13111	100
2025-3-27 18:47:5.114	WT901BLE68-01(48591DE3C19B)	-0.478	-0.819	0.276	2.136	-5.859	-197.388	-81.00	-18.02	-45.36	-57.428	-23.618	71.540	-0.79419	0.45331	-0.39996	-0.06064	30.9	13111	100
2025-3-27 18:47:5.114	WT901BLE68-01(48591DE3C19B)	-0.478	-0.787	0.271	6.653	-13.245	-182.068	-80.88	-19.62	-45.47	-57.428	-23.618	71.540	-0.79419	0.45331	-0.39996	-0.06064	30.9	13111	100
2025-3-27 18:47:5.114	WT901BLE68-01(48591DE3C19B)	-0.454	-0.787	0.271	6.653	-13.245	-182.068	-80.74	-21.21	-45.59	-57.428	-23.618	71.540	-0.64407	0.64127	-0.11743	0.40002	30.9	13111	100
2025-3-27 18:47:5.143	WT901BLE68-01(48591DE3C19B)	-0.476	-0.792	0.286	8.423	-12.756	-163.635	-80.60	-22.60	-45.69	-57.428	-23.618	71.540	-0.64407	0.64127	-0.11743	0.40002	30.9	13111	100
2025-3-27 18:47:5.143	WT901BLE68-01(48591DE3C19B)	-0.476	-0.842	0.306	7.629	-11.841	-142.090	-80.46	-23.87	-45.77	-57.428	-23.618	71.540	-0.64407	0.64127	-0.11743	0.40002	30.9	13111	100
2025-3-27 18:47:5.143	WT901BLE68-01(48591DE3C19B)	-0.495	-0.842	0.306	7.629	-11.841	-142.090	-80.32	-25.02	-45.85	-57.428	-23.618	71.540	-0.64407	0.64127	-0.11743	0.40002	30.9	13111	100
2025-3-27 18:47:5.143	WT901BLE68-01(48591DE3C19B)	-0.495	-0.956	0.340	5.066	-14.709	-121.582	-80.21	-26.07	-45.89	-57.428	-23.618	71.540	-0.64407	0.64127	-0.11743	0.40002	30.9	13111	100
2025-3-27 18:47:5.203	WT901BLE68-01(48591DE3C19B)	-0.563	-0.956	0.340	5.066	-14.709	-121.582	-80.12	-27.00	-45.90	-57.428	-23.618	71.540	-0.64407	0.64127	-0.11743	0.40002	30.9	13111	100
2025-3-27 18:47:5.204	WT901BLE68-01(48591DE3C19B)	-0.563	-1.160	0.469	3.296	-18.860	-99.182	-80.06	-27.82	-45.87	-57.428	-23.618	71.540	-0.64407	0.64127	-0.11743	0.40002	30.9	13111	100
2025-3-27 18:47:5.204	WT901BLE68-01(48591DE3C19B)	-0.660	-1.160	0.469	3.296	-18.860	-99.182	-80.02	-28.53	-45.80	-57.428	-23.618	71.540	-0.64407	0.64127	-0.11743	0.40002	30.9	13111	100
2025-3-27 18:47:5.204	WT901BLE68-01(48591DE3C19B)	-0.660	-1.375	0.581	4.944	-21.606	-76.904	-79.99	-29.13	-45.69	-57.428	-23.618	71.540	-0.64407	0.64127	-0.11743	0.40002	30.9	13111	100
2025-3-27 18:47:5.263	WT901BLE68-01(48591DE3C19B)	-0.685	-1.375	0.581	4.944	-21.606	-76.904	-79.96	-29.62	-45.55	-57.428	-23.618	71.540	-0.64407	0.64127	-0.11743	0.40002	30.9	13111	100
2025-3-27 18:47:5.263	WT901BLE68-01(48591DE3C19B)	-0.685	-1.589	0.575	5.005	-14.893	-46.082	-79.93	-29.94	-45.42	-57.428	-23.618	71.540	-0.64407	0.64127	-0.11743	0.40002	30.9	13111	100
2025-3-27 18:47:5.264	WT901BLE68-01(48591DE3C19B)	-0.606	-1.589	0.575	5.005	-14.893	-46.082	-79.88	-30.11	-45.29	-57.428	-23.618	71.540	-0.64407	0.64127	-0.11743	0.40002	30.9	13111	100
2025-3-27 18:47:5.264	WT901BLE68-01(48591DE3C19B)	-0.606	-1.565	0.482	11.658	5.493	-10.132	-79.77	-30.09	-45.25	-57.428	-23.618	71.540	-0.64407	0.64127	-0.11743	0.40002	30.9	13111	100
2025-3-27 18:47:5.265	WT901BLE68-01(48591DE3C19B)	-0.588	-1.565	0.482	11.658	5.493	-10.132	-79.58	-29.87	-45.29	-57.428	-23.618	71.540	-0.64407	0.64127	-0.11743	0.40002	30.9	13111	100
2025-3-27 18:47:5.265	WT901BLE68-01(48591DE3C19B)	-0.588	-1.434	0.457	8.484	21.240	35.706	-79.40	-29.42	-45.36	-57.428	-23.618	71.540	-0.64407	0.64127	-0.11743	0.40002	30.9	13111	100
2025-3-27 18:47:5.265	WT901BLE68-01(48591DE3C19B)	-0.587	-1.434	0.457	8.484	21.240	35.706	-79.22	-28.73	-45.48	-57.428	-23.618	71.540	-0.64407	0.64127	-0.11743	0.40002	30.9	13111	100
2025-3-27 18:47:5.265	WT901BLE68-01(48591DE3C19B)	-0.587	-1.292	0.516	4.089	17.578	79.346	-79.09	-27.83	-45.52	-57.428	-23.618	71.540	-0.64407	0.64127	-0.11743	0.40002	30.9	13111	100
2025-3-27 18:47:5.324	WT901BLE68-01(48591DE3C19B)	-0.568	-1.292	0.516	4.089	17.578	79.346	-79.01	-26.73	-45.49	-57.428	-23.618	71.540	-0.64407	0.64127	-0.11743	0.40002	30.9	13111	100
2025-3-27 18:47:5.324	WT901BLE68-01(48591DE3C19B)	-0.568	-1.209	0.562	-1.709	-5.737	117.493	-79.04	-25.47	-45.30	-57.428	-23.618	71.540	-0.64407	0.64127	-0.11743	0.40002	30.9	13111	100
2025-3-27 18:47:5.324	WT901BLE68-01(48591DE3C19B)	-0.527	-1.209	0.562	-1.709	-5.737	117.493	-79.15	-24.05	-44.95	-57.428	-23.618	71.540	-0.64407	0.64127	-0.11743	0.40002	30.9	13111	100
2025-3-27 18:47:5.324	WT901BLE68-01(48591DE3C19B)	-0.527	-1.212	0.534	-0.061	-32.654	148.438	-79.31	-22.51	-44.43	-57.428	-23.618	71.540	-0.64407	0.64127	-0.11743	0.40002	30.9	13111	100
2025-3-27 18:47:5.355	WT901BLE68-01(48591DE3C19B)	-0.504	-1.212	0.534	-0.061	-32.654	148.438	-79.51	-20.85	-43.76	-61.740	-22.344	70.560	-0.64407	0.64127	-0.11743	0.40002	30.9	13111	100
2025-3-27 18:47:5.355	WT901BLE68-01(48591DE3C19B)	-0.504	-1.235	0.460	8.057	-50.903	173.950	-79.68	-19.09	-42.98	-61.740	-22.344	70.560	-0.64407	0.64127	-0.11743	0.40002	30.9	13111	100
2025-3-27 18:47:5.355	WT901BLE68-01(48591DE3C19B)	-0.490	-1.235	0.460	8.057	-50.903	173.950	-79.82	-17.23	-42.09	-61.740	-22.344	70.560	-0.64407	0.64127	-0.11743	0.40002	30.9	13111	100
2025-3-27 18:47:5.355	WT901BLE68-01(48591DE3C19B)	-0.490	-1.229	0.325	19.531	-59.082	194.153	-79.88	-15.29	-41.17	-61.740	-22.344	70.560	-0.64407	0.64127	-0.11743	0.40002	30.9	13111	100
2025-3-27 18:47:5.414	WT901BLE68-01(48591DE3C19B)	-0.448	-1.229	0.325	19.531	-59.082	194.153	-79.88	-13.27	-40.19	-61.740	-22.344	70.560	-0.64407	0.64127	-0.11743	0.40002	30.9	13111	100
2025-3-27 18:47:5.414	WT901BLE68-01(48591DE3C19B)	-0.448	-1.188	0.178	26.550	-61.218	210.876	-79.80	-11.18	-39.19	-61.740	-22.344	70.560	-0.64407	0.64127	-0.11743	0.40002	30.9	13111	100
2025-3-27 18:47:5.414	WT901BLE68-01(48591DE3C19B)	-0.414	-1.188	0.178	26.550	-61.218	210.876	-79.67	-9.03	-38.18	-61.740	-22.344	70.560	-0.64407	0.64127	-0.11743	0.40002	30.9	13111	100
2025-3-27 18:47:5.414	WT901BLE68-01(48591DE3C19B)	-0.414	-1.243	0.084	30.029	-67.749	224.548	-79.50	-6.83	-37.12	-61.740	-22.344	70.560	-0.64407	0.64127	-0.11743	0.40002	30.9	13111	100
2025-3-27 18:47:5.442	WT901BLE68-01(48591DE3C19B)	-0.375	-1.243	0.084	30.029	-67.749	224.548	-79.28	-4.59	-36.02	-61.740	-22.344	70.560	-0.64407	0.64127	-0.11743	0.40002	30.9	13111	100
2025-3-27 18:47:5.443	WT901BLE68-01(48591DE3C19B)	-0.375	-1.317	0.071	35.400	-85.815	233.093	-79.01	-2.34	-34.82	-61.740	-22.344	70.560	-0.64407	0.64127	-0.11743	0.40002	30.9	13111	100
2025-3-27 18:47:5.443	WT901BLE68-01(48591DE3C19B)	-0.324	-1.317	0.071	35.400	-85.815	233.093	-78.67	-0.09	-33.51	-61.740	-22.344	70.560	-0.64407	0.64127	-0.11743	0.40002	30.9	13111	100
2025-3-27 18:47:5.443	WT901BLE68-01(48591DE3C19B)	-0.324	-1.415	0.138	44.434	-111.450	237.122	-78.24	2.12	-32.06	-61.740	-22.344	70.560	-0.64407	0.64127	-0.11743	0.40002	30.9	13111	100
2025-3-27 18:47:5.473	WT901BLE68-01(48591DE3C19B)	-0.243	-1.415	0.138	44.434	-111.450	237.122	-77.71	4.30	-30.48	-61.740	-22.344	70.560	-0.64407	0.64127	-0.11743	0.40002	30.9	13111	100
2025-3-27 18:47:5.473	WT901BLE68-01(48591DE3C19B)	-0.243	-1.541	0.176	59.692	-128.723	238.525	-77.04	6.43	-28.78	-61.740	-22.344	70.560	-0.64407	0.64127	-0.11743	0.40002	30.9	13111	100
2025-3-27 18:47:5.473	WT901BLE68-01(48591DE3C19B)	-0.142	-1.541	0.176	59.692	-128.723	238.525	-76.22	8.51	-26.98	-61.740	-22.344	70.560	-0.64407	0.64127	-0.11743	0.40002	30.9	13111	100
2025-3-27 18:47:5.473	WT901BLE68-01(48591DE3C19B)	-0.142	-1.548	0.152	78.491	-120.850	237.000	-75.25	10.55	-25.19	-61.740	-22.344	70.560	-0.64407	0.64127	-0.11743	0.40002	30.9	13111	100
2025-3-27 18:47:5.534	WT901BLE68-01(48591DE3C19B)	-0.090	-1.548	0.152	78.491	-120.850	237.000	-74.13	12.54	-23.40	-61.740	-22.344	70.560	-0.64407	0.64127	-0.11743	0.40002	30.9	13111	100
2025-3-27 18:47:5.534	WT901BLE68-01(48591DE3C19B)	-0.090	-1.433	0.130	92.102	-88.257	232.422	-72.92	14.50	-21.73	-61.740	-22.344	70.560	-0.64407	0.64127	-0.11743	0.40002	30.9	13111	100
2025-3-27 18:47:5.535	WT901BLE68-01(48591DE3C19B)	-0.121	-1.433	0.130	92.102	-88.257	232.422	-71.63	16.44	-20.18	-61.740	-22.344	70.560	-0.64407	0.64127	-0.11743	0.40002	30.9	13111	100
2025-3-27 18:47:5.535	WT901BLE68-01(48591DE3C19B)	-0.121	-1.362	0.131	95.154	-45.105	227.600	-70.33	18.36	-18.80	-61.740	-22.344	70.560	-0.64407	0.64127	-0.11743	0.40002	30.9	13111	100
2025-3-27 18:47:5.565	WT901BLE68-01(48591DE3C19B)	-0.167	-1.362	0.131	95.154	-45.105	227.600	-69.03	20.30	-17.59	-61.740	-22.344	70.560	-0.81940	0.52365	-0.23233	0.01743	30.9	13111	100
2025-3-27 18:47:5.565	WT901BLE68-01(48591DE3C19B)	-0.167	-1.396	0.112	93.933	-5.798	223.816	-67.77	22.25	-16.52	-61.740	-22.344	70.560	-0.81940	0.52365	-0.23233	0.01743	30.9	13111	100
2025-3-27 18:47:5.565	WT901BLE68-01(48591DE3C19B)	-0.154	-1.396	0.112	93.933	-5.798	223.816	-66.54	24.22	-15.61	-61.740	-22.344	70.560	-0.81940	0.52365	-0.23233	0.01743	30.9	13111	100
2025-3-27 18:47:5.565	WT901BLE68-01(48591DE3C19B)	-0.154	-1.365	0.083	90.454	21.423	222.656	-65.34	26.21	-14.78	-61.740	-22.344	70.560	-0.81940	0.52365	-0.23233	0.01743	30.9	13111	100
2025-3-27 18:47:5.595	WT901BLE68-01(48591DE3C19B)	-0.156	-1.365	0.083	90.454	21.423	222.656	-64.18	28.22	-14.04	-61.740	-22.344	70.560	-0.81940	0.52365	-0.23233	0.01743	30.9	13111	100
2025-3-27 18:47:5.595	WT901BLE68-01(48591DE3C19B)	-0.156	-1.326	0.082	80.872	37.903	222.473	-63.06	30.25	-13.32	-61.740	-22.344	70.560	-0.81940	0.52365	-0.23233	0.01743	30.9	13111	100
2025-3-27 18:47:5.595	WT901BLE68-01(48591DE3C19B)	-0.154	-1.326	0.082	80.872	37.903	222.473	-61.99	32.28	-12.63	-61.740	-22.344	70.560	-0.81940	0.52365	-0.23233	0.01743	30.9	13111	100
2025-3-27 18:47:5.595	WT901BLE68-01(48591DE3C19B)	-0.154	-1.354	0.069	69.946	44.495	220.459	-61.03	34.30	-11.97	-61.740	-22.344	70.560	-0.81940	0.52365	-0.23233	0.01743	30.9	13111	100
2025-3-27 18:47:5.654	WT901BLE68-01(48591DE3C19B)	-0.141	-1.354	0.069	69.946	44.495	220.459	-60.02	36.30	-11.25	-61.740	-22.344	70.560	-0.81940	0.52365	-0.23233	0.01743	30.9	13111	100
2025-3-27 18:47:5.654	WT901BLE68-01(48591DE3C19B)	-0.141	-1.369	0.079	62.378	43.457	216.370	-59.05	38.23	-10.50	-61.740	-22.344	70.560	-0.81940	0.52365	-0.23233	0.01743	30.9	13111	100
2025-3-27 18:47:5.654	WT901BLE68-01(48591DE3C19B)	-0.137	-1.369	0.079	62.378	43.457	216.370	-58.02	40.14	-9.68	-61.740	-22.344	70.560	-0.81940	0.52365	-0.23233	0.01743	30.9	13111	100
2025-3-27 18:47:5.654	WT901BLE68-01(48591DE3C19B)	-0.137	-1.417	0.096	54.260	40.100	207.336	-57.04	41.94	-8.83	-61.740	-22.344	70.560	-0.81940	0.52365	-0.23233	0.01743	30.9	13111	100
2025-3-27 18:47:5.682	WT901BLE68-01(48591DE3C19B)	-0.149	-1.417	0.096	54.260	40.100	207.336	-55.99	43.71	-7.92	-61.740	-22.344	70.560	-0.81940	0.52365	-0.23233	0.01743	30.9	13111	100
2025-3-27 18:47:5.683	WT901BLE68-01(48591DE3C19B)	-0.149	-1.546	0.081	45.715	36.682	189.880	-55.04	45.30	-7.04	-61.740	-22.344	70.560	-0.81940	0.52365	-0.23233	0.01743	30.9	13111	100
2025-3-27 18:47:5.683	WT901BLE68-01(48591DE3C19B)	-0.126	-1.546	0.081	45.715	36.682	189.880	-54.04	46.86	-6.10	-61.740	-22.344	70.560	-0.81940	0.52365	-0.23233	0.01743	30.9	13111	100
2025-3-27 18:47:5.683	WT901BLE68-01(48591DE3C19B)	-0.126	-1.669	0.042	37.354	32.166	163.269	-53.19	48.16	-5.29	-61.740	-22.344	70.560	-0.81940	0.52365	-0.23233	0.01743	30.9	13111	100
2025-3-27 18:47:5.716	WT901BLE68-01(48591DE3C19B)	0.073	-1.669	0.042	37.354	32.166	163.269	-52.31	49.45	-4.43	-61.740	-22.344	70.560	-0.81940	0.52365	-0.23233	0.01743	30.9	13111	100
2025-3-27 18:47:5.716	WT901BLE68-01(48591DE3C19B)	0.073	-1.744	0.013	32.104	38.208	126.099	-51.76	50.47	-3.97	-61.740	-22.344	70.560	-0.81940	0.52365	-0.23233	0.01743	30.9	13111	100
2025-3-27 18:47:5.716	WT901BLE68-01(48591DE3C19B)	0.313	-1.744	0.013	32.104	38.208	126.099	-51.20	51.47	-3.48	-61.740	-22.344	70.560	-0.81940	0.52365	-0.23233	0.01743	30.9	13111	100
2025-3-27 18:47:5.716	WT901BLE68-01(48591DE3C19B)	0.313	-1.669	-0.009	35.522	62.073	88.135	-51.14	52.32	-3.67	-61.740	-22.344	70.560	-0.81940	0.52365	-0.23233	0.01743	30.9	13111	100
2025-3-27 18:47:5.774	WT901BLE68-01(48591DE3C19B)	0.364	-1.669	-0.009	35.522	62.073	88.135	-51.08	53.15	-3.88	-61.740	-22.344	70.560	-0.81940	0.52365	-0.23233	0.01743	30.9	13111	100
2025-3-27 18:47:5.774	WT901BLE68-01(48591DE3C19B)	0.364	-1.442	0.078	33.203	90.515	57.800	-51.62	53.91	-4.79	-34.790	-14.700	76.832	-0.81940	0.52365	-0.23233	0.01743	30.9	13111	100
2025-3-27 18:47:5.774	WT901BLE68-01(48591DE3C19B)	0.246	-1.442	0.078	33.203	90.515	57.800	-52.19	54.65	-5.73	-34.790	-14.700	76.832	-0.81940	0.52365	-0.23233	0.01743	30.9	13111	100
2025-3-27 18:47:5.774	WT901BLE68-01(48591DE3C19B)	0.246	-1.260	0.100	15.625	104.370	22.644	-53.42	55.18	-7.27	-34.790	-14.700	76.832	-0.81940	0.52365	-0.23233	0.01743	30.9	13111	100
2025-3-27 18:47:5.804	WT901BLE68-01(48591DE3C19B)	0.222	-1.260	0.100	15.625	104.370	22.644	-54.69	55.69	-8.84	-34.790	-14.700	76.832	-0.81940	0.52365	-0.23233	0.01743	30.9	13111	100
2025-3-27 18:47:5.804	WT901BLE68-01(48591DE3C19B)	0.222	-1.157	0.080	10.803	125.916	-16.541	-56.62	55.96	-11.17	-34.790	-14.700	76.832	-0.81940	0.52365	-0.23233	0.01743	30.9	13111	100
2025-3-27 18:47:5.804	WT901BLE68-01(48591DE3C19B)	0.189	-1.157	0.080	10.803	125.916	-16.541	-58.57	56.18	-13.51	-34.790	-14.700	76.832	-0.81940	0.52365	-0.23233	0.01743	30.9	13111	100
2025-3-27 18:47:5.804	WT901BLE68-01(48591DE3C19B)	0.189	-1.081	0.084	1.038	138.489	-54.504	-61.07	56.09	-16.40	-34.790	-14.700	76.832	-0.81940	0.52365	-0.23233	0.01743	30.9	13111	100
2025-3-27 18:47:5.833	WT901BLE68-01(48591DE3C19B)	0.128	-1.081	0.084	1.038	138.489	-54.504	-63.54	55.92	-19.25	-34.790	-14.700	76.832	-0.81940	0.52365	-0.23233	0.01743	30.9	13111	100
2025-3-27 18:47:5.833	WT901BLE68-01(48591DE3C19B)	0.128	-1.088	0.090	-5.615	124.512	-94.421	-66.07	55.26	-22.13	-34.790	-14.700	76.832	-0.81940	0.52365	-0.23233	0.01743	30.9	13111	100
2025-3-27 18:47:5.833	WT901BLE68-01(48591DE3C19B)	0.056	-1.088	0.090	-5.615	124.512	-94.421	-68.48	54.54	-24.90	-34.790	-14.700	76.832	-0.81940	0.52365	-0.23233	0.01743	30.9	13111	100
2025-3-27 18:47:5.833	WT901BLE68-01(48591DE3C19B)	0.056	-1.095	0.086	-9.155	89.905	-133.423	-70.53	53.27	-27.22	-34.790	-14.700	76.832	-0.81940	0.52365	-0.23233	0.01743	30.9	13111	100
2025-3-27 18:47:5.895	WT901BLE68-01(48591DE3C19B)	-0.074	-1.095	0.086	-9.155	89.905	-133.423	-72.42	51.96	-29.39	-34.790	-14.700	76.832	-0.81940	0.52365	-0.23233	0.01743	30.9	13111	100
2025-3-27 18:47:5.895	WT901BLE68-01(48591DE3C19B)	-0.074	-1.109	0.061	-13.123	48.767	-171.143	-73.86	50.15	-30.97	-34.790	-14.700	76.832	-0.81940	0.52365	-0.23233	0.01743	30.9	13111	100
2025-3-27 18:47:5.895	WT901BLE68-01(48591DE3C19B)	-0.262	-1.109	0.061	-13.123	48.767	-171.143	-75.15	48.33	-32.42	-34.790	-14.700	76.832	-0.81940	0.52365	-0.23233	0.01743	30.9	13111	100
2025-3-27 18:47:5.895	WT901BLE68-01(48591DE3C19B)	-0.262	-1.135	0.056	-22.156	-2.197	-204.529	-75.98	46.05	-33.15	-34.790	-14.700	76.832	-0.81940	0.52365	-0.23233	0.01743	30.9	13111	100
2025-3-27 18:47:5.926	WT901BLE68-01(48591DE3C19B)	-0.422	-1.135	0.056	-22.156	-2.197	-204.529	-76.72	43.80	-33.79	-34.790	-14.700	76.832	-0.81940	0.52365	-0.23233	0.01743	30.9	13111	100
2025-3-27 18:47:5.926	WT901BLE68-01(48591DE3C19B)	-0.422	-1.168	0.091	-30.212	-54.016	-239.441	-77.10	41.10	-33.81	-34.790	-14.700	76.832	-0.81940	0.52365	-0.23233	0.01743	30.9	13111	100
2025-3-27 18:47:5.926	WT901BLE68-01(48591DE3C19B)	-0.469	-1.168	0.091	-30.212	-54.016	-239.441	-77.46	38.43	-33.80	-34.790	-14.700	76.832	-0.81940	0.52365	-0.23233	0.01743	30.9	13111	100
2025-3-27 18:47:5.926	WT901BLE68-01(48591DE3C19B)	-0.469	-1.166	0.140	-44.006	-112.366	-269.897	-77.56	35.36	-33.15	-34.790	-14.700	76.832	-0.76657	0.51111	-0.38699	0.03564	30.9	13111	100
2025-3-27 18:47:5.955	WT901BLE68-01(48591DE3C19B)	-0.370	-1.166	0.140	-44.006	-112.366	-269.897	-77.71	32.33	-32.51	-34.790	-14.700	76.832	-0.76657	0.51111	-0.38699	0.03564	30.9	13111	100
2025-3-27 18:47:5.955	WT901BLE68-01(48591DE3C19B)	-0.370	-1.157	0.175	-64.453	-147.888	-292.542	-77.90	29.02	-31.54	-34.790	-14.700	76.832	-0.76657	0.51111	-0.38699	0.03564	30.9	13111	100
2025-3-27 18:47:5.955	WT901BLE68-01(48591DE3C19B)	-0.238	-1.157	0.175	-64.453	-147.888	-292.542	-78.16	25.75	-30.59	-34.790	-14.700	76.832	-0.76657	0.51111	-0.38699	0.03564	30.9	13111	100
2025-3-27 18:47:5.956	WT901BLE68-01(48591DE3C19B)	-0.238	-1.170	0.210	-84.534	-142.883	-303.772	-78.68	22.40	-29.72	-34.790	-14.700	76.832	-0.76657	0.51111	-0.38699	0.03564	30.9	13111	100
2025-3-27 18:47:6.14	WT901BLE68-01(48591DE3C19B)	-0.189	-1.170	0.210	-84.534	-142.883	-303.772	-79.25	19.08	-28.84	-34.790	-14.700	76.832	-0.76657	0.51111	-0.38699	0.03564	30.9	13111	100
2025-3-27 18:47:6.14	WT901BLE68-01(48591DE3C19B)	-0.095	-1.160	0.242	-98.816	-113.464	-306.580	-80.08	15.81	-28.25	-34.790	-14.700	76.832	-0.76657	0.51111	-0.38699	0.03564	30.9	13111	100
2025-3-27 18:47:6.14	WT901BLE68-01(48591DE3C19B)	-0.199	-0.580	0.121	-98.816	-113.464	-306.580	-80.93	12.58	-27.63	-34.790	-14.700	76.832	-0.76657	0.51111	-0.38699	0.03564	30.9	13111	100
2025-3-27 18:47:6.14	WT901BLE68-01(48591DE3C19B)	-0.199	-1.149	0.275	-106.506	-81.055	-305.054	-81.94	9.44	-27.28	-34.790	-14.700	76.832	-0.76657	0.51111	-0.38699	0.03564	30.9	13111	100
2025-3-27 18:47:6.43	WT901BLE68-01(48591DE3C19B)	-0.242	-1.149	0.275	-106.506	-81.055	-305.054	-82.94	6.32	-26.88	-34.790	-14.700	76.832	-0.76657	0.51111	-0.38699	0.03564	30.9	13111	100
2025-3-27 18:47:6.43	WT901BLE68-01(48591DE3C19B)	-0.242	-1.170	0.319	-105.042	-51.758	-298.889	-83.96	3.32	-26.72	-34.790	-14.700	76.832	-0.76657	0.51111	-0.38699	0.03564	30.9	13111	100
2025-3-27 18:47:6.43	WT901BLE68-01(48591DE3C19B)	-0.324	-1.170	0.319	-105.042	-51.758	-298.889	-84.98	0.35	-26.52	-34.790	-14.700	76.832	-0.76657	0.51111	-0.38699	0.03564	30.9	13111	100
2025-3-27 18:47:6.43	WT901BLE68-01(48591DE3C19B)	-0.418	-1.200	0.333	-95.764	-32.959	-288.696	-85.91	-2.48	-26.43	-34.790	-14.700	76.832	-0.76657	0.51111	-0.38699	0.03564	30.9	13111	100
2025-3-27 18:47:6.73	WT901BLE68-01(48591DE3C19B)	-0.418	-1.246	0.333	-82.397	-27.466	-272.827	-86.76	-5.21	-26.33	-34.790	-14.700	76.832	-0.76657	0.51111	-0.38699	0.03564	30.9	13111	100
2025-3-27 18:47:6.73	WT901BLE68-01(48591DE3C19B)	-0.467	-1.246	0.333	-82.397	-27.466	-272.827	-87.54	-7.84	-26.21	-34.790	-14.700	76.832	-0.76657	0.51111	-0.38699	0.03564	30.9	13111	100
2025-3-27 18:47:6.74	WT901BLE68-01(48591DE3C19B)	-0.467	-1.255	0.322	-65.979	-24.963	-251.648	-88.25	-10.34	-26.07	-34.790	-14.700	76.832	-0.76657	0.51111	-0.38699	0.03564	30.9	13111	100
2025-3-27 18:47:6.74	WT901BLE68-01(48591DE3C19B)	-0.426	-1.255	0.322	-65.979	-24.963	-251.648	-88.88	-12.71	-25.91	-34.790	-14.700	76.832	-0.76657	0.51111	-0.38699	0.03564	30.9	13111	100
2025-3-27 18:47:6.134	WT901BLE68-01(48591DE3C19B)	-0.426	-1.216	0.309	-49.805	-10.437	-227.173	-89.42	-14.94	-25.80	-34.790	-14.700	76.832	-0.76657	0.51111	-0.38699	0.03564	30.9	13111	100
2025-3-27 18:47:6.134	WT901BLE68-01(48591DE3C19B)	-0.362	-1.216	0.309	-49.805	-10.437	-227.173	-89.87	-17.03	-25.74	-34.790	-14.700	76.832	-0.76657	0.51111	-0.38699	0.03564	30.9	13111	100
2025-3-27 18:47:6.134	WT901BLE68-01(48591DE3C19B)	-0.362	-1.158	0.281	-40.466	12.390	-201.538	-90.23	-18.98	-25.78	-34.790	-14.700	76.832	-0.76657	0.51111	-0.38699	0.03564	30.9	13111	100
2025-3-27 18:47:6.134	WT901BLE68-01(48591DE3C19B)	-0.334	-1.158	0.281	-40.466	12.390	-201.538	-90.51	-20.79	-25.94	-34.790	-14.700	76.832	-0.76657	0.51111	-0.38699	0.03564	30.9	13111	100
2025-3-27 18:47:6.163	WT901BLE68-01(48591DE3C19B)	-0.334	-1.125	0.288	-36.438	36.987	-177.734	-90.71	-22.48	-26.23	-51.646	-15.778	80.360	-0.76657	0.51111	-0.38699	0.03564	30.9	13111	100
2025-3-27 18:47:6.163	WT901BLE68-01(48591DE3C19B)	-0.407	-1.125	0.288	-36.438	36.987	-177.734	-90.83	-24.03	-26.65	-51.646	-15.778	80.360	-0.76657	0.51111	-0.38699	0.03564	30.9	13111	100
2025-3-27 18:47:6.164	WT901BLE68-01(48591DE3C19B)	-0.407	-1.167	0.366	-34.668	54.382	-155.457	-90.89	-25.47	-27.17	-51.646	-15.778	80.360	-0.76657	0.51111	-0.38699	0.03564	30.9	13111	100
2025-3-27 18:47:6.164	WT901BLE68-01(48591DE3C19B)	-0.561	-1.167	0.366	-34.668	54.382	-155.457	-90.88	-26.79	-27.80	-51.646	-15.778	80.360	-0.76657	0.51111	-0.38699	0.03564	30.9	13111	100
2025-3-27 18:47:6.194	WT901BLE68-01(48591DE3C19B)	-0.561	-1.328	0.493	-28.442	61.340	-132.751	-90.81	-27.99	-28.47	-51.646	-15.778	80.360	-0.76657	0.51111	-0.38699	0.03564	30.9	13111	100
2025-3-27 18:47:6.194	WT901BLE68-01(48591DE3C19B)	-0.730	-1.328	0.493	-28.442	61.340	-132.751	-90.66	-29.06	-29.20	-51.646	-15.778	80.360	-0.76657	0.51111	-0.38699	0.03564	30.9	13111	100
2025-3-27 18:47:6.194	WT901BLE68-01(48591DE3C19B)	-0.730	-1.450	0.621	-18.738	62.073	-106.995	-90.44	-29.99	-29.93	-51.646	-15.778	80.360	-0.76657	0.51111	-0.38699	0.03564	30.9	13111	100
2025-3-27 18:47:6.194	WT901BLE68-01(48591DE3C19B)	-0.802	-1.450	0.621	-18.738	62.073	-106.995	-90.15	-30.78	-30.68	-51.646	-15.778	80.360	-0.76657	0.51111	-0.38699	0.03564	30.9	13111	100
2025-3-27 18:47:6.254	WT901BLE68-01(48591DE3C19B)	-0.802	-1.537	0.637	-5.005	63.232	-78.247	-89.78	-31.42	-31.45	-51.646	-15.778	80.360	-0.76657	0.51111	-0.38699	0.03564	30.9	13111	100
2025-3-27 18:47:6.254	WT901BLE68-01(48591DE3C19B)	-0.761	-1.537	0.637	-5.005	63.232	-78.247	-89.32	-31.89	-32.24	-51.646	-15.778	80.360	-0.76657	0.51111	-0.38699	0.03564	30.9	13111	100
2025-3-27 18:47:6.254	WT901BLE68-01(48591DE3C19B)	-0.761	-1.532	0.583	6.104	69.702	-46.814	-88.79	-32.20	-33.06	-51.646	-15.778	80.360	-0.76657	0.51111	-0.38699	0.03564	30.9	13111	100
2025-3-27 18:47:6.254	WT901BLE68-01(48591DE3C19B)	-0.745	-1.532	0.583	6.104	69.702	-46.814	-88.17	-32.34	-33.93	-51.646	-15.778	80.360	-0.76657	0.51111	-0.38699	0.03564	30.9	13111	100
2025-3-27 18:47:6.282	WT901BLE68-01(48591DE3C19B)	-0.745	-1.472	0.522	15.259	75.745	-7.507	-87.50	-32.27	-34.81	-51.646	-15.778	80.360	-0.76657	0.51111	-0.38699	0.03564	30.9	13111	100
2025-3-27 18:47:6.282	WT901BLE68-01(48591DE3C19B)	-0.774	-1.472	0.522	15.259	75.745	-7.507	-86.78	-31.99	-35.72	-51.646	-15.778	80.360	-0.76657	0.51111	-0.38699	0.03564	30.9	13111	100
2025-3-27 18:47:6.283	WT901BLE68-01(48591DE3C19B)	-0.774	-1.217	0.512	21.790	64.758	35.583	-86.08	-31.49	-36.53	-51.646	-15.778	80.360	-0.76657	0.51111	-0.38699	0.03564	30.9	13111	100
2025-3-27 18:47:6.283	WT901BLE68-01(48591DE3C19B)	-0.778	-1.217	0.512	21.790	64.758	35.583	-85.40	-30.77	-37.24	-51.646	-15.778	80.360	-0.76657	0.51111	-0.38699	0.03564	30.9	13111	100
2025-3-27 18:47:6.315	WT901BLE68-01(48591DE3C19B)	-0.778	-1.053	0.521	18.860	34.668	78.979	-84.86	-29.84	-37.75	-51.646	-15.778	80.360	-0.76657	0.51111	-0.38699	0.03564	30.9	13111	100
2025-3-27 18:47:6.316	WT901BLE68-01(48591DE3C19B)	-0.729	-1.053	0.521	18.860	34.668	78.979	-84.45	-28.71	-38.04	-51.646	-15.778	80.360	-0.76657	0.51111	-0.38699	0.03564	30.9	13111	100
2025-3-27 18:47:6.316	WT901BLE68-01(48591DE3C19B)	-0.729	-1.029	0.442	20.874	4.028	119.873	-84.13	-27.38	-38.12	-51.646	-15.778	80.360	-0.76657	0.51111	-0.38699	0.03564	30.9	13111	100
2025-3-27 18:47:6.316	WT901BLE68-01(48591DE3C19B)	-0.588	-1.029	0.442	20.874	4.028	119.873	-83.90	-25.88	-38.00	-51.646	-15.778	80.360	-0.76657	0.51111	-0.38699	0.03564	30.9	13111	100
2025-3-27 18:47:6.405	WT901BLE68-01(48591DE3C19B)	-0.588	-0.950	0.307	26.733	-21.912	156.311	-83.70	-24.21	-37.72	-51.646	-15.778	80.360	-0.76657	0.51111	-0.38699	0.03564	30.9	13111	100
2025-3-27 18:47:6.405	WT901BLE68-01(48591DE3C19B)	-0.470	-0.950	0.307	26.733	-21.912	156.311	-83.54	-22.38	-37.26	-51.646	-15.778	80.360	-0.65192	0.66547	-0.07156	0.35626	30.9	13111	100
2025-3-27 18:47:6.405	WT901BLE68-01(48591DE3C19B)	-0.470	-0.991	0.198	30.579	-43.396	187.805	-83.40	-20.43	-36.67	-51.646	-15.778	80.360	-0.65192	0.66547	-0.07156	0.35626	30.9	13111	100
2025-3-27 18:47:6.405	WT901BLE68-01(48591DE3C19B)	-0.446	-0.991	0.198	30.579	-43.396	187.805	-83.26	-18.34	-35.96	-51.646	-15.778	80.360	-0.65192	0.66547	-0.07156	0.35626	30.9	13111	100
2025-3-27 18:47:6.433	WT901BLE68-01(48591DE3C19B)	-0.446	-1.179	0.143	36.987	-62.256	209.534	-83.10	-16.17	-35.14	-51.646	-15.778	80.360	-0.65192	0.66547	-0.07156	0.35626	30.9	13111	100
2025-3-27 18:47:6.433	WT901BLE68-01(48591DE3C19B)	-0.447	-1.179	0.143	36.987	-62.256	209.534	-82.92	-13.93	-34.21	-51.646	-15.778	80.360	-0.65192	0.66547	-0.07156	0.35626	30.9	13111	100
2025-3-27 18:47:6.433	WT901BLE68-01(48591DE3C19B)	-0.447	-1.408	0.150	49.988	-83.984	222.839	-82.67	-11.65	-33.17	-51.646	-15.778	80.360	-0.65192	0.66547	-0.07156	0.35626	30.9	13111	100
2025-3-27 18:47:6.433	WT901BLE68-01(48591DE3C19B)	-0.383	-1.408	0.150	49.988	-83.984	222.839	-82.34	-9.34	-32.01	-51.646	-15.778	80.360	-0.65192	0.66547	-0.07156	0.35626	30.9	13111	100
2025-3-27 18:47:6.435	WT901BLE68-01(48591DE3C19B)	-0.383	-1.617	0.146	68.542	-98.022	229.980	-81.88	-7.03	-30.78	-51.646	-15.778	80.360	-0.65192	0.66547	-0.07156	0.35626	30.9	13111	100
2025-3-27 18:47:6.435	WT901BLE68-01(48591DE3C19B)	-0.281	-1.617	0.146	68.542	-98.022	229.980	-81.31	-4.73	-29.47	-51.646	-15.778	80.360	-0.65192	0.66547	-0.07156	0.35626	30.9	13111	100
2025-3-27 18:47:6.435	WT901BLE68-01(48591DE3C19B)	-0.281	-1.691	0.134	89.844	-92.285	234.558	-80.58	-2.44	-28.16	-51.646	-15.778	80.360	-0.65192	0.66547	-0.07156	0.35626	30.9	13111	100
2025-3-27 18:47:6.435	WT901BLE68-01(48591DE3C19B)	-0.239	-1.691	0.134	89.844	-92.285	234.558	-79.71	-0.16	-26.86	-51.646	-15.778	80.360	-0.65192	0.66547	-0.07156	0.35626	30.9	13111	100
2025-3-27 18:47:6.493	WT901BLE68-01(48591DE3C19B)	-0.239	-1.617	0.148	103.577	-72.937	237.854	-78.72	2.10	-25.62	-51.646	-15.778	80.360	-0.65192	0.66547	-0.07156	0.35626	30.9	13111	100
2025-3-27 18:47:6.493	WT901BLE68-01(48591DE3C19B)	-0.233	-1.617	0.148	103.577	-72.937	237.854	-77.62	4.37	-24.44	-51.646	-15.778	80.360	-0.65192	0.66547	-0.07156	0.35626	30.9	13111	100
2025-3-27 18:47:6.493	WT901BLE68-01(48591DE3C19B)	-0.233	-1.489	0.172	108.093	-50.964	240.051	-76.48	6.62	-23.32	-51.646	-15.778	80.360	-0.65192	0.66547	-0.07156	0.35626	30.9	13111	100
2025-3-27 18:47:6.493	WT901BLE68-01(48591DE3C19B)	-0.221	-1.489	0.172	108.093	-50.964	240.051	-75.28	8.88	-22.26	-51.646	-15.778	80.360	-0.65192	0.66547	-0.07156	0.35626	30.9	13111	100
2025-3-27 18:47:6.525	WT901BLE68-01(48591DE3C19B)	-0.221	-1.405	0.211	107.483	-28.870	243.835	-74.06	11.13	-21.26	-51.646	-15.778	80.360	-0.65192	0.66547	-0.07156	0.35626	30.9	13111	100
2025-3-27 18:47:6.525	WT901BLE68-01(48591DE3C19B)	-0.185	-1.405	0.211	107.483	-28.870	243.835	-72.82	13.40	-20.30	-51.646	-15.778	80.360	-0.65192	0.66547	-0.07156	0.35626	30.9	13111	100
2025-3-27 18:47:6.526	WT901BLE68-01(48591DE3C19B)	-0.185	-1.395	0.209	102.600	-4.272	249.390	-71.64	15.77	-19.52	-51.646	-15.778	80.360	-0.65192	0.66547	-0.07156	0.35626	30.9	13111	100
2025-3-27 18:47:6.526	WT901BLE68-01(48591DE3C19B)	-0.156	-1.395	0.209	102.600	-4.272	249.390	-70.42	18.09	-18.68	-51.646	-15.778	80.360	-0.65192	0.66547	-0.07156	0.35626	30.9	13111	100
2025-3-27 18:47:6.555	WT901BLE68-01(48591DE3C19B)	-0.156	-1.400	0.149	96.008	20.386	254.578	-69.30	20.51	-18.01	-51.646	-15.778	80.360	-0.65192	0.66547	-0.07156	0.35626	30.9	13111	100
2025-3-27 18:47:6.555	WT901BLE68-01(48591DE3C19B)	-0.165	-1.400	0.149	96.008	20.386	254.578	-68.13	22.90	-17.28	-51.646	-15.778	80.360	-0.65192	0.66547	-0.07156	0.35626	30.9	13111	100
2025-3-27 18:47:6.555	WT901BLE68-01(48591DE3C19B)	-0.165	-1.393	0.088	84.290	36.987	257.324	-67.10	25.35	-16.64	-42.042	-6.272	79.674	-0.65192	0.66547	-0.07156	0.35626	30.9	13111	100
2025-3-27 18:47:6.555	WT901BLE68-01(48591DE3C19B)	-0.220	-1.393	0.088	84.290	36.987	257.324	-66.02	27.77	-15.95	-42.042	-6.272	79.674	-0.65192	0.66547	-0.07156	0.35626	30.9	13111	100
2025-3-27 18:47:6.614	WT901BLE68-01(48591DE3C19B)	-0.220	-1.500	0.032	69.275	42.480	256.042	-65.08	30.17	-15.27	-42.042	-6.272	79.674	-0.65192	0.66547	-0.07156	0.35626	30.9	13111	100
2025-3-27 18:47:6.614	WT901BLE68-01(48591DE3C19B)	-0.287	-1.500	0.032	69.275	42.480	256.042	-64.09	32.56	-14.52	-42.042	-6.272	79.674	-0.65192	0.66547	-0.07156	0.35626	30.9	13111	100
2025-3-27 18:47:6.614	WT901BLE68-01(48591DE3C19B)	-0.287	-1.704	-0.025	57.678	27.344	249.634	-63.09	34.78	-13.57	-42.042	-6.272	79.674	-0.65192	0.66547	-0.07156	0.35626	30.9	13111	100
2025-3-27 18:47:6.614	WT901BLE68-01(48591DE3C19B)	-0.231	-1.704	-0.025	57.678	27.344	249.634	-62.03	36.99	-12.56	-42.042	-6.272	79.674	-0.65192	0.66547	-0.07156	0.35626	30.9	13111	100
2025-3-27 18:47:6.642	WT901BLE68-01(48591DE3C19B)	-0.231	-1.940	-0.085	49.500	12.024	235.962	-60.92	38.96	-11.39	-42.042	-6.272	79.674	-0.65192	0.66547	-0.07156	0.35626	30.9	13111	100
2025-3-27 18:47:6.642	WT901BLE68-01(48591DE3C19B)	-0.109	-1.940	-0.085	49.500	12.024	235.962	-59.75	40.91	-10.15	-42.042	-6.272	79.674	-0.65192	0.66547	-0.07156	0.35626	30.9	13111	100
2025-3-27 18:47:6.643	WT901BLE68-01(48591DE3C19B)	-0.109	-2.133	-0.160	43.762	6.287	216.003	-58.61	42.63	-8.89	-42.042	-6.272	79.674	-0.65192	0.66547	-0.07156	0.35626	30.9	13111	100
2025-3-27 18:47:6.643	WT901BLE68-01(48591DE3C19B)	0.122	-2.133	-0.160	43.762	6.287	216.003	-57.39	44.31	-7.57	-42.042	-6.272	79.674	-0.65192	0.66547	-0.07156	0.35626	30.9	13111	100
2025-3-27 18:47:6.673	WT901BLE68-01(48591DE3C19B)	0.122	-2.125	-0.160	38.269	-2.686	185.425	-56.26	45.65	-6.31	-42.042	-6.272	79.674	-0.65192	0.66547	-0.07156	0.35626	30.9	13111	100
2025-3-27 18:47:6.673	WT901BLE68-01(48591DE3C19B)	0.387	-2.125	-0.160	38.269	-2.686	185.425	-55.07	46.97	-4.98	-42.042	-6.272	79.674	-0.65192	0.66547	-0.07156	0.35626	30.9	13111	100
2025-3-27 18:47:6.673	WT901BLE68-01(48591DE3C19B)	0.387	-2.057	0.012	32.410	-20.325	153.809	-53.92	47.89	-3.66	-42.042	-6.272	79.674	-0.65192	0.66547	-0.07156	0.35626	30.9	13111	100
2025-3-27 18:47:6.673	WT901BLE68-01(48591DE3C19B)	0.388	-2.057	0.012	32.410	-20.325	153.809	-52.73	48.78	-2.31	-42.042	-6.272	79.674	-0.65192	0.66547	-0.07156	0.35626	30.9	13111	100
2025-3-27 18:47:6.734	WT901BLE68-01(48591DE3C19B)	0.388	-1.792	0.148	28.198	-12.207	132.629	-51.77	49.53	-1.20	-42.042	-6.272	79.674	-0.65192	0.66547	-0.07156	0.35626	30.9	13111	100
2025-3-27 18:47:6.734	WT901BLE68-01(48591DE3C19B)	0.304	-1.792	0.148	28.198	-12.207	132.629	-50.78	50.25	-0.08	-42.042	-6.272	79.674	-0.65192	0.66547	-0.07156	0.35626	30.9	13111	100
2025-3-27 18:47:6.734	WT901BLE68-01(48591DE3C19B)	0.304	-1.415	0.170	18.494	10.193	95.825	-50.35	50.81	0.43	-42.042	-6.272	79.674	-0.65192	0.66547	-0.07156	0.35626	30.9	13111	100
2025-3-27 18:47:6.734	WT901BLE68-01(48591DE3C19B)	0.383	-1.415	0.170	18.494	10.193	95.825	-49.91	51.36	0.94	-42.042	-6.272	79.674	-0.65192	0.66547	-0.07156	0.35626	30.9	13111	100
2025-3-27 18:47:6.765	WT901BLE68-01(48591DE3C19B)	0.383	-1.184	0.130	1.648	39.551	54.810	-50.24	51.77	0.69	-42.042	-6.272	79.674	-0.65192	0.66547	-0.07156	0.35626	30.9	13111	100
2025-3-27 18:47:6.765	WT901BLE68-01(48591DE3C19B)	0.454	-1.184	0.130	1.648	39.551	54.810	-50.58	52.19	0.41	-42.042	-6.272	79.674	-0.65192	0.66547	-0.07156	0.35626	30.9	13111	100
2025-3-27 18:47:6.766	WT901BLE68-01(48591DE3C19B)	0.454	-1.028	0.117	-15.503	71.411	12.634	-51.76	52.45	-0.70	-42.042	-6.272	79.674	-0.65192	0.66547	-0.07156	0.35626	30.9	13111	100
2025-3-27 18:47:6.766	WT901BLE68-01(48591DE3C19B)	0.396	-1.028	0.117	-15.503	71.411	12.634	-52.95	52.70	-1.85	-42.042	-6.272	79.674	-0.80515	0.39304	-0.40369	-0.18494	30.9	13111	100
2025-3-27 18:47:6.824	WT901BLE68-01(48591DE3C19B)	0.396	-0.981	0.163	-30.151	83.252	-31.006	-54.76	52.64	-3.58	-42.042	-6.272	79.674	-0.80515	0.39304	-0.40369	-0.18494	30.9	13111	100
2025-3-27 18:47:6.824	WT901BLE68-01(48591DE3C19B)	0.311	-0.981	0.163	-30.151	83.252	-31.006	-56.55	52.55	-5.30	-42.042	-6.272	79.674	-0.80515	0.39304	-0.40369	-0.18494	30.9	13111	100
2025-3-27 18:47:6.824	WT901BLE68-01(48591DE3C19B)	0.311	-0.949	0.186	-35.400	76.477	-71.594	-58.56	52.03	-7.26	-42.042	-6.272	79.674	-0.80515	0.39304	-0.40369	-0.18494	30.9	13111	100
2025-3-27 18:47:6.824	WT901BLE68-01(48591DE3C19B)	0.182	-0.949	0.186	-35.400	76.477	-71.594	-60.51	51.48	-9.16	-42.042	-6.272	79.674	-0.80515	0.39304	-0.40369	-0.18494	30.9	13111	100
2025-3-27 18:47:6.852	WT901BLE68-01(48591DE3C19B)	0.182	-0.971	0.182	-39.001	63.232	-110.474	-62.50	50.48	-11.10	-42.042	-6.272	79.674	-0.80515	0.39304	-0.40369	-0.18494	30.9	13111	100
2025-3-27 18:47:6.853	WT901BLE68-01(48591DE3C19B)	0.025	-0.971	0.182	-39.001	63.232	-110.474	-64.39	49.45	-12.94	-42.042	-6.272	79.674	-0.80515	0.39304	-0.40369	-0.18494	30.9	13111	100
2025-3-27 18:47:6.853	WT901BLE68-01(48591DE3C19B)	0.025	-1.012	0.166	-36.865	45.593	-144.592	-66.12	48.01	-14.66	-42.042	-6.272	79.674	-0.80515	0.39304	-0.40369	-0.18494	30.9	13111	100
2025-3-27 18:47:6.853	WT901BLE68-01(48591DE3C19B)	-0.117	-1.012	0.166	-36.865	45.593	-144.592	-67.73	46.54	-16.25	-42.042	-6.272	79.674	-0.80515	0.39304	-0.40369	-0.18494	30.9	13111	100
2025-3-27 18:47:6.883	WT901BLE68-01(48591DE3C19B)	-0.117	-1.032	0.116	-31.799	25.879	-176.208	-69.11	44.70	-17.63	-42.042	-6.272	79.674	-0.80515	0.39304	-0.40369	-0.18494	30.9	13111	100
2025-3-27 18:47:6.883	WT901BLE68-01(48591DE3C19B)	-0.178	-1.032	0.116	-31.799	25.879	-176.208	-70.37	42.85	-18.91	-42.042	-6.272	79.674	-0.80515	0.39304	-0.40369	-0.18494	30.9	13111	100
2025-3-27 18:47:6.883	WT901BLE68-01(48591DE3C19B)	-0.178	-1.010	0.058	-26.733	7.507	-202.637	-71.41	40.69	-19.97	-42.042	-6.272	79.674	-0.80515	0.39304	-0.40369	-0.18494	30.9	13111	100
2025-3-27 18:47:6.883	WT901BLE68-01(48591DE3C19B)	-0.231	-1.010	0.058	-26.733	7.507	-202.637	-72.36	38.54	-20.95	-42.042	-6.272	79.674	-0.80515	0.39304	-0.40369	-0.18494	30.9	13111	100
2025-3-27 18:47:6.943	WT901BLE68-01(48591DE3C19B)	-0.231	-0.958	0.077	-28.381	-8.301	-227.539	-73.19	36.12	-21.74	-42.042	-6.272	79.674	-0.80515	0.39304	-0.40369	-0.18494	30.9	13111	100
2025-3-27 18:47:6.944	WT901BLE68-01(48591DE3C19B)	-0.224	-0.958	0.077	-28.381	-8.301	-227.539	-73.94	33.70	-22.47	-42.042	-6.272	79.674	-0.80515	0.39304	-0.40369	-0.18494	30.9	13111	100
2025-3-27 18:47:6.944	WT901BLE68-01(48591DE3C19B)	-0.224	-0.979	0.085	-36.072	-28.137	-250.305	-74.64	31.03	-22.98	-42.042	-6.272	79.674	-0.80515	0.39304	-0.40369	-0.18494	30.9	13111	100
2025-3-27 18:47:6.944	WT901BLE68-01(48591DE3C19B)	-0.184	-0.979	0.085	-36.072	-28.137	-250.305	-75.28	28.37	-23.45	-42.042	-6.272	79.674	-0.80515	0.39304	-0.40369	-0.18494	30.9	13111	100
2025-3-27 18:47:6.972	WT901BLE68-01(48591DE3C19B)	-0.184	-1.017	0.115	-41.992	-36.926	-267.822	-75.92	25.54	-23.82	-38.808	-8.722	81.536	-0.80515	0.39304	-0.40369	-0.18494	30.9	13111	100
2025-3-27 18:47:6.972	WT901BLE68-01(48591DE3C19B)	-0.201	-1.017	0.115	-41.992	-36.926	-267.822	-76.51	22.73	-24.14	-38.808	-8.722	81.536	-0.80515	0.39304	-0.40369	-0.18494	30.9	13111	100
2025-3-27 18:47:6.972	WT901BLE68-01(48591DE3C19B)	-0.201	-1.063	0.144	-48.828	-35.217	-281.250	-77.16	19.81	-24.48	-38.808	-8.722	81.536	-0.80515	0.39304	-0.40369	-0.18494	30.9	13111	100
2025-3-27 18:47:6.972	WT901BLE68-01(48591DE3C19B)	-0.252	-1.063	0.144	-48.828	-35.217	-281.250	-77.78	16.91	-24.77	-38.808	-8.722	81.536	-0.80515	0.39304	-0.40369	-0.18494	30.9	13111	100
2025-3-27 18:47:7.3	WT901BLE68-01(48591DE3C19B)	-0.334	-1.113	0.189	-54.199	-25.696	-291.321	-78.45	13.95	-25.14	-38.808	-8.722	81.536	-0.80515	0.39304	-0.40369	-0.18494	30.9	13111	100
2025-3-27 18:47:7.4	WT901BLE68-01(48591DE3C19B)	-0.334	-1.139	0.257	-60.242	-14.526	-298.279	-79.13	10.98	-25.54	-38.808	-8.722	81.536	-0.80515	0.39304	-0.40369	-0.18494	30.9	13111	100
2025-3-27 18:47:7.4	WT901BLE68-01(48591DE3C19B)	-0.405	-1.139	0.257	-60.242	-14.526	-298.279	-79.82	8.01	-25.95	-38.808	-8.722	81.536	-0.80515	0.39304	-0.40369	-0.18494	30.9	13111	100
2025-3-27 18:47:7.4	WT901BLE68-01(48591DE3C19B)	-0.405	-1.191	0.324	-63.965	-9.766	-300.171	-80.50	5.05	-26.35	-38.808	-8.722	81.536	-0.80515	0.39304	-0.40369	-0.18494	30.9	13111	100
2025-3-27 18:47:7.93	WT901BLE68-01(48591DE3C19B)	-0.505	-1.191	0.324	-63.965	-9.766	-300.171	-81.16	2.11	-26.74	-38.808	-8.722	81.536	-0.80515	0.39304	-0.40369	-0.18494	30.9	13111	100
2025-3-27 18:47:7.93	WT901BLE68-01(48591DE3C19B)	-0.505	-1.248	0.416	-60.913	-19.714	-295.410	-81.78	-0.79	-27.03	-38.808	-8.722	81.536	-0.80515	0.39304	-0.40369	-0.18494	30.9	13111	100
2025-3-27 18:47:7.94	WT901BLE68-01(48591DE3C19B)	-0.607	-1.248	0.416	-60.913	-19.714	-295.410	-82.37	-3.65	-27.25	-38.808	-8.722	81.536	-0.80515	0.39304	-0.40369	-0.18494	30.9	13111	100
2025-3-27 18:47:7.94	WT901BLE68-01(48591DE3C19B)	-0.607	-1.280	0.542	-51.575	-49.316	-283.875	-82.90	-6.46	-27.28	-38.808	-8.722	81.536	-0.80515	0.39304	-0.40369	-0.18494	30.9	13111	100
2025-3-27 18:47:7.95	WT901BLE68-01(48591DE3C19B)	-0.626	-1.280	0.542	-51.575	-49.316	-283.875	-83.40	-9.20	-27.14	-38.808	-8.722	81.536	-0.80515	0.39304	-0.40369	-0.18494	30.9	13111	100
2025-3-27 18:47:7.95	WT901BLE68-01(48591DE3C19B)	-0.626	-1.292	0.599	-44.495	-80.505	-268.188	-83.90	-11.86	-26.80	-38.808	-8.722	81.536	-0.80515	0.39304	-0.40369	-0.18494	30.9	13111	100
2025-3-27 18:47:7.95	WT901BLE68-01(48591DE3C19B)	-0.520	-1.292	0.599	-44.495	-80.505	-268.188	-84.41	-14.43	-26.28	-38.808	-8.722	81.536	-0.80515	0.39304	-0.40369	-0.18494	30.9	13111	100
2025-3-27 18:47:7.95	WT901BLE68-01(48591DE3C19B)	-0.520	-1.321	0.580	-37.598	-72.144	-249.512	-84.89	-16.88	-25.77	-38.808	-8.722	81.536	-0.80515	0.39304	-0.40369	-0.18494	30.9	13111	100
2025-3-27 18:47:7.124	WT901BLE68-01(48591DE3C19B)	-0.529	-1.321	0.580	-37.598	-72.144	-249.512	-85.35	-19.22	-25.27	-38.808	-8.722	81.536	-0.80515	0.39304	-0.40369	-0.18494	30.9	13111	100
2025-3-27 18:47:7.125	WT901BLE68-01(48591DE3C19B)	-0.529	-1.358	0.506	-35.034	-35.339	-223.755	-85.75	-21.40	-24.93	-38.808	-8.722	81.536	-0.80515	0.39304	-0.40369	-0.18494	30.9	13111	100
2025-3-27 18:47:7.125	WT901BLE68-01(48591DE3C19B)	-0.628	-1.358	0.506	-35.034	-35.339	-223.755	-86.09	-23.41	-24.77	-38.808	-8.722	81.536	-0.80515	0.39304	-0.40369	-0.18494	30.9	13111	100
2025-3-27 18:47:7.125	WT901BLE68-01(48591DE3C19B)	-0.628	-1.435	0.501	-29.602	-13.123	-196.167	-86.36	-25.27	-24.71	-38.808	-8.722	81.536	-0.80515	0.39304	-0.40369	-0.18494	30.9	13111	100
2025-3-27 18:47:7.183	WT901BLE68-01(48591DE3C19B)	-0.733	-1.435	0.501	-29.602	-13.123	-196.167	-86.55	-26.98	-24.76	-38.808	-8.722	81.536	-0.80515	0.39304	-0.40369	-0.18494	30.9	13111	100
2025-3-27 18:47:7.184	WT901BLE68-01(48591DE3C19B)	-0.733	-1.525	0.659	-27.832	-11.414	-160.278	-86.74	-28.50	-24.80	-38.808	-8.722	81.536	-0.64938	0.68884	0.03564	0.32004	30.9	13111	100
2025-3-27 18:47:7.184	WT901BLE68-01(48591DE3C19B)	-0.771	-1.525	0.659	-27.832	-11.414	-160.278	-86.91	-29.82	-24.83	-38.808	-8.722	81.536	-0.64938	0.68884	0.03564	0.32004	30.9	13111	100
2025-3-27 18:47:7.184	WT901BLE68-01(48591DE3C19B)	-0.771	-1.677	0.771	-23.132	-9.644	-110.413	-87.06	-30.89	-24.87	-38.808	-8.722	81.536	-0.64938	0.68884	0.03564	0.32004	30.9	13111	100
2025-3-27 18:47:7.213	WT901BLE68-01(48591DE3C19B)	-0.750	-1.677	0.771	-23.132	-9.644	-110.413	-87.19	-31.70	-24.89	-38.808	-8.722	81.536	-0.64938	0.68884	0.03564	0.32004	30.9	13111	100
2025-3-27 18:47:7.213	WT901BLE68-01(48591DE3C19B)	-0.750	-1.639	0.752	-10.864	3.113	-50.781	-87.21	-32.21	-24.97	-38.808	-8.722	81.536	-0.64938	0.68884	0.03564	0.32004	30.9	13111	100
2025-3-27 18:47:7.213	WT901BLE68-01(48591DE3C19B)	-0.700	-1.639	0.752	-10.864	3.113	-50.781	-87.15	-32.40	-25.11	-38.808	-8.722	81.536	-0.64938	0.68884	0.03564	0.32004	30.9	13111	100
2025-3-27 18:47:7.213	WT901BLE68-01(48591DE3C19B)	-0.700	-1.472	0.673	-1.282	14.343	6.470	-87.01	-32.32	-25.31	-38.808	-8.722	81.536	-0.64938	0.68884	0.03564	0.32004	30.9	13111	100
2025-3-27 18:47:7.243	WT901BLE68-01(48591DE3C19B)	-0.586	-1.472	0.673	-1.282	14.343	6.470	-86.79	-31.94	-25.55	-38.808	-8.722	81.536	-0.64938	0.68884	0.03564	0.32004	30.9	13111	100
2025-3-27 18:47:7.243	WT901BLE68-01(48591DE3C19B)	-0.586	-1.288	0.608	3.235	12.573	60.913	-86.58	-31.29	-25.76	-38.808	-8.722	81.536	-0.64938	0.68884	0.03564	0.32004	30.9	13111	100
2025-3-27 18:47:7.243	WT901BLE68-01(48591DE3C19B)	-0.468	-1.288	0.608	3.235	12.573	60.913	-86.35	-30.38	-25.93	-38.808	-8.722	81.536	-0.64938	0.68884	0.03564	0.32004	30.9	13111	100
2025-3-27 18:47:7.243	WT901BLE68-01(48591DE3C19B)	-0.468	-1.121	0.595	11.597	17.334	105.896	-86.09	-29.25	-26.10	-38.808	-8.722	81.536	-0.64938	0.68884	0.03564	0.32004	30.9	13111	100
2025-3-27 18:47:7.304	WT901BLE68-01(48591DE3C19B)	-0.442	-1.121	0.595	11.597	17.334	105.896	-85.79	-27.89	-26.28	-38.808	-8.722	81.536	-0.64938	0.68884	0.03564	0.32004	30.9	13111	100
2025-3-27 18:47:7.304	WT901BLE68-01(48591DE3C19B)	-0.442	-0.957	0.560	23.071	29.663	142.822	-85.41	-26.36	-26.50	-38.808	-8.722	81.536	-0.64938	0.68884	0.03564	0.32004	30.9	13111	100
2025-3-27 18:47:7.304	WT901BLE68-01(48591DE3C19B)	-0.482	-0.957	0.560	23.071	29.663	142.822	-84.96	-24.64	-26.75	-38.808	-8.722	81.536	-0.64938	0.68884	0.03564	0.32004	30.9	13111	100
2025-3-27 18:47:7.304	WT901BLE68-01(48591DE3C19B)	-0.482	-0.891	0.477	30.945	41.504	171.692	-84.47	-22.79	-27.03	-38.808	-8.722	81.536	-0.64938	0.68884	0.03564	0.32004	30.9	13111	100
2025-3-27 18:47:7.335	WT901BLE68-01(48591DE3C19B)	-0.558	-0.891	0.477	30.945	41.504	171.692	-83.95	-20.79	-27.34	-38.808	-8.722	81.536	-0.64938	0.68884	0.03564	0.32004	30.9	13111	100
2025-3-27 18:47:7.335	WT901BLE68-01(48591DE3C19B)	-0.558	-0.940	0.369	38.757	49.133	193.481	-83.39	-18.68	-27.64	-38.808	-8.722	81.536	-0.64938	0.68884	0.03564	0.32004	30.9	13111	100
2025-3-27 18:47:7.335	WT901BLE68-01(48591DE3C19B)	-0.599	-0.940	0.369	38.757	49.133	193.481	-82.81	-16.47	-27.94	-38.808	-8.722	81.536	-0.64938	0.68884	0.03564	0.32004	30.9	13111	100
2025-3-27 18:47:7.335	WT901BLE68-01(48591DE3C19B)	-0.599	-1.067	0.254	45.166	44.312	208.618	-82.24	-14.19	-28.17	-38.808	-8.722	81.536	-0.64938	0.68884	0.03564	0.32004	30.9	13111	100
2025-3-27 18:47:7.364	WT901BLE68-01(48591DE3C19B)	-0.589	-1.067	0.254	45.166	44.312	208.618	-81.67	-11.85	-28.34	-38.808	-8.722	81.536	-0.64938	0.68884	0.03564	0.32004	30.9	13111	100
2025-3-27 18:47:7.365	WT901BLE68-01(48591DE3C19B)	-0.589	-1.226	0.181	52.368	24.170	219.177	-81.10	-9.48	-28.37	-38.808	-8.722	81.536	-0.64938	0.68884	0.03564	0.32004	30.9	13111	100
2025-3-27 18:47:7.365	WT901BLE68-01(48591DE3C19B)	-0.549	-1.226	0.181	52.368	24.170	219.177	-80.52	-7.08	-28.26	-55.566	-5.880	83.300	-0.64938	0.68884	0.03564	0.32004	30.9	13111	100
2025-3-27 18:47:7.365	WT901BLE68-01(48591DE3C19B)	-0.549	-1.388	0.177	61.157	-1.404	225.403	-79.93	-4.70	-27.99	-55.566	-5.880	83.300	-0.64938	0.68884	0.03564	0.32004	30.9	13111	100
2025-3-27 18:47:7.423	WT901BLE68-01(48591DE3C19B)	-0.461	-1.388	0.177	61.157	-1.404	225.403	-79.30	-2.32	-27.57	-55.566	-5.880	83.300	-0.64938	0.68884	0.03564	0.32004	30.9	13111	100
2025-3-27 18:47:7.424	WT901BLE68-01(48591DE3C19B)	-0.461	-1.522	0.191	72.571	-20.264	229.431	-78.61	0.03	-27.03	-55.566	-5.880	83.300	-0.64938	0.68884	0.03564	0.32004	30.9	13111	100
2025-3-27 18:47:7.424	WT901BLE68-01(48591DE3C19B)	-0.380	-1.522	0.191	72.571	-20.264	229.431	-77.84	2.36	-26.37	-55.566	-5.880	83.300	-0.64938	0.68884	0.03564	0.32004	30.9	13111	100
2025-3-27 18:47:7.424	WT901BLE68-01(48591DE3C19B)	-0.380	-1.540	0.210	84.167	-31.616	231.323	-77.00	4.66	-25.61	-55.566	-5.880	83.300	-0.64938	0.68884	0.03564	0.32004	30.9	13111	100
2025-3-27 18:47:7.483	WT901BLE68-01(48591DE3C19B)	-0.318	-1.540	0.210	84.167	-31.616	231.323	-76.07	6.93	-24.77	-55.566	-5.880	83.300	-0.64938	0.68884	0.03564	0.32004	30.9	13111	100
2025-3-27 18:47:7.483	WT901BLE68-01(48591DE3C19B)	-0.318	-1.471	0.241	89.661	-35.706	232.361	-75.08	9.16	-23.88	-55.566	-5.880	83.300	-0.64938	0.68884	0.03564	0.32004	30.9	13111	100
2025-3-27 18:47:7.483	WT901BLE68-01(48591DE3C19B)	-0.283	-1.471	0.241	89.661	-35.706	232.361	-74.02	11.36	-22.92	-55.566	-5.880	83.300	-0.64938	0.68884	0.03564	0.32004	30.9	13111	100
2025-3-27 18:47:7.484	WT901BLE68-01(48591DE3C19B)	-0.283	-1.394	0.261	92.163	-29.785	233.276	-72.91	13.55	-21.97	-55.566	-5.880	83.300	-0.64938	0.68884	0.03564	0.32004	30.9	13111	100
2025-3-27 18:47:7.485	WT901BLE68-01(48591DE3C19B)	-0.231	-1.394	0.261	92.163	-29.785	233.276	-71.76	15.70	-20.98	-55.566	-5.880	83.300	-0.64938	0.68884	0.03564	0.32004	30.9	13111	100
2025-3-27 18:47:7.485	WT901BLE68-01(48591DE3C19B)	-0.231	-1.276	0.255	91.980	-14.221	236.877	-70.61	17.90	-20.08	-55.566	-5.880	83.300	-0.64938	0.68884	0.03564	0.32004	30.9	13111	100
2025-3-27 18:47:7.485	WT901BLE68-01(48591DE3C19B)	-0.193	-1.276	0.255	91.980	-14.221	236.877	-69.42	20.06	-19.13	-55.566	-5.880	83.300	-0.64938	0.68884	0.03564	0.32004	30.9	13111	100
2025-3-27 18:47:7.485	WT901BLE68-01(48591DE3C19B)	-0.193	-1.179	0.223	85.144	6.714	239.685	-68.31	22.29	-18.32	-55.566	-5.880	83.300	-0.64938	0.68884	0.03564	0.32004	30.9	13111	100
2025-3-27 18:47:7.543	WT901BLE68-01(48591DE3C19B)	-0.199	-1.179	0.223	85.144	6.714	239.685	-67.16	24.49	-17.45	-55.566	-5.880	83.300	-0.64938	0.68884	0.03564	0.32004	30.9	13111	100
2025-3-27 18:47:7.543	WT901BLE68-01(48591DE3C19B)	-0.199	-1.145	0.175	75.073	24.414	241.150	-66.14	26.74	-16.70	-55.566	-5.880	83.300	-0.64938	0.68884	0.03564	0.32004	30.9	13111	100
2025-3-27 18:47:7.543	WT901BLE68-01(48591DE3C19B)	-0.239	-1.145	0.175	75.073	24.414	241.150	-65.07	28.96	-15.90	-55.566	-5.880	83.300	-0.64938	0.68884	0.03564	0.32004	30.9	13111	100
2025-3-27 18:47:7.543	WT901BLE68-01(48591DE3C19B)	-0.239	-1.208	0.147	60.669	28.076	238.281	-64.12	31.14	-15.09	-55.566	-5.880	83.300	-0.64938	0.68884	0.03564	0.32004	30.9	13111	100
2025-3-27 18:47:7.573	WT901BLE68-01(48591DE3C19B)	-0.272	-1.208	0.147	60.669	28.076	238.281	-63.12	33.30	-14.22	-55.566	-5.880	83.300	-0.64938	0.68884	0.03564	0.32004	30.9	13111	100
2025-3-27 18:47:7.573	WT901BLE68-01(48591DE3C19B)	-0.272	-1.336	0.129	50.964	18.250	231.384	-62.12	35.32	-13.23	-55.566	-5.880	83.300	-0.64938	0.68884	0.03564	0.32004	30.9	13111	100
2025-3-27 18:47:7.574	WT901BLE68-01(48591DE3C19B)	-0.277	-1.336	0.129	50.964	18.250	231.384	-61.06	37.32	-12.17	-55.566	-5.880	83.300	-0.64938	0.68884	0.03564	0.32004	30.9	13111	100
2025-3-27 18:47:7.574	WT901BLE68-01(48591DE3C19B)	-0.277	-1.466	0.094	46.631	1.343	222.107	-59.91	39.12	-10.91	-55.566	-5.880	83.300	-0.82858	0.44073	-0.33350	-0.08878	30.9	13111	100
2025-3-27 18:47:7.605	WT901BLE68-01(48591DE3C19B)	-0.231	-1.466	0.094	46.631	1.343	222.107	-58.68	40.89	-9.58	-55.566	-5.880	83.300	-0.82858	0.44073	-0.33350	-0.08878	30.9	13111	100
2025-3-27 18:47:7.606	WT901BLE68-01(48591DE3C19B)	-0.231	-1.571	0.037	43.640	-9.827	210.938	-57.37	42.47	-8.12	-55.566	-5.880	83.300	-0.82858	0.44073	-0.33350	-0.08878	30.9	13111	100
2025-3-27 18:47:7.606	WT901BLE68-01(48591DE3C19B)	-0.140	-1.571	0.037	43.640	-9.827	210.938	-55.99	44.02	-6.59	-55.566	-5.880	83.300	-0.82858	0.44073	-0.33350	-0.08878	30.9	13111	100
2025-3-27 18:47:7.606	WT901BLE68-01(48591DE3C19B)	-0.140	-1.665	-0.039	37.964	-13.489	192.017	-54.67	45.35	-5.09	-55.566	-5.880	83.300	-0.82858	0.44073	-0.33350	-0.08878	30.9	13111	100
2025-3-27 18:47:7.663	WT901BLE68-01(48591DE3C19B)	0.022	-1.665	-0.039	37.964	-13.489	192.017	-53.28	46.65	-3.52	-55.566	-5.880	83.300	-0.82858	0.44073	-0.33350	-0.08878	30.9	13111	100
2025-3-27 18:47:7.663	WT901BLE68-01(48591DE3C19B)	0.022	-1.762	-0.085	28.015	-10.010	163.635	-52.15	47.71	-2.18	-55.566	-5.880	83.300	-0.82858	0.44073	-0.33350	-0.08878	30.9	13111	100
2025-3-27 18:47:7.663	WT901BLE68-01(48591DE3C19B)	0.211	-1.762	-0.085	28.015	-10.010	163.635	-50.97	48.74	-0.79	-55.566	-5.880	83.300	-0.82858	0.44073	-0.33350	-0.08878	30.9	13111	100
2025-3-27 18:47:7.663	WT901BLE68-01(48591DE3C19B)	0.211	-1.797	-0.024	18.799	-8.179	132.324	-50.09	49.50	0.30	-55.566	-5.880	83.300	-0.82858	0.44073	-0.33350	-0.08878	30.9	13111	100
2025-3-27 18:47:7.692	WT901BLE68-01(48591DE3C19B)	0.265	-1.797	-0.024	18.799	-8.179	132.324	-49.19	50.26	1.43	-55.566	-5.880	83.300	-0.82858	0.44073	-0.33350	-0.08878	30.9	13111	100
2025-3-27 18:47:7.692	WT901BLE68-01(48591DE3C19B)	0.265	-1.653	0.104	12.756	-5.859	103.760	-48.57	50.78	2.26	-55.566	-5.880	83.300	-0.82858	0.44073	-0.33350	-0.08878	30.9	13111	100
2025-3-27 18:47:7.692	WT901BLE68-01(48591DE3C19B)	0.186	-1.653	0.104	12.756	-5.859	103.760	-47.94	51.30	3.09	-55.566	-5.880	83.300	-0.82858	0.44073	-0.33350	-0.08878	30.9	13111	100
2025-3-27 18:47:7.692	WT901BLE68-01(48591DE3C19B)	0.186	-1.387	0.217	8.240	5.005	70.435	-47.72	51.62	3.46	-55.566	-5.880	83.300	-0.82858	0.44073	-0.33350	-0.08878	30.9	13111	100
2025-3-27 18:47:7.726	WT901BLE68-01(48591DE3C19B)	0.159	-1.387	0.217	8.240	5.005	70.435	-47.50	51.94	3.82	-55.566	-5.880	83.300	-0.82858	0.44073	-0.33350	-0.08878	30.9	13111	100
2025-3-27 18:47:7.726	WT901BLE68-01(48591DE3C19B)	0.159	-1.175	0.229	-1.343	19.897	27.832	-47.88	52.04	3.54	-55.566	-5.880	83.300	-0.82858	0.44073	-0.33350	-0.08878	30.9	13111	100
2025-3-27 18:47:7.726	WT901BLE68-01(48591DE3C19B)	0.200	-1.175	0.229	-1.343	19.897	27.832	-48.25	52.14	3.25	-55.566	-5.880	83.300	-0.82858	0.44073	-0.33350	-0.08878	30.9	13111	100
2025-3-27 18:47:7.726	WT901BLE68-01(48591DE3C19B)	0.200	-1.075	0.150	-8.850	47.668	-16.052	-49.33	52.08	2.16	-55.566	-5.880	83.300	-0.82858	0.44073	-0.33350	-0.08878	30.9	13111	100
2025-3-27 18:47:7.783	WT901BLE68-01(48591DE3C19B)	0.237	-1.075	0.150	-8.850	47.668	-16.052	-50.41	52.00	1.08	-55.566	-5.880	83.300	-0.82858	0.44073	-0.33350	-0.08878	30.9	13111	100
2025-3-27 18:47:7.783	WT901BLE68-01(48591DE3C19B)	0.237	-1.049	0.074	-21.729	76.843	-58.655	-52.23	51.76	-0.79	-25.186	-3.038	73.696	-0.82858	0.44073	-0.33350	-0.08878	30.9	13111	100
2025-3-27 18:47:7.783	WT901BLE68-01(48591DE3C19B)	0.256	-1.049	0.074	-21.729	76.843	-58.655	-54.01	51.47	-2.63	-25.186	-3.038	73.696	-0.82858	0.44073	-0.33350	-0.08878	30.9	13111	100
2025-3-27 18:47:7.784	WT901BLE68-01(48591DE3C19B)	0.256	-0.978	0.021	-29.968	98.572	-97.473	-56.34	50.95	-5.08	-25.186	-3.038	73.696	-0.82858	0.44073	-0.33350	-0.08878	30.9	13111	100
2025-3-27 18:47:7.813	WT901BLE68-01(48591DE3C19B)	0.180	-0.978	0.021	-29.968	98.572	-97.473	-58.59	50.37	-7.45	-25.186	-3.038	73.696	-0.82858	0.44073	-0.33350	-0.08878	30.9	13111	100
2025-3-27 18:47:7.813	WT901BLE68-01(48591DE3C19B)	0.180	-0.870	0.028	-40.527	107.117	-127.991	-61.13	49.50	-10.10	-25.186	-3.038	73.696	-0.82858	0.44073	-0.33350	-0.08878	30.9	13111	100
2025-3-27 18:47:7.813	WT901BLE68-01(48591DE3C19B)	0.004	-0.870	0.028	-40.527	107.117	-127.991	-63.54	48.57	-12.63	-25.186	-3.038	73.696	-0.82858	0.44073	-0.33350	-0.08878	30.9	13111	100
2025-3-27 18:47:7.813	WT901BLE68-01(48591DE3C19B)	0.004	-0.874	0.151	-53.040	88.562	-154.846	-65.90	47.25	-14.95	-25.186	-3.038	73.696	-0.82858	0.44073	-0.33350	-0.08878	30.9	13111	100
2025-3-27 18:47:7.843	WT901BLE68-01(48591DE3C19B)	-0.138	-0.874	0.151	-53.040	88.562	-154.846	-68.09	45.88	-17.13	-25.186	-3.038	73.696	-0.82858	0.44073	-0.33350	-0.08878	30.9	13111	100
2025-3-27 18:47:7.843	WT901BLE68-01(48591DE3C19B)	-0.138	-0.972	0.248	-50.598	47.485	-178.467	-69.82	44.10	-18.75	-25.186	-3.038	73.696	-0.82858	0.44073	-0.33350	-0.08878	30.9	13111	100
2025-3-27 18:47:7.843	WT901BLE68-01(48591DE3C19B)	-0.147	-0.972	0.248	-50.598	47.485	-178.467	-71.42	42.31	-20.25	-25.186	-3.038	73.696	-0.82858	0.44073	-0.33350	-0.08878	30.9	13111	100
2025-3-27 18:47:7.843	WT901BLE68-01(48591DE3C19B)	-0.147	-1.027	0.341	-31.128	45.654	-200.134	-72.73	40.30	-21.70	-25.186	-3.038	73.696	-0.82858	0.44073	-0.33350	-0.08878	30.9	13111	100
2025-3-27 18:47:7.935	WT901BLE68-01(48591DE3C19B)	-0.147	-1.027	0.341	-31.128	45.654	-200.134	-73.94	38.28	-23.04	-25.186	-3.038	73.696	-0.82858	0.44073	-0.33350	-0.08878	30.9	13111	100
2025-3-27 18:47:7.936	WT901BLE68-01(48591DE3C19B)	-0.147	-0.984	0.267	-25.879	46.143	-218.689	-75.03	36.07	-24.36	-25.186	-3.038	73.696	-0.82858	0.44073	-0.33350	-0.08878	30.9	13111	100
2025-3-27 18:47:7.936	WT901BLE68-01(48591DE3C19B)	-0.144	-0.984	0.267	-25.879	46.143	-218.689	-76.01	33.87	-25.58	-25.186	-3.038	73.696	-0.82858	0.44073	-0.33350	-0.08878	30.9	13111	100
2025-3-27 18:47:7.936	WT901BLE68-01(48591DE3C19B)	-0.166	-1.056	0.167	-26.855	44.189	-241.211	-76.94	31.44	-26.76	-25.186	-3.038	73.696	-0.82858	0.44073	-0.33350	-0.08878	30.9	13111	100
2025-3-27 18:47:7.965	WT901BLE68-01(48591DE3C19B)	-0.166	-1.182	0.133	-24.780	43.823	-264.404	-77.79	28.91	-27.90	-25.186	-3.038	73.696	-0.82858	0.44073	-0.33350	-0.08878	30.9	13111	100
2025-3-27 18:47:7.965	WT901BLE68-01(48591DE3C19B)	-0.254	-1.182	0.133	-24.780	43.823	-264.404	-78.56	26.26	-28.99	-25.186	-3.038	73.696	-0.82858	0.44073	-0.33350	-0.08878	30.9	13111	100
2025-3-27 18:47:7.965	WT901BLE68-01(48591DE3C19B)	-0.254	-1.280	0.173	-18.860	49.072	-284.546	-79.24	23.53	-30.06	-25.186	-3.038	73.696	-0.82858	0.44073	-0.33350	-0.08878	30.9	13111	100
2025-3-27 18:47:7.965	WT901BLE68-01(48591DE3C19B)	-0.297	-1.280	0.173	-18.860	49.072	-284.546	-79.85	20.71	-31.13	-25.186	-3.038	73.696	-0.82858	0.44073	-0.33350	-0.08878	30.9	13111	100
2025-3-27 18:47:7.966	WT901BLE68-01(48591DE3C19B)	-0.297	-1.330	0.217	-12.939	66.223	-300.232	-80.39	17.85	-32.24	-25.186	-3.038	73.696	-0.82858	0.44073	-0.33350	-0.08878	30.9	13111	100
2025-3-27 18:47:7.966	WT901BLE68-01(48591DE3C19B)	0.059	-1.330	0.217	-12.939	66.223	-300.232	-80.85	14.94	-33.41	-25.186	-3.038	73.696	-0.82858	0.44073	-0.33350	-0.08878	30.9	13111	100
2025-3-27 18:47:7.966	WT901BLE68-01(48591DE3C19B)	0.059	-1.447	0.425	7.935	185.852	-307.251	-81.28	12.09	-35.16	-25.186	-3.038	73.696	-0.74002	0.59326	-0.27179	0.16251	30.9	13111	100
2025-3-27 18:47:7.966	WT901BLE68-01(48591DE3C19B)	-1.472	-1.447	0.425	7.935	185.852	-307.251	-81.62	9.29	-37.46	-25.186	-3.038	73.696	-0.74002	0.59326	-0.27179	0.16251	30.9	13111	100
2025-3-27 18:47:8.23	WT901BLE68-01(48591DE3C19B)	-1.472	-1.727	0.487	44.739	75.195	-271.057	-81.59	6.62	-39.15	-25.186	-3.038	73.696	-0.74002	0.59326	-0.27179	0.16251	30.9	13111	100
2025-3-27 18:47:8.24	WT901BLE68-01(48591DE3C19B)	-0.877	-1.727	0.487	44.739	75.195	-271.057	-81.23	4.09	-40.26	-25.186	-3.038	73.696	-0.74002	0.59326	-0.27179	0.16251	30.9	13111	100
2025-3-27 18:47:8.24	WT901BLE68-01(48591DE3C19B)	-0.877	-1.327	0.428	67.810	33.325	-318.115	-80.71	1.35	-41.21	-25.186	-3.038	73.696	-0.74002	0.59326	-0.27179	0.16251	30.9	13111	100
2025-3-27 18:47:8.24	WT901BLE68-01(48591DE3C19B)	-0.083	-1.327	0.428	67.810	33.325	-318.115	-80.02	-1.62	-42.02	-25.186	-3.038	73.696	-0.74002	0.59326	-0.27179	0.16251	30.9	13111	100
2025-3-27 18:47:8.53	WT901BLE68-01(48591DE3C19B)	-0.083	-1.303	0.545	67.566	96.802	-287.354	-79.27	-4.35	-43.15	-25.186	-3.038	73.696	-0.74002	0.59326	-0.27179	0.16251	30.9	13111	100
2025-3-27 18:47:8.53	WT901BLE68-01(48591DE3C19B)	-0.594	-1.303	0.545	67.566	96.802	-287.354	-78.44	-6.84	-44.60	-25.186	-3.038	73.696	-0.74002	0.59326	-0.27179	0.16251	30.9	13111	100
2025-3-27 18:47:8.53	WT901BLE68-01(48591DE3C19B)	-0.594	-1.545	0.301	80.200	179.626	-264.465	-77.43	-9.11	-46.49	-25.186	-3.038	73.696	-0.74002	0.59326	-0.27179	0.16251	30.9	13111	100
2025-3-27 18:47:8.53	WT901BLE68-01(48591DE3C19B)	-0.640	-1.545	0.301	80.200	179.626	-264.465	-76.21	-11.11	-48.82	-25.186	-3.038	73.696	-0.74002	0.59326	-0.27179	0.16251	30.9	13111	100
2025-3-27 18:47:8.82	WT901BLE68-01(48591DE3C19B)	-0.640	-1.501	0.113	104.004	170.288	-237.244	-74.82	-12.93	-51.11	-25.186	-3.038	73.696	-0.74002	0.59326	-0.27179	0.16251	30.9	13111	100
2025-3-27 18:47:8.82	WT901BLE68-01(48591DE3C19B)	-0.559	-1.501	0.113	104.004	170.288	-237.244	-73.26	-14.56	-53.38	-25.186	-3.038	73.696	-0.74002	0.59326	-0.27179	0.16251	30.9	13111	100
2025-3-27 18:47:8.83	WT901BLE68-01(48591DE3C19B)	-0.559	-1.411	0.062	103.333	175.049	-208.984	-71.65	-15.97	-55.68	-25.186	-3.038	73.696	-0.74002	0.59326	-0.27179	0.16251	30.9	13111	100
2025-3-27 18:47:8.83	WT901BLE68-01(48591DE3C19B)	-0.812	-1.411	0.062	103.333	175.049	-208.984	-70.00	-17.17	-58.00	-25.186	-3.038	73.696	-0.74002	0.59326	-0.27179	0.16251	30.9	13111	100
2025-3-27 18:47:8.145	WT901BLE68-01(48591DE3C19B)	-0.812	-1.397	0.139	96.069	176.819	-170.593	-68.37	-18.12	-60.31	-25.186	-3.038	73.696	-0.74002	0.59326	-0.27179	0.16251	30.9	13111	100
2025-3-27 18:47:8.146	WT901BLE68-01(48591DE3C19B)	-1.091	-1.397	0.139	96.069	176.819	-170.593	-66.76	-18.80	-62.57	-25.186	-3.038	73.696	-0.74002	0.59326	-0.27179	0.16251	30.9	13111	100
2025-3-27 18:47:8.146	WT901BLE68-01(48591DE3C19B)	-1.091	-1.389	0.169	78.552	137.451	-130.554	-65.32	-19.32	-64.58	-25.186	-3.038	73.696	-0.74002	0.59326	-0.27179	0.16251	30.9	13111	100
2025-3-27 18:47:8.146	WT901BLE68-01(48591DE3C19B)	-1.049	-1.389	0.169	78.552	137.451	-130.554	-64.04	-19.69	-66.32	-25.186	-3.038	73.696	-0.74002	0.59326	-0.27179	0.16251	30.9	13111	100
2025-3-27 18:47:8.175	WT901BLE68-01(48591DE3C19B)	-1.049	-1.317	0.161	53.528	75.745	-91.431	-63.02	-19.97	-67.68	-25.186	-3.038	73.696	-0.74002	0.59326	-0.27179	0.16251	30.9	13111	100
2025-3-27 18:47:8.175	WT901BLE68-01(48591DE3C19B)	-0.966	-1.317	0.161	53.528	75.745	-91.431	-62.26	-20.19	-68.65	-25.186	-3.038	73.696	-0.74002	0.59326	-0.27179	0.16251	30.9	13111	100
2025-3-27 18:47:8.175	WT901BLE68-01(48591DE3C19B)	-0.966	-1.233	0.147	23.071	11.230	-51.697	-61.79	-20.37	-69.22	-25.186	-3.038	73.696	-0.74002	0.59326	-0.27179	0.16251	30.9	13111	100
2025-3-27 18:47:8.175	WT901BLE68-01(48591DE3C19B)	-0.928	-1.233	0.147	23.071	11.230	-51.697	-61.62	-20.52	-69.39	-88.396	-2.842	70.168	-0.74002	0.59326	-0.27179	0.16251	30.9	13111	100
2025-3-27 18:47:8.234	WT901BLE68-01(48591DE3C19B)	-0.928	-1.150	0.165	-6.470	-50.354	-17.700	-61.73	-20.67	-69.18	-88.396	-2.842	70.168	-0.74002	0.59326	-0.27179	0.16251	30.9	13111	100
2025-3-27 18:47:8.234	WT901BLE68-01(48591DE3C19B)	-0.877	-1.150	0.165	-6.470	-50.354	-17.700	-62.12	-20.79	-68.60	-88.396	-2.842	70.168	-0.74002	0.59326	-0.27179	0.16251	30.9	13111	100
2025-3-27 18:47:8.234	WT901BLE68-01(48591DE3C19B)	-0.877	-1.065	0.186	-31.799	-107.178	14.099	-62.75	-20.91	-67.67	-88.396	-2.842	70.168	-0.74002	0.59326	-0.27179	0.16251	30.9	13111	100
2025-3-27 18:47:8.234	WT901BLE68-01(48591DE3C19B)	-0.782	-1.065	0.186	-31.799	-107.178	14.099	-63.64	-20.98	-66.39	-88.396	-2.842	70.168	-0.74002	0.59326	-0.27179	0.16251	30.9	13111	100
2025-3-27 18:47:8.293	WT901BLE68-01(48591DE3C19B)	-0.782	-1.041	0.233	-48.584	-154.480	41.931	-64.70	-21.02	-64.82	-88.396	-2.842	70.168	-0.74002	0.59326	-0.27179	0.16251	30.9	13111	100
2025-3-27 18:47:8.293	WT901BLE68-01(48591DE3C19B)	-0.672	-1.041	0.233	-48.584	-154.480	41.931	-65.95	-20.99	-62.96	-88.396	-2.842	70.168	-0.74002	0.59326	-0.27179	0.16251	30.9	13111	100
2025-3-27 18:47:8.293	WT901BLE68-01(48591DE3C19B)	-0.672	-0.999	0.258	-51.514	-180.359	68.054	-67.26	-20.86	-60.93	-88.396	-2.842	70.168	-0.74002	0.59326	-0.27179	0.16251	30.9	13111	100
2025-3-27 18:47:8.294	WT901BLE68-01(48591DE3C19B)	-0.614	-0.999	0.258	-51.514	-180.359	68.054	-68.63	-20.62	-58.73	-88.396	-2.842	70.168	-0.74002	0.59326	-0.27179	0.16251	30.9	13111	100
2025-3-27 18:47:8.295	WT901BLE68-01(48591DE3C19B)	-0.614	-0.920	0.244	-46.631	-183.960	94.727	-69.98	-20.20	-56.48	-88.396	-2.842	70.168	-0.74002	0.59326	-0.27179	0.16251	30.9	13111	100
2025-3-27 18:47:8.295	WT901BLE68-01(48591DE3C19B)	-0.571	-0.920	0.244	-46.631	-183.960	94.727	-71.28	-19.62	-54.20	-88.396	-2.842	70.168	-0.74002	0.59326	-0.27179	0.16251	30.9	13111	100
2025-3-27 18:47:8.295	WT901BLE68-01(48591DE3C19B)	-0.571	-0.881	0.182	-40.283	-177.917	118.713	-72.51	-18.87	-51.93	-88.396	-2.842	70.168	-0.74002	0.59326	-0.27179	0.16251	30.9	13111	100
2025-3-27 18:47:8.295	WT901BLE68-01(48591DE3C19B)	-0.467	-0.881	0.182	-40.283	-177.917	118.713	-73.66	-17.96	-49.69	-88.396	-2.842	70.168	-0.74002	0.59326	-0.27179	0.16251	30.9	13111	100
2025-3-27 18:47:8.353	WT901BLE68-01(48591DE3C19B)	-0.467	-0.897	0.112	-33.081	-161.011	138.977	-74.71	-16.89	-47.55	-88.396	-2.842	70.168	-0.74002	0.59326	-0.27179	0.16251	30.9	13111	100
2025-3-27 18:47:8.353	WT901BLE68-01(48591DE3C19B)	-0.391	-0.897	0.112	-33.081	-161.011	138.977	-75.64	-15.68	-45.50	-88.396	-2.842	70.168	-0.74002	0.59326	-0.27179	0.16251	30.9	13111	100
2025-3-27 18:47:8.353	WT901BLE68-01(48591DE3C19B)	-0.391	-0.976	0.055	-25.391	-139.832	156.555	-76.46	-14.34	-43.58	-88.396	-2.842	70.168	-0.74002	0.59326	-0.27179	0.16251	30.9	13111	100
2025-3-27 18:47:8.353	WT901BLE68-01(48591DE3C19B)	-0.364	-0.976	0.055	-25.391	-139.832	156.555	-77.16	-12.88	-41.78	-88.396	-2.842	70.168	-0.74002	0.59326	-0.27179	0.16251	30.9	13111	100
2025-3-27 18:47:8.383	WT901BLE68-01(48591DE3C19B)	-0.364	-1.095	0.048	-15.320	-123.047	168.945	-77.74	-11.33	-40.08	-88.396	-2.842	70.168	-0.74002	0.59326	-0.27179	0.16251	30.9	13111	100
2025-3-27 18:47:8.383	WT901BLE68-01(48591DE3C19B)	-0.363	-1.095	0.048	-15.320	-123.047	168.945	-78.21	-9.70	-38.49	-88.396	-2.842	70.168	-0.74002	0.59326	-0.27179	0.16251	30.9	13111	100
2025-3-27 18:47:8.384	WT901BLE68-01(48591DE3C19B)	-0.363	-1.202	0.078	-0.671	-113.403	176.331	-78.47	-7.99	-37.00	-88.396	-2.842	70.168	-0.74002	0.59326	-0.27179	0.16251	30.9	13111	100
2025-3-27 18:47:8.384	WT901BLE68-01(48591DE3C19B)	-0.376	-1.202	0.078	-0.671	-113.403	176.331	-78.68	-6.28	-35.53	-88.396	-2.842	70.168	-0.72812	0.61520	-0.15451	0.25958	30.9	13111	100
2025-3-27 18:47:8.412	WT901BLE68-01(48591DE3C19B)	-0.376	-1.233	0.111	15.808	-112.915	180.237	-78.68	-4.55	-34.07	-88.396	-2.842	70.168	-0.72812	0.61520	-0.15451	0.25958	30.9	13111	100
2025-3-27 18:47:8.413	WT901BLE68-01(48591DE3C19B)	-0.341	-1.233	0.111	15.808	-112.915	180.237	-78.64	-2.84	-32.63	-88.396	-2.842	70.168	-0.72812	0.61520	-0.15451	0.25958	30.9	13111	100
2025-3-27 18:47:8.413	WT901BLE68-01(48591DE3C19B)	-0.341	-1.224	0.129	29.907	-113.708	183.838	-78.41	-1.11	-31.17	-88.396	-2.842	70.168	-0.72812	0.61520	-0.15451	0.25958	30.9	13111	100
2025-3-27 18:47:8.413	WT901BLE68-01(48591DE3C19B)	-0.277	-1.224	0.129	29.907	-113.708	183.838	-78.15	0.59	-29.72	-88.396	-2.842	70.168	-0.72812	0.61520	-0.15451	0.25958	30.9	13111	100
2025-3-27 18:47:8.474	WT901BLE68-01(48591DE3C19B)	-0.277	-1.182	0.129	41.748	-104.248	187.683	-77.72	2.33	-28.35	-88.396	-2.842	70.168	-0.72812	0.61520	-0.15451	0.25958	30.9	13111	100
2025-3-27 18:47:8.474	WT901BLE68-01(48591DE3C19B)	-0.229	-1.182	0.129	41.748	-104.248	187.683	-77.25	4.05	-26.97	-88.396	-2.842	70.168	-0.72812	0.61520	-0.15451	0.25958	30.9	13111	100
2025-3-27 18:47:8.474	WT901BLE68-01(48591DE3C19B)	-0.229	-1.113	0.130	50.049	-86.426	193.359	-76.67	5.83	-25.74	-88.396	-2.842	70.168	-0.72812	0.61520	-0.15451	0.25958	30.9	13111	100
2025-3-27 18:47:8.474	WT901BLE68-01(48591DE3C19B)	-0.221	-1.113	0.130	50.049	-86.426	193.359	-76.05	7.58	-24.49	-88.396	-2.842	70.168	-0.72812	0.61520	-0.15451	0.25958	30.9	13111	100
2025-3-27 18:47:8.504	WT901BLE68-01(48591DE3C19B)	-0.221	-1.056	0.160	55.054	-68.481	200.989	-75.37	9.43	-23.38	-88.396	-2.842	70.168	-0.72812	0.61520	-0.15451	0.25958	30.9	13111	100
2025-3-27 18:47:8.504	WT901BLE68-01(48591DE3C19B)	-0.218	-1.056	0.160	55.054	-68.481	200.989	-74.65	11.24	-22.25	-88.396	-2.842	70.168	-0.72812	0.61520	-0.15451	0.25958	30.9	13111	100
2025-3-27 18:47:8.504	WT901BLE68-01(48591DE3C19B)	-0.218	-1.032	0.187	57.556	-53.894	207.458	-73.88	13.12	-21.22	-88.396	-2.842	70.168	-0.72812	0.61520	-0.15451	0.25958	30.9	13111	100
2025-3-27 18:47:8.504	WT901BLE68-01(48591DE3C19B)	-0.209	-1.032	0.187	57.556	-53.894	207.458	-73.09	14.99	-20.15	-88.396	-2.842	70.168	-0.72812	0.61520	-0.15451	0.25958	30.9	13111	100
2025-3-27 18:47:8.535	WT901BLE68-01(48591DE3C19B)	-0.209	-1.043	0.210	59.326	-39.429	213.440	-72.26	16.91	-19.19	-88.396	-2.842	70.168	-0.72812	0.61520	-0.15451	0.25958	30.9	13111	100
2025-3-27 18:47:8.535	WT901BLE68-01(48591DE3C19B)	-0.211	-1.043	0.210	59.326	-39.429	213.440	-71.39	18.81	-18.18	-88.396	-2.842	70.168	-0.72812	0.61520	-0.15451	0.25958	30.9	13111	100
2025-3-27 18:47:8.535	WT901BLE68-01(48591DE3C19B)	-0.211	-1.100	0.205	60.303	-24.963	218.933	-70.52	20.78	-17.27	-88.396	-2.842	70.168	-0.72812	0.61520	-0.15451	0.25958	30.9	13111	100
2025-3-27 18:47:8.535	WT901BLE68-01(48591DE3C19B)	-0.205	-1.100	0.205	60.303	-24.963	218.933	-69.60	22.72	-16.31	-88.396	-2.842	70.168	-0.72812	0.61520	-0.15451	0.25958	30.9	13111	100
2025-3-27 18:47:8.624	WT901BLE68-01(48591DE3C19B)	-0.205	-1.202	0.188	59.875	-12.085	220.886	-68.69	24.69	-15.43	-88.396	-2.842	70.168	-0.72812	0.61520	-0.15451	0.25958	30.9	13111	100
2025-3-27 18:47:8.624	WT901BLE68-01(48591DE3C19B)	-0.201	-1.202	0.188	59.875	-12.085	220.886	-67.74	26.64	-14.50	-44.688	11.074	73.010	-0.72812	0.61520	-0.15451	0.25958	30.9	13111	100
2025-3-27 18:47:8.624	WT901BLE68-01(48591DE3C19B)	-0.201	-1.352	0.176	59.937	-3.113	219.238	-66.79	28.57	-13.63	-44.688	11.074	73.010	-0.72812	0.61520	-0.15451	0.25958	30.9	13111	100
2025-3-27 18:47:8.624	WT901BLE68-01(48591DE3C19B)	-0.221	-1.352	0.176	59.937	-3.113	219.238	-65.79	30.48	-12.71	-44.688	11.074	73.010	-0.72812	0.61520	-0.15451	0.25958	30.9	13111	100
2025-3-27 18:47:8.625	WT901BLE68-01(48591DE3C19B)	-0.221	-1.520	0.176	58.716	0.854	212.830	-64.79	32.32	-11.80	-44.688	11.074	73.010	-0.72812	0.61520	-0.15451	0.25958	30.9	13111	100
2025-3-27 18:47:8.625	WT901BLE68-01(48591DE3C19B)	-0.258	-1.520	0.176	58.716	0.854	212.830	-63.74	34.12	-10.84	-44.688	11.074	73.010	-0.72812	0.61520	-0.15451	0.25958	30.9	13111	100
2025-3-27 18:47:8.625	WT901BLE68-01(48591DE3C19B)	-0.258	-1.706	0.184	57.129	0.000	202.026	-62.68	35.80	-9.87	-44.688	11.074	73.010	-0.72812	0.61520	-0.15451	0.25958	30.9	13111	100
2025-3-27 18:47:8.625	WT901BLE68-01(48591DE3C19B)	-0.291	-1.706	0.184	57.129	0.000	202.026	-61.57	37.45	-8.84	-44.688	11.074	73.010	-0.72812	0.61520	-0.15451	0.25958	30.9	13111	100
2025-3-27 18:47:8.655	WT901BLE68-01(48591DE3C19B)	-0.291	-1.820	0.217	57.922	-7.385	187.988	-60.41	38.92	-7.76	-44.688	11.074	73.010	-0.72812	0.61520	-0.15451	0.25958	30.9	13111	100
2025-3-27 18:47:8.655	WT901BLE68-01(48591DE3C19B)	-0.223	-1.820	0.217	57.922	-7.385	187.988	-59.18	40.35	-6.61	-44.688	11.074	73.010	-0.72812	0.61520	-0.15451	0.25958	30.9	13111	100
2025-3-27 18:47:8.655	WT901BLE68-01(48591DE3C19B)	-0.223	-1.872	0.237	55.359	-15.686	167.908	-57.96	41.54	-5.45	-44.688	11.074	73.010	-0.72812	0.61520	-0.15451	0.25958	30.9	13111	100
2025-3-27 18:47:8.655	WT901BLE68-01(48591DE3C19B)	-0.069	-1.872	0.237	55.359	-15.686	167.908	-56.69	42.71	-4.24	-44.688	11.074	73.010	-0.72812	0.61520	-0.15451	0.25958	30.9	13111	100
2025-3-27 18:47:8.714	WT901BLE68-01(48591DE3C19B)	-0.069	-1.857	0.186	53.772	-6.226	147.278	-55.57	43.72	-3.24	-44.688	11.074	73.010	-0.72812	0.61520	-0.15451	0.25958	30.9	13111	100
2025-3-27 18:47:8.714	WT901BLE68-01(48591DE3C19B)	0.089	-1.857	0.186	53.772	-6.226	147.278	-54.42	44.71	-2.19	-44.688	11.074	73.010	-0.72812	0.61520	-0.15451	0.25958	30.9	13111	100
2025-3-27 18:47:8.714	WT901BLE68-01(48591DE3C19B)	0.089	-1.681	0.163	48.401	13.428	120.422	-53.60	45.57	-1.55	-44.688	11.074	73.010	-0.72812	0.61520	-0.15451	0.25958	30.9	13111	100
2025-3-27 18:47:8.714	WT901BLE68-01(48591DE3C19B)	0.211	-1.681	0.163	48.401	13.428	120.422	-52.76	46.42	-0.88	-44.688	11.074	73.010	-0.72812	0.61520	-0.15451	0.25958	30.9	13111	100
2025-3-27 18:47:8.745	WT901BLE68-01(48591DE3C19B)	0.211	-1.452	0.176	36.804	33.508	92.590	-52.36	47.14	-0.67	-44.688	11.074	73.010	-0.72812	0.61520	-0.15451	0.25958	30.9	13111	100
2025-3-27 18:47:8.745	WT901BLE68-01(48591DE3C19B)	0.248	-1.452	0.176	36.804	33.508	92.590	-51.96	47.86	-0.44	-44.688	11.074	73.010	-0.72812	0.61520	-0.15451	0.25958	30.9	13111	100
2025-3-27 18:47:8.745	WT901BLE68-01(48591DE3C19B)	0.248	-1.265	0.223	30.640	58.167	64.270	-52.02	48.49	-0.77	-44.688	11.074	73.010	-0.72812	0.61520	-0.15451	0.25958	30.9	13111	100
2025-3-27 18:47:8.745	WT901BLE68-01(48591DE3C19B)	0.147	-1.265	0.223	30.640	58.167	64.270	-52.09	49.11	-1.09	-44.688	11.074	73.010	-0.72812	0.61520	-0.15451	0.25958	30.9	13111	100
2025-3-27 18:47:8.775	WT901BLE68-01(48591DE3C19B)	0.147	-1.006	0.213	18.677	81.909	31.616	-52.73	49.60	-2.01	-44.688	11.074	73.010	-0.72812	0.61520	-0.15451	0.25958	30.9	13111	100
2025-3-27 18:47:8.775	WT901BLE68-01(48591DE3C19B)	0.097	-1.006	0.213	18.677	81.909	31.616	-53.38	50.09	-2.94	-44.688	11.074	73.010	-0.72812	0.61520	-0.15451	0.25958	30.9	13111	100
2025-3-27 18:47:8.775	WT901BLE68-01(48591DE3C19B)	0.097	-0.872	0.174	5.066	101.746	-5.371	-54.64	50.37	-4.48	-44.688	11.074	73.010	-0.80945	0.40170	-0.39673	-0.16092	30.9	13111	100
2025-3-27 18:47:8.775	WT901BLE68-01(48591DE3C19B)	0.014	-0.872	0.174	5.066	101.746	-5.371	-55.90	50.63	-6.03	-44.688	11.074	73.010	-0.80945	0.40170	-0.39673	-0.16092	30.9	13111	100
2025-3-27 18:47:8.834	WT901BLE68-01(48591DE3C19B)	0.014	-0.854	0.137	-8.179	118.225	-40.466	-57.69	50.65	-8.10	-44.688	11.074	73.010	-0.80945	0.40170	-0.39673	-0.16092	30.9	13111	100
2025-3-27 18:47:8.834	WT901BLE68-01(48591DE3C19B)	-0.060	-0.854	0.137	-8.179	118.225	-40.466	-59.49	50.64	-10.16	-44.688	11.074	73.010	-0.80945	0.40170	-0.39673	-0.16092	30.9	13111	100
2025-3-27 18:47:8.834	WT901BLE68-01(48591DE3C19B)	-0.060	-0.859	0.124	-17.578	113.708	-72.205	-61.48	50.28	-12.39	-44.688	11.074	73.010	-0.80945	0.40170	-0.39673	-0.16092	30.9	13111	100
2025-3-27 18:47:8.834	WT901BLE68-01(48591DE3C19B)	-0.114	-0.859	0.124	-17.578	113.708	-72.205	-63.43	49.88	-14.57	-44.688	11.074	73.010	-0.80945	0.40170	-0.39673	-0.16092	30.9	13111	100
2025-3-27 18:47:8.863	WT901BLE68-01(48591DE3C19B)	-0.167	-0.886	0.120	-25.574	84.778	-97.473	-65.22	49.09	-16.46	-44.688	11.074	73.010	-0.80945	0.40170	-0.39673	-0.16092	30.9	13111	100
2025-3-27 18:47:8.863	WT901BLE68-01(48591DE3C19B)	-0.167	-0.943	0.123	-27.832	45.837	-116.943	-66.79	48.10	-18.07	-44.688	11.074	73.010	-0.80945	0.40170	-0.39673	-0.16092	30.9	13111	100
2025-3-27 18:47:8.863	WT901BLE68-01(48591DE3C19B)	-0.188	-0.943	0.123	-27.832	45.837	-116.943	-68.12	46.93	-19.40	-44.688	11.074	73.010	-0.80945	0.40170	-0.39673	-0.16092	30.9	13111	100
2025-3-27 18:47:8.863	WT901BLE68-01(48591DE3C19B)	-0.188	-0.965	0.123	-27.588	9.033	-138.489	-69.25	45.58	-20.46	-44.688	11.074	73.010	-0.80945	0.40170	-0.39673	-0.16092	30.9	13111	100
2025-3-27 18:47:8.924	WT901BLE68-01(48591DE3C19B)	-0.186	-0.965	0.123	-27.588	9.033	-138.489	-70.17	44.07	-21.27	-44.688	11.074	73.010	-0.80945	0.40170	-0.39673	-0.16092	30.9	13111	100
2025-3-27 18:47:8.924	WT901BLE68-01(48591DE3C19B)	-0.186	-0.983	0.114	-30.518	-23.193	-156.799	-70.94	42.42	-21.86	-44.688	11.074	73.010	-0.80945	0.40170	-0.39673	-0.16092	30.9	13111	100
2025-3-27 18:47:8.924	WT901BLE68-01(48591DE3C19B)	-0.211	-0.983	0.114	-30.518	-23.193	-156.799	-71.56	40.64	-22.25	-44.688	11.074	73.010	-0.80945	0.40170	-0.39673	-0.16092	30.9	13111	100
2025-3-27 18:47:8.924	WT901BLE68-01(48591DE3C19B)	-0.211	-1.016	0.100	-33.997	-51.025	-176.270	-72.10	38.74	-22.47	-44.688	11.074	73.010	-0.80945	0.40170	-0.39673	-0.16092	30.9	13111	100
2025-3-27 18:47:8.955	WT901BLE68-01(48591DE3C19B)	-0.220	-1.016	0.100	-33.997	-51.025	-176.270	-72.54	36.72	-22.53	-44.688	11.074	73.010	-0.80945	0.40170	-0.39673	-0.16092	30.9	13111	100
2025-3-27 18:47:8.955	WT901BLE68-01(48591DE3C19B)	-0.220	-1.031	0.077	-37.781	-73.181	-197.632	-72.94	34.58	-22.49	-44.688	11.074	73.010	-0.80945	0.40170	-0.39673	-0.16092	30.9	13111	100
2025-3-27 18:47:8.955	WT901BLE68-01(48591DE3C19B)	-0.202	-1.031	0.077	-37.781	-73.181	-197.632	-73.30	32.32	-22.36	-44.688	11.074	73.010	-0.80945	0.40170	-0.39673	-0.16092	30.9	13111	100
2025-3-27 18:47:8.956	WT901BLE68-01(48591DE3C19B)	-0.202	-1.030	0.075	-43.640	-78.430	-219.604	-73.69	29.97	-22.21	-44.688	11.074	73.010	-0.80945	0.40170	-0.39673	-0.16092	30.9	13111	100
2025-3-27 18:47:8.992	WT901BLE68-01(48591DE3C19B)	-0.216	-1.030	0.075	-43.640	-78.430	-219.604	-74.11	27.52	-22.07	-44.688	11.074	73.010	-0.80945	0.40170	-0.39673	-0.16092	30.9	13111	100
2025-3-27 18:47:8.992	WT901BLE68-01(48591DE3C19B)	-0.216	-1.043	0.102	-51.453	-67.139	-240.112	-74.60	25.00	-22.00	-44.688	11.074	73.010	-0.80945	0.40170	-0.39673	-0.16092	30.9	13111	100
2025-3-27 18:47:8.992	WT901BLE68-01(48591DE3C19B)	-0.258	-1.043	0.102	-51.453	-67.139	-240.112	-75.17	22.42	-22.01	-44.688	11.074	73.010	-0.80945	0.40170	-0.39673	-0.16092	30.9	13111	100
2025-3-27 18:47:8.992	WT901BLE68-01(48591DE3C19B)	-0.258	-1.084	0.168	-59.265	-46.387	-256.165	-75.80	19.81	-22.11	-35.966	10.486	73.990	-0.80945	0.40170	-0.39673	-0.16092	30.9	13111	100
2025-3-27 18:47:9.16	WT901BLE68-01(48591DE3C19B)	-0.304	-1.084	0.168	-59.265	-46.387	-256.165	-76.49	17.17	-22.31	-35.966	10.486	73.990	-0.80945	0.40170	-0.39673	-0.16092	30.9	13111	100
2025-3-27 18:47:9.16	WT901BLE68-01(48591DE3C19B)	-0.304	-1.126	0.242	-64.148	-23.376	-266.296	-77.22	14.51	-22.60	-35.966	10.486	73.990	-0.80945	0.40170	-0.39673	-0.16092	30.9	13111	100
2025-3-27 18:47:9.16	WT901BLE68-01(48591DE3C19B)	-0.340	-1.126	0.242	-64.148	-23.376	-266.296	-77.97	11.84	-22.98	-35.966	10.486	73.990	-0.80945	0.40170	-0.39673	-0.16092	30.9	13111	100
2025-3-27 18:47:9.16	WT901BLE68-01(48591DE3C19B)	-0.340	-1.131	0.305	-64.880	-7.568	-269.165	-78.71	9.20	-23.41	-35.966	10.486	73.990	-0.80945	0.40170	-0.39673	-0.16092	30.9	13111	100
2025-3-27 18:47:9.73	WT901BLE68-01(48591DE3C19B)	-0.355	-1.131	0.305	-64.880	-7.568	-269.165	-79.43	6.56	-23.88	-35.966	10.486	73.990	-0.80945	0.40170	-0.39673	-0.16092	30.9	13111	100
2025-3-27 18:47:9.73	WT901BLE68-01(48591DE3C19B)	-0.355	-1.122	0.330	-63.782	-1.831	-267.273	-80.11	3.96	-24.35	-35.966	10.486	73.990	-0.80945	0.40170	-0.39673	-0.16092	30.9	13111	100
2025-3-27 18:47:9.73	WT901BLE68-01(48591DE3C19B)	-0.351	-1.122	0.330	-63.782	-1.831	-267.273	-80.77	1.38	-24.80	-35.966	10.486	73.990	-0.80945	0.40170	-0.39673	-0.16092	30.9	13111	100
2025-3-27 18:47:9.74	WT901BLE68-01(48591DE3C19B)	-0.351	-1.106	0.340	-62.195	-2.869	-260.742	-81.38	-1.14	-25.22	-35.966	10.486	73.990	-0.80945	0.40170	-0.39673	-0.16092	30.9	13111	100
2025-3-27 18:47:9.109	WT901BLE68-01(48591DE3C19B)	-0.347	-1.106	0.340	-62.195	-2.869	-260.742	-81.96	-3.63	-25.61	-35.966	10.486	73.990	-0.80945	0.40170	-0.39673	-0.16092	30.9	13111	100
2025-3-27 18:47:9.110	WT901BLE68-01(48591DE3C19B)	-0.347	-1.125	0.362	-59.082	-3.784	-249.390	-82.51	-6.05	-25.96	-35.966	10.486	73.990	-0.80945	0.40170	-0.39673	-0.16092	30.9	13111	100
2025-3-27 18:47:9.110	WT901BLE68-01(48591DE3C19B)	-0.359	-1.125	0.362	-59.082	-3.784	-249.390	-83.02	-8.40	-26.28	-35.966	10.486	73.990	-0.80945	0.40170	-0.39673	-0.16092	30.9	13111	100
2025-3-27 18:47:9.110	WT901BLE68-01(48591DE3C19B)	-0.359	-1.155	0.397	-52.368	0.610	-231.873	-83.49	-10.65	-26.60	-35.966	10.486	73.990	-0.80945	0.40170	-0.39673	-0.16092	30.9	13111	100
2025-3-27 18:47:9.134	WT901BLE68-01(48591DE3C19B)	-0.342	-1.155	0.397	-52.368	0.610	-231.873	-83.90	-12.79	-26.92	-35.966	10.486	73.990	-0.80945	0.40170	-0.39673	-0.16092	30.9	13111	100
2025-3-27 18:47:9.134	WT901BLE68-01(48591DE3C19B)	-0.342	-1.165	0.417	-44.861	14.893	-212.097	-84.25	-14.83	-27.28	-35.966	10.486	73.990	-0.80945	0.40170	-0.39673	-0.16092	30.9	13111	100
2025-3-27 18:47:9.134	WT901BLE68-01(48591DE3C19B)	-0.311	-1.165	0.417	-44.861	14.893	-212.097	-84.53	-16.74	-27.71	-35.966	10.486	73.990	-0.80945	0.40170	-0.39673	-0.16092	30.9	13111	100
2025-3-27 18:47:9.134	WT901BLE68-01(48591DE3C19B)	-0.311	-1.199	0.399	-40.649	37.048	-192.383	-84.74	-18.54	-28.23	-35.966	10.486	73.990	-0.80945	0.40170	-0.39673	-0.16092	30.9	13111	100
2025-3-27 18:47:9.194	WT901BLE68-01(48591DE3C19B)	-0.262	-1.199	0.399	-40.649	37.048	-192.383	-84.87	-20.22	-28.87	-35.966	10.486	73.990	-0.80945	0.40170	-0.39673	-0.16092	30.9	13111	100
2025-3-27 18:47:9.194	WT901BLE68-01(48591DE3C19B)	-0.262	-1.324	0.386	-36.621	69.946	-171.143	-84.91	-21.78	-29.68	-35.966	10.486	73.990	-0.80945	0.40170	-0.39673	-0.16092	30.9	13111	100
2025-3-27 18:47:9.194	WT901BLE68-01(48591DE3C19B)	-0.278	-1.324	0.386	-36.621	69.946	-171.143	-84.84	-23.21	-30.66	-35.966	10.486	73.990	-0.80945	0.40170	-0.39673	-0.16092	30.9	13111	100
2025-3-27 18:47:9.194	WT901BLE68-01(48591DE3C19B)	-0.278	-1.458	0.435	-27.039	107.666	-149.902	-84.62	-24.51	-31.84	-35.966	10.486	73.990	-0.80945	0.40170	-0.39673	-0.16092	30.9	13111	100
2025-3-27 18:47:9.254	WT901BLE68-01(48591DE3C19B)	-0.376	-1.458	0.435	-27.039	107.666	-149.902	-84.24	-25.67	-33.24	-35.966	10.486	73.990	-0.65033	0.67368	-0.02914	0.34964	30.9	13111	100
2025-3-27 18:47:9.254	WT901BLE68-01(48591DE3C19B)	-0.376	-1.592	0.513	-17.822	138.794	-127.869	-83.70	-26.69	-34.82	-35.966	10.486	73.990	-0.65033	0.67368	-0.02914	0.34964	30.9	13111	100
2025-3-27 18:47:9.254	WT901BLE68-01(48591DE3C19B)	-0.522	-1.592	0.513	-17.822	138.794	-127.869	-83.03	-27.56	-36.58	-35.966	10.486	73.990	-0.65033	0.67368	-0.02914	0.34964	30.9	13111	100
2025-3-27 18:47:9.254	WT901BLE68-01(48591DE3C19B)	-0.522	-1.683	0.560	-4.700	161.560	-103.088	-82.21	-28.28	-38.46	-35.966	10.486	73.990	-0.65033	0.67368	-0.02914	0.34964	30.9	13111	100
2025-3-27 18:47:9.255	WT901BLE68-01(48591DE3C19B)	-0.657	-1.683	0.560	-4.700	161.560	-103.088	-81.24	-28.82	-40.48	-35.966	10.486	73.990	-0.65033	0.67368	-0.02914	0.34964	30.9	13111	100
2025-3-27 18:47:9.255	WT901BLE68-01(48591DE3C19B)	-0.657	-1.596	0.528	8.789	175.232	-74.219	-80.17	-29.17	-42.56	-35.966	10.486	73.990	-0.65033	0.67368	-0.02914	0.34964	30.9	13111	100
2025-3-27 18:47:9.255	WT901BLE68-01(48591DE3C19B)	-0.711	-1.596	0.528	8.789	175.232	-74.219	-79.00	-29.32	-44.69	-35.966	10.486	73.990	-0.65033	0.67368	-0.02914	0.34964	30.9	13111	100
2025-3-27 18:47:9.255	WT901BLE68-01(48591DE3C19B)	-0.711	-1.385	0.433	14.526	177.673	-41.077	-77.82	-29.27	-46.79	-35.966	10.486	73.990	-0.65033	0.67368	-0.02914	0.34964	30.9	13111	100
2025-3-27 18:47:9.313	WT901BLE68-01(48591DE3C19B)	-0.719	-1.385	0.433	14.526	177.673	-41.077	-76.64	-29.01	-48.85	-35.966	10.486	73.990	-0.65033	0.67368	-0.02914	0.34964	30.9	13111	100
2025-3-27 18:47:9.313	WT901BLE68-01(48591DE3C19B)	-0.719	-1.135	0.391	12.329	166.138	-4.578	-75.55	-28.54	-50.77	-35.966	10.486	73.990	-0.65033	0.67368	-0.02914	0.34964	30.9	13111	100
2025-3-27 18:47:9.313	WT901BLE68-01(48591DE3C19B)	-0.767	-1.135	0.391	12.329	166.138	-4.578	-74.57	-27.88	-52.55	-35.966	10.486	73.990	-0.65033	0.67368	-0.02914	0.34964	30.9	13111	100
2025-3-27 18:47:9.313	WT901BLE68-01(48591DE3C19B)	-0.767	-0.926	0.405	3.784	132.813	30.945	-73.93	-26.95	-53.84	-35.966	10.486	73.990	-0.65033	0.67368	-0.02914	0.34964	30.9	13111	100
2025-3-27 18:47:9.373	WT901BLE68-01(48591DE3C19B)	-0.787	-0.926	0.405	3.784	132.813	30.945	-73.31	-25.99	-55.10	-35.966	10.486	73.990	-0.65033	0.67368	-0.02914	0.34964	30.9	13111	100
2025-3-27 18:47:9.374	WT901BLE68-01(48591DE3C19B)	-0.787	-0.832	0.396	-7.324	80.139	63.721	-73.13	-24.87	-55.67	-35.966	10.486	73.990	-0.65033	0.67368	-0.02914	0.34964	30.9	13111	100
2025-3-27 18:47:9.374	WT901BLE68-01(48591DE3C19B)	-0.715	-0.832	0.396	-7.324	80.139	63.721	-72.96	-23.75	-56.23	-35.966	10.486	73.990	-0.65033	0.67368	-0.02914	0.34964	30.9	13111	100
2025-3-27 18:47:9.374	WT901BLE68-01(48591DE3C19B)	-0.715	-0.838	0.319	-14.709	29.663	96.924	-73.13	-22.45	-56.15	-35.966	10.486	73.990	-0.65033	0.67368	-0.02914	0.34964	30.9	13111	100
2025-3-27 18:47:9.375	WT901BLE68-01(48591DE3C19B)	-0.616	-0.838	0.319	-14.709	29.663	96.924	-73.28	-21.15	-56.08	-35.966	10.486	73.990	-0.65033	0.67368	-0.02914	0.34964	30.9	13111	100
2025-3-27 18:47:9.375	WT901BLE68-01(48591DE3C19B)	-0.616	-0.821	0.209	-17.456	-7.874	129.333	-73.64	-19.65	-55.54	-35.966	10.486	73.990	-0.65033	0.67368	-0.02914	0.34964	30.9	13111	100
2025-3-27 18:47:9.375	WT901BLE68-01(48591DE3C19B)	-0.515	-0.821	0.209	-17.456	-7.874	129.333	-73.98	-18.16	-55.00	-86.044	0.980	73.402	-0.65033	0.67368	-0.02914	0.34964	30.9	13111	100
2025-3-27 18:47:9.375	WT901BLE68-01(48591DE3C19B)	-0.515	-0.826	0.136	-21.057	-33.569	157.471	-74.44	-16.47	-54.15	-86.044	0.980	73.402	-0.65033	0.67368	-0.02914	0.34964	30.9	13111	100
2025-3-27 18:47:9.434	WT901BLE68-01(48591DE3C19B)	-0.443	-0.826	0.136	-21.057	-33.569	157.471	-74.87	-14.78	-53.32	-86.044	0.980	73.402	-0.65033	0.67368	-0.02914	0.34964	30.9	13111	100
2025-3-27 18:47:9.434	WT901BLE68-01(48591DE3C19B)	-0.443	-0.902	0.102	-23.926	-52.734	180.420	-75.36	-12.93	-52.26	-86.044	0.980	73.402	-0.65033	0.67368	-0.02914	0.34964	30.9	13111	100
2025-3-27 18:47:9.434	WT901BLE68-01(48591DE3C19B)	-0.402	-0.902	0.102	-23.926	-52.734	180.420	-75.81	-11.07	-51.23	-86.044	0.980	73.402	-0.65033	0.67368	-0.02914	0.34964	30.9	13111	100
2025-3-27 18:47:9.434	WT901BLE68-01(48591DE3C19B)	-0.402	-1.026	0.092	-23.682	-74.463	197.021	-76.27	-9.12	-49.97	-86.044	0.980	73.402	-0.65033	0.67368	-0.02914	0.34964	30.9	13111	100
2025-3-27 18:47:9.462	WT901BLE68-01(48591DE3C19B)	-0.336	-1.026	0.092	-23.682	-74.463	197.021	-76.68	-7.17	-48.74	-86.044	0.980	73.402	-0.65033	0.67368	-0.02914	0.34964	30.9	13111	100
2025-3-27 18:47:9.462	WT901BLE68-01(48591DE3C19B)	-0.336	-1.138	0.100	-18.860	-91.858	207.642	-77.03	-5.16	-47.33	-86.044	0.980	73.402	-0.65033	0.67368	-0.02914	0.34964	30.9	13111	100
2025-3-27 18:47:9.463	WT901BLE68-01(48591DE3C19B)	-0.291	-1.138	0.100	-18.860	-91.858	207.642	-77.33	-3.17	-45.94	-86.044	0.980	73.402	-0.65033	0.67368	-0.02914	0.34964	30.9	13111	100
2025-3-27 18:47:9.463	WT901BLE68-01(48591DE3C19B)	-0.291	-1.210	0.115	-10.803	-98.511	213.318	-77.50	-1.14	-44.51	-86.044	0.980	73.402	-0.65033	0.67368	-0.02914	0.34964	30.9	13111	100
2025-3-27 18:47:9.493	WT901BLE68-01(48591DE3C19B)	-0.291	-1.210	0.115	-10.803	-98.511	213.318	-77.62	0.86	-43.07	-86.044	0.980	73.402	-0.65033	0.67368	-0.02914	0.34964	30.9	13111	100
2025-3-27 18:47:9.493	WT901BLE68-01(48591DE3C19B)	-0.291	-1.282	0.150	-3.845	-97.778	214.661	-77.63	2.86	-41.65	-86.044	0.980	73.402	-0.65033	0.67368	-0.02914	0.34964	30.9	13111	100
2025-3-27 18:47:9.493	WT901BLE68-01(48591DE3C19B)	-0.295	-1.282	0.150	-3.845	-97.778	214.661	-77.59	4.85	-40.24	-86.044	0.980	73.402	-0.65033	0.67368	-0.02914	0.34964	30.9	13111	100
2025-3-27 18:47:9.493	WT901BLE68-01(48591DE3C19B)	-0.295	-1.382	0.188	5.188	-88.257	211.426	-77.42	6.81	-38.92	-86.044	0.980	73.402	-0.65033	0.67368	-0.02914	0.34964	30.9	13111	100
2025-3-27 18:47:9.555	WT901BLE68-01(48591DE3C19B)	-0.255	-1.382	0.188	5.188	-88.257	211.426	-77.21	8.75	-37.59	-86.044	0.980	73.402	-0.65033	0.67368	-0.02914	0.34964	30.9	13111	100
2025-3-27 18:47:9.555	WT901BLE68-01(48591DE3C19B)	-0.255	-1.397	0.224	15.503	-59.998	205.688	-76.89	10.66	-36.55	-86.044	0.980	73.402	-0.65033	0.67368	-0.02914	0.34964	30.9	13111	100
2025-3-27 18:47:9.555	WT901BLE68-01(48591DE3C19B)	-0.252	-1.397	0.224	15.503	-59.998	205.688	-76.54	12.56	-35.49	-86.044	0.980	73.402	-0.65033	0.67368	-0.02914	0.34964	30.9	13111	100
2025-3-27 18:47:9.556	WT901BLE68-01(48591DE3C19B)	-0.252	-1.312	0.222	20.935	-23.254	200.256	-76.19	14.47	-34.78	-86.044	0.980	73.402	-0.65033	0.67368	-0.02914	0.34964	30.9	13111	100
2025-3-27 18:47:9.585	WT901BLE68-01(48591DE3C19B)	-0.270	-1.312	0.222	20.935	-23.254	200.256	-75.82	16.36	-34.06	-86.044	0.980	73.402	-0.65033	0.67368	-0.02914	0.34964	30.9	13111	100
2025-3-27 18:47:9.585	WT901BLE68-01(48591DE3C19B)	-0.270	-1.222	0.190	21.240	11.169	194.275	-75.51	18.25	-33.69	-86.044	0.980	73.402	-0.65033	0.67368	-0.02914	0.34964	30.9	13111	100
2025-3-27 18:47:9.585	WT901BLE68-01(48591DE3C19B)	-0.260	-1.222	0.190	21.240	11.169	194.275	-75.21	20.14	-33.30	-86.044	0.980	73.402	-0.65033	0.67368	-0.02914	0.34964	30.9	13111	100
2025-3-27 18:47:9.585	WT901BLE68-01(48591DE3C19B)	-0.260	-1.148	0.128	17.944	37.354	189.453	-75.01	22.03	-33.17	-86.044	0.980	73.402	-0.77942	0.52948	-0.31586	0.11081	30.9	13111	100
2025-3-27 18:47:9.644	WT901BLE68-01(48591DE3C19B)	-0.254	-1.148	0.128	17.944	37.354	189.453	-74.82	23.90	-33.04	-86.044	0.980	73.402	-0.77942	0.52948	-0.31586	0.11081	30.9	13111	100
2025-3-27 18:47:9.644	WT901BLE68-01(48591DE3C19B)	-0.254	-1.090	0.059	11.414	52.246	185.913	-74.75	25.77	-33.06	-86.044	0.980	73.402	-0.77942	0.52948	-0.31586	0.11081	30.9	13111	100
2025-3-27 18:47:9.644	WT901BLE68-01(48591DE3C19B)	-0.301	-1.090	0.059	11.414	52.246	185.913	-74.69	27.63	-33.07	-86.044	0.980	73.402	-0.77942	0.52948	-0.31586	0.11081	30.9	13111	100
2025-3-27 18:47:9.644	WT901BLE68-01(48591DE3C19B)	-0.301	-1.067	0.018	3.113	51.147	182.373	-74.72	29.43	-33.09	-86.044	0.980	73.402	-0.77942	0.52948	-0.31586	0.11081	30.9	13111	100
2025-3-27 18:47:9.673	WT901BLE68-01(48591DE3C19B)	-0.384	-1.067	0.018	3.113	51.147	182.373	-74.75	31.23	-33.09	-86.044	0.980	73.402	-0.77942	0.52948	-0.31586	0.11081	30.9	13111	100
2025-3-27 18:47:9.673	WT901BLE68-01(48591DE3C19B)	-0.384	-1.097	0.029	-3.296	34.302	178.223	-74.75	32.93	-32.91	-86.044	0.980	73.402	-0.77942	0.52948	-0.31586	0.11081	30.9	13111	100
2025-3-27 18:47:9.673	WT901BLE68-01(48591DE3C19B)	-0.435	-1.097	0.029	-3.296	34.302	178.223	-74.74	34.63	-32.72	-86.044	0.980	73.402	-0.77942	0.52948	-0.31586	0.11081	30.9	13111	100
2025-3-27 18:47:9.673	WT901BLE68-01(48591DE3C19B)	-0.435	-1.107	0.044	-4.883	6.836	174.255	-74.57	36.21	-32.22	-86.044	0.980	73.402	-0.77942	0.52948	-0.31586	0.11081	30.9	13111	100
2025-3-27 18:47:9.709	WT901BLE68-01(48591DE3C19B)	-0.409	-1.107	0.044	-4.883	6.836	174.255	-74.38	37.78	-31.69	-86.044	0.980	73.402	-0.77942	0.52948	-0.31586	0.11081	30.9	13111	100
2025-3-27 18:47:9.709	WT901BLE68-01(48591DE3C19B)	-0.409	-1.155	0.080	-5.798	-15.259	168.762	-74.01	39.23	-30.88	-86.044	0.980	73.402	-0.77942	0.52948	-0.31586	0.11081	30.9	13111	100
2025-3-27 18:47:9.709	WT901BLE68-01(48591DE3C19B)	-0.375	-1.155	0.080	-5.798	-15.259	168.762	-73.62	40.66	-30.05	-86.044	0.980	73.402	-0.77942	0.52948	-0.31586	0.11081	30.9	13111	100
2025-3-27 18:47:9.709	WT901BLE68-01(48591DE3C19B)	-0.375	-1.221	0.075	-4.333	-28.076	162.903	-73.09	42.00	-29.04	-86.044	0.980	73.402	-0.77942	0.52948	-0.31586	0.11081	30.9	13111	100
2025-3-27 18:47:9.766	WT901BLE68-01(48591DE3C19B)	-0.330	-1.221	0.075	-4.333	-28.076	162.903	-72.52	43.31	-27.99	-86.044	0.980	73.402	-0.77942	0.52948	-0.31586	0.11081	30.9	13111	100
2025-3-27 18:47:9.766	WT901BLE68-01(48591DE3C19B)	-0.330	-1.283	0.082	-2.747	-29.724	155.029	-71.89	44.53	-26.91	-86.044	0.980	73.402	-0.77942	0.52948	-0.31586	0.11081	30.9	13111	100
2025-3-27 18:47:9.766	WT901BLE68-01(48591DE3C19B)	-0.281	-1.283	0.082	-2.747	-29.724	155.029	-71.23	45.73	-25.78	-86.044	0.980	73.402	-0.77942	0.52948	-0.31586	0.11081	30.9	13111	100
2025-3-27 18:47:9.766	WT901BLE68-01(48591DE3C19B)	-0.271	-1.338	0.087	-2.014	-21.606	145.142	-70.63	46.85	-24.77	-86.044	0.980	73.402	-0.77942	0.52948	-0.31586	0.11081	30.9	13111	100
2025-3-27 18:47:9.795	WT901BLE68-01(48591DE3C19B)	-0.271	-1.387	0.110	-4.272	-8.972	132.080	-70.09	47.91	-23.84	-86.044	0.980	73.402	-0.77942	0.52948	-0.31586	0.11081	30.9	13111	100
2025-3-27 18:47:9.795	WT901BLE68-01(48591DE3C19B)	-0.295	-1.387	0.110	-4.272	-8.972	132.080	-69.63	48.92	-23.00	-86.044	0.980	73.402	-0.77942	0.52948	-0.31586	0.11081	30.9	13111	100
2025-3-27 18:47:9.795	WT901BLE68-01(48591DE3C19B)	-0.295	-1.439	0.163	-6.531	1.160	117.188	-69.22	49.86	-22.24	-86.044	0.980	73.402	-0.77942	0.52948	-0.31586	0.11081	30.9	13111	100
2025-3-27 18:47:9.795	WT901BLE68-01(48591DE3C19B)	-0.322	-1.439	0.163	-6.531	1.160	117.188	-68.90	50.73	-21.57	-15.582	2.156	73.500	-0.77942	0.52948	-0.31586	0.11081	30.9	13111	100
2025-3-27 18:47:9.884	WT901BLE68-01(48591DE3C19B)	-0.322	-1.417	0.217	-8.545	5.432	100.769	-68.62	51.54	-20.95	-15.582	2.156	73.500	-0.77942	0.52948	-0.31586	0.11081	30.9	13111	100
2025-3-27 18:47:9.884	WT901BLE68-01(48591DE3C19B)	-0.337	-1.417	0.217	-8.545	5.432	100.769	-68.40	52.27	-20.40	-15.582	2.156	73.500	-0.77942	0.52948	-0.31586	0.11081	30.9	13111	100
2025-3-27 18:47:9.884	WT901BLE68-01(48591DE3C19B)	-0.337	-1.330	0.264	-9.705	5.981	85.022	-68.20	52.92	-19.87	-15.582	2.156	73.500	-0.77942	0.52948	-0.31586	0.11081	30.9	13111	100
2025-3-27 18:47:9.884	WT901BLE68-01(48591DE3C19B)	-0.338	-1.330	0.264	-9.705	5.981	85.022	-68.04	53.49	-19.39	-15.582	2.156	73.500	-0.77942	0.52948	-0.31586	0.11081	30.9	13111	100
2025-3-27 18:47:9.885	WT901BLE68-01(48591DE3C19B)	-0.338	-1.196	0.284	-11.963	3.906	69.275	-67.90	53.99	-18.93	-15.582	2.156	73.500	-0.77942	0.52948	-0.31586	0.11081	30.9	13111	100
2025-3-27 18:47:9.885	WT901BLE68-01(48591DE3C19B)	-0.305	-1.196	0.284	-11.963	3.906	69.275	-67.79	54.40	-18.49	-15.582	2.156	73.500	-0.77942	0.52948	-0.31586	0.11081	30.9	13111	100
2025-3-27 18:47:9.885	WT901BLE68-01(48591DE3C19B)	-0.305	-1.081	0.257	-15.015	2.380	54.810	-67.70	54.74	-18.07	-15.582	2.156	73.500	-0.77942	0.52948	-0.31586	0.11081	30.9	13111	100
2025-3-27 18:47:9.886	WT901BLE68-01(48591DE3C19B)	-0.238	-1.081	0.257	-15.015	2.380	54.810	-67.66	55.01	-17.68	-15.582	2.156	73.500	-0.77942	0.52948	-0.31586	0.11081	30.9	13111	100
2025-3-27 18:47:9.915	WT901BLE68-01(48591DE3C19B)	-0.238	-0.942	0.200	-17.456	2.014	39.368	-67.66	55.21	-17.34	-15.582	2.156	73.500	-0.77942	0.52948	-0.31586	0.11081	30.9	13111	100
2025-3-27 18:47:9.915	WT901BLE68-01(48591DE3C19B)	-0.229	-0.942	0.200	-17.456	2.014	39.368	-67.71	55.34	-17.04	-15.582	2.156	73.500	-0.77942	0.52948	-0.31586	0.11081	30.9	13111	100
2025-3-27 18:47:9.915	WT901BLE68-01(48591DE3C19B)	-0.229	-0.821	0.243	-21.362	-0.549	20.935	-67.81	55.38	-16.78	-15.582	2.156	73.500	-0.77942	0.52948	-0.31586	0.11081	30.9	13111	100
2025-3-27 18:47:9.915	WT901BLE68-01(48591DE3C19B)	-0.256	-0.821	0.243	-21.362	-0.549	20.935	-67.95	55.32	-16.56	-15.582	2.156	73.500	-0.77942	0.52948	-0.31586	0.11081	30.9	13111	100
2025-3-27 18:47:9.943	WT901BLE68-01(48591DE3C19B)	-0.256	-0.815	0.305	-24.902	-7.019	-1.526	-68.13	55.15	-16.35	-15.582	2.156	73.500	-0.77942	0.52948	-0.31586	0.11081	30.9	13111	100
2025-3-27 18:47:9.944	WT901BLE68-01(48591DE3C19B)	-0.244	-0.815	0.305	-24.902	-7.019	-1.526	-68.33	54.87	-16.16	-15.582	2.156	73.500	-0.77942	0.52948	-0.31586	0.11081	30.9	13111	100
2025-3-27 18:47:9.944	WT901BLE68-01(48591DE3C19B)	-0.244	-0.824	0.309	-21.545	-9.644	-23.926	-68.54	54.49	-16.01	-15.582	2.156	73.500	-0.77942	0.52948	-0.31586	0.11081	30.9	13111	100
2025-3-27 18:47:9.944	WT901BLE68-01(48591DE3C19B)	-0.226	-0.824	0.309	-21.545	-9.644	-23.926	-68.77	53.99	-15.91	-15.582	2.156	73.500	-0.77942	0.52948	-0.31586	0.11081	30.9	13111	100
2025-3-27 18:47:10.9	WT901BLE68-01(48591DE3C19B)	-0.226	-0.760	0.287	-18.311	-7.141	-43.884	-69.05	53.42	-15.88	-15.582	2.156	73.500	-0.77942	0.52948	-0.31586	0.11081	30.9	13111	100
2025-3-27 18:47:10.9	WT901BLE68-01(48591DE3C19B)	-0.226	-0.760	0.287	-18.311	-7.141	-43.884	-69.36	52.75	-15.92	-15.582	2.156	73.500	-0.76486	0.45615	-0.43030	-0.14709	30.9	13111	100
2025-3-27 18:47:10.9	WT901BLE68-01(48591DE3C19B)	-0.226	-0.708	0.273	-17.578	-1.099	-62.073	-69.72	52.02	-16.06	-15.582	2.156	73.500	-0.76486	0.45615	-0.43030	-0.14709	30.9	13111	100
2025-3-27 18:47:10.9	WT901BLE68-01(48591DE3C19B)	-0.252	-0.708	0.273	-17.578	-1.099	-62.073	-70.15	51.22	-16.27	-15.582	2.156	73.500	-0.76486	0.45615	-0.43030	-0.14709	30.9	13111	100
2025-3-27 18:47:10.33	WT901BLE68-01(48591DE3C19B)	-0.252	-0.675	0.277	-17.151	0.977	-79.834	-70.60	50.34	-16.53	-15.582	2.156	73.500	-0.76486	0.45615	-0.43030	-0.14709	30.9	13111	100
2025-3-27 18:47:10.33	WT901BLE68-01(48591DE3C19B)	-0.258	-0.675	0.277	-17.151	0.977	-79.834	-71.08	49.38	-16.83	-15.582	2.156	73.500	-0.76486	0.45615	-0.43030	-0.14709	30.9	13111	100
2025-3-27 18:47:10.33	WT901BLE68-01(48591DE3C19B)	-0.258	-0.694	0.285	-15.930	-2.747	-95.764	-71.53	48.36	-17.12	-15.582	2.156	73.500	-0.76486	0.45615	-0.43030	-0.14709	30.9	13111	100
2025-3-27 18:47:10.33	WT901BLE68-01(48591DE3C19B)	-0.244	-0.694	0.285	-15.930	-2.747	-95.764	-71.95	47.25	-17.40	-15.582	2.156	73.500	-0.76486	0.45615	-0.43030	-0.14709	30.9	13111	100
2025-3-27 18:47:10.64	WT901BLE68-01(48591DE3C19B)	-0.244	-0.740	0.261	-11.108	-6.226	-109.741	-72.34	46.09	-17.67	-15.582	2.156	73.500	-0.76486	0.45615	-0.43030	-0.14709	30.9	13111	100
2025-3-27 18:47:10.64	WT901BLE68-01(48591DE3C19B)	-0.229	-0.740	0.261	-11.108	-6.226	-109.741	-72.70	44.85	-17.93	-15.582	2.156	73.500	-0.76486	0.45615	-0.43030	-0.14709	30.9	13111	100
