time	DeviceName	AccX(g)	AccY(g)	AccZ(g)	AsX(°/s)	AsY(°/s)	AsZ(°/s)	AngleX(°)	AngleY(°)	AngleZ(°)	HX(uT)	HY(uT)	HZ(uT)	Q0()	Q1()	Q2()	Q3()	Temperature(°C)	Version()	Battery level(%)
2025-3-27 18:45:58.483	WT901BLE68-01(48591DE3C19B)	-0.098	-0.971	0.244	2.258	4.456	7.324	-76.03	9.58	-51.51	-67.522	-55.566	-7.644	-0.74567	0.54260	-0.29074	0.25485	30.8	13111	100
2025-3-27 18:45:58.483	WT901BLE68-01(48591DE3C19B)	-0.098	-0.970	0.245	2.319	4.333	6.653	-76.02	9.63	-51.87	-67.522	-55.566	-7.644	-0.74567	0.54260	-0.29074	0.25485	30.8	13111	100
2025-3-27 18:45:58.483	WT901BLE68-01(48591DE3C19B)	-0.116	-0.970	0.245	2.319	4.333	6.653	-76.01	9.68	-52.22	-67.522	-55.566	-7.644	-0.74567	0.54260	-0.29074	0.25485	30.8	13111	100
2025-3-27 18:45:58.483	WT901BLE68-01(48591DE3C19B)	-0.116	-0.976	0.243	2.136	3.601	5.615	-76.00	9.73	-52.56	-69.384	-54.684	-7.742	-0.74567	0.54260	-0.29074	0.25485	30.8	13111	100
2025-3-27 18:45:58.484	WT901BLE68-01(48591DE3C19B)	-0.125	-0.976	0.243	2.136	3.601	5.615	-75.99	9.77	-52.91	-69.384	-54.684	-7.742	-0.74567	0.54260	-0.29074	0.25485	30.8	13111	100
2025-3-27 18:45:58.484	WT901BLE68-01(48591DE3C19B)	-0.125	-0.985	0.241	2.136	1.648	4.333	-75.98	9.80	-53.25	-69.384	-54.684	-7.742	-0.74567	0.54260	-0.29074	0.25485	30.8	13111	100
2025-3-27 18:45:58.484	WT901BLE68-01(48591DE3C19B)	-0.125	-0.985	0.241	2.136	1.648	4.333	-75.98	9.82	-53.56	-69.384	-54.684	-7.742	-0.74567	0.54260	-0.29074	0.25485	30.8	13111	100
2025-3-27 18:45:58.484	WT901BLE68-01(48591DE3C19B)	-0.125	-0.983	0.235	2.869	0.244	3.906	-75.96	9.84	-53.88	-69.384	-54.684	-7.742	-0.74567	0.54260	-0.29074	0.25485	30.8	13111	100
2025-3-27 18:45:58.573	WT901BLE68-01(48591DE3C19B)	-0.125	-0.983	0.235	2.869	0.244	3.906	-75.94	9.86	-54.19	-69.384	-54.684	-7.742	-0.74567	0.54260	-0.29074	0.25485	30.8	13111	100
2025-3-27 18:45:58.574	WT901BLE68-01(48591DE3C19B)	-0.125	-0.967	0.228	3.174	-1.099	3.540	-75.92	9.88	-54.49	-69.384	-54.684	-7.742	-0.74567	0.54260	-0.29074	0.25485	30.8	13111	100
2025-3-27 18:45:58.574	WT901BLE68-01(48591DE3C19B)	-0.131	-0.967	0.228	3.174	-1.099	3.540	-75.89	9.89	-54.78	-69.384	-54.684	-7.742	-0.74567	0.54260	-0.29074	0.25485	30.8	13111	100
2025-3-27 18:45:58.574	WT901BLE68-01(48591DE3C19B)	-0.131	-0.963	0.224	2.808	-2.686	3.174	-75.87	9.90	-55.06	-69.384	-54.684	-7.742	-0.74567	0.54260	-0.29074	0.25485	30.8	13111	100
2025-3-27 18:45:58.574	WT901BLE68-01(48591DE3C19B)	-0.128	-0.963	0.224	2.808	-2.686	3.174	-75.84	9.90	-55.33	-69.384	-54.684	-7.742	-0.74567	0.54260	-0.29074	0.25485	30.8	13111	100
2025-3-27 18:45:58.575	WT901BLE68-01(48591DE3C19B)	-0.128	-0.957	0.222	2.869	-4.150	2.625	-75.82	9.91	-55.60	-69.384	-54.684	-7.742	-0.74567	0.54260	-0.29074	0.25485	30.8	13111	100
2025-3-27 18:45:58.575	WT901BLE68-01(48591DE3C19B)	-0.127	-0.957	0.222	2.869	-4.150	2.625	-75.79	9.90	-55.85	-69.384	-54.684	-7.742	-0.74567	0.54260	-0.29074	0.25485	30.8	13111	100
2025-3-27 18:45:58.575	WT901BLE68-01(48591DE3C19B)	-0.127	-0.958	0.212	2.441	-4.700	1.831	-75.77	9.90	-56.11	-69.384	-54.684	-7.742	-0.74567	0.54260	-0.29074	0.25485	30.8	13111	100
2025-3-27 18:45:58.604	WT901BLE68-01(48591DE3C19B)	-0.133	-0.958	0.212	2.441	-4.700	1.831	-75.75	9.89	-56.36	-69.384	-54.684	-7.742	-0.74567	0.54260	-0.29074	0.25485	30.8	13111	100
2025-3-27 18:45:58.604	WT901BLE68-01(48591DE3C19B)	-0.133	-0.956	0.206	2.136	-5.737	0.977	-75.73	9.88	-56.60	-69.384	-54.684	-7.742	-0.74567	0.54260	-0.29074	0.25485	30.8	13111	100
2025-3-27 18:45:58.604	WT901BLE68-01(48591DE3C19B)	-0.133	-0.956	0.206	2.136	-5.737	0.977	-75.71	9.86	-56.84	-69.384	-54.684	-7.742	-0.71655	0.50500	-0.35114	0.32880	30.8	13111	100
2025-3-27 18:45:58.604	WT901BLE68-01(48591DE3C19B)	-0.133	-0.954	0.205	1.465	-7.568	0.122	-75.70	9.84	-57.07	-69.384	-54.684	-7.742	-0.71655	0.50500	-0.35114	0.32880	30.8	13111	100
2025-3-27 18:45:58.662	WT901BLE68-01(48591DE3C19B)	-0.133	-0.954	0.205	1.465	-7.568	0.122	-75.68	9.81	-57.29	-69.384	-54.684	-7.742	-0.71655	0.50500	-0.35114	0.32880	30.8	13111	100
2025-3-27 18:45:58.662	WT901BLE68-01(48591DE3C19B)	-0.133	-0.944	0.204	0.671	-9.460	-0.427	-75.67	9.77	-57.50	-69.384	-54.684	-7.742	-0.71655	0.50500	-0.35114	0.32880	30.8	13111	100
2025-3-27 18:45:58.663	WT901BLE68-01(48591DE3C19B)	-0.121	-0.944	0.204	0.671	-9.460	-0.427	-75.67	9.73	-57.69	-69.384	-54.684	-7.742	-0.71655	0.50500	-0.35114	0.32880	30.8	13111	100
2025-3-27 18:45:58.663	WT901BLE68-01(48591DE3C19B)	-0.121	-0.932	0.204	-0.305	-11.841	-1.038	-75.66	9.70	-57.88	-69.384	-54.684	-7.742	-0.71655	0.50500	-0.35114	0.32880	30.8	13111	100
2025-3-27 18:45:58.691	WT901BLE68-01(48591DE3C19B)	-0.121	-0.932	0.204	-0.305	-11.841	-1.038	-75.66	9.65	-58.06	-69.384	-54.684	-7.742	-0.71655	0.50500	-0.35114	0.32880	30.8	13111	100
2025-3-27 18:45:58.691	WT901BLE68-01(48591DE3C19B)	-0.121	-0.933	0.202	-1.404	-12.085	-1.465	-75.66	9.59	-58.23	-69.384	-54.684	-7.742	-0.71655	0.50500	-0.35114	0.32880	30.8	13111	100
2025-3-27 18:45:58.691	WT901BLE68-01(48591DE3C19B)	-0.114	-0.933	0.202	-1.404	-12.085	-1.465	-75.67	9.54	-58.40	-69.384	-54.684	-7.742	-0.71655	0.50500	-0.35114	0.32880	30.8	13111	100
2025-3-27 18:45:58.691	WT901BLE68-01(48591DE3C19B)	-0.114	-0.958	0.192	-1.831	-11.536	-1.343	-75.68	9.49	-58.57	-69.384	-54.684	-7.742	-0.71655	0.50500	-0.35114	0.32880	30.8	13111	100
2025-3-27 18:45:58.722	WT901BLE68-01(48591DE3C19B)	-0.098	-0.958	0.192	-1.831	-11.536	-1.343	-75.70	9.44	-58.74	-69.384	-54.684	-7.742	-0.71655	0.50500	-0.35114	0.32880	30.8	13111	100
2025-3-27 18:45:58.722	WT901BLE68-01(48591DE3C19B)	-0.098	-0.980	0.194	-1.160	-9.705	-0.854	-75.72	9.39	-58.92	-69.384	-54.684	-7.742	-0.71655	0.50500	-0.35114	0.32880	30.8	13111	100
2025-3-27 18:45:58.722	WT901BLE68-01(48591DE3C19B)	-0.095	-0.980	0.194	-1.160	-9.705	-0.854	-75.73	9.35	-59.10	-69.384	-54.684	-7.742	-0.71655	0.50500	-0.35114	0.32880	30.8	13111	100
2025-3-27 18:45:58.722	WT901BLE68-01(48591DE3C19B)	-0.095	-0.997	0.201	-0.061	-6.226	-0.549	-75.74	9.32	-59.30	-69.384	-54.684	-7.742	-0.71655	0.50500	-0.35114	0.32880	30.8	13111	100
2025-3-27 18:45:58.812	WT901BLE68-01(48591DE3C19B)	-0.083	-0.997	0.201	-0.061	-6.226	-0.549	-75.75	9.29	-59.52	-69.384	-54.684	-7.742	-0.71655	0.50500	-0.35114	0.32880	30.8	13111	100
2025-3-27 18:45:58.812	WT901BLE68-01(48591DE3C19B)	-0.083	-1.013	0.205	0.610	-2.686	0.366	-75.76	9.27	-59.74	-69.384	-54.684	-7.742	-0.71655	0.50500	-0.35114	0.32880	30.8	13111	100
2025-3-27 18:45:58.812	WT901BLE68-01(48591DE3C19B)	-0.049	-1.013	0.205	0.610	-2.686	0.366	-75.77	9.25	-59.99	-69.384	-54.684	-7.742	-0.71655	0.50500	-0.35114	0.32880	30.8	13111	100
2025-3-27 18:45:58.812	WT901BLE68-01(48591DE3C19B)	-0.049	-1.036	0.192	0.977	1.770	2.258	-75.78	9.25	-60.25	-69.384	-54.684	-7.742	-0.71655	0.50500	-0.35114	0.32880	30.8	13111	100
2025-3-27 18:45:58.814	WT901BLE68-01(48591DE3C19B)	-0.029	-1.036	0.192	0.977	1.770	2.258	-75.79	9.27	-60.53	-69.384	-54.684	-7.742	-0.71655	0.50500	-0.35114	0.32880	30.8	13111	100
2025-3-27 18:45:58.814	WT901BLE68-01(48591DE3C19B)	-0.029	-1.042	0.180	0.488	4.272	4.822	-75.81	9.29	-60.81	-69.384	-54.684	-7.742	-0.71655	0.50500	-0.35114	0.32880	30.8	13111	100
2025-3-27 18:45:58.814	WT901BLE68-01(48591DE3C19B)	-0.004	-1.042	0.180	0.488	4.272	4.822	-75.84	9.33	-61.11	-69.384	-54.684	-7.742	-0.71655	0.50500	-0.35114	0.32880	30.8	13111	100
2025-3-27 18:45:58.814	WT901BLE68-01(48591DE3C19B)	-0.004	-1.070	0.177	-2.686	2.808	6.897	-75.88	9.38	-61.38	-70.952	-54.880	-7.154	-0.71655	0.50500	-0.35114	0.32880	30.8	13111	100
2025-3-27 18:45:58.844	WT901BLE68-01(48591DE3C19B)	0.082	-1.070	0.177	-2.686	2.808	6.897	-75.94	9.43	-61.65	-70.952	-54.880	-7.154	-0.71655	0.50500	-0.35114	0.32880	30.8	13111	100
2025-3-27 18:45:58.845	WT901BLE68-01(48591DE3C19B)	0.082	-1.125	0.180	-4.944	2.075	7.813	-76.01	9.48	-61.91	-70.952	-54.880	-7.154	-0.71655	0.50500	-0.35114	0.32880	30.8	13111	100
2025-3-27 18:45:58.845	WT901BLE68-01(48591DE3C19B)	0.208	-1.125	0.180	-4.944	2.075	7.813	-76.09	9.53	-62.16	-70.952	-54.880	-7.154	-0.71655	0.50500	-0.35114	0.32880	30.8	13111	100
2025-3-27 18:45:58.845	WT901BLE68-01(48591DE3C19B)	0.208	-1.105	0.180	-4.028	8.911	8.728	-76.17	9.59	-62.44	-70.952	-54.880	-7.154	-0.71655	0.50500	-0.35114	0.32880	30.8	13111	100
2025-3-27 18:45:58.905	WT901BLE68-01(48591DE3C19B)	0.320	-1.105	0.180	-4.028	8.911	8.728	-76.27	9.65	-62.75	-70.952	-54.880	-7.154	-0.71655	0.50500	-0.35114	0.32880	30.8	13111	100
2025-3-27 18:45:58.905	WT901BLE68-01(48591DE3C19B)	0.320	-1.041	0.183	-3.784	20.691	3.967	-76.37	9.70	-63.13	-70.952	-54.880	-7.154	-0.71655	0.50500	-0.35114	0.32880	30.8	13111	100
2025-3-27 18:45:58.905	WT901BLE68-01(48591DE3C19B)	0.331	-1.041	0.183	-3.784	20.691	3.967	-76.48	9.72	-63.56	-70.952	-54.880	-7.154	-0.71655	0.50500	-0.35114	0.32880	30.8	13111	100
2025-3-27 18:45:58.905	WT901BLE68-01(48591DE3C19B)	0.331	-1.011	0.216	-2.258	32.471	-3.723	-76.60	9.71	-64.06	-70.952	-54.880	-7.154	-0.71655	0.50500	-0.35114	0.32880	30.8	13111	100
2025-3-27 18:45:58.931	WT901BLE68-01(48591DE3C19B)	0.289	-1.011	0.216	-2.258	32.471	-3.723	-76.73	9.67	-64.62	-70.952	-54.880	-7.154	-0.71655	0.50500	-0.35114	0.32880	30.8	13111	100
2025-3-27 18:45:58.932	WT901BLE68-01(48591DE3C19B)	0.289	-0.964	0.236	0.549	39.307	-14.099	-76.84	9.54	-65.28	-70.952	-54.880	-7.154	-0.71655	0.50500	-0.35114	0.32880	30.8	13111	100
2025-3-27 18:45:58.932	WT901BLE68-01(48591DE3C19B)	0.242	-0.964	0.236	0.549	39.307	-14.099	-76.95	9.40	-65.92	-70.952	-54.880	-7.154	-0.71655	0.50500	-0.35114	0.32880	30.8	13111	100
2025-3-27 18:45:58.932	WT901BLE68-01(48591DE3C19B)	0.242	-0.925	0.252	3.479	48.218	-26.123	-77.04	9.16	-66.68	-70.952	-54.880	-7.154	-0.71655	0.50500	-0.35114	0.32880	30.8	13111	100
2025-3-27 18:45:59.51	WT901BLE68-01(48591DE3C19B)	0.173	-0.925	0.252	3.479	48.218	-26.123	-77.13	8.92	-67.44	-70.952	-54.880	-7.154	-0.71655	0.50500	-0.35114	0.32880	30.8	13111	100
2025-3-27 18:45:59.52	WT901BLE68-01(48591DE3C19B)	0.173	-0.884	0.240	5.127	55.298	-37.903	-77.21	8.57	-68.29	-70.952	-54.880	-7.154	-0.71655	0.50500	-0.35114	0.32880	30.8	13111	100
2025-3-27 18:45:59.52	WT901BLE68-01(48591DE3C19B)	0.072	-0.884	0.240	5.127	55.298	-37.903	-77.29	8.23	-69.13	-70.952	-54.880	-7.154	-0.71655	0.50500	-0.35114	0.32880	30.8	13111	100
2025-3-27 18:45:59.52	WT901BLE68-01(48591DE3C19B)	0.072	-0.938	0.237	-0.061	50.476	-50.415	-77.40	7.75	-69.95	-70.952	-54.880	-7.154	-0.71655	0.50500	-0.35114	0.32880	30.8	13111	100
2025-3-27 18:45:59.52	WT901BLE68-01(48591DE3C19B)	-0.080	-0.938	0.237	-0.061	50.476	-50.415	-77.51	7.28	-70.77	-70.952	-54.880	-7.154	-0.71655	0.50500	-0.35114	0.32880	30.8	13111	100
2025-3-27 18:45:59.52	WT901BLE68-01(48591DE3C19B)	-0.080	-1.116	0.252	-3.174	29.785	-58.350	-77.62	6.70	-71.39	-70.952	-54.880	-7.154	-0.71655	0.50500	-0.35114	0.32880	30.8	13111	100
2025-3-27 18:45:59.52	WT901BLE68-01(48591DE3C19B)	-0.313	-1.116	0.252	-3.174	29.785	-58.350	-77.72	6.12	-72.02	-70.952	-54.880	-7.154	-0.71655	0.50500	-0.35114	0.32880	30.8	13111	100
2025-3-27 18:45:59.52	WT901BLE68-01(48591DE3C19B)	-0.313	-1.265	0.319	-1.892	-7.690	-62.866	-77.76	5.43	-72.28	-70.952	-54.880	-7.154	-0.71655	0.50500	-0.35114	0.32880	30.8	13111	100
2025-3-27 18:45:59.53	WT901BLE68-01(48591DE3C19B)	-0.393	-1.265	0.319	-1.892	-7.690	-62.866	-77.79	4.76	-72.55	-70.952	-54.880	-7.154	-0.71655	0.50500	-0.35114	0.32880	30.8	13111	100
2025-3-27 18:45:59.53	WT901BLE68-01(48591DE3C19B)	-0.393	-1.343	0.384	0.183	-45.898	-69.153	-77.77	3.96	-72.45	-70.952	-54.880	-7.154	-0.71655	0.50500	-0.35114	0.32880	30.8	13111	100
2025-3-27 18:45:59.53	WT901BLE68-01(48591DE3C19B)	-0.297	-1.343	0.384	0.183	-45.898	-69.153	-77.74	3.18	-72.37	-70.952	-54.880	-7.154	-0.71655	0.50500	-0.35114	0.32880	30.8	13111	100
2025-3-27 18:45:59.53	WT901BLE68-01(48591DE3C19B)	-0.297	-1.267	0.407	3.906	-64.575	-72.876	-77.67	2.33	-72.11	-70.952	-54.880	-7.154	-0.71655	0.50500	-0.35114	0.32880	30.8	13111	100
2025-3-27 18:45:59.81	WT901BLE68-01(48591DE3C19B)	-0.208	-1.267	0.407	3.906	-64.575	-72.876	-77.59	1.49	-71.87	-70.952	-54.880	-7.154	-0.71655	0.50500	-0.35114	0.32880	30.8	13111	100
2025-3-27 18:45:59.81	WT901BLE68-01(48591DE3C19B)	-0.208	-1.085	0.402	1.160	-64.148	-71.655	-77.55	0.68	-71.63	-70.952	-54.880	-7.154	-0.71655	0.50500	-0.35114	0.32880	30.8	13111	100
2025-3-27 18:45:59.81	WT901BLE68-01(48591DE3C19B)	-0.161	-1.085	0.402	1.160	-64.148	-71.655	-77.51	-0.13	-71.39	-70.952	-54.880	-7.154	-0.63284	0.50885	-0.36453	0.45563	30.8	13111	100
2025-3-27 18:45:59.81	WT901BLE68-01(48591DE3C19B)	-0.161	-0.955	0.370	-4.150	-46.143	-67.566	-77.52	-0.86	-71.33	-70.952	-54.880	-7.154	-0.63284	0.50885	-0.36453	0.45563	30.8	13111	100
2025-3-27 18:45:59.172	WT901BLE68-01(48591DE3C19B)	-0.182	-0.955	0.370	-4.150	-46.143	-67.566	-77.53	-1.58	-71.27	-70.952	-54.880	-7.154	-0.63284	0.50885	-0.36453	0.45563	30.8	13111	100
2025-3-27 18:45:59.172	WT901BLE68-01(48591DE3C19B)	-0.182	-0.857	0.366	-5.859	-17.334	-63.721	-77.54	-2.20	-71.49	-70.952	-54.880	-7.154	-0.63284	0.50885	-0.36453	0.45563	30.8	13111	100
2025-3-27 18:45:59.172	WT901BLE68-01(48591DE3C19B)	-0.224	-0.857	0.366	-5.859	-17.334	-63.721	-77.55	-2.82	-71.71	-70.952	-54.880	-7.154	-0.63284	0.50885	-0.36453	0.45563	30.8	13111	100
2025-3-27 18:45:59.172	WT901BLE68-01(48591DE3C19B)	-0.112	-0.784	0.376	-6.958	10.254	-59.814	-77.56	-3.33	-72.19	-70.952	-54.880	-7.154	-0.63284	0.50885	-0.36453	0.45563	30.8	13111	100
2025-3-27 18:45:59.173	WT901BLE68-01(48591DE3C19B)	-0.311	-0.392	0.188	-6.958	10.254	-59.814	-77.55	-3.85	-72.67	-70.952	-54.880	-7.154	-0.63284	0.50885	-0.36453	0.45563	30.8	13111	100
2025-3-27 18:45:59.174	WT901BLE68-01(48591DE3C19B)	-0.311	-0.760	0.380	-7.019	27.832	-54.626	-77.53	-4.26	-73.32	-70.952	-54.880	-7.154	-0.63284	0.50885	-0.36453	0.45563	30.8	13111	100
2025-3-27 18:45:59.174	WT901BLE68-01(48591DE3C19B)	-0.444	-0.760	0.380	-7.019	27.832	-54.626	-77.50	-4.67	-73.97	-70.952	-54.880	-7.154	-0.63284	0.50885	-0.36453	0.45563	30.8	13111	100
2025-3-27 18:45:59.174	WT901BLE68-01(48591DE3C19B)	-0.444	-0.751	0.371	-4.272	28.748	-47.852	-77.43	-5.00	-74.62	-70.952	-54.880	-7.154	-0.63284	0.50885	-0.36453	0.45563	30.8	13111	100
2025-3-27 18:45:59.232	WT901BLE68-01(48591DE3C19B)	-0.536	-0.751	0.371	-4.272	28.748	-47.852	-77.35	-5.33	-75.27	-70.952	-54.880	-7.154	-0.63284	0.50885	-0.36453	0.45563	30.8	13111	100
2025-3-27 18:45:59.232	WT901BLE68-01(48591DE3C19B)	-0.536	-0.740	0.352	-2.808	13.672	-40.283	-77.26	-5.60	-75.77	-70.952	-54.880	-7.154	-0.63284	0.50885	-0.36453	0.45563	30.8	13111	100
2025-3-27 18:45:59.232	WT901BLE68-01(48591DE3C19B)	-0.534	-0.740	0.352	-2.808	13.672	-40.283	-77.17	-5.86	-76.27	-70.952	-54.880	-7.154	-0.63284	0.50885	-0.36453	0.45563	30.8	13111	100
2025-3-27 18:45:59.232	WT901BLE68-01(48591DE3C19B)	-0.534	-0.706	0.342	-2.014	-10.498	-29.724	-77.08	-6.06	-76.53	-70.952	-54.880	-7.154	-0.63284	0.50885	-0.36453	0.45563	30.8	13111	100
2025-3-27 18:45:59.261	WT901BLE68-01(48591DE3C19B)	-0.506	-0.706	0.342	-2.014	-10.498	-29.724	-76.99	-6.26	-76.78	-70.952	-54.880	-7.154	-0.63284	0.50885	-0.36453	0.45563	30.8	13111	100
2025-3-27 18:45:59.261	WT901BLE68-01(48591DE3C19B)	-0.506	-0.676	0.350	-1.831	-29.480	-17.822	-76.92	-6.38	-76.84	-61.740	-55.958	-9.604	-0.63284	0.50885	-0.36453	0.45563	30.8	13111	100
2025-3-27 18:45:59.261	WT901BLE68-01(48591DE3C19B)	-0.459	-0.676	0.350	-1.831	-29.480	-17.822	-76.84	-6.49	-76.90	-61.740	-55.958	-9.604	-0.63284	0.50885	-0.36453	0.45563	30.8	13111	100
2025-3-27 18:45:59.261	WT901BLE68-01(48591DE3C19B)	-0.459	-0.657	0.371	-1.892	-38.513	-5.249	-76.76	-6.50	-76.85	-61.740	-55.958	-9.604	-0.63284	0.50885	-0.36453	0.45563	30.8	13111	100
2025-3-27 18:45:59.291	WT901BLE68-01(48591DE3C19B)	-0.431	-0.657	0.371	-1.892	-38.513	-5.249	-76.68	-6.50	-76.81	-61.740	-55.958	-9.604	-0.63284	0.50885	-0.36453	0.45563	30.8	13111	100
2025-3-27 18:45:59.292	WT901BLE68-01(48591DE3C19B)	-0.431	-0.678	0.376	-2.991	-40.588	8.301	-76.62	-6.39	-76.71	-61.740	-55.958	-9.604	-0.63284	0.50885	-0.36453	0.45563	30.8	13111	100
2025-3-27 18:45:59.292	WT901BLE68-01(48591DE3C19B)	-0.392	-0.678	0.376	-2.991	-40.588	8.301	-76.55	-6.27	-76.62	-61.740	-55.958	-9.604	-0.63284	0.50885	-0.36453	0.45563	30.8	13111	100
2025-3-27 18:45:59.292	WT901BLE68-01(48591DE3C19B)	-0.392	-0.728	0.361	-2.808	-32.654	21.301	-76.47	-6.00	-76.58	-61.740	-55.958	-9.604	-0.63284	0.50885	-0.36453	0.45563	30.8	13111	100
2025-3-27 18:45:59.352	WT901BLE68-01(48591DE3C19B)	-0.387	-0.728	0.361	-2.808	-32.654	21.301	-76.39	-5.74	-76.54	-61.740	-55.958	-9.604	-0.63284	0.50885	-0.36453	0.45563	30.8	13111	100
2025-3-27 18:45:59.352	WT901BLE68-01(48591DE3C19B)	-0.387	-0.831	0.340	-3.540	-18.250	31.677	-76.31	-5.34	-76.61	-61.740	-55.958	-9.604	-0.63284	0.50885	-0.36453	0.45563	30.8	13111	100
2025-3-27 18:45:59.352	WT901BLE68-01(48591DE3C19B)	-0.422	-0.831	0.340	-3.540	-18.250	31.677	-76.23	-4.95	-76.67	-61.740	-55.958	-9.604	-0.63284	0.50885	-0.36453	0.45563	30.8	13111	100
2025-3-27 18:45:59.352	WT901BLE68-01(48591DE3C19B)	-0.422	-1.021	0.352	-4.028	-6.287	37.964	-76.16	-4.47	-76.83	-61.740	-55.958	-9.604	-0.63284	0.50885	-0.36453	0.45563	30.8	13111	100
2025-3-27 18:45:59.383	WT901BLE68-01(48591DE3C19B)	-0.462	-1.021	0.352	-4.028	-6.287	37.964	-76.08	-3.99	-76.98	-61.740	-55.958	-9.604	-0.63284	0.50885	-0.36453	0.45563	30.8	13111	100
2025-3-27 18:45:59.383	WT901BLE68-01(48591DE3C19B)	-0.476	-1.294	0.396	-2.502	2.625	41.443	-76.00	-3.46	-77.20	-61.740	-55.958	-9.604	-0.63284	0.50885	-0.36453	0.45563	30.8	13111	100
2025-3-27 18:45:59.383	WT901BLE68-01(48591DE3C19B)	-0.476	-1.583	0.415	2.747	13.184	44.373	-75.89	-2.90	-77.46	-61.740	-55.958	-9.604	-0.63284	0.50885	-0.36453	0.45563	30.8	13111	100
2025-3-27 18:45:59.384	WT901BLE68-01(48591DE3C19B)	-0.491	-1.583	0.415	2.747	13.184	44.373	-75.77	-2.32	-77.75	-61.740	-55.958	-9.604	-0.63284	0.50885	-0.36453	0.45563	30.8	13111	100
2025-3-27 18:45:59.413	WT901BLE68-01(48591DE3C19B)	-0.491	-1.707	0.401	13.245	25.574	48.035	-75.61	-1.71	-78.08	-61.740	-55.958	-9.604	-0.63284	0.50885	-0.36453	0.45563	30.8	13111	100
2025-3-27 18:45:59.413	WT901BLE68-01(48591DE3C19B)	-0.501	-1.707	0.401	13.245	25.574	48.035	-75.40	-1.07	-78.46	-61.740	-55.958	-9.604	-0.63284	0.50885	-0.36453	0.45563	30.8	13111	100
2025-3-27 18:45:59.413	WT901BLE68-01(48591DE3C19B)	-0.501	-1.674	0.316	13.977	36.743	52.185	-75.21	-0.40	-78.87	-61.740	-55.958	-9.604	-0.61105	0.47021	-0.38782	0.50494	30.8	13111	100
2025-3-27 18:45:59.413	WT901BLE68-01(48591DE3C19B)	-0.522	-1.674	0.316	13.977	36.743	52.185	-75.02	0.30	-79.32	-61.740	-55.958	-9.604	-0.61105	0.47021	-0.38782	0.50494	30.8	13111	100
2025-3-27 18:45:59.472	WT901BLE68-01(48591DE3C19B)	-0.522	-1.604	0.161	10.742	40.344	61.462	-74.86	1.05	-79.76	-61.740	-55.958	-9.604	-0.61105	0.47021	-0.38782	0.50494	30.8	13111	100
2025-3-27 18:45:59.472	WT901BLE68-01(48591DE3C19B)	-0.541	-1.604	0.161	10.742	40.344	61.462	-74.72	1.85	-80.19	-61.740	-55.958	-9.604	-0.61105	0.47021	-0.38782	0.50494	30.8	13111	100
2025-3-27 18:45:59.472	WT901BLE68-01(48591DE3C19B)	-0.541	-1.381	0.091	1.099	28.931	80.200	-74.65	2.72	-80.54	-61.740	-55.958	-9.604	-0.61105	0.47021	-0.38782	0.50494	30.8	13111	100
2025-3-27 18:45:59.472	WT901BLE68-01(48591DE3C19B)	-0.548	-1.381	0.091	1.099	28.931	80.200	-74.63	3.66	-80.80	-61.740	-55.958	-9.604	-0.61105	0.47021	-0.38782	0.50494	30.8	13111	100
2025-3-27 18:45:59.504	WT901BLE68-01(48591DE3C19B)	-0.548	-1.174	0.103	-15.991	-1.282	106.445	-74.69	4.69	-80.86	-61.740	-55.958	-9.604	-0.61105	0.47021	-0.38782	0.50494	30.8	13111	100
2025-3-27 18:45:59.505	WT901BLE68-01(48591DE3C19B)	-0.439	-1.174	0.103	-15.991	-1.282	106.445	-74.82	5.81	-80.75	-61.740	-55.958	-9.604	-0.61105	0.47021	-0.38782	0.50494	30.8	13111	100
2025-3-27 18:45:59.505	WT901BLE68-01(48591DE3C19B)	-0.439	-1.099	0.133	-30.579	-48.767	133.362	-75.00	6.98	-80.37	-61.740	-55.958	-9.604	-0.61105	0.47021	-0.38782	0.50494	30.8	13111	100
2025-3-27 18:45:59.505	WT901BLE68-01(48591DE3C19B)	-0.178	-1.099	0.133	-30.579	-48.767	133.362	-75.20	8.22	-79.73	-61.740	-55.958	-9.604	-0.61105	0.47021	-0.38782	0.50494	30.8	13111	100
2025-3-27 18:45:59.531	WT901BLE68-01(48591DE3C19B)	-0.178	-1.227	0.116	-36.072	-90.393	155.579	-75.38	9.51	-78.85	-61.740	-55.958	-9.604	-0.61105	0.47021	-0.38782	0.50494	30.8	13111	100
2025-3-27 18:45:59.531	WT901BLE68-01(48591DE3C19B)	0.044	-1.227	0.116	-36.072	-90.393	155.579	-75.52	10.85	-77.74	-61.740	-55.958	-9.604	-0.61105	0.47021	-0.38782	0.50494	30.8	13111	100
2025-3-27 18:45:59.531	WT901BLE68-01(48591DE3C19B)	0.044	-1.276	0.049	-25.085	-101.440	170.105	-75.57	12.23	-76.55	-61.740	-55.958	-9.604	-0.61105	0.47021	-0.38782	0.50494	30.8	13111	100
2025-3-27 18:45:59.531	WT901BLE68-01(48591DE3C19B)	0.095	-1.276	0.049	-25.085	-101.440	170.105	-75.53	13.66	-75.28	-61.740	-55.958	-9.604	-0.61105	0.47021	-0.38782	0.50494	30.8	13111	100
2025-3-27 18:45:59.594	WT901BLE68-01(48591DE3C19B)	0.095	-1.146	0.020	-13.000	-88.562	172.791	-75.42	15.08	-74.06	-61.740	-55.958	-9.604	-0.61105	0.47021	-0.38782	0.50494	30.8	13111	100
2025-3-27 18:45:59.594	WT901BLE68-01(48591DE3C19B)	0.046	-1.146	0.020	-13.000	-88.562	172.791	-75.23	16.52	-72.89	-61.740	-55.958	-9.604	-0.61105	0.47021	-0.38782	0.50494	30.8	13111	100
2025-3-27 18:45:59.594	WT901BLE68-01(48591DE3C19B)	0.046	-1.084	0.015	-11.475	-64.270	164.429	-75.05	17.93	-71.85	-61.740	-55.958	-9.604	-0.61105	0.47021	-0.38782	0.50494	30.8	13111	100
2025-3-27 18:45:59.594	WT901BLE68-01(48591DE3C19B)	-0.019	-1.084	0.015	-11.475	-64.270	164.429	-74.88	19.31	-70.92	-61.740	-55.958	-9.604	-0.61105	0.47021	-0.38782	0.50494	30.8	13111	100
2025-3-27 18:45:59.624	WT901BLE68-01(48591DE3C19B)	-0.019	-1.116	-0.003	-7.385	-29.602	151.245	-74.73	20.66	-70.18	-61.740	-55.958	-9.604	-0.61105	0.47021	-0.38782	0.50494	30.8	13111	100
2025-3-27 18:45:59.624	WT901BLE68-01(48591DE3C19B)	-0.004	-1.116	-0.003	-7.385	-29.602	151.245	-74.62	21.98	-69.63	-61.740	-55.958	-9.604	-0.61105	0.47021	-0.38782	0.50494	30.8	13111	100
2025-3-27 18:45:59.624	WT901BLE68-01(48591DE3C19B)	-0.004	-1.063	-0.004	0.488	-2.075	136.169	-74.52	23.25	-69.24	-61.740	-55.958	-9.604	-0.61105	0.47021	-0.38782	0.50494	30.8	13111	100
2025-3-27 18:45:59.624	WT901BLE68-01(48591DE3C19B)	0.036	-1.063	-0.004	0.488	-2.075	136.169	-74.44	24.48	-69.01	-80.164	-45.472	-6.076	-0.61105	0.47021	-0.38782	0.50494	30.8	13111	100
2025-3-27 18:45:59.654	WT901BLE68-01(48591DE3C19B)	0.036	-0.939	-0.020	5.615	10.620	122.498	-74.37	25.64	-68.86	-80.164	-45.472	-6.076	-0.61105	0.47021	-0.38782	0.50494	30.8	13111	100
2025-3-27 18:45:59.654	WT901BLE68-01(48591DE3C19B)	0.021	-0.939	-0.020	5.615	10.620	122.498	-74.31	26.75	-68.79	-80.164	-45.472	-6.076	-0.61105	0.47021	-0.38782	0.50494	30.8	13111	100
2025-3-27 18:45:59.654	WT901BLE68-01(48591DE3C19B)	0.021	-0.861	-0.035	2.502	8.911	112.244	-74.27	27.79	-68.73	-80.164	-45.472	-6.076	-0.61105	0.47021	-0.38782	0.50494	30.8	13111	100
2025-3-27 18:45:59.654	WT901BLE68-01(48591DE3C19B)	0.012	-0.861	-0.035	2.502	8.911	112.244	-74.25	28.77	-68.68	-80.164	-45.472	-6.076	-0.61105	0.47021	-0.38782	0.50494	30.8	13111	100
2025-3-27 18:45:59.711	WT901BLE68-01(48591DE3C19B)	0.012	-0.817	-0.057	2.014	-0.549	104.858	-74.21	29.70	-68.58	-80.164	-45.472	-6.076	-0.61105	0.47021	-0.38782	0.50494	30.8	13111	100
2025-3-27 18:45:59.712	WT901BLE68-01(48591DE3C19B)	0.055	-0.817	-0.057	2.014	-0.549	104.858	-74.15	30.57	-68.43	-80.164	-45.472	-6.076	-0.61105	0.47021	-0.38782	0.50494	30.8	13111	100
2025-3-27 18:45:59.712	WT901BLE68-01(48591DE3C19B)	0.055	-0.760	-0.061	-1.282	-12.085	98.267	-74.09	31.39	-68.24	-80.164	-45.472	-6.076	-0.61105	0.47021	-0.38782	0.50494	30.8	13111	100
2025-3-27 18:45:59.712	WT901BLE68-01(48591DE3C19B)	0.101	-0.760	-0.061	-1.282	-12.085	98.267	-74.00	32.16	-67.99	-80.164	-45.472	-6.076	-0.61105	0.47021	-0.38782	0.50494	30.8	13111	100
2025-3-27 18:45:59.743	WT901BLE68-01(48591DE3C19B)	0.101	-0.848	-0.061	-9.277	-20.264	89.539	-73.94	32.86	-67.70	-80.164	-45.472	-6.076	-0.61105	0.47021	-0.38782	0.50494	30.8	13111	100
2025-3-27 18:45:59.743	WT901BLE68-01(48591DE3C19B)	0.155	-0.848	-0.061	-9.277	-20.264	89.539	-73.91	33.50	-67.38	-80.164	-45.472	-6.076	-0.61105	0.47021	-0.38782	0.50494	30.8	13111	100
2025-3-27 18:45:59.743	WT901BLE68-01(48591DE3C19B)	0.155	-1.046	-0.069	-14.160	-25.208	77.881	-73.89	34.08	-67.06	-80.164	-45.472	-6.076	-0.61105	0.47021	-0.38782	0.50494	30.8	13111	100
2025-3-27 18:45:59.743	WT901BLE68-01(48591DE3C19B)	0.258	-1.046	-0.069	-14.160	-25.208	77.881	-73.88	34.58	-66.72	-80.164	-45.472	-6.076	-0.61105	0.47021	-0.38782	0.50494	30.8	13111	100
2025-3-27 18:45:59.771	WT901BLE68-01(48591DE3C19B)	0.258	-1.190	-0.059	-14.282	-28.076	60.181	-73.89	34.99	-66.40	-80.164	-45.472	-6.076	-0.61105	0.47021	-0.38782	0.50494	30.8	13111	100
2025-3-27 18:45:59.771	WT901BLE68-01(48591DE3C19B)	0.353	-1.190	-0.059	-14.282	-28.076	60.181	-73.91	35.29	-66.09	-80.164	-45.472	-6.076	-0.61105	0.47021	-0.38782	0.50494	30.8	13111	100
2025-3-27 18:45:59.771	WT901BLE68-01(48591DE3C19B)	0.353	-1.341	-0.029	-16.296	-21.057	37.354	-73.98	35.50	-65.86	-80.164	-45.472	-6.076	-0.61105	0.47021	-0.38782	0.50494	30.8	13111	100
2025-3-27 18:45:59.771	WT901BLE68-01(48591DE3C19B)	0.406	-1.341	-0.029	-16.296	-21.057	37.354	-74.11	35.59	-65.72	-80.164	-45.472	-6.076	-0.61105	0.47021	-0.38782	0.50494	30.8	13111	100
2025-3-27 18:45:59.833	WT901BLE68-01(48591DE3C19B)	0.406	-1.595	0.011	-16.541	-10.742	1.343	-74.32	35.52	-65.70	-80.164	-45.472	-6.076	-0.61105	0.47021	-0.38782	0.50494	30.8	13111	100
2025-3-27 18:45:59.833	WT901BLE68-01(48591DE3C19B)	0.434	-1.595	0.011	-16.541	-10.742	1.343	-74.60	35.28	-65.81	-80.164	-45.472	-6.076	-0.61105	0.47021	-0.38782	0.50494	30.8	13111	100
2025-3-27 18:45:59.833	WT901BLE68-01(48591DE3C19B)	0.434	-1.735	0.029	-4.761	3.845	-35.583	-74.90	34.88	-66.06	-80.164	-45.472	-6.076	-0.61105	0.47021	-0.38782	0.50494	30.8	13111	100
2025-3-27 18:45:59.833	WT901BLE68-01(48591DE3C19B)	0.313	-1.735	0.029	-4.761	3.845	-35.583	-75.21	34.33	-66.45	-80.164	-45.472	-6.076	-0.61105	0.47021	-0.38782	0.50494	30.8	13111	100
2025-3-27 18:45:59.922	WT901BLE68-01(48591DE3C19B)	0.313	-1.642	0.050	-3.296	24.719	-72.510	-75.70	33.46	-67.18	-80.164	-45.472	-6.076	-0.72549	0.36578	-0.51410	0.27469	30.8	13111	100
2025-3-27 18:45:59.922	WT901BLE68-01(48591DE3C19B)	0.129	-1.642	0.050	-3.296	24.719	-72.510	-76.17	32.59	-67.88	-80.164	-45.472	-6.076	-0.72549	0.36578	-0.51410	0.27469	30.8	13111	100
2025-3-27 18:45:59.922	WT901BLE68-01(48591DE3C19B)	0.129	-1.635	0.077	-7.813	43.518	-108.337	-76.82	31.43	-68.89	-80.164	-45.472	-6.076	-0.72549	0.36578	-0.51410	0.27469	30.8	13111	100
2025-3-27 18:45:59.922	WT901BLE68-01(48591DE3C19B)	0.002	-1.635	0.077	-7.813	43.518	-108.337	-77.43	30.26	-69.86	-80.164	-45.472	-6.076	-0.72549	0.36578	-0.51410	0.27469	30.8	13111	100
2025-3-27 18:45:59.923	WT901BLE68-01(48591DE3C19B)	0.002	-1.579	0.111	-5.371	43.579	-136.230	-78.02	28.82	-70.86	-80.164	-45.472	-6.076	-0.72549	0.36578	-0.51410	0.27469	30.8	13111	100
2025-3-27 18:45:59.923	WT901BLE68-01(48591DE3C19B)	-0.082	-1.579	0.111	-5.371	43.579	-136.230	-78.56	27.38	-71.83	-80.164	-45.472	-6.076	-0.72549	0.36578	-0.51410	0.27469	30.8	13111	100
2025-3-27 18:45:59.923	WT901BLE68-01(48591DE3C19B)	-0.082	-1.587	0.091	-2.258	28.015	-156.250	-78.98	25.73	-72.65	-80.164	-45.472	-6.076	-0.72549	0.36578	-0.51410	0.27469	30.8	13111	100
2025-3-27 18:45:59.923	WT901BLE68-01(48591DE3C19B)	-0.114	-1.587	0.091	-2.258	28.015	-156.250	-79.37	24.09	-73.43	-80.164	-45.472	-6.076	-0.72549	0.36578	-0.51410	0.27469	30.8	13111	100
2025-3-27 18:45:59.954	WT901BLE68-01(48591DE3C19B)	-0.114	-1.537	0.054	13.000	13.794	-166.138	-79.51	22.33	-74.06	-80.164	-45.472	-6.076	-0.72549	0.36578	-0.51410	0.27469	30.8	13111	100
2025-3-27 18:45:59.954	WT901BLE68-01(48591DE3C19B)	-0.181	-1.537	0.054	13.000	13.794	-166.138	-79.63	20.59	-74.67	-80.164	-45.472	-6.076	-0.72549	0.36578	-0.51410	0.27469	30.8	13111	100
2025-3-27 18:45:59.954	WT901BLE68-01(48591DE3C19B)	-0.181	-1.278	0.092	18.066	-3.235	-168.518	-79.63	18.81	-75.10	-80.164	-45.472	-6.076	-0.72549	0.36578	-0.51410	0.27469	30.8	13111	100
2025-3-27 18:45:59.954	WT901BLE68-01(48591DE3C19B)	-0.165	-1.278	0.092	18.066	-3.235	-168.518	-79.61	17.04	-75.52	-80.164	-45.472	-6.076	-0.72549	0.36578	-0.51410	0.27469	30.8	13111	100
2025-3-27 18:45:59.982	WT901BLE68-01(48591DE3C19B)	-0.165	-1.080	0.131	11.536	-10.437	-166.626	-79.62	15.29	-75.86	-80.164	-45.472	-6.076	-0.72549	0.36578	-0.51410	0.27469	30.8	13111	100
2025-3-27 18:45:59.982	WT901BLE68-01(48591DE3C19B)	-0.173	-1.080	0.131	11.536	-10.437	-166.626	-79.61	13.56	-76.19	-80.164	-45.472	-6.076	-0.72549	0.36578	-0.51410	0.27469	30.8	13111	100
2025-3-27 18:45:59.982	WT901BLE68-01(48591DE3C19B)	-0.173	-0.951	0.176	2.319	-6.409	-162.964	-79.69	11.89	-76.55	-80.164	-45.472	-6.076	-0.72549	0.36578	-0.51410	0.27469	30.8	13111	100
2025-3-27 18:45:59.982	WT901BLE68-01(48591DE3C19B)	-0.225	-0.951	0.176	2.319	-6.409	-162.964	-79.77	10.22	-76.91	-80.164	-45.472	-6.076	-0.72549	0.36578	-0.51410	0.27469	30.8	13111	100
2025-3-27 18:46:0.11	WT901BLE68-01(48591DE3C19B)	-0.225	-0.890	0.208	-7.202	-4.211	-157.715	-79.92	8.63	-77.27	-80.164	-45.472	-6.076	-0.72549	0.36578	-0.51410	0.27469	30.8	13111	100
2025-3-27 18:46:0.11	WT901BLE68-01(48591DE3C19B)	-0.255	-0.890	0.208	-7.202	-4.211	-157.715	-80.06	7.05	-77.63	-80.164	-45.472	-6.076	-0.72549	0.36578	-0.51410	0.27469	30.8	13111	100
2025-3-27 18:46:0.11	WT901BLE68-01(48591DE3C19B)	-0.255	-0.903	0.268	-13.916	-3.906	-147.583	-80.24	5.58	-77.97	-80.164	-45.472	-6.076	-0.72549	0.36578	-0.51410	0.27469	30.8	13111	100
2025-3-27 18:46:0.11	WT901BLE68-01(48591DE3C19B)	-0.266	-0.903	0.268	-13.916	-3.906	-147.583	-80.42	4.13	-78.31	-80.164	-45.472	-6.076	-0.72549	0.36578	-0.51410	0.27469	30.8	13111	100
2025-3-27 18:46:0.71	WT901BLE68-01(48591DE3C19B)	-0.266	-0.899	0.303	-15.137	1.648	-135.132	-80.59	2.82	-78.68	-80.164	-45.472	-6.076	-0.72549	0.36578	-0.51410	0.27469	30.8	13111	100
2025-3-27 18:46:0.71	WT901BLE68-01(48591DE3C19B)	-0.282	-0.899	0.303	-15.137	1.648	-135.132	-80.75	1.52	-79.04	-78.302	-45.962	-7.448	-0.72549	0.36578	-0.51410	0.27469	30.8	13111	100
2025-3-27 18:46:0.71	WT901BLE68-01(48591DE3C19B)	-0.282	-0.878	0.292	-14.282	15.259	-122.314	-80.89	0.37	-79.52	-78.302	-45.962	-7.448	-0.72549	0.36578	-0.51410	0.27469	30.8	13111	100
2025-3-27 18:46:0.71	WT901BLE68-01(48591DE3C19B)	-0.333	-0.878	0.292	-14.282	15.259	-122.314	-81.02	-0.76	-80.00	-78.302	-45.962	-7.448	-0.72549	0.36578	-0.51410	0.27469	30.8	13111	100
2025-3-27 18:46:0.104	WT901BLE68-01(48591DE3C19B)	-0.333	-0.880	0.251	-10.559	27.771	-111.572	-81.09	-1.75	-80.59	-78.302	-45.962	-7.448	-0.72549	0.36578	-0.51410	0.27469	30.8	13111	100
2025-3-27 18:46:0.104	WT901BLE68-01(48591DE3C19B)	-0.389	-0.880	0.251	-10.559	27.771	-111.572	-81.15	-2.74	-81.17	-78.302	-45.962	-7.448	-0.72549	0.36578	-0.51410	0.27469	30.8	13111	100
2025-3-27 18:46:0.104	WT901BLE68-01(48591DE3C19B)	-0.389	-0.904	0.228	-6.531	28.137	-102.234	-81.16	-3.63	-81.75	-78.302	-45.962	-7.448	-0.72549	0.36578	-0.51410	0.27469	30.8	13111	100
2025-3-27 18:46:0.104	WT901BLE68-01(48591DE3C19B)	-0.391	-0.904	0.228	-6.531	28.137	-102.234	-81.16	-4.50	-82.33	-78.302	-45.962	-7.448	-0.72549	0.36578	-0.51410	0.27469	30.8	13111	100
2025-3-27 18:46:0.131	WT901BLE68-01(48591DE3C19B)	-0.391	-0.922	0.257	-2.625	23.865	-92.896	-81.11	-5.27	-82.85	-78.302	-45.962	-7.448	-0.72549	0.36578	-0.51410	0.27469	30.8	13111	100
2025-3-27 18:46:0.131	WT901BLE68-01(48591DE3C19B)	-0.406	-0.922	0.257	-2.625	23.865	-92.896	-81.05	-6.04	-83.38	-78.302	-45.962	-7.448	-0.72549	0.36578	-0.51410	0.27469	30.8	13111	100
2025-3-27 18:46:0.131	WT901BLE68-01(48591DE3C19B)	-0.406	-0.919	0.309	0.977	25.391	-83.069	-80.95	-6.70	-83.91	-78.302	-45.962	-7.448	-0.72549	0.36578	-0.51410	0.27469	30.8	13111	100
2025-3-27 18:46:0.131	WT901BLE68-01(48591DE3C19B)	-0.458	-0.919	0.309	0.977	25.391	-83.069	-80.84	-7.36	-84.45	-78.302	-45.962	-7.448	-0.72549	0.36578	-0.51410	0.27469	30.8	13111	100
2025-3-27 18:46:0.192	WT901BLE68-01(48591DE3C19B)	-0.458	-0.885	0.338	6.287	28.137	-73.059	-80.66	-7.89	-85.01	-78.302	-45.962	-7.448	-0.72549	0.36578	-0.51410	0.27469	30.8	13111	100
2025-3-27 18:46:0.192	WT901BLE68-01(48591DE3C19B)	-0.467	-0.885	0.338	6.287	28.137	-73.059	-80.47	-8.43	-85.57	-78.302	-45.962	-7.448	-0.72549	0.36578	-0.51410	0.27469	30.8	13111	100
2025-3-27 18:46:0.192	WT901BLE68-01(48591DE3C19B)	-0.467	-0.831	0.347	9.949	29.236	-60.913	-80.25	-8.83	-86.13	-78.302	-45.962	-7.448	-0.72549	0.36578	-0.51410	0.27469	30.8	13111	100
2025-3-27 18:46:0.192	WT901BLE68-01(48591DE3C19B)	-0.463	-0.831	0.347	9.949	29.236	-60.913	-80.01	-9.22	-86.70	-78.302	-45.962	-7.448	-0.72549	0.36578	-0.51410	0.27469	30.8	13111	100
2025-3-27 18:46:0.221	WT901BLE68-01(48591DE3C19B)	-0.463	-0.804	0.347	11.841	31.921	-45.959	-79.74	-9.46	-87.28	-78.302	-45.962	-7.448	-0.72549	0.36578	-0.51410	0.27469	30.8	13111	100
2025-3-27 18:46:0.221	WT901BLE68-01(48591DE3C19B)	-0.463	-0.804	0.347	11.841	31.921	-45.959	-79.48	-9.68	-87.86	-78.302	-45.962	-7.448	-0.72549	0.36578	-0.51410	0.27469	30.8	13111	100
2025-3-27 18:46:0.221	WT901BLE68-01(48591DE3C19B)	-0.463	-0.804	0.330	13.062	36.255	-30.151	-79.19	-9.74	-88.46	-78.302	-45.962	-7.448	-0.72549	0.36578	-0.51410	0.27469	30.8	13111	100
2025-3-27 18:46:0.221	WT901BLE68-01(48591DE3C19B)	-0.472	-0.804	0.330	13.062	36.255	-30.151	-78.89	-9.80	-89.06	-78.302	-45.962	-7.448	-0.51035	0.49753	-0.39691	0.57825	30.8	13111	100
2025-3-27 18:46:0.251	WT901BLE68-01(48591DE3C19B)	-0.472	-0.841	0.297	13.672	40.039	-14.404	-78.60	-9.69	-89.68	-78.302	-45.962	-7.448	-0.51035	0.49753	-0.39691	0.57825	30.8	13111	100
2025-3-27 18:46:0.251	WT901BLE68-01(48591DE3C19B)	-0.500	-0.841	0.297	13.672	40.039	-14.404	-78.30	-9.57	-90.29	-78.302	-45.962	-7.448	-0.51035	0.49753	-0.39691	0.57825	30.8	13111	100
2025-3-27 18:46:0.251	WT901BLE68-01(48591DE3C19B)	-0.500	-0.890	0.267	14.526	41.870	-0.977	-78.00	-9.32	-90.90	-78.302	-45.962	-7.448	-0.51035	0.49753	-0.39691	0.57825	30.8	13111	100
2025-3-27 18:46:0.251	WT901BLE68-01(48591DE3C19B)	-0.553	-0.890	0.267	14.526	41.870	-0.977	-77.70	-9.05	-91.49	-78.302	-45.962	-7.448	-0.51035	0.49753	-0.39691	0.57825	30.8	13111	100
2025-3-27 18:46:0.310	WT901BLE68-01(48591DE3C19B)	-0.610	-0.956	0.260	14.526	38.818	10.071	-77.42	-8.69	-92.04	-78.302	-45.962	-7.448	-0.51035	0.49753	-0.39691	0.57825	30.8	13111	100
2025-3-27 18:46:0.311	WT901BLE68-01(48591DE3C19B)	-0.610	-1.031	0.267	12.878	31.250	18.860	-77.15	-8.28	-92.54	-78.302	-45.962	-7.448	-0.51035	0.49753	-0.39691	0.57825	30.8	13111	100
2025-3-27 18:46:0.311	WT901BLE68-01(48591DE3C19B)	-0.623	-1.031	0.267	12.878	31.250	18.860	-76.91	-7.84	-92.98	-78.302	-45.962	-7.448	-0.51035	0.49753	-0.39691	0.57825	30.8	13111	100
2025-3-27 18:46:0.311	WT901BLE68-01(48591DE3C19B)	-0.623	-1.088	0.266	11.047	20.996	27.954	-76.69	-7.37	-93.36	-78.302	-45.962	-7.448	-0.51035	0.49753	-0.39691	0.57825	30.8	13111	100
2025-3-27 18:46:0.342	WT901BLE68-01(48591DE3C19B)	-0.615	-1.088	0.266	11.047	20.996	27.954	-76.50	-6.86	-93.68	-78.302	-45.962	-7.448	-0.51035	0.49753	-0.39691	0.57825	30.8	13111	100
2025-3-27 18:46:0.342	WT901BLE68-01(48591DE3C19B)	-0.615	-1.075	0.248	8.423	8.728	39.734	-76.33	-6.31	-93.92	-78.302	-45.962	-7.448	-0.51035	0.49753	-0.39691	0.57825	30.8	13111	100
2025-3-27 18:46:0.342	WT901BLE68-01(48591DE3C19B)	-0.576	-1.075	0.248	8.423	8.728	39.734	-76.18	-5.72	-94.08	-78.302	-45.962	-7.448	-0.51035	0.49753	-0.39691	0.57825	30.8	13111	100
2025-3-27 18:46:0.342	WT901BLE68-01(48591DE3C19B)	-0.576	-0.994	0.222	3.357	-1.160	52.979	-76.07	-5.08	-94.17	-78.302	-45.962	-7.448	-0.51035	0.49753	-0.39691	0.57825	30.8	13111	100
2025-3-27 18:46:0.371	WT901BLE68-01(48591DE3C19B)	-0.567	-0.994	0.222	3.357	-1.160	52.979	-76.00	-4.38	-94.20	-78.302	-45.962	-7.448	-0.51035	0.49753	-0.39691	0.57825	30.8	13111	100
2025-3-27 18:46:0.371	WT901BLE68-01(48591DE3C19B)	-0.567	-0.946	0.192	-4.395	-13.306	66.833	-75.96	-3.64	-94.15	-78.302	-45.962	-7.448	-0.51035	0.49753	-0.39691	0.57825	30.8	13111	100
2025-3-27 18:46:0.371	WT901BLE68-01(48591DE3C19B)	-0.588	-0.946	0.192	-4.395	-13.306	66.833	-75.98	-2.84	-94.02	-78.302	-45.962	-7.448	-0.51035	0.49753	-0.39691	0.57825	30.8	13111	100
2025-3-27 18:46:0.371	WT901BLE68-01(48591DE3C19B)	-0.588	-0.914	0.180	-8.972	-34.607	82.458	-76.01	-2.00	-93.77	-78.302	-45.962	-7.448	-0.51035	0.49753	-0.39691	0.57825	30.8	13111	100
2025-3-27 18:46:0.431	WT901BLE68-01(48591DE3C19B)	-0.559	-0.914	0.180	-8.972	-34.607	82.458	-76.07	-1.11	-93.40	-78.302	-45.962	-7.448	-0.51035	0.49753	-0.39691	0.57825	30.8	13111	100
2025-3-27 18:46:0.431	WT901BLE68-01(48591DE3C19B)	-0.559	-0.935	0.146	-14.465	-61.157	101.318	-76.16	-0.16	-92.88	-78.302	-45.962	-7.448	-0.51035	0.49753	-0.39691	0.57825	30.8	13111	100
2025-3-27 18:46:0.431	WT901BLE68-01(48591DE3C19B)	-0.472	-0.935	0.146	-14.465	-61.157	101.318	-76.26	0.83	-92.20	-78.302	-45.962	-7.448	-0.51035	0.49753	-0.39691	0.57825	30.8	13111	100
2025-3-27 18:46:0.432	WT901BLE68-01(48591DE3C19B)	-0.472	-1.021	0.081	-16.785	-79.712	123.779	-76.36	1.92	-91.41	-78.302	-45.962	-7.448	-0.51035	0.49753	-0.39691	0.57825	30.8	13111	100
2025-3-27 18:46:0.461	WT901BLE68-01(48591DE3C19B)	-0.390	-1.021	0.081	-16.785	-79.712	123.779	-76.46	3.09	-90.49	-69.384	-50.568	-9.212	-0.51035	0.49753	-0.39691	0.57825	30.8	13111	100
2025-3-27 18:46:0.461	WT901BLE68-01(48591DE3C19B)	-0.390	-1.143	0.029	-16.296	-88.440	147.644	-76.53	4.36	-89.50	-69.384	-50.568	-9.212	-0.51035	0.49753	-0.39691	0.57825	30.8	13111	100
2025-3-27 18:46:0.461	WT901BLE68-01(48591DE3C19B)	-0.313	-1.143	0.029	-16.296	-88.440	147.644	-76.58	5.72	-88.43	-69.384	-50.568	-9.212	-0.51035	0.49753	-0.39691	0.57825	30.8	13111	100
2025-3-27 18:46:0.461	WT901BLE68-01(48591DE3C19B)	-0.313	-1.254	-0.016	-12.268	-89.355	167.297	-76.59	7.17	-87.32	-69.384	-50.568	-9.212	-0.51035	0.49753	-0.39691	0.57825	30.8	13111	100
2025-3-27 18:46:0.491	WT901BLE68-01(48591DE3C19B)	-0.239	-1.254	-0.016	-12.268	-89.355	167.297	-76.55	8.69	-86.17	-69.384	-50.568	-9.212	-0.51035	0.49753	-0.39691	0.57825	30.8	13111	100
2025-3-27 18:46:0.491	WT901BLE68-01(48591DE3C19B)	-0.239	-1.318	-0.047	-8.667	-82.642	180.603	-76.46	10.27	-85.03	-69.384	-50.568	-9.212	-0.51035	0.49753	-0.39691	0.57825	30.8	13111	100
2025-3-27 18:46:0.491	WT901BLE68-01(48591DE3C19B)	-0.213	-1.318	-0.047	-8.667	-82.642	180.603	-76.35	11.90	-83.89	-69.384	-50.568	-9.212	-0.51035	0.49753	-0.39691	0.57825	30.8	13111	100
2025-3-27 18:46:0.491	WT901BLE68-01(48591DE3C19B)	-0.213	-1.377	0.021	-6.836	-74.158	188.843	-76.20	13.56	-82.78	-69.384	-50.568	-9.212	-0.51035	0.49753	-0.39691	0.57825	30.8	13111	100
2025-3-27 18:46:0.552	WT901BLE68-01(48591DE3C19B)	-0.234	-1.377	0.021	-6.836	-74.158	188.843	-76.01	15.26	-81.68	-69.384	-50.568	-9.212	-0.51035	0.49753	-0.39691	0.57825	30.8	13111	100
2025-3-27 18:46:0.552	WT901BLE68-01(48591DE3C19B)	-0.234	-1.477	0.062	-1.770	-64.392	193.481	-75.79	16.96	-80.61	-69.384	-50.568	-9.212	-0.51035	0.49753	-0.39691	0.57825	30.8	13111	100
2025-3-27 18:46:0.553	WT901BLE68-01(48591DE3C19B)	-0.211	-1.477	0.062	-1.770	-64.392	193.481	-75.51	18.68	-79.57	-69.384	-50.568	-9.212	-0.51035	0.49753	-0.39691	0.57825	30.8	13111	100
2025-3-27 18:46:0.553	WT901BLE68-01(48591DE3C19B)	-0.211	-1.340	0.086	8.301	-52.002	195.740	-75.17	20.41	-78.57	-69.384	-50.568	-9.212	-0.51035	0.49753	-0.39691	0.57825	30.8	13111	100
2025-3-27 18:46:0.581	WT901BLE68-01(48591DE3C19B)	-0.165	-1.340	0.086	8.301	-52.002	195.740	-74.77	22.14	-77.62	-69.384	-50.568	-9.212	-0.51035	0.49753	-0.39691	0.57825	30.8	13111	100
2025-3-27 18:46:0.581	WT901BLE68-01(48591DE3C19B)	-0.165	-1.174	0.073	8.057	-30.212	195.251	-74.39	23.87	-76.76	-69.384	-50.568	-9.212	-0.51035	0.49753	-0.39691	0.57825	30.8	13111	100
2025-3-27 18:46:0.582	WT901BLE68-01(48591DE3C19B)	-0.156	-1.174	0.073	8.057	-30.212	195.251	-74.01	25.62	-76.00	-69.384	-50.568	-9.212	-0.51035	0.49753	-0.39691	0.57825	30.8	13111	100
2025-3-27 18:46:0.582	WT901BLE68-01(48591DE3C19B)	-0.156	-1.061	0.035	5.493	-3.967	190.857	-73.69	27.36	-75.36	-69.384	-50.568	-9.212	-0.51035	0.49753	-0.39691	0.57825	30.8	13111	100
2025-3-27 18:46:0.613	WT901BLE68-01(48591DE3C19B)	-0.177	-1.061	0.035	5.493	-3.967	190.857	-73.43	29.11	-74.86	-69.384	-50.568	-9.212	-0.51035	0.49753	-0.39691	0.57825	30.8	13111	100
2025-3-27 18:46:0.613	WT901BLE68-01(48591DE3C19B)	-0.177	-0.985	0.015	-0.061	12.451	183.777	-73.22	30.83	-74.44	-69.384	-50.568	-9.212	-0.51035	0.49753	-0.39691	0.57825	30.8	13111	100
2025-3-27 18:46:0.613	WT901BLE68-01(48591DE3C19B)	-0.172	-0.985	0.015	-0.061	12.451	183.777	-73.09	32.52	-74.12	-69.384	-50.568	-9.212	-0.51035	0.49753	-0.39691	0.57825	30.8	13111	100
2025-3-27 18:46:0.613	WT901BLE68-01(48591DE3C19B)	-0.172	-0.960	0.014	-5.371	19.531	173.889	-72.99	34.17	-73.85	-69.384	-50.568	-9.212	-0.51035	0.49753	-0.39691	0.57825	30.8	13111	100
2025-3-27 18:46:0.672	WT901BLE68-01(48591DE3C19B)	-0.182	-0.960	0.014	-5.371	19.531	173.889	-72.94	35.77	-73.63	-69.384	-50.568	-9.212	-0.51035	0.49753	-0.39691	0.57825	30.8	13111	100
2025-3-27 18:46:0.672	WT901BLE68-01(48591DE3C19B)	-0.182	-0.950	0.027	-10.376	18.433	162.720	-72.93	37.31	-73.42	-69.384	-50.568	-9.212	-0.72446	0.29761	-0.54279	0.30307	30.8	13111	100
2025-3-27 18:46:0.672	WT901BLE68-01(48591DE3C19B)	-0.198	-0.950	0.027	-10.376	18.433	162.720	-72.93	38.78	-73.22	-69.384	-50.568	-9.212	-0.72446	0.29761	-0.54279	0.30307	30.8	13111	100
2025-3-27 18:46:0.672	WT901BLE68-01(48591DE3C19B)	-0.198	-0.972	0.040	-13.916	11.719	151.123	-72.93	40.18	-73.00	-69.384	-50.568	-9.212	-0.72446	0.29761	-0.54279	0.30307	30.8	13111	100
2025-3-27 18:46:0.704	WT901BLE68-01(48591DE3C19B)	-0.198	-0.972	0.040	-13.916	11.719	151.123	-72.94	41.51	-72.76	-69.384	-50.568	-9.212	-0.72446	0.29761	-0.54279	0.30307	30.8	13111	100
2025-3-27 18:46:0.705	WT901BLE68-01(48591DE3C19B)	-0.198	-0.993	0.040	-16.296	4.456	138.184	-72.93	42.75	-72.49	-69.384	-50.568	-9.212	-0.72446	0.29761	-0.54279	0.30307	30.8	13111	100
2025-3-27 18:46:0.705	WT901BLE68-01(48591DE3C19B)	-0.179	-0.993	0.040	-16.296	4.456	138.184	-72.91	43.92	-72.20	-69.384	-50.568	-9.212	-0.72446	0.29761	-0.54279	0.30307	30.8	13111	100
2025-3-27 18:46:0.705	WT901BLE68-01(48591DE3C19B)	-0.179	-1.114	0.040	-20.752	-1.404	121.155	-72.89	44.99	-71.91	-69.384	-50.568	-9.212	-0.72446	0.29761	-0.54279	0.30307	30.8	13111	100
2025-3-27 18:46:0.791	WT901BLE68-01(48591DE3C19B)	-0.118	-1.114	0.040	-20.752	-1.404	121.155	-72.89	45.96	-71.60	-69.384	-50.568	-9.212	-0.72446	0.29761	-0.54279	0.30307	30.8	13111	100
2025-3-27 18:46:0.792	WT901BLE68-01(48591DE3C19B)	-0.118	-1.291	0.052	-19.775	-8.911	96.008	-72.89	46.80	-71.30	-69.384	-50.568	-9.212	-0.72446	0.29761	-0.54279	0.30307	30.8	13111	100
2025-3-27 18:46:0.792	WT901BLE68-01(48591DE3C19B)	0.014	-1.291	0.052	-19.775	-8.911	96.008	-72.87	47.49	-70.99	-69.384	-50.568	-9.212	-0.72446	0.29761	-0.54279	0.30307	30.8	13111	100
2025-3-27 18:46:0.792	WT901BLE68-01(48591DE3C19B)	0.014	-1.359	0.058	-12.817	-14.404	63.171	-72.84	48.02	-70.71	-69.384	-50.568	-9.212	-0.72446	0.29761	-0.54279	0.30307	30.8	13111	100
2025-3-27 18:46:0.792	WT901BLE68-01(48591DE3C19B)	0.115	-1.359	0.058	-12.817	-14.404	63.171	-72.80	48.37	-70.48	-69.384	-50.568	-9.212	-0.72446	0.29761	-0.54279	0.30307	30.8	13111	100
2025-3-27 18:46:0.793	WT901BLE68-01(48591DE3C19B)	0.115	-1.330	0.088	-8.240	-10.376	26.245	-72.88	48.38	-70.46	-69.384	-50.568	-9.212	-0.72446	0.29761	-0.54279	0.30307	30.8	13111	100
2025-3-27 18:46:0.793	WT901BLE68-01(48591DE3C19B)	0.106	-1.330	0.088	-8.240	-10.376	26.245	-72.96	48.37	-70.45	-69.384	-50.568	-9.212	-0.72446	0.29761	-0.54279	0.30307	30.8	13111	100
2025-3-27 18:46:0.793	WT901BLE68-01(48591DE3C19B)	0.106	-1.371	0.120	-7.935	5.066	-15.625	-73.34	48.00	-70.85	-69.384	-50.568	-9.212	-0.72446	0.29761	-0.54279	0.30307	30.8	13111	100
2025-3-27 18:46:0.822	WT901BLE68-01(48591DE3C19B)	0.014	-1.371	0.120	-7.935	5.066	-15.625	-73.71	47.64	-71.23	-69.384	-50.568	-9.212	-0.72446	0.29761	-0.54279	0.30307	30.8	13111	100
2025-3-27 18:46:0.822	WT901BLE68-01(48591DE3C19B)	0.014	-1.372	0.156	-1.160	24.109	-54.504	-74.32	46.94	-72.03	-69.384	-50.568	-9.212	-0.72446	0.29761	-0.54279	0.30307	30.8	13111	100
2025-3-27 18:46:0.822	WT901BLE68-01(48591DE3C19B)	-0.061	-1.372	0.156	-1.160	24.109	-54.504	-74.89	46.25	-72.81	-69.384	-50.568	-9.212	-0.72446	0.29761	-0.54279	0.30307	30.8	13111	100
2025-3-27 18:46:0.822	WT901BLE68-01(48591DE3C19B)	-0.061	-1.315	0.198	6.897	43.396	-89.355	-75.65	45.26	-73.95	-69.384	-50.568	-9.212	-0.72446	0.29761	-0.54279	0.30307	30.8	13111	100
2025-3-27 18:46:0.882	WT901BLE68-01(48591DE3C19B)	-0.083	-1.315	0.198	6.897	43.396	-89.355	-76.35	44.26	-75.05	-69.384	-50.568	-9.212	-0.72446	0.29761	-0.54279	0.30307	30.8	13111	100
2025-3-27 18:46:0.882	WT901BLE68-01(48591DE3C19B)	-0.083	-1.310	0.137	16.296	59.082	-122.131	-77.12	42.98	-76.42	-85.750	-22.540	-9.604	-0.72446	0.29761	-0.54279	0.30307	30.8	13111	100
2025-3-27 18:46:0.882	WT901BLE68-01(48591DE3C19B)	-0.098	-1.310	0.137	16.296	59.082	-122.131	-77.84	41.70	-77.73	-85.750	-22.540	-9.604	-0.72446	0.29761	-0.54279	0.30307	30.8	13111	100
2025-3-27 18:46:0.882	WT901BLE68-01(48591DE3C19B)	-0.098	-1.240	0.068	28.687	59.265	-148.438	-78.42	40.16	-79.06	-85.750	-22.540	-9.604	-0.72446	0.29761	-0.54279	0.30307	30.8	13111	100
2025-3-27 18:46:0.910	WT901BLE68-01(48591DE3C19B)	-0.154	-1.240	0.068	28.687	59.265	-148.438	-78.94	38.62	-80.34	-85.750	-22.540	-9.604	-0.72446	0.29761	-0.54279	0.30307	30.8	13111	100
2025-3-27 18:46:0.910	WT901BLE68-01(48591DE3C19B)	-0.154	-1.173	0.054	32.654	46.631	-164.429	-79.29	36.90	-81.45	-85.750	-22.540	-9.604	-0.72446	0.29761	-0.54279	0.30307	30.8	13111	100
2025-3-27 18:46:0.911	WT901BLE68-01(48591DE3C19B)	-0.205	-1.173	0.054	32.654	46.631	-164.429	-79.60	35.18	-82.51	-85.750	-22.540	-9.604	-0.72446	0.29761	-0.54279	0.30307	30.8	13111	100
2025-3-27 18:46:0.911	WT901BLE68-01(48591DE3C19B)	-0.205	-1.174	0.074	35.278	25.085	-175.232	-79.69	33.33	-83.31	-85.750	-22.540	-9.604	-0.72446	0.29761	-0.54279	0.30307	30.8	13111	100
2025-3-27 18:46:0.942	WT901BLE68-01(48591DE3C19B)	-0.216	-1.174	0.074	35.278	25.085	-175.232	-79.77	31.50	-84.08	-85.750	-22.540	-9.604	-0.72446	0.29761	-0.54279	0.30307	30.8	13111	100
2025-3-27 18:46:0.942	WT901BLE68-01(48591DE3C19B)	-0.216	-1.138	0.109	36.072	5.005	-180.298	-79.68	29.59	-84.62	-85.750	-22.540	-9.604	-0.72446	0.29761	-0.54279	0.30307	30.8	13111	100
2025-3-27 18:46:0.942	WT901BLE68-01(48591DE3C19B)	-0.229	-1.138	0.109	36.072	5.005	-180.298	-79.58	27.70	-85.15	-85.750	-22.540	-9.604	-0.72446	0.29761	-0.54279	0.30307	30.8	13111	100
2025-3-27 18:46:0.942	WT901BLE68-01(48591DE3C19B)	-0.229	-1.082	0.152	32.532	-9.827	-177.979	-79.43	25.82	-85.50	-85.750	-22.540	-9.604	-0.72446	0.29761	-0.54279	0.30307	30.8	13111	100
2025-3-27 18:46:1.32	WT901BLE68-01(48591DE3C19B)	-0.214	-1.082	0.152	32.532	-9.827	-177.979	-79.27	23.95	-85.85	-85.750	-22.540	-9.604	-0.72446	0.29761	-0.54279	0.30307	30.8	13111	100
2025-3-27 18:46:1.32	WT901BLE68-01(48591DE3C19B)	-0.214	-1.065	0.162	26.062	-22.522	-175.598	-79.10	22.10	-86.07	-85.750	-22.540	-9.604	-0.72446	0.29761	-0.54279	0.30307	30.8	13111	100
2025-3-27 18:46:1.32	WT901BLE68-01(48591DE3C19B)	-0.163	-1.065	0.162	26.062	-22.522	-175.598	-78.93	20.26	-86.28	-85.750	-22.540	-9.604	-0.72446	0.29761	-0.54279	0.30307	30.8	13111	100
2025-3-27 18:46:1.32	WT901BLE68-01(48591DE3C19B)	-0.163	-1.036	0.169	20.325	-21.423	-174.255	-78.80	18.44	-86.50	-85.750	-22.540	-9.604	-0.72446	0.29761	-0.54279	0.30307	30.8	13111	100
2025-3-27 18:46:1.33	WT901BLE68-01(48591DE3C19B)	-0.138	-1.036	0.169	20.325	-21.423	-174.255	-78.68	16.64	-86.73	-85.750	-22.540	-9.604	-0.72446	0.29761	-0.54279	0.30307	30.8	13111	100
2025-3-27 18:46:1.33	WT901BLE68-01(48591DE3C19B)	-0.138	-0.996	0.182	13.000	-1.404	-174.622	-78.68	14.89	-87.15	-85.750	-22.540	-9.604	-0.72446	0.29761	-0.54279	0.30307	30.8	13111	100
2025-3-27 18:46:1.34	WT901BLE68-01(48591DE3C19B)	-0.165	-0.996	0.182	13.000	-1.404	-174.622	-78.66	13.14	-87.58	-85.750	-22.540	-9.604	-0.72446	0.29761	-0.54279	0.30307	30.8	13111	100
2025-3-27 18:46:1.34	WT901BLE68-01(48591DE3C19B)	-0.165	-0.994	0.180	7.874	30.212	-177.979	-78.76	11.43	-88.32	-85.750	-22.540	-9.604	-0.72446	0.29761	-0.54279	0.30307	30.8	13111	100
2025-3-27 18:46:1.63	WT901BLE68-01(48591DE3C19B)	-0.244	-0.994	0.180	7.874	30.212	-177.979	-78.82	9.73	-89.06	-85.750	-22.540	-9.604	-0.72446	0.29761	-0.54279	0.30307	30.8	13111	100
2025-3-27 18:46:1.63	WT901BLE68-01(48591DE3C19B)	-0.244	-0.978	0.175	7.080	54.871	-182.312	-78.91	8.05	-90.03	-85.750	-22.540	-9.604	-0.72446	0.29761	-0.54279	0.30307	30.8	13111	100
2025-3-27 18:46:1.64	WT901BLE68-01(48591DE3C19B)	-0.281	-0.978	0.175	7.080	54.871	-182.312	-78.96	6.39	-90.99	-85.750	-22.540	-9.604	-0.55957	0.41617	-0.48138	0.53085	30.8	13111	100
2025-3-27 18:46:1.64	WT901BLE68-01(48591DE3C19B)	-0.281	-0.955	0.181	7.813	72.449	-185.547	-79.01	4.73	-92.13	-85.750	-22.540	-9.604	-0.55957	0.41617	-0.48138	0.53085	30.8	13111	100
2025-3-27 18:46:1.123	WT901BLE68-01(48591DE3C19B)	-0.333	-0.955	0.181	7.813	72.449	-185.547	-79.01	3.09	-93.26	-85.750	-22.540	-9.604	-0.55957	0.41617	-0.48138	0.53085	30.8	13111	100
2025-3-27 18:46:1.123	WT901BLE68-01(48591DE3C19B)	-0.333	-0.951	0.181	11.292	84.290	-186.829	-78.96	1.47	-94.51	-85.750	-22.540	-9.604	-0.55957	0.41617	-0.48138	0.53085	30.8	13111	100
2025-3-27 18:46:1.123	WT901BLE68-01(48591DE3C19B)	-0.443	-0.951	0.181	11.292	84.290	-186.829	-78.87	-0.12	-95.76	-85.750	-22.540	-9.604	-0.55957	0.41617	-0.48138	0.53085	30.8	13111	100
2025-3-27 18:46:1.123	WT901BLE68-01(48591DE3C19B)	-0.443	-0.944	0.167	17.517	82.886	-184.387	-78.68	-1.69	-96.98	-85.750	-22.540	-9.604	-0.55957	0.41617	-0.48138	0.53085	30.8	13111	100
2025-3-27 18:46:1.272	WT901BLE68-01(48591DE3C19B)	-0.553	-0.944	0.167	17.517	82.886	-184.387	-78.46	-3.22	-98.21	-85.750	-22.540	-9.604	-0.55957	0.41617	-0.48138	0.53085	30.8	13111	100
2025-3-27 18:46:1.273	WT901BLE68-01(48591DE3C19B)	-0.553	-0.918	0.136	23.499	66.528	-177.185	-78.16	-4.71	-99.28	-85.750	-22.540	-9.604	-0.55957	0.41617	-0.48138	0.53085	30.8	13111	100
2025-3-27 18:46:1.273	WT901BLE68-01(48591DE3C19B)	-0.597	-0.918	0.136	23.499	66.528	-177.185	-77.83	-6.16	-100.35	-85.750	-22.540	-9.604	-0.55957	0.41617	-0.48138	0.53085	30.8	13111	100
2025-3-27 18:46:1.273	WT901BLE68-01(48591DE3C19B)	-0.597	-0.871	0.126	25.879	38.025	-164.246	-77.50	-7.53	-101.13	-85.750	-22.540	-9.604	-0.55957	0.41617	-0.48138	0.53085	30.8	13111	100
2025-3-27 18:46:1.273	WT901BLE68-01(48591DE3C19B)	-0.602	-0.871	0.126	25.879	38.025	-164.246	-77.14	-8.88	-101.93	-85.750	-22.540	-9.604	-0.55957	0.41617	-0.48138	0.53085	30.8	13111	100
2025-3-27 18:46:1.273	WT901BLE68-01(48591DE3C19B)	-0.602	-0.857	0.136	22.156	6.409	-147.095	-76.86	-10.11	-102.38	-85.750	-22.540	-9.604	-0.55957	0.41617	-0.48138	0.53085	30.8	13111	100
2025-3-27 18:46:1.273	WT901BLE68-01(48591DE3C19B)	-0.577	-0.857	0.136	22.156	6.409	-147.095	-76.57	-11.33	-102.85	-85.750	-22.540	-9.604	-0.55957	0.41617	-0.48138	0.53085	30.8	13111	100
2025-3-27 18:46:1.274	WT901BLE68-01(48591DE3C19B)	-0.577	-0.889	0.146	17.883	-23.865	-125.305	-76.38	-12.39	-102.98	-85.750	-22.540	-9.604	-0.55957	0.41617	-0.48138	0.53085	30.8	13111	100
2025-3-27 18:46:1.274	WT901BLE68-01(48591DE3C19B)	-0.567	-0.889	0.146	17.883	-23.865	-125.305	-76.20	-13.44	-103.12	-85.750	-22.540	-9.604	-0.55957	0.41617	-0.48138	0.53085	30.8	13111	100
2025-3-27 18:46:1.274	WT901BLE68-01(48591DE3C19B)	-0.537	-0.932	0.213	17.517	-55.969	-96.436	-76.10	-14.27	-102.87	-85.750	-22.540	-9.604	-0.55957	0.41617	-0.48138	0.53085	30.8	13111	100
2025-3-27 18:46:1.274	WT901BLE68-01(48591DE3C19B)	-0.537	-0.985	0.293	17.334	-66.406	-67.749	-76.02	-14.97	-102.55	-85.750	-22.540	-9.604	-0.55957	0.41617	-0.48138	0.53085	30.8	13111	100
2025-3-27 18:46:1.274	WT901BLE68-01(48591DE3C19B)	-0.515	-0.985	0.293	17.334	-66.406	-67.749	-75.96	-15.55	-102.15	-85.750	-22.540	-9.604	-0.55957	0.41617	-0.48138	0.53085	30.8	13111	100
2025-3-27 18:46:1.275	WT901BLE68-01(48591DE3C19B)	-0.515	-1.058	0.356	17.578	-45.410	-40.039	-75.88	-15.96	-101.83	-85.750	-22.540	-9.604	-0.55957	0.41617	-0.48138	0.53085	30.8	13111	100
2025-3-27 18:46:1.275	WT901BLE68-01(48591DE3C19B)	-0.494	-1.058	0.356	17.578	-45.410	-40.039	-75.78	-16.21	-101.58	-85.750	-22.540	-9.604	-0.55957	0.41617	-0.48138	0.53085	30.8	13111	100
2025-3-27 18:46:1.275	WT901BLE68-01(48591DE3C19B)	-0.494	-1.112	0.377	16.541	-6.104	-14.160	-75.62	-16.29	-101.51	-85.750	-22.540	-9.604	-0.55957	0.41617	-0.48138	0.53085	30.8	13111	100
2025-3-27 18:46:1.275	WT901BLE68-01(48591DE3C19B)	-0.435	-1.112	0.377	16.541	-6.104	-14.160	-75.43	-16.20	-101.61	-85.750	-22.540	-9.604	-0.55957	0.41617	-0.48138	0.53085	30.8	13111	100
2025-3-27 18:46:1.304	WT901BLE68-01(48591DE3C19B)	-0.435	-1.164	0.378	12.817	36.682	9.888	-75.20	-15.95	-101.89	-85.750	-22.540	-9.604	-0.55957	0.41617	-0.48138	0.53085	30.8	13111	100
2025-3-27 18:46:1.304	WT901BLE68-01(48591DE3C19B)	-0.478	-1.164	0.378	12.817	36.682	9.888	-74.94	-15.52	-102.35	-85.750	-22.540	-9.604	-0.55957	0.41617	-0.48138	0.53085	30.8	13111	100
2025-3-27 18:46:1.304	WT901BLE68-01(48591DE3C19B)	-0.478	-1.253	0.382	6.409	67.566	32.349	-74.68	-14.95	-102.94	-63.994	-53.508	-11.074	-0.55957	0.41617	-0.48138	0.53085	30.8	13111	100
2025-3-27 18:46:1.304	WT901BLE68-01(48591DE3C19B)	-0.590	-1.253	0.382	6.409	67.566	32.349	-74.44	-14.24	-103.63	-63.994	-53.508	-11.074	-0.55957	0.41617	-0.48138	0.53085	30.8	13111	100
2025-3-27 18:46:1.362	WT901BLE68-01(48591DE3C19B)	-0.590	-1.336	0.394	0.000	76.904	50.659	-74.22	-13.43	-104.35	-63.994	-53.508	-11.074	-0.55957	0.41617	-0.48138	0.53085	30.8	13111	100
2025-3-27 18:46:1.362	WT901BLE68-01(48591DE3C19B)	-0.687	-1.336	0.394	0.000	76.904	50.659	-74.06	-12.52	-105.07	-63.994	-53.508	-11.074	-0.55957	0.41617	-0.48138	0.53085	30.8	13111	100
2025-3-27 18:46:1.362	WT901BLE68-01(48591DE3C19B)	-0.687	-1.386	0.398	-6.348	65.552	65.674	-73.94	-11.56	-105.72	-63.994	-53.508	-11.074	-0.55957	0.41617	-0.48138	0.53085	30.8	13111	100
2025-3-27 18:46:1.362	WT901BLE68-01(48591DE3C19B)	-0.725	-1.386	0.398	-6.348	65.552	65.674	-73.89	-10.55	-106.28	-63.994	-53.508	-11.074	-0.55957	0.41617	-0.48138	0.53085	30.8	13111	100
2025-3-27 18:46:1.391	WT901BLE68-01(48591DE3C19B)	-0.725	-1.388	0.367	-10.925	41.199	79.285	-73.89	-9.50	-106.70	-63.994	-53.508	-11.074	-0.55957	0.41617	-0.48138	0.53085	30.8	13111	100
2025-3-27 18:46:1.391	WT901BLE68-01(48591DE3C19B)	-0.710	-1.388	0.367	-10.925	41.199	79.285	-73.95	-8.44	-106.98	-63.994	-53.508	-11.074	-0.55957	0.41617	-0.48138	0.53085	30.8	13111	100
2025-3-27 18:46:1.391	WT901BLE68-01(48591DE3C19B)	-0.710	-1.256	0.293	-12.878	10.376	93.689	-74.04	-7.34	-107.09	-63.994	-53.508	-11.074	-0.55957	0.41617	-0.48138	0.53085	30.8	13111	100
2025-3-27 18:46:1.391	WT901BLE68-01(48591DE3C19B)	-0.661	-1.256	0.293	-12.878	10.376	93.689	-74.16	-6.23	-107.05	-63.994	-53.508	-11.074	-0.55957	0.41617	-0.48138	0.53085	30.8	13111	100
2025-3-27 18:46:1.424	WT901BLE68-01(48591DE3C19B)	-0.661	-1.094	0.229	-16.663	-24.048	111.267	-74.32	-5.08	-106.80	-63.994	-53.508	-11.074	-0.55957	0.41617	-0.48138	0.53085	30.8	13111	100
2025-3-27 18:46:1.424	WT901BLE68-01(48591DE3C19B)	-0.589	-1.094	0.229	-16.663	-24.048	111.267	-74.50	-3.89	-106.38	-63.994	-53.508	-11.074	-0.55957	0.41617	-0.48138	0.53085	30.8	13111	100
2025-3-27 18:46:1.424	WT901BLE68-01(48591DE3C19B)	-0.589	-0.972	0.179	-19.592	-57.129	133.545	-74.70	-2.65	-105.77	-63.994	-53.508	-11.074	-0.55957	0.41617	-0.48138	0.53085	30.8	13111	100
2025-3-27 18:46:1.424	WT901BLE68-01(48591DE3C19B)	-0.479	-0.972	0.179	-19.592	-57.129	133.545	-74.91	-1.35	-104.98	-63.994	-53.508	-11.074	-0.55957	0.41617	-0.48138	0.53085	30.8	13111	100
2025-3-27 18:46:1.482	WT901BLE68-01(48591DE3C19B)	-0.479	-0.917	0.127	-23.499	-82.458	157.166	-75.12	0.04	-104.05	-63.994	-53.508	-11.074	-0.55957	0.41617	-0.48138	0.53085	30.8	13111	100
2025-3-27 18:46:1.482	WT901BLE68-01(48591DE3C19B)	-0.386	-0.917	0.127	-23.499	-82.458	157.166	-75.32	1.50	-102.96	-63.994	-53.508	-11.074	-0.49921	0.37234	-0.48441	0.61432	30.8	13111	100
2025-3-27 18:46:1.482	WT901BLE68-01(48591DE3C19B)	-0.386	-0.976	0.098	-25.635	-94.482	179.382	-75.50	3.05	-101.79	-63.994	-53.508	-11.074	-0.49921	0.37234	-0.48441	0.61432	30.8	13111	100
2025-3-27 18:46:1.482	WT901BLE68-01(48591DE3C19B)	-0.359	-0.976	0.098	-25.635	-94.482	179.382	-75.66	4.69	-100.53	-63.994	-53.508	-11.074	-0.49921	0.37234	-0.48441	0.61432	30.8	13111	100
2025-3-27 18:46:1.510	WT901BLE68-01(48591DE3C19B)	-0.359	-1.122	0.102	-23.804	-98.755	196.472	-75.76	6.39	-99.23	-63.994	-53.508	-11.074	-0.49921	0.37234	-0.48441	0.61432	30.8	13111	100
2025-3-27 18:46:1.510	WT901BLE68-01(48591DE3C19B)	-0.328	-1.122	0.102	-23.804	-98.755	196.472	-75.82	8.16	-97.88	-63.994	-53.508	-11.074	-0.49921	0.37234	-0.48441	0.61432	30.8	13111	100
2025-3-27 18:46:1.511	WT901BLE68-01(48591DE3C19B)	-0.328	-1.276	0.108	-18.738	-101.440	206.665	-75.81	9.96	-96.50	-63.994	-53.508	-11.074	-0.49921	0.37234	-0.48441	0.61432	30.8	13111	100
2025-3-27 18:46:1.511	WT901BLE68-01(48591DE3C19B)	-0.269	-1.276	0.108	-18.738	-101.440	206.665	-75.72	11.79	-95.08	-63.994	-53.508	-11.074	-0.49921	0.37234	-0.48441	0.61432	30.8	13111	100
2025-3-27 18:46:1.542	WT901BLE68-01(48591DE3C19B)	-0.269	-1.346	0.088	-8.240	-94.299	212.952	-75.55	13.63	-93.67	-63.994	-53.508	-11.074	-0.49921	0.37234	-0.48441	0.61432	30.8	13111	100
2025-3-27 18:46:1.542	WT901BLE68-01(48591DE3C19B)	-0.237	-1.346	0.088	-8.240	-94.299	212.952	-75.28	15.50	-92.26	-63.994	-53.508	-11.074	-0.49921	0.37234	-0.48441	0.61432	30.8	13111	100
2025-3-27 18:46:1.542	WT901BLE68-01(48591DE3C19B)	-0.237	-1.294	0.065	0.488	-79.102	215.088	-74.95	17.37	-90.92	-63.994	-53.508	-11.074	-0.49921	0.37234	-0.48441	0.61432	30.8	13111	100
2025-3-27 18:46:1.542	WT901BLE68-01(48591DE3C19B)	-0.225	-1.294	0.065	0.488	-79.102	215.088	-74.56	19.25	-89.62	-63.994	-53.508	-11.074	-0.49921	0.37234	-0.48441	0.61432	30.8	13111	100
2025-3-27 18:46:1.632	WT901BLE68-01(48591DE3C19B)	-0.225	-1.280	0.062	3.174	-62.317	214.355	-74.13	21.12	-88.37	-63.994	-53.508	-11.074	-0.49921	0.37234	-0.48441	0.61432	30.8	13111	100
2025-3-27 18:46:1.632	WT901BLE68-01(48591DE3C19B)	-0.215	-1.280	0.062	3.174	-62.317	214.355	-73.68	22.98	-87.19	-63.994	-53.508	-11.074	-0.49921	0.37234	-0.48441	0.61432	30.8	13111	100
2025-3-27 18:46:1.633	WT901BLE68-01(48591DE3C19B)	-0.215	-1.277	0.047	7.568	-45.837	211.731	-73.20	24.83	-86.07	-63.994	-53.508	-11.074	-0.49921	0.37234	-0.48441	0.61432	30.8	13111	100
2025-3-27 18:46:1.633	WT901BLE68-01(48591DE3C19B)	-0.191	-1.277	0.047	7.568	-45.837	211.731	-72.69	26.67	-85.01	-63.994	-53.508	-11.074	-0.49921	0.37234	-0.48441	0.61432	30.8	13111	100
2025-3-27 18:46:1.633	WT901BLE68-01(48591DE3C19B)	-0.191	-1.196	0.037	11.353	-31.860	207.947	-72.16	28.49	-83.99	-63.994	-53.508	-11.074	-0.49921	0.37234	-0.48441	0.61432	30.8	13111	100
2025-3-27 18:46:1.634	WT901BLE68-01(48591DE3C19B)	-0.169	-1.196	0.037	11.353	-31.860	207.947	-71.61	30.29	-83.03	-63.994	-53.508	-11.074	-0.49921	0.37234	-0.48441	0.61432	30.8	13111	100
2025-3-27 18:46:1.634	WT901BLE68-01(48591DE3C19B)	-0.169	-1.128	0.019	11.414	-18.860	202.209	-71.07	32.06	-82.11	-63.994	-53.508	-11.074	-0.49921	0.37234	-0.48441	0.61432	30.8	13111	100
2025-3-27 18:46:1.634	WT901BLE68-01(48591DE3C19B)	-0.164	-1.128	0.019	11.414	-18.860	202.209	-70.53	33.80	-81.25	-63.994	-53.508	-11.074	-0.49921	0.37234	-0.48441	0.61432	30.8	13111	100
2025-3-27 18:46:1.664	WT901BLE68-01(48591DE3C19B)	-0.164	-1.100	-0.007	11.292	-7.141	194.153	-69.99	35.51	-80.44	-63.994	-53.508	-11.074	-0.49921	0.37234	-0.48441	0.61432	30.8	13111	100
2025-3-27 18:46:1.664	WT901BLE68-01(48591DE3C19B)	-0.147	-1.100	-0.007	11.292	-7.141	194.153	-69.48	37.19	-79.67	-63.994	-53.508	-11.074	-0.49921	0.37234	-0.48441	0.61432	30.8	13111	100
2025-3-27 18:46:1.664	WT901BLE68-01(48591DE3C19B)	-0.147	-1.053	-0.024	9.399	0.977	185.181	-68.98	38.81	-78.95	-84.182	-33.124	-10.486	-0.49921	0.37234	-0.48441	0.61432	30.8	13111	100
2025-3-27 18:46:1.664	WT901BLE68-01(48591DE3C19B)	-0.118	-1.053	-0.024	9.399	0.977	185.181	-68.51	40.40	-78.27	-84.182	-33.124	-10.486	-0.49921	0.37234	-0.48441	0.61432	30.8	13111	100
2025-3-27 18:46:1.722	WT901BLE68-01(48591DE3C19B)	-0.118	-1.047	-0.030	5.981	6.042	174.866	-68.10	41.89	-77.67	-84.182	-33.124	-10.486	-0.49921	0.37234	-0.48441	0.61432	30.8	13111	100
2025-3-27 18:46:1.722	WT901BLE68-01(48591DE3C19B)	-0.059	-1.047	-0.030	5.981	6.042	174.866	-67.68	43.37	-77.05	-84.182	-33.124	-10.486	-0.49921	0.37234	-0.48441	0.61432	30.8	13111	100
2025-3-27 18:46:1.722	WT901BLE68-01(48591DE3C19B)	-0.059	-1.025	-0.019	1.953	10.498	161.438	-67.36	44.73	-76.53	-84.182	-33.124	-10.486	-0.49921	0.37234	-0.48441	0.61432	30.8	13111	100
2025-3-27 18:46:1.722	WT901BLE68-01(48591DE3C19B)	0.003	-1.025	-0.019	1.953	10.498	161.438	-67.02	46.08	-75.99	-84.182	-33.124	-10.486	-0.49921	0.37234	-0.48441	0.61432	30.8	13111	100
2025-3-27 18:46:1.751	WT901BLE68-01(48591DE3C19B)	0.003	-1.082	0.005	-5.310	9.583	142.334	-66.80	47.23	-75.54	-84.182	-33.124	-10.486	-0.49921	0.37234	-0.48441	0.61432	30.8	13111	100
2025-3-27 18:46:1.751	WT901BLE68-01(48591DE3C19B)	0.029	-1.082	0.005	-5.310	9.583	142.334	-66.57	48.37	-75.08	-84.182	-33.124	-10.486	-0.49921	0.37234	-0.48441	0.61432	30.8	13111	100
2025-3-27 18:46:1.751	WT901BLE68-01(48591DE3C19B)	0.029	-1.172	0.038	-10.376	5.615	117.981	-66.44	49.26	-74.69	-84.182	-33.124	-10.486	-0.49921	0.37234	-0.48441	0.61432	30.8	13111	100
2025-3-27 18:46:1.751	WT901BLE68-01(48591DE3C19B)	0.023	-1.172	0.038	-10.376	5.615	117.981	-66.30	50.15	-74.30	-84.182	-33.124	-10.486	-0.49921	0.37234	-0.48441	0.61432	30.8	13111	100
2025-3-27 18:46:1.781	WT901BLE68-01(48591DE3C19B)	0.023	-1.285	0.071	-12.207	3.113	88.440	-66.29	50.74	-74.06	-84.182	-33.124	-10.486	-0.49921	0.37234	-0.48441	0.61432	30.8	13111	100
2025-3-27 18:46:1.781	WT901BLE68-01(48591DE3C19B)	-0.011	-1.285	0.071	-12.207	3.113	88.440	-66.28	51.32	-73.82	-84.182	-33.124	-10.486	-0.49921	0.37234	-0.48441	0.61432	30.8	13111	100
2025-3-27 18:46:1.781	WT901BLE68-01(48591DE3C19B)	-0.011	-1.353	0.094	-11.475	2.136	54.871	-66.41	51.60	-73.78	-84.182	-33.124	-10.486	-0.49921	0.37234	-0.48441	0.61432	30.8	13111	100
2025-3-27 18:46:1.781	WT901BLE68-01(48591DE3C19B)	-0.054	-1.353	0.094	-11.475	2.136	54.871	-66.55	51.86	-73.75	-84.182	-33.124	-10.486	-0.49921	0.37234	-0.48441	0.61432	30.8	13111	100
2025-3-27 18:46:1.842	WT901BLE68-01(48591DE3C19B)	-0.054	-1.405	0.108	-11.047	4.578	16.541	-66.90	51.78	-74.00	-84.182	-33.124	-10.486	-0.49921	0.37234	-0.48441	0.61432	30.8	13111	100
2025-3-27 18:46:1.842	WT901BLE68-01(48591DE3C19B)	-0.085	-1.405	0.108	-11.047	4.578	16.541	-67.24	51.71	-74.24	-84.182	-33.124	-10.486	-0.49921	0.37234	-0.48441	0.61432	30.8	13111	100
2025-3-27 18:46:1.842	WT901BLE68-01(48591DE3C19B)	-0.085	-1.411	0.126	-8.728	5.493	-23.376	-67.76	51.26	-74.74	-84.182	-33.124	-10.486	-0.49921	0.37234	-0.48441	0.61432	30.8	13111	100
2025-3-27 18:46:1.842	WT901BLE68-01(48591DE3C19B)	-0.092	-1.411	0.126	-8.728	5.493	-23.376	-68.27	50.82	-75.23	-84.182	-33.124	-10.486	-0.49921	0.37234	-0.48441	0.61432	30.8	13111	100
2025-3-27 18:46:1.902	WT901BLE68-01(48591DE3C19B)	-0.092	-1.393	0.149	-6.897	1.709	-62.561	-68.86	50.00	-75.87	-84.182	-33.124	-10.486	-0.73645	0.18985	-0.58994	0.27106	30.8	13111	100
2025-3-27 18:46:1.902	WT901BLE68-01(48591DE3C19B)	-0.072	-1.393	0.149	-6.897	1.709	-62.561	-69.43	49.17	-76.48	-84.182	-33.124	-10.486	-0.73645	0.18985	-0.58994	0.27106	30.8	13111	100
2025-3-27 18:46:1.903	WT901BLE68-01(48591DE3C19B)	-0.072	-1.344	0.114	1.404	4.211	-99.670	-70.06	48.02	-77.29	-84.182	-33.124	-10.486	-0.73645	0.18985	-0.58994	0.27106	30.8	13111	100
2025-3-27 18:46:1.903	WT901BLE68-01(48591DE3C19B)	-0.087	-1.344	0.114	1.404	4.211	-99.670	-70.65	46.86	-78.06	-84.182	-33.124	-10.486	-0.73645	0.18985	-0.58994	0.27106	30.8	13111	100
2025-3-27 18:46:1.903	WT901BLE68-01(48591DE3C19B)	-0.087	-1.161	0.093	7.385	5.981	-129.456	-71.25	45.43	-78.96	-84.182	-33.124	-10.486	-0.73645	0.18985	-0.58994	0.27106	30.8	13111	100
2025-3-27 18:46:1.903	WT901BLE68-01(48591DE3C19B)	-0.125	-1.161	0.093	7.385	5.981	-129.456	-71.80	43.99	-79.81	-84.182	-33.124	-10.486	-0.73645	0.18985	-0.58994	0.27106	30.8	13111	100
2025-3-27 18:46:1.903	WT901BLE68-01(48591DE3C19B)	-0.125	-1.045	0.093	6.104	7.568	-153.870	-72.41	42.34	-80.73	-84.182	-33.124	-10.486	-0.73645	0.18985	-0.58994	0.27106	30.8	13111	100
2025-3-27 18:46:1.904	WT901BLE68-01(48591DE3C19B)	-0.157	-1.045	0.093	6.104	7.568	-153.870	-72.95	40.69	-81.61	-84.182	-33.124	-10.486	-0.73645	0.18985	-0.58994	0.27106	30.8	13111	100
2025-3-27 18:46:1.962	WT901BLE68-01(48591DE3C19B)	-0.157	-0.979	0.119	5.310	5.554	-173.279	-73.49	38.86	-82.48	-84.182	-33.124	-10.486	-0.73645	0.18985	-0.58994	0.27106	30.8	13111	100
2025-3-27 18:46:1.962	WT901BLE68-01(48591DE3C19B)	-0.177	-0.979	0.119	5.310	5.554	-173.279	-73.98	37.03	-83.30	-84.182	-33.124	-10.486	-0.73645	0.18985	-0.58994	0.27106	30.8	13111	100
2025-3-27 18:46:1.962	WT901BLE68-01(48591DE3C19B)	-0.177	-0.952	0.163	2.197	-0.122	-187.927	-74.43	35.05	-84.07	-84.182	-33.124	-10.486	-0.73645	0.18985	-0.58994	0.27106	30.8	13111	100
2025-3-27 18:46:1.962	WT901BLE68-01(48591DE3C19B)	-0.196	-0.952	0.163	2.197	-0.122	-187.927	-74.84	33.08	-84.79	-84.182	-33.124	-10.486	-0.73645	0.18985	-0.58994	0.27106	30.8	13111	100
2025-3-27 18:46:1.991	WT901BLE68-01(48591DE3C19B)	-0.196	-0.975	0.205	-2.686	-3.479	-198.059	-75.25	31.01	-85.46	-84.182	-33.124	-10.486	-0.73645	0.18985	-0.58994	0.27106	30.8	13111	100
2025-3-27 18:46:1.991	WT901BLE68-01(48591DE3C19B)	-0.215	-0.975	0.205	-2.686	-3.479	-198.059	-75.62	28.96	-86.11	-84.182	-33.124	-10.486	-0.73645	0.18985	-0.58994	0.27106	30.8	13111	100
2025-3-27 18:46:1.991	WT901BLE68-01(48591DE3C19B)	-0.215	-1.030	0.228	-6.897	-6.958	-205.811	-75.98	26.83	-86.70	-84.182	-33.124	-10.486	-0.73645	0.18985	-0.58994	0.27106	30.8	13111	100
2025-3-27 18:46:1.991	WT901BLE68-01(48591DE3C19B)	-0.195	-1.030	0.228	-6.897	-6.958	-205.811	-76.31	24.71	-87.27	-84.182	-33.124	-10.486	-0.73645	0.18985	-0.58994	0.27106	30.8	13111	100
2025-3-27 18:46:2.24	WT901BLE68-01(48591DE3C19B)	-0.195	-1.077	0.250	-10.071	-2.563	-213.257	-76.66	22.55	-87.88	-84.182	-33.124	-10.486	-0.73645	0.18985	-0.58994	0.27106	30.8	13111	100
2025-3-27 18:46:2.24	WT901BLE68-01(48591DE3C19B)	-0.194	-1.077	0.250	-10.071	-2.563	-213.257	-76.99	20.39	-88.46	-84.182	-33.124	-10.486	-0.73645	0.18985	-0.58994	0.27106	30.8	13111	100
2025-3-27 18:46:2.24	WT901BLE68-01(48591DE3C19B)	-0.194	-1.118	0.263	-11.475	11.353	-219.299	-77.34	18.22	-89.18	-84.182	-33.124	-10.486	-0.73645	0.18985	-0.58994	0.27106	30.8	13111	100
2025-3-27 18:46:2.24	WT901BLE68-01(48591DE3C19B)	-0.229	-1.118	0.263	-11.475	11.353	-219.299	-77.66	16.06	-89.87	-84.182	-33.124	-10.486	-0.73645	0.18985	-0.58994	0.27106	30.8	13111	100
2025-3-27 18:46:2.111	WT901BLE68-01(48591DE3C19B)	-0.229	-1.160	0.279	-8.606	28.625	-224.548	-77.96	13.89	-90.73	-84.182	-33.124	-10.486	-0.73645	0.18985	-0.58994	0.27106	30.8	13111	100
2025-3-27 18:46:2.111	WT901BLE68-01(48591DE3C19B)	-0.268	-1.160	0.279	-8.606	28.625	-224.548	-78.23	11.73	-91.57	-80.752	-35.672	-11.858	-0.73645	0.18985	-0.58994	0.27106	30.8	13111	100
2025-3-27 18:46:2.111	WT901BLE68-01(48591DE3C19B)	-0.268	-1.171	0.297	-1.404	44.312	-228.088	-78.43	9.58	-92.55	-80.752	-35.672	-11.858	-0.73645	0.18985	-0.58994	0.27106	30.8	13111	100
2025-3-27 18:46:2.111	WT901BLE68-01(48591DE3C19B)	-0.303	-1.171	0.297	-1.404	44.312	-228.088	-78.57	7.44	-93.51	-80.752	-35.672	-11.858	-0.73645	0.18985	-0.58994	0.27106	30.8	13111	100
2025-3-27 18:46:2.112	WT901BLE68-01(48591DE3C19B)	-0.303	-1.160	0.291	7.935	58.960	-229.980	-78.61	5.33	-94.61	-80.752	-35.672	-11.858	-0.73645	0.18985	-0.58994	0.27106	30.8	13111	100
2025-3-27 18:46:2.113	WT901BLE68-01(48591DE3C19B)	-0.361	-1.160	0.291	7.935	58.960	-229.980	-78.60	3.23	-95.71	-80.752	-35.672	-11.858	-0.73645	0.18985	-0.58994	0.27106	30.8	13111	100
2025-3-27 18:46:2.113	WT901BLE68-01(48591DE3C19B)	-0.361	-1.153	0.281	16.602	70.435	-228.455	-78.47	1.19	-96.92	-80.752	-35.672	-11.858	-0.73645	0.18985	-0.58994	0.27106	30.8	13111	100
2025-3-27 18:46:2.113	WT901BLE68-01(48591DE3C19B)	-0.456	-1.153	0.281	16.602	70.435	-228.455	-78.30	-0.83	-98.12	-80.752	-35.672	-11.858	-0.73645	0.18985	-0.58994	0.27106	30.8	13111	100
2025-3-27 18:46:2.172	WT901BLE68-01(48591DE3C19B)	-0.528	-1.164	0.258	23.987	71.655	-220.886	-78.01	-2.76	-99.33	-80.752	-35.672	-11.858	-0.73645	0.18985	-0.58994	0.27106	30.8	13111	100
2025-3-27 18:46:2.172	WT901BLE68-01(48591DE3C19B)	-0.528	-1.165	0.231	30.212	59.509	-206.970	-77.67	-4.61	-100.48	-80.752	-35.672	-11.858	-0.73645	0.18985	-0.58994	0.27106	30.8	13111	100
2025-3-27 18:46:2.172	WT901BLE68-01(48591DE3C19B)	-0.600	-1.165	0.231	30.212	59.509	-206.970	-77.26	-6.38	-101.56	-80.752	-35.672	-11.858	-0.73645	0.18985	-0.58994	0.27106	30.8	13111	100
2025-3-27 18:46:2.172	WT901BLE68-01(48591DE3C19B)	-0.600	-1.152	0.259	34.912	51.208	-182.007	-76.81	-8.01	-102.60	-80.752	-35.672	-11.858	-0.73645	0.18985	-0.58994	0.27106	30.8	13111	100
2025-3-27 18:46:2.203	WT901BLE68-01(48591DE3C19B)	-0.632	-1.152	0.259	34.912	51.208	-182.007	-76.31	-9.51	-103.58	-80.752	-35.672	-11.858	-0.73645	0.18985	-0.58994	0.27106	30.8	13111	100
2025-3-27 18:46:2.203	WT901BLE68-01(48591DE3C19B)	-0.632	-1.135	0.292	36.682	55.481	-152.283	-75.79	-10.83	-104.56	-80.752	-35.672	-11.858	-0.73645	0.18985	-0.58994	0.27106	30.8	13111	100
2025-3-27 18:46:2.203	WT901BLE68-01(48591DE3C19B)	-0.660	-1.135	0.292	36.682	55.481	-152.283	-75.23	-11.98	-105.56	-80.752	-35.672	-11.858	-0.73645	0.18985	-0.58994	0.27106	30.8	13111	100
2025-3-27 18:46:2.203	WT901BLE68-01(48591DE3C19B)	-0.660	-1.108	0.289	35.034	67.932	-122.498	-74.66	-12.95	-106.58	-80.752	-35.672	-11.858	-0.73645	0.18985	-0.58994	0.27106	30.8	13111	100
2025-3-27 18:46:2.234	WT901BLE68-01(48591DE3C19B)	-0.701	-1.108	0.289	35.034	67.932	-122.498	-74.08	-13.74	-107.65	-80.752	-35.672	-11.858	-0.73645	0.18985	-0.58994	0.27106	30.8	13111	100
2025-3-27 18:46:2.234	WT901BLE68-01(48591DE3C19B)	-0.701	-1.104	0.290	30.396	83.801	-95.337	-73.49	-14.36	-108.78	-80.752	-35.672	-11.858	-0.73645	0.18985	-0.58994	0.27106	30.8	13111	100
2025-3-27 18:46:2.234	WT901BLE68-01(48591DE3C19B)	-0.751	-1.104	0.290	30.396	83.801	-95.337	-72.91	-14.81	-109.95	-80.752	-35.672	-11.858	-0.73645	0.18985	-0.58994	0.27106	30.8	13111	100
2025-3-27 18:46:2.234	WT901BLE68-01(48591DE3C19B)	-0.751	-1.156	0.271	23.438	86.853	-70.862	-72.36	-15.12	-111.11	-80.752	-35.672	-11.858	-0.73645	0.18985	-0.58994	0.27106	30.8	13111	100
2025-3-27 18:46:2.292	WT901BLE68-01(48591DE3C19B)	-0.788	-1.156	0.271	23.438	86.853	-70.862	-71.84	-15.29	-112.25	-80.752	-35.672	-11.858	-0.73645	0.18985	-0.58994	0.27106	30.8	13111	100
2025-3-27 18:46:2.292	WT901BLE68-01(48591DE3C19B)	-0.788	-1.203	0.263	17.639	79.773	-49.072	-71.37	-15.35	-113.33	-80.752	-35.672	-11.858	-0.37482	0.40561	-0.42395	0.71771	30.8	13111	100
2025-3-27 18:46:2.292	WT901BLE68-01(48591DE3C19B)	-0.808	-1.203	0.263	17.639	79.773	-49.072	-70.95	-15.31	-114.35	-80.752	-35.672	-11.858	-0.37482	0.40561	-0.42395	0.71771	30.8	13111	100
2025-3-27 18:46:2.292	WT901BLE68-01(48591DE3C19B)	-0.808	-1.182	0.248	10.803	68.665	-29.724	-70.59	-15.19	-115.29	-80.752	-35.672	-11.858	-0.37482	0.40561	-0.42395	0.71771	30.8	13111	100
2025-3-27 18:46:2.321	WT901BLE68-01(48591DE3C19B)	-0.786	-1.182	0.248	10.803	68.665	-29.724	-70.29	-14.99	-116.13	-80.752	-35.672	-11.858	-0.37482	0.40561	-0.42395	0.71771	30.8	13111	100
2025-3-27 18:46:2.321	WT901BLE68-01(48591DE3C19B)	-0.786	-1.105	0.223	-0.061	54.382	-10.010	-70.07	-14.71	-116.88	-80.752	-35.672	-11.858	-0.37482	0.40561	-0.42395	0.71771	30.8	13111	100
2025-3-27 18:46:2.321	WT901BLE68-01(48591DE3C19B)	-0.755	-1.105	0.223	-0.061	54.382	-10.010	-69.93	-14.35	-117.52	-80.752	-35.672	-11.858	-0.37482	0.40561	-0.42395	0.71771	30.8	13111	100
2025-3-27 18:46:2.322	WT901BLE68-01(48591DE3C19B)	-0.755	-1.033	0.214	-13.733	37.415	11.230	-69.90	-13.93	-118.05	-80.752	-35.672	-11.858	-0.37482	0.40561	-0.42395	0.71771	30.8	13111	100
2025-3-27 18:46:2.381	WT901BLE68-01(48591DE3C19B)	-0.766	-1.033	0.214	-13.733	37.415	11.230	-69.97	-13.44	-118.47	-80.752	-35.672	-11.858	-0.37482	0.40561	-0.42395	0.71771	30.8	13111	100
2025-3-27 18:46:2.381	WT901BLE68-01(48591DE3C19B)	-0.766	-0.967	0.256	-26.245	13.367	32.471	-70.13	-12.88	-118.73	-80.752	-35.672	-11.858	-0.37482	0.40561	-0.42395	0.71771	30.8	13111	100
2025-3-27 18:46:2.381	WT901BLE68-01(48591DE3C19B)	-0.799	-0.967	0.256	-26.245	13.367	32.471	-70.38	-12.27	-118.86	-80.752	-35.672	-11.858	-0.37482	0.40561	-0.42395	0.71771	30.8	13111	100
2025-3-27 18:46:2.381	WT901BLE68-01(48591DE3C19B)	-0.799	-0.946	0.292	-35.583	-22.766	54.199	-70.72	-11.62	-118.78	-80.752	-35.672	-11.858	-0.37482	0.40561	-0.42395	0.71771	30.8	13111	100
2025-3-27 18:46:2.444	WT901BLE68-01(48591DE3C19B)	-0.777	-0.946	0.292	-35.583	-22.766	54.199	-71.14	-10.93	-118.50	-80.752	-35.672	-11.858	-0.37482	0.40561	-0.42395	0.71771	30.8	13111	100
2025-3-27 18:46:2.444	WT901BLE68-01(48591DE3C19B)	-0.777	-0.887	0.261	-39.612	-63.477	78.125	-71.60	-10.18	-118.01	-80.752	-35.672	-11.858	-0.37482	0.40561	-0.42395	0.71771	30.8	13111	100
2025-3-27 18:46:2.444	WT901BLE68-01(48591DE3C19B)	-0.675	-0.887	0.261	-39.612	-63.477	78.125	-72.11	-9.38	-117.30	-80.752	-35.672	-11.858	-0.37482	0.40561	-0.42395	0.71771	30.8	13111	100
2025-3-27 18:46:2.444	WT901BLE68-01(48591DE3C19B)	-0.675	-0.927	0.180	-45.715	-99.609	104.187	-72.66	-8.50	-116.38	-80.752	-35.672	-11.858	-0.37482	0.40561	-0.42395	0.71771	30.8	13111	100
2025-3-27 18:46:2.445	WT901BLE68-01(48591DE3C19B)	-0.547	-0.927	0.180	-45.715	-99.609	104.187	-73.26	-7.55	-115.26	-80.752	-35.672	-11.858	-0.37482	0.40561	-0.42395	0.71771	30.8	13111	100
2025-3-27 18:46:2.445	WT901BLE68-01(48591DE3C19B)	-0.547	-1.104	0.104	-45.715	-119.446	132.202	-73.85	-6.49	-114.02	-80.752	-35.672	-11.858	-0.37482	0.40561	-0.42395	0.71771	30.8	13111	100
2025-3-27 18:46:2.445	WT901BLE68-01(48591DE3C19B)	-0.426	-1.104	0.104	-45.715	-119.446	132.202	-74.43	-5.32	-112.64	-80.752	-35.672	-11.858	-0.37482	0.40561	-0.42395	0.71771	30.8	13111	100
2025-3-27 18:46:2.445	WT901BLE68-01(48591DE3C19B)	-0.426	-1.239	0.064	-35.400	-117.981	158.386	-74.94	-4.01	-111.23	-80.752	-35.672	-11.858	-0.37482	0.40561	-0.42395	0.71771	30.8	13111	100
2025-3-27 18:46:2.474	WT901BLE68-01(48591DE3C19B)	-0.316	-1.239	0.064	-35.400	-117.981	158.386	-75.37	-2.58	-109.79	-80.752	-35.672	-11.858	-0.37482	0.40561	-0.42395	0.71771	30.8	13111	100
2025-3-27 18:46:2.474	WT901BLE68-01(48591DE3C19B)	-0.316	-1.250	0.073	-24.292	-98.328	179.749	-75.72	-1.02	-108.42	-80.752	-35.672	-11.858	-0.37482	0.40561	-0.42395	0.71771	30.8	13111	100
2025-3-27 18:46:2.474	WT901BLE68-01(48591DE3C19B)	-0.268	-1.250	0.073	-24.292	-98.328	179.749	-75.97	0.65	-107.11	-62.230	-47.334	-14.210	-0.37482	0.40561	-0.42395	0.71771	30.8	13111	100
2025-3-27 18:46:2.474	WT901BLE68-01(48591DE3C19B)	-0.268	-1.228	0.102	-18.250	-71.899	195.618	-76.16	2.42	-105.91	-62.230	-47.334	-14.210	-0.37482	0.40561	-0.42395	0.71771	30.8	13111	100
2025-3-27 18:46:2.532	WT901BLE68-01(48591DE3C19B)	-0.259	-1.228	0.102	-18.250	-71.899	195.618	-76.29	4.28	-104.82	-62.230	-47.334	-14.210	-0.37482	0.40561	-0.42395	0.71771	30.8	13111	100
2025-3-27 18:46:2.532	WT901BLE68-01(48591DE3C19B)	-0.259	-1.208	0.136	-15.686	-52.490	209.045	-76.39	6.21	-103.80	-62.230	-47.334	-14.210	-0.37482	0.40561	-0.42395	0.71771	30.8	13111	100
2025-3-27 18:46:2.532	WT901BLE68-01(48591DE3C19B)	-0.247	-1.208	0.136	-15.686	-52.490	209.045	-76.44	8.22	-102.85	-62.230	-47.334	-14.210	-0.37482	0.40561	-0.42395	0.71771	30.8	13111	100
2025-3-27 18:46:2.532	WT901BLE68-01(48591DE3C19B)	-0.247	-1.157	0.147	-14.404	-41.016	220.703	-76.46	10.27	-101.94	-62.230	-47.334	-14.210	-0.37482	0.40561	-0.42395	0.71771	30.8	13111	100
2025-3-27 18:46:2.561	WT901BLE68-01(48591DE3C19B)	-0.222	-1.157	0.147	-14.404	-41.016	220.703	-76.46	12.38	-101.07	-62.230	-47.334	-14.210	-0.37482	0.40561	-0.42395	0.71771	30.8	13111	100
2025-3-27 18:46:2.561	WT901BLE68-01(48591DE3C19B)	-0.222	-1.101	0.136	-14.954	-31.067	230.347	-76.43	14.53	-100.23	-62.230	-47.334	-14.210	-0.37482	0.40561	-0.42395	0.71771	30.8	13111	100
2025-3-27 18:46:2.561	WT901BLE68-01(48591DE3C19B)	-0.233	-1.101	0.136	-14.954	-31.067	230.347	-76.37	16.72	-99.43	-62.230	-47.334	-14.210	-0.37482	0.40561	-0.42395	0.71771	30.8	13111	100
2025-3-27 18:46:2.561	WT901BLE68-01(48591DE3C19B)	-0.233	-1.051	0.095	-14.832	-22.400	237.000	-76.30	18.93	-98.64	-62.230	-47.334	-14.210	-0.37482	0.40561	-0.42395	0.71771	30.8	13111	100
2025-3-27 18:46:2.591	WT901BLE68-01(48591DE3C19B)	-0.235	-1.051	0.095	-14.832	-22.400	237.000	-76.21	21.17	-97.88	-62.230	-47.334	-14.210	-0.37482	0.40561	-0.42395	0.71771	30.8	13111	100
2025-3-27 18:46:2.591	WT901BLE68-01(48591DE3C19B)	-0.235	-0.994	0.072	-17.090	-17.212	239.685	-76.10	23.41	-97.13	-62.230	-47.334	-14.210	-0.37482	0.40561	-0.42395	0.71771	30.8	13111	100
2025-3-27 18:46:2.591	WT901BLE68-01(48591DE3C19B)	-0.241	-0.994	0.072	-17.090	-17.212	239.685	-75.98	25.65	-96.39	-62.230	-47.334	-14.210	-0.37482	0.40561	-0.42395	0.71771	30.8	13111	100
2025-3-27 18:46:2.592	WT901BLE68-01(48591DE3C19B)	-0.241	-1.023	0.066	-21.545	-16.052	240.112	-75.85	27.88	-95.64	-62.230	-47.334	-14.210	-0.37482	0.40561	-0.42395	0.71771	30.8	13111	100
2025-3-27 18:46:2.652	WT901BLE68-01(48591DE3C19B)	-0.245	-1.023	0.066	-21.545	-16.052	240.112	-75.71	30.10	-94.87	-62.230	-47.334	-14.210	-0.37482	0.40561	-0.42395	0.71771	30.8	13111	100
2025-3-27 18:46:2.652	WT901BLE68-01(48591DE3C19B)	-0.245	-1.068	0.053	-22.827	-20.447	235.168	-75.53	32.23	-94.04	-62.230	-47.334	-14.210	-0.37482	0.40561	-0.42395	0.71771	30.8	13111	100
2025-3-27 18:46:2.652	WT901BLE68-01(48591DE3C19B)	-0.241	-1.068	0.053	-22.827	-20.447	235.168	-75.32	34.36	-93.20	-62.230	-47.334	-14.210	-0.37482	0.40561	-0.42395	0.71771	30.8	13111	100
2025-3-27 18:46:2.652	WT901BLE68-01(48591DE3C19B)	-0.241	-1.129	0.043	-24.048	-30.701	226.624	-75.01	36.36	-92.23	-62.230	-47.334	-14.210	-0.37482	0.40561	-0.42395	0.71771	30.8	13111	100
2025-3-27 18:46:2.681	WT901BLE68-01(48591DE3C19B)	-0.263	-1.129	0.043	-24.048	-30.701	226.624	-74.66	38.34	-91.22	-62.230	-47.334	-14.210	-0.67181	0.21042	-0.59311	0.39050	30.8	13111	100
2025-3-27 18:46:2.681	WT901BLE68-01(48591DE3C19B)	-0.263	-1.255	0.057	-24.902	-45.776	214.539	-74.19	40.14	-90.04	-62.230	-47.334	-14.210	-0.67181	0.21042	-0.59311	0.39050	30.8	13111	100
2025-3-27 18:46:2.681	WT901BLE68-01(48591DE3C19B)	-0.255	-1.255	0.057	-24.902	-45.776	214.539	-73.64	41.93	-88.80	-62.230	-47.334	-14.210	-0.67181	0.21042	-0.59311	0.39050	30.8	13111	100
2025-3-27 18:46:2.681	WT901BLE68-01(48591DE3C19B)	-0.255	-1.390	0.076	-20.447	-58.533	197.388	-72.93	43.49	-87.41	-62.230	-47.334	-14.210	-0.67181	0.21042	-0.59311	0.39050	30.8	13111	100
2025-3-27 18:46:2.711	WT901BLE68-01(48591DE3C19B)	-0.207	-1.390	0.076	-20.447	-58.533	197.388	-72.15	45.03	-85.97	-62.230	-47.334	-14.210	-0.67181	0.21042	-0.59311	0.39050	30.8	13111	100
2025-3-27 18:46:2.711	WT901BLE68-01(48591DE3C19B)	-0.207	-1.488	0.064	-14.160	-60.791	174.500	-71.29	46.32	-84.55	-62.230	-47.334	-14.210	-0.67181	0.21042	-0.59311	0.39050	30.8	13111	100
2025-3-27 18:46:2.712	WT901BLE68-01(48591DE3C19B)	-0.149	-1.488	0.064	-14.160	-60.791	174.500	-70.38	47.58	-83.06	-62.230	-47.334	-14.210	-0.67181	0.21042	-0.59311	0.39050	30.8	13111	100
2025-3-27 18:46:2.712	WT901BLE68-01(48591DE3C19B)	-0.149	-1.536	0.049	-9.460	-52.551	146.973	-69.55	48.59	-81.78	-62.230	-47.334	-14.210	-0.67181	0.21042	-0.59311	0.39050	30.8	13111	100
2025-3-27 18:46:2.772	WT901BLE68-01(48591DE3C19B)	-0.102	-1.536	0.049	-9.460	-52.551	146.973	-68.68	49.57	-80.46	-62.230	-47.334	-14.210	-0.67181	0.21042	-0.59311	0.39050	30.8	13111	100
2025-3-27 18:46:2.772	WT901BLE68-01(48591DE3C19B)	-0.102	-1.591	0.054	-7.385	-40.466	114.014	-68.02	50.27	-79.48	-62.230	-47.334	-14.210	-0.67181	0.21042	-0.59311	0.39050	30.8	13111	100
2025-3-27 18:46:2.772	WT901BLE68-01(48591DE3C19B)	-0.040	-1.591	0.054	-7.385	-40.466	114.014	-67.35	50.96	-78.46	-62.230	-47.334	-14.210	-0.67181	0.21042	-0.59311	0.39050	30.8	13111	100
2025-3-27 18:46:2.772	WT901BLE68-01(48591DE3C19B)	-0.040	-1.600	0.080	-4.395	-27.344	76.355	-66.95	51.34	-77.85	-62.230	-47.334	-14.210	-0.67181	0.21042	-0.59311	0.39050	30.8	13111	100
2025-3-27 18:46:2.803	WT901BLE68-01(48591DE3C19B)	0.021	-1.600	0.080	-4.395	-27.344	76.355	-66.56	51.71	-77.25	-62.230	-47.334	-14.210	-0.67181	0.21042	-0.59311	0.39050	30.8	13111	100
2025-3-27 18:46:2.803	WT901BLE68-01(48591DE3C19B)	0.021	-1.508	0.112	-1.587	-12.634	36.804	-66.50	51.77	-77.11	-62.230	-47.334	-14.210	-0.67181	0.21042	-0.59311	0.39050	30.8	13111	100
2025-3-27 18:46:2.803	WT901BLE68-01(48591DE3C19B)	0.054	-1.508	0.112	-1.587	-12.634	36.804	-66.45	51.82	-76.98	-62.230	-47.334	-14.210	-0.67181	0.21042	-0.59311	0.39050	30.8	13111	100
2025-3-27 18:46:2.803	WT901BLE68-01(48591DE3C19B)	0.054	-1.356	0.159	0.183	1.038	-0.671	-66.72	51.59	-77.28	-62.230	-47.334	-14.210	-0.67181	0.21042	-0.59311	0.39050	30.8	13111	100
2025-3-27 18:46:2.833	WT901BLE68-01(48591DE3C19B)	0.058	-1.356	0.159	0.183	1.038	-0.671	-66.98	51.34	-77.59	-62.230	-47.334	-14.210	-0.67181	0.21042	-0.59311	0.39050	30.8	13111	100
2025-3-27 18:46:2.834	WT901BLE68-01(48591DE3C19B)	0.058	-1.242	0.221	0.122	14.832	-38.391	-67.58	50.80	-78.31	-62.230	-47.334	-14.210	-0.67181	0.21042	-0.59311	0.39050	30.8	13111	100
2025-3-27 18:46:2.834	WT901BLE68-01(48591DE3C19B)	0.072	-1.242	0.221	0.122	14.832	-38.391	-68.15	50.26	-79.02	-62.230	-47.334	-14.210	-0.67181	0.21042	-0.59311	0.39050	30.8	13111	100
2025-3-27 18:46:2.834	WT901BLE68-01(48591DE3C19B)	0.072	-1.176	0.179	4.150	35.522	-76.843	-69.05	49.42	-80.22	-62.230	-47.334	-14.210	-0.67181	0.21042	-0.59311	0.39050	30.8	13111	100
2025-3-27 18:46:2.891	WT901BLE68-01(48591DE3C19B)	0.042	-1.176	0.179	4.150	35.522	-76.843	-69.91	48.58	-81.38	-62.230	-47.334	-14.210	-0.67181	0.21042	-0.59311	0.39050	30.8	13111	100
2025-3-27 18:46:2.892	WT901BLE68-01(48591DE3C19B)	0.042	-1.083	0.101	8.484	52.795	-111.633	-70.98	47.46	-82.90	-73.892	-29.008	-14.896	-0.67181	0.21042	-0.59311	0.39050	30.8	13111	100
2025-3-27 18:46:2.892	WT901BLE68-01(48591DE3C19B)	0.023	-1.083	0.101	8.484	52.795	-111.633	-71.98	46.32	-84.35	-73.892	-29.008	-14.896	-0.67181	0.21042	-0.59311	0.39050	30.8	13111	100
2025-3-27 18:46:2.892	WT901BLE68-01(48591DE3C19B)	0.023	-1.041	0.050	8.850	60.547	-141.846	-73.06	44.91	-85.96	-73.892	-29.008	-14.896	-0.67181	0.21042	-0.59311	0.39050	30.8	13111	100
2025-3-27 18:46:2.952	WT901BLE68-01(48591DE3C19B)	-0.031	-1.041	0.050	8.850	60.547	-141.846	-74.07	43.48	-87.50	-73.892	-29.008	-14.896	-0.67181	0.21042	-0.59311	0.39050	30.8	13111	100
2025-3-27 18:46:2.952	WT901BLE68-01(48591DE3C19B)	-0.031	-1.066	0.043	8.728	60.730	-167.603	-75.05	41.79	-89.04	-73.892	-29.008	-14.896	-0.67181	0.21042	-0.59311	0.39050	30.8	13111	100
2025-3-27 18:46:2.952	WT901BLE68-01(48591DE3C19B)	-0.127	-1.066	0.043	8.728	60.730	-167.603	-75.95	40.10	-90.51	-73.892	-29.008	-14.896	-0.67181	0.21042	-0.59311	0.39050	30.8	13111	100
2025-3-27 18:46:2.952	WT901BLE68-01(48591DE3C19B)	-0.127	-1.090	0.143	11.719	49.500	-187.683	-76.68	38.18	-91.81	-73.892	-29.008	-14.896	-0.67181	0.21042	-0.59311	0.39050	30.8	13111	100
2025-3-27 18:46:2.953	WT901BLE68-01(48591DE3C19B)	-0.235	-1.090	0.143	11.719	49.500	-187.683	-77.33	36.27	-93.05	-73.892	-29.008	-14.896	-0.67181	0.21042	-0.59311	0.39050	30.8	13111	100
2025-3-27 18:46:2.954	WT901BLE68-01(48591DE3C19B)	-0.235	-1.095	0.241	17.456	35.950	-200.195	-77.78	34.21	-94.10	-73.892	-29.008	-14.896	-0.67181	0.21042	-0.59311	0.39050	30.8	13111	100
2025-3-27 18:46:2.954	WT901BLE68-01(48591DE3C19B)	-0.243	-1.095	0.241	17.456	35.950	-200.195	-78.17	32.15	-95.10	-73.892	-29.008	-14.896	-0.67181	0.21042	-0.59311	0.39050	30.8	13111	100
2025-3-27 18:46:2.954	WT901BLE68-01(48591DE3C19B)	-0.243	-1.075	0.285	20.691	20.447	-209.351	-78.39	29.99	-95.91	-73.892	-29.008	-14.896	-0.67181	0.21042	-0.59311	0.39050	30.8	13111	100
2025-3-27 18:46:3.11	WT901BLE68-01(48591DE3C19B)	-0.175	-1.075	0.285	20.691	20.447	-209.351	-78.56	27.84	-96.69	-73.892	-29.008	-14.896	-0.67181	0.21042	-0.59311	0.39050	30.8	13111	100
2025-3-27 18:46:3.11	WT901BLE68-01(48591DE3C19B)	-0.175	-1.081	0.279	23.315	26.123	-215.637	-78.71	25.66	-97.52	-73.892	-29.008	-14.896	-0.67181	0.21042	-0.59311	0.39050	30.8	13111	100
2025-3-27 18:46:3.11	WT901BLE68-01(48591DE3C19B)	-0.163	-1.081	0.279	23.315	26.123	-215.637	-78.80	23.49	-98.33	-73.892	-29.008	-14.896	-0.67181	0.21042	-0.59311	0.39050	30.8	13111	100
2025-3-27 18:46:3.12	WT901BLE68-01(48591DE3C19B)	-0.163	-1.082	0.224	28.564	45.898	-220.703	-78.90	21.32	-99.34	-73.892	-29.008	-14.896	-0.67181	0.21042	-0.59311	0.39050	30.8	13111	100
2025-3-27 18:46:3.44	WT901BLE68-01(48591DE3C19B)	-0.178	-1.082	0.224	28.564	45.898	-220.703	-78.95	19.17	-100.32	-73.892	-29.008	-14.896	-0.67181	0.21042	-0.59311	0.39050	30.8	13111	100
2025-3-27 18:46:3.44	WT901BLE68-01(48591DE3C19B)	-0.178	-1.077	0.158	35.095	63.171	-226.868	-78.96	17.00	-101.48	-73.892	-29.008	-14.896	-0.67181	0.21042	-0.59311	0.39050	30.8	13111	100
2025-3-27 18:46:3.44	WT901BLE68-01(48591DE3C19B)	-0.196	-1.077	0.158	35.095	63.171	-226.868	-78.93	14.84	-102.62	-73.892	-29.008	-14.896	-0.67181	0.21042	-0.59311	0.39050	30.8	13111	100
2025-3-27 18:46:3.44	WT901BLE68-01(48591DE3C19B)	-0.196	-1.070	0.104	41.992	80.811	-234.009	-78.83	12.66	-103.94	-73.892	-29.008	-14.896	-0.67181	0.21042	-0.59311	0.39050	30.8	13111	100
2025-3-27 18:46:3.73	WT901BLE68-01(48591DE3C19B)	-0.258	-1.070	0.104	41.992	80.811	-234.009	-78.68	10.50	-105.24	-73.892	-29.008	-14.896	-0.67181	0.21042	-0.59311	0.39050	30.8	13111	100
2025-3-27 18:46:3.73	WT901BLE68-01(48591DE3C19B)	-0.396	-1.065	0.098	48.706	100.098	-238.464	-78.45	8.36	-106.74	-73.892	-29.008	-14.896	-0.67181	0.21042	-0.59311	0.39050	30.8	13111	100
2025-3-27 18:46:3.73	WT901BLE68-01(48591DE3C19B)	-0.396	-1.066	0.150	54.260	111.328	-239.624	-78.15	6.25	-108.29	-73.892	-29.008	-14.896	-0.48187	0.33438	-0.53491	0.60809	30.8	13111	100
2025-3-27 18:46:3.73	WT901BLE68-01(48591DE3C19B)	-0.594	-1.066	0.150	54.260	111.328	-239.624	-77.78	4.17	-109.89	-73.892	-29.008	-14.896	-0.48187	0.33438	-0.53491	0.60809	30.8	13111	100
2025-3-27 18:46:3.132	WT901BLE68-01(48591DE3C19B)	-0.594	-1.082	0.234	59.998	106.323	-235.291	-77.32	2.13	-111.47	-73.892	-29.008	-14.896	-0.48187	0.33438	-0.53491	0.60809	30.8	13111	100
2025-3-27 18:46:3.132	WT901BLE68-01(48591DE3C19B)	-0.824	-1.082	0.234	59.998	106.323	-235.291	-76.77	0.15	-113.04	-73.892	-29.008	-14.896	-0.48187	0.33438	-0.53491	0.60809	30.8	13111	100
2025-3-27 18:46:3.132	WT901BLE68-01(48591DE3C19B)	-0.824	-1.058	0.267	64.636	81.238	-219.299	-76.16	-1.74	-114.48	-73.892	-29.008	-14.896	-0.48187	0.33438	-0.53491	0.60809	30.8	13111	100
2025-3-27 18:46:3.132	WT901BLE68-01(48591DE3C19B)	-0.880	-1.058	0.267	64.636	81.238	-219.299	-75.48	-3.54	-115.82	-73.892	-29.008	-14.896	-0.48187	0.33438	-0.53491	0.60809	30.8	13111	100
2025-3-27 18:46:3.161	WT901BLE68-01(48591DE3C19B)	-0.880	-0.975	0.225	63.232	50.842	-195.923	-74.77	-5.23	-117.00	-73.892	-29.008	-14.896	-0.48187	0.33438	-0.53491	0.60809	30.8	13111	100
2025-3-27 18:46:3.161	WT901BLE68-01(48591DE3C19B)	-0.771	-0.975	0.225	63.232	50.842	-195.923	-74.06	-6.81	-118.04	-73.892	-29.008	-14.896	-0.48187	0.33438	-0.53491	0.60809	30.8	13111	100
2025-3-27 18:46:3.161	WT901BLE68-01(48591DE3C19B)	-0.771	-0.894	0.158	55.481	27.039	-168.457	-73.37	-8.26	-118.96	-73.892	-29.008	-14.896	-0.48187	0.33438	-0.53491	0.60809	30.8	13111	100
2025-3-27 18:46:3.161	WT901BLE68-01(48591DE3C19B)	-0.657	-0.894	0.158	55.481	27.039	-168.457	-72.73	-9.59	-119.75	-73.892	-29.008	-14.896	-0.48187	0.33438	-0.53491	0.60809	30.8	13111	100
2025-3-27 18:46:3.191	WT901BLE68-01(48591DE3C19B)	-0.657	-0.885	0.144	45.654	7.263	-137.756	-72.14	-10.77	-120.43	-73.892	-29.008	-14.896	-0.48187	0.33438	-0.53491	0.60809	30.8	13111	100
2025-3-27 18:46:3.192	WT901BLE68-01(48591DE3C19B)	-0.640	-0.885	0.144	45.654	7.263	-137.756	-71.61	-11.82	-120.98	-73.892	-29.008	-14.896	-0.48187	0.33438	-0.53491	0.60809	30.8	13111	100
2025-3-27 18:46:3.192	WT901BLE68-01(48591DE3C19B)	-0.640	-0.928	0.216	37.109	-8.179	-107.971	-71.14	-12.74	-121.43	-73.892	-29.008	-14.896	-0.48187	0.33438	-0.53491	0.60809	30.8	13111	100
2025-3-27 18:46:3.192	WT901BLE68-01(48591DE3C19B)	-0.617	-0.928	0.216	37.109	-8.179	-107.971	-70.72	-13.54	-121.77	-73.892	-29.008	-14.896	-0.48187	0.33438	-0.53491	0.60809	30.8	13111	100
2025-3-27 18:46:3.254	WT901BLE68-01(48591DE3C19B)	-0.617	-0.966	0.292	31.738	-3.906	-80.566	-70.34	-14.18	-122.10	-73.892	-29.008	-14.896	-0.48187	0.33438	-0.53491	0.60809	30.8	13111	100
2025-3-27 18:46:3.254	WT901BLE68-01(48591DE3C19B)	-0.626	-0.966	0.292	31.738	-3.906	-80.566	-69.98	-14.69	-122.42	-73.892	-29.008	-14.896	-0.48187	0.33438	-0.53491	0.60809	30.8	13111	100
2025-3-27 18:46:3.254	WT901BLE68-01(48591DE3C19B)	-0.626	-0.981	0.304	25.818	18.066	-52.979	-69.62	-15.03	-122.81	-73.892	-29.008	-14.896	-0.48187	0.33438	-0.53491	0.60809	30.8	13111	100
2025-3-27 18:46:3.254	WT901BLE68-01(48591DE3C19B)	-0.674	-0.981	0.304	25.818	18.066	-52.979	-69.28	-15.19	-123.26	-73.892	-29.008	-14.896	-0.48187	0.33438	-0.53491	0.60809	30.8	13111	100
2025-3-27 18:46:3.283	WT901BLE68-01(48591DE3C19B)	-0.674	-1.030	0.257	18.005	37.781	-29.480	-68.96	-15.21	-123.77	-73.892	-29.008	-14.896	-0.48187	0.33438	-0.53491	0.60809	30.8	13111	100
2025-3-27 18:46:3.284	WT901BLE68-01(48591DE3C19B)	-0.690	-1.030	0.257	18.005	37.781	-29.480	-68.66	-15.08	-124.33	-73.892	-29.008	-14.896	-0.48187	0.33438	-0.53491	0.60809	30.8	13111	100
2025-3-27 18:46:3.284	WT901BLE68-01(48591DE3C19B)	-0.690	-1.119	0.211	9.705	46.814	-10.376	-68.40	-14.84	-124.90	-73.892	-29.008	-14.896	-0.48187	0.33438	-0.53491	0.60809	30.8	13111	100
2025-3-27 18:46:3.284	WT901BLE68-01(48591DE3C19B)	-0.739	-1.119	0.211	9.705	46.814	-10.376	-68.19	-14.49	-125.49	-46.354	-48.902	-12.838	-0.48187	0.33438	-0.53491	0.60809	30.8	13111	100
2025-3-27 18:46:3.313	WT901BLE68-01(48591DE3C19B)	-0.739	-1.155	0.185	2.014	45.044	7.080	-68.03	-14.07	-126.02	-46.354	-48.902	-12.838	-0.48187	0.33438	-0.53491	0.60809	30.8	13111	100
2025-3-27 18:46:3.313	WT901BLE68-01(48591DE3C19B)	-0.747	-1.155	0.185	2.014	45.044	7.080	-67.93	-13.56	-126.52	-46.354	-48.902	-12.838	-0.48187	0.33438	-0.53491	0.60809	30.8	13111	100
2025-3-27 18:46:3.313	WT901BLE68-01(48591DE3C19B)	-0.747	-1.124	0.192	-7.690	33.508	22.766	-67.91	-13.01	-126.93	-46.354	-48.902	-12.838	-0.48187	0.33438	-0.53491	0.60809	30.8	13111	100
2025-3-27 18:46:3.313	WT901BLE68-01(48591DE3C19B)	-0.741	-1.124	0.192	-7.690	33.508	22.766	-67.95	-12.41	-127.25	-46.354	-48.902	-12.838	-0.48187	0.33438	-0.53491	0.60809	30.8	13111	100
2025-3-27 18:46:3.372	WT901BLE68-01(48591DE3C19B)	-0.741	-1.119	0.205	-20.752	16.602	41.260	-68.09	-11.76	-127.46	-46.354	-48.902	-12.838	-0.48187	0.33438	-0.53491	0.60809	30.8	13111	100
2025-3-27 18:46:3.372	WT901BLE68-01(48591DE3C19B)	-0.742	-1.119	0.205	-20.752	16.602	41.260	-68.31	-11.06	-127.56	-46.354	-48.902	-12.838	-0.48187	0.33438	-0.53491	0.60809	30.8	13111	100
2025-3-27 18:46:3.372	WT901BLE68-01(48591DE3C19B)	-0.742	-1.155	0.208	-32.410	-12.085	60.181	-68.62	-10.32	-127.49	-46.354	-48.902	-12.838	-0.48187	0.33438	-0.53491	0.60809	30.8	13111	100
2025-3-27 18:46:3.372	WT901BLE68-01(48591DE3C19B)	-0.707	-1.155	0.208	-32.410	-12.085	60.181	-69.02	-9.55	-127.26	-46.354	-48.902	-12.838	-0.48187	0.33438	-0.53491	0.60809	30.8	13111	100
2025-3-27 18:46:3.403	WT901BLE68-01(48591DE3C19B)	-0.707	-1.151	0.188	-41.260	-44.495	81.421	-69.48	-8.75	-126.84	-46.354	-48.902	-12.838	-0.48187	0.33438	-0.53491	0.60809	30.8	13111	100
2025-3-27 18:46:3.403	WT901BLE68-01(48591DE3C19B)	-0.663	-1.151	0.188	-41.260	-44.495	81.421	-70.01	-7.89	-126.24	-46.354	-48.902	-12.838	-0.48187	0.33438	-0.53491	0.60809	30.8	13111	100
2025-3-27 18:46:3.403	WT901BLE68-01(48591DE3C19B)	-0.663	-1.148	0.127	-50.659	-74.341	105.347	-70.59	-6.98	-125.46	-46.354	-48.902	-12.838	-0.48187	0.33438	-0.53491	0.60809	30.8	13111	100
2025-3-27 18:46:3.403	WT901BLE68-01(48591DE3C19B)	-0.618	-1.148	0.127	-50.659	-74.341	105.347	-71.24	-6.00	-124.51	-46.354	-48.902	-12.838	-0.48187	0.33438	-0.53491	0.60809	30.8	13111	100
2025-3-27 18:46:3.433	WT901BLE68-01(48591DE3C19B)	-0.618	-1.179	0.069	-58.472	-105.835	132.080	-71.91	-4.94	-123.37	-46.354	-48.902	-12.838	-0.48187	0.33438	-0.53491	0.60809	30.8	13111	100
2025-3-27 18:46:3.434	WT901BLE68-01(48591DE3C19B)	-0.529	-1.179	0.069	-58.472	-105.835	132.080	-72.62	-3.79	-122.04	-46.354	-48.902	-12.838	-0.48187	0.33438	-0.53491	0.60809	30.8	13111	100
2025-3-27 18:46:3.434	WT901BLE68-01(48591DE3C19B)	-0.529	-1.237	0.033	-63.538	-134.705	160.034	-73.34	-2.54	-120.55	-46.354	-48.902	-12.838	-0.48187	0.33438	-0.53491	0.60809	30.8	13111	100
2025-3-27 18:46:3.434	WT901BLE68-01(48591DE3C19B)	-0.433	-1.237	0.033	-63.538	-134.705	160.034	-74.05	-1.19	-118.88	-46.354	-48.902	-12.838	-0.48187	0.33438	-0.53491	0.60809	30.8	13111	100
2025-3-27 18:46:3.492	WT901BLE68-01(48591DE3C19B)	-0.433	-1.360	0.010	-64.575	-156.250	186.096	-74.74	0.25	-117.08	-46.354	-48.902	-12.838	-0.48187	0.33438	-0.53491	0.60809	30.8	13111	100
2025-3-27 18:46:3.492	WT901BLE68-01(48591DE3C19B)	-0.319	-1.360	0.010	-64.575	-156.250	186.096	-75.38	1.81	-115.15	-46.354	-48.902	-12.838	-0.43234	0.31720	-0.52274	0.66263	30.8	13111	100
2025-3-27 18:46:3.492	WT901BLE68-01(48591DE3C19B)	-0.319	-1.501	0.040	-57.434	-165.405	206.665	-75.94	3.46	-113.16	-46.354	-48.902	-12.838	-0.43234	0.31720	-0.52274	0.66263	30.8	13111	100
2025-3-27 18:46:3.492	WT901BLE68-01(48591DE3C19B)	-0.232	-1.501	0.040	-57.434	-165.405	206.665	-76.39	5.20	-111.10	-46.354	-48.902	-12.838	-0.43234	0.31720	-0.52274	0.66263	30.8	13111	100
2025-3-27 18:46:3.521	WT901BLE68-01(48591DE3C19B)	-0.232	-1.578	0.098	-40.405	-158.081	220.520	-76.71	7.00	-109.06	-46.354	-48.902	-12.838	-0.43234	0.31720	-0.52274	0.66263	30.8	13111	100
2025-3-27 18:46:3.521	WT901BLE68-01(48591DE3C19B)	-0.178	-1.578	0.098	-40.405	-158.081	220.520	-76.87	8.87	-107.05	-46.354	-48.902	-12.838	-0.43234	0.31720	-0.52274	0.66263	30.8	13111	100
2025-3-27 18:46:3.521	WT901BLE68-01(48591DE3C19B)	-0.178	-1.555	0.124	-22.949	-134.705	228.149	-76.90	10.79	-105.13	-46.354	-48.902	-12.838	-0.43234	0.31720	-0.52274	0.66263	30.8	13111	100
2025-3-27 18:46:3.521	WT901BLE68-01(48591DE3C19B)	-0.139	-1.555	0.124	-22.949	-134.705	228.149	-76.79	12.74	-103.31	-46.354	-48.902	-12.838	-0.43234	0.31720	-0.52274	0.66263	30.8	13111	100
2025-3-27 18:46:3.581	WT901BLE68-01(48591DE3C19B)	-0.139	-1.409	0.109	-7.263	-94.727	230.042	-76.56	14.79	-101.87	-46.354	-48.902	-12.838	-0.43234	0.31720	-0.52274	0.66263	30.8	13111	100
2025-3-27 18:46:3.582	WT901BLE68-01(48591DE3C19B)	-0.153	-1.409	0.109	-7.263	-94.727	230.042	-76.27	16.81	-100.41	-46.354	-48.902	-12.838	-0.43234	0.31720	-0.52274	0.66263	30.8	13111	100
2025-3-27 18:46:3.582	WT901BLE68-01(48591DE3C19B)	-0.153	-1.234	0.088	-0.916	-48.340	227.722	-76.01	18.89	-99.41	-46.354	-48.902	-12.838	-0.43234	0.31720	-0.52274	0.66263	30.8	13111	100
2025-3-27 18:46:3.582	WT901BLE68-01(48591DE3C19B)	-0.181	-1.234	0.088	-0.916	-48.340	227.722	-75.72	20.95	-98.39	-46.354	-48.902	-12.838	-0.43234	0.31720	-0.52274	0.66263	30.8	13111	100
2025-3-27 18:46:3.611	WT901BLE68-01(48591DE3C19B)	-0.181	-1.106	0.067	1.099	-8.545	223.267	-75.51	23.05	-97.77	-46.354	-48.902	-12.838	-0.43234	0.31720	-0.52274	0.66263	30.8	13111	100
2025-3-27 18:46:3.611	WT901BLE68-01(48591DE3C19B)	-0.199	-1.106	0.067	1.099	-8.545	223.267	-75.28	25.13	-97.14	-46.354	-48.902	-12.838	-0.43234	0.31720	-0.52274	0.66263	30.8	13111	100
2025-3-27 18:46:3.612	WT901BLE68-01(48591DE3C19B)	-0.199	-0.988	0.056	-1.099	13.794	220.093	-75.16	27.22	-96.73	-46.354	-48.902	-12.838	-0.43234	0.31720	-0.52274	0.66263	30.8	13111	100
2025-3-27 18:46:3.612	WT901BLE68-01(48591DE3C19B)	-0.198	-0.988	0.056	-1.099	13.794	220.093	-75.01	29.30	-96.32	-46.354	-48.902	-12.838	-0.43234	0.31720	-0.52274	0.66263	30.8	13111	100
2025-3-27 18:46:3.702	WT901BLE68-01(48591DE3C19B)	-0.198	-0.918	0.054	-6.653	20.630	217.163	-74.95	31.35	-95.98	-46.354	-48.902	-12.838	-0.43234	0.31720	-0.52274	0.66263	30.8	13111	100
2025-3-27 18:46:3.702	WT901BLE68-01(48591DE3C19B)	-0.213	-0.918	0.054	-6.653	20.630	217.163	-74.87	33.39	-95.63	-46.354	-48.902	-12.838	-0.43234	0.31720	-0.52274	0.66263	30.8	13111	100
2025-3-27 18:46:3.702	WT901BLE68-01(48591DE3C19B)	-0.213	-0.914	0.043	-11.719	16.174	215.149	-74.80	35.39	-95.23	-46.354	-48.902	-12.838	-0.43234	0.31720	-0.52274	0.66263	30.8	13111	100
2025-3-27 18:46:3.702	WT901BLE68-01(48591DE3C19B)	-0.222	-0.914	0.043	-11.719	16.174	215.149	-74.71	37.37	-94.81	-46.354	-48.902	-12.838	-0.43234	0.31720	-0.52274	0.66263	30.8	13111	100
2025-3-27 18:46:3.703	WT901BLE68-01(48591DE3C19B)	-0.222	-0.890	0.032	-13.306	2.747	211.975	-74.51	39.28	-94.23	-46.354	-48.902	-12.838	-0.43234	0.31720	-0.52274	0.66263	30.8	13111	100
2025-3-27 18:46:3.703	WT901BLE68-01(48591DE3C19B)	-0.207	-0.890	0.032	-13.306	2.747	211.975	-74.30	41.17	-93.62	-63.700	-42.336	-11.858	-0.43234	0.31720	-0.52274	0.66263	30.8	13111	100
2025-3-27 18:46:3.703	WT901BLE68-01(48591DE3C19B)	-0.207	-0.899	0.035	-17.090	-12.939	204.590	-73.96	42.94	-92.81	-63.700	-42.336	-11.858	-0.43234	0.31720	-0.52274	0.66263	30.8	13111	100
2025-3-27 18:46:3.703	WT901BLE68-01(48591DE3C19B)	-0.188	-0.899	0.035	-17.090	-12.939	204.590	-73.59	44.69	-91.97	-63.700	-42.336	-11.858	-0.43234	0.31720	-0.52274	0.66263	30.8	13111	100
2025-3-27 18:46:3.734	WT901BLE68-01(48591DE3C19B)	-0.188	-1.053	0.064	-19.287	-25.879	191.345	-73.10	46.27	-90.96	-63.700	-42.336	-11.858	-0.43234	0.31720	-0.52274	0.66263	30.8	13111	100
2025-3-27 18:46:3.734	WT901BLE68-01(48591DE3C19B)	-0.204	-1.053	0.064	-19.287	-25.879	191.345	-72.56	47.82	-89.91	-63.700	-42.336	-11.858	-0.43234	0.31720	-0.52274	0.66263	30.8	13111	100
2025-3-27 18:46:3.734	WT901BLE68-01(48591DE3C19B)	-0.204	-1.216	0.107	-15.442	-36.926	172.363	-71.88	49.15	-88.74	-63.700	-42.336	-11.858	-0.43234	0.31720	-0.52274	0.66263	30.8	13111	100
2025-3-27 18:46:3.734	WT901BLE68-01(48591DE3C19B)	-0.199	-1.216	0.107	-15.442	-36.926	172.363	-71.13	50.46	-87.52	-63.700	-42.336	-11.858	-0.43234	0.31720	-0.52274	0.66263	30.8	13111	100
2025-3-27 18:46:3.764	WT901BLE68-01(48591DE3C19B)	-0.199	-1.394	0.120	-8.972	-43.274	147.034	-70.30	51.49	-86.29	-63.700	-42.336	-11.858	-0.43234	0.31720	-0.52274	0.66263	30.8	13111	100
2025-3-27 18:46:3.764	WT901BLE68-01(48591DE3C19B)	-0.149	-1.394	0.120	-8.972	-43.274	147.034	-69.41	52.49	-85.00	-63.700	-42.336	-11.858	-0.43234	0.31720	-0.52274	0.66263	30.8	13111	100
2025-3-27 18:46:3.764	WT901BLE68-01(48591DE3C19B)	-0.149	-1.523	0.091	-0.610	-36.743	117.249	-68.62	53.22	-83.95	-63.700	-42.336	-11.858	-0.43234	0.31720	-0.52274	0.66263	30.8	13111	100
2025-3-27 18:46:3.764	WT901BLE68-01(48591DE3C19B)	-0.088	-1.523	0.091	-0.610	-36.743	117.249	-67.79	53.94	-82.87	-63.700	-42.336	-11.858	-0.43234	0.31720	-0.52274	0.66263	30.8	13111	100
2025-3-27 18:46:3.822	WT901BLE68-01(48591DE3C19B)	-0.088	-1.546	0.058	7.263	-18.616	82.153	-67.28	54.39	-82.27	-63.700	-42.336	-11.858	-0.43234	0.31720	-0.52274	0.66263	30.8	13111	100
2025-3-27 18:46:3.822	WT901BLE68-01(48591DE3C19B)	-0.051	-1.546	0.058	7.263	-18.616	82.153	-66.76	54.83	-81.67	-63.700	-42.336	-11.858	-0.43234	0.31720	-0.52274	0.66263	30.8	13111	100
2025-3-27 18:46:3.822	WT901BLE68-01(48591DE3C19B)	-0.051	-1.498	0.063	8.484	3.540	41.565	-66.74	54.97	-81.68	-63.700	-42.336	-11.858	-0.43234	0.31720	-0.52274	0.66263	30.8	13111	100
2025-3-27 18:46:3.823	WT901BLE68-01(48591DE3C19B)	-0.096	-1.498	0.063	8.484	3.540	41.565	-66.72	55.11	-81.70	-63.700	-42.336	-11.858	-0.43234	0.31720	-0.52274	0.66263	30.8	13111	100
2025-3-27 18:46:3.853	WT901BLE68-01(48591DE3C19B)	-0.096	-1.447	0.113	9.583	22.888	2.380	-67.16	54.96	-82.29	-63.700	-42.336	-11.858	-0.43234	0.31720	-0.52274	0.66263	30.8	13111	100
2025-3-27 18:46:3.853	WT901BLE68-01(48591DE3C19B)	-0.141	-1.447	0.113	9.583	22.888	2.380	-67.60	54.82	-82.88	-63.700	-42.336	-11.858	-0.43234	0.31720	-0.52274	0.66263	30.8	13111	100
2025-3-27 18:46:3.854	WT901BLE68-01(48591DE3C19B)	-0.141	-1.337	0.196	9.766	30.762	-34.302	-68.31	54.35	-83.81	-63.700	-42.336	-11.858	-0.43234	0.31720	-0.52274	0.66263	30.8	13111	100
2025-3-27 18:46:3.854	WT901BLE68-01(48591DE3C19B)	-0.139	-1.337	0.196	9.766	30.762	-34.302	-68.99	53.88	-84.73	-63.700	-42.336	-11.858	-0.43234	0.31720	-0.52274	0.66263	30.8	13111	100
2025-3-27 18:46:3.883	WT901BLE68-01(48591DE3C19B)	-0.139	-1.291	0.229	8.911	33.875	-67.871	-69.86	53.11	-85.85	-63.700	-42.336	-11.858	-0.43234	0.31720	-0.52274	0.66263	30.8	13111	100
2025-3-27 18:46:3.884	WT901BLE68-01(48591DE3C19B)	-0.149	-1.291	0.229	8.911	33.875	-67.871	-70.66	52.33	-86.94	-63.700	-42.336	-11.858	-0.43234	0.31720	-0.52274	0.66263	30.8	13111	100
2025-3-27 18:46:3.884	WT901BLE68-01(48591DE3C19B)	-0.149	-1.205	0.183	12.268	36.438	-98.694	-71.55	51.26	-88.18	-63.700	-42.336	-11.858	-0.69855	0.13696	-0.61905	0.33160	30.8	13111	100
2025-3-27 18:46:3.884	WT901BLE68-01(48591DE3C19B)	-0.168	-1.205	0.183	12.268	36.438	-98.694	-72.37	50.18	-89.35	-63.700	-42.336	-11.858	-0.69855	0.13696	-0.61905	0.33160	30.8	13111	100
2025-3-27 18:46:3.942	WT901BLE68-01(48591DE3C19B)	-0.168	-1.071	0.141	13.428	32.593	-125.977	-73.16	48.83	-90.53	-63.700	-42.336	-11.858	-0.69855	0.13696	-0.61905	0.33160	30.8	13111	100
2025-3-27 18:46:3.942	WT901BLE68-01(48591DE3C19B)	-0.186	-1.071	0.141	13.428	32.593	-125.977	-73.89	47.48	-91.65	-63.700	-42.336	-11.858	-0.69855	0.13696	-0.61905	0.33160	30.8	13111	100
2025-3-27 18:46:3.943	WT901BLE68-01(48591DE3C19B)	-0.186	-0.981	0.134	13.000	25.085	-150.452	-74.55	45.88	-92.71	-63.700	-42.336	-11.858	-0.69855	0.13696	-0.61905	0.33160	30.8	13111	100
2025-3-27 18:46:3.943	WT901BLE68-01(48591DE3C19B)	-0.207	-0.981	0.134	13.000	25.085	-150.452	-75.15	44.27	-93.70	-63.700	-42.336	-11.858	-0.69855	0.13696	-0.61905	0.33160	30.8	13111	100
2025-3-27 18:46:4.3	WT901BLE68-01(48591DE3C19B)	-0.207	-0.948	0.162	11.902	17.334	-172.363	-75.68	42.45	-94.60	-63.700	-42.336	-11.858	-0.69855	0.13696	-0.61905	0.33160	30.8	13111	100
2025-3-27 18:46:4.3	WT901BLE68-01(48591DE3C19B)	-0.243	-0.948	0.162	11.902	17.334	-172.363	-76.15	40.62	-95.47	-63.700	-42.336	-11.858	-0.69855	0.13696	-0.61905	0.33160	30.8	13111	100
2025-3-27 18:46:4.3	WT901BLE68-01(48591DE3C19B)	-0.243	-0.964	0.195	12.756	10.437	-191.284	-76.54	38.61	-96.25	-63.700	-42.336	-11.858	-0.69855	0.13696	-0.61905	0.33160	30.8	13111	100
2025-3-27 18:46:4.4	WT901BLE68-01(48591DE3C19B)	-0.280	-0.964	0.195	12.756	10.437	-191.284	-76.88	36.61	-96.99	-63.700	-42.336	-11.858	-0.69855	0.13696	-0.61905	0.33160	30.8	13111	100
2025-3-27 18:46:4.4	WT901BLE68-01(48591DE3C19B)	-0.256	-0.992	0.208	14.648	-0.305	-207.886	-77.11	34.43	-97.62	-63.700	-42.336	-11.858	-0.69855	0.13696	-0.61905	0.33160	30.8	13111	100
2025-3-27 18:46:4.4	WT901BLE68-01(48591DE3C19B)	-0.256	-1.034	0.196	16.052	-8.057	-223.389	-77.29	32.18	-98.19	-63.700	-42.336	-11.858	-0.69855	0.13696	-0.61905	0.33160	30.8	13111	100
2025-3-27 18:46:4.4	WT901BLE68-01(48591DE3C19B)	-0.219	-1.034	0.196	16.052	-8.057	-223.389	-77.41	29.87	-98.72	-63.700	-42.336	-11.858	-0.69855	0.13696	-0.61905	0.33160	30.8	13111	100
2025-3-27 18:46:4.4	WT901BLE68-01(48591DE3C19B)	-0.219	-1.062	0.173	16.907	-4.944	-236.938	-77.52	27.50	-99.27	-63.700	-42.336	-11.858	-0.69855	0.13696	-0.61905	0.33160	30.8	13111	100
2025-3-27 18:46:4.61	WT901BLE68-01(48591DE3C19B)	-0.200	-1.062	0.173	16.907	-4.944	-236.938	-77.61	25.09	-99.83	-63.700	-42.336	-11.858	-0.69855	0.13696	-0.61905	0.33160	30.8	13111	100
2025-3-27 18:46:4.61	WT901BLE68-01(48591DE3C19B)	-0.200	-1.103	0.140	16.663	9.888	-250.916	-77.71	22.64	-100.46	-63.700	-42.336	-11.858	-0.69855	0.13696	-0.61905	0.33160	30.8	13111	100
2025-3-27 18:46:4.61	WT901BLE68-01(48591DE3C19B)	-0.217	-1.103	0.140	16.663	9.888	-250.916	-77.81	20.15	-101.18	-63.700	-42.336	-11.858	-0.69855	0.13696	-0.61905	0.33160	30.8	13111	100
2025-3-27 18:46:4.61	WT901BLE68-01(48591DE3C19B)	-0.217	-1.166	0.096	17.517	32.288	-264.221	-77.92	17.63	-102.00	-63.700	-42.336	-11.858	-0.69855	0.13696	-0.61905	0.33160	30.8	13111	100
2025-3-27 18:46:4.92	WT901BLE68-01(48591DE3C19B)	-0.253	-1.166	0.096	17.517	32.288	-264.221	-78.02	15.08	-102.93	-63.700	-42.336	-11.858	-0.69855	0.13696	-0.61905	0.33160	30.8	13111	100
2025-3-27 18:46:4.92	WT901BLE68-01(48591DE3C19B)	-0.253	-1.197	0.056	19.226	57.251	-275.635	-78.11	12.52	-103.97	-63.700	-42.336	-11.858	-0.69855	0.13696	-0.61905	0.33160	30.8	13111	100
2025-3-27 18:46:4.92	WT901BLE68-01(48591DE3C19B)	-0.283	-1.197	0.056	19.226	57.251	-275.635	-78.17	9.94	-105.13	-63.700	-42.336	-11.858	-0.69855	0.13696	-0.61905	0.33160	30.8	13111	100
2025-3-27 18:46:4.92	WT901BLE68-01(48591DE3C19B)	-0.283	-1.221	0.049	19.836	83.801	-282.654	-78.20	7.38	-106.41	-57.134	-46.550	-9.016	-0.69855	0.13696	-0.61905	0.33160	30.8	13111	100
2025-3-27 18:46:4.122	WT901BLE68-01(48591DE3C19B)	-0.355	-1.221	0.049	19.836	83.801	-282.654	-78.18	4.81	-107.81	-57.134	-46.550	-9.016	-0.69855	0.13696	-0.61905	0.33160	30.8	13111	100
2025-3-27 18:46:4.122	WT901BLE68-01(48591DE3C19B)	-0.355	-1.251	0.068	23.804	104.370	-283.081	-78.09	2.29	-109.30	-57.134	-46.550	-9.016	-0.69855	0.13696	-0.61905	0.33160	30.8	13111	100
2025-3-27 18:46:4.122	WT901BLE68-01(48591DE3C19B)	-0.467	-1.251	0.068	23.804	104.370	-283.081	-77.93	-0.19	-110.89	-57.134	-46.550	-9.016	-0.69855	0.13696	-0.61905	0.33160	30.8	13111	100
2025-3-27 18:46:4.122	WT901BLE68-01(48591DE3C19B)	-0.467	-1.215	0.093	29.968	108.154	-276.855	-77.66	-2.61	-112.48	-57.134	-46.550	-9.016	-0.69855	0.13696	-0.61905	0.33160	30.8	13111	100
2025-3-27 18:46:4.184	WT901BLE68-01(48591DE3C19B)	-0.570	-1.215	0.093	29.968	108.154	-276.855	-77.30	-4.98	-114.10	-57.134	-46.550	-9.016	-0.69855	0.13696	-0.61905	0.33160	30.8	13111	100
2025-3-27 18:46:4.184	WT901BLE68-01(48591DE3C19B)	-0.570	-1.151	0.096	35.156	91.919	-265.564	-76.86	-7.28	-115.64	-57.134	-46.550	-9.016	-0.69855	0.13696	-0.61905	0.33160	30.8	13111	100
2025-3-27 18:46:4.184	WT901BLE68-01(48591DE3C19B)	-0.617	-1.151	0.096	35.156	91.919	-265.564	-76.34	-9.50	-117.11	-57.134	-46.550	-9.016	-0.69855	0.13696	-0.61905	0.33160	30.8	13111	100
2025-3-27 18:46:4.184	WT901BLE68-01(48591DE3C19B)	-0.617	-1.089	0.061	36.133	62.439	-248.779	-75.79	-11.65	-118.45	-57.134	-46.550	-9.016	-0.69855	0.13696	-0.61905	0.33160	30.8	13111	100
2025-3-27 18:46:4.213	WT901BLE68-01(48591DE3C19B)	-0.606	-1.089	0.061	36.133	62.439	-248.779	-75.23	-13.73	-119.65	-57.134	-46.550	-9.016	-0.69855	0.13696	-0.61905	0.33160	30.8	13111	100
2025-3-27 18:46:4.213	WT901BLE68-01(48591DE3C19B)	-0.606	-1.038	0.035	32.043	32.898	-221.252	-74.69	-15.67	-120.68	-57.134	-46.550	-9.016	-0.69855	0.13696	-0.61905	0.33160	30.8	13111	100
2025-3-27 18:46:4.213	WT901BLE68-01(48591DE3C19B)	-0.582	-1.038	0.035	32.043	32.898	-221.252	-74.19	-17.50	-121.56	-57.134	-46.550	-9.016	-0.69855	0.13696	-0.61905	0.33160	30.8	13111	100
2025-3-27 18:46:4.214	WT901BLE68-01(48591DE3C19B)	-0.582	-0.973	0.041	22.888	16.907	-188.721	-73.73	-19.18	-122.34	-57.134	-46.550	-9.016	-0.69855	0.13696	-0.61905	0.33160	30.8	13111	100
2025-3-27 18:46:4.244	WT901BLE68-01(48591DE3C19B)	-0.540	-0.973	0.041	22.888	16.907	-188.721	-73.35	-20.69	-123.00	-57.134	-46.550	-9.016	-0.69855	0.13696	-0.61905	0.33160	30.8	13111	100
2025-3-27 18:46:4.244	WT901BLE68-01(48591DE3C19B)	-0.540	-0.936	0.118	11.963	15.808	-150.024	-73.02	-22.01	-123.62	-57.134	-46.550	-9.016	-0.69855	0.13696	-0.61905	0.33160	30.8	13111	100
2025-3-27 18:46:4.244	WT901BLE68-01(48591DE3C19B)	-0.481	-0.936	0.118	11.963	15.808	-150.024	-72.75	-23.14	-124.18	-57.134	-46.550	-9.016	-0.69855	0.13696	-0.61905	0.33160	30.8	13111	100
2025-3-27 18:46:4.244	WT901BLE68-01(48591DE3C19B)	-0.481	-0.970	0.233	0.793	19.165	-109.253	-72.55	-24.05	-124.72	-57.134	-46.550	-9.016	-0.69855	0.13696	-0.61905	0.33160	30.8	13111	100
2025-3-27 18:46:4.302	WT901BLE68-01(48591DE3C19B)	-0.416	-0.970	0.233	0.793	19.165	-109.253	-72.39	-24.75	-125.22	-57.134	-46.550	-9.016	-0.69855	0.13696	-0.61905	0.33160	30.8	13111	100
2025-3-27 18:46:4.302	WT901BLE68-01(48591DE3C19B)	-0.416	-1.044	0.340	-6.409	30.457	-69.763	-72.27	-25.25	-125.73	-57.134	-46.550	-9.016	-0.24246	0.41925	-0.43161	0.76096	30.8	13111	100
2025-3-27 18:46:4.302	WT901BLE68-01(48591DE3C19B)	-0.429	-1.044	0.340	-6.409	30.457	-69.763	-72.17	-25.53	-126.24	-57.134	-46.550	-9.016	-0.24246	0.41925	-0.43161	0.76096	30.8	13111	100
2025-3-27 18:46:4.302	WT901BLE68-01(48591DE3C19B)	-0.429	-1.139	0.435	-11.230	49.683	-33.081	-72.06	-25.61	-126.80	-57.134	-46.550	-9.016	-0.24246	0.41925	-0.43161	0.76096	30.8	13111	100
2025-3-27 18:46:4.391	WT901BLE68-01(48591DE3C19B)	-0.518	-1.139	0.435	-11.230	49.683	-33.081	-71.95	-25.49	-127.41	-57.134	-46.550	-9.016	-0.24246	0.41925	-0.43161	0.76096	30.8	13111	100
2025-3-27 18:46:4.391	WT901BLE68-01(48591DE3C19B)	-0.518	-1.260	0.470	-14.893	59.143	-1.892	-71.86	-25.20	-128.03	-57.134	-46.550	-9.016	-0.24246	0.41925	-0.43161	0.76096	30.8	13111	100
2025-3-27 18:46:4.391	WT901BLE68-01(48591DE3C19B)	-0.575	-1.260	0.470	-14.893	59.143	-1.892	-71.78	-24.76	-128.64	-57.134	-46.550	-9.016	-0.24246	0.41925	-0.43161	0.76096	30.8	13111	100
2025-3-27 18:46:4.391	WT901BLE68-01(48591DE3C19B)	-0.575	-1.321	0.425	-18.433	56.213	23.132	-71.75	-24.20	-129.20	-57.134	-46.550	-9.016	-0.24246	0.41925	-0.43161	0.76096	30.8	13111	100
2025-3-27 18:46:4.393	WT901BLE68-01(48591DE3C19B)	-0.672	-1.321	0.425	-18.433	56.213	23.132	-71.75	-23.54	-129.70	-57.134	-46.550	-9.016	-0.24246	0.41925	-0.43161	0.76096	30.8	13111	100
2025-3-27 18:46:4.393	WT901BLE68-01(48591DE3C19B)	-0.672	-1.331	0.368	-24.780	38.818	46.814	-71.85	-22.79	-130.07	-57.134	-46.550	-9.016	-0.24246	0.41925	-0.43161	0.76096	30.8	13111	100
2025-3-27 18:46:4.393	WT901BLE68-01(48591DE3C19B)	-0.822	-1.331	0.368	-24.780	38.818	46.814	-72.02	-21.96	-130.31	-57.134	-46.550	-9.016	-0.24246	0.41925	-0.43161	0.76096	30.8	13111	100
2025-3-27 18:46:4.393	WT901BLE68-01(48591DE3C19B)	-0.822	-1.383	0.303	-37.109	-2.991	69.885	-72.35	-21.08	-130.31	-57.134	-46.550	-9.016	-0.24246	0.41925	-0.43161	0.76096	30.8	13111	100
2025-3-27 18:46:4.423	WT901BLE68-01(48591DE3C19B)	-0.850	-1.383	0.303	-37.109	-2.991	69.885	-72.82	-20.17	-130.07	-57.134	-46.550	-9.016	-0.24246	0.41925	-0.43161	0.76096	30.8	13111	100
2025-3-27 18:46:4.423	WT901BLE68-01(48591DE3C19B)	-0.850	-1.526	0.291	-44.617	-67.078	96.619	-73.44	-19.21	-129.47	-57.134	-46.550	-9.016	-0.24246	0.41925	-0.43161	0.76096	30.8	13111	100
2025-3-27 18:46:4.424	WT901BLE68-01(48591DE3C19B)	-0.620	-1.526	0.291	-44.617	-67.078	96.619	-74.20	-18.21	-128.53	-57.134	-46.550	-9.016	-0.24246	0.41925	-0.43161	0.76096	30.8	13111	100
2025-3-27 18:46:4.424	WT901BLE68-01(48591DE3C19B)	-0.620	-1.498	0.293	-39.185	-116.211	127.563	-75.00	-17.12	-127.33	-57.134	-46.550	-9.016	-0.24246	0.41925	-0.43161	0.76096	30.8	13111	100
2025-3-27 18:46:4.453	WT901BLE68-01(48591DE3C19B)	-0.308	-1.498	0.293	-39.185	-116.211	127.563	-75.82	-15.94	-125.85	-57.134	-46.550	-9.016	-0.24246	0.41925	-0.43161	0.76096	30.8	13111	100
2025-3-27 18:46:4.454	WT901BLE68-01(48591DE3C19B)	-0.308	-1.358	0.261	-29.541	-129.578	162.354	-76.58	-14.58	-124.29	-57.134	-46.550	-9.016	-0.24246	0.41925	-0.43161	0.76096	30.8	13111	100
2025-3-27 18:46:4.454	WT901BLE68-01(48591DE3C19B)	-0.082	-1.358	0.261	-29.541	-129.578	162.354	-77.27	-13.08	-122.63	-57.134	-46.550	-9.016	-0.24246	0.41925	-0.43161	0.76096	30.8	13111	100
2025-3-27 18:46:4.454	WT901BLE68-01(48591DE3C19B)	-0.082	-1.197	0.242	-18.250	-108.765	195.801	-77.84	-11.38	-121.07	-57.134	-46.550	-9.016	-0.24246	0.41925	-0.43161	0.76096	30.8	13111	100
2025-3-27 18:46:4.483	WT901BLE68-01(48591DE3C19B)	0.024	-1.197	0.242	-18.250	-108.765	195.801	-78.29	-9.51	-119.60	-57.134	-46.550	-9.016	-0.24246	0.41925	-0.43161	0.76096	30.8	13111	100
2025-3-27 18:46:4.483	WT901BLE68-01(48591DE3C19B)	0.024	-1.069	0.215	-10.559	-62.683	215.759	-78.54	-7.36	-118.55	-57.134	-46.550	-9.016	-0.24246	0.41925	-0.43161	0.76096	30.8	13111	100
2025-3-27 18:46:4.484	WT901BLE68-01(48591DE3C19B)	-0.041	-1.069	0.215	-10.559	-62.683	215.759	-78.76	-5.22	-117.50	-40.964	-43.218	-5.194	-0.24246	0.41925	-0.43161	0.76096	30.8	13111	100
2025-3-27 18:46:4.484	WT901BLE68-01(48591DE3C19B)	-0.041	-1.078	0.213	-7.751	-2.991	224.426	-78.87	-2.91	-117.04	-40.964	-43.218	-5.194	-0.24246	0.41925	-0.43161	0.76096	30.8	13111	100
2025-3-27 18:46:4.542	WT901BLE68-01(48591DE3C19B)	-0.176	-1.078	0.213	-7.751	-2.991	224.426	-78.95	-0.62	-116.56	-40.964	-43.218	-5.194	-0.24246	0.41925	-0.43161	0.76096	30.8	13111	100
2025-3-27 18:46:4.543	WT901BLE68-01(48591DE3C19B)	-0.176	-1.188	0.168	-6.470	35.767	231.567	-79.01	1.80	-116.46	-40.964	-43.218	-5.194	-0.24246	0.41925	-0.43161	0.76096	30.8	13111	100
2025-3-27 18:46:4.543	WT901BLE68-01(48591DE3C19B)	-0.219	-1.188	0.168	-6.470	35.767	231.567	-79.07	4.20	-116.35	-40.964	-43.218	-5.194	-0.24246	0.41925	-0.43161	0.76096	30.8	13111	100
2025-3-27 18:46:4.543	WT901BLE68-01(48591DE3C19B)	-0.219	-1.188	0.106	-4.395	55.908	231.750	-79.13	6.63	-116.43	-40.964	-43.218	-5.194	-0.24246	0.41925	-0.43161	0.76096	30.8	13111	100
2025-3-27 18:46:4.571	WT901BLE68-01(48591DE3C19B)	-0.244	-1.188	0.106	-4.395	55.908	231.750	-79.19	9.04	-116.50	-40.964	-43.218	-5.194	-0.24246	0.41925	-0.43161	0.76096	30.8	13111	100
2025-3-27 18:46:4.571	WT901BLE68-01(48591DE3C19B)	-0.244	-1.126	0.039	-7.507	63.416	228.088	-79.31	11.41	-116.66	-40.964	-43.218	-5.194	-0.24246	0.41925	-0.43161	0.76096	30.8	13111	100
2025-3-27 18:46:4.571	WT901BLE68-01(48591DE3C19B)	-0.299	-1.126	0.039	-7.507	63.416	228.088	-79.44	13.77	-116.81	-40.964	-43.218	-5.194	-0.24246	0.41925	-0.43161	0.76096	30.8	13111	100
2025-3-27 18:46:4.571	WT901BLE68-01(48591DE3C19B)	-0.299	-1.069	-0.003	-13.489	52.979	219.604	-79.62	16.01	-116.86	-40.964	-43.218	-5.194	-0.24246	0.41925	-0.43161	0.76096	30.8	13111	100
2025-3-27 18:46:4.602	WT901BLE68-01(48591DE3C19B)	-0.371	-1.069	-0.003	-13.489	52.979	219.604	-79.81	18.24	-116.92	-40.964	-43.218	-5.194	-0.24246	0.41925	-0.43161	0.76096	30.8	13111	100
2025-3-27 18:46:4.603	WT901BLE68-01(48591DE3C19B)	-0.371	-1.109	0.010	-20.813	21.729	207.214	-79.98	20.28	-116.67	-40.964	-43.218	-5.194	-0.24246	0.41925	-0.43161	0.76096	30.8	13111	100
2025-3-27 18:46:4.603	WT901BLE68-01(48591DE3C19B)	-0.385	-1.109	0.010	-20.813	21.729	207.214	-80.15	22.31	-116.43	-40.964	-43.218	-5.194	-0.24246	0.41925	-0.43161	0.76096	30.8	13111	100
2025-3-27 18:46:4.603	WT901BLE68-01(48591DE3C19B)	-0.385	-1.202	0.042	-19.226	-15.381	193.665	-80.15	24.14	-115.81	-40.964	-43.218	-5.194	-0.24246	0.41925	-0.43161	0.76096	30.8	13111	100
2025-3-27 18:46:4.664	WT901BLE68-01(48591DE3C19B)	-0.331	-1.202	0.042	-19.226	-15.381	193.665	-80.13	25.95	-115.17	-40.964	-43.218	-5.194	-0.24246	0.41925	-0.43161	0.76096	30.8	13111	100
2025-3-27 18:46:4.664	WT901BLE68-01(48591DE3C19B)	-0.331	-1.175	0.040	-12.207	-38.818	182.617	-79.92	27.60	-114.29	-40.964	-43.218	-5.194	-0.24246	0.41925	-0.43161	0.76096	30.8	13111	100
2025-3-27 18:46:4.664	WT901BLE68-01(48591DE3C19B)	-0.274	-1.175	0.040	-12.207	-38.818	182.617	-79.68	29.25	-113.38	-40.964	-43.218	-5.194	-0.24246	0.41925	-0.43161	0.76096	30.8	13111	100
2025-3-27 18:46:4.664	WT901BLE68-01(48591DE3C19B)	-0.274	-1.042	0.019	-9.033	-50.842	173.767	-79.32	30.77	-112.33	-40.964	-43.218	-5.194	-0.24246	0.41925	-0.43161	0.76096	30.8	13111	100
2025-3-27 18:46:4.693	WT901BLE68-01(48591DE3C19B)	-0.241	-1.042	0.019	-9.033	-50.842	173.767	-78.93	32.27	-111.25	-40.964	-43.218	-5.194	-0.24246	0.41925	-0.43161	0.76096	30.8	13111	100
2025-3-27 18:46:4.694	WT901BLE68-01(48591DE3C19B)	-0.241	-0.966	0.011	-10.559	-56.519	165.405	-78.50	33.67	-110.10	-40.964	-43.218	-5.194	-0.24246	0.41925	-0.43161	0.76096	30.8	13111	100
2025-3-27 18:46:4.694	WT901BLE68-01(48591DE3C19B)	-0.247	-0.966	0.011	-10.559	-56.519	165.405	-78.02	35.05	-108.92	-40.964	-43.218	-5.194	-0.24246	0.41925	-0.43161	0.76096	30.8	13111	100
2025-3-27 18:46:4.694	WT901BLE68-01(48591DE3C19B)	-0.247	-0.968	0.025	-14.099	-64.941	161.072	-77.50	36.36	-107.62	-40.964	-43.218	-5.194	-0.59506	0.15472	-0.62360	0.48267	30.8	13111	100
2025-3-27 18:46:4.724	WT901BLE68-01(48591DE3C19B)	-0.243	-0.968	0.025	-14.099	-64.941	161.072	-76.94	37.64	-106.29	-40.964	-43.218	-5.194	-0.59506	0.15472	-0.62360	0.48267	30.8	13111	100
2025-3-27 18:46:4.724	WT901BLE68-01(48591DE3C19B)	-0.243	-0.954	0.045	-17.456	-75.317	160.645	-76.28	38.89	-104.80	-40.964	-43.218	-5.194	-0.59506	0.15472	-0.62360	0.48267	30.8	13111	100
2025-3-27 18:46:4.724	WT901BLE68-01(48591DE3C19B)	-0.210	-0.954	0.045	-17.456	-75.317	160.645	-75.59	40.11	-103.27	-40.964	-43.218	-5.194	-0.59506	0.15472	-0.62360	0.48267	30.8	13111	100
2025-3-27 18:46:4.724	WT901BLE68-01(48591DE3C19B)	-0.210	-0.951	0.081	-21.484	-86.304	161.743	-74.78	41.29	-101.55	-40.964	-43.218	-5.194	-0.59506	0.15472	-0.62360	0.48267	30.8	13111	100
2025-3-27 18:46:4.782	WT901BLE68-01(48591DE3C19B)	-0.179	-0.951	0.081	-21.484	-86.304	161.743	-73.93	42.44	-99.79	-40.964	-43.218	-5.194	-0.59506	0.15472	-0.62360	0.48267	30.8	13111	100
2025-3-27 18:46:4.782	WT901BLE68-01(48591DE3C19B)	-0.179	-0.976	0.119	-22.766	-94.177	162.659	-72.96	43.56	-97.89	-40.964	-43.218	-5.194	-0.59506	0.15472	-0.62360	0.48267	30.8	13111	100
2025-3-27 18:46:4.782	WT901BLE68-01(48591DE3C19B)	-0.146	-0.976	0.119	-22.766	-94.177	162.659	-71.92	44.64	-95.93	-40.964	-43.218	-5.194	-0.59506	0.15472	-0.62360	0.48267	30.8	13111	100
2025-3-27 18:46:4.782	WT901BLE68-01(48591DE3C19B)	-0.146	-0.999	0.129	-20.630	-97.595	161.133	-70.77	45.65	-93.88	-40.964	-43.218	-5.194	-0.59506	0.15472	-0.62360	0.48267	30.8	13111	100
2025-3-27 18:46:4.810	WT901BLE68-01(48591DE3C19B)	-0.101	-0.999	0.129	-20.630	-97.595	161.133	-69.56	46.64	-91.77	-40.964	-43.218	-5.194	-0.59506	0.15472	-0.62360	0.48267	30.8	13111	100
2025-3-27 18:46:4.811	WT901BLE68-01(48591DE3C19B)	-0.101	-1.010	0.129	-16.968	-93.140	154.907	-68.32	47.54	-89.71	-40.964	-43.218	-5.194	-0.59506	0.15472	-0.62360	0.48267	30.8	13111	100
2025-3-27 18:46:4.811	WT901BLE68-01(48591DE3C19B)	-0.074	-1.010	0.129	-16.968	-93.140	154.907	-67.01	48.41	-87.59	-40.964	-43.218	-5.194	-0.59506	0.15472	-0.62360	0.48267	30.8	13111	100
2025-3-27 18:46:4.811	WT901BLE68-01(48591DE3C19B)	-0.074	-1.007	0.140	-14.282	-82.214	140.259	-65.80	49.14	-85.67	-40.964	-43.218	-5.194	-0.59506	0.15472	-0.62360	0.48267	30.8	13111	100
2025-3-27 18:46:4.842	WT901BLE68-01(48591DE3C19B)	-0.074	-1.007	0.140	-14.282	-82.214	140.259	-64.55	49.84	-83.70	-40.964	-43.218	-5.194	-0.59506	0.15472	-0.62360	0.48267	30.8	13111	100
2025-3-27 18:46:4.842	WT901BLE68-01(48591DE3C19B)	-0.074	-1.022	0.156	-14.893	-67.261	118.042	-63.53	50.38	-82.06	-40.964	-43.218	-5.194	-0.59506	0.15472	-0.62360	0.48267	30.8	13111	100
2025-3-27 18:46:4.842	WT901BLE68-01(48591DE3C19B)	-0.084	-1.022	0.156	-14.893	-67.261	118.042	-62.50	50.89	-80.40	-40.964	-43.218	-5.194	-0.59506	0.15472	-0.62360	0.48267	30.8	13111	100
2025-3-27 18:46:4.842	WT901BLE68-01(48591DE3C19B)	-0.084	-1.039	0.186	-13.977	-49.316	90.210	-61.78	51.22	-79.18	-40.964	-43.218	-5.194	-0.59506	0.15472	-0.62360	0.48267	30.8	13111	100
2025-3-27 18:46:4.902	WT901BLE68-01(48591DE3C19B)	-0.105	-1.039	0.186	-13.977	-49.316	90.210	-61.05	51.54	-77.95	-40.964	-43.218	-5.194	-0.59506	0.15472	-0.62360	0.48267	30.8	13111	100
2025-3-27 18:46:4.902	WT901BLE68-01(48591DE3C19B)	-0.105	-1.022	0.220	-13.245	-33.325	56.091	-60.69	51.63	-77.21	-40.964	-43.218	-5.194	-0.59506	0.15472	-0.62360	0.48267	30.8	13111	100
2025-3-27 18:46:4.902	WT901BLE68-01(48591DE3C19B)	-0.133	-1.022	0.220	-13.245	-33.325	56.091	-60.33	51.71	-76.46	-40.964	-43.218	-5.194	-0.59506	0.15472	-0.62360	0.48267	30.8	13111	100
