time	DeviceName	AccX(g)	AccY(g)	AccZ(g)	AsX(°/s)	AsY(°/s)	AsZ(°/s)	AngleX(°)	AngleY(°)	AngleZ(°)	HX(uT)	HY(uT)	HZ(uT)	Q0()	Q1()	Q2()	Q3()	Temperature(°C)	Version()	Battery level(%)
2025-3-27 18:41:36.995	WT901BLE68-01(48591DE3C19B)	-0.261	-0.932	0.325	-4.395	-10.925	-8.057	-71.48	13.65	-21.51	-28.910	-30.380	93.590	-0.80609	0.54639	-0.21216	0.08090	31.0	13111	100
2025-3-27 18:41:36.995	WT901BLE68-01(48591DE3C19B)	-0.265	-0.932	0.325	-4.395	-10.925	-8.057	-71.52	13.54	-21.39	-28.910	-30.380	93.590	-0.80609	0.54639	-0.21216	0.08090	31.0	13111	100
2025-3-27 18:41:36.995	WT901BLE68-01(48591DE3C19B)	-0.265	-0.959	0.334	-4.089	-15.381	-6.897	-71.53	13.42	-21.23	-28.910	-30.380	93.590	-0.80609	0.54639	-0.21216	0.08090	31.0	13111	100
2025-3-27 18:41:36.995	WT901BLE68-01(48591DE3C19B)	-0.250	-0.959	0.334	-4.089	-15.381	-6.897	-71.54	13.30	-21.06	-28.910	-30.380	93.590	-0.80609	0.54639	-0.21216	0.08090	31.0	13111	100
2025-3-27 18:41:37.27	WT901BLE68-01(48591DE3C19B)	-0.250	-0.960	0.333	-2.563	-16.113	-5.371	-71.54	13.21	-20.88	-35.770	-29.596	97.412	-0.80609	0.54639	-0.21216	0.08090	31.0	13111	100
2025-3-27 18:41:37.28	WT901BLE68-01(48591DE3C19B)	-0.223	-0.960	0.333	-2.563	-16.113	-5.371	-71.54	13.10	-20.70	-35.770	-29.596	97.412	-0.80609	0.54639	-0.21216	0.08090	31.0	13111	100
2025-3-27 18:41:37.28	WT901BLE68-01(48591DE3C19B)	-0.223	-0.935	0.320	-1.587	-11.902	-4.456	-71.53	13.02	-20.56	-35.770	-29.596	97.412	-0.80609	0.54639	-0.21216	0.08090	31.0	13111	100
2025-3-27 18:41:37.28	WT901BLE68-01(48591DE3C19B)	-0.200	-0.935	0.320	-1.587	-11.902	-4.456	-71.53	12.95	-20.42	-35.770	-29.596	97.412	-0.80609	0.54639	-0.21216	0.08090	31.0	13111	100
2025-3-27 18:41:37.57	WT901BLE68-01(48591DE3C19B)	-0.200	-0.926	0.312	-2.319	-5.737	-4.822	-71.54	12.88	-20.35	-35.770	-29.596	97.412	-0.80609	0.54639	-0.21216	0.08090	31.0	13111	100
2025-3-27 18:41:37.57	WT901BLE68-01(48591DE3C19B)	-0.207	-0.926	0.312	-2.319	-5.737	-4.822	-71.56	12.82	-20.27	-35.770	-29.596	97.412	-0.80609	0.54639	-0.21216	0.08090	31.0	13111	100
2025-3-27 18:41:37.57	WT901BLE68-01(48591DE3C19B)	-0.207	-0.935	0.317	-2.869	-1.160	-5.432	-71.59	12.77	-20.24	-35.770	-29.596	97.412	-0.80609	0.54639	-0.21216	0.08090	31.0	13111	100
2025-3-27 18:41:37.57	WT901BLE68-01(48591DE3C19B)	-0.232	-0.935	0.317	-2.869	-1.160	-5.432	-71.62	12.71	-20.21	-35.770	-29.596	97.412	-0.80609	0.54639	-0.21216	0.08090	31.0	13111	100
2025-3-27 18:41:37.115	WT901BLE68-01(48591DE3C19B)	-0.232	-0.935	0.322	-3.113	-0.854	-6.836	-71.65	12.65	-20.19	-35.770	-29.596	97.412	-0.80609	0.54639	-0.21216	0.08090	31.0	13111	100
2025-3-27 18:41:37.115	WT901BLE68-01(48591DE3C19B)	-0.236	-0.935	0.322	-3.113	-0.854	-6.836	-71.69	12.58	-20.17	-35.770	-29.596	97.412	-0.80609	0.54639	-0.21216	0.08090	31.0	13111	100
2025-3-27 18:41:37.116	WT901BLE68-01(48591DE3C19B)	-0.236	-0.923	0.318	-3.052	-3.235	-9.094	-71.72	12.48	-20.13	-35.770	-29.596	97.412	-0.80609	0.54639	-0.21216	0.08090	31.0	13111	100
2025-3-27 18:41:37.116	WT901BLE68-01(48591DE3C19B)	-0.238	-0.923	0.318	-3.052	-3.235	-9.094	-71.75	12.39	-20.09	-35.770	-29.596	97.412	-0.80609	0.54639	-0.21216	0.08090	31.0	13111	100
2025-3-27 18:41:37.144	WT901BLE68-01(48591DE3C19B)	-0.238	-0.919	0.306	-3.601	-7.385	-11.536	-71.77	12.26	-20.02	-35.770	-29.596	97.412	-0.80609	0.54639	-0.21216	0.08090	31.0	13111	100
2025-3-27 18:41:37.145	WT901BLE68-01(48591DE3C19B)	-0.238	-0.919	0.306	-3.601	-7.385	-11.536	-71.80	12.13	-19.95	-35.770	-29.596	97.412	-0.80609	0.54639	-0.21216	0.08090	31.0	13111	100
2025-3-27 18:41:37.145	WT901BLE68-01(48591DE3C19B)	-0.238	-0.930	0.290	-3.784	-14.526	-13.733	-71.81	11.96	-19.81	-35.770	-29.596	97.412	-0.80609	0.54639	-0.21216	0.08090	31.0	13111	100
2025-3-27 18:41:37.145	WT901BLE68-01(48591DE3C19B)	-0.215	-0.930	0.290	-3.784	-14.526	-13.733	-71.83	11.80	-19.68	-35.770	-29.596	97.412	-0.80609	0.54639	-0.21216	0.08090	31.0	13111	100
2025-3-27 18:41:37.177	WT901BLE68-01(48591DE3C19B)	-0.215	-0.934	0.279	-4.578	-21.667	-15.381	-71.85	11.60	-19.48	-35.770	-29.596	97.412	-0.80609	0.54639	-0.21216	0.08090	31.0	13111	100
2025-3-27 18:41:37.177	WT901BLE68-01(48591DE3C19B)	-0.203	-0.934	0.279	-4.578	-21.667	-15.381	-71.86	11.39	-19.28	-35.770	-29.596	97.412	-0.80609	0.54639	-0.21216	0.08090	31.0	13111	100
2025-3-27 18:41:37.177	WT901BLE68-01(48591DE3C19B)	-0.203	-0.956	0.272	-6.165	-25.330	-15.869	-71.88	11.17	-19.06	-35.770	-29.596	97.412	-0.80609	0.54639	-0.21216	0.08090	31.0	13111	100
2025-3-27 18:41:37.177	WT901BLE68-01(48591DE3C19B)	-0.178	-0.956	0.272	-6.165	-25.330	-15.869	-71.91	10.95	-18.83	-35.770	-29.596	97.412	-0.80609	0.54639	-0.21216	0.08090	31.0	13111	100
2025-3-27 18:41:37.236	WT901BLE68-01(48591DE3C19B)	-0.178	-1.005	0.246	-8.972	-28.137	-15.747	-71.97	10.73	-18.57	-35.770	-29.596	97.412	-0.80609	0.54639	-0.21216	0.08090	31.0	13111	100
2025-3-27 18:41:37.237	WT901BLE68-01(48591DE3C19B)	-0.129	-1.005	0.246	-8.972	-28.137	-15.747	-72.02	10.50	-18.32	-35.770	-29.596	97.412	-0.80374	0.56619	-0.16629	0.07513	31.0	13111	100
2025-3-27 18:41:37.237	WT901BLE68-01(48591DE3C19B)	-0.129	-1.061	0.186	-13.245	-27.649	-15.503	-72.13	10.28	-18.08	-35.770	-29.596	97.412	-0.80374	0.56619	-0.16629	0.07513	31.0	13111	100
2025-3-27 18:41:37.237	WT901BLE68-01(48591DE3C19B)	-0.039	-1.061	0.186	-13.245	-27.649	-15.503	-72.23	10.05	-17.84	-35.770	-29.596	97.412	-0.80374	0.56619	-0.16629	0.07513	31.0	13111	100
2025-3-27 18:41:37.264	WT901BLE68-01(48591DE3C19B)	0.075	-1.117	0.125	-20.081	-22.095	-15.564	-72.42	9.84	-17.65	-35.770	-29.596	97.412	-0.80374	0.56619	-0.16629	0.07513	31.0	13111	100
2025-3-27 18:41:37.265	WT901BLE68-01(48591DE3C19B)	0.075	-1.124	0.104	-26.733	-11.475	-15.381	-72.66	9.64	-17.52	-35.770	-29.596	97.412	-0.80374	0.56619	-0.16629	0.07513	31.0	13111	100
2025-3-27 18:41:37.265	WT901BLE68-01(48591DE3C19B)	0.182	-1.124	0.104	-26.733	-11.475	-15.381	-72.94	9.45	-17.44	-35.770	-29.596	97.412	-0.80374	0.56619	-0.16629	0.07513	31.0	13111	100
2025-3-27 18:41:37.265	WT901BLE68-01(48591DE3C19B)	0.182	-1.034	0.150	-28.687	1.587	-14.709	-73.24	9.27	-17.44	-35.770	-29.596	97.412	-0.80374	0.56619	-0.16629	0.07513	31.0	13111	100
2025-3-27 18:41:37.298	WT901BLE68-01(48591DE3C19B)	0.218	-1.034	0.150	-28.687	1.587	-14.709	-73.56	9.11	-17.49	-35.770	-29.596	97.412	-0.80374	0.56619	-0.16629	0.07513	31.0	13111	100
2025-3-27 18:41:37.298	WT901BLE68-01(48591DE3C19B)	0.218	-0.918	0.231	-32.349	10.437	-14.893	-73.92	8.95	-17.59	-35.770	-29.596	97.412	-0.80374	0.56619	-0.16629	0.07513	31.0	13111	100
2025-3-27 18:41:37.298	WT901BLE68-01(48591DE3C19B)	0.258	-0.918	0.231	-32.349	10.437	-14.893	-74.28	8.80	-17.74	-35.770	-29.596	97.412	-0.80374	0.56619	-0.16629	0.07513	31.0	13111	100
2025-3-27 18:41:37.298	WT901BLE68-01(48591DE3C19B)	0.258	-0.880	0.269	-31.738	10.437	-23.926	-74.65	8.59	-17.91	-35.770	-29.596	97.412	-0.80374	0.56619	-0.16629	0.07513	31.0	13111	100
2025-3-27 18:41:37.355	WT901BLE68-01(48591DE3C19B)	0.285	-0.880	0.269	-31.738	10.437	-23.926	-75.01	8.33	-18.08	-35.770	-29.596	97.412	-0.80374	0.56619	-0.16629	0.07513	31.0	13111	100
2025-3-27 18:41:37.355	WT901BLE68-01(48591DE3C19B)	0.285	-0.871	0.282	-24.780	21.484	-32.104	-75.33	8.04	-18.33	-35.770	-29.596	97.412	-0.80374	0.56619	-0.16629	0.07513	31.0	13111	100
2025-3-27 18:41:37.355	WT901BLE68-01(48591DE3C19B)	0.250	-0.871	0.282	-24.780	21.484	-32.104	-75.63	7.71	-18.64	-35.770	-29.596	97.412	-0.80374	0.56619	-0.16629	0.07513	31.0	13111	100
2025-3-27 18:41:37.355	WT901BLE68-01(48591DE3C19B)	0.250	-0.896	0.251	-21.179	42.664	-46.631	-75.92	7.34	-19.07	-35.770	-29.596	97.412	-0.80374	0.56619	-0.16629	0.07513	31.0	13111	100
2025-3-27 18:41:37.389	WT901BLE68-01(48591DE3C19B)	0.154	-0.896	0.251	-21.179	42.664	-46.631	-76.20	6.91	-19.62	-35.770	-29.596	97.412	-0.80374	0.56619	-0.16629	0.07513	31.0	13111	100
2025-3-27 18:41:37.390	WT901BLE68-01(48591DE3C19B)	0.154	-0.977	0.234	-17.700	60.120	-63.049	-76.46	6.42	-20.28	-35.770	-29.596	97.412	-0.80374	0.56619	-0.16629	0.07513	31.0	13111	100
2025-3-27 18:41:37.390	WT901BLE68-01(48591DE3C19B)	0.036	-0.977	0.234	-17.700	60.120	-63.049	-76.72	5.87	-21.03	-35.770	-29.596	97.412	-0.80374	0.56619	-0.16629	0.07513	31.0	13111	100
2025-3-27 18:41:37.390	WT901BLE68-01(48591DE3C19B)	0.036	-1.105	0.240	-11.353	61.707	-79.529	-76.94	5.24	-21.80	-35.770	-29.596	97.412	-0.80374	0.56619	-0.16629	0.07513	31.0	13111	100
2025-3-27 18:41:37.417	WT901BLE68-01(48591DE3C19B)	-0.038	-1.105	0.240	-11.353	61.707	-79.529	-77.11	4.54	-22.60	-35.770	-29.596	97.412	-0.80374	0.56619	-0.16629	0.07513	31.0	13111	100
2025-3-27 18:41:37.417	WT901BLE68-01(48591DE3C19B)	-0.038	-1.238	0.260	-1.587	53.040	-91.064	-77.23	3.77	-23.37	-35.770	-29.596	97.412	-0.80374	0.56619	-0.16629	0.07513	31.0	13111	100
2025-3-27 18:41:37.417	WT901BLE68-01(48591DE3C19B)	-0.115	-1.238	0.260	-1.587	53.040	-91.064	-77.28	2.96	-24.11	-33.124	-30.086	98.196	-0.80374	0.56619	-0.16629	0.07513	31.0	13111	100
2025-3-27 18:41:37.417	WT901BLE68-01(48591DE3C19B)	-0.115	-1.242	0.295	9.277	36.926	-95.520	-77.27	2.10	-24.77	-33.124	-30.086	98.196	-0.80374	0.56619	-0.16629	0.07513	31.0	13111	100
2025-3-27 18:41:37.476	WT901BLE68-01(48591DE3C19B)	-0.135	-1.242	0.295	9.277	36.926	-95.520	-77.20	1.23	-25.36	-33.124	-30.086	98.196	-0.80374	0.56619	-0.16629	0.07513	31.0	13111	100
2025-3-27 18:41:37.476	WT901BLE68-01(48591DE3C19B)	-0.135	-1.131	0.310	14.526	21.667	-98.999	-77.08	0.33	-25.87	-33.124	-30.086	98.196	-0.80374	0.56619	-0.16629	0.07513	31.0	13111	100
2025-3-27 18:41:37.476	WT901BLE68-01(48591DE3C19B)	-0.096	-1.131	0.310	14.526	21.667	-98.999	-76.93	-0.58	-26.32	-33.124	-30.086	98.196	-0.80374	0.56619	-0.16629	0.07513	31.0	13111	100
2025-3-27 18:41:37.476	WT901BLE68-01(48591DE3C19B)	-0.096	-1.009	0.303	14.099	15.137	-100.525	-76.78	-1.51	-26.75	-33.124	-30.086	98.196	-0.80374	0.56619	-0.16629	0.07513	31.0	13111	100
2025-3-27 18:41:37.505	WT901BLE68-01(48591DE3C19B)	-0.088	-1.009	0.303	14.099	15.137	-100.525	-76.62	-2.44	-27.14	-33.124	-30.086	98.196	-0.80374	0.56619	-0.16629	0.07513	31.0	13111	100
2025-3-27 18:41:37.505	WT901BLE68-01(48591DE3C19B)	-0.088	-0.905	0.309	11.475	13.794	-100.098	-76.47	-3.36	-27.54	-33.124	-30.086	98.196	-0.80374	0.56619	-0.16629	0.07513	31.0	13111	100
2025-3-27 18:41:37.505	WT901BLE68-01(48591DE3C19B)	-0.086	-0.905	0.309	11.475	13.794	-100.098	-76.32	-4.27	-27.92	-33.124	-30.086	98.196	-0.80374	0.56619	-0.16629	0.07513	31.0	13111	100
2025-3-27 18:41:37.505	WT901BLE68-01(48591DE3C19B)	-0.086	-0.839	0.342	5.798	17.151	-98.633	-76.20	-5.16	-28.33	-33.124	-30.086	98.196	-0.80374	0.56619	-0.16629	0.07513	31.0	13111	100
2025-3-27 18:41:37.565	WT901BLE68-01(48591DE3C19B)	-0.155	-0.839	0.342	5.798	17.151	-98.633	-76.09	-6.03	-28.75	-33.124	-30.086	98.196	-0.80374	0.56619	-0.16629	0.07513	31.0	13111	100
2025-3-27 18:41:37.565	WT901BLE68-01(48591DE3C19B)	-0.155	-0.831	0.387	1.953	23.193	-95.520	-75.98	-6.87	-29.20	-33.124	-30.086	98.196	-0.80374	0.56619	-0.16629	0.07513	31.0	13111	100
2025-3-27 18:41:37.565	WT901BLE68-01(48591DE3C19B)	-0.248	-0.831	0.387	1.953	23.193	-95.520	-75.88	-7.68	-29.68	-33.124	-30.086	98.196	-0.80374	0.56619	-0.16629	0.07513	31.0	13111	100
2025-3-27 18:41:37.565	WT901BLE68-01(48591DE3C19B)	-0.248	-0.848	0.405	0.122	28.931	-90.942	-75.78	-8.45	-30.18	-33.124	-30.086	98.196	-0.80374	0.56619	-0.16629	0.07513	31.0	13111	100
2025-3-27 18:41:37.597	WT901BLE68-01(48591DE3C19B)	-0.312	-0.848	0.405	0.122	28.931	-90.942	-75.67	-9.17	-30.72	-33.124	-30.086	98.196	-0.80374	0.56619	-0.16629	0.07513	31.0	13111	100
2025-3-27 18:41:37.597	WT901BLE68-01(48591DE3C19B)	-0.312	-0.905	0.396	0.610	37.415	-84.656	-75.55	-9.85	-31.28	-33.124	-30.086	98.196	-0.80374	0.56619	-0.16629	0.07513	31.0	13111	100
2025-3-27 18:41:37.597	WT901BLE68-01(48591DE3C19B)	-0.318	-0.905	0.396	0.610	37.415	-84.656	-75.40	-10.48	-31.89	-33.124	-30.086	98.196	-0.80374	0.56619	-0.16629	0.07513	31.0	13111	100
2025-3-27 18:41:37.597	WT901BLE68-01(48591DE3C19B)	-0.318	-0.986	0.372	3.723	57.922	-78.003	-75.22	-11.03	-32.60	-33.124	-30.086	98.196	-0.80374	0.56619	-0.16629	0.07513	31.0	13111	100
2025-3-27 18:41:37.692	WT901BLE68-01(48591DE3C19B)	-0.391	-0.986	0.372	3.723	57.922	-78.003	-75.00	-11.51	-33.39	-33.124	-30.086	98.196	-0.80374	0.56619	-0.16629	0.07513	31.0	13111	100
2025-3-27 18:41:37.692	WT901BLE68-01(48591DE3C19B)	-0.391	-1.069	0.368	10.559	81.726	-68.726	-74.71	-11.91	-34.30	-33.124	-30.086	98.196	-0.80374	0.56619	-0.16629	0.07513	31.0	13111	100
2025-3-27 18:41:37.692	WT901BLE68-01(48591DE3C19B)	-0.557	-1.069	0.368	10.559	81.726	-68.726	-74.37	-12.22	-35.32	-33.124	-30.086	98.196	-0.73447	0.59702	-0.10266	0.30576	31.0	13111	100
2025-3-27 18:41:37.692	WT901BLE68-01(48591DE3C19B)	-0.557	-1.131	0.366	13.245	83.984	-56.396	-74.01	-12.45	-36.33	-33.124	-30.086	98.196	-0.73447	0.59702	-0.10266	0.30576	31.0	13111	100
2025-3-27 18:41:37.693	WT901BLE68-01(48591DE3C19B)	-0.589	-1.131	0.366	13.245	83.984	-56.396	-73.64	-12.61	-37.34	-33.124	-30.086	98.196	-0.73447	0.59702	-0.10266	0.30576	31.0	13111	100
2025-3-27 18:41:37.693	WT901BLE68-01(48591DE3C19B)	-0.589	-1.183	0.337	11.719	73.730	-41.443	-73.29	-12.69	-38.28	-33.124	-30.086	98.196	-0.73447	0.59702	-0.10266	0.30576	31.0	13111	100
2025-3-27 18:41:37.693	WT901BLE68-01(48591DE3C19B)	-0.516	-1.183	0.337	11.719	73.730	-41.443	-72.97	-12.70	-39.15	-33.124	-30.086	98.196	-0.73447	0.59702	-0.10266	0.30576	31.0	13111	100
2025-3-27 18:41:37.693	WT901BLE68-01(48591DE3C19B)	-0.516	-1.180	0.305	9.766	76.050	-17.273	-72.67	-12.58	-40.00	-33.124	-30.086	98.196	-0.73447	0.59702	-0.10266	0.30576	31.0	13111	100
2025-3-27 18:41:37.717	WT901BLE68-01(48591DE3C19B)	-0.493	-1.180	0.305	9.766	76.050	-17.273	-72.39	-12.34	-40.81	-33.124	-30.086	98.196	-0.73447	0.59702	-0.10266	0.30576	31.0	13111	100
2025-3-27 18:41:37.717	WT901BLE68-01(48591DE3C19B)	-0.493	-1.086	0.239	0.977	81.177	10.254	-72.17	-11.95	-41.61	-33.124	-30.086	98.196	-0.73447	0.59702	-0.10266	0.30576	31.0	13111	100
2025-3-27 18:41:37.718	WT901BLE68-01(48591DE3C19B)	-0.563	-1.086	0.239	0.977	81.177	10.254	-72.00	-11.43	-42.38	-33.124	-30.086	98.196	-0.73447	0.59702	-0.10266	0.30576	31.0	13111	100
2025-3-27 18:41:37.718	WT901BLE68-01(48591DE3C19B)	-0.563	-1.026	0.205	-10.254	74.890	35.767	-71.99	-10.67	-43.01	-33.124	-30.086	98.196	-0.73447	0.59702	-0.10266	0.30576	31.0	13111	100
2025-3-27 18:41:37.747	WT901BLE68-01(48591DE3C19B)	-0.613	-1.026	0.205	-10.254	74.890	35.767	-71.99	-9.92	-43.64	-33.124	-30.086	98.196	-0.73447	0.59702	-0.10266	0.30576	31.0	13111	100
2025-3-27 18:41:37.747	WT901BLE68-01(48591DE3C19B)	-0.613	-1.034	0.209	-22.522	56.885	55.908	-72.16	-9.03	-44.03	-33.124	-30.086	98.196	-0.73447	0.59702	-0.10266	0.30576	31.0	13111	100
2025-3-27 18:41:37.747	WT901BLE68-01(48591DE3C19B)	-0.681	-1.034	0.209	-22.522	56.885	55.908	-72.34	-8.14	-44.42	-33.124	-30.086	98.196	-0.73447	0.59702	-0.10266	0.30576	31.0	13111	100
2025-3-27 18:41:37.747	WT901BLE68-01(48591DE3C19B)	-0.681	-1.132	0.248	-32.043	30.579	69.092	-72.66	-7.20	-44.52	-33.124	-30.086	98.196	-0.73447	0.59702	-0.10266	0.30576	31.0	13111	100
2025-3-27 18:41:37.805	WT901BLE68-01(48591DE3C19B)	-1.528	-1.132	0.248	-32.043	30.579	69.092	-72.98	-6.27	-44.62	-33.124	-30.086	98.196	-0.73447	0.59702	-0.10266	0.30576	31.0	13111	100
2025-3-27 18:41:37.805	WT901BLE68-01(48591DE3C19B)	-6.114	-2.597	0.594	-36.682	-6.042	77.209	-73.38	-5.37	-44.35	-33.124	-30.086	98.196	-0.73447	0.59702	-0.10266	0.30576	31.0	13111	100
2025-3-27 18:41:37.805	WT901BLE68-01(48591DE3C19B)	-0.785	-10.390	2.377	-36.682	-6.042	77.209	-73.78	-4.46	-44.09	-33.124	-30.086	98.196	-0.73447	0.59702	-0.10266	0.30576	31.0	13111	100
2025-3-27 18:41:37.805	WT901BLE68-01(48591DE3C19B)	-0.785	-1.458	0.290	-34.546	-46.814	80.750	-74.19	-3.63	-43.43	-33.124	-30.086	98.196	-0.73447	0.59702	-0.10266	0.30576	31.0	13111	100
2025-3-27 18:41:37.834	WT901BLE68-01(48591DE3C19B)	-0.691	-1.458	0.290	-34.546	-46.814	80.750	-74.58	-2.80	-42.78	-53.802	-23.128	102.508	-0.73447	0.59702	-0.10266	0.30576	31.0	13111	100
2025-3-27 18:41:37.834	WT901BLE68-01(48591DE3C19B)	-0.691	-1.435	0.232	-26.611	-79.956	84.229	-74.89	-2.02	-41.80	-53.802	-23.128	102.508	-0.73447	0.59702	-0.10266	0.30576	31.0	13111	100
2025-3-27 18:41:37.834	WT901BLE68-01(48591DE3C19B)	-0.614	-1.435	0.232	-26.611	-79.956	84.229	-75.20	-1.24	-40.82	-53.802	-23.128	102.508	-0.73447	0.59702	-0.10266	0.30576	31.0	13111	100
2025-3-27 18:41:37.834	WT901BLE68-01(48591DE3C19B)	-0.614	-1.260	0.165	-23.254	-102.295	92.346	-75.45	-0.44	-39.61	-53.802	-23.128	102.508	-0.73447	0.59702	-0.10266	0.30576	31.0	13111	100
2025-3-27 18:41:37.865	WT901BLE68-01(48591DE3C19B)	-0.548	-1.260	0.165	-23.254	-102.295	92.346	-75.70	0.35	-38.40	-53.802	-23.128	102.508	-0.73447	0.59702	-0.10266	0.30576	31.0	13111	100
2025-3-27 18:41:37.865	WT901BLE68-01(48591DE3C19B)	-0.548	-1.081	0.107	-25.940	-123.169	109.436	-75.95	1.27	-36.95	-53.802	-23.128	102.508	-0.73447	0.59702	-0.10266	0.30576	31.0	13111	100
2025-3-27 18:41:37.865	WT901BLE68-01(48591DE3C19B)	-0.461	-1.081	0.107	-25.940	-123.169	109.436	-76.18	2.18	-35.50	-53.802	-23.128	102.508	-0.73447	0.59702	-0.10266	0.30576	31.0	13111	100
2025-3-27 18:41:37.865	WT901BLE68-01(48591DE3C19B)	-0.461	-1.027	0.051	-29.236	-143.433	129.395	-76.40	3.24	-33.81	-53.802	-23.128	102.508	-0.73447	0.59702	-0.10266	0.30576	31.0	13111	100
2025-3-27 18:41:37.925	WT901BLE68-01(48591DE3C19B)	-0.327	-1.027	0.051	-29.236	-143.433	129.395	-76.60	4.30	-32.12	-53.802	-23.128	102.508	-0.73447	0.59702	-0.10266	0.30576	31.0	13111	100
2025-3-27 18:41:37.925	WT901BLE68-01(48591DE3C19B)	-0.327	-1.132	-0.032	-29.602	-155.396	148.193	-76.76	5.51	-30.26	-53.802	-23.128	102.508	-0.73447	0.59702	-0.10266	0.30576	31.0	13111	100
2025-3-27 18:41:37.925	WT901BLE68-01(48591DE3C19B)	-0.209	-1.132	-0.032	-29.602	-155.396	148.193	-76.89	6.71	-28.41	-53.802	-23.128	102.508	-0.73447	0.59702	-0.10266	0.30576	31.0	13111	100
2025-3-27 18:41:37.925	WT901BLE68-01(48591DE3C19B)	-0.209	-1.221	-0.073	-20.508	-153.992	165.405	-76.88	8.07	-26.52	-53.802	-23.128	102.508	-0.73447	0.59702	-0.10266	0.30576	31.0	13111	100
2025-3-27 18:41:37.955	WT901BLE68-01(48591DE3C19B)	-0.166	-1.221	-0.073	-20.508	-153.992	165.405	-76.83	9.42	-24.63	-53.802	-23.128	102.508	-0.73447	0.59702	-0.10266	0.30576	31.0	13111	100
2025-3-27 18:41:37.955	WT901BLE68-01(48591DE3C19B)	-0.166	-1.243	-0.046	-10.986	-144.470	178.406	-76.66	10.89	-22.79	-53.802	-23.128	102.508	-0.73447	0.59702	-0.10266	0.30576	31.0	13111	100
2025-3-27 18:41:37.955	WT901BLE68-01(48591DE3C19B)	-0.167	-1.243	-0.046	-10.986	-144.470	178.406	-76.45	12.34	-20.94	-53.802	-23.128	102.508	-0.73447	0.59702	-0.10266	0.30576	31.0	13111	100
2025-3-27 18:41:37.955	WT901BLE68-01(48591DE3C19B)	-0.167	-1.335	0.016	-4.150	-130.249	184.204	-76.15	13.86	-19.20	-53.802	-23.128	102.508	-0.73447	0.59702	-0.10266	0.30576	31.0	13111	100
2025-3-27 18:41:37.992	WT901BLE68-01(48591DE3C19B)	-0.153	-1.335	0.016	-4.150	-130.249	184.204	-75.80	15.35	-17.45	-53.802	-23.128	102.508	-0.73447	0.59702	-0.10266	0.30576	31.0	13111	100
2025-3-27 18:41:37.992	WT901BLE68-01(48591DE3C19B)	-0.153	-1.392	0.053	9.949	-105.713	187.805	-75.33	16.91	-15.91	-53.802	-23.128	102.508	-0.73447	0.59702	-0.10266	0.30576	31.0	13111	100
2025-3-27 18:41:37.992	WT901BLE68-01(48591DE3C19B)	-0.134	-1.392	0.053	9.949	-105.713	187.805	-74.82	18.44	-14.35	-53.802	-23.128	102.508	-0.73447	0.59702	-0.10266	0.30576	31.0	13111	100
2025-3-27 18:41:37.992	WT901BLE68-01(48591DE3C19B)	-0.134	-1.284	0.049	23.438	-71.533	190.186	-74.25	20.06	-13.11	-53.802	-23.128	102.508	-0.73447	0.59702	-0.10266	0.30576	31.0	13111	100
2025-3-27 18:41:38.46	WT901BLE68-01(48591DE3C19B)	-0.125	-1.284	0.049	23.438	-71.533	190.186	-73.62	21.65	-11.84	-53.802	-23.128	102.508	-0.73447	0.59702	-0.10266	0.30576	31.0	13111	100
2025-3-27 18:41:38.46	WT901BLE68-01(48591DE3C19B)	-0.125	-1.103	0.023	27.893	-34.241	191.528	-73.07	23.33	-10.92	-53.802	-23.128	102.508	-0.79517	0.56235	-0.22067	-0.05197	31.0	13111	100
2025-3-27 18:41:38.46	WT901BLE68-01(48591DE3C19B)	-0.146	-1.103	0.023	27.893	-34.241	191.528	-72.48	24.99	-9.98	-53.802	-23.128	102.508	-0.79517	0.56235	-0.22067	-0.05197	31.0	13111	100
2025-3-27 18:41:38.46	WT901BLE68-01(48591DE3C19B)	-0.146	-1.038	-0.020	21.362	-5.676	192.688	-72.05	26.74	-9.31	-53.802	-23.128	102.508	-0.79517	0.56235	-0.22067	-0.05197	31.0	13111	100
2025-3-27 18:41:38.74	WT901BLE68-01(48591DE3C19B)	-0.152	-1.038	-0.020	21.362	-5.676	192.688	-71.60	28.46	-8.62	-53.802	-23.128	102.508	-0.79517	0.56235	-0.22067	-0.05197	31.0	13111	100
2025-3-27 18:41:38.75	WT901BLE68-01(48591DE3C19B)	-0.152	-1.049	-0.056	15.076	0.732	194.214	-71.22	30.20	-7.98	-53.802	-23.128	102.508	-0.79517	0.56235	-0.22067	-0.05197	31.0	13111	100
2025-3-27 18:41:38.75	WT901BLE68-01(48591DE3C19B)	-0.080	-1.049	-0.056	15.076	0.732	194.214	-70.82	31.93	-7.31	-53.802	-23.128	102.508	-0.79517	0.56235	-0.22067	-0.05197	31.0	13111	100
2025-3-27 18:41:38.75	WT901BLE68-01(48591DE3C19B)	-0.080	-1.019	-0.074	9.460	-6.653	193.115	-70.40	33.61	-6.55	-53.802	-23.128	102.508	-0.79517	0.56235	-0.22067	-0.05197	31.0	13111	100
2025-3-27 18:41:38.105	WT901BLE68-01(48591DE3C19B)	0.057	-1.019	-0.074	9.460	-6.653	193.115	-69.95	35.27	-5.76	-53.802	-23.128	102.508	-0.79517	0.56235	-0.22067	-0.05197	31.0	13111	100
2025-3-27 18:41:38.105	WT901BLE68-01(48591DE3C19B)	0.057	-1.009	-0.085	0.061	-18.494	183.899	-69.51	36.78	-4.85	-53.802	-23.128	102.508	-0.79517	0.56235	-0.22067	-0.05197	31.0	13111	100
2025-3-27 18:41:38.105	WT901BLE68-01(48591DE3C19B)	0.118	-1.009	-0.085	0.061	-18.494	183.899	-69.04	38.27	-3.92	-53.802	-23.128	102.508	-0.79517	0.56235	-0.22067	-0.05197	31.0	13111	100
2025-3-27 18:41:38.106	WT901BLE68-01(48591DE3C19B)	0.118	-1.114	-0.084	-12.451	-39.673	165.588	-68.56	39.50	-2.79	-53.802	-23.128	102.508	-0.79517	0.56235	-0.22067	-0.05197	31.0	13111	100
2025-3-27 18:41:38.166	WT901BLE68-01(48591DE3C19B)	0.138	-1.114	-0.084	-12.451	-39.673	165.588	-68.04	40.70	-1.64	-53.802	-23.128	102.508	-0.79517	0.56235	-0.22067	-0.05197	31.0	13111	100
2025-3-27 18:41:38.166	WT901BLE68-01(48591DE3C19B)	0.138	-1.326	-0.071	-23.438	-61.401	141.541	-67.52	41.58	-0.32	-53.802	-23.128	102.508	-0.79517	0.56235	-0.22067	-0.05197	31.0	13111	100
2025-3-27 18:41:38.166	WT901BLE68-01(48591DE3C19B)	0.180	-1.326	-0.071	-23.438	-61.401	141.541	-66.96	42.43	1.02	-53.802	-23.128	102.508	-0.79517	0.56235	-0.22067	-0.05197	31.0	13111	100
2025-3-27 18:41:38.166	WT901BLE68-01(48591DE3C19B)	0.262	-1.590	-0.061	-33.447	-70.435	105.835	-66.53	42.91	2.30	-53.802	-23.128	102.508	-0.79517	0.56235	-0.22067	-0.05197	31.0	13111	100
2025-3-27 18:41:38.226	WT901BLE68-01(48591DE3C19B)	0.262	-1.834	-0.054	-36.438	-64.209	60.791	-66.22	43.18	3.43	-53.802	-23.128	102.508	-0.79517	0.56235	-0.22067	-0.05197	31.0	13111	100
2025-3-27 18:41:38.226	WT901BLE68-01(48591DE3C19B)	0.270	-1.834	-0.054	-36.438	-64.209	60.791	-66.03	43.25	4.39	-53.802	-23.128	102.508	-0.79517	0.56235	-0.22067	-0.05197	31.0	13111	100
2025-3-27 18:41:38.226	WT901BLE68-01(48591DE3C19B)	0.270	-1.855	0.041	-30.701	-47.485	16.174	-65.98	43.14	5.11	-53.802	-23.128	102.508	-0.79517	0.56235	-0.22067	-0.05197	31.0	13111	100
2025-3-27 18:41:38.226	WT901BLE68-01(48591DE3C19B)	0.353	-1.855	0.041	-30.701	-47.485	16.174	-66.06	42.86	5.61	-53.802	-23.128	102.508	-0.79517	0.56235	-0.22067	-0.05197	31.0	13111	100
2025-3-27 18:41:38.227	WT901BLE68-01(48591DE3C19B)	0.353	-1.771	0.106	-31.799	-24.963	-35.767	-66.33	42.38	5.82	-53.802	-23.128	102.508	-0.79517	0.56235	-0.22067	-0.05197	31.0	13111	100
2025-3-27 18:41:38.227	WT901BLE68-01(48591DE3C19B)	0.435	-1.771	0.106	-31.799	-24.963	-35.767	-66.79	41.70	5.76	-53.802	-23.128	102.508	-0.79517	0.56235	-0.22067	-0.05197	31.0	13111	100
2025-3-27 18:41:38.227	WT901BLE68-01(48591DE3C19B)	0.435	-1.730	0.090	-25.879	5.066	-80.200	-67.41	40.89	5.41	-49.392	-43.316	102.312	-0.79517	0.56235	-0.22067	-0.05197	31.0	13111	100
2025-3-27 18:41:38.228	WT901BLE68-01(48591DE3C19B)	0.466	-1.730	0.090	-25.879	5.066	-80.200	-68.16	39.91	4.78	-49.392	-43.316	102.312	-0.79517	0.56235	-0.22067	-0.05197	31.0	13111	100
2025-3-27 18:41:38.294	WT901BLE68-01(48591DE3C19B)	0.466	-1.656	0.029	-14.465	43.640	-119.629	-69.04	38.82	3.87	-49.392	-43.316	102.312	-0.79517	0.56235	-0.22067	-0.05197	31.0	13111	100
2025-3-27 18:41:38.294	WT901BLE68-01(48591DE3C19B)	0.397	-1.656	0.029	-14.465	43.640	-119.629	-70.02	37.60	2.67	-49.392	-43.316	102.312	-0.79517	0.56235	-0.22067	-0.05197	31.0	13111	100
2025-3-27 18:41:38.294	WT901BLE68-01(48591DE3C19B)	0.397	-1.549	-0.052	-1.160	84.290	-156.799	-71.07	36.26	1.20	-49.392	-43.316	102.312	-0.79517	0.56235	-0.22067	-0.05197	31.0	13111	100
2025-3-27 18:41:38.294	WT901BLE68-01(48591DE3C19B)	0.232	-1.549	-0.052	-1.160	84.290	-156.799	-72.16	34.79	-0.51	-49.392	-43.316	102.312	-0.79517	0.56235	-0.22067	-0.05197	31.0	13111	100
2025-3-27 18:41:38.314	WT901BLE68-01(48591DE3C19B)	0.232	-1.408	-0.064	7.996	117.188	-189.880	-73.26	33.20	-2.40	-49.392	-43.316	102.312	-0.79517	0.56235	-0.22067	-0.05197	31.0	13111	100
2025-3-27 18:41:38.315	WT901BLE68-01(48591DE3C19B)	0.042	-1.408	-0.064	7.996	117.188	-189.880	-74.37	31.46	-4.46	-49.392	-43.316	102.312	-0.79517	0.56235	-0.22067	-0.05197	31.0	13111	100
2025-3-27 18:41:38.315	WT901BLE68-01(48591DE3C19B)	0.042	-1.336	-0.044	16.357	135.376	-214.722	-75.40	29.62	-6.58	-49.392	-43.316	102.312	-0.79517	0.56235	-0.22067	-0.05197	31.0	13111	100
2025-3-27 18:41:38.315	WT901BLE68-01(48591DE3C19B)	-0.147	-1.336	-0.044	16.357	135.376	-214.722	-76.35	27.66	-8.75	-49.392	-43.316	102.312	-0.79517	0.56235	-0.22067	-0.05197	31.0	13111	100
2025-3-27 18:41:38.345	WT901BLE68-01(48591DE3C19B)	-0.147	-1.280	0.034	25.452	136.169	-232.178	-77.16	25.60	-10.87	-49.392	-43.316	102.312	-0.79517	0.56235	-0.22067	-0.05197	31.0	13111	100
2025-3-27 18:41:38.346	WT901BLE68-01(48591DE3C19B)	-0.309	-1.280	0.034	25.452	136.169	-232.178	-77.84	23.44	-12.94	-49.392	-43.316	102.312	-0.79517	0.56235	-0.22067	-0.05197	31.0	13111	100
2025-3-27 18:41:38.346	WT901BLE68-01(48591DE3C19B)	-0.309	-1.226	0.152	30.334	114.197	-244.019	-78.35	21.21	-14.84	-49.392	-43.316	102.312	-0.79517	0.56235	-0.22067	-0.05197	31.0	13111	100
2025-3-27 18:41:38.346	WT901BLE68-01(48591DE3C19B)	-0.362	-1.226	0.152	30.334	114.197	-244.019	-78.71	18.92	-16.59	-49.392	-43.316	102.312	-0.79517	0.56235	-0.22067	-0.05197	31.0	13111	100
2025-3-27 18:41:38.407	WT901BLE68-01(48591DE3C19B)	-0.362	-1.221	0.231	29.297	80.444	-253.540	-78.94	16.55	-18.13	-49.392	-43.316	102.312	-0.79517	0.56235	-0.22067	-0.05197	31.0	13111	100
2025-3-27 18:41:38.407	WT901BLE68-01(48591DE3C19B)	-0.291	-1.221	0.231	29.297	80.444	-253.540	-79.05	14.13	-19.48	-49.392	-43.316	102.312	-0.79517	0.56235	-0.22067	-0.05197	31.0	13111	100
2025-3-27 18:41:38.407	WT901BLE68-01(48591DE3C19B)	-0.291	-1.256	0.278	26.672	63.293	-260.620	-79.10	11.67	-20.72	-49.392	-43.316	102.312	-0.79517	0.56235	-0.22067	-0.05197	31.0	13111	100
2025-3-27 18:41:38.407	WT901BLE68-01(48591DE3C19B)	-0.276	-1.256	0.278	26.672	63.293	-260.620	-79.09	9.18	-21.87	-49.392	-43.316	102.312	-0.79517	0.56235	-0.22067	-0.05197	31.0	13111	100
2025-3-27 18:41:38.466	WT901BLE68-01(48591DE3C19B)	-0.276	-1.300	0.305	25.146	70.435	-265.076	-79.02	6.71	-23.05	-49.392	-43.316	102.312	-0.79517	0.56235	-0.22067	-0.05197	31.0	13111	100
2025-3-27 18:41:38.466	WT901BLE68-01(48591DE3C19B)	-0.404	-1.300	0.305	25.146	70.435	-265.076	-78.92	4.24	-24.27	-49.392	-43.316	102.312	-0.79517	0.56235	-0.22067	-0.05197	31.0	13111	100
2025-3-27 18:41:38.466	WT901BLE68-01(48591DE3C19B)	-0.404	-1.323	0.295	26.123	78.369	-267.090	-78.76	1.79	-25.52	-49.392	-43.316	102.312	-0.79517	0.56235	-0.22067	-0.05197	31.0	13111	100
2025-3-27 18:41:38.466	WT901BLE68-01(48591DE3C19B)	-0.556	-1.323	0.295	26.123	78.369	-267.090	-78.54	-0.64	-26.82	-49.392	-43.316	102.312	-0.75217	0.61670	-0.14258	0.18298	31.0	13111	100
2025-3-27 18:41:38.467	WT901BLE68-01(48591DE3C19B)	-0.556	-1.274	0.276	31.189	80.383	-258.484	-78.24	-2.99	-28.13	-49.392	-43.316	102.312	-0.75217	0.61670	-0.14258	0.18298	31.0	13111	100
2025-3-27 18:41:38.467	WT901BLE68-01(48591DE3C19B)	-0.606	-1.274	0.276	31.189	80.383	-258.484	-77.85	-5.28	-29.46	-49.392	-43.316	102.312	-0.75217	0.61670	-0.14258	0.18298	31.0	13111	100
2025-3-27 18:41:38.467	WT901BLE68-01(48591DE3C19B)	-0.606	-1.139	0.266	38.879	92.957	-240.417	-77.38	-7.43	-30.85	-49.392	-43.316	102.312	-0.75217	0.61670	-0.14258	0.18298	31.0	13111	100
2025-3-27 18:41:38.467	WT901BLE68-01(48591DE3C19B)	-0.585	-1.139	0.266	38.879	92.957	-240.417	-76.79	-9.44	-32.31	-49.392	-43.316	102.312	-0.75217	0.61670	-0.14258	0.18298	31.0	13111	100
2025-3-27 18:41:38.526	WT901BLE68-01(48591DE3C19B)	-0.585	-0.961	0.221	43.457	109.436	-215.149	-76.14	-11.27	-33.84	-49.392	-43.316	102.312	-0.75217	0.61670	-0.14258	0.18298	31.0	13111	100
2025-3-27 18:41:38.526	WT901BLE68-01(48591DE3C19B)	-0.537	-0.961	0.221	43.457	109.436	-215.149	-75.39	-12.92	-35.46	-49.392	-43.316	102.312	-0.75217	0.61670	-0.14258	0.18298	31.0	13111	100
2025-3-27 18:41:38.526	WT901BLE68-01(48591DE3C19B)	-0.537	-0.782	0.179	46.997	112.549	-185.974	-74.58	-14.39	-37.10	-49.392	-43.316	102.312	-0.75217	0.61670	-0.14258	0.18298	31.0	13111	100
2025-3-27 18:41:38.526	WT901BLE68-01(48591DE3C19B)	-0.541	-0.782	0.179	46.997	112.549	-185.974	-73.72	-15.68	-38.73	-49.392	-43.316	102.312	-0.75217	0.61670	-0.14258	0.18298	31.0	13111	100
2025-3-27 18:41:38.616	WT901BLE68-01(48591DE3C19B)	-0.541	-0.649	0.166	46.509	95.032	-157.104	-72.86	-16.81	-40.27	-49.392	-43.316	102.312	-0.75217	0.61670	-0.14258	0.18298	31.0	13111	100
2025-3-27 18:41:38.616	WT901BLE68-01(48591DE3C19B)	-0.575	-0.649	0.166	46.509	95.032	-157.104	-72.02	-17.80	-41.70	-49.392	-43.316	102.312	-0.75217	0.61670	-0.14258	0.18298	31.0	13111	100
2025-3-27 18:41:38.616	WT901BLE68-01(48591DE3C19B)	-0.575	-0.605	0.209	47.119	81.848	-126.892	-71.17	-18.63	-43.03	-49.392	-43.316	102.312	-0.75217	0.61670	-0.14258	0.18298	31.0	13111	100
2025-3-27 18:41:38.616	WT901BLE68-01(48591DE3C19B)	-0.661	-0.605	0.209	47.119	81.848	-126.892	-70.35	-19.31	-44.27	-49.392	-43.316	102.312	-0.75217	0.61670	-0.14258	0.18298	31.0	13111	100
2025-3-27 18:41:38.617	WT901BLE68-01(48591DE3C19B)	-0.661	-0.590	0.251	51.331	84.900	-95.642	-69.49	-19.81	-45.48	-49.392	-43.316	102.312	-0.75217	0.61670	-0.14258	0.18298	31.0	13111	100
2025-3-27 18:41:38.617	WT901BLE68-01(48591DE3C19B)	-0.755	-0.590	0.251	51.331	84.900	-95.642	-68.62	-20.13	-46.66	-49.392	-43.316	102.312	-0.75217	0.61670	-0.14258	0.18298	31.0	13111	100
2025-3-27 18:41:38.617	WT901BLE68-01(48591DE3C19B)	-0.755	-0.570	0.200	57.251	96.008	-68.726	-67.71	-20.28	-47.86	-49.392	-43.316	102.312	-0.75217	0.61670	-0.14258	0.18298	31.0	13111	100
2025-3-27 18:41:38.617	WT901BLE68-01(48591DE3C19B)	-0.875	-0.570	0.200	57.251	96.008	-68.726	-66.78	-20.24	-49.05	-49.392	-43.316	102.312	-0.75217	0.61670	-0.14258	0.18298	31.0	13111	100
2025-3-27 18:41:38.647	WT901BLE68-01(48591DE3C19B)	-0.875	-0.589	0.119	57.678	101.868	-47.363	-65.85	-20.07	-50.23	-49.392	-43.316	102.312	-0.75217	0.61670	-0.14258	0.18298	31.0	13111	100
2025-3-27 18:41:38.647	WT901BLE68-01(48591DE3C19B)	-1.020	-0.589	0.119	57.678	101.868	-47.363	-64.93	-19.76	-51.40	-49.392	-43.316	102.312	-0.75217	0.61670	-0.14258	0.18298	31.0	13111	100
2025-3-27 18:41:38.647	WT901BLE68-01(48591DE3C19B)	-1.020	-0.743	0.054	50.110	81.299	-28.198	-64.21	-19.35	-52.27	-49.392	-43.316	102.312	-0.75217	0.61670	-0.14258	0.18298	31.0	13111	100
2025-3-27 18:41:38.647	WT901BLE68-01(48591DE3C19B)	-1.139	-0.743	0.054	50.110	81.299	-28.198	-63.50	-18.91	-53.13	-49.392	-43.316	102.312	-0.75217	0.61670	-0.14258	0.18298	31.0	13111	100
2025-3-27 18:41:38.736	WT901BLE68-01(48591DE3C19B)	-1.139	-0.950	0.024	40.039	39.490	-14.099	-63.11	-18.54	-53.41	-74.676	-26.852	99.078	-0.75217	0.61670	-0.14258	0.18298	31.0	13111	100
2025-3-27 18:41:38.736	WT901BLE68-01(48591DE3C19B)	-1.190	-0.950	0.024	40.039	39.490	-14.099	-62.79	-18.20	-53.57	-74.676	-26.852	99.078	-0.75217	0.61670	-0.14258	0.18298	31.0	13111	100
2025-3-27 18:41:38.736	WT901BLE68-01(48591DE3C19B)	-1.190	-1.169	0.058	23.315	-4.761	2.075	-62.79	-17.91	-53.24	-74.676	-26.852	99.078	-0.75217	0.61670	-0.14258	0.18298	31.0	13111	100
2025-3-27 18:41:38.736	WT901BLE68-01(48591DE3C19B)	-1.191	-1.169	0.058	23.315	-4.761	2.075	-62.80	-17.62	-52.91	-74.676	-26.852	99.078	-0.75217	0.61670	-0.14258	0.18298	31.0	13111	100
2025-3-27 18:41:38.737	WT901BLE68-01(48591DE3C19B)	-1.191	-1.384	0.132	-0.793	-44.556	28.015	-63.19	-17.29	-52.09	-74.676	-26.852	99.078	-0.75217	0.61670	-0.14258	0.18298	31.0	13111	100
2025-3-27 18:41:38.737	WT901BLE68-01(48591DE3C19B)	-1.144	-1.384	0.132	-0.793	-44.556	28.015	-63.58	-16.95	-51.27	-74.676	-26.852	99.078	-0.75217	0.61670	-0.14258	0.18298	31.0	13111	100
2025-3-27 18:41:38.737	WT901BLE68-01(48591DE3C19B)	-1.144	-1.532	0.203	-23.804	-87.830	66.589	-64.36	-16.46	-49.88	-74.676	-26.852	99.078	-0.75217	0.61670	-0.14258	0.18298	31.0	13111	100
2025-3-27 18:41:38.737	WT901BLE68-01(48591DE3C19B)	-1.041	-1.532	0.203	-23.804	-87.830	66.589	-65.12	-15.95	-48.49	-74.676	-26.852	99.078	-0.75217	0.61670	-0.14258	0.18298	31.0	13111	100
2025-3-27 18:41:38.767	WT901BLE68-01(48591DE3C19B)	-1.041	-1.493	0.261	-44.189	-135.803	107.422	-66.23	-15.26	-46.49	-74.676	-26.852	99.078	-0.75217	0.61670	-0.14258	0.18298	31.0	13111	100
2025-3-27 18:41:38.767	WT901BLE68-01(48591DE3C19B)	-0.914	-1.493	0.261	-44.189	-135.803	107.422	-67.30	-14.53	-44.51	-74.676	-26.852	99.078	-0.75217	0.61670	-0.14258	0.18298	31.0	13111	100
2025-3-27 18:41:38.767	WT901BLE68-01(48591DE3C19B)	-0.914	-1.505	0.295	-61.218	-172.058	151.306	-68.63	-13.52	-42.03	-74.676	-26.852	99.078	-0.75217	0.61670	-0.14258	0.18298	31.0	13111	100
2025-3-27 18:41:38.767	WT901BLE68-01(48591DE3C19B)	-0.826	-1.505	0.295	-61.218	-172.058	151.306	-69.90	-12.45	-39.59	-74.676	-26.852	99.078	-0.75217	0.61670	-0.14258	0.18298	31.0	13111	100
2025-3-27 18:41:38.797	WT901BLE68-01(48591DE3C19B)	-0.826	-1.520	0.256	-67.322	-191.589	194.946	-71.23	-11.00	-36.85	-74.676	-26.852	99.078	-0.75217	0.61670	-0.14258	0.18298	31.0	13111	100
2025-3-27 18:41:38.797	WT901BLE68-01(48591DE3C19B)	-0.722	-1.520	0.256	-67.322	-191.589	194.946	-72.48	-9.51	-34.16	-74.676	-26.852	99.078	-0.75217	0.61670	-0.14258	0.18298	31.0	13111	100
2025-3-27 18:41:38.797	WT901BLE68-01(48591DE3C19B)	-0.361	-1.501	0.126	-67.444	-196.655	235.901	-73.66	-7.60	-31.34	-74.676	-26.852	99.078	-0.75217	0.61670	-0.14258	0.18298	31.0	13111	100
2025-3-27 18:41:38.797	WT901BLE68-01(48591DE3C19B)	-0.608	-0.750	0.063	-67.444	-196.655	235.901	-74.75	-5.66	-28.57	-74.676	-26.852	99.078	-0.75217	0.61670	-0.14258	0.18298	31.0	13111	100
2025-3-27 18:41:38.827	WT901BLE68-01(48591DE3C19B)	-0.608	-1.520	-0.025	-67.017	-197.449	271.484	-75.73	-3.34	-25.74	-74.676	-26.852	99.078	-0.75217	0.61670	-0.14258	0.18298	31.0	13111	100
2025-3-27 18:41:38.827	WT901BLE68-01(48591DE3C19B)	-0.487	-1.520	-0.025	-67.017	-197.449	271.484	-76.60	-1.00	-22.96	-74.676	-26.852	99.078	-0.75217	0.61670	-0.14258	0.18298	31.0	13111	100
2025-3-27 18:41:38.827	WT901BLE68-01(48591DE3C19B)	-0.487	-1.653	-0.091	-61.707	-199.097	299.622	-77.30	1.62	-20.14	-74.676	-26.852	99.078	-0.77036	0.61295	-0.12006	0.12781	31.0	13111	100
2025-3-27 18:41:38.827	WT901BLE68-01(48591DE3C19B)	-0.372	-1.653	-0.091	-61.707	-199.097	299.622	-77.88	4.25	-17.34	-74.676	-26.852	99.078	-0.77036	0.61295	-0.12006	0.12781	31.0	13111	100
2025-3-27 18:41:38.915	WT901BLE68-01(48591DE3C19B)	-0.372	-1.917	-0.054	-46.753	-196.594	319.519	-78.17	7.07	-14.53	-74.676	-26.852	99.078	-0.77036	0.61295	-0.12006	0.12781	31.0	13111	100
2025-3-27 18:41:38.915	WT901BLE68-01(48591DE3C19B)	-0.260	-1.917	-0.054	-46.753	-196.594	319.519	-78.33	9.87	-11.73	-74.676	-26.852	99.078	-0.77036	0.61295	-0.12006	0.12781	31.0	13111	100
2025-3-27 18:41:38.915	WT901BLE68-01(48591DE3C19B)	-0.260	-2.123	0.046	-14.465	-185.364	330.994	-78.05	12.78	-8.99	-74.676	-26.852	99.078	-0.77036	0.61295	-0.12006	0.12781	31.0	13111	100
2025-3-27 18:41:38.915	WT901BLE68-01(48591DE3C19B)	-0.112	-2.123	0.046	-14.465	-185.364	330.994	-77.62	15.65	-6.21	-74.676	-26.852	99.078	-0.77036	0.61295	-0.12006	0.12781	31.0	13111	100
2025-3-27 18:41:38.916	WT901BLE68-01(48591DE3C19B)	-0.112	-1.986	0.069	26.917	-156.738	329.529	-76.73	18.51	-3.65	-74.676	-26.852	99.078	-0.77036	0.61295	-0.12006	0.12781	31.0	13111	100
2025-3-27 18:41:38.916	WT901BLE68-01(48591DE3C19B)	-0.055	-1.986	0.069	26.917	-156.738	329.529	-75.68	21.30	-1.01	-74.676	-26.852	99.078	-0.77036	0.61295	-0.12006	0.12781	31.0	13111	100
2025-3-27 18:41:38.916	WT901BLE68-01(48591DE3C19B)	-0.055	-1.663	0.069	50.110	-111.206	320.435	-74.45	24.04	1.22	-74.676	-26.852	99.078	-0.77036	0.61295	-0.12006	0.12781	31.0	13111	100
2025-3-27 18:41:38.916	WT901BLE68-01(48591DE3C19B)	-0.088	-1.663	0.069	50.110	-111.206	320.435	-73.09	26.72	3.57	-74.676	-26.852	99.078	-0.77036	0.61295	-0.12006	0.12781	31.0	13111	100
2025-3-27 18:41:38.943	WT901BLE68-01(48591DE3C19B)	-0.088	-1.454	0.036	54.932	-63.416	302.979	-71.80	29.31	5.45	-74.676	-26.852	99.078	-0.77036	0.61295	-0.12006	0.12781	31.0	13111	100
2025-3-27 18:41:38.943	WT901BLE68-01(48591DE3C19B)	-0.118	-1.454	0.036	54.932	-63.416	302.979	-70.39	31.85	7.44	-74.676	-26.852	99.078	-0.77036	0.61295	-0.12006	0.12781	31.0	13111	100
2025-3-27 18:41:38.944	WT901BLE68-01(48591DE3C19B)	-0.118	-1.391	0.070	53.223	-20.935	281.555	-69.18	34.27	8.99	-74.676	-26.852	99.078	-0.77036	0.61295	-0.12006	0.12781	31.0	13111	100
2025-3-27 18:41:38.944	WT901BLE68-01(48591DE3C19B)	-0.163	-1.391	0.070	53.223	-20.935	281.555	-67.86	36.65	10.62	-74.676	-26.852	99.078	-0.77036	0.61295	-0.12006	0.12781	31.0	13111	100
2025-3-27 18:41:39.7	WT901BLE68-01(48591DE3C19B)	-0.163	-1.496	0.050	50.537	3.174	263.306	-66.69	38.91	12.00	-74.676	-26.852	99.078	-0.77036	0.61295	-0.12006	0.12781	31.0	13111	100
2025-3-27 18:41:39.7	WT901BLE68-01(48591DE3C19B)	-0.075	-1.496	0.050	50.537	3.174	263.306	-65.42	41.13	13.47	-74.676	-26.852	99.078	-0.77036	0.61295	-0.12006	0.12781	31.0	13111	100
2025-3-27 18:41:39.7	WT901BLE68-01(48591DE3C19B)	-0.075	-1.298	0.018	57.068	10.132	246.765	-64.09	43.20	14.86	-74.676	-26.852	99.078	-0.77036	0.61295	-0.12006	0.12781	31.0	13111	100
2025-3-27 18:41:39.8	WT901BLE68-01(48591DE3C19B)	-0.065	-1.298	0.018	57.068	10.132	246.765	-62.67	45.23	16.35	-74.676	-26.852	99.078	-0.77036	0.61295	-0.12006	0.12781	31.0	13111	100
2025-3-27 18:41:39.36	WT901BLE68-01(48591DE3C19B)	-0.065	-1.064	-0.050	49.683	8.484	234.741	-61.25	47.10	17.90	-74.676	-26.852	99.078	-0.77036	0.61295	-0.12006	0.12781	31.0	13111	100
2025-3-27 18:41:39.36	WT901BLE68-01(48591DE3C19B)	-0.140	-1.064	-0.050	49.683	8.484	234.741	-59.81	48.99	19.32	-74.676	-26.852	99.078	-0.77036	0.61295	-0.12006	0.12781	31.0	13111	100
2025-3-27 18:41:39.36	WT901BLE68-01(48591DE3C19B)	-0.140	-0.944	-0.123	37.109	-11.597	219.727	-58.35	50.67	20.77	-58.604	-32.536	98.588	-0.77036	0.61295	-0.12006	0.12781	31.0	13111	100
2025-3-27 18:41:39.36	WT901BLE68-01(48591DE3C19B)	-0.178	-0.944	-0.123	37.109	-11.597	219.727	-56.79	52.31	22.32	-58.604	-32.536	98.588	-0.77036	0.61295	-0.12006	0.12781	31.0	13111	100
2025-3-27 18:41:39.95	WT901BLE68-01(48591DE3C19B)	-0.178	-1.093	-0.105	16.846	-46.387	196.472	-55.10	53.53	24.26	-58.604	-32.536	98.588	-0.77036	0.61295	-0.12006	0.12781	31.0	13111	100
2025-3-27 18:41:39.95	WT901BLE68-01(48591DE3C19B)	-0.006	-1.093	-0.105	16.846	-46.387	196.472	-53.29	54.71	26.30	-58.604	-32.536	98.588	-0.77036	0.61295	-0.12006	0.12781	31.0	13111	100
2025-3-27 18:41:39.95	WT901BLE68-01(48591DE3C19B)	-0.006	-1.443	-0.122	12.268	-71.838	160.828	-51.47	55.40	28.41	-58.604	-32.536	98.588	-0.77036	0.61295	-0.12006	0.12781	31.0	13111	100
2025-3-27 18:41:39.95	WT901BLE68-01(48591DE3C19B)	0.250	-1.443	-0.122	12.268	-71.838	160.828	-49.59	56.06	30.57	-58.604	-32.536	98.588	-0.77036	0.61295	-0.12006	0.12781	31.0	13111	100
2025-3-27 18:41:39.126	WT901BLE68-01(48591DE3C19B)	0.418	-1.598	-0.157	19.226	-70.313	120.483	-48.00	56.37	32.28	-58.604	-32.536	98.588	-0.77036	0.61295	-0.12006	0.12781	31.0	13111	100
2025-3-27 18:41:39.126	WT901BLE68-01(48591DE3C19B)	0.418	-1.716	-0.147	14.771	-40.100	75.317	-46.84	56.60	33.51	-58.604	-32.536	98.588	-0.77036	0.61295	-0.12006	0.12781	31.0	13111	100
2025-3-27 18:41:39.126	WT901BLE68-01(48591DE3C19B)	0.382	-1.716	-0.147	14.771	-40.100	75.317	-46.11	56.74	34.26	-58.604	-32.536	98.588	-0.77036	0.61295	-0.12006	0.12781	31.0	13111	100
2025-3-27 18:41:39.126	WT901BLE68-01(48591DE3C19B)	0.382	-1.831	-0.091	6.836	12.817	21.240	-46.01	56.87	34.30	-58.604	-32.536	98.588	-0.77036	0.61295	-0.12006	0.12781	31.0	13111	100
2025-3-27 18:41:39.154	WT901BLE68-01(48591DE3C19B)	0.149	-1.831	-0.091	6.836	12.817	21.240	-46.53	56.99	33.64	-58.604	-32.536	98.588	-0.77036	0.61295	-0.12006	0.12781	31.0	13111	100
2025-3-27 18:41:39.154	WT901BLE68-01(48591DE3C19B)	0.149	-1.774	-0.010	-1.282	66.528	-31.921	-47.69	57.07	32.28	-58.604	-32.536	98.588	-0.77036	0.61295	-0.12006	0.12781	31.0	13111	100
2025-3-27 18:41:39.154	WT901BLE68-01(48591DE3C19B)	0.034	-1.774	-0.010	-1.282	66.528	-31.921	-49.47	57.12	30.23	-58.604	-32.536	98.588	-0.77036	0.61295	-0.12006	0.12781	31.0	13111	100
2025-3-27 18:41:39.154	WT901BLE68-01(48591DE3C19B)	0.034	-1.627	0.077	-7.874	90.881	-80.627	-51.65	57.02	27.73	-58.604	-32.536	98.588	-0.77036	0.61295	-0.12006	0.12781	31.0	13111	100
2025-3-27 18:41:39.215	WT901BLE68-01(48591DE3C19B)	0.104	-1.627	0.077	-7.874	90.881	-80.627	-54.20	56.74	24.82	-58.604	-32.536	98.588	-0.77036	0.61295	-0.12006	0.12781	31.0	13111	100
2025-3-27 18:41:39.216	WT901BLE68-01(48591DE3C19B)	0.104	-1.522	0.147	-11.108	89.905	-122.620	-56.85	56.22	21.76	-58.604	-32.536	98.588	-0.77036	0.61295	-0.12006	0.12781	31.0	13111	100
2025-3-27 18:41:39.216	WT901BLE68-01(48591DE3C19B)	0.069	-1.522	0.147	-11.108	89.905	-122.620	-59.57	55.44	18.64	-58.604	-32.536	98.588	-0.77036	0.61295	-0.12006	0.12781	31.0	13111	100
2025-3-27 18:41:39.216	WT901BLE68-01(48591DE3C19B)	0.069	-1.502	0.107	-11.169	83.191	-157.654	-62.22	54.40	15.56	-58.604	-32.536	98.588	-0.77036	0.61295	-0.12006	0.12781	31.0	13111	100
2025-3-27 18:41:39.248	WT901BLE68-01(48591DE3C19B)	-0.029	-1.502	0.107	-11.169	83.191	-157.654	-64.74	53.14	12.59	-58.604	-32.536	98.588	-0.77036	0.61295	-0.12006	0.12781	31.0	13111	100
2025-3-27 18:41:39.248	WT901BLE68-01(48591DE3C19B)	-0.029	-1.430	0.076	-6.714	73.792	-192.261	-67.07	51.62	9.77	-58.604	-32.536	98.588	-0.77036	0.61295	-0.12006	0.12781	31.0	13111	100
2025-3-27 18:41:39.248	WT901BLE68-01(48591DE3C19B)	-0.141	-1.430	0.076	-6.714	73.792	-192.261	-69.19	49.87	7.11	-58.604	-32.536	98.588	-0.77036	0.61295	-0.12006	0.12781	31.0	13111	100
2025-3-27 18:41:39.248	WT901BLE68-01(48591DE3C19B)	-0.141	-1.460	0.059	-7.996	67.383	-230.225	-71.14	47.88	4.63	-58.604	-32.536	98.588	-0.73486	0.54919	-0.30475	-0.25568	31.0	13111	100
2025-3-27 18:41:39.275	WT901BLE68-01(48591DE3C19B)	-0.189	-1.460	0.059	-7.996	67.383	-230.225	-72.92	45.68	2.30	-58.604	-32.536	98.588	-0.73486	0.54919	-0.30475	-0.25568	31.0	13111	100
2025-3-27 18:41:39.275	WT901BLE68-01(48591DE3C19B)	-0.189	-1.490	0.106	-3.967	68.359	-268.616	-74.53	43.25	0.09	-58.604	-32.536	98.588	-0.73486	0.54919	-0.30475	-0.25568	31.0	13111	100
2025-3-27 18:41:39.275	WT901BLE68-01(48591DE3C19B)	-0.267	-1.490	0.106	-3.967	68.359	-268.616	-75.96	40.62	-2.00	-58.604	-32.536	98.588	-0.73486	0.54919	-0.30475	-0.25568	31.0	13111	100
2025-3-27 18:41:39.275	WT901BLE68-01(48591DE3C19B)	-0.267	-1.472	0.182	-3.601	68.359	-302.917	-77.24	37.80	-3.97	-58.604	-32.536	98.588	-0.73486	0.54919	-0.30475	-0.25568	31.0	13111	100
2025-3-27 18:41:39.335	WT901BLE68-01(48591DE3C19B)	-0.323	-1.472	0.182	-3.601	68.359	-302.917	-78.37	34.80	-5.82	-58.604	-32.536	98.588	-0.73486	0.54919	-0.30475	-0.25568	31.0	13111	100
2025-3-27 18:41:39.335	WT901BLE68-01(48591DE3C19B)	-0.323	-1.467	0.254	-1.648	69.336	-328.674	-79.34	31.68	-7.56	-58.604	-32.536	98.588	-0.73486	0.54919	-0.30475	-0.25568	31.0	13111	100
2025-3-27 18:41:39.336	WT901BLE68-01(48591DE3C19B)	-0.418	-1.467	0.254	-1.648	69.336	-328.674	-80.18	28.43	-9.21	-58.604	-32.536	98.588	-0.73486	0.54919	-0.30475	-0.25568	31.0	13111	100
2025-3-27 18:41:39.336	WT901BLE68-01(48591DE3C19B)	-0.418	-1.479	0.289	2.319	72.205	-342.468	-80.87	25.12	-10.78	-58.604	-32.536	98.588	-0.73486	0.54919	-0.30475	-0.25568	31.0	13111	100
2025-3-27 18:41:39.426	WT901BLE68-01(48591DE3C19B)	-0.494	-1.479	0.289	2.319	72.205	-342.468	-81.43	21.75	-12.28	-58.604	-32.536	98.588	-0.73486	0.54919	-0.30475	-0.25568	31.0	13111	100
2025-3-27 18:41:39.426	WT901BLE68-01(48591DE3C19B)	-0.494	-1.458	0.308	7.385	69.824	-345.276	-81.85	18.38	-13.69	-58.604	-32.536	98.588	-0.73486	0.54919	-0.30475	-0.25568	31.0	13111	100
2025-3-27 18:41:39.426	WT901BLE68-01(48591DE3C19B)	-0.488	-1.458	0.308	7.385	69.824	-345.276	-82.15	15.01	-15.04	-58.604	-32.536	98.588	-0.73486	0.54919	-0.30475	-0.25568	31.0	13111	100
2025-3-27 18:41:39.426	WT901BLE68-01(48591DE3C19B)	-0.488	-1.438	0.321	11.658	63.599	-338.562	-82.33	11.69	-16.30	-58.604	-32.536	98.588	-0.73486	0.54919	-0.30475	-0.25568	31.0	13111	100
2025-3-27 18:41:39.427	WT901BLE68-01(48591DE3C19B)	-0.429	-1.438	0.321	11.658	63.599	-338.562	-82.41	8.43	-17.50	-58.604	-32.536	98.588	-0.73486	0.54919	-0.30475	-0.25568	31.0	13111	100
2025-3-27 18:41:39.427	WT901BLE68-01(48591DE3C19B)	-0.429	-1.430	0.277	18.127	56.580	-325.500	-82.38	5.25	-18.63	-58.604	-32.536	98.588	-0.73486	0.54919	-0.30475	-0.25568	31.0	13111	100
2025-3-27 18:41:39.427	WT901BLE68-01(48591DE3C19B)	-0.421	-1.430	0.277	18.127	56.580	-325.500	-82.25	2.15	-19.71	-58.604	-32.536	98.588	-0.73486	0.54919	-0.30475	-0.25568	31.0	13111	100
2025-3-27 18:41:39.427	WT901BLE68-01(48591DE3C19B)	-0.421	-1.408	0.203	23.254	44.617	-308.716	-82.05	-0.85	-20.73	-58.604	-32.536	98.588	-0.73486	0.54919	-0.30475	-0.25568	31.0	13111	100
2025-3-27 18:41:39.457	WT901BLE68-01(48591DE3C19B)	-0.435	-1.408	0.203	23.254	44.617	-308.716	-81.77	-3.75	-21.67	-58.604	-32.536	98.588	-0.73486	0.54919	-0.30475	-0.25568	31.0	13111	100
2025-3-27 18:41:39.457	WT901BLE68-01(48591DE3C19B)	-0.435	-1.350	0.168	27.771	31.250	-290.710	-81.43	-6.55	-22.55	-58.604	-32.536	98.588	-0.73486	0.54919	-0.30475	-0.25568	31.0	13111	100
2025-3-27 18:41:39.457	WT901BLE68-01(48591DE3C19B)	-0.449	-1.350	0.168	27.771	31.250	-290.710	-81.04	-9.25	-23.36	-58.604	-32.536	98.588	-0.73486	0.54919	-0.30475	-0.25568	31.0	13111	100
2025-3-27 18:41:39.457	WT901BLE68-01(48591DE3C19B)	-0.449	-1.220	0.203	30.396	26.428	-269.592	-80.61	-11.82	-24.15	-58.604	-32.536	98.588	-0.73486	0.54919	-0.30475	-0.25568	31.0	13111	100
2025-3-27 18:41:39.491	WT901BLE68-01(48591DE3C19B)	-0.474	-1.220	0.203	30.396	26.428	-269.592	-80.14	-14.27	-24.93	-69.188	-36.260	94.864	-0.73486	0.54919	-0.30475	-0.25568	31.0	13111	100
2025-3-27 18:41:39.491	WT901BLE68-01(48591DE3C19B)	-0.474	-1.082	0.262	31.311	36.438	-248.291	-79.62	-16.58	-25.76	-69.188	-36.260	94.864	-0.73486	0.54919	-0.30475	-0.25568	31.0	13111	100
2025-3-27 18:41:39.492	WT901BLE68-01(48591DE3C19B)	-0.529	-1.082	0.262	31.311	36.438	-248.291	-79.05	-18.75	-26.64	-69.188	-36.260	94.864	-0.73486	0.54919	-0.30475	-0.25568	31.0	13111	100
2025-3-27 18:41:39.492	WT901BLE68-01(48591DE3C19B)	-0.529	-0.985	0.289	32.104	53.223	-227.539	-78.41	-20.78	-27.62	-69.188	-36.260	94.864	-0.73486	0.54919	-0.30475	-0.25568	31.0	13111	100
2025-3-27 18:41:39.517	WT901BLE68-01(48591DE3C19B)	-0.581	-0.985	0.289	32.104	53.223	-227.539	-77.71	-22.66	-28.69	-69.188	-36.260	94.864	-0.73486	0.54919	-0.30475	-0.25568	31.0	13111	100
2025-3-27 18:41:39.517	WT901BLE68-01(48591DE3C19B)	-0.581	-0.917	0.268	34.302	68.665	-204.163	-76.93	-24.39	-29.86	-69.188	-36.260	94.864	-0.73486	0.54919	-0.30475	-0.25568	31.0	13111	100
2025-3-27 18:41:39.518	WT901BLE68-01(48591DE3C19B)	-0.694	-0.917	0.268	34.302	68.665	-204.163	-76.06	-25.96	-31.10	-69.188	-36.260	94.864	-0.73486	0.54919	-0.30475	-0.25568	31.0	13111	100
2025-3-27 18:41:39.518	WT901BLE68-01(48591DE3C19B)	-0.694	-0.808	0.278	35.706	66.101	-179.932	-75.18	-27.37	-32.34	-69.188	-36.260	94.864	-0.73486	0.54919	-0.30475	-0.25568	31.0	13111	100
2025-3-27 18:41:39.575	WT901BLE68-01(48591DE3C19B)	-0.867	-0.808	0.278	35.706	66.101	-179.932	-74.27	-28.64	-33.55	-69.188	-36.260	94.864	-0.73486	0.54919	-0.30475	-0.25568	31.0	13111	100
2025-3-27 18:41:39.575	WT901BLE68-01(48591DE3C19B)	-0.867	-0.726	0.361	33.752	38.269	-151.245	-73.43	-29.78	-34.59	-69.188	-36.260	94.864	-0.73486	0.54919	-0.30475	-0.25568	31.0	13111	100
2025-3-27 18:41:39.575	WT901BLE68-01(48591DE3C19B)	-0.968	-0.726	0.361	33.752	38.269	-151.245	-72.68	-30.79	-35.44	-69.188	-36.260	94.864	-0.73486	0.54919	-0.30475	-0.25568	31.0	13111	100
2025-3-27 18:41:39.575	WT901BLE68-01(48591DE3C19B)	-0.968	-0.742	0.405	25.635	-2.319	-119.568	-72.28	-31.60	-35.74	-69.188	-36.260	94.864	-0.73486	0.54919	-0.30475	-0.25568	31.0	13111	100
2025-3-27 18:41:39.635	WT901BLE68-01(48591DE3C19B)	-0.910	-0.742	0.405	25.635	-2.319	-119.568	-71.88	-32.40	-36.04	-69.188	-36.260	94.864	-0.73486	0.54919	-0.30475	-0.25568	31.0	13111	100
2025-3-27 18:41:39.636	WT901BLE68-01(48591DE3C19B)	-0.910	-0.946	0.353	16.235	-33.936	-87.585	-71.82	-32.98	-35.86	-69.188	-36.260	94.864	-0.73486	0.54919	-0.30475	-0.25568	31.0	13111	100
2025-3-27 18:41:39.636	WT901BLE68-01(48591DE3C19B)	-0.870	-0.946	0.353	16.235	-33.936	-87.585	-71.77	-33.54	-35.67	-69.188	-36.260	94.864	-0.73486	0.54919	-0.30475	-0.25568	31.0	13111	100
2025-3-27 18:41:39.636	WT901BLE68-01(48591DE3C19B)	-0.870	-1.180	0.290	15.076	-47.424	-54.932	-71.89	-33.84	-35.21	-69.188	-36.260	94.864	-0.73486	0.54919	-0.30475	-0.25568	31.0	13111	100
2025-3-27 18:41:39.637	WT901BLE68-01(48591DE3C19B)	-0.840	-1.180	0.290	15.076	-47.424	-54.932	-72.01	-34.13	-34.74	-69.188	-36.260	94.864	-0.73486	0.54919	-0.30475	-0.25568	31.0	13111	100
2025-3-27 18:41:39.637	WT901BLE68-01(48591DE3C19B)	-0.840	-1.327	0.266	14.404	-42.480	-25.696	-72.17	-34.13	-34.22	-69.188	-36.260	94.864	-0.73486	0.54919	-0.30475	-0.25568	31.0	13111	100
2025-3-27 18:41:39.637	WT901BLE68-01(48591DE3C19B)	-0.801	-1.327	0.266	14.404	-42.480	-25.696	-72.33	-34.12	-33.70	-69.188	-36.260	94.864	-0.68927	0.60895	0.06274	0.38736	31.0	13111	100
2025-3-27 18:41:39.637	WT901BLE68-01(48591DE3C19B)	-0.801	-1.417	0.311	6.958	-26.245	8.606	-72.53	-33.75	-33.25	-69.188	-36.260	94.864	-0.68927	0.60895	0.06274	0.38736	31.0	13111	100
2025-3-27 18:41:39.695	WT901BLE68-01(48591DE3C19B)	-0.748	-1.417	0.311	6.958	-26.245	8.606	-72.71	-33.38	-32.81	-69.188	-36.260	94.864	-0.68927	0.60895	0.06274	0.38736	31.0	13111	100
2025-3-27 18:41:39.695	WT901BLE68-01(48591DE3C19B)	-0.748	-1.434	0.357	0.854	-2.991	47.119	-72.88	-32.57	-32.50	-69.188	-36.260	94.864	-0.68927	0.60895	0.06274	0.38736	31.0	13111	100
2025-3-27 18:41:39.695	WT901BLE68-01(48591DE3C19B)	-0.699	-1.434	0.357	0.854	-2.991	47.119	-73.05	-31.77	-32.21	-69.188	-36.260	94.864	-0.68927	0.60895	0.06274	0.38736	31.0	13111	100
2025-3-27 18:41:39.695	WT901BLE68-01(48591DE3C19B)	-0.699	-1.356	0.409	-9.277	12.024	90.637	-73.28	-30.52	-31.94	-69.188	-36.260	94.864	-0.68927	0.60895	0.06274	0.38736	31.0	13111	100
2025-3-27 18:41:39.726	WT901BLE68-01(48591DE3C19B)	-0.686	-1.356	0.409	-9.277	12.024	90.637	-73.52	-29.28	-31.70	-69.188	-36.260	94.864	-0.68927	0.60895	0.06274	0.38736	31.0	13111	100
2025-3-27 18:41:39.726	WT901BLE68-01(48591DE3C19B)	-0.686	-1.302	0.453	-22.400	7.019	131.287	-73.94	-27.66	-31.28	-69.188	-36.260	94.864	-0.68927	0.60895	0.06274	0.38736	31.0	13111	100
2025-3-27 18:41:39.726	WT901BLE68-01(48591DE3C19B)	-0.690	-1.302	0.453	-22.400	7.019	131.287	-74.34	-26.06	-30.89	-69.188	-36.260	94.864	-0.68927	0.60895	0.06274	0.38736	31.0	13111	100
2025-3-27 18:41:39.726	WT901BLE68-01(48591DE3C19B)	-0.690	-1.289	0.442	-29.358	-10.681	165.588	-74.92	-24.18	-30.23	-69.188	-36.260	94.864	-0.68927	0.60895	0.06274	0.38736	31.0	13111	100
2025-3-27 18:41:39.792	WT901BLE68-01(48591DE3C19B)	-0.651	-1.289	0.442	-29.358	-10.681	165.588	-75.45	-22.31	-29.61	-69.188	-36.260	94.864	-0.68927	0.60895	0.06274	0.38736	31.0	13111	100
2025-3-27 18:41:39.792	WT901BLE68-01(48591DE3C19B)	-0.651	-1.294	0.377	-32.532	-31.250	199.280	-76.09	-20.16	-28.72	-69.188	-36.260	94.864	-0.68927	0.60895	0.06274	0.38736	31.0	13111	100
2025-3-27 18:41:39.792	WT901BLE68-01(48591DE3C19B)	-0.564	-1.294	0.377	-32.532	-31.250	199.280	-76.68	-18.02	-27.87	-69.188	-36.260	94.864	-0.68927	0.60895	0.06274	0.38736	31.0	13111	100
2025-3-27 18:41:39.792	WT901BLE68-01(48591DE3C19B)	-0.564	-1.350	0.234	-32.104	-45.898	231.934	-77.29	-15.61	-26.84	-69.188	-36.260	94.864	-0.68927	0.60895	0.06274	0.38736	31.0	13111	100
2025-3-27 18:41:39.817	WT901BLE68-01(48591DE3C19B)	-0.472	-1.350	0.234	-32.104	-45.898	231.934	-77.84	-13.20	-25.85	-69.188	-36.260	94.864	-0.68927	0.60895	0.06274	0.38736	31.0	13111	100
2025-3-27 18:41:39.817	WT901BLE68-01(48591DE3C19B)	-0.472	-1.406	0.103	-29.968	-55.725	260.864	-78.35	-10.54	-24.75	-69.188	-36.260	94.864	-0.68927	0.60895	0.06274	0.38736	31.0	13111	100
2025-3-27 18:41:39.818	WT901BLE68-01(48591DE3C19B)	-0.414	-1.406	0.103	-29.968	-55.725	260.864	-78.82	-7.89	-23.68	-69.188	-36.260	94.864	-0.68927	0.60895	0.06274	0.38736	31.0	13111	100
2025-3-27 18:41:39.818	WT901BLE68-01(48591DE3C19B)	-0.207	-1.513	0.044	-29.480	-69.214	283.386	-79.24	-5.05	-22.47	-69.188	-36.260	94.864	-0.68927	0.60895	0.06274	0.38736	31.0	13111	100
2025-3-27 18:41:39.847	WT901BLE68-01(48591DE3C19B)	-0.369	-0.756	0.022	-29.480	-69.214	283.386	-79.60	-2.23	-21.30	-69.188	-36.260	94.864	-0.68927	0.60895	0.06274	0.38736	31.0	13111	100
2025-3-27 18:41:39.847	WT901BLE68-01(48591DE3C19B)	-0.369	-1.716	0.035	-28.259	-90.271	297.485	-79.89	0.66	-19.93	-69.188	-36.260	94.864	-0.68927	0.60895	0.06274	0.38736	31.0	13111	100
2025-3-27 18:41:39.847	WT901BLE68-01(48591DE3C19B)	-0.315	-1.716	0.035	-28.259	-90.271	297.485	-80.12	3.55	-18.58	-69.188	-36.260	94.864	-0.68927	0.60895	0.06274	0.38736	31.0	13111	100
2025-3-27 18:41:39.847	WT901BLE68-01(48591DE3C19B)	-0.315	-1.885	0.084	-15.869	-113.708	304.016	-80.13	6.44	-17.00	-69.678	-36.456	91.336	-0.68927	0.60895	0.06274	0.38736	31.0	13111	100
2025-3-27 18:41:39.877	WT901BLE68-01(48591DE3C19B)	-0.249	-1.885	0.084	-15.869	-113.708	304.016	-80.07	9.31	-15.42	-69.678	-36.456	91.336	-0.68927	0.60895	0.06274	0.38736	31.0	13111	100
2025-3-27 18:41:39.877	WT901BLE68-01(48591DE3C19B)	-0.249	-1.889	0.129	2.625	-126.160	303.833	-79.72	12.12	-13.72	-69.678	-36.456	91.336	-0.68927	0.60895	0.06274	0.38736	31.0	13111	100
2025-3-27 18:41:39.877	WT901BLE68-01(48591DE3C19B)	-0.204	-1.889	0.129	2.625	-126.160	303.833	-79.29	14.89	-11.99	-69.678	-36.456	91.336	-0.68927	0.60895	0.06274	0.38736	31.0	13111	100
2025-3-27 18:41:39.877	WT901BLE68-01(48591DE3C19B)	-0.204	-1.748	0.161	18.982	-120.483	299.316	-78.61	17.60	-10.28	-69.678	-36.456	91.336	-0.68927	0.60895	0.06274	0.38736	31.0	13111	100
2025-3-27 18:41:39.936	WT901BLE68-01(48591DE3C19B)	-0.203	-1.748	0.161	18.982	-120.483	299.316	-77.85	20.26	-8.54	-69.678	-36.456	91.336	-0.68927	0.60895	0.06274	0.38736	31.0	13111	100
2025-3-27 18:41:39.936	WT901BLE68-01(48591DE3C19B)	-0.203	-1.603	0.173	27.283	-100.586	292.175	-76.99	22.85	-6.95	-69.678	-36.456	91.336	-0.68927	0.60895	0.06274	0.38736	31.0	13111	100
2025-3-27 18:41:39.936	WT901BLE68-01(48591DE3C19B)	-0.187	-1.603	0.173	27.283	-100.586	292.175	-76.04	25.40	-5.31	-69.678	-36.456	91.336	-0.68927	0.60895	0.06274	0.38736	31.0	13111	100
2025-3-27 18:41:39.936	WT901BLE68-01(48591DE3C19B)	-0.187	-1.468	0.154	35.095	-69.885	285.400	-75.06	27.92	-3.94	-69.678	-36.456	91.336	-0.68927	0.60895	0.06274	0.38736	31.0	13111	100
2025-3-27 18:41:39.964	WT901BLE68-01(48591DE3C19B)	-0.161	-1.468	0.154	35.095	-69.885	285.400	-74.00	30.39	-2.50	-69.678	-36.456	91.336	-0.68927	0.60895	0.06274	0.38736	31.0	13111	100
2025-3-27 18:41:39.964	WT901BLE68-01(48591DE3C19B)	-0.161	-1.367	0.129	37.231	-36.926	282.837	-73.02	32.90	-1.36	-69.678	-36.456	91.336	-0.68927	0.60895	0.06274	0.38736	31.0	13111	100
2025-3-27 18:41:39.964	WT901BLE68-01(48591DE3C19B)	-0.128	-1.367	0.129	37.231	-36.926	282.837	-71.95	35.37	-0.14	-69.678	-36.456	91.336	-0.68927	0.60895	0.06274	0.38736	31.0	13111	100
2025-3-27 18:41:39.964	WT901BLE68-01(48591DE3C19B)	-0.128	-1.301	0.081	35.706	-10.742	277.954	-71.00	37.84	0.83	-69.678	-36.456	91.336	-0.68927	0.60895	0.06274	0.38736	31.0	13111	100
2025-3-27 18:41:39.995	WT901BLE68-01(48591DE3C19B)	-0.117	-1.301	0.081	35.706	-10.742	277.954	-69.97	40.28	1.89	-69.678	-36.456	91.336	-0.68927	0.60895	0.06274	0.38736	31.0	13111	100
2025-3-27 18:41:39.995	WT901BLE68-01(48591DE3C19B)	-0.117	-1.254	0.021	31.311	-0.244	272.095	-69.00	42.68	2.88	-69.678	-36.456	91.336	-0.68927	0.60895	0.06274	0.38736	31.0	13111	100
2025-3-27 18:41:39.995	WT901BLE68-01(48591DE3C19B)	-0.098	-1.254	0.021	31.311	-0.244	272.095	-67.93	45.04	3.95	-69.678	-36.456	91.336	-0.68927	0.60895	0.06274	0.38736	31.0	13111	100
2025-3-27 18:41:39.995	WT901BLE68-01(48591DE3C19B)	-0.118	-1.234	-0.032	26.245	-8.179	262.451	-66.77	47.26	5.18	-69.678	-36.456	91.336	-0.68927	0.60895	0.06274	0.38736	31.0	13111	100
2025-3-27 18:41:40.56	WT901BLE68-01(48591DE3C19B)	-0.118	-1.277	-0.051	19.836	-26.184	246.826	-65.48	49.33	6.60	-69.678	-36.456	91.336	-0.68927	0.60895	0.06274	0.38736	31.0	13111	100
2025-3-27 18:41:40.56	WT901BLE68-01(48591DE3C19B)	-0.118	-1.277	-0.051	19.836	-26.184	246.826	-64.03	51.27	8.22	-69.678	-36.456	91.336	-0.68927	0.60895	0.06274	0.38736	31.0	13111	100
2025-3-27 18:41:40.56	WT901BLE68-01(48591DE3C19B)	-0.118	-1.423	-0.014	14.648	-46.082	222.107	-62.42	53.01	10.04	-69.678	-36.456	91.336	-0.68927	0.60895	0.06274	0.38736	31.0	13111	100
2025-3-27 18:41:40.56	WT901BLE68-01(48591DE3C19B)	-0.104	-1.423	-0.014	14.648	-46.082	222.107	-60.66	54.55	12.04	-69.678	-36.456	91.336	-0.68927	0.60895	0.06274	0.38736	31.0	13111	100
2025-3-27 18:41:40.92	WT901BLE68-01(48591DE3C19B)	-0.104	-1.617	0.037	15.747	-54.688	192.322	-58.79	55.89	14.13	-69.678	-36.456	91.336	-0.73547	0.48053	-0.35184	-0.32294	31.0	13111	100
2025-3-27 18:41:40.92	WT901BLE68-01(48591DE3C19B)	-0.078	-1.617	0.037	15.747	-54.688	192.322	-56.85	57.04	16.27	-69.678	-36.456	91.336	-0.73547	0.48053	-0.35184	-0.32294	31.0	13111	100
2025-3-27 18:41:40.92	WT901BLE68-01(48591DE3C19B)	-0.078	-1.740	0.053	19.531	-55.969	156.982	-54.92	57.98	18.36	-69.678	-36.456	91.336	-0.73547	0.48053	-0.35184	-0.32294	31.0	13111	100
2025-3-27 18:41:40.92	WT901BLE68-01(48591DE3C19B)	0.061	-1.740	0.053	19.531	-55.969	156.982	-53.03	58.73	20.36	-69.678	-36.456	91.336	-0.73547	0.48053	-0.35184	-0.32294	31.0	13111	100
2025-3-27 18:41:40.145	WT901BLE68-01(48591DE3C19B)	0.061	-1.725	0.028	20.752	-51.392	116.943	-51.30	59.30	22.15	-69.678	-36.456	91.336	-0.73547	0.48053	-0.35184	-0.32294	31.0	13111	100
2025-3-27 18:41:40.145	WT901BLE68-01(48591DE3C19B)	0.232	-1.725	0.028	20.752	-51.392	116.943	-49.76	59.71	23.71	-69.678	-36.456	91.336	-0.73547	0.48053	-0.35184	-0.32294	31.0	13111	100
2025-3-27 18:41:40.146	WT901BLE68-01(48591DE3C19B)	0.232	-1.689	0.026	15.869	-26.550	73.853	-48.63	60.00	24.82	-69.678	-36.456	91.336	-0.73547	0.48053	-0.35184	-0.32294	31.0	13111	100
2025-3-27 18:41:40.146	WT901BLE68-01(48591DE3C19B)	0.265	-1.689	0.026	15.869	-26.550	73.853	-47.93	60.20	25.47	-69.678	-36.456	91.336	-0.73547	0.48053	-0.35184	-0.32294	31.0	13111	100
2025-3-27 18:41:40.175	WT901BLE68-01(48591DE3C19B)	0.265	-1.619	0.043	8.972	8.423	28.503	-47.76	60.34	25.54	-69.678	-36.456	91.336	-0.73547	0.48053	-0.35184	-0.32294	31.0	13111	100
2025-3-27 18:41:40.175	WT901BLE68-01(48591DE3C19B)	0.187	-1.619	0.043	8.972	8.423	28.503	-48.12	60.42	25.05	-69.678	-36.456	91.336	-0.73547	0.48053	-0.35184	-0.32294	31.0	13111	100
2025-3-27 18:41:40.175	WT901BLE68-01(48591DE3C19B)	0.187	-1.478	0.111	-0.427	27.588	-16.724	-48.93	60.40	24.10	-69.678	-36.456	91.336	-0.73547	0.48053	-0.35184	-0.32294	31.0	13111	100
2025-3-27 18:41:40.175	WT901BLE68-01(48591DE3C19B)	0.116	-1.478	0.111	-0.427	27.588	-16.724	-50.16	60.25	22.71	-69.678	-36.456	91.336	-0.73547	0.48053	-0.35184	-0.32294	31.0	13111	100
2025-3-27 18:41:40.207	WT901BLE68-01(48591DE3C19B)	0.116	-1.371	0.121	-9.583	38.452	-64.026	-51.75	59.93	20.96	-69.678	-36.456	91.336	-0.73547	0.48053	-0.35184	-0.32294	31.0	13111	100
2025-3-27 18:41:40.207	WT901BLE68-01(48591DE3C19B)	0.064	-1.371	0.121	-9.583	38.452	-64.026	-53.65	59.44	18.89	-69.678	-36.456	91.336	-0.73547	0.48053	-0.35184	-0.32294	31.0	13111	100
2025-3-27 18:41:40.207	WT901BLE68-01(48591DE3C19B)	0.064	-1.213	0.140	-16.479	45.288	-107.300	-55.75	58.75	16.61	-69.678	-36.456	91.336	-0.73547	0.48053	-0.35184	-0.32294	31.0	13111	100
2025-3-27 18:41:40.207	WT901BLE68-01(48591DE3C19B)	0.030	-1.213	0.140	-16.479	45.288	-107.300	-58.01	57.86	14.15	-69.678	-36.456	91.336	-0.73547	0.48053	-0.35184	-0.32294	31.0	13111	100
2025-3-27 18:41:40.237	WT901BLE68-01(48591DE3C19B)	0.030	-1.131	0.149	-23.743	48.706	-148.071	-60.35	56.76	11.62	-69.678	-36.456	91.336	-0.73547	0.48053	-0.35184	-0.32294	31.0	13111	100
2025-3-27 18:41:40.237	WT901BLE68-01(48591DE3C19B)	-0.025	-1.131	0.149	-23.743	48.706	-148.071	-62.72	55.43	9.07	-69.678	-36.456	91.336	-0.73547	0.48053	-0.35184	-0.32294	31.0	13111	100
2025-3-27 18:41:40.237	WT901BLE68-01(48591DE3C19B)	-0.025	-1.132	0.162	-26.917	50.415	-185.730	-65.02	53.89	6.56	-54.390	-21.560	83.300	-0.73547	0.48053	-0.35184	-0.32294	31.0	13111	100
2025-3-27 18:41:40.237	WT901BLE68-01(48591DE3C19B)	-0.106	-1.132	0.162	-26.917	50.415	-185.730	-67.24	52.15	4.11	-54.390	-21.560	83.300	-0.73547	0.48053	-0.35184	-0.32294	31.0	13111	100
2025-3-27 18:41:40.296	WT901BLE68-01(48591DE3C19B)	-0.106	-1.138	0.177	-26.062	50.781	-219.604	-69.31	50.20	1.79	-54.390	-21.560	83.300	-0.73547	0.48053	-0.35184	-0.32294	31.0	13111	100
2025-3-27 18:41:40.296	WT901BLE68-01(48591DE3C19B)	-0.159	-1.138	0.177	-26.062	50.781	-219.604	-71.23	48.05	-0.41	-54.390	-21.560	83.300	-0.73547	0.48053	-0.35184	-0.32294	31.0	13111	100
2025-3-27 18:41:40.296	WT901BLE68-01(48591DE3C19B)	-0.159	-1.150	0.202	-24.414	50.293	-252.197	-72.98	45.72	-2.48	-54.390	-21.560	83.300	-0.73547	0.48053	-0.35184	-0.32294	31.0	13111	100
2025-3-27 18:41:40.296	WT901BLE68-01(48591DE3C19B)	-0.162	-1.150	0.202	-24.414	50.293	-252.197	-74.56	43.21	-4.42	-54.390	-21.560	83.300	-0.73547	0.48053	-0.35184	-0.32294	31.0	13111	100
2025-3-27 18:41:40.325	WT901BLE68-01(48591DE3C19B)	-0.162	-1.181	0.214	-24.231	51.025	-281.311	-76.00	40.55	-6.23	-54.390	-21.560	83.300	-0.73547	0.48053	-0.35184	-0.32294	31.0	13111	100
2025-3-27 18:41:40.325	WT901BLE68-01(48591DE3C19B)	-0.178	-1.181	0.214	-24.231	51.025	-281.311	-77.29	37.72	-7.93	-54.390	-21.560	83.300	-0.73547	0.48053	-0.35184	-0.32294	31.0	13111	100
2025-3-27 18:41:40.325	WT901BLE68-01(48591DE3C19B)	-0.178	-1.235	0.207	-22.217	55.115	-307.190	-78.45	34.77	-9.54	-54.390	-21.560	83.300	-0.73547	0.48053	-0.35184	-0.32294	31.0	13111	100
2025-3-27 18:41:40.325	WT901BLE68-01(48591DE3C19B)	-0.206	-1.235	0.207	-22.217	55.115	-307.190	-79.49	31.70	-11.06	-54.390	-21.560	83.300	-0.73547	0.48053	-0.35184	-0.32294	31.0	13111	100
2025-3-27 18:41:40.354	WT901BLE68-01(48591DE3C19B)	-0.206	-1.306	0.203	-18.982	63.171	-327.515	-80.40	28.53	-12.54	-54.390	-21.560	83.300	-0.73547	0.48053	-0.35184	-0.32294	31.0	13111	100
2025-3-27 18:41:40.354	WT901BLE68-01(48591DE3C19B)	-0.223	-1.306	0.203	-18.982	63.171	-327.515	-81.22	25.27	-13.98	-54.390	-21.560	83.300	-0.73547	0.48053	-0.35184	-0.32294	31.0	13111	100
2025-3-27 18:41:40.354	WT901BLE68-01(48591DE3C19B)	-0.223	-1.394	0.201	-11.963	77.087	-342.163	-81.91	21.95	-15.41	-54.390	-21.560	83.300	-0.73547	0.48053	-0.35184	-0.32294	31.0	13111	100
2025-3-27 18:41:40.354	WT901BLE68-01(48591DE3C19B)	-0.266	-1.394	0.201	-11.963	77.087	-342.163	-82.51	18.58	-16.85	-54.390	-21.560	83.300	-0.73547	0.48053	-0.35184	-0.32294	31.0	13111	100
2025-3-27 18:41:40.417	WT901BLE68-01(48591DE3C19B)	-0.266	-1.456	0.196	-2.747	87.402	-351.563	-82.97	15.18	-18.28	-54.390	-21.560	83.300	-0.73547	0.48053	-0.35184	-0.32294	31.0	13111	100
2025-3-27 18:41:40.417	WT901BLE68-01(48591DE3C19B)	-0.308	-1.456	0.196	-2.747	87.402	-351.563	-83.30	11.75	-19.71	-54.390	-21.560	83.300	-0.73547	0.48053	-0.35184	-0.32294	31.0	13111	100
2025-3-27 18:41:40.417	WT901BLE68-01(48591DE3C19B)	-0.308	-1.494	0.208	6.775	95.032	-355.652	-83.51	8.33	-21.14	-54.390	-21.560	83.300	-0.73547	0.48053	-0.35184	-0.32294	31.0	13111	100
2025-3-27 18:41:40.417	WT901BLE68-01(48591DE3C19B)	-0.368	-1.494	0.208	6.775	95.032	-355.652	-83.59	4.91	-22.59	-54.390	-21.560	83.300	-0.73547	0.48053	-0.35184	-0.32294	31.0	13111	100
2025-3-27 18:41:40.447	WT901BLE68-01(48591DE3C19B)	-0.368	-1.562	0.240	18.250	102.173	-354.004	-83.53	1.52	-24.05	-54.390	-21.560	83.300	-0.73547	0.48053	-0.35184	-0.32294	31.0	13111	100
2025-3-27 18:41:40.447	WT901BLE68-01(48591DE3C19B)	-0.444	-1.562	0.240	18.250	102.173	-354.004	-83.33	-1.82	-25.55	-54.390	-21.560	83.300	-0.73547	0.48053	-0.35184	-0.32294	31.0	13111	100
2025-3-27 18:41:40.447	WT901BLE68-01(48591DE3C19B)	-0.444	-1.561	0.252	34.729	107.056	-344.971	-82.96	-5.09	-27.08	-54.390	-21.560	83.300	-0.73547	0.48053	-0.35184	-0.32294	31.0	13111	100
2025-3-27 18:41:40.447	WT901BLE68-01(48591DE3C19B)	-0.528	-1.561	0.252	34.729	107.056	-344.971	-82.42	-8.27	-28.65	-54.390	-21.560	83.300	-0.71515	0.65012	-0.10999	0.23169	31.0	13111	100
2025-3-27 18:41:40.505	WT901BLE68-01(48591DE3C19B)	-0.528	-1.435	0.242	48.889	108.582	-329.102	-81.73	-11.34	-30.26	-54.390	-21.560	83.300	-0.71515	0.65012	-0.10999	0.23169	31.0	13111	100
2025-3-27 18:41:40.505	WT901BLE68-01(48591DE3C19B)	-0.611	-1.435	0.242	48.889	108.582	-329.102	-80.88	-14.28	-31.90	-54.390	-21.560	83.300	-0.71515	0.65012	-0.10999	0.23169	31.0	13111	100
2025-3-27 18:41:40.505	WT901BLE68-01(48591DE3C19B)	-0.611	-1.284	0.225	54.932	113.953	-307.495	-79.87	-16.95	-33.63	-54.390	-21.560	83.300	-0.71515	0.65012	-0.10999	0.23169	31.0	13111	100
2025-3-27 18:41:40.505	WT901BLE68-01(48591DE3C19B)	-0.682	-1.284	0.225	54.932	113.953	-307.495	-78.77	-19.57	-35.43	-54.390	-21.560	83.300	-0.71515	0.65012	-0.10999	0.23169	31.0	13111	100
2025-3-27 18:41:40.534	WT901BLE68-01(48591DE3C19B)	-0.682	-1.163	0.232	56.702	134.338	-276.367	-77.51	-21.78	-37.44	-54.390	-21.560	83.300	-0.71515	0.65012	-0.10999	0.23169	31.0	13111	100
2025-3-27 18:41:40.534	WT901BLE68-01(48591DE3C19B)	-0.783	-1.163	0.232	56.702	134.338	-276.367	-76.16	-23.93	-39.52	-54.390	-21.560	83.300	-0.71515	0.65012	-0.10999	0.23169	31.0	13111	100
2025-3-27 18:41:40.535	WT901BLE68-01(48591DE3C19B)	-0.783	-1.059	0.284	60.364	163.086	-230.774	-74.61	-25.50	-41.85	-54.390	-21.560	83.300	-0.71515	0.65012	-0.10999	0.23169	31.0	13111	100
2025-3-27 18:41:40.535	WT901BLE68-01(48591DE3C19B)	-0.843	-1.059	0.284	60.364	163.086	-230.774	-72.98	-26.99	-44.25	-54.390	-21.560	83.300	-0.71515	0.65012	-0.10999	0.23169	31.0	13111	100
2025-3-27 18:41:40.565	WT901BLE68-01(48591DE3C19B)	-0.843	-1.023	0.265	55.542	174.316	-177.734	-71.36	-27.87	-46.64	-54.390	-21.560	83.300	-0.71515	0.65012	-0.10999	0.23169	31.0	13111	100
2025-3-27 18:41:40.565	WT901BLE68-01(48591DE3C19B)	-0.921	-1.023	0.265	55.542	174.316	-177.734	-69.70	-28.67	-49.06	-54.390	-21.560	83.300	-0.71515	0.65012	-0.10999	0.23169	31.0	13111	100
2025-3-27 18:41:40.565	WT901BLE68-01(48591DE3C19B)	-0.921	-1.158	0.192	47.974	160.095	-121.948	-68.27	-28.94	-51.12	-54.390	-21.560	83.300	-0.71515	0.65012	-0.10999	0.23169	31.0	13111	100
2025-3-27 18:41:40.565	WT901BLE68-01(48591DE3C19B)	-1.029	-1.158	0.192	47.974	160.095	-121.948	-66.85	-29.15	-53.18	-54.390	-21.560	83.300	-0.71515	0.65012	-0.10999	0.23169	31.0	13111	100
2025-3-27 18:41:40.656	WT901BLE68-01(48591DE3C19B)	-1.029	-1.286	0.099	41.443	132.568	-68.481	-65.77	-28.94	-54.71	-54.390	-21.560	83.300	-0.71515	0.65012	-0.10999	0.23169	31.0	13111	100
2025-3-27 18:41:40.656	WT901BLE68-01(48591DE3C19B)	-1.078	-1.286	0.099	41.443	132.568	-68.481	-64.71	-28.71	-56.21	-54.390	-21.560	83.300	-0.71515	0.65012	-0.10999	0.23169	31.0	13111	100
2025-3-27 18:41:40.657	WT901BLE68-01(48591DE3C19B)	-1.078	-1.323	0.003	27.344	102.051	-22.217	-64.08	-28.16	-57.15	-54.390	-21.560	83.300	-0.71515	0.65012	-0.10999	0.23169	31.0	13111	100
2025-3-27 18:41:40.657	WT901BLE68-01(48591DE3C19B)	-1.064	-1.323	0.003	27.344	102.051	-22.217	-63.47	-27.61	-58.07	-54.390	-21.560	83.300	-0.71515	0.65012	-0.10999	0.23169	31.0	13111	100
2025-3-27 18:41:40.657	WT901BLE68-01(48591DE3C19B)	-1.064	-1.370	-0.035	7.324	73.792	15.442	-63.30	-26.85	-58.50	-54.390	-21.560	83.300	-0.71515	0.65012	-0.10999	0.23169	31.0	13111	100
2025-3-27 18:41:40.657	WT901BLE68-01(48591DE3C19B)	-1.072	-1.370	-0.035	7.324	73.792	15.442	-63.16	-26.08	-58.91	-54.390	-21.560	83.300	-0.71515	0.65012	-0.10999	0.23169	31.0	13111	100
2025-3-27 18:41:40.657	WT901BLE68-01(48591DE3C19B)	-1.072	-1.395	0.046	-15.930	45.654	44.128	-63.44	-25.19	-58.91	-54.390	-21.560	83.300	-0.71515	0.65012	-0.10999	0.23169	31.0	13111	100
2025-3-27 18:41:40.657	WT901BLE68-01(48591DE3C19B)	-1.037	-1.395	0.046	-15.930	45.654	44.128	-63.72	-24.30	-58.91	-54.390	-21.560	83.300	-0.71515	0.65012	-0.10999	0.23169	31.0	13111	100
2025-3-27 18:41:40.691	WT901BLE68-01(48591DE3C19B)	-1.037	-1.442	0.136	-36.377	13.611	71.045	-64.37	-23.31	-58.47	-54.390	-21.560	83.300	-0.71515	0.65012	-0.10999	0.23169	31.0	13111	100
2025-3-27 18:41:40.691	WT901BLE68-01(48591DE3C19B)	-0.894	-1.442	0.136	-36.377	13.611	71.045	-65.02	-22.32	-58.06	-54.390	-21.560	83.300	-0.71515	0.65012	-0.10999	0.23169	31.0	13111	100
2025-3-27 18:41:40.692	WT901BLE68-01(48591DE3C19B)	-0.894	-1.352	0.145	-49.988	-16.724	95.886	-65.93	-21.23	-57.25	-86.730	-36.358	76.636	-0.71515	0.65012	-0.10999	0.23169	31.0	13111	100
2025-3-27 18:41:40.692	WT901BLE68-01(48591DE3C19B)	-0.836	-1.352	0.145	-49.988	-16.724	95.886	-66.81	-20.14	-56.48	-86.730	-36.358	76.636	-0.71515	0.65012	-0.10999	0.23169	31.0	13111	100
2025-3-27 18:41:40.745	WT901BLE68-01(48591DE3C19B)	-0.836	-1.227	0.118	-65.430	-49.927	122.559	-67.97	-18.92	-55.30	-86.730	-36.358	76.636	-0.71515	0.65012	-0.10999	0.23169	31.0	13111	100
2025-3-27 18:41:40.746	WT901BLE68-01(48591DE3C19B)	-0.803	-1.227	0.118	-65.430	-49.927	122.559	-69.08	-17.69	-54.17	-86.730	-36.358	76.636	-0.71515	0.65012	-0.10999	0.23169	31.0	13111	100
2025-3-27 18:41:40.746	WT901BLE68-01(48591DE3C19B)	-0.803	-1.211	0.083	-76.965	-92.834	150.024	-70.42	-16.33	-52.55	-86.730	-36.358	76.636	-0.71515	0.65012	-0.10999	0.23169	31.0	13111	100
2025-3-27 18:41:40.746	WT901BLE68-01(48591DE3C19B)	-0.723	-1.211	0.083	-76.965	-92.834	150.024	-71.70	-14.94	-50.99	-86.730	-36.358	76.636	-0.71515	0.65012	-0.10999	0.23169	31.0	13111	100
2025-3-27 18:41:40.774	WT901BLE68-01(48591DE3C19B)	-0.723	-1.194	0.037	-84.351	-134.399	180.603	-73.13	-13.36	-48.97	-86.730	-36.358	76.636	-0.71515	0.65012	-0.10999	0.23169	31.0	13111	100
2025-3-27 18:41:40.774	WT901BLE68-01(48591DE3C19B)	-0.644	-1.194	0.037	-84.351	-134.399	180.603	-74.47	-11.75	-47.02	-86.730	-36.358	76.636	-0.71515	0.65012	-0.10999	0.23169	31.0	13111	100
2025-3-27 18:41:40.774	WT901BLE68-01(48591DE3C19B)	-0.644	-1.258	-0.021	-88.806	-172.974	213.806	-75.88	-9.88	-44.66	-86.730	-36.358	76.636	-0.71515	0.65012	-0.10999	0.23169	31.0	13111	100
2025-3-27 18:41:40.774	WT901BLE68-01(48591DE3C19B)	-0.561	-1.258	-0.021	-88.806	-172.974	213.806	-77.18	-7.97	-42.38	-86.730	-36.358	76.636	-0.71515	0.65012	-0.10999	0.23169	31.0	13111	100
2025-3-27 18:41:40.806	WT901BLE68-01(48591DE3C19B)	-0.561	-1.419	-0.035	-85.327	-209.167	244.690	-78.42	-5.80	-39.74	-86.730	-36.358	76.636	-0.71515	0.65012	-0.10999	0.23169	31.0	13111	100
2025-3-27 18:41:40.806	WT901BLE68-01(48591DE3C19B)	-0.447	-1.419	-0.035	-85.327	-209.167	244.690	-79.54	-3.60	-37.18	-86.730	-36.358	76.636	-0.71515	0.65012	-0.10999	0.23169	31.0	13111	100
2025-3-27 18:41:40.806	WT901BLE68-01(48591DE3C19B)	-0.447	-1.639	-0.019	-70.435	-235.352	270.142	-80.40	-1.16	-34.37	-86.730	-36.358	76.636	-0.71515	0.65012	-0.10999	0.23169	31.0	13111	100
2025-3-27 18:41:40.806	WT901BLE68-01(48591DE3C19B)	-0.322	-1.639	-0.019	-70.435	-235.352	270.142	-81.15	1.28	-31.61	-86.730	-36.358	76.636	-0.71515	0.65012	-0.10999	0.23169	31.0	13111	100
2025-3-27 18:41:40.865	WT901BLE68-01(48591DE3C19B)	-0.322	-1.780	0.022	-43.030	-243.225	289.001	-81.49	3.91	-28.80	-86.730	-36.358	76.636	-0.71515	0.65012	-0.10999	0.23169	31.0	13111	100
2025-3-27 18:41:40.865	WT901BLE68-01(48591DE3C19B)	-0.206	-1.780	0.022	-43.030	-243.225	289.001	-81.69	6.52	-25.99	-86.730	-36.358	76.636	-0.71515	0.65012	-0.10999	0.23169	31.0	13111	100
2025-3-27 18:41:40.865	WT901BLE68-01(48591DE3C19B)	-0.206	-1.791	0.076	-13.245	-227.051	299.377	-81.48	9.24	-23.35	-86.730	-36.358	76.636	-0.71515	0.65012	-0.10999	0.23169	31.0	13111	100
2025-3-27 18:41:40.865	WT901BLE68-01(48591DE3C19B)	-0.136	-1.791	0.076	-13.245	-227.051	299.377	-81.15	11.91	-20.68	-86.730	-36.358	76.636	-0.71515	0.65012	-0.10999	0.23169	31.0	13111	100
2025-3-27 18:41:40.895	WT901BLE68-01(48591DE3C19B)	-0.136	-1.735	0.114	9.094	-188.232	301.147	-80.54	14.62	-18.38	-86.730	-36.358	76.636	-0.76233	0.61478	-0.20044	0.02490	31.0	13111	100
2025-3-27 18:41:40.895	WT901BLE68-01(48591DE3C19B)	-0.137	-1.735	0.114	9.094	-188.232	301.147	-79.82	17.28	-16.03	-86.730	-36.358	76.636	-0.76233	0.61478	-0.20044	0.02490	31.0	13111	100
2025-3-27 18:41:40.895	WT901BLE68-01(48591DE3C19B)	-0.137	-1.664	0.110	24.597	-136.292	299.011	-78.99	19.96	-14.16	-86.730	-36.358	76.636	-0.76233	0.61478	-0.20044	0.02490	31.0	13111	100
2025-3-27 18:41:40.895	WT901BLE68-01(48591DE3C19B)	-0.129	-1.664	0.110	24.597	-136.292	299.011	-78.06	22.59	-12.23	-86.730	-36.358	76.636	-0.76233	0.61478	-0.20044	0.02490	31.0	13111	100
2025-3-27 18:41:40.926	WT901BLE68-01(48591DE3C19B)	-0.129	-1.488	0.083	34.363	-81.055	296.326	-77.16	25.26	-10.82	-86.730	-36.358	76.636	-0.76233	0.61478	-0.20044	0.02490	31.0	13111	100
2025-3-27 18:41:40.926	WT901BLE68-01(48591DE3C19B)	-0.125	-1.488	0.083	34.363	-81.055	296.326	-76.16	27.89	-9.34	-86.730	-36.358	76.636	-0.76233	0.61478	-0.20044	0.02490	31.0	13111	100
2025-3-27 18:41:40.926	WT901BLE68-01(48591DE3C19B)	-0.125	-1.294	0.041	32.410	-36.072	295.349	-75.33	30.57	-8.28	-86.730	-36.358	76.636	-0.76233	0.61478	-0.20044	0.02490	31.0	13111	100
2025-3-27 18:41:40.926	WT901BLE68-01(48591DE3C19B)	-0.125	-1.294	0.041	32.410	-36.072	295.349	-74.43	33.23	-7.15	-86.730	-36.358	76.636	-0.76233	0.61478	-0.20044	0.02490	31.0	13111	100
2025-3-27 18:41:40.993	WT901BLE68-01(48591DE3C19B)	-0.137	-1.209	0.015	21.973	-6.958	294.250	-73.73	35.92	-6.30	-86.730	-36.358	76.636	-0.76233	0.61478	-0.20044	0.02490	31.0	13111	100
2025-3-27 18:41:40.993	WT901BLE68-01(48591DE3C19B)	-0.137	-1.248	0.049	10.559	0.916	291.565	-73.06	38.58	-5.42	-86.730	-36.358	76.636	-0.76233	0.61478	-0.20044	0.02490	31.0	13111	100
2025-3-27 18:41:40.993	WT901BLE68-01(48591DE3C19B)	-0.178	-1.248	0.049	10.559	0.916	291.565	-72.40	41.22	-4.54	-86.730	-36.358	76.636	-0.76233	0.61478	-0.20044	0.02490	31.0	13111	100
2025-3-27 18:41:40.993	WT901BLE68-01(48591DE3C19B)	-0.178	-1.434	0.063	3.906	-4.944	282.349	-71.67	43.78	-3.56	-86.730	-36.358	76.636	-0.76233	0.61478	-0.20044	0.02490	31.0	13111	100
2025-3-27 18:41:41.17	WT901BLE68-01(48591DE3C19B)	-0.182	-1.434	0.063	3.906	-4.944	282.349	-70.88	46.26	-2.48	-86.730	-36.358	76.636	-0.76233	0.61478	-0.20044	0.02490	31.0	13111	100
2025-3-27 18:41:41.18	WT901BLE68-01(48591DE3C19B)	-0.182	-1.536	0.034	9.277	-19.958	267.273	-69.90	48.61	-1.23	-86.730	-36.358	76.636	-0.76233	0.61478	-0.20044	0.02490	31.0	13111	100
2025-3-27 18:41:41.18	WT901BLE68-01(48591DE3C19B)	-0.091	-1.536	0.034	9.277	-19.958	267.273	-68.72	50.84	0.20	-86.730	-36.358	76.636	-0.76233	0.61478	-0.20044	0.02490	31.0	13111	100
2025-3-27 18:41:41.18	WT901BLE68-01(48591DE3C19B)	-0.091	-1.558	-0.032	12.268	-22.156	245.361	-67.42	52.93	1.72	-86.730	-36.358	76.636	-0.76233	0.61478	-0.20044	0.02490	31.0	13111	100
2025-3-27 18:41:41.47	WT901BLE68-01(48591DE3C19B)	-0.003	-1.558	-0.032	12.268	-22.156	245.361	-66.00	54.88	3.34	-86.730	-36.358	76.636	-0.76233	0.61478	-0.20044	0.02490	31.0	13111	100
2025-3-27 18:41:41.48	WT901BLE68-01(48591DE3C19B)	-0.003	-1.570	-0.124	12.451	-9.155	214.661	-64.61	56.68	4.88	-86.730	-36.358	76.636	-0.76233	0.61478	-0.20044	0.02490	31.0	13111	100
2025-3-27 18:41:41.48	WT901BLE68-01(48591DE3C19B)	-0.002	-1.570	-0.124	12.451	-9.155	214.661	-63.28	58.33	6.34	-55.958	-16.072	86.828	-0.76233	0.61478	-0.20044	0.02490	31.0	13111	100
2025-3-27 18:41:41.48	WT901BLE68-01(48591DE3C19B)	-0.002	-1.546	-0.132	4.944	-6.958	176.880	-62.01	59.80	7.73	-55.958	-16.072	86.828	-0.76233	0.61478	-0.20044	0.02490	31.0	13111	100
2025-3-27 18:41:41.105	WT901BLE68-01(48591DE3C19B)	0.022	-1.546	-0.132	4.944	-6.958	176.880	-60.85	61.07	9.03	-55.958	-16.072	86.828	-0.76233	0.61478	-0.20044	0.02490	31.0	13111	100
2025-3-27 18:41:41.105	WT901BLE68-01(48591DE3C19B)	0.022	-1.590	-0.073	-4.150	-12.329	133.179	-59.80	62.13	10.24	-55.958	-16.072	86.828	-0.76233	0.61478	-0.20044	0.02490	31.0	13111	100
2025-3-27 18:41:41.105	WT901BLE68-01(48591DE3C19B)	0.064	-1.590	-0.073	-4.150	-12.329	133.179	-58.90	62.97	11.33	-55.958	-16.072	86.828	-0.76233	0.61478	-0.20044	0.02490	31.0	13111	100
2025-3-27 18:41:41.105	WT901BLE68-01(48591DE3C19B)	0.064	-1.583	0.058	-7.324	-19.287	84.900	-58.16	63.57	12.26	-55.958	-16.072	86.828	-0.76233	0.61478	-0.20044	0.02490	31.0	13111	100
2025-3-27 18:41:41.134	WT901BLE68-01(48591DE3C19B)	0.080	-1.583	0.058	-7.324	-19.287	84.900	-57.60	63.93	12.98	-55.958	-16.072	86.828	-0.76233	0.61478	-0.20044	0.02490	31.0	13111	100
2025-3-27 18:41:41.134	WT901BLE68-01(48591DE3C19B)	0.080	-1.513	0.190	-8.606	-25.391	35.461	-57.26	64.07	13.47	-55.958	-16.072	86.828	-0.76233	0.61478	-0.20044	0.02490	31.0	13111	100
2025-3-27 18:41:41.134	WT901BLE68-01(48591DE3C19B)	0.090	-1.513	0.190	-8.606	-25.391	35.461	-57.15	63.97	13.72	-55.958	-16.072	86.828	-0.76233	0.61478	-0.20044	0.02490	31.0	13111	100
2025-3-27 18:41:41.134	WT901BLE68-01(48591DE3C19B)	0.090	-1.447	0.240	-10.071	-24.170	-12.268	-57.31	63.67	13.66	-55.958	-16.072	86.828	-0.76233	0.61478	-0.20044	0.02490	31.0	13111	100
2025-3-27 18:41:41.165	WT901BLE68-01(48591DE3C19B)	0.122	-1.447	0.240	-10.071	-24.170	-12.268	-57.73	63.18	13.31	-55.958	-16.072	86.828	-0.76233	0.61478	-0.20044	0.02490	31.0	13111	100
2025-3-27 18:41:41.165	WT901BLE68-01(48591DE3C19B)	0.122	-1.355	0.189	-13.672	-12.451	-58.777	-58.49	62.51	12.61	-55.958	-16.072	86.828	-0.76233	0.61478	-0.20044	0.02490	31.0	13111	100
2025-3-27 18:41:41.165	WT901BLE68-01(48591DE3C19B)	0.104	-1.355	0.189	-13.672	-12.451	-58.777	-59.54	61.67	11.59	-55.958	-16.072	86.828	-0.76233	0.61478	-0.20044	0.02490	31.0	13111	100
2025-3-27 18:41:41.165	WT901BLE68-01(48591DE3C19B)	0.104	-1.234	0.175	-20.447	1.892	-106.079	-60.88	60.66	10.26	-55.958	-16.072	86.828	-0.76233	0.61478	-0.20044	0.02490	31.0	13111	100
2025-3-27 18:41:41.227	WT901BLE68-01(48591DE3C19B)	0.050	-1.234	0.175	-20.447	1.892	-106.079	-62.45	59.46	8.69	-55.958	-16.072	86.828	-0.76233	0.61478	-0.20044	0.02490	31.0	13111	100
2025-3-27 18:41:41.228	WT901BLE68-01(48591DE3C19B)	0.050	-1.181	0.205	-26.611	13.550	-152.100	-64.18	58.06	6.95	-55.958	-16.072	86.828	-0.76233	0.61478	-0.20044	0.02490	31.0	13111	100
2025-3-27 18:41:41.228	WT901BLE68-01(48591DE3C19B)	-0.020	-1.181	0.205	-26.611	13.550	-152.100	-66.01	56.45	5.10	-55.958	-16.072	86.828	-0.76233	0.61478	-0.20044	0.02490	31.0	13111	100
2025-3-27 18:41:41.228	WT901BLE68-01(48591DE3C19B)	-0.020	-1.155	0.232	-26.733	24.780	-192.505	-67.84	54.66	3.19	-55.958	-16.072	86.828	-0.76233	0.61478	-0.20044	0.02490	31.0	13111	100
2025-3-27 18:41:41.257	WT901BLE68-01(48591DE3C19B)	-0.032	-1.155	0.232	-26.733	24.780	-192.505	-69.65	52.68	1.27	-55.958	-16.072	86.828	-0.76233	0.61478	-0.20044	0.02490	31.0	13111	100
2025-3-27 18:41:41.257	WT901BLE68-01(48591DE3C19B)	-0.032	-1.141	0.252	-23.132	42.480	-226.257	-71.42	50.55	-0.68	-55.958	-16.072	86.828	-0.76233	0.61478	-0.20044	0.02490	31.0	13111	100
2025-3-27 18:41:41.257	WT901BLE68-01(48591DE3C19B)	-0.028	-1.141	0.252	-23.132	42.480	-226.257	-73.13	48.26	-2.64	-55.958	-16.072	86.828	-0.76233	0.61478	-0.20044	0.02490	31.0	13111	100
2025-3-27 18:41:41.257	WT901BLE68-01(48591DE3C19B)	-0.028	-1.138	0.256	-20.935	59.631	-253.479	-74.75	45.85	-4.58	-55.958	-16.072	86.828	-0.74072	0.54623	-0.33163	-0.20697	31.0	13111	100
2025-3-27 18:41:41.291	WT901BLE68-01(48591DE3C19B)	-0.048	-1.138	0.256	-20.935	59.631	-253.479	-76.28	43.30	-6.50	-55.958	-16.072	86.828	-0.74072	0.54623	-0.33163	-0.20697	31.0	13111	100
2025-3-27 18:41:41.292	WT901BLE68-01(48591DE3C19B)	-0.048	-1.194	0.229	-18.433	73.608	-277.283	-77.71	40.63	-8.38	-55.958	-16.072	86.828	-0.74072	0.54623	-0.33163	-0.20697	31.0	13111	100
2025-3-27 18:41:41.292	WT901BLE68-01(48591DE3C19B)	-0.134	-1.194	0.229	-18.433	73.608	-277.283	-79.02	37.84	-10.21	-55.958	-16.072	86.828	-0.74072	0.54623	-0.33163	-0.20697	31.0	13111	100
2025-3-27 18:41:41.292	WT901BLE68-01(48591DE3C19B)	-0.134	-1.290	0.229	-10.132	82.458	-298.157	-80.17	34.95	-11.96	-55.958	-16.072	86.828	-0.74072	0.54623	-0.33163	-0.20697	31.0	13111	100
2025-3-27 18:41:41.346	WT901BLE68-01(48591DE3C19B)	-0.166	-1.290	0.229	-10.132	82.458	-298.157	-81.17	31.96	-13.66	-55.958	-16.072	86.828	-0.74072	0.54623	-0.33163	-0.20697	31.0	13111	100
2025-3-27 18:41:41.346	WT901BLE68-01(48591DE3C19B)	-0.166	-1.369	0.255	2.197	105.286	-316.345	-82.05	28.89	-15.38	-55.958	-16.072	86.828	-0.74072	0.54623	-0.33163	-0.20697	31.0	13111	100
2025-3-27 18:41:41.346	WT901BLE68-01(48591DE3C19B)	-0.232	-1.369	0.255	2.197	105.286	-316.345	-82.80	25.75	-17.13	-55.958	-16.072	86.828	-0.74072	0.54623	-0.33163	-0.20697	31.0	13111	100
2025-3-27 18:41:41.346	WT901BLE68-01(48591DE3C19B)	-0.232	-1.444	0.253	15.198	134.766	-328.796	-83.42	22.56	-18.96	-55.958	-16.072	86.828	-0.74072	0.54623	-0.33163	-0.20697	31.0	13111	100
2025-3-27 18:41:41.374	WT901BLE68-01(48591DE3C19B)	-0.358	-1.444	0.253	15.198	134.766	-328.796	-83.92	19.34	-20.88	-55.958	-16.072	86.828	-0.74072	0.54623	-0.33163	-0.20697	31.0	13111	100
2025-3-27 18:41:41.374	WT901BLE68-01(48591DE3C19B)	-0.358	-1.530	0.235	29.968	154.480	-336.670	-84.25	16.10	-22.83	-55.958	-16.072	86.828	-0.74072	0.54623	-0.33163	-0.20697	31.0	13111	100
2025-3-27 18:41:41.374	WT901BLE68-01(48591DE3C19B)	-0.505	-1.530	0.235	29.968	154.480	-336.670	-84.41	12.85	-24.83	-55.958	-16.072	86.828	-0.74072	0.54623	-0.33163	-0.20697	31.0	13111	100
2025-3-27 18:41:41.374	WT901BLE68-01(48591DE3C19B)	-0.505	-1.572	0.198	44.922	162.842	-337.158	-84.40	9.62	-26.83	-55.958	-16.072	86.828	-0.74072	0.54623	-0.33163	-0.20697	31.0	13111	100
2025-3-27 18:41:41.407	WT901BLE68-01(48591DE3C19B)	-0.610	-1.572	0.198	44.922	162.842	-337.158	-84.20	6.43	-28.86	-55.958	-16.072	86.828	-0.74072	0.54623	-0.33163	-0.20697	31.0	13111	100
2025-3-27 18:41:41.407	WT901BLE68-01(48591DE3C19B)	-0.610	-1.532	0.188	57.495	160.156	-325.867	-83.84	3.32	-30.86	-55.958	-16.072	86.828	-0.74072	0.54623	-0.33163	-0.20697	31.0	13111	100
2025-3-27 18:41:41.407	WT901BLE68-01(48591DE3C19B)	-0.666	-1.532	0.188	57.495	160.156	-325.867	-83.31	0.32	-32.84	-55.958	-16.072	86.828	-0.74072	0.54623	-0.33163	-0.20697	31.0	13111	100
2025-3-27 18:41:41.408	WT901BLE68-01(48591DE3C19B)	-0.666	-1.419	0.189	66.833	149.109	-305.054	-82.60	-2.44	-34.72	-55.958	-16.072	86.828	-0.74072	0.54623	-0.33163	-0.20697	31.0	13111	100
2025-3-27 18:41:41.465	WT901BLE68-01(48591DE3C19B)	-0.713	-1.419	0.189	66.833	149.109	-305.054	-81.80	-5.16	-36.62	-55.958	-16.072	86.828	-0.74072	0.54623	-0.33163	-0.20697	31.0	13111	100
2025-3-27 18:41:41.465	WT901BLE68-01(48591DE3C19B)	-0.713	-1.266	0.209	72.327	133.911	-281.006	-80.89	-7.60	-38.38	-55.958	-16.072	86.828	-0.74072	0.54623	-0.33163	-0.20697	31.0	13111	100
2025-3-27 18:41:41.465	WT901BLE68-01(48591DE3C19B)	-0.774	-1.266	0.209	72.327	133.911	-281.006	-79.89	-10.00	-40.17	-55.958	-16.072	86.828	-0.74072	0.54623	-0.33163	-0.20697	31.0	13111	100
2025-3-27 18:41:41.465	WT901BLE68-01(48591DE3C19B)	-0.774	-1.154	0.273	72.083	111.084	-255.859	-78.89	-12.14	-41.74	-55.958	-16.072	86.828	-0.74072	0.54623	-0.33163	-0.20697	31.0	13111	100
2025-3-27 18:41:41.494	WT901BLE68-01(48591DE3C19B)	-0.809	-1.154	0.273	72.083	111.084	-255.859	-77.82	-14.23	-43.34	-76.244	-29.694	83.006	-0.74072	0.54623	-0.33163	-0.20697	31.0	13111	100
2025-3-27 18:41:41.494	WT901BLE68-01(48591DE3C19B)	-0.809	-1.170	0.299	67.871	87.524	-228.088	-76.81	-16.05	-44.69	-76.244	-29.694	83.006	-0.74072	0.54623	-0.33163	-0.20697	31.0	13111	100
2025-3-27 18:41:41.495	WT901BLE68-01(48591DE3C19B)	-0.829	-1.170	0.299	67.871	87.524	-228.088	-75.75	-17.83	-46.08	-76.244	-29.694	83.006	-0.74072	0.54623	-0.33163	-0.20697	31.0	13111	100
2025-3-27 18:41:41.495	WT901BLE68-01(48591DE3C19B)	-0.829	-1.186	0.276	66.833	70.374	-197.449	-74.73	-19.32	-47.25	-76.244	-29.694	83.006	-0.74072	0.54623	-0.33163	-0.20697	31.0	13111	100
2025-3-27 18:41:41.526	WT901BLE68-01(48591DE3C19B)	-0.939	-1.186	0.276	66.833	70.374	-197.449	-73.69	-20.77	-48.44	-76.244	-29.694	83.006	-0.74072	0.54623	-0.33163	-0.20697	31.0	13111	100
2025-3-27 18:41:41.526	WT901BLE68-01(48591DE3C19B)	-0.939	-1.168	0.246	64.941	56.641	-164.429	-72.71	-21.91	-49.43	-76.244	-29.694	83.006	-0.74072	0.54623	-0.33163	-0.20697	31.0	13111	100
2025-3-27 18:41:41.526	WT901BLE68-01(48591DE3C19B)	-1.080	-1.168	0.246	64.941	56.641	-164.429	-71.72	-23.03	-50.43	-76.244	-29.694	83.006	-0.74072	0.54623	-0.33163	-0.20697	31.0	13111	100
2025-3-27 18:41:41.526	WT901BLE68-01(48591DE3C19B)	-1.080	-1.157	0.194	59.021	38.696	-130.798	-70.89	-23.85	-51.15	-76.244	-29.694	83.006	-0.74072	0.54623	-0.33163	-0.20697	31.0	13111	100
2025-3-27 18:41:41.592	WT901BLE68-01(48591DE3C19B)	-1.102	-1.157	0.194	59.021	38.696	-130.798	-70.06	-24.65	-51.88	-76.244	-29.694	83.006	-0.74072	0.54623	-0.33163	-0.20697	31.0	13111	100
2025-3-27 18:41:41.592	WT901BLE68-01(48591DE3C19B)	-1.102	-1.167	0.125	50.537	20.935	-96.069	-69.44	-25.18	-52.29	-76.244	-29.694	83.006	-0.74072	0.54623	-0.33163	-0.20697	31.0	13111	100
2025-3-27 18:41:41.592	WT901BLE68-01(48591DE3C19B)	-1.075	-1.167	0.125	50.537	20.935	-96.069	-68.82	-25.69	-52.70	-76.244	-29.694	83.006	-0.74072	0.54623	-0.33163	-0.20697	31.0	13111	100
2025-3-27 18:41:41.592	WT901BLE68-01(48591DE3C19B)	-1.075	-1.144	0.085	38.818	9.583	-60.486	-68.43	-25.89	-52.85	-76.244	-29.694	83.006	-0.74072	0.54623	-0.33163	-0.20697	31.0	13111	100
2025-3-27 18:41:41.614	WT901BLE68-01(48591DE3C19B)	-1.019	-1.144	0.085	38.818	9.583	-60.486	-68.06	-26.10	-53.00	-76.244	-29.694	83.006	-0.74072	0.54623	-0.33163	-0.20697	31.0	13111	100
2025-3-27 18:41:41.615	WT901BLE68-01(48591DE3C19B)	-1.019	-1.120	0.096	18.860	2.136	-24.109	-67.99	-25.99	-52.91	-76.244	-29.694	83.006	-0.74072	0.54623	-0.33163	-0.20697	31.0	13111	100
2025-3-27 18:41:41.615	WT901BLE68-01(48591DE3C19B)	-0.933	-1.120	0.096	18.860	2.136	-24.109	-67.92	-25.88	-52.82	-76.244	-29.694	83.006	-0.74072	0.54623	-0.33163	-0.20697	31.0	13111	100
2025-3-27 18:41:41.615	WT901BLE68-01(48591DE3C19B)	-0.933	-1.098	0.157	-1.343	3.174	11.902	-68.12	-25.44	-52.59	-76.244	-29.694	83.006	-0.74072	0.54623	-0.33163	-0.20697	31.0	13111	100
2025-3-27 18:41:41.647	WT901BLE68-01(48591DE3C19B)	-0.875	-1.098	0.157	-1.343	3.174	11.902	-68.31	-24.99	-52.36	-76.244	-29.694	83.006	-0.74072	0.54623	-0.33163	-0.20697	31.0	13111	100
2025-3-27 18:41:41.647	WT901BLE68-01(48591DE3C19B)	-0.875	-1.061	0.186	-20.691	6.042	46.082	-68.74	-24.21	-52.03	-76.244	-29.694	83.006	-0.74072	0.54623	-0.33163	-0.20697	31.0	13111	100
2025-3-27 18:41:41.647	WT901BLE68-01(48591DE3C19B)	-0.839	-1.061	0.186	-20.691	6.042	46.082	-69.16	-23.44	-51.71	-76.244	-29.694	83.006	-0.74072	0.54623	-0.33163	-0.20697	31.0	13111	100
2025-3-27 18:41:41.647	WT901BLE68-01(48591DE3C19B)	-0.839	-1.119	0.145	-37.354	-1.770	77.026	-69.81	-22.41	-51.20	-76.244	-29.694	83.006	-0.74072	0.54623	-0.33163	-0.20697	31.0	13111	100
2025-3-27 18:41:41.705	WT901BLE68-01(48591DE3C19B)	-0.804	-1.119	0.145	-37.354	-1.770	77.026	-70.44	-21.37	-50.71	-76.244	-29.694	83.006	-0.74072	0.54623	-0.33163	-0.20697	31.0	13111	100
2025-3-27 18:41:41.705	WT901BLE68-01(48591DE3C19B)	-0.804	-1.098	0.064	-47.791	-18.066	106.689	-71.26	-20.12	-49.97	-76.244	-29.694	83.006	-0.68237	0.57983	-0.11362	0.43024	31.0	13111	100
2025-3-27 18:41:41.705	WT901BLE68-01(48591DE3C19B)	-0.790	-1.098	0.064	-47.791	-18.066	106.689	-72.05	-18.85	-49.26	-76.244	-29.694	83.006	-0.68237	0.57983	-0.11362	0.43024	31.0	13111	100
2025-3-27 18:41:41.706	WT901BLE68-01(48591DE3C19B)	-0.790	-1.107	-0.000	-60.486	-37.231	136.658	-73.03	-17.36	-48.30	-76.244	-29.694	83.006	-0.68237	0.57983	-0.11362	0.43024	31.0	13111	100
2025-3-27 18:41:41.734	WT901BLE68-01(48591DE3C19B)	-0.803	-1.107	-0.000	-60.486	-37.231	136.658	-73.97	-15.87	-47.37	-76.244	-29.694	83.006	-0.68237	0.57983	-0.11362	0.43024	31.0	13111	100
2025-3-27 18:41:41.734	WT901BLE68-01(48591DE3C19B)	-0.803	-1.235	-0.019	-70.923	-66.284	169.312	-75.08	-14.13	-46.11	-76.244	-29.694	83.006	-0.68237	0.57983	-0.11362	0.43024	31.0	13111	100
2025-3-27 18:41:41.734	WT901BLE68-01(48591DE3C19B)	-0.729	-1.235	-0.019	-70.923	-66.284	169.312	-76.14	-12.38	-44.90	-76.244	-29.694	83.006	-0.68237	0.57983	-0.11362	0.43024	31.0	13111	100
2025-3-27 18:41:41.735	WT901BLE68-01(48591DE3C19B)	-0.729	-1.361	-0.007	-75.867	-101.440	202.087	-77.28	-10.38	-43.31	-76.244	-29.694	83.006	-0.68237	0.57983	-0.11362	0.43024	31.0	13111	100
2025-3-27 18:41:41.765	WT901BLE68-01(48591DE3C19B)	-0.568	-1.361	-0.007	-75.867	-101.440	202.087	-78.35	-8.38	-41.79	-76.244	-29.694	83.006	-0.68237	0.57983	-0.11362	0.43024	31.0	13111	100
2025-3-27 18:41:41.765	WT901BLE68-01(48591DE3C19B)	-0.568	-1.477	0.001	-75.012	-130.310	233.582	-79.38	-6.10	-39.97	-76.244	-29.694	83.006	-0.68237	0.57983	-0.11362	0.43024	31.0	13111	100
2025-3-27 18:41:41.765	WT901BLE68-01(48591DE3C19B)	-0.429	-1.477	0.001	-75.012	-130.310	233.582	-80.33	-3.82	-38.22	-76.244	-29.694	83.006	-0.68237	0.57983	-0.11362	0.43024	31.0	13111	100
2025-3-27 18:41:41.765	WT901BLE68-01(48591DE3C19B)	-0.429	-1.604	0.014	-68.176	-144.470	259.949	-81.14	-1.30	-36.35	-76.244	-29.694	83.006	-0.68237	0.57983	-0.11362	0.43024	31.0	13111	100
2025-3-27 18:41:41.827	WT901BLE68-01(48591DE3C19B)	-0.349	-1.604	0.014	-68.176	-144.470	259.949	-81.86	1.22	-34.52	-76.244	-29.694	83.006	-0.68237	0.57983	-0.11362	0.43024	31.0	13111	100
2025-3-27 18:41:41.827	WT901BLE68-01(48591DE3C19B)	-0.349	-1.679	0.052	-53.589	-146.118	278.687	-82.34	3.93	-32.70	-76.244	-29.694	83.006	-0.68237	0.57983	-0.11362	0.43024	31.0	13111	100
2025-3-27 18:41:41.828	WT901BLE68-01(48591DE3C19B)	-0.303	-1.679	0.052	-53.589	-146.118	278.687	-82.74	6.62	-30.91	-76.244	-29.694	83.006	-0.68237	0.57983	-0.11362	0.43024	31.0	13111	100
2025-3-27 18:41:41.828	WT901BLE68-01(48591DE3C19B)	-0.303	-1.680	0.108	-37.781	-137.207	289.490	-82.90	9.41	-29.21	-76.244	-29.694	83.006	-0.68237	0.57983	-0.11362	0.43024	31.0	13111	100
2025-3-27 18:41:41.857	WT901BLE68-01(48591DE3C19B)	-0.277	-1.680	0.108	-37.781	-137.207	289.490	-82.97	12.18	-27.52	-76.244	-29.694	83.006	-0.68237	0.57983	-0.11362	0.43024	31.0	13111	100
2025-3-27 18:41:41.857	WT901BLE68-01(48591DE3C19B)	-0.277	-1.639	0.138	-23.682	-117.615	294.617	-82.85	15.00	-26.01	-76.244	-29.694	83.006	-0.68237	0.57983	-0.11362	0.43024	31.0	13111	100
2025-3-27 18:41:41.857	WT901BLE68-01(48591DE3C19B)	-0.251	-1.639	0.138	-23.682	-117.615	294.617	-82.66	17.80	-24.49	-76.244	-29.694	83.006	-0.68237	0.57983	-0.11362	0.43024	31.0	13111	100
2025-3-27 18:41:41.857	WT901BLE68-01(48591DE3C19B)	-0.233	-1.512	0.158	-12.390	-87.097	296.021	-82.38	20.62	-23.26	-79.380	-27.342	80.948	-0.68237	0.57983	-0.11362	0.43024	31.0	13111	100
2025-3-27 18:41:41.915	WT901BLE68-01(48591DE3C19B)	-0.233	-1.402	0.141	-7.935	-51.453	294.189	-82.07	23.42	-22.20	-79.380	-27.342	80.948	-0.68237	0.57983	-0.11362	0.43024	31.0	13111	100
2025-3-27 18:41:41.916	WT901BLE68-01(48591DE3C19B)	-0.224	-1.402	0.141	-7.935	-51.453	294.189	-81.76	26.21	-21.30	-79.380	-27.342	80.948	-0.68237	0.57983	-0.11362	0.43024	31.0	13111	100
2025-3-27 18:41:41.916	WT901BLE68-01(48591DE3C19B)	-0.224	-1.294	0.108	-6.531	-22.156	290.955	-81.46	28.99	-20.53	-79.380	-27.342	80.948	-0.68237	0.57983	-0.11362	0.43024	31.0	13111	100
2025-3-27 18:41:41.916	WT901BLE68-01(48591DE3C19B)	-0.227	-1.294	0.108	-6.531	-22.156	290.955	-81.19	31.74	-19.90	-79.380	-27.342	80.948	-0.68237	0.57983	-0.11362	0.43024	31.0	13111	100
2025-3-27 18:41:41.945	WT901BLE68-01(48591DE3C19B)	-0.227	-1.227	0.100	-10.498	-9.827	286.682	-80.94	34.47	-19.32	-79.380	-27.342	80.948	-0.68237	0.57983	-0.11362	0.43024	31.0	13111	100
2025-3-27 18:41:41.945	WT901BLE68-01(48591DE3C19B)	-0.247	-1.227	0.100	-10.498	-9.827	286.682	-80.71	37.17	-18.79	-79.380	-27.342	80.948	-0.68237	0.57983	-0.11362	0.43024	31.0	13111	100
2025-3-27 18:41:41.945	WT901BLE68-01(48591DE3C19B)	-0.247	-1.285	0.119	-15.869	-14.832	280.212	-80.45	39.80	-18.20	-79.380	-27.342	80.948	-0.68237	0.57983	-0.11362	0.43024	31.0	13111	100
2025-3-27 18:41:41.945	WT901BLE68-01(48591DE3C19B)	-0.252	-1.285	0.119	-15.869	-14.832	280.212	-80.15	42.39	-17.55	-79.380	-27.342	80.948	-0.68237	0.57983	-0.11362	0.43024	31.0	13111	100
2025-3-27 18:41:41.975	WT901BLE68-01(48591DE3C19B)	-0.252	-1.373	0.136	-14.160	-31.128	270.508	-79.71	44.88	-16.75	-79.380	-27.342	80.948	-0.68237	0.57983	-0.11362	0.43024	31.0	13111	100
2025-3-27 18:41:41.975	WT901BLE68-01(48591DE3C19B)	-0.220	-1.373	0.136	-14.160	-31.128	270.508	-79.12	47.30	-15.80	-79.380	-27.342	80.948	-0.68237	0.57983	-0.11362	0.43024	31.0	13111	100
2025-3-27 18:41:41.975	WT901BLE68-01(48591DE3C19B)	-0.220	-1.457	0.163	-8.972	-49.683	255.920	-78.33	49.61	-14.64	-79.380	-27.342	80.948	-0.68237	0.57983	-0.11362	0.43024	31.0	13111	100
2025-3-27 18:41:41.975	WT901BLE68-01(48591DE3C19B)	-0.158	-1.457	0.163	-8.972	-49.683	255.920	-77.31	51.79	-13.26	-79.380	-27.342	80.948	-0.68237	0.57983	-0.11362	0.43024	31.0	13111	100
2025-3-27 18:41:42.37	WT901BLE68-01(48591DE3C19B)	-0.158	-1.602	0.128	-2.319	-58.716	236.084	-76.09	53.84	-11.72	-79.380	-27.342	80.948	-0.68237	0.57983	-0.11362	0.43024	31.0	13111	100
2025-3-27 18:41:42.37	WT901BLE68-01(48591DE3C19B)	-0.046	-1.602	0.128	-2.319	-58.716	236.084	-74.66	55.74	-9.99	-79.380	-27.342	80.948	-0.68237	0.57983	-0.11362	0.43024	31.0	13111	100
2025-3-27 18:41:42.37	WT901BLE68-01(48591DE3C19B)	-0.046	-1.698	0.039	5.493	-51.514	209.595	-73.14	57.49	-8.24	-79.380	-27.342	80.948	-0.68237	0.57983	-0.11362	0.43024	31.0	13111	100
2025-3-27 18:41:42.37	WT901BLE68-01(48591DE3C19B)	0.108	-1.698	0.039	5.493	-51.514	209.595	-71.54	59.07	-6.47	-79.380	-27.342	80.948	-0.68237	0.57983	-0.11362	0.43024	31.0	13111	100
2025-3-27 18:41:42.95	WT901BLE68-01(48591DE3C19B)	0.108	-1.780	-0.050	8.179	-26.611	174.805	-70.07	60.50	-4.89	-79.380	-27.342	80.948	-0.68237	0.57983	-0.11362	0.43024	31.0	13111	100
2025-3-27 18:41:42.95	WT901BLE68-01(48591DE3C19B)	0.354	-1.780	-0.050	8.179	-26.611	174.805	-68.80	61.78	-3.56	-79.380	-27.342	80.948	-0.68237	0.57983	-0.11362	0.43024	31.0	13111	100
2025-3-27 18:41:42.95	WT901BLE68-01(48591DE3C19B)	0.354	-1.926	-0.091	18.005	24.841	130.676	-67.99	62.91	-2.83	-79.380	-27.342	80.948	-0.68237	0.57983	-0.11362	0.43024	31.0	13111	100
2025-3-27 18:41:42.95	WT901BLE68-01(48591DE3C19B)	0.402	-1.926	-0.091	18.005	24.841	130.676	-67.75	63.93	-2.79	-79.380	-27.342	80.948	-0.70984	0.45996	-0.45416	-0.27963	31.0	13111	100
2025-3-27 18:41:42.97	WT901BLE68-01(48591DE3C19B)	0.402	-1.773	-0.038	24.109	63.293	86.731	-68.02	64.80	-3.35	-79.380	-27.342	80.948	-0.70984	0.45996	-0.45416	-0.27963	31.0	13111	100
2025-3-27 18:41:42.97	WT901BLE68-01(48591DE3C19B)	0.214	-1.773	-0.038	24.109	63.293	86.731	-68.87	65.53	-4.56	-79.380	-27.342	80.948	-0.70984	0.45996	-0.45416	-0.27963	31.0	13111	100
2025-3-27 18:41:42.97	WT901BLE68-01(48591DE3C19B)	0.214	-1.539	0.056	13.428	65.308	34.546	-70.05	66.00	-6.09	-79.380	-27.342	80.948	-0.70984	0.45996	-0.45416	-0.27963	31.0	13111	100
2025-3-27 18:41:42.97	WT901BLE68-01(48591DE3C19B)	0.056	-1.539	0.056	13.428	65.308	34.546	-71.55	66.21	-7.89	-79.380	-27.342	80.948	-0.70984	0.45996	-0.45416	-0.27963	31.0	13111	100
2025-3-27 18:41:42.192	WT901BLE68-01(48591DE3C19B)	0.056	-1.384	0.252	10.132	53.284	-23.499	-73.13	66.09	-9.77	-79.380	-27.342	80.948	-0.70984	0.45996	-0.45416	-0.27963	31.0	13111	100
2025-3-27 18:41:42.192	WT901BLE68-01(48591DE3C19B)	0.039	-1.384	0.252	10.132	53.284	-23.499	-74.73	65.67	-11.67	-79.380	-27.342	80.948	-0.70984	0.45996	-0.45416	-0.27963	31.0	13111	100
2025-3-27 18:41:42.192	WT901BLE68-01(48591DE3C19B)	0.039	-1.276	0.315	14.771	40.649	-80.261	-76.25	64.93	-13.51	-79.380	-27.342	80.948	-0.70984	0.45996	-0.45416	-0.27963	31.0	13111	100
2025-3-27 18:41:42.192	WT901BLE68-01(48591DE3C19B)	0.130	-1.276	0.315	14.771	40.649	-80.261	-77.62	63.89	-15.24	-79.380	-27.342	80.948	-0.70984	0.45996	-0.45416	-0.27963	31.0	13111	100
2025-3-27 18:41:42.193	WT901BLE68-01(48591DE3C19B)	0.130	-1.116	0.251	18.066	29.541	-132.690	-78.83	62.57	-16.84	-79.380	-27.342	80.948	-0.70984	0.45996	-0.45416	-0.27963	31.0	13111	100
2025-3-27 18:41:42.193	WT901BLE68-01(48591DE3C19B)	0.136	-1.116	0.251	18.066	29.541	-132.690	-79.88	60.97	-18.29	-79.380	-27.342	80.948	-0.70984	0.45996	-0.45416	-0.27963	31.0	13111	100
2025-3-27 18:41:42.193	WT901BLE68-01(48591DE3C19B)	0.136	-0.973	0.182	15.259	25.085	-180.359	-80.83	59.13	-19.63	-79.380	-27.342	80.948	-0.70984	0.45996	-0.45416	-0.27963	31.0	13111	100
2025-3-27 18:41:42.193	WT901BLE68-01(48591DE3C19B)	0.044	-0.973	0.182	15.259	25.085	-180.359	-81.67	57.05	-20.86	-79.380	-27.342	80.948	-0.70984	0.45996	-0.45416	-0.27963	31.0	13111	100
2025-3-27 18:41:42.217	WT901BLE68-01(48591DE3C19B)	0.044	-0.952	0.134	6.287	18.311	-224.548	-82.43	54.74	-21.97	-79.380	-27.342	80.948	-0.70984	0.45996	-0.45416	-0.27963	31.0	13111	100
2025-3-27 18:41:42.217	WT901BLE68-01(48591DE3C19B)	-0.082	-0.952	0.134	6.287	18.311	-224.548	-83.10	52.22	-22.96	-79.380	-27.342	80.948	-0.70984	0.45996	-0.45416	-0.27963	31.0	13111	100
2025-3-27 18:41:42.217	WT901BLE68-01(48591DE3C19B)	-0.082	-1.061	0.087	0.061	11.536	-266.479	-83.69	49.50	-23.82	-79.380	-27.342	80.948	-0.70984	0.45996	-0.45416	-0.27963	31.0	13111	100
2025-3-27 18:41:42.218	WT901BLE68-01(48591DE3C19B)	-0.184	-1.061	0.087	0.061	11.536	-266.479	-84.20	46.57	-24.58	-79.380	-27.342	80.948	-0.70984	0.45996	-0.45416	-0.27963	31.0	13111	100
2025-3-27 18:41:42.275	WT901BLE68-01(48591DE3C19B)	-0.184	-1.216	0.154	3.479	16.418	-302.307	-84.67	43.49	-25.32	-79.380	-27.342	80.948	-0.70984	0.45996	-0.45416	-0.27963	31.0	13111	100
2025-3-27 18:41:42.275	WT901BLE68-01(48591DE3C19B)	-0.315	-1.216	0.154	3.479	16.418	-302.307	-85.07	40.25	-26.05	-79.380	-27.342	80.948	-0.70984	0.45996	-0.45416	-0.27963	31.0	13111	100
2025-3-27 18:41:42.275	WT901BLE68-01(48591DE3C19B)	-0.315	-1.385	0.270	5.249	15.869	-334.045	-85.40	36.88	-26.73	-79.380	-27.342	80.948	-0.70984	0.45996	-0.45416	-0.27963	31.0	13111	100
2025-3-27 18:41:42.275	WT901BLE68-01(48591DE3C19B)	-0.396	-1.385	0.270	5.249	15.869	-334.045	-85.66	33.36	-27.37	-79.380	-27.342	80.948	-0.70984	0.45996	-0.45416	-0.27963	31.0	13111	100
2025-3-27 18:41:42.304	WT901BLE68-01(48591DE3C19B)	-0.396	-1.562	0.353	6.775	7.751	-357.361	-85.84	29.76	-27.92	-79.772	-16.170	77.910	-0.70984	0.45996	-0.45416	-0.27963	31.0	13111	100
2025-3-27 18:41:42.305	WT901BLE68-01(48591DE3C19B)	-0.392	-1.562	0.353	6.775	7.751	-357.361	-85.95	26.06	-28.41	-79.772	-16.170	77.910	-0.70984	0.45996	-0.45416	-0.27963	31.0	13111	100
2025-3-27 18:41:42.305	WT901BLE68-01(48591DE3C19B)	-0.392	-1.649	0.409	11.414	18.616	-369.568	-86.01	22.34	-28.93	-79.772	-16.170	77.910	-0.70984	0.45996	-0.45416	-0.27963	31.0	13111	100
2025-3-27 18:41:42.305	WT901BLE68-01(48591DE3C19B)	-0.390	-1.649	0.409	11.414	18.616	-369.568	-86.04	18.58	-29.50	-79.772	-16.170	77.910	-0.70984	0.45996	-0.45416	-0.27963	31.0	13111	100
2025-3-27 18:41:42.335	WT901BLE68-01(48591DE3C19B)	-0.390	-1.704	0.404	15.503	40.405	-372.131	-86.04	14.84	-30.17	-79.772	-16.170	77.910	-0.70984	0.45996	-0.45416	-0.27963	31.0	13111	100
2025-3-27 18:41:42.336	WT901BLE68-01(48591DE3C19B)	-0.435	-1.704	0.404	15.503	40.405	-372.131	-86.01	11.13	-30.94	-79.772	-16.170	77.910	-0.70984	0.45996	-0.45416	-0.27963	31.0	13111	100
2025-3-27 18:41:42.336	WT901BLE68-01(48591DE3C19B)	-0.435	-1.756	0.359	22.949	58.105	-366.211	-85.87	7.51	-31.88	-79.772	-16.170	77.910	-0.70984	0.45996	-0.45416	-0.27963	31.0	13111	100
2025-3-27 18:41:42.336	WT901BLE68-01(48591DE3C19B)	-0.509	-1.756	0.359	22.949	58.105	-366.211	-85.69	3.92	-32.82	-79.772	-16.170	77.910	-0.70984	0.45996	-0.45416	-0.27963	31.0	13111	100
2025-3-27 18:41:42.395	WT901BLE68-01(48591DE3C19B)	-0.509	-1.710	0.294	36.011	66.040	-353.333	-85.33	0.50	-33.83	-79.772	-16.170	77.910	-0.70984	0.45996	-0.45416	-0.27963	31.0	13111	100
2025-3-27 18:41:42.396	WT901BLE68-01(48591DE3C19B)	-0.536	-1.710	0.294	36.011	66.040	-353.333	-84.90	-2.89	-34.86	-79.772	-16.170	77.910	-0.70984	0.45996	-0.45416	-0.27963	31.0	13111	100
2025-3-27 18:41:42.396	WT901BLE68-01(48591DE3C19B)	-0.536	-1.570	0.236	46.997	68.787	-333.435	-84.32	-6.05	-35.93	-79.772	-16.170	77.910	-0.70984	0.45996	-0.45416	-0.27963	31.0	13111	100
2025-3-27 18:41:42.396	WT901BLE68-01(48591DE3C19B)	-0.552	-1.570	0.236	46.997	68.787	-333.435	-83.68	-9.17	-37.02	-79.772	-16.170	77.910	-0.70984	0.45996	-0.45416	-0.27963	31.0	13111	100
2025-3-27 18:41:42.425	WT901BLE68-01(48591DE3C19B)	-0.552	-1.381	0.182	54.260	71.106	-307.495	-82.91	-12.00	-38.15	-79.772	-16.170	77.910	-0.70984	0.45996	-0.45416	-0.27963	31.0	13111	100
2025-3-27 18:41:42.425	WT901BLE68-01(48591DE3C19B)	-0.574	-1.381	0.182	54.260	71.106	-307.495	-82.08	-14.79	-39.33	-79.772	-16.170	77.910	-0.70984	0.45996	-0.45416	-0.27963	31.0	13111	100
2025-3-27 18:41:42.425	WT901BLE68-01(48591DE3C19B)	-0.574	-1.187	0.153	56.946	71.167	-277.710	-81.18	-17.25	-40.50	-79.772	-16.170	77.910	-0.70984	0.45996	-0.45416	-0.27963	31.0	13111	100
2025-3-27 18:41:42.426	WT901BLE68-01(48591DE3C19B)	-0.583	-1.187	0.153	56.946	71.167	-277.710	-80.22	-19.67	-41.73	-79.772	-16.170	77.910	-0.70984	0.45996	-0.45416	-0.27963	31.0	13111	100
2025-3-27 18:41:42.454	WT901BLE68-01(48591DE3C19B)	-0.583	-1.012	0.173	54.382	63.843	-243.896	-79.28	-21.73	-42.86	-79.772	-16.170	77.910	-0.70984	0.45996	-0.45416	-0.27963	31.0	13111	100
2025-3-27 18:41:42.454	WT901BLE68-01(48591DE3C19B)	-0.550	-1.012	0.173	54.382	63.843	-243.896	-78.29	-23.76	-44.03	-79.772	-16.170	77.910	-0.70984	0.45996	-0.45416	-0.27963	31.0	13111	100
2025-3-27 18:41:42.454	WT901BLE68-01(48591DE3C19B)	-0.550	-0.900	0.195	48.340	57.312	-208.130	-77.38	-25.42	-45.09	-79.772	-16.170	77.910	-0.70984	0.45996	-0.45416	-0.27963	31.0	13111	100
2025-3-27 18:41:42.455	WT901BLE68-01(48591DE3C19B)	-0.500	-0.900	0.195	48.340	57.312	-208.130	-76.43	-27.05	-46.19	-79.772	-16.170	77.910	-0.70984	0.45996	-0.45416	-0.27963	31.0	13111	100
2025-3-27 18:41:42.515	WT901BLE68-01(48591DE3C19B)	-0.500	-0.829	0.197	42.480	58.289	-171.265	-75.54	-28.29	-47.24	-79.772	-16.170	77.910	-0.70984	0.45996	-0.45416	-0.27963	31.0	13111	100
2025-3-27 18:41:42.516	WT901BLE68-01(48591DE3C19B)	-0.471	-0.829	0.197	42.480	58.289	-171.265	-74.62	-29.50	-48.31	-79.772	-16.170	77.910	-0.63727	0.61588	-0.05313	0.46005	31.0	13111	100
2025-3-27 18:41:42.516	WT901BLE68-01(48591DE3C19B)	-0.471	-0.797	0.191	35.889	56.519	-135.437	-73.81	-30.36	-49.26	-79.772	-16.170	77.910	-0.63727	0.61588	-0.05313	0.46005	31.0	13111	100
2025-3-27 18:41:42.516	WT901BLE68-01(48591DE3C19B)	-0.469	-0.797	0.191	35.889	56.519	-135.437	-72.98	-31.19	-50.24	-79.772	-16.170	77.910	-0.63727	0.61588	-0.05313	0.46005	31.0	13111	100
2025-3-27 18:41:42.606	WT901BLE68-01(48591DE3C19B)	-0.469	-0.845	0.223	28.076	48.767	-102.417	-72.31	-31.71	-51.02	-79.772	-16.170	77.910	-0.63727	0.61588	-0.05313	0.46005	31.0	13111	100
2025-3-27 18:41:42.606	WT901BLE68-01(48591DE3C19B)	-0.517	-0.845	0.223	28.076	48.767	-102.417	-71.65	-32.23	-51.81	-79.772	-16.170	77.910	-0.63727	0.61588	-0.05313	0.46005	31.0	13111	100
2025-3-27 18:41:42.606	WT901BLE68-01(48591DE3C19B)	-0.517	-0.954	0.235	23.254	43.396	-76.172	-71.10	-32.50	-52.45	-79.772	-16.170	77.910	-0.63727	0.61588	-0.05313	0.46005	31.0	13111	100
2025-3-27 18:41:42.606	WT901BLE68-01(48591DE3C19B)	-0.581	-0.954	0.235	23.254	43.396	-76.172	-70.56	-32.76	-53.08	-79.772	-16.170	77.910	-0.63727	0.61588	-0.05313	0.46005	31.0	13111	100
2025-3-27 18:41:42.607	WT901BLE68-01(48591DE3C19B)	-0.581	-1.051	0.205	19.043	38.757	-53.040	-70.14	-32.81	-53.57	-79.772	-16.170	77.910	-0.63727	0.61588	-0.05313	0.46005	31.0	13111	100
2025-3-27 18:41:42.607	WT901BLE68-01(48591DE3C19B)	-0.628	-1.051	0.205	19.043	38.757	-53.040	-69.72	-32.85	-54.05	-79.772	-16.170	77.910	-0.63727	0.61588	-0.05313	0.46005	31.0	13111	100
2025-3-27 18:41:42.607	WT901BLE68-01(48591DE3C19B)	-0.628	-1.138	0.161	13.855	35.400	-34.973	-69.42	-32.74	-54.42	-79.772	-16.170	77.910	-0.63727	0.61588	-0.05313	0.46005	31.0	13111	100
2025-3-27 18:41:42.607	WT901BLE68-01(48591DE3C19B)	-0.636	-1.138	0.161	13.855	35.400	-34.973	-69.13	-32.62	-54.78	-79.772	-16.170	77.910	-0.63727	0.61588	-0.05313	0.46005	31.0	13111	100
2025-3-27 18:41:42.665	WT901BLE68-01(48591DE3C19B)	-0.636	-1.160	0.135	5.615	34.546	-17.578	-68.98	-32.35	-55.05	-79.772	-16.170	77.910	-0.63727	0.61588	-0.05313	0.46005	31.0	13111	100
2025-3-27 18:41:42.665	WT901BLE68-01(48591DE3C19B)	-0.668	-1.160	0.135	5.615	34.546	-17.578	-68.83	-32.07	-55.31	-79.772	-16.170	77.910	-0.63727	0.61588	-0.05313	0.46005	31.0	13111	100
2025-3-27 18:41:42.665	WT901BLE68-01(48591DE3C19B)	-0.668	-1.180	0.146	-5.188	28.137	1.892	-68.88	-31.64	-55.42	-79.772	-16.170	77.910	-0.63727	0.61588	-0.05313	0.46005	31.0	13111	100
2025-3-27 18:41:42.665	WT901BLE68-01(48591DE3C19B)	-0.669	-1.180	0.146	-5.188	28.137	1.892	-68.93	-31.20	-55.52	-79.772	-16.170	77.910	-0.63727	0.61588	-0.05313	0.46005	31.0	13111	100
2025-3-27 18:41:42.667	WT901BLE68-01(48591DE3C19B)	-0.669	-1.263	0.199	-22.522	7.996	23.315	-69.31	-30.65	-55.32	-79.772	-16.170	77.910	-0.63727	0.61588	-0.05313	0.46005	31.0	13111	100
2025-3-27 18:41:42.667	WT901BLE68-01(48591DE3C19B)	-0.663	-1.263	0.199	-22.522	7.996	23.315	-69.69	-30.09	-55.12	-79.772	-16.170	77.910	-0.63727	0.61588	-0.05313	0.46005	31.0	13111	100
2025-3-27 18:41:42.667	WT901BLE68-01(48591DE3C19B)	-0.663	-1.333	0.268	-31.555	-15.686	48.828	-70.33	-29.38	-54.58	-79.772	-16.170	77.910	-0.63727	0.61588	-0.05313	0.46005	31.0	13111	100
2025-3-27 18:41:42.667	WT901BLE68-01(48591DE3C19B)	-0.632	-1.333	0.268	-31.555	-15.686	48.828	-70.94	-28.66	-54.06	-79.380	-49.392	74.186	-0.63727	0.61588	-0.05313	0.46005	31.0	13111	100
2025-3-27 18:41:42.725	WT901BLE68-01(48591DE3C19B)	-0.632	-1.229	0.297	-38.757	-38.208	77.820	-71.78	-27.75	-53.20	-79.380	-49.392	74.186	-0.63727	0.61588	-0.05313	0.46005	31.0	13111	100
2025-3-27 18:41:42.725	WT901BLE68-01(48591DE3C19B)	-0.623	-1.229	0.297	-38.757	-38.208	77.820	-72.58	-26.82	-52.38	-79.380	-49.392	74.186	-0.63727	0.61588	-0.05313	0.46005	31.0	13111	100
2025-3-27 18:41:42.725	WT901BLE68-01(48591DE3C19B)	-0.623	-1.203	0.252	-49.377	-60.181	110.107	-73.61	-25.64	-51.25	-79.380	-49.392	74.186	-0.63727	0.61588	-0.05313	0.46005	31.0	13111	100
2025-3-27 18:41:42.725	WT901BLE68-01(48591DE3C19B)	-0.619	-1.203	0.252	-49.377	-60.181	110.107	-74.59	-24.46	-50.16	-79.380	-49.392	74.186	-0.63727	0.61588	-0.05313	0.46005	31.0	13111	100
2025-3-27 18:41:42.754	WT901BLE68-01(48591DE3C19B)	-0.619	-1.183	0.210	-50.903	-80.566	146.362	-75.67	-22.96	-48.79	-79.380	-49.392	74.186	-0.63727	0.61588	-0.05313	0.46005	31.0	13111	100
2025-3-27 18:41:42.754	WT901BLE68-01(48591DE3C19B)	-0.562	-1.183	0.210	-50.903	-80.566	146.362	-76.70	-21.45	-47.48	-79.380	-49.392	74.186	-0.63727	0.61588	-0.05313	0.46005	31.0	13111	100
2025-3-27 18:41:42.754	WT901BLE68-01(48591DE3C19B)	-0.562	-1.144	0.160	-53.040	-100.464	184.326	-77.79	-19.61	-45.92	-79.380	-49.392	74.186	-0.63727	0.61588	-0.05313	0.46005	31.0	13111	100
2025-3-27 18:41:42.754	WT901BLE68-01(48591DE3C19B)	-0.449	-1.144	0.160	-53.040	-100.464	184.326	-78.82	-17.74	-44.43	-79.380	-49.392	74.186	-0.63727	0.61588	-0.05313	0.46005	31.0	13111	100
2025-3-27 18:41:42.791	WT901BLE68-01(48591DE3C19B)	-0.449	-1.240	0.112	-54.321	-115.295	222.473	-79.84	-15.52	-42.77	-79.380	-49.392	74.186	-0.63727	0.61588	-0.05313	0.46005	31.0	13111	100
2025-3-27 18:41:42.791	WT901BLE68-01(48591DE3C19B)	-0.379	-1.240	0.112	-54.321	-115.295	222.473	-80.79	-13.29	-41.18	-79.380	-49.392	74.186	-0.63727	0.61588	-0.05313	0.46005	31.0	13111	100
2025-3-27 18:41:42.791	WT901BLE68-01(48591DE3C19B)	-0.379	-1.430	0.100	-48.706	-128.357	257.690	-81.63	-10.72	-39.47	-79.380	-49.392	74.186	-0.63727	0.61588	-0.05313	0.46005	31.0	13111	100
2025-3-27 18:41:42.791	WT901BLE68-01(48591DE3C19B)	-0.308	-1.430	0.100	-48.706	-128.357	257.690	-82.39	-8.16	-37.83	-79.380	-49.392	74.186	-0.63727	0.61588	-0.05313	0.46005	31.0	13111	100
2025-3-27 18:41:42.815	WT901BLE68-01(48591DE3C19B)	-0.203	-1.646	0.090	-37.659	-138.733	285.339	-82.96	-5.34	-36.10	-79.380	-49.392	74.186	-0.63727	0.61588	-0.05313	0.46005	31.0	13111	100
2025-3-27 18:41:42.815	WT901BLE68-01(48591DE3C19B)	-0.203	-1.800	0.093	-20.508	-134.033	304.688	-83.36	-2.43	-34.43	-79.380	-49.392	74.186	-0.63727	0.61588	-0.05313	0.46005	31.0	13111	100
2025-3-27 18:41:42.815	WT901BLE68-01(48591DE3C19B)	-0.129	-1.800	0.093	-20.508	-134.033	304.688	-83.58	0.55	-32.81	-79.380	-49.392	74.186	-0.63727	0.61588	-0.05313	0.46005	31.0	13111	100
2025-3-27 18:41:42.815	WT901BLE68-01(48591DE3C19B)	-0.129	-1.849	0.139	-0.427	-113.770	317.749	-83.62	3.60	-31.31	-79.380	-49.392	74.186	-0.63727	0.61588	-0.05313	0.46005	31.0	13111	100
2025-3-27 18:41:42.874	WT901BLE68-01(48591DE3C19B)	-0.129	-1.849	0.139	-0.427	-113.770	317.749	-83.49	6.69	-29.90	-79.380	-49.392	74.186	-0.63727	0.61588	-0.05313	0.46005	31.0	13111	100
2025-3-27 18:41:42.874	WT901BLE68-01(48591DE3C19B)	-0.129	-1.865	0.189	13.916	-86.487	322.205	-83.23	9.78	-28.62	-79.380	-49.392	74.186	-0.63727	0.61588	-0.05313	0.46005	31.0	13111	100
2025-3-27 18:41:42.875	WT901BLE68-01(48591DE3C19B)	-0.129	-1.865	0.189	13.916	-86.487	322.205	-82.84	12.89	-27.46	-79.380	-49.392	74.186	-0.63727	0.61588	-0.05313	0.46005	31.0	13111	100
2025-3-27 18:41:42.875	WT901BLE68-01(48591DE3C19B)	-0.129	-1.861	0.214	25.330	-53.528	319.275	-82.38	15.96	-26.44	-79.380	-49.392	74.186	-0.63727	0.61588	-0.05313	0.46005	31.0	13111	100
2025-3-27 18:41:42.905	WT901BLE68-01(48591DE3C19B)	-0.149	-1.861	0.214	25.330	-53.528	319.275	-81.84	19.01	-25.57	-79.380	-49.392	74.186	-0.75064	0.60239	-0.26462	0.05939	31.0	13111	100
2025-3-27 18:41:42.905	WT901BLE68-01(48591DE3C19B)	-0.149	-1.730	0.211	33.691	-15.015	313.049	-81.28	22.03	-24.85	-79.380	-49.392	74.186	-0.75064	0.60239	-0.26462	0.05939	31.0	13111	100
2025-3-27 18:41:42.905	WT901BLE68-01(48591DE3C19B)	-0.198	-1.730	0.211	33.691	-15.015	313.049	-80.71	25.02	-24.31	-79.380	-49.392	74.186	-0.75064	0.60239	-0.26462	0.05939	31.0	13111	100
2025-3-27 18:41:42.905	WT901BLE68-01(48591DE3C19B)	-0.198	-1.553	0.184	32.837	19.287	304.749	-80.17	27.97	-23.92	-79.380	-49.392	74.186	-0.75064	0.60239	-0.26462	0.05939	31.0	13111	100
2025-3-27 18:41:42.934	WT901BLE68-01(48591DE3C19B)	-0.215	-1.553	0.184	32.837	19.287	304.749	-79.71	30.88	-23.70	-79.380	-49.392	74.186	-0.75064	0.60239	-0.26462	0.05939	31.0	13111	100
2025-3-27 18:41:42.935	WT901BLE68-01(48591DE3C19B)	-0.215	-1.423	0.156	25.879	46.265	293.762	-79.34	33.75	-23.62	-79.380	-49.392	74.186	-0.75064	0.60239	-0.26462	0.05939	31.0	13111	100
2025-3-27 18:41:42.935	WT901BLE68-01(48591DE3C19B)	-0.221	-1.423	0.156	25.879	46.265	293.762	-79.10	36.57	-23.69	-79.380	-49.392	74.186	-0.75064	0.60239	-0.26462	0.05939	31.0	13111	100
2025-3-27 18:41:42.935	WT901BLE68-01(48591DE3C19B)	-0.221	-1.313	0.124	17.395	62.195	282.349	-78.95	39.34	-23.86	-79.380	-49.392	74.186	-0.75064	0.60239	-0.26462	0.05939	31.0	13111	100
2025-3-27 18:41:42.995	WT901BLE68-01(48591DE3C19B)	-0.225	-1.313	0.124	17.395	62.195	282.349	-78.93	42.04	-24.15	-79.380	-49.392	74.186	-0.75064	0.60239	-0.26462	0.05939	31.0	13111	100
2025-3-27 18:41:42.995	WT901BLE68-01(48591DE3C19B)	-0.225	-1.204	0.092	8.728	62.195	269.409	-78.98	44.68	-24.47	-79.380	-49.392	74.186	-0.75064	0.60239	-0.26462	0.05939	31.0	13111	100
2025-3-27 18:41:42.995	WT901BLE68-01(48591DE3C19B)	-0.230	-1.204	0.092	8.728	62.195	269.409	-79.10	47.24	-24.83	-79.380	-49.392	74.186	-0.75064	0.60239	-0.26462	0.05939	31.0	13111	100
2025-3-27 18:41:42.995	WT901BLE68-01(48591DE3C19B)	-0.230	-1.119	0.067	0.244	50.171	254.517	-79.24	49.69	-25.14	-79.380	-49.392	74.186	-0.75064	0.60239	-0.26462	0.05939	31.0	13111	100
2025-3-27 18:41:43.25	WT901BLE68-01(48591DE3C19B)	-0.230	-1.119	0.067	0.244	50.171	254.517	-79.40	52.05	-25.41	-79.380	-49.392	74.186	-0.75064	0.60239	-0.26462	0.05939	31.0	13111	100
2025-3-27 18:41:43.25	WT901BLE68-01(48591DE3C19B)	-0.230	-1.063	0.049	-6.042	32.166	236.389	-79.51	54.29	-25.58	-79.380	-49.392	74.186	-0.75064	0.60239	-0.26462	0.05939	31.0	13111	100
2025-3-27 18:41:43.25	WT901BLE68-01(48591DE3C19B)	-0.231	-1.063	0.049	-6.042	32.166	236.389	-79.56	56.42	-25.64	-79.380	-49.392	74.186	-0.75064	0.60239	-0.26462	0.05939	31.0	13111	100
2025-3-27 18:41:43.25	WT901BLE68-01(48591DE3C19B)	-0.231	-1.052	0.045	-10.498	12.146	213.928	-79.51	58.41	-25.55	-79.380	-49.392	74.186	-0.75064	0.60239	-0.26462	0.05939	31.0	13111	100
2025-3-27 18:41:43.55	WT901BLE68-01(48591DE3C19B)	-0.267	-1.052	0.045	-10.498	12.146	213.928	-79.34	60.26	-25.31	-79.380	-49.392	74.186	-0.75064	0.60239	-0.26462	0.05939	31.0	13111	100
2025-3-27 18:41:43.56	WT901BLE68-01(48591DE3C19B)	-0.267	-1.069	0.046	-12.817	-7.629	190.247	-79.02	61.97	-24.88	-79.380	-49.392	74.186	-0.75064	0.60239	-0.26462	0.05939	31.0	13111	100
2025-3-27 18:41:43.56	WT901BLE68-01(48591DE3C19B)	-0.300	-1.069	0.046	-12.817	-7.629	190.247	-78.51	63.53	-24.24	-79.380	-49.392	74.186	-0.75064	0.60239	-0.26462	0.05939	31.0	13111	100
2025-3-27 18:41:43.56	WT901BLE68-01(48591DE3C19B)	-0.300	-1.100	0.062	-13.611	-23.926	165.344	-77.83	64.95	-23.41	-79.380	-49.392	74.186	-0.75064	0.60239	-0.26462	0.05939	31.0	13111	100
2025-3-27 18:41:43.115	WT901BLE68-01(48591DE3C19B)	-0.352	-1.100	0.062	-13.611	-23.926	165.344	-76.95	66.22	-22.36	-79.380	-49.392	74.186	-0.75064	0.60239	-0.26462	0.05939	31.0	13111	100
2025-3-27 18:41:43.115	WT901BLE68-01(48591DE3C19B)	-0.352	-1.148	0.093	-13.733	-38.452	142.578	-75.86	67.35	-21.10	-77.812	-20.188	54.978	-0.75064	0.60239	-0.26462	0.05939	31.0	13111	100
2025-3-27 18:41:43.115	WT901BLE68-01(48591DE3C19B)	-0.359	-1.148	0.093	-13.733	-38.452	142.578	-74.55	68.33	-19.63	-77.812	-20.188	54.978	-0.75064	0.60239	-0.26462	0.05939	31.0	13111	100
2025-3-27 18:41:43.115	WT901BLE68-01(48591DE3C19B)	-0.359	-1.176	0.120	-13.977	-55.542	121.643	-72.99	69.18	-17.87	-77.812	-20.188	54.978	-0.75064	0.60239	-0.26462	0.05939	31.0	13111	100
2025-3-27 18:41:43.144	WT901BLE68-01(48591DE3C19B)	-0.315	-1.176	0.120	-13.977	-55.542	121.643	-71.16	69.87	-15.85	-77.812	-20.188	54.978	-0.75064	0.60239	-0.26462	0.05939	31.0	13111	100
2025-3-27 18:41:43.144	WT901BLE68-01(48591DE3C19B)	-0.315	-1.181	0.144	-14.526	-73.486	100.891	-69.08	70.42	-13.57	-77.812	-20.188	54.978	-0.75064	0.60239	-0.26462	0.05939	31.0	13111	100
2025-3-27 18:41:43.144	WT901BLE68-01(48591DE3C19B)	-0.266	-1.181	0.144	-14.526	-73.486	100.891	-66.77	70.80	-11.05	-77.812	-20.188	54.978	-0.75064	0.60239	-0.26462	0.05939	31.0	13111	100
2025-3-27 18:41:43.145	WT901BLE68-01(48591DE3C19B)	-0.266	-1.144	0.156	-16.296	-84.595	80.261	-64.38	71.02	-8.43	-77.812	-20.188	54.978	-0.75064	0.60239	-0.26462	0.05939	31.0	13111	100
2025-3-27 18:41:43.174	WT901BLE68-01(48591DE3C19B)	-0.233	-1.144	0.156	-16.296	-84.595	80.261	-61.95	71.09	-5.77	-77.812	-20.188	54.978	-0.75064	0.60239	-0.26462	0.05939	31.0	13111	100
2025-3-27 18:41:43.174	WT901BLE68-01(48591DE3C19B)	-0.233	-1.092	0.176	-20.935	-92.529	56.213	-59.62	71.00	-3.19	-77.812	-20.188	54.978	-0.75064	0.60239	-0.26462	0.05939	31.0	13111	100
2025-3-27 18:41:43.174	WT901BLE68-01(48591DE3C19B)	-0.241	-1.092	0.176	-20.935	-92.529	56.213	-57.44	70.76	-0.74	-77.812	-20.188	54.978	-0.75064	0.60239	-0.26462	0.05939	31.0	13111	100
2025-3-27 18:41:43.175	WT901BLE68-01(48591DE3C19B)	-0.241	-1.075	0.238	-27.527	-98.816	26.489	-55.54	70.34	1.46	-77.812	-20.188	54.978	-0.75064	0.60239	-0.26462	0.05939	31.0	13111	100
2025-3-27 18:41:43.265	WT901BLE68-01(48591DE3C19B)	-0.297	-1.075	0.238	-27.527	-98.816	26.489	-53.93	69.76	3.38	-77.812	-20.188	54.978	-0.75064	0.60239	-0.26462	0.05939	31.0	13111	100
2025-3-27 18:41:43.266	WT901BLE68-01(48591DE3C19B)	-0.297	-1.088	0.332	-32.532	-107.971	-7.935	-52.63	69.01	5.00	-77.812	-20.188	54.978	-0.75064	0.60239	-0.26462	0.05939	31.0	13111	100
2025-3-27 18:41:43.266	WT901BLE68-01(48591DE3C19B)	-0.253	-1.088	0.332	-32.532	-107.971	-7.935	-51.64	68.08	6.33	-77.812	-20.188	54.978	-0.75064	0.60239	-0.26462	0.05939	31.0	13111	100
2025-3-27 18:41:43.266	WT901BLE68-01(48591DE3C19B)	-0.253	-1.033	0.351	-38.147	-109.375	-44.434	-51.03	67.00	7.28	-77.812	-20.188	54.978	-0.75064	0.60239	-0.26462	0.05939	31.0	13111	100
2025-3-27 18:41:43.267	WT901BLE68-01(48591DE3C19B)	-0.135	-1.033	0.351	-38.147	-109.375	-44.434	-50.77	65.78	7.90	-77.812	-20.188	54.978	-0.75064	0.60239	-0.26462	0.05939	31.0	13111	100
2025-3-27 18:41:43.267	WT901BLE68-01(48591DE3C19B)	-0.135	-0.917	0.258	-48.645	-81.604	-81.360	-51.08	64.50	7.94	-77.812	-20.188	54.978	-0.75064	0.60239	-0.26462	0.05939	31.0	13111	100
2025-3-27 18:41:43.267	WT901BLE68-01(48591DE3C19B)	-0.183	-0.917	0.258	-48.645	-81.604	-81.360	-51.87	63.17	7.51	-77.812	-20.188	54.978	-0.75064	0.60239	-0.26462	0.05939	31.0	13111	100
2025-3-27 18:41:43.267	WT901BLE68-01(48591DE3C19B)	-0.183	-0.867	0.249	-61.279	-48.462	-122.375	-53.69	61.72	6.05	-77.812	-20.188	54.978	-0.75256	0.41125	-0.43649	-0.27176	31.0	13111	100
2025-3-27 18:41:43.325	WT901BLE68-01(48591DE3C19B)	-0.281	-0.867	0.249	-61.279	-48.462	-122.375	-55.35	60.25	4.76	-77.812	-20.188	54.978	-0.75256	0.41125	-0.43649	-0.27176	31.0	13111	100
2025-3-27 18:41:43.325	WT901BLE68-01(48591DE3C19B)	-0.281	-0.932	0.352	-72.327	-33.447	-167.297	-57.58	58.49	2.91	-77.812	-20.188	54.978	-0.75256	0.41125	-0.43649	-0.27176	31.0	13111	100
2025-3-27 18:41:43.325	WT901BLE68-01(48591DE3C19B)	-0.321	-0.932	0.352	-72.327	-33.447	-167.297	-59.59	56.69	1.27	-77.812	-20.188	54.978	-0.75256	0.41125	-0.43649	-0.27176	31.0	13111	100
2025-3-27 18:41:43.325	WT901BLE68-01(48591DE3C19B)	-0.321	-0.959	0.466	-76.233	-32.349	-202.820	-61.70	54.59	-0.47	-77.812	-20.188	54.978	-0.75256	0.41125	-0.43649	-0.27176	31.0	13111	100
2025-3-27 18:41:43.354	WT901BLE68-01(48591DE3C19B)	-0.378	-0.959	0.466	-76.233	-32.349	-202.820	-63.59	52.45	-2.01	-77.812	-20.188	54.978	-0.75256	0.41125	-0.43649	-0.27176	31.0	13111	100
2025-3-27 18:41:43.354	WT901BLE68-01(48591DE3C19B)	-0.378	-0.963	0.502	-77.942	-36.804	-225.403	-65.37	50.08	-3.43	-77.812	-20.188	54.978	-0.75256	0.41125	-0.43649	-0.27176	31.0	13111	100
2025-3-27 18:41:43.354	WT901BLE68-01(48591DE3C19B)	-0.393	-0.963	0.502	-77.942	-36.804	-225.403	-66.97	47.70	-4.69	-77.812	-20.188	54.978	-0.75256	0.41125	-0.43649	-0.27176	31.0	13111	100
2025-3-27 18:41:43.355	WT901BLE68-01(48591DE3C19B)	-0.393	-0.979	0.481	-76.904	-43.030	-243.042	-68.42	45.13	-5.79	-77.812	-20.188	54.978	-0.75256	0.41125	-0.43649	-0.27176	31.0	13111	100
2025-3-27 18:41:43.391	WT901BLE68-01(48591DE3C19B)	-0.424	-0.979	0.481	-76.904	-43.030	-243.042	-69.73	42.56	-6.76	-77.812	-20.188	54.978	-0.75256	0.41125	-0.43649	-0.27176	31.0	13111	100
2025-3-27 18:41:43.391	WT901BLE68-01(48591DE3C19B)	-0.424	-0.979	0.467	-75.623	-54.443	-253.174	-70.86	39.86	-7.51	-77.812	-20.188	54.978	-0.75256	0.41125	-0.43649	-0.27176	31.0	13111	100
2025-3-27 18:41:43.391	WT901BLE68-01(48591DE3C19B)	-0.411	-0.979	0.467	-75.623	-54.443	-253.174	-71.89	37.17	-8.17	-77.812	-20.188	54.978	-0.75256	0.41125	-0.43649	-0.27176	31.0	13111	100
2025-3-27 18:41:43.391	WT901BLE68-01(48591DE3C19B)	-0.411	-1.013	0.448	-75.562	-63.354	-258.972	-72.80	34.40	-8.67	-77.812	-20.188	54.978	-0.75256	0.41125	-0.43649	-0.27176	31.0	13111	100
