time	DeviceName	AccX(g)	AccY(g)	AccZ(g)	AsX(°/s)	AsY(°/s)	AsZ(°/s)	AngleX(°)	AngleY(°)	AngleZ(°)	HX(uT)	HY(uT)	HZ(uT)	Q0()	Q1()	Q2()	Q3()	Temperature(°C)	Version()	Battery level(%)
2025-3-27 18:42:8.796	WT901BLE68-01(48591DE3C19B)	-0.150	-0.947	0.211	-2.686	1.892	-3.601	-77.23	10.77	-48.19	-81.536	-60.662	21.266	-0.75104	0.54736	-0.30450	0.20862	31.0	13111	100
2025-3-27 18:42:8.796	WT901BLE68-01(48591DE3C19B)	-0.150	-0.945	0.214	-3.601	3.906	-2.319	-77.28	10.73	-48.44	-81.536	-60.662	21.266	-0.75104	0.54736	-0.30450	0.20862	31.0	13111	100
2025-3-27 18:42:8.796	WT901BLE68-01(48591DE3C19B)	-0.165	-0.945	0.214	-3.601	3.906	-2.319	-77.32	10.70	-48.70	-81.536	-60.662	21.266	-0.75104	0.54736	-0.30450	0.20862	31.0	13111	100
2025-3-27 18:42:8.796	WT901BLE68-01(48591DE3C19B)	-0.165	-0.953	0.222	-4.456	4.456	-1.038	-77.38	10.68	-48.96	-81.536	-60.662	21.266	-0.75104	0.54736	-0.30450	0.20862	31.0	13111	100
2025-3-27 18:42:8.797	WT901BLE68-01(48591DE3C19B)	-0.156	-0.953	0.222	-4.456	4.456	-1.038	-77.43	10.66	-49.21	-81.536	-60.662	21.266	-0.75104	0.54736	-0.30450	0.20862	31.0	13111	100
2025-3-27 18:42:8.797	WT901BLE68-01(48591DE3C19B)	-0.156	-0.961	0.233	-4.822	2.808	-0.244	-77.49	10.65	-49.45	-81.536	-60.662	21.266	-0.75104	0.54736	-0.30450	0.20862	31.0	13111	100
2025-3-27 18:42:8.797	WT901BLE68-01(48591DE3C19B)	-0.151	-0.961	0.233	-4.822	2.808	-0.244	-77.54	10.64	-49.69	-81.536	-60.662	21.266	-0.75104	0.54736	-0.30450	0.20862	31.0	13111	100
2025-3-27 18:42:8.797	WT901BLE68-01(48591DE3C19B)	-0.151	-0.949	0.240	-4.883	2.747	0.732	-77.60	10.63	-49.92	-81.536	-60.662	21.266	-0.75104	0.54736	-0.30450	0.20862	31.0	13111	100
2025-3-27 18:42:8.887	WT901BLE68-01(48591DE3C19B)	-0.167	-0.949	0.240	-4.883	2.747	0.732	-77.65	10.63	-50.15	-81.536	-60.662	21.266	-0.75104	0.54736	-0.30450	0.20862	31.0	13111	100
2025-3-27 18:42:8.887	WT901BLE68-01(48591DE3C19B)	-0.167	-0.944	0.240	-5.371	2.747	1.465	-77.71	10.64	-50.38	-81.536	-60.662	21.266	-0.75104	0.54736	-0.30450	0.20862	31.0	13111	100
2025-3-27 18:42:8.887	WT901BLE68-01(48591DE3C19B)	-0.161	-0.944	0.240	-5.371	2.747	1.465	-77.76	10.65	-50.61	-81.536	-60.662	21.266	-0.75104	0.54736	-0.30450	0.20862	31.0	13111	100
2025-3-27 18:42:8.887	WT901BLE68-01(48591DE3C19B)	-0.161	-0.953	0.242	-5.615	0.000	2.136	-77.81	10.65	-50.83	-81.536	-60.662	21.266	-0.75104	0.54736	-0.30450	0.20862	31.0	13111	100
2025-3-27 18:42:8.888	WT901BLE68-01(48591DE3C19B)	-0.145	-0.953	0.242	-5.615	0.000	2.136	-77.87	10.66	-51.03	-81.536	-60.662	21.266	-0.75104	0.54736	-0.30450	0.20862	31.0	13111	100
2025-3-27 18:42:8.888	WT901BLE68-01(48591DE3C19B)	-0.145	-0.961	0.247	-5.615	-0.977	3.113	-77.92	10.67	-51.22	-81.536	-60.662	21.266	-0.75104	0.54736	-0.30450	0.20862	31.0	13111	100
2025-3-27 18:42:8.888	WT901BLE68-01(48591DE3C19B)	-0.155	-0.961	0.247	-5.615	-0.977	3.113	-77.96	10.69	-51.41	-81.536	-60.662	21.266	-0.75104	0.54736	-0.30450	0.20862	31.0	13111	100
2025-3-27 18:42:8.888	WT901BLE68-01(48591DE3C19B)	-0.155	-0.975	0.252	-5.005	-0.916	4.089	-78.00	10.71	-51.59	-81.536	-60.662	21.266	-0.72214	0.53259	-0.33795	0.28378	31.0	13111	100
2025-3-27 18:42:8.918	WT901BLE68-01(48591DE3C19B)	-0.147	-0.975	0.252	-5.005	-0.916	4.089	-78.04	10.73	-51.77	-81.536	-60.662	21.266	-0.72214	0.53259	-0.33795	0.28378	31.0	13111	100
2025-3-27 18:42:8.918	WT901BLE68-01(48591DE3C19B)	-0.147	-0.977	0.258	-4.211	-1.770	4.883	-78.08	10.76	-51.95	-81.536	-60.662	21.266	-0.72214	0.53259	-0.33795	0.28378	31.0	13111	100
2025-3-27 18:42:8.918	WT901BLE68-01(48591DE3C19B)	-0.139	-0.977	0.258	-4.211	-1.770	4.883	-78.11	10.78	-52.12	-81.536	-60.662	21.266	-0.72214	0.53259	-0.33795	0.28378	31.0	13111	100
2025-3-27 18:42:8.918	WT901BLE68-01(48591DE3C19B)	-0.139	-0.977	0.262	-3.540	1.465	5.310	-78.13	10.82	-52.31	-81.536	-60.662	21.266	-0.72214	0.53259	-0.33795	0.28378	31.0	13111	100
2025-3-27 18:42:8.976	WT901BLE68-01(48591DE3C19B)	-0.149	-0.977	0.262	-3.540	1.465	5.310	-78.16	10.85	-52.51	-81.536	-60.662	21.266	-0.72214	0.53259	-0.33795	0.28378	31.0	13111	100
2025-3-27 18:42:8.977	WT901BLE68-01(48591DE3C19B)	-0.149	-0.982	0.258	-2.930	5.798	5.554	-78.19	10.90	-52.74	-81.536	-60.662	21.266	-0.72214	0.53259	-0.33795	0.28378	31.0	13111	100
2025-3-27 18:42:8.977	WT901BLE68-01(48591DE3C19B)	-0.169	-0.982	0.258	-2.930	5.798	5.554	-78.22	10.95	-52.98	-81.536	-60.662	21.266	-0.72214	0.53259	-0.33795	0.28378	31.0	13111	100
2025-3-27 18:42:8.977	WT901BLE68-01(48591DE3C19B)	-0.169	-0.981	0.251	-2.258	7.935	5.920	-78.24	11.00	-53.24	-81.536	-60.662	21.266	-0.72214	0.53259	-0.33795	0.28378	31.0	13111	100
2025-3-27 18:42:9.5	WT901BLE68-01(48591DE3C19B)	-0.184	-0.981	0.251	-2.258	7.935	5.920	-78.27	11.05	-53.50	-81.536	-60.662	21.266	-0.72214	0.53259	-0.33795	0.28378	31.0	13111	100
2025-3-27 18:42:9.5	WT901BLE68-01(48591DE3C19B)	-0.184	-0.962	0.245	-2.258	7.568	6.226	-78.29	11.11	-53.76	-81.536	-60.662	21.266	-0.72214	0.53259	-0.33795	0.28378	31.0	13111	100
2025-3-27 18:42:9.5	WT901BLE68-01(48591DE3C19B)	-0.189	-0.962	0.245	-2.258	7.568	6.226	-78.32	11.17	-54.02	-81.536	-60.662	21.266	-0.72214	0.53259	-0.33795	0.28378	31.0	13111	100
2025-3-27 18:42:9.5	WT901BLE68-01(48591DE3C19B)	-0.189	-0.947	0.236	-3.357	5.615	6.348	-78.34	11.23	-54.26	-81.536	-60.662	21.266	-0.72214	0.53259	-0.33795	0.28378	31.0	13111	100
2025-3-27 18:42:9.36	WT901BLE68-01(48591DE3C19B)	-0.210	-0.947	0.236	-3.357	5.615	6.348	-78.37	11.28	-54.50	-81.536	-60.662	21.266	-0.72214	0.53259	-0.33795	0.28378	31.0	13111	100
2025-3-27 18:42:9.36	WT901BLE68-01(48591DE3C19B)	-0.210	-0.945	0.225	-4.883	2.319	6.531	-78.40	11.34	-54.71	-81.536	-60.662	21.266	-0.72214	0.53259	-0.33795	0.28378	31.0	13111	100
2025-3-27 18:42:9.36	WT901BLE68-01(48591DE3C19B)	-0.219	-0.945	0.225	-4.883	2.319	6.531	-78.44	11.39	-54.91	-81.536	-60.662	21.266	-0.72214	0.53259	-0.33795	0.28378	31.0	13111	100
2025-3-27 18:42:9.36	WT901BLE68-01(48591DE3C19B)	-0.219	-0.943	0.207	-6.775	-2.625	6.226	-78.49	11.44	-55.09	-81.536	-60.662	21.266	-0.72214	0.53259	-0.33795	0.28378	31.0	13111	100
2025-3-27 18:42:9.95	WT901BLE68-01(48591DE3C19B)	-0.228	-0.943	0.207	-6.775	-2.625	6.226	-78.54	11.49	-55.23	-81.536	-60.662	21.266	-0.72214	0.53259	-0.33795	0.28378	31.0	13111	100
2025-3-27 18:42:9.95	WT901BLE68-01(48591DE3C19B)	-0.228	-0.945	0.192	-9.094	-7.629	5.249	-78.59	11.52	-55.35	-81.732	-59.878	19.208	-0.72214	0.53259	-0.33795	0.28378	31.0	13111	100
2025-3-27 18:42:9.95	WT901BLE68-01(48591DE3C19B)	-0.244	-0.945	0.192	-9.094	-7.629	5.249	-78.65	11.55	-55.45	-81.732	-59.878	19.208	-0.72214	0.53259	-0.33795	0.28378	31.0	13111	100
2025-3-27 18:42:9.96	WT901BLE68-01(48591DE3C19B)	-0.244	-0.961	0.181	-11.841	-13.123	4.089	-78.72	11.57	-55.51	-81.732	-59.878	19.208	-0.72214	0.53259	-0.33795	0.28378	31.0	13111	100
2025-3-27 18:42:9.126	WT901BLE68-01(48591DE3C19B)	-0.250	-0.961	0.181	-11.841	-13.123	4.089	-78.80	11.59	-55.56	-81.732	-59.878	19.208	-0.72214	0.53259	-0.33795	0.28378	31.0	13111	100
2025-3-27 18:42:9.126	WT901BLE68-01(48591DE3C19B)	-0.250	-0.992	0.174	-14.404	-19.226	2.686	-78.89	11.59	-55.56	-81.732	-59.878	19.208	-0.72214	0.53259	-0.33795	0.28378	31.0	13111	100
2025-3-27 18:42:9.126	WT901BLE68-01(48591DE3C19B)	-0.247	-0.992	0.174	-14.404	-19.226	2.686	-78.99	11.57	-55.55	-81.732	-59.878	19.208	-0.72214	0.53259	-0.33795	0.28378	31.0	13111	100
2025-3-27 18:42:9.126	WT901BLE68-01(48591DE3C19B)	-0.247	-0.997	0.177	-15.198	-24.231	1.831	-79.08	11.55	-55.50	-81.732	-59.878	19.208	-0.72214	0.53259	-0.33795	0.28378	31.0	13111	100
2025-3-27 18:42:9.157	WT901BLE68-01(48591DE3C19B)	-0.237	-0.997	0.177	-15.198	-24.231	1.831	-79.18	11.53	-55.43	-81.732	-59.878	19.208	-0.72214	0.53259	-0.33795	0.28378	31.0	13111	100
2025-3-27 18:42:9.157	WT901BLE68-01(48591DE3C19B)	-0.237	-0.950	0.186	-16.663	-28.809	1.709	-79.27	11.50	-55.34	-81.732	-59.878	19.208	-0.72214	0.53259	-0.33795	0.28378	31.0	13111	100
2025-3-27 18:42:9.157	WT901BLE68-01(48591DE3C19B)	-0.235	-0.950	0.186	-16.663	-28.809	1.709	-79.38	11.46	-55.22	-81.732	-59.878	19.208	-0.72214	0.53259	-0.33795	0.28378	31.0	13111	100
2025-3-27 18:42:9.157	WT901BLE68-01(48591DE3C19B)	-0.235	-0.904	0.194	-19.165	-33.386	3.235	-79.48	11.44	-55.08	-81.732	-59.878	19.208	-0.72214	0.53259	-0.33795	0.28378	31.0	13111	100
2025-3-27 18:42:9.215	WT901BLE68-01(48591DE3C19B)	-0.219	-0.904	0.194	-19.165	-33.386	3.235	-79.60	11.41	-54.92	-81.732	-59.878	19.208	-0.72214	0.53259	-0.33795	0.28378	31.0	13111	100
2025-3-27 18:42:9.215	WT901BLE68-01(48591DE3C19B)	-0.219	-0.869	0.188	-20.142	-39.307	6.287	-79.71	11.40	-54.72	-81.732	-59.878	19.208	-0.72214	0.53259	-0.33795	0.28378	31.0	13111	100
2025-3-27 18:42:9.216	WT901BLE68-01(48591DE3C19B)	-0.192	-0.869	0.188	-20.142	-39.307	6.287	-79.82	11.40	-54.50	-81.732	-59.878	19.208	-0.72214	0.53259	-0.33795	0.28378	31.0	13111	100
2025-3-27 18:42:9.216	WT901BLE68-01(48591DE3C19B)	-0.192	-0.828	0.171	-20.508	-43.457	9.521	-79.92	11.43	-54.23	-81.732	-59.878	19.208	-0.72214	0.53259	-0.33795	0.28378	31.0	13111	100
2025-3-27 18:42:9.246	WT901BLE68-01(48591DE3C19B)	-0.180	-0.828	0.171	-20.508	-43.457	9.521	-80.02	11.45	-53.96	-81.732	-59.878	19.208	-0.72214	0.53259	-0.33795	0.28378	31.0	13111	100
2025-3-27 18:42:9.247	WT901BLE68-01(48591DE3C19B)	-0.180	-0.856	0.151	-21.851	-46.509	10.803	-80.13	11.48	-53.66	-81.732	-59.878	19.208	-0.72214	0.53259	-0.33795	0.28378	31.0	13111	100
2025-3-27 18:42:9.247	WT901BLE68-01(48591DE3C19B)	-0.188	-0.856	0.151	-21.851	-46.509	10.803	-80.24	11.51	-53.36	-81.732	-59.878	19.208	-0.72214	0.53259	-0.33795	0.28378	31.0	13111	100
2025-3-27 18:42:9.247	WT901BLE68-01(48591DE3C19B)	-0.188	-0.966	0.139	-19.836	-49.866	9.399	-80.32	11.52	-53.03	-81.732	-59.878	19.208	-0.72214	0.53259	-0.33795	0.28378	31.0	13111	100
2025-3-27 18:42:9.305	WT901BLE68-01(48591DE3C19B)	-0.214	-0.966	0.139	-19.836	-49.866	9.399	-80.41	11.54	-52.70	-81.732	-59.878	19.208	-0.72214	0.53259	-0.33795	0.28378	31.0	13111	100
2025-3-27 18:42:9.306	WT901BLE68-01(48591DE3C19B)	-0.214	-1.055	0.137	-13.428	-51.575	5.798	-80.43	11.51	-52.36	-81.732	-59.878	19.208	-0.71069	0.54330	-0.35132	0.27603	31.0	13111	100
2025-3-27 18:42:9.306	WT901BLE68-01(48591DE3C19B)	-0.248	-1.055	0.137	-13.428	-51.575	5.798	-80.45	11.49	-52.02	-81.732	-59.878	19.208	-0.71069	0.54330	-0.35132	0.27603	31.0	13111	100
2025-3-27 18:42:9.306	WT901BLE68-01(48591DE3C19B)	-0.248	-1.110	0.139	-6.226	-51.758	0.916	-80.41	11.41	-51.69	-81.732	-59.878	19.208	-0.71069	0.54330	-0.35132	0.27603	31.0	13111	100
2025-3-27 18:42:9.336	WT901BLE68-01(48591DE3C19B)	-0.242	-1.110	0.139	-6.226	-51.758	0.916	-80.36	11.34	-51.35	-81.732	-59.878	19.208	-0.71069	0.54330	-0.35132	0.27603	31.0	13111	100
2025-3-27 18:42:9.336	WT901BLE68-01(48591DE3C19B)	-0.242	-1.112	0.131	0.244	-49.561	-4.028	-80.27	11.23	-51.05	-81.732	-59.878	19.208	-0.71069	0.54330	-0.35132	0.27603	31.0	13111	100
2025-3-27 18:42:9.336	WT901BLE68-01(48591DE3C19B)	-0.205	-1.112	0.131	0.244	-49.561	-4.028	-80.17	11.11	-50.75	-81.732	-59.878	19.208	-0.71069	0.54330	-0.35132	0.27603	31.0	13111	100
2025-3-27 18:42:9.336	WT901BLE68-01(48591DE3C19B)	-0.205	-1.081	0.129	2.441	-41.565	-7.141	-80.07	10.98	-50.53	-81.732	-59.878	19.208	-0.71069	0.54330	-0.35132	0.27603	31.0	13111	100
2025-3-27 18:42:9.365	WT901BLE68-01(48591DE3C19B)	-0.188	-1.081	0.129	2.441	-41.565	-7.141	-79.98	10.84	-50.32	-81.732	-59.878	19.208	-0.71069	0.54330	-0.35132	0.27603	31.0	13111	100
2025-3-27 18:42:9.365	WT901BLE68-01(48591DE3C19B)	-0.188	-1.061	0.113	3.174	-27.954	-7.324	-79.91	10.73	-50.23	-81.732	-59.878	19.208	-0.71069	0.54330	-0.35132	0.27603	31.0	13111	100
2025-3-27 18:42:9.365	WT901BLE68-01(48591DE3C19B)	-0.170	-1.061	0.113	3.174	-27.954	-7.324	-79.84	10.62	-50.16	-81.732	-59.878	19.208	-0.71069	0.54330	-0.35132	0.27603	31.0	13111	100
2025-3-27 18:42:9.365	WT901BLE68-01(48591DE3C19B)	-0.170	-0.974	0.104	3.540	-15.320	-6.226	-79.79	10.54	-50.20	-81.732	-59.878	19.208	-0.71069	0.54330	-0.35132	0.27603	31.0	13111	100
2025-3-27 18:42:9.425	WT901BLE68-01(48591DE3C19B)	-0.161	-0.974	0.104	3.540	-15.320	-6.226	-79.74	10.46	-50.25	-81.732	-59.878	19.208	-0.71069	0.54330	-0.35132	0.27603	31.0	13111	100
2025-3-27 18:42:9.426	WT901BLE68-01(48591DE3C19B)	-0.161	-0.896	0.114	-0.549	-6.775	-4.456	-79.74	10.41	-50.37	-81.732	-59.878	19.208	-0.71069	0.54330	-0.35132	0.27603	31.0	13111	100
2025-3-27 18:42:9.426	WT901BLE68-01(48591DE3C19B)	-0.159	-0.896	0.114	-0.549	-6.775	-4.456	-79.76	10.37	-50.50	-81.732	-59.878	19.208	-0.71069	0.54330	-0.35132	0.27603	31.0	13111	100
2025-3-27 18:42:9.426	WT901BLE68-01(48591DE3C19B)	-0.159	-0.859	0.122	-5.066	-4.822	-3.357	-79.81	10.33	-50.64	-81.732	-59.878	19.208	-0.71069	0.54330	-0.35132	0.27603	31.0	13111	100
2025-3-27 18:42:9.458	WT901BLE68-01(48591DE3C19B)	-0.151	-0.859	0.122	-5.066	-4.822	-3.357	-79.87	10.29	-50.79	-81.732	-59.878	19.208	-0.71069	0.54330	-0.35132	0.27603	31.0	13111	100
2025-3-27 18:42:9.458	WT901BLE68-01(48591DE3C19B)	-0.151	-0.847	0.120	-8.972	-7.446	-2.319	-79.96	10.27	-50.90	-81.732	-59.878	19.208	-0.71069	0.54330	-0.35132	0.27603	31.0	13111	100
2025-3-27 18:42:9.458	WT901BLE68-01(48591DE3C19B)	-0.142	-0.847	0.120	-8.972	-7.446	-2.319	-80.05	10.24	-51.02	-81.732	-59.878	19.208	-0.71069	0.54330	-0.35132	0.27603	31.0	13111	100
2025-3-27 18:42:9.458	WT901BLE68-01(48591DE3C19B)	-0.142	-0.875	0.107	-12.695	-12.024	-2.136	-80.16	10.20	-51.09	-81.732	-59.878	19.208	-0.71069	0.54330	-0.35132	0.27603	31.0	13111	100
2025-3-27 18:42:9.488	WT901BLE68-01(48591DE3C19B)	-0.137	-0.875	0.107	-12.695	-12.024	-2.136	-80.28	10.17	-51.16	-81.732	-59.878	19.208	-0.71069	0.54330	-0.35132	0.27603	31.0	13111	100
2025-3-27 18:42:9.488	WT901BLE68-01(48591DE3C19B)	-0.137	-0.938	0.090	-14.771	-19.165	-2.075	-80.41	10.12	-51.15	-81.732	-59.878	19.208	-0.71069	0.54330	-0.35132	0.27603	31.0	13111	100
2025-3-27 18:42:9.488	WT901BLE68-01(48591DE3C19B)	-0.106	-0.938	0.090	-14.771	-19.165	-2.075	-80.54	10.07	-51.15	-88.592	-56.448	17.346	-0.71069	0.54330	-0.35132	0.27603	31.0	13111	100
2025-3-27 18:42:9.488	WT901BLE68-01(48591DE3C19B)	-0.106	-1.001	0.079	-16.052	-29.297	-1.892	-80.66	10.01	-51.05	-88.592	-56.448	17.346	-0.71069	0.54330	-0.35132	0.27603	31.0	13111	100
2025-3-27 18:42:9.546	WT901BLE68-01(48591DE3C19B)	-0.061	-1.001	0.079	-16.052	-29.297	-1.892	-80.78	9.94	-50.94	-88.592	-56.448	17.346	-0.71069	0.54330	-0.35132	0.27603	31.0	13111	100
2025-3-27 18:42:9.546	WT901BLE68-01(48591DE3C19B)	-0.061	-1.058	0.077	-18.311	-38.269	-0.854	-80.92	9.87	-50.75	-88.592	-56.448	17.346	-0.71069	0.54330	-0.35132	0.27603	31.0	13111	100
2025-3-27 18:42:9.546	WT901BLE68-01(48591DE3C19B)	-0.003	-1.058	0.077	-18.311	-38.269	-0.854	-81.06	9.80	-50.55	-88.592	-56.448	17.346	-0.71069	0.54330	-0.35132	0.27603	31.0	13111	100
2025-3-27 18:42:9.547	WT901BLE68-01(48591DE3C19B)	-0.003	-1.180	0.053	-24.902	-44.434	1.160	-81.25	9.73	-50.30	-88.592	-56.448	17.346	-0.71069	0.54330	-0.35132	0.27603	31.0	13111	100
2025-3-27 18:42:9.575	WT901BLE68-01(48591DE3C19B)	0.059	-1.180	0.053	-24.902	-44.434	1.160	-81.45	9.66	-50.04	-88.592	-56.448	17.346	-0.71069	0.54330	-0.35132	0.27603	31.0	13111	100
2025-3-27 18:42:9.575	WT901BLE68-01(48591DE3C19B)	0.059	-1.374	0.052	-29.907	-46.753	4.028	-81.69	9.62	-49.76	-88.592	-56.448	17.346	-0.71069	0.54330	-0.35132	0.27603	31.0	13111	100
2025-3-27 18:42:9.575	WT901BLE68-01(48591DE3C19B)	0.170	-1.374	0.052	-29.907	-46.753	4.028	-81.94	9.57	-49.48	-88.592	-56.448	17.346	-0.71069	0.54330	-0.35132	0.27603	31.0	13111	100
2025-3-27 18:42:9.575	WT901BLE68-01(48591DE3C19B)	0.170	-1.553	0.112	-25.818	-46.265	4.272	-82.15	9.51	-49.20	-88.592	-56.448	17.346	-0.71069	0.54330	-0.35132	0.27603	31.0	13111	100
2025-3-27 18:42:9.608	WT901BLE68-01(48591DE3C19B)	0.275	-1.553	0.112	-25.818	-46.265	4.272	-82.36	9.46	-48.93	-88.592	-56.448	17.346	-0.71069	0.54330	-0.35132	0.27603	31.0	13111	100
2025-3-27 18:42:9.608	WT901BLE68-01(48591DE3C19B)	0.275	-1.654	0.148	-17.395	-32.959	1.160	-82.51	9.38	-48.80	-88.592	-56.448	17.346	-0.71069	0.54330	-0.35132	0.27603	31.0	13111	100
2025-3-27 18:42:9.608	WT901BLE68-01(48591DE3C19B)	0.377	-1.654	0.148	-17.395	-32.959	1.160	-82.67	9.29	-48.67	-88.592	-56.448	17.346	-0.71069	0.54330	-0.35132	0.27603	31.0	13111	100
2025-3-27 18:42:9.608	WT901BLE68-01(48591DE3C19B)	0.377	-1.752	0.131	-4.150	-3.784	-6.165	-82.74	9.17	-48.85	-88.592	-56.448	17.346	-0.71069	0.54330	-0.35132	0.27603	31.0	13111	100
2025-3-27 18:42:9.668	WT901BLE68-01(48591DE3C19B)	0.380	-1.752	0.131	-4.150	-3.784	-6.165	-82.81	9.04	-49.02	-88.592	-56.448	17.346	-0.71069	0.54330	-0.35132	0.27603	31.0	13111	100
2025-3-27 18:42:9.668	WT901BLE68-01(48591DE3C19B)	0.380	-1.857	0.038	7.080	44.800	-22.217	-82.86	8.80	-49.70	-88.592	-56.448	17.346	-0.71069	0.54330	-0.35132	0.27603	31.0	13111	100
2025-3-27 18:42:9.668	WT901BLE68-01(48591DE3C19B)	0.255	-1.857	0.038	7.080	44.800	-22.217	-82.90	8.56	-50.37	-88.592	-56.448	17.346	-0.71069	0.54330	-0.35132	0.27603	31.0	13111	100
2025-3-27 18:42:9.668	WT901BLE68-01(48591DE3C19B)	-0.003	-1.846	-0.018	18.494	93.628	-39.795	-82.91	8.20	-51.55	-88.592	-56.448	17.346	-0.71069	0.54330	-0.35132	0.27603	31.0	13111	100
2025-3-27 18:42:9.698	WT901BLE68-01(48591DE3C19B)	-0.003	-1.614	0.053	23.499	111.755	-56.335	-82.89	7.78	-52.82	-88.592	-56.448	17.346	-0.71069	0.54330	-0.35132	0.27603	31.0	13111	100
2025-3-27 18:42:9.698	WT901BLE68-01(48591DE3C19B)	-0.127	-1.614	0.053	23.499	111.755	-56.335	-82.86	7.29	-54.18	-88.592	-56.448	17.346	-0.71069	0.54330	-0.35132	0.27603	31.0	13111	100
2025-3-27 18:42:9.698	WT901BLE68-01(48591DE3C19B)	-0.127	-1.382	0.148	26.001	96.252	-67.139	-82.79	6.75	-55.47	-88.592	-56.448	17.346	-0.71069	0.54330	-0.35132	0.27603	31.0	13111	100
2025-3-27 18:42:9.698	WT901BLE68-01(48591DE3C19B)	-0.114	-1.382	0.148	26.001	96.252	-67.139	-82.69	6.15	-56.68	-88.592	-56.448	17.346	-0.67444	0.56024	-0.34973	0.32990	31.0	13111	100
2025-3-27 18:42:9.728	WT901BLE68-01(48591DE3C19B)	-0.114	-1.023	0.234	32.593	69.824	-63.171	-82.52	5.56	-57.75	-88.592	-56.448	17.346	-0.67444	0.56024	-0.34973	0.32990	31.0	13111	100
2025-3-27 18:42:9.728	WT901BLE68-01(48591DE3C19B)	-0.038	-1.023	0.234	32.593	69.824	-63.171	-82.30	4.99	-58.68	-88.592	-56.448	17.346	-0.67444	0.56024	-0.34973	0.32990	31.0	13111	100
2025-3-27 18:42:9.728	WT901BLE68-01(48591DE3C19B)	-0.038	-0.638	0.284	31.372	45.776	-47.485	-82.06	4.49	-59.48	-88.592	-56.448	17.346	-0.67444	0.56024	-0.34973	0.32990	31.0	13111	100
2025-3-27 18:42:9.728	WT901BLE68-01(48591DE3C19B)	0.060	-0.638	0.284	31.372	45.776	-47.485	-81.80	4.05	-60.16	-88.592	-56.448	17.346	-0.67444	0.56024	-0.34973	0.32990	31.0	13111	100
2025-3-27 18:42:9.789	WT901BLE68-01(48591DE3C19B)	0.060	-0.481	0.259	21.179	26.489	-39.734	-81.58	3.65	-60.73	-88.592	-56.448	17.346	-0.67444	0.56024	-0.34973	0.32990	31.0	13111	100
2025-3-27 18:42:9.789	WT901BLE68-01(48591DE3C19B)	0.136	-0.481	0.259	21.179	26.489	-39.734	-81.40	3.27	-61.20	-88.592	-56.448	17.346	-0.67444	0.56024	-0.34973	0.32990	31.0	13111	100
2025-3-27 18:42:9.789	WT901BLE68-01(48591DE3C19B)	0.136	-0.609	0.197	11.047	23.621	-35.217	-81.27	2.91	-61.66	-88.592	-56.448	17.346	-0.67444	0.56024	-0.34973	0.32990	31.0	13111	100
2025-3-27 18:42:9.789	WT901BLE68-01(48591DE3C19B)	0.118	-0.609	0.197	11.047	23.621	-35.217	-81.18	2.56	-62.09	-88.592	-56.448	17.346	-0.67444	0.56024	-0.34973	0.32990	31.0	13111	100
2025-3-27 18:42:9.816	WT901BLE68-01(48591DE3C19B)	0.118	-0.733	0.167	17.578	33.997	-29.541	-81.05	2.25	-62.58	-88.592	-56.448	17.346	-0.67444	0.56024	-0.34973	0.32990	31.0	13111	100
2025-3-27 18:42:9.817	WT901BLE68-01(48591DE3C19B)	0.066	-0.733	0.167	17.578	33.997	-29.541	-80.89	1.98	-63.12	-88.592	-56.448	17.346	-0.67444	0.56024	-0.34973	0.32990	31.0	13111	100
2025-3-27 18:42:9.817	WT901BLE68-01(48591DE3C19B)	0.066	-0.756	0.157	24.841	51.270	-27.771	-80.69	1.73	-63.73	-88.592	-56.448	17.346	-0.67444	0.56024	-0.34973	0.32990	31.0	13111	100
2025-3-27 18:42:9.817	WT901BLE68-01(48591DE3C19B)	0.038	-0.756	0.157	24.841	51.270	-27.771	-80.46	1.51	-64.43	-88.592	-56.448	17.346	-0.67444	0.56024	-0.34973	0.32990	31.0	13111	100
2025-3-27 18:42:9.846	WT901BLE68-01(48591DE3C19B)	0.038	-0.816	0.139	29.175	77.515	-31.982	-80.22	1.29	-65.25	-88.592	-56.448	17.346	-0.67444	0.56024	-0.34973	0.32990	31.0	13111	100
2025-3-27 18:42:9.846	WT901BLE68-01(48591DE3C19B)	-0.042	-0.816	0.139	29.175	77.515	-31.982	-79.95	1.08	-66.21	-88.592	-56.448	17.346	-0.67444	0.56024	-0.34973	0.32990	31.0	13111	100
2025-3-27 18:42:9.847	WT901BLE68-01(48591DE3C19B)	-0.021	-0.857	0.111	35.156	106.873	-35.400	-79.65	0.88	-67.31	-88.592	-56.448	17.346	-0.67444	0.56024	-0.34973	0.32990	31.0	13111	100
2025-3-27 18:42:9.847	WT901BLE68-01(48591DE3C19B)	-0.169	-0.429	0.055	35.156	106.873	-35.400	-79.32	0.71	-68.54	-88.592	-56.448	17.346	-0.67444	0.56024	-0.34973	0.32990	31.0	13111	100
2025-3-27 18:42:9.906	WT901BLE68-01(48591DE3C19B)	-0.169	-0.798	0.099	42.480	117.554	-36.926	-78.95	0.55	-69.83	-88.592	-56.448	17.346	-0.67444	0.56024	-0.34973	0.32990	31.0	13111	100
2025-3-27 18:42:9.906	WT901BLE68-01(48591DE3C19B)	-0.235	-0.798	0.099	42.480	117.554	-36.926	-78.55	0.41	-71.16	-79.674	-58.702	11.564	-0.67444	0.56024	-0.34973	0.32990	31.0	13111	100
2025-3-27 18:42:9.906	WT901BLE68-01(48591DE3C19B)	-0.235	-0.650	0.113	44.556	109.497	-36.621	-78.14	0.28	-72.45	-79.674	-58.702	11.564	-0.67444	0.56024	-0.34973	0.32990	31.0	13111	100
2025-3-27 18:42:9.906	WT901BLE68-01(48591DE3C19B)	-0.260	-0.650	0.113	44.556	109.497	-36.621	-77.71	0.16	-73.69	-79.674	-58.702	11.564	-0.67444	0.56024	-0.34973	0.32990	31.0	13111	100
2025-3-27 18:42:9.935	WT901BLE68-01(48591DE3C19B)	-0.260	-0.516	0.154	38.147	94.177	-33.875	-77.32	0.05	-74.84	-79.674	-58.702	11.564	-0.67444	0.56024	-0.34973	0.32990	31.0	13111	100
2025-3-27 18:42:9.936	WT901BLE68-01(48591DE3C19B)	-0.278	-0.516	0.154	38.147	94.177	-33.875	-76.95	-0.03	-75.92	-79.674	-58.702	11.564	-0.67444	0.56024	-0.34973	0.32990	31.0	13111	100
2025-3-27 18:42:9.936	WT901BLE68-01(48591DE3C19B)	-0.278	-0.441	0.192	29.907	73.975	-29.968	-76.62	-0.10	-76.89	-79.674	-58.702	11.564	-0.67444	0.56024	-0.34973	0.32990	31.0	13111	100
2025-3-27 18:42:9.936	WT901BLE68-01(48591DE3C19B)	-0.292	-0.441	0.192	29.907	73.975	-29.968	-76.33	-0.17	-77.76	-79.674	-58.702	11.564	-0.67444	0.56024	-0.34973	0.32990	31.0	13111	100
2025-3-27 18:42:9.965	WT901BLE68-01(48591DE3C19B)	-0.292	-0.391	0.236	21.667	51.758	-25.574	-76.07	-0.23	-78.52	-79.674	-58.702	11.564	-0.67444	0.56024	-0.34973	0.32990	31.0	13111	100
2025-3-27 18:42:9.966	WT901BLE68-01(48591DE3C19B)	-0.291	-0.391	0.236	21.667	51.758	-25.574	-75.84	-0.28	-79.17	-79.674	-58.702	11.564	-0.67444	0.56024	-0.34973	0.32990	31.0	13111	100
2025-3-27 18:42:9.966	WT901BLE68-01(48591DE3C19B)	-0.291	-0.382	0.259	12.878	34.363	-20.630	-75.66	-0.32	-79.73	-79.674	-58.702	11.564	-0.67444	0.56024	-0.34973	0.32990	31.0	13111	100
2025-3-27 18:42:9.966	WT901BLE68-01(48591DE3C19B)	-0.292	-0.382	0.259	12.878	34.363	-20.630	-75.50	-0.35	-80.22	-79.674	-58.702	11.564	-0.67444	0.56024	-0.34973	0.32990	31.0	13111	100
2025-3-27 18:42:10.26	WT901BLE68-01(48591DE3C19B)	-0.292	-0.416	0.239	4.822	26.855	-17.212	-75.38	-0.36	-80.67	-79.674	-58.702	11.564	-0.67444	0.56024	-0.34973	0.32990	31.0	13111	100
2025-3-27 18:42:10.26	WT901BLE68-01(48591DE3C19B)	-0.370	-0.416	0.239	4.822	26.855	-17.212	-75.29	-0.35	-81.10	-79.674	-58.702	11.564	-0.67444	0.56024	-0.34973	0.32990	31.0	13111	100
2025-3-27 18:42:10.26	WT901BLE68-01(48591DE3C19B)	-0.370	-0.517	0.242	-2.319	22.339	-13.916	-75.23	-0.34	-81.50	-79.674	-58.702	11.564	-0.67444	0.56024	-0.34973	0.32990	31.0	13111	100
2025-3-27 18:42:10.26	WT901BLE68-01(48591DE3C19B)	-0.500	-0.517	0.242	-2.319	22.339	-13.916	-75.20	-0.30	-81.88	-79.674	-58.702	11.564	-0.67444	0.56024	-0.34973	0.32990	31.0	13111	100
2025-3-27 18:42:10.58	WT901BLE68-01(48591DE3C19B)	-0.500	-0.682	0.279	-8.301	5.432	-9.155	-75.20	-0.25	-82.18	-79.674	-58.702	11.564	-0.67444	0.56024	-0.34973	0.32990	31.0	13111	100
2025-3-27 18:42:10.59	WT901BLE68-01(48591DE3C19B)	-0.607	-0.682	0.279	-8.301	5.432	-9.155	-75.22	-0.19	-82.41	-79.674	-58.702	11.564	-0.67444	0.56024	-0.34973	0.32990	31.0	13111	100
2025-3-27 18:42:10.59	WT901BLE68-01(48591DE3C19B)	-0.607	-0.886	0.333	-11.841	-22.888	-2.686	-75.25	-0.13	-82.49	-79.674	-58.702	11.564	-0.67444	0.56024	-0.34973	0.32990	31.0	13111	100
2025-3-27 18:42:10.59	WT901BLE68-01(48591DE3C19B)	-0.668	-0.886	0.333	-11.841	-22.888	-2.686	-75.30	-0.08	-82.44	-79.674	-58.702	11.564	-0.67444	0.56024	-0.34973	0.32990	31.0	13111	100
2025-3-27 18:42:10.116	WT901BLE68-01(48591DE3C19B)	-0.668	-1.117	0.332	-13.794	-46.814	4.700	-75.36	-0.01	-82.26	-79.674	-58.702	11.564	-0.67444	0.56024	-0.34973	0.32990	31.0	13111	100
2025-3-27 18:42:10.116	WT901BLE68-01(48591DE3C19B)	-0.668	-1.117	0.332	-13.794	-46.814	4.700	-75.43	0.07	-81.95	-79.674	-58.702	11.564	-0.67444	0.56024	-0.34973	0.32990	31.0	13111	100
2025-3-27 18:42:10.116	WT901BLE68-01(48591DE3C19B)	-0.668	-1.301	0.323	-11.780	-59.265	10.559	-75.49	0.16	-81.58	-79.674	-58.702	11.564	-0.59918	0.46271	-0.40079	0.51590	31.0	13111	100
2025-3-27 18:42:10.116	WT901BLE68-01(48591DE3C19B)	-0.657	-1.301	0.323	-11.780	-59.265	10.559	-75.55	0.27	-81.13	-79.674	-58.702	11.564	-0.59918	0.46271	-0.40079	0.51590	31.0	13111	100
2025-3-27 18:42:10.146	WT901BLE68-01(48591DE3C19B)	-0.657	-1.478	0.334	-12.939	-57.617	22.949	-75.62	0.44	-80.68	-79.674	-58.702	11.564	-0.59918	0.46271	-0.40079	0.51590	31.0	13111	100
2025-3-27 18:42:10.146	WT901BLE68-01(48591DE3C19B)	-0.623	-1.478	0.334	-12.939	-57.617	22.949	-75.70	0.66	-80.21	-79.674	-58.702	11.564	-0.59918	0.46271	-0.40079	0.51590	31.0	13111	100
2025-3-27 18:42:10.146	WT901BLE68-01(48591DE3C19B)	-0.623	-1.483	0.365	-4.944	-43.579	34.241	-75.70	1.03	-79.84	-79.674	-58.702	11.564	-0.59918	0.46271	-0.40079	0.51590	31.0	13111	100
2025-3-27 18:42:10.146	WT901BLE68-01(48591DE3C19B)	-0.556	-1.483	0.365	-4.944	-43.579	34.241	-75.69	1.40	-79.48	-79.674	-58.702	11.564	-0.59918	0.46271	-0.40079	0.51590	31.0	13111	100
2025-3-27 18:42:10.176	WT901BLE68-01(48591DE3C19B)	-0.556	-1.408	0.393	-9.277	-20.325	51.086	-75.74	1.98	-79.29	-79.674	-58.702	11.564	-0.59918	0.46271	-0.40079	0.51590	31.0	13111	100
2025-3-27 18:42:10.176	WT901BLE68-01(48591DE3C19B)	-0.543	-1.408	0.393	-9.277	-20.325	51.086	-75.78	2.55	-79.11	-79.674	-58.702	11.564	-0.59918	0.46271	-0.40079	0.51590	31.0	13111	100
2025-3-27 18:42:10.176	WT901BLE68-01(48591DE3C19B)	-0.543	-1.425	0.408	-16.418	2.319	67.261	-75.90	3.32	-79.11	-79.674	-58.702	11.564	-0.59918	0.46271	-0.40079	0.51590	31.0	13111	100
2025-3-27 18:42:10.176	WT901BLE68-01(48591DE3C19B)	-0.590	-1.425	0.408	-16.418	2.319	67.261	-76.02	4.10	-79.11	-79.674	-58.702	11.564	-0.59918	0.46271	-0.40079	0.51590	31.0	13111	100
2025-3-27 18:42:10.205	WT901BLE68-01(48591DE3C19B)	-0.590	-1.458	0.401	-18.799	11.475	79.468	-76.17	5.00	-79.17	-79.674	-58.702	11.564	-0.59918	0.46271	-0.40079	0.51590	31.0	13111	100
2025-3-27 18:42:10.205	WT901BLE68-01(48591DE3C19B)	-0.641	-1.458	0.401	-18.799	11.475	79.468	-76.32	5.90	-79.24	-79.674	-58.702	11.564	-0.59918	0.46271	-0.40079	0.51590	31.0	13111	100
2025-3-27 18:42:10.206	WT901BLE68-01(48591DE3C19B)	-0.641	-1.435	0.361	-17.700	5.066	90.576	-76.44	6.88	-79.22	-79.674	-58.702	11.564	-0.59918	0.46271	-0.40079	0.51590	31.0	13111	100
2025-3-27 18:42:10.206	WT901BLE68-01(48591DE3C19B)	-0.680	-1.435	0.361	-17.700	5.066	90.576	-76.56	7.87	-79.20	-79.674	-58.702	11.564	-0.59918	0.46271	-0.40079	0.51590	31.0	13111	100
2025-3-27 18:42:10.267	WT901BLE68-01(48591DE3C19B)	-0.680	-1.351	0.292	-17.395	-11.963	104.004	-76.66	8.93	-78.99	-79.674	-58.702	11.564	-0.59918	0.46271	-0.40079	0.51590	31.0	13111	100
2025-3-27 18:42:10.267	WT901BLE68-01(48591DE3C19B)	-0.639	-1.351	0.292	-17.395	-11.963	104.004	-76.74	9.99	-78.78	-79.674	-58.702	11.564	-0.59918	0.46271	-0.40079	0.51590	31.0	13111	100
2025-3-27 18:42:10.267	WT901BLE68-01(48591DE3C19B)	-0.639	-1.255	0.206	-17.822	-32.593	121.033	-76.79	11.17	-78.32	-79.674	-58.702	11.564	-0.59918	0.46271	-0.40079	0.51590	31.0	13111	100
2025-3-27 18:42:10.267	WT901BLE68-01(48591DE3C19B)	-0.529	-1.255	0.206	-17.822	-32.593	121.033	-76.82	12.35	-77.87	-79.674	-58.702	11.564	-0.59918	0.46271	-0.40079	0.51590	31.0	13111	100
2025-3-27 18:42:10.295	WT901BLE68-01(48591DE3C19B)	-0.529	-1.147	0.126	-16.418	-50.415	142.456	-76.78	13.68	-77.18	-79.674	-58.702	11.564	-0.59918	0.46271	-0.40079	0.51590	31.0	13111	100
2025-3-27 18:42:10.295	WT901BLE68-01(48591DE3C19B)	-0.416	-1.147	0.126	-16.418	-50.415	142.456	-76.72	15.01	-76.50	-79.674	-58.702	11.564	-0.59918	0.46271	-0.40079	0.51590	31.0	13111	100
2025-3-27 18:42:10.295	WT901BLE68-01(48591DE3C19B)	-0.416	-1.071	0.070	-17.151	-65.674	164.673	-76.61	16.51	-75.60	-79.674	-58.702	11.564	-0.59918	0.46271	-0.40079	0.51590	31.0	13111	100
2025-3-27 18:42:10.296	WT901BLE68-01(48591DE3C19B)	-0.272	-1.071	0.070	-17.151	-65.674	164.673	-76.46	18.00	-74.69	-81.340	-54.194	-1.078	-0.59918	0.46271	-0.40079	0.51590	31.0	13111	100
2025-3-27 18:42:10.357	WT901BLE68-01(48591DE3C19B)	-0.272	-1.111	0.022	-17.944	-75.195	178.467	-76.26	19.58	-73.64	-81.340	-54.194	-1.078	-0.59918	0.46271	-0.40079	0.51590	31.0	13111	100
2025-3-27 18:42:10.357	WT901BLE68-01(48591DE3C19B)	-0.140	-1.111	0.022	-17.944	-75.195	178.467	-76.04	21.15	-72.56	-81.340	-54.194	-1.078	-0.59918	0.46271	-0.40079	0.51590	31.0	13111	100
2025-3-27 18:42:10.357	WT901BLE68-01(48591DE3C19B)	-0.140	-1.172	0.004	-14.221	-74.646	183.167	-75.74	22.75	-71.47	-81.340	-54.194	-1.078	-0.59918	0.46271	-0.40079	0.51590	31.0	13111	100
2025-3-27 18:42:10.357	WT901BLE68-01(48591DE3C19B)	-0.062	-1.172	0.004	-14.221	-74.646	183.167	-75.41	24.32	-70.36	-81.340	-54.194	-1.078	-0.59918	0.46271	-0.40079	0.51590	31.0	13111	100
2025-3-27 18:42:10.390	WT901BLE68-01(48591DE3C19B)	-0.062	-1.203	0.010	-8.484	-67.627	181.519	-75.03	25.87	-69.30	-81.340	-54.194	-1.078	-0.59918	0.46271	-0.40079	0.51590	31.0	13111	100
2025-3-27 18:42:10.390	WT901BLE68-01(48591DE3C19B)	-0.021	-1.203	0.010	-8.484	-67.627	181.519	-74.62	27.41	-68.22	-81.340	-54.194	-1.078	-0.59918	0.46271	-0.40079	0.51590	31.0	13111	100
2025-3-27 18:42:10.390	WT901BLE68-01(48591DE3C19B)	-0.021	-1.148	0.026	-2.075	-55.725	174.744	-74.18	28.88	-67.27	-81.340	-54.194	-1.078	-0.59918	0.46271	-0.40079	0.51590	31.0	13111	100
2025-3-27 18:42:10.390	WT901BLE68-01(48591DE3C19B)	0.000	-1.148	0.026	-2.075	-55.725	174.744	-73.72	30.33	-66.30	-81.340	-54.194	-1.078	-0.59918	0.46271	-0.40079	0.51590	31.0	13111	100
2025-3-27 18:42:10.415	WT901BLE68-01(48591DE3C19B)	0.000	-1.024	0.034	2.441	-32.227	165.039	-73.33	31.73	-65.60	-81.340	-54.194	-1.078	-0.59918	0.46271	-0.40079	0.51590	31.0	13111	100
2025-3-27 18:42:10.416	WT901BLE68-01(48591DE3C19B)	-0.046	-1.024	0.034	2.441	-32.227	165.039	-72.92	33.11	-64.89	-81.340	-54.194	-1.078	-0.59918	0.46271	-0.40079	0.51590	31.0	13111	100
2025-3-27 18:42:10.416	WT901BLE68-01(48591DE3C19B)	-0.046	-0.907	0.031	1.099	-4.883	154.358	-72.70	34.46	-64.51	-81.340	-54.194	-1.078	-0.59918	0.46271	-0.40079	0.51590	31.0	13111	100
2025-3-27 18:42:10.416	WT901BLE68-01(48591DE3C19B)	-0.129	-0.907	0.031	1.099	-4.883	154.358	-72.46	35.80	-64.12	-81.340	-54.194	-1.078	-0.59918	0.46271	-0.40079	0.51590	31.0	13111	100
2025-3-27 18:42:10.445	WT901BLE68-01(48591DE3C19B)	-0.129	-0.837	0.020	-4.028	4.517	144.226	-72.35	37.06	-63.87	-81.340	-54.194	-1.078	-0.59918	0.46271	-0.40079	0.51590	31.0	13111	100
2025-3-27 18:42:10.445	WT901BLE68-01(48591DE3C19B)	-0.177	-0.837	0.020	-4.028	4.517	144.226	-72.24	38.31	-63.63	-81.340	-54.194	-1.078	-0.59918	0.46271	-0.40079	0.51590	31.0	13111	100
2025-3-27 18:42:10.445	WT901BLE68-01(48591DE3C19B)	-0.177	-0.833	-0.013	-9.888	-13.367	133.545	-72.06	39.40	-63.19	-81.340	-54.194	-1.078	-0.59918	0.46271	-0.40079	0.51590	31.0	13111	100
2025-3-27 18:42:10.445	WT901BLE68-01(48591DE3C19B)	-0.114	-0.833	-0.013	-9.888	-13.367	133.545	-71.87	40.48	-62.75	-81.340	-54.194	-1.078	-0.59918	0.46271	-0.40079	0.51590	31.0	13111	100
2025-3-27 18:42:10.505	WT901BLE68-01(48591DE3C19B)	-0.114	-0.876	-0.030	-13.367	-33.569	123.352	-71.57	41.40	-62.09	-81.340	-54.194	-1.078	-0.59918	0.46271	-0.40079	0.51590	31.0	13111	100
2025-3-27 18:42:10.506	WT901BLE68-01(48591DE3C19B)	0.040	-0.876	-0.030	-13.367	-33.569	123.352	-71.26	42.31	-61.42	-81.340	-54.194	-1.078	-0.59918	0.46271	-0.40079	0.51590	31.0	13111	100
2025-3-27 18:42:10.506	WT901BLE68-01(48591DE3C19B)	0.040	-0.890	-0.043	-16.418	-55.237	109.741	-70.81	43.01	-60.52	-81.340	-54.194	-1.078	-0.59918	0.46271	-0.40079	0.51590	31.0	13111	100
2025-3-27 18:42:10.506	WT901BLE68-01(48591DE3C19B)	0.134	-0.890	-0.043	-16.418	-55.237	109.741	-70.35	43.70	-59.61	-81.340	-54.194	-1.078	-0.59918	0.46271	-0.40079	0.51590	31.0	13111	100
2025-3-27 18:42:10.535	WT901BLE68-01(48591DE3C19B)	0.134	-0.949	-0.018	-22.888	-68.542	92.346	-69.88	44.16	-58.60	-81.340	-54.194	-1.078	-0.76773	0.31204	-0.52844	0.18396	31.0	13111	100
2025-3-27 18:42:10.535	WT901BLE68-01(48591DE3C19B)	0.202	-0.949	-0.018	-22.888	-68.542	92.346	-69.42	44.60	-57.59	-81.340	-54.194	-1.078	-0.76773	0.31204	-0.52844	0.18396	31.0	13111	100
2025-3-27 18:42:10.535	WT901BLE68-01(48591DE3C19B)	0.202	-1.155	-0.002	-29.663	-67.627	66.528	-69.11	44.80	-56.72	-81.340	-54.194	-1.078	-0.76773	0.31204	-0.52844	0.18396	31.0	13111	100
2025-3-27 18:42:10.535	WT901BLE68-01(48591DE3C19B)	0.400	-1.155	-0.002	-29.663	-67.627	66.528	-68.80	44.98	-55.84	-81.340	-54.194	-1.078	-0.76773	0.31204	-0.52844	0.18396	31.0	13111	100
2025-3-27 18:42:10.565	WT901BLE68-01(48591DE3C19B)	0.400	-1.429	-0.036	-30.029	-52.185	30.640	-68.79	44.87	-55.37	-81.340	-54.194	-1.078	-0.76773	0.31204	-0.52844	0.18396	31.0	13111	100
2025-3-27 18:42:10.565	WT901BLE68-01(48591DE3C19B)	0.563	-1.429	-0.036	-30.029	-52.185	30.640	-68.78	44.76	-54.90	-81.340	-54.194	-1.078	-0.76773	0.31204	-0.52844	0.18396	31.0	13111	100
2025-3-27 18:42:10.565	WT901BLE68-01(48591DE3C19B)	0.444	-1.687	-0.035	-19.287	-16.296	-10.254	-69.15	44.38	-55.12	-81.340	-54.194	-1.078	-0.76773	0.31204	-0.52844	0.18396	31.0	13111	100
2025-3-27 18:42:10.565	WT901BLE68-01(48591DE3C19B)	0.444	-1.738	0.000	-10.681	28.931	-51.575	-69.75	43.88	-55.73	-81.340	-54.194	-1.078	-0.76773	0.31204	-0.52844	0.18396	31.0	13111	100
2025-3-27 18:42:10.626	WT901BLE68-01(48591DE3C19B)	0.225	-1.738	0.000	-10.681	28.931	-51.575	-70.57	43.26	-56.71	-81.340	-54.194	-1.078	-0.76773	0.31204	-0.52844	0.18396	31.0	13111	100
2025-3-27 18:42:10.626	WT901BLE68-01(48591DE3C19B)	0.225	-1.707	0.079	-15.381	64.392	-101.135	-71.60	42.45	-58.01	-81.340	-54.194	-1.078	-0.76773	0.31204	-0.52844	0.18396	31.0	13111	100
2025-3-27 18:42:10.626	WT901BLE68-01(48591DE3C19B)	0.115	-1.707	0.079	-15.381	64.392	-101.135	-72.84	41.45	-59.58	-81.340	-54.194	-1.078	-0.76773	0.31204	-0.52844	0.18396	31.0	13111	100
2025-3-27 18:42:10.626	WT901BLE68-01(48591DE3C19B)	0.115	-1.677	0.173	-13.184	81.665	-143.982	-74.11	40.24	-61.28	-81.340	-54.194	-1.078	-0.76773	0.31204	-0.52844	0.18396	31.0	13111	100
2025-3-27 18:42:10.658	WT901BLE68-01(48591DE3C19B)	0.037	-1.677	0.173	-13.184	81.665	-143.982	-75.41	38.83	-63.09	-81.340	-54.194	-1.078	-0.76773	0.31204	-0.52844	0.18396	31.0	13111	100
2025-3-27 18:42:10.658	WT901BLE68-01(48591DE3C19B)	0.037	-1.679	0.186	-8.789	78.857	-179.016	-76.61	37.23	-64.85	-81.340	-54.194	-1.078	-0.76773	0.31204	-0.52844	0.18396	31.0	13111	100
2025-3-27 18:42:10.658	WT901BLE68-01(48591DE3C19B)	-0.001	-1.679	0.186	-8.789	78.857	-179.016	-77.72	35.44	-66.54	-81.340	-54.194	-1.078	-0.76773	0.31204	-0.52844	0.18396	31.0	13111	100
2025-3-27 18:42:10.658	WT901BLE68-01(48591DE3C19B)	-0.001	-1.617	0.092	4.517	69.458	-203.918	-78.64	33.50	-68.13	-81.340	-54.194	-1.078	-0.76773	0.31204	-0.52844	0.18396	31.0	13111	100
2025-3-27 18:42:10.716	WT901BLE68-01(48591DE3C19B)	-0.067	-1.617	0.092	4.517	69.458	-203.918	-79.40	31.43	-69.62	-81.340	-54.194	-1.078	-0.76773	0.31204	-0.52844	0.18396	31.0	13111	100
2025-3-27 18:42:10.716	WT901BLE68-01(48591DE3C19B)	-0.067	-1.404	0.064	14.221	47.546	-216.125	-79.97	29.28	-70.92	-93.100	-31.850	-12.838	-0.76773	0.31204	-0.52844	0.18396	31.0	13111	100
2025-3-27 18:42:10.716	WT901BLE68-01(48591DE3C19B)	-0.166	-1.404	0.064	14.221	47.546	-216.125	-80.37	27.06	-72.06	-93.100	-31.850	-12.838	-0.76773	0.31204	-0.52844	0.18396	31.0	13111	100
2025-3-27 18:42:10.716	WT901BLE68-01(48591DE3C19B)	-0.166	-1.260	0.105	11.475	18.433	-222.717	-80.66	24.80	-73.01	-93.100	-31.850	-12.838	-0.76773	0.31204	-0.52844	0.18396	31.0	13111	100
2025-3-27 18:42:10.745	WT901BLE68-01(48591DE3C19B)	-0.227	-1.260	0.105	11.475	18.433	-222.717	-80.86	22.49	-73.77	-93.100	-31.850	-12.838	-0.76773	0.31204	-0.52844	0.18396	31.0	13111	100
2025-3-27 18:42:10.745	WT901BLE68-01(48591DE3C19B)	-0.227	-1.195	0.186	3.967	-10.315	-226.807	-81.01	20.16	-74.36	-93.100	-31.850	-12.838	-0.76773	0.31204	-0.52844	0.18396	31.0	13111	100
2025-3-27 18:42:10.745	WT901BLE68-01(48591DE3C19B)	-0.274	-1.195	0.186	3.967	-10.315	-226.807	-81.11	17.80	-74.78	-93.100	-31.850	-12.838	-0.76773	0.31204	-0.52844	0.18396	31.0	13111	100
2025-3-27 18:42:10.745	WT901BLE68-01(48591DE3C19B)	-0.274	-1.197	0.260	-3.601	-32.898	-227.661	-81.20	15.44	-75.08	-93.100	-31.850	-12.838	-0.76773	0.31204	-0.52844	0.18396	31.0	13111	100
2025-3-27 18:42:10.775	WT901BLE68-01(48591DE3C19B)	-0.255	-1.197	0.260	-3.601	-32.898	-227.661	-81.28	13.07	-75.25	-93.100	-31.850	-12.838	-0.76773	0.31204	-0.52844	0.18396	31.0	13111	100
2025-3-27 18:42:10.775	WT901BLE68-01(48591DE3C19B)	-0.255	-1.218	0.302	-8.728	-42.603	-224.854	-81.36	10.73	-75.37	-93.100	-31.850	-12.838	-0.76773	0.31204	-0.52844	0.18396	31.0	13111	100
2025-3-27 18:42:10.775	WT901BLE68-01(48591DE3C19B)	-0.210	-1.218	0.302	-8.728	-42.603	-224.854	-81.46	8.42	-75.44	-93.100	-31.850	-12.838	-0.76773	0.31204	-0.52844	0.18396	31.0	13111	100
2025-3-27 18:42:10.776	WT901BLE68-01(48591DE3C19B)	-0.210	-1.215	0.325	-13.733	-31.372	-219.238	-81.57	6.15	-75.55	-93.100	-31.850	-12.838	-0.76773	0.31204	-0.52844	0.18396	31.0	13111	100
2025-3-27 18:42:10.835	WT901BLE68-01(48591DE3C19B)	-0.175	-1.215	0.325	-13.733	-31.372	-219.238	-81.72	3.94	-75.71	-93.100	-31.850	-12.838	-0.76773	0.31204	-0.52844	0.18396	31.0	13111	100
2025-3-27 18:42:10.836	WT901BLE68-01(48591DE3C19B)	-0.175	-1.191	0.313	-16.052	0.183	-213.928	-81.86	1.79	-76.01	-93.100	-31.850	-12.838	-0.76773	0.31204	-0.52844	0.18396	31.0	13111	100
2025-3-27 18:42:10.836	WT901BLE68-01(48591DE3C19B)	-0.243	-1.191	0.313	-16.052	0.183	-213.928	-82.02	-0.30	-76.46	-93.100	-31.850	-12.838	-0.76773	0.31204	-0.52844	0.18396	31.0	13111	100
2025-3-27 18:42:10.836	WT901BLE68-01(48591DE3C19B)	-0.243	-1.148	0.271	-11.292	35.706	-207.092	-82.12	-2.31	-77.09	-93.100	-31.850	-12.838	-0.76773	0.31204	-0.52844	0.18396	31.0	13111	100
2025-3-27 18:42:10.866	WT901BLE68-01(48591DE3C19B)	-0.347	-1.148	0.271	-11.292	35.706	-207.092	-82.17	-4.26	-77.87	-93.100	-31.850	-12.838	-0.76773	0.31204	-0.52844	0.18396	31.0	13111	100
2025-3-27 18:42:10.866	WT901BLE68-01(48591DE3C19B)	-0.347	-1.056	0.249	-2.869	54.626	-197.510	-82.14	-6.13	-78.74	-93.100	-31.850	-12.838	-0.76773	0.31204	-0.52844	0.18396	31.0	13111	100
2025-3-27 18:42:10.866	WT901BLE68-01(48591DE3C19B)	-0.389	-1.056	0.249	-2.869	54.626	-197.510	-82.04	-7.93	-79.70	-93.100	-31.850	-12.838	-0.76773	0.31204	-0.52844	0.18396	31.0	13111	100
2025-3-27 18:42:10.866	WT901BLE68-01(48591DE3C19B)	-0.389	-0.911	0.266	2.808	58.411	-185.608	-81.88	-9.64	-80.68	-93.100	-31.850	-12.838	-0.76773	0.31204	-0.52844	0.18396	31.0	13111	100
2025-3-27 18:42:10.895	WT901BLE68-01(48591DE3C19B)	-0.387	-0.911	0.266	2.808	58.411	-185.608	-81.65	-11.28	-81.67	-93.100	-31.850	-12.838	-0.76773	0.31204	-0.52844	0.18396	31.0	13111	100
2025-3-27 18:42:10.895	WT901BLE68-01(48591DE3C19B)	-0.387	-0.799	0.303	5.005	58.105	-169.128	-81.39	-12.81	-82.67	-93.100	-31.850	-12.838	-0.76773	0.31204	-0.52844	0.18396	31.0	13111	100
2025-3-27 18:42:10.895	WT901BLE68-01(48591DE3C19B)	-0.439	-0.799	0.303	5.005	58.105	-169.128	-81.08	-14.25	-83.67	-93.100	-31.850	-12.838	-0.50317	0.54388	-0.35770	0.56827	31.0	13111	100
2025-3-27 18:42:10.895	WT901BLE68-01(48591DE3C19B)	-0.439	-0.721	0.325	8.606	55.054	-151.978	-80.74	-15.58	-84.64	-93.100	-31.850	-12.838	-0.50317	0.54388	-0.35770	0.56827	31.0	13111	100
2025-3-27 18:42:10.955	WT901BLE68-01(48591DE3C19B)	-0.496	-0.721	0.325	8.606	55.054	-151.978	-80.36	-16.81	-85.62	-93.100	-31.850	-12.838	-0.50317	0.54388	-0.35770	0.56827	31.0	13111	100
2025-3-27 18:42:10.956	WT901BLE68-01(48591DE3C19B)	-0.496	-0.677	0.283	9.094	46.143	-134.277	-79.97	-17.95	-86.54	-93.100	-31.850	-12.838	-0.50317	0.54388	-0.35770	0.56827	31.0	13111	100
2025-3-27 18:42:10.956	WT901BLE68-01(48591DE3C19B)	-0.504	-0.677	0.283	9.094	46.143	-134.277	-79.57	-18.99	-87.43	-93.100	-31.850	-12.838	-0.50317	0.54388	-0.35770	0.56827	31.0	13111	100
2025-3-27 18:42:10.956	WT901BLE68-01(48591DE3C19B)	-0.504	-0.683	0.241	8.667	36.194	-114.929	-79.18	-19.92	-88.26	-93.100	-31.850	-12.838	-0.50317	0.54388	-0.35770	0.56827	31.0	13111	100
2025-3-27 18:42:10.988	WT901BLE68-01(48591DE3C19B)	-0.532	-0.683	0.241	8.667	36.194	-114.929	-78.80	-20.76	-89.03	-93.100	-31.850	-12.838	-0.50317	0.54388	-0.35770	0.56827	31.0	13111	100
2025-3-27 18:42:10.988	WT901BLE68-01(48591DE3C19B)	-0.532	-0.747	0.256	8.972	27.100	-93.384	-78.43	-21.48	-89.75	-93.100	-31.850	-12.838	-0.50317	0.54388	-0.35770	0.56827	31.0	13111	100
2025-3-27 18:42:10.988	WT901BLE68-01(48591DE3C19B)	-0.573	-0.747	0.256	8.972	27.100	-93.384	-78.06	-22.09	-90.41	-93.100	-31.850	-12.838	-0.50317	0.54388	-0.35770	0.56827	31.0	13111	100
2025-3-27 18:42:10.988	WT901BLE68-01(48591DE3C19B)	-0.573	-0.831	0.278	9.277	19.897	-71.350	-77.72	-22.59	-91.03	-93.100	-31.850	-12.838	-0.50317	0.54388	-0.35770	0.56827	31.0	13111	100
2025-3-27 18:42:11.106	WT901BLE68-01(48591DE3C19B)	-0.574	-0.831	0.278	9.277	19.897	-71.350	-77.38	-22.98	-91.59	-93.100	-31.850	-12.838	-0.50317	0.54388	-0.35770	0.56827	31.0	13111	100
2025-3-27 18:42:11.106	WT901BLE68-01(48591DE3C19B)	-0.574	-0.893	0.271	9.888	12.634	-51.331	-77.06	-23.27	-92.09	-93.100	-31.850	-12.838	-0.50317	0.54388	-0.35770	0.56827	31.0	13111	100
2025-3-27 18:42:11.106	WT901BLE68-01(48591DE3C19B)	-0.601	-0.893	0.271	9.888	12.634	-51.331	-76.76	-23.47	-92.54	-93.100	-31.850	-12.838	-0.50317	0.54388	-0.35770	0.56827	31.0	13111	100
2025-3-27 18:42:11.106	WT901BLE68-01(48591DE3C19B)	-0.601	-0.946	0.287	9.338	7.141	-32.043	-76.48	-23.58	-92.94	-93.100	-31.850	-12.838	-0.50317	0.54388	-0.35770	0.56827	31.0	13111	100
2025-3-27 18:42:11.107	WT901BLE68-01(48591DE3C19B)	-0.668	-0.946	0.287	9.338	7.141	-32.043	-76.22	-23.59	-93.30	-93.100	-31.850	-12.838	-0.50317	0.54388	-0.35770	0.56827	31.0	13111	100
2025-3-27 18:42:11.107	WT901BLE68-01(48591DE3C19B)	-0.668	-1.032	0.312	6.775	0.000	-13.489	-76.00	-23.52	-93.59	-93.100	-31.850	-12.838	-0.50317	0.54388	-0.35770	0.56827	31.0	13111	100
2025-3-27 18:42:11.107	WT901BLE68-01(48591DE3C19B)	-0.702	-1.032	0.312	6.775	0.000	-13.489	-75.82	-23.37	-93.82	-93.100	-31.850	-12.838	-0.50317	0.54388	-0.35770	0.56827	31.0	13111	100
2025-3-27 18:42:11.107	WT901BLE68-01(48591DE3C19B)	-0.702	-1.138	0.333	2.380	-9.705	5.798	-75.74	-23.05	-93.91	-93.100	-31.850	-12.838	-0.50317	0.54388	-0.35770	0.56827	31.0	13111	100
2025-3-27 18:42:11.107	WT901BLE68-01(48591DE3C19B)	-0.686	-1.138	0.333	2.380	-9.705	5.798	-75.66	-22.74	-94.00	-93.100	-31.850	-12.838	-0.50317	0.54388	-0.35770	0.56827	31.0	13111	100
2025-3-27 18:42:11.108	WT901BLE68-01(48591DE3C19B)	-0.686	-1.246	0.341	-2.380	-15.015	29.541	-75.67	-22.20	-93.97	-93.100	-31.850	-12.838	-0.50317	0.54388	-0.35770	0.56827	31.0	13111	100
2025-3-27 18:42:11.108	WT901BLE68-01(48591DE3C19B)	-0.635	-1.246	0.341	-2.380	-15.015	29.541	-75.69	-21.68	-93.93	-93.100	-31.850	-12.838	-0.50317	0.54388	-0.35770	0.56827	31.0	13111	100
2025-3-27 18:42:11.108	WT901BLE68-01(48591DE3C19B)	-0.635	-1.336	0.344	-8.484	-13.428	55.786	-75.78	-20.89	-93.85	-93.100	-31.850	-12.838	-0.50317	0.54388	-0.35770	0.56827	31.0	13111	100
2025-3-27 18:42:11.135	WT901BLE68-01(48591DE3C19B)	-0.645	-1.336	0.344	-8.484	-13.428	55.786	-75.88	-20.12	-93.76	-93.100	-31.850	-12.838	-0.50317	0.54388	-0.35770	0.56827	31.0	13111	100
2025-3-27 18:42:11.135	WT901BLE68-01(48591DE3C19B)	-0.645	-1.439	0.374	-11.597	-18.188	84.778	-76.05	-19.08	-93.55	-93.100	-31.850	-12.838	-0.50317	0.54388	-0.35770	0.56827	31.0	13111	100
2025-3-27 18:42:11.135	WT901BLE68-01(48591DE3C19B)	-0.685	-1.439	0.374	-11.597	-18.188	84.778	-76.21	-18.05	-93.33	-66.640	-56.742	-8.232	-0.50317	0.54388	-0.35770	0.56827	31.0	13111	100
2025-3-27 18:42:11.136	WT901BLE68-01(48591DE3C19B)	-0.685	-1.452	0.429	-7.629	-34.851	112.671	-76.39	-16.79	-92.89	-66.640	-56.742	-8.232	-0.50317	0.54388	-0.35770	0.56827	31.0	13111	100
2025-3-27 18:42:11.195	WT901BLE68-01(48591DE3C19B)	-0.650	-1.452	0.429	-7.629	-34.851	112.671	-76.56	-15.54	-92.45	-66.640	-56.742	-8.232	-0.50317	0.54388	-0.35770	0.56827	31.0	13111	100
2025-3-27 18:42:11.195	WT901BLE68-01(48591DE3C19B)	-0.650	-1.432	0.434	-4.211	-54.382	142.090	-76.76	-14.06	-91.76	-66.640	-56.742	-8.232	-0.50317	0.54388	-0.35770	0.56827	31.0	13111	100
2025-3-27 18:42:11.195	WT901BLE68-01(48591DE3C19B)	-0.530	-1.432	0.434	-4.211	-54.382	142.090	-76.92	-12.58	-91.07	-66.640	-56.742	-8.232	-0.50317	0.54388	-0.35770	0.56827	31.0	13111	100
2025-3-27 18:42:11.195	WT901BLE68-01(48591DE3C19B)	-0.530	-1.476	0.337	1.343	-62.866	173.706	-77.04	-10.83	-90.23	-66.640	-56.742	-8.232	-0.50317	0.54388	-0.35770	0.56827	31.0	13111	100
2025-3-27 18:42:11.225	WT901BLE68-01(48591DE3C19B)	-0.426	-1.476	0.337	1.343	-62.866	173.706	-77.14	-9.08	-89.40	-66.640	-56.742	-8.232	-0.50317	0.54388	-0.35770	0.56827	31.0	13111	100
2025-3-27 18:42:11.225	WT901BLE68-01(48591DE3C19B)	-0.426	-1.468	0.207	8.362	-58.594	205.261	-77.14	-7.04	-88.54	-66.640	-56.742	-8.232	-0.50317	0.54388	-0.35770	0.56827	31.0	13111	100
2025-3-27 18:42:11.225	WT901BLE68-01(48591DE3C19B)	-0.383	-1.468	0.207	8.362	-58.594	205.261	-77.12	-5.00	-87.68	-66.640	-56.742	-8.232	-0.50317	0.54388	-0.35770	0.56827	31.0	13111	100
2025-3-27 18:42:11.226	WT901BLE68-01(48591DE3C19B)	-0.383	-1.507	0.109	10.437	-52.734	232.849	-77.04	-2.70	-86.81	-66.640	-56.742	-8.232	-0.50317	0.54388	-0.35770	0.56827	31.0	13111	100
2025-3-27 18:42:11.256	WT901BLE68-01(48591DE3C19B)	-0.403	-1.507	0.109	10.437	-52.734	232.849	-76.94	-0.42	-85.94	-66.640	-56.742	-8.232	-0.50317	0.54388	-0.35770	0.56827	31.0	13111	100
2025-3-27 18:42:11.256	WT901BLE68-01(48591DE3C19B)	-0.403	-1.565	0.067	10.742	-63.782	254.761	-76.80	2.02	-84.90	-66.640	-56.742	-8.232	-0.50317	0.54388	-0.35770	0.56827	31.0	13111	100
2025-3-27 18:42:11.256	WT901BLE68-01(48591DE3C19B)	-0.373	-1.565	0.067	10.742	-63.782	254.761	-76.62	4.45	-83.85	-66.640	-56.742	-8.232	-0.50317	0.54388	-0.35770	0.56827	31.0	13111	100
2025-3-27 18:42:11.256	WT901BLE68-01(48591DE3C19B)	-0.373	-1.633	0.060	11.292	-91.248	270.081	-76.36	6.95	-82.48	-66.640	-56.742	-8.232	-0.50317	0.54388	-0.35770	0.56827	31.0	13111	100
2025-3-27 18:42:11.316	WT901BLE68-01(48591DE3C19B)	-0.269	-1.633	0.060	11.292	-91.248	270.081	-76.05	9.42	-81.10	-66.640	-56.742	-8.232	-0.50317	0.54388	-0.35770	0.56827	31.0	13111	100
2025-3-27 18:42:11.316	WT901BLE68-01(48591DE3C19B)	-0.269	-1.698	0.153	20.081	-113.281	281.738	-75.54	11.92	-79.44	-66.640	-56.742	-8.232	-0.50317	0.54388	-0.35770	0.56827	31.0	13111	100
2025-3-27 18:42:11.316	WT901BLE68-01(48591DE3C19B)	-0.146	-1.698	0.153	20.081	-113.281	281.738	-74.95	14.38	-77.74	-66.640	-56.742	-8.232	-0.50317	0.54388	-0.35770	0.56827	31.0	13111	100
2025-3-27 18:42:11.316	WT901BLE68-01(48591DE3C19B)	-0.146	-1.793	0.181	34.668	-104.370	290.833	-74.15	16.91	-76.07	-66.640	-56.742	-8.232	-0.50317	0.54388	-0.35770	0.56827	31.0	13111	100
2025-3-27 18:42:11.345	WT901BLE68-01(48591DE3C19B)	-0.065	-1.793	0.181	34.668	-104.370	290.833	-73.27	19.40	-74.35	-66.640	-56.742	-8.232	-0.69794	0.38040	-0.46539	0.38922	31.0	13111	100
2025-3-27 18:42:11.345	WT901BLE68-01(48591DE3C19B)	-0.065	-1.652	0.141	53.406	-72.327	296.448	-72.22	21.99	-72.87	-66.640	-56.742	-8.232	-0.69794	0.38040	-0.46539	0.38922	31.0	13111	100
2025-3-27 18:42:11.345	WT901BLE68-01(48591DE3C19B)	-0.061	-1.652	0.141	53.406	-72.327	296.448	-71.08	24.52	-71.32	-66.640	-56.742	-8.232	-0.69794	0.38040	-0.46539	0.38922	31.0	13111	100
2025-3-27 18:42:11.345	WT901BLE68-01(48591DE3C19B)	-0.061	-1.416	0.115	57.922	-33.997	298.950	-69.97	27.16	-70.08	-66.640	-56.742	-8.232	-0.69794	0.38040	-0.46539	0.38922	31.0	13111	100
2025-3-27 18:42:11.375	WT901BLE68-01(48591DE3C19B)	-0.122	-1.416	0.115	57.922	-33.997	298.950	-68.77	29.76	-68.75	-66.640	-56.742	-8.232	-0.69794	0.38040	-0.46539	0.38922	31.0	13111	100
2025-3-27 18:42:11.375	WT901BLE68-01(48591DE3C19B)	-0.122	-1.280	0.061	54.199	9.155	295.166	-67.76	32.44	-67.82	-66.640	-56.742	-8.232	-0.69794	0.38040	-0.46539	0.38922	31.0	13111	100
2025-3-27 18:42:11.375	WT901BLE68-01(48591DE3C19B)	-0.150	-1.280	0.061	54.199	9.155	295.166	-66.68	35.08	-66.81	-66.640	-56.742	-8.232	-0.69794	0.38040	-0.46539	0.38922	31.0	13111	100
2025-3-27 18:42:11.375	WT901BLE68-01(48591DE3C19B)	-0.150	-1.193	0.009	46.448	39.246	290.833	-65.80	37.78	-66.08	-66.640	-56.742	-8.232	-0.69794	0.38040	-0.46539	0.38922	31.0	13111	100
2025-3-27 18:42:11.435	WT901BLE68-01(48591DE3C19B)	-0.118	-1.193	0.009	46.448	39.246	290.833	-64.84	40.46	-65.28	-66.640	-56.742	-8.232	-0.69794	0.38040	-0.46539	0.38922	31.0	13111	100
2025-3-27 18:42:11.436	WT901BLE68-01(48591DE3C19B)	-0.118	-1.104	-0.045	35.583	49.438	281.494	-64.03	43.06	-64.57	-66.640	-56.742	-8.232	-0.69794	0.38040	-0.46539	0.38922	31.0	13111	100
2025-3-27 18:42:11.436	WT901BLE68-01(48591DE3C19B)	-0.206	-1.104	-0.045	35.583	49.438	281.494	-63.14	45.65	-63.78	-66.640	-56.742	-8.232	-0.69794	0.38040	-0.46539	0.38922	31.0	13111	100
2025-3-27 18:42:11.436	WT901BLE68-01(48591DE3C19B)	-0.206	-1.082	-0.134	20.386	6.653	263.916	-62.00	47.86	-62.46	-66.640	-56.742	-8.232	-0.69794	0.38040	-0.46539	0.38922	31.0	13111	100
2025-3-27 18:42:11.466	WT901BLE68-01(48591DE3C19B)	-0.253	-1.082	-0.134	20.386	6.653	263.916	-60.73	50.04	-61.02	-66.640	-56.742	-8.232	-0.69794	0.38040	-0.46539	0.38922	31.0	13111	100
2025-3-27 18:42:11.466	WT901BLE68-01(48591DE3C19B)	-0.253	-1.234	-0.124	7.324	-53.162	239.807	-58.97	51.67	-58.82	-66.640	-56.742	-8.232	-0.69794	0.38040	-0.46539	0.38922	31.0	13111	100
2025-3-27 18:42:11.466	WT901BLE68-01(48591DE3C19B)	-0.225	-1.234	-0.124	7.324	-53.162	239.807	-57.06	53.26	-56.46	-66.640	-56.742	-8.232	-0.69794	0.38040	-0.46539	0.38922	31.0	13111	100
2025-3-27 18:42:11.467	WT901BLE68-01(48591DE3C19B)	-0.225	-1.523	-0.074	4.822	-93.628	212.097	-54.76	54.34	-53.65	-66.640	-56.742	-8.232	-0.69794	0.38040	-0.46539	0.38922	31.0	13111	100
2025-3-27 18:42:11.495	WT901BLE68-01(48591DE3C19B)	-0.128	-1.523	-0.074	4.822	-93.628	212.097	-52.33	55.33	-50.71	-66.640	-56.742	-8.232	-0.69794	0.38040	-0.46539	0.38922	31.0	13111	100
2025-3-27 18:42:11.495	WT901BLE68-01(48591DE3C19B)	-0.128	-1.606	-0.036	15.137	-106.323	183.228	-49.81	55.95	-47.79	-66.640	-56.742	-8.232	-0.69794	0.38040	-0.46539	0.38922	31.0	13111	100
2025-3-27 18:42:11.495	WT901BLE68-01(48591DE3C19B)	0.084	-1.606	-0.036	15.137	-106.323	183.228	-47.20	56.49	-44.80	-91.238	-23.226	-20.188	-0.69794	0.38040	-0.46539	0.38922	31.0	13111	100
2025-3-27 18:42:11.495	WT901BLE68-01(48591DE3C19B)	0.391	-1.529	-0.060	17.883	-99.792	146.790	-44.98	56.73	-42.31	-91.238	-23.226	-20.188	-0.69794	0.38040	-0.46539	0.38922	31.0	13111	100
2025-3-27 18:42:11.556	WT901BLE68-01(48591DE3C19B)	0.391	-1.423	-0.120	14.404	-65.186	103.455	-43.19	56.89	-40.31	-91.238	-23.226	-20.188	-0.69794	0.38040	-0.46539	0.38922	31.0	13111	100
2025-3-27 18:42:11.557	WT901BLE68-01(48591DE3C19B)	0.498	-1.423	-0.120	14.404	-65.186	103.455	-41.85	57.00	-38.81	-91.238	-23.226	-20.188	-0.69794	0.38040	-0.46539	0.38922	31.0	13111	100
2025-3-27 18:42:11.557	WT901BLE68-01(48591DE3C19B)	0.498	-1.276	-0.147	5.859	-11.047	54.077	-41.12	57.12	-38.01	-91.238	-23.226	-20.188	-0.69794	0.38040	-0.46539	0.38922	31.0	13111	100
2025-3-27 18:42:11.557	WT901BLE68-01(48591DE3C19B)	0.333	-1.276	-0.147	5.859	-11.047	54.077	-41.02	57.27	-37.88	-91.238	-23.226	-20.188	-0.69794	0.38040	-0.46539	0.38922	31.0	13111	100
2025-3-27 18:42:11.616	WT901BLE68-01(48591DE3C19B)	0.333	-1.204	-0.035	-13.611	31.250	0.427	-41.56	57.40	-38.39	-91.238	-23.226	-20.188	-0.69794	0.38040	-0.46539	0.38922	31.0	13111	100
2025-3-27 18:42:11.616	WT901BLE68-01(48591DE3C19B)	0.080	-1.204	-0.035	-13.611	31.250	0.427	-42.74	57.50	-39.55	-91.238	-23.226	-20.188	-0.69794	0.38040	-0.46539	0.38922	31.0	13111	100
2025-3-27 18:42:11.616	WT901BLE68-01(48591DE3C19B)	0.080	-1.260	0.180	-32.654	54.138	-52.551	-44.43	57.49	-41.20	-91.238	-23.226	-20.188	-0.69794	0.38040	-0.46539	0.38922	31.0	13111	100
2025-3-27 18:42:11.616	WT901BLE68-01(48591DE3C19B)	-0.082	-1.260	0.180	-32.654	54.138	-52.551	-46.62	57.33	-43.35	-91.238	-23.226	-20.188	-0.69794	0.38040	-0.46539	0.38922	31.0	13111	100
2025-3-27 18:42:11.617	WT901BLE68-01(48591DE3C19B)	-0.082	-1.294	0.344	-37.842	60.730	-101.624	-49.08	56.96	-45.80	-91.238	-23.226	-20.188	-0.69794	0.38040	-0.46539	0.38922	31.0	13111	100
2025-3-27 18:42:11.617	WT901BLE68-01(48591DE3C19B)	-0.095	-1.294	0.344	-37.842	60.730	-101.624	-51.75	56.37	-48.50	-91.238	-23.226	-20.188	-0.69794	0.38040	-0.46539	0.38922	31.0	13111	100
2025-3-27 18:42:11.617	WT901BLE68-01(48591DE3C19B)	-0.095	-1.215	0.293	-31.433	65.674	-141.907	-54.47	55.57	-51.33	-91.238	-23.226	-20.188	-0.69794	0.38040	-0.46539	0.38922	31.0	13111	100
2025-3-27 18:42:11.617	WT901BLE68-01(48591DE3C19B)	-0.056	-1.215	0.293	-31.433	65.674	-141.907	-57.19	54.55	-54.25	-91.238	-23.226	-20.188	-0.69794	0.38040	-0.46539	0.38922	31.0	13111	100
2025-3-27 18:42:11.676	WT901BLE68-01(48591DE3C19B)	-0.056	-1.096	0.179	-26.978	73.181	-175.354	-59.87	53.33	-57.19	-91.238	-23.226	-20.188	-0.69794	0.38040	-0.46539	0.38922	31.0	13111	100
2025-3-27 18:42:11.676	WT901BLE68-01(48591DE3C19B)	-0.026	-1.096	0.179	-26.978	73.181	-175.354	-62.47	51.92	-60.12	-91.238	-23.226	-20.188	-0.69794	0.38040	-0.46539	0.38922	31.0	13111	100
2025-3-27 18:42:11.677	WT901BLE68-01(48591DE3C19B)	-0.026	-1.095	0.095	-25.208	78.125	-204.895	-64.96	50.31	-62.97	-91.238	-23.226	-20.188	-0.69794	0.38040	-0.46539	0.38922	31.0	13111	100
2025-3-27 18:42:11.677	WT901BLE68-01(48591DE3C19B)	-0.027	-1.095	0.095	-25.208	78.125	-204.895	-67.31	48.52	-65.74	-91.238	-23.226	-20.188	-0.69794	0.38040	-0.46539	0.38922	31.0	13111	100
2025-3-27 18:42:11.706	WT901BLE68-01(48591DE3C19B)	-0.027	-1.194	0.053	-22.888	82.214	-234.558	-69.51	46.54	-68.39	-91.238	-23.226	-20.188	-0.69794	0.38040	-0.46539	0.38922	31.0	13111	100
2025-3-27 18:42:11.706	WT901BLE68-01(48591DE3C19B)	-0.088	-1.194	0.053	-22.888	82.214	-234.558	-71.54	44.38	-70.93	-91.238	-23.226	-20.188	-0.69794	0.38040	-0.46539	0.38922	31.0	13111	100
2025-3-27 18:42:11.706	WT901BLE68-01(48591DE3C19B)	-0.088	-1.286	0.054	-20.081	79.529	-263.611	-73.37	42.03	-73.30	-91.238	-23.226	-20.188	-0.69794	0.38040	-0.46539	0.38922	31.0	13111	100
2025-3-27 18:42:11.706	WT901BLE68-01(48591DE3C19B)	-0.120	-1.286	0.054	-20.081	79.529	-263.611	-75.01	39.50	-75.51	-91.238	-23.226	-20.188	-0.71622	0.28888	-0.56281	0.29443	31.0	13111	100
2025-3-27 18:42:11.735	WT901BLE68-01(48591DE3C19B)	-0.120	-1.374	0.084	-17.090	79.590	-290.649	-76.48	36.82	-77.59	-91.238	-23.226	-20.188	-0.71622	0.28888	-0.56281	0.29443	31.0	13111	100
2025-3-27 18:42:11.735	WT901BLE68-01(48591DE3C19B)	-0.220	-1.374	0.084	-17.090	79.590	-290.649	-77.78	33.98	-79.54	-91.238	-23.226	-20.188	-0.71622	0.28888	-0.56281	0.29443	31.0	13111	100
2025-3-27 18:42:11.735	WT901BLE68-01(48591DE3C19B)	-0.220	-1.443	0.152	-11.047	88.318	-308.044	-78.93	31.05	-81.41	-91.238	-23.226	-20.188	-0.71622	0.28888	-0.56281	0.29443	31.0	13111	100
2025-3-27 18:42:11.735	WT901BLE68-01(48591DE3C19B)	-0.409	-1.443	0.152	-11.047	88.318	-308.044	-79.93	28.04	-83.23	-91.238	-23.226	-20.188	-0.71622	0.28888	-0.56281	0.29443	31.0	13111	100
2025-3-27 18:42:11.795	WT901BLE68-01(48591DE3C19B)	-0.409	-1.501	0.212	-3.784	105.652	-317.139	-80.79	25.00	-85.03	-91.238	-23.226	-20.188	-0.71622	0.28888	-0.56281	0.29443	31.0	13111	100
2025-3-27 18:42:11.795	WT901BLE68-01(48591DE3C19B)	-0.532	-1.501	0.212	-3.784	105.652	-317.139	-81.55	21.92	-86.84	-91.238	-23.226	-20.188	-0.71622	0.28888	-0.56281	0.29443	31.0	13111	100
2025-3-27 18:42:11.795	WT901BLE68-01(48591DE3C19B)	-0.532	-1.495	0.228	6.897	120.667	-315.186	-82.14	18.87	-88.63	-91.238	-23.226	-20.188	-0.71622	0.28888	-0.56281	0.29443	31.0	13111	100
2025-3-27 18:42:11.795	WT901BLE68-01(48591DE3C19B)	-0.573	-1.495	0.228	6.897	120.667	-315.186	-82.60	15.86	-90.44	-91.238	-23.226	-20.188	-0.71622	0.28888	-0.56281	0.29443	31.0	13111	100
2025-3-27 18:42:11.825	WT901BLE68-01(48591DE3C19B)	-0.573	-1.416	0.205	17.883	125.977	-304.565	-82.90	12.91	-92.21	-91.238	-23.226	-20.188	-0.71622	0.28888	-0.56281	0.29443	31.0	13111	100
2025-3-27 18:42:11.825	WT901BLE68-01(48591DE3C19B)	-0.583	-1.416	0.205	17.883	125.977	-304.565	-83.06	10.04	-93.97	-91.238	-23.226	-20.188	-0.71622	0.28888	-0.56281	0.29443	31.0	13111	100
2025-3-27 18:42:11.825	WT901BLE68-01(48591DE3C19B)	-0.583	-1.338	0.176	24.841	110.107	-291.199	-83.07	7.25	-95.61	-91.238	-23.226	-20.188	-0.71622	0.28888	-0.56281	0.29443	31.0	13111	100
2025-3-27 18:42:11.826	WT901BLE68-01(48591DE3C19B)	-0.577	-1.338	0.176	24.841	110.107	-291.199	-82.97	4.54	-97.16	-91.238	-23.226	-20.188	-0.71622	0.28888	-0.56281	0.29443	31.0	13111	100
2025-3-27 18:42:11.856	WT901BLE68-01(48591DE3C19B)	-0.577	-1.282	0.159	28.320	71.655	-278.076	-82.78	1.90	-98.50	-91.238	-23.226	-20.188	-0.71622	0.28888	-0.56281	0.29443	31.0	13111	100
2025-3-27 18:42:11.856	WT901BLE68-01(48591DE3C19B)	-0.550	-1.282	0.159	28.320	71.655	-278.076	-82.50	-0.68	-99.65	-91.238	-23.226	-20.188	-0.71622	0.28888	-0.56281	0.29443	31.0	13111	100
2025-3-27 18:42:11.856	WT901BLE68-01(48591DE3C19B)	-0.550	-1.254	0.159	27.466	34.668	-265.381	-82.18	-3.19	-100.62	-91.238	-23.226	-20.188	-0.71622	0.28888	-0.56281	0.29443	31.0	13111	100
2025-3-27 18:42:11.856	WT901BLE68-01(48591DE3C19B)	-0.634	-1.254	0.159	27.466	34.668	-265.381	-81.84	-5.64	-101.42	-91.238	-23.226	-20.188	-0.71622	0.28888	-0.56281	0.29443	31.0	13111	100
2025-3-27 18:42:11.916	WT901BLE68-01(48591DE3C19B)	-0.634	-1.275	0.166	23.071	3.113	-249.634	-81.52	-8.01	-102.06	-91.238	-23.226	-20.188	-0.71622	0.28888	-0.56281	0.29443	31.0	13111	100
2025-3-27 18:42:11.916	WT901BLE68-01(48591DE3C19B)	-0.726	-1.275	0.166	23.071	3.113	-249.634	-81.21	-10.31	-102.55	-91.238	-23.226	-20.188	-0.71622	0.28888	-0.56281	0.29443	31.0	13111	100
2025-3-27 18:42:11.916	WT901BLE68-01(48591DE3C19B)	-0.726	-1.304	0.160	20.020	-24.353	-232.971	-80.93	-12.53	-102.91	-91.238	-23.226	-20.188	-0.71622	0.28888	-0.56281	0.29443	31.0	13111	100
2025-3-27 18:42:11.916	WT901BLE68-01(48591DE3C19B)	-0.738	-1.304	0.160	20.020	-24.353	-232.971	-80.69	-14.67	-103.13	-91.238	-23.226	-20.188	-0.71622	0.28888	-0.56281	0.29443	31.0	13111	100
2025-3-27 18:42:11.945	WT901BLE68-01(48591DE3C19B)	-0.738	-1.318	0.163	16.968	-44.067	-213.989	-80.49	-16.70	-103.24	-66.346	-43.316	-20.090	-0.71622	0.28888	-0.56281	0.29443	31.0	13111	100
2025-3-27 18:42:11.945	WT901BLE68-01(48591DE3C19B)	-0.686	-1.318	0.163	16.968	-44.067	-213.989	-80.32	-18.65	-103.25	-66.346	-43.316	-20.090	-0.71622	0.28888	-0.56281	0.29443	31.0	13111	100
2025-3-27 18:42:11.945	WT901BLE68-01(48591DE3C19B)	-0.686	-1.302	0.158	12.695	-52.673	-192.139	-80.21	-20.49	-103.20	-66.346	-43.316	-20.090	-0.71622	0.28888	-0.56281	0.29443	31.0	13111	100
2025-3-27 18:42:11.945	WT901BLE68-01(48591DE3C19B)	-0.642	-1.302	0.158	12.695	-52.673	-192.139	-80.13	-22.21	-103.10	-66.346	-43.316	-20.090	-0.71622	0.28888	-0.56281	0.29443	31.0	13111	100
2025-3-27 18:42:11.975	WT901BLE68-01(48591DE3C19B)	-0.642	-1.301	0.193	7.813	-51.086	-168.762	-80.09	-23.80	-102.97	-66.346	-43.316	-20.090	-0.71622	0.28888	-0.56281	0.29443	31.0	13111	100
2025-3-27 18:42:11.975	WT901BLE68-01(48591DE3C19B)	-0.634	-1.301	0.193	7.813	-51.086	-168.762	-80.08	-25.27	-102.84	-66.346	-43.316	-20.090	-0.71622	0.28888	-0.56281	0.29443	31.0	13111	100
2025-3-27 18:42:11.975	WT901BLE68-01(48591DE3C19B)	-0.634	-1.320	0.243	6.042	-42.297	-143.921	-80.07	-26.47	-102.76	-66.346	-43.316	-20.090	-0.71622	0.28888	-0.56281	0.29443	31.0	13111	100
2025-3-27 18:42:11.975	WT901BLE68-01(48591DE3C19B)	-0.644	-1.320	0.243	6.042	-42.297	-143.921	-80.06	-27.66	-102.68	-66.346	-43.316	-20.090	-0.71622	0.28888	-0.56281	0.29443	31.0	13111	100
2025-3-27 18:42:12.36	WT901BLE68-01(48591DE3C19B)	-0.644	-1.257	0.291	5.310	-21.729	-115.112	-79.98	-28.53	-102.78	-66.346	-43.316	-20.090	-0.71622	0.28888	-0.56281	0.29443	31.0	13111	100
2025-3-27 18:42:12.36	WT901BLE68-01(48591DE3C19B)	-0.603	-1.257	0.291	5.310	-21.729	-115.112	-79.89	-29.39	-102.89	-66.346	-43.316	-20.090	-0.71622	0.28888	-0.56281	0.29443	31.0	13111	100
2025-3-27 18:42:12.36	WT901BLE68-01(48591DE3C19B)	-0.603	-1.143	0.282	0.671	10.193	-81.726	-79.69	-29.87	-103.29	-66.346	-43.316	-20.090	-0.71622	0.28888	-0.56281	0.29443	31.0	13111	100
2025-3-27 18:42:12.36	WT901BLE68-01(48591DE3C19B)	-0.616	-1.143	0.282	0.671	10.193	-81.726	-79.49	-30.33	-103.71	-66.346	-43.316	-20.090	-0.71622	0.28888	-0.56281	0.29443	31.0	13111	100
2025-3-27 18:42:12.65	WT901BLE68-01(48591DE3C19B)	-0.616	-1.047	0.291	-4.944	40.771	-42.969	-79.19	-30.37	-104.39	-66.346	-43.316	-20.090	-0.71622	0.28888	-0.56281	0.29443	31.0	13111	100
2025-3-27 18:42:12.66	WT901BLE68-01(48591DE3C19B)	-0.681	-1.047	0.291	-4.944	40.771	-42.969	-78.90	-30.39	-105.08	-66.346	-43.316	-20.090	-0.71622	0.28888	-0.56281	0.29443	31.0	13111	100
2025-3-27 18:42:12.66	WT901BLE68-01(48591DE3C19B)	-0.681	-1.046	0.325	-10.986	58.167	-4.028	-78.61	-29.99	-105.88	-66.346	-43.316	-20.090	-0.71622	0.28888	-0.56281	0.29443	31.0	13111	100
2025-3-27 18:42:12.66	WT901BLE68-01(48591DE3C19B)	-0.760	-1.046	0.325	-10.986	58.167	-4.028	-78.33	-29.60	-106.69	-66.346	-43.316	-20.090	-0.71622	0.28888	-0.56281	0.29443	31.0	13111	100
2025-3-27 18:42:12.125	WT901BLE68-01(48591DE3C19B)	-0.760	-1.024	0.374	-11.719	53.345	35.400	-78.12	-28.82	-107.35	-66.346	-43.316	-20.090	-0.71622	0.28888	-0.56281	0.29443	31.0	13111	100
2025-3-27 18:42:12.125	WT901BLE68-01(48591DE3C19B)	-0.806	-1.024	0.374	-11.719	53.345	35.400	-77.92	-28.05	-108.01	-66.346	-43.316	-20.090	-0.71622	0.28888	-0.56281	0.29443	31.0	13111	100
2025-3-27 18:42:12.125	WT901BLE68-01(48591DE3C19B)	-0.806	-0.877	0.357	-11.597	29.968	73.059	-77.88	-26.95	-108.32	-66.346	-43.316	-20.090	-0.71622	0.28888	-0.56281	0.29443	31.0	13111	100
2025-3-27 18:42:12.125	WT901BLE68-01(48591DE3C19B)	-0.819	-0.877	0.357	-11.597	29.968	73.059	-77.84	-25.86	-108.64	-66.346	-43.316	-20.090	-0.71622	0.28888	-0.56281	0.29443	31.0	13111	100
2025-3-27 18:42:12.158	WT901BLE68-01(48591DE3C19B)	-0.819	-0.836	0.283	-17.029	-7.080	109.924	-78.05	-24.49	-108.50	-66.346	-43.316	-20.090	-0.33871	0.49054	-0.40671	0.69217	31.0	13111	100
2025-3-27 18:42:12.158	WT901BLE68-01(48591DE3C19B)	-0.797	-0.836	0.283	-17.029	-7.080	109.924	-78.24	-23.12	-108.36	-66.346	-43.316	-20.090	-0.33871	0.49054	-0.40671	0.69217	31.0	13111	100
2025-3-27 18:42:12.158	WT901BLE68-01(48591DE3C19B)	-0.797	-0.972	0.209	-20.142	-49.683	144.043	-78.66	-21.50	-107.72	-66.346	-43.316	-20.090	-0.33871	0.49054	-0.40671	0.69217	31.0	13111	100
2025-3-27 18:42:12.158	WT901BLE68-01(48591DE3C19B)	-0.689	-0.972	0.209	-20.142	-49.683	144.043	-79.05	-19.89	-107.09	-66.346	-43.316	-20.090	-0.33871	0.49054	-0.40671	0.69217	31.0	13111	100
2025-3-27 18:42:12.187	WT901BLE68-01(48591DE3C19B)	-0.689	-1.137	0.151	-15.747	-82.275	174.927	-79.49	-18.03	-106.09	-66.346	-43.316	-20.090	-0.33871	0.49054	-0.40671	0.69217	31.0	13111	100
2025-3-27 18:42:12.188	WT901BLE68-01(48591DE3C19B)	-0.560	-1.137	0.151	-15.747	-82.275	174.927	-79.90	-16.18	-105.11	-66.346	-43.316	-20.090	-0.33871	0.49054	-0.40671	0.69217	31.0	13111	100
2025-3-27 18:42:12.188	WT901BLE68-01(48591DE3C19B)	-0.560	-1.298	0.122	-7.935	-101.074	201.660	-80.26	-14.11	-103.90	-66.346	-43.316	-20.090	-0.33871	0.49054	-0.40671	0.69217	31.0	13111	100
2025-3-27 18:42:12.188	WT901BLE68-01(48591DE3C19B)	-0.447	-1.298	0.122	-7.935	-101.074	201.660	-80.56	-12.04	-102.71	-66.346	-43.316	-20.090	-0.33871	0.49054	-0.40671	0.69217	31.0	13111	100
2025-3-27 18:42:12.245	WT901BLE68-01(48591DE3C19B)	-0.447	-1.474	0.129	3.296	-108.704	223.267	-80.74	-9.78	-101.42	-66.346	-43.316	-20.090	-0.33871	0.49054	-0.40671	0.69217	31.0	13111	100
2025-3-27 18:42:12.246	WT901BLE68-01(48591DE3C19B)	-0.310	-1.474	0.129	3.296	-108.704	223.267	-80.87	-7.55	-100.13	-66.346	-43.316	-20.090	-0.33871	0.49054	-0.40671	0.69217	31.0	13111	100
2025-3-27 18:42:12.246	WT901BLE68-01(48591DE3C19B)	-0.310	-1.577	0.116	18.311	-101.501	239.380	-80.80	-5.16	-98.89	-66.346	-43.316	-20.090	-0.33871	0.49054	-0.40671	0.69217	31.0	13111	100
2025-3-27 18:42:12.246	WT901BLE68-01(48591DE3C19B)	-0.217	-1.577	0.116	18.311	-101.501	239.380	-80.68	-2.79	-97.65	-66.346	-43.316	-20.090	-0.33871	0.49054	-0.40671	0.69217	31.0	13111	100
2025-3-27 18:42:12.276	WT901BLE68-01(48591DE3C19B)	-0.217	-1.535	0.111	31.311	-82.031	252.441	-80.38	-0.29	-96.57	-66.346	-43.316	-20.090	-0.33871	0.49054	-0.40671	0.69217	31.0	13111	100
2025-3-27 18:42:12.276	WT901BLE68-01(48591DE3C19B)	-0.204	-1.535	0.111	31.311	-82.031	252.441	-80.03	2.17	-95.47	-66.346	-43.316	-20.090	-0.33871	0.49054	-0.40671	0.69217	31.0	13111	100
2025-3-27 18:42:12.276	WT901BLE68-01(48591DE3C19B)	-0.204	-1.447	0.136	35.400	-57.129	260.864	-79.61	4.74	-94.58	-66.346	-43.316	-20.090	-0.33871	0.49054	-0.40671	0.69217	31.0	13111	100
2025-3-27 18:42:12.276	WT901BLE68-01(48591DE3C19B)	-0.222	-1.447	0.136	35.400	-57.129	260.864	-79.15	7.27	-93.67	-66.346	-43.316	-20.090	-0.33871	0.49054	-0.40671	0.69217	31.0	13111	100
2025-3-27 18:42:12.306	WT901BLE68-01(48591DE3C19B)	-0.222	-1.414	0.158	36.987	-34.241	266.724	-78.67	9.88	-92.95	-66.346	-43.316	-20.090	-0.33871	0.49054	-0.40671	0.69217	31.0	13111	100
2025-3-27 18:42:12.306	WT901BLE68-01(48591DE3C19B)	-0.207	-1.414	0.158	36.987	-34.241	266.724	-78.14	12.46	-92.21	-66.346	-43.316	-20.090	-0.33871	0.49054	-0.40671	0.69217	31.0	13111	100
2025-3-27 18:42:12.306	WT901BLE68-01(48591DE3C19B)	-0.207	-1.351	0.167	39.734	-13.733	272.644	-77.60	15.12	-91.63	-73.108	-40.376	-25.088	-0.33871	0.49054	-0.40671	0.69217	31.0	13111	100
2025-3-27 18:42:12.306	WT901BLE68-01(48591DE3C19B)	-0.180	-1.351	0.167	39.734	-13.733	272.644	-77.02	17.74	-91.01	-73.108	-40.376	-25.088	-0.33871	0.49054	-0.40671	0.69217	31.0	13111	100
2025-3-27 18:42:12.365	WT901BLE68-01(48591DE3C19B)	-0.180	-1.248	0.128	39.185	7.202	276.794	-76.48	20.43	-90.57	-73.108	-40.376	-25.088	-0.33871	0.49054	-0.40671	0.69217	31.0	13111	100
2025-3-27 18:42:12.365	WT901BLE68-01(48591DE3C19B)	-0.188	-1.248	0.128	39.185	7.202	276.794	-75.90	23.10	-90.09	-73.108	-40.376	-25.088	-0.33871	0.49054	-0.40671	0.69217	31.0	13111	100
2025-3-27 18:42:12.365	WT901BLE68-01(48591DE3C19B)	-0.188	-1.187	0.059	33.447	23.865	276.978	-75.43	25.78	-89.76	-73.108	-40.376	-25.088	-0.33871	0.49054	-0.40671	0.69217	31.0	13111	100
2025-3-27 18:42:12.365	WT901BLE68-01(48591DE3C19B)	-0.232	-1.187	0.059	33.447	23.865	276.978	-74.93	28.45	-89.40	-73.108	-40.376	-25.088	-0.33871	0.49054	-0.40671	0.69217	31.0	13111	100
2025-3-27 18:42:12.426	WT901BLE68-01(48591DE3C19B)	-0.232	-1.242	0.010	23.254	27.161	273.682	-74.51	31.07	-89.05	-73.108	-40.376	-25.088	-0.33871	0.49054	-0.40671	0.69217	31.0	13111	100
2025-3-27 18:42:12.426	WT901BLE68-01(48591DE3C19B)	-0.267	-1.242	0.010	23.254	27.161	273.682	-74.08	33.68	-88.67	-73.108	-40.376	-25.088	-0.33871	0.49054	-0.40671	0.69217	31.0	13111	100
2025-3-27 18:42:12.426	WT901BLE68-01(48591DE3C19B)	-0.267	-1.367	-0.018	16.296	16.418	267.456	-73.62	36.18	-88.15	-73.108	-40.376	-25.088	-0.33871	0.49054	-0.40671	0.69217	31.0	13111	100
2025-3-27 18:42:12.426	WT901BLE68-01(48591DE3C19B)	-0.285	-1.367	-0.018	16.296	16.418	267.456	-73.13	38.66	-87.60	-73.108	-40.376	-25.088	-0.33871	0.49054	-0.40671	0.69217	31.0	13111	100
2025-3-27 18:42:12.427	WT901BLE68-01(48591DE3C19B)	-0.285	-1.523	-0.013	12.512	-0.732	259.949	-72.50	41.00	-86.81	-73.108	-40.376	-25.088	-0.33871	0.49054	-0.40671	0.69217	31.0	13111	100
2025-3-27 18:42:12.427	WT901BLE68-01(48591DE3C19B)	-0.258	-1.523	-0.013	12.512	-0.732	259.949	-71.81	43.31	-85.96	-73.108	-40.376	-25.088	-0.33871	0.49054	-0.40671	0.69217	31.0	13111	100
2025-3-27 18:42:12.427	WT901BLE68-01(48591DE3C19B)	-0.125	-1.771	-0.038	10.193	-16.357	249.023	-70.96	45.46	-84.89	-73.108	-40.376	-25.088	-0.33871	0.49054	-0.40671	0.69217	31.0	13111	100
2025-3-27 18:42:12.427	WT901BLE68-01(48591DE3C19B)	-0.125	-1.985	-0.093	15.381	-26.123	231.384	-69.99	47.47	-83.71	-73.108	-40.376	-25.088	-0.33871	0.49054	-0.40671	0.69217	31.0	13111	100
2025-3-27 18:42:12.488	WT901BLE68-01(48591DE3C19B)	0.081	-1.985	-0.093	15.381	-26.123	231.384	-68.88	49.36	-82.41	-73.108	-40.376	-25.088	-0.33871	0.49054	-0.40671	0.69217	31.0	13111	100
2025-3-27 18:42:12.488	WT901BLE68-01(48591DE3C19B)	0.081	-2.022	-0.140	21.729	-22.705	206.604	-67.71	51.10	-81.12	-73.108	-40.376	-25.088	-0.33871	0.49054	-0.40671	0.69217	31.0	13111	100
2025-3-27 18:42:12.488	WT901BLE68-01(48591DE3C19B)	0.393	-2.022	-0.140	21.729	-22.705	206.604	-66.51	52.70	-79.83	-73.108	-40.376	-25.088	-0.33871	0.49054	-0.40671	0.69217	31.0	13111	100
2025-3-27 18:42:12.488	WT901BLE68-01(48591DE3C19B)	0.393	-2.059	-0.127	25.574	-7.507	168.762	-65.39	54.13	-78.69	-73.108	-40.376	-25.088	-0.33871	0.49054	-0.40671	0.69217	31.0	13111	100
2025-3-27 18:42:12.517	WT901BLE68-01(48591DE3C19B)	0.583	-2.059	-0.127	25.574	-7.507	168.762	-64.40	55.39	-77.74	-73.108	-40.376	-25.088	-0.33871	0.49054	-0.40671	0.69217	31.0	13111	100
2025-3-27 18:42:12.517	WT901BLE68-01(48591DE3C19B)	0.583	-1.950	0.021	16.785	-2.136	118.896	-63.58	56.41	-76.97	-73.108	-40.376	-25.088	-0.33871	0.49054	-0.40671	0.69217	31.0	13111	100
2025-3-27 18:42:12.517	WT901BLE68-01(48591DE3C19B)	0.431	-1.950	0.021	16.785	-2.136	118.896	-63.00	57.20	-76.42	-73.108	-40.376	-25.088	-0.33871	0.49054	-0.40671	0.69217	31.0	13111	100
2025-3-27 18:42:12.517	WT901BLE68-01(48591DE3C19B)	0.431	-1.714	0.083	8.240	-9.827	57.312	-62.60	57.69	-76.04	-73.108	-40.376	-25.088	-0.74420	0.10388	-0.60507	0.26297	31.0	13111	100
2025-3-27 18:42:12.575	WT901BLE68-01(48591DE3C19B)	0.254	-1.714	0.083	8.240	-9.827	57.312	-62.41	57.87	-75.87	-73.108	-40.376	-25.088	-0.74420	0.10388	-0.60507	0.26297	31.0	13111	100
2025-3-27 18:42:12.575	WT901BLE68-01(48591DE3C19B)	0.254	-1.456	0.151	6.409	10.010	2.380	-62.58	57.85	-76.10	-73.108	-40.376	-25.088	-0.74420	0.10388	-0.60507	0.26297	31.0	13111	100
2025-3-27 18:42:12.575	WT901BLE68-01(48591DE3C19B)	0.095	-1.456	0.151	6.409	10.010	2.380	-63.08	57.63	-76.72	-73.108	-40.376	-25.088	-0.74420	0.10388	-0.60507	0.26297	31.0	13111	100
2025-3-27 18:42:12.575	WT901BLE68-01(48591DE3C19B)	0.095	-1.196	0.124	2.747	68.420	-51.025	-64.18	57.29	-78.04	-73.108	-40.376	-25.088	-0.74420	0.10388	-0.60507	0.26297	31.0	13111	100
2025-3-27 18:42:12.605	WT901BLE68-01(48591DE3C19B)	0.085	-1.196	0.124	2.747	68.420	-51.025	-65.85	56.83	-80.02	-73.108	-40.376	-25.088	-0.74420	0.10388	-0.60507	0.26297	31.0	13111	100
2025-3-27 18:42:12.606	WT901BLE68-01(48591DE3C19B)	0.085	-1.001	0.136	-6.348	101.624	-93.811	-67.84	56.19	-82.35	-73.108	-40.376	-25.088	-0.74420	0.10388	-0.60507	0.26297	31.0	13111	100
2025-3-27 18:42:12.606	WT901BLE68-01(48591DE3C19B)	0.141	-1.001	0.136	-6.348	101.624	-93.811	-70.12	55.38	-85.00	-73.108	-40.376	-25.088	-0.74420	0.10388	-0.60507	0.26297	31.0	13111	100
2025-3-27 18:42:12.606	WT901BLE68-01(48591DE3C19B)	0.141	-0.904	0.127	-10.437	110.840	-128.113	-72.42	54.35	-87.69	-73.108	-40.376	-25.088	-0.74420	0.10388	-0.60507	0.26297	31.0	13111	100
2025-3-27 18:42:12.635	WT901BLE68-01(48591DE3C19B)	0.096	-0.904	0.127	-10.437	110.840	-128.113	-74.71	53.13	-90.38	-73.108	-40.376	-25.088	-0.74420	0.10388	-0.60507	0.26297	31.0	13111	100
2025-3-27 18:42:12.635	WT901BLE68-01(48591DE3C19B)	0.096	-0.887	0.112	-10.559	100.952	-155.212	-76.80	51.70	-92.88	-73.108	-40.376	-25.088	-0.74420	0.10388	-0.60507	0.26297	31.0	13111	100
2025-3-27 18:42:12.635	WT901BLE68-01(48591DE3C19B)	0.009	-0.887	0.112	-10.559	100.952	-155.212	-78.68	50.09	-95.17	-73.108	-40.376	-25.088	-0.74420	0.10388	-0.60507	0.26297	31.0	13111	100
2025-3-27 18:42:12.635	WT901BLE68-01(48591DE3C19B)	0.009	-0.982	0.085	-6.042	78.491	-179.199	-80.28	48.31	-97.17	-73.108	-40.376	-25.088	-0.74420	0.10388	-0.60507	0.26297	31.0	13111	100
2025-3-27 18:42:12.665	WT901BLE68-01(48591DE3C19B)	-0.103	-0.982	0.085	-6.042	78.491	-179.199	-81.59	46.37	-98.89	-73.108	-40.376	-25.088	-0.74420	0.10388	-0.60507	0.26297	31.0	13111	100
2025-3-27 18:42:12.665	WT901BLE68-01(48591DE3C19B)	-0.103	-1.098	0.155	3.113	54.443	-192.749	-82.62	44.34	-100.33	-73.108	-40.376	-25.088	-0.74420	0.10388	-0.60507	0.26297	31.0	13111	100
2025-3-27 18:42:12.665	WT901BLE68-01(48591DE3C19B)	-0.296	-1.098	0.155	3.113	54.443	-192.749	-83.39	42.22	-101.51	-73.108	-40.376	-25.088	-0.74420	0.10388	-0.60507	0.26297	31.0	13111	100
2025-3-27 18:42:12.665	WT901BLE68-01(48591DE3C19B)	-0.296	-1.146	0.185	6.592	10.925	-207.642	-83.87	40.02	-102.35	-73.108	-40.376	-25.088	-0.74420	0.10388	-0.60507	0.26297	31.0	13111	100
2025-3-27 18:42:12.726	WT901BLE68-01(48591DE3C19B)	-0.366	-1.146	0.185	6.592	10.925	-207.642	-84.11	37.74	-102.88	-73.108	-40.376	-25.088	-0.74420	0.10388	-0.60507	0.26297	31.0	13111	100
2025-3-27 18:42:12.726	WT901BLE68-01(48591DE3C19B)	-0.366	-1.151	0.197	11.536	-21.545	-224.060	-84.18	35.38	-103.18	-73.108	-40.376	-25.088	-0.74420	0.10388	-0.60507	0.26297	31.0	13111	100
2025-3-27 18:42:12.726	WT901BLE68-01(48591DE3C19B)	-0.339	-1.151	0.197	11.536	-21.545	-224.060	-84.11	32.94	-103.30	-73.108	-40.376	-25.088	-0.74420	0.10388	-0.60507	0.26297	31.0	13111	100
2025-3-27 18:42:12.726	WT901BLE68-01(48591DE3C19B)	-0.339	-1.131	0.210	13.489	-28.748	-239.014	-84.00	30.45	-103.39	-73.108	-40.376	-25.088	-0.74420	0.10388	-0.60507	0.26297	31.0	13111	100
2025-3-27 18:42:12.758	WT901BLE68-01(48591DE3C19B)	-0.268	-1.131	0.210	13.489	-28.748	-239.014	-83.86	27.91	-103.45	-63.406	-34.202	-29.694	-0.74420	0.10388	-0.60507	0.26297	31.0	13111	100
2025-3-27 18:42:12.758	WT901BLE68-01(48591DE3C19B)	-0.268	-1.148	0.214	14.526	-11.475	-252.991	-83.77	25.32	-103.63	-63.406	-34.202	-29.694	-0.74420	0.10388	-0.60507	0.26297	31.0	13111	100
2025-3-27 18:42:12.758	WT901BLE68-01(48591DE3C19B)	-0.272	-1.148	0.214	14.526	-11.475	-252.991	-83.70	22.69	-103.90	-63.406	-34.202	-29.694	-0.74420	0.10388	-0.60507	0.26297	31.0	13111	100
2025-3-27 18:42:12.758	WT901BLE68-01(48591DE3C19B)	-0.272	-1.132	0.222	18.372	14.160	-264.221	-83.66	20.04	-104.32	-63.406	-34.202	-29.694	-0.74420	0.10388	-0.60507	0.26297	31.0	13111	100
2025-3-27 18:42:12.788	WT901BLE68-01(48591DE3C19B)	-0.321	-1.132	0.222	18.372	14.160	-264.221	-83.62	17.37	-104.88	-63.406	-34.202	-29.694	-0.74420	0.10388	-0.60507	0.26297	31.0	13111	100
2025-3-27 18:42:12.788	WT901BLE68-01(48591DE3C19B)	-0.321	-1.101	0.226	22.827	31.494	-271.729	-83.56	14.69	-105.51	-63.406	-34.202	-29.694	-0.74420	0.10388	-0.60507	0.26297	31.0	13111	100
2025-3-27 18:42:12.788	WT901BLE68-01(48591DE3C19B)	-0.368	-1.101	0.226	22.827	31.494	-271.729	-83.46	12.00	-106.24	-63.406	-34.202	-29.694	-0.74420	0.10388	-0.60507	0.26297	31.0	13111	100
2025-3-27 18:42:12.788	WT901BLE68-01(48591DE3C19B)	-0.368	-1.071	0.232	28.137	38.025	-274.597	-83.32	9.33	-107.00	-63.406	-34.202	-29.694	-0.74420	0.10388	-0.60507	0.26297	31.0	13111	100
2025-3-27 18:42:12.846	WT901BLE68-01(48591DE3C19B)	-0.432	-1.071	0.232	28.137	38.025	-274.597	-83.12	6.66	-107.79	-63.406	-34.202	-29.694	-0.74420	0.10388	-0.60507	0.26297	31.0	13111	100
2025-3-27 18:42:12.846	WT901BLE68-01(48591DE3C19B)	-0.432	-1.059	0.228	32.654	34.424	-271.545	-82.86	4.04	-108.57	-63.406	-34.202	-29.694	-0.74420	0.10388	-0.60507	0.26297	31.0	13111	100
2025-3-27 18:42:12.846	WT901BLE68-01(48591DE3C19B)	-0.479	-1.059	0.228	32.654	34.424	-271.545	-82.55	1.45	-109.34	-63.406	-34.202	-29.694	-0.74420	0.10388	-0.60507	0.26297	31.0	13111	100
2025-3-27 18:42:12.846	WT901BLE68-01(48591DE3C19B)	-0.479	-1.051	0.219	36.865	21.729	-265.137	-82.18	-1.09	-110.06	-63.406	-34.202	-29.694	-0.74420	0.10388	-0.60507	0.26297	31.0	13111	100
2025-3-27 18:42:12.877	WT901BLE68-01(48591DE3C19B)	-0.499	-1.051	0.219	36.865	21.729	-265.137	-81.76	-3.58	-110.73	-63.406	-34.202	-29.694	-0.74420	0.10388	-0.60507	0.26297	31.0	13111	100
2025-3-27 18:42:12.877	WT901BLE68-01(48591DE3C19B)	-0.499	-1.050	0.231	38.208	2.808	-254.395	-81.32	-6.01	-111.31	-63.406	-34.202	-29.694	-0.74420	0.10388	-0.60507	0.26297	31.0	13111	100
2025-3-27 18:42:12.877	WT901BLE68-01(48591DE3C19B)	-0.460	-1.050	0.231	38.208	2.808	-254.395	-80.85	-8.37	-111.82	-63.406	-34.202	-29.694	-0.74420	0.10388	-0.60507	0.26297	31.0	13111	100
2025-3-27 18:42:12.877	WT901BLE68-01(48591DE3C19B)	-0.460	-1.081	0.246	40.100	-4.578	-240.417	-80.37	-10.66	-112.31	-63.406	-34.202	-29.694	-0.74420	0.10388	-0.60507	0.26297	31.0	13111	100
2025-3-27 18:42:12.906	WT901BLE68-01(48591DE3C19B)	-0.440	-1.081	0.246	40.100	-4.578	-240.417	-79.87	-12.85	-112.77	-63.406	-34.202	-29.694	-0.74420	0.10388	-0.60507	0.26297	31.0	13111	100
2025-3-27 18:42:12.906	WT901BLE68-01(48591DE3C19B)	-0.440	-1.093	0.259	42.175	0.000	-221.313	-79.33	-14.94	-113.26	-63.406	-34.202	-29.694	-0.74420	0.10388	-0.60507	0.26297	31.0	13111	100
2025-3-27 18:42:12.906	WT901BLE68-01(48591DE3C19B)	-0.414	-1.093	0.259	42.175	0.000	-221.313	-78.76	-16.91	-113.78	-63.406	-34.202	-29.694	-0.33945	0.43796	-0.46359	0.69135	31.0	13111	100
2025-3-27 18:42:12.906	WT901BLE68-01(48591DE3C19B)	-0.414	-1.120	0.223	40.466	9.094	-202.454	-78.17	-18.65	-114.38	-63.406	-34.202	-29.694	-0.33945	0.43796	-0.46359	0.69135	31.0	13111	100
2025-3-27 18:42:12.966	WT901BLE68-01(48591DE3C19B)	-0.446	-1.120	0.223	40.466	9.094	-202.454	-77.56	-20.39	-115.01	-63.406	-34.202	-29.694	-0.33945	0.43796	-0.46359	0.69135	31.0	13111	100
2025-3-27 18:42:12.966	WT901BLE68-01(48591DE3C19B)	-0.446	-1.278	0.235	36.926	17.639	-182.434	-76.95	-21.89	-115.70	-63.406	-34.202	-29.694	-0.33945	0.43796	-0.46359	0.69135	31.0	13111	100
2025-3-27 18:42:12.966	WT901BLE68-01(48591DE3C19B)	-0.557	-1.278	0.235	36.926	17.639	-182.434	-76.32	-23.38	-116.42	-63.406	-34.202	-29.694	-0.33945	0.43796	-0.46359	0.69135	31.0	13111	100
2025-3-27 18:42:12.966	WT901BLE68-01(48591DE3C19B)	-0.557	-1.516	0.261	37.170	20.874	-160.645	-75.68	-24.63	-117.14	-63.406	-34.202	-29.694	-0.33945	0.43796	-0.46359	0.69135	31.0	13111	100
2025-3-27 18:42:12.995	WT901BLE68-01(48591DE3C19B)	-0.609	-1.516	0.261	37.170	20.874	-160.645	-75.01	-25.87	-117.87	-63.406	-34.202	-29.694	-0.33945	0.43796	-0.46359	0.69135	31.0	13111	100
2025-3-27 18:42:12.995	WT901BLE68-01(48591DE3C19B)	-0.609	-1.676	0.250	33.081	27.344	-136.047	-74.38	-26.84	-118.62	-63.406	-34.202	-29.694	-0.33945	0.43796	-0.46359	0.69135	31.0	13111	100
2025-3-27 18:42:12.995	WT901BLE68-01(48591DE3C19B)	-0.598	-1.676	0.250	33.081	27.344	-136.047	-73.73	-27.80	-119.39	-63.406	-34.202	-29.694	-0.33945	0.43796	-0.46359	0.69135	31.0	13111	100
2025-3-27 18:42:12.995	WT901BLE68-01(48591DE3C19B)	-0.598	-1.725	0.210	34.790	53.406	-104.431	-72.97	-28.37	-120.36	-63.406	-34.202	-29.694	-0.33945	0.43796	-0.46359	0.69135	31.0	13111	100
2025-3-27 18:42:13.25	WT901BLE68-01(48591DE3C19B)	-0.568	-1.725	0.210	34.790	53.406	-104.431	-72.20	-28.92	-121.33	-63.406	-34.202	-29.694	-0.33945	0.43796	-0.46359	0.69135	31.0	13111	100
2025-3-27 18:42:13.25	WT901BLE68-01(48591DE3C19B)	-0.568	-1.649	0.188	25.452	93.384	-65.369	-71.38	-28.97	-122.60	-63.406	-34.202	-29.694	-0.33945	0.43796	-0.46359	0.69135	31.0	13111	100
2025-3-27 18:42:13.25	WT901BLE68-01(48591DE3C19B)	-0.577	-1.649	0.188	25.452	93.384	-65.369	-70.58	-28.99	-123.88	-63.406	-34.202	-29.694	-0.33945	0.43796	-0.46359	0.69135	31.0	13111	100
2025-3-27 18:42:13.26	WT901BLE68-01(48591DE3C19B)	-0.577	-1.498	0.234	13.916	130.737	-21.667	-69.78	-28.48	-125.37	-63.406	-34.202	-29.694	-0.33945	0.43796	-0.46359	0.69135	31.0	13111	100
2025-3-27 18:42:13.88	WT901BLE68-01(48591DE3C19B)	-0.640	-1.498	0.234	13.916	130.737	-21.667	-69.01	-27.94	-126.85	-63.406	-34.202	-29.694	-0.33945	0.43796	-0.46359	0.69135	31.0	13111	100
2025-3-27 18:42:13.88	WT901BLE68-01(48591DE3C19B)	-0.640	-1.250	0.328	-0.427	145.630	21.057	-68.41	-26.93	-128.29	-63.406	-34.202	-29.694	-0.33945	0.43796	-0.46359	0.69135	31.0	13111	100
2025-3-27 18:42:13.88	WT901BLE68-01(48591DE3C19B)	-0.722	-1.250	0.328	-0.427	145.630	21.057	-67.85	-25.92	-129.72	-63.406	-34.202	-29.694	-0.33945	0.43796	-0.46359	0.69135	31.0	13111	100
2025-3-27 18:42:13.88	WT901BLE68-01(48591DE3C19B)	-0.722	-1.025	0.388	-15.381	120.850	59.448	-67.64	-24.64	-130.72	-63.406	-34.202	-29.694	-0.33945	0.43796	-0.46359	0.69135	31.0	13111	100
2025-3-27 18:42:13.117	WT901BLE68-01(48591DE3C19B)	-0.708	-1.025	0.388	-15.381	120.850	59.448	-67.45	-23.35	-131.72	-63.406	-34.202	-29.694	-0.33945	0.43796	-0.46359	0.69135	31.0	13111	100
2025-3-27 18:42:13.117	WT901BLE68-01(48591DE3C19B)	-0.708	-0.899	0.342	-30.273	73.975	91.309	-67.65	-21.96	-132.13	-63.406	-34.202	-29.694	-0.33945	0.43796	-0.46359	0.69135	31.0	13111	100
2025-3-27 18:42:13.117	WT901BLE68-01(48591DE3C19B)	-0.697	-0.899	0.342	-30.273	73.975	91.309	-67.85	-20.56	-132.54	-63.406	-34.202	-29.694	-0.33945	0.43796	-0.46359	0.69135	31.0	13111	100
2025-3-27 18:42:13.117	WT901BLE68-01(48591DE3C19B)	-0.697	-0.869	0.236	-43.030	25.391	123.840	-68.38	-19.04	-132.37	-38.710	-44.394	-18.032	-0.33945	0.43796	-0.46359	0.69135	31.0	13111	100
2025-3-27 18:42:13.145	WT901BLE68-01(48591DE3C19B)	-0.698	-0.869	0.236	-43.030	25.391	123.840	-68.90	-17.53	-132.23	-38.710	-44.394	-18.032	-0.33945	0.43796	-0.46359	0.69135	31.0	13111	100
2025-3-27 18:42:13.145	WT901BLE68-01(48591DE3C19B)	-0.698	-0.890	0.130	-50.903	-16.479	153.625	-69.62	-15.90	-131.61	-38.710	-44.394	-18.032	-0.33945	0.43796	-0.46359	0.69135	31.0	13111	100
2025-3-27 18:42:13.145	WT901BLE68-01(48591DE3C19B)	-0.616	-0.890	0.130	-50.903	-16.479	153.625	-70.31	-14.25	-131.01	-38.710	-44.394	-18.032	-0.33945	0.43796	-0.46359	0.69135	31.0	13111	100
2025-3-27 18:42:13.145	WT901BLE68-01(48591DE3C19B)	-0.616	-0.940	0.046	-55.847	-49.133	180.908	-71.12	-12.46	-130.04	-38.710	-44.394	-18.032	-0.33945	0.43796	-0.46359	0.69135	31.0	13111	100
2025-3-27 18:42:13.206	WT901BLE68-01(48591DE3C19B)	-0.539	-0.940	0.046	-55.847	-49.133	180.908	-71.88	-10.66	-129.11	-38.710	-44.394	-18.032	-0.33945	0.43796	-0.46359	0.69135	31.0	13111	100
2025-3-27 18:42:13.206	WT901BLE68-01(48591DE3C19B)	-0.539	-1.062	0.010	-57.495	-75.195	204.529	-72.68	-8.71	-127.88	-38.710	-44.394	-18.032	-0.33945	0.43796	-0.46359	0.69135	31.0	13111	100
2025-3-27 18:42:13.206	WT901BLE68-01(48591DE3C19B)	-0.474	-1.062	0.010	-57.495	-75.195	204.529	-73.43	-6.75	-126.69	-38.710	-44.394	-18.032	-0.33945	0.43796	-0.46359	0.69135	31.0	13111	100
2025-3-27 18:42:13.206	WT901BLE68-01(48591DE3C19B)	-0.474	-1.192	0.038	-53.528	-97.473	222.229	-74.12	-4.68	-125.26	-38.710	-44.394	-18.032	-0.33945	0.43796	-0.46359	0.69135	31.0	13111	100
2025-3-27 18:42:13.235	WT901BLE68-01(48591DE3C19B)	-0.375	-1.192	0.038	-53.528	-97.473	222.229	-74.77	-2.61	-123.84	-38.710	-44.394	-18.032	-0.33945	0.43796	-0.46359	0.69135	31.0	13111	100
2025-3-27 18:42:13.235	WT901BLE68-01(48591DE3C19B)	-0.375	-1.332	0.088	-44.983	-108.704	232.666	-75.27	-0.48	-122.31	-38.710	-44.394	-18.032	-0.33945	0.43796	-0.46359	0.69135	31.0	13111	100
2025-3-27 18:42:13.235	WT901BLE68-01(48591DE3C19B)	-0.279	-1.332	0.088	-44.983	-108.704	232.666	-75.72	1.65	-120.79	-38.710	-44.394	-18.032	-0.33945	0.43796	-0.46359	0.69135	31.0	13111	100
2025-3-27 18:42:13.235	WT901BLE68-01(48591DE3C19B)	-0.279	-1.428	0.114	-32.227	-101.318	238.708	-75.99	3.85	-119.33	-38.710	-44.394	-18.032	-0.33945	0.43796	-0.46359	0.69135	31.0	13111	100
2025-3-27 18:42:13.265	WT901BLE68-01(48591DE3C19B)	-0.243	-1.428	0.114	-32.227	-101.318	238.708	-76.21	6.03	-117.87	-38.710	-44.394	-18.032	-0.33945	0.43796	-0.46359	0.69135	31.0	13111	100
2025-3-27 18:42:13.265	WT901BLE68-01(48591DE3C19B)	-0.243	-1.444	0.121	-20.935	-83.252	241.699	-76.27	8.27	-116.58	-38.710	-44.394	-18.032	-0.33945	0.43796	-0.46359	0.69135	31.0	13111	100
2025-3-27 18:42:13.265	WT901BLE68-01(48591DE3C19B)	-0.255	-1.444	0.121	-20.935	-83.252	241.699	-76.29	10.49	-115.27	-38.710	-44.394	-18.032	-0.33945	0.43796	-0.46359	0.69135	31.0	13111	100
2025-3-27 18:42:13.265	WT901BLE68-01(48591DE3C19B)	-0.255	-1.458	0.113	-15.869	-64.209	243.225	-76.24	12.74	-114.14	-38.710	-44.394	-18.032	-0.33945	0.43796	-0.46359	0.69135	31.0	13111	100
2025-3-27 18:42:13.326	WT901BLE68-01(48591DE3C19B)	-0.250	-1.458	0.113	-15.869	-64.209	243.225	-76.15	14.98	-113.00	-38.710	-44.394	-18.032	-0.33945	0.43796	-0.46359	0.69135	31.0	13111	100
2025-3-27 18:42:13.326	WT901BLE68-01(48591DE3C19B)	-0.250	-1.411	0.088	-11.597	-46.448	244.080	-76.01	17.24	-112.02	-38.710	-44.394	-18.032	-0.33945	0.43796	-0.46359	0.69135	31.0	13111	100
2025-3-27 18:42:13.326	WT901BLE68-01(48591DE3C19B)	-0.238	-1.411	0.088	-11.597	-46.448	244.080	-75.84	19.49	-111.01	-38.710	-44.394	-18.032	-0.33945	0.43796	-0.46359	0.69135	31.0	13111	100
2025-3-27 18:42:13.326	WT901BLE68-01(48591DE3C19B)	-0.238	-1.314	0.065	-12.695	-33.630	244.263	-75.67	21.75	-110.12	-38.710	-44.394	-18.032	-0.33945	0.43796	-0.46359	0.69135	31.0	13111	100
2025-3-27 18:42:13.358	WT901BLE68-01(48591DE3C19B)	-0.249	-1.314	0.065	-12.695	-33.630	244.263	-75.48	23.99	-109.20	-38.710	-44.394	-18.032	-0.55173	0.21274	-0.58322	0.55685	31.0	13111	100
2025-3-27 18:42:13.358	WT901BLE68-01(48591DE3C19B)	-0.249	-1.283	0.062	-17.395	-30.396	244.080	-75.29	26.22	-108.30	-38.710	-44.394	-18.032	-0.55173	0.21274	-0.58322	0.55685	31.0	13111	100
2025-3-27 18:42:13.358	WT901BLE68-01(48591DE3C19B)	-0.258	-1.283	0.062	-17.395	-30.396	244.080	-75.07	28.43	-107.38	-38.710	-44.394	-18.032	-0.55173	0.21274	-0.58322	0.55685	31.0	13111	100
2025-3-27 18:42:13.358	WT901BLE68-01(48591DE3C19B)	-0.221	-1.221	0.040	-20.996	-38.513	244.263	-74.79	30.60	-106.34	-38.710	-44.394	-18.032	-0.55173	0.21274	-0.58322	0.55685	31.0	13111	100
2025-3-27 18:42:13.388	WT901BLE68-01(48591DE3C19B)	-0.221	-1.208	0.042	-28.931	-49.255	241.943	-74.48	32.73	-105.20	-38.710	-44.394	-18.032	-0.55173	0.21274	-0.58322	0.55685	31.0	13111	100
2025-3-27 18:42:13.389	WT901BLE68-01(48591DE3C19B)	-0.106	-1.208	0.042	-28.931	-49.255	241.943	-74.11	34.82	-103.96	-38.710	-44.394	-18.032	-0.55173	0.21274	-0.58322	0.55685	31.0	13111	100
2025-3-27 18:42:13.389	WT901BLE68-01(48591DE3C19B)	-0.106	-1.313	0.091	-31.433	-56.702	232.300	-73.67	36.82	-102.66	-38.710	-44.394	-18.032	-0.55173	0.21274	-0.58322	0.55685	31.0	13111	100
2025-3-27 18:42:13.389	WT901BLE68-01(48591DE3C19B)	0.027	-1.313	0.091	-31.433	-56.702	232.300	-73.17	38.74	-101.28	-38.710	-44.394	-18.032	-0.55173	0.21274	-0.58322	0.55685	31.0	13111	100
2025-3-27 18:42:13.446	WT901BLE68-01(48591DE3C19B)	0.027	-1.382	0.092	-27.771	-64.087	216.309	-72.57	40.56	-99.82	-38.710	-44.394	-18.032	-0.55173	0.21274	-0.58322	0.55685	31.0	13111	100
2025-3-27 18:42:13.446	WT901BLE68-01(48591DE3C19B)	0.200	-1.382	0.092	-27.771	-64.087	216.309	-71.87	42.25	-98.29	-38.710	-44.394	-18.032	-0.55173	0.21274	-0.58322	0.55685	31.0	13111	100
2025-3-27 18:42:13.446	WT901BLE68-01(48591DE3C19B)	0.200	-1.396	0.082	-23.926	-61.890	193.970	-71.11	43.80	-96.76	-38.710	-44.394	-18.032	-0.55173	0.21274	-0.58322	0.55685	31.0	13111	100
2025-3-27 18:42:13.446	WT901BLE68-01(48591DE3C19B)	0.364	-1.396	0.082	-23.926	-61.890	193.970	-70.32	45.23	-95.23	-38.710	-44.394	-18.032	-0.55173	0.21274	-0.58322	0.55685	31.0	13111	100
2025-3-27 18:42:13.475	WT901BLE68-01(48591DE3C19B)	0.364	-1.521	0.045	-23.010	-37.415	164.307	-69.62	46.52	-93.89	-38.710	-44.394	-18.032	-0.55173	0.21274	-0.58322	0.55685	31.0	13111	100
2025-3-27 18:42:13.475	WT901BLE68-01(48591DE3C19B)	0.365	-1.521	0.045	-23.010	-37.415	164.307	-69.05	47.69	-92.74	-38.710	-44.394	-18.032	-0.55173	0.21274	-0.58322	0.55685	31.0	13111	100
2025-3-27 18:42:13.476	WT901BLE68-01(48591DE3C19B)	0.365	-1.617	0.068	-14.404	3.052	132.813	-68.68	48.76	-91.92	-38.710	-44.394	-18.032	-0.55173	0.21274	-0.58322	0.55685	31.0	13111	100
2025-3-27 18:42:13.476	WT901BLE68-01(48591DE3C19B)	0.310	-1.617	0.068	-14.404	3.052	132.813	-68.52	49.75	-91.47	-38.710	-44.394	-18.032	-0.55173	0.21274	-0.58322	0.55685	31.0	13111	100
2025-3-27 18:42:13.536	WT901BLE68-01(48591DE3C19B)	0.310	-1.630	0.047	-11.780	28.687	92.163	-68.58	50.58	-91.30	-38.710	-44.394	-18.032	-0.55173	0.21274	-0.58322	0.55685	31.0	13111	100
2025-3-27 18:42:13.536	WT901BLE68-01(48591DE3C19B)	0.281	-1.630	0.047	-11.780	28.687	92.163	-68.85	51.26	-91.44	-38.710	-44.394	-18.032	-0.55173	0.21274	-0.58322	0.55685	31.0	13111	100
2025-3-27 18:42:13.536	WT901BLE68-01(48591DE3C19B)	0.281	-1.591	0.049	-7.629	54.138	44.678	-69.37	51.75	-91.93	-38.710	-44.394	-18.032	-0.55173	0.21274	-0.58322	0.55685	31.0	13111	100
2025-3-27 18:42:13.536	WT901BLE68-01(48591DE3C19B)	0.221	-1.591	0.049	-7.629	54.138	44.678	-70.14	52.05	-92.75	-38.710	-44.394	-18.032	-0.55173	0.21274	-0.58322	0.55685	31.0	13111	100
2025-3-27 18:42:13.565	WT901BLE68-01(48591DE3C19B)	0.221	-1.454	0.077	-5.615	70.496	-2.014	-71.10	52.16	-93.83	-76.342	-40.474	-29.890	-0.55173	0.21274	-0.58322	0.55685	31.0	13111	100
2025-3-27 18:42:13.565	WT901BLE68-01(48591DE3C19B)	0.156	-1.454	0.077	-5.615	70.496	-2.014	-72.25	52.05	-95.15	-76.342	-40.474	-29.890	-0.55173	0.21274	-0.58322	0.55685	31.0	13111	100
2025-3-27 18:42:13.565	WT901BLE68-01(48591DE3C19B)	0.156	-1.370	0.118	-9.705	59.753	-46.204	-73.41	51.70	-96.49	-76.342	-40.474	-29.890	-0.55173	0.21274	-0.58322	0.55685	31.0	13111	100
2025-3-27 18:42:13.565	WT901BLE68-01(48591DE3C19B)	0.145	-1.370	0.118	-9.705	59.753	-46.204	-74.57	51.10	-97.80	-76.342	-40.474	-29.890	-0.55173	0.21274	-0.58322	0.55685	31.0	13111	100
2025-3-27 18:42:13.595	WT901BLE68-01(48591DE3C19B)	0.145	-1.368	0.075	-6.042	46.631	-86.426	-75.65	50.29	-99.06	-76.342	-40.474	-29.890	-0.55173	0.21274	-0.58322	0.55685	31.0	13111	100
2025-3-27 18:42:13.595	WT901BLE68-01(48591DE3C19B)	0.070	-1.368	0.075	-6.042	46.631	-86.426	-76.64	49.25	-100.24	-76.342	-40.474	-29.890	-0.55173	0.21274	-0.58322	0.55685	31.0	13111	100
2025-3-27 18:42:13.595	WT901BLE68-01(48591DE3C19B)	0.070	-1.256	0.062	-1.709	33.020	-120.056	-77.51	48.03	-101.32	-76.342	-40.474	-29.890	-0.55173	0.21274	-0.58322	0.55685	31.0	13111	100
2025-3-27 18:42:13.596	WT901BLE68-01(48591DE3C19B)	0.003	-1.256	0.062	-1.709	33.020	-120.056	-78.27	46.63	-102.29	-76.342	-40.474	-29.890	-0.55173	0.21274	-0.58322	0.55685	31.0	13111	100
2025-3-27 18:42:13.656	WT901BLE68-01(48591DE3C19B)	0.003	-1.188	0.047	-1.099	13.611	-150.513	-78.91	45.06	-103.12	-76.342	-40.474	-29.890	-0.55173	0.21274	-0.58322	0.55685	31.0	13111	100
2025-3-27 18:42:13.657	WT901BLE68-01(48591DE3C19B)	-0.053	-1.188	0.047	-1.099	13.611	-150.513	-79.42	43.33	-103.81	-76.342	-40.474	-29.890	-0.55173	0.21274	-0.58322	0.55685	31.0	13111	100
2025-3-27 18:42:13.657	WT901BLE68-01(48591DE3C19B)	-0.053	-1.204	0.039	-5.737	-4.395	-173.462	-79.85	41.48	-104.36	-76.342	-40.474	-29.890	-0.55173	0.21274	-0.58322	0.55685	31.0	13111	100
2025-3-27 18:42:13.657	WT901BLE68-01(48591DE3C19B)	-0.135	-1.204	0.039	-5.737	-4.395	-173.462	-80.21	39.51	-104.79	-76.342	-40.474	-29.890	-0.55173	0.21274	-0.58322	0.55685	31.0	13111	100
2025-3-27 18:42:13.687	WT901BLE68-01(48591DE3C19B)	-0.135	-1.295	0.065	-6.409	-15.503	-193.176	-80.51	37.45	-105.14	-76.342	-40.474	-29.890	-0.55173	0.21274	-0.58322	0.55685	31.0	13111	100
2025-3-27 18:42:13.687	WT901BLE68-01(48591DE3C19B)	-0.233	-1.295	0.065	-6.409	-15.503	-193.176	-80.76	35.30	-105.42	-76.342	-40.474	-29.890	-0.55173	0.21274	-0.58322	0.55685	31.0	13111	100
2025-3-27 18:42:13.687	WT901BLE68-01(48591DE3C19B)	-0.233	-1.343	0.126	-5.188	-28.931	-210.388	-80.95	33.07	-105.63	-76.342	-40.474	-29.890	-0.55173	0.21274	-0.58322	0.55685	31.0	13111	100
2025-3-27 18:42:13.687	WT901BLE68-01(48591DE3C19B)	-0.252	-1.343	0.126	-5.188	-28.931	-210.388	-81.09	30.76	-105.75	-76.342	-40.474	-29.890	-0.55173	0.21274	-0.58322	0.55685	31.0	13111	100
2025-3-27 18:42:13.716	WT901BLE68-01(48591DE3C19B)	-0.252	-1.328	0.163	-8.606	-39.185	-223.450	-81.21	28.40	-105.82	-76.342	-40.474	-29.890	-0.55173	0.21274	-0.58322	0.55685	31.0	13111	100
2025-3-27 18:42:13.716	WT901BLE68-01(48591DE3C19B)	-0.210	-1.328	0.163	-8.606	-39.185	-223.450	-81.32	25.99	-105.83	-76.342	-40.474	-29.890	-0.55173	0.21274	-0.58322	0.55685	31.0	13111	100
2025-3-27 18:42:13.716	WT901BLE68-01(48591DE3C19B)	-0.210	-1.284	0.193	-14.343	-33.569	-230.469	-81.46	23.57	-105.88	-76.342	-40.474	-29.890	-0.54846	0.26883	-0.59982	0.51672	31.0	13111	100
2025-3-27 18:42:13.716	WT901BLE68-01(48591DE3C19B)	-0.163	-1.284	0.193	-14.343	-33.569	-230.469	-81.64	21.13	-105.96	-76.342	-40.474	-29.890	-0.54846	0.26883	-0.59982	0.51672	31.0	13111	100
2025-3-27 18:42:13.775	WT901BLE68-01(48591DE3C19B)	-0.163	-1.240	0.211	-20.325	-12.573	-234.741	-81.88	18.70	-106.13	-76.342	-40.474	-29.890	-0.54846	0.26883	-0.59982	0.51672	31.0	13111	100
2025-3-27 18:42:13.775	WT901BLE68-01(48591DE3C19B)	-0.160	-1.240	0.211	-20.325	-12.573	-234.741	-82.17	16.28	-106.41	-76.342	-40.474	-29.890	-0.54846	0.26883	-0.59982	0.51672	31.0	13111	100
2025-3-27 18:42:13.775	WT901BLE68-01(48591DE3C19B)	-0.160	-1.211	0.186	-22.278	11.292	-237.854	-82.49	13.88	-106.79	-76.342	-40.474	-29.890	-0.54846	0.26883	-0.59982	0.51672	31.0	13111	100
2025-3-27 18:42:13.775	WT901BLE68-01(48591DE3C19B)	-0.202	-1.211	0.186	-22.278	11.292	-237.854	-82.81	11.49	-107.28	-76.342	-40.474	-29.890	-0.54846	0.26883	-0.59982	0.51672	31.0	13111	100
2025-3-27 18:42:13.805	WT901BLE68-01(48591DE3C19B)	-0.202	-1.158	0.153	-20.996	26.245	-241.882	-83.12	9.11	-107.82	-76.342	-40.474	-29.890	-0.54846	0.26883	-0.59982	0.51672	31.0	13111	100
2025-3-27 18:42:13.806	WT901BLE68-01(48591DE3C19B)	-0.245	-1.158	0.153	-20.996	26.245	-241.882	-83.41	6.72	-108.42	-76.342	-40.474	-29.890	-0.54846	0.26883	-0.59982	0.51672	31.0	13111	100
2025-3-27 18:42:13.806	WT901BLE68-01(48591DE3C19B)	-0.245	-1.105	0.150	-20.813	31.738	-246.826	-83.67	4.33	-109.03	-76.342	-40.474	-29.890	-0.54846	0.26883	-0.59982	0.51672	31.0	13111	100
2025-3-27 18:42:13.806	WT901BLE68-01(48591DE3C19B)	-0.299	-1.105	0.150	-20.813	31.738	-246.826	-83.91	1.94	-109.67	-76.342	-40.474	-29.890	-0.54846	0.26883	-0.59982	0.51672	31.0	13111	100
2025-3-27 18:42:13.835	WT901BLE68-01(48591DE3C19B)	-0.299	-1.093	0.196	-20.813	33.081	-249.084	-84.12	-0.44	-110.29	-76.342	-40.474	-29.890	-0.54846	0.26883	-0.59982	0.51672	31.0	13111	100
2025-3-27 18:42:13.835	WT901BLE68-01(48591DE3C19B)	-0.395	-1.093	0.196	-20.813	33.081	-249.084	-84.30	-2.83	-110.91	-76.342	-40.474	-29.890	-0.54846	0.26883	-0.59982	0.51672	31.0	13111	100
2025-3-27 18:42:13.835	WT901BLE68-01(48591DE3C19B)	-0.395	-1.107	0.255	-17.822	30.823	-248.962	-84.42	-5.20	-111.51	-76.342	-40.474	-29.890	-0.54846	0.26883	-0.59982	0.51672	31.0	13111	100
2025-3-27 18:42:13.835	WT901BLE68-01(48591DE3C19B)	-0.498	-1.107	0.255	-17.822	30.823	-248.962	-84.52	-7.55	-112.10	-76.342	-40.474	-29.890	-0.54846	0.26883	-0.59982	0.51672	31.0	13111	100
2025-3-27 18:42:13.896	WT901BLE68-01(48591DE3C19B)	-0.498	-1.103	0.288	-11.780	17.334	-245.178	-84.55	-9.85	-112.56	-76.342	-40.474	-29.890	-0.54846	0.26883	-0.59982	0.51672	31.0	13111	100
2025-3-27 18:42:13.897	WT901BLE68-01(48591DE3C19B)	-0.542	-1.103	0.288	-11.780	17.334	-245.178	-84.55	-12.13	-113.02	-76.342	-40.474	-29.890	-0.54846	0.26883	-0.59982	0.51672	31.0	13111	100
2025-3-27 18:42:13.897	WT901BLE68-01(48591DE3C19B)	-0.542	-1.083	0.295	-5.493	-3.540	-238.281	-84.52	-14.35	-113.27	-76.342	-40.474	-29.890	-0.54846	0.26883	-0.59982	0.51672	31.0	13111	100
2025-3-27 18:42:13.897	WT901BLE68-01(48591DE3C19B)	-0.541	-1.083	0.295	-5.493	-3.540	-238.281	-84.48	-16.55	-113.53	-76.342	-40.474	-29.890	-0.54846	0.26883	-0.59982	0.51672	31.0	13111	100
2025-3-27 18:42:13.925	WT901BLE68-01(48591DE3C19B)	-0.541	-1.077	0.313	-1.221	-26.062	-227.905	-84.46	-18.64	-113.55	-76.342	-40.474	-29.890	-0.54846	0.26883	-0.59982	0.51672	31.0	13111	100
2025-3-27 18:42:13.925	WT901BLE68-01(48591DE3C19B)	-0.528	-1.077	0.313	-1.221	-26.062	-227.905	-84.43	-20.72	-113.58	-76.342	-40.474	-29.890	-0.54846	0.26883	-0.59982	0.51672	31.0	13111	100
2025-3-27 18:42:13.926	WT901BLE68-01(48591DE3C19B)	-0.528	-1.117	0.325	2.258	-43.762	-213.867	-84.44	-22.66	-113.41	-76.342	-40.474	-29.890	-0.54846	0.26883	-0.59982	0.51672	31.0	13111	100
2025-3-27 18:42:13.926	WT901BLE68-01(48591DE3C19B)	-0.529	-1.117	0.325	2.258	-43.762	-213.867	-84.45	-24.58	-113.24	-58.996	-38.416	-22.344	-0.54846	0.26883	-0.59982	0.51672	31.0	13111	100
2025-3-27 18:42:13.988	WT901BLE68-01(48591DE3C19B)	-0.529	-1.226	0.342	3.845	-53.772	-197.815	-84.50	-26.35	-112.94	-58.996	-38.416	-22.344	-0.54846	0.26883	-0.59982	0.51672	31.0	13111	100
2025-3-27 18:42:13.988	WT901BLE68-01(48591DE3C19B)	-0.536	-1.226	0.342	3.845	-53.772	-197.815	-84.56	-28.10	-112.65	-58.996	-38.416	-22.344	-0.54846	0.26883	-0.59982	0.51672	31.0	13111	100
2025-3-27 18:42:13.988	WT901BLE68-01(48591DE3C19B)	-0.536	-1.377	0.372	7.263	-48.828	-176.941	-84.58	-29.63	-112.38	-58.996	-38.416	-22.344	-0.54846	0.26883	-0.59982	0.51672	31.0	13111	100
2025-3-27 18:42:13.988	WT901BLE68-01(48591DE3C19B)	-0.535	-1.377	0.372	7.263	-48.828	-176.941	-84.61	-31.15	-112.12	-58.996	-38.416	-22.344	-0.54846	0.26883	-0.59982	0.51672	31.0	13111	100
2025-3-27 18:42:14.76	WT901BLE68-01(48591DE3C19B)	-0.535	-1.478	0.417	7.568	-21.118	-150.146	-84.48	-32.37	-112.14	-58.996	-38.416	-22.344	-0.54846	0.26883	-0.59982	0.51672	31.0	13111	100
2025-3-27 18:42:14.76	WT901BLE68-01(48591DE3C19B)	-0.597	-1.478	0.417	7.568	-21.118	-150.146	-84.35	-33.59	-112.16	-58.996	-38.416	-22.344	-0.54846	0.26883	-0.59982	0.51672	31.0	13111	100
2025-3-27 18:42:14.76	WT901BLE68-01(48591DE3C19B)	-0.597	-1.541	0.396	13.062	28.992	-107.666	-83.86	-34.32	-112.75	-58.996	-38.416	-22.344	-0.54846	0.26883	-0.59982	0.51672	31.0	13111	100
2025-3-27 18:42:14.76	WT901BLE68-01(48591DE3C19B)	-0.634	-1.541	0.396	13.062	28.992	-107.666	-83.36	-35.05	-113.35	-58.996	-38.416	-22.344	-0.54846	0.26883	-0.59982	0.51672	31.0	13111	100
2025-3-27 18:42:14.77	WT901BLE68-01(48591DE3C19B)	-0.634	-1.351	0.370	13.123	77.942	-58.960	-82.55	-35.23	-114.48	-58.996	-38.416	-22.344	-0.54846	0.26883	-0.59982	0.51672	31.0	13111	100
2025-3-27 18:42:14.77	WT901BLE68-01(48591DE3C19B)	-0.595	-1.351	0.370	13.123	77.942	-58.960	-81.73	-35.39	-115.62	-58.996	-38.416	-22.344	-0.54846	0.26883	-0.59982	0.51672	31.0	13111	100
2025-3-27 18:42:14.77	WT901BLE68-01(48591DE3C19B)	-0.595	-1.198	0.434	4.089	100.586	-1.343	-80.91	-34.93	-116.93	-58.996	-38.416	-22.344	-0.54846	0.26883	-0.59982	0.51672	31.0	13111	100
2025-3-27 18:42:14.77	WT901BLE68-01(48591DE3C19B)	-0.541	-1.198	0.434	4.089	100.586	-1.343	-80.11	-34.46	-118.22	-58.996	-38.416	-22.344	-0.54846	0.26883	-0.59982	0.51672	31.0	13111	100
2025-3-27 18:42:14.78	WT901BLE68-01(48591DE3C19B)	-0.541	-1.121	0.598	-1.404	87.524	54.565	-79.54	-33.45	-119.23	-58.996	-38.416	-22.344	-0.54846	0.26883	-0.59982	0.51672	31.0	13111	100
2025-3-27 18:42:14.78	WT901BLE68-01(48591DE3C19B)	-0.540	-1.121	0.598	-1.404	87.524	54.565	-78.98	-32.44	-120.22	-58.996	-38.416	-22.344	-0.54846	0.26883	-0.59982	0.51672	31.0	13111	100
2025-3-27 18:42:14.78	WT901BLE68-01(48591DE3C19B)	-0.540	-1.070	0.636	-2.380	54.932	101.440	-78.71	-31.03	-120.71	-58.996	-38.416	-22.344	-0.54846	0.26883	-0.59982	0.51672	31.0	13111	100
2025-3-27 18:42:14.78	WT901BLE68-01(48591DE3C19B)	-0.507	-1.070	0.636	-2.380	54.932	101.440	-78.45	-29.64	-121.20	-58.996	-38.416	-22.344	-0.54846	0.26883	-0.59982	0.51672	31.0	13111	100
2025-3-27 18:42:14.136	WT901BLE68-01(48591DE3C19B)	-0.507	-0.954	0.525	0.854	16.663	142.883	-78.41	-27.91	-121.16	-58.996	-38.416	-22.344	-0.54846	0.26883	-0.59982	0.51672	31.0	13111	100
2025-3-27 18:42:14.136	WT901BLE68-01(48591DE3C19B)	-0.575	-0.954	0.525	0.854	16.663	142.883	-78.38	-26.20	-121.12	-58.996	-38.416	-22.344	-0.54846	0.26883	-0.59982	0.51672	31.0	13111	100
2025-3-27 18:42:14.136	WT901BLE68-01(48591DE3C19B)	-0.575	-0.886	0.350	1.404	-3.540	179.260	-78.45	-24.18	-120.80	-58.996	-38.416	-22.344	-0.54846	0.26883	-0.59982	0.51672	31.0	13111	100
2025-3-27 18:42:14.136	WT901BLE68-01(48591DE3C19B)	-0.606	-0.886	0.350	1.404	-3.540	179.260	-78.50	-22.17	-120.49	-58.996	-38.416	-22.344	-0.54846	0.26883	-0.59982	0.51672	31.0	13111	100
2025-3-27 18:42:14.165	WT901BLE68-01(48591DE3C19B)	-0.606	-0.976	0.165	0.000	-19.043	205.872	-78.63	-19.93	-119.98	-58.996	-38.416	-22.344	-0.29333	0.42337	-0.47742	0.71179	31.0	13111	100
2025-3-27 18:42:14.165	WT901BLE68-01(48591DE3C19B)	-0.555	-0.976	0.165	0.000	-19.043	205.872	-78.74	-17.71	-119.47	-58.996	-38.416	-22.344	-0.29333	0.42337	-0.47742	0.71179	31.0	13111	100
2025-3-27 18:42:14.165	WT901BLE68-01(48591DE3C19B)	-0.555	-1.178	0.056	2.075	-28.564	227.661	-78.86	-15.30	-118.84	-58.996	-38.416	-22.344	-0.29333	0.42337	-0.47742	0.71179	31.0	13111	100
2025-3-27 18:42:14.165	WT901BLE68-01(48591DE3C19B)	-0.477	-1.178	0.056	2.075	-28.564	227.661	-78.95	-12.90	-118.22	-58.996	-38.416	-22.344	-0.29333	0.42337	-0.47742	0.71179	31.0	13111	100
2025-3-27 18:42:14.195	WT901BLE68-01(48591DE3C19B)	-0.477	-1.374	0.057	9.521	-38.269	240.112	-78.97	-10.40	-117.48	-58.996	-38.416	-22.344	-0.29333	0.42337	-0.47742	0.71179	31.0	13111	100
2025-3-27 18:42:14.195	WT901BLE68-01(48591DE3C19B)	-0.348	-1.374	0.057	9.521	-38.269	240.112	-78.96	-7.93	-116.75	-58.996	-38.416	-22.344	-0.29333	0.42337	-0.47742	0.71179	31.0	13111	100
2025-3-27 18:42:14.195	WT901BLE68-01(48591DE3C19B)	-0.348	-1.521	0.125	22.095	-45.227	248.352	-78.82	-5.41	-115.92	-58.996	-38.416	-22.344	-0.29333	0.42337	-0.47742	0.71179	31.0	13111	100
2025-3-27 18:42:14.195	WT901BLE68-01(48591DE3C19B)	-0.204	-1.521	0.125	22.095	-45.227	248.352	-78.64	-2.91	-115.09	-58.996	-38.416	-22.344	-0.29333	0.42337	-0.47742	0.71179	31.0	13111	100
2025-3-27 18:42:14.256	WT901BLE68-01(48591DE3C19B)	-0.204	-1.573	0.174	33.203	-34.424	254.578	-78.32	-0.36	-114.34	-58.996	-38.416	-22.344	-0.29333	0.42337	-0.47742	0.71179	31.0	13111	100
2025-3-27 18:42:14.257	WT901BLE68-01(48591DE3C19B)	-0.127	-1.573	0.174	33.203	-34.424	254.578	-77.96	2.16	-113.57	-58.996	-38.416	-22.344	-0.29333	0.42337	-0.47742	0.71179	31.0	13111	100
2025-3-27 18:42:14.257	WT901BLE68-01(48591DE3C19B)	-0.127	-1.508	0.176	39.795	-11.780	260.132	-77.53	4.76	-112.99	-58.996	-38.416	-22.344	-0.29333	0.42337	-0.47742	0.71179	31.0	13111	100
2025-3-27 18:42:14.257	WT901BLE68-01(48591DE3C19B)	-0.136	-1.508	0.176	39.795	-11.780	260.132	-77.07	7.33	-112.38	-58.996	-38.416	-22.344	-0.29333	0.42337	-0.47742	0.71179	31.0	13111	100
2025-3-27 18:42:14.287	WT901BLE68-01(48591DE3C19B)	-0.136	-1.340	0.164	39.490	10.315	263.428	-76.62	9.96	-111.97	-58.996	-38.416	-22.344	-0.29333	0.42337	-0.47742	0.71179	31.0	13111	100
2025-3-27 18:42:14.287	WT901BLE68-01(48591DE3C19B)	-0.178	-1.340	0.164	39.490	10.315	263.428	-76.15	12.56	-111.52	-58.996	-38.416	-22.344	-0.29333	0.42337	-0.47742	0.71179	31.0	13111	100
2025-3-27 18:42:14.287	WT901BLE68-01(48591DE3C19B)	-0.219	-1.190	0.145	33.447	25.574	264.771	-75.75	15.19	-111.20	-58.996	-38.416	-22.344	-0.29333	0.42337	-0.47742	0.71179	31.0	13111	100
2025-3-27 18:42:14.287	WT901BLE68-01(48591DE3C19B)	-0.219	-1.108	0.104	25.452	33.752	265.808	-75.38	17.82	-110.90	-58.996	-38.416	-22.344	-0.29333	0.42337	-0.47742	0.71179	31.0	13111	100
2025-3-27 18:42:14.317	WT901BLE68-01(48591DE3C19B)	-0.229	-1.108	0.104	25.452	33.752	265.808	-75.05	20.44	-110.62	-58.996	-38.416	-22.344	-0.29333	0.42337	-0.47742	0.71179	31.0	13111	100
2025-3-27 18:42:14.317	WT901BLE68-01(48591DE3C19B)	-0.229	-1.042	0.050	18.066	33.142	264.954	-74.73	23.04	-110.31	-58.996	-38.416	-22.344	-0.29333	0.42337	-0.47742	0.71179	31.0	13111	100
2025-3-27 18:42:14.317	WT901BLE68-01(48591DE3C19B)	-0.226	-1.042	0.050	18.066	33.142	264.954	-74.43	25.61	-109.98	-58.996	-38.416	-22.344	-0.29333	0.42337	-0.47742	0.71179	31.0	13111	100
2025-3-27 18:42:14.317	WT901BLE68-01(48591DE3C19B)	-0.226	-1.012	-0.007	9.155	25.391	261.597	-74.15	28.15	-109.60	-58.996	-38.416	-22.344	-0.29333	0.42337	-0.47742	0.71179	31.0	13111	100
2025-3-27 18:42:14.436	WT901BLE68-01(48591DE3C19B)	-0.234	-1.012	-0.007	9.155	25.391	261.597	-73.86	30.64	-109.15	-58.996	-38.416	-22.344	-0.29333	0.42337	-0.47742	0.71179	31.0	13111	100
2025-3-27 18:42:14.436	WT901BLE68-01(48591DE3C19B)	-0.234	-1.091	-0.053	-1.221	9.216	252.258	-73.56	33.04	-108.61	-66.836	-52.626	-30.086	-0.29333	0.42337	-0.47742	0.71179	31.0	13111	100
2025-3-27 18:42:14.436	WT901BLE68-01(48591DE3C19B)	-0.252	-1.091	-0.053	-1.221	9.216	252.258	-73.23	35.36	-107.95	-66.836	-52.626	-30.086	-0.29333	0.42337	-0.47742	0.71179	31.0	13111	100
2025-3-27 18:42:14.436	WT901BLE68-01(48591DE3C19B)	-0.252	-1.260	-0.080	-7.629	-14.282	237.183	-72.84	37.56	-107.15	-66.836	-52.626	-30.086	-0.29333	0.42337	-0.47742	0.71179	31.0	13111	100
2025-3-27 18:42:14.437	WT901BLE68-01(48591DE3C19B)	-0.261	-1.260	-0.080	-7.629	-14.282	237.183	-72.36	39.64	-106.19	-66.836	-52.626	-30.086	-0.29333	0.42337	-0.47742	0.71179	31.0	13111	100
2025-3-27 18:42:14.437	WT901BLE68-01(48591DE3C19B)	-0.261	-1.460	-0.088	-10.193	-37.781	217.651	-71.77	41.57	-105.07	-66.836	-52.626	-30.086	-0.29333	0.42337	-0.47742	0.71179	31.0	13111	100
2025-3-27 18:42:14.437	WT901BLE68-01(48591DE3C19B)	-0.244	-1.460	-0.088	-10.193	-37.781	217.651	-71.06	43.34	-103.79	-66.836	-52.626	-30.086	-0.29333	0.42337	-0.47742	0.71179	31.0	13111	100
2025-3-27 18:42:14.437	WT901BLE68-01(48591DE3C19B)	-0.244	-1.674	-0.097	-10.803	-57.007	192.139	-70.24	44.94	-102.37	-66.836	-52.626	-30.086	-0.29333	0.42337	-0.47742	0.71179	31.0	13111	100
2025-3-27 18:42:14.438	WT901BLE68-01(48591DE3C19B)	-0.138	-1.674	-0.097	-10.803	-57.007	192.139	-69.30	46.36	-100.82	-66.836	-52.626	-30.086	-0.29333	0.42337	-0.47742	0.71179	31.0	13111	100
2025-3-27 18:42:14.438	WT901BLE68-01(48591DE3C19B)	-0.138	-1.854	-0.100	-7.629	-65.674	162.292	-68.30	47.59	-99.22	-66.836	-52.626	-30.086	-0.29333	0.42337	-0.47742	0.71179	31.0	13111	100
2025-3-27 18:42:14.438	WT901BLE68-01(48591DE3C19B)	0.028	-1.854	-0.100	-7.629	-65.674	162.292	-67.24	48.64	-97.59	-66.836	-52.626	-30.086	-0.29333	0.42337	-0.47742	0.71179	31.0	13111	100
2025-3-27 18:42:14.438	WT901BLE68-01(48591DE3C19B)	0.028	-1.883	-0.048	-2.930	-66.650	129.028	-66.16	49.51	-95.99	-66.836	-52.626	-30.086	-0.29333	0.42337	-0.47742	0.71179	31.0	13111	100
2025-3-27 18:42:14.495	WT901BLE68-01(48591DE3C19B)	0.207	-1.883	-0.048	-2.930	-66.650	129.028	-65.10	50.19	-94.44	-66.836	-52.626	-30.086	-0.29333	0.42337	-0.47742	0.71179	31.0	13111	100
2025-3-27 18:42:14.495	WT901BLE68-01(48591DE3C19B)	0.207	-1.901	0.004	-1.770	-61.157	92.163	-64.12	50.69	-93.03	-66.836	-52.626	-30.086	-0.29333	0.42337	-0.47742	0.71179	31.0	13111	100
2025-3-27 18:42:14.495	WT901BLE68-01(48591DE3C19B)	0.287	-1.901	0.004	-1.770	-61.157	92.163	-63.25	51.01	-91.77	-66.836	-52.626	-30.086	-0.29333	0.42337	-0.47742	0.71179	31.0	13111	100
2025-3-27 18:42:14.495	WT901BLE68-01(48591DE3C19B)	0.287	-1.730	0.070	3.662	-38.025	59.265	-62.57	51.22	-90.78	-66.836	-52.626	-30.086	-0.29333	0.42337	-0.47742	0.71179	31.0	13111	100
2025-3-27 18:42:14.525	WT901BLE68-01(48591DE3C19B)	0.236	-1.730	0.070	3.662	-38.025	59.265	-62.08	51.32	-90.07	-66.836	-52.626	-30.086	-0.29333	0.42337	-0.47742	0.71179	31.0	13111	100
2025-3-27 18:42:14.526	WT901BLE68-01(48591DE3C19B)	0.236	-1.530	0.124	-4.211	-10.559	24.536	-61.88	51.32	-89.69	-66.836	-52.626	-30.086	-0.29333	0.42337	-0.47742	0.71179	31.0	13111	100
2025-3-27 18:42:14.526	WT901BLE68-01(48591DE3C19B)	0.177	-1.530	0.124	-4.211	-10.559	24.536	-61.97	51.22	-89.63	-66.836	-52.626	-30.086	-0.29333	0.42337	-0.47742	0.71179	31.0	13111	100
2025-3-27 18:42:14.526	WT901BLE68-01(48591DE3C19B)	0.177	-1.450	0.158	-13.000	19.470	-10.864	-62.37	51.04	-89.91	-66.836	-52.626	-30.086	-0.29333	0.42337	-0.47742	0.71179	31.0	13111	100
2025-3-27 18:42:14.556	WT901BLE68-01(48591DE3C19B)	0.208	-1.450	0.158	-13.000	19.470	-10.864	-63.07	50.77	-90.53	-66.836	-52.626	-30.086	-0.29333	0.42337	-0.47742	0.71179	31.0	13111	100
2025-3-27 18:42:14.557	WT901BLE68-01(48591DE3C19B)	0.208	-1.299	0.109	-11.475	57.434	-46.143	-64.05	50.41	-91.53	-66.836	-52.626	-30.086	-0.29333	0.42337	-0.47742	0.71179	31.0	13111	100
2025-3-27 18:42:14.557	WT901BLE68-01(48591DE3C19B)	0.181	-1.299	0.109	-11.475	57.434	-46.143	-65.29	49.97	-92.88	-66.836	-52.626	-30.086	-0.69101	0.07916	-0.59937	0.39609	31.0	13111	100
2025-3-27 18:42:14.557	WT901BLE68-01(48591DE3C19B)	0.181	-1.065	0.121	-18.372	72.327	-76.904	-66.68	49.39	-94.41	-66.836	-52.626	-30.086	-0.69101	0.07916	-0.59937	0.39609	31.0	13111	100
2025-3-27 18:42:14.616	WT901BLE68-01(48591DE3C19B)	0.130	-1.065	0.121	-18.372	72.327	-76.904	-68.19	48.67	-96.08	-66.836	-52.626	-30.086	-0.69101	0.07916	-0.59937	0.39609	31.0	13111	100
2025-3-27 18:42:14.616	WT901BLE68-01(48591DE3C19B)	0.130	-1.005	0.128	-25.757	69.519	-108.521	-69.73	47.78	-97.75	-66.836	-52.626	-30.086	-0.69101	0.07916	-0.59937	0.39609	31.0	13111	100
2025-3-27 18:42:14.616	WT901BLE68-01(48591DE3C19B)	0.021	-1.005	0.128	-25.757	69.519	-108.521	-71.26	46.70	-99.40	-66.836	-52.626	-30.086	-0.69101	0.07916	-0.59937	0.39609	31.0	13111	100
2025-3-27 18:42:14.616	WT901BLE68-01(48591DE3C19B)	0.021	-1.057	0.126	-29.053	58.777	-138.428	-72.72	45.45	-100.98	-66.836	-52.626	-30.086	-0.69101	0.07916	-0.59937	0.39609	31.0	13111	100
2025-3-27 18:42:14.645	WT901BLE68-01(48591DE3C19B)	-0.130	-1.057	0.126	-29.053	58.777	-138.428	-74.10	44.02	-102.44	-66.836	-52.626	-30.086	-0.69101	0.07916	-0.59937	0.39609	31.0	13111	100
2025-3-27 18:42:14.645	WT901BLE68-01(48591DE3C19B)	-0.130	-1.074	0.121	-24.109	40.527	-161.865	-75.30	42.43	-103.75	-66.836	-52.626	-30.086	-0.69101	0.07916	-0.59937	0.39609	31.0	13111	100
2025-3-27 18:42:14.645	WT901BLE68-01(48591DE3C19B)	-0.288	-1.074	0.121	-24.109	40.527	-161.865	-76.34	40.72	-104.90	-66.836	-52.626	-30.086	-0.69101	0.07916	-0.59937	0.39609	31.0	13111	100
2025-3-27 18:42:14.645	WT901BLE68-01(48591DE3C19B)	-0.288	-1.046	0.204	-18.982	15.686	-181.396	-77.20	38.87	-105.84	-66.836	-52.626	-30.086	-0.69101	0.07916	-0.59937	0.39609	31.0	13111	100
2025-3-27 18:42:14.675	WT901BLE68-01(48591DE3C19B)	-0.340	-1.046	0.204	-18.982	15.686	-181.396	-77.88	36.91	-106.61	-66.836	-52.626	-30.086	-0.69101	0.07916	-0.59937	0.39609	31.0	13111	100
2025-3-27 18:42:14.675	WT901BLE68-01(48591DE3C19B)	-0.340	-1.012	0.222	-21.973	-21.423	-200.378	-78.41	34.84	-107.13	-66.836	-52.626	-30.086	-0.69101	0.07916	-0.59937	0.39609	31.0	13111	100
2025-3-27 18:42:14.675	WT901BLE68-01(48591DE3C19B)	-0.248	-1.012	0.222	-21.973	-21.423	-200.378	-78.81	32.66	-107.42	-66.836	-52.626	-30.086	-0.69101	0.07916	-0.59937	0.39609	31.0	13111	100
2025-3-27 18:42:14.675	WT901BLE68-01(48591DE3C19B)	-0.248	-0.993	0.242	-25.696	-38.391	-215.759	-79.16	30.40	-107.61	-66.836	-52.626	-30.086	-0.69101	0.07916	-0.59937	0.39609	31.0	13111	100
2025-3-27 18:42:14.735	WT901BLE68-01(48591DE3C19B)	-0.208	-0.993	0.242	-25.696	-38.391	-215.759	-79.46	28.06	-107.70	-66.836	-52.626	-30.086	-0.69101	0.07916	-0.59937	0.39609	31.0	13111	100
2025-3-27 18:42:14.736	WT901BLE68-01(48591DE3C19B)	-0.208	-1.012	0.255	-30.762	-33.997	-227.112	-79.79	25.70	-107.82	-66.836	-52.626	-30.086	-0.69101	0.07916	-0.59937	0.39609	31.0	13111	100
2025-3-27 18:42:14.736	WT901BLE68-01(48591DE3C19B)	-0.194	-1.012	0.255	-30.762	-33.997	-227.112	-80.15	23.30	-107.96	-66.836	-52.626	-30.086	-0.69101	0.07916	-0.59937	0.39609	31.0	13111	100
2025-3-27 18:42:14.736	WT901BLE68-01(48591DE3C19B)	-0.194	-1.056	0.260	-32.043	-22.339	-238.892	-80.52	20.86	-108.15	-66.836	-52.626	-30.086	-0.69101	0.07916	-0.59937	0.39609	31.0	13111	100
2025-3-27 18:42:14.765	WT901BLE68-01(48591DE3C19B)	-0.204	-1.056	0.260	-32.043	-22.339	-238.892	-80.91	18.40	-108.40	-74.284	-47.726	-31.752	-0.69101	0.07916	-0.59937	0.39609	31.0	13111	100
2025-3-27 18:42:14.765	WT901BLE68-01(48591DE3C19B)	-0.204	-1.092	0.267	-29.297	-5.798	-250.793	-81.29	15.90	-108.72	-74.284	-47.726	-31.752	-0.69101	0.07916	-0.59937	0.39609	31.0	13111	100
2025-3-27 18:42:14.765	WT901BLE68-01(48591DE3C19B)	-0.249	-1.092	0.267	-29.297	-5.798	-250.793	-81.66	13.37	-109.11	-74.284	-47.726	-31.752	-0.69101	0.07916	-0.59937	0.39609	31.0	13111	100
2025-3-27 18:42:14.765	WT901BLE68-01(48591DE3C19B)	-0.249	-1.126	0.288	-25.024	11.169	-260.925	-82.00	10.78	-109.67	-74.284	-47.726	-31.752	-0.69101	0.07916	-0.59937	0.39609	31.0	13111	100
2025-3-27 18:42:14.795	WT901BLE68-01(48591DE3C19B)	-0.330	-1.126	0.288	-25.024	11.169	-260.925	-82.30	8.21	-110.21	-74.284	-47.726	-31.752	-0.69101	0.07916	-0.59937	0.39609	31.0	13111	100
2025-3-27 18:42:14.795	WT901BLE68-01(48591DE3C19B)	-0.330	-1.172	0.311	-17.639	23.010	-267.273	-82.52	5.60	-110.87	-74.284	-47.726	-31.752	-0.69101	0.07916	-0.59937	0.39609	31.0	13111	100
2025-3-27 18:42:14.795	WT901BLE68-01(48591DE3C19B)	-0.405	-1.172	0.311	-17.639	23.010	-267.273	-82.72	3.02	-111.52	-74.284	-47.726	-31.752	-0.69101	0.07916	-0.59937	0.39609	31.0	13111	100
2025-3-27 18:42:14.796	WT901BLE68-01(48591DE3C19B)	-0.405	-1.212	0.325	-6.958	26.428	-269.043	-82.77	0.43	-112.19	-74.284	-47.726	-31.752	-0.69101	0.07916	-0.59937	0.39609	31.0	13111	100
2025-3-27 18:42:14.857	WT901BLE68-01(48591DE3C19B)	-0.466	-1.212	0.325	-6.958	26.428	-269.043	-82.79	-2.13	-112.87	-74.284	-47.726	-31.752	-0.69101	0.07916	-0.59937	0.39609	31.0	13111	100
2025-3-27 18:42:14.857	WT901BLE68-01(48591DE3C19B)	-0.466	-1.241	0.321	5.676	23.743	-264.526	-82.66	-4.63	-113.52	-74.284	-47.726	-31.752	-0.69101	0.07916	-0.59937	0.39609	31.0	13111	100
2025-3-27 18:42:14.857	WT901BLE68-01(48591DE3C19B)	-0.487	-1.241	0.321	5.676	23.743	-264.526	-82.50	-7.11	-114.18	-74.284	-47.726	-31.752	-0.69101	0.07916	-0.59937	0.39609	31.0	13111	100
2025-3-27 18:42:14.857	WT901BLE68-01(48591DE3C19B)	-0.487	-1.236	0.295	17.883	17.761	-254.578	-82.19	-9.48	-114.79	-74.284	-47.726	-31.752	-0.69101	0.07916	-0.59937	0.39609	31.0	13111	100
2025-3-27 18:42:14.885	WT901BLE68-01(48591DE3C19B)	-0.462	-1.236	0.295	17.883	17.761	-254.578	-81.87	-11.82	-115.41	-74.284	-47.726	-31.752	-0.69101	0.07916	-0.59937	0.39609	31.0	13111	100
2025-3-27 18:42:14.885	WT901BLE68-01(48591DE3C19B)	-0.462	-1.223	0.274	25.757	16.602	-239.990	-81.44	-14.01	-116.03	-74.284	-47.726	-31.752	-0.69101	0.07916	-0.59937	0.39609	31.0	13111	100
2025-3-27 18:42:14.885	WT901BLE68-01(48591DE3C19B)	-0.401	-1.223	0.274	25.757	16.602	-239.990	-81.00	-16.17	-116.67	-74.284	-47.726	-31.752	-0.69101	0.07916	-0.59937	0.39609	31.0	13111	100
2025-3-27 18:42:14.885	WT901BLE68-01(48591DE3C19B)	-0.401	-1.249	0.258	30.273	27.527	-221.008	-80.45	-18.11	-117.42	-74.284	-47.726	-31.752	-0.69101	0.07916	-0.59937	0.39609	31.0	13111	100
2025-3-27 18:42:14.916	WT901BLE68-01(48591DE3C19B)	-0.348	-1.249	0.258	30.273	27.527	-221.008	-79.88	-20.04	-118.20	-74.284	-47.726	-31.752	-0.69101	0.07916	-0.59937	0.39609	31.0	13111	100
2025-3-27 18:42:14.917	WT901BLE68-01(48591DE3C19B)	-0.348	-1.319	0.255	30.701	50.903	-196.838	-79.21	-21.66	-119.20	-74.284	-47.726	-31.752	-0.69101	0.07916	-0.59937	0.39609	31.0	13111	100
2025-3-27 18:42:14.917	WT901BLE68-01(48591DE3C19B)	-0.320	-1.319	0.255	30.701	50.903	-196.838	-78.50	-23.27	-120.23	-74.284	-47.726	-31.752	-0.69101	0.07916	-0.59937	0.39609	31.0	13111	100
2025-3-27 18:42:14.917	WT901BLE68-01(48591DE3C19B)	-0.320	-1.433	0.263	30.762	88.135	-168.701	-77.63	-24.51	-121.64	-74.284	-47.726	-31.752	-0.69101	0.07916	-0.59937	0.39609	31.0	13111	100
2025-3-27 18:42:14.975	WT901BLE68-01(48591DE3C19B)	-0.349	-1.433	0.263	30.762	88.135	-168.701	-76.72	-25.71	-123.06	-74.284	-47.726	-31.752	-0.69101	0.07916	-0.59937	0.39609	31.0	13111	100
2025-3-27 18:42:14.975	WT901BLE68-01(48591DE3C19B)	-0.349	-1.475	0.269	28.564	130.554	-134.277	-75.65	-26.47	-124.89	-74.284	-47.726	-31.752	-0.23117	0.43643	-0.44562	0.74658	31.0	13111	100
2025-3-27 18:42:14.976	WT901BLE68-01(48591DE3C19B)	-0.395	-1.475	0.269	28.564	130.554	-134.277	-74.56	-27.18	-126.74	-74.284	-47.726	-31.752	-0.23117	0.43643	-0.44562	0.74658	31.0	13111	100
2025-3-27 18:42:14.976	WT901BLE68-01(48591DE3C19B)	-0.395	-1.409	0.269	29.419	172.119	-95.520	-73.28	-27.37	-128.94	-74.284	-47.726	-31.752	-0.23117	0.43643	-0.44562	0.74658	31.0	13111	100
2025-3-27 18:42:15.36	WT901BLE68-01(48591DE3C19B)	-0.398	-1.409	0.269	29.419	172.119	-95.520	-72.02	-27.52	-131.14	-74.284	-47.726	-31.752	-0.23117	0.43643	-0.44562	0.74658	31.0	13111	100
2025-3-27 18:42:15.36	WT901BLE68-01(48591DE3C19B)	-0.398	-1.210	0.277	23.804	201.477	-58.411	-70.72	-27.18	-133.52	-74.284	-47.726	-31.752	-0.23117	0.43643	-0.44562	0.74658	31.0	13111	100
2025-3-27 18:42:15.36	WT901BLE68-01(48591DE3C19B)	-0.395	-1.210	0.277	23.804	201.477	-58.411	-69.46	-26.79	-135.88	-74.284	-47.726	-31.752	-0.23117	0.43643	-0.44562	0.74658	31.0	13111	100
2025-3-27 18:42:15.36	WT901BLE68-01(48591DE3C19B)	-0.395	-1.006	0.337	16.052	216.980	-21.851	-68.31	-25.97	-138.24	-74.284	-47.726	-31.752	-0.23117	0.43643	-0.44562	0.74658	31.0	13111	100
2025-3-27 18:42:15.65	WT901BLE68-01(48591DE3C19B)	-0.364	-1.006	0.337	16.052	216.980	-21.851	-67.20	-25.10	-140.56	-74.284	-47.726	-31.752	-0.23117	0.43643	-0.44562	0.74658	31.0	13111	100
2025-3-27 18:42:15.65	WT901BLE68-01(48591DE3C19B)	-0.364	-0.864	0.383	6.592	222.534	10.071	-66.27	-23.89	-142.78	-74.284	-47.726	-31.752	-0.23117	0.43643	-0.44562	0.74658	31.0	13111	100
2025-3-27 18:42:15.65	WT901BLE68-01(48591DE3C19B)	-0.341	-0.864	0.383	6.592	222.534	10.071	-65.40	-22.65	-144.96	-74.284	-47.726	-31.752	-0.23117	0.43643	-0.44562	0.74658	31.0	13111	100
2025-3-27 18:42:15.65	WT901BLE68-01(48591DE3C19B)	-0.341	-0.795	0.351	-0.488	221.375	38.208	-64.71	-21.14	-146.96	-74.284	-47.726	-31.752	-0.23117	0.43643	-0.44562	0.74658	31.0	13111	100
2025-3-27 18:42:15.95	WT901BLE68-01(48591DE3C19B)	-0.421	-0.795	0.351	-0.488	221.375	38.208	-64.09	-19.61	-148.94	-74.284	-47.726	-31.752	-0.23117	0.43643	-0.44562	0.74658	31.0	13111	100
2025-3-27 18:42:15.95	WT901BLE68-01(48591DE3C19B)	-0.421	-0.687	0.276	-6.836	204.346	60.181	-63.67	-17.95	-150.63	-74.284	-47.726	-31.752	-0.23117	0.43643	-0.44562	0.74658	31.0	13111	100
2025-3-27 18:42:15.95	WT901BLE68-01(48591DE3C19B)	-0.600	-0.687	0.276	-6.836	204.346	60.181	-63.30	-16.29	-152.31	-74.284	-47.726	-31.752	-0.23117	0.43643	-0.44562	0.74658	31.0	13111	100
2025-3-27 18:42:15.95	WT901BLE68-01(48591DE3C19B)	-0.600	-0.673	0.250	-18.677	159.241	75.928	-63.22	-14.67	-153.51	-74.284	-47.726	-31.752	-0.23117	0.43643	-0.44562	0.74658	31.0	13111	100
2025-3-27 18:42:15.126	WT901BLE68-01(48591DE3C19B)	-0.724	-0.673	0.250	-18.677	159.241	75.928	-63.17	-13.06	-154.71	-74.284	-47.726	-31.752	-0.23117	0.43643	-0.44562	0.74658	31.0	13111	100
2025-3-27 18:42:15.127	WT901BLE68-01(48591DE3C19B)	-0.724	-0.786	0.189	-34.119	98.816	93.506	-63.42	-11.56	-155.30	-74.284	-47.726	-31.752	-0.23117	0.43643	-0.44562	0.74658	31.0	13111	100
2025-3-27 18:42:15.127	WT901BLE68-01(48591DE3C19B)	-0.685	-0.786	0.189	-34.119	98.816	93.506	-63.68	-10.06	-155.93	-74.284	-47.726	-31.752	-0.23117	0.43643	-0.44562	0.74658	31.0	13111	100
2025-3-27 18:42:15.127	WT901BLE68-01(48591DE3C19B)	-0.685	-0.914	0.121	-45.288	38.269	114.929	-64.15	-8.65	-155.93	-74.284	-47.726	-31.752	-0.23117	0.43643	-0.44562	0.74658	31.0	13111	100
2025-3-27 18:42:15.187	WT901BLE68-01(48591DE3C19B)	-0.566	-0.914	0.121	-45.288	38.269	114.929	-64.63	-7.22	-155.98	-74.284	-47.726	-31.752	-0.23117	0.43643	-0.44562	0.74658	31.0	13111	100
2025-3-27 18:42:15.187	WT901BLE68-01(48591DE3C19B)	-0.566	-1.032	0.099	-55.115	-9.949	140.198	-65.25	-5.78	-155.49	-19.502	-57.036	-13.622	-0.23117	0.43643	-0.44562	0.74658	31.0	13111	100
2025-3-27 18:42:15.187	WT901BLE68-01(48591DE3C19B)	-0.481	-1.032	0.099	-55.115	-9.949	140.198	-65.85	-4.35	-155.04	-19.502	-57.036	-13.622	-0.23117	0.43643	-0.44562	0.74658	31.0	13111	100
