time	DeviceName	AccX(g)	AccY(g)	AccZ(g)	AsX(°/s)	AsY(°/s)	AsZ(°/s)	AngleX(°)	AngleY(°)	AngleZ(°)	HX(uT)	HY(uT)	HZ(uT)	Q0()	Q1()	Q2()	Q3()	Temperature(°C)	Version()	Battery level(%)
2025-3-27 18:25:36.914	WT901BLE68-01(48591DE3C19B)	-0.246	-0.910	0.348	0.977	1.831	-1.038	-69.18	14.01	-36.35	-61.838	-22.736	66.738	0.79871	-0.50546	0.26923	-0.18439	31.1	13111	100
2025-3-27 18:25:36.914	WT901BLE68-01(48591DE3C19B)	-0.246	-0.917	0.349	0.977	2.075	-1.038	-69.18	14.00	-36.41	-61.838	-22.736	66.738	0.79871	-0.50546	0.26923	-0.18439	31.1	13111	100
2025-3-27 18:25:36.914	WT901BLE68-01(48591DE3C19B)	-0.243	-0.917	0.349	0.977	2.075	-1.038	-69.18	14.00	-36.47	-61.838	-22.736	66.738	0.79871	-0.50546	0.26923	-0.18439	31.1	13111	100
2025-3-27 18:25:36.914	WT901BLE68-01(48591DE3C19B)	-0.243	-0.913	0.349	1.282	1.648	-0.854	-69.16	14.00	-36.52	-61.838	-22.736	66.738	0.79871	-0.50546	0.26923	-0.18439	31.1	13111	100
2025-3-27 18:25:36.945	WT901BLE68-01(48591DE3C19B)	-0.245	-0.913	0.349	1.282	1.648	-0.854	-69.15	14.00	-36.57	-61.838	-22.736	66.738	0.79871	-0.50546	0.26923	-0.18439	31.1	13111	100
2025-3-27 18:25:36.945	WT901BLE68-01(48591DE3C19B)	-0.245	-0.907	0.346	1.221	1.221	-0.671	-69.15	13.99	-36.62	-61.838	-22.736	66.738	0.79871	-0.50546	0.26923	-0.18439	31.1	13111	100
2025-3-27 18:25:36.945	WT901BLE68-01(48591DE3C19B)	-0.239	-0.907	0.346	1.221	1.221	-0.671	-69.14	13.99	-36.67	-61.838	-22.736	66.738	0.79871	-0.50546	0.26923	-0.18439	31.1	13111	100
2025-3-27 18:25:36.945	WT901BLE68-01(48591DE3C19B)	-0.239	-0.908	0.346	1.221	0.610	-0.854	-69.13	13.99	-36.72	-61.838	-22.736	66.738	0.79871	-0.50546	0.26923	-0.18439	31.1	13111	100
2025-3-27 18:25:37.3	WT901BLE68-01(48591DE3C19B)	-0.242	-0.908	0.346	1.221	0.610	-0.854	-69.11	13.98	-36.75	-61.838	-22.736	66.738	0.79871	-0.50546	0.26923	-0.18439	31.1	13111	100
2025-3-27 18:25:37.3	WT901BLE68-01(48591DE3C19B)	-0.242	-0.910	0.349	1.526	0.732	-0.916	-69.10	13.97	-36.80	-61.936	-22.736	66.640	0.79871	-0.50546	0.26923	-0.18439	31.1	13111	100
2025-3-27 18:25:37.4	WT901BLE68-01(48591DE3C19B)	-0.248	-0.910	0.349	1.526	0.732	-0.916	-69.09	13.97	-36.84	-61.936	-22.736	66.640	0.79871	-0.50546	0.26923	-0.18439	31.1	13111	100
2025-3-27 18:25:37.4	WT901BLE68-01(48591DE3C19B)	-0.248	-0.913	0.350	1.709	0.000	-0.977	-69.07	13.96	-36.88	-61.936	-22.736	66.640	0.79871	-0.50546	0.26923	-0.18439	31.1	13111	100
2025-3-27 18:25:37.33	WT901BLE68-01(48591DE3C19B)	-0.248	-0.913	0.350	1.709	0.000	-0.977	-69.05	13.95	-36.91	-61.936	-22.736	66.640	0.79871	-0.50546	0.26923	-0.18439	31.1	13111	100
2025-3-27 18:25:37.33	WT901BLE68-01(48591DE3C19B)	-0.248	-0.907	0.346	1.831	-0.793	-0.916	-69.04	13.94	-36.94	-61.936	-22.736	66.640	0.79871	-0.50546	0.26923	-0.18439	31.1	13111	100
2025-3-27 18:25:37.33	WT901BLE68-01(48591DE3C19B)	-0.254	-0.907	0.346	1.831	-0.793	-0.916	-69.02	13.93	-36.97	-61.936	-22.736	66.640	0.79871	-0.50546	0.26923	-0.18439	31.1	13111	100
2025-3-27 18:25:37.33	WT901BLE68-01(48591DE3C19B)	-0.254	-0.912	0.344	1.770	-1.343	-0.793	-69.00	13.91	-36.99	-61.936	-22.736	66.640	0.79871	-0.50546	0.26923	-0.18439	31.1	13111	100
2025-3-27 18:25:37.67	WT901BLE68-01(48591DE3C19B)	-0.259	-0.912	0.344	1.770	-1.343	-0.793	-68.98	13.90	-37.01	-61.936	-22.736	66.640	0.79871	-0.50546	0.26923	-0.18439	31.1	13111	100
2025-3-27 18:25:37.67	WT901BLE68-01(48591DE3C19B)	-0.259	-0.908	0.343	1.892	-2.136	-0.183	-68.96	13.90	-37.02	-61.936	-22.736	66.640	0.79871	-0.50546	0.26923	-0.18439	31.1	13111	100
2025-3-27 18:25:37.67	WT901BLE68-01(48591DE3C19B)	-0.266	-0.908	0.343	1.892	-2.136	-0.183	-68.93	13.89	-37.03	-61.936	-22.736	66.640	0.79871	-0.50546	0.26923	-0.18439	31.1	13111	100
2025-3-27 18:25:37.67	WT901BLE68-01(48591DE3C19B)	-0.266	-0.903	0.338	1.404	-3.052	0.854	-68.91	13.89	-37.03	-61.936	-22.736	66.640	0.79871	-0.50546	0.26923	-0.18439	31.1	13111	100
2025-3-27 18:25:37.123	WT901BLE68-01(48591DE3C19B)	-0.270	-0.903	0.338	1.404	-3.052	0.854	-68.90	13.89	-37.03	-61.936	-22.736	66.640	0.79871	-0.50546	0.26923	-0.18439	31.1	13111	100
2025-3-27 18:25:37.123	WT901BLE68-01(48591DE3C19B)	-0.270	-0.905	0.338	0.854	-3.418	1.953	-68.88	13.90	-37.02	-61.936	-22.736	66.640	0.79871	-0.50546	0.26923	-0.18439	31.1	13111	100
2025-3-27 18:25:37.124	WT901BLE68-01(48591DE3C19B)	-0.275	-0.905	0.338	0.854	-3.418	1.953	-68.86	13.91	-37.01	-61.936	-22.736	66.640	0.79871	-0.50546	0.26923	-0.18439	31.1	13111	100
2025-3-27 18:25:37.124	WT901BLE68-01(48591DE3C19B)	-0.275	-0.908	0.333	0.122	-3.967	2.930	-68.85	13.93	-36.99	-61.936	-22.736	66.640	0.79871	-0.50546	0.26923	-0.18439	31.1	13111	100
2025-3-27 18:25:37.155	WT901BLE68-01(48591DE3C19B)	-0.287	-0.908	0.333	0.122	-3.967	2.930	-68.84	13.95	-36.96	-61.936	-22.736	66.640	0.79871	-0.50546	0.26923	-0.18439	31.1	13111	100
2025-3-27 18:25:37.155	WT901BLE68-01(48591DE3C19B)	-0.287	-0.907	0.330	-0.671	-6.531	3.418	-68.83	13.96	-36.92	-61.936	-22.736	66.640	0.79871	-0.50546	0.26923	-0.18439	31.1	13111	100
2025-3-27 18:25:37.155	WT901BLE68-01(48591DE3C19B)	-0.302	-0.907	0.330	-0.671	-6.531	3.418	-68.82	13.98	-36.87	-61.936	-22.736	66.640	0.79871	-0.50546	0.26923	-0.18439	31.1	13111	100
2025-3-27 18:25:37.156	WT901BLE68-01(48591DE3C19B)	-0.302	-0.912	0.325	-2.014	-10.681	3.479	-68.82	13.98	-36.78	-61.936	-22.736	66.640	0.79871	-0.50546	0.26923	-0.18439	31.1	13111	100
2025-3-27 18:25:37.185	WT901BLE68-01(48591DE3C19B)	-0.311	-0.912	0.325	-2.014	-10.681	3.479	-68.82	13.99	-36.69	-61.936	-22.736	66.640	0.79871	-0.50546	0.26923	-0.18439	31.1	13111	100
2025-3-27 18:25:37.185	WT901BLE68-01(48591DE3C19B)	-0.293	-0.913	0.323	-3.479	-16.479	3.174	-68.82	13.97	-36.55	-61.936	-22.736	66.640	0.79871	-0.50546	0.26923	-0.18439	31.1	13111	100
2025-3-27 18:25:37.185	WT901BLE68-01(48591DE3C19B)	-0.293	-0.906	0.337	-4.395	-20.874	2.380	-68.81	13.94	-36.38	-61.936	-22.736	66.640	0.79938	-0.50159	0.27020	-0.19049	31.1	13111	100
2025-3-27 18:25:37.186	WT901BLE68-01(48591DE3C19B)	-0.280	-0.906	0.337	-4.395	-20.874	2.380	-68.81	13.90	-36.19	-61.936	-22.736	66.640	0.79938	-0.50159	0.27020	-0.19049	31.1	13111	100
2025-3-27 18:25:37.243	WT901BLE68-01(48591DE3C19B)	-0.280	-0.893	0.331	-4.395	-20.996	0.977	-68.81	13.85	-36.01	-61.936	-22.736	66.640	0.79938	-0.50159	0.27020	-0.19049	31.1	13111	100
2025-3-27 18:25:37.243	WT901BLE68-01(48591DE3C19B)	-0.277	-0.893	0.331	-4.395	-20.996	0.977	-68.81	13.80	-35.84	-61.936	-22.736	66.640	0.79938	-0.50159	0.27020	-0.19049	31.1	13111	100
2025-3-27 18:25:37.243	WT901BLE68-01(48591DE3C19B)	-0.277	-0.885	0.321	-4.150	-19.592	-0.549	-68.81	13.74	-35.67	-61.936	-22.736	66.640	0.79938	-0.50159	0.27020	-0.19049	31.1	13111	100
2025-3-27 18:25:37.243	WT901BLE68-01(48591DE3C19B)	-0.288	-0.885	0.321	-4.150	-19.592	-0.549	-68.82	13.68	-35.51	-61.936	-22.736	66.640	0.79938	-0.50159	0.27020	-0.19049	31.1	13111	100
2025-3-27 18:25:37.272	WT901BLE68-01(48591DE3C19B)	-0.288	-0.880	0.320	-3.723	-18.860	-1.831	-68.82	13.62	-35.36	-61.936	-22.736	66.640	0.79938	-0.50159	0.27020	-0.19049	31.1	13111	100
2025-3-27 18:25:37.272	WT901BLE68-01(48591DE3C19B)	-0.299	-0.880	0.320	-3.723	-18.860	-1.831	-68.82	13.55	-35.21	-61.936	-22.736	66.640	0.79938	-0.50159	0.27020	-0.19049	31.1	13111	100
2025-3-27 18:25:37.272	WT901BLE68-01(48591DE3C19B)	-0.299	-0.877	0.313	-3.723	-20.752	-2.075	-68.82	13.47	-35.06	-61.936	-22.736	66.640	0.79938	-0.50159	0.27020	-0.19049	31.1	13111	100
2025-3-27 18:25:37.272	WT901BLE68-01(48591DE3C19B)	-0.301	-0.877	0.313	-3.723	-20.752	-2.075	-68.82	13.40	-34.90	-61.936	-22.736	66.640	0.79938	-0.50159	0.27020	-0.19049	31.1	13111	100
2025-3-27 18:25:37.303	WT901BLE68-01(48591DE3C19B)	-0.301	-0.877	0.309	-4.700	-25.513	-1.648	-68.82	13.32	-34.71	-61.936	-22.736	66.640	0.79938	-0.50159	0.27020	-0.19049	31.1	13111	100
2025-3-27 18:25:37.303	WT901BLE68-01(48591DE3C19B)	-0.292	-0.877	0.309	-4.700	-25.513	-1.648	-68.82	13.23	-34.50	-61.936	-22.736	66.640	0.79938	-0.50159	0.27020	-0.19049	31.1	13111	100
2025-3-27 18:25:37.304	WT901BLE68-01(48591DE3C19B)	-0.292	-0.889	0.309	-5.798	-30.823	-0.305	-68.81	13.15	-34.26	-61.936	-22.736	66.640	0.79938	-0.50159	0.27020	-0.19049	31.1	13111	100
2025-3-27 18:25:37.304	WT901BLE68-01(48591DE3C19B)	-0.273	-0.889	0.309	-5.798	-30.823	-0.305	-68.81	13.06	-34.00	-61.936	-22.736	66.640	0.79938	-0.50159	0.27020	-0.19049	31.1	13111	100
2025-3-27 18:25:37.365	WT901BLE68-01(48591DE3C19B)	-0.273	-0.905	0.310	-7.080	-34.241	1.953	-68.81	12.97	-33.71	-61.936	-22.736	66.640	0.79938	-0.50159	0.27020	-0.19049	31.1	13111	100
2025-3-27 18:25:37.366	WT901BLE68-01(48591DE3C19B)	-0.246	-0.905	0.310	-7.080	-34.241	1.953	-68.82	12.89	-33.41	-61.936	-22.736	66.640	0.79938	-0.50159	0.27020	-0.19049	31.1	13111	100
2025-3-27 18:25:37.366	WT901BLE68-01(48591DE3C19B)	-0.246	-0.944	0.315	-7.874	-34.485	4.456	-68.82	12.82	-33.10	-61.936	-22.736	66.640	0.79938	-0.50159	0.27020	-0.19049	31.1	13111	100
2025-3-27 18:25:37.366	WT901BLE68-01(48591DE3C19B)	-0.202	-0.944	0.315	-7.874	-34.485	4.456	-68.83	12.76	-32.79	-61.936	-22.736	66.640	0.79938	-0.50159	0.27020	-0.19049	31.1	13111	100
2025-3-27 18:25:37.393	WT901BLE68-01(48591DE3C19B)	-0.202	-0.984	0.324	-7.202	-31.311	6.653	-68.85	12.71	-32.49	-61.936	-22.736	66.640	0.79938	-0.50159	0.27020	-0.19049	31.1	13111	100
2025-3-27 18:25:37.393	WT901BLE68-01(48591DE3C19B)	-0.154	-0.984	0.324	-7.202	-31.311	6.653	-68.86	12.68	-32.21	-61.936	-22.736	66.640	0.79938	-0.50159	0.27020	-0.19049	31.1	13111	100
2025-3-27 18:25:37.393	WT901BLE68-01(48591DE3C19B)	-0.154	-0.991	0.330	-4.395	-22.705	7.874	-68.86	12.66	-31.97	-61.936	-22.736	66.640	0.79938	-0.50159	0.27020	-0.19049	31.1	13111	100
2025-3-27 18:25:37.393	WT901BLE68-01(48591DE3C19B)	-0.126	-0.991	0.330	-4.395	-22.705	7.874	-68.87	12.66	-31.77	-58.702	-23.422	67.032	0.79938	-0.50159	0.27020	-0.19049	31.1	13111	100
2025-3-27 18:25:37.423	WT901BLE68-01(48591DE3C19B)	-0.126	-0.980	0.325	-1.587	-11.902	7.935	-68.86	12.68	-31.62	-58.702	-23.422	67.032	0.79938	-0.50159	0.27020	-0.19049	31.1	13111	100
2025-3-27 18:25:37.423	WT901BLE68-01(48591DE3C19B)	-0.098	-0.980	0.325	-1.587	-11.902	7.935	-68.86	12.72	-31.53	-58.702	-23.422	67.032	0.79938	-0.50159	0.27020	-0.19049	31.1	13111	100
2025-3-27 18:25:37.423	WT901BLE68-01(48591DE3C19B)	-0.098	-0.964	0.330	0.610	-2.441	7.080	-68.86	12.76	-31.49	-58.702	-23.422	67.032	0.79938	-0.50159	0.27020	-0.19049	31.1	13111	100
2025-3-27 18:25:37.423	WT901BLE68-01(48591DE3C19B)	-0.085	-0.964	0.330	0.610	-2.441	7.080	-68.86	12.81	-31.50	-58.702	-23.422	67.032	0.79938	-0.50159	0.27020	-0.19049	31.1	13111	100
2025-3-27 18:25:37.513	WT901BLE68-01(48591DE3C19B)	-0.085	-0.950	0.333	2.686	5.371	6.104	-68.85	12.87	-31.55	-58.702	-23.422	67.032	0.79938	-0.50159	0.27020	-0.19049	31.1	13111	100
2025-3-27 18:25:37.513	WT901BLE68-01(48591DE3C19B)	-0.066	-0.950	0.333	2.686	5.371	6.104	-68.85	12.93	-31.64	-58.702	-23.422	67.032	0.79938	-0.50159	0.27020	-0.19049	31.1	13111	100
2025-3-27 18:25:37.513	WT901BLE68-01(48591DE3C19B)	-0.066	-0.927	0.329	3.479	11.169	4.883	-68.84	13.00	-31.75	-58.702	-23.422	67.032	0.79938	-0.50159	0.27020	-0.19049	31.1	13111	100
2025-3-27 18:25:37.514	WT901BLE68-01(48591DE3C19B)	-0.061	-0.927	0.329	3.479	11.169	4.883	-68.84	13.06	-31.90	-58.702	-23.422	67.032	0.79938	-0.50159	0.27020	-0.19049	31.1	13111	100
2025-3-27 18:25:37.514	WT901BLE68-01(48591DE3C19B)	-0.061	-0.944	0.330	3.540	15.808	3.113	-68.85	13.12	-32.08	-58.702	-23.422	67.032	0.79938	-0.50159	0.27020	-0.19049	31.1	13111	100
2025-3-27 18:25:37.515	WT901BLE68-01(48591DE3C19B)	-0.060	-0.944	0.330	3.540	15.808	3.113	-68.86	13.18	-32.28	-58.702	-23.422	67.032	0.79938	-0.50159	0.27020	-0.19049	31.1	13111	100
2025-3-27 18:25:37.515	WT901BLE68-01(48591DE3C19B)	-0.060	-0.961	0.338	5.310	16.846	1.099	-68.86	13.23	-32.50	-58.702	-23.422	67.032	0.79938	-0.50159	0.27020	-0.19049	31.1	13111	100
2025-3-27 18:25:37.515	WT901BLE68-01(48591DE3C19B)	-0.054	-0.961	0.338	5.310	16.846	1.099	-68.86	13.27	-32.72	-58.702	-23.422	67.032	0.79938	-0.50159	0.27020	-0.19049	31.1	13111	100
2025-3-27 18:25:37.544	WT901BLE68-01(48591DE3C19B)	-0.054	-0.952	0.342	6.958	17.517	-0.549	-68.86	13.29	-32.95	-58.702	-23.422	67.032	0.79938	-0.50159	0.27020	-0.19049	31.1	13111	100
2025-3-27 18:25:37.545	WT901BLE68-01(48591DE3C19B)	-0.031	-0.952	0.342	6.958	17.517	-0.549	-68.84	13.31	-33.18	-58.702	-23.422	67.032	0.79938	-0.50159	0.27020	-0.19049	31.1	13111	100
2025-3-27 18:25:37.545	WT901BLE68-01(48591DE3C19B)	-0.031	-0.924	0.337	9.033	18.494	-2.441	-68.82	13.32	-33.43	-58.702	-23.422	67.032	0.79938	-0.50159	0.27020	-0.19049	31.1	13111	100
2025-3-27 18:25:37.545	WT901BLE68-01(48591DE3C19B)	-0.012	-0.924	0.337	9.033	18.494	-2.441	-68.79	13.32	-33.67	-58.702	-23.422	67.032	0.79938	-0.50159	0.27020	-0.19049	31.1	13111	100
2025-3-27 18:25:37.603	WT901BLE68-01(48591DE3C19B)	-0.012	-0.876	0.328	10.254	22.400	-5.005	-68.75	13.32	-33.95	-58.702	-23.422	67.032	0.79938	-0.50159	0.27020	-0.19049	31.1	13111	100
2025-3-27 18:25:37.603	WT901BLE68-01(48591DE3C19B)	-0.009	-0.876	0.328	10.254	22.400	-5.005	-68.72	13.30	-34.24	-58.702	-23.422	67.032	0.80280	-0.50757	0.25641	-0.17896	31.1	13111	100
2025-3-27 18:25:37.603	WT901BLE68-01(48591DE3C19B)	-0.009	-0.831	0.317	9.521	27.344	-8.606	-68.69	13.28	-34.57	-58.702	-23.422	67.032	0.80280	-0.50757	0.25641	-0.17896	31.1	13111	100
2025-3-27 18:25:37.603	WT901BLE68-01(48591DE3C19B)	-0.046	-0.831	0.317	9.521	27.344	-8.606	-68.68	13.24	-34.93	-58.702	-23.422	67.032	0.80280	-0.50757	0.25641	-0.17896	31.1	13111	100
2025-3-27 18:25:37.632	WT901BLE68-01(48591DE3C19B)	-0.046	-0.847	0.313	5.798	30.029	-12.939	-68.69	13.19	-35.31	-58.702	-23.422	67.032	0.80280	-0.50757	0.25641	-0.17896	31.1	13111	100
2025-3-27 18:25:37.632	WT901BLE68-01(48591DE3C19B)	-0.116	-0.847	0.313	5.798	30.029	-12.939	-68.72	13.12	-35.71	-58.702	-23.422	67.032	0.80280	-0.50757	0.25641	-0.17896	31.1	13111	100
2025-3-27 18:25:37.632	WT901BLE68-01(48591DE3C19B)	-0.116	-0.915	0.332	2.014	26.611	-18.433	-68.77	13.03	-36.10	-58.702	-23.422	67.032	0.80280	-0.50757	0.25641	-0.17896	31.1	13111	100
2025-3-27 18:25:37.632	WT901BLE68-01(48591DE3C19B)	-0.190	-0.915	0.332	2.014	26.611	-18.433	-68.83	12.90	-36.47	-58.702	-23.422	67.032	0.80280	-0.50757	0.25641	-0.17896	31.1	13111	100
2025-3-27 18:25:37.693	WT901BLE68-01(48591DE3C19B)	-0.190	-1.002	0.375	-1.038	17.883	-24.475	-68.91	12.69	-36.79	-58.702	-23.422	67.032	0.80280	-0.50757	0.25641	-0.17896	31.1	13111	100
2025-3-27 18:25:37.693	WT901BLE68-01(48591DE3C19B)	-0.245	-1.002	0.375	-1.038	17.883	-24.475	-68.99	12.48	-37.10	-58.702	-23.422	67.032	0.80280	-0.50757	0.25641	-0.17896	31.1	13111	100
2025-3-27 18:25:37.693	WT901BLE68-01(48591DE3C19B)	-0.245	-1.079	0.402	-2.136	4.395	-29.541	-69.05	12.18	-37.30	-58.702	-23.422	67.032	0.80280	-0.50757	0.25641	-0.17896	31.1	13111	100
2025-3-27 18:25:37.693	WT901BLE68-01(48591DE3C19B)	-0.246	-1.079	0.402	-2.136	4.395	-29.541	-69.11	11.89	-37.49	-58.702	-23.422	67.032	0.80280	-0.50757	0.25641	-0.17896	31.1	13111	100
2025-3-27 18:25:37.754	WT901BLE68-01(48591DE3C19B)	-0.246	-1.053	0.409	-1.526	-6.897	-33.020	-69.14	11.54	-37.59	-58.702	-23.422	67.032	0.80280	-0.50757	0.25641	-0.17896	31.1	13111	100
2025-3-27 18:25:37.755	WT901BLE68-01(48591DE3C19B)	-0.224	-1.053	0.409	-1.526	-6.897	-33.020	-69.18	11.18	-37.68	-58.702	-23.422	67.032	0.80280	-0.50757	0.25641	-0.17896	31.1	13111	100
2025-3-27 18:25:37.755	WT901BLE68-01(48591DE3C19B)	-0.224	-0.973	0.396	-2.014	-8.911	-35.645	-69.20	10.80	-37.77	-58.702	-23.422	67.032	0.80280	-0.50757	0.25641	-0.17896	31.1	13111	100
2025-3-27 18:25:37.755	WT901BLE68-01(48591DE3C19B)	-0.223	-0.973	0.396	-2.014	-8.911	-35.645	-69.24	10.42	-37.85	-58.702	-23.422	67.032	0.80280	-0.50757	0.25641	-0.17896	31.1	13111	100
2025-3-27 18:25:37.755	WT901BLE68-01(48591DE3C19B)	-0.223	-0.907	0.381	-2.502	-3.479	-37.964	-69.28	10.05	-37.99	-58.702	-23.422	67.032	0.80280	-0.50757	0.25641	-0.17896	31.1	13111	100
2025-3-27 18:25:37.755	WT901BLE68-01(48591DE3C19B)	-0.226	-0.907	0.381	-2.502	-3.479	-37.964	-69.32	9.68	-38.12	-58.702	-23.422	67.032	0.80280	-0.50757	0.25641	-0.17896	31.1	13111	100
2025-3-27 18:25:37.755	WT901BLE68-01(48591DE3C19B)	-0.226	-0.861	0.379	-2.747	3.113	-40.039	-69.37	9.32	-38.33	-58.702	-23.422	67.032	0.80280	-0.50757	0.25641	-0.17896	31.1	13111	100
2025-3-27 18:25:37.756	WT901BLE68-01(48591DE3C19B)	-0.223	-0.861	0.379	-2.747	3.113	-40.039	-69.42	8.96	-38.53	-58.702	-23.422	67.032	0.80280	-0.50757	0.25641	-0.17896	31.1	13111	100
2025-3-27 18:25:37.813	WT901BLE68-01(48591DE3C19B)	-0.223	-0.840	0.385	-2.380	11.169	-41.687	-69.48	8.62	-38.82	-58.702	-23.422	67.032	0.80280	-0.50757	0.25641	-0.17896	31.1	13111	100
2025-3-27 18:25:37.813	WT901BLE68-01(48591DE3C19B)	-0.238	-0.840	0.385	-2.380	11.169	-41.687	-69.53	8.28	-39.10	-58.702	-23.422	67.032	0.80280	-0.50757	0.25641	-0.17896	31.1	13111	100
2025-3-27 18:25:37.813	WT901BLE68-01(48591DE3C19B)	-0.238	-0.837	0.385	-0.610	20.874	-42.847	-69.57	7.97	-39.47	-61.054	-23.030	66.934	0.80280	-0.50757	0.25641	-0.17896	31.1	13111	100
2025-3-27 18:25:37.813	WT901BLE68-01(48591DE3C19B)	-0.277	-0.837	0.385	-0.610	20.874	-42.847	-69.61	7.66	-39.85	-61.054	-23.030	66.934	0.80280	-0.50757	0.25641	-0.17896	31.1	13111	100
2025-3-27 18:25:37.843	WT901BLE68-01(48591DE3C19B)	-0.277	-0.844	0.376	1.465	27.161	-43.274	-69.64	7.38	-40.28	-61.054	-23.030	66.934	0.80280	-0.50757	0.25641	-0.17896	31.1	13111	100
2025-3-27 18:25:37.843	WT901BLE68-01(48591DE3C19B)	-0.305	-0.844	0.376	1.465	27.161	-43.274	-69.66	7.10	-40.70	-61.054	-23.030	66.934	0.80280	-0.50757	0.25641	-0.17896	31.1	13111	100
2025-3-27 18:25:37.843	WT901BLE68-01(48591DE3C19B)	-0.305	-0.849	0.373	3.723	28.809	-42.847	-69.65	6.83	-41.14	-61.054	-23.030	66.934	0.80280	-0.50757	0.25641	-0.17896	31.1	13111	100
2025-3-27 18:25:37.843	WT901BLE68-01(48591DE3C19B)	-0.324	-0.849	0.373	3.723	28.809	-42.847	-69.65	6.57	-41.57	-61.054	-23.030	66.934	0.80280	-0.50757	0.25641	-0.17896	31.1	13111	100
2025-3-27 18:25:37.872	WT901BLE68-01(48591DE3C19B)	-0.324	-0.837	0.373	4.761	26.062	-40.710	-69.63	6.32	-41.97	-61.054	-23.030	66.934	0.80280	-0.50757	0.25641	-0.17896	31.1	13111	100
2025-3-27 18:25:37.872	WT901BLE68-01(48591DE3C19B)	-0.335	-0.837	0.373	4.761	26.062	-40.710	-69.61	6.08	-42.36	-61.054	-23.030	66.934	0.80280	-0.50757	0.25641	-0.17896	31.1	13111	100
2025-3-27 18:25:37.872	WT901BLE68-01(48591DE3C19B)	-0.335	-0.824	0.374	4.150	21.118	-37.170	-69.58	5.86	-42.69	-61.054	-23.030	66.934	0.80280	-0.50757	0.25641	-0.17896	31.1	13111	100
2025-3-27 18:25:37.872	WT901BLE68-01(48591DE3C19B)	-0.336	-0.824	0.374	4.150	21.118	-37.170	-69.56	5.64	-43.02	-61.054	-23.030	66.934	0.80280	-0.50757	0.25641	-0.17896	31.1	13111	100
2025-3-27 18:25:37.933	WT901BLE68-01(48591DE3C19B)	-0.336	-0.833	0.373	2.563	15.320	-33.386	-69.54	5.45	-43.28	-61.054	-23.030	66.934	0.80280	-0.50757	0.25641	-0.17896	31.1	13111	100
2025-3-27 18:25:37.933	WT901BLE68-01(48591DE3C19B)	-0.336	-0.833	0.373	2.563	15.320	-33.386	-69.52	5.26	-43.53	-61.054	-23.030	66.934	0.80280	-0.50757	0.25641	-0.17896	31.1	13111	100
2025-3-27 18:25:37.933	WT901BLE68-01(48591DE3C19B)	-0.336	-0.852	0.376	0.916	10.071	-28.931	-69.52	5.09	-43.72	-61.054	-23.030	66.934	0.80280	-0.50757	0.25641	-0.17896	31.1	13111	100
2025-3-27 18:25:37.933	WT901BLE68-01(48591DE3C19B)	-0.339	-0.852	0.376	0.916	10.071	-28.931	-69.51	4.93	-43.90	-61.054	-23.030	66.934	0.80280	-0.50757	0.25641	-0.17896	31.1	13111	100
2025-3-27 18:25:37.965	WT901BLE68-01(48591DE3C19B)	-0.339	-0.870	0.374	0.183	5.798	-24.231	-69.50	4.80	-44.03	-61.054	-23.030	66.934	0.80280	-0.50757	0.25641	-0.17896	31.1	13111	100
2025-3-27 18:25:37.965	WT901BLE68-01(48591DE3C19B)	-0.341	-0.870	0.374	0.183	5.798	-24.231	-69.49	4.66	-44.15	-61.054	-23.030	66.934	0.80280	-0.50757	0.25641	-0.17896	31.1	13111	100
2025-3-27 18:25:37.965	WT901BLE68-01(48591DE3C19B)	-0.341	-0.877	0.376	-0.122	1.953	-19.348	-69.49	4.57	-44.23	-61.054	-23.030	66.934	0.80280	-0.50757	0.25641	-0.17896	31.1	13111	100
2025-3-27 18:25:37.965	WT901BLE68-01(48591DE3C19B)	-0.331	-0.877	0.376	-0.122	1.953	-19.348	-69.48	4.48	-44.30	-61.054	-23.030	66.934	0.80280	-0.50757	0.25641	-0.17896	31.1	13111	100
2025-3-27 18:25:37.996	WT901BLE68-01(48591DE3C19B)	-0.331	-0.863	0.388	0.305	-1.282	-14.282	-69.46	4.42	-44.32	-61.054	-23.030	66.934	0.80280	-0.50757	0.25641	-0.17896	31.1	13111	100
2025-3-27 18:25:37.996	WT901BLE68-01(48591DE3C19B)	-0.321	-0.863	0.388	0.305	-1.282	-14.282	-69.45	4.37	-44.34	-61.054	-23.030	66.934	0.80280	-0.50757	0.25641	-0.17896	31.1	13111	100
2025-3-27 18:25:37.996	WT901BLE68-01(48591DE3C19B)	-0.321	-0.817	0.392	0.549	-2.014	-8.545	-69.43	4.36	-44.34	-61.054	-23.030	66.934	0.76889	-0.51511	0.24365	-0.28983	31.1	13111	100
2025-3-27 18:25:37.996	WT901BLE68-01(48591DE3C19B)	-0.311	-0.817	0.392	0.549	-2.014	-8.545	-69.41	4.36	-44.33	-61.054	-23.030	66.934	0.76889	-0.51511	0.24365	-0.28983	31.1	13111	100
2025-3-27 18:25:38.54	WT901BLE68-01(48591DE3C19B)	-0.311	-0.785	0.385	-0.061	-2.380	-2.991	-69.38	4.41	-44.30	-61.054	-23.030	66.934	0.76889	-0.51511	0.24365	-0.28983	31.1	13111	100
2025-3-27 18:25:38.54	WT901BLE68-01(48591DE3C19B)	-0.320	-0.785	0.385	-0.061	-2.380	-2.991	-69.37	4.46	-44.27	-61.054	-23.030	66.934	0.76889	-0.51511	0.24365	-0.28983	31.1	13111	100
2025-3-27 18:25:38.54	WT901BLE68-01(48591DE3C19B)	-0.320	-0.806	0.376	-1.770	-3.845	1.465	-69.36	4.54	-44.21	-61.054	-23.030	66.934	0.76889	-0.51511	0.24365	-0.28983	31.1	13111	100
2025-3-27 18:25:38.54	WT901BLE68-01(48591DE3C19B)	-0.340	-0.806	0.376	-1.770	-3.845	1.465	-69.36	4.63	-44.15	-61.054	-23.030	66.934	0.76889	-0.51511	0.24365	-0.28983	31.1	13111	100
2025-3-27 18:25:38.83	WT901BLE68-01(48591DE3C19B)	-0.340	-0.870	0.396	-2.441	-6.714	4.456	-69.35	4.74	-44.06	-61.054	-23.030	66.934	0.76889	-0.51511	0.24365	-0.28983	31.1	13111	100
2025-3-27 18:25:38.83	WT901BLE68-01(48591DE3C19B)	-0.360	-0.870	0.396	-2.441	-6.714	4.456	-69.35	4.84	-43.96	-61.054	-23.030	66.934	0.76889	-0.51511	0.24365	-0.28983	31.1	13111	100
2025-3-27 18:25:38.83	WT901BLE68-01(48591DE3C19B)	-0.360	-0.960	0.418	-2.014	-10.193	6.653	-69.34	4.95	-43.83	-61.054	-23.030	66.934	0.76889	-0.51511	0.24365	-0.28983	31.1	13111	100
2025-3-27 18:25:38.83	WT901BLE68-01(48591DE3C19B)	-0.373	-0.960	0.418	-2.014	-10.193	6.653	-69.33	5.06	-43.69	-61.054	-23.030	66.934	0.76889	-0.51511	0.24365	-0.28983	31.1	13111	100
2025-3-27 18:25:38.112	WT901BLE68-01(48591DE3C19B)	-0.374	-1.041	0.434	0.122	-10.925	9.033	-69.30	5.19	-43.54	-61.054	-23.030	66.934	0.76889	-0.51511	0.24365	-0.28983	31.1	13111	100
2025-3-27 18:25:38.112	WT901BLE68-01(48591DE3C19B)	-0.374	-1.106	0.419	1.099	-8.362	12.146	-69.27	5.34	-43.40	-61.054	-23.030	66.934	0.76889	-0.51511	0.24365	-0.28983	31.1	13111	100
2025-3-27 18:25:38.112	WT901BLE68-01(48591DE3C19B)	-0.365	-1.106	0.419	1.099	-8.362	12.146	-69.23	5.50	-43.26	-61.054	-23.030	66.934	0.76889	-0.51511	0.24365	-0.28983	31.1	13111	100
2025-3-27 18:25:38.112	WT901BLE68-01(48591DE3C19B)	-0.365	-1.186	0.383	-0.916	-2.747	14.221	-69.21	5.68	-43.14	-61.054	-23.030	66.934	0.76889	-0.51511	0.24365	-0.28983	31.1	13111	100
2025-3-27 18:25:38.172	WT901BLE68-01(48591DE3C19B)	-0.381	-1.186	0.383	-0.916	-2.747	14.221	-69.20	5.88	-43.05	-61.054	-23.030	66.934	0.76889	-0.51511	0.24365	-0.28983	31.1	13111	100
2025-3-27 18:25:38.172	WT901BLE68-01(48591DE3C19B)	-0.381	-1.291	0.352	-5.432	2.686	13.184	-69.22	6.08	-42.99	-61.054	-23.030	66.934	0.76889	-0.51511	0.24365	-0.28983	31.1	13111	100
2025-3-27 18:25:38.172	WT901BLE68-01(48591DE3C19B)	-0.408	-1.291	0.352	-5.432	2.686	13.184	-69.27	6.28	-42.95	-61.054	-23.030	66.934	0.76889	-0.51511	0.24365	-0.28983	31.1	13111	100
2025-3-27 18:25:38.172	WT901BLE68-01(48591DE3C19B)	-1.631	-1.388	0.342	-10.681	5.554	8.789	-69.36	6.47	-42.93	-61.054	-23.030	66.934	0.76889	-0.51511	0.24365	-0.28983	31.1	13111	100
2025-3-27 18:25:38.203	WT901BLE68-01(48591DE3C19B)	-0.429	-5.552	1.368	-10.681	5.554	8.789	-69.48	6.63	-42.93	-61.054	-23.030	66.934	0.76889	-0.51511	0.24365	-0.28983	31.1	13111	100
2025-3-27 18:25:38.204	WT901BLE68-01(48591DE3C19B)	-0.429	-1.402	0.360	-15.503	6.714	3.479	-69.64	6.77	-42.95	-61.054	-23.030	66.934	0.76889	-0.51511	0.24365	-0.28983	31.1	13111	100
2025-3-27 18:25:38.204	WT901BLE68-01(48591DE3C19B)	-0.459	-1.402	0.360	-15.503	6.714	3.479	-69.82	6.88	-42.97	-61.054	-23.030	66.934	0.76889	-0.51511	0.24365	-0.28983	31.1	13111	100
2025-3-27 18:25:38.204	WT901BLE68-01(48591DE3C19B)	-0.459	-1.336	0.380	-22.400	4.822	-0.122	-70.04	6.98	-43.00	-61.740	-24.304	66.934	0.76889	-0.51511	0.24365	-0.28983	31.1	13111	100
2025-3-27 18:25:38.232	WT901BLE68-01(48591DE3C19B)	-0.493	-1.336	0.380	-22.400	4.822	-0.122	-70.29	7.05	-43.02	-61.740	-24.304	66.934	0.76889	-0.51511	0.24365	-0.28983	31.1	13111	100
2025-3-27 18:25:38.232	WT901BLE68-01(48591DE3C19B)	-0.493	-1.261	0.370	-31.006	-2.991	-3.784	-70.58	7.10	-43.01	-61.740	-24.304	66.934	0.76889	-0.51511	0.24365	-0.28983	31.1	13111	100
2025-3-27 18:25:38.232	WT901BLE68-01(48591DE3C19B)	-0.536	-1.261	0.370	-31.006	-2.991	-3.784	-70.91	7.11	-42.97	-61.740	-24.304	66.934	0.76889	-0.51511	0.24365	-0.28983	31.1	13111	100
2025-3-27 18:25:38.233	WT901BLE68-01(48591DE3C19B)	-0.536	-1.156	0.355	-37.598	-19.775	-4.272	-71.25	7.10	-42.85	-61.740	-24.304	66.934	0.76889	-0.51511	0.24365	-0.28983	31.1	13111	100
2025-3-27 18:25:38.323	WT901BLE68-01(48591DE3C19B)	-0.566	-1.156	0.355	-37.598	-19.775	-4.272	-71.62	7.06	-42.64	-61.740	-24.304	66.934	0.76889	-0.51511	0.24365	-0.28983	31.1	13111	100
2025-3-27 18:25:38.323	WT901BLE68-01(48591DE3C19B)	-0.566	-1.032	0.330	-39.978	-48.767	2.502	-71.98	7.01	-42.29	-61.740	-24.304	66.934	0.76889	-0.51511	0.24365	-0.28983	31.1	13111	100
2025-3-27 18:25:38.323	WT901BLE68-01(48591DE3C19B)	-0.542	-1.032	0.330	-39.978	-48.767	2.502	-72.33	6.97	-41.78	-61.740	-24.304	66.934	0.76889	-0.51511	0.24365	-0.28983	31.1	13111	100
2025-3-27 18:25:38.324	WT901BLE68-01(48591DE3C19B)	-0.542	-0.854	0.275	-40.283	-80.688	19.104	-72.66	6.95	-41.09	-61.740	-24.304	66.934	0.76889	-0.51511	0.24365	-0.28983	31.1	13111	100
2025-3-27 18:25:38.325	WT901BLE68-01(48591DE3C19B)	-0.493	-0.854	0.275	-40.283	-80.688	19.104	-72.97	6.98	-40.23	-61.740	-24.304	66.934	0.76889	-0.51511	0.24365	-0.28983	31.1	13111	100
2025-3-27 18:25:38.325	WT901BLE68-01(48591DE3C19B)	-0.493	-0.741	0.183	-41.504	-105.652	38.391	-73.26	7.06	-39.22	-61.740	-24.304	66.934	0.76889	-0.51511	0.24365	-0.28983	31.1	13111	100
2025-3-27 18:25:38.325	WT901BLE68-01(48591DE3C19B)	-0.431	-0.741	0.183	-41.504	-105.652	38.391	-73.54	7.22	-38.06	-61.740	-24.304	66.934	0.76889	-0.51511	0.24365	-0.28983	31.1	13111	100
2025-3-27 18:25:38.325	WT901BLE68-01(48591DE3C19B)	-0.431	-0.736	0.134	-41.748	-124.084	57.434	-73.80	7.45	-36.79	-61.740	-24.304	66.934	0.76889	-0.51511	0.24365	-0.28983	31.1	13111	100
2025-3-27 18:25:38.355	WT901BLE68-01(48591DE3C19B)	-0.344	-0.736	0.134	-41.748	-124.084	57.434	-74.04	7.75	-35.40	-61.740	-24.304	66.934	0.76889	-0.51511	0.24365	-0.28983	31.1	13111	100
2025-3-27 18:25:38.355	WT901BLE68-01(48591DE3C19B)	-0.344	-0.857	0.117	-39.246	-137.024	74.890	-74.25	8.12	-33.93	-61.740	-24.304	66.934	0.76889	-0.51511	0.24365	-0.28983	31.1	13111	100
2025-3-27 18:25:38.355	WT901BLE68-01(48591DE3C19B)	-0.251	-0.857	0.117	-39.246	-137.024	74.890	-74.43	8.56	-32.38	-61.740	-24.304	66.934	0.76889	-0.51511	0.24365	-0.28983	31.1	13111	100
2025-3-27 18:25:38.355	WT901BLE68-01(48591DE3C19B)	-0.251	-0.896	0.122	-27.405	-136.230	88.318	-74.53	9.07	-30.81	-61.740	-24.304	66.934	0.76889	-0.51511	0.24365	-0.28983	31.1	13111	100
2025-3-27 18:25:38.413	WT901BLE68-01(48591DE3C19B)	-0.193	-0.896	0.122	-27.405	-136.230	88.318	-74.56	9.64	-29.24	-61.740	-24.304	66.934	0.76889	-0.51511	0.24365	-0.28983	31.1	13111	100
2025-3-27 18:25:38.413	WT901BLE68-01(48591DE3C19B)	-0.193	-0.826	0.144	-18.494	-124.390	97.656	-74.54	10.26	-27.72	-61.740	-24.304	66.934	0.78372	-0.56888	0.21210	-0.13055	31.1	13111	100
2025-3-27 18:25:38.413	WT901BLE68-01(48591DE3C19B)	-0.163	-0.826	0.144	-18.494	-124.390	97.656	-74.46	10.93	-26.25	-61.740	-24.304	66.934	0.78372	-0.56888	0.21210	-0.13055	31.1	13111	100
2025-3-27 18:25:38.414	WT901BLE68-01(48591DE3C19B)	-0.163	-0.810	0.167	-13.367	-105.347	104.797	-74.36	11.66	-24.86	-61.740	-24.304	66.934	0.78372	-0.56888	0.21210	-0.13055	31.1	13111	100
2025-3-27 18:25:38.442	WT901BLE68-01(48591DE3C19B)	-0.151	-0.810	0.167	-13.367	-105.347	104.797	-74.23	12.43	-23.57	-61.740	-24.304	66.934	0.78372	-0.56888	0.21210	-0.13055	31.1	13111	100
2025-3-27 18:25:38.442	WT901BLE68-01(48591DE3C19B)	-0.151	-0.833	0.177	-7.324	-82.703	111.633	-74.08	13.25	-22.37	-61.740	-24.304	66.934	0.78372	-0.56888	0.21210	-0.13055	31.1	13111	100
2025-3-27 18:25:38.442	WT901BLE68-01(48591DE3C19B)	-0.127	-0.833	0.177	-7.324	-82.703	111.633	-73.90	14.12	-21.28	-61.740	-24.304	66.934	0.78372	-0.56888	0.21210	-0.13055	31.1	13111	100
2025-3-27 18:25:38.443	WT901BLE68-01(48591DE3C19B)	-0.127	-0.838	0.154	-2.136	-64.148	116.272	-73.70	15.03	-20.28	-61.740	-24.304	66.934	0.78372	-0.56888	0.21210	-0.13055	31.1	13111	100
2025-3-27 18:25:38.473	WT901BLE68-01(48591DE3C19B)	-0.082	-0.838	0.154	-2.136	-64.148	116.272	-73.48	15.97	-19.35	-61.740	-24.304	66.934	0.78372	-0.56888	0.21210	-0.13055	31.1	13111	100
2025-3-27 18:25:38.473	WT901BLE68-01(48591DE3C19B)	-0.082	-0.826	0.116	0.732	-48.401	116.638	-73.26	16.93	-18.50	-61.740	-24.304	66.934	0.78372	-0.56888	0.21210	-0.13055	31.1	13111	100
2025-3-27 18:25:38.473	WT901BLE68-01(48591DE3C19B)	-0.063	-0.826	0.116	0.732	-48.401	116.638	-73.03	17.89	-17.73	-61.740	-24.304	66.934	0.78372	-0.56888	0.21210	-0.13055	31.1	13111	100
2025-3-27 18:25:38.473	WT901BLE68-01(48591DE3C19B)	-0.063	-0.886	0.083	-0.244	-34.058	113.342	-72.83	18.85	-17.04	-61.740	-24.304	66.934	0.78372	-0.56888	0.21210	-0.13055	31.1	13111	100
2025-3-27 18:25:38.565	WT901BLE68-01(48591DE3C19B)	-0.040	-0.886	0.083	-0.244	-34.058	113.342	-72.64	19.80	-16.42	-61.740	-24.304	66.934	0.78372	-0.56888	0.21210	-0.13055	31.1	13111	100
2025-3-27 18:25:38.565	WT901BLE68-01(48591DE3C19B)	-0.040	-1.043	0.068	-3.296	-23.071	105.835	-72.49	20.71	-15.87	-61.740	-24.304	66.934	0.78372	-0.56888	0.21210	-0.13055	31.1	13111	100
2025-3-27 18:25:38.565	WT901BLE68-01(48591DE3C19B)	0.028	-1.043	0.068	-3.296	-23.071	105.835	-72.37	21.60	-15.39	-61.740	-24.304	66.934	0.78372	-0.56888	0.21210	-0.13055	31.1	13111	100
2025-3-27 18:25:38.565	WT901BLE68-01(48591DE3C19B)	0.028	-1.321	0.046	-7.202	-15.442	94.543	-72.29	22.43	-14.96	-61.740	-24.304	66.934	0.78372	-0.56888	0.21210	-0.13055	31.1	13111	100
2025-3-27 18:25:38.566	WT901BLE68-01(48591DE3C19B)	0.107	-1.321	0.046	-7.202	-15.442	94.543	-72.25	23.21	-14.60	-61.740	-24.304	66.934	0.78372	-0.56888	0.21210	-0.13055	31.1	13111	100
2025-3-27 18:25:38.566	WT901BLE68-01(48591DE3C19B)	0.107	-1.679	0.011	-8.667	-3.113	78.247	-72.26	23.92	-14.34	-61.740	-24.304	66.934	0.78372	-0.56888	0.21210	-0.13055	31.1	13111	100
2025-3-27 18:25:38.566	WT901BLE68-01(48591DE3C19B)	0.130	-1.679	0.011	-8.667	-3.113	78.247	-72.32	24.55	-14.17	-61.740	-24.304	66.934	0.78372	-0.56888	0.21210	-0.13055	31.1	13111	100
2025-3-27 18:25:38.566	WT901BLE68-01(48591DE3C19B)	0.130	-2.041	-0.046	-5.188	9.521	57.617	-72.41	25.10	-14.11	-61.740	-24.304	66.934	0.78372	-0.56888	0.21210	-0.13055	31.1	13111	100
2025-3-27 18:25:38.595	WT901BLE68-01(48591DE3C19B)	0.076	-2.041	-0.046	-5.188	9.521	57.617	-72.53	25.57	-14.15	-61.740	-24.304	66.934	0.78372	-0.56888	0.21210	-0.13055	31.1	13111	100
2025-3-27 18:25:38.595	WT901BLE68-01(48591DE3C19B)	0.076	-2.083	-0.091	4.395	14.832	38.513	-72.61	25.85	-14.32	-61.740	-24.304	66.934	0.78372	-0.56888	0.21210	-0.13055	31.1	13111	100
2025-3-27 18:25:38.595	WT901BLE68-01(48591DE3C19B)	0.070	-2.083	-0.091	4.395	14.832	38.513	-72.70	26.14	-14.49	-44.688	-37.436	68.992	0.78372	-0.56888	0.21210	-0.13055	31.1	13111	100
2025-3-27 18:25:38.595	WT901BLE68-01(48591DE3C19B)	0.070	-1.772	-0.008	6.714	10.376	20.569	-72.78	26.23	-14.67	-44.688	-37.436	68.992	0.78372	-0.56888	0.21210	-0.13055	31.1	13111	100
2025-3-27 18:25:38.652	WT901BLE68-01(48591DE3C19B)	0.145	-1.772	-0.008	6.714	10.376	20.569	-72.86	26.32	-14.85	-44.688	-37.436	68.992	0.78372	-0.56888	0.21210	-0.13055	31.1	13111	100
2025-3-27 18:25:38.653	WT901BLE68-01(48591DE3C19B)	0.145	-1.394	0.142	-0.549	6.775	8.301	-73.01	26.28	-15.04	-44.688	-37.436	68.992	0.78372	-0.56888	0.21210	-0.13055	31.1	13111	100
2025-3-27 18:25:38.653	WT901BLE68-01(48591DE3C19B)	0.219	-1.394	0.142	-0.549	6.775	8.301	-73.16	26.24	-15.23	-44.688	-37.436	68.992	0.78372	-0.56888	0.21210	-0.13055	31.1	13111	100
2025-3-27 18:25:38.653	WT901BLE68-01(48591DE3C19B)	0.219	-1.108	0.256	-0.732	7.751	-1.404	-73.32	26.10	-15.46	-44.688	-37.436	68.992	0.78372	-0.56888	0.21210	-0.13055	31.1	13111	100
2025-3-27 18:25:38.683	WT901BLE68-01(48591DE3C19B)	0.259	-1.108	0.256	-0.732	7.751	-1.404	-73.48	25.96	-15.69	-44.688	-37.436	68.992	0.78372	-0.56888	0.21210	-0.13055	31.1	13111	100
2025-3-27 18:25:38.683	WT901BLE68-01(48591DE3C19B)	0.259	-1.012	0.271	0.977	14.587	-12.085	-73.66	25.73	-16.03	-44.688	-37.436	68.992	0.78372	-0.56888	0.21210	-0.13055	31.1	13111	100
2025-3-27 18:25:38.684	WT901BLE68-01(48591DE3C19B)	0.330	-1.012	0.271	0.977	14.587	-12.085	-73.84	25.49	-16.36	-44.688	-37.436	68.992	0.78372	-0.56888	0.21210	-0.13055	31.1	13111	100
2025-3-27 18:25:38.684	WT901BLE68-01(48591DE3C19B)	0.330	-1.078	0.193	3.723	31.433	-26.672	-74.08	25.16	-16.93	-44.688	-37.436	68.992	0.78372	-0.56888	0.21210	-0.13055	31.1	13111	100
2025-3-27 18:25:38.742	WT901BLE68-01(48591DE3C19B)	0.327	-1.078	0.193	3.723	31.433	-26.672	-74.31	24.82	-17.49	-44.688	-37.436	68.992	0.78372	-0.56888	0.21210	-0.13055	31.1	13111	100
2025-3-27 18:25:38.742	WT901BLE68-01(48591DE3C19B)	0.327	-1.132	0.086	14.526	58.838	-43.823	-74.58	24.38	-18.39	-44.688	-37.436	68.992	0.78372	-0.56888	0.21210	-0.13055	31.1	13111	100
2025-3-27 18:25:38.742	WT901BLE68-01(48591DE3C19B)	0.260	-1.132	0.086	14.526	58.838	-43.823	-74.83	23.94	-19.28	-44.688	-37.436	68.992	0.78372	-0.56888	0.21210	-0.13055	31.1	13111	100
2025-3-27 18:25:38.742	WT901BLE68-01(48591DE3C19B)	0.260	-1.032	0.012	24.780	88.501	-59.021	-75.12	23.43	-20.51	-44.688	-37.436	68.992	0.78372	-0.56888	0.21210	-0.13055	31.1	13111	100
2025-3-27 18:25:38.774	WT901BLE68-01(48591DE3C19B)	0.170	-1.032	0.012	24.780	88.501	-59.021	-75.39	22.91	-21.73	-44.688	-37.436	68.992	0.78372	-0.56888	0.21210	-0.13055	31.1	13111	100
2025-3-27 18:25:38.774	WT901BLE68-01(48591DE3C19B)	0.170	-0.974	-0.029	29.846	109.131	-73.120	-75.70	22.29	-23.19	-44.688	-37.436	68.992	0.78372	-0.56888	0.21210	-0.13055	31.1	13111	100
2025-3-27 18:25:38.774	WT901BLE68-01(48591DE3C19B)	0.106	-0.974	-0.029	29.846	109.131	-73.120	-75.99	21.68	-24.63	-44.688	-37.436	68.992	0.78372	-0.56888	0.21210	-0.13055	31.1	13111	100
2025-3-27 18:25:38.774	WT901BLE68-01(48591DE3C19B)	0.106	-0.965	-0.037	33.813	121.094	-82.886	-76.28	20.99	-26.20	-44.688	-37.436	68.992	0.78372	-0.56888	0.21210	-0.13055	31.1	13111	100
2025-3-27 18:25:38.805	WT901BLE68-01(48591DE3C19B)	0.009	-0.965	-0.037	33.813	121.094	-82.886	-76.54	20.31	-27.75	-44.688	-37.436	68.992	0.78372	-0.56888	0.21210	-0.13055	31.1	13111	100
2025-3-27 18:25:38.805	WT901BLE68-01(48591DE3C19B)	0.009	-0.957	0.011	36.072	124.329	-88.867	-76.77	19.57	-29.33	-44.688	-37.436	68.992	0.78372	-0.56888	0.21210	-0.13055	31.1	13111	100
2025-3-27 18:25:38.805	WT901BLE68-01(48591DE3C19B)	-0.120	-0.957	0.011	36.072	124.329	-88.867	-76.98	18.84	-30.89	-44.688	-37.436	68.992	0.78372	-0.56888	0.21210	-0.13055	31.1	13111	100
2025-3-27 18:25:38.805	WT901BLE68-01(48591DE3C19B)	-0.120	-0.934	0.100	35.706	110.229	-94.360	-77.12	18.02	-32.30	-44.688	-37.436	68.992	0.76889	-0.55728	0.28891	-0.12103	31.1	13111	100
2025-3-27 18:25:38.834	WT901BLE68-01(48591DE3C19B)	-0.195	-0.934	0.100	35.706	110.229	-94.360	-77.24	17.22	-33.69	-44.688	-37.436	68.992	0.76889	-0.55728	0.28891	-0.12103	31.1	13111	100
2025-3-27 18:25:38.834	WT901BLE68-01(48591DE3C19B)	-0.195	-0.885	0.179	32.593	86.060	-101.929	-77.30	16.29	-34.83	-44.688	-37.436	68.992	0.76889	-0.55728	0.28891	-0.12103	31.1	13111	100
2025-3-27 18:25:38.834	WT901BLE68-01(48591DE3C19B)	-0.255	-0.885	0.179	32.593	86.060	-101.929	-77.33	15.38	-35.96	-44.688	-37.436	68.992	0.76889	-0.55728	0.28891	-0.12103	31.1	13111	100
2025-3-27 18:25:38.835	WT901BLE68-01(48591DE3C19B)	-0.255	-0.809	0.235	27.527	63.171	-109.131	-77.33	14.36	-36.86	-44.688	-37.436	68.992	0.76889	-0.55728	0.28891	-0.12103	31.1	13111	100
2025-3-27 18:25:38.893	WT901BLE68-01(48591DE3C19B)	-0.302	-0.809	0.235	27.527	63.171	-109.131	-77.31	13.35	-37.75	-44.688	-37.436	68.992	0.76889	-0.55728	0.28891	-0.12103	31.1	13111	100
2025-3-27 18:25:38.893	WT901BLE68-01(48591DE3C19B)	-0.302	-0.729	0.255	23.193	42.419	-116.516	-77.26	12.25	-38.44	-44.688	-37.436	68.992	0.76889	-0.55728	0.28891	-0.12103	31.1	13111	100
2025-3-27 18:25:38.893	WT901BLE68-01(48591DE3C19B)	-0.306	-0.729	0.255	23.193	42.419	-116.516	-77.20	11.16	-39.12	-44.688	-37.436	68.992	0.76889	-0.55728	0.28891	-0.12103	31.1	13111	100
2025-3-27 18:25:38.893	WT901BLE68-01(48591DE3C19B)	-0.306	-0.676	0.242	18.555	27.100	-122.803	-77.13	9.99	-39.65	-44.688	-37.436	68.992	0.76889	-0.55728	0.28891	-0.12103	31.1	13111	100
2025-3-27 18:25:38.922	WT901BLE68-01(48591DE3C19B)	-0.278	-0.676	0.242	18.555	27.100	-122.803	-77.05	8.84	-40.18	-44.688	-37.436	68.992	0.76889	-0.55728	0.28891	-0.12103	31.1	13111	100
2025-3-27 18:25:38.922	WT901BLE68-01(48591DE3C19B)	-0.278	-0.646	0.248	15.137	26.367	-127.991	-77.00	7.65	-40.70	-44.688	-37.436	68.992	0.76889	-0.55728	0.28891	-0.12103	31.1	13111	100
2025-3-27 18:25:38.922	WT901BLE68-01(48591DE3C19B)	-0.310	-0.646	0.248	15.137	26.367	-127.991	-76.92	6.48	-41.22	-44.688	-37.436	68.992	0.76889	-0.55728	0.28891	-0.12103	31.1	13111	100
2025-3-27 18:25:38.922	WT901BLE68-01(48591DE3C19B)	-0.310	-0.638	0.283	13.306	33.020	-130.005	-76.86	5.32	-41.80	-44.688	-37.436	68.992	0.76889	-0.55728	0.28891	-0.12103	31.1	13111	100
2025-3-27 18:25:38.952	WT901BLE68-01(48591DE3C19B)	-0.410	-0.638	0.283	13.306	33.020	-130.005	-76.78	4.17	-42.39	-44.688	-37.436	68.992	0.76889	-0.55728	0.28891	-0.12103	31.1	13111	100
2025-3-27 18:25:38.952	WT901BLE68-01(48591DE3C19B)	-0.410	-0.669	0.316	12.878	36.255	-128.723	-76.69	3.06	-42.99	-44.688	-37.436	68.992	0.76889	-0.55728	0.28891	-0.12103	31.1	13111	100
2025-3-27 18:25:38.952	WT901BLE68-01(48591DE3C19B)	-0.513	-0.669	0.316	12.878	36.255	-128.723	-76.59	1.97	-43.58	-44.688	-37.436	68.992	0.76889	-0.55728	0.28891	-0.12103	31.1	13111	100
2025-3-27 18:25:38.952	WT901BLE68-01(48591DE3C19B)	-0.513	-0.726	0.331	14.648	28.442	-121.216	-76.44	0.94	-44.08	-44.688	-37.436	68.992	0.76889	-0.55728	0.28891	-0.12103	31.1	13111	100
2025-3-27 18:25:39.13	WT901BLE68-01(48591DE3C19B)	-0.612	-0.726	0.331	14.648	28.442	-121.216	-76.29	-0.05	-44.57	-44.688	-37.436	68.992	0.76889	-0.55728	0.28891	-0.12103	31.1	13111	100
2025-3-27 18:25:39.13	WT901BLE68-01(48591DE3C19B)	-0.612	-0.794	0.334	18.250	13.245	-105.774	-76.10	-0.92	-44.87	-44.688	-37.436	68.992	0.76889	-0.55728	0.28891	-0.12103	31.1	13111	100
2025-3-27 18:25:39.13	WT901BLE68-01(48591DE3C19B)	-0.675	-0.794	0.334	18.250	13.245	-105.774	-75.90	-1.77	-45.17	-44.688	-37.436	68.992	0.76889	-0.55728	0.28891	-0.12103	31.1	13111	100
2025-3-27 18:25:39.13	WT901BLE68-01(48591DE3C19B)	-0.675	-0.864	0.333	23.071	0.122	-85.938	-75.67	-2.45	-45.29	-44.688	-37.436	68.992	0.76889	-0.55728	0.28891	-0.12103	31.1	13111	100
2025-3-27 18:25:39.41	WT901BLE68-01(48591DE3C19B)	-0.681	-0.864	0.333	23.071	0.122	-85.938	-75.43	-3.11	-45.40	-56.448	-33.124	71.344	0.76889	-0.55728	0.28891	-0.12103	31.1	13111	100
2025-3-27 18:25:39.42	WT901BLE68-01(48591DE3C19B)	-0.662	-0.960	0.327	25.330	-3.479	-65.674	-75.17	-3.58	-45.41	-56.448	-33.124	71.344	0.76889	-0.55728	0.28891	-0.12103	31.1	13111	100
2025-3-27 18:25:39.42	WT901BLE68-01(48591DE3C19B)	-0.662	-1.072	0.354	27.161	4.333	-47.485	-74.92	-3.94	-45.44	-56.448	-33.124	71.344	0.76889	-0.55728	0.28891	-0.12103	31.1	13111	100
2025-3-27 18:25:39.42	WT901BLE68-01(48591DE3C19B)	-0.673	-1.072	0.354	27.161	4.333	-47.485	-74.65	-4.20	-45.49	-56.448	-33.124	71.344	0.76889	-0.55728	0.28891	-0.12103	31.1	13111	100
2025-3-27 18:25:39.73	WT901BLE68-01(48591DE3C19B)	-0.673	-1.166	0.396	27.710	21.423	-31.006	-74.37	-4.35	-45.60	-56.448	-33.124	71.344	0.76889	-0.55728	0.28891	-0.12103	31.1	13111	100
2025-3-27 18:25:39.73	WT901BLE68-01(48591DE3C19B)	-0.712	-1.166	0.396	27.710	21.423	-31.006	-74.09	-4.40	-45.76	-56.448	-33.124	71.344	0.76889	-0.55728	0.28891	-0.12103	31.1	13111	100
2025-3-27 18:25:39.73	WT901BLE68-01(48591DE3C19B)	-0.712	-1.214	0.415	23.132	38.086	-17.517	-73.83	-4.36	-45.99	-56.448	-33.124	71.344	0.76889	-0.55728	0.28891	-0.12103	31.1	13111	100
2025-3-27 18:25:39.73	WT901BLE68-01(48591DE3C19B)	-0.744	-1.214	0.415	23.132	38.086	-17.517	-73.60	-4.22	-46.27	-56.448	-33.124	71.344	0.76889	-0.55728	0.28891	-0.12103	31.1	13111	100
2025-3-27 18:25:39.133	WT901BLE68-01(48591DE3C19B)	-0.744	-1.231	0.415	16.968	48.462	-3.662	-73.39	-4.02	-46.59	-56.448	-33.124	71.344	0.76889	-0.55728	0.28891	-0.12103	31.1	13111	100
2025-3-27 18:25:39.133	WT901BLE68-01(48591DE3C19B)	-0.762	-1.231	0.415	16.968	48.462	-3.662	-73.21	-3.72	-46.93	-56.448	-33.124	71.344	0.76889	-0.55728	0.28891	-0.12103	31.1	13111	100
2025-3-27 18:25:39.133	WT901BLE68-01(48591DE3C19B)	-0.762	-1.187	0.378	10.071	49.866	10.071	-73.08	-3.36	-47.26	-56.448	-33.124	71.344	0.76889	-0.55728	0.28891	-0.12103	31.1	13111	100
2025-3-27 18:25:39.133	WT901BLE68-01(48591DE3C19B)	-0.751	-1.187	0.378	10.071	49.866	10.071	-72.99	-2.93	-47.57	-56.448	-33.124	71.344	0.76889	-0.55728	0.28891	-0.12103	31.1	13111	100
2025-3-27 18:25:39.164	WT901BLE68-01(48591DE3C19B)	-0.751	-1.115	0.323	0.366	41.748	26.672	-72.95	-2.43	-47.81	-56.448	-33.124	71.344	0.76889	-0.55728	0.28891	-0.12103	31.1	13111	100
2025-3-27 18:25:39.165	WT901BLE68-01(48591DE3C19B)	-0.714	-1.115	0.323	0.366	41.748	26.672	-72.97	-1.87	-47.98	-56.448	-33.124	71.344	0.76889	-0.55728	0.28891	-0.12103	31.1	13111	100
2025-3-27 18:25:39.165	WT901BLE68-01(48591DE3C19B)	-0.714	-1.054	0.286	-10.010	24.658	42.358	-73.05	-1.26	-48.05	-56.448	-33.124	71.344	0.76889	-0.55728	0.28891	-0.12103	31.1	13111	100
2025-3-27 18:25:39.165	WT901BLE68-01(48591DE3C19B)	-0.688	-1.054	0.286	-10.010	24.658	42.358	-73.18	-0.60	-48.02	-56.448	-33.124	71.344	0.76889	-0.55728	0.28891	-0.12103	31.1	13111	100
2025-3-27 18:25:39.223	WT901BLE68-01(48591DE3C19B)	-0.688	-0.996	0.254	-16.907	-2.197	55.786	-73.35	0.08	-47.83	-56.448	-33.124	71.344	0.76889	-0.55728	0.28891	-0.12103	31.1	13111	100
2025-3-27 18:25:39.223	WT901BLE68-01(48591DE3C19B)	-0.665	-0.996	0.254	-16.907	-2.197	55.786	-73.56	0.78	-47.50	-56.448	-33.124	71.344	0.76889	-0.55728	0.28891	-0.12103	31.1	13111	100
2025-3-27 18:25:39.223	WT901BLE68-01(48591DE3C19B)	-0.665	-0.904	0.207	-22.339	-31.799	70.313	-73.78	1.51	-47.01	-56.448	-33.124	71.344	0.73645	-0.54620	0.24908	-0.31168	31.1	13111	100
2025-3-27 18:25:39.223	WT901BLE68-01(48591DE3C19B)	-0.657	-0.904	0.207	-22.339	-31.799	70.313	-74.03	2.27	-46.36	-56.448	-33.124	71.344	0.73645	-0.54620	0.24908	-0.31168	31.1	13111	100
2025-3-27 18:25:39.252	WT901BLE68-01(48591DE3C19B)	-0.657	-0.844	0.121	-28.931	-59.387	84.961	-74.29	3.07	-45.57	-56.448	-33.124	71.344	0.73645	-0.54620	0.24908	-0.31168	31.1	13111	100
2025-3-27 18:25:39.252	WT901BLE68-01(48591DE3C19B)	-0.619	-0.844	0.121	-28.931	-59.387	84.961	-74.57	3.89	-44.62	-56.448	-33.124	71.344	0.73645	-0.54620	0.24908	-0.31168	31.1	13111	100
2025-3-27 18:25:39.252	WT901BLE68-01(48591DE3C19B)	-0.619	-0.851	0.042	-34.668	-84.778	99.365	-74.86	4.75	-43.54	-56.448	-33.124	71.344	0.73645	-0.54620	0.24908	-0.31168	31.1	13111	100
2025-3-27 18:25:39.252	WT901BLE68-01(48591DE3C19B)	-0.564	-0.851	0.042	-34.668	-84.778	99.365	-75.15	5.65	-42.32	-56.448	-33.124	71.344	0.73645	-0.54620	0.24908	-0.31168	31.1	13111	100
2025-3-27 18:25:39.283	WT901BLE68-01(48591DE3C19B)	-0.564	-0.915	0.005	-37.903	-106.201	112.915	-75.43	6.59	-40.98	-56.448	-33.124	71.344	0.73645	-0.54620	0.24908	-0.31168	31.1	13111	100
2025-3-27 18:25:39.283	WT901BLE68-01(48591DE3C19B)	-0.524	-0.915	0.005	-37.903	-106.201	112.915	-75.68	7.57	-39.53	-56.448	-33.124	71.344	0.73645	-0.54620	0.24908	-0.31168	31.1	13111	100
2025-3-27 18:25:39.284	WT901BLE68-01(48591DE3C19B)	-0.524	-1.023	0.016	-36.865	-127.380	125.793	-75.90	8.59	-37.97	-56.448	-33.124	71.344	0.73645	-0.54620	0.24908	-0.31168	31.1	13111	100
2025-3-27 18:25:39.284	WT901BLE68-01(48591DE3C19B)	-0.462	-1.023	0.016	-36.865	-127.380	125.793	-76.07	9.63	-36.30	-56.448	-33.124	71.344	0.73645	-0.54620	0.24908	-0.31168	31.1	13111	100
2025-3-27 18:25:39.342	WT901BLE68-01(48591DE3C19B)	-0.462	-1.157	0.014	-30.151	-145.264	136.536	-76.16	10.70	-34.54	-56.448	-33.124	71.344	0.73645	-0.54620	0.24908	-0.31168	31.1	13111	100
2025-3-27 18:25:39.342	WT901BLE68-01(48591DE3C19B)	-0.372	-1.157	0.014	-30.151	-145.264	136.536	-76.17	11.79	-32.68	-56.448	-33.124	71.344	0.73645	-0.54620	0.24908	-0.31168	31.1	13111	100
2025-3-27 18:25:39.342	WT901BLE68-01(48591DE3C19B)	-0.372	-1.217	0.000	-18.860	-150.940	145.142	-76.08	12.90	-30.78	-56.448	-33.124	71.344	0.73645	-0.54620	0.24908	-0.31168	31.1	13111	100
2025-3-27 18:25:39.343	WT901BLE68-01(48591DE3C19B)	-0.286	-1.217	0.000	-18.860	-150.940	145.142	-75.89	14.02	-28.86	-56.448	-33.124	71.344	0.73645	-0.54620	0.24908	-0.31168	31.1	13111	100
2025-3-27 18:25:39.373	WT901BLE68-01(48591DE3C19B)	-0.286	-1.176	-0.002	-7.935	-140.503	152.283	-75.61	15.18	-26.97	-56.448	-33.124	71.344	0.73645	-0.54620	0.24908	-0.31168	31.1	13111	100
2025-3-27 18:25:39.373	WT901BLE68-01(48591DE3C19B)	-0.238	-1.176	-0.002	-7.935	-140.503	152.283	-75.26	16.35	-25.13	-56.448	-33.124	71.344	0.73645	-0.54620	0.24908	-0.31168	31.1	13111	100
2025-3-27 18:25:39.373	WT901BLE68-01(48591DE3C19B)	-0.238	-1.129	0.008	-3.174	-119.690	158.936	-74.88	17.56	-23.37	-56.448	-33.124	71.344	0.73645	-0.54620	0.24908	-0.31168	31.1	13111	100
2025-3-27 18:25:39.373	WT901BLE68-01(48591DE3C19B)	-0.210	-1.129	0.008	-3.174	-119.690	158.936	-74.46	18.81	-21.70	-56.448	-33.124	71.344	0.73645	-0.54620	0.24908	-0.31168	31.1	13111	100
2025-3-27 18:25:39.402	WT901BLE68-01(48591DE3C19B)	-0.210	-1.068	0.022	0.122	-95.703	165.588	-74.03	20.09	-20.14	-56.448	-33.124	71.344	0.73645	-0.54620	0.24908	-0.31168	31.1	13111	100
2025-3-27 18:25:39.402	WT901BLE68-01(48591DE3C19B)	-0.181	-1.068	0.022	0.122	-95.703	165.588	-73.58	21.42	-18.68	-56.448	-33.124	71.344	0.73645	-0.54620	0.24908	-0.31168	31.1	13111	100
2025-3-27 18:25:39.402	WT901BLE68-01(48591DE3C19B)	-0.181	-1.032	0.027	0.000	-72.937	173.462	-73.14	22.79	-17.31	-45.962	-38.318	74.186	0.73645	-0.54620	0.24908	-0.31168	31.1	13111	100
2025-3-27 18:25:39.402	WT901BLE68-01(48591DE3C19B)	-0.162	-1.032	0.027	0.000	-72.937	173.462	-72.70	24.21	-16.03	-45.962	-38.318	74.186	0.73645	-0.54620	0.24908	-0.31168	31.1	13111	100
2025-3-27 18:25:39.465	WT901BLE68-01(48591DE3C19B)	-0.162	-1.007	0.007	-0.366	-53.528	180.603	-72.27	25.68	-14.83	-45.962	-38.318	74.186	0.73645	-0.54620	0.24908	-0.31168	31.1	13111	100
2025-3-27 18:25:39.466	WT901BLE68-01(48591DE3C19B)	-0.140	-1.007	0.007	-0.366	-53.528	180.603	-71.84	27.18	-13.70	-45.962	-38.318	74.186	0.73645	-0.54620	0.24908	-0.31168	31.1	13111	100
2025-3-27 18:25:39.466	WT901BLE68-01(48591DE3C19B)	-0.140	-1.032	-0.015	-5.066	-34.668	185.120	-71.45	28.72	-12.65	-45.962	-38.318	74.186	0.73645	-0.54620	0.24908	-0.31168	31.1	13111	100
2025-3-27 18:25:39.466	WT901BLE68-01(48591DE3C19B)	-0.148	-1.032	-0.015	-5.066	-34.668	185.120	-71.09	30.28	-11.67	-45.962	-38.318	74.186	0.73645	-0.54620	0.24908	-0.31168	31.1	13111	100
2025-3-27 18:25:39.492	WT901BLE68-01(48591DE3C19B)	-0.148	-1.105	-0.020	-9.949	-19.897	185.303	-70.77	31.86	-10.75	-45.962	-38.318	74.186	0.73645	-0.54620	0.24908	-0.31168	31.1	13111	100
2025-3-27 18:25:39.493	WT901BLE68-01(48591DE3C19B)	-0.192	-1.105	-0.020	-9.949	-19.897	185.303	-70.48	33.45	-9.90	-45.962	-38.318	74.186	0.73645	-0.54620	0.24908	-0.31168	31.1	13111	100
2025-3-27 18:25:39.493	WT901BLE68-01(48591DE3C19B)	-0.192	-1.171	-0.007	-16.602	-20.203	179.932	-70.21	34.99	-9.05	-45.962	-38.318	74.186	0.73645	-0.54620	0.24908	-0.31168	31.1	13111	100
2025-3-27 18:25:39.493	WT901BLE68-01(48591DE3C19B)	-0.220	-1.171	-0.007	-16.602	-20.203	179.932	-69.94	36.49	-8.19	-45.962	-38.318	74.186	0.73645	-0.54620	0.24908	-0.31168	31.1	13111	100
2025-3-27 18:25:39.523	WT901BLE68-01(48591DE3C19B)	-0.220	-1.269	0.009	-21.179	-35.767	167.603	-69.62	37.81	-7.19	-45.962	-38.318	74.186	0.73645	-0.54620	0.24908	-0.31168	31.1	13111	100
2025-3-27 18:25:39.523	WT901BLE68-01(48591DE3C19B)	-0.208	-1.269	0.009	-21.179	-35.767	167.603	-69.26	39.12	-6.16	-45.962	-38.318	74.186	0.73645	-0.54620	0.24908	-0.31168	31.1	13111	100
2025-3-27 18:25:39.523	WT901BLE68-01(48591DE3C19B)	-0.208	-1.341	0.020	-24.292	-59.631	152.649	-68.76	40.19	-4.90	-45.962	-38.318	74.186	0.73645	-0.54620	0.24908	-0.31168	31.1	13111	100
2025-3-27 18:25:39.523	WT901BLE68-01(48591DE3C19B)	-0.046	-1.341	0.020	-24.292	-59.631	152.649	-68.23	41.24	-3.61	-45.962	-38.318	74.186	0.73645	-0.54620	0.24908	-0.31168	31.1	13111	100
2025-3-27 18:25:39.585	WT901BLE68-01(48591DE3C19B)	-0.046	-1.417	0.053	-26.917	-75.500	128.540	-67.64	42.00	-2.23	-45.962	-38.318	74.186	0.73645	-0.54620	0.24908	-0.31168	31.1	13111	100
2025-3-27 18:25:39.585	WT901BLE68-01(48591DE3C19B)	0.209	-1.417	0.053	-26.917	-75.500	128.540	-67.03	42.73	-0.84	-45.962	-38.318	74.186	0.73645	-0.54620	0.24908	-0.31168	31.1	13111	100
2025-3-27 18:25:39.585	WT901BLE68-01(48591DE3C19B)	0.209	-1.507	0.068	-27.100	-80.200	91.370	-66.51	43.08	0.41	-45.962	-38.318	74.186	0.73645	-0.54620	0.24908	-0.31168	31.1	13111	100
2025-3-27 18:25:39.585	WT901BLE68-01(48591DE3C19B)	0.385	-1.507	0.068	-27.100	-80.200	91.370	-65.97	43.42	1.65	-45.962	-38.318	74.186	0.73645	-0.54620	0.24908	-0.31168	31.1	13111	100
2025-3-27 18:25:39.614	WT901BLE68-01(48591DE3C19B)	0.385	-1.638	0.108	-23.010	-68.970	45.593	-65.68	43.36	2.48	-45.962	-38.318	74.186	0.73645	-0.54620	0.24908	-0.31168	31.1	13111	100
2025-3-27 18:25:39.615	WT901BLE68-01(48591DE3C19B)	0.273	-1.638	0.108	-23.010	-68.970	45.593	-65.40	43.30	3.30	-45.962	-38.318	74.186	0.73645	-0.54620	0.24908	-0.31168	31.1	13111	100
2025-3-27 18:25:39.615	WT901BLE68-01(48591DE3C19B)	0.273	-1.660	0.202	-14.893	-42.908	4.333	-65.42	42.96	3.54	-45.962	-38.318	74.186	0.73645	-0.54620	0.24908	-0.31168	31.1	13111	100
2025-3-27 18:25:39.615	WT901BLE68-01(48591DE3C19B)	0.157	-1.660	0.202	-14.893	-42.908	4.333	-65.46	42.62	3.77	-45.962	-38.318	74.186	0.77713	-0.51474	0.28741	0.22000	31.1	13111	100
2025-3-27 18:25:39.644	WT901BLE68-01(48591DE3C19B)	0.157	-1.518	0.300	-8.301	-11.414	-39.063	-65.85	42.01	3.37	-45.962	-38.318	74.186	0.77713	-0.51474	0.28741	0.22000	31.1	13111	100
2025-3-27 18:25:39.644	WT901BLE68-01(48591DE3C19B)	0.226	-1.518	0.300	-8.301	-11.414	-39.063	-66.22	41.41	2.98	-45.962	-38.318	74.186	0.77713	-0.51474	0.28741	0.22000	31.1	13111	100
2025-3-27 18:25:39.644	WT901BLE68-01(48591DE3C19B)	0.226	-1.432	0.261	-2.625	38.269	-75.134	-67.04	40.66	1.81	-45.962	-38.318	74.186	0.77713	-0.51474	0.28741	0.22000	31.1	13111	100
2025-3-27 18:25:39.644	WT901BLE68-01(48591DE3C19B)	0.189	-1.432	0.261	-2.625	38.269	-75.134	-67.83	39.90	0.66	-45.962	-38.318	74.186	0.77713	-0.51474	0.28741	0.22000	31.1	13111	100
2025-3-27 18:25:39.703	WT901BLE68-01(48591DE3C19B)	0.189	-1.351	0.133	8.057	83.801	-104.797	-68.92	39.02	-1.13	-45.962	-38.318	74.186	0.77713	-0.51474	0.28741	0.22000	31.1	13111	100
2025-3-27 18:25:39.703	WT901BLE68-01(48591DE3C19B)	0.107	-1.351	0.133	8.057	83.801	-104.797	-69.94	38.12	-2.87	-45.962	-38.318	74.186	0.77713	-0.51474	0.28741	0.22000	31.1	13111	100
2025-3-27 18:25:39.703	WT901BLE68-01(48591DE3C19B)	0.107	-1.179	0.078	14.648	103.455	-125.549	-71.05	37.07	-4.88	-45.962	-38.318	74.186	0.77713	-0.51474	0.28741	0.22000	31.1	13111	100
2025-3-27 18:25:39.703	WT901BLE68-01(48591DE3C19B)	0.005	-1.179	0.078	14.648	103.455	-125.549	-72.09	36.00	-6.83	-45.962	-38.318	74.186	0.77713	-0.51474	0.28741	0.22000	31.1	13111	100
2025-3-27 18:25:39.732	WT901BLE68-01(48591DE3C19B)	0.005	-1.105	0.082	14.160	103.333	-140.259	-73.09	34.76	-8.76	-45.962	-38.318	74.186	0.77713	-0.51474	0.28741	0.22000	31.1	13111	100
2025-3-27 18:25:39.732	WT901BLE68-01(48591DE3C19B)	-0.094	-1.105	0.082	14.160	103.333	-140.259	-74.02	33.50	-10.63	-45.962	-38.318	74.186	0.77713	-0.51474	0.28741	0.22000	31.1	13111	100
2025-3-27 18:25:39.732	WT901BLE68-01(48591DE3C19B)	-0.094	-1.057	0.153	14.526	88.501	-149.292	-74.80	32.11	-12.30	-45.962	-38.318	74.186	0.77713	-0.51474	0.28741	0.22000	31.1	13111	100
2025-3-27 18:25:39.732	WT901BLE68-01(48591DE3C19B)	-0.167	-1.057	0.153	14.526	88.501	-149.292	-75.51	30.71	-13.90	-45.962	-38.318	74.186	0.77713	-0.51474	0.28741	0.22000	31.1	13111	100
2025-3-27 18:25:39.764	WT901BLE68-01(48591DE3C19B)	-0.167	-1.008	0.229	10.986	73.120	-152.588	-76.12	29.23	-15.29	-45.962	-38.318	74.186	0.77713	-0.51474	0.28741	0.22000	31.1	13111	100
2025-3-27 18:25:39.765	WT901BLE68-01(48591DE3C19B)	-0.247	-1.008	0.229	10.986	73.120	-152.588	-76.66	27.76	-16.63	-45.962	-38.318	74.186	0.77713	-0.51474	0.28741	0.22000	31.1	13111	100
2025-3-27 18:25:39.765	WT901BLE68-01(48591DE3C19B)	-0.247	-1.048	0.241	5.554	54.077	-154.785	-77.11	26.22	-17.72	-45.962	-38.318	74.186	0.77713	-0.51474	0.28741	0.22000	31.1	13111	100
2025-3-27 18:25:39.765	WT901BLE68-01(48591DE3C19B)	-0.271	-1.048	0.241	5.554	54.077	-154.785	-77.53	24.70	-18.78	-45.962	-38.318	74.186	0.77713	-0.51474	0.28741	0.22000	31.1	13111	100
2025-3-27 18:25:39.822	WT901BLE68-01(48591DE3C19B)	-0.271	-1.067	0.219	3.540	36.438	-158.936	-77.84	23.10	-19.62	-45.962	-38.318	74.186	0.77713	-0.51474	0.28741	0.22000	31.1	13111	100
2025-3-27 18:25:39.822	WT901BLE68-01(48591DE3C19B)	-0.255	-1.067	0.219	3.540	36.438	-158.936	-78.12	21.51	-20.43	-45.962	-38.318	74.186	0.77713	-0.51474	0.28741	0.22000	31.1	13111	100
2025-3-27 18:25:39.822	WT901BLE68-01(48591DE3C19B)	-0.255	-1.031	0.208	-0.061	27.527	-163.757	-78.37	19.87	-21.14	-45.962	-38.318	74.186	0.77713	-0.51474	0.28741	0.22000	31.1	13111	100
2025-3-27 18:25:39.822	WT901BLE68-01(48591DE3C19B)	-0.254	-1.031	0.208	-0.061	27.527	-163.757	-78.60	18.25	-21.82	-45.962	-38.318	74.186	0.77713	-0.51474	0.28741	0.22000	31.1	13111	100
2025-3-27 18:25:39.852	WT901BLE68-01(48591DE3C19B)	-0.254	-1.001	0.207	-4.333	27.588	-171.143	-78.85	16.56	-22.50	-45.962	-38.318	74.186	0.77713	-0.51474	0.28741	0.22000	31.1	13111	100
2025-3-27 18:25:39.852	WT901BLE68-01(48591DE3C19B)	-0.257	-1.001	0.207	-4.333	27.588	-171.143	-79.07	14.88	-23.16	-45.962	-38.318	74.186	0.77713	-0.51474	0.28741	0.22000	31.1	13111	100
2025-3-27 18:25:39.852	WT901BLE68-01(48591DE3C19B)	-0.257	-0.966	0.216	-6.531	36.194	-179.260	-79.32	13.15	-23.90	-45.962	-38.318	74.186	0.77713	-0.51474	0.28741	0.22000	31.1	13111	100
2025-3-27 18:25:39.852	WT901BLE68-01(48591DE3C19B)	-0.294	-0.966	0.216	-6.531	36.194	-179.260	-79.54	11.43	-24.63	-45.962	-38.318	74.186	0.77713	-0.51474	0.28741	0.22000	31.1	13111	100
2025-3-27 18:25:39.883	WT901BLE68-01(48591DE3C19B)	-0.294	-0.948	0.235	-6.409	46.448	-186.279	-79.76	9.68	-25.44	-45.962	-38.318	74.186	0.77713	-0.51474	0.28741	0.22000	31.1	13111	100
2025-3-27 18:25:39.883	WT901BLE68-01(48591DE3C19B)	-0.382	-0.948	0.235	-6.409	46.448	-186.279	-79.94	7.93	-26.25	-45.962	-38.318	74.186	0.77713	-0.51474	0.28741	0.22000	31.1	13111	100
2025-3-27 18:25:39.884	WT901BLE68-01(48591DE3C19B)	-0.382	-0.951	0.272	-2.869	48.523	-189.453	-80.06	6.17	-27.06	-45.962	-38.318	74.186	0.77713	-0.51474	0.28741	0.22000	31.1	13111	100
2025-3-27 18:25:39.884	WT901BLE68-01(48591DE3C19B)	-0.482	-0.951	0.272	-2.869	48.523	-189.453	-80.15	4.43	-27.86	-45.962	-38.318	74.186	0.77713	-0.51474	0.28741	0.22000	31.1	13111	100
2025-3-27 18:25:39.943	WT901BLE68-01(48591DE3C19B)	-0.482	-0.959	0.295	4.883	45.776	-186.829	-80.14	2.73	-28.61	-45.962	-38.318	74.186	0.77713	-0.51474	0.28741	0.22000	31.1	13111	100
2025-3-27 18:25:39.943	WT901BLE68-01(48591DE3C19B)	-0.555	-0.959	0.295	4.883	45.776	-186.829	-80.11	1.04	-29.35	-45.962	-38.318	74.186	0.77713	-0.51474	0.28741	0.22000	31.1	13111	100
2025-3-27 18:25:39.943	WT901BLE68-01(48591DE3C19B)	-0.555	-0.922	0.277	13.916	42.480	-177.795	-79.96	-0.53	-30.04	-45.962	-38.318	74.186	0.77713	-0.51474	0.28741	0.22000	31.1	13111	100
2025-3-27 18:25:39.943	WT901BLE68-01(48591DE3C19B)	-0.585	-0.922	0.277	13.916	42.480	-177.795	-79.79	-2.10	-30.72	-45.962	-38.318	74.186	0.77713	-0.51474	0.28741	0.22000	31.1	13111	100
2025-3-27 18:25:39.972	WT901BLE68-01(48591DE3C19B)	-0.585	-0.870	0.246	18.066	31.982	-161.560	-79.57	-3.50	-31.27	-45.962	-38.318	74.186	0.77713	-0.51474	0.28741	0.22000	31.1	13111	100
2025-3-27 18:25:39.972	WT901BLE68-01(48591DE3C19B)	-0.600	-0.870	0.246	18.066	31.982	-161.560	-79.35	-4.88	-31.81	-45.962	-38.318	74.186	0.77713	-0.51474	0.28741	0.22000	31.1	13111	100
2025-3-27 18:25:39.972	WT901BLE68-01(48591DE3C19B)	-0.556	-0.854	0.239	19.409	13.794	-139.587	-79.12	-6.06	-32.14	-45.962	-38.318	74.186	0.77713	-0.51474	0.28741	0.22000	31.1	13111	100
2025-3-27 18:25:39.972	WT901BLE68-01(48591DE3C19B)	-0.556	-0.870	0.250	19.897	1.160	-116.455	-78.89	-7.13	-32.37	-45.962	-38.318	74.186	0.77713	-0.51474	0.28741	0.22000	31.1	13111	100
2025-3-27 18:25:40.3	WT901BLE68-01(48591DE3C19B)	-0.485	-0.870	0.250	19.897	1.160	-116.455	-78.67	-8.09	-32.52	-45.962	-38.318	74.186	0.77713	-0.51474	0.28741	0.22000	31.1	13111	100
2025-3-27 18:25:40.3	WT901BLE68-01(48591DE3C19B)	-0.485	-0.933	0.286	19.043	6.042	-92.163	-78.45	-8.91	-32.67	-45.962	-38.318	74.186	0.77713	-0.51474	0.28741	0.22000	31.1	13111	100
2025-3-27 18:25:40.3	WT901BLE68-01(48591DE3C19B)	-0.491	-0.933	0.286	19.043	6.042	-92.163	-78.23	-9.60	-32.82	-45.962	-38.318	74.186	0.77713	-0.51474	0.28741	0.22000	31.1	13111	100
2025-3-27 18:25:40.3	WT901BLE68-01(48591DE3C19B)	-0.491	-1.066	0.323	19.287	25.879	-70.007	-77.99	-10.16	-33.05	-45.962	-38.318	74.186	0.77713	-0.51474	0.28741	0.22000	31.1	13111	100
2025-3-27 18:25:40.64	WT901BLE68-01(48591DE3C19B)	-0.561	-1.066	0.323	19.287	25.879	-70.007	-77.74	-10.58	-33.36	-45.962	-38.318	74.186	0.77713	-0.51474	0.28741	0.22000	31.1	13111	100
2025-3-27 18:25:40.64	WT901BLE68-01(48591DE3C19B)	-0.561	-1.188	0.352	20.813	46.509	-53.223	-77.46	-10.89	-33.76	-45.962	-38.318	74.186	0.77713	-0.51474	0.28741	0.22000	31.1	13111	100
2025-3-27 18:25:40.64	WT901BLE68-01(48591DE3C19B)	-0.625	-1.188	0.352	20.813	46.509	-53.223	-77.16	-11.10	-34.23	-45.962	-38.318	74.186	0.77713	-0.51474	0.28741	0.22000	31.1	13111	100
2025-3-27 18:25:40.64	WT901BLE68-01(48591DE3C19B)	-0.625	-1.245	0.379	20.935	62.012	-39.795	-76.84	-11.22	-34.78	-45.962	-38.318	74.186	0.77713	-0.51474	0.28741	0.22000	31.1	13111	100
2025-3-27 18:25:40.123	WT901BLE68-01(48591DE3C19B)	-0.684	-1.245	0.379	20.935	62.012	-39.795	-76.51	-11.26	-35.38	-45.962	-38.318	74.186	0.77713	-0.51474	0.28741	0.22000	31.1	13111	100
2025-3-27 18:25:40.123	WT901BLE68-01(48591DE3C19B)	-0.684	-1.210	0.383	17.944	69.763	-28.931	-76.20	-11.22	-36.00	-45.962	-38.318	74.186	0.77713	-0.51474	0.28741	0.22000	31.1	13111	100
2025-3-27 18:25:40.123	WT901BLE68-01(48591DE3C19B)	-0.699	-1.210	0.383	17.944	69.763	-28.931	-75.90	-11.12	-36.65	-45.962	-38.318	74.186	0.77713	-0.51474	0.28741	0.22000	31.1	13111	100
2025-3-27 18:25:40.123	WT901BLE68-01(48591DE3C19B)	-0.699	-1.106	0.360	12.146	69.641	-17.029	-75.63	-10.96	-37.27	-45.962	-38.318	74.186	0.77713	-0.51474	0.28741	0.22000	31.1	13111	100
2025-3-27 18:25:40.124	WT901BLE68-01(48591DE3C19B)	-0.689	-1.106	0.360	12.146	69.641	-17.029	-75.40	-10.73	-37.88	-45.962	-38.318	74.186	0.77713	-0.51474	0.28741	0.22000	31.1	13111	100
2025-3-27 18:25:40.124	WT901BLE68-01(48591DE3C19B)	-0.689	-1.046	0.318	1.221	63.599	-3.479	-75.24	-10.44	-38.42	-45.962	-38.318	74.186	0.77713	-0.51474	0.28741	0.22000	31.1	13111	100
2025-3-27 18:25:40.124	WT901BLE68-01(48591DE3C19B)	-0.719	-1.046	0.318	1.221	63.599	-3.479	-75.15	-10.10	-38.92	-45.962	-38.318	74.186	0.77713	-0.51474	0.28741	0.22000	31.1	13111	100
2025-3-27 18:25:40.125	WT901BLE68-01(48591DE3C19B)	-0.719	-1.040	0.300	-9.277	47.607	9.521	-75.14	-9.71	-39.33	-45.962	-38.318	74.186	0.77713	-0.51474	0.28741	0.22000	31.1	13111	100
2025-3-27 18:25:40.183	WT901BLE68-01(48591DE3C19B)	-0.769	-1.040	0.300	-9.277	47.607	9.521	-75.19	-9.27	-39.62	-45.962	-38.318	74.186	0.77713	-0.51474	0.28741	0.22000	31.1	13111	100
2025-3-27 18:25:40.183	WT901BLE68-01(48591DE3C19B)	-0.769	-1.010	0.294	-17.578	13.123	23.621	-75.32	-8.81	-39.73	-45.962	-38.318	74.186	0.77713	-0.51474	0.28741	0.22000	31.1	13111	100
2025-3-27 18:25:40.184	WT901BLE68-01(48591DE3C19B)	-0.763	-1.010	0.294	-17.578	13.123	23.621	-75.53	-8.33	-39.65	-45.962	-38.318	74.186	0.77713	-0.51474	0.28741	0.22000	31.1	13111	100
2025-3-27 18:25:40.184	WT901BLE68-01(48591DE3C19B)	-0.763	-0.926	0.272	-24.231	-29.602	40.405	-75.80	-7.82	-39.34	-45.962	-38.318	74.186	0.77713	-0.51474	0.28741	0.22000	31.1	13111	100
2025-3-27 18:25:40.212	WT901BLE68-01(48591DE3C19B)	-0.719	-0.926	0.272	-24.231	-29.602	40.405	-76.13	-7.27	-38.80	-45.962	-38.318	74.186	0.77713	-0.51474	0.28741	0.22000	31.1	13111	100
2025-3-27 18:25:40.212	WT901BLE68-01(48591DE3C19B)	-0.359	-0.863	0.234	-28.870	-68.176	61.951	-76.50	-6.66	-38.05	-45.962	-38.318	74.186	0.77713	-0.51474	0.28741	0.22000	31.1	13111	100
2025-3-27 18:25:40.212	WT901BLE68-01(48591DE3C19B)	-0.640	-0.431	0.117	-28.870	-68.176	61.951	-76.92	-5.99	-37.10	-45.962	-38.318	74.186	0.77713	-0.51474	0.28741	0.22000	31.1	13111	100
2025-3-27 18:25:40.212	WT901BLE68-01(48591DE3C19B)	-0.640	-0.832	0.186	-30.823	-96.924	87.524	-77.34	-5.22	-35.97	-45.962	-38.318	74.186	0.77713	-0.51474	0.28741	0.22000	31.1	13111	100
2025-3-27 18:25:40.243	WT901BLE68-01(48591DE3C19B)	-0.545	-0.832	0.186	-30.823	-96.924	87.524	-77.77	-4.36	-34.70	-45.962	-38.318	74.186	0.77713	-0.51474	0.28741	0.22000	31.1	13111	100
2025-3-27 18:25:40.243	WT901BLE68-01(48591DE3C19B)	-0.545	-0.839	0.100	-31.555	-117.493	114.319	-78.20	-3.37	-33.31	-45.962	-38.318	74.186	0.77713	-0.51474	0.28741	0.22000	31.1	13111	100
2025-3-27 18:25:40.244	WT901BLE68-01(48591DE3C19B)	-0.446	-0.839	0.100	-31.555	-117.493	114.319	-78.61	-2.28	-31.79	-45.962	-38.318	74.186	0.77713	-0.51474	0.28741	0.22000	31.1	13111	100
2025-3-27 18:25:40.244	WT901BLE68-01(48591DE3C19B)	-0.446	-0.913	0.039	-30.579	-132.385	140.442	-78.99	-1.07	-30.20	-45.962	-38.318	74.186	0.77713	-0.51474	0.28741	0.22000	31.1	13111	100
2025-3-27 18:25:40.303	WT901BLE68-01(48591DE3C19B)	-0.355	-0.913	0.039	-30.579	-132.385	140.442	-79.32	0.25	-28.53	-45.962	-38.318	74.186	0.77713	-0.51474	0.28741	0.22000	31.1	13111	100
2025-3-27 18:25:40.303	WT901BLE68-01(48591DE3C19B)	-0.355	-1.134	0.040	-25.085	-136.841	161.560	-79.60	1.66	-26.83	-45.962	-38.318	74.186	0.77713	-0.51474	0.28741	0.22000	31.1	13111	100
2025-3-27 18:25:40.303	WT901BLE68-01(48591DE3C19B)	-0.252	-1.134	0.040	-25.085	-136.841	161.560	-79.80	3.18	-25.11	-45.962	-38.318	74.186	0.77713	-0.51474	0.28741	0.22000	31.1	13111	100
2025-3-27 18:25:40.303	WT901BLE68-01(48591DE3C19B)	-0.252	-1.344	0.019	-9.094	-124.512	174.805	-79.88	4.75	-23.46	-45.962	-38.318	74.186	0.77713	-0.51474	0.28741	0.22000	31.1	13111	100
2025-3-27 18:25:40.332	WT901BLE68-01(48591DE3C19B)	-0.145	-1.344	0.019	-9.094	-124.512	174.805	-79.84	6.37	-21.87	-43.022	-36.162	77.812	0.77713	-0.51474	0.28741	0.22000	31.1	13111	100
2025-3-27 18:25:40.332	WT901BLE68-01(48591DE3C19B)	-0.145	-1.390	-0.009	9.766	-96.741	183.472	-79.68	8.04	-20.41	-43.022	-36.162	77.812	0.77713	-0.51474	0.28741	0.22000	31.1	13111	100
2025-3-27 18:25:40.332	WT901BLE68-01(48591DE3C19B)	-0.119	-1.390	-0.009	9.766	-96.741	183.472	-79.41	9.74	-19.09	-43.022	-36.162	77.812	0.77713	-0.51474	0.28741	0.22000	31.1	13111	100
2025-3-27 18:25:40.332	WT901BLE68-01(48591DE3C19B)	-0.119	-1.291	0.000	22.583	-61.401	189.331	-79.07	11.49	-17.94	-43.022	-36.162	77.812	0.77713	-0.51474	0.28741	0.22000	31.1	13111	100
2025-3-27 18:25:40.393	WT901BLE68-01(48591DE3C19B)	-0.143	-1.291	0.000	22.583	-61.401	189.331	-78.67	13.27	-16.95	-43.022	-36.162	77.812	0.77713	-0.51474	0.28741	0.22000	31.1	13111	100
2025-3-27 18:25:40.393	WT901BLE68-01(48591DE3C19B)	-0.143	-1.138	0.024	23.865	-24.109	190.552	-78.28	15.06	-16.14	-43.022	-36.162	77.812	0.77713	-0.51474	0.28741	0.22000	31.1	13111	100
2025-3-27 18:25:40.394	WT901BLE68-01(48591DE3C19B)	-0.187	-1.138	0.024	23.865	-24.109	190.552	-77.90	16.88	-15.51	-43.022	-36.162	77.812	0.77713	-0.51474	0.28741	0.22000	31.1	13111	100
2025-3-27 18:25:40.394	WT901BLE68-01(48591DE3C19B)	-0.187	-0.997	0.054	18.066	10.071	193.237	-77.60	18.73	-15.04	-43.022	-36.162	77.812	0.77713	-0.51474	0.28741	0.22000	31.1	13111	100
2025-3-27 18:25:40.423	WT901BLE68-01(48591DE3C19B)	-0.249	-0.997	0.054	18.066	10.071	193.237	-77.35	20.61	-14.73	-43.022	-36.162	77.812	0.77713	-0.51474	0.28741	0.22000	31.1	13111	100
2025-3-27 18:25:40.423	WT901BLE68-01(48591DE3C19B)	-0.249	-0.911	0.092	9.583	31.372	198.059	-77.18	22.53	-14.52	-43.022	-36.162	77.812	0.77713	-0.51474	0.28741	0.22000	31.1	13111	100
2025-3-27 18:25:40.423	WT901BLE68-01(48591DE3C19B)	-0.259	-0.911	0.092	9.583	31.372	198.059	-77.09	24.48	-14.41	-43.022	-36.162	77.812	0.77713	-0.51474	0.28741	0.22000	31.1	13111	100
2025-3-27 18:25:40.423	WT901BLE68-01(48591DE3C19B)	-0.259	-0.900	0.117	2.380	39.001	202.332	-77.03	26.44	-14.34	-43.022	-36.162	77.812	0.77713	-0.51474	0.28741	0.22000	31.1	13111	100
2025-3-27 18:25:40.452	WT901BLE68-01(48591DE3C19B)	-0.258	-0.900	0.117	2.380	39.001	202.332	-77.03	28.43	-14.29	-43.022	-36.162	77.812	0.77713	-0.51474	0.28741	0.22000	31.1	13111	100
2025-3-27 18:25:40.452	WT901BLE68-01(48591DE3C19B)	-0.258	-0.922	0.096	-6.226	37.781	206.970	-77.10	30.45	-14.23	-43.022	-36.162	77.812	0.77713	-0.51474	0.28741	0.22000	31.1	13111	100
2025-3-27 18:25:40.452	WT901BLE68-01(48591DE3C19B)	-0.252	-0.922	0.096	-6.226	37.781	206.970	-77.16	32.45	-14.17	-43.022	-36.162	77.812	0.77713	-0.51474	0.28741	0.22000	31.1	13111	100
2025-3-27 18:25:40.452	WT901BLE68-01(48591DE3C19B)	-0.252	-0.986	0.038	-16.602	29.297	206.055	-77.27	34.42	-14.02	-43.022	-36.162	77.812	0.77713	-0.51474	0.28741	0.22000	31.1	13111	100
2025-3-27 18:25:40.485	WT901BLE68-01(48591DE3C19B)	-0.263	-0.986	0.038	-16.602	29.297	206.055	-77.39	36.37	-13.88	-43.022	-36.162	77.812	0.77713	-0.51474	0.28741	0.22000	31.1	13111	100
2025-3-27 18:25:40.485	WT901BLE68-01(48591DE3C19B)	-0.263	-1.103	0.003	-26.855	14.038	198.975	-77.50	38.21	-13.57	-43.022	-36.162	77.812	0.77713	-0.51474	0.28741	0.22000	31.1	13111	100
2025-3-27 18:25:40.485	WT901BLE68-01(48591DE3C19B)	-0.308	-1.103	0.003	-26.855	14.038	198.975	-77.61	40.04	-13.27	-43.022	-36.162	77.812	0.77713	-0.51474	0.28741	0.22000	31.1	13111	100
2025-3-27 18:25:40.485	WT901BLE68-01(48591DE3C19B)	-0.308	-1.308	0.020	-35.400	-7.507	187.622	-77.63	41.70	-12.72	-43.022	-36.162	77.812	0.77713	-0.51474	0.28741	0.22000	31.1	13111	100
2025-3-27 18:25:40.542	WT901BLE68-01(48591DE3C19B)	-0.368	-1.308	0.020	-35.400	-7.507	187.622	-77.63	43.36	-12.17	-43.022	-36.162	77.812	0.77713	-0.51474	0.28741	0.22000	31.1	13111	100
2025-3-27 18:25:40.543	WT901BLE68-01(48591DE3C19B)	-0.368	-1.535	0.045	-38.330	-37.964	172.363	-77.39	44.79	-11.23	-43.022	-36.162	77.812	0.74142	-0.54611	0.35248	0.16635	31.1	13111	100
2025-3-27 18:25:40.543	WT901BLE68-01(48591DE3C19B)	-0.366	-1.535	0.045	-38.330	-37.964	172.363	-77.11	46.20	-10.28	-43.022	-36.162	77.812	0.74142	-0.54611	0.35248	0.16635	31.1	13111	100
2025-3-27 18:25:40.543	WT901BLE68-01(48591DE3C19B)	-0.366	-1.692	0.092	-34.851	-69.885	149.963	-76.49	47.32	-8.92	-43.022	-36.162	77.812	0.74142	-0.54611	0.35248	0.16635	31.1	13111	100
2025-3-27 18:25:40.572	WT901BLE68-01(48591DE3C19B)	-0.286	-1.692	0.092	-34.851	-69.885	149.963	-75.81	48.41	-7.51	-43.022	-36.162	77.812	0.74142	-0.54611	0.35248	0.16635	31.1	13111	100
2025-3-27 18:25:40.572	WT901BLE68-01(48591DE3C19B)	-0.286	-1.776	0.140	-28.687	-96.069	122.375	-74.82	49.15	-5.80	-43.022	-36.162	77.812	0.74142	-0.54611	0.35248	0.16635	31.1	13111	100
2025-3-27 18:25:40.572	WT901BLE68-01(48591DE3C19B)	-0.132	-1.776	0.140	-28.687	-96.069	122.375	-73.80	49.87	-4.05	-43.022	-36.162	77.812	0.74142	-0.54611	0.35248	0.16635	31.1	13111	100
2025-3-27 18:25:40.572	WT901BLE68-01(48591DE3C19B)	-0.132	-1.765	0.155	-21.729	-106.445	91.797	-72.65	50.23	-2.27	-43.022	-36.162	77.812	0.74142	-0.54611	0.35248	0.16635	31.1	13111	100
2025-3-27 18:25:40.603	WT901BLE68-01(48591DE3C19B)	0.042	-1.765	0.155	-21.729	-106.445	91.797	-71.49	50.56	-0.47	-43.022	-36.162	77.812	0.74142	-0.54611	0.35248	0.16635	31.1	13111	100
2025-3-27 18:25:40.603	WT901BLE68-01(48591DE3C19B)	0.042	-1.561	0.173	-12.634	-97.900	56.274	-70.47	50.56	1.01	-43.022	-36.162	77.812	0.74142	-0.54611	0.35248	0.16635	31.1	13111	100
2025-3-27 18:25:40.603	WT901BLE68-01(48591DE3C19B)	0.176	-1.561	0.173	-12.634	-97.900	56.274	-69.47	50.54	2.48	-43.022	-36.162	77.812	0.74142	-0.54611	0.35248	0.16635	31.1	13111	100
2025-3-27 18:25:40.603	WT901BLE68-01(48591DE3C19B)	0.176	-1.308	0.230	-10.559	-69.763	18.677	-68.94	50.25	3.31	-43.022	-36.162	77.812	0.74142	-0.54611	0.35248	0.16635	31.1	13111	100
2025-3-27 18:25:40.662	WT901BLE68-01(48591DE3C19B)	0.179	-1.308	0.230	-10.559	-69.763	18.677	-68.42	49.94	4.11	-43.022	-36.162	77.812	0.74142	-0.54611	0.35248	0.16635	31.1	13111	100
2025-3-27 18:25:40.662	WT901BLE68-01(48591DE3C19B)	0.179	-1.149	0.301	-10.071	-27.344	-19.348	-68.54	49.44	4.08	-43.022	-36.162	77.812	0.74142	-0.54611	0.35248	0.16635	31.1	13111	100
2025-3-27 18:25:40.663	WT901BLE68-01(48591DE3C19B)	0.116	-1.149	0.301	-10.071	-27.344	-19.348	-68.67	48.93	4.04	-43.022	-36.162	77.812	0.74142	-0.54611	0.35248	0.16635	31.1	13111	100
2025-3-27 18:25:40.663	WT901BLE68-01(48591DE3C19B)	0.116	-1.120	0.273	-7.507	19.348	-61.096	-69.42	48.20	3.12	-43.022	-36.162	77.812	0.74142	-0.54611	0.35248	0.16635	31.1	13111	100
2025-3-27 18:25:40.694	WT901BLE68-01(48591DE3C19B)	0.081	-1.120	0.273	-7.507	19.348	-61.096	-70.14	47.46	2.23	-43.022	-36.162	77.812	0.74142	-0.54611	0.35248	0.16635	31.1	13111	100
2025-3-27 18:25:40.694	WT901BLE68-01(48591DE3C19B)	0.081	-1.052	0.218	1.831	56.702	-97.839	-71.24	46.48	0.68	-43.022	-36.162	77.812	0.74142	-0.54611	0.35248	0.16635	31.1	13111	100
2025-3-27 18:25:40.695	WT901BLE68-01(48591DE3C19B)	0.026	-1.052	0.218	1.831	56.702	-97.839	-72.27	45.49	-0.80	-43.022	-36.162	77.812	0.74142	-0.54611	0.35248	0.16635	31.1	13111	100
2025-3-27 18:25:40.695	WT901BLE68-01(48591DE3C19B)	0.026	-0.961	0.171	7.690	76.782	-124.695	-73.44	44.30	-2.61	-43.022	-36.162	77.812	0.74142	-0.54611	0.35248	0.16635	31.1	13111	100
2025-3-27 18:25:40.753	WT901BLE68-01(48591DE3C19B)	-0.015	-0.961	0.171	7.690	76.782	-124.695	-74.54	43.07	-4.34	-43.022	-36.162	77.812	0.74142	-0.54611	0.35248	0.16635	31.1	13111	100
2025-3-27 18:25:40.753	WT901BLE68-01(48591DE3C19B)	-0.015	-0.947	0.166	14.465	81.970	-144.287	-75.57	41.66	-6.12	-43.512	-51.058	78.498	0.74142	-0.54611	0.35248	0.16635	31.1	13111	100
2025-3-27 18:25:40.753	WT901BLE68-01(48591DE3C19B)	-0.085	-0.947	0.166	14.465	81.970	-144.287	-76.53	40.24	-7.83	-43.512	-51.058	78.498	0.74142	-0.54611	0.35248	0.16635	31.1	13111	100
2025-3-27 18:25:40.753	WT901BLE68-01(48591DE3C19B)	-0.085	-0.971	0.165	21.362	78.674	-156.982	-77.32	38.67	-9.46	-43.512	-51.058	78.498	0.74142	-0.54611	0.35248	0.16635	31.1	13111	100
2025-3-27 18:25:40.783	WT901BLE68-01(48591DE3C19B)	-0.153	-0.971	0.165	21.362	78.674	-156.982	-78.04	37.10	-11.01	-43.512	-51.058	78.498	0.74142	-0.54611	0.35248	0.16635	31.1	13111	100
2025-3-27 18:25:40.783	WT901BLE68-01(48591DE3C19B)	-0.153	-0.977	0.152	27.405	67.444	-164.612	-78.56	35.43	-12.38	-43.512	-51.058	78.498	0.74142	-0.54611	0.35248	0.16635	31.1	13111	100
2025-3-27 18:25:40.783	WT901BLE68-01(48591DE3C19B)	-0.184	-0.977	0.152	27.405	67.444	-164.612	-79.01	33.76	-13.69	-43.512	-51.058	78.498	0.74142	-0.54611	0.35248	0.16635	31.1	13111	100
2025-3-27 18:25:40.784	WT901BLE68-01(48591DE3C19B)	-0.184	-0.993	0.117	28.687	55.603	-170.349	-79.32	32.01	-14.83	-43.512	-51.058	78.498	0.74142	-0.54611	0.35248	0.16635	31.1	13111	100
2025-3-27 18:25:40.812	WT901BLE68-01(48591DE3C19B)	-0.183	-0.993	0.117	28.687	55.603	-170.349	-79.59	30.28	-15.92	-43.512	-51.058	78.498	0.74142	-0.54611	0.35248	0.16635	31.1	13111	100
2025-3-27 18:25:40.812	WT901BLE68-01(48591DE3C19B)	-0.183	-1.005	0.112	28.503	47.852	-174.500	-79.78	28.51	-16.90	-43.512	-51.058	78.498	0.74142	-0.54611	0.35248	0.16635	31.1	13111	100
2025-3-27 18:25:40.812	WT901BLE68-01(48591DE3C19B)	-0.202	-1.005	0.112	28.503	47.852	-174.500	-79.93	26.74	-17.85	-43.512	-51.058	78.498	0.74142	-0.54611	0.35248	0.16635	31.1	13111	100
2025-3-27 18:25:40.812	WT901BLE68-01(48591DE3C19B)	-0.202	-1.021	0.131	26.489	46.570	-180.481	-80.06	24.93	-18.76	-43.512	-51.058	78.498	0.74142	-0.54611	0.35248	0.16635	31.1	13111	100
2025-3-27 18:25:40.872	WT901BLE68-01(48591DE3C19B)	-0.246	-1.021	0.131	26.489	46.570	-180.481	-80.15	23.13	-19.65	-43.512	-51.058	78.498	0.74142	-0.54611	0.35248	0.16635	31.1	13111	100
2025-3-27 18:25:40.872	WT901BLE68-01(48591DE3C19B)	-0.246	-1.006	0.153	25.391	46.204	-187.927	-80.23	21.26	-20.53	-43.512	-51.058	78.498	0.74142	-0.54611	0.35248	0.16635	31.1	13111	100
2025-3-27 18:25:40.872	WT901BLE68-01(48591DE3C19B)	-0.271	-1.006	0.153	25.391	46.204	-187.927	-80.28	19.41	-21.38	-43.512	-51.058	78.498	0.74142	-0.54611	0.35248	0.16635	31.1	13111	100
2025-3-27 18:25:40.872	WT901BLE68-01(48591DE3C19B)	-0.271	-0.961	0.171	23.071	43.335	-195.374	-80.31	17.50	-22.20	-43.512	-51.058	78.498	0.74142	-0.54611	0.35248	0.16635	31.1	13111	100
2025-3-27 18:25:40.905	WT901BLE68-01(48591DE3C19B)	-0.283	-0.961	0.171	23.071	43.335	-195.374	-80.32	15.61	-23.01	-43.512	-51.058	78.498	0.74142	-0.54611	0.35248	0.16635	31.1	13111	100
2025-3-27 18:25:40.905	WT901BLE68-01(48591DE3C19B)	-0.350	-0.928	0.200	19.775	44.189	-201.782	-80.33	13.66	-23.81	-43.512	-51.058	78.498	0.74142	-0.54611	0.35248	0.16635	31.1	13111	100
2025-3-27 18:25:40.905	WT901BLE68-01(48591DE3C19B)	-0.350	-0.964	0.238	17.578	49.133	-206.787	-80.32	11.72	-24.63	-43.512	-51.058	78.498	0.74142	-0.54611	0.35248	0.16635	31.1	13111	100
2025-3-27 18:25:40.905	WT901BLE68-01(48591DE3C19B)	-0.455	-0.964	0.238	17.578	49.133	-206.787	-80.30	9.76	-25.47	-43.512	-51.058	78.498	0.74142	-0.54611	0.35248	0.16635	31.1	13111	100
2025-3-27 18:25:40.937	WT901BLE68-01(48591DE3C19B)	-0.455	-1.042	0.271	18.616	52.979	-208.801	-80.26	7.82	-26.31	-43.512	-51.058	78.498	0.74142	-0.54611	0.35248	0.16635	31.1	13111	100
2025-3-27 18:25:40.937	WT901BLE68-01(48591DE3C19B)	-0.575	-1.042	0.271	18.616	52.979	-208.801	-80.17	5.90	-27.17	-43.512	-51.058	78.498	0.74142	-0.54611	0.35248	0.16635	31.1	13111	100
2025-3-27 18:25:40.937	WT901BLE68-01(48591DE3C19B)	-0.575	-1.108	0.255	23.865	51.331	-206.360	-80.04	4.00	-28.00	-43.512	-51.058	78.498	0.74686	-0.61746	0.17749	-0.17133	31.1	13111	100
2025-3-27 18:25:40.937	WT901BLE68-01(48591DE3C19B)	-0.629	-1.108	0.255	23.865	51.331	-206.360	-79.84	2.14	-28.82	-43.512	-51.058	78.498	0.74686	-0.61746	0.17749	-0.17133	31.1	13111	100
2025-3-27 18:25:41.23	WT901BLE68-01(48591DE3C19B)	-0.629	-1.130	0.211	27.771	41.016	-198.425	-79.60	0.33	-29.58	-43.512	-51.058	78.498	0.74686	-0.61746	0.17749	-0.17133	31.1	13111	100
2025-3-27 18:25:41.24	WT901BLE68-01(48591DE3C19B)	-0.604	-1.130	0.211	27.771	41.016	-198.425	-79.33	-1.43	-30.28	-43.512	-51.058	78.498	0.74686	-0.61746	0.17749	-0.17133	31.1	13111	100
2025-3-27 18:25:41.24	WT901BLE68-01(48591DE3C19B)	-0.604	-1.138	0.147	27.893	26.001	-187.317	-79.04	-3.13	-30.89	-43.512	-51.058	78.498	0.74686	-0.61746	0.17749	-0.17133	31.1	13111	100
2025-3-27 18:25:41.24	WT901BLE68-01(48591DE3C19B)	-0.604	-1.138	0.147	27.893	26.001	-187.317	-78.73	-4.77	-31.43	-43.512	-51.058	78.498	0.74686	-0.61746	0.17749	-0.17133	31.1	13111	100
2025-3-27 18:25:41.25	WT901BLE68-01(48591DE3C19B)	-0.604	-1.118	0.083	23.682	7.019	-173.401	-78.45	-6.34	-31.86	-43.512	-51.058	78.498	0.74686	-0.61746	0.17749	-0.17133	31.1	13111	100
2025-3-27 18:25:41.25	WT901BLE68-01(48591DE3C19B)	-0.666	-1.118	0.083	23.682	7.019	-173.401	-78.20	-7.86	-32.19	-43.512	-51.058	78.498	0.74686	-0.61746	0.17749	-0.17133	31.1	13111	100
2025-3-27 18:25:41.25	WT901BLE68-01(48591DE3C19B)	-0.666	-1.143	0.126	13.977	-13.611	-160.095	-78.01	-9.31	-32.40	-43.512	-51.058	78.498	0.74686	-0.61746	0.17749	-0.17133	31.1	13111	100
2025-3-27 18:25:41.25	WT901BLE68-01(48591DE3C19B)	-0.783	-1.143	0.126	13.977	-13.611	-160.095	-77.88	-10.71	-32.50	-43.512	-51.058	78.498	0.74686	-0.61746	0.17749	-0.17133	31.1	13111	100
2025-3-27 18:25:41.113	WT901BLE68-01(48591DE3C19B)	-0.783	-1.310	0.286	2.625	-32.532	-144.226	-77.83	-12.04	-32.49	-43.512	-51.058	78.498	0.74686	-0.61746	0.17749	-0.17133	31.1	13111	100
2025-3-27 18:25:41.113	WT901BLE68-01(48591DE3C19B)	-0.904	-1.310	0.286	2.625	-32.532	-144.226	-77.87	-13.29	-32.37	-43.512	-51.058	78.498	0.74686	-0.61746	0.17749	-0.17133	31.1	13111	100
2025-3-27 18:25:41.113	WT901BLE68-01(48591DE3C19B)	-0.904	-1.500	0.409	-0.366	-44.373	-121.521	-77.93	-14.45	-32.15	-43.512	-51.058	78.498	0.74686	-0.61746	0.17749	-0.17133	31.1	13111	100
2025-3-27 18:25:41.113	WT901BLE68-01(48591DE3C19B)	-0.824	-1.500	0.409	-0.366	-44.373	-121.521	-78.03	-15.49	-31.85	-43.512	-51.058	78.498	0.74686	-0.61746	0.17749	-0.17133	31.1	13111	100
2025-3-27 18:25:41.114	WT901BLE68-01(48591DE3C19B)	-0.824	-1.480	0.395	0.366	-31.860	-91.919	-78.12	-16.36	-31.57	-43.512	-51.058	78.498	0.74686	-0.61746	0.17749	-0.17133	31.1	13111	100
2025-3-27 18:25:41.114	WT901BLE68-01(48591DE3C19B)	-0.678	-1.480	0.395	0.366	-31.860	-91.919	-78.20	-17.07	-31.33	-43.512	-51.058	78.498	0.74686	-0.61746	0.17749	-0.17133	31.1	13111	100
2025-3-27 18:25:41.114	WT901BLE68-01(48591DE3C19B)	-0.678	-1.234	0.301	-1.648	5.981	-51.392	-78.24	-17.55	-31.24	-43.512	-51.058	78.498	0.74686	-0.61746	0.17749	-0.17133	31.1	13111	100
2025-3-27 18:25:41.114	WT901BLE68-01(48591DE3C19B)	-0.622	-1.234	0.301	-1.648	5.981	-51.392	-78.25	-17.78	-31.29	-43.512	-51.058	78.498	0.74686	-0.61746	0.17749	-0.17133	31.1	13111	100
2025-3-27 18:25:41.172	WT901BLE68-01(48591DE3C19B)	-0.622	-0.957	0.263	-10.315	44.373	-12.878	-78.26	-17.78	-31.50	-43.512	-51.058	78.498	0.74686	-0.61746	0.17749	-0.17133	31.1	13111	100
2025-3-27 18:25:41.172	WT901BLE68-01(48591DE3C19B)	-0.630	-0.957	0.263	-10.315	44.373	-12.878	-78.26	-17.55	-31.87	-43.512	-51.058	78.498	0.74686	-0.61746	0.17749	-0.17133	31.1	13111	100
2025-3-27 18:25:41.172	WT901BLE68-01(48591DE3C19B)	-0.630	-0.814	0.328	-21.729	63.232	25.024	-78.29	-17.12	-32.28	-43.512	-51.058	78.498	0.74686	-0.61746	0.17749	-0.17133	31.1	13111	100
2025-3-27 18:25:41.172	WT901BLE68-01(48591DE3C19B)	-0.652	-0.814	0.328	-21.729	63.232	25.024	-78.38	-16.48	-32.74	-43.806	-29.988	83.888	0.74686	-0.61746	0.17749	-0.17133	31.1	13111	100
2025-3-27 18:25:41.173	WT901BLE68-01(48591DE3C19B)	-0.652	-0.808	0.389	-28.442	57.922	60.120	-78.52	-15.68	-33.15	-43.806	-29.988	83.888	0.74686	-0.61746	0.17749	-0.17133	31.1	13111	100
2025-3-27 18:25:41.174	WT901BLE68-01(48591DE3C19B)	-0.649	-0.808	0.389	-28.442	57.922	60.120	-78.72	-14.71	-33.48	-43.806	-29.988	83.888	0.74686	-0.61746	0.17749	-0.17133	31.1	13111	100
2025-3-27 18:25:41.174	WT901BLE68-01(48591DE3C19B)	-0.649	-0.800	0.357	-28.992	42.847	91.064	-78.94	-13.61	-33.70	-43.806	-29.988	83.888	0.74686	-0.61746	0.17749	-0.17133	31.1	13111	100
2025-3-27 18:25:41.174	WT901BLE68-01(48591DE3C19B)	-0.655	-0.800	0.357	-28.992	42.847	91.064	-79.20	-12.38	-33.82	-43.806	-29.988	83.888	0.74686	-0.61746	0.17749	-0.17133	31.1	13111	100
2025-3-27 18:25:41.233	WT901BLE68-01(48591DE3C19B)	-0.655	-0.798	0.262	-29.358	23.804	118.652	-79.48	-11.04	-33.81	-43.806	-29.988	83.888	0.74686	-0.61746	0.17749	-0.17133	31.1	13111	100
2025-3-27 18:25:41.233	WT901BLE68-01(48591DE3C19B)	-0.680	-0.798	0.262	-29.358	23.804	118.652	-79.79	-9.57	-33.69	-43.806	-29.988	83.888	0.74686	-0.61746	0.17749	-0.17133	31.1	13111	100
2025-3-27 18:25:41.233	WT901BLE68-01(48591DE3C19B)	-0.680	-0.877	0.168	-30.884	4.761	137.939	-80.12	-8.04	-33.46	-43.806	-29.988	83.888	0.74686	-0.61746	0.17749	-0.17133	31.1	13111	100
2025-3-27 18:25:41.233	WT901BLE68-01(48591DE3C19B)	-0.698	-0.877	0.168	-30.884	4.761	137.939	-80.46	-6.44	-33.14	-43.806	-29.988	83.888	0.74686	-0.61746	0.17749	-0.17133	31.1	13111	100
2025-3-27 18:25:41.265	WT901BLE68-01(48591DE3C19B)	-0.698	-1.000	0.104	-29.297	-14.771	153.870	-80.81	-4.77	-32.71	-43.806	-29.988	83.888	0.74686	-0.61746	0.17749	-0.17133	31.1	13111	100
2025-3-27 18:25:41.265	WT901BLE68-01(48591DE3C19B)	-0.680	-1.000	0.104	-29.297	-14.771	153.870	-81.15	-3.06	-32.19	-43.806	-29.988	83.888	0.74686	-0.61746	0.17749	-0.17133	31.1	13111	100
2025-3-27 18:25:41.265	WT901BLE68-01(48591DE3C19B)	-0.680	-1.112	0.073	-25.269	-39.368	165.283	-81.45	-1.31	-31.55	-43.806	-29.988	83.888	0.74686	-0.61746	0.17749	-0.17133	31.1	13111	100
2025-3-27 18:25:41.265	WT901BLE68-01(48591DE3C19B)	-0.596	-1.112	0.073	-25.269	-39.368	165.283	-81.72	0.46	-30.79	-43.806	-29.988	83.888	0.74686	-0.61746	0.17749	-0.17133	31.1	13111	100
2025-3-27 18:25:41.294	WT901BLE68-01(48591DE3C19B)	-0.596	-1.178	0.070	-19.531	-65.918	173.706	-81.94	2.25	-29.90	-43.806	-29.988	83.888	0.74686	-0.61746	0.17749	-0.17133	31.1	13111	100
2025-3-27 18:25:41.294	WT901BLE68-01(48591DE3C19B)	-0.510	-1.178	0.070	-19.531	-65.918	173.706	-82.11	4.05	-28.90	-43.806	-29.988	83.888	0.74686	-0.61746	0.17749	-0.17133	31.1	13111	100
2025-3-27 18:25:41.294	WT901BLE68-01(48591DE3C19B)	-0.510	-1.228	0.090	-13.855	-87.341	181.335	-82.19	5.86	-27.79	-43.806	-29.988	83.888	0.74686	-0.61746	0.17749	-0.17133	31.1	13111	100
2025-3-27 18:25:41.294	WT901BLE68-01(48591DE3C19B)	-0.422	-1.228	0.090	-13.855	-87.341	181.335	-82.22	7.68	-26.58	-43.806	-29.988	83.888	0.74686	-0.61746	0.17749	-0.17133	31.1	13111	100
2025-3-27 18:25:41.353	WT901BLE68-01(48591DE3C19B)	-0.422	-1.287	0.086	-8.179	-99.792	189.575	-82.16	9.52	-25.30	-43.806	-29.988	83.888	0.74686	-0.61746	0.17749	-0.17133	31.1	13111	100
2025-3-27 18:25:41.353	WT901BLE68-01(48591DE3C19B)	-0.329	-1.287	0.086	-8.179	-99.792	189.575	-82.02	11.37	-23.95	-43.806	-29.988	83.888	0.74939	-0.62216	0.21063	-0.08276	31.1	13111	100
2025-3-27 18:25:41.353	WT901BLE68-01(48591DE3C19B)	-0.329	-1.279	0.073	-1.526	-96.313	196.472	-81.81	13.22	-22.62	-43.806	-29.988	83.888	0.74939	-0.62216	0.21063	-0.08276	31.1	13111	100
2025-3-27 18:25:41.353	WT901BLE68-01(48591DE3C19B)	-0.273	-1.279	0.073	-1.526	-96.313	196.472	-81.52	15.10	-21.29	-43.806	-29.988	83.888	0.74939	-0.62216	0.21063	-0.08276	31.1	13111	100
2025-3-27 18:25:41.382	WT901BLE68-01(48591DE3C19B)	-0.273	-1.198	0.079	1.831	-80.872	203.247	-81.21	17.03	-20.09	-43.806	-29.988	83.888	0.74939	-0.62216	0.21063	-0.08276	31.1	13111	100
2025-3-27 18:25:41.382	WT901BLE68-01(48591DE3C19B)	-0.261	-1.198	0.079	1.831	-80.872	203.247	-80.84	18.95	-18.89	-43.806	-29.988	83.888	0.74939	-0.62216	0.21063	-0.08276	31.1	13111	100
2025-3-27 18:25:41.382	WT901BLE68-01(48591DE3C19B)	-0.261	-1.129	0.112	1.770	-64.209	209.473	-80.49	20.92	-17.83	-43.806	-29.988	83.888	0.74939	-0.62216	0.21063	-0.08276	31.1	13111	100
2025-3-27 18:25:41.382	WT901BLE68-01(48591DE3C19B)	-0.258	-1.129	0.112	1.770	-64.209	209.473	-80.10	22.87	-16.75	-43.806	-29.988	83.888	0.74939	-0.62216	0.21063	-0.08276	31.1	13111	100
2025-3-27 18:25:41.411	WT901BLE68-01(48591DE3C19B)	-0.258	-1.130	0.133	1.099	-51.941	214.539	-79.71	24.88	-15.77	-43.806	-29.988	83.888	0.74939	-0.62216	0.21063	-0.08276	31.1	13111	100
2025-3-27 18:25:41.411	WT901BLE68-01(48591DE3C19B)	-0.231	-1.130	0.133	1.099	-51.941	214.539	-79.29	26.86	-14.77	-43.806	-29.988	83.888	0.74939	-0.62216	0.21063	-0.08276	31.1	13111	100
2025-3-27 18:25:41.411	WT901BLE68-01(48591DE3C19B)	-0.231	-1.145	0.125	2.197	-38.269	218.567	-78.88	28.88	-13.89	-43.806	-29.988	83.888	0.74939	-0.62216	0.21063	-0.08276	31.1	13111	100
2025-3-27 18:25:41.411	WT901BLE68-01(48591DE3C19B)	-0.177	-1.145	0.125	2.197	-38.269	218.567	-78.43	30.87	-12.97	-43.806	-29.988	83.888	0.74939	-0.62216	0.21063	-0.08276	31.1	13111	100
2025-3-27 18:25:41.473	WT901BLE68-01(48591DE3C19B)	-0.177	-1.179	0.099	3.296	-24.658	217.163	-78.01	32.86	-12.20	-43.806	-29.988	83.888	0.74939	-0.62216	0.21063	-0.08276	31.1	13111	100
2025-3-27 18:25:41.473	WT901BLE68-01(48591DE3C19B)	-0.116	-1.179	0.099	3.296	-24.658	217.163	-77.55	34.83	-11.39	-43.806	-29.988	83.888	0.74939	-0.62216	0.21063	-0.08276	31.1	13111	100
2025-3-27 18:25:41.473	WT901BLE68-01(48591DE3C19B)	-0.116	-1.249	0.098	2.319	-15.381	211.548	-77.14	36.74	-10.69	-43.806	-29.988	83.888	0.74939	-0.62216	0.21063	-0.08276	31.1	13111	100
2025-3-27 18:25:41.473	WT901BLE68-01(48591DE3C19B)	-0.039	-1.249	0.098	2.319	-15.381	211.548	-76.70	38.63	-9.96	-43.806	-29.988	83.888	0.74939	-0.62216	0.21063	-0.08276	31.1	13111	100
2025-3-27 18:25:41.504	WT901BLE68-01(48591DE3C19B)	-0.039	-1.383	0.099	0.793	-10.376	195.618	-76.30	40.35	-9.32	-43.806	-29.988	83.888	0.74939	-0.62216	0.21063	-0.08276	31.1	13111	100
2025-3-27 18:25:41.504	WT901BLE68-01(48591DE3C19B)	0.058	-1.383	0.099	0.793	-10.376	195.618	-75.87	42.06	-8.66	-43.806	-29.988	83.888	0.74939	-0.62216	0.21063	-0.08276	31.1	13111	100
2025-3-27 18:25:41.504	WT901BLE68-01(48591DE3C19B)	0.058	-1.553	0.115	-0.488	-7.874	171.143	-75.51	43.51	-8.10	-43.806	-29.988	83.888	0.74939	-0.62216	0.21063	-0.08276	31.1	13111	100
2025-3-27 18:25:41.504	WT901BLE68-01(48591DE3C19B)	0.161	-1.553	0.115	-0.488	-7.874	171.143	-75.13	44.95	-7.53	-43.806	-29.988	83.888	0.74939	-0.62216	0.21063	-0.08276	31.1	13111	100
2025-3-27 18:25:41.535	WT901BLE68-01(48591DE3C19B)	0.161	-1.717	0.143	0.000	-2.686	138.184	-74.86	46.05	-7.13	-43.806	-29.988	83.888	0.74939	-0.62216	0.21063	-0.08276	31.1	13111	100
2025-3-27 18:25:41.535	WT901BLE68-01(48591DE3C19B)	0.297	-1.717	0.143	0.000	-2.686	138.184	-74.58	47.15	-6.73	-43.806	-29.988	83.888	0.74939	-0.62216	0.21063	-0.08276	31.1	13111	100
2025-3-27 18:25:41.535	WT901BLE68-01(48591DE3C19B)	0.297	-1.819	0.205	14.404	13.367	101.135	-74.43	47.92	-6.72	-44.100	-49.196	85.064	0.74939	-0.62216	0.21063	-0.08276	31.1	13111	100
2025-3-27 18:25:41.535	WT901BLE68-01(48591DE3C19B)	0.288	-1.819	0.205	14.404	13.367	101.135	-74.28	48.67	-6.71	-44.100	-49.196	85.064	0.74939	-0.62216	0.21063	-0.08276	31.1	13111	100
2025-3-27 18:25:41.593	WT901BLE68-01(48591DE3C19B)	0.288	-1.646	0.241	18.921	37.842	60.486	-74.49	49.10	-7.23	-44.100	-49.196	85.064	0.74939	-0.62216	0.21063	-0.08276	31.1	13111	100
2025-3-27 18:25:41.593	WT901BLE68-01(48591DE3C19B)	0.315	-1.646	0.241	18.921	37.842	60.486	-74.70	49.51	-7.76	-44.100	-49.196	85.064	0.74939	-0.62216	0.21063	-0.08276	31.1	13111	100
2025-3-27 18:25:41.593	WT901BLE68-01(48591DE3C19B)	0.315	-1.439	0.249	8.362	73.975	8.667	-75.59	49.50	-9.05	-44.100	-49.196	85.064	0.74939	-0.62216	0.21063	-0.08276	31.1	13111	100
2025-3-27 18:25:41.593	WT901BLE68-01(48591DE3C19B)	0.329	-1.439	0.249	8.362	73.975	8.667	-76.46	49.48	-10.33	-44.100	-49.196	85.064	0.74939	-0.62216	0.21063	-0.08276	31.1	13111	100
2025-3-27 18:25:41.622	WT901BLE68-01(48591DE3C19B)	0.329	-1.266	0.193	1.953	93.628	-39.673	-77.74	49.00	-12.07	-44.100	-49.196	85.064	0.74939	-0.62216	0.21063	-0.08276	31.1	13111	100
2025-3-27 18:25:41.622	WT901BLE68-01(48591DE3C19B)	0.255	-1.266	0.193	1.953	93.628	-39.673	-78.99	48.51	-13.78	-44.100	-49.196	85.064	0.74939	-0.62216	0.21063	-0.08276	31.1	13111	100
2025-3-27 18:25:41.622	WT901BLE68-01(48591DE3C19B)	0.255	-1.134	0.162	0.122	71.899	-75.989	-80.03	47.59	-15.22	-44.100	-49.196	85.064	0.74939	-0.62216	0.21063	-0.08276	31.1	13111	100
2025-3-27 18:25:41.622	WT901BLE68-01(48591DE3C19B)	0.179	-1.134	0.162	0.122	71.899	-75.989	-81.02	46.66	-16.60	-44.100	-49.196	85.064	0.74939	-0.62216	0.21063	-0.08276	31.1	13111	100
2025-3-27 18:25:41.652	WT901BLE68-01(48591DE3C19B)	0.179	-1.111	0.116	5.981	34.790	-101.257	-81.55	45.42	-17.47	-44.100	-49.196	85.064	0.74939	-0.62216	0.21063	-0.08276	31.1	13111	100
2025-3-27 18:25:41.652	WT901BLE68-01(48591DE3C19B)	0.178	-1.111	0.116	5.981	34.790	-101.257	-82.05	44.18	-18.30	-44.100	-49.196	85.064	0.74939	-0.62216	0.21063	-0.08276	31.1	13111	100
2025-3-27 18:25:41.652	WT901BLE68-01(48591DE3C19B)	0.178	-1.079	0.060	15.503	0.916	-119.385	-82.12	42.71	-18.67	-44.100	-49.196	85.064	0.74939	-0.62216	0.21063	-0.08276	31.1	13111	100
2025-3-27 18:25:41.652	WT901BLE68-01(48591DE3C19B)	0.121	-1.079	0.060	15.503	0.916	-119.385	-82.19	41.25	-19.03	-44.100	-49.196	85.064	0.74939	-0.62216	0.21063	-0.08276	31.1	13111	100
2025-3-27 18:25:41.712	WT901BLE68-01(48591DE3C19B)	0.121	-1.089	0.021	15.747	-16.602	-131.409	-82.11	39.65	-19.17	-44.100	-49.196	85.064	0.74939	-0.62216	0.21063	-0.08276	31.1	13111	100
2025-3-27 18:25:41.712	WT901BLE68-01(48591DE3C19B)	0.003	-1.089	0.021	15.747	-16.602	-131.409	-82.02	38.07	-19.31	-44.100	-49.196	85.064	0.74939	-0.62216	0.21063	-0.08276	31.1	13111	100
2025-3-27 18:25:41.713	WT901BLE68-01(48591DE3C19B)	0.003	-1.182	-0.015	16.663	-28.992	-144.897	-81.85	36.34	-19.31	-44.100	-49.196	85.064	0.74939	-0.62216	0.21063	-0.08276	31.1	13111	100
2025-3-27 18:25:41.713	WT901BLE68-01(48591DE3C19B)	-0.110	-1.182	-0.015	16.663	-28.992	-144.897	-81.69	34.63	-19.32	-44.100	-49.196	85.064	0.74939	-0.62216	0.21063	-0.08276	31.1	13111	100
2025-3-27 18:25:41.743	WT901BLE68-01(48591DE3C19B)	-0.110	-1.160	0.014	20.020	-43.030	-157.349	-81.43	32.79	-19.19	-44.100	-49.196	85.064	0.74939	-0.62216	0.21063	-0.08276	31.1	13111	100
2025-3-27 18:25:41.743	WT901BLE68-01(48591DE3C19B)	-0.153	-1.160	0.014	20.020	-43.030	-157.349	-81.17	30.96	-19.06	-44.100	-49.196	85.064	0.74939	-0.62216	0.21063	-0.08276	31.1	13111	100
2025-3-27 18:25:41.743	WT901BLE68-01(48591DE3C19B)	-0.153	-1.166	0.094	14.709	-52.734	-168.701	-80.93	29.03	-18.85	-44.100	-49.196	85.064	0.74939	-0.62216	0.21063	-0.08276	31.1	13111	100
2025-3-27 18:25:41.743	WT901BLE68-01(48591DE3C19B)	-0.150	-1.166	0.094	14.709	-52.734	-168.701	-80.70	27.11	-18.65	-44.100	-49.196	85.064	0.75562	-0.59213	0.27823	0.02966	31.1	13111	100
2025-3-27 18:25:41.803	WT901BLE68-01(48591DE3C19B)	-0.150	-1.223	0.182	11.597	-47.180	-177.307	-80.55	25.13	-18.53	-44.100	-49.196	85.064	0.75562	-0.59213	0.27823	0.02966	31.1	13111	100
2025-3-27 18:25:41.803	WT901BLE68-01(48591DE3C19B)	-0.162	-1.223	0.182	11.597	-47.180	-177.307	-80.40	23.16	-18.41	-44.100	-49.196	85.064	0.75562	-0.59213	0.27823	0.02966	31.1	13111	100
2025-3-27 18:25:41.803	WT901BLE68-01(48591DE3C19B)	-0.162	-1.215	0.237	9.460	-24.841	-181.641	-80.36	21.20	-18.53	-44.100	-49.196	85.064	0.75562	-0.59213	0.27823	0.02966	31.1	13111	100
2025-3-27 18:25:41.803	WT901BLE68-01(48591DE3C19B)	-0.145	-1.215	0.237	9.460	-24.841	-181.641	-80.33	19.26	-18.65	-44.100	-49.196	85.064	0.75562	-0.59213	0.27823	0.02966	31.1	13111	100
2025-3-27 18:25:41.831	WT901BLE68-01(48591DE3C19B)	-0.145	-1.182	0.245	5.554	10.925	-187.134	-80.44	17.34	-19.15	-44.100	-49.196	85.064	0.75562	-0.59213	0.27823	0.02966	31.1	13111	100
2025-3-27 18:25:41.832	WT901BLE68-01(48591DE3C19B)	-0.155	-1.182	0.245	5.554	10.925	-187.134	-80.52	15.43	-19.63	-44.100	-49.196	85.064	0.75562	-0.59213	0.27823	0.02966	31.1	13111	100
2025-3-27 18:25:41.832	WT901BLE68-01(48591DE3C19B)	-0.218	-1.145	0.218	4.028	51.758	-191.650	-80.71	13.56	-20.51	-44.100	-49.196	85.064	0.75562	-0.59213	0.27823	0.02966	31.1	13111	100
2025-3-27 18:25:41.832	WT901BLE68-01(48591DE3C19B)	-0.218	-1.098	0.187	3.845	77.209	-198.669	-80.90	11.68	-21.51	-44.100	-49.196	85.064	0.75562	-0.59213	0.27823	0.02966	31.1	13111	100
2025-3-27 18:25:41.865	WT901BLE68-01(48591DE3C19B)	-0.255	-1.098	0.187	3.845	77.209	-198.669	-81.07	9.81	-22.62	-44.100	-49.196	85.064	0.75562	-0.59213	0.27823	0.02966	31.1	13111	100
2025-3-27 18:25:41.865	WT901BLE68-01(48591DE3C19B)	-0.255	-1.076	0.188	4.272	95.825	-204.285	-81.22	7.92	-23.81	-44.100	-49.196	85.064	0.75562	-0.59213	0.27823	0.02966	31.1	13111	100
2025-3-27 18:25:41.865	WT901BLE68-01(48591DE3C19B)	-0.347	-1.076	0.188	4.272	95.825	-204.285	-81.33	6.04	-25.07	-44.100	-49.196	85.064	0.75562	-0.59213	0.27823	0.02966	31.1	13111	100
2025-3-27 18:25:41.865	WT901BLE68-01(48591DE3C19B)	-0.347	-1.087	0.207	7.629	107.056	-205.505	-81.39	4.18	-26.37	-44.100	-49.196	85.064	0.75562	-0.59213	0.27823	0.02966	31.1	13111	100
2025-3-27 18:25:41.894	WT901BLE68-01(48591DE3C19B)	-0.488	-1.087	0.207	7.629	107.056	-205.505	-81.39	2.33	-27.71	-44.100	-49.196	85.064	0.75562	-0.59213	0.27823	0.02966	31.1	13111	100
2025-3-27 18:25:41.895	WT901BLE68-01(48591DE3C19B)	-0.488	-1.092	0.201	16.113	102.844	-202.637	-81.31	0.52	-29.03	-44.100	-49.196	85.064	0.75562	-0.59213	0.27823	0.02966	31.1	13111	100
2025-3-27 18:25:41.895	WT901BLE68-01(48591DE3C19B)	-0.581	-1.092	0.201	16.113	102.844	-202.637	-81.15	-1.26	-30.31	-44.100	-49.196	85.064	0.75562	-0.59213	0.27823	0.02966	31.1	13111	100
2025-3-27 18:25:41.895	WT901BLE68-01(48591DE3C19B)	-0.581	-1.053	0.207	28.687	77.881	-196.228	-80.88	-3.00	-31.45	-44.100	-49.196	85.064	0.75562	-0.59213	0.27823	0.02966	31.1	13111	100
2025-3-27 18:25:41.983	WT901BLE68-01(48591DE3C19B)	-0.619	-1.053	0.207	28.687	77.881	-196.228	-80.54	-4.71	-32.48	-44.100	-49.196	85.064	0.75562	-0.59213	0.27823	0.02966	31.1	13111	100
2025-3-27 18:25:41.983	WT901BLE68-01(48591DE3C19B)	-0.619	-0.994	0.247	37.476	32.410	-185.974	-80.13	-6.38	-33.26	-45.178	-37.142	89.866	0.75562	-0.59213	0.27823	0.02966	31.1	13111	100
2025-3-27 18:25:41.983	WT901BLE68-01(48591DE3C19B)	-0.552	-0.994	0.247	37.476	32.410	-185.974	-79.70	-8.01	-33.83	-45.178	-37.142	89.866	0.75562	-0.59213	0.27823	0.02966	31.1	13111	100
2025-3-27 18:25:41.983	WT901BLE68-01(48591DE3C19B)	-0.552	-0.934	0.275	36.621	-6.714	-167.969	-79.28	-9.56	-34.19	-45.178	-37.142	89.866	0.75562	-0.59213	0.27823	0.02966	31.1	13111	100
2025-3-27 18:25:41.984	WT901BLE68-01(48591DE3C19B)	-0.639	-0.934	0.275	36.621	-6.714	-167.969	-78.90	-11.05	-34.34	-45.178	-37.142	89.866	0.75562	-0.59213	0.27823	0.02966	31.1	13111	100
2025-3-27 18:25:41.984	WT901BLE68-01(48591DE3C19B)	-0.639	-0.936	0.227	29.785	-17.822	-144.409	-78.56	-12.42	-34.43	-45.178	-37.142	89.866	0.75562	-0.59213	0.27823	0.02966	31.1	13111	100
2025-3-27 18:25:41.984	WT901BLE68-01(48591DE3C19B)	-0.710	-0.936	0.227	29.785	-17.822	-144.409	-78.27	-13.67	-34.44	-45.178	-37.142	89.866	0.75562	-0.59213	0.27823	0.02966	31.1	13111	100
2025-3-27 18:25:41.985	WT901BLE68-01(48591DE3C19B)	-0.710	-1.019	0.220	22.949	-23.010	-125.671	-78.02	-14.82	-34.40	-45.178	-37.142	89.866	0.75562	-0.59213	0.27823	0.02966	31.1	13111	100
2025-3-27 18:25:42.14	WT901BLE68-01(48591DE3C19B)	-0.725	-1.019	0.220	22.949	-23.010	-125.671	-77.83	-15.86	-34.32	-45.178	-37.142	89.866	0.75562	-0.59213	0.27823	0.02966	31.1	13111	100
2025-3-27 18:25:42.15	WT901BLE68-01(48591DE3C19B)	-0.725	-1.158	0.267	18.066	-17.517	-108.032	-77.66	-16.81	-34.24	-45.178	-37.142	89.866	0.75562	-0.59213	0.27823	0.02966	31.1	13111	100
2025-3-27 18:25:42.15	WT901BLE68-01(48591DE3C19B)	-0.714	-1.158	0.267	18.066	-17.517	-108.032	-77.51	-17.66	-34.17	-45.178	-37.142	89.866	0.75562	-0.59213	0.27823	0.02966	31.1	13111	100
2025-3-27 18:25:42.15	WT901BLE68-01(48591DE3C19B)	-0.714	-1.293	0.304	15.076	-3.662	-87.036	-77.36	-18.37	-34.15	-45.178	-37.142	89.866	0.75562	-0.59213	0.27823	0.02966	31.1	13111	100
2025-3-27 18:25:42.72	WT901BLE68-01(48591DE3C19B)	-0.716	-1.293	0.304	15.076	-3.662	-87.036	-77.21	-18.97	-34.18	-45.178	-37.142	89.866	0.75562	-0.59213	0.27823	0.02966	31.1	13111	100
2025-3-27 18:25:42.73	WT901BLE68-01(48591DE3C19B)	-0.716	-1.380	0.334	12.512	20.691	-60.303	-77.05	-19.41	-34.30	-45.178	-37.142	89.866	0.75562	-0.59213	0.27823	0.02966	31.1	13111	100
2025-3-27 18:25:42.73	WT901BLE68-01(48591DE3C19B)	-0.663	-1.380	0.334	12.512	20.691	-60.303	-76.86	-19.68	-34.52	-45.178	-37.142	89.866	0.75562	-0.59213	0.27823	0.02966	31.1	13111	100
2025-3-27 18:25:42.73	WT901BLE68-01(48591DE3C19B)	-0.663	-1.292	0.349	14.832	53.528	-31.616	-76.61	-19.78	-34.88	-45.178	-37.142	89.866	0.75562	-0.59213	0.27823	0.02966	31.1	13111	100
2025-3-27 18:25:42.104	WT901BLE68-01(48591DE3C19B)	-0.621	-1.292	0.349	14.832	53.528	-31.616	-76.31	-19.69	-35.37	-45.178	-37.142	89.866	0.75562	-0.59213	0.27823	0.02966	31.1	13111	100
2025-3-27 18:25:42.104	WT901BLE68-01(48591DE3C19B)	-0.621	-1.109	0.336	5.676	84.900	0.671	-76.01	-19.41	-35.98	-45.178	-37.142	89.866	0.75562	-0.59213	0.27823	0.02966	31.1	13111	100
2025-3-27 18:25:42.105	WT901BLE68-01(48591DE3C19B)	-0.643	-1.109	0.336	5.676	84.900	0.671	-75.73	-18.94	-36.70	-45.178	-37.142	89.866	0.75562	-0.59213	0.27823	0.02966	31.1	13111	100
2025-3-27 18:25:42.105	WT901BLE68-01(48591DE3C19B)	-0.643	-1.014	0.339	-5.920	95.581	29.053	-75.51	-18.31	-37.44	-45.178	-37.142	89.866	0.75562	-0.59213	0.27823	0.02966	31.1	13111	100
2025-3-27 18:25:42.162	WT901BLE68-01(48591DE3C19B)	-0.697	-1.014	0.339	-5.920	95.581	29.053	-75.36	-17.53	-38.17	-45.178	-37.142	89.866	0.75562	-0.59213	0.27823	0.02966	31.1	13111	100
2025-3-27 18:25:42.163	WT901BLE68-01(48591DE3C19B)	-0.697	-0.960	0.368	-15.808	76.050	50.171	-75.30	-16.67	-38.78	-45.178	-37.142	89.866	0.70993	-0.60739	0.09677	-0.34293	31.1	13111	100
2025-3-27 18:25:42.163	WT901BLE68-01(48591DE3C19B)	-0.736	-0.960	0.368	-15.808	76.050	50.171	-75.34	-15.74	-39.25	-45.178	-37.142	89.866	0.70993	-0.60739	0.09677	-0.34293	31.1	13111	100
2025-3-27 18:25:42.163	WT901BLE68-01(48591DE3C19B)	-0.736	-0.895	0.367	-22.766	37.964	68.420	-75.48	-14.77	-39.51	-45.178	-37.142	89.866	0.70993	-0.60739	0.09677	-0.34293	31.1	13111	100
2025-3-27 18:25:42.192	WT901BLE68-01(48591DE3C19B)	-0.782	-0.895	0.367	-22.766	37.964	68.420	-75.71	-13.76	-39.55	-45.178	-37.142	89.866	0.70993	-0.60739	0.09677	-0.34293	31.1	13111	100
2025-3-27 18:25:42.192	WT901BLE68-01(48591DE3C19B)	-0.782	-0.818	0.307	-28.625	-6.226	87.952	-76.02	-12.71	-39.34	-45.178	-37.142	89.866	0.70993	-0.60739	0.09677	-0.34293	31.1	13111	100
2025-3-27 18:25:42.192	WT901BLE68-01(48591DE3C19B)	-0.801	-0.818	0.307	-28.625	-6.226	87.952	-76.41	-11.62	-38.90	-45.178	-37.142	89.866	0.70993	-0.60739	0.09677	-0.34293	31.1	13111	100
2025-3-27 18:25:42.192	WT901BLE68-01(48591DE3C19B)	-0.801	-0.814	0.205	-34.485	-52.307	109.253	-76.87	-10.48	-38.21	-45.178	-37.142	89.866	0.70993	-0.60739	0.09677	-0.34293	31.1	13111	100
2025-3-27 18:25:42.222	WT901BLE68-01(48591DE3C19B)	-0.737	-0.814	0.205	-34.485	-52.307	109.253	-77.38	-9.28	-37.28	-45.178	-37.142	89.866	0.70993	-0.60739	0.09677	-0.34293	31.1	13111	100
2025-3-27 18:25:42.223	WT901BLE68-01(48591DE3C19B)	-0.737	-0.922	0.121	-38.208	-95.825	131.592	-77.94	-8.01	-36.13	-45.178	-37.142	89.866	0.70993	-0.60739	0.09677	-0.34293	31.1	13111	100
2025-3-27 18:25:42.223	WT901BLE68-01(48591DE3C19B)	-0.652	-0.922	0.121	-38.208	-95.825	131.592	-78.51	-6.67	-34.76	-45.178	-37.142	89.866	0.70993	-0.60739	0.09677	-0.34293	31.1	13111	100
2025-3-27 18:25:42.223	WT901BLE68-01(48591DE3C19B)	-0.652	-1.055	0.074	-36.255	-129.761	153.137	-79.06	-5.26	-33.22	-45.178	-37.142	89.866	0.70993	-0.60739	0.09677	-0.34293	31.1	13111	100
2025-3-27 18:25:42.343	WT901BLE68-01(48591DE3C19B)	-0.569	-1.055	0.074	-36.255	-129.761	153.137	-79.58	-3.77	-31.51	-45.178	-37.142	89.866	0.70993	-0.60739	0.09677	-0.34293	31.1	13111	100
2025-3-27 18:25:42.343	WT901BLE68-01(48591DE3C19B)	-0.569	-1.220	0.059	-31.555	-156.494	170.715	-80.04	-2.21	-29.69	-45.178	-37.142	89.866	0.70993	-0.60739	0.09677	-0.34293	31.1	13111	100
2025-3-27 18:25:42.343	WT901BLE68-01(48591DE3C19B)	-0.460	-1.220	0.059	-31.555	-156.494	170.715	-80.43	-0.59	-27.74	-45.178	-37.142	89.866	0.70993	-0.60739	0.09677	-0.34293	31.1	13111	100
2025-3-27 18:25:42.343	WT901BLE68-01(48591DE3C19B)	-0.460	-1.406	0.073	-20.874	-172.363	185.547	-80.71	1.08	-25.72	-45.178	-37.142	89.866	0.70993	-0.60739	0.09677	-0.34293	31.1	13111	100
2025-3-27 18:25:42.344	WT901BLE68-01(48591DE3C19B)	-0.329	-1.406	0.073	-20.874	-172.363	185.547	-80.87	2.80	-23.64	-45.178	-37.142	89.866	0.70993	-0.60739	0.09677	-0.34293	31.1	13111	100
2025-3-27 18:25:42.344	WT901BLE68-01(48591DE3C19B)	-0.329	-1.495	0.082	-2.686	-167.236	196.106	-80.79	4.61	-21.59	-45.178	-37.142	89.866	0.70993	-0.60739	0.09677	-0.34293	31.1	13111	100
2025-3-27 18:25:42.345	WT901BLE68-01(48591DE3C19B)	-0.230	-1.495	0.082	-2.686	-167.236	196.106	-80.65	6.41	-19.56	-45.178	-37.142	89.866	0.70993	-0.60739	0.09677	-0.34293	31.1	13111	100
2025-3-27 18:25:42.345	WT901BLE68-01(48591DE3C19B)	-0.230	-1.428	0.090	13.062	-140.686	204.285	-80.31	8.29	-17.78	-45.178	-37.142	89.866	0.70993	-0.60739	0.09677	-0.34293	31.1	13111	100
2025-3-27 18:25:42.345	WT901BLE68-01(48591DE3C19B)	-0.207	-1.428	0.090	13.062	-140.686	204.285	-79.91	10.15	-15.99	-45.178	-37.142	89.866	0.70993	-0.60739	0.09677	-0.34293	31.1	13111	100
2025-3-27 18:25:42.345	WT901BLE68-01(48591DE3C19B)	-0.207	-1.345	0.107	23.254	-104.492	208.191	-79.43	12.07	-14.55	-45.178	-37.142	89.866	0.70993	-0.60739	0.09677	-0.34293	31.1	13111	100
2025-3-27 18:25:42.345	WT901BLE68-01(48591DE3C19B)	-0.197	-1.345	0.107	23.254	-104.492	208.191	-78.90	13.96	-13.08	-45.178	-37.142	89.866	0.70993	-0.60739	0.09677	-0.34293	31.1	13111	100
2025-3-27 18:25:42.346	WT901BLE68-01(48591DE3C19B)	-0.197	-1.244	0.144	30.029	-68.542	211.975	-78.34	15.92	-11.96	-45.178	-37.142	89.866	0.70993	-0.60739	0.09677	-0.34293	31.1	13111	100
2025-3-27 18:25:42.403	WT901BLE68-01(48591DE3C19B)	-0.179	-1.244	0.144	30.029	-68.542	211.975	-77.73	17.86	-10.81	-45.178	-37.142	89.866	0.70993	-0.60739	0.09677	-0.34293	31.1	13111	100
2025-3-27 18:25:42.403	WT901BLE68-01(48591DE3C19B)	-0.179	-1.154	0.170	32.471	-33.264	217.651	-77.17	19.91	-9.99	-36.750	-43.120	85.848	0.70993	-0.60739	0.09677	-0.34293	31.1	13111	100
2025-3-27 18:25:42.403	WT901BLE68-01(48591DE3C19B)	-0.189	-1.154	0.170	32.471	-33.264	217.651	-76.57	21.92	-9.14	-36.750	-43.120	85.848	0.70993	-0.60739	0.09677	-0.34293	31.1	13111	100
2025-3-27 18:25:42.403	WT901BLE68-01(48591DE3C19B)	-0.189	-1.071	0.140	33.508	-3.174	222.717	-76.05	24.04	-8.57	-36.750	-43.120	85.848	0.70993	-0.60739	0.09677	-0.34293	31.1	13111	100
2025-3-27 18:25:42.432	WT901BLE68-01(48591DE3C19B)	-0.205	-1.071	0.140	33.508	-3.174	222.717	-75.49	26.13	-7.98	-36.750	-43.120	85.848	0.70993	-0.60739	0.09677	-0.34293	31.1	13111	100
2025-3-27 18:25:42.433	WT901BLE68-01(48591DE3C19B)	-0.205	-0.992	0.110	29.175	17.029	226.135	-75.04	28.29	-7.56	-36.750	-43.120	85.848	0.70993	-0.60739	0.09677	-0.34293	31.1	13111	100
2025-3-27 18:25:42.433	WT901BLE68-01(48591DE3C19B)	-0.251	-0.992	0.110	29.175	17.029	226.135	-74.57	30.43	-7.14	-36.750	-43.120	85.848	0.70993	-0.60739	0.09677	-0.34293	31.1	13111	100
2025-3-27 18:25:42.433	WT901BLE68-01(48591DE3C19B)	-0.251	-1.082	0.103	19.714	21.729	227.173	-74.20	32.58	-6.73	-36.750	-43.120	85.848	0.70993	-0.60739	0.09677	-0.34293	31.1	13111	100
2025-3-27 18:25:42.465	WT901BLE68-01(48591DE3C19B)	-0.304	-1.082	0.103	19.714	21.729	227.173	-73.80	34.71	-6.31	-36.750	-43.120	85.848	0.70993	-0.60739	0.09677	-0.34293	31.1	13111	100
2025-3-27 18:25:42.466	WT901BLE68-01(48591DE3C19B)	-0.304	-1.266	0.128	12.329	9.827	223.694	-73.37	36.76	-5.73	-36.750	-43.120	85.848	0.70993	-0.60739	0.09677	-0.34293	31.1	13111	100
2025-3-27 18:25:42.466	WT901BLE68-01(48591DE3C19B)	-0.317	-1.266	0.128	12.329	9.827	223.694	-72.91	38.80	-5.13	-36.750	-43.120	85.848	0.70993	-0.60739	0.09677	-0.34293	31.1	13111	100
2025-3-27 18:25:42.466	WT901BLE68-01(48591DE3C19B)	-0.317	-1.533	0.127	6.104	-8.850	215.698	-72.34	40.68	-4.30	-36.750	-43.120	85.848	0.70993	-0.60739	0.09677	-0.34293	31.1	13111	100
2025-3-27 18:25:42.522	WT901BLE68-01(48591DE3C19B)	-0.252	-1.533	0.127	6.104	-8.850	215.698	-71.72	42.55	-3.43	-36.750	-43.120	85.848	0.70993	-0.60739	0.09677	-0.34293	31.1	13111	100
2025-3-27 18:25:42.522	WT901BLE68-01(48591DE3C19B)	-0.252	-1.780	0.078	6.042	-19.836	203.430	-71.00	44.24	-2.43	-36.750	-43.120	85.848	0.70993	-0.60739	0.09677	-0.34293	31.1	13111	100
2025-3-27 18:25:42.522	WT901BLE68-01(48591DE3C19B)	-0.166	-1.780	0.078	6.042	-19.836	203.430	-70.22	45.92	-1.38	-36.750	-43.120	85.848	0.70993	-0.60739	0.09677	-0.34293	31.1	13111	100
2025-3-27 18:25:42.522	WT901BLE68-01(48591DE3C19B)	-0.166	-1.940	0.039	8.240	-22.644	184.570	-69.42	47.38	-0.35	-36.750	-43.120	85.848	0.70993	-0.60739	0.09677	-0.34293	31.1	13111	100
2025-3-27 18:25:42.552	WT901BLE68-01(48591DE3C19B)	-0.088	-1.940	0.039	8.240	-22.644	184.570	-68.55	48.83	0.73	-36.750	-43.120	85.848	0.70993	-0.60739	0.09677	-0.34293	31.1	13111	100
2025-3-27 18:25:42.553	WT901BLE68-01(48591DE3C19B)	-0.088	-1.907	0.050	10.925	-23.010	155.945	-67.74	49.98	1.69	-36.750	-43.120	85.848	0.70993	-0.60739	0.09677	-0.34293	31.1	13111	100
2025-3-27 18:25:42.553	WT901BLE68-01(48591DE3C19B)	0.019	-1.907	0.050	10.925	-23.010	155.945	-66.88	51.12	2.69	-36.750	-43.120	85.848	0.70993	-0.60739	0.09677	-0.34293	31.1	13111	100
2025-3-27 18:25:42.553	WT901BLE68-01(48591DE3C19B)	0.019	-1.781	0.088	7.080	-19.714	120.483	-66.25	51.93	3.43	-36.750	-43.120	85.848	0.74460	-0.50037	0.35349	0.26486	31.1	13111	100
2025-3-27 18:25:42.585	WT901BLE68-01(48591DE3C19B)	0.139	-1.781	0.088	7.080	-19.714	120.483	-65.59	52.72	4.20	-36.750	-43.120	85.848	0.74460	-0.50037	0.35349	0.26486	31.1	13111	100
2025-3-27 18:25:42.585	WT901BLE68-01(48591DE3C19B)	0.139	-1.547	0.149	7.019	-3.601	83.252	-65.32	53.24	4.47	-36.750	-43.120	85.848	0.74460	-0.50037	0.35349	0.26486	31.1	13111	100
2025-3-27 18:25:42.585	WT901BLE68-01(48591DE3C19B)	0.216	-1.547	0.149	7.019	-3.601	83.252	-65.06	53.75	4.74	-36.750	-43.120	85.848	0.74460	-0.50037	0.35349	0.26486	31.1	13111	100
2025-3-27 18:25:42.585	WT901BLE68-01(48591DE3C19B)	0.216	-1.285	0.255	5.737	15.442	49.927	-65.23	54.02	4.46	-36.750	-43.120	85.848	0.74460	-0.50037	0.35349	0.26486	31.1	13111	100
2025-3-27 18:25:42.643	WT901BLE68-01(48591DE3C19B)	0.164	-1.285	0.255	5.737	15.442	49.927	-65.40	54.29	4.17	-36.750	-43.120	85.848	0.74460	-0.50037	0.35349	0.26486	31.1	13111	100
2025-3-27 18:25:42.643	WT901BLE68-01(48591DE3C19B)	0.164	-1.099	0.289	-0.183	29.114	12.756	-66.02	54.27	3.41	-36.750	-43.120	85.848	0.74460	-0.50037	0.35349	0.26486	31.1	13111	100
2025-3-27 18:25:42.643	WT901BLE68-01(48591DE3C19B)	0.178	-1.099	0.289	-0.183	29.114	12.756	-66.64	54.24	2.63	-36.750	-43.120	85.848	0.74460	-0.50037	0.35349	0.26486	31.1	13111	100
2025-3-27 18:25:42.643	WT901BLE68-01(48591DE3C19B)	0.178	-1.002	0.231	3.784	41.199	-28.748	-67.58	53.88	1.40	-36.750	-43.120	85.848	0.74460	-0.50037	0.35349	0.26486	31.1	13111	100
2025-3-27 18:25:42.671	WT901BLE68-01(48591DE3C19B)	0.202	-1.002	0.231	3.784	41.199	-28.748	-68.50	53.49	0.19	-36.750	-43.120	85.848	0.74460	-0.50037	0.35349	0.26486	31.1	13111	100
2025-3-27 18:25:42.671	WT901BLE68-01(48591DE3C19B)	0.202	-0.928	0.194	4.028	47.791	-64.575	-69.64	52.79	-1.31	-36.750	-43.120	85.848	0.74460	-0.50037	0.35349	0.26486	31.1	13111	100
2025-3-27 18:25:42.672	WT901BLE68-01(48591DE3C19B)	0.201	-0.928	0.194	4.028	47.791	-64.575	-70.72	52.06	-2.76	-36.750	-43.120	85.848	0.74460	-0.50037	0.35349	0.26486	31.1	13111	100
2025-3-27 18:25:42.672	WT901BLE68-01(48591DE3C19B)	0.201	-0.941	0.175	4.883	47.302	-96.130	-71.86	51.02	-4.31	-36.750	-43.120	85.848	0.74460	-0.50037	0.35349	0.26486	31.1	13111	100
2025-3-27 18:25:42.704	WT901BLE68-01(48591DE3C19B)	0.150	-0.941	0.175	4.883	47.302	-96.130	-72.93	49.97	-5.80	-36.750	-43.120	85.848	0.74460	-0.50037	0.35349	0.26486	31.1	13111	100
2025-3-27 18:25:42.704	WT901BLE68-01(48591DE3C19B)	0.150	-1.034	0.154	8.179	50.659	-123.901	-74.01	48.64	-7.38	-36.750	-43.120	85.848	0.74460	-0.50037	0.35349	0.26486	31.1	13111	100
2025-3-27 18:25:42.704	WT901BLE68-01(48591DE3C19B)	0.050	-1.034	0.154	8.179	50.659	-123.901	-75.02	47.30	-8.88	-36.750	-43.120	85.848	0.74460	-0.50037	0.35349	0.26486	31.1	13111	100
2025-3-27 18:25:42.705	WT901BLE68-01(48591DE3C19B)	0.050	-1.120	0.123	18.372	54.443	-146.362	-75.93	45.75	-10.44	-36.750	-43.120	85.848	0.74460	-0.50037	0.35349	0.26486	31.1	13111	100
2025-3-27 18:25:42.762	WT901BLE68-01(48591DE3C19B)	-0.035	-1.120	0.123	18.372	54.443	-146.362	-76.76	44.18	-11.90	-36.750	-43.120	85.848	0.74460	-0.50037	0.35349	0.26486	31.1	13111	100
2025-3-27 18:25:42.763	WT901BLE68-01(48591DE3C19B)	-0.103	-1.114	0.124	31.006	51.147	-160.828	-77.38	42.47	-13.29	-53.802	-53.606	82.908	0.74460	-0.50037	0.35349	0.26486	31.1	13111	100
2025-3-27 18:25:42.763	WT901BLE68-01(48591DE3C19B)	-0.103	-1.068	0.118	31.494	41.138	-178.101	-77.89	40.67	-14.57	-53.802	-53.606	82.908	0.74460	-0.50037	0.35349	0.26486	31.1	13111	100
2025-3-27 18:25:42.763	WT901BLE68-01(48591DE3C19B)	-0.136	-1.068	0.118	31.494	41.138	-178.101	-78.31	38.77	-15.73	-53.802	-53.606	82.908	0.74460	-0.50037	0.35349	0.26486	31.1	13111	100
2025-3-27 18:25:42.791	WT901BLE68-01(48591DE3C19B)	-0.136	-1.043	0.143	30.396	34.729	-194.824	-78.66	36.80	-16.83	-53.802	-53.606	82.908	0.74460	-0.50037	0.35349	0.26486	31.1	13111	100
2025-3-27 18:25:42.792	WT901BLE68-01(48591DE3C19B)	-0.178	-1.043	0.143	30.396	34.729	-194.824	-78.94	34.75	-17.85	-53.802	-53.606	82.908	0.74460	-0.50037	0.35349	0.26486	31.1	13111	100
2025-3-27 18:25:42.792	WT901BLE68-01(48591DE3C19B)	-0.178	-1.038	0.159	27.771	38.940	-211.853	-79.20	32.63	-18.86	-53.802	-53.606	82.908	0.74460	-0.50037	0.35349	0.26486	31.1	13111	100
2025-3-27 18:25:42.792	WT901BLE68-01(48591DE3C19B)	-0.120	-1.038	0.159	27.771	38.940	-211.853	-79.44	30.45	-19.87	-53.802	-53.606	82.908	0.74460	-0.50037	0.35349	0.26486	31.1	13111	100
2025-3-27 18:25:42.822	WT901BLE68-01(48591DE3C19B)	-0.120	-1.065	0.193	29.297	63.904	-231.018	-79.71	28.20	-21.00	-53.802	-53.606	82.908	0.74460	-0.50037	0.35349	0.26486	31.1	13111	100
2025-3-27 18:25:42.822	WT901BLE68-01(48591DE3C19B)	-0.045	-1.065	0.193	29.297	63.904	-231.018	-79.97	25.90	-22.24	-53.802	-53.606	82.908	0.74460	-0.50037	0.35349	0.26486	31.1	13111	100
2025-3-27 18:25:42.823	WT901BLE68-01(48591DE3C19B)	-0.045	-1.065	0.249	30.640	107.788	-248.840	-80.27	23.55	-23.68	-53.802	-53.606	82.908	0.74460	-0.50037	0.35349	0.26486	31.1	13111	100
2025-3-27 18:25:42.823	WT901BLE68-01(48591DE3C19B)	-0.273	-1.065	0.249	30.640	107.788	-248.840	-80.58	21.17	-25.32	-53.802	-53.606	82.908	0.74460	-0.50037	0.35349	0.26486	31.1	13111	100
2025-3-27 18:25:42.883	WT901BLE68-01(48591DE3C19B)	-0.273	-1.174	0.198	30.884	159.607	-253.906	-80.91	18.80	-27.20	-53.802	-53.606	82.908	0.74460	-0.50037	0.35349	0.26486	31.1	13111	100
2025-3-27 18:25:42.883	WT901BLE68-01(48591DE3C19B)	-0.572	-1.174	0.198	30.884	159.607	-253.906	-81.23	16.46	-29.28	-53.802	-53.606	82.908	0.74460	-0.50037	0.35349	0.26486	31.1	13111	100
2025-3-27 18:25:42.883	WT901BLE68-01(48591DE3C19B)	-0.572	-1.224	0.132	42.969	169.189	-264.526	-81.40	14.08	-31.37	-53.802	-53.606	82.908	0.74460	-0.50037	0.35349	0.26486	31.1	13111	100
2025-3-27 18:25:42.883	WT901BLE68-01(48591DE3C19B)	-0.616	-1.224	0.132	42.969	169.189	-264.526	-81.45	11.69	-33.46	-53.802	-53.606	82.908	0.74460	-0.50037	0.35349	0.26486	31.1	13111	100
2025-3-27 18:25:42.913	WT901BLE68-01(48591DE3C19B)	-0.616	-1.188	0.104	54.504	154.358	-270.752	-81.33	9.28	-35.46	-53.802	-53.606	82.908	0.74460	-0.50037	0.35349	0.26486	31.1	13111	100
2025-3-27 18:25:42.914	WT901BLE68-01(48591DE3C19B)	-0.716	-1.188	0.104	54.504	154.358	-270.752	-81.06	6.87	-37.35	-53.802	-53.606	82.908	0.74460	-0.50037	0.35349	0.26486	31.1	13111	100
2025-3-27 18:25:42.914	WT901BLE68-01(48591DE3C19B)	-0.716	-1.179	0.052	63.538	124.268	-265.015	-80.67	4.49	-39.09	-53.802	-53.606	82.908	0.74460	-0.50037	0.35349	0.26486	31.1	13111	100
2025-3-27 18:25:42.914	WT901BLE68-01(48591DE3C19B)	-0.805	-1.179	0.052	63.538	124.268	-265.015	-80.16	2.15	-40.67	-53.802	-53.606	82.908	0.74460	-0.50037	0.35349	0.26486	31.1	13111	100
2025-3-27 18:25:42.942	WT901BLE68-01(48591DE3C19B)	-0.805	-1.144	0.000	70.251	77.271	-252.319	-79.55	-0.11	-42.00	-53.802	-53.606	82.908	0.74460	-0.50037	0.35349	0.26486	31.1	13111	100
2025-3-27 18:25:42.942	WT901BLE68-01(48591DE3C19B)	-0.803	-1.144	0.000	70.251	77.271	-252.319	-78.87	-2.33	-43.11	-53.802	-53.606	82.908	0.74460	-0.50037	0.35349	0.26486	31.1	13111	100
2025-3-27 18:25:42.942	WT901BLE68-01(48591DE3C19B)	-0.803	-1.099	0.018	70.190	20.569	-239.502	-78.18	-4.50	-43.95	-53.802	-53.606	82.908	0.70990	-0.59567	0.20743	-0.31314	31.1	13111	100
2025-3-27 18:25:42.942	WT901BLE68-01(48591DE3C19B)	-0.744	-1.099	0.018	70.190	20.569	-239.502	-77.48	-6.64	-44.51	-53.802	-53.606	82.908	0.70990	-0.59567	0.20743	-0.31314	31.1	13111	100
2025-3-27 18:25:43.3	WT901BLE68-01(48591DE3C19B)	-0.744	-1.093	0.108	64.270	-36.560	-223.511	-76.84	-8.75	-44.79	-53.802	-53.606	82.908	0.70990	-0.59567	0.20743	-0.31314	31.1	13111	100
2025-3-27 18:25:43.3	WT901BLE68-01(48591DE3C19B)	-0.669	-1.093	0.108	64.270	-36.560	-223.511	-76.27	-10.81	-44.79	-53.802	-53.606	82.908	0.70990	-0.59567	0.20743	-0.31314	31.1	13111	100
2025-3-27 18:25:43.3	WT901BLE68-01(48591DE3C19B)	-0.669	-1.128	0.214	55.542	-73.120	-200.806	-75.78	-12.79	-44.59	-53.802	-53.606	82.908	0.70990	-0.59567	0.20743	-0.31314	31.1	13111	100
2025-3-27 18:25:43.3	WT901BLE68-01(48591DE3C19B)	-0.597	-1.128	0.214	55.542	-73.120	-200.806	-75.39	-14.71	-44.20	-53.802	-53.606	82.908	0.70990	-0.59567	0.20743	-0.31314	31.1	13111	100
2025-3-27 18:25:43.31	WT901BLE68-01(48591DE3C19B)	-0.597	-1.211	0.243	41.016	-78.674	-177.185	-75.09	-16.49	-43.76	-53.802	-53.606	82.908	0.70990	-0.59567	0.20743	-0.31314	31.1	13111	100
2025-3-27 18:25:43.32	WT901BLE68-01(48591DE3C19B)	-0.484	-1.211	0.243	41.016	-78.674	-177.185	-74.88	-18.17	-43.26	-53.802	-53.606	82.908	0.70990	-0.59567	0.20743	-0.31314	31.1	13111	100
2025-3-27 18:25:43.32	WT901BLE68-01(48591DE3C19B)	-0.484	-1.352	0.278	29.358	-50.659	-152.649	-74.71	-19.68	-42.88	-53.802	-53.606	82.908	0.70990	-0.59567	0.20743	-0.31314	31.1	13111	100
2025-3-27 18:25:43.32	WT901BLE68-01(48591DE3C19B)	-0.497	-1.352	0.278	29.358	-50.659	-152.649	-74.55	-21.03	-42.62	-53.802	-53.606	82.908	0.70990	-0.59567	0.20743	-0.31314	31.1	13111	100
2025-3-27 18:25:43.62	WT901BLE68-01(48591DE3C19B)	-0.497	-1.468	0.354	21.362	-9.766	-128.113	-74.38	-22.21	-42.53	-53.802	-53.606	82.908	0.70990	-0.59567	0.20743	-0.31314	31.1	13111	100
2025-3-27 18:25:43.62	WT901BLE68-01(48591DE3C19B)	-0.624	-1.468	0.354	21.362	-9.766	-128.113	-74.16	-23.21	-42.63	-53.802	-53.606	82.908	0.70990	-0.59567	0.20743	-0.31314	31.1	13111	100
2025-3-27 18:25:43.62	WT901BLE68-01(48591DE3C19B)	-0.624	-1.443	0.412	14.465	28.931	-97.412	-73.91	-24.01	-42.90	-53.802	-53.606	82.908	0.70990	-0.59567	0.20743	-0.31314	31.1	13111	100
2025-3-27 18:25:43.62	WT901BLE68-01(48591DE3C19B)	-0.722	-1.443	0.412	14.465	28.931	-97.412	-73.62	-24.59	-43.32	-53.802	-53.606	82.908	0.70990	-0.59567	0.20743	-0.31314	31.1	13111	100
2025-3-27 18:25:43.153	WT901BLE68-01(48591DE3C19B)	-0.722	-1.363	0.390	4.150	55.481	-64.331	-73.34	-24.98	-43.84	-53.802	-53.606	82.908	0.70990	-0.59567	0.20743	-0.31314	31.1	13111	100
2025-3-27 18:25:43.153	WT901BLE68-01(48591DE3C19B)	-0.786	-1.363	0.390	4.150	55.481	-64.331	-73.07	-25.16	-44.44	-53.802	-53.606	82.908	0.70990	-0.59567	0.20743	-0.31314	31.1	13111	100
2025-3-27 18:25:43.153	WT901BLE68-01(48591DE3C19B)	-0.786	-1.317	0.333	-6.592	63.049	-29.541	-72.86	-25.16	-45.03	-53.802	-53.606	82.908	0.70990	-0.59567	0.20743	-0.31314	31.1	13111	100
2025-3-27 18:25:43.153	WT901BLE68-01(48591DE3C19B)	-0.843	-1.317	0.333	-6.592	63.049	-29.541	-72.71	-24.99	-45.59	-53.802	-53.606	82.908	0.70990	-0.59567	0.20743	-0.31314	31.1	13111	100
2025-3-27 18:25:43.154	WT901BLE68-01(48591DE3C19B)	-0.843	-1.197	0.300	-13.550	45.654	4.333	-72.67	-24.67	-46.01	-53.802	-53.606	82.908	0.70990	-0.59567	0.20743	-0.31314	31.1	13111	100
2025-3-27 18:25:43.154	WT901BLE68-01(48591DE3C19B)	-0.898	-1.197	0.300	-13.550	45.654	4.333	-72.72	-24.21	-46.26	-53.802	-53.606	82.908	0.70990	-0.59567	0.20743	-0.31314	31.1	13111	100
2025-3-27 18:25:43.155	WT901BLE68-01(48591DE3C19B)	-0.898	-0.988	0.273	-22.156	2.930	36.072	-72.94	-23.67	-46.24	-53.802	-53.606	82.908	0.70990	-0.59567	0.20743	-0.31314	31.1	13111	100
2025-3-27 18:25:43.155	WT901BLE68-01(48591DE3C19B)	-0.903	-0.988	0.273	-22.156	2.930	36.072	-73.31	-23.03	-45.94	-52.724	-33.614	89.278	0.70990	-0.59567	0.20743	-0.31314	31.1	13111	100
2025-3-27 18:25:43.185	WT901BLE68-01(48591DE3C19B)	-0.903	-0.854	0.246	-31.494	-50.232	67.993	-73.84	-22.31	-45.32	-52.724	-33.614	89.278	0.70990	-0.59567	0.20743	-0.31314	31.1	13111	100
2025-3-27 18:25:43.185	WT901BLE68-01(48591DE3C19B)	-0.803	-0.854	0.246	-31.494	-50.232	67.993	-74.54	-21.51	-44.39	-52.724	-33.614	89.278	0.70990	-0.59567	0.20743	-0.31314	31.1	13111	100
2025-3-27 18:25:43.185	WT901BLE68-01(48591DE3C19B)	-0.803	-0.782	0.206	-37.354	-103.027	102.356	-75.35	-20.59	-43.15	-52.724	-33.614	89.278	0.70990	-0.59567	0.20743	-0.31314	31.1	13111	100
2025-3-27 18:25:43.185	WT901BLE68-01(48591DE3C19B)	-0.573	-0.782	0.206	-37.354	-103.027	102.356	-76.28	-19.55	-41.62	-52.724	-33.614	89.278	0.70990	-0.59567	0.20743	-0.31314	31.1	13111	100
2025-3-27 18:25:43.243	WT901BLE68-01(48591DE3C19B)	-0.573	-0.789	0.176	-38.879	-135.193	133.423	-77.31	-18.27	-39.71	-52.724	-33.614	89.278	0.70990	-0.59567	0.20743	-0.31314	31.1	13111	100
2025-3-27 18:25:43.243	WT901BLE68-01(48591DE3C19B)	-0.398	-0.789	0.176	-38.879	-135.193	133.423	-78.28	-16.96	-37.84	-52.724	-33.614	89.278	0.70990	-0.59567	0.20743	-0.31314	31.1	13111	100
2025-3-27 18:25:43.243	WT901BLE68-01(48591DE3C19B)	-0.398	-0.877	0.153	-36.133	-139.709	163.879	-79.19	-15.35	-35.91	-52.724	-33.614	89.278	0.70990	-0.59567	0.20743	-0.31314	31.1	13111	100
2025-3-27 18:25:43.243	WT901BLE68-01(48591DE3C19B)	-0.377	-0.877	0.153	-36.133	-139.709	163.879	-80.04	-13.72	-34.04	-52.724	-33.614	89.278	0.70990	-0.59567	0.20743	-0.31314	31.1	13111	100
2025-3-27 18:25:43.304	WT901BLE68-01(48591DE3C19B)	-0.377	-1.010	0.155	-28.870	-127.625	184.692	-80.72	-11.85	-32.29	-52.724	-33.614	89.278	0.70990	-0.59567	0.20743	-0.31314	31.1	13111	100
2025-3-27 18:25:43.304	WT901BLE68-01(48591DE3C19B)	-0.337	-1.010	0.155	-28.870	-127.625	184.692	-81.34	-9.99	-30.59	-52.724	-33.614	89.278	0.70990	-0.59567	0.20743	-0.31314	31.1	13111	100
2025-3-27 18:25:43.304	WT901BLE68-01(48591DE3C19B)	-0.337	-1.175	0.175	-18.921	-112.854	199.463	-81.77	-7.95	-29.05	-52.724	-33.614	89.278	0.70990	-0.59567	0.20743	-0.31314	31.1	13111	100
2025-3-27 18:25:43.304	WT901BLE68-01(48591DE3C19B)	-0.282	-1.175	0.175	-18.921	-112.854	199.463	-82.14	-5.93	-27.55	-52.724	-33.614	89.278	0.70990	-0.59567	0.20743	-0.31314	31.1	13111	100
2025-3-27 18:25:43.305	WT901BLE68-01(48591DE3C19B)	-0.282	-1.346	0.180	-6.409	-87.891	210.999	-82.31	-3.78	-26.31	-52.724	-33.614	89.278	0.70990	-0.59567	0.20743	-0.31314	31.1	13111	100
2025-3-27 18:25:43.305	WT901BLE68-01(48591DE3C19B)	-0.265	-1.346	0.180	-6.409	-87.891	210.999	-82.42	-1.64	-25.08	-52.724	-33.614	89.278	0.70990	-0.59567	0.20743	-0.31314	31.1	13111	100
2025-3-27 18:25:43.305	WT901BLE68-01(48591DE3C19B)	-0.265	-1.424	0.137	6.958	-53.772	219.482	-82.36	0.59	-24.20	-52.724	-33.614	89.278	0.70990	-0.59567	0.20743	-0.31314	31.1	13111	100
2025-3-27 18:25:43.305	WT901BLE68-01(48591DE3C19B)	-0.302	-1.424	0.137	6.958	-53.772	219.482	-82.27	2.82	-23.32	-52.724	-33.614	89.278	0.70990	-0.59567	0.20743	-0.31314	31.1	13111	100
2025-3-27 18:25:43.363	WT901BLE68-01(48591DE3C19B)	-0.302	-1.407	0.098	13.672	-25.269	225.220	-82.10	5.11	-22.73	-52.724	-33.614	89.278	0.70990	-0.59567	0.20743	-0.31314	31.1	13111	100
2025-3-27 18:25:43.363	WT901BLE68-01(48591DE3C19B)	-0.333	-1.407	0.098	13.672	-25.269	225.220	-81.90	7.38	-22.12	-52.724	-33.614	89.278	0.74777	-0.63254	0.17322	-0.10318	31.1	13111	100
2025-3-27 18:25:43.363	WT901BLE68-01(48591DE3C19B)	-0.333	-1.378	0.078	11.292	-12.329	227.905	-81.72	9.68	-21.64	-52.724	-33.614	89.278	0.74777	-0.63254	0.17322	-0.10318	31.1	13111	100
2025-3-27 18:25:43.363	WT901BLE68-01(48591DE3C19B)	-0.330	-1.378	0.078	11.292	-12.329	227.905	-81.53	11.96	-21.15	-52.724	-33.614	89.278	0.74777	-0.63254	0.17322	-0.10318	31.1	13111	100
2025-3-27 18:25:43.392	WT901BLE68-01(48591DE3C19B)	-0.330	-1.340	0.085	11.292	-13.245	229.492	-81.32	14.23	-20.65	-52.724	-33.614	89.278	0.74777	-0.63254	0.17322	-0.10318	31.1	13111	100
2025-3-27 18:25:43.392	WT901BLE68-01(48591DE3C19B)	-0.306	-1.340	0.085	11.292	-13.245	229.492	-81.09	16.49	-20.14	-52.724	-33.614	89.278	0.74777	-0.63254	0.17322	-0.10318	31.1	13111	100
