time	DeviceName	AccX(g)	AccY(g)	AccZ(g)	AsX(°/s)	AsY(°/s)	AsZ(°/s)	AngleX(°)	AngleY(°)	AngleZ(°)	HX(uT)	HY(uT)	HZ(uT)	Q0()	Q1()	Q2()	Q3()	Temperature(°C)	Version()	Battery level(%)
2025-3-27 18:48:26.206	WT901BLE68-01(48591DE3C19B)	-0.290	-0.906	0.315	0.305	0.305	-2.869	-70.89	15.73	-89.22	-85.358	-57.820	22.442	-0.63632	0.32574	-0.48328	0.50528	30.8	13111	100
2025-3-27 18:48:26.206	WT901BLE68-01(48591DE3C19B)	-0.293	-0.906	0.315	0.305	0.305	-2.869	-70.89	15.71	-89.22	-85.358	-57.820	22.442	-0.63632	0.32574	-0.48328	0.50528	30.8	13111	100
2025-3-27 18:48:26.206	WT901BLE68-01(48591DE3C19B)	-0.293	-0.915	0.315	0.977	1.221	-2.014	-70.89	15.70	-89.24	-85.358	-57.820	22.442	-0.63632	0.32574	-0.48328	0.50528	30.8	13111	100
2025-3-27 18:48:26.206	WT901BLE68-01(48591DE3C19B)	-0.292	-0.915	0.315	0.977	1.221	-2.014	-70.88	15.69	-89.25	-85.358	-57.820	22.442	-0.63632	0.32574	-0.48328	0.50528	30.8	13111	100
2025-3-27 18:48:26.236	WT901BLE68-01(48591DE3C19B)	-0.292	-0.918	0.314	1.526	1.282	-0.977	-70.87	15.69	-89.25	-85.358	-57.820	22.442	-0.63632	0.32574	-0.48328	0.50528	30.8	13111	100
2025-3-27 18:48:26.236	WT901BLE68-01(48591DE3C19B)	-0.290	-0.918	0.314	1.526	1.282	-0.977	-70.86	15.70	-89.26	-85.358	-57.820	22.442	-0.63632	0.32574	-0.48328	0.50528	30.8	13111	100
2025-3-27 18:48:26.236	WT901BLE68-01(48591DE3C19B)	-0.290	-0.919	0.309	2.075	0.916	0.000	-70.85	15.70	-89.26	-85.358	-57.820	22.442	-0.63632	0.32574	-0.48328	0.50528	30.8	13111	100
2025-3-27 18:48:26.236	WT901BLE68-01(48591DE3C19B)	-0.288	-0.919	0.309	2.075	0.916	0.000	-70.83	15.72	-89.26	-85.358	-57.820	22.442	-0.63632	0.32574	-0.48328	0.50528	30.8	13111	100
2025-3-27 18:48:26.302	WT901BLE68-01(48591DE3C19B)	-0.288	-0.920	0.306	2.258	0.427	0.305	-70.81	15.73	-89.26	-85.358	-57.820	22.442	-0.63632	0.32574	-0.48328	0.50528	30.8	13111	100
2025-3-27 18:48:26.302	WT901BLE68-01(48591DE3C19B)	-0.278	-0.920	0.306	2.258	0.427	0.305	-70.79	15.74	-89.25	-85.358	-57.820	22.442	-0.63043	0.32983	-0.48245	0.51077	30.8	13111	100
2025-3-27 18:48:26.302	WT901BLE68-01(48591DE3C19B)	-0.278	-0.917	0.305	2.625	0.366	0.366	-70.77	15.75	-89.24	-85.358	-57.820	22.442	-0.63043	0.32983	-0.48245	0.51077	30.8	13111	100
2025-3-27 18:48:26.302	WT901BLE68-01(48591DE3C19B)	-0.273	-0.917	0.305	2.625	0.366	0.366	-70.75	15.76	-89.24	-85.358	-57.820	22.442	-0.63043	0.32983	-0.48245	0.51077	30.8	13111	100
2025-3-27 18:48:26.326	WT901BLE68-01(48591DE3C19B)	-0.273	-0.907	0.301	2.380	0.916	0.488	-70.72	15.77	-89.24	-85.358	-57.820	22.442	-0.63043	0.32983	-0.48245	0.51077	30.8	13111	100
2025-3-27 18:48:26.326	WT901BLE68-01(48591DE3C19B)	-0.278	-0.907	0.301	2.380	0.916	0.488	-70.71	15.78	-89.24	-85.358	-57.820	22.442	-0.63043	0.32983	-0.48245	0.51077	30.8	13111	100
2025-3-27 18:48:26.327	WT901BLE68-01(48591DE3C19B)	-0.278	-0.917	0.299	1.892	1.099	0.244	-70.70	15.79	-89.24	-85.358	-57.820	22.442	-0.63043	0.32983	-0.48245	0.51077	30.8	13111	100
2025-3-27 18:48:26.327	WT901BLE68-01(48591DE3C19B)	-0.281	-0.917	0.299	1.892	1.099	0.244	-70.69	15.80	-89.24	-85.358	-57.820	22.442	-0.63043	0.32983	-0.48245	0.51077	30.8	13111	100
2025-3-27 18:48:26.357	WT901BLE68-01(48591DE3C19B)	-0.281	-0.920	0.298	1.404	-0.183	0.122	-70.68	15.81	-89.22	-85.358	-57.820	22.442	-0.63043	0.32983	-0.48245	0.51077	30.8	13111	100
2025-3-27 18:48:26.357	WT901BLE68-01(48591DE3C19B)	-0.286	-0.920	0.298	1.404	-0.183	0.122	-70.66	15.81	-89.21	-85.358	-57.820	22.442	-0.63043	0.32983	-0.48245	0.51077	30.8	13111	100
2025-3-27 18:48:26.357	WT901BLE68-01(48591DE3C19B)	-0.286	-0.919	0.294	0.793	-3.540	0.488	-70.65	15.81	-89.16	-85.358	-57.820	22.442	-0.63043	0.32983	-0.48245	0.51077	30.8	13111	100
2025-3-27 18:48:26.357	WT901BLE68-01(48591DE3C19B)	-0.292	-0.919	0.294	0.793	-3.540	0.488	-70.64	15.80	-89.12	-85.358	-57.820	22.442	-0.63043	0.32983	-0.48245	0.51077	30.8	13111	100
2025-3-27 18:48:26.416	WT901BLE68-01(48591DE3C19B)	-0.292	-0.938	0.282	-1.160	-9.033	0.549	-70.64	15.78	-89.01	-85.358	-57.820	22.442	-0.63043	0.32983	-0.48245	0.51077	30.8	13111	100
2025-3-27 18:48:26.416	WT901BLE68-01(48591DE3C19B)	-0.290	-0.938	0.282	-1.160	-9.033	0.549	-70.63	15.76	-88.91	-85.358	-57.820	22.442	-0.63043	0.32983	-0.48245	0.51077	30.8	13111	100
2025-3-27 18:48:26.416	WT901BLE68-01(48591DE3C19B)	-0.290	-0.968	0.266	-3.906	-16.785	1.343	-70.63	15.72	-88.73	-85.358	-57.820	22.442	-0.63043	0.32983	-0.48245	0.51077	30.8	13111	100
2025-3-27 18:48:26.417	WT901BLE68-01(48591DE3C19B)	-0.241	-0.968	0.266	-3.906	-16.785	1.343	-70.64	15.68	-88.55	-85.358	-57.820	22.442	-0.63043	0.32983	-0.48245	0.51077	30.8	13111	100
2025-3-27 18:48:26.447	WT901BLE68-01(48591DE3C19B)	-0.241	-1.032	0.243	-8.545	-24.353	1.648	-70.67	15.62	-88.29	-85.358	-57.820	22.442	-0.63043	0.32983	-0.48245	0.51077	30.8	13111	100
2025-3-27 18:48:26.448	WT901BLE68-01(48591DE3C19B)	-0.172	-1.032	0.243	-8.545	-24.353	1.648	-70.70	15.56	-88.03	-85.358	-57.820	22.442	-0.63043	0.32983	-0.48245	0.51077	30.8	13111	100
2025-3-27 18:48:26.448	WT901BLE68-01(48591DE3C19B)	-0.172	-1.068	0.212	-13.977	-31.555	1.526	-70.78	15.46	-87.70	-85.358	-57.820	22.442	-0.63043	0.32983	-0.48245	0.51077	30.8	13111	100
2025-3-27 18:48:26.448	WT901BLE68-01(48591DE3C19B)	0.007	-1.068	0.212	-13.977	-31.555	1.526	-70.86	15.37	-87.37	-85.358	-57.820	22.442	-0.63043	0.32983	-0.48245	0.51077	30.8	13111	100
2025-3-27 18:48:26.477	WT901BLE68-01(48591DE3C19B)	0.007	-1.014	0.170	-22.278	-27.283	-5.188	-71.04	15.22	-87.11	-85.358	-57.820	22.442	-0.63043	0.32983	-0.48245	0.51077	30.8	13111	100
2025-3-27 18:48:26.477	WT901BLE68-01(48591DE3C19B)	0.122	-1.014	0.170	-22.278	-27.283	-5.188	-71.22	15.06	-86.84	-85.358	-57.820	22.442	-0.63043	0.32983	-0.48245	0.51077	30.8	13111	100
2025-3-27 18:48:26.477	WT901BLE68-01(48591DE3C19B)	0.122	-0.983	0.179	-30.212	-10.315	-11.597	-71.53	14.89	-86.76	-85.848	-57.722	22.442	-0.63043	0.32983	-0.48245	0.51077	30.8	13111	100
2025-3-27 18:48:26.477	WT901BLE68-01(48591DE3C19B)	0.091	-0.983	0.179	-30.212	-10.315	-11.597	-71.84	14.71	-86.68	-85.848	-57.722	22.442	-0.63043	0.32983	-0.48245	0.51077	30.8	13111	100
2025-3-27 18:48:26.536	WT901BLE68-01(48591DE3C19B)	0.091	-0.994	0.214	-36.682	1.343	-18.677	-72.25	14.50	-86.74	-85.848	-57.722	22.442	-0.63043	0.32983	-0.48245	0.51077	30.8	13111	100
2025-3-27 18:48:26.537	WT901BLE68-01(48591DE3C19B)	0.120	-0.994	0.214	-36.682	1.343	-18.677	-72.66	14.27	-86.80	-85.848	-57.722	22.442	-0.63043	0.32983	-0.48245	0.51077	30.8	13111	100
2025-3-27 18:48:26.537	WT901BLE68-01(48591DE3C19B)	0.120	-1.020	0.254	-38.635	2.380	-27.771	-73.09	13.96	-86.89	-85.848	-57.722	22.442	-0.63043	0.32983	-0.48245	0.51077	30.8	13111	100
2025-3-27 18:48:26.537	WT901BLE68-01(48591DE3C19B)	0.110	-1.020	0.254	-38.635	2.380	-27.771	-73.52	13.64	-86.98	-85.848	-57.722	22.442	-0.63043	0.32983	-0.48245	0.51077	30.8	13111	100
2025-3-27 18:48:26.566	WT901BLE68-01(48591DE3C19B)	0.110	-1.023	0.274	-34.790	4.578	-38.452	-73.92	13.22	-87.12	-85.848	-57.722	22.442	-0.63043	0.32983	-0.48245	0.51077	30.8	13111	100
2025-3-27 18:48:26.566	WT901BLE68-01(48591DE3C19B)	0.079	-1.023	0.274	-34.790	4.578	-38.452	-74.31	12.79	-87.26	-85.848	-57.722	22.442	-0.63043	0.32983	-0.48245	0.51077	30.8	13111	100
2025-3-27 18:48:26.566	WT901BLE68-01(48591DE3C19B)	0.079	-1.064	0.271	-32.349	7.019	-50.293	-74.69	12.26	-87.46	-85.848	-57.722	22.442	-0.63043	0.32983	-0.48245	0.51077	30.8	13111	100
2025-3-27 18:48:26.567	WT901BLE68-01(48591DE3C19B)	0.011	-1.064	0.271	-32.349	7.019	-50.293	-75.06	11.73	-87.64	-85.848	-57.722	22.442	-0.63043	0.32983	-0.48245	0.51077	30.8	13111	100
2025-3-27 18:48:26.601	WT901BLE68-01(48591DE3C19B)	0.011	-1.157	0.265	-27.222	7.507	-64.941	-75.38	11.05	-87.87	-85.848	-57.722	22.442	-0.63043	0.32983	-0.48245	0.51077	30.8	13111	100
2025-3-27 18:48:26.601	WT901BLE68-01(48591DE3C19B)	-0.029	-1.157	0.265	-27.222	7.507	-64.941	-75.71	10.38	-88.09	-85.848	-57.722	22.442	-0.63043	0.32983	-0.48245	0.51077	30.8	13111	100
2025-3-27 18:48:26.601	WT901BLE68-01(48591DE3C19B)	-0.029	-1.185	0.261	-18.188	0.366	-80.811	-75.92	9.54	-88.28	-85.848	-57.722	22.442	-0.63043	0.32983	-0.48245	0.51077	30.8	13111	100
2025-3-27 18:48:26.601	WT901BLE68-01(48591DE3C19B)	0.000	-1.185	0.261	-18.188	0.366	-80.811	-76.14	8.71	-88.46	-85.848	-57.722	22.442	-0.63043	0.32983	-0.48245	0.51077	30.8	13111	100
2025-3-27 18:48:26.658	WT901BLE68-01(48591DE3C19B)	0.000	-1.147	0.273	-10.315	-9.399	-93.323	-76.26	7.73	-88.57	-85.848	-57.722	22.442	-0.63043	0.32983	-0.48245	0.51077	30.8	13111	100
2025-3-27 18:48:26.658	WT901BLE68-01(48591DE3C19B)	-0.011	-1.147	0.273	-10.315	-9.399	-93.323	-76.38	6.77	-88.68	-85.848	-57.722	22.442	-0.63043	0.32983	-0.48245	0.51077	30.8	13111	100
2025-3-27 18:48:26.658	WT901BLE68-01(48591DE3C19B)	-0.039	-1.108	0.291	-4.883	-12.634	-100.159	-76.44	5.73	-88.77	-85.848	-57.722	22.442	-0.63043	0.32983	-0.48245	0.51077	30.8	13111	100
2025-3-27 18:48:26.658	WT901BLE68-01(48591DE3C19B)	-0.039	-1.074	0.313	-1.221	-17.029	-105.713	-76.48	4.67	-88.84	-85.848	-57.722	22.442	-0.63043	0.32983	-0.48245	0.51077	30.8	13111	100
2025-3-27 18:48:26.688	WT901BLE68-01(48591DE3C19B)	-0.023	-1.074	0.313	-1.221	-17.029	-105.713	-76.49	3.58	-88.90	-85.848	-57.722	22.442	-0.63043	0.32983	-0.48245	0.51077	30.8	13111	100
2025-3-27 18:48:26.688	WT901BLE68-01(48591DE3C19B)	-0.023	-1.064	0.345	0.671	-15.015	-109.802	-76.50	2.48	-88.98	-85.848	-57.722	22.442	-0.63043	0.32983	-0.48245	0.51077	30.8	13111	100
2025-3-27 18:48:26.688	WT901BLE68-01(48591DE3C19B)	-0.048	-1.064	0.345	0.671	-15.015	-109.802	-76.49	1.38	-89.07	-85.848	-57.722	22.442	-0.63043	0.32983	-0.48245	0.51077	30.8	13111	100
2025-3-27 18:48:26.688	WT901BLE68-01(48591DE3C19B)	-0.048	-1.071	0.369	4.517	-5.371	-110.229	-76.45	0.29	-89.20	-85.848	-57.722	22.442	-0.56036	0.43918	-0.43588	0.55048	30.8	13111	100
2025-3-27 18:48:26.718	WT901BLE68-01(48591DE3C19B)	-0.058	-1.071	0.369	4.517	-5.371	-110.229	-76.40	-0.79	-89.39	-85.848	-57.722	22.442	-0.56036	0.43918	-0.43588	0.55048	30.8	13111	100
2025-3-27 18:48:26.719	WT901BLE68-01(48591DE3C19B)	-0.058	-1.046	0.381	8.667	5.432	-109.253	-76.32	-1.83	-89.63	-85.848	-57.722	22.442	-0.56036	0.43918	-0.43588	0.55048	30.8	13111	100
2025-3-27 18:48:26.719	WT901BLE68-01(48591DE3C19B)	-0.055	-1.046	0.381	8.667	5.432	-109.253	-76.20	-2.86	-89.92	-85.848	-57.722	22.442	-0.56036	0.43918	-0.43588	0.55048	30.8	13111	100
2025-3-27 18:48:26.719	WT901BLE68-01(48591DE3C19B)	-0.055	-1.007	0.389	10.010	22.583	-107.666	-76.07	-3.85	-90.30	-85.848	-57.722	22.442	-0.56036	0.43918	-0.43588	0.55048	30.8	13111	100
2025-3-27 18:48:26.836	WT901BLE68-01(48591DE3C19B)	-0.111	-1.007	0.389	10.010	22.583	-107.666	-75.92	-4.80	-90.76	-85.848	-57.722	22.442	-0.56036	0.43918	-0.43588	0.55048	30.8	13111	100
2025-3-27 18:48:26.837	WT901BLE68-01(48591DE3C19B)	-0.111	-1.009	0.394	12.268	39.856	-103.882	-75.73	-5.70	-91.31	-85.848	-57.722	22.442	-0.56036	0.43918	-0.43588	0.55048	30.8	13111	100
2025-3-27 18:48:26.837	WT901BLE68-01(48591DE3C19B)	-0.199	-1.009	0.394	12.268	39.856	-103.882	-75.53	-6.56	-91.93	-85.848	-57.722	22.442	-0.56036	0.43918	-0.43588	0.55048	30.8	13111	100
2025-3-27 18:48:26.837	WT901BLE68-01(48591DE3C19B)	-0.199	-1.017	0.398	15.076	47.607	-97.046	-75.28	-7.36	-92.59	-85.848	-57.722	22.442	-0.56036	0.43918	-0.43588	0.55048	30.8	13111	100
2025-3-27 18:48:26.838	WT901BLE68-01(48591DE3C19B)	-0.269	-1.017	0.398	15.076	47.607	-97.046	-75.02	-8.11	-93.28	-85.848	-57.722	22.442	-0.56036	0.43918	-0.43588	0.55048	30.8	13111	100
2025-3-27 18:48:26.838	WT901BLE68-01(48591DE3C19B)	-0.269	-1.001	0.383	18.250	47.058	-87.036	-74.73	-8.79	-93.96	-85.848	-57.722	22.442	-0.56036	0.43918	-0.43588	0.55048	30.8	13111	100
2025-3-27 18:48:26.838	WT901BLE68-01(48591DE3C19B)	-0.329	-1.001	0.383	18.250	47.058	-87.036	-74.42	-9.42	-94.63	-85.848	-57.722	22.442	-0.56036	0.43918	-0.43588	0.55048	30.8	13111	100
2025-3-27 18:48:26.839	WT901BLE68-01(48591DE3C19B)	-0.329	-0.952	0.347	20.264	39.795	-75.256	-74.11	-9.99	-95.24	-85.848	-57.722	22.442	-0.56036	0.43918	-0.43588	0.55048	30.8	13111	100
2025-3-27 18:48:26.839	WT901BLE68-01(48591DE3C19B)	-0.365	-0.952	0.347	20.264	39.795	-75.256	-73.78	-10.50	-95.80	-85.848	-57.722	22.442	-0.56036	0.43918	-0.43588	0.55048	30.8	13111	100
2025-3-27 18:48:26.839	WT901BLE68-01(48591DE3C19B)	-0.365	-0.887	0.320	20.081	25.940	-62.683	-73.48	-10.95	-96.28	-85.848	-57.722	22.442	-0.56036	0.43918	-0.43588	0.55048	30.8	13111	100
2025-3-27 18:48:26.839	WT901BLE68-01(48591DE3C19B)	-0.367	-0.887	0.320	20.081	25.940	-62.683	-73.18	-11.35	-96.68	-85.848	-57.722	22.442	-0.56036	0.43918	-0.43588	0.55048	30.8	13111	100
2025-3-27 18:48:26.839	WT901BLE68-01(48591DE3C19B)	-0.367	-0.815	0.293	17.639	10.071	-48.950	-72.92	-11.70	-96.98	-85.848	-57.722	22.442	-0.56036	0.43918	-0.43588	0.55048	30.8	13111	100
2025-3-27 18:48:26.926	WT901BLE68-01(48591DE3C19B)	-0.365	-0.815	0.293	17.639	10.071	-48.950	-72.69	-12.00	-97.17	-85.848	-57.722	22.442	-0.56036	0.43918	-0.43588	0.55048	30.8	13111	100
2025-3-27 18:48:26.927	WT901BLE68-01(48591DE3C19B)	-0.365	-0.749	0.287	13.306	-4.517	-35.950	-72.50	-12.24	-97.28	-85.848	-57.722	22.442	-0.56036	0.43918	-0.43588	0.55048	30.8	13111	100
2025-3-27 18:48:26.927	WT901BLE68-01(48591DE3C19B)	-0.358	-0.749	0.287	13.306	-4.517	-35.950	-72.35	-12.44	-97.31	-85.848	-57.722	22.442	-0.56036	0.43918	-0.43588	0.55048	30.8	13111	100
2025-3-27 18:48:26.927	WT901BLE68-01(48591DE3C19B)	-0.358	-0.721	0.282	9.216	-15.320	-24.963	-72.24	-12.60	-97.26	-85.848	-57.722	22.442	-0.56036	0.43918	-0.43588	0.55048	30.8	13111	100
2025-3-27 18:48:26.928	WT901BLE68-01(48591DE3C19B)	-0.369	-0.721	0.282	9.216	-15.320	-24.963	-72.16	-12.72	-97.15	-64.778	-66.934	24.304	-0.56036	0.43918	-0.43588	0.55048	30.8	13111	100
2025-3-27 18:48:26.928	WT901BLE68-01(48591DE3C19B)	-0.369	-0.722	0.289	6.165	-22.339	-15.198	-72.11	-12.79	-96.98	-64.778	-66.934	24.304	-0.56036	0.43918	-0.43588	0.55048	30.8	13111	100
2025-3-27 18:48:26.928	WT901BLE68-01(48591DE3C19B)	-0.394	-0.722	0.289	6.165	-22.339	-15.198	-72.08	-12.83	-96.78	-64.778	-66.934	24.304	-0.56036	0.43918	-0.43588	0.55048	30.8	13111	100
2025-3-27 18:48:26.928	WT901BLE68-01(48591DE3C19B)	-0.394	-0.746	0.295	5.188	-28.992	-5.859	-72.07	-12.83	-96.53	-64.778	-66.934	24.304	-0.56036	0.43918	-0.43588	0.55048	30.8	13111	100
2025-3-27 18:48:26.957	WT901BLE68-01(48591DE3C19B)	-0.394	-0.746	0.295	5.188	-28.992	-5.859	-72.07	-12.78	-96.23	-64.778	-66.934	24.304	-0.56036	0.43918	-0.43588	0.55048	30.8	13111	100
2025-3-27 18:48:26.958	WT901BLE68-01(48591DE3C19B)	-0.394	-0.793	0.286	3.296	-35.828	1.587	-72.09	-12.71	-95.89	-64.778	-66.934	24.304	-0.56036	0.43918	-0.43588	0.55048	30.8	13111	100
2025-3-27 18:48:26.958	WT901BLE68-01(48591DE3C19B)	-0.440	-0.793	0.286	3.296	-35.828	1.587	-72.13	-12.62	-95.52	-64.778	-66.934	24.304	-0.56036	0.43918	-0.43588	0.55048	30.8	13111	100
2025-3-27 18:48:26.958	WT901BLE68-01(48591DE3C19B)	-0.440	-0.896	0.280	-0.061	-37.231	9.399	-72.19	-12.48	-95.12	-64.778	-66.934	24.304	-0.56036	0.43918	-0.43588	0.55048	30.8	13111	100
2025-3-27 18:48:27.16	WT901BLE68-01(48591DE3C19B)	-0.509	-0.896	0.280	-0.061	-37.231	9.399	-72.27	-12.30	-94.70	-64.778	-66.934	24.304	-0.56036	0.43918	-0.43588	0.55048	30.8	13111	100
2025-3-27 18:48:27.16	WT901BLE68-01(48591DE3C19B)	-0.509	-1.076	0.286	-3.784	-46.204	16.968	-72.38	-12.11	-94.23	-64.778	-66.934	24.304	-0.56036	0.43918	-0.43588	0.55048	30.8	13111	100
2025-3-27 18:48:27.16	WT901BLE68-01(48591DE3C19B)	-0.605	-1.076	0.286	-3.784	-46.204	16.968	-72.52	-11.89	-93.70	-64.778	-66.934	24.304	-0.56036	0.43918	-0.43588	0.55048	30.8	13111	100
2025-3-27 18:48:27.16	WT901BLE68-01(48591DE3C19B)	-2.421	-1.303	0.317	-7.324	-50.659	27.222	-72.69	-11.62	-93.13	-64.778	-66.934	24.304	-0.56036	0.43918	-0.43588	0.55048	30.8	13111	100
2025-3-27 18:48:27.47	WT901BLE68-01(48591DE3C19B)	-0.676	-5.211	1.271	-7.324	-50.659	27.222	-72.89	-11.31	-92.50	-64.778	-66.934	24.304	-0.56036	0.43918	-0.43588	0.55048	30.8	13111	100
2025-3-27 18:48:27.47	WT901BLE68-01(48591DE3C19B)	-0.676	-1.485	0.380	-4.822	-56.213	33.936	-73.10	-10.97	-91.83	-64.778	-66.934	24.304	-0.56036	0.43918	-0.43588	0.55048	30.8	13111	100
2025-3-27 18:48:27.47	WT901BLE68-01(48591DE3C19B)	-0.696	-1.485	0.380	-4.822	-56.213	33.936	-73.29	-10.61	-91.13	-64.778	-66.934	24.304	-0.56036	0.43918	-0.43588	0.55048	30.8	13111	100
2025-3-27 18:48:27.47	WT901BLE68-01(48591DE3C19B)	-0.696	-1.585	0.523	-2.014	-60.608	50.842	-73.47	-10.17	-90.38	-64.778	-66.934	24.304	-0.56036	0.43918	-0.43588	0.55048	30.8	13111	100
2025-3-27 18:48:27.75	WT901BLE68-01(48591DE3C19B)	-0.680	-1.585	0.523	-2.014	-60.608	50.842	-73.62	-9.66	-89.61	-64.778	-66.934	24.304	-0.56036	0.43918	-0.43588	0.55048	30.8	13111	100
2025-3-27 18:48:27.75	WT901BLE68-01(48591DE3C19B)	-0.680	-1.704	0.541	1.587	-60.364	75.684	-73.76	-9.03	-88.82	-64.778	-66.934	24.304	-0.56036	0.43918	-0.43588	0.55048	30.8	13111	100
2025-3-27 18:48:27.75	WT901BLE68-01(48591DE3C19B)	-0.585	-1.704	0.541	1.587	-60.364	75.684	-73.87	-8.28	-88.00	-64.778	-66.934	24.304	-0.54324	0.47122	-0.37482	0.58502	30.8	13111	100
2025-3-27 18:48:27.75	WT901BLE68-01(48591DE3C19B)	-0.585	-1.560	0.452	9.399	-55.420	102.722	-73.93	-7.40	-87.19	-64.778	-66.934	24.304	-0.54324	0.47122	-0.37482	0.58502	30.8	13111	100
2025-3-27 18:48:27.136	WT901BLE68-01(48591DE3C19B)	-0.569	-1.560	0.452	9.399	-55.420	102.722	-73.93	-6.40	-86.36	-64.778	-66.934	24.304	-0.54324	0.47122	-0.37482	0.58502	30.8	13111	100
2025-3-27 18:48:27.136	WT901BLE68-01(48591DE3C19B)	-0.569	-1.376	0.365	9.033	-47.363	130.188	-73.92	-5.11	-85.55	-64.778	-66.934	24.304	-0.54324	0.47122	-0.37482	0.58502	30.8	13111	100
2025-3-27 18:48:27.137	WT901BLE68-01(48591DE3C19B)	-0.576	-1.376	0.365	9.033	-47.363	130.188	-73.89	-3.83	-84.75	-64.778	-66.934	24.304	-0.54324	0.47122	-0.37482	0.58502	30.8	13111	100
2025-3-27 18:48:27.137	WT901BLE68-01(48591DE3C19B)	-0.576	-1.221	0.305	6.714	-48.767	155.334	-73.87	-2.33	-83.86	-64.778	-66.934	24.304	-0.54324	0.47122	-0.37482	0.58502	30.8	13111	100
2025-3-27 18:48:27.165	WT901BLE68-01(48591DE3C19B)	-0.557	-1.221	0.305	6.714	-48.767	155.334	-73.82	-0.83	-82.99	-64.778	-66.934	24.304	-0.54324	0.47122	-0.37482	0.58502	30.8	13111	100
2025-3-27 18:48:27.165	WT901BLE68-01(48591DE3C19B)	-0.557	-1.172	0.215	0.488	-62.622	181.824	-73.82	0.87	-81.92	-64.778	-66.934	24.304	-0.54324	0.47122	-0.37482	0.58502	30.8	13111	100
2025-3-27 18:48:27.165	WT901BLE68-01(48591DE3C19B)	-0.483	-1.172	0.215	0.488	-62.622	181.824	-73.78	2.57	-80.84	-64.778	-66.934	24.304	-0.54324	0.47122	-0.37482	0.58502	30.8	13111	100
2025-3-27 18:48:27.165	WT901BLE68-01(48591DE3C19B)	-0.483	-1.261	0.113	-1.648	-78.674	203.735	-73.72	4.42	-79.56	-64.778	-66.934	24.304	-0.54324	0.47122	-0.37482	0.58502	30.8	13111	100
2025-3-27 18:48:27.206	WT901BLE68-01(48591DE3C19B)	-0.396	-1.261	0.113	-1.648	-78.674	203.735	-73.62	6.25	-78.27	-64.778	-66.934	24.304	-0.54324	0.47122	-0.37482	0.58502	30.8	13111	100
2025-3-27 18:48:27.207	WT901BLE68-01(48591DE3C19B)	-0.396	-1.373	0.041	3.418	-95.032	220.398	-73.41	8.18	-76.76	-64.778	-66.934	24.304	-0.54324	0.47122	-0.37482	0.58502	30.8	13111	100
2025-3-27 18:48:27.207	WT901BLE68-01(48591DE3C19B)	-0.311	-1.373	0.041	3.418	-95.032	220.398	-73.15	10.10	-75.25	-64.778	-66.934	24.304	-0.54324	0.47122	-0.37482	0.58502	30.8	13111	100
2025-3-27 18:48:27.207	WT901BLE68-01(48591DE3C19B)	-0.311	-1.495	0.082	10.559	-107.483	230.469	-72.75	12.05	-73.57	-64.778	-66.934	24.304	-0.54324	0.47122	-0.37482	0.58502	30.8	13111	100
2025-3-27 18:48:27.258	WT901BLE68-01(48591DE3C19B)	-0.208	-1.495	0.082	10.559	-107.483	230.469	-72.28	13.96	-71.88	-64.778	-66.934	24.304	-0.54324	0.47122	-0.37482	0.58502	30.8	13111	100
2025-3-27 18:48:27.258	WT901BLE68-01(48591DE3C19B)	-0.208	-1.646	0.100	24.719	-107.361	235.840	-71.62	15.90	-70.14	-64.778	-66.934	24.304	-0.54324	0.47122	-0.37482	0.58502	30.8	13111	100
2025-3-27 18:48:27.258	WT901BLE68-01(48591DE3C19B)	-0.092	-1.646	0.100	24.719	-107.361	235.840	-70.89	17.80	-68.37	-64.778	-66.934	24.304	-0.54324	0.47122	-0.37482	0.58502	30.8	13111	100
2025-3-27 18:48:27.258	WT901BLE68-01(48591DE3C19B)	-0.092	-1.492	0.114	47.485	-87.769	239.807	-69.94	19.75	-66.74	-64.778	-66.934	24.304	-0.54324	0.47122	-0.37482	0.58502	30.8	13111	100
2025-3-27 18:48:27.288	WT901BLE68-01(48591DE3C19B)	-0.068	-1.492	0.114	47.485	-87.769	239.807	-68.92	21.67	-65.06	-64.778	-66.934	24.304	-0.54324	0.47122	-0.37482	0.58502	30.8	13111	100
2025-3-27 18:48:27.288	WT901BLE68-01(48591DE3C19B)	-0.068	-1.247	0.126	53.894	-55.725	242.676	-67.88	23.67	-63.63	-64.778	-66.934	24.304	-0.54324	0.47122	-0.37482	0.58502	30.8	13111	100
2025-3-27 18:48:27.288	WT901BLE68-01(48591DE3C19B)	-0.083	-1.247	0.126	53.894	-55.725	242.676	-66.79	25.64	-62.15	-64.778	-66.934	24.304	-0.54324	0.47122	-0.37482	0.58502	30.8	13111	100
2025-3-27 18:48:27.289	WT901BLE68-01(48591DE3C19B)	-0.083	-1.174	0.082	51.880	-16.602	241.516	-65.82	27.71	-61.01	-98.000	-46.942	14.602	-0.54324	0.47122	-0.37482	0.58502	30.8	13111	100
2025-3-27 18:48:27.347	WT901BLE68-01(48591DE3C19B)	-0.082	-1.174	0.082	51.880	-16.602	241.516	-64.80	29.75	-59.82	-98.000	-46.942	14.602	-0.54324	0.47122	-0.37482	0.58502	30.8	13111	100
2025-3-27 18:48:27.347	WT901BLE68-01(48591DE3C19B)	-0.082	-1.101	0.031	50.842	20.081	240.540	-63.92	31.90	-58.96	-98.000	-46.942	14.602	-0.54324	0.47122	-0.37482	0.58502	30.8	13111	100
2025-3-27 18:48:27.347	WT901BLE68-01(48591DE3C19B)	-0.067	-1.101	0.031	50.842	20.081	240.540	-63.00	34.03	-58.05	-98.000	-46.942	14.602	-0.54324	0.47122	-0.37482	0.58502	30.8	13111	100
2025-3-27 18:48:27.347	WT901BLE68-01(48591DE3C19B)	-0.067	-0.989	-0.013	44.189	48.828	240.356	-62.25	36.27	-57.39	-98.000	-46.942	14.602	-0.54324	0.47122	-0.37482	0.58502	30.8	13111	100
2025-3-27 18:48:27.436	WT901BLE68-01(48591DE3C19B)	-0.079	-0.989	-0.013	44.189	48.828	240.356	-61.47	38.47	-56.69	-98.000	-46.942	14.602	-0.54324	0.47122	-0.37482	0.58502	30.8	13111	100
2025-3-27 18:48:27.436	WT901BLE68-01(48591DE3C19B)	-0.079	-0.946	-0.047	27.893	63.782	238.464	-60.91	40.72	-56.13	-98.000	-46.942	14.602	-0.54324	0.47122	-0.37482	0.58502	30.8	13111	100
2025-3-27 18:48:27.436	WT901BLE68-01(48591DE3C19B)	-0.121	-0.946	-0.047	27.893	63.782	238.464	-60.32	42.95	-55.52	-98.000	-46.942	14.602	-0.54324	0.47122	-0.37482	0.58502	30.8	13111	100
2025-3-27 18:48:27.436	WT901BLE68-01(48591DE3C19B)	-0.121	-0.995	-0.064	11.414	62.195	233.398	-59.85	45.11	-54.89	-98.000	-46.942	14.602	-0.54324	0.47122	-0.37482	0.58502	30.8	13111	100
2025-3-27 18:48:27.437	WT901BLE68-01(48591DE3C19B)	-0.147	-0.995	-0.064	11.414	62.195	233.398	-59.34	47.26	-54.23	-98.000	-46.942	14.602	-0.54324	0.47122	-0.37482	0.58502	30.8	13111	100
2025-3-27 18:48:27.437	WT901BLE68-01(48591DE3C19B)	-0.147	-1.085	-0.062	-5.066	48.584	221.802	-58.88	49.22	-53.43	-98.000	-46.942	14.602	-0.54324	0.47122	-0.37482	0.58502	30.8	13111	100
2025-3-27 18:48:27.437	WT901BLE68-01(48591DE3C19B)	-0.125	-1.085	-0.062	-5.066	48.584	221.802	-58.36	51.17	-52.59	-98.000	-46.942	14.602	-0.54324	0.47122	-0.37482	0.58502	30.8	13111	100
2025-3-27 18:48:27.437	WT901BLE68-01(48591DE3C19B)	-0.125	-1.263	-0.069	-19.287	26.428	203.613	-57.82	52.84	-51.55	-98.000	-46.942	14.602	-0.54324	0.47122	-0.37482	0.58502	30.8	13111	100
2025-3-27 18:48:27.468	WT901BLE68-01(48591DE3C19B)	0.054	-1.263	-0.069	-19.287	26.428	203.613	-57.20	54.49	-50.45	-98.000	-46.942	14.602	-0.54324	0.47122	-0.37482	0.58502	30.8	13111	100
2025-3-27 18:48:27.468	WT901BLE68-01(48591DE3C19B)	0.054	-1.495	-0.109	-25.940	8.972	171.509	-56.63	55.76	-49.35	-98.000	-46.942	14.602	-0.54324	0.47122	-0.37482	0.58502	30.8	13111	100
2025-3-27 18:48:27.468	WT901BLE68-01(48591DE3C19B)	0.375	-1.495	-0.109	-25.940	8.972	171.509	-56.02	57.01	-48.20	-98.000	-46.942	14.602	-0.54324	0.47122	-0.37482	0.58502	30.8	13111	100
2025-3-27 18:48:27.469	WT901BLE68-01(48591DE3C19B)	0.375	-1.653	-0.163	-17.944	3.357	129.395	-55.58	57.87	-47.37	-98.000	-46.942	14.602	-0.54324	0.47122	-0.37482	0.58502	30.8	13111	100
2025-3-27 18:48:27.501	WT901BLE68-01(48591DE3C19B)	0.501	-1.653	-0.163	-17.944	3.357	129.395	-55.13	58.71	-46.53	-98.000	-46.942	14.602	-0.54324	0.47122	-0.37482	0.58502	30.8	13111	100
2025-3-27 18:48:27.501	WT901BLE68-01(48591DE3C19B)	0.501	-1.631	-0.136	-9.338	4.333	71.716	-55.14	59.07	-46.34	-98.000	-46.942	14.602	-0.54324	0.47122	-0.37482	0.58502	30.8	13111	100
2025-3-27 18:48:27.501	WT901BLE68-01(48591DE3C19B)	0.297	-1.631	-0.136	-9.338	4.333	71.716	-55.16	59.43	-46.16	-98.000	-46.942	14.602	-0.54324	0.47122	-0.37482	0.58502	30.8	13111	100
2025-3-27 18:48:27.501	WT901BLE68-01(48591DE3C19B)	0.297	-1.698	-0.032	-19.409	19.836	7.629	-56.12	59.33	-46.96	-98.000	-46.942	14.602	-0.79495	0.20248	-0.56424	0.09253	30.8	13111	100
2025-3-27 18:48:27.528	WT901BLE68-01(48591DE3C19B)	-0.002	-1.698	-0.032	-19.409	19.836	7.629	-57.07	59.23	-47.74	-98.000	-46.942	14.602	-0.79495	0.20248	-0.56424	0.09253	30.8	13111	100
2025-3-27 18:48:27.529	WT901BLE68-01(48591DE3C19B)	-0.002	-1.853	0.143	-15.137	48.340	-59.265	-58.95	58.71	-49.66	-98.000	-46.942	14.602	-0.79495	0.20248	-0.56424	0.09253	30.8	13111	100
2025-3-27 18:48:27.529	WT901BLE68-01(48591DE3C19B)	-0.144	-1.853	0.143	-15.137	48.340	-59.265	-60.74	58.15	-51.52	-98.000	-46.942	14.602	-0.79495	0.20248	-0.56424	0.09253	30.8	13111	100
2025-3-27 18:48:27.529	WT901BLE68-01(48591DE3C19B)	-0.144	-1.822	0.299	-9.705	53.650	-130.981	-62.98	56.97	-53.99	-98.000	-46.942	14.602	-0.79495	0.20248	-0.56424	0.09253	30.8	13111	100
2025-3-27 18:48:27.586	WT901BLE68-01(48591DE3C19B)	-0.066	-1.822	0.299	-9.705	53.650	-130.981	-65.04	55.74	-56.29	-98.000	-46.942	14.602	-0.79495	0.20248	-0.56424	0.09253	30.8	13111	100
2025-3-27 18:48:27.586	WT901BLE68-01(48591DE3C19B)	0.016	-1.702	0.259	1.221	48.340	-192.871	-67.09	53.89	-58.77	-98.000	-46.942	14.602	-0.79495	0.20248	-0.56424	0.09253	30.8	13111	100
2025-3-27 18:48:27.586	WT901BLE68-01(48591DE3C19B)	0.016	-1.474	0.121	12.268	43.152	-244.019	-68.94	51.76	-61.12	-98.000	-46.942	14.602	-0.79495	0.20248	-0.56424	0.09253	30.8	13111	100
2025-3-27 18:48:27.587	WT901BLE68-01(48591DE3C19B)	-0.085	-1.474	0.121	12.268	43.152	-244.019	-70.58	49.36	-63.35	-98.000	-46.942	14.602	-0.79495	0.20248	-0.56424	0.09253	30.8	13111	100
2025-3-27 18:48:27.615	WT901BLE68-01(48591DE3C19B)	-0.085	-1.381	0.075	13.123	22.522	-272.034	-71.92	46.76	-65.29	-98.000	-46.942	14.602	-0.79495	0.20248	-0.56424	0.09253	30.8	13111	100
2025-3-27 18:48:27.615	WT901BLE68-01(48591DE3C19B)	-0.179	-1.381	0.075	13.123	22.522	-272.034	-73.02	43.99	-66.97	-98.000	-46.942	14.602	-0.79495	0.20248	-0.56424	0.09253	30.8	13111	100
2025-3-27 18:48:27.615	WT901BLE68-01(48591DE3C19B)	-0.179	-1.262	0.068	9.583	-2.075	-299.927	-73.90	41.05	-68.39	-98.000	-46.942	14.602	-0.79495	0.20248	-0.56424	0.09253	30.8	13111	100
2025-3-27 18:48:27.615	WT901BLE68-01(48591DE3C19B)	-0.216	-1.262	0.068	9.583	-2.075	-299.927	-74.60	37.95	-69.58	-98.000	-46.942	14.602	-0.79495	0.20248	-0.56424	0.09253	30.8	13111	100
2025-3-27 18:48:27.646	WT901BLE68-01(48591DE3C19B)	-0.216	-1.159	0.135	0.244	-20.020	-323.547	-75.19	34.72	-70.60	-98.000	-46.942	14.602	-0.79495	0.20248	-0.56424	0.09253	30.8	13111	100
2025-3-27 18:48:27.647	WT901BLE68-01(48591DE3C19B)	-0.187	-1.159	0.135	0.244	-20.020	-323.547	-75.70	31.37	-71.47	-98.000	-46.942	14.602	-0.79495	0.20248	-0.56424	0.09253	30.8	13111	100
2025-3-27 18:48:27.647	WT901BLE68-01(48591DE3C19B)	-0.187	-1.174	0.223	-15.869	-23.743	-341.797	-76.20	27.94	-72.27	-98.000	-46.942	14.602	-0.79495	0.20248	-0.56424	0.09253	30.8	13111	100
2025-3-27 18:48:27.647	WT901BLE68-01(48591DE3C19B)	-0.280	-1.174	0.223	-15.869	-23.743	-341.797	-76.72	24.44	-73.02	-98.000	-46.942	14.602	-0.79495	0.20248	-0.56424	0.09253	30.8	13111	100
2025-3-27 18:48:27.736	WT901BLE68-01(48591DE3C19B)	-0.280	-1.306	0.325	-28.564	-13.489	-354.309	-77.26	20.91	-73.76	-98.000	-46.942	14.602	-0.79495	0.20248	-0.56424	0.09253	30.8	13111	100
2025-3-27 18:48:27.737	WT901BLE68-01(48591DE3C19B)	-0.483	-1.306	0.325	-28.564	-13.489	-354.309	-77.82	17.34	-74.53	-98.000	-46.942	14.602	-0.79495	0.20248	-0.56424	0.09253	30.8	13111	100
2025-3-27 18:48:27.737	WT901BLE68-01(48591DE3C19B)	-0.483	-1.502	0.452	-34.180	-8.545	-358.337	-78.34	13.78	-75.29	-98.000	-46.942	14.602	-0.79495	0.20248	-0.56424	0.09253	30.8	13111	100
2025-3-27 18:48:27.737	WT901BLE68-01(48591DE3C19B)	-0.505	-1.502	0.452	-34.180	-8.545	-358.337	-78.84	10.23	-76.03	-98.000	-46.942	14.602	-0.79495	0.20248	-0.56424	0.09253	30.8	13111	100
2025-3-27 18:48:27.738	WT901BLE68-01(48591DE3C19B)	-0.505	-1.674	0.482	-36.926	-4.822	-355.347	-79.30	6.72	-76.74	-96.824	-40.180	2.450	-0.79495	0.20248	-0.56424	0.09253	30.8	13111	100
2025-3-27 18:48:27.738	WT901BLE68-01(48591DE3C19B)	-0.392	-1.674	0.482	-36.926	-4.822	-355.347	-79.72	3.25	-77.44	-96.824	-40.180	2.450	-0.79495	0.20248	-0.56424	0.09253	30.8	13111	100
2025-3-27 18:48:27.738	WT901BLE68-01(48591DE3C19B)	-0.392	-1.711	0.396	-25.696	12.451	-337.402	-80.04	-0.10	-78.17	-96.824	-40.180	2.450	-0.79495	0.20248	-0.56424	0.09253	30.8	13111	100
2025-3-27 18:48:27.738	WT901BLE68-01(48591DE3C19B)	-0.403	-1.711	0.396	-25.696	12.451	-337.402	-80.27	-3.33	-78.96	-96.824	-40.180	2.450	-0.79495	0.20248	-0.56424	0.09253	30.8	13111	100
2025-3-27 18:48:27.767	WT901BLE68-01(48591DE3C19B)	-0.403	-1.599	0.259	-15.564	28.748	-313.782	-80.39	-6.41	-79.79	-96.824	-40.180	2.450	-0.79495	0.20248	-0.56424	0.09253	30.8	13111	100
2025-3-27 18:48:27.768	WT901BLE68-01(48591DE3C19B)	-0.499	-1.599	0.259	-15.564	28.748	-313.782	-80.41	-9.34	-80.69	-96.824	-40.180	2.450	-0.79495	0.20248	-0.56424	0.09253	30.8	13111	100
2025-3-27 18:48:27.768	WT901BLE68-01(48591DE3C19B)	-0.499	-1.545	0.189	-5.371	40.771	-287.598	-80.34	-12.11	-81.62	-96.824	-40.180	2.450	-0.79495	0.20248	-0.56424	0.09253	30.8	13111	100
2025-3-27 18:48:27.768	WT901BLE68-01(48591DE3C19B)	-0.540	-1.545	0.189	-5.371	40.771	-287.598	-80.16	-14.73	-82.61	-96.824	-40.180	2.450	-0.79495	0.20248	-0.56424	0.09253	30.8	13111	100
2025-3-27 18:48:27.826	WT901BLE68-01(48591DE3C19B)	-0.540	-1.362	0.257	9.888	52.612	-262.573	-79.85	-17.18	-83.64	-96.824	-40.180	2.450	-0.79495	0.20248	-0.56424	0.09253	30.8	13111	100
2025-3-27 18:48:27.826	WT901BLE68-01(48591DE3C19B)	-0.510	-1.362	0.257	9.888	52.612	-262.573	-79.41	-19.48	-84.74	-96.824	-40.180	2.450	-0.79495	0.20248	-0.56424	0.09253	30.8	13111	100
2025-3-27 18:48:27.826	WT901BLE68-01(48591DE3C19B)	-0.510	-1.181	0.366	13.489	74.158	-231.384	-78.88	-21.58	-85.95	-96.824	-40.180	2.450	-0.79495	0.20248	-0.56424	0.09253	30.8	13111	100
2025-3-27 18:48:27.826	WT901BLE68-01(48591DE3C19B)	-0.538	-1.181	0.366	13.489	74.158	-231.384	-78.24	-23.47	-87.28	-96.824	-40.180	2.450	-0.79495	0.20248	-0.56424	0.09253	30.8	13111	100
2025-3-27 18:48:27.857	WT901BLE68-01(48591DE3C19B)	-0.538	-1.085	0.443	17.639	100.769	-196.472	-77.48	-25.15	-88.75	-96.824	-40.180	2.450	-0.79495	0.20248	-0.56424	0.09253	30.8	13111	100
2025-3-27 18:48:27.858	WT901BLE68-01(48591DE3C19B)	-0.619	-1.085	0.443	17.639	100.769	-196.472	-76.60	-26.59	-90.38	-96.824	-40.180	2.450	-0.79495	0.20248	-0.56424	0.09253	30.8	13111	100
2025-3-27 18:48:27.858	WT901BLE68-01(48591DE3C19B)	-0.619	-1.044	0.426	20.325	117.310	-161.072	-75.64	-27.80	-92.09	-96.824	-40.180	2.450	-0.79495	0.20248	-0.56424	0.09253	30.8	13111	100
2025-3-27 18:48:27.858	WT901BLE68-01(48591DE3C19B)	-0.683	-1.044	0.426	20.325	117.310	-161.072	-74.60	-28.78	-93.88	-96.824	-40.180	2.450	-0.79495	0.20248	-0.56424	0.09253	30.8	13111	100
2025-3-27 18:48:27.916	WT901BLE68-01(48591DE3C19B)	-0.683	-1.046	0.357	21.973	120.117	-127.319	-73.52	-29.56	-95.66	-96.824	-40.180	2.450	-0.79495	0.20248	-0.56424	0.09253	30.8	13111	100
2025-3-27 18:48:27.916	WT901BLE68-01(48591DE3C19B)	-0.779	-1.046	0.357	21.973	120.117	-127.319	-72.43	-30.13	-97.44	-96.824	-40.180	2.450	-0.79495	0.20248	-0.56424	0.09253	30.8	13111	100
2025-3-27 18:48:27.916	WT901BLE68-01(48591DE3C19B)	-0.779	-1.029	0.313	22.339	111.389	-96.313	-71.37	-30.53	-99.14	-96.824	-40.180	2.450	-0.38806	0.52451	-0.28958	0.70023	30.8	13111	100
2025-3-27 18:48:27.917	WT901BLE68-01(48591DE3C19B)	-0.892	-1.029	0.313	22.339	111.389	-96.313	-70.35	-30.76	-100.74	-96.824	-40.180	2.450	-0.38806	0.52451	-0.28958	0.70023	30.8	13111	100
2025-3-27 18:48:27.945	WT901BLE68-01(48591DE3C19B)	-0.892	-1.058	0.280	18.311	88.684	-67.627	-69.44	-30.87	-102.17	-96.824	-40.180	2.450	-0.38806	0.52451	-0.28958	0.70023	30.8	13111	100
2025-3-27 18:48:27.945	WT901BLE68-01(48591DE3C19B)	-0.984	-1.058	0.280	18.311	88.684	-67.627	-68.65	-30.86	-103.42	-96.824	-40.180	2.450	-0.38806	0.52451	-0.28958	0.70023	30.8	13111	100
2025-3-27 18:48:27.945	WT901BLE68-01(48591DE3C19B)	-0.984	-1.112	0.281	11.169	58.411	-41.016	-68.01	-30.76	-104.45	-96.824	-40.180	2.450	-0.38806	0.52451	-0.28958	0.70023	30.8	13111	100
2025-3-27 18:48:27.945	WT901BLE68-01(48591DE3C19B)	-0.971	-1.112	0.281	11.169	58.411	-41.016	-67.52	-30.57	-105.27	-96.824	-40.180	2.450	-0.38806	0.52451	-0.28958	0.70023	30.8	13111	100
2025-3-27 18:48:27.976	WT901BLE68-01(48591DE3C19B)	-0.971	-1.168	0.318	4.028	32.532	-11.719	-67.16	-30.30	-105.89	-96.824	-40.180	2.450	-0.38806	0.52451	-0.28958	0.70023	30.8	13111	100
2025-3-27 18:48:27.976	WT901BLE68-01(48591DE3C19B)	-0.863	-1.168	0.318	4.028	32.532	-11.719	-66.95	-29.93	-106.32	-96.824	-40.180	2.450	-0.38806	0.52451	-0.28958	0.70023	30.8	13111	100
2025-3-27 18:48:27.976	WT901BLE68-01(48591DE3C19B)	-0.863	-1.032	0.333	-1.282	21.423	24.475	-66.83	-29.41	-106.62	-96.824	-40.180	2.450	-0.38806	0.52451	-0.28958	0.70023	30.8	13111	100
2025-3-27 18:48:27.976	WT901BLE68-01(48591DE3C19B)	-0.749	-1.032	0.333	-1.282	21.423	24.475	-66.79	-28.75	-106.79	-96.824	-40.180	2.450	-0.38806	0.52451	-0.28958	0.70023	30.8	13111	100
2025-3-27 18:48:28.36	WT901BLE68-01(48591DE3C19B)	-0.749	-0.869	0.322	-15.930	18.677	64.514	-66.87	-27.91	-106.88	-96.824	-40.180	2.450	-0.38806	0.52451	-0.28958	0.70023	30.8	13111	100
2025-3-27 18:48:28.36	WT901BLE68-01(48591DE3C19B)	-0.751	-0.869	0.322	-15.930	18.677	64.514	-67.06	-26.89	-106.89	-96.824	-40.180	2.450	-0.38806	0.52451	-0.28958	0.70023	30.8	13111	100
2025-3-27 18:48:28.36	WT901BLE68-01(48591DE3C19B)	-0.751	-0.861	0.317	-32.715	4.944	102.539	-67.37	-25.74	-106.78	-96.824	-40.180	2.450	-0.38806	0.52451	-0.28958	0.70023	30.8	13111	100
2025-3-27 18:48:28.37	WT901BLE68-01(48591DE3C19B)	-0.808	-0.861	0.317	-32.715	4.944	102.539	-67.82	-24.43	-106.53	-96.824	-40.180	2.450	-0.38806	0.52451	-0.28958	0.70023	30.8	13111	100
2025-3-27 18:48:28.100	WT901BLE68-01(48591DE3C19B)	-0.808	-0.948	0.325	-43.640	-28.015	137.146	-68.54	-22.93	-105.85	-96.824	-40.180	2.450	-0.38806	0.52451	-0.28958	0.70023	30.8	13111	100
2025-3-27 18:48:28.100	WT901BLE68-01(48591DE3C19B)	-0.790	-0.948	0.325	-43.640	-28.015	137.146	-69.23	-21.43	-105.20	-96.824	-40.180	2.450	-0.38806	0.52451	-0.28958	0.70023	30.8	13111	100
2025-3-27 18:48:28.100	WT901BLE68-01(48591DE3C19B)	-0.790	-0.925	0.320	-45.105	-69.885	169.495	-70.08	-19.76	-104.05	-96.824	-40.180	2.450	-0.38806	0.52451	-0.28958	0.70023	30.8	13111	100
2025-3-27 18:48:28.101	WT901BLE68-01(48591DE3C19B)	-0.769	-0.925	0.320	-45.105	-69.885	169.495	-70.87	-18.09	-102.95	-96.824	-40.180	2.450	-0.38806	0.52451	-0.28958	0.70023	30.8	13111	100
2025-3-27 18:48:28.101	WT901BLE68-01(48591DE3C19B)	-0.769	-0.989	0.273	-47.180	-110.901	198.914	-71.78	-16.27	-101.38	-96.824	-40.180	2.450	-0.38806	0.52451	-0.28958	0.70023	30.8	13111	100
2025-3-27 18:48:28.101	WT901BLE68-01(48591DE3C19B)	-0.740	-0.989	0.273	-47.180	-110.901	198.914	-72.63	-14.43	-99.84	-96.824	-40.180	2.450	-0.38806	0.52451	-0.28958	0.70023	30.8	13111	100
2025-3-27 18:48:28.101	WT901BLE68-01(48591DE3C19B)	-0.740	-1.183	0.198	-41.626	-149.231	225.159	-73.47	-12.44	-97.89	-96.824	-40.180	2.450	-0.38806	0.52451	-0.28958	0.70023	30.8	13111	100
2025-3-27 18:48:28.101	WT901BLE68-01(48591DE3C19B)	-0.659	-1.183	0.198	-41.626	-149.231	225.159	-74.24	-10.43	-95.97	-68.992	-60.956	0.490	-0.38806	0.52451	-0.28958	0.70023	30.8	13111	100
2025-3-27 18:48:28.128	WT901BLE68-01(48591DE3C19B)	-0.659	-1.414	0.125	-30.273	-182.861	246.521	-74.89	-8.28	-93.67	-68.992	-60.956	0.490	-0.38806	0.52451	-0.28958	0.70023	30.8	13111	100
2025-3-27 18:48:28.128	WT901BLE68-01(48591DE3C19B)	-0.499	-1.414	0.125	-30.273	-182.861	246.521	-75.45	-6.14	-91.40	-68.992	-60.956	0.490	-0.38806	0.52451	-0.28958	0.70023	30.8	13111	100
2025-3-27 18:48:28.128	WT901BLE68-01(48591DE3C19B)	-0.499	-1.667	0.080	-12.634	-204.590	264.221	-75.78	-3.87	-88.87	-68.992	-60.956	0.490	-0.38806	0.52451	-0.28958	0.70023	30.8	13111	100
2025-3-27 18:48:28.128	WT901BLE68-01(48591DE3C19B)	-0.313	-1.667	0.080	-12.634	-204.590	264.221	-76.03	-1.62	-86.35	-68.992	-60.956	0.490	-0.38806	0.52451	-0.28958	0.70023	30.8	13111	100
2025-3-27 18:48:28.186	WT901BLE68-01(48591DE3C19B)	-0.313	-1.829	0.054	13.367	-201.660	276.733	-75.91	0.74	-83.83	-68.992	-60.956	0.490	-0.38806	0.52451	-0.28958	0.70023	30.8	13111	100
2025-3-27 18:48:28.186	WT901BLE68-01(48591DE3C19B)	-0.210	-1.829	0.054	13.367	-201.660	276.733	-75.70	3.07	-81.30	-68.992	-60.956	0.490	-0.38806	0.52451	-0.28958	0.70023	30.8	13111	100
2025-3-27 18:48:28.186	WT901BLE68-01(48591DE3C19B)	-0.210	-1.788	0.050	38.269	-180.115	284.119	-75.16	5.48	-78.94	-68.992	-60.956	0.490	-0.38806	0.52451	-0.28958	0.70023	30.8	13111	100
2025-3-27 18:48:28.186	WT901BLE68-01(48591DE3C19B)	-0.291	-1.788	0.050	38.269	-180.115	284.119	-74.51	7.84	-76.56	-68.992	-60.956	0.490	-0.38806	0.52451	-0.28958	0.70023	30.8	13111	100
2025-3-27 18:48:28.216	WT901BLE68-01(48591DE3C19B)	-0.291	-1.712	-0.007	49.133	-175.232	286.865	-73.68	10.20	-74.17	-68.992	-60.956	0.490	-0.38806	0.52451	-0.28958	0.70023	30.8	13111	100
2025-3-27 18:48:28.216	WT901BLE68-01(48591DE3C19B)	-0.352	-1.712	-0.007	49.133	-175.232	286.865	-72.75	12.49	-71.73	-68.992	-60.956	0.490	-0.38806	0.52451	-0.28958	0.70023	30.8	13111	100
2025-3-27 18:48:28.216	WT901BLE68-01(48591DE3C19B)	-0.352	-1.733	-0.072	58.044	-188.293	284.607	-71.60	14.66	-69.11	-68.992	-60.956	0.490	-0.38806	0.52451	-0.28958	0.70023	30.8	13111	100
2025-3-27 18:48:28.216	WT901BLE68-01(48591DE3C19B)	-0.267	-1.733	-0.072	58.044	-188.293	284.607	-70.35	16.76	-66.42	-68.992	-60.956	0.490	-0.38806	0.52451	-0.28958	0.70023	30.8	13111	100
2025-3-27 18:48:28.246	WT901BLE68-01(48591DE3C19B)	-0.267	-1.738	-0.136	66.284	-187.195	282.166	-68.91	18.76	-63.68	-68.992	-60.956	0.490	-0.38806	0.52451	-0.28958	0.70023	30.8	13111	100
2025-3-27 18:48:28.246	WT901BLE68-01(48591DE3C19B)	-0.129	-1.738	-0.136	66.284	-187.195	282.166	-67.37	20.68	-60.86	-68.992	-60.956	0.490	-0.38806	0.52451	-0.28958	0.70023	30.8	13111	100
2025-3-27 18:48:28.247	WT901BLE68-01(48591DE3C19B)	-0.129	-1.645	-0.097	76.233	-158.936	285.034	-65.72	22.64	-58.22	-68.992	-60.956	0.490	-0.38806	0.52451	-0.28958	0.70023	30.8	13111	100
2025-3-27 18:48:28.247	WT901BLE68-01(48591DE3C19B)	-0.078	-1.645	-0.097	76.233	-158.936	285.034	-63.96	24.52	-55.49	-68.992	-60.956	0.490	-0.38806	0.52451	-0.28958	0.70023	30.8	13111	100
2025-3-27 18:48:28.306	WT901BLE68-01(48591DE3C19B)	-0.078	-1.496	-0.048	80.322	-123.535	289.063	-62.19	26.49	-53.00	-68.992	-60.956	0.490	-0.38806	0.52451	-0.28958	0.70023	30.8	13111	100
2025-3-27 18:48:28.306	WT901BLE68-01(48591DE3C19B)	-0.024	-1.496	-0.048	80.322	-123.535	289.063	-60.30	28.38	-50.41	-68.992	-60.956	0.490	-0.38806	0.52451	-0.28958	0.70023	30.8	13111	100
2025-3-27 18:48:28.306	WT901BLE68-01(48591DE3C19B)	-0.024	-1.427	-0.046	74.463	-93.628	285.156	-58.51	30.29	-48.02	-68.992	-60.956	0.490	-0.38806	0.52451	-0.28958	0.70023	30.8	13111	100
2025-3-27 18:48:28.306	WT901BLE68-01(48591DE3C19B)	0.024	-1.427	-0.046	74.463	-93.628	285.156	-56.60	32.12	-45.54	-68.992	-60.956	0.490	-0.38806	0.52451	-0.28958	0.70023	30.8	13111	100
2025-3-27 18:48:28.338	WT901BLE68-01(48591DE3C19B)	0.024	-1.560	-0.063	69.031	-62.561	272.034	-54.84	33.94	-43.34	-68.992	-60.956	0.490	-0.83856	0.31366	-0.40338	0.18860	30.8	13111	100
2025-3-27 18:48:28.338	WT901BLE68-01(48591DE3C19B)	0.066	-1.560	-0.063	69.031	-62.561	272.034	-52.98	35.67	-41.04	-68.992	-60.956	0.490	-0.83856	0.31366	-0.40338	0.18860	30.8	13111	100
2025-3-27 18:48:28.338	WT901BLE68-01(48591DE3C19B)	0.066	-1.691	-0.090	64.880	-38.513	249.451	-51.28	37.31	-39.06	-68.992	-60.956	0.490	-0.83856	0.31366	-0.40338	0.18860	30.8	13111	100
2025-3-27 18:48:28.338	WT901BLE68-01(48591DE3C19B)	0.293	-1.691	-0.090	64.880	-38.513	249.451	-49.49	38.88	-36.97	-68.992	-60.956	0.490	-0.83856	0.31366	-0.40338	0.18860	30.8	13111	100
2025-3-27 18:48:28.426	WT901BLE68-01(48591DE3C19B)	0.293	-1.839	-0.216	61.462	-15.137	212.463	-48.00	40.27	-35.35	-68.992	-60.956	0.490	-0.83856	0.31366	-0.40338	0.18860	30.8	13111	100
2025-3-27 18:48:28.426	WT901BLE68-01(48591DE3C19B)	0.528	-1.839	-0.216	61.462	-15.137	212.463	-46.43	41.61	-33.67	-68.992	-60.956	0.490	-0.83856	0.31366	-0.40338	0.18860	30.8	13111	100
2025-3-27 18:48:28.426	WT901BLE68-01(48591DE3C19B)	0.528	-1.906	-0.341	63.477	26.367	168.457	-45.34	42.89	-32.74	-68.992	-60.956	0.490	-0.83856	0.31366	-0.40338	0.18860	30.8	13111	100
2025-3-27 18:48:28.426	WT901BLE68-01(48591DE3C19B)	0.434	-1.906	-0.341	63.477	26.367	168.457	-44.20	44.13	-31.78	-68.992	-60.956	0.490	-0.83856	0.31366	-0.40338	0.18860	30.8	13111	100
2025-3-27 18:48:28.427	WT901BLE68-01(48591DE3C19B)	0.434	-1.831	-0.272	56.458	73.425	125.427	-43.74	45.40	-31.68	-68.992	-60.956	0.490	-0.83856	0.31366	-0.40338	0.18860	30.8	13111	100
2025-3-27 18:48:28.428	WT901BLE68-01(48591DE3C19B)	0.136	-1.831	-0.272	56.458	73.425	125.427	-43.26	46.66	-31.58	-68.992	-60.956	0.490	-0.83856	0.31366	-0.40338	0.18860	30.8	13111	100
2025-3-27 18:48:28.428	WT901BLE68-01(48591DE3C19B)	0.136	-1.780	-0.127	42.419	113.892	60.852	-43.74	47.76	-32.59	-68.992	-60.956	0.490	-0.83856	0.31366	-0.40338	0.18860	30.8	13111	100
2025-3-27 18:48:28.428	WT901BLE68-01(48591DE3C19B)	-0.029	-1.780	-0.127	42.419	113.892	60.852	-44.25	48.86	-33.63	-68.992	-60.956	0.490	-0.83856	0.31366	-0.40338	0.18860	30.8	13111	100
2025-3-27 18:48:28.457	WT901BLE68-01(48591DE3C19B)	-0.029	-1.661	0.034	34.363	145.691	-6.958	-45.69	49.68	-35.80	-68.992	-60.956	0.490	-0.83856	0.31366	-0.40338	0.18860	30.8	13111	100
2025-3-27 18:48:28.457	WT901BLE68-01(48591DE3C19B)	-0.014	-1.661	0.034	34.363	145.691	-6.958	-47.20	50.47	-38.03	-68.992	-60.956	0.490	-0.83856	0.31366	-0.40338	0.18860	30.8	13111	100
2025-3-27 18:48:28.457	WT901BLE68-01(48591DE3C19B)	-0.014	-1.526	0.164	25.940	147.949	-63.110	-49.32	50.81	-40.94	-68.992	-60.956	0.490	-0.83856	0.31366	-0.40338	0.18860	30.8	13111	100
2025-3-27 18:48:28.457	WT901BLE68-01(48591DE3C19B)	0.080	-1.526	0.164	25.940	147.949	-63.110	-51.45	51.07	-43.88	-68.992	-60.956	0.490	-0.83856	0.31366	-0.40338	0.18860	30.8	13111	100
2025-3-27 18:48:28.485	WT901BLE68-01(48591DE3C19B)	0.080	-1.454	0.158	26.611	126.526	-110.168	-53.71	50.76	-47.01	-68.992	-60.956	0.490	-0.83856	0.31366	-0.40338	0.18860	30.8	13111	100
2025-3-27 18:48:28.485	WT901BLE68-01(48591DE3C19B)	0.114	-1.454	0.158	26.611	126.526	-110.168	-55.93	50.39	-50.11	-68.992	-60.956	0.490	-0.83856	0.31366	-0.40338	0.18860	30.8	13111	100
2025-3-27 18:48:28.485	WT901BLE68-01(48591DE3C19B)	0.118	-1.234	0.133	31.616	91.858	-137.878	-57.85	49.53	-52.95	-68.992	-60.956	0.490	-0.83856	0.31366	-0.40338	0.18860	30.8	13111	100
2025-3-27 18:48:28.485	WT901BLE68-01(48591DE3C19B)	0.118	-1.042	0.091	24.902	67.200	-159.119	-59.64	48.47	-55.61	-68.992	-60.956	0.490	-0.83856	0.31366	-0.40338	0.18860	30.8	13111	100
2025-3-27 18:48:28.546	WT901BLE68-01(48591DE3C19B)	0.084	-1.042	0.091	24.902	67.200	-159.119	-61.27	47.20	-58.06	-68.992	-60.956	0.490	-0.83856	0.31366	-0.40338	0.18860	30.8	13111	100
2025-3-27 18:48:28.547	WT901BLE68-01(48591DE3C19B)	0.084	-1.027	0.057	10.681	60.181	-182.495	-62.86	45.77	-60.42	-98.980	-11.858	-11.564	-0.83856	0.31366	-0.40338	0.18860	30.8	13111	100
2025-3-27 18:48:28.547	WT901BLE68-01(48591DE3C19B)	0.038	-1.027	0.057	10.681	60.181	-182.495	-64.41	44.19	-62.68	-98.980	-11.858	-11.564	-0.83856	0.31366	-0.40338	0.18860	30.8	13111	100
2025-3-27 18:48:28.547	WT901BLE68-01(48591DE3C19B)	0.038	-1.142	0.063	1.465	66.650	-206.238	-65.95	42.47	-64.91	-98.980	-11.858	-11.564	-0.83856	0.31366	-0.40338	0.18860	30.8	13111	100
2025-3-27 18:48:28.575	WT901BLE68-01(48591DE3C19B)	-0.045	-1.142	0.063	1.465	66.650	-206.238	-67.45	40.63	-67.12	-98.980	-11.858	-11.564	-0.83856	0.31366	-0.40338	0.18860	30.8	13111	100
2025-3-27 18:48:28.575	WT901BLE68-01(48591DE3C19B)	-0.045	-1.179	0.105	2.563	78.003	-229.370	-68.88	38.67	-69.31	-98.980	-11.858	-11.564	-0.83856	0.31366	-0.40338	0.18860	30.8	13111	100
2025-3-27 18:48:28.575	WT901BLE68-01(48591DE3C19B)	-0.158	-1.179	0.105	2.563	78.003	-229.370	-70.24	36.59	-71.48	-98.980	-11.858	-11.564	-0.83856	0.31366	-0.40338	0.18860	30.8	13111	100
2025-3-27 18:48:28.575	WT901BLE68-01(48591DE3C19B)	-0.158	-1.194	0.143	0.000	78.064	-252.014	-71.48	34.39	-73.57	-98.980	-11.858	-11.564	-0.83856	0.31366	-0.40338	0.18860	30.8	13111	100
2025-3-27 18:48:28.607	WT901BLE68-01(48591DE3C19B)	-0.240	-1.194	0.143	0.000	78.064	-252.014	-72.63	32.05	-75.58	-98.980	-11.858	-11.564	-0.83856	0.31366	-0.40338	0.18860	30.8	13111	100
2025-3-27 18:48:28.608	WT901BLE68-01(48591DE3C19B)	-0.240	-1.218	0.179	-2.197	66.589	-274.353	-73.65	29.58	-77.45	-98.980	-11.858	-11.564	-0.83856	0.31366	-0.40338	0.18860	30.8	13111	100
2025-3-27 18:48:28.608	WT901BLE68-01(48591DE3C19B)	-0.313	-1.218	0.179	-2.197	66.589	-274.353	-74.53	26.98	-79.18	-98.980	-11.858	-11.564	-0.83856	0.31366	-0.40338	0.18860	30.8	13111	100
2025-3-27 18:48:28.608	WT901BLE68-01(48591DE3C19B)	-0.313	-1.201	0.234	-6.409	53.528	-291.443	-75.30	24.28	-80.78	-98.980	-11.858	-11.564	-0.83856	0.31366	-0.40338	0.18860	30.8	13111	100
2025-3-27 18:48:28.668	WT901BLE68-01(48591DE3C19B)	-0.404	-1.201	0.234	-6.409	53.528	-291.443	-75.97	21.49	-82.25	-98.980	-11.858	-11.564	-0.83856	0.31366	-0.40338	0.18860	30.8	13111	100
2025-3-27 18:48:28.668	WT901BLE68-01(48591DE3C19B)	-0.404	-1.222	0.298	-10.986	39.795	-300.903	-76.55	18.64	-83.60	-98.980	-11.858	-11.564	-0.83856	0.31366	-0.40338	0.18860	30.8	13111	100
2025-3-27 18:48:28.668	WT901BLE68-01(48591DE3C19B)	-0.540	-1.222	0.298	-10.986	39.795	-300.903	-77.04	15.74	-84.83	-98.980	-11.858	-11.564	-0.83856	0.31366	-0.40338	0.18860	30.8	13111	100
2025-3-27 18:48:28.668	WT901BLE68-01(48591DE3C19B)	-0.540	-1.240	0.351	-10.010	23.132	-301.025	-77.44	12.84	-85.94	-98.980	-11.858	-11.564	-0.83856	0.31366	-0.40338	0.18860	30.8	13111	100
2025-3-27 18:48:28.701	WT901BLE68-01(48591DE3C19B)	-0.615	-1.240	0.351	-10.010	23.132	-301.025	-77.74	9.94	-86.92	-98.980	-11.858	-11.564	-0.83856	0.31366	-0.40338	0.18860	30.8	13111	100
2025-3-27 18:48:28.701	WT901BLE68-01(48591DE3C19B)	-0.615	-1.172	0.333	-7.568	5.859	-295.349	-77.96	7.08	-87.79	-98.980	-11.858	-11.564	-0.83856	0.31366	-0.40338	0.18860	30.8	13111	100
2025-3-27 18:48:28.701	WT901BLE68-01(48591DE3C19B)	-0.577	-1.172	0.333	-7.568	5.859	-295.349	-78.11	4.24	-88.55	-98.980	-11.858	-11.564	-0.83856	0.31366	-0.40338	0.18860	30.8	13111	100
2025-3-27 18:48:28.701	WT901BLE68-01(48591DE3C19B)	-0.577	-1.068	0.231	-12.573	-20.020	-285.339	-78.24	1.46	-89.17	-98.980	-11.858	-11.564	-0.55811	0.44244	-0.44989	0.53876	30.8	13111	100
2025-3-27 18:48:28.786	WT901BLE68-01(48591DE3C19B)	-0.485	-1.068	0.231	-12.573	-20.020	-285.339	-78.37	-1.28	-89.63	-98.980	-11.858	-11.564	-0.55811	0.44244	-0.44989	0.53876	30.8	13111	100
2025-3-27 18:48:28.786	WT901BLE68-01(48591DE3C19B)	-0.485	-1.070	0.134	-20.264	-57.007	-272.156	-78.52	-3.98	-89.91	-98.980	-11.858	-11.564	-0.55811	0.44244	-0.44989	0.53876	30.8	13111	100
2025-3-27 18:48:28.786	WT901BLE68-01(48591DE3C19B)	-0.592	-1.070	0.134	-20.264	-57.007	-272.156	-78.72	-6.62	-89.97	-98.980	-11.858	-11.564	-0.55811	0.44244	-0.44989	0.53876	30.8	13111	100
2025-3-27 18:48:28.786	WT901BLE68-01(48591DE3C19B)	-0.592	-1.147	0.158	-23.865	-95.093	-253.418	-78.96	-9.19	-89.82	-98.980	-11.858	-11.564	-0.55811	0.44244	-0.44989	0.53876	30.8	13111	100
2025-3-27 18:48:28.787	WT901BLE68-01(48591DE3C19B)	-0.855	-1.147	0.158	-23.865	-95.093	-253.418	-79.27	-11.68	-89.45	-98.980	-11.858	-11.564	-0.55811	0.44244	-0.44989	0.53876	30.8	13111	100
2025-3-27 18:48:28.788	WT901BLE68-01(48591DE3C19B)	-0.855	-1.276	0.262	-29.297	-122.925	-228.943	-79.66	-14.06	-88.90	-98.980	-11.858	-11.564	-0.55811	0.44244	-0.44989	0.53876	30.8	13111	100
2025-3-27 18:48:28.788	WT901BLE68-01(48591DE3C19B)	-1.063	-1.276	0.262	-29.297	-122.925	-228.943	-80.14	-16.31	-88.17	-98.980	-11.858	-11.564	-0.55811	0.44244	-0.44989	0.53876	30.8	13111	100
2025-3-27 18:48:28.788	WT901BLE68-01(48591DE3C19B)	-1.063	-1.336	0.455	-28.992	-140.991	-196.045	-80.68	-18.39	-87.29	-98.980	-11.858	-11.564	-0.55811	0.44244	-0.44989	0.53876	30.8	13111	100
2025-3-27 18:48:28.818	WT901BLE68-01(48591DE3C19B)	-1.009	-1.336	0.455	-28.992	-140.991	-196.045	-81.29	-20.30	-86.28	-98.980	-11.858	-11.564	-0.55811	0.44244	-0.44989	0.53876	30.8	13111	100
2025-3-27 18:48:28.818	WT901BLE68-01(48591DE3C19B)	-1.009	-1.315	0.563	-39.551	-130.920	-160.522	-81.98	-21.99	-85.27	-98.980	-11.858	-11.564	-0.55811	0.44244	-0.44989	0.53876	30.8	13111	100
2025-3-27 18:48:28.818	WT901BLE68-01(48591DE3C19B)	-0.793	-1.315	0.563	-39.551	-130.920	-160.522	-82.72	-23.47	-84.27	-98.980	-11.858	-11.564	-0.55811	0.44244	-0.44989	0.53876	30.8	13111	100
2025-3-27 18:48:28.818	WT901BLE68-01(48591DE3C19B)	-0.793	-1.363	0.665	-46.265	-82.520	-114.807	-83.42	-24.69	-83.49	-98.980	-11.858	-11.564	-0.55811	0.44244	-0.44989	0.53876	30.8	13111	100
2025-3-27 18:48:28.878	WT901BLE68-01(48591DE3C19B)	-0.715	-1.363	0.665	-46.265	-82.520	-114.807	-84.07	-25.63	-82.93	-98.980	-11.858	-11.564	-0.55811	0.44244	-0.44989	0.53876	30.8	13111	100
2025-3-27 18:48:28.878	WT901BLE68-01(48591DE3C19B)	-0.715	-1.432	0.746	-31.555	-8.362	-64.880	-84.47	-26.28	-82.75	-98.980	-11.858	-11.564	-0.55811	0.44244	-0.44989	0.53876	30.8	13111	100
2025-3-27 18:48:28.878	WT901BLE68-01(48591DE3C19B)	-0.667	-1.432	0.746	-31.555	-8.362	-64.880	-84.63	-26.66	-82.97	-98.980	-11.858	-11.564	-0.55811	0.44244	-0.44989	0.53876	30.8	13111	100
2025-3-27 18:48:28.878	WT901BLE68-01(48591DE3C19B)	-0.667	-1.280	0.782	-13.550	78.613	-15.869	-84.47	-26.75	-83.64	-98.980	-11.858	-11.564	-0.55811	0.44244	-0.44989	0.53876	30.8	13111	100
2025-3-27 18:48:28.936	WT901BLE68-01(48591DE3C19B)	-0.655	-1.280	0.782	-13.550	78.613	-15.869	-84.02	-26.56	-84.78	-98.980	-11.858	-11.564	-0.55811	0.44244	-0.44989	0.53876	30.8	13111	100
2025-3-27 18:48:28.936	WT901BLE68-01(48591DE3C19B)	-0.655	-1.108	0.690	-4.333	185.364	31.982	-83.28	-26.07	-86.48	-98.980	-11.858	-11.564	-0.55811	0.44244	-0.44989	0.53876	30.8	13111	100
2025-3-27 18:48:28.936	WT901BLE68-01(48591DE3C19B)	-0.799	-1.108	0.690	-4.333	185.364	31.982	-82.28	-25.25	-88.71	-98.980	-11.858	-11.564	-0.55811	0.44244	-0.44989	0.53876	30.8	13111	100
2025-3-27 18:48:28.936	WT901BLE68-01(48591DE3C19B)	-0.799	-0.953	0.531	2.380	262.085	78.308	-81.12	-24.11	-91.28	-78.890	-53.018	-7.546	-0.55811	0.44244	-0.44989	0.53876	30.8	13111	100
2025-3-27 18:48:28.937	WT901BLE68-01(48591DE3C19B)	-0.988	-0.953	0.531	2.380	262.085	78.308	-79.87	-22.65	-94.17	-78.890	-53.018	-7.546	-0.55811	0.44244	-0.44989	0.53876	30.8	13111	100
2025-3-27 18:48:28.938	WT901BLE68-01(48591DE3C19B)	-0.988	-0.766	0.404	2.075	267.944	119.202	-78.72	-20.92	-96.98	-78.890	-53.018	-7.546	-0.55811	0.44244	-0.44989	0.53876	30.8	13111	100
2025-3-27 18:48:28.938	WT901BLE68-01(48591DE3C19B)	-1.140	-0.766	0.404	2.075	267.944	119.202	-77.69	-18.94	-99.71	-78.890	-53.018	-7.546	-0.55811	0.44244	-0.44989	0.53876	30.8	13111	100
2025-3-27 18:48:28.938	WT901BLE68-01(48591DE3C19B)	-1.140	-0.654	0.284	-9.216	205.017	155.945	-77.10	-16.71	-101.65	-78.890	-53.018	-7.546	-0.55811	0.44244	-0.44989	0.53876	30.8	13111	100
2025-3-27 18:48:29.26	WT901BLE68-01(48591DE3C19B)	-1.317	-0.654	0.284	-9.216	205.017	155.945	-76.59	-14.46	-103.56	-78.890	-53.018	-7.546	-0.55811	0.44244	-0.44989	0.53876	30.8	13111	100
2025-3-27 18:48:29.26	WT901BLE68-01(48591DE3C19B)	-1.317	-0.768	0.148	-24.353	84.167	186.768	-76.61	-12.18	-104.17	-78.890	-53.018	-7.546	-0.55811	0.44244	-0.44989	0.53876	30.8	13111	100
2025-3-27 18:48:29.26	WT901BLE68-01(48591DE3C19B)	-1.376	-0.768	0.148	-24.353	84.167	186.768	-76.64	-9.91	-104.78	-78.890	-53.018	-7.546	-0.55811	0.44244	-0.44989	0.53876	30.8	13111	100
2025-3-27 18:48:29.26	WT901BLE68-01(48591DE3C19B)	-1.376	-1.034	0.048	-31.677	-55.176	206.177	-76.97	-7.77	-103.99	-78.890	-53.018	-7.546	-0.55811	0.44244	-0.44989	0.53876	30.8	13111	100
2025-3-27 18:48:29.55	WT901BLE68-01(48591DE3C19B)	-1.093	-1.034	0.048	-31.677	-55.176	206.177	-77.28	-5.62	-103.21	-78.890	-53.018	-7.546	-0.55811	0.44244	-0.44989	0.53876	30.8	13111	100
2025-3-27 18:48:29.56	WT901BLE68-01(48591DE3C19B)	-1.093	-1.260	0.058	-18.372	-146.606	217.651	-77.50	-3.57	-101.53	-78.890	-53.018	-7.546	-0.55811	0.44244	-0.44989	0.53876	30.8	13111	100
2025-3-27 18:48:29.56	WT901BLE68-01(48591DE3C19B)	-0.818	-1.260	0.058	-18.372	-146.606	217.651	-77.66	-1.51	-99.85	-78.890	-53.018	-7.546	-0.55811	0.44244	-0.44989	0.53876	30.8	13111	100
2025-3-27 18:48:29.56	WT901BLE68-01(48591DE3C19B)	-0.818	-1.337	0.046	0.305	-184.082	228.882	-77.59	0.55	-97.77	-78.890	-53.018	-7.546	-0.55811	0.44244	-0.44989	0.53876	30.8	13111	100
2025-3-27 18:48:29.56	WT901BLE68-01(48591DE3C19B)	-0.641	-1.337	0.046	0.305	-184.082	228.882	-77.45	2.61	-95.67	-78.890	-53.018	-7.546	-0.55811	0.44244	-0.44989	0.53876	30.8	13111	100
2025-3-27 18:48:29.56	WT901BLE68-01(48591DE3C19B)	-0.320	-1.457	0.023	11.536	-189.209	235.962	-77.14	4.70	-93.48	-78.890	-53.018	-7.546	-0.55811	0.44244	-0.44989	0.53876	30.8	13111	100
2025-3-27 18:48:29.56	WT901BLE68-01(48591DE3C19B)	-0.476	-0.729	0.011	11.536	-189.209	235.962	-76.74	6.76	-91.27	-78.890	-53.018	-7.546	-0.55811	0.44244	-0.44989	0.53876	30.8	13111	100
2025-3-27 18:48:29.57	WT901BLE68-01(48591DE3C19B)	-0.476	-1.660	0.051	28.076	-149.292	244.751	-76.17	8.95	-89.38	-78.890	-53.018	-7.546	-0.55811	0.44244	-0.44989	0.53876	30.8	13111	100
2025-3-27 18:48:29.115	WT901BLE68-01(48591DE3C19B)	-0.340	-1.660	0.051	28.076	-149.292	244.751	-75.52	11.11	-87.46	-78.890	-53.018	-7.546	-0.55811	0.44244	-0.44989	0.53876	30.8	13111	100
2025-3-27 18:48:29.115	WT901BLE68-01(48591DE3C19B)	-0.340	-1.702	0.059	43.945	-102.844	261.230	-74.73	13.49	-85.90	-78.890	-53.018	-7.546	-0.55811	0.44244	-0.44989	0.53876	30.8	13111	100
2025-3-27 18:48:29.115	WT901BLE68-01(48591DE3C19B)	-0.188	-1.702	0.059	43.945	-102.844	261.230	-73.88	15.82	-84.29	-78.890	-53.018	-7.546	-0.55811	0.44244	-0.44989	0.53876	30.8	13111	100
2025-3-27 18:48:29.115	WT901BLE68-01(48591DE3C19B)	-0.188	-1.573	0.061	52.734	-58.044	276.184	-72.99	18.37	-83.03	-78.890	-53.018	-7.546	-0.55811	0.44244	-0.44989	0.53876	30.8	13111	100
2025-3-27 18:48:29.146	WT901BLE68-01(48591DE3C19B)	-0.125	-1.573	0.061	52.734	-58.044	276.184	-72.03	20.87	-81.72	-78.890	-53.018	-7.546	-0.67773	0.33392	-0.49216	0.43225	30.8	13111	100
2025-3-27 18:48:29.146	WT901BLE68-01(48591DE3C19B)	-0.125	-1.421	0.061	52.490	-23.010	291.809	-71.11	23.59	-80.64	-78.890	-53.018	-7.546	-0.67773	0.33392	-0.49216	0.43225	30.8	13111	100
2025-3-27 18:48:29.146	WT901BLE68-01(48591DE3C19B)	-0.177	-1.421	0.061	52.490	-23.010	291.809	-70.13	26.26	-79.50	-78.890	-53.018	-7.546	-0.67773	0.33392	-0.49216	0.43225	30.8	13111	100
2025-3-27 18:48:29.146	WT901BLE68-01(48591DE3C19B)	-0.177	-1.355	0.051	51.086	-5.737	302.307	-69.14	29.05	-78.43	-78.890	-53.018	-7.546	-0.67773	0.33392	-0.49216	0.43225	30.8	13111	100
2025-3-27 18:48:29.175	WT901BLE68-01(48591DE3C19B)	-0.327	-1.355	0.051	51.086	-5.737	302.307	-68.08	31.79	-77.27	-78.890	-53.018	-7.546	-0.67773	0.33392	-0.49216	0.43225	30.8	13111	100
2025-3-27 18:48:29.175	WT901BLE68-01(48591DE3C19B)	-0.327	-1.357	0.038	52.246	-29.053	309.265	-66.75	34.48	-75.74	-78.890	-53.018	-7.546	-0.67773	0.33392	-0.49216	0.43225	30.8	13111	100
2025-3-27 18:48:29.175	WT901BLE68-01(48591DE3C19B)	-0.457	-1.357	0.038	52.246	-29.053	309.265	-65.29	37.11	-74.09	-78.890	-53.018	-7.546	-0.67773	0.33392	-0.49216	0.43225	30.8	13111	100
2025-3-27 18:48:29.175	WT901BLE68-01(48591DE3C19B)	-0.457	-1.432	0.031	48.767	-87.158	305.054	-63.33	39.39	-71.65	-78.890	-53.018	-7.546	-0.67773	0.33392	-0.49216	0.43225	30.8	13111	100
2025-3-27 18:48:29.235	WT901BLE68-01(48591DE3C19B)	-0.295	-1.432	0.031	48.767	-87.158	305.054	-61.18	41.59	-69.04	-78.890	-53.018	-7.546	-0.67773	0.33392	-0.49216	0.43225	30.8	13111	100
2025-3-27 18:48:29.236	WT901BLE68-01(48591DE3C19B)	-0.295	-1.589	0.069	46.326	-134.888	292.969	-58.55	43.36	-65.76	-78.890	-53.018	-7.546	-0.67773	0.33392	-0.49216	0.43225	30.8	13111	100
2025-3-27 18:48:29.236	WT901BLE68-01(48591DE3C19B)	-0.170	-1.589	0.069	46.326	-134.888	292.969	-55.72	44.98	-62.30	-78.890	-53.018	-7.546	-0.67773	0.33392	-0.49216	0.43225	30.8	13111	100
2025-3-27 18:48:29.236	WT901BLE68-01(48591DE3C19B)	-0.170	-1.676	0.075	50.598	-140.686	279.541	-52.68	46.32	-58.68	-78.890	-53.018	-7.546	-0.67773	0.33392	-0.49216	0.43225	30.8	13111	100
2025-3-27 18:48:29.265	WT901BLE68-01(48591DE3C19B)	-0.115	-1.676	0.075	50.598	-140.686	279.541	-49.48	47.51	-54.90	-78.890	-53.018	-7.546	-0.67773	0.33392	-0.49216	0.43225	30.8	13111	100
2025-3-27 18:48:29.265	WT901BLE68-01(48591DE3C19B)	-0.115	-1.835	0.036	41.992	-134.033	250.793	-46.48	48.37	-51.33	-78.890	-53.018	-7.546	-0.67773	0.33392	-0.49216	0.43225	30.8	13111	100
2025-3-27 18:48:29.265	WT901BLE68-01(48591DE3C19B)	0.075	-1.835	0.036	41.992	-134.033	250.793	-43.39	49.10	-47.65	-78.890	-53.018	-7.546	-0.67773	0.33392	-0.49216	0.43225	30.8	13111	100
2025-3-27 18:48:29.265	WT901BLE68-01(48591DE3C19B)	0.075	-2.046	-0.071	26.306	-119.446	203.857	-40.89	49.48	-44.59	-78.890	-53.018	-7.546	-0.67773	0.33392	-0.49216	0.43225	30.8	13111	100
2025-3-27 18:48:29.300	WT901BLE68-01(48591DE3C19B)	0.300	-2.046	-0.071	26.306	-119.446	203.857	-38.38	49.77	-41.50	-78.890	-53.018	-7.546	-0.67773	0.33392	-0.49216	0.43225	30.8	13111	100
2025-3-27 18:48:29.300	WT901BLE68-01(48591DE3C19B)	0.300	-2.126	-0.086	18.311	-82.825	146.973	-36.74	49.93	-39.44	-78.890	-53.018	-7.546	-0.67773	0.33392	-0.49216	0.43225	30.8	13111	100
2025-3-27 18:48:29.300	WT901BLE68-01(48591DE3C19B)	0.306	-2.126	-0.086	18.311	-82.825	146.973	-35.11	50.04	-37.38	-78.890	-53.018	-7.546	-0.67773	0.33392	-0.49216	0.43225	30.8	13111	100
2025-3-27 18:48:29.300	WT901BLE68-01(48591DE3C19B)	0.306	-1.927	0.067	-0.793	-34.973	97.290	-34.48	50.22	-36.39	-78.890	-53.018	-7.546	-0.67773	0.33392	-0.49216	0.43225	30.8	13111	100
2025-3-27 18:48:29.355	WT901BLE68-01(48591DE3C19B)	0.158	-1.927	0.067	-0.793	-34.973	97.290	-33.86	50.39	-35.40	-78.890	-53.018	-7.546	-0.67773	0.33392	-0.49216	0.43225	30.8	13111	100
2025-3-27 18:48:29.356	WT901BLE68-01(48591DE3C19B)	0.158	-1.740	0.280	-20.691	9.766	34.485	-34.37	50.58	-35.63	-102.214	-13.720	-18.620	-0.67773	0.33392	-0.49216	0.43225	30.8	13111	100
2025-3-27 18:48:29.356	WT901BLE68-01(48591DE3C19B)	-0.010	-1.740	0.280	-20.691	9.766	34.485	-34.87	50.75	-35.86	-102.214	-13.720	-18.620	-0.67773	0.33392	-0.49216	0.43225	30.8	13111	100
2025-3-27 18:48:29.356	WT901BLE68-01(48591DE3C19B)	-0.010	-1.549	0.375	-27.100	45.227	-21.301	-36.25	50.89	-37.14	-102.214	-13.720	-18.620	-0.67773	0.33392	-0.49216	0.43225	30.8	13111	100
2025-3-27 18:48:29.385	WT901BLE68-01(48591DE3C19B)	0.002	-1.549	0.375	-27.100	45.227	-21.301	-37.62	51.00	-38.42	-102.214	-13.720	-18.620	-0.67773	0.33392	-0.49216	0.43225	30.8	13111	100
2025-3-27 18:48:29.385	WT901BLE68-01(48591DE3C19B)	0.002	-1.379	0.262	-37.292	71.045	-74.585	-39.80	50.96	-40.63	-102.214	-13.720	-18.620	-0.67773	0.33392	-0.49216	0.43225	30.8	13111	100
2025-3-27 18:48:29.385	WT901BLE68-01(48591DE3C19B)	0.027	-1.379	0.262	-37.292	71.045	-74.585	-41.96	50.87	-42.82	-102.214	-13.720	-18.620	-0.67773	0.33392	-0.49216	0.43225	30.8	13111	100
2025-3-27 18:48:29.385	WT901BLE68-01(48591DE3C19B)	0.027	-1.266	0.110	-41.382	73.730	-122.253	-44.57	50.42	-45.55	-102.214	-13.720	-18.620	-0.67773	0.33392	-0.49216	0.43225	30.8	13111	100
2025-3-27 18:48:29.445	WT901BLE68-01(48591DE3C19B)	0.075	-1.266	0.110	-41.382	73.730	-122.253	-47.10	49.89	-48.22	-102.214	-13.720	-18.620	-0.67773	0.33392	-0.49216	0.43225	30.8	13111	100
2025-3-27 18:48:29.446	WT901BLE68-01(48591DE3C19B)	0.065	-1.141	0.060	-44.250	62.195	-165.405	-49.81	48.89	-51.11	-102.214	-13.720	-18.620	-0.67773	0.33392	-0.49216	0.43225	30.8	13111	100
2025-3-27 18:48:29.446	WT901BLE68-01(48591DE3C19B)	0.065	-1.096	0.096	-46.021	48.767	-195.984	-52.42	47.65	-53.92	-102.214	-13.720	-18.620	-0.67773	0.33392	-0.49216	0.43225	30.8	13111	100
2025-3-27 18:48:29.446	WT901BLE68-01(48591DE3C19B)	0.022	-1.096	0.096	-46.021	48.767	-195.984	-54.92	46.18	-56.62	-102.214	-13.720	-18.620	-0.67773	0.33392	-0.49216	0.43225	30.8	13111	100
2025-3-27 18:48:29.476	WT901BLE68-01(48591DE3C19B)	0.022	-1.080	0.146	-45.654	42.053	-223.511	-57.28	44.50	-59.21	-102.214	-13.720	-18.620	-0.67773	0.33392	-0.49216	0.43225	30.8	13111	100
2025-3-27 18:48:29.476	WT901BLE68-01(48591DE3C19B)	-0.052	-1.080	0.146	-45.654	42.053	-223.511	-59.49	42.63	-61.68	-102.214	-13.720	-18.620	-0.67773	0.33392	-0.49216	0.43225	30.8	13111	100
2025-3-27 18:48:29.476	WT901BLE68-01(48591DE3C19B)	-0.052	-1.046	0.193	-46.753	36.377	-249.695	-61.56	40.58	-64.02	-102.214	-13.720	-18.620	-0.67773	0.33392	-0.49216	0.43225	30.8	13111	100
2025-3-27 18:48:29.476	WT901BLE68-01(48591DE3C19B)	-0.066	-1.046	0.193	-46.753	36.377	-249.695	-63.48	38.35	-66.24	-102.214	-13.720	-18.620	-0.67773	0.33392	-0.49216	0.43225	30.8	13111	100
2025-3-27 18:48:29.505	WT901BLE68-01(48591DE3C19B)	-0.066	-1.055	0.215	-54.138	34.363	-278.076	-65.30	35.95	-68.35	-102.214	-13.720	-18.620	-0.67773	0.33392	-0.49216	0.43225	30.8	13111	100
2025-3-27 18:48:29.505	WT901BLE68-01(48591DE3C19B)	-0.074	-1.055	0.215	-54.138	34.363	-278.076	-67.02	33.38	-70.35	-102.214	-13.720	-18.620	-0.67773	0.33392	-0.49216	0.43225	30.8	13111	100
2025-3-27 18:48:29.505	WT901BLE68-01(48591DE3C19B)	-0.074	-1.124	0.229	-59.448	36.499	-303.589	-68.63	30.67	-72.26	-102.214	-13.720	-18.620	-0.67773	0.33392	-0.49216	0.43225	30.8	13111	100
2025-3-27 18:48:29.506	WT901BLE68-01(48591DE3C19B)	-0.160	-1.124	0.229	-59.448	36.499	-303.589	-70.14	27.82	-74.09	-102.214	-13.720	-18.620	-0.71725	0.32666	-0.49304	0.36829	30.8	13111	100
2025-3-27 18:48:29.536	WT901BLE68-01(48591DE3C19B)	-0.160	-1.261	0.277	-62.988	39.917	-325.195	-71.55	24.85	-75.83	-102.214	-13.720	-18.620	-0.71725	0.32666	-0.49304	0.36829	30.8	13111	100
2025-3-27 18:48:29.536	WT901BLE68-01(48591DE3C19B)	-0.361	-1.261	0.277	-62.988	39.917	-325.195	-72.86	21.76	-77.50	-102.214	-13.720	-18.620	-0.71725	0.32666	-0.49304	0.36829	30.8	13111	100
2025-3-27 18:48:29.537	WT901BLE68-01(48591DE3C19B)	-0.361	-1.412	0.369	-59.265	42.236	-336.914	-74.04	18.62	-79.08	-102.214	-13.720	-18.620	-0.71725	0.32666	-0.49304	0.36829	30.8	13111	100
2025-3-27 18:48:29.537	WT901BLE68-01(48591DE3C19B)	-0.575	-1.412	0.369	-59.265	42.236	-336.914	-75.08	15.42	-80.58	-102.214	-13.720	-18.620	-0.71725	0.32666	-0.49304	0.36829	30.8	13111	100
2025-3-27 18:48:29.601	WT901BLE68-01(48591DE3C19B)	-0.575	-1.447	0.464	-51.636	39.795	-335.693	-75.97	12.22	-82.00	-102.214	-13.720	-18.620	-0.71725	0.32666	-0.49304	0.36829	30.8	13111	100
2025-3-27 18:48:29.601	WT901BLE68-01(48591DE3C19B)	-0.642	-1.447	0.464	-51.636	39.795	-335.693	-76.73	9.04	-83.32	-102.214	-13.720	-18.620	-0.71725	0.32666	-0.49304	0.36829	30.8	13111	100
2025-3-27 18:48:29.601	WT901BLE68-01(48591DE3C19B)	-0.642	-1.385	0.489	-48.767	39.124	-325.134	-77.38	5.92	-84.58	-102.214	-13.720	-18.620	-0.71725	0.32666	-0.49304	0.36829	30.8	13111	100
2025-3-27 18:48:29.601	WT901BLE68-01(48591DE3C19B)	-0.561	-1.385	0.489	-48.767	39.124	-325.134	-77.94	2.87	-85.78	-102.214	-13.720	-18.620	-0.71725	0.32666	-0.49304	0.36829	30.8	13111	100
2025-3-27 18:48:29.625	WT901BLE68-01(48591DE3C19B)	-0.561	-1.289	0.447	-44.128	42.603	-304.138	-78.41	-0.06	-86.94	-102.214	-13.720	-18.620	-0.71725	0.32666	-0.49304	0.36829	30.8	13111	100
2025-3-27 18:48:29.626	WT901BLE68-01(48591DE3C19B)	-0.542	-1.289	0.447	-44.128	42.603	-304.138	-78.79	-2.87	-88.08	-102.214	-13.720	-18.620	-0.71725	0.32666	-0.49304	0.36829	30.8	13111	100
2025-3-27 18:48:29.626	WT901BLE68-01(48591DE3C19B)	-0.542	-1.240	0.430	-35.706	26.917	-278.809	-79.09	-5.55	-89.09	-102.214	-13.720	-18.620	-0.71725	0.32666	-0.49304	0.36829	30.8	13111	100
2025-3-27 18:48:29.626	WT901BLE68-01(48591DE3C19B)	-0.680	-1.240	0.430	-35.706	26.917	-278.809	-79.30	-8.12	-90.01	-102.214	-13.720	-18.620	-0.71725	0.32666	-0.49304	0.36829	30.8	13111	100
2025-3-27 18:48:29.686	WT901BLE68-01(48591DE3C19B)	-0.680	-1.241	0.541	-26.489	-9.338	-245.117	-79.47	-10.53	-90.70	-102.214	-13.720	-18.620	-0.71725	0.32666	-0.49304	0.36829	30.8	13111	100
2025-3-27 18:48:29.686	WT901BLE68-01(48591DE3C19B)	-0.788	-1.241	0.541	-26.489	-9.338	-245.117	-79.60	-12.79	-91.19	-102.214	-13.720	-18.620	-0.71725	0.32666	-0.49304	0.36829	30.8	13111	100
2025-3-27 18:48:29.686	WT901BLE68-01(48591DE3C19B)	-0.788	-1.240	0.640	-20.325	-27.771	-209.290	-79.70	-14.88	-91.55	-102.214	-13.720	-18.620	-0.71725	0.32666	-0.49304	0.36829	30.8	13111	100
2025-3-27 18:48:29.686	WT901BLE68-01(48591DE3C19B)	-0.897	-1.240	0.640	-20.325	-27.771	-209.290	-79.79	-16.79	-91.80	-102.214	-13.720	-18.620	-0.71725	0.32666	-0.49304	0.36829	30.8	13111	100
2025-3-27 18:48:29.715	WT901BLE68-01(48591DE3C19B)	-0.897	-1.194	0.604	-18.066	-13.977	-171.326	-79.84	-18.49	-92.08	-102.214	-13.720	-18.620	-0.71725	0.32666	-0.49304	0.36829	30.8	13111	100
2025-3-27 18:48:29.716	WT901BLE68-01(48591DE3C19B)	-1.134	-1.194	0.604	-18.066	-13.977	-171.326	-79.85	-19.97	-92.42	-102.214	-13.720	-18.620	-0.71725	0.32666	-0.49304	0.36829	30.8	13111	100
2025-3-27 18:48:29.716	WT901BLE68-01(48591DE3C19B)	-1.134	-1.143	0.557	-14.343	-0.366	-133.972	-79.82	-21.25	-92.81	-102.214	-13.720	-18.620	-0.71725	0.32666	-0.49304	0.36829	30.8	13111	100
2025-3-27 18:48:29.716	WT901BLE68-01(48591DE3C19B)	-1.291	-1.143	0.557	-14.343	-0.366	-133.972	-79.74	-22.31	-93.24	-102.214	-13.720	-18.620	-0.71725	0.32666	-0.49304	0.36829	30.8	13111	100
2025-3-27 18:48:29.746	WT901BLE68-01(48591DE3C19B)	-1.291	-1.109	0.609	-17.334	-14.771	-98.694	-79.70	-23.20	-93.58	-82.614	-49.000	-13.916	-0.71725	0.32666	-0.49304	0.36829	30.8	13111	100
2025-3-27 18:48:29.746	WT901BLE68-01(48591DE3C19B)	-1.216	-1.109	0.609	-17.334	-14.771	-98.694	-79.71	-23.91	-93.82	-82.614	-49.000	-13.916	-0.71725	0.32666	-0.49304	0.36829	30.8	13111	100
2025-3-27 18:48:29.746	WT901BLE68-01(48591DE3C19B)	-1.216	-1.125	0.702	-21.790	-32.104	-60.486	-79.77	-24.44	-93.96	-82.614	-49.000	-13.916	-0.71725	0.32666	-0.49304	0.36829	30.8	13111	100
2025-3-27 18:48:29.747	WT901BLE68-01(48591DE3C19B)	-1.118	-1.125	0.702	-21.790	-32.104	-60.486	-79.90	-24.81	-93.97	-82.614	-49.000	-13.916	-0.71725	0.32666	-0.49304	0.36829	30.8	13111	100
2025-3-27 18:48:29.776	WT901BLE68-01(48591DE3C19B)	-1.118	-1.131	0.763	-18.616	-31.311	-18.433	-80.02	-24.95	-93.95	-82.614	-49.000	-13.916	-0.71725	0.32666	-0.49304	0.36829	30.8	13111	100
2025-3-27 18:48:29.776	WT901BLE68-01(48591DE3C19B)	-1.043	-1.131	0.763	-18.616	-31.311	-18.433	-80.13	-24.89	-93.91	-82.614	-49.000	-13.916	-0.71725	0.32666	-0.49304	0.36829	30.8	13111	100
2025-3-27 18:48:29.776	WT901BLE68-01(48591DE3C19B)	-1.043	-1.060	0.726	-10.498	-23.743	24.170	-80.19	-24.61	-93.88	-82.614	-49.000	-13.916	-0.71725	0.32666	-0.49304	0.36829	30.8	13111	100
2025-3-27 18:48:29.776	WT901BLE68-01(48591DE3C19B)	-0.947	-1.060	0.726	-10.498	-23.743	24.170	-80.21	-24.13	-93.86	-82.614	-49.000	-13.916	-0.71725	0.32666	-0.49304	0.36829	30.8	13111	100
2025-3-27 18:48:29.836	WT901BLE68-01(48591DE3C19B)	-0.947	-0.948	0.628	-3.357	-9.216	66.895	-80.16	-23.42	-93.87	-82.614	-49.000	-13.916	-0.71725	0.32666	-0.49304	0.36829	30.8	13111	100
2025-3-27 18:48:29.837	WT901BLE68-01(48591DE3C19B)	-0.903	-0.948	0.628	-3.357	-9.216	66.895	-80.05	-22.49	-93.93	-82.614	-49.000	-13.916	-0.71725	0.32666	-0.49304	0.36829	30.8	13111	100
2025-3-27 18:48:29.837	WT901BLE68-01(48591DE3C19B)	-0.903	-0.926	0.541	3.174	4.578	106.995	-79.90	-21.36	-94.03	-82.614	-49.000	-13.916	-0.71725	0.32666	-0.49304	0.36829	30.8	13111	100
2025-3-27 18:48:29.837	WT901BLE68-01(48591DE3C19B)	-0.853	-0.926	0.541	3.174	4.578	106.995	-79.70	-20.02	-94.15	-82.614	-49.000	-13.916	-0.71725	0.32666	-0.49304	0.36829	30.8	13111	100
2025-3-27 18:48:29.865	WT901BLE68-01(48591DE3C19B)	-0.853	-0.913	0.477	14.343	6.165	144.592	-79.46	-18.51	-94.24	-82.614	-49.000	-13.916	-0.71725	0.32666	-0.49304	0.36829	30.8	13111	100
2025-3-27 18:48:29.865	WT901BLE68-01(48591DE3C19B)	-0.812	-0.913	0.477	14.343	6.165	144.592	-79.17	-16.81	-94.30	-82.614	-49.000	-13.916	-0.71725	0.32666	-0.49304	0.36829	30.8	13111	100
2025-3-27 18:48:29.865	WT901BLE68-01(48591DE3C19B)	-0.812	-0.906	0.434	23.132	-0.122	179.077	-78.87	-14.96	-94.27	-82.614	-49.000	-13.916	-0.71725	0.32666	-0.49304	0.36829	30.8	13111	100
2025-3-27 18:48:29.865	WT901BLE68-01(48591DE3C19B)	-0.834	-0.906	0.434	23.132	-0.122	179.077	-78.53	-12.96	-94.16	-82.614	-49.000	-13.916	-0.71725	0.32666	-0.49304	0.36829	30.8	13111	100
2025-3-27 18:48:29.900	WT901BLE68-01(48591DE3C19B)	-0.834	-1.040	0.385	28.381	-16.296	207.581	-78.19	-10.72	-93.82	-82.614	-49.000	-13.916	-0.71725	0.32666	-0.49304	0.36829	30.8	13111	100
2025-3-27 18:48:29.900	WT901BLE68-01(48591DE3C19B)	-0.846	-1.040	0.385	28.381	-16.296	207.581	-77.84	-8.49	-93.46	-82.614	-49.000	-13.916	-0.71725	0.32666	-0.49304	0.36829	30.8	13111	100
2025-3-27 18:48:29.901	WT901BLE68-01(48591DE3C19B)	-0.846	-1.239	0.342	34.790	-41.077	228.577	-77.45	-6.12	-92.79	-82.614	-49.000	-13.916	-0.71725	0.32666	-0.49304	0.36829	30.8	13111	100
2025-3-27 18:48:29.901	WT901BLE68-01(48591DE3C19B)	-0.833	-1.239	0.342	34.790	-41.077	228.577	-77.05	-3.77	-92.10	-82.614	-49.000	-13.916	-0.71725	0.32666	-0.49304	0.36829	30.8	13111	100
2025-3-27 18:48:29.956	WT901BLE68-01(48591DE3C19B)	-0.833	-1.433	0.283	42.236	-69.275	243.530	-76.56	-1.36	-91.08	-82.614	-49.000	-13.916	-0.71725	0.32666	-0.49304	0.36829	30.8	13111	100
2025-3-27 18:48:29.956	WT901BLE68-01(48591DE3C19B)	-0.805	-1.433	0.283	42.236	-69.275	243.530	-76.04	1.02	-90.03	-82.614	-49.000	-13.916	-0.56073	0.43039	-0.44061	0.55325	30.8	13111	100
2025-3-27 18:48:29.957	WT901BLE68-01(48591DE3C19B)	-0.805	-1.689	0.271	52.368	-100.891	253.540	-75.37	3.40	-88.62	-82.614	-49.000	-13.916	-0.56073	0.43039	-0.44061	0.55325	30.8	13111	100
2025-3-27 18:48:29.957	WT901BLE68-01(48591DE3C19B)	-0.635	-1.689	0.271	52.368	-100.891	253.540	-74.65	5.75	-87.17	-82.614	-49.000	-13.916	-0.56073	0.43039	-0.44061	0.55325	30.8	13111	100
2025-3-27 18:48:29.985	WT901BLE68-01(48591DE3C19B)	-0.635	-1.966	0.286	72.693	-114.563	257.996	-73.66	8.05	-85.52	-82.614	-49.000	-13.916	-0.56073	0.43039	-0.44061	0.55325	30.8	13111	100
2025-3-27 18:48:29.985	WT901BLE68-01(48591DE3C19B)	-0.481	-1.966	0.286	72.693	-114.563	257.996	-72.60	10.31	-83.83	-82.614	-49.000	-13.916	-0.56073	0.43039	-0.44061	0.55325	30.8	13111	100
2025-3-27 18:48:29.985	WT901BLE68-01(48591DE3C19B)	-0.481	-2.060	0.266	102.966	-99.243	261.475	-71.21	12.59	-82.21	-82.614	-49.000	-13.916	-0.56073	0.43039	-0.44061	0.55325	30.8	13111	100
2025-3-27 18:48:29.985	WT901BLE68-01(48591DE3C19B)	-0.384	-2.060	0.266	102.966	-99.243	261.475	-69.76	14.80	-80.51	-82.614	-49.000	-13.916	-0.56073	0.43039	-0.44061	0.55325	30.8	13111	100
2025-3-27 18:48:30.16	WT901BLE68-01(48591DE3C19B)	-0.384	-1.875	0.247	126.160	-58.716	265.076	-68.10	17.12	-79.12	-82.614	-49.000	-13.916	-0.56073	0.43039	-0.44061	0.55325	30.8	13111	100
2025-3-27 18:48:30.16	WT901BLE68-01(48591DE3C19B)	-0.265	-1.875	0.247	126.160	-58.716	265.076	-66.37	19.38	-77.65	-82.614	-49.000	-13.916	-0.56073	0.43039	-0.44061	0.55325	30.8	13111	100
2025-3-27 18:48:30.16	WT901BLE68-01(48591DE3C19B)	-0.265	-1.632	0.217	132.324	-6.042	270.325	-64.68	21.84	-76.57	-82.614	-49.000	-13.916	-0.56073	0.43039	-0.44061	0.55325	30.8	13111	100
2025-3-27 18:48:30.16	WT901BLE68-01(48591DE3C19B)	-0.151	-1.632	0.217	132.324	-6.042	270.325	-62.92	24.25	-75.40	-82.614	-49.000	-13.916	-0.56073	0.43039	-0.44061	0.55325	30.8	13111	100
2025-3-27 18:48:30.76	WT901BLE68-01(48591DE3C19B)	-0.151	-1.418	0.178	128.967	53.711	277.649	-61.34	26.94	-74.68	-82.614	-49.000	-13.916	-0.56073	0.43039	-0.44061	0.55325	30.8	13111	100
2025-3-27 18:48:30.76	WT901BLE68-01(48591DE3C19B)	-0.084	-1.418	0.178	128.967	53.711	277.649	-59.71	29.59	-73.87	-82.614	-49.000	-13.916	-0.56073	0.43039	-0.44061	0.55325	30.8	13111	100
2025-3-27 18:48:30.76	WT901BLE68-01(48591DE3C19B)	-0.084	-1.249	0.118	114.990	113.892	283.875	-58.41	32.56	-73.52	-82.614	-49.000	-13.916	-0.56073	0.43039	-0.44061	0.55325	30.8	13111	100
2025-3-27 18:48:30.76	WT901BLE68-01(48591DE3C19B)	-0.098	-1.249	0.118	114.990	113.892	283.875	-57.07	35.50	-73.08	-82.614	-49.000	-13.916	-0.56073	0.43039	-0.44061	0.55325	30.8	13111	100
2025-3-27 18:48:30.108	WT901BLE68-01(48591DE3C19B)	-0.098	-1.074	0.080	96.252	154.846	292.114	-56.07	38.70	-72.93	-82.614	-49.000	-13.916	-0.56073	0.43039	-0.44061	0.55325	30.8	13111	100
2025-3-27 18:48:30.108	WT901BLE68-01(48591DE3C19B)	-0.181	-1.074	0.080	96.252	154.846	292.114	-55.01	41.87	-72.70	-82.614	-49.000	-13.916	-0.56073	0.43039	-0.44061	0.55325	30.8	13111	100
2025-3-27 18:48:30.108	WT901BLE68-01(48591DE3C19B)	-0.181	-1.033	0.044	68.054	159.180	297.791	-54.18	45.10	-72.40	-82.614	-49.000	-13.916	-0.56073	0.43039	-0.44061	0.55325	30.8	13111	100
2025-3-27 18:48:30.108	WT901BLE68-01(48591DE3C19B)	-0.345	-1.033	0.044	68.054	159.180	297.791	-53.27	48.30	-72.01	-82.614	-49.000	-13.916	-0.56073	0.43039	-0.44061	0.55325	30.8	13111	100
2025-3-27 18:48:30.166	WT901BLE68-01(48591DE3C19B)	-0.345	-1.249	0.045	35.950	112.305	288.879	-52.22	51.13	-71.04	-82.614	-49.000	-13.916	-0.56073	0.43039	-0.44061	0.55325	30.8	13111	100
2025-3-27 18:48:30.166	WT901BLE68-01(48591DE3C19B)	-0.421	-1.249	0.045	35.950	112.305	288.879	-51.03	53.93	-69.92	-82.614	-49.000	-13.916	-0.56073	0.43039	-0.44061	0.55325	30.8	13111	100
2025-3-27 18:48:30.166	WT901BLE68-01(48591DE3C19B)	-0.421	-1.539	0.107	17.883	37.598	266.235	-49.22	56.05	-67.87	-90.552	-27.636	-22.344	-0.56073	0.43039	-0.44061	0.55325	30.8	13111	100
2025-3-27 18:48:30.167	WT901BLE68-01(48591DE3C19B)	-0.360	-1.539	0.107	17.883	37.598	266.235	-47.18	58.11	-65.59	-90.552	-27.636	-22.344	-0.56073	0.43039	-0.44061	0.55325	30.8	13111	100
2025-3-27 18:48:30.201	WT901BLE68-01(48591DE3C19B)	-0.360	-1.707	0.142	11.658	-28.259	237.488	-44.50	59.46	-62.54	-90.552	-27.636	-22.344	-0.56073	0.43039	-0.44061	0.55325	30.8	13111	100
2025-3-27 18:48:30.201	WT901BLE68-01(48591DE3C19B)	-0.243	-1.707	0.142	11.658	-28.259	237.488	-41.59	60.71	-59.26	-90.552	-27.636	-22.344	-0.56073	0.43039	-0.44061	0.55325	30.8	13111	100
2025-3-27 18:48:30.201	WT901BLE68-01(48591DE3C19B)	-0.243	-1.801	0.127	9.949	-68.665	195.313	-38.61	61.30	-55.90	-90.552	-27.636	-22.344	-0.56073	0.43039	-0.44061	0.55325	30.8	13111	100
2025-3-27 18:48:30.201	WT901BLE68-01(48591DE3C19B)	-0.120	-1.801	0.127	9.949	-68.665	195.313	-35.52	61.79	-52.45	-90.552	-27.636	-22.344	-0.56073	0.43039	-0.44061	0.55325	30.8	13111	100
2025-3-27 18:48:30.226	WT901BLE68-01(48591DE3C19B)	-0.120	-1.813	0.108	7.996	-91.431	138.977	-33.05	61.69	-49.66	-90.552	-27.636	-22.344	-0.56073	0.43039	-0.44061	0.55325	30.8	13111	100
2025-3-27 18:48:30.226	WT901BLE68-01(48591DE3C19B)	-0.030	-1.813	0.108	7.996	-91.431	138.977	-30.62	61.53	-46.91	-90.552	-27.636	-22.344	-0.56073	0.43039	-0.44061	0.55325	30.8	13111	100
2025-3-27 18:48:30.226	WT901BLE68-01(48591DE3C19B)	-0.030	-1.674	0.126	3.418	-101.624	74.524	-29.22	60.92	-45.28	-90.552	-27.636	-22.344	-0.56073	0.43039	-0.44061	0.55325	30.8	13111	100
2025-3-27 18:48:30.226	WT901BLE68-01(48591DE3C19B)	0.038	-1.674	0.126	3.418	-101.624	74.524	-27.91	60.29	-43.71	-90.552	-27.636	-22.344	-0.56073	0.43039	-0.44061	0.55325	30.8	13111	100
2025-3-27 18:48:30.288	WT901BLE68-01(48591DE3C19B)	0.038	-1.451	0.185	-0.916	-84.900	18.372	-27.69	59.54	-43.36	-90.552	-27.636	-22.344	-0.56073	0.43039	-0.44061	0.55325	30.8	13111	100
2025-3-27 18:48:30.288	WT901BLE68-01(48591DE3C19B)	0.090	-1.451	0.185	-0.916	-84.900	18.372	-27.49	58.78	-43.02	-90.552	-27.636	-22.344	-0.56073	0.43039	-0.44061	0.55325	30.8	13111	100
2025-3-27 18:48:30.288	WT901BLE68-01(48591DE3C19B)	0.090	-1.187	0.275	-8.606	-51.697	-35.522	-28.40	58.07	-43.87	-90.552	-27.636	-22.344	-0.56073	0.43039	-0.44061	0.55325	30.8	13111	100
2025-3-27 18:48:30.288	WT901BLE68-01(48591DE3C19B)	0.133	-1.187	0.275	-8.606	-51.697	-35.522	-29.27	57.34	-44.70	-90.552	-27.636	-22.344	-0.56073	0.43039	-0.44061	0.55325	30.8	13111	100
2025-3-27 18:48:30.318	WT901BLE68-01(48591DE3C19B)	0.133	-1.061	0.253	-20.264	-7.385	-85.510	-31.22	56.73	-46.67	-90.552	-27.636	-22.344	-0.56073	0.43039	-0.44061	0.55325	30.8	13111	100
2025-3-27 18:48:30.318	WT901BLE68-01(48591DE3C19B)	0.135	-1.061	0.253	-20.264	-7.385	-85.510	-33.09	56.09	-48.57	-90.552	-27.636	-22.344	-0.56073	0.43039	-0.44061	0.55325	30.8	13111	100
2025-3-27 18:48:30.318	WT901BLE68-01(48591DE3C19B)	0.135	-0.970	0.190	-24.780	34.851	-131.348	-35.83	55.49	-51.47	-90.552	-27.636	-22.344	-0.56073	0.43039	-0.44061	0.55325	30.8	13111	100
2025-3-27 18:48:30.318	WT901BLE68-01(48591DE3C19B)	0.130	-0.970	0.190	-24.780	34.851	-131.348	-38.45	54.82	-54.27	-90.552	-27.636	-22.344	-0.81100	0.06714	-0.52264	0.25400	30.8	13111	100
2025-3-27 18:48:30.347	WT901BLE68-01(48591DE3C19B)	0.130	-0.897	0.139	-29.724	67.627	-169.983	-41.72	54.06	-57.80	-90.552	-27.636	-22.344	-0.81100	0.06714	-0.52264	0.25400	30.8	13111	100
2025-3-27 18:48:30.348	WT901BLE68-01(48591DE3C19B)	0.093	-0.897	0.139	-29.724	67.627	-169.983	-44.81	53.20	-61.19	-90.552	-27.636	-22.344	-0.81100	0.06714	-0.52264	0.25400	30.8	13111	100
2025-3-27 18:48:30.348	WT901BLE68-01(48591DE3C19B)	0.030	-0.929	0.104	-35.583	91.736	-207.336	-48.36	52.11	-65.10	-90.552	-27.636	-22.344	-0.81100	0.06714	-0.52264	0.25400	30.8	13111	100
2025-3-27 18:48:30.348	WT901BLE68-01(48591DE3C19B)	0.030	-0.997	0.118	-38.269	108.093	-241.882	-51.90	50.81	-69.07	-90.552	-27.636	-22.344	-0.81100	0.06714	-0.52264	0.25400	30.8	13111	100
2025-3-27 18:48:30.405	WT901BLE68-01(48591DE3C19B)	-0.100	-0.997	0.118	-38.269	108.093	-241.882	-55.39	49.27	-73.02	-90.552	-27.636	-22.344	-0.81100	0.06714	-0.52264	0.25400	30.8	13111	100
2025-3-27 18:48:30.406	WT901BLE68-01(48591DE3C19B)	-0.100	-1.078	0.191	-39.429	113.708	-273.865	-58.70	47.48	-76.84	-90.552	-27.636	-22.344	-0.81100	0.06714	-0.52264	0.25400	30.8	13111	100
2025-3-27 18:48:30.406	WT901BLE68-01(48591DE3C19B)	-0.325	-1.078	0.191	-39.429	113.708	-273.865	-61.81	45.44	-80.51	-90.552	-27.636	-22.344	-0.81100	0.06714	-0.52264	0.25400	30.8	13111	100
2025-3-27 18:48:30.406	WT901BLE68-01(48591DE3C19B)	-0.325	-1.181	0.284	-37.842	96.252	-300.476	-64.58	43.12	-83.85	-90.552	-27.636	-22.344	-0.81100	0.06714	-0.52264	0.25400	30.8	13111	100
2025-3-27 18:48:30.436	WT901BLE68-01(48591DE3C19B)	-0.551	-1.181	0.284	-37.842	96.252	-300.476	-67.02	40.57	-86.87	-90.552	-27.636	-22.344	-0.81100	0.06714	-0.52264	0.25400	30.8	13111	100
2025-3-27 18:48:30.436	WT901BLE68-01(48591DE3C19B)	-0.551	-1.267	0.325	-35.217	59.326	-321.350	-69.05	37.79	-89.46	-90.552	-27.636	-22.344	-0.81100	0.06714	-0.52264	0.25400	30.8	13111	100
2025-3-27 18:48:30.436	WT901BLE68-01(48591DE3C19B)	-0.623	-1.267	0.325	-35.217	59.326	-321.350	-70.72	34.81	-91.64	-90.552	-27.636	-22.344	-0.81100	0.06714	-0.52264	0.25400	30.8	13111	100
2025-3-27 18:48:30.436	WT901BLE68-01(48591DE3C19B)	-0.623	-1.277	0.318	-36.987	20.386	-335.327	-72.09	31.68	-93.46	-90.552	-27.636	-22.344	-0.81100	0.06714	-0.52264	0.25400	30.8	13111	100
2025-3-27 18:48:30.465	WT901BLE68-01(48591DE3C19B)	-0.534	-1.277	0.318	-36.987	20.386	-335.327	-73.21	28.44	-94.93	-90.552	-27.636	-22.344	-0.81100	0.06714	-0.52264	0.25400	30.8	13111	100
2025-3-27 18:48:30.465	WT901BLE68-01(48591DE3C19B)	-0.534	-1.257	0.268	-43.091	-9.583	-340.027	-74.16	25.13	-96.15	-90.552	-27.636	-22.344	-0.81100	0.06714	-0.52264	0.25400	30.8	13111	100
2025-3-27 18:48:30.465	WT901BLE68-01(48591DE3C19B)	-0.506	-1.257	0.268	-43.091	-9.583	-340.027	-74.98	21.77	-97.11	-90.552	-27.636	-22.344	-0.81100	0.06714	-0.52264	0.25400	30.8	13111	100
2025-3-27 18:48:30.465	WT901BLE68-01(48591DE3C19B)	-0.506	-1.287	0.244	-47.729	-39.978	-332.275	-75.68	18.43	-97.84	-90.552	-27.636	-22.344	-0.81100	0.06714	-0.52264	0.25400	30.8	13111	100
2025-3-27 18:48:30.526	WT901BLE68-01(48591DE3C19B)	-0.572	-1.287	0.244	-47.729	-39.978	-332.275	-76.31	15.10	-98.36	-90.552	-27.636	-22.344	-0.81100	0.06714	-0.52264	0.25400	30.8	13111	100
2025-3-27 18:48:30.526	WT901BLE68-01(48591DE3C19B)	-0.572	-1.328	0.293	-48.828	-71.716	-316.711	-76.85	11.83	-98.64	-90.552	-27.636	-22.344	-0.81100	0.06714	-0.52264	0.25400	30.8	13111	100
2025-3-27 18:48:30.526	WT901BLE68-01(48591DE3C19B)	-0.681	-1.328	0.293	-48.828	-71.716	-316.711	-77.34	8.63	-98.72	-90.552	-27.636	-22.344	-0.81100	0.06714	-0.52264	0.25400	30.8	13111	100
2025-3-27 18:48:30.526	WT901BLE68-01(48591DE3C19B)	-0.681	-1.335	0.376	-49.500	-97.107	-297.729	-77.82	5.52	-98.64	-90.552	-27.636	-22.344	-0.81100	0.06714	-0.52264	0.25400	30.8	13111	100
2025-3-27 18:48:30.557	WT901BLE68-01(48591DE3C19B)	-0.680	-1.335	0.376	-49.500	-97.107	-297.729	-78.28	2.49	-98.38	-82.614	-37.730	-20.188	-0.81100	0.06714	-0.52264	0.25400	30.8	13111	100
2025-3-27 18:48:30.558	WT901BLE68-01(48591DE3C19B)	-0.680	-1.326	0.406	-53.650	-102.295	-271.057	-78.77	-0.38	-98.06	-82.614	-37.730	-20.188	-0.81100	0.06714	-0.52264	0.25400	30.8	13111	100
2025-3-27 18:48:30.558	WT901BLE68-01(48591DE3C19B)	-0.638	-1.326	0.406	-53.650	-102.295	-271.057	-79.29	-3.11	-97.66	-82.614	-37.730	-20.188	-0.81100	0.06714	-0.52264	0.25400	30.8	13111	100
2025-3-27 18:48:30.558	WT901BLE68-01(48591DE3C19B)	-0.638	-1.315	0.426	-51.208	-84.839	-242.249	-79.81	-5.65	-97.30	-82.614	-37.730	-20.188	-0.81100	0.06714	-0.52264	0.25400	30.8	13111	100
2025-3-27 18:48:30.588	WT901BLE68-01(48591DE3C19B)	-0.654	-1.315	0.426	-51.208	-84.839	-242.249	-80.33	-8.02	-96.98	-82.614	-37.730	-20.188	-0.81100	0.06714	-0.52264	0.25400	30.8	13111	100
2025-3-27 18:48:30.589	WT901BLE68-01(48591DE3C19B)	-0.654	-1.307	0.477	-44.312	-58.350	-214.050	-80.80	-10.21	-96.75	-82.614	-37.730	-20.188	-0.81100	0.06714	-0.52264	0.25400	30.8	13111	100
2025-3-27 18:48:30.589	WT901BLE68-01(48591DE3C19B)	-0.691	-1.307	0.477	-44.312	-58.350	-214.050	-81.22	-12.23	-96.62	-82.614	-37.730	-20.188	-0.81100	0.06714	-0.52264	0.25400	30.8	13111	100
2025-3-27 18:48:30.589	WT901BLE68-01(48591DE3C19B)	-0.691	-1.285	0.564	-36.072	-26.428	-185.364	-81.58	-14.06	-96.61	-82.614	-37.730	-20.188	-0.81100	0.06714	-0.52264	0.25400	30.8	13111	100
2025-3-27 18:48:30.646	WT901BLE68-01(48591DE3C19B)	-0.742	-1.285	0.564	-36.072	-26.428	-185.364	-81.85	-15.72	-96.75	-82.614	-37.730	-20.188	-0.81100	0.06714	-0.52264	0.25400	30.8	13111	100
2025-3-27 18:48:30.646	WT901BLE68-01(48591DE3C19B)	-0.742	-1.287	0.611	-28.320	10.559	-157.593	-82.03	-17.21	-97.05	-82.614	-37.730	-20.188	-0.81100	0.06714	-0.52264	0.25400	30.8	13111	100
2025-3-27 18:48:30.646	WT901BLE68-01(48591DE3C19B)	-0.795	-1.287	0.611	-28.320	10.559	-157.593	-82.10	-18.52	-97.53	-82.614	-37.730	-20.188	-0.81100	0.06714	-0.52264	0.25400	30.8	13111	100
2025-3-27 18:48:30.647	WT901BLE68-01(48591DE3C19B)	-0.795	-1.329	0.604	-18.555	48.767	-131.409	-82.05	-19.68	-98.19	-82.614	-37.730	-20.188	-0.81100	0.06714	-0.52264	0.25400	30.8	13111	100
2025-3-27 18:48:30.708	WT901BLE68-01(48591DE3C19B)	-0.850	-1.329	0.604	-18.555	48.767	-131.409	-81.88	-20.66	-99.05	-82.614	-37.730	-20.188	-0.81100	0.06714	-0.52264	0.25400	30.8	13111	100
2025-3-27 18:48:30.708	WT901BLE68-01(48591DE3C19B)	-0.850	-1.375	0.576	-7.813	85.144	-103.149	-81.57	-21.47	-100.09	-82.614	-37.730	-20.188	-0.81100	0.06714	-0.52264	0.25400	30.8	13111	100
2025-3-27 18:48:30.708	WT901BLE68-01(48591DE3C19B)	-0.849	-1.375	0.576	-7.813	85.144	-103.149	-81.12	-22.10	-101.31	-82.614	-37.730	-20.188	-0.81100	0.06714	-0.52264	0.25400	30.8	13111	100
2025-3-27 18:48:30.708	WT901BLE68-01(48591DE3C19B)	-0.849	-1.369	0.539	1.587	122.375	-69.397	-80.56	-22.52	-102.71	-82.614	-37.730	-20.188	-0.81100	0.06714	-0.52264	0.25400	30.8	13111	100
2025-3-27 18:48:30.708	WT901BLE68-01(48591DE3C19B)	-0.779	-1.369	0.539	1.587	122.375	-69.397	-79.87	-22.73	-104.29	-82.614	-37.730	-20.188	-0.81100	0.06714	-0.52264	0.25400	30.8	13111	100
2025-3-27 18:48:30.708	WT901BLE68-01(48591DE3C19B)	-0.779	-1.280	0.482	9.094	174.744	-30.701	-79.06	-22.67	-106.11	-82.614	-37.730	-20.188	-0.81100	0.06714	-0.52264	0.25400	30.8	13111	100
2025-3-27 18:48:30.708	WT901BLE68-01(48591DE3C19B)	-0.745	-1.280	0.482	9.094	174.744	-30.701	-78.12	-22.35	-108.15	-82.614	-37.730	-20.188	-0.81100	0.06714	-0.52264	0.25400	30.8	13111	100
2025-3-27 18:48:30.708	WT901BLE68-01(48591DE3C19B)	-0.745	-1.148	0.452	14.221	230.469	9.583	-77.10	-21.74	-110.43	-82.614	-37.730	-20.188	-0.81100	0.06714	-0.52264	0.25400	30.8	13111	100
2025-3-27 18:48:30.766	WT901BLE68-01(48591DE3C19B)	-0.775	-1.148	0.452	14.221	230.469	9.583	-76.01	-20.84	-112.93	-82.614	-37.730	-20.188	-0.81100	0.06714	-0.52264	0.25400	30.8	13111	100
2025-3-27 18:48:30.766	WT901BLE68-01(48591DE3C19B)	-0.775	-1.013	0.444	18.005	265.930	47.852	-74.91	-19.67	-115.51	-82.614	-37.730	-20.188	-0.32669	0.42380	-0.43915	0.72159	30.8	13111	100
2025-3-27 18:48:30.766	WT901BLE68-01(48591DE3C19B)	-0.828	-1.013	0.444	18.005	265.930	47.852	-73.83	-18.22	-118.18	-82.614	-37.730	-20.188	-0.32669	0.42380	-0.43915	0.72159	30.8	13111	100
2025-3-27 18:48:30.766	WT901BLE68-01(48591DE3C19B)	-0.828	-0.844	0.379	17.456	267.395	83.740	-72.84	-16.56	-120.75	-82.614	-37.730	-20.188	-0.32669	0.42380	-0.43915	0.72159	30.8	13111	100
2025-3-27 18:48:30.800	WT901BLE68-01(48591DE3C19B)	-0.913	-0.844	0.379	17.456	267.395	83.740	-71.98	-14.69	-123.22	-82.614	-37.730	-20.188	-0.32669	0.42380	-0.43915	0.72159	30.8	13111	100
2025-3-27 18:48:30.800	WT901BLE68-01(48591DE3C19B)	-0.913	-0.705	0.237	5.798	244.873	117.554	-71.29	-12.67	-125.47	-82.614	-37.730	-20.188	-0.32669	0.42380	-0.43915	0.72159	30.8	13111	100
2025-3-27 18:48:30.800	WT901BLE68-01(48591DE3C19B)	-1.066	-0.705	0.237	5.798	244.873	117.554	-70.78	-10.50	-127.55	-82.614	-37.730	-20.188	-0.32669	0.42380	-0.43915	0.72159	30.8	13111	100
2025-3-27 18:48:30.800	WT901BLE68-01(48591DE3C19B)	-1.066	-0.707	0.116	-18.066	195.679	147.644	-70.53	-8.27	-129.30	-82.614	-37.730	-20.188	-0.32669	0.42380	-0.43915	0.72159	30.8	13111	100
2025-3-27 18:48:30.825	WT901BLE68-01(48591DE3C19B)	-1.204	-0.707	0.116	-18.066	195.679	147.644	-70.49	-5.98	-130.78	-82.614	-37.730	-20.188	-0.32669	0.42380	-0.43915	0.72159	30.8	13111	100
2025-3-27 18:48:30.825	WT901BLE68-01(48591DE3C19B)	-1.204	-0.883	0.069	-42.358	113.770	174.133	-70.82	-3.71	-131.41	-82.614	-37.730	-20.188	-0.32669	0.42380	-0.43915	0.72159	30.8	13111	100
2025-3-27 18:48:30.826	WT901BLE68-01(48591DE3C19B)	-1.211	-0.883	0.069	-42.358	113.770	174.133	-71.17	-1.45	-132.07	-82.614	-37.730	-20.188	-0.32669	0.42380	-0.43915	0.72159	30.8	13111	100
2025-3-27 18:48:30.826	WT901BLE68-01(48591DE3C19B)	-1.211	-1.106	0.046	-61.340	3.052	199.890	-71.74	0.68	-131.62	-82.614	-37.730	-20.188	-0.32669	0.42380	-0.43915	0.72159	30.8	13111	100
2025-3-27 18:48:30.886	WT901BLE68-01(48591DE3C19B)	-1.070	-1.106	0.046	-61.340	3.052	199.890	-72.28	2.82	-131.21	-82.614	-37.730	-20.188	-0.32669	0.42380	-0.43915	0.72159	30.8	13111	100
2025-3-27 18:48:30.886	WT901BLE68-01(48591DE3C19B)	-1.070	-1.305	0.050	-69.824	-101.990	224.304	-72.82	4.88	-129.74	-82.614	-37.730	-20.188	-0.32669	0.42380	-0.43915	0.72159	30.8	13111	100
2025-3-27 18:48:30.886	WT901BLE68-01(48591DE3C19B)	-0.875	-1.305	0.050	-69.824	-101.990	224.304	-73.32	6.93	-128.28	-82.614	-37.730	-20.188	-0.32669	0.42380	-0.43915	0.72159	30.8	13111	100
2025-3-27 18:48:30.886	WT901BLE68-01(48591DE3C19B)	-0.875	-1.407	0.093	-63.599	-179.199	245.728	-73.59	8.97	-126.01	-82.614	-37.730	-20.188	-0.32669	0.42380	-0.43915	0.72159	30.8	13111	100
2025-3-27 18:48:30.915	WT901BLE68-01(48591DE3C19B)	-0.683	-1.407	0.093	-63.599	-179.199	245.728	-73.78	11.00	-123.73	-82.614	-37.730	-20.188	-0.32669	0.42380	-0.43915	0.72159	30.8	13111	100
2025-3-27 18:48:30.915	WT901BLE68-01(48591DE3C19B)	-0.683	-1.411	0.167	-46.814	-226.013	262.756	-73.63	13.05	-120.92	-82.614	-37.730	-20.188	-0.32669	0.42380	-0.43915	0.72159	30.8	13111	100
2025-3-27 18:48:30.915	WT901BLE68-01(48591DE3C19B)	-0.484	-1.411	0.167	-46.814	-226.013	262.756	-73.37	15.07	-118.06	-82.614	-37.730	-20.188	-0.32669	0.42380	-0.43915	0.72159	30.8	13111	100
2025-3-27 18:48:30.915	WT901BLE68-01(48591DE3C19B)	-0.484	-1.338	0.207	-24.475	-240.112	275.513	-72.74	17.13	-114.97	-82.614	-37.730	-20.188	-0.32669	0.42380	-0.43915	0.72159	30.8	13111	100
2025-3-27 18:48:30.946	WT901BLE68-01(48591DE3C19B)	-0.300	-1.338	0.207	-24.475	-240.112	275.513	-71.99	19.13	-111.81	-82.614	-37.730	-20.188	-0.32669	0.42380	-0.43915	0.72159	30.8	13111	100
2025-3-27 18:48:30.946	WT901BLE68-01(48591DE3C19B)	-0.300	-1.194	0.180	-1.221	-216.980	280.823	-70.96	21.18	-108.79	-82.614	-37.730	-20.188	-0.32669	0.42380	-0.43915	0.72159	30.8	13111	100
2025-3-27 18:48:30.946	WT901BLE68-01(48591DE3C19B)	-0.159	-1.194	0.180	-1.221	-216.980	280.823	-69.81	23.15	-105.68	-70.168	-48.020	-21.168	-0.32669	0.42380	-0.43915	0.72159	30.8	13111	100
2025-3-27 18:48:30.946	WT901BLE68-01(48591DE3C19B)	-0.159	-1.005	0.146	18.005	-162.292	279.968	-68.56	25.24	-103.05	-70.168	-48.020	-21.168	-0.32669	0.42380	-0.43915	0.72159	30.8	13111	100
2025-3-27 18:48:31.6	WT901BLE68-01(48591DE3C19B)	-0.072	-1.005	0.146	18.005	-162.292	279.968	-67.20	27.24	-100.32	-70.168	-48.020	-21.168	-0.32669	0.42380	-0.43915	0.72159	30.8	13111	100
2025-3-27 18:48:31.6	WT901BLE68-01(48591DE3C19B)	-0.072	-0.825	0.095	25.208	-89.722	271.240	-66.01	29.37	-98.28	-70.168	-48.020	-21.168	-0.32669	0.42380	-0.43915	0.72159	30.8	13111	100
2025-3-27 18:48:31.6	WT901BLE68-01(48591DE3C19B)	-0.079	-0.825	0.095	25.208	-89.722	271.240	-64.73	31.45	-96.15	-70.168	-48.020	-21.168	-0.32669	0.42380	-0.43915	0.72159	30.8	13111	100
2025-3-27 18:48:31.6	WT901BLE68-01(48591DE3C19B)	-0.079	-0.712	0.083	24.414	-22.156	258.667	-63.75	33.64	-94.72	-70.168	-48.020	-21.168	-0.32669	0.42380	-0.43915	0.72159	30.8	13111	100
2025-3-27 18:48:31.35	WT901BLE68-01(48591DE3C19B)	-0.119	-0.712	0.083	24.414	-22.156	258.667	-62.69	35.80	-93.20	-70.168	-48.020	-21.168	-0.32669	0.42380	-0.43915	0.72159	30.8	13111	100
2025-3-27 18:48:31.36	WT901BLE68-01(48591DE3C19B)	-0.119	-0.710	0.164	17.761	14.893	244.019	-61.91	37.96	-92.10	-70.168	-48.020	-21.168	-0.32669	0.42380	-0.43915	0.72159	30.8	13111	100
2025-3-27 18:48:31.36	WT901BLE68-01(48591DE3C19B)	-0.145	-0.710	0.164	17.761	14.893	244.019	-61.05	40.08	-90.93	-70.168	-48.020	-21.168	-0.32669	0.42380	-0.43915	0.72159	30.8	13111	100
2025-3-27 18:48:31.36	WT901BLE68-01(48591DE3C19B)	-0.145	-0.864	0.210	5.493	21.484	225.159	-60.36	42.05	-89.90	-70.168	-48.020	-21.168	-0.32669	0.42380	-0.43915	0.72159	30.8	13111	100
2025-3-27 18:48:31.66	WT901BLE68-01(48591DE3C19B)	-0.179	-0.864	0.210	5.493	21.484	225.159	-59.61	43.99	-88.80	-70.168	-48.020	-21.168	-0.32669	0.42380	-0.43915	0.72159	30.8	13111	100
2025-3-27 18:48:31.66	WT901BLE68-01(48591DE3C19B)	-0.179	-1.211	0.219	-5.676	15.564	196.350	-58.99	45.62	-87.78	-70.168	-48.020	-21.168	-0.32669	0.42380	-0.43915	0.72159	30.8	13111	100
2025-3-27 18:48:31.66	WT901BLE68-01(48591DE3C19B)	-0.230	-1.211	0.219	-5.676	15.564	196.350	-58.32	47.23	-86.72	-70.168	-48.020	-21.168	-0.32669	0.42380	-0.43915	0.72159	30.8	13111	100
2025-3-27 18:48:31.66	WT901BLE68-01(48591DE3C19B)	-0.230	-1.684	0.140	-14.038	2.930	161.438	-57.77	48.46	-85.71	-70.168	-48.020	-21.168	-0.32669	0.42380	-0.43915	0.72159	30.8	13111	100
2025-3-27 18:48:31.126	WT901BLE68-01(48591DE3C19B)	-0.176	-1.684	0.140	-14.038	2.930	161.438	-57.19	49.66	-84.67	-70.168	-48.020	-21.168	-0.32669	0.42380	-0.43915	0.72159	30.8	13111	100
2025-3-27 18:48:31.126	WT901BLE68-01(48591DE3C19B)	-0.176	-2.144	0.042	-5.432	-6.592	124.390	-56.63	50.49	-83.79	-70.168	-48.020	-21.168	-0.32669	0.42380	-0.43915	0.72159	30.8	13111	100
2025-3-27 18:48:31.126	WT901BLE68-01(48591DE3C19B)	-0.144	-2.144	0.042	-5.432	-6.592	124.390	-56.06	51.30	-82.90	-70.168	-48.020	-21.168	-0.32669	0.42380	-0.43915	0.72159	30.8	13111	100
2025-3-27 18:48:31.127	WT901BLE68-01(48591DE3C19B)	-0.144	-2.148	0.028	10.620	-6.775	89.050	-55.57	51.80	-82.29	-70.168	-48.020	-21.168	-0.32669	0.42380	-0.43915	0.72159	30.8	13111	100
2025-3-27 18:48:31.156	WT901BLE68-01(48591DE3C19B)	-0.143	-2.148	0.028	10.620	-6.775	89.050	-55.07	52.29	-81.69	-70.168	-48.020	-21.168	-0.73535	0.05835	-0.56696	0.36646	30.8	13111	100
2025-3-27 18:48:31.156	WT901BLE68-01(48591DE3C19B)	-0.143	-2.200	0.038	5.310	-0.977	49.988	-54.97	52.49	-81.52	-70.168	-48.020	-21.168	-0.73535	0.05835	-0.56696	0.36646	30.8	13111	100
2025-3-27 18:48:31.156	WT901BLE68-01(48591DE3C19B)	-0.109	-2.200	0.038	5.310	-0.977	49.988	-54.88	52.68	-81.35	-70.168	-48.020	-21.168	-0.73535	0.05835	-0.56696	0.36646	30.8	13111	100
2025-3-27 18:48:31.156	WT901BLE68-01(48591DE3C19B)	-0.109	-2.081	0.116	14.648	9.094	10.498	-55.10	52.61	-81.70	-70.168	-48.020	-21.168	-0.73535	0.05835	-0.56696	0.36646	30.8	13111	100
2025-3-27 18:48:31.185	WT901BLE68-01(48591DE3C19B)	-0.054	-2.081	0.116	14.648	9.094	10.498	-55.32	52.53	-82.04	-70.168	-48.020	-21.168	-0.73535	0.05835	-0.56696	0.36646	30.8	13111	100
2025-3-27 18:48:31.185	WT901BLE68-01(48591DE3C19B)	-0.054	-1.699	0.189	17.273	12.817	-22.705	-55.79	52.20	-82.74	-70.168	-48.020	-21.168	-0.73535	0.05835	-0.56696	0.36646	30.8	13111	100
2025-3-27 18:48:31.185	WT901BLE68-01(48591DE3C19B)	0.008	-1.699	0.189	17.273	12.817	-22.705	-56.26	51.86	-83.42	-70.168	-48.020	-21.168	-0.73535	0.05835	-0.56696	0.36646	30.8	13111	100
2025-3-27 18:48:31.185	WT901BLE68-01(48591DE3C19B)	0.008	-1.403	0.206	9.338	15.442	-55.725	-57.03	51.25	-84.41	-70.168	-48.020	-21.168	-0.73535	0.05835	-0.56696	0.36646	30.8	13111	100
2025-3-27 18:48:31.246	WT901BLE68-01(48591DE3C19B)	0.052	-1.403	0.206	9.338	15.442	-55.725	-57.77	50.64	-85.37	-70.168	-48.020	-21.168	-0.73535	0.05835	-0.56696	0.36646	30.8	13111	100
2025-3-27 18:48:31.246	WT901BLE68-01(48591DE3C19B)	0.052	-1.243	0.149	2.075	25.085	-92.224	-58.88	49.75	-86.72	-70.168	-48.020	-21.168	-0.73535	0.05835	-0.56696	0.36646	30.8	13111	100
2025-3-27 18:48:31.246	WT901BLE68-01(48591DE3C19B)	0.036	-1.243	0.149	2.075	25.085	-92.224	-59.92	48.86	-88.02	-70.168	-48.020	-21.168	-0.73535	0.05835	-0.56696	0.36646	30.8	13111	100
2025-3-27 18:48:31.247	WT901BLE68-01(48591DE3C19B)	0.036	-1.046	0.129	-2.380	37.292	-125.549	-61.26	47.71	-89.66	-70.168	-48.020	-21.168	-0.73535	0.05835	-0.56696	0.36646	30.8	13111	100
2025-3-27 18:48:31.275	WT901BLE68-01(48591DE3C19B)	-0.027	-1.046	0.129	-2.380	37.292	-125.549	-62.51	46.55	-91.21	-70.168	-48.020	-21.168	-0.73535	0.05835	-0.56696	0.36646	30.8	13111	100
2025-3-27 18:48:31.275	WT901BLE68-01(48591DE3C19B)	-0.073	-0.938	0.102	-10.620	48.157	-156.006	-63.99	45.15	-93.02	-70.168	-48.020	-21.168	-0.73535	0.05835	-0.56696	0.36646	30.8	13111	100
2025-3-27 18:48:31.275	WT901BLE68-01(48591DE3C19B)	-0.073	-0.933	0.086	-15.442	54.504	-186.401	-65.48	43.60	-94.85	-70.168	-48.020	-21.168	-0.73535	0.05835	-0.56696	0.36646	30.8	13111	100
2025-3-27 18:48:31.275	WT901BLE68-01(48591DE3C19B)	-0.130	-0.933	0.086	-15.442	54.504	-186.401	-66.96	41.90	-96.69	-70.168	-48.020	-21.168	-0.73535	0.05835	-0.56696	0.36646	30.8	13111	100
2025-3-27 18:48:31.308	WT901BLE68-01(48591DE3C19B)	-0.130	-0.932	0.076	-15.747	57.495	-214.661	-68.37	40.05	-98.50	-70.168	-48.020	-21.168	-0.73535	0.05835	-0.56696	0.36646	30.8	13111	100
2025-3-27 18:48:31.308	WT901BLE68-01(48591DE3C19B)	-0.261	-0.932	0.076	-15.747	57.495	-214.661	-69.72	38.05	-100.28	-70.168	-48.020	-21.168	-0.73535	0.05835	-0.56696	0.36646	30.8	13111	100
2025-3-27 18:48:31.308	WT901BLE68-01(48591DE3C19B)	-0.261	-0.947	0.091	-17.090	48.645	-238.953	-70.95	35.90	-101.94	-70.168	-48.020	-21.168	-0.73535	0.05835	-0.56696	0.36646	30.8	13111	100
2025-3-27 18:48:31.308	WT901BLE68-01(48591DE3C19B)	-0.413	-0.947	0.091	-17.090	48.645	-238.953	-72.07	33.62	-103.50	-70.168	-48.020	-21.168	-0.73535	0.05835	-0.56696	0.36646	30.8	13111	100
2025-3-27 18:48:31.400	WT901BLE68-01(48591DE3C19B)	-0.413	-1.010	0.129	-20.508	18.982	-259.338	-73.03	31.20	-104.82	-70.168	-48.020	-21.168	-0.73535	0.05835	-0.56696	0.36646	30.8	13111	100
2025-3-27 18:48:31.400	WT901BLE68-01(48591DE3C19B)	-0.517	-1.010	0.129	-20.508	18.982	-259.338	-73.84	28.64	-105.92	-86.632	-39.396	-26.362	-0.73535	0.05835	-0.56696	0.36646	30.8	13111	100
2025-3-27 18:48:31.400	WT901BLE68-01(48591DE3C19B)	-0.517	-1.072	0.184	-25.940	-23.071	-272.766	-74.51	25.97	-106.76	-86.632	-39.396	-26.362	-0.73535	0.05835	-0.56696	0.36646	30.8	13111	100
2025-3-27 18:48:31.400	WT901BLE68-01(48591DE3C19B)	-0.514	-1.072	0.184	-25.940	-23.071	-272.766	-75.05	23.20	-107.34	-86.632	-39.396	-26.362	-0.73535	0.05835	-0.56696	0.36646	30.8	13111	100
2025-3-27 18:48:31.401	WT901BLE68-01(48591DE3C19B)	-0.514	-1.099	0.249	-32.043	-51.147	-277.832	-75.53	20.39	-107.73	-86.632	-39.396	-26.362	-0.73535	0.05835	-0.56696	0.36646	30.8	13111	100
2025-3-27 18:48:31.401	WT901BLE68-01(48591DE3C19B)	-0.411	-1.099	0.249	-32.043	-51.147	-277.832	-75.96	17.55	-107.96	-86.632	-39.396	-26.362	-0.73535	0.05835	-0.56696	0.36646	30.8	13111	100
2025-3-27 18:48:31.401	WT901BLE68-01(48591DE3C19B)	-0.411	-1.077	0.273	-36.926	-53.284	-275.452	-76.39	14.73	-108.16	-86.632	-39.396	-26.362	-0.73535	0.05835	-0.56696	0.36646	30.8	13111	100
2025-3-27 18:48:31.401	WT901BLE68-01(48591DE3C19B)	-0.333	-1.077	0.273	-36.926	-53.284	-275.452	-76.82	11.94	-108.31	-86.632	-39.396	-26.362	-0.73535	0.05835	-0.56696	0.36646	30.8	13111	100
2025-3-27 18:48:31.428	WT901BLE68-01(48591DE3C19B)	-0.333	-1.055	0.258	-40.466	-39.429	-268.372	-77.26	9.22	-108.51	-86.632	-39.396	-26.362	-0.73535	0.05835	-0.56696	0.36646	30.8	13111	100
2025-3-27 18:48:31.428	WT901BLE68-01(48591DE3C19B)	-0.337	-1.055	0.258	-40.466	-39.429	-268.372	-77.70	6.56	-108.74	-86.632	-39.396	-26.362	-0.73535	0.05835	-0.56696	0.36646	30.8	13111	100
2025-3-27 18:48:31.428	WT901BLE68-01(48591DE3C19B)	-0.337	-1.044	0.268	-41.382	-22.888	-261.292	-78.14	3.98	-109.03	-86.632	-39.396	-26.362	-0.73535	0.05835	-0.56696	0.36646	30.8	13111	100
2025-3-27 18:48:31.428	WT901BLE68-01(48591DE3C19B)	-0.401	-1.044	0.268	-41.382	-22.888	-261.292	-78.57	1.46	-109.37	-86.632	-39.396	-26.362	-0.73535	0.05835	-0.56696	0.36646	30.8	13111	100
2025-3-27 18:48:31.486	WT901BLE68-01(48591DE3C19B)	-0.401	-1.041	0.290	-40.833	-1.709	-249.451	-78.98	-0.97	-109.79	-86.632	-39.396	-26.362	-0.73535	0.05835	-0.56696	0.36646	30.8	13111	100
2025-3-27 18:48:31.486	WT901BLE68-01(48591DE3C19B)	-0.449	-1.041	0.290	-40.833	-1.709	-249.451	-79.37	-3.31	-110.28	-86.632	-39.396	-26.362	-0.73535	0.05835	-0.56696	0.36646	30.8	13111	100
2025-3-27 18:48:31.486	WT901BLE68-01(48591DE3C19B)	-0.449	-1.018	0.323	-36.133	19.348	-233.765	-79.69	-5.54	-110.84	-86.632	-39.396	-26.362	-0.73535	0.05835	-0.56696	0.36646	30.8	13111	100
2025-3-27 18:48:31.486	WT901BLE68-01(48591DE3C19B)	-0.538	-1.018	0.323	-36.133	19.348	-233.765	-79.96	-7.66	-111.49	-86.632	-39.396	-26.362	-0.73535	0.05835	-0.56696	0.36646	30.8	13111	100
2025-3-27 18:48:31.518	WT901BLE68-01(48591DE3C19B)	-0.538	-0.953	0.375	-29.785	29.297	-214.417	-80.17	-9.66	-112.17	-86.632	-39.396	-26.362	-0.73535	0.05835	-0.56696	0.36646	30.8	13111	100
2025-3-27 18:48:31.518	WT901BLE68-01(48591DE3C19B)	-0.627	-0.953	0.375	-29.785	29.297	-214.417	-80.31	-11.55	-112.88	-86.632	-39.396	-26.362	-0.73535	0.05835	-0.56696	0.36646	30.8	13111	100
2025-3-27 18:48:31.518	WT901BLE68-01(48591DE3C19B)	-0.627	-0.923	0.443	-25.757	27.466	-192.200	-80.41	-13.31	-113.57	-86.632	-39.396	-26.362	-0.73535	0.05835	-0.56696	0.36646	30.8	13111	100
2025-3-27 18:48:31.518	WT901BLE68-01(48591DE3C19B)	-0.681	-0.923	0.443	-25.757	27.466	-192.200	-80.46	-14.95	-114.25	-86.632	-39.396	-26.362	-0.73535	0.05835	-0.56696	0.36646	30.8	13111	100
2025-3-27 18:48:31.548	WT901BLE68-01(48591DE3C19B)	-0.681	-0.929	0.501	-19.714	18.127	-164.612	-80.48	-16.45	-114.86	-86.632	-39.396	-26.362	-0.73535	0.05835	-0.56696	0.36646	30.8	13111	100
2025-3-27 18:48:31.548	WT901BLE68-01(48591DE3C19B)	-0.682	-0.929	0.501	-19.714	18.127	-164.612	-80.46	-17.81	-115.41	-86.632	-39.396	-26.362	-0.73535	0.05835	-0.56696	0.36646	30.8	13111	100
2025-3-27 18:48:31.548	WT901BLE68-01(48591DE3C19B)	-0.682	-0.921	0.533	-12.329	10.437	-134.216	-80.41	-19.01	-115.92	-86.632	-39.396	-26.362	-0.30920	0.44467	-0.47275	0.69501	30.8	13111	100
2025-3-27 18:48:31.548	WT901BLE68-01(48591DE3C19B)	-0.652	-0.921	0.533	-12.329	10.437	-134.216	-80.33	-20.06	-116.37	-86.632	-39.396	-26.362	-0.30920	0.44467	-0.47275	0.69501	30.8	13111	100
2025-3-27 18:48:31.606	WT901BLE68-01(48591DE3C19B)	-0.652	-0.935	0.521	-7.690	9.766	-105.774	-80.21	-20.97	-116.80	-86.632	-39.396	-26.362	-0.30920	0.44467	-0.47275	0.69501	30.8	13111	100
2025-3-27 18:48:31.606	WT901BLE68-01(48591DE3C19B)	-0.659	-0.935	0.521	-7.690	9.766	-105.774	-80.06	-21.72	-117.22	-86.632	-39.396	-26.362	-0.30920	0.44467	-0.47275	0.69501	30.8	13111	100
2025-3-27 18:48:31.606	WT901BLE68-01(48591DE3C19B)	-0.659	-1.022	0.524	-4.761	17.273	-79.102	-79.89	-22.34	-117.66	-86.632	-39.396	-26.362	-0.30920	0.44467	-0.47275	0.69501	30.8	13111	100
2025-3-27 18:48:31.606	WT901BLE68-01(48591DE3C19B)	-0.718	-1.022	0.524	-4.761	17.273	-79.102	-79.69	-22.80	-118.13	-86.632	-39.396	-26.362	-0.30920	0.44467	-0.47275	0.69501	30.8	13111	100
2025-3-27 18:48:31.635	WT901BLE68-01(48591DE3C19B)	-0.718	-1.181	0.554	-2.991	26.611	-52.795	-79.46	-23.13	-118.62	-86.632	-39.396	-26.362	-0.30920	0.44467	-0.47275	0.69501	30.8	13111	100
2025-3-27 18:48:31.635	WT901BLE68-01(48591DE3C19B)	-0.763	-1.181	0.554	-2.991	26.611	-52.795	-79.21	-23.32	-119.14	-86.632	-39.396	-26.362	-0.30920	0.44467	-0.47275	0.69501	30.8	13111	100
2025-3-27 18:48:31.635	WT901BLE68-01(48591DE3C19B)	-0.763	-1.298	0.594	2.075	33.386	-26.917	-78.93	-23.37	-119.67	-86.632	-39.396	-26.362	-0.30920	0.44467	-0.47275	0.69501	30.8	13111	100
2025-3-27 18:48:31.636	WT901BLE68-01(48591DE3C19B)	-0.779	-1.298	0.594	2.075	33.386	-26.917	-78.62	-23.28	-120.22	-86.632	-39.396	-26.362	-0.30920	0.44467	-0.47275	0.69501	30.8	13111	100
2025-3-27 18:48:31.699	WT901BLE68-01(48591DE3C19B)	-0.779	-1.384	0.599	-0.427	35.828	-1.831	-78.34	-23.07	-120.75	-86.632	-39.396	-26.362	-0.30920	0.44467	-0.47275	0.69501	30.8	13111	100
2025-3-27 18:48:31.700	WT901BLE68-01(48591DE3C19B)	-0.832	-1.384	0.599	-0.427	35.828	-1.831	-78.07	-22.73	-121.26	-86.632	-39.396	-26.362	-0.30920	0.44467	-0.47275	0.69501	30.8	13111	100
2025-3-27 18:48:31.700	WT901BLE68-01(48591DE3C19B)	-0.832	-1.471	0.576	-0.366	33.203	23.682	-77.83	-22.27	-121.73	-86.632	-39.396	-26.362	-0.30920	0.44467	-0.47275	0.69501	30.8	13111	100
2025-3-27 18:48:31.700	WT901BLE68-01(48591DE3C19B)	-0.907	-1.471	0.576	-0.366	33.203	23.682	-77.61	-21.69	-122.15	-86.632	-39.396	-26.362	-0.30920	0.44467	-0.47275	0.69501	30.8	13111	100
2025-3-27 18:48:31.756	WT901BLE68-01(48591DE3C19B)	-0.907	-1.358	0.559	4.944	10.010	51.941	-77.43	-21.01	-122.41	-86.632	-39.396	-26.362	-0.30920	0.44467	-0.47275	0.69501	30.8	13111	100
2025-3-27 18:48:31.756	WT901BLE68-01(48591DE3C19B)	-0.904	-1.358	0.559	4.944	10.010	51.941	-77.28	-20.20	-122.52	-86.632	-39.396	-26.362	-0.30920	0.44467	-0.47275	0.69501	30.8	13111	100
2025-3-27 18:48:31.756	WT901BLE68-01(48591DE3C19B)	-0.904	-1.166	0.532	2.869	-28.137	84.473	-77.22	-19.29	-122.39	-86.632	-39.396	-26.362	-0.30920	0.44467	-0.47275	0.69501	30.8	13111	100
2025-3-27 18:48:31.756	WT901BLE68-01(48591DE3C19B)	-0.860	-1.166	0.532	2.869	-28.137	84.473	-77.24	-18.26	-122.04	-63.014	-51.058	-23.422	-0.30920	0.44467	-0.47275	0.69501	30.8	13111	100
2025-3-27 18:48:31.758	WT901BLE68-01(48591DE3C19B)	-0.860	-1.132	0.492	2.686	-64.026	119.934	-77.39	-16.97	-121.25	-63.014	-51.058	-23.422	-0.30920	0.44467	-0.47275	0.69501	30.8	13111	100
2025-3-27 18:48:31.758	WT901BLE68-01(48591DE3C19B)	-0.753	-1.132	0.492	2.686	-64.026	119.934	-77.51	-15.68	-120.47	-63.014	-51.058	-23.422	-0.30920	0.44467	-0.47275	0.69501	30.8	13111	100
2025-3-27 18:48:31.758	WT901BLE68-01(48591DE3C19B)	-0.753	-1.109	0.417	12.329	-97.229	159.485	-77.62	-14.08	-119.27	-63.014	-51.058	-23.422	-0.30920	0.44467	-0.47275	0.69501	30.8	13111	100
2025-3-27 18:48:31.758	WT901BLE68-01(48591DE3C19B)	-0.552	-1.109	0.417	12.329	-97.229	159.485	-77.70	-12.49	-118.10	-63.014	-51.058	-23.422	-0.30920	0.44467	-0.47275	0.69501	30.8	13111	100
2025-3-27 18:48:31.846	WT901BLE68-01(48591DE3C19B)	-0.552	-1.111	0.343	23.071	-113.342	196.045	-77.67	-10.59	-116.69	-63.014	-51.058	-23.422	-0.30920	0.44467	-0.47275	0.69501	30.8	13111	100
2025-3-27 18:48:31.846	WT901BLE68-01(48591DE3C19B)	-0.431	-1.111	0.343	23.071	-113.342	196.045	-77.60	-8.70	-115.29	-63.014	-51.058	-23.422	-0.30920	0.44467	-0.47275	0.69501	30.8	13111	100
2025-3-27 18:48:31.846	WT901BLE68-01(48591DE3C19B)	-0.431	-1.238	0.337	38.208	-104.614	223.328	-77.33	-6.54	-113.91	-63.014	-51.058	-23.422	-0.30920	0.44467	-0.47275	0.69501	30.8	13111	100
2025-3-27 18:48:31.847	WT901BLE68-01(48591DE3C19B)	-0.418	-1.238	0.337	38.208	-104.614	223.328	-77.01	-4.41	-112.52	-63.014	-51.058	-23.422	-0.30920	0.44467	-0.47275	0.69501	30.8	13111	100
2025-3-27 18:48:31.848	WT901BLE68-01(48591DE3C19B)	-0.418	-1.405	0.364	55.664	-84.412	238.403	-76.46	-2.11	-111.28	-63.014	-51.058	-23.422	-0.30920	0.44467	-0.47275	0.69501	30.8	13111	100
2025-3-27 18:48:31.848	WT901BLE68-01(48591DE3C19B)	-0.394	-1.405	0.364	55.664	-84.412	238.403	-75.87	0.14	-110.02	-63.014	-51.058	-23.422	-0.30920	0.44467	-0.47275	0.69501	30.8	13111	100
2025-3-27 18:48:31.848	WT901BLE68-01(48591DE3C19B)	-0.394	-1.546	0.368	70.862	-62.439	247.864	-75.09	2.52	-108.91	-63.014	-51.058	-23.422	-0.30920	0.44467	-0.47275	0.69501	30.8	13111	100
2025-3-27 18:48:31.848	WT901BLE68-01(48591DE3C19B)	-0.376	-1.546	0.368	70.862	-62.439	247.864	-74.27	4.85	-107.76	-63.014	-51.058	-23.422	-0.30920	0.44467	-0.47275	0.69501	30.8	13111	100
2025-3-27 18:48:31.878	WT901BLE68-01(48591DE3C19B)	-0.376	-1.656	0.337	84.045	-36.133	252.197	-73.30	7.27	-106.80	-63.014	-51.058	-23.422	-0.30920	0.44467	-0.47275	0.69501	30.8	13111	100
2025-3-27 18:48:31.878	WT901BLE68-01(48591DE3C19B)	-0.392	-1.656	0.337	84.045	-36.133	252.197	-72.28	9.64	-105.80	-63.014	-51.058	-23.422	-0.30920	0.44467	-0.47275	0.69501	30.8	13111	100
2025-3-27 18:48:31.878	WT901BLE68-01(48591DE3C19B)	-0.392	-1.675	0.286	96.313	-12.024	253.418	-71.15	12.07	-104.97	-63.014	-51.058	-23.422	-0.30920	0.44467	-0.47275	0.69501	30.8	13111	100
2025-3-27 18:48:31.878	WT901BLE68-01(48591DE3C19B)	-0.372	-1.675	0.286	96.313	-12.024	253.418	-69.99	14.45	-104.08	-63.014	-51.058	-23.422	-0.30920	0.44467	-0.47275	0.69501	30.8	13111	100
2025-3-27 18:48:31.936	WT901BLE68-01(48591DE3C19B)	-0.372	-1.554	0.249	104.065	12.268	256.226	-68.76	16.91	-103.36	-63.014	-51.058	-23.422	-0.30920	0.44467	-0.47275	0.69501	30.8	13111	100
2025-3-27 18:48:31.936	WT901BLE68-01(48591DE3C19B)	-0.362	-1.554	0.249	104.065	12.268	256.226	-67.49	19.34	-102.56	-63.014	-51.058	-23.422	-0.30920	0.44467	-0.47275	0.69501	30.8	13111	100
2025-3-27 18:48:31.937	WT901BLE68-01(48591DE3C19B)	-0.362	-1.482	0.216	96.985	31.250	255.127	-66.32	21.80	-101.90	-63.014	-51.058	-23.422	-0.30920	0.44467	-0.47275	0.69501	30.8	13111	100
2025-3-27 18:48:31.937	WT901BLE68-01(48591DE3C19B)	-0.369	-1.482	0.216	96.985	31.250	255.127	-65.10	24.22	-101.16	-63.014	-51.058	-23.422	-0.30920	0.44467	-0.47275	0.69501	30.8	13111	100
2025-3-27 18:48:31.968	WT901BLE68-01(48591DE3C19B)	-0.369	-1.444	0.184	92.773	46.021	250.916	-63.94	26.65	-100.52	-63.014	-51.058	-23.422	-0.62686	0.16989	-0.52231	0.55249	30.8	13111	100
2025-3-27 18:48:31.968	WT901BLE68-01(48591DE3C19B)	-0.386	-1.444	0.184	92.773	46.021	250.916	-62.74	29.04	-99.81	-63.014	-51.058	-23.422	-0.62686	0.16989	-0.52231	0.55249	30.8	13111	100
2025-3-27 18:48:31.968	WT901BLE68-01(48591DE3C19B)	-0.386	-1.359	0.149	84.290	54.443	246.704	-61.62	31.40	-99.14	-63.014	-51.058	-23.422	-0.62686	0.16989	-0.52231	0.55249	30.8	13111	100
2025-3-27 18:48:31.968	WT901BLE68-01(48591DE3C19B)	-0.375	-1.359	0.149	84.290	54.443	246.704	-60.45	33.74	-98.40	-63.014	-51.058	-23.422	-0.62686	0.16989	-0.52231	0.55249	30.8	13111	100
2025-3-27 18:48:32.0	WT901BLE68-01(48591DE3C19B)	-0.375	-1.292	0.117	74.646	57.861	240.417	-59.36	36.01	-97.66	-63.014	-51.058	-23.422	-0.62686	0.16989	-0.52231	0.55249	30.8	13111	100
2025-3-27 18:48:32.1	WT901BLE68-01(48591DE3C19B)	-0.361	-1.292	0.117	74.646	57.861	240.417	-58.21	38.26	-96.84	-63.014	-51.058	-23.422	-0.62686	0.16989	-0.52231	0.55249	30.8	13111	100
2025-3-27 18:48:32.1	WT901BLE68-01(48591DE3C19B)	-0.361	-1.192	0.084	65.674	61.584	232.300	-57.13	40.44	-96.04	-63.014	-51.058	-23.422	-0.62686	0.16989	-0.52231	0.55249	30.8	13111	100
2025-3-27 18:48:32.1	WT901BLE68-01(48591DE3C19B)	-0.343	-1.192	0.084	65.674	61.584	232.300	-56.00	42.58	-95.17	-63.014	-51.058	-23.422	-0.62686	0.16989	-0.52231	0.55249	30.8	13111	100
2025-3-27 18:48:32.56	WT901BLE68-01(48591DE3C19B)	-0.343	-1.099	0.049	54.626	62.866	222.351	-54.96	44.63	-94.31	-63.014	-51.058	-23.422	-0.62686	0.16989	-0.52231	0.55249	30.8	13111	100
2025-3-27 18:48:32.56	WT901BLE68-01(48591DE3C19B)	-0.323	-1.099	0.049	54.626	62.866	222.351	-53.85	46.66	-93.38	-63.014	-51.058	-23.422	-0.62686	0.16989	-0.52231	0.55249	30.8	13111	100
2025-3-27 18:48:32.56	WT901BLE68-01(48591DE3C19B)	-0.323	-1.010	0.022	43.762	61.707	211.609	-52.83	48.57	-92.44	-63.014	-51.058	-23.422	-0.62686	0.16989	-0.52231	0.55249	30.8	13111	100
2025-3-27 18:48:32.56	WT901BLE68-01(48591DE3C19B)	-0.321	-1.010	0.022	43.762	61.707	211.609	-51.73	50.46	-91.43	-63.014	-51.058	-23.422	-0.62686	0.16989	-0.52231	0.55249	30.8	13111	100
2025-3-27 18:48:32.85	WT901BLE68-01(48591DE3C19B)	-0.321	-0.932	0.017	31.677	55.359	197.876	-50.71	52.19	-90.39	-63.014	-51.058	-23.422	-0.62686	0.16989	-0.52231	0.55249	30.8	13111	100
2025-3-27 18:48:32.86	WT901BLE68-01(48591DE3C19B)	-0.343	-0.932	0.017	31.677	55.359	197.876	-49.61	53.89	-89.27	-63.014	-51.058	-23.422	-0.62686	0.16989	-0.52231	0.55249	30.8	13111	100
2025-3-27 18:48:32.86	WT901BLE68-01(48591DE3C19B)	-0.343	-0.889	0.037	19.287	40.161	182.190	-48.52	55.36	-88.04	-63.014	-51.058	-23.422	-0.62686	0.16989	-0.52231	0.55249	30.8	13111	100
2025-3-27 18:48:32.86	WT901BLE68-01(48591DE3C19B)	-0.341	-0.889	0.037	19.287	40.161	182.190	-47.35	56.81	-86.73	-63.014	-51.058	-23.422	-0.62686	0.16989	-0.52231	0.55249	30.8	13111	100
2025-3-27 18:48:32.118	WT901BLE68-01(48591DE3C19B)	-0.341	-0.860	0.067	10.498	21.790	164.490	-46.14	57.99	-85.29	-63.014	-51.058	-23.422	-0.62686	0.16989	-0.52231	0.55249	30.8	13111	100
2025-3-27 18:48:32.118	WT901BLE68-01(48591DE3C19B)	-0.306	-0.860	0.067	10.498	21.790	164.490	-44.85	59.13	-83.77	-63.014	-51.058	-23.422	-0.62686	0.16989	-0.52231	0.55249	30.8	13111	100
2025-3-27 18:48:32.118	WT901BLE68-01(48591DE3C19B)	-0.306	-0.840	0.085	4.089	6.714	146.057	-43.58	60.03	-82.22	-63.014	-51.058	-23.422	-0.62686	0.16989	-0.52231	0.55249	30.8	13111	100
2025-3-27 18:48:32.118	WT901BLE68-01(48591DE3C19B)	-0.263	-0.840	0.085	4.089	6.714	146.057	-42.23	60.90	-80.60	-63.014	-51.058	-23.422	-0.62686	0.16989	-0.52231	0.55249	30.8	13111	100
2025-3-27 18:48:32.175	WT901BLE68-01(48591DE3C19B)	-0.263	-0.803	0.094	1.892	-1.709	126.587	-40.99	61.56	-79.09	-63.014	-51.058	-23.422	-0.62686	0.16989	-0.52231	0.55249	30.8	13111	100
2025-3-27 18:48:32.175	WT901BLE68-01(48591DE3C19B)	-0.242	-0.803	0.094	1.892	-1.709	126.587	-39.69	62.20	-77.52	-101.038	-37.338	-21.560	-0.62686	0.16989	-0.52231	0.55249	30.8	13111	100
2025-3-27 18:48:32.175	WT901BLE68-01(48591DE3C19B)	-0.242	-0.753	0.116	-0.305	-7.629	107.300	-38.58	62.66	-76.15	-101.038	-37.338	-21.560	-0.62686	0.16989	-0.52231	0.55249	30.8	13111	100
2025-3-27 18:48:32.176	WT901BLE68-01(48591DE3C19B)	-0.222	-0.753	0.116	-0.305	-7.629	107.300	-37.44	63.09	-74.74	-101.038	-37.338	-21.560	-0.62686	0.16989	-0.52231	0.55249	30.8	13111	100
2025-3-27 18:48:32.205	WT901BLE68-01(48591DE3C19B)	-0.215	-0.700	0.186	-0.122	-15.259	89.783	-36.45	63.35	-73.52	-101.038	-37.338	-21.560	-0.62686	0.16989	-0.52231	0.55249	30.8	13111	100
2025-3-27 18:48:32.205	WT901BLE68-01(48591DE3C19B)	-0.215	-0.659	0.271	0.244	-28.198	72.144	-35.50	63.49	-72.34	-101.038	-37.338	-21.560	-0.62686	0.16989	-0.52231	0.55249	30.8	13111	100
2025-3-27 18:48:32.205	WT901BLE68-01(48591DE3C19B)	-0.183	-0.659	0.271	0.244	-28.198	72.144	-34.61	63.51	-71.25	-101.038	-37.338	-21.560	-0.62686	0.16989	-0.52231	0.55249	30.8	13111	100
2025-3-27 18:48:32.205	WT901BLE68-01(48591DE3C19B)	-0.183	-0.646	0.274	-4.089	-37.415	49.805	-33.87	63.43	-70.30	-101.038	-37.338	-21.560	-0.62686	0.16989	-0.52231	0.55249	30.8	13111	100
2025-3-27 18:48:32.235	WT901BLE68-01(48591DE3C19B)	-0.156	-0.646	0.274	-4.089	-37.415	49.805	-33.29	63.23	-69.51	-101.038	-37.338	-21.560	-0.62686	0.16989	-0.52231	0.55249	30.8	13111	100
2025-3-27 18:48:32.236	WT901BLE68-01(48591DE3C19B)	-0.156	-0.725	0.240	-13.062	-36.621	20.264	-33.01	62.96	-69.01	-101.038	-37.338	-21.560	-0.62686	0.16989	-0.52231	0.55249	30.8	13111	100
2025-3-27 18:48:32.236	WT901BLE68-01(48591DE3C19B)	-0.157	-0.725	0.240	-13.062	-36.621	20.264	-33.02	62.59	-68.79	-101.038	-37.338	-21.560	-0.62686	0.16989	-0.52231	0.55249	30.8	13111	100
2025-3-27 18:48:32.236	WT901BLE68-01(48591DE3C19B)	-0.157	-0.845	0.190	-21.973	-30.151	-12.817	-33.38	62.18	-68.90	-101.038	-37.338	-21.560	-0.62686	0.16989	-0.52231	0.55249	30.8	13111	100
2025-3-27 18:48:32.300	WT901BLE68-01(48591DE3C19B)	-0.198	-0.845	0.190	-21.973	-30.151	-12.817	-34.07	61.69	-69.33	-101.038	-37.338	-21.560	-0.62686	0.16989	-0.52231	0.55249	30.8	13111	100
2025-3-27 18:48:32.300	WT901BLE68-01(48591DE3C19B)	-0.198	-0.971	0.210	-30.762	-30.396	-49.194	-35.05	61.09	-70.05	-101.038	-37.338	-21.560	-0.62686	0.16989	-0.52231	0.55249	30.8	13111	100
2025-3-27 18:48:32.300	WT901BLE68-01(48591DE3C19B)	-0.253	-0.971	0.210	-30.762	-30.396	-49.194	-36.29	60.39	-71.04	-101.038	-37.338	-21.560	-0.62686	0.16989	-0.52231	0.55249	30.8	13111	100
2025-3-27 18:48:32.300	WT901BLE68-01(48591DE3C19B)	-0.253	-1.024	0.333	-32.532	-41.504	-85.022	-37.68	59.52	-72.17	-101.038	-37.338	-21.560	-0.62686	0.16989	-0.52231	0.55249	30.8	13111	100
2025-3-27 18:48:32.326	WT901BLE68-01(48591DE3C19B)	-0.227	-1.024	0.333	-32.532	-41.504	-85.022	-39.17	58.49	-73.44	-101.038	-37.338	-21.560	-0.62686	0.16989	-0.52231	0.55249	30.8	13111	100
2025-3-27 18:48:32.327	WT901BLE68-01(48591DE3C19B)	-0.227	-0.972	0.356	-41.199	-48.035	-121.460	-40.78	57.30	-74.82	-101.038	-37.338	-21.560	-0.62686	0.16989	-0.52231	0.55249	30.8	13111	100
2025-3-27 18:48:32.327	WT901BLE68-01(48591DE3C19B)	-0.185	-0.972	0.356	-41.199	-48.035	-121.460	-42.49	55.95	-76.29	-101.038	-37.338	-21.560	-0.62686	0.16989	-0.52231	0.55249	30.8	13111	100
2025-3-27 18:48:32.327	WT901BLE68-01(48591DE3C19B)	-0.185	-0.980	0.265	-57.373	-38.513	-158.020	-44.38	54.49	-77.91	-101.038	-37.338	-21.560	-0.62686	0.16989	-0.52231	0.55249	30.8	13111	100
2025-3-27 18:48:32.355	WT901BLE68-01(48591DE3C19B)	-0.273	-0.980	0.265	-57.373	-38.513	-158.020	-46.43	52.92	-79.66	-101.038	-37.338	-21.560	-0.62686	0.16989	-0.52231	0.55249	30.8	13111	100
2025-3-27 18:48:32.356	WT901BLE68-01(48591DE3C19B)	-0.273	-1.058	0.233	-75.317	-29.480	-197.327	-48.61	51.19	-81.50	-101.038	-37.338	-21.560	-0.62686	0.16989	-0.52231	0.55249	30.8	13111	100
2025-3-27 18:48:32.356	WT901BLE68-01(48591DE3C19B)	-0.484	-1.058	0.233	-75.317	-29.480	-197.327	-50.89	49.32	-83.42	-101.038	-37.338	-21.560	-0.73187	0.04080	-0.54105	0.41214	30.8	13111	100
2025-3-27 18:48:32.356	WT901BLE68-01(48591DE3C19B)	-0.484	-1.249	0.358	-93.689	-47.058	-232.239	-53.12	47.22	-85.19	-101.038	-37.338	-21.560	-0.73187	0.04080	-0.54105	0.41214	30.8	13111	100
2025-3-27 18:48:32.415	WT901BLE68-01(48591DE3C19B)	-0.691	-1.249	0.358	-93.689	-47.058	-232.239	-55.27	44.91	-86.81	-101.038	-37.338	-21.560	-0.73187	0.04080	-0.54105	0.41214	30.8	13111	100
2025-3-27 18:48:32.415	WT901BLE68-01(48591DE3C19B)	-0.691	-1.457	0.500	-109.314	-84.045	-257.446	-57.24	42.37	-88.12	-101.038	-37.338	-21.560	-0.73187	0.04080	-0.54105	0.41214	30.8	13111	100
2025-3-27 18:48:32.415	WT901BLE68-01(48591DE3C19B)	-0.584	-1.457	0.500	-109.314	-84.045	-257.446	-59.04	39.61	-89.14	-101.038	-37.338	-21.560	-0.73187	0.04080	-0.54105	0.41214	30.8	13111	100
2025-3-27 18:48:32.415	WT901BLE68-01(48591DE3C19B)	-0.584	-1.488	0.538	-118.652	-111.572	-271.301	-60.67	36.73	-89.90	-101.038	-37.338	-21.560	-0.73187	0.04080	-0.54105	0.41214	30.8	13111	100
2025-3-27 18:48:32.445	WT901BLE68-01(48591DE3C19B)	-0.400	-1.488	0.538	-118.652	-111.572	-271.301	-62.18	33.73	-90.42	-101.038	-37.338	-21.560	-0.73187	0.04080	-0.54105	0.41214	30.8	13111	100
2025-3-27 18:48:32.445	WT901BLE68-01(48591DE3C19B)	-0.400	-1.395	0.490	-127.930	-120.667	-269.958	-63.61	30.72	-90.77	-101.038	-37.338	-21.560	-0.73187	0.04080	-0.54105	0.41214	30.8	13111	100
2025-3-27 18:48:32.445	WT901BLE68-01(48591DE3C19B)	-0.274	-1.395	0.490	-127.930	-120.667	-269.958	-65.00	27.71	-90.98	-101.038	-37.338	-21.560	-0.73187	0.04080	-0.54105	0.41214	30.8	13111	100
2025-3-27 18:48:32.445	WT901BLE68-01(48591DE3C19B)	-0.274	-1.429	0.438	-137.390	-118.225	-264.343	-66.38	24.74	-91.09	-101.038	-37.338	-21.560	-0.73187	0.04080	-0.54105	0.41214	30.8	13111	100
2025-3-27 18:48:32.476	WT901BLE68-01(48591DE3C19B)	-0.235	-1.429	0.438	-137.390	-118.225	-264.343	-67.77	21.81	-91.13	-101.038	-37.338	-21.560	-0.73187	0.04080	-0.54105	0.41214	30.8	13111	100
2025-3-27 18:48:32.476	WT901BLE68-01(48591DE3C19B)	-0.235	-1.478	0.437	-137.024	-91.614	-258.667	-69.16	18.97	-91.20	-101.038	-37.338	-21.560	-0.73187	0.04080	-0.54105	0.41214	30.8	13111	100
2025-3-27 18:48:32.476	WT901BLE68-01(48591DE3C19B)	-0.239	-1.478	0.437	-137.024	-91.614	-258.667	-70.55	16.22	-91.33	-101.038	-37.338	-21.560	-0.73187	0.04080	-0.54105	0.41214	30.8	13111	100
2025-3-27 18:48:32.476	WT901BLE68-01(48591DE3C19B)	-0.239	-1.484	0.469	-134.216	-42.786	-256.958	-71.97	13.56	-91.61	-101.038	-37.338	-21.560	-0.73187	0.04080	-0.54105	0.41214	30.8	13111	100
2025-3-27 18:48:32.535	WT901BLE68-01(48591DE3C19B)	-0.239	-1.484	0.469	-134.216	-42.786	-256.958	-73.38	11.00	-92.07	-101.038	-37.338	-21.560	-0.73187	0.04080	-0.54105	0.41214	30.8	13111	100
2025-3-27 18:48:32.536	WT901BLE68-01(48591DE3C19B)	-0.239	-1.489	0.513	-123.413	10.376	-253.845	-74.75	8.52	-92.71	-101.038	-37.338	-21.560	-0.73187	0.04080	-0.54105	0.41214	30.8	13111	100
2025-3-27 18:48:32.536	WT901BLE68-01(48591DE3C19B)	-0.308	-1.489	0.513	-123.413	10.376	-253.845	-76.05	6.12	-93.55	-101.038	-37.338	-21.560	-0.73187	0.04080	-0.54105	0.41214	30.8	13111	100
2025-3-27 18:48:32.536	WT901BLE68-01(48591DE3C19B)	-0.308	-1.459	0.531	-106.201	51.697	-248.657	-77.24	3.79	-94.52	-101.038	-37.338	-21.560	-0.73187	0.04080	-0.54105	0.41214	30.8	13111	100
