time	DeviceName	AccX(g)	AccY(g)	AccZ(g)	AsX(°/s)	AsY(°/s)	AsZ(°/s)	AngleX(°)	AngleY(°)	AngleZ(°)	HX(uT)	HY(uT)	HZ(uT)	Q0()	Q1()	Q2()	Q3()	Temperature(°C)	Version()	Battery level(%)
2025-3-27 18:23:1.38	WT901BLE68-01(48591DE3C19B)	-0.348	-0.878	0.366	0.244	0.244	-2.930	-67.47	18.33	-30.48	-61.250	-15.092	82.614	0.81458	-0.49283	0.27829	-0.12662	31.0	13111	100
2025-3-27 18:23:1.38	WT901BLE68-01(48591DE3C19B)	-0.348	-0.879	0.369	-0.244	-3.113	-2.197	-67.47	18.31	-30.48	-61.250	-15.092	82.614	0.81458	-0.49283	0.27829	-0.12662	31.0	13111	100
2025-3-27 18:23:1.38	WT901BLE68-01(48591DE3C19B)	-0.334	-0.879	0.369	-0.244	-3.113	-2.197	-67.47	18.28	-30.47	-61.250	-15.092	82.614	0.81458	-0.49283	0.27829	-0.12662	31.0	13111	100
2025-3-27 18:23:1.39	WT901BLE68-01(48591DE3C19B)	-0.334	-0.884	0.370	-0.793	-5.859	-1.526	-67.47	18.25	-30.43	-61.250	-15.092	82.614	0.81458	-0.49283	0.27829	-0.12662	31.0	13111	100
2025-3-27 18:23:1.73	WT901BLE68-01(48591DE3C19B)	-0.322	-0.884	0.370	-0.793	-5.859	-1.526	-67.46	18.22	-30.39	-61.250	-15.092	82.614	0.81458	-0.49283	0.27829	-0.12662	31.0	13111	100
2025-3-27 18:23:1.74	WT901BLE68-01(48591DE3C19B)	-0.322	-0.881	0.369	-0.427	-7.507	-1.221	-67.45	18.18	-30.32	-61.250	-15.092	82.614	0.81458	-0.49283	0.27829	-0.12662	31.0	13111	100
2025-3-27 18:23:1.74	WT901BLE68-01(48591DE3C19B)	-0.314	-0.881	0.369	-0.427	-7.507	-1.221	-67.43	18.15	-30.26	-61.250	-15.092	82.614	0.81458	-0.49283	0.27829	-0.12662	31.0	13111	100
2025-3-27 18:23:1.74	WT901BLE68-01(48591DE3C19B)	-0.314	-0.875	0.372	0.061	-7.324	-0.854	-67.41	18.12	-30.20	-61.250	-15.092	82.614	0.81458	-0.49283	0.27829	-0.12662	31.0	13111	100
2025-3-27 18:23:1.126	WT901BLE68-01(48591DE3C19B)	-0.315	-0.875	0.372	0.061	-7.324	-0.854	-67.39	18.08	-30.14	-61.250	-15.092	82.614	0.81458	-0.49283	0.27829	-0.12662	31.0	13111	100
2025-3-27 18:23:1.126	WT901BLE68-01(48591DE3C19B)	-0.315	-0.868	0.365	0.122	-6.226	-0.977	-67.37	18.06	-30.09	-61.250	-15.092	82.614	0.81458	-0.49283	0.27829	-0.12662	31.0	13111	100
2025-3-27 18:23:1.126	WT901BLE68-01(48591DE3C19B)	-0.333	-0.868	0.365	0.122	-6.226	-0.977	-67.35	18.03	-30.04	-61.250	-15.092	82.614	0.81628	-0.49512	0.26788	-0.12906	31.0	13111	100
2025-3-27 18:23:1.126	WT901BLE68-01(48591DE3C19B)	-0.333	-0.870	0.356	0.061	-6.348	-0.488	-67.34	18.01	-29.99	-61.250	-15.092	82.614	0.81628	-0.49512	0.26788	-0.12906	31.0	13111	100
2025-3-27 18:23:1.187	WT901BLE68-01(48591DE3C19B)	-0.342	-0.870	0.356	0.061	-6.348	-0.488	-67.32	17.98	-29.94	-61.250	-15.092	82.614	0.81628	-0.49512	0.26788	-0.12906	31.0	13111	100
2025-3-27 18:23:1.187	WT901BLE68-01(48591DE3C19B)	-0.342	-0.873	0.357	-0.305	-10.254	-0.244	-67.29	17.95	-29.84	-61.250	-15.092	82.614	0.81628	-0.49512	0.26788	-0.12906	31.0	13111	100
2025-3-27 18:23:1.187	WT901BLE68-01(48591DE3C19B)	-0.335	-0.873	0.357	-0.305	-10.254	-0.244	-67.26	17.91	-29.76	-61.250	-15.092	82.614	0.81628	-0.49512	0.26788	-0.12906	31.0	13111	100
2025-3-27 18:23:1.187	WT901BLE68-01(48591DE3C19B)	-0.335	-0.887	0.362	-0.854	-13.794	0.305	-67.24	17.87	-29.63	-61.250	-15.092	82.614	0.81628	-0.49512	0.26788	-0.12906	31.0	13111	100
2025-3-27 18:23:1.188	WT901BLE68-01(48591DE3C19B)	-0.319	-0.887	0.362	-0.854	-13.794	0.305	-67.20	17.83	-29.50	-61.250	-15.092	82.614	0.81628	-0.49512	0.26788	-0.12906	31.0	13111	100
2025-3-27 18:23:1.188	WT901BLE68-01(48591DE3C19B)	-0.319	-0.903	0.367	-0.854	-14.771	1.038	-67.17	17.79	-29.37	-61.250	-15.092	82.614	0.81628	-0.49512	0.26788	-0.12906	31.0	13111	100
2025-3-27 18:23:1.188	WT901BLE68-01(48591DE3C19B)	-0.308	-0.903	0.367	-0.854	-14.771	1.038	-67.14	17.75	-29.23	-61.250	-15.092	82.614	0.81628	-0.49512	0.26788	-0.12906	31.0	13111	100
2025-3-27 18:23:1.188	WT901BLE68-01(48591DE3C19B)	-0.308	-0.916	0.365	-0.366	-13.916	2.258	-67.10	17.72	-29.09	-61.250	-15.092	82.614	0.81628	-0.49512	0.26788	-0.12906	31.0	13111	100
2025-3-27 18:23:1.247	WT901BLE68-01(48591DE3C19B)	-0.303	-0.916	0.365	-0.366	-13.916	2.258	-67.07	17.69	-28.96	-61.250	-15.092	82.614	0.81628	-0.49512	0.26788	-0.12906	31.0	13111	100
2025-3-27 18:23:1.247	WT901BLE68-01(48591DE3C19B)	-0.303	-0.922	0.366	0.244	-12.878	4.028	-67.02	17.68	-28.83	-61.250	-15.092	82.614	0.81628	-0.49512	0.26788	-0.12906	31.0	13111	100
2025-3-27 18:23:1.247	WT901BLE68-01(48591DE3C19B)	-0.290	-0.922	0.366	0.244	-12.878	4.028	-66.98	17.68	-28.71	-61.250	-15.092	82.614	0.81628	-0.49512	0.26788	-0.12906	31.0	13111	100
2025-3-27 18:23:1.247	WT901BLE68-01(48591DE3C19B)	-0.290	-0.932	0.379	1.099	-13.000	5.981	-66.93	17.68	-28.58	-61.250	-15.092	82.614	0.81628	-0.49512	0.26788	-0.12906	31.0	13111	100
2025-3-27 18:23:1.277	WT901BLE68-01(48591DE3C19B)	-0.273	-0.932	0.379	1.099	-13.000	5.981	-66.88	17.69	-28.44	-61.250	-15.092	82.614	0.81628	-0.49512	0.26788	-0.12906	31.0	13111	100
2025-3-27 18:23:1.277	WT901BLE68-01(48591DE3C19B)	-0.273	-0.918	0.385	1.587	-13.123	7.446	-66.82	17.70	-28.30	-61.250	-15.092	82.614	0.81628	-0.49512	0.26788	-0.12906	31.0	13111	100
2025-3-27 18:23:1.277	WT901BLE68-01(48591DE3C19B)	-0.256	-0.918	0.385	1.587	-13.123	7.446	-66.76	17.72	-28.16	-61.250	-15.092	82.614	0.81628	-0.49512	0.26788	-0.12906	31.0	13111	100
2025-3-27 18:23:1.277	WT901BLE68-01(48591DE3C19B)	-0.256	-0.910	0.395	1.221	-14.526	7.813	-66.70	17.73	-28.01	-61.250	-15.092	82.614	0.81628	-0.49512	0.26788	-0.12906	31.0	13111	100
2025-3-27 18:23:1.337	WT901BLE68-01(48591DE3C19B)	-0.238	-0.910	0.395	1.221	-14.526	7.813	-66.65	17.74	-27.86	-61.250	-15.092	82.614	0.81628	-0.49512	0.26788	-0.12906	31.0	13111	100
2025-3-27 18:23:1.337	WT901BLE68-01(48591DE3C19B)	-0.238	-0.918	0.391	1.343	-15.564	6.775	-66.58	17.74	-27.71	-61.250	-15.092	82.614	0.81628	-0.49512	0.26788	-0.12906	31.0	13111	100
2025-3-27 18:23:1.337	WT901BLE68-01(48591DE3C19B)	-0.226	-0.918	0.391	1.343	-15.564	6.775	-66.52	17.73	-27.55	-58.996	-15.092	82.614	0.81628	-0.49512	0.26788	-0.12906	31.0	13111	100
2025-3-27 18:23:1.337	WT901BLE68-01(48591DE3C19B)	-0.226	-0.923	0.401	1.648	-18.005	4.761	-66.45	17.69	-27.39	-58.996	-15.092	82.614	0.81628	-0.49512	0.26788	-0.12906	31.0	13111	100
2025-3-27 18:23:1.372	WT901BLE68-01(48591DE3C19B)	-0.221	-0.923	0.401	1.648	-18.005	4.761	-66.38	17.65	-27.23	-58.996	-15.092	82.614	0.81628	-0.49512	0.26788	-0.12906	31.0	13111	100
2025-3-27 18:23:1.373	WT901BLE68-01(48591DE3C19B)	-0.221	-0.924	0.416	2.686	-22.400	1.831	-66.30	17.56	-27.04	-58.996	-15.092	82.614	0.81628	-0.49512	0.26788	-0.12906	31.0	13111	100
2025-3-27 18:23:1.373	WT901BLE68-01(48591DE3C19B)	-0.198	-0.924	0.416	2.686	-22.400	1.831	-66.20	17.47	-26.85	-58.996	-15.092	82.614	0.81628	-0.49512	0.26788	-0.12906	31.0	13111	100
2025-3-27 18:23:1.373	WT901BLE68-01(48591DE3C19B)	-0.198	-0.917	0.399	3.479	-26.001	-1.953	-66.10	17.34	-26.64	-58.996	-15.092	82.614	0.81628	-0.49512	0.26788	-0.12906	31.0	13111	100
2025-3-27 18:23:1.397	WT901BLE68-01(48591DE3C19B)	-0.166	-0.917	0.399	3.479	-26.001	-1.953	-66.01	17.19	-26.44	-58.996	-15.092	82.614	0.81628	-0.49512	0.26788	-0.12906	31.0	13111	100
2025-3-27 18:23:1.397	WT901BLE68-01(48591DE3C19B)	-0.166	-0.897	0.388	4.456	-28.503	-5.249	-65.90	17.01	-26.23	-58.996	-15.092	82.614	0.81628	-0.49512	0.26788	-0.12906	31.0	13111	100
2025-3-27 18:23:1.397	WT901BLE68-01(48591DE3C19B)	-0.159	-0.897	0.388	4.456	-28.503	-5.249	-65.79	16.83	-26.02	-58.996	-15.092	82.614	0.81628	-0.49512	0.26788	-0.12906	31.0	13111	100
2025-3-27 18:23:1.397	WT901BLE68-01(48591DE3C19B)	-0.159	-0.869	0.381	5.249	-28.687	-8.667	-65.67	16.61	-25.83	-58.996	-15.092	82.614	0.81628	-0.49512	0.26788	-0.12906	31.0	13111	100
2025-3-27 18:23:1.426	WT901BLE68-01(48591DE3C19B)	-0.145	-0.869	0.381	5.249	-28.687	-8.667	-65.56	16.39	-25.64	-58.996	-15.092	82.614	0.81628	-0.49512	0.26788	-0.12906	31.0	13111	100
2025-3-27 18:23:1.426	WT901BLE68-01(48591DE3C19B)	-0.145	-0.817	0.375	5.981	-27.283	-11.047	-65.45	16.16	-25.48	-58.996	-15.092	82.614	0.81628	-0.49512	0.26788	-0.12906	31.0	13111	100
2025-3-27 18:23:1.426	WT901BLE68-01(48591DE3C19B)	-0.149	-0.817	0.375	5.981	-27.283	-11.047	-65.34	15.92	-25.31	-58.996	-15.092	82.614	0.81628	-0.49512	0.26788	-0.12906	31.0	13111	100
2025-3-27 18:23:1.426	WT901BLE68-01(48591DE3C19B)	-0.149	-0.772	0.358	5.127	-25.146	-12.451	-65.25	15.68	-25.18	-58.996	-15.092	82.614	0.81628	-0.49512	0.26788	-0.12906	31.0	13111	100
2025-3-27 18:23:1.486	WT901BLE68-01(48591DE3C19B)	-0.168	-0.772	0.358	5.127	-25.146	-12.451	-65.15	15.44	-25.05	-58.996	-15.092	82.614	0.81628	-0.49512	0.26788	-0.12906	31.0	13111	100
2025-3-27 18:23:1.486	WT901BLE68-01(48591DE3C19B)	-0.168	-0.771	0.356	2.319	-24.109	-13.916	-65.10	15.19	-24.93	-58.996	-15.092	82.614	0.81628	-0.49512	0.26788	-0.12906	31.0	13111	100
2025-3-27 18:23:1.487	WT901BLE68-01(48591DE3C19B)	-0.208	-0.771	0.356	2.319	-24.109	-13.916	-65.04	14.95	-24.82	-58.996	-15.092	82.614	0.81628	-0.49512	0.26788	-0.12906	31.0	13111	100
2025-3-27 18:23:1.487	WT901BLE68-01(48591DE3C19B)	-0.208	-0.825	0.364	-1.953	-25.513	-15.564	-65.02	14.68	-24.70	-58.996	-15.092	82.614	0.81628	-0.49512	0.26788	-0.12906	31.0	13111	100
2025-3-27 18:23:1.516	WT901BLE68-01(48591DE3C19B)	-0.249	-0.825	0.364	-1.953	-25.513	-15.564	-65.01	14.41	-24.58	-58.996	-15.092	82.614	0.81628	-0.49512	0.26788	-0.12906	31.0	13111	100
2025-3-27 18:23:1.516	WT901BLE68-01(48591DE3C19B)	-0.278	-0.936	0.406	-6.165	-29.541	-18.982	-65.03	14.11	-24.43	-58.996	-15.092	82.614	0.81628	-0.49512	0.26788	-0.12906	31.0	13111	100
2025-3-27 18:23:1.516	WT901BLE68-01(48591DE3C19B)	-0.278	-1.054	0.447	-7.141	-34.607	-23.987	-65.05	13.77	-24.27	-58.996	-15.092	82.614	0.81628	-0.49512	0.26788	-0.12906	31.0	13111	100
2025-3-27 18:23:1.517	WT901BLE68-01(48591DE3C19B)	-0.253	-1.054	0.447	-7.141	-34.607	-23.987	-65.08	13.40	-24.10	-58.996	-15.092	82.614	0.83185	-0.50253	0.20609	-0.11368	31.0	13111	100
2025-3-27 18:23:1.547	WT901BLE68-01(48591DE3C19B)	-0.253	-1.093	0.463	-3.845	-34.363	-28.992	-65.09	13.01	-23.94	-58.996	-15.092	82.614	0.83185	-0.50253	0.20609	-0.11368	31.0	13111	100
2025-3-27 18:23:1.547	WT901BLE68-01(48591DE3C19B)	-0.219	-1.093	0.463	-3.845	-34.363	-28.992	-65.10	12.60	-23.80	-58.996	-15.092	82.614	0.83185	-0.50253	0.20609	-0.11368	31.0	13111	100
2025-3-27 18:23:1.547	WT901BLE68-01(48591DE3C19B)	-0.219	-1.007	0.460	-0.244	-24.292	-32.227	-65.10	12.20	-23.71	-58.996	-15.092	82.614	0.83185	-0.50253	0.20609	-0.11368	31.0	13111	100
2025-3-27 18:23:1.547	WT901BLE68-01(48591DE3C19B)	-0.224	-1.007	0.460	-0.244	-24.292	-32.227	-65.09	11.81	-23.67	-58.996	-15.092	82.614	0.83185	-0.50253	0.20609	-0.11368	31.0	13111	100
2025-3-27 18:23:1.607	WT901BLE68-01(48591DE3C19B)	-0.224	-0.905	0.438	1.831	-7.568	-34.119	-65.09	11.44	-23.71	-58.996	-15.092	82.614	0.83185	-0.50253	0.20609	-0.11368	31.0	13111	100
2025-3-27 18:23:1.607	WT901BLE68-01(48591DE3C19B)	-0.221	-0.905	0.438	1.831	-7.568	-34.119	-65.09	11.11	-23.83	-58.996	-15.092	82.614	0.83185	-0.50253	0.20609	-0.11368	31.0	13111	100
2025-3-27 18:23:1.608	WT901BLE68-01(48591DE3C19B)	-0.221	-0.810	0.418	2.197	9.033	-36.499	-65.10	10.80	-24.04	-58.996	-15.092	82.614	0.83185	-0.50253	0.20609	-0.11368	31.0	13111	100
2025-3-27 18:23:1.608	WT901BLE68-01(48591DE3C19B)	-0.241	-0.810	0.418	2.197	9.033	-36.499	-65.13	10.52	-24.32	-58.996	-15.092	82.614	0.83185	-0.50253	0.20609	-0.11368	31.0	13111	100
2025-3-27 18:23:1.638	WT901BLE68-01(48591DE3C19B)	-0.241	-0.751	0.385	2.075	19.958	-33.813	-65.15	10.27	-24.65	-58.996	-15.092	82.614	0.83185	-0.50253	0.20609	-0.11368	31.0	13111	100
2025-3-27 18:23:1.639	WT901BLE68-01(48591DE3C19B)	-0.257	-0.751	0.385	2.075	19.958	-33.813	-65.19	10.07	-25.02	-58.996	-15.092	82.614	0.83185	-0.50253	0.20609	-0.11368	31.0	13111	100
2025-3-27 18:23:1.639	WT901BLE68-01(48591DE3C19B)	-0.257	-0.713	0.358	1.038	22.888	-33.386	-65.23	9.87	-25.39	-58.996	-15.092	82.614	0.83185	-0.50253	0.20609	-0.11368	31.0	13111	100
2025-3-27 18:23:1.639	WT901BLE68-01(48591DE3C19B)	-0.269	-0.713	0.358	1.038	22.888	-33.386	-65.28	9.68	-25.78	-58.996	-15.092	82.614	0.83185	-0.50253	0.20609	-0.11368	31.0	13111	100
2025-3-27 18:23:1.671	WT901BLE68-01(48591DE3C19B)	-0.269	-0.689	0.345	0.305	23.438	-33.081	-65.32	9.51	-26.16	-58.996	-15.092	82.614	0.83185	-0.50253	0.20609	-0.11368	31.0	13111	100
2025-3-27 18:23:1.672	WT901BLE68-01(48591DE3C19B)	-0.297	-0.689	0.345	0.305	23.438	-33.081	-65.37	9.33	-26.55	-58.996	-15.092	82.614	0.83185	-0.50253	0.20609	-0.11368	31.0	13111	100
2025-3-27 18:23:1.672	WT901BLE68-01(48591DE3C19B)	-0.297	-0.710	0.339	0.244	19.592	-33.386	-65.42	9.16	-26.91	-58.996	-15.092	82.614	0.83185	-0.50253	0.20609	-0.11368	31.0	13111	100
2025-3-27 18:23:1.672	WT901BLE68-01(48591DE3C19B)	-0.327	-0.710	0.339	0.244	19.592	-33.386	-65.46	8.97	-27.25	-58.996	-15.092	82.614	0.83185	-0.50253	0.20609	-0.11368	31.0	13111	100
2025-3-27 18:23:1.727	WT901BLE68-01(48591DE3C19B)	-0.327	-0.709	0.364	0.061	9.033	-33.386	-65.49	8.77	-27.54	-58.996	-15.092	82.614	0.83185	-0.50253	0.20609	-0.11368	31.0	13111	100
2025-3-27 18:23:1.727	WT901BLE68-01(48591DE3C19B)	-0.355	-0.709	0.364	0.061	9.033	-33.386	-65.52	8.55	-27.78	-55.860	-14.406	82.908	0.83185	-0.50253	0.20609	-0.11368	31.0	13111	100
2025-3-27 18:23:1.727	WT901BLE68-01(48591DE3C19B)	-0.355	-0.738	0.405	-2.319	-5.310	-33.447	-65.54	8.31	-27.94	-55.860	-14.406	82.908	0.83185	-0.50253	0.20609	-0.11368	31.0	13111	100
2025-3-27 18:23:1.727	WT901BLE68-01(48591DE3C19B)	-0.381	-0.738	0.405	-2.319	-5.310	-33.447	-65.57	8.04	-28.05	-55.860	-14.406	82.908	0.83185	-0.50253	0.20609	-0.11368	31.0	13111	100
2025-3-27 18:23:1.755	WT901BLE68-01(48591DE3C19B)	-0.381	-0.760	0.440	-4.639	-20.813	-32.532	-65.59	7.75	-28.07	-55.860	-14.406	82.908	0.83185	-0.50253	0.20609	-0.11368	31.0	13111	100
2025-3-27 18:23:1.756	WT901BLE68-01(48591DE3C19B)	-0.397	-0.760	0.440	-4.639	-20.813	-32.532	-65.62	7.43	-28.02	-55.860	-14.406	82.908	0.83185	-0.50253	0.20609	-0.11368	31.0	13111	100
2025-3-27 18:23:1.756	WT901BLE68-01(48591DE3C19B)	-0.397	-0.779	0.462	-7.690	-36.133	-30.701	-65.65	7.09	-27.90	-55.860	-14.406	82.908	0.83185	-0.50253	0.20609	-0.11368	31.0	13111	100
2025-3-27 18:23:1.756	WT901BLE68-01(48591DE3C19B)	-0.390	-0.779	0.462	-7.690	-36.133	-30.701	-65.68	6.74	-27.70	-55.860	-14.406	82.908	0.83185	-0.50253	0.20609	-0.11368	31.0	13111	100
2025-3-27 18:23:1.786	WT901BLE68-01(48591DE3C19B)	-0.390	-0.809	0.477	-9.949	-47.180	-27.283	-65.72	6.39	-27.44	-55.860	-14.406	82.908	0.83185	-0.50253	0.20609	-0.11368	31.0	13111	100
2025-3-27 18:23:1.786	WT901BLE68-01(48591DE3C19B)	-0.397	-0.809	0.477	-9.949	-47.180	-27.283	-65.76	6.03	-27.13	-55.860	-14.406	82.908	0.83185	-0.50253	0.20609	-0.11368	31.0	13111	100
2025-3-27 18:23:1.786	WT901BLE68-01(48591DE3C19B)	-0.397	-0.856	0.484	-10.559	-55.115	-22.827	-65.80	5.68	-26.76	-55.860	-14.406	82.908	0.83185	-0.50253	0.20609	-0.11368	31.0	13111	100
2025-3-27 18:23:1.786	WT901BLE68-01(48591DE3C19B)	-0.390	-0.856	0.484	-10.559	-55.115	-22.827	-65.84	5.34	-26.36	-55.860	-14.406	82.908	0.83185	-0.50253	0.20609	-0.11368	31.0	13111	100
2025-3-27 18:23:1.846	WT901BLE68-01(48591DE3C19B)	-0.390	-0.918	0.491	-11.414	-61.279	-18.555	-65.89	5.00	-25.92	-55.860	-14.406	82.908	0.83185	-0.50253	0.20609	-0.11368	31.0	13111	100
2025-3-27 18:23:1.846	WT901BLE68-01(48591DE3C19B)	-0.389	-0.918	0.491	-11.414	-61.279	-18.555	-65.93	4.68	-25.44	-55.860	-14.406	82.908	0.83185	-0.50253	0.20609	-0.11368	31.0	13111	100
2025-3-27 18:23:1.846	WT901BLE68-01(48591DE3C19B)	-0.389	-0.989	0.505	-11.292	-65.002	-13.977	-65.98	4.37	-24.94	-55.860	-14.406	82.908	0.83185	-0.50253	0.20609	-0.11368	31.0	13111	100
2025-3-27 18:23:1.847	WT901BLE68-01(48591DE3C19B)	-0.377	-0.989	0.505	-11.292	-65.002	-13.977	-66.02	4.08	-24.42	-55.860	-14.406	82.908	0.83185	-0.50253	0.20609	-0.11368	31.0	13111	100
2025-3-27 18:23:1.878	WT901BLE68-01(48591DE3C19B)	-0.377	-1.063	0.509	-11.841	-65.613	-9.583	-66.08	3.80	-23.88	-55.860	-14.406	82.908	0.83185	-0.50253	0.20609	-0.11368	31.0	13111	100
2025-3-27 18:23:1.878	WT901BLE68-01(48591DE3C19B)	-0.365	-1.063	0.509	-11.841	-65.613	-9.583	-66.13	3.55	-23.35	-55.860	-14.406	82.908	0.83185	-0.50253	0.20609	-0.11368	31.0	13111	100
2025-3-27 18:23:1.878	WT901BLE68-01(48591DE3C19B)	-0.365	-1.152	0.517	-13.306	-63.293	-4.639	-66.20	3.32	-22.81	-55.860	-14.406	82.908	0.83185	-0.50253	0.20609	-0.11368	31.0	13111	100
2025-3-27 18:23:1.878	WT901BLE68-01(48591DE3C19B)	-0.345	-1.152	0.517	-13.306	-63.293	-4.639	-66.28	3.12	-22.27	-55.860	-14.406	82.908	0.83185	-0.50253	0.20609	-0.11368	31.0	13111	100
2025-3-27 18:23:1.909	WT901BLE68-01(48591DE3C19B)	-1.381	-1.268	0.512	-15.747	-55.603	-0.977	-66.37	2.95	-21.77	-55.860	-14.406	82.908	0.83185	-0.50253	0.20609	-0.11368	31.0	13111	100
2025-3-27 18:23:1.909	WT901BLE68-01(48591DE3C19B)	-0.295	-5.073	2.048	-15.747	-55.603	-0.977	-66.49	2.81	-21.30	-55.860	-14.406	82.908	0.83185	-0.50253	0.20609	-0.11368	31.0	13111	100
2025-3-27 18:23:1.909	WT901BLE68-01(48591DE3C19B)	-0.295	-1.344	0.500	-16.174	-39.856	2.075	-66.62	2.70	-20.90	-55.860	-14.406	82.908	0.82391	-0.53632	0.11899	-0.13879	31.0	13111	100
2025-3-27 18:23:1.909	WT901BLE68-01(48591DE3C19B)	-0.272	-1.344	0.500	-16.174	-39.856	2.075	-66.75	2.65	-20.57	-55.860	-14.406	82.908	0.82391	-0.53632	0.11899	-0.13879	31.0	13111	100
2025-3-27 18:23:1.997	WT901BLE68-01(48591DE3C19B)	-0.272	-1.366	0.471	-16.418	-16.785	4.761	-66.90	2.64	-20.35	-55.860	-14.406	82.908	0.82391	-0.53632	0.11899	-0.13879	31.0	13111	100
2025-3-27 18:23:1.997	WT901BLE68-01(48591DE3C19B)	-0.295	-1.366	0.471	-16.418	-16.785	4.761	-67.05	2.70	-20.22	-55.860	-14.406	82.908	0.82391	-0.53632	0.11899	-0.13879	31.0	13111	100
2025-3-27 18:23:1.997	WT901BLE68-01(48591DE3C19B)	-0.295	-1.331	0.439	-18.433	2.808	4.883	-67.21	2.79	-20.19	-55.860	-14.406	82.908	0.82391	-0.53632	0.11899	-0.13879	31.0	13111	100
2025-3-27 18:23:1.997	WT901BLE68-01(48591DE3C19B)	-0.346	-1.331	0.439	-18.433	2.808	4.883	-67.39	2.91	-20.25	-55.860	-14.406	82.908	0.82391	-0.53632	0.11899	-0.13879	31.0	13111	100
2025-3-27 18:23:1.998	WT901BLE68-01(48591DE3C19B)	-0.346	-1.313	0.449	-23.926	15.198	2.502	-67.64	3.07	-20.43	-55.860	-14.406	82.908	0.82391	-0.53632	0.11899	-0.13879	31.0	13111	100
2025-3-27 18:23:1.998	WT901BLE68-01(48591DE3C19B)	-0.429	-1.313	0.449	-23.926	15.198	2.502	-67.88	3.21	-20.61	-55.860	-14.406	82.908	0.82391	-0.53632	0.11899	-0.13879	31.0	13111	100
2025-3-27 18:23:1.998	WT901BLE68-01(48591DE3C19B)	-0.429	-1.337	0.496	-28.687	15.320	0.916	-68.17	3.35	-20.80	-55.860	-14.406	82.908	0.82391	-0.53632	0.11899	-0.13879	31.0	13111	100
2025-3-27 18:23:1.998	WT901BLE68-01(48591DE3C19B)	-0.495	-1.337	0.496	-28.687	15.320	0.916	-68.46	3.48	-20.98	-55.860	-14.406	82.908	0.82391	-0.53632	0.11899	-0.13879	31.0	13111	100
2025-3-27 18:23:2.56	WT901BLE68-01(48591DE3C19B)	-0.495	-1.232	0.521	-25.818	-0.793	7.141	-68.71	3.61	-20.99	-55.860	-14.406	82.908	0.82391	-0.53632	0.11899	-0.13879	31.0	13111	100
2025-3-27 18:23:2.56	WT901BLE68-01(48591DE3C19B)	-0.463	-1.232	0.521	-25.818	-0.793	7.141	-68.96	3.75	-21.01	-55.860	-14.406	82.908	0.82391	-0.53632	0.11899	-0.13879	31.0	13111	100
2025-3-27 18:23:2.56	WT901BLE68-01(48591DE3C19B)	-0.463	-0.976	0.456	-23.193	-24.231	23.987	-69.16	3.96	-20.74	-55.860	-14.406	82.908	0.82391	-0.53632	0.11899	-0.13879	31.0	13111	100
2025-3-27 18:23:2.56	WT901BLE68-01(48591DE3C19B)	-0.400	-0.976	0.456	-23.193	-24.231	23.987	-69.35	4.17	-20.47	-55.860	-14.406	82.908	0.82391	-0.53632	0.11899	-0.13879	31.0	13111	100
2025-3-27 18:23:2.116	WT901BLE68-01(48591DE3C19B)	-0.400	-0.736	0.345	-23.254	-39.795	46.692	-69.53	4.55	-19.98	-55.860	-14.406	82.908	0.82391	-0.53632	0.11899	-0.13879	31.0	13111	100
2025-3-27 18:23:2.117	WT901BLE68-01(48591DE3C19B)	-0.338	-0.736	0.345	-23.254	-39.795	46.692	-69.70	4.92	-19.49	-55.860	-14.406	82.908	0.82391	-0.53632	0.11899	-0.13879	31.0	13111	100
2025-3-27 18:23:2.117	WT901BLE68-01(48591DE3C19B)	-0.338	-0.617	0.231	-28.503	-54.993	63.232	-69.90	5.41	-18.80	-55.860	-14.406	82.908	0.82391	-0.53632	0.11899	-0.13879	31.0	13111	100
2025-3-27 18:23:2.117	WT901BLE68-01(48591DE3C19B)	-0.275	-0.617	0.231	-28.503	-54.993	63.232	-70.09	5.89	-18.11	-55.860	-14.406	82.908	0.82391	-0.53632	0.11899	-0.13879	31.0	13111	100
2025-3-27 18:23:2.117	WT901BLE68-01(48591DE3C19B)	-0.275	-0.673	0.169	-34.912	-72.632	73.120	-70.32	6.41	-17.23	-55.860	-14.406	82.908	0.82391	-0.53632	0.11899	-0.13879	31.0	13111	100
2025-3-27 18:23:2.117	WT901BLE68-01(48591DE3C19B)	-0.214	-0.673	0.169	-34.912	-72.632	73.120	-70.54	6.93	-16.35	-55.860	-14.406	82.908	0.82391	-0.53632	0.11899	-0.13879	31.0	13111	100
2025-3-27 18:23:2.118	WT901BLE68-01(48591DE3C19B)	-0.214	-0.803	0.160	-33.691	-88.257	79.407	-70.73	7.45	-15.30	-55.860	-14.406	82.908	0.82391	-0.53632	0.11899	-0.13879	31.0	13111	100
2025-3-27 18:23:2.118	WT901BLE68-01(48591DE3C19B)	-0.171	-0.803	0.160	-33.691	-88.257	79.407	-70.91	7.98	-14.27	-49.882	-20.384	79.086	0.82391	-0.53632	0.11899	-0.13879	31.0	13111	100
2025-3-27 18:23:2.146	WT901BLE68-01(48591DE3C19B)	-0.171	-0.925	0.197	-28.137	-97.656	81.787	-71.00	8.49	-13.14	-49.882	-20.384	79.086	0.82391	-0.53632	0.11899	-0.13879	31.0	13111	100
2025-3-27 18:23:2.146	WT901BLE68-01(48591DE3C19B)	-0.116	-0.925	0.197	-28.137	-97.656	81.787	-71.10	9.00	-12.01	-49.882	-20.384	79.086	0.82391	-0.53632	0.11899	-0.13879	31.0	13111	100
2025-3-27 18:23:2.146	WT901BLE68-01(48591DE3C19B)	-0.116	-1.020	0.217	-18.127	-92.957	82.031	-71.09	9.51	-10.95	-49.882	-20.384	79.086	0.82391	-0.53632	0.11899	-0.13879	31.0	13111	100
2025-3-27 18:23:2.146	WT901BLE68-01(48591DE3C19B)	-0.055	-1.020	0.217	-18.127	-92.957	82.031	-71.08	10.03	-9.88	-49.882	-20.384	79.086	0.82391	-0.53632	0.11899	-0.13879	31.0	13111	100
2025-3-27 18:23:2.206	WT901BLE68-01(48591DE3C19B)	-0.055	-0.990	0.207	-5.249	-70.190	80.261	-70.97	10.58	-9.05	-49.882	-20.384	79.086	0.82391	-0.53632	0.11899	-0.13879	31.0	13111	100
2025-3-27 18:23:2.206	WT901BLE68-01(48591DE3C19B)	-0.045	-0.990	0.207	-5.249	-70.190	80.261	-70.86	11.13	-8.22	-49.882	-20.384	79.086	0.82391	-0.53632	0.11899	-0.13879	31.0	13111	100
2025-3-27 18:23:2.206	WT901BLE68-01(48591DE3C19B)	-0.045	-0.878	0.184	2.197	-41.199	78.674	-70.72	11.74	-7.68	-49.882	-20.384	79.086	0.82391	-0.53632	0.11899	-0.13879	31.0	13111	100
2025-3-27 18:23:2.206	WT901BLE68-01(48591DE3C19B)	-0.035	-0.878	0.184	2.197	-41.199	78.674	-70.59	12.35	-7.14	-49.882	-20.384	79.086	0.82391	-0.53632	0.11899	-0.13879	31.0	13111	100
2025-3-27 18:23:2.236	WT901BLE68-01(48591DE3C19B)	-0.035	-0.790	0.139	3.174	-13.855	76.233	-70.49	13.02	-6.88	-49.882	-20.384	79.086	0.82391	-0.53632	0.11899	-0.13879	31.0	13111	100
2025-3-27 18:23:2.236	WT901BLE68-01(48591DE3C19B)	-0.013	-0.790	0.139	3.174	-13.855	76.233	-70.41	13.68	-6.62	-49.882	-20.384	79.086	0.82391	-0.53632	0.11899	-0.13879	31.0	13111	100
2025-3-27 18:23:2.236	WT901BLE68-01(48591DE3C19B)	-0.013	-0.715	0.105	1.221	8.789	74.219	-70.38	14.39	-6.59	-49.882	-20.384	79.086	0.82391	-0.53632	0.11899	-0.13879	31.0	13111	100
2025-3-27 18:23:2.237	WT901BLE68-01(48591DE3C19B)	0.013	-0.715	0.105	1.221	8.789	74.219	-70.37	15.08	-6.55	-49.882	-20.384	79.086	0.82391	-0.53632	0.11899	-0.13879	31.0	13111	100
2025-3-27 18:23:2.272	WT901BLE68-01(48591DE3C19B)	0.013	-0.654	0.092	-3.662	24.963	69.702	-70.46	15.79	-6.70	-49.882	-20.384	79.086	0.82391	-0.53632	0.11899	-0.13879	31.0	13111	100
2025-3-27 18:23:2.272	WT901BLE68-01(48591DE3C19B)	0.008	-0.654	0.092	-3.662	24.963	69.702	-70.54	16.49	-6.85	-49.882	-20.384	79.086	0.82391	-0.53632	0.11899	-0.13879	31.0	13111	100
2025-3-27 18:23:2.272	WT901BLE68-01(48591DE3C19B)	0.008	-0.686	0.105	-11.047	30.701	64.453	-70.72	17.15	-7.08	-49.882	-20.384	79.086	0.82391	-0.53632	0.11899	-0.13879	31.0	13111	100
2025-3-27 18:23:2.272	WT901BLE68-01(48591DE3C19B)	-0.063	-0.686	0.105	-11.047	30.701	64.453	-70.92	17.80	-7.31	-49.882	-20.384	79.086	0.82391	-0.53632	0.11899	-0.13879	31.0	13111	100
2025-3-27 18:23:2.326	WT901BLE68-01(48591DE3C19B)	-0.063	-0.798	0.136	-18.677	20.142	59.998	-71.16	18.37	-7.45	-49.882	-20.384	79.086	0.82391	-0.53632	0.11899	-0.13879	31.0	13111	100
2025-3-27 18:23:2.326	WT901BLE68-01(48591DE3C19B)	-0.104	-0.798	0.136	-18.677	20.142	59.998	-71.41	18.93	-7.60	-49.882	-20.384	79.086	0.80554	-0.56546	0.17148	0.04263	31.0	13111	100
2025-3-27 18:23:2.326	WT901BLE68-01(48591DE3C19B)	-0.104	-0.969	0.158	-24.170	0.061	53.101	-71.65	19.37	-7.58	-49.882	-20.384	79.086	0.80554	-0.56546	0.17148	0.04263	31.0	13111	100
2025-3-27 18:23:2.327	WT901BLE68-01(48591DE3C19B)	-0.100	-0.969	0.158	-24.170	0.061	53.101	-71.89	19.80	-7.56	-49.882	-20.384	79.086	0.80554	-0.56546	0.17148	0.04263	31.0	13111	100
2025-3-27 18:23:2.356	WT901BLE68-01(48591DE3C19B)	-0.100	-1.215	0.152	-26.245	-20.874	47.119	-72.09	20.11	-7.35	-49.882	-20.384	79.086	0.80554	-0.56546	0.17148	0.04263	31.0	13111	100
2025-3-27 18:23:2.356	WT901BLE68-01(48591DE3C19B)	-0.104	-1.215	0.152	-26.245	-20.874	47.119	-72.29	20.42	-7.14	-49.882	-20.384	79.086	0.80554	-0.56546	0.17148	0.04263	31.0	13111	100
2025-3-27 18:23:2.356	WT901BLE68-01(48591DE3C19B)	-0.104	-1.433	0.141	-20.935	-39.429	44.556	-72.37	20.64	-6.75	-49.882	-20.384	79.086	0.80554	-0.56546	0.17148	0.04263	31.0	13111	100
2025-3-27 18:23:2.356	WT901BLE68-01(48591DE3C19B)	-0.137	-1.433	0.141	-20.935	-39.429	44.556	-72.46	20.87	-6.37	-49.882	-20.384	79.086	0.80554	-0.56546	0.17148	0.04263	31.0	13111	100
2025-3-27 18:23:2.386	WT901BLE68-01(48591DE3C19B)	-0.137	-1.592	0.149	-13.733	-57.068	42.297	-72.42	21.02	-5.82	-49.882	-20.384	79.086	0.80554	-0.56546	0.17148	0.04263	31.0	13111	100
2025-3-27 18:23:2.386	WT901BLE68-01(48591DE3C19B)	-0.104	-1.592	0.149	-13.733	-57.068	42.297	-72.38	21.17	-5.27	-49.882	-20.384	79.086	0.80554	-0.56546	0.17148	0.04263	31.0	13111	100
2025-3-27 18:23:2.386	WT901BLE68-01(48591DE3C19B)	-0.104	-1.715	0.136	-7.813	-70.984	35.828	-72.24	21.21	-4.60	-49.882	-20.384	79.086	0.80554	-0.56546	0.17148	0.04263	31.0	13111	100
2025-3-27 18:23:2.386	WT901BLE68-01(48591DE3C19B)	0.079	-1.715	0.136	-7.813	-70.984	35.828	-72.10	21.26	-3.93	-49.882	-20.384	79.086	0.80554	-0.56546	0.17148	0.04263	31.0	13111	100
2025-3-27 18:23:2.446	WT901BLE68-01(48591DE3C19B)	0.138	-1.767	0.152	1.770	-71.777	26.794	-71.88	21.20	-3.30	-49.882	-20.384	79.086	0.80554	-0.56546	0.17148	0.04263	31.0	13111	100
2025-3-27 18:23:2.446	WT901BLE68-01(48591DE3C19B)	0.138	-1.721	0.221	12.451	-52.246	21.118	-71.65	21.15	-2.77	-49.882	-20.384	79.086	0.80554	-0.56546	0.17148	0.04263	31.0	13111	100
2025-3-27 18:23:2.447	WT901BLE68-01(48591DE3C19B)	0.191	-1.721	0.221	12.451	-52.246	21.118	-71.41	21.09	-2.37	-49.882	-20.384	79.086	0.80554	-0.56546	0.17148	0.04263	31.0	13111	100
2025-3-27 18:23:2.447	WT901BLE68-01(48591DE3C19B)	0.191	-1.631	0.260	22.400	-23.499	11.414	-71.18	21.03	-2.13	-49.882	-20.384	79.086	0.80554	-0.56546	0.17148	0.04263	31.0	13111	100
2025-3-27 18:23:2.478	WT901BLE68-01(48591DE3C19B)	0.315	-1.631	0.260	22.400	-23.499	11.414	-70.97	20.96	-2.05	-49.882	-20.384	79.086	0.80554	-0.56546	0.17148	0.04263	31.0	13111	100
2025-3-27 18:23:2.478	WT901BLE68-01(48591DE3C19B)	0.315	-1.493	0.202	32.715	24.231	-3.601	-70.80	20.90	-2.25	-49.882	-20.384	79.086	0.80554	-0.56546	0.17148	0.04263	31.0	13111	100
2025-3-27 18:23:2.478	WT901BLE68-01(48591DE3C19B)	0.310	-1.493	0.202	32.715	24.231	-3.601	-70.67	20.84	-2.71	-49.882	-20.384	79.086	0.80554	-0.56546	0.17148	0.04263	31.0	13111	100
2025-3-27 18:23:2.478	WT901BLE68-01(48591DE3C19B)	0.310	-1.186	0.163	40.894	82.092	-18.494	-70.62	20.79	-3.49	-49.882	-20.384	79.086	0.80554	-0.56546	0.17148	0.04263	31.0	13111	100
2025-3-27 18:23:2.509	WT901BLE68-01(48591DE3C19B)	0.214	-1.186	0.163	40.894	82.092	-18.494	-70.64	20.76	-4.59	-49.882	-20.384	79.086	0.80554	-0.56546	0.17148	0.04263	31.0	13111	100
2025-3-27 18:23:2.510	WT901BLE68-01(48591DE3C19B)	0.214	-0.877	0.169	41.748	122.253	-32.471	-70.74	20.74	-5.91	-49.882	-20.384	79.086	0.80554	-0.56546	0.17148	0.04263	31.0	13111	100
2025-3-27 18:23:2.510	WT901BLE68-01(48591DE3C19B)	0.138	-0.877	0.169	41.748	122.253	-32.471	-70.91	20.70	-7.44	-43.120	-25.872	70.658	0.80554	-0.56546	0.17148	0.04263	31.0	13111	100
2025-3-27 18:23:2.510	WT901BLE68-01(48591DE3C19B)	0.138	-0.664	0.223	38.818	139.771	-43.396	-71.13	20.63	-9.09	-43.120	-25.872	70.658	0.80554	-0.56546	0.17148	0.04263	31.0	13111	100
2025-3-27 18:23:2.573	WT901BLE68-01(48591DE3C19B)	0.022	-0.664	0.223	38.818	139.771	-43.396	-71.39	20.53	-10.82	-43.120	-25.872	70.658	0.80554	-0.56546	0.17148	0.04263	31.0	13111	100
2025-3-27 18:23:2.573	WT901BLE68-01(48591DE3C19B)	0.022	-0.614	0.274	32.532	139.893	-51.392	-71.67	20.38	-12.56	-43.120	-25.872	70.658	0.80554	-0.56546	0.17148	0.04263	31.0	13111	100
2025-3-27 18:23:2.573	WT901BLE68-01(48591DE3C19B)	-0.107	-0.614	0.274	32.532	139.893	-51.392	-71.98	20.18	-14.30	-43.120	-25.872	70.658	0.80554	-0.56546	0.17148	0.04263	31.0	13111	100
2025-3-27 18:23:2.573	WT901BLE68-01(48591DE3C19B)	-0.107	-0.715	0.285	27.771	120.239	-58.289	-72.27	19.92	-15.94	-43.120	-25.872	70.658	0.80554	-0.56546	0.17148	0.04263	31.0	13111	100
2025-3-27 18:23:2.595	WT901BLE68-01(48591DE3C19B)	-0.196	-0.715	0.285	27.771	120.239	-58.289	-72.53	19.59	-17.48	-43.120	-25.872	70.658	0.80554	-0.56546	0.17148	0.04263	31.0	13111	100
2025-3-27 18:23:2.596	WT901BLE68-01(48591DE3C19B)	-0.196	-0.797	0.279	28.748	82.031	-64.209	-72.71	19.18	-18.82	-43.120	-25.872	70.658	0.80554	-0.56546	0.17148	0.04263	31.0	13111	100
2025-3-27 18:23:2.596	WT901BLE68-01(48591DE3C19B)	-0.187	-0.797	0.279	28.748	82.031	-64.209	-72.80	18.69	-19.96	-43.120	-25.872	70.658	0.80554	-0.56546	0.17148	0.04263	31.0	13111	100
2025-3-27 18:23:2.596	WT901BLE68-01(48591DE3C19B)	-0.187	-0.792	0.273	29.968	45.593	-70.679	-72.82	18.12	-20.92	-43.120	-25.872	70.658	0.80554	-0.56546	0.17148	0.04263	31.0	13111	100
2025-3-27 18:23:2.656	WT901BLE68-01(48591DE3C19B)	-0.191	-0.792	0.273	29.968	45.593	-70.679	-72.76	17.48	-21.69	-43.120	-25.872	70.658	0.80554	-0.56546	0.17148	0.04263	31.0	13111	100
2025-3-27 18:23:2.656	WT901BLE68-01(48591DE3C19B)	-0.191	-0.759	0.264	29.419	17.334	-78.613	-72.65	16.77	-22.33	-43.120	-25.872	70.658	0.80554	-0.56546	0.17148	0.04263	31.0	13111	100
2025-3-27 18:23:2.657	WT901BLE68-01(48591DE3C19B)	-0.190	-0.759	0.264	29.419	17.334	-78.613	-72.50	15.99	-22.84	-43.120	-25.872	70.658	0.80554	-0.56546	0.17148	0.04263	31.0	13111	100
2025-3-27 18:23:2.657	WT901BLE68-01(48591DE3C19B)	-0.190	-0.730	0.262	27.832	-0.488	-87.891	-72.33	15.16	-23.26	-43.120	-25.872	70.658	0.80554	-0.56546	0.17148	0.04263	31.0	13111	100
2025-3-27 18:23:2.689	WT901BLE68-01(48591DE3C19B)	-0.170	-0.730	0.262	27.832	-0.488	-87.891	-72.15	14.25	-23.61	-43.120	-25.872	70.658	0.80554	-0.56546	0.17148	0.04263	31.0	13111	100
2025-3-27 18:23:2.689	WT901BLE68-01(48591DE3C19B)	-0.170	-0.695	0.266	26.245	-4.333	-96.619	-71.96	13.32	-23.95	-43.120	-25.872	70.658	0.80554	-0.56546	0.17148	0.04263	31.0	13111	100
2025-3-27 18:23:2.689	WT901BLE68-01(48591DE3C19B)	-0.149	-0.695	0.266	26.245	-4.333	-96.619	-71.77	12.35	-24.29	-43.120	-25.872	70.658	0.80554	-0.56546	0.17148	0.04263	31.0	13111	100
2025-3-27 18:23:2.689	WT901BLE68-01(48591DE3C19B)	-0.149	-0.641	0.281	24.719	5.310	-102.661	-71.60	11.37	-24.68	-43.120	-25.872	70.658	0.80554	-0.56546	0.17148	0.04263	31.0	13111	100
2025-3-27 18:23:2.718	WT901BLE68-01(48591DE3C19B)	-0.160	-0.641	0.281	24.719	5.310	-102.661	-71.43	10.39	-25.13	-43.120	-25.872	70.658	0.80554	-0.56546	0.17148	0.04263	31.0	13111	100
2025-3-27 18:23:2.718	WT901BLE68-01(48591DE3C19B)	-0.160	-0.575	0.293	23.682	23.010	-106.812	-71.27	9.43	-25.66	-43.120	-25.872	70.658	0.80554	-0.56546	0.17148	0.04263	31.0	13111	100
2025-3-27 18:23:2.718	WT901BLE68-01(48591DE3C19B)	-0.212	-0.575	0.293	23.682	23.010	-106.812	-71.13	8.49	-26.29	-43.120	-25.872	70.658	0.79938	-0.55099	0.18875	-0.14722	31.0	13111	100
2025-3-27 18:23:2.718	WT901BLE68-01(48591DE3C19B)	-0.212	-0.512	0.282	23.071	39.368	-109.863	-70.98	7.56	-26.99	-43.120	-25.872	70.658	0.79938	-0.55099	0.18875	-0.14722	31.0	13111	100
2025-3-27 18:23:2.776	WT901BLE68-01(48591DE3C19B)	-0.290	-0.512	0.282	23.071	39.368	-109.863	-70.84	6.67	-27.78	-43.120	-25.872	70.658	0.79938	-0.55099	0.18875	-0.14722	31.0	13111	100
2025-3-27 18:23:2.776	WT901BLE68-01(48591DE3C19B)	-0.290	-0.470	0.273	21.667	43.274	-109.802	-70.69	5.80	-28.58	-43.120	-25.872	70.658	0.79938	-0.55099	0.18875	-0.14722	31.0	13111	100
2025-3-27 18:23:2.776	WT901BLE68-01(48591DE3C19B)	-0.357	-0.470	0.273	21.667	43.274	-109.802	-70.53	4.94	-29.39	-43.120	-25.872	70.658	0.79938	-0.55099	0.18875	-0.14722	31.0	13111	100
2025-3-27 18:23:2.776	WT901BLE68-01(48591DE3C19B)	-0.357	-0.463	0.287	17.944	28.809	-107.117	-70.37	4.09	-30.12	-43.120	-25.872	70.658	0.79938	-0.55099	0.18875	-0.14722	31.0	13111	100
2025-3-27 18:23:2.807	WT901BLE68-01(48591DE3C19B)	-0.406	-0.463	0.287	17.944	28.809	-107.117	-70.21	3.25	-30.77	-43.120	-25.872	70.658	0.79938	-0.55099	0.18875	-0.14722	31.0	13111	100
2025-3-27 18:23:2.807	WT901BLE68-01(48591DE3C19B)	-0.406	-0.528	0.342	12.268	1.282	-100.952	-70.07	2.41	-31.28	-43.120	-25.872	70.658	0.79938	-0.55099	0.18875	-0.14722	31.0	13111	100
2025-3-27 18:23:2.807	WT901BLE68-01(48591DE3C19B)	-0.467	-0.528	0.342	12.268	1.282	-100.952	-69.93	1.56	-31.64	-43.120	-25.872	70.658	0.79938	-0.55099	0.18875	-0.14722	31.0	13111	100
2025-3-27 18:23:2.807	WT901BLE68-01(48591DE3C19B)	-0.467	-0.669	0.440	8.057	-37.292	-90.515	-69.80	0.71	-31.80	-43.120	-25.872	70.658	0.79938	-0.55099	0.18875	-0.14722	31.0	13111	100
2025-3-27 18:23:2.836	WT901BLE68-01(48591DE3C19B)	-0.520	-0.669	0.440	8.057	-37.292	-90.515	-69.69	-0.14	-31.76	-43.120	-25.872	70.658	0.79938	-0.55099	0.18875	-0.14722	31.0	13111	100
2025-3-27 18:23:2.836	WT901BLE68-01(48591DE3C19B)	-0.520	-0.878	0.500	0.305	-82.581	-80.872	-69.61	-1.01	-31.49	-43.120	-25.872	70.658	0.79938	-0.55099	0.18875	-0.14722	31.0	13111	100
2025-3-27 18:23:2.836	WT901BLE68-01(48591DE3C19B)	-0.481	-0.878	0.500	0.305	-82.581	-80.872	-69.59	-1.91	-30.99	-43.120	-25.872	70.658	0.79938	-0.55099	0.18875	-0.14722	31.0	13111	100
2025-3-27 18:23:2.836	WT901BLE68-01(48591DE3C19B)	-0.481	-1.116	0.487	-6.714	-113.464	-72.876	-69.61	-2.82	-30.34	-43.120	-25.872	70.658	0.79938	-0.55099	0.18875	-0.14722	31.0	13111	100
2025-3-27 18:23:2.898	WT901BLE68-01(48591DE3C19B)	-0.384	-1.116	0.487	-6.714	-113.464	-72.876	-69.69	-3.74	-29.53	-43.120	-25.872	70.658	0.79938	-0.55099	0.18875	-0.14722	31.0	13111	100
2025-3-27 18:23:2.899	WT901BLE68-01(48591DE3C19B)	-0.384	-1.340	0.486	-13.794	-125.305	-66.895	-69.82	-4.65	-28.65	-43.120	-25.872	70.658	0.79938	-0.55099	0.18875	-0.14722	31.0	13111	100
2025-3-27 18:23:2.899	WT901BLE68-01(48591DE3C19B)	-0.324	-1.340	0.486	-13.794	-125.305	-66.895	-70.01	-5.55	-27.71	-43.120	-25.872	70.658	0.79938	-0.55099	0.18875	-0.14722	31.0	13111	100
2025-3-27 18:23:2.899	WT901BLE68-01(48591DE3C19B)	-0.324	-1.636	0.536	-22.827	-125.122	-58.228	-70.26	-6.41	-26.76	-43.120	-25.872	70.658	0.79938	-0.55099	0.18875	-0.14722	31.0	13111	100
2025-3-27 18:23:2.928	WT901BLE68-01(48591DE3C19B)	-0.251	-1.636	0.536	-22.827	-125.122	-58.228	-70.58	-7.22	-25.81	-43.120	-25.872	70.658	0.79938	-0.55099	0.18875	-0.14722	31.0	13111	100
2025-3-27 18:23:2.928	WT901BLE68-01(48591DE3C19B)	-0.251	-1.798	0.612	-17.761	-105.957	-49.377	-70.85	-7.89	-25.00	-43.120	-25.872	70.658	0.79938	-0.55099	0.18875	-0.14722	31.0	13111	100
2025-3-27 18:23:2.928	WT901BLE68-01(48591DE3C19B)	-0.173	-1.798	0.612	-17.761	-105.957	-49.377	-71.11	-8.56	-24.20	-43.120	-25.872	70.658	0.79938	-0.55099	0.18875	-0.14722	31.0	13111	100
2025-3-27 18:23:2.928	WT901BLE68-01(48591DE3C19B)	-0.173	-1.619	0.679	-13.062	-61.829	-38.269	-71.29	-8.98	-23.79	-51.352	-17.248	73.892	0.79938	-0.55099	0.18875	-0.14722	31.0	13111	100
2025-3-27 18:23:2.959	WT901BLE68-01(48591DE3C19B)	-0.143	-1.619	0.679	-13.062	-61.829	-38.269	-71.46	-9.40	-23.37	-51.352	-17.248	73.892	0.79938	-0.55099	0.18875	-0.14722	31.0	13111	100
2025-3-27 18:23:2.959	WT901BLE68-01(48591DE3C19B)	-0.143	-1.321	0.654	-13.123	-1.404	-25.085	-71.55	-9.52	-23.51	-51.352	-17.248	73.892	0.79938	-0.55099	0.18875	-0.14722	31.0	13111	100
2025-3-27 18:23:2.959	WT901BLE68-01(48591DE3C19B)	-0.232	-1.321	0.654	-13.123	-1.404	-25.085	-71.63	-9.64	-23.64	-51.352	-17.248	73.892	0.79938	-0.55099	0.18875	-0.14722	31.0	13111	100
2025-3-27 18:23:2.959	WT901BLE68-01(48591DE3C19B)	-0.232	-1.103	0.574	-18.188	40.955	-13.916	-71.70	-9.52	-24.14	-51.352	-17.248	73.892	0.79938	-0.55099	0.18875	-0.14722	31.0	13111	100
2025-3-27 18:23:3.17	WT901BLE68-01(48591DE3C19B)	-0.327	-1.103	0.574	-18.188	40.955	-13.916	-71.76	-9.40	-24.64	-51.352	-17.248	73.892	0.79938	-0.55099	0.18875	-0.14722	31.0	13111	100
2025-3-27 18:23:3.17	WT901BLE68-01(48591DE3C19B)	-0.327	-1.047	0.504	-22.949	51.270	-7.690	-71.87	-9.19	-25.22	-51.352	-17.248	73.892	0.79938	-0.55099	0.18875	-0.14722	31.0	13111	100
2025-3-27 18:23:3.17	WT901BLE68-01(48591DE3C19B)	-0.402	-1.047	0.504	-22.949	51.270	-7.690	-71.97	-8.98	-25.79	-51.352	-17.248	73.892	0.79938	-0.55099	0.18875	-0.14722	31.0	13111	100
2025-3-27 18:23:3.17	WT901BLE68-01(48591DE3C19B)	-0.402	-0.959	0.484	-16.113	45.532	3.784	-72.02	-8.68	-26.27	-51.352	-17.248	73.892	0.79938	-0.55099	0.18875	-0.14722	31.0	13111	100
2025-3-27 18:23:3.45	WT901BLE68-01(48591DE3C19B)	-0.467	-0.959	0.484	-16.113	45.532	3.784	-72.06	-8.38	-26.74	-51.352	-17.248	73.892	0.79938	-0.55099	0.18875	-0.14722	31.0	13111	100
2025-3-27 18:23:3.46	WT901BLE68-01(48591DE3C19B)	-0.467	-0.754	0.409	-7.935	31.799	20.325	-72.06	-7.95	-27.03	-51.352	-17.248	73.892	0.79938	-0.55099	0.18875	-0.14722	31.0	13111	100
2025-3-27 18:23:3.46	WT901BLE68-01(48591DE3C19B)	-0.537	-0.754	0.409	-7.935	31.799	20.325	-72.06	-7.53	-27.31	-51.352	-17.248	73.892	0.79938	-0.55099	0.18875	-0.14722	31.0	13111	100
2025-3-27 18:23:3.46	WT901BLE68-01(48591DE3C19B)	-0.537	-0.618	0.291	-5.981	7.507	37.415	-72.08	-7.00	-27.29	-51.352	-17.248	73.892	0.79938	-0.55099	0.18875	-0.14722	31.0	13111	100
2025-3-27 18:23:3.77	WT901BLE68-01(48591DE3C19B)	-0.592	-0.618	0.291	-5.981	7.507	37.415	-72.10	-6.48	-27.27	-51.352	-17.248	73.892	0.79938	-0.55099	0.18875	-0.14722	31.0	13111	100
2025-3-27 18:23:3.77	WT901BLE68-01(48591DE3C19B)	-0.592	-0.663	0.194	-7.019	-30.090	55.847	-72.18	-5.88	-26.82	-51.352	-17.248	73.892	0.79938	-0.55099	0.18875	-0.14722	31.0	13111	100
2025-3-27 18:23:3.77	WT901BLE68-01(48591DE3C19B)	-0.575	-0.663	0.194	-7.019	-30.090	55.847	-72.26	-5.28	-26.37	-51.352	-17.248	73.892	0.79938	-0.55099	0.18875	-0.14722	31.0	13111	100
2025-3-27 18:23:3.77	WT901BLE68-01(48591DE3C19B)	-0.575	-0.780	0.132	-4.150	-75.745	77.209	-72.35	-4.61	-25.42	-51.352	-17.248	73.892	0.79938	-0.55099	0.18875	-0.14722	31.0	13111	100
2025-3-27 18:23:3.137	WT901BLE68-01(48591DE3C19B)	-0.473	-0.780	0.132	-4.150	-75.745	77.209	-72.44	-3.93	-24.47	-51.352	-17.248	73.892	0.79938	-0.55099	0.18875	-0.14722	31.0	13111	100
2025-3-27 18:23:3.137	WT901BLE68-01(48591DE3C19B)	-0.473	-0.917	0.098	0.000	-113.098	97.351	-72.50	-3.18	-23.10	-51.352	-17.248	73.892	0.79938	-0.55099	0.18875	-0.14722	31.0	13111	100
2025-3-27 18:23:3.137	WT901BLE68-01(48591DE3C19B)	-0.336	-0.917	0.098	0.000	-113.098	97.351	-72.56	-2.42	-21.73	-51.352	-17.248	73.892	0.79938	-0.55099	0.18875	-0.14722	31.0	13111	100
2025-3-27 18:23:3.137	WT901BLE68-01(48591DE3C19B)	-0.336	-1.047	0.078	8.484	-127.441	114.319	-72.52	-1.56	-20.19	-51.352	-17.248	73.892	0.79938	-0.55099	0.18875	-0.14722	31.0	13111	100
2025-3-27 18:23:3.171	WT901BLE68-01(48591DE3C19B)	-0.232	-1.047	0.078	8.484	-127.441	114.319	-72.47	-0.70	-18.65	-51.352	-17.248	73.892	0.79703	-0.58347	0.09042	-0.12656	31.0	13111	100
2025-3-27 18:23:3.171	WT901BLE68-01(48591DE3C19B)	-0.232	-1.091	0.100	20.691	-121.155	129.517	-72.28	0.30	-17.14	-51.352	-17.248	73.892	0.79703	-0.58347	0.09042	-0.12656	31.0	13111	100
2025-3-27 18:23:3.171	WT901BLE68-01(48591DE3C19B)	-0.162	-1.091	0.100	20.691	-121.155	129.517	-72.06	1.29	-15.63	-51.352	-17.248	73.892	0.79703	-0.58347	0.09042	-0.12656	31.0	13111	100
2025-3-27 18:23:3.171	WT901BLE68-01(48591DE3C19B)	-0.162	-1.087	0.128	29.114	-97.839	144.226	-71.75	2.46	-14.31	-51.352	-17.248	73.892	0.79703	-0.58347	0.09042	-0.12656	31.0	13111	100
2025-3-27 18:23:3.197	WT901BLE68-01(48591DE3C19B)	-0.079	-1.087	0.128	29.114	-97.839	144.226	-71.41	3.62	-12.99	-51.352	-17.248	73.892	0.79703	-0.58347	0.09042	-0.12656	31.0	13111	100
2025-3-27 18:23:3.197	WT901BLE68-01(48591DE3C19B)	-0.079	-1.042	0.145	33.691	-59.998	155.396	-71.02	4.98	-11.99	-51.352	-17.248	73.892	0.79703	-0.58347	0.09042	-0.12656	31.0	13111	100
2025-3-27 18:23:3.197	WT901BLE68-01(48591DE3C19B)	-0.027	-1.042	0.145	33.691	-59.998	155.396	-70.61	6.32	-10.99	-51.352	-17.248	73.892	0.79703	-0.58347	0.09042	-0.12656	31.0	13111	100
2025-3-27 18:23:3.197	WT901BLE68-01(48591DE3C19B)	-0.027	-0.960	0.155	34.607	-20.020	164.612	-70.22	7.86	-10.34	-51.352	-17.248	73.892	0.79703	-0.58347	0.09042	-0.12656	31.0	13111	100
2025-3-27 18:23:3.255	WT901BLE68-01(48591DE3C19B)	-0.038	-0.960	0.155	34.607	-20.020	164.612	-69.81	9.38	-9.67	-51.352	-17.248	73.892	0.79703	-0.58347	0.09042	-0.12656	31.0	13111	100
2025-3-27 18:23:3.256	WT901BLE68-01(48591DE3C19B)	-0.038	-0.924	0.203	34.180	9.399	170.776	-69.43	11.04	-9.27	-51.352	-17.248	73.892	0.79703	-0.58347	0.09042	-0.12656	31.0	13111	100
2025-3-27 18:23:3.256	WT901BLE68-01(48591DE3C19B)	-0.087	-0.924	0.203	34.180	9.399	170.776	-69.03	12.67	-8.85	-51.352	-17.248	73.892	0.79703	-0.58347	0.09042	-0.12656	31.0	13111	100
2025-3-27 18:23:3.256	WT901BLE68-01(48591DE3C19B)	-0.087	-0.950	0.265	33.508	27.405	180.969	-68.66	14.45	-8.56	-51.352	-17.248	73.892	0.79703	-0.58347	0.09042	-0.12656	31.0	13111	100
2025-3-27 18:23:3.288	WT901BLE68-01(48591DE3C19B)	-0.180	-0.950	0.265	33.508	27.405	180.969	-68.27	16.22	-8.26	-51.352	-17.248	73.892	0.79703	-0.58347	0.09042	-0.12656	31.0	13111	100
2025-3-27 18:23:3.288	WT901BLE68-01(48591DE3C19B)	-0.180	-1.109	0.272	28.503	37.964	192.871	-67.94	18.12	-8.00	-51.352	-17.248	73.892	0.79703	-0.58347	0.09042	-0.12656	31.0	13111	100
2025-3-27 18:23:3.288	WT901BLE68-01(48591DE3C19B)	-0.250	-1.109	0.272	28.503	37.964	192.871	-67.60	20.00	-7.73	-51.352	-17.248	73.892	0.79703	-0.58347	0.09042	-0.12656	31.0	13111	100
2025-3-27 18:23:3.288	WT901BLE68-01(48591DE3C19B)	-0.250	-1.319	0.172	22.766	41.138	207.764	-67.29	22.02	-7.42	-51.352	-17.248	73.892	0.79703	-0.58347	0.09042	-0.12656	31.0	13111	100
2025-3-27 18:23:3.318	WT901BLE68-01(48591DE3C19B)	-0.198	-1.319	0.172	22.766	41.138	207.764	-66.97	24.03	-7.09	-51.352	-17.248	73.892	0.79703	-0.58347	0.09042	-0.12656	31.0	13111	100
2025-3-27 18:23:3.318	WT901BLE68-01(48591DE3C19B)	-0.198	-1.527	0.088	13.916	34.485	217.163	-66.67	26.09	-6.65	-51.352	-17.248	73.892	0.79703	-0.58347	0.09042	-0.12656	31.0	13111	100
2025-3-27 18:23:3.318	WT901BLE68-01(48591DE3C19B)	-0.055	-1.527	0.088	13.916	34.485	217.163	-66.36	28.13	-6.19	-41.748	-24.402	69.188	0.79703	-0.58347	0.09042	-0.12656	31.0	13111	100
2025-3-27 18:23:3.319	WT901BLE68-01(48591DE3C19B)	-0.055	-1.709	0.057	6.226	15.991	216.003	-66.02	30.06	-5.52	-41.748	-24.402	69.188	0.79703	-0.58347	0.09042	-0.12656	31.0	13111	100
2025-3-27 18:23:3.407	WT901BLE68-01(48591DE3C19B)	0.112	-1.709	0.057	6.226	15.991	216.003	-65.65	31.98	-4.84	-41.748	-24.402	69.188	0.79703	-0.58347	0.09042	-0.12656	31.0	13111	100
2025-3-27 18:23:3.407	WT901BLE68-01(48591DE3C19B)	0.098	-1.809	0.103	6.592	-6.348	198.120	-65.18	33.63	-3.99	-41.748	-24.402	69.188	0.79703	-0.58347	0.09042	-0.12656	31.0	13111	100
2025-3-27 18:23:3.407	WT901BLE68-01(48591DE3C19B)	0.098	-1.826	0.200	11.047	-20.508	167.175	-64.65	35.08	-3.12	-41.748	-24.402	69.188	0.79703	-0.58347	0.09042	-0.12656	31.0	13111	100
2025-3-27 18:23:3.407	WT901BLE68-01(48591DE3C19B)	0.001	-1.826	0.200	11.047	-20.508	167.175	-64.07	36.34	-2.23	-41.748	-24.402	69.188	0.79703	-0.58347	0.09042	-0.12656	31.0	13111	100
2025-3-27 18:23:3.408	WT901BLE68-01(48591DE3C19B)	0.001	-1.708	0.305	16.296	-23.193	121.826	-63.50	37.38	-1.43	-41.748	-24.402	69.188	0.79703	-0.58347	0.09042	-0.12656	31.0	13111	100
2025-3-27 18:23:3.408	WT901BLE68-01(48591DE3C19B)	0.038	-1.708	0.305	16.296	-23.193	121.826	-62.96	38.19	-0.73	-41.748	-24.402	69.188	0.79703	-0.58347	0.09042	-0.12656	31.0	13111	100
2025-3-27 18:23:3.408	WT901BLE68-01(48591DE3C19B)	0.038	-1.456	0.385	14.648	-13.977	72.449	-62.52	38.80	-0.21	-41.748	-24.402	69.188	0.79703	-0.58347	0.09042	-0.12656	31.0	13111	100
2025-3-27 18:23:3.409	WT901BLE68-01(48591DE3C19B)	0.133	-1.456	0.385	14.648	-13.977	72.449	-62.22	39.20	0.10	-41.748	-24.402	69.188	0.79703	-0.58347	0.09042	-0.12656	31.0	13111	100
2025-3-27 18:23:3.471	WT901BLE68-01(48591DE3C19B)	0.133	-1.261	0.383	14.771	5.981	34.485	-62.05	39.47	0.20	-41.748	-24.402	69.188	0.79703	-0.58347	0.09042	-0.12656	31.0	13111	100
2025-3-27 18:23:3.471	WT901BLE68-01(48591DE3C19B)	0.271	-1.261	0.383	14.771	5.981	34.485	-62.02	39.62	0.07	-41.748	-24.402	69.188	0.79703	-0.58347	0.09042	-0.12656	31.0	13111	100
2025-3-27 18:23:3.471	WT901BLE68-01(48591DE3C19B)	0.271	-1.202	0.268	17.578	39.673	-4.639	-62.17	39.67	-0.38	-41.748	-24.402	69.188	0.79703	-0.58347	0.09042	-0.12656	31.0	13111	100
2025-3-27 18:23:3.471	WT901BLE68-01(48591DE3C19B)	0.201	-1.202	0.268	17.578	39.673	-4.639	-62.51	39.61	-1.14	-41.748	-24.402	69.188	0.79703	-0.58347	0.09042	-0.12656	31.0	13111	100
2025-3-27 18:23:3.498	WT901BLE68-01(48591DE3C19B)	0.201	-1.141	0.168	21.301	69.214	-34.241	-63.00	39.48	-2.16	-41.748	-24.402	69.188	0.79703	-0.58347	0.09042	-0.12656	31.0	13111	100
2025-3-27 18:23:3.499	WT901BLE68-01(48591DE3C19B)	0.104	-1.141	0.168	21.301	69.214	-34.241	-63.62	39.28	-3.43	-41.748	-24.402	69.188	0.79703	-0.58347	0.09042	-0.12656	31.0	13111	100
2025-3-27 18:23:3.499	WT901BLE68-01(48591DE3C19B)	0.104	-1.000	0.138	21.423	75.500	-56.396	-64.29	38.98	-4.78	-41.748	-24.402	69.188	0.79703	-0.58347	0.09042	-0.12656	31.0	13111	100
2025-3-27 18:23:3.499	WT901BLE68-01(48591DE3C19B)	0.059	-1.000	0.138	21.423	75.500	-56.396	-65.01	38.58	-6.21	-41.748	-24.402	69.188	0.79703	-0.58347	0.09042	-0.12656	31.0	13111	100
2025-3-27 18:23:3.528	WT901BLE68-01(48591DE3C19B)	0.059	-0.914	0.156	18.494	75.073	-73.242	-65.74	38.09	-7.67	-41.748	-24.402	69.188	0.79703	-0.58347	0.09042	-0.12656	31.0	13111	100
2025-3-27 18:23:3.528	WT901BLE68-01(48591DE3C19B)	0.000	-0.914	0.156	18.494	75.073	-73.242	-66.48	37.51	-9.13	-41.748	-24.402	69.188	0.79703	-0.58347	0.09042	-0.12656	31.0	13111	100
2025-3-27 18:23:3.528	WT901BLE68-01(48591DE3C19B)	0.000	-0.889	0.202	15.930	77.698	-88.257	-67.24	36.85	-10.62	-41.748	-24.402	69.188	0.79703	-0.58347	0.09042	-0.12656	31.0	13111	100
2025-3-27 18:23:3.528	WT901BLE68-01(48591DE3C19B)	-0.093	-0.889	0.202	15.930	77.698	-88.257	-68.01	36.12	-12.12	-41.748	-24.402	69.188	0.80200	-0.50156	0.31174	0.08914	31.0	13111	100
2025-3-27 18:23:3.558	WT901BLE68-01(48591DE3C19B)	-0.093	-0.902	0.222	15.442	76.782	-102.173	-68.75	35.31	-13.62	-41.748	-24.402	69.188	0.80200	-0.50156	0.31174	0.08914	31.0	13111	100
2025-3-27 18:23:3.558	WT901BLE68-01(48591DE3C19B)	-0.180	-0.902	0.222	15.442	76.782	-102.173	-69.47	34.43	-15.10	-41.748	-24.402	69.188	0.80200	-0.50156	0.31174	0.08914	31.0	13111	100
2025-3-27 18:23:3.558	WT901BLE68-01(48591DE3C19B)	-0.180	-0.912	0.212	16.418	65.430	-117.310	-70.11	33.45	-16.51	-41.748	-24.402	69.188	0.80200	-0.50156	0.31174	0.08914	31.0	13111	100
2025-3-27 18:23:3.558	WT901BLE68-01(48591DE3C19B)	-0.214	-0.912	0.212	16.418	65.430	-117.310	-70.70	32.38	-17.85	-41.748	-24.402	69.188	0.80200	-0.50156	0.31174	0.08914	31.0	13111	100
2025-3-27 18:23:3.617	WT901BLE68-01(48591DE3C19B)	-0.214	-0.854	0.225	15.808	49.438	-132.507	-71.21	31.21	-19.08	-41.748	-24.402	69.188	0.80200	-0.50156	0.31174	0.08914	31.0	13111	100
2025-3-27 18:23:3.617	WT901BLE68-01(48591DE3C19B)	-0.224	-0.854	0.225	15.808	49.438	-132.507	-71.65	29.95	-20.23	-41.748	-24.402	69.188	0.80200	-0.50156	0.31174	0.08914	31.0	13111	100
2025-3-27 18:23:3.617	WT901BLE68-01(48591DE3C19B)	-0.224	-0.774	0.257	12.268	37.781	-146.362	-72.05	28.61	-21.29	-41.748	-24.402	69.188	0.80200	-0.50156	0.31174	0.08914	31.0	13111	100
2025-3-27 18:23:3.617	WT901BLE68-01(48591DE3C19B)	-0.245	-0.774	0.257	12.268	37.781	-146.362	-72.40	27.19	-22.29	-41.748	-24.402	69.188	0.80200	-0.50156	0.31174	0.08914	31.0	13111	100
2025-3-27 18:23:3.648	WT901BLE68-01(48591DE3C19B)	-0.245	-0.692	0.274	8.179	31.494	-157.104	-72.73	25.72	-23.24	-41.748	-24.402	69.188	0.80200	-0.50156	0.31174	0.08914	31.0	13111	100
2025-3-27 18:23:3.648	WT901BLE68-01(48591DE3C19B)	-0.265	-0.692	0.274	8.179	31.494	-157.104	-73.04	24.20	-24.14	-41.748	-24.402	69.188	0.80200	-0.50156	0.31174	0.08914	31.0	13111	100
2025-3-27 18:23:3.648	WT901BLE68-01(48591DE3C19B)	-0.265	-0.625	0.266	4.456	27.527	-166.016	-73.33	22.65	-25.02	-41.748	-24.402	69.188	0.80200	-0.50156	0.31174	0.08914	31.0	13111	100
2025-3-27 18:23:3.648	WT901BLE68-01(48591DE3C19B)	-0.275	-0.625	0.266	4.456	27.527	-166.016	-73.59	21.06	-25.85	-41.748	-24.402	69.188	0.80200	-0.50156	0.31174	0.08914	31.0	13111	100
2025-3-27 18:23:3.678	WT901BLE68-01(48591DE3C19B)	-0.275	-0.590	0.255	0.793	19.043	-174.500	-73.83	19.42	-26.64	-41.748	-24.402	69.188	0.80200	-0.50156	0.31174	0.08914	31.0	13111	100
2025-3-27 18:23:3.678	WT901BLE68-01(48591DE3C19B)	-0.259	-0.590	0.255	0.793	19.043	-174.500	-74.05	17.75	-27.37	-41.748	-24.402	69.188	0.80200	-0.50156	0.31174	0.08914	31.0	13111	100
2025-3-27 18:23:3.678	WT901BLE68-01(48591DE3C19B)	-0.259	-0.593	0.275	-2.869	10.010	-181.458	-74.25	16.05	-28.05	-41.748	-24.402	69.188	0.80200	-0.50156	0.31174	0.08914	31.0	13111	100
2025-3-27 18:23:3.678	WT901BLE68-01(48591DE3C19B)	-0.268	-0.593	0.275	-2.869	10.010	-181.458	-74.43	14.30	-28.67	-41.748	-24.402	69.188	0.80200	-0.50156	0.31174	0.08914	31.0	13111	100
2025-3-27 18:23:3.737	WT901BLE68-01(48591DE3C19B)	-0.268	-0.637	0.313	-3.723	5.737	-185.791	-74.58	12.56	-29.27	-41.748	-24.402	69.188	0.80200	-0.50156	0.31174	0.08914	31.0	13111	100
2025-3-27 18:23:3.737	WT901BLE68-01(48591DE3C19B)	-0.331	-0.637	0.313	-3.723	5.737	-185.791	-74.71	10.79	-29.83	-41.748	-24.402	69.188	0.80200	-0.50156	0.31174	0.08914	31.0	13111	100
2025-3-27 18:23:3.737	WT901BLE68-01(48591DE3C19B)	-0.331	-0.671	0.333	0.244	5.371	-186.707	-74.80	9.04	-30.39	-41.748	-24.402	69.188	0.80200	-0.50156	0.31174	0.08914	31.0	13111	100
2025-3-27 18:23:3.737	WT901BLE68-01(48591DE3C19B)	-0.439	-0.671	0.333	0.244	5.371	-186.707	-74.85	7.29	-30.93	-41.748	-24.402	69.188	0.80200	-0.50156	0.31174	0.08914	31.0	13111	100
2025-3-27 18:23:3.771	WT901BLE68-01(48591DE3C19B)	-0.439	-0.733	0.355	4.639	3.662	-182.068	-74.86	5.59	-31.46	-51.352	-20.286	75.362	0.80200	-0.50156	0.31174	0.08914	31.0	13111	100
2025-3-27 18:23:3.771	WT901BLE68-01(48591DE3C19B)	-0.542	-0.733	0.355	4.639	3.662	-182.068	-74.82	3.92	-31.96	-51.352	-20.286	75.362	0.80200	-0.50156	0.31174	0.08914	31.0	13111	100
2025-3-27 18:23:3.771	WT901BLE68-01(48591DE3C19B)	-0.542	-0.906	0.343	6.165	-3.418	-170.044	-74.76	2.32	-32.40	-51.352	-20.286	75.362	0.80200	-0.50156	0.31174	0.08914	31.0	13111	100
2025-3-27 18:23:3.771	WT901BLE68-01(48591DE3C19B)	-0.540	-0.906	0.343	6.165	-3.418	-170.044	-74.67	0.79	-32.80	-51.352	-20.286	75.362	0.80200	-0.50156	0.31174	0.08914	31.0	13111	100
2025-3-27 18:23:3.797	WT901BLE68-01(48591DE3C19B)	-0.540	-0.978	0.276	8.667	-8.362	-151.184	-74.58	-0.64	-33.13	-51.352	-20.286	75.362	0.80200	-0.50156	0.31174	0.08914	31.0	13111	100
2025-3-27 18:23:3.797	WT901BLE68-01(48591DE3C19B)	-0.488	-0.978	0.276	8.667	-8.362	-151.184	-74.46	-1.98	-33.43	-51.352	-20.286	75.362	0.80200	-0.50156	0.31174	0.08914	31.0	13111	100
2025-3-27 18:23:3.797	WT901BLE68-01(48591DE3C19B)	-0.488	-0.975	0.234	6.653	-11.780	-126.831	-74.36	-3.19	-33.67	-51.352	-20.286	75.362	0.80200	-0.50156	0.31174	0.08914	31.0	13111	100
2025-3-27 18:23:3.797	WT901BLE68-01(48591DE3C19B)	-0.463	-0.975	0.234	6.653	-11.780	-126.831	-74.26	-4.28	-33.85	-51.352	-20.286	75.362	0.80200	-0.50156	0.31174	0.08914	31.0	13111	100
2025-3-27 18:23:3.856	WT901BLE68-01(48591DE3C19B)	-0.463	-0.994	0.261	-1.465	-20.508	-105.591	-74.26	-5.19	-33.90	-51.352	-20.286	75.362	0.80200	-0.50156	0.31174	0.08914	31.0	13111	100
2025-3-27 18:23:3.856	WT901BLE68-01(48591DE3C19B)	-0.463	-0.994	0.261	-1.465	-20.508	-105.591	-74.27	-6.09	-33.95	-51.352	-20.286	75.362	0.80200	-0.50156	0.31174	0.08914	31.0	13111	100
2025-3-27 18:23:3.856	WT901BLE68-01(48591DE3C19B)	-0.463	-1.165	0.336	-14.038	-31.189	-84.839	-74.41	-6.81	-33.84	-51.352	-20.286	75.362	0.80200	-0.50156	0.31174	0.08914	31.0	13111	100
2025-3-27 18:23:3.857	WT901BLE68-01(48591DE3C19B)	-0.473	-1.165	0.336	-14.038	-31.189	-84.839	-74.56	-7.53	-33.72	-51.352	-20.286	75.362	0.80200	-0.50156	0.31174	0.08914	31.0	13111	100
2025-3-27 18:23:3.887	WT901BLE68-01(48591DE3C19B)	-0.473	-1.363	0.420	-19.653	-32.959	-69.519	-74.77	-8.11	-33.55	-51.352	-20.286	75.362	0.80200	-0.50156	0.31174	0.08914	31.0	13111	100
2025-3-27 18:23:3.887	WT901BLE68-01(48591DE3C19B)	-0.493	-1.363	0.420	-19.653	-32.959	-69.519	-74.98	-8.68	-33.38	-51.352	-20.286	75.362	0.80200	-0.50156	0.31174	0.08914	31.0	13111	100
2025-3-27 18:23:3.887	WT901BLE68-01(48591DE3C19B)	-0.493	-1.473	0.467	-25.024	-23.193	-54.443	-75.24	-9.09	-33.27	-51.352	-20.286	75.362	0.80200	-0.50156	0.31174	0.08914	31.0	13111	100
2025-3-27 18:23:3.887	WT901BLE68-01(48591DE3C19B)	-0.532	-1.473	0.467	-25.024	-23.193	-54.443	-75.49	-9.49	-33.15	-51.352	-20.286	75.362	0.80200	-0.50156	0.31174	0.08914	31.0	13111	100
2025-3-27 18:23:3.915	WT901BLE68-01(48591DE3C19B)	-0.532	-1.489	0.500	-27.710	-5.554	-39.063	-75.75	-9.71	-33.17	-51.352	-20.286	75.362	0.80200	-0.50156	0.31174	0.08914	31.0	13111	100
2025-3-27 18:23:3.916	WT901BLE68-01(48591DE3C19B)	-0.596	-1.489	0.500	-27.710	-5.554	-39.063	-76.01	-9.92	-33.19	-51.352	-20.286	75.362	0.80200	-0.50156	0.31174	0.08914	31.0	13111	100
2025-3-27 18:23:3.916	WT901BLE68-01(48591DE3C19B)	-0.298	-1.455	0.512	-31.982	6.104	-27.649	-76.29	-9.99	-33.29	-51.352	-20.286	75.362	0.73517	-0.60910	0.11063	-0.27594	31.0	13111	100
2025-3-27 18:23:3.916	WT901BLE68-01(48591DE3C19B)	-0.632	-0.727	0.256	-31.982	6.104	-27.649	-76.57	-10.06	-33.39	-51.352	-20.286	75.362	0.73517	-0.60910	0.11063	-0.27594	31.0	13111	100
2025-3-27 18:23:3.976	WT901BLE68-01(48591DE3C19B)	-0.632	-1.435	0.503	-32.776	4.822	-15.686	-76.86	-10.02	-33.45	-51.352	-20.286	75.362	0.73517	-0.60910	0.11063	-0.27594	31.0	13111	100
2025-3-27 18:23:3.976	WT901BLE68-01(48591DE3C19B)	-0.630	-1.435	0.503	-32.776	4.822	-15.686	-77.15	-9.98	-33.51	-51.352	-20.286	75.362	0.73517	-0.60910	0.11063	-0.27594	31.0	13111	100
2025-3-27 18:23:3.976	WT901BLE68-01(48591DE3C19B)	-0.630	-1.307	0.459	-26.611	-6.348	-0.549	-77.40	-9.81	-33.43	-51.352	-20.286	75.362	0.73517	-0.60910	0.11063	-0.27594	31.0	13111	100
2025-3-27 18:23:3.976	WT901BLE68-01(48591DE3C19B)	-0.623	-1.307	0.459	-26.611	-6.348	-0.549	-77.65	-9.65	-33.34	-51.352	-20.286	75.362	0.73517	-0.60910	0.11063	-0.27594	31.0	13111	100
2025-3-27 18:23:4.7	WT901BLE68-01(48591DE3C19B)	-0.623	-1.124	0.402	-19.226	-23.376	19.165	-77.85	-9.32	-33.04	-51.352	-20.286	75.362	0.73517	-0.60910	0.11063	-0.27594	31.0	13111	100
2025-3-27 18:23:4.7	WT901BLE68-01(48591DE3C19B)	-0.604	-1.124	0.402	-19.226	-23.376	19.165	-78.06	-8.99	-32.73	-51.352	-20.286	75.362	0.73517	-0.60910	0.11063	-0.27594	31.0	13111	100
2025-3-27 18:23:4.7	WT901BLE68-01(48591DE3C19B)	-0.604	-0.934	0.341	-10.986	-45.715	41.260	-78.22	-8.49	-32.17	-51.352	-20.286	75.362	0.73517	-0.60910	0.11063	-0.27594	31.0	13111	100
2025-3-27 18:23:4.7	WT901BLE68-01(48591DE3C19B)	-0.569	-0.934	0.341	-10.986	-45.715	41.260	-78.38	-7.99	-31.60	-51.352	-20.286	75.362	0.73517	-0.60910	0.11063	-0.27594	31.0	13111	100
2025-3-27 18:23:4.71	WT901BLE68-01(48591DE3C19B)	-0.569	-0.796	0.268	-7.141	-69.397	63.843	-78.52	-7.31	-30.76	-51.352	-20.286	75.362	0.73517	-0.60910	0.11063	-0.27594	31.0	13111	100
2025-3-27 18:23:4.71	WT901BLE68-01(48591DE3C19B)	-0.529	-0.796	0.268	-7.141	-69.397	63.843	-78.66	-6.62	-29.92	-51.352	-20.286	75.362	0.73517	-0.60910	0.11063	-0.27594	31.0	13111	100
2025-3-27 18:23:4.71	WT901BLE68-01(48591DE3C19B)	-0.529	-0.792	0.203	-4.150	-89.722	85.266	-78.78	-5.77	-28.84	-51.352	-20.286	75.362	0.73517	-0.60910	0.11063	-0.27594	31.0	13111	100
2025-3-27 18:23:4.71	WT901BLE68-01(48591DE3C19B)	-0.489	-0.792	0.203	-4.150	-89.722	85.266	-78.89	-4.92	-27.77	-51.352	-20.286	75.362	0.73517	-0.60910	0.11063	-0.27594	31.0	13111	100
2025-3-27 18:23:4.98	WT901BLE68-01(48591DE3C19B)	-0.489	-0.893	0.167	2.258	-104.736	103.577	-78.94	-3.92	-26.52	-51.352	-20.286	75.362	0.73517	-0.60910	0.11063	-0.27594	31.0	13111	100
2025-3-27 18:23:4.98	WT901BLE68-01(48591DE3C19B)	-0.432	-0.893	0.167	2.258	-104.736	103.577	-78.96	-2.92	-25.27	-51.352	-20.286	75.362	0.73517	-0.60910	0.11063	-0.27594	31.0	13111	100
2025-3-27 18:23:4.98	WT901BLE68-01(48591DE3C19B)	-0.432	-0.976	0.147	14.404	-116.699	119.629	-78.84	-1.80	-23.88	-51.352	-20.286	75.362	0.73517	-0.60910	0.11063	-0.27594	31.0	13111	100
2025-3-27 18:23:4.99	WT901BLE68-01(48591DE3C19B)	-0.348	-0.976	0.147	14.404	-116.699	119.629	-78.71	-0.69	-22.51	-51.352	-20.286	75.362	0.73517	-0.60910	0.11063	-0.27594	31.0	13111	100
2025-3-27 18:23:4.128	WT901BLE68-01(48591DE3C19B)	-0.348	-0.975	0.145	26.245	-122.131	133.301	-78.43	0.52	-21.04	-51.352	-20.286	75.362	0.73517	-0.60910	0.11063	-0.27594	31.0	13111	100
2025-3-27 18:23:4.128	WT901BLE68-01(48591DE3C19B)	-0.258	-0.975	0.145	26.245	-122.131	133.301	-78.12	1.72	-19.59	-51.352	-20.286	75.362	0.73517	-0.60910	0.11063	-0.27594	31.0	13111	100
2025-3-27 18:23:4.128	WT901BLE68-01(48591DE3C19B)	-0.258	-0.953	0.133	35.400	-113.770	145.020	-77.70	3.03	-18.19	-46.354	-23.520	73.598	0.73517	-0.60910	0.11063	-0.27594	31.0	13111	100
2025-3-27 18:23:4.129	WT901BLE68-01(48591DE3C19B)	-0.203	-0.953	0.133	35.400	-113.770	145.020	-77.24	4.32	-16.79	-46.354	-23.520	73.598	0.73517	-0.60910	0.11063	-0.27594	31.0	13111	100
2025-3-27 18:23:4.186	WT901BLE68-01(48591DE3C19B)	-0.203	-0.947	0.130	41.931	-94.910	156.311	-76.71	5.73	-15.54	-46.354	-23.520	73.598	0.73517	-0.60910	0.11063	-0.27594	31.0	13111	100
2025-3-27 18:23:4.186	WT901BLE68-01(48591DE3C19B)	-0.167	-0.947	0.130	41.931	-94.910	156.311	-76.15	7.12	-14.29	-46.354	-23.520	73.598	0.73517	-0.60910	0.11063	-0.27594	31.0	13111	100
2025-3-27 18:23:4.186	WT901BLE68-01(48591DE3C19B)	-0.167	-0.948	0.129	47.668	-70.618	166.138	-75.53	8.64	-13.24	-46.354	-23.520	73.598	0.73517	-0.60910	0.11063	-0.27594	31.0	13111	100
2025-3-27 18:23:4.187	WT901BLE68-01(48591DE3C19B)	-0.145	-0.948	0.129	47.668	-70.618	166.138	-74.88	10.12	-12.18	-46.354	-23.520	73.598	0.73517	-0.60910	0.11063	-0.27594	31.0	13111	100
2025-3-27 18:23:4.215	WT901BLE68-01(48591DE3C19B)	-0.145	-0.919	0.118	51.819	-44.128	174.988	-74.21	11.74	-11.34	-46.354	-23.520	73.598	0.73517	-0.60910	0.11063	-0.27594	31.0	13111	100
2025-3-27 18:23:4.215	WT901BLE68-01(48591DE3C19B)	-0.150	-0.919	0.118	51.819	-44.128	174.988	-73.52	13.33	-10.49	-46.354	-23.520	73.598	0.73517	-0.60910	0.11063	-0.27594	31.0	13111	100
2025-3-27 18:23:4.215	WT901BLE68-01(48591DE3C19B)	-0.150	-0.870	0.094	52.917	-21.240	181.824	-72.84	15.03	-9.82	-46.354	-23.520	73.598	0.73517	-0.60910	0.11063	-0.27594	31.0	13111	100
2025-3-27 18:23:4.216	WT901BLE68-01(48591DE3C19B)	-0.173	-0.870	0.094	52.917	-21.240	181.824	-72.14	16.71	-9.13	-46.354	-23.520	73.598	0.73517	-0.60910	0.11063	-0.27594	31.0	13111	100
2025-3-27 18:23:4.246	WT901BLE68-01(48591DE3C19B)	-0.173	-0.845	0.081	51.880	-4.333	185.913	-71.48	18.46	-8.57	-46.354	-23.520	73.598	0.73517	-0.60910	0.11063	-0.27594	31.0	13111	100
2025-3-27 18:23:4.246	WT901BLE68-01(48591DE3C19B)	-0.189	-0.845	0.081	51.880	-4.333	185.913	-70.80	20.19	-8.00	-46.354	-23.520	73.598	0.73517	-0.60910	0.11063	-0.27594	31.0	13111	100
2025-3-27 18:23:4.247	WT901BLE68-01(48591DE3C19B)	-0.189	-0.862	0.066	49.744	7.446	188.416	-70.16	21.96	-7.51	-46.354	-23.520	73.598	0.73517	-0.60910	0.11063	-0.27594	31.0	13111	100
2025-3-27 18:23:4.247	WT901BLE68-01(48591DE3C19B)	-0.189	-0.862	0.066	49.744	7.446	188.416	-69.49	23.72	-7.00	-46.354	-23.520	73.598	0.73517	-0.60910	0.11063	-0.27594	31.0	13111	100
2025-3-27 18:23:4.309	WT901BLE68-01(48591DE3C19B)	-0.198	-0.906	0.019	47.302	16.663	189.453	-68.88	25.50	-6.56	-46.354	-23.520	73.598	0.73517	-0.60910	0.11063	-0.27594	31.0	13111	100
2025-3-27 18:23:4.309	WT901BLE68-01(48591DE3C19B)	-0.198	-0.952	-0.017	42.908	21.484	189.453	-68.27	27.28	-6.12	-46.354	-23.520	73.598	0.73517	-0.60910	0.11063	-0.27594	31.0	13111	100
2025-3-27 18:23:4.309	WT901BLE68-01(48591DE3C19B)	-0.233	-0.952	-0.017	42.908	21.484	189.453	-67.69	29.05	-5.68	-46.354	-23.520	73.598	0.73517	-0.60910	0.11063	-0.27594	31.0	13111	100
2025-3-27 18:23:4.309	WT901BLE68-01(48591DE3C19B)	-0.233	-1.062	-0.030	34.607	19.348	187.927	-67.12	30.79	-5.21	-46.354	-23.520	73.598	0.73517	-0.60910	0.11063	-0.27594	31.0	13111	100
2025-3-27 18:23:4.339	WT901BLE68-01(48591DE3C19B)	-0.258	-1.062	-0.030	34.607	19.348	187.927	-66.57	32.51	-4.71	-46.354	-23.520	73.598	0.73517	-0.60910	0.11063	-0.27594	31.0	13111	100
2025-3-27 18:23:4.339	WT901BLE68-01(48591DE3C19B)	-0.258	-1.299	-0.053	22.949	8.911	183.411	-66.03	34.17	-4.14	-46.354	-23.520	73.598	0.73517	-0.60910	0.11063	-0.27594	31.0	13111	100
2025-3-27 18:23:4.339	WT901BLE68-01(48591DE3C19B)	-0.207	-1.299	-0.053	22.949	8.911	183.411	-65.50	35.78	-3.50	-46.354	-23.520	73.598	0.73517	-0.60910	0.11063	-0.27594	31.0	13111	100
2025-3-27 18:23:4.339	WT901BLE68-01(48591DE3C19B)	-0.207	-1.615	-0.042	13.245	-1.038	171.814	-64.98	37.29	-2.82	-46.354	-23.520	73.598	0.80215	-0.50003	0.28586	0.15714	31.0	13111	100
2025-3-27 18:23:4.372	WT901BLE68-01(48591DE3C19B)	-0.066	-1.615	-0.042	13.245	-1.038	171.814	-64.46	38.72	-2.09	-46.354	-23.520	73.598	0.80215	-0.50003	0.28586	0.15714	31.0	13111	100
2025-3-27 18:23:4.372	WT901BLE68-01(48591DE3C19B)	-0.066	-2.020	-0.021	9.399	-5.920	143.250	-63.98	40.00	-1.39	-46.354	-23.520	73.598	0.80215	-0.50003	0.28586	0.15714	31.0	13111	100
2025-3-27 18:23:4.372	WT901BLE68-01(48591DE3C19B)	0.062	-2.020	-0.021	9.399	-5.920	143.250	-63.53	41.11	-0.74	-46.354	-23.520	73.598	0.80215	-0.50003	0.28586	0.15714	31.0	13111	100
2025-3-27 18:23:4.372	WT901BLE68-01(48591DE3C19B)	0.062	-2.134	-0.027	16.052	-3.113	105.713	-63.12	42.06	-0.20	-46.354	-23.520	73.598	0.80215	-0.50003	0.28586	0.15714	31.0	13111	100
2025-3-27 18:23:4.427	WT901BLE68-01(48591DE3C19B)	0.116	-2.134	-0.027	16.052	-3.113	105.713	-62.75	42.82	0.20	-46.354	-23.520	73.598	0.80215	-0.50003	0.28586	0.15714	31.0	13111	100
2025-3-27 18:23:4.427	WT901BLE68-01(48591DE3C19B)	0.116	-2.106	0.081	15.625	2.075	60.730	-62.50	43.39	0.44	-46.354	-23.520	73.598	0.80215	-0.50003	0.28586	0.15714	31.0	13111	100
2025-3-27 18:23:4.427	WT901BLE68-01(48591DE3C19B)	-0.011	-2.106	0.081	15.625	2.075	60.730	-62.37	43.76	0.49	-46.354	-23.520	73.598	0.80215	-0.50003	0.28586	0.15714	31.0	13111	100
2025-3-27 18:23:4.427	WT901BLE68-01(48591DE3C19B)	-0.011	-1.930	0.214	5.920	10.254	9.338	-62.45	43.92	0.33	-46.354	-23.520	73.598	0.80215	-0.50003	0.28586	0.15714	31.0	13111	100
2025-3-27 18:23:4.456	WT901BLE68-01(48591DE3C19B)	-0.189	-1.930	0.214	5.920	10.254	9.338	-62.72	43.87	-0.04	-46.354	-23.520	73.598	0.80215	-0.50003	0.28586	0.15714	31.0	13111	100
2025-3-27 18:23:4.456	WT901BLE68-01(48591DE3C19B)	-0.189	-1.643	0.300	-0.244	22.461	-33.936	-63.15	43.64	-0.63	-46.354	-23.520	73.598	0.80215	-0.50003	0.28586	0.15714	31.0	13111	100
2025-3-27 18:23:4.456	WT901BLE68-01(48591DE3C19B)	-0.159	-1.643	0.300	-0.244	22.461	-33.936	-63.74	43.25	-1.41	-46.354	-23.520	73.598	0.80215	-0.50003	0.28586	0.15714	31.0	13111	100
2025-3-27 18:23:4.456	WT901BLE68-01(48591DE3C19B)	-0.159	-1.417	0.254	-1.953	39.734	-75.134	-64.48	42.71	-2.40	-46.354	-23.520	73.598	0.80215	-0.50003	0.28586	0.15714	31.0	13111	100
2025-3-27 18:23:4.486	WT901BLE68-01(48591DE3C19B)	-0.120	-1.417	0.254	-1.953	39.734	-75.134	-65.34	42.02	-3.59	-46.354	-23.520	73.598	0.80215	-0.50003	0.28586	0.15714	31.0	13111	100
2025-3-27 18:23:4.486	WT901BLE68-01(48591DE3C19B)	-0.120	-1.245	0.203	-8.423	46.265	-106.934	-66.28	41.18	-4.86	-46.354	-23.520	73.598	0.80215	-0.50003	0.28586	0.15714	31.0	13111	100
2025-3-27 18:23:4.486	WT901BLE68-01(48591DE3C19B)	-0.151	-1.245	0.203	-8.423	46.265	-106.934	-67.29	40.19	-6.22	-46.354	-23.520	73.598	0.80215	-0.50003	0.28586	0.15714	31.0	13111	100
2025-3-27 18:23:4.486	WT901BLE68-01(48591DE3C19B)	-0.151	-1.077	0.233	-12.817	36.316	-129.578	-68.26	39.08	-7.51	-46.354	-23.520	73.598	0.80215	-0.50003	0.28586	0.15714	31.0	13111	100
2025-3-27 18:23:4.546	WT901BLE68-01(48591DE3C19B)	-0.214	-1.077	0.233	-12.817	36.316	-129.578	-69.19	37.83	-8.75	-46.354	-23.520	73.598	0.80215	-0.50003	0.28586	0.15714	31.0	13111	100
2025-3-27 18:23:4.546	WT901BLE68-01(48591DE3C19B)	-0.214	-0.930	0.283	-19.104	-0.793	-141.785	-69.97	36.45	-9.74	-46.354	-23.520	73.598	0.80215	-0.50003	0.28586	0.15714	31.0	13111	100
2025-3-27 18:23:4.546	WT901BLE68-01(48591DE3C19B)	-0.255	-0.930	0.283	-19.104	-0.793	-141.785	-70.63	34.95	-10.50	-46.354	-23.520	73.598	0.80215	-0.50003	0.28586	0.15714	31.0	13111	100
2025-3-27 18:23:4.547	WT901BLE68-01(48591DE3C19B)	-0.255	-0.810	0.327	-28.198	-48.889	-145.142	-71.14	33.37	-10.94	-46.354	-23.520	73.598	0.80215	-0.50003	0.28586	0.15714	31.0	13111	100
2025-3-27 18:23:4.575	WT901BLE68-01(48591DE3C19B)	-0.243	-0.810	0.327	-28.198	-48.889	-145.142	-71.52	31.70	-11.10	-43.806	-28.616	68.796	0.80215	-0.50003	0.28586	0.15714	31.0	13111	100
2025-3-27 18:23:4.575	WT901BLE68-01(48591DE3C19B)	-0.243	-0.782	0.315	-44.250	-93.750	-144.287	-71.83	29.97	-10.98	-43.806	-28.616	68.796	0.80215	-0.50003	0.28586	0.15714	31.0	13111	100
2025-3-27 18:23:4.575	WT901BLE68-01(48591DE3C19B)	-0.172	-0.782	0.315	-44.250	-93.750	-144.287	-72.10	28.20	-10.61	-43.806	-28.616	68.796	0.80215	-0.50003	0.28586	0.15714	31.0	13111	100
2025-3-27 18:23:4.575	WT901BLE68-01(48591DE3C19B)	-0.172	-0.842	0.281	-59.753	-115.723	-143.616	-72.39	26.40	-10.12	-43.806	-28.616	68.796	0.80215	-0.50003	0.28586	0.15714	31.0	13111	100
2025-3-27 18:23:4.607	WT901BLE68-01(48591DE3C19B)	-0.115	-0.842	0.281	-59.753	-115.723	-143.616	-72.72	24.59	-9.51	-43.806	-28.616	68.796	0.80215	-0.50003	0.28586	0.15714	31.0	13111	100
2025-3-27 18:23:4.607	WT901BLE68-01(48591DE3C19B)	-0.115	-0.941	0.250	-71.838	-112.854	-144.958	-73.13	22.80	-8.91	-43.806	-28.616	68.796	0.80215	-0.50003	0.28586	0.15714	31.0	13111	100
2025-3-27 18:23:4.607	WT901BLE68-01(48591DE3C19B)	-0.125	-0.941	0.250	-71.838	-112.854	-144.958	-73.62	21.02	-8.33	-43.806	-28.616	68.796	0.80215	-0.50003	0.28586	0.15714	31.0	13111	100
2025-3-27 18:23:4.607	WT901BLE68-01(48591DE3C19B)	-0.125	-1.034	0.268	-79.285	-98.083	-154.724	-74.19	19.22	-7.82	-43.806	-28.616	68.796	0.80215	-0.50003	0.28586	0.15714	31.0	13111	100
2025-3-27 18:23:4.672	WT901BLE68-01(48591DE3C19B)	-0.120	-1.034	0.268	-79.285	-98.083	-154.724	-74.83	17.41	-7.39	-43.806	-28.616	68.796	0.80215	-0.50003	0.28586	0.15714	31.0	13111	100
2025-3-27 18:23:4.672	WT901BLE68-01(48591DE3C19B)	-0.120	-1.127	0.327	-82.397	-75.928	-171.204	-75.53	15.57	-7.08	-43.806	-28.616	68.796	0.80215	-0.50003	0.28586	0.15714	31.0	13111	100
2025-3-27 18:23:4.672	WT901BLE68-01(48591DE3C19B)	-0.176	-1.127	0.327	-82.397	-75.928	-171.204	-76.28	13.69	-6.88	-43.806	-28.616	68.796	0.80215	-0.50003	0.28586	0.15714	31.0	13111	100
2025-3-27 18:23:4.672	WT901BLE68-01(48591DE3C19B)	-0.176	-1.186	0.375	-77.393	-52.917	-183.594	-77.04	11.78	-6.78	-43.806	-28.616	68.796	0.80215	-0.50003	0.28586	0.15714	31.0	13111	100
2025-3-27 18:23:4.697	WT901BLE68-01(48591DE3C19B)	-0.243	-1.186	0.375	-77.393	-52.917	-183.594	-77.78	9.86	-6.79	-43.806	-28.616	68.796	0.80215	-0.50003	0.28586	0.15714	31.0	13111	100
2025-3-27 18:23:4.698	WT901BLE68-01(48591DE3C19B)	-0.243	-1.140	0.400	-65.613	-43.213	-191.223	-78.46	7.92	-6.83	-43.806	-28.616	68.796	0.80215	-0.50003	0.28586	0.15714	31.0	13111	100
2025-3-27 18:23:4.698	WT901BLE68-01(48591DE3C19B)	-0.201	-1.140	0.400	-65.613	-43.213	-191.223	-79.09	5.97	-6.89	-43.806	-28.616	68.796	0.80215	-0.50003	0.28586	0.15714	31.0	13111	100
2025-3-27 18:23:4.698	WT901BLE68-01(48591DE3C19B)	-0.201	-1.025	0.384	-59.204	-29.480	-191.101	-79.68	4.04	-7.01	-43.806	-28.616	68.796	0.80215	-0.50003	0.28586	0.15714	31.0	13111	100
2025-3-27 18:23:4.726	WT901BLE68-01(48591DE3C19B)	-0.191	-1.025	0.384	-59.204	-29.480	-191.101	-80.23	2.14	-7.16	-43.806	-28.616	68.796	0.80215	-0.50003	0.28586	0.15714	31.0	13111	100
2025-3-27 18:23:4.726	WT901BLE68-01(48591DE3C19B)	-0.191	-0.979	0.299	-53.711	9.033	-183.472	-80.75	0.31	-7.49	-43.806	-28.616	68.796	0.80215	-0.50003	0.28586	0.15714	31.0	13111	100
2025-3-27 18:23:4.726	WT901BLE68-01(48591DE3C19B)	-0.267	-0.979	0.299	-53.711	9.033	-183.472	-81.23	-1.43	-7.97	-43.806	-28.616	68.796	0.75470	-0.65176	0.03152	-0.06726	31.0	13111	100
2025-3-27 18:23:4.726	WT901BLE68-01(48591DE3C19B)	-0.267	-0.848	0.207	-42.847	42.786	-175.171	-81.63	-3.10	-8.60	-43.806	-28.616	68.796	0.75470	-0.65176	0.03152	-0.06726	31.0	13111	100
2025-3-27 18:23:4.786	WT901BLE68-01(48591DE3C19B)	-0.313	-0.848	0.207	-42.847	42.786	-175.171	-81.95	-4.69	-9.37	-43.806	-28.616	68.796	0.75470	-0.65176	0.03152	-0.06726	31.0	13111	100
2025-3-27 18:23:4.786	WT901BLE68-01(48591DE3C19B)	-0.313	-0.644	0.190	-42.175	59.875	-166.321	-82.23	-6.16	-10.28	-43.806	-28.616	68.796	0.75470	-0.65176	0.03152	-0.06726	31.0	13111	100
2025-3-27 18:23:4.787	WT901BLE68-01(48591DE3C19B)	-0.351	-0.644	0.190	-42.175	59.875	-166.321	-82.50	-7.62	-11.18	-43.806	-28.616	68.796	0.75470	-0.65176	0.03152	-0.06726	31.0	13111	100
2025-3-27 18:23:4.787	WT901BLE68-01(48591DE3C19B)	-0.351	-0.577	0.238	-48.706	66.284	-153.931	-82.79	-8.94	-12.12	-43.806	-28.616	68.796	0.75470	-0.65176	0.03152	-0.06726	31.0	13111	100
2025-3-27 18:23:4.815	WT901BLE68-01(48591DE3C19B)	-0.353	-0.577	0.238	-48.706	66.284	-153.931	-83.06	-10.25	-13.05	-43.806	-28.616	68.796	0.75470	-0.65176	0.03152	-0.06726	31.0	13111	100
2025-3-27 18:23:4.815	WT901BLE68-01(48591DE3C19B)	-0.353	-0.621	0.303	-50.537	69.885	-137.207	-83.33	-11.38	-13.97	-43.806	-28.616	68.796	0.75470	-0.65176	0.03152	-0.06726	31.0	13111	100
2025-3-27 18:23:4.816	WT901BLE68-01(48591DE3C19B)	-0.373	-0.621	0.303	-50.537	69.885	-137.207	-83.57	-12.50	-14.90	-43.806	-28.616	68.796	0.75470	-0.65176	0.03152	-0.06726	31.0	13111	100
2025-3-27 18:23:4.816	WT901BLE68-01(48591DE3C19B)	-0.373	-0.646	0.416	-43.091	77.454	-115.479	-83.71	-13.39	-15.86	-43.806	-28.616	68.796	0.75470	-0.65176	0.03152	-0.06726	31.0	13111	100
2025-3-27 18:23:4.876	WT901BLE68-01(48591DE3C19B)	-0.457	-0.646	0.416	-43.091	77.454	-115.479	-83.83	-14.27	-16.83	-43.806	-28.616	68.796	0.75470	-0.65176	0.03152	-0.06726	31.0	13111	100
2025-3-27 18:23:4.876	WT901BLE68-01(48591DE3C19B)	-0.457	-0.615	0.510	-31.616	78.186	-94.971	-83.81	-14.92	-17.77	-43.806	-28.616	68.796	0.75470	-0.65176	0.03152	-0.06726	31.0	13111	100
2025-3-27 18:23:4.876	WT901BLE68-01(48591DE3C19B)	-0.474	-0.615	0.510	-31.616	78.186	-94.971	-83.78	-15.58	-18.71	-43.806	-28.616	68.796	0.75470	-0.65176	0.03152	-0.06726	31.0	13111	100
2025-3-27 18:23:4.876	WT901BLE68-01(48591DE3C19B)	-0.474	-0.632	0.512	-25.269	72.083	-78.125	-83.70	-16.06	-19.57	-43.806	-28.616	68.796	0.75470	-0.65176	0.03152	-0.06726	31.0	13111	100
2025-3-27 18:23:4.908	WT901BLE68-01(48591DE3C19B)	-0.473	-0.632	0.512	-25.269	72.083	-78.125	-83.60	-16.52	-20.42	-43.806	-28.616	68.796	0.75470	-0.65176	0.03152	-0.06726	31.0	13111	100
2025-3-27 18:23:4.908	WT901BLE68-01(48591DE3C19B)	-0.473	-0.718	0.459	-18.738	71.777	-66.162	-83.43	-16.86	-21.25	-43.806	-28.616	68.796	0.75470	-0.65176	0.03152	-0.06726	31.0	13111	100
2025-3-27 18:23:4.908	WT901BLE68-01(48591DE3C19B)	-0.571	-0.718	0.459	-18.738	71.777	-66.162	-83.26	-17.20	-22.08	-43.806	-28.616	68.796	0.75470	-0.65176	0.03152	-0.06726	31.0	13111	100
2025-3-27 18:23:4.908	WT901BLE68-01(48591DE3C19B)	-0.571	-0.899	0.407	-17.456	70.618	-55.603	-83.08	-17.42	-22.88	-43.806	-28.616	68.796	0.75470	-0.65176	0.03152	-0.06726	31.0	13111	100
2025-3-27 18:23:4.966	WT901BLE68-01(48591DE3C19B)	-0.708	-0.899	0.407	-17.456	70.618	-55.603	-82.91	-17.63	-23.68	-43.806	-28.616	68.796	0.75470	-0.65176	0.03152	-0.06726	31.0	13111	100
2025-3-27 18:23:4.966	WT901BLE68-01(48591DE3C19B)	-0.708	-1.174	0.440	-19.043	58.716	-44.983	-82.80	-17.74	-24.33	-43.806	-28.616	68.796	0.75470	-0.65176	0.03152	-0.06726	31.0	13111	100
2025-3-27 18:23:4.966	WT901BLE68-01(48591DE3C19B)	-0.777	-1.174	0.440	-19.043	58.716	-44.983	-82.69	-17.85	-24.97	-43.806	-28.616	68.796	0.75470	-0.65176	0.03152	-0.06726	31.0	13111	100
2025-3-27 18:23:4.966	WT901BLE68-01(48591DE3C19B)	-0.777	-1.393	0.563	-13.794	43.457	-31.616	-82.60	-17.84	-25.44	-43.904	-23.520	77.224	0.75470	-0.65176	0.03152	-0.06726	31.0	13111	100
2025-3-27 18:23:4.996	WT901BLE68-01(48591DE3C19B)	-0.780	-1.393	0.563	-13.794	43.457	-31.616	-82.50	-17.83	-25.91	-43.904	-23.520	77.224	0.75470	-0.65176	0.03152	-0.06726	31.0	13111	100
2025-3-27 18:23:4.996	WT901BLE68-01(48591DE3C19B)	-0.780	-1.596	0.648	-16.541	32.104	-8.484	-82.48	-17.61	-26.22	-43.904	-23.520	77.224	0.75470	-0.65176	0.03152	-0.06726	31.0	13111	100
2025-3-27 18:23:4.996	WT901BLE68-01(48591DE3C19B)	-0.734	-1.596	0.648	-16.541	32.104	-8.484	-82.46	-17.39	-26.54	-43.904	-23.520	77.224	0.75470	-0.65176	0.03152	-0.06726	31.0	13111	100
2025-3-27 18:23:4.996	WT901BLE68-01(48591DE3C19B)	-0.734	-1.717	0.657	-7.263	24.353	18.433	-82.39	-16.92	-26.74	-43.904	-23.520	77.224	0.75470	-0.65176	0.03152	-0.06726	31.0	13111	100
2025-3-27 18:23:5.25	WT901BLE68-01(48591DE3C19B)	-0.666	-1.717	0.657	-7.263	24.353	18.433	-82.33	-16.46	-26.94	-43.904	-23.520	77.224	0.75470	-0.65176	0.03152	-0.06726	31.0	13111	100
2025-3-27 18:23:5.25	WT901BLE68-01(48591DE3C19B)	-0.666	-1.467	0.629	7.019	20.691	52.917	-82.14	-15.66	-27.06	-43.904	-23.520	77.224	0.75470	-0.65176	0.03152	-0.06726	31.0	13111	100
2025-3-27 18:23:5.25	WT901BLE68-01(48591DE3C19B)	-0.622	-1.467	0.629	7.019	20.691	52.917	-81.96	-14.87	-27.17	-43.904	-23.520	77.224	0.75470	-0.65176	0.03152	-0.06726	31.0	13111	100
2025-3-27 18:23:5.25	WT901BLE68-01(48591DE3C19B)	-0.622	-1.125	0.510	8.057	8.728	88.501	-81.82	-13.75	-27.11	-43.904	-23.520	77.224	0.75470	-0.65176	0.03152	-0.06726	31.0	13111	100
2025-3-27 18:23:5.56	WT901BLE68-01(48591DE3C19B)	-0.630	-1.125	0.510	8.057	8.728	88.501	-81.67	-12.63	-27.05	-43.904	-23.520	77.224	0.75470	-0.65176	0.03152	-0.06726	31.0	13111	100
2025-3-27 18:23:5.56	WT901BLE68-01(48591DE3C19B)	-0.630	-0.922	0.395	5.981	-21.973	121.094	-81.62	-11.25	-26.62	-43.904	-23.520	77.224	0.75470	-0.65176	0.03152	-0.06726	31.0	13111	100
2025-3-27 18:23:5.56	WT901BLE68-01(48591DE3C19B)	-0.647	-0.922	0.395	5.981	-21.973	121.094	-81.56	-9.87	-26.19	-43.904	-23.520	77.224	0.75470	-0.65176	0.03152	-0.06726	31.0	13111	100
2025-3-27 18:23:5.56	WT901BLE68-01(48591DE3C19B)	-0.647	-0.807	0.345	4.211	-70.190	151.794	-81.60	-8.25	-25.24	-43.904	-23.520	77.224	0.75470	-0.65176	0.03152	-0.06726	31.0	13111	100
2025-3-27 18:23:5.86	WT901BLE68-01(48591DE3C19B)	-0.543	-0.807	0.345	4.211	-70.190	151.794	-81.60	-6.64	-24.29	-43.904	-23.520	77.224	0.75470	-0.65176	0.03152	-0.06726	31.0	13111	100
2025-3-27 18:23:5.86	WT901BLE68-01(48591DE3C19B)	-0.543	-0.864	0.257	4.700	-112.061	179.626	-81.62	-4.83	-22.88	-43.904	-23.520	77.224	0.75470	-0.65176	0.03152	-0.06726	31.0	13111	100
2025-3-27 18:23:5.86	WT901BLE68-01(48591DE3C19B)	-0.443	-0.864	0.257	4.700	-112.061	179.626	-81.60	-3.03	-21.49	-43.904	-23.520	77.224	0.75470	-0.65176	0.03152	-0.06726	31.0	13111	100
2025-3-27 18:23:5.87	WT901BLE68-01(48591DE3C19B)	-0.443	-1.032	0.213	17.212	-137.207	201.477	-81.42	-1.05	-19.82	-43.904	-23.520	77.224	0.75470	-0.65176	0.03152	-0.06726	31.0	13111	100
2025-3-27 18:23:5.176	WT901BLE68-01(48591DE3C19B)	-0.454	-1.032	0.213	17.212	-137.207	201.477	-81.19	0.88	-18.15	-43.904	-23.520	77.224	0.75470	-0.65176	0.03152	-0.06726	31.0	13111	100
2025-3-27 18:23:5.176	WT901BLE68-01(48591DE3C19B)	-0.454	-1.124	0.194	36.438	-160.522	214.233	-80.70	2.89	-16.24	-43.904	-23.520	77.224	0.75470	-0.65176	0.03152	-0.06726	31.0	13111	100
2025-3-27 18:23:5.176	WT901BLE68-01(48591DE3C19B)	-0.404	-1.124	0.194	36.438	-160.522	214.233	-80.16	4.87	-14.30	-43.904	-23.520	77.224	0.75470	-0.65176	0.03152	-0.06726	31.0	13111	100
2025-3-27 18:23:5.176	WT901BLE68-01(48591DE3C19B)	-0.404	-1.183	0.179	53.284	-180.603	214.844	-79.36	6.78	-12.16	-43.904	-23.520	77.224	0.75470	-0.65176	0.03152	-0.06726	31.0	13111	100
2025-3-27 18:23:5.178	WT901BLE68-01(48591DE3C19B)	-0.314	-1.183	0.179	53.284	-180.603	214.844	-78.49	8.64	-9.99	-43.904	-23.520	77.224	0.77341	-0.62335	0.11310	-0.01974	31.0	13111	100
2025-3-27 18:23:5.178	WT901BLE68-01(48591DE3C19B)	-0.314	-1.294	0.154	70.007	-181.641	211.487	-77.39	10.42	-7.79	-43.904	-23.520	77.224	0.77341	-0.62335	0.11310	-0.01974	31.0	13111	100
2025-3-27 18:23:5.178	WT901BLE68-01(48591DE3C19B)	-0.272	-1.294	0.154	70.007	-181.641	211.487	-76.23	12.13	-5.57	-43.904	-23.520	77.224	0.77341	-0.62335	0.11310	-0.01974	31.0	13111	100
2025-3-27 18:23:5.178	WT901BLE68-01(48591DE3C19B)	-0.272	-1.510	0.117	82.153	-169.495	204.041	-74.92	13.73	-3.45	-43.904	-23.520	77.224	0.77341	-0.62335	0.11310	-0.01974	31.0	13111	100
2025-3-27 18:23:5.209	WT901BLE68-01(48591DE3C19B)	-0.214	-1.510	0.117	82.153	-169.495	204.041	-73.55	15.27	-1.29	-43.904	-23.520	77.224	0.77341	-0.62335	0.11310	-0.01974	31.0	13111	100
2025-3-27 18:23:5.209	WT901BLE68-01(48591DE3C19B)	-0.160	-1.856	0.017	93.994	-154.358	192.200	-72.06	16.67	0.70	-43.904	-23.520	77.224	0.77341	-0.62335	0.11310	-0.01974	31.0	13111	100
2025-3-27 18:23:5.209	WT901BLE68-01(48591DE3C19B)	-0.160	-1.905	-0.022	122.803	-125.793	177.979	-70.43	17.98	2.58	-43.904	-23.520	77.224	0.77341	-0.62335	0.11310	-0.01974	31.0	13111	100
2025-3-27 18:23:5.209	WT901BLE68-01(48591DE3C19B)	-0.117	-1.905	-0.022	122.803	-125.793	177.979	-68.68	19.21	4.31	-43.904	-23.520	77.224	0.77341	-0.62335	0.11310	-0.01974	31.0	13111	100
2025-3-27 18:23:5.271	WT901BLE68-01(48591DE3C19B)	-0.117	-1.458	0.042	134.155	-83.740	165.710	-66.91	20.39	5.86	-43.904	-23.520	77.224	0.77341	-0.62335	0.11310	-0.01974	31.0	13111	100
2025-3-27 18:23:5.272	WT901BLE68-01(48591DE3C19B)	-0.111	-1.458	0.042	134.155	-83.740	165.710	-65.14	21.55	7.21	-43.904	-23.520	77.224	0.77341	-0.62335	0.11310	-0.01974	31.0	13111	100
2025-3-27 18:23:5.272	WT901BLE68-01(48591DE3C19B)	-0.111	-1.163	0.063	125.854	-37.231	162.109	-63.46	22.74	8.36	-43.904	-23.520	77.224	0.77341	-0.62335	0.11310	-0.01974	31.0	13111	100
2025-3-27 18:23:5.272	WT901BLE68-01(48591DE3C19B)	-0.105	-1.163	0.063	125.854	-37.231	162.109	-61.89	23.98	9.31	-43.904	-23.520	77.224	0.77341	-0.62335	0.11310	-0.01974	31.0	13111	100
2025-3-27 18:23:5.297	WT901BLE68-01(48591DE3C19B)	-0.105	-0.962	0.065	118.042	10.132	165.710	-60.42	25.31	10.09	-43.904	-23.520	77.224	0.77341	-0.62335	0.11310	-0.01974	31.0	13111	100
2025-3-27 18:23:5.297	WT901BLE68-01(48591DE3C19B)	-0.155	-0.962	0.065	118.042	10.132	165.710	-59.06	26.75	10.68	-43.904	-23.520	77.224	0.77341	-0.62335	0.11310	-0.01974	31.0	13111	100
2025-3-27 18:23:5.297	WT901BLE68-01(48591DE3C19B)	-0.155	-0.878	0.053	104.980	41.809	171.753	-57.79	28.28	11.18	-43.904	-23.520	77.224	0.77341	-0.62335	0.11310	-0.01974	31.0	13111	100
2025-3-27 18:23:5.297	WT901BLE68-01(48591DE3C19B)	-0.157	-0.878	0.053	104.980	41.809	171.753	-56.63	29.89	11.59	-43.904	-23.520	77.224	0.77341	-0.62335	0.11310	-0.01974	31.0	13111	100
2025-3-27 18:23:5.328	WT901BLE68-01(48591DE3C19B)	-0.157	-0.958	0.026	88.135	52.856	174.194	-55.55	31.54	11.99	-43.904	-23.520	77.224	0.77341	-0.62335	0.11310	-0.01974	31.0	13111	100
2025-3-27 18:23:5.328	WT901BLE68-01(48591DE3C19B)	-0.105	-0.958	0.026	88.135	52.856	174.194	-54.55	33.20	12.38	-43.904	-23.520	77.224	0.77341	-0.62335	0.11310	-0.01974	31.0	13111	100
2025-3-27 18:23:5.329	WT901BLE68-01(48591DE3C19B)	-0.105	-1.156	-0.049	71.289	49.988	170.532	-53.60	34.82	12.80	-43.904	-23.520	77.224	0.77341	-0.62335	0.11310	-0.01974	31.0	13111	100
2025-3-27 18:23:5.329	WT901BLE68-01(48591DE3C19B)	-0.119	-1.156	-0.049	71.289	49.988	170.532	-52.71	36.41	13.26	-43.904	-23.520	77.224	0.77341	-0.62335	0.11310	-0.01974	31.0	13111	100
2025-3-27 18:23:5.386	WT901BLE68-01(48591DE3C19B)	-0.119	-1.460	-0.111	52.368	45.227	160.095	-51.90	37.92	13.73	-43.904	-23.520	77.224	0.77341	-0.62335	0.11310	-0.01974	31.0	13111	100
2025-3-27 18:23:5.387	WT901BLE68-01(48591DE3C19B)	-0.098	-1.460	-0.111	52.368	45.227	160.095	-51.19	39.37	14.22	-38.906	-34.104	63.994	0.77341	-0.62335	0.11310	-0.01974	31.0	13111	100
2025-3-27 18:23:5.387	WT901BLE68-01(48591DE3C19B)	-0.098	-1.841	-0.221	37.476	18.250	134.216	-50.49	40.62	14.75	-38.906	-34.104	63.994	0.77341	-0.62335	0.11310	-0.01974	31.0	13111	100
2025-3-27 18:23:5.387	WT901BLE68-01(48591DE3C19B)	0.054	-1.841	-0.221	37.476	18.250	134.216	-49.84	41.67	15.34	-38.906	-34.104	63.994	0.77341	-0.62335	0.11310	-0.01974	31.0	13111	100
2025-3-27 18:23:5.415	WT901BLE68-01(48591DE3C19B)	0.054	-2.124	-0.264	30.884	-9.094	98.389	-49.23	42.48	15.91	-38.906	-34.104	63.994	0.77341	-0.62335	0.11310	-0.01974	31.0	13111	100
2025-3-27 18:23:5.416	WT901BLE68-01(48591DE3C19B)	0.179	-2.124	-0.264	30.884	-9.094	98.389	-48.66	43.07	16.48	-38.906	-34.104	63.994	0.77341	-0.62335	0.11310	-0.01974	31.0	13111	100
2025-3-27 18:23:5.416	WT901BLE68-01(48591DE3C19B)	0.179	-2.084	-0.227	28.442	0.427	60.669	-48.25	43.53	16.83	-38.906	-34.104	63.994	0.77341	-0.62335	0.11310	-0.01974	31.0	13111	100
2025-3-27 18:23:5.416	WT901BLE68-01(48591DE3C19B)	0.145	-2.084	-0.227	28.442	0.427	60.669	-48.00	43.87	16.94	-38.906	-34.104	63.994	0.77341	-0.62335	0.11310	-0.01974	31.0	13111	100
2025-3-27 18:23:5.476	WT901BLE68-01(48591DE3C19B)	0.145	-1.878	-0.116	15.564	46.082	23.132	-48.12	44.23	16.64	-38.906	-34.104	63.994	0.77341	-0.62335	0.11310	-0.01974	31.0	13111	100
2025-3-27 18:23:5.476	WT901BLE68-01(48591DE3C19B)	0.042	-1.878	-0.116	15.564	46.082	23.132	-48.59	44.59	15.92	-38.906	-34.104	63.994	0.77341	-0.62335	0.11310	-0.01974	31.0	13111	100
2025-3-27 18:23:5.476	WT901BLE68-01(48591DE3C19B)	0.042	-1.645	0.017	1.953	90.210	-13.550	-49.43	44.96	14.79	-38.906	-34.104	63.994	0.77341	-0.62335	0.11310	-0.01974	31.0	13111	100
2025-3-27 18:23:5.476	WT901BLE68-01(48591DE3C19B)	-0.057	-1.645	0.017	1.953	90.210	-13.550	-50.63	45.30	13.24	-38.906	-34.104	63.994	0.77341	-0.62335	0.11310	-0.01974	31.0	13111	100
2025-3-27 18:23:5.508	WT901BLE68-01(48591DE3C19B)	-0.057	-1.458	0.099	-14.587	101.929	-51.208	-52.08	45.49	11.45	-38.906	-34.104	63.994	0.77341	-0.62335	0.11310	-0.01974	31.0	13111	100
2025-3-27 18:23:5.509	WT901BLE68-01(48591DE3C19B)	-0.107	-1.458	0.099	-14.587	101.929	-51.208	-53.77	45.55	9.43	-38.906	-34.104	63.994	0.77341	-0.62335	0.11310	-0.01974	31.0	13111	100
2025-3-27 18:23:5.509	WT901BLE68-01(48591DE3C19B)	-0.107	-1.315	0.232	-25.757	81.665	-87.708	-55.53	45.35	7.39	-38.906	-34.104	63.994	0.77341	-0.62335	0.11310	-0.01974	31.0	13111	100
2025-3-27 18:23:5.509	WT901BLE68-01(48591DE3C19B)	-0.139	-1.315	0.232	-25.757	81.665	-87.708	-57.32	44.90	5.35	-38.906	-34.104	63.994	0.77341	-0.62335	0.11310	-0.01974	31.0	13111	100
2025-3-27 18:23:5.538	WT901BLE68-01(48591DE3C19B)	-0.139	-1.160	0.334	-29.480	49.988	-118.652	-59.02	44.19	3.45	-38.906	-34.104	63.994	0.77341	-0.62335	0.11310	-0.01974	31.0	13111	100
2025-3-27 18:23:5.538	WT901BLE68-01(48591DE3C19B)	-0.086	-1.160	0.334	-29.480	49.988	-118.652	-60.60	43.24	1.69	-38.906	-34.104	63.994	0.77341	-0.62335	0.11310	-0.01974	31.0	13111	100
2025-3-27 18:23:5.539	WT901BLE68-01(48591DE3C19B)	-0.086	-1.001	0.342	-34.363	27.954	-140.076	-62.08	42.11	0.07	-38.906	-34.104	63.994	0.79938	-0.48532	0.30505	0.17969	31.0	13111	100
2025-3-27 18:23:5.539	WT901BLE68-01(48591DE3C19B)	-0.067	-1.001	0.342	-34.363	27.954	-140.076	-63.45	40.81	-1.40	-38.906	-34.104	63.994	0.79938	-0.48532	0.30505	0.17969	31.0	13111	100
2025-3-27 18:23:5.596	WT901BLE68-01(48591DE3C19B)	-0.067	-0.898	0.266	-41.626	19.226	-159.302	-64.78	39.39	-2.80	-38.906	-34.104	63.994	0.79938	-0.48532	0.30505	0.17969	31.0	13111	100
2025-3-27 18:23:5.597	WT901BLE68-01(48591DE3C19B)	-0.079	-0.898	0.266	-41.626	19.226	-159.302	-66.07	37.85	-4.12	-38.906	-34.104	63.994	0.79938	-0.48532	0.30505	0.17969	31.0	13111	100
2025-3-27 18:23:5.597	WT901BLE68-01(48591DE3C19B)	-0.079	-0.876	0.208	-47.607	15.869	-182.983	-67.32	36.18	-5.40	-38.906	-34.104	63.994	0.79938	-0.48532	0.30505	0.17969	31.0	13111	100
2025-3-27 18:23:5.597	WT901BLE68-01(48591DE3C19B)	-0.075	-0.876	0.208	-47.607	15.869	-182.983	-68.54	34.38	-6.64	-38.906	-34.104	63.994	0.79938	-0.48532	0.30505	0.17969	31.0	13111	100
2025-3-27 18:23:5.625	WT901BLE68-01(48591DE3C19B)	-0.075	-0.920	0.211	-49.133	27.710	-207.947	-69.75	32.48	-7.91	-38.906	-34.104	63.994	0.79938	-0.48532	0.30505	0.17969	31.0	13111	100
2025-3-27 18:23:5.625	WT901BLE68-01(48591DE3C19B)	-0.104	-0.920	0.211	-49.133	27.710	-207.947	-70.94	30.47	-9.22	-38.906	-34.104	63.994	0.79938	-0.48532	0.30505	0.17969	31.0	13111	100
2025-3-27 18:23:5.625	WT901BLE68-01(48591DE3C19B)	-0.104	-0.967	0.279	-45.898	52.551	-230.469	-72.13	28.37	-10.61	-38.906	-34.104	63.994	0.79938	-0.48532	0.30505	0.17969	31.0	13111	100
2025-3-27 18:23:5.625	WT901BLE68-01(48591DE3C19B)	-0.187	-0.967	0.279	-45.898	52.551	-230.469	-73.28	26.20	-12.10	-38.906	-34.104	63.994	0.79938	-0.48532	0.30505	0.17969	31.0	13111	100
2025-3-27 18:23:5.655	WT901BLE68-01(48591DE3C19B)	-0.187	-1.047	0.350	-40.710	82.397	-246.216	-74.39	23.98	-13.68	-38.906	-34.104	63.994	0.79938	-0.48532	0.30505	0.17969	31.0	13111	100
2025-3-27 18:23:5.656	WT901BLE68-01(48591DE3C19B)	-0.320	-1.047	0.350	-40.710	82.397	-246.216	-75.44	21.72	-15.35	-38.906	-34.104	63.994	0.79938	-0.48532	0.30505	0.17969	31.0	13111	100
2025-3-27 18:23:5.656	WT901BLE68-01(48591DE3C19B)	-0.320	-1.128	0.384	-30.212	108.887	-256.714	-76.40	19.43	-17.10	-38.906	-34.104	63.994	0.79938	-0.48532	0.30505	0.17969	31.0	13111	100
2025-3-27 18:23:5.656	WT901BLE68-01(48591DE3C19B)	-0.462	-1.128	0.384	-30.212	108.887	-256.714	-77.27	17.11	-18.92	-38.906	-34.104	63.994	0.79938	-0.48532	0.30505	0.17969	31.0	13111	100
2025-3-27 18:23:5.727	WT901BLE68-01(48591DE3C19B)	-0.462	-1.161	0.389	-18.738	120.728	-260.620	-77.95	14.77	-20.79	-38.906	-34.104	63.994	0.79938	-0.48532	0.30505	0.17969	31.0	13111	100
2025-3-27 18:23:5.727	WT901BLE68-01(48591DE3C19B)	-0.497	-1.161	0.389	-18.738	120.728	-260.620	-78.55	12.44	-22.61	-38.906	-34.104	63.994	0.79938	-0.48532	0.30505	0.17969	31.0	13111	100
2025-3-27 18:23:5.727	WT901BLE68-01(48591DE3C19B)	-0.497	-1.098	0.357	-7.324	119.751	-255.127	-78.94	10.17	-24.35	-38.906	-34.104	63.994	0.79938	-0.48532	0.30505	0.17969	31.0	13111	100
2025-3-27 18:23:5.727	WT901BLE68-01(48591DE3C19B)	-0.491	-1.098	0.357	-7.324	119.751	-255.127	-79.26	7.91	-26.05	-38.906	-34.104	63.994	0.79938	-0.48532	0.30505	0.17969	31.0	13111	100
2025-3-27 18:23:5.747	WT901BLE68-01(48591DE3C19B)	-0.491	-1.009	0.302	0.305	117.004	-244.934	-79.42	5.76	-27.68	-38.906	-34.104	63.994	0.79938	-0.48532	0.30505	0.17969	31.0	13111	100
2025-3-27 18:23:5.747	WT901BLE68-01(48591DE3C19B)	-0.516	-1.009	0.302	0.305	117.004	-244.934	-79.52	3.63	-29.28	-38.906	-34.104	63.994	0.79938	-0.48532	0.30505	0.17969	31.0	13111	100
2025-3-27 18:23:5.747	WT901BLE68-01(48591DE3C19B)	-0.516	-0.933	0.221	5.066	107.727	-232.117	-79.51	1.62	-30.75	-38.906	-34.104	63.994	0.79938	-0.48532	0.30505	0.17969	31.0	13111	100
2025-3-27 18:23:5.748	WT901BLE68-01(48591DE3C19B)	-0.549	-0.933	0.221	5.066	107.727	-232.117	-79.46	-0.36	-32.20	-48.804	-32.536	74.480	0.79938	-0.48532	0.30505	0.17969	31.0	13111	100
2025-3-27 18:23:5.776	WT901BLE68-01(48591DE3C19B)	-0.549	-0.856	0.170	6.592	86.426	-217.651	-79.35	-2.22	-33.41	-48.804	-32.536	74.480	0.79938	-0.48532	0.30505	0.17969	31.0	13111	100
2025-3-27 18:23:5.776	WT901BLE68-01(48591DE3C19B)	-0.612	-0.856	0.170	6.592	86.426	-217.651	-79.21	-4.06	-34.62	-48.804	-32.536	74.480	0.79938	-0.48532	0.30505	0.17969	31.0	13111	100
2025-3-27 18:23:5.776	WT901BLE68-01(48591DE3C19B)	-0.612	-0.806	0.211	5.066	52.979	-201.721	-79.07	-5.79	-35.46	-48.804	-32.536	74.480	0.79938	-0.48532	0.30505	0.17969	31.0	13111	100
2025-3-27 18:23:5.776	WT901BLE68-01(48591DE3C19B)	-0.695	-0.806	0.211	5.066	52.979	-201.721	-78.92	-7.50	-36.30	-48.804	-32.536	74.480	0.79938	-0.48532	0.30505	0.17969	31.0	13111	100
2025-3-27 18:23:5.837	WT901BLE68-01(48591DE3C19B)	-0.695	-0.830	0.278	0.183	15.503	-184.143	-78.85	-9.08	-36.73	-48.804	-32.536	74.480	0.79938	-0.48532	0.30505	0.17969	31.0	13111	100
2025-3-27 18:23:5.837	WT901BLE68-01(48591DE3C19B)	-0.742	-0.830	0.278	0.183	15.503	-184.143	-78.77	-10.65	-37.16	-48.804	-32.536	74.480	0.79938	-0.48532	0.30505	0.17969	31.0	13111	100
2025-3-27 18:23:5.837	WT901BLE68-01(48591DE3C19B)	-0.742	-0.923	0.325	-5.005	-17.822	-165.405	-78.80	-12.08	-37.21	-48.804	-32.536	74.480	0.79938	-0.48532	0.30505	0.17969	31.0	13111	100
2025-3-27 18:23:5.837	WT901BLE68-01(48591DE3C19B)	-0.725	-0.923	0.325	-5.005	-17.822	-165.405	-78.83	-13.50	-37.25	-48.804	-32.536	74.480	0.79938	-0.48532	0.30505	0.17969	31.0	13111	100
2025-3-27 18:23:5.870	WT901BLE68-01(48591DE3C19B)	-0.725	-1.030	0.354	-7.629	-43.762	-145.447	-78.95	-14.75	-36.99	-48.804	-32.536	74.480	0.79938	-0.48532	0.30505	0.17969	31.0	13111	100
2025-3-27 18:23:5.871	WT901BLE68-01(48591DE3C19B)	-0.729	-1.030	0.354	-7.629	-43.762	-145.447	-79.09	-16.01	-36.72	-48.804	-32.536	74.480	0.79938	-0.48532	0.30505	0.17969	31.0	13111	100
2025-3-27 18:23:5.871	WT901BLE68-01(48591DE3C19B)	-0.729	-1.106	0.427	-10.681	-56.274	-124.023	-79.30	-17.06	-36.28	-48.804	-32.536	74.480	0.79938	-0.48532	0.30505	0.17969	31.0	13111	100
2025-3-27 18:23:5.871	WT901BLE68-01(48591DE3C19B)	-0.723	-1.106	0.427	-10.681	-56.274	-124.023	-79.52	-18.10	-35.83	-48.804	-32.536	74.480	0.79938	-0.48532	0.30505	0.17969	31.0	13111	100
2025-3-27 18:23:5.929	WT901BLE68-01(48591DE3C19B)	-0.723	-1.194	0.511	-14.282	-44.922	-102.173	-79.76	-18.90	-35.45	-48.804	-32.536	74.480	0.79938	-0.48532	0.30505	0.17969	31.0	13111	100
2025-3-27 18:23:5.929	WT901BLE68-01(48591DE3C19B)	-0.704	-1.194	0.511	-14.282	-44.922	-102.173	-79.99	-19.70	-35.07	-48.804	-32.536	74.480	0.79938	-0.48532	0.30505	0.17969	31.0	13111	100
2025-3-27 18:23:5.929	WT901BLE68-01(48591DE3C19B)	-0.704	-1.307	0.538	-15.625	-18.127	-75.562	-80.16	-20.18	-34.91	-48.804	-32.536	74.480	0.79938	-0.48532	0.30505	0.17969	31.0	13111	100
2025-3-27 18:23:5.929	WT901BLE68-01(48591DE3C19B)	-0.658	-1.307	0.538	-15.625	-18.127	-75.562	-80.33	-20.67	-34.77	-48.804	-32.536	74.480	0.79938	-0.48532	0.30505	0.17969	31.0	13111	100
2025-3-27 18:23:5.958	WT901BLE68-01(48591DE3C19B)	-0.658	-1.330	0.511	-12.451	19.714	-47.302	-80.33	-20.80	-34.96	-48.804	-32.536	74.480	0.79938	-0.48532	0.30505	0.17969	31.0	13111	100
2025-3-27 18:23:5.958	WT901BLE68-01(48591DE3C19B)	-0.656	-1.330	0.511	-12.451	19.714	-47.302	-80.34	-20.95	-35.16	-48.804	-32.536	74.480	0.79938	-0.48532	0.30505	0.17969	31.0	13111	100
2025-3-27 18:23:5.958	WT901BLE68-01(48591DE3C19B)	-0.656	-1.285	0.488	-11.475	53.223	-16.052	-80.23	-20.73	-35.66	-48.804	-32.536	74.480	0.79938	-0.48532	0.30505	0.17969	31.0	13111	100
2025-3-27 18:23:5.959	WT901BLE68-01(48591DE3C19B)	-0.718	-1.285	0.488	-11.475	53.223	-16.052	-80.12	-20.51	-36.16	-48.804	-32.536	74.480	0.79938	-0.48532	0.30505	0.17969	31.0	13111	100
2025-3-27 18:23:5.989	WT901BLE68-01(48591DE3C19B)	-0.718	-1.193	0.481	-11.780	66.162	15.808	-79.99	-19.96	-36.72	-48.804	-32.536	74.480	0.68121	-0.64172	0.07663	-0.34372	31.0	13111	100
2025-3-27 18:23:5.989	WT901BLE68-01(48591DE3C19B)	-0.808	-1.193	0.481	-11.780	66.162	15.808	-79.88	-19.40	-37.28	-48.804	-32.536	74.480	0.68121	-0.64172	0.07663	-0.34372	31.0	13111	100
2025-3-27 18:23:5.989	WT901BLE68-01(48591DE3C19B)	-0.808	-1.050	0.475	-13.306	47.852	45.105	-79.86	-18.59	-37.59	-48.804	-32.536	74.480	0.68121	-0.64172	0.07663	-0.34372	31.0	13111	100
2025-3-27 18:23:5.989	WT901BLE68-01(48591DE3C19B)	-0.838	-1.050	0.475	-13.306	47.852	45.105	-79.85	-17.78	-37.89	-48.804	-32.536	74.480	0.68121	-0.64172	0.07663	-0.34372	31.0	13111	100
2025-3-27 18:23:6.18	WT901BLE68-01(48591DE3C19B)	-0.838	-0.890	0.447	-16.541	2.991	73.975	-80.04	-16.77	-37.67	-48.804	-32.536	74.480	0.68121	-0.64172	0.07663	-0.34372	31.0	13111	100
2025-3-27 18:23:6.18	WT901BLE68-01(48591DE3C19B)	-0.809	-0.890	0.447	-16.541	2.991	73.975	-80.22	-15.75	-37.45	-48.804	-32.536	74.480	0.68121	-0.64172	0.07663	-0.34372	31.0	13111	100
2025-3-27 18:23:6.19	WT901BLE68-01(48591DE3C19B)	-0.809	-0.822	0.397	-19.653	-49.744	105.164	-80.58	-14.52	-36.64	-48.804	-32.536	74.480	0.68121	-0.64172	0.07663	-0.34372	31.0	13111	100
2025-3-27 18:23:6.19	WT901BLE68-01(48591DE3C19B)	-0.717	-0.822	0.397	-19.653	-49.744	105.164	-80.92	-13.28	-35.84	-48.804	-32.536	74.480	0.68121	-0.64172	0.07663	-0.34372	31.0	13111	100
2025-3-27 18:23:6.76	WT901BLE68-01(48591DE3C19B)	-0.717	-0.871	0.332	-20.081	-95.886	138.062	-81.36	-11.79	-34.54	-48.804	-32.536	74.480	0.68121	-0.64172	0.07663	-0.34372	31.0	13111	100
2025-3-27 18:23:6.76	WT901BLE68-01(48591DE3C19B)	-0.593	-0.871	0.332	-20.081	-95.886	138.062	-81.76	-10.29	-33.25	-48.804	-32.536	74.480	0.68121	-0.64172	0.07663	-0.34372	31.0	13111	100
2025-3-27 18:23:6.76	WT901BLE68-01(48591DE3C19B)	-0.593	-0.989	0.251	-15.503	-127.197	168.701	-82.13	-8.54	-31.63	-48.804	-32.536	74.480	0.68121	-0.64172	0.07663	-0.34372	31.0	13111	100
2025-3-27 18:23:6.76	WT901BLE68-01(48591DE3C19B)	-0.518	-0.989	0.251	-15.503	-127.197	168.701	-82.45	-6.80	-30.04	-48.804	-32.536	74.480	0.68121	-0.64172	0.07663	-0.34372	31.0	13111	100
2025-3-27 18:23:6.106	WT901BLE68-01(48591DE3C19B)	-0.518	-1.120	0.209	-5.737	-145.081	192.993	-82.65	-4.84	-28.26	-48.804	-32.536	74.480	0.68121	-0.64172	0.07663	-0.34372	31.0	13111	100
2025-3-27 18:23:6.106	WT901BLE68-01(48591DE3C19B)	-0.469	-1.120	0.209	-5.737	-145.081	192.993	-82.78	-2.89	-26.50	-48.804	-32.536	74.480	0.68121	-0.64172	0.07663	-0.34372	31.0	13111	100
2025-3-27 18:23:6.106	WT901BLE68-01(48591DE3C19B)	-0.469	-1.303	0.210	6.226	-154.846	209.167	-82.74	-0.82	-24.65	-48.804	-32.536	74.480	0.68121	-0.64172	0.07663	-0.34372	31.0	13111	100
2025-3-27 18:23:6.106	WT901BLE68-01(48591DE3C19B)	-0.391	-1.303	0.210	6.226	-154.846	209.167	-82.63	1.23	-22.80	-48.804	-32.536	74.480	0.68121	-0.64172	0.07663	-0.34372	31.0	13111	100
2025-3-27 18:23:6.138	WT901BLE68-01(48591DE3C19B)	-0.281	-1.537	0.203	22.827	-152.771	219.482	-82.29	3.36	-20.97	-48.804	-32.536	74.480	0.68121	-0.64172	0.07663	-0.34372	31.0	13111	100
2025-3-27 18:23:6.138	WT901BLE68-01(48591DE3C19B)	-0.281	-1.667	0.147	45.776	-133.301	226.501	-81.78	5.50	-19.24	-48.804	-32.536	74.480	0.68121	-0.64172	0.07663	-0.34372	31.0	13111	100
2025-3-27 18:23:6.138	WT901BLE68-01(48591DE3C19B)	-0.193	-1.667	0.147	45.776	-133.301	226.501	-81.10	7.64	-17.58	-48.804	-32.536	74.480	0.68121	-0.64172	0.07663	-0.34372	31.0	13111	100
2025-3-27 18:23:6.139	WT901BLE68-01(48591DE3C19B)	-0.193	-1.585	0.104	65.430	-97.900	228.882	-80.30	9.78	-16.08	-48.804	-32.536	74.480	0.68121	-0.64172	0.07663	-0.34372	31.0	13111	100
2025-3-27 18:23:6.197	WT901BLE68-01(48591DE3C19B)	-0.172	-1.585	0.104	65.430	-97.900	228.882	-79.37	11.92	-14.73	-48.804	-32.536	74.480	0.68121	-0.64172	0.07663	-0.34372	31.0	13111	100
2025-3-27 18:23:6.197	WT901BLE68-01(48591DE3C19B)	-0.172	-1.489	0.111	73.425	-57.800	227.783	-78.40	14.05	-13.56	-45.962	-38.710	69.874	0.68121	-0.64172	0.07663	-0.34372	31.0	13111	100
2025-3-27 18:23:6.197	WT901BLE68-01(48591DE3C19B)	-0.162	-1.489	0.111	73.425	-57.800	227.783	-77.40	16.17	-12.55	-45.962	-38.710	69.874	0.68121	-0.64172	0.07663	-0.34372	31.0	13111	100
2025-3-27 18:23:6.197	WT901BLE68-01(48591DE3C19B)	-0.162	-1.416	0.115	79.041	-19.775	227.844	-76.39	18.29	-11.69	-45.962	-38.710	69.874	0.68121	-0.64172	0.07663	-0.34372	31.0	13111	100
2025-3-27 18:23:6.226	WT901BLE68-01(48591DE3C19B)	-0.145	-1.416	0.115	79.041	-19.775	227.844	-75.37	20.43	-10.99	-45.962	-38.710	69.874	0.68121	-0.64172	0.07663	-0.34372	31.0	13111	100
2025-3-27 18:23:6.226	WT901BLE68-01(48591DE3C19B)	-0.145	-1.237	0.094	80.383	12.207	228.577	-74.38	22.59	-10.42	-45.962	-38.710	69.874	0.68121	-0.64172	0.07663	-0.34372	31.0	13111	100
2025-3-27 18:23:6.226	WT901BLE68-01(48591DE3C19B)	-0.148	-1.237	0.094	80.383	12.207	228.577	-73.41	24.77	-9.96	-45.962	-38.710	69.874	0.68121	-0.64172	0.07663	-0.34372	31.0	13111	100
2025-3-27 18:23:6.226	WT901BLE68-01(48591DE3C19B)	-0.148	-1.081	0.062	76.233	37.170	230.713	-72.49	26.97	-9.60	-45.962	-38.710	69.874	0.68121	-0.64172	0.07663	-0.34372	31.0	13111	100
2025-3-27 18:23:6.255	WT901BLE68-01(48591DE3C19B)	-0.174	-1.081	0.062	76.233	37.170	230.713	-71.62	29.20	-9.33	-45.962	-38.710	69.874	0.68121	-0.64172	0.07663	-0.34372	31.0	13111	100
2025-3-27 18:23:6.256	WT901BLE68-01(48591DE3C19B)	-0.174	-0.956	0.034	68.298	49.927	231.018	-70.80	31.43	-9.09	-45.962	-38.710	69.874	0.68121	-0.64172	0.07663	-0.34372	31.0	13111	100
2025-3-27 18:23:6.256	WT901BLE68-01(48591DE3C19B)	-0.205	-0.956	0.034	68.298	49.927	231.018	-70.04	33.67	-8.89	-45.962	-38.710	69.874	0.68121	-0.64172	0.07663	-0.34372	31.0	13111	100
2025-3-27 18:23:6.256	WT901BLE68-01(48591DE3C19B)	-0.205	-0.906	0.022	57.129	48.950	229.675	-69.30	35.89	-8.65	-45.962	-38.710	69.874	0.68121	-0.64172	0.07663	-0.34372	31.0	13111	100
2025-3-27 18:23:6.318	WT901BLE68-01(48591DE3C19B)	-0.230	-0.906	0.022	57.129	48.950	229.675	-68.59	38.07	-8.36	-45.962	-38.710	69.874	0.68121	-0.64172	0.07663	-0.34372	31.0	13111	100
2025-3-27 18:23:6.318	WT901BLE68-01(48591DE3C19B)	-0.230	-0.982	0.025	43.579	38.574	225.342	-67.88	40.21	-7.99	-45.962	-38.710	69.874	0.68121	-0.64172	0.07663	-0.34372	31.0	13111	100
2025-3-27 18:23:6.318	WT901BLE68-01(48591DE3C19B)	-0.250	-0.982	0.025	43.579	38.574	225.342	-67.18	42.29	-7.52	-45.962	-38.710	69.874	0.68121	-0.64172	0.07663	-0.34372	31.0	13111	100
2025-3-27 18:23:6.318	WT901BLE68-01(48591DE3C19B)	-0.250	-1.139	0.056	34.668	21.423	213.623	-66.41	44.27	-6.93	-45.962	-38.710	69.874	0.68121	-0.64172	0.07663	-0.34372	31.0	13111	100
2025-3-27 18:23:6.346	WT901BLE68-01(48591DE3C19B)	-0.287	-1.139	0.056	34.668	21.423	213.623	-65.59	46.14	-6.21	-45.962	-38.710	69.874	0.68121	-0.64172	0.07663	-0.34372	31.0	13111	100
2025-3-27 18:23:6.346	WT901BLE68-01(48591DE3C19B)	-0.287	-1.375	0.125	29.602	-2.136	192.322	-64.67	47.85	-5.34	-45.962	-38.710	69.874	0.68121	-0.64172	0.07663	-0.34372	31.0	13111	100
2025-3-27 18:23:6.346	WT901BLE68-01(48591DE3C19B)	-0.331	-1.375	0.125	29.602	-2.136	192.322	-63.64	49.39	-4.33	-45.962	-38.710	69.874	0.68121	-0.64172	0.07663	-0.34372	31.0	13111	100
2025-3-27 18:23:6.346	WT901BLE68-01(48591DE3C19B)	-0.331	-1.658	0.153	28.503	-31.311	161.072	-62.48	50.71	-3.15	-45.962	-38.710	69.874	0.77841	-0.45837	0.37891	0.20074	31.0	13111	100
2025-3-27 18:23:6.378	WT901BLE68-01(48591DE3C19B)	-0.313	-1.658	0.153	28.503	-31.311	161.072	-61.18	51.80	-1.82	-45.962	-38.710	69.874	0.77841	-0.45837	0.37891	0.20074	31.0	13111	100
2025-3-27 18:23:6.379	WT901BLE68-01(48591DE3C19B)	-0.313	-1.892	0.120	31.921	-50.964	124.329	-59.82	52.65	-0.44	-45.962	-38.710	69.874	0.77841	-0.45837	0.37891	0.20074	31.0	13111	100
2025-3-27 18:23:6.379	WT901BLE68-01(48591DE3C19B)	-0.241	-1.892	0.120	31.921	-50.964	124.329	-58.41	53.27	0.96	-45.962	-38.710	69.874	0.77841	-0.45837	0.37891	0.20074	31.0	13111	100
2025-3-27 18:23:6.379	WT901BLE68-01(48591DE3C19B)	-0.241	-1.916	0.092	31.555	-49.377	86.060	-57.11	53.71	2.21	-45.962	-38.710	69.874	0.77841	-0.45837	0.37891	0.20074	31.0	13111	100
2025-3-27 18:23:6.437	WT901BLE68-01(48591DE3C19B)	-0.149	-1.916	0.092	31.555	-49.377	86.060	-55.96	53.98	3.29	-45.962	-38.710	69.874	0.77841	-0.45837	0.37891	0.20074	31.0	13111	100
2025-3-27 18:23:6.437	WT901BLE68-01(48591DE3C19B)	-0.149	-1.852	0.083	29.724	-32.166	52.795	-55.04	54.14	4.09	-45.962	-38.710	69.874	0.77841	-0.45837	0.37891	0.20074	31.0	13111	100
2025-3-27 18:23:6.437	WT901BLE68-01(48591DE3C19B)	-0.064	-1.852	0.083	29.724	-32.166	52.795	-54.36	54.20	4.61	-45.962	-38.710	69.874	0.77841	-0.45837	0.37891	0.20074	31.0	13111	100
2025-3-27 18:23:6.437	WT901BLE68-01(48591DE3C19B)	-0.064	-1.585	0.145	27.039	-6.165	22.583	-53.98	54.22	4.78	-45.962	-38.710	69.874	0.77841	-0.45837	0.37891	0.20074	31.0	13111	100
2025-3-27 18:23:6.471	WT901BLE68-01(48591DE3C19B)	-0.003	-1.585	0.145	27.039	-6.165	22.583	-53.87	54.18	4.63	-45.962	-38.710	69.874	0.77841	-0.45837	0.37891	0.20074	31.0	13111	100
2025-3-27 18:23:6.471	WT901BLE68-01(48591DE3C19B)	-0.003	-1.347	0.221	19.104	18.494	-1.404	-54.05	54.12	4.17	-45.962	-38.710	69.874	0.77841	-0.45837	0.37891	0.20074	31.0	13111	100
2025-3-27 18:23:6.471	WT901BLE68-01(48591DE3C19B)	0.017	-1.347	0.221	19.104	18.494	-1.404	-54.49	54.03	3.42	-45.962	-38.710	69.874	0.77841	-0.45837	0.37891	0.20074	31.0	13111	100
2025-3-27 18:23:6.471	WT901BLE68-01(48591DE3C19B)	0.017	-1.201	0.188	9.827	37.720	-26.611	-55.18	53.88	2.43	-45.962	-38.710	69.874	0.77841	-0.45837	0.37891	0.20074	31.0	13111	100
2025-3-27 18:23:6.497	WT901BLE68-01(48591DE3C19B)	-0.025	-1.201	0.188	9.827	37.720	-26.611	-56.12	53.68	1.18	-45.962	-38.710	69.874	0.77841	-0.45837	0.37891	0.20074	31.0	13111	100
2025-3-27 18:23:6.497	WT901BLE68-01(48591DE3C19B)	-0.025	-1.034	0.196	2.991	46.753	-48.950	-57.20	53.39	-0.21	-45.962	-38.710	69.874	0.77841	-0.45837	0.37891	0.20074	31.0	13111	100
2025-3-27 18:23:6.497	WT901BLE68-01(48591DE3C19B)	-0.066	-1.034	0.196	2.991	46.753	-48.950	-58.42	53.02	-1.74	-45.962	-38.710	69.874	0.77841	-0.45837	0.37891	0.20074	31.0	13111	100
2025-3-27 18:23:6.497	WT901BLE68-01(48591DE3C19B)	-0.066	-0.908	0.215	-2.991	44.067	-71.350	-59.69	52.52	-3.31	-45.962	-38.710	69.874	0.77841	-0.45837	0.37891	0.20074	31.0	13111	100
2025-3-27 18:23:6.557	WT901BLE68-01(48591DE3C19B)	-0.073	-0.908	0.215	-2.991	44.067	-71.350	-61.00	51.90	-4.92	-45.962	-38.710	69.874	0.77841	-0.45837	0.37891	0.20074	31.0	13111	100
2025-3-27 18:23:6.557	WT901BLE68-01(48591DE3C19B)	-0.073	-0.867	0.246	-7.996	37.781	-93.811	-62.30	51.15	-6.50	-45.962	-38.710	69.874	0.77841	-0.45837	0.37891	0.20074	31.0	13111	100
2025-3-27 18:23:6.557	WT901BLE68-01(48591DE3C19B)	-0.115	-0.867	0.246	-7.996	37.781	-93.811	-63.59	50.27	-8.06	-45.962	-38.710	69.874	0.77841	-0.45837	0.37891	0.20074	31.0	13111	100
2025-3-27 18:23:6.557	WT901BLE68-01(48591DE3C19B)	-0.115	-0.897	0.264	-9.460	33.447	-116.516	-64.86	49.25	-9.60	-45.962	-38.710	69.874	0.77841	-0.45837	0.37891	0.20074	31.0	13111	100
2025-3-27 18:23:6.589	WT901BLE68-01(48591DE3C19B)	-0.200	-0.897	0.264	-9.460	33.447	-116.516	-66.07	48.11	-11.10	-63.798	-41.454	69.874	0.77841	-0.45837	0.37891	0.20074	31.0	13111	100
2025-3-27 18:23:6.589	WT901BLE68-01(48591DE3C19B)	-0.200	-0.911	0.238	-7.385	21.362	-137.085	-67.18	46.84	-12.51	-63.798	-41.454	69.874	0.77841	-0.45837	0.37891	0.20074	31.0	13111	100
2025-3-27 18:23:6.590	WT901BLE68-01(48591DE3C19B)	-0.236	-0.911	0.238	-7.385	21.362	-137.085	-68.19	45.44	-13.81	-63.798	-41.454	69.874	0.77841	-0.45837	0.37891	0.20074	31.0	13111	100
2025-3-27 18:23:6.590	WT901BLE68-01(48591DE3C19B)	-0.236	-0.886	0.204	-6.531	1.221	-157.532	-69.05	43.91	-14.96	-63.798	-41.454	69.874	0.77841	-0.45837	0.37891	0.20074	31.0	13111	100
2025-3-27 18:23:6.618	WT901BLE68-01(48591DE3C19B)	-0.206	-0.886	0.204	-6.531	1.221	-157.532	-69.79	42.25	-15.96	-63.798	-41.454	69.874	0.77841	-0.45837	0.37891	0.20074	31.0	13111	100
2025-3-27 18:23:6.619	WT901BLE68-01(48591DE3C19B)	-0.206	-0.880	0.213	-8.301	-12.268	-177.429	-70.42	40.36	-16.81	-63.798	-41.454	69.874	0.77841	-0.45837	0.37891	0.20074	31.0	13111	100
2025-3-27 18:23:6.619	WT901BLE68-01(48591DE3C19B)	-0.173	-0.880	0.213	-8.301	-12.268	-177.429	-70.99	38.48	-17.62	-63.798	-41.454	69.874	0.77841	-0.45837	0.37891	0.20074	31.0	13111	100
2025-3-27 18:23:6.619	WT901BLE68-01(48591DE3C19B)	-0.173	-0.876	0.253	-9.460	-8.423	-195.251	-71.60	36.44	-18.48	-63.798	-41.454	69.874	0.77841	-0.45837	0.37891	0.20074	31.0	13111	100
2025-3-27 18:23:6.676	WT901BLE68-01(48591DE3C19B)	-0.171	-0.876	0.253	-9.460	-8.423	-195.251	-72.15	34.41	-19.30	-63.798	-41.454	69.874	0.77841	-0.45837	0.37891	0.20074	31.0	13111	100
2025-3-27 18:23:6.676	WT901BLE68-01(48591DE3C19B)	-0.171	-0.883	0.273	-11.353	11.169	-210.938	-72.82	32.30	-20.34	-63.798	-41.454	69.874	0.77841	-0.45837	0.37891	0.20074	31.0	13111	100
2025-3-27 18:23:6.676	WT901BLE68-01(48591DE3C19B)	-0.175	-0.883	0.273	-11.353	11.169	-210.938	-73.43	30.19	-21.32	-63.798	-41.454	69.874	0.77841	-0.45837	0.37891	0.20074	31.0	13111	100
2025-3-27 18:23:6.677	WT901BLE68-01(48591DE3C19B)	-0.175	-0.893	0.265	-10.986	38.635	-224.915	-74.14	28.03	-22.59	-63.798	-41.454	69.874	0.77841	-0.45837	0.37891	0.20074	31.0	13111	100
2025-3-27 18:23:6.705	WT901BLE68-01(48591DE3C19B)	-0.195	-0.893	0.265	-10.986	38.635	-224.915	-74.77	25.86	-23.80	-63.798	-41.454	69.874	0.77841	-0.45837	0.37891	0.20074	31.0	13111	100
2025-3-27 18:23:6.705	WT901BLE68-01(48591DE3C19B)	-0.195	-0.887	0.249	-8.606	65.613	-236.877	-75.45	23.65	-25.27	-63.798	-41.454	69.874	0.77841	-0.45837	0.37891	0.20074	31.0	13111	100
2025-3-27 18:23:6.705	WT901BLE68-01(48591DE3C19B)	-0.219	-0.887	0.249	-8.606	65.613	-236.877	-76.06	21.45	-26.69	-63.798	-41.454	69.874	0.77841	-0.45837	0.37891	0.20074	31.0	13111	100
2025-3-27 18:23:6.706	WT901BLE68-01(48591DE3C19B)	-0.219	-0.886	0.234	-5.493	95.886	-245.361	-76.67	19.23	-28.38	-63.798	-41.454	69.874	0.77841	-0.45837	0.37891	0.20074	31.0	13111	100
2025-3-27 18:23:6.738	WT901BLE68-01(48591DE3C19B)	-0.251	-0.886	0.234	-5.493	95.886	-245.361	-77.22	17.01	-30.01	-63.798	-41.454	69.874	0.77841	-0.45837	0.37891	0.20074	31.0	13111	100
2025-3-27 18:23:6.739	WT901BLE68-01(48591DE3C19B)	-0.251	-0.891	0.203	1.404	128.845	-248.901	-77.71	14.83	-31.93	-63.798	-41.454	69.874	0.77841	-0.45837	0.37891	0.20074	31.0	13111	100
2025-3-27 18:23:6.739	WT901BLE68-01(48591DE3C19B)	-0.337	-0.891	0.203	1.404	128.845	-248.901	-78.12	12.66	-33.80	-63.798	-41.454	69.874	0.77841	-0.45837	0.37891	0.20074	31.0	13111	100
2025-3-27 18:23:6.739	WT901BLE68-01(48591DE3C19B)	-0.337	-0.896	0.155	11.414	152.771	-246.704	-78.40	10.55	-35.86	-63.798	-41.454	69.874	0.77841	-0.45837	0.37891	0.20074	31.0	13111	100
2025-3-27 18:23:6.797	WT901BLE68-01(48591DE3C19B)	-0.418	-0.896	0.155	11.414	152.771	-246.704	-78.61	8.46	-37.88	-63.798	-41.454	69.874	0.77841	-0.45837	0.37891	0.20074	31.0	13111	100
2025-3-27 18:23:6.797	WT901BLE68-01(48591DE3C19B)	-0.418	-0.907	0.114	21.423	156.738	-241.821	-78.65	6.44	-39.90	-63.798	-41.454	69.874	0.73807	-0.57990	0.25677	-0.23004	31.0	13111	100
2025-3-27 18:23:6.797	WT901BLE68-01(48591DE3C19B)	-0.471	-0.907	0.114	21.423	156.738	-241.821	-78.63	4.44	-41.90	-63.798	-41.454	69.874	0.73807	-0.57990	0.25677	-0.23004	31.0	13111	100
2025-3-27 18:23:6.797	WT901BLE68-01(48591DE3C19B)	-0.471	-0.923	0.109	29.114	142.029	-233.643	-78.45	2.51	-43.71	-63.798	-41.454	69.874	0.73807	-0.57990	0.25677	-0.23004	31.0	13111	100
2025-3-27 18:23:6.826	WT901BLE68-01(48591DE3C19B)	-0.538	-0.923	0.109	29.114	142.029	-233.643	-78.22	0.60	-45.51	-63.798	-41.454	69.874	0.73807	-0.57990	0.25677	-0.23004	31.0	13111	100
2025-3-27 18:23:6.826	WT901BLE68-01(48591DE3C19B)	-0.538	-0.965	0.142	33.630	114.075	-222.656	-77.90	-1.22	-47.01	-63.798	-41.454	69.874	0.73807	-0.57990	0.25677	-0.23004	31.0	13111	100
2025-3-27 18:23:6.826	WT901BLE68-01(48591DE3C19B)	-0.622	-0.965	0.142	33.630	114.075	-222.656	-77.53	-3.02	-48.51	-63.798	-41.454	69.874	0.73807	-0.57990	0.25677	-0.23004	31.0	13111	100
2025-3-27 18:23:6.826	WT901BLE68-01(48591DE3C19B)	-0.622	-1.058	0.215	34.424	74.036	-208.618	-77.14	-4.75	-49.59	-63.798	-41.454	69.874	0.73807	-0.57990	0.25677	-0.23004	31.0	13111	100
2025-3-27 18:23:6.887	WT901BLE68-01(48591DE3C19B)	-0.686	-1.058	0.215	34.424	74.036	-208.618	-76.72	-6.45	-50.66	-63.798	-41.454	69.874	0.73807	-0.57990	0.25677	-0.23004	31.0	13111	100
2025-3-27 18:23:6.887	WT901BLE68-01(48591DE3C19B)	-0.686	-1.196	0.276	32.104	28.320	-192.688	-76.35	-8.09	-51.27	-63.798	-41.454	69.874	0.73807	-0.57990	0.25677	-0.23004	31.0	13111	100
2025-3-27 18:23:6.887	WT901BLE68-01(48591DE3C19B)	-0.631	-1.196	0.276	32.104	28.320	-192.688	-75.97	-9.70	-51.87	-63.798	-41.454	69.874	0.73807	-0.57990	0.25677	-0.23004	31.0	13111	100
2025-3-27 18:23:6.887	WT901BLE68-01(48591DE3C19B)	-0.631	-1.325	0.281	25.085	-4.517	-177.917	-75.71	-11.24	-52.13	-63.798	-41.454	69.874	0.73807	-0.57990	0.25677	-0.23004	31.0	13111	100
2025-3-27 18:23:6.948	WT901BLE68-01(48591DE3C19B)	-0.577	-1.325	0.281	25.085	-4.517	-177.917	-75.43	-12.77	-52.39	-63.798	-41.454	69.874	0.73807	-0.57990	0.25677	-0.23004	31.0	13111	100
2025-3-27 18:23:6.948	WT901BLE68-01(48591DE3C19B)	-0.577	-1.489	0.278	15.381	-17.212	-159.851	-75.29	-14.14	-52.48	-63.798	-41.454	69.874	0.73807	-0.57990	0.25677	-0.23004	31.0	13111	100
2025-3-27 18:23:6.948	WT901BLE68-01(48591DE3C19B)	-0.572	-1.489	0.278	15.381	-17.212	-159.851	-75.14	-15.51	-52.58	-63.798	-41.454	69.874	0.73807	-0.57990	0.25677	-0.23004	31.0	13111	100
2025-3-27 18:23:6.949	WT901BLE68-01(48591DE3C19B)	-0.572	-1.572	0.312	8.118	-18.677	-143.311	-75.08	-16.73	-52.62	-63.798	-41.454	69.874	0.73807	-0.57990	0.25677	-0.23004	31.0	13111	100
2025-3-27 18:23:6.949	WT901BLE68-01(48591DE3C19B)	-0.539	-1.572	0.312	8.118	-18.677	-143.311	-75.01	-17.93	-52.67	-63.798	-41.454	69.874	0.73807	-0.57990	0.25677	-0.23004	31.0	13111	100
2025-3-27 18:23:6.949	WT901BLE68-01(48591DE3C19B)	-0.539	-1.574	0.376	-1.770	-6.165	-124.084	-75.01	-18.91	-52.79	-63.798	-41.454	69.874	0.73807	-0.57990	0.25677	-0.23004	31.0	13111	100
2025-3-27 18:23:6.949	WT901BLE68-01(48591DE3C19B)	-0.502	-1.574	0.376	-1.770	-6.165	-124.084	-75.01	-19.90	-52.92	-63.798	-41.454	69.874	0.73807	-0.57990	0.25677	-0.23004	31.0	13111	100
2025-3-27 18:23:6.949	WT901BLE68-01(48591DE3C19B)	-0.502	-1.532	0.434	-10.864	19.836	-99.182	-75.03	-20.57	-53.24	-63.798	-41.454	69.874	0.73807	-0.57990	0.25677	-0.23004	31.0	13111	100
2025-3-27 18:23:7.37	WT901BLE68-01(48591DE3C19B)	-0.496	-1.532	0.434	-10.864	19.836	-99.182	-75.03	-21.23	-53.57	-63.798	-41.454	69.874	0.73807	-0.57990	0.25677	-0.23004	31.0	13111	100
2025-3-27 18:23:7.37	WT901BLE68-01(48591DE3C19B)	-0.496	-1.409	0.479	-16.602	47.485	-70.740	-75.01	-21.56	-54.11	-63.798	-41.454	69.874	0.73807	-0.57990	0.25677	-0.23004	31.0	13111	100
2025-3-27 18:23:7.37	WT901BLE68-01(48591DE3C19B)	-0.525	-1.409	0.479	-16.602	47.485	-70.740	-74.98	-21.87	-54.64	-58.506	-41.552	70.070	0.73807	-0.57990	0.25677	-0.23004	31.0	13111	100
2025-3-27 18:23:7.37	WT901BLE68-01(48591DE3C19B)	-0.525	-1.229	0.481	-21.057	59.692	-41.260	-74.98	-21.87	-55.22	-58.506	-41.552	70.070	0.73807	-0.57990	0.25677	-0.23004	31.0	13111	100
2025-3-27 18:23:7.38	WT901BLE68-01(48591DE3C19B)	-0.610	-1.229	0.481	-21.057	59.692	-41.260	-74.97	-21.87	-55.81	-58.506	-41.552	70.070	0.73807	-0.57990	0.25677	-0.23004	31.0	13111	100
2025-3-27 18:23:7.38	WT901BLE68-01(48591DE3C19B)	-0.610	-1.074	0.452	-25.452	51.453	-12.817	-75.06	-21.62	-56.22	-58.506	-41.552	70.070	0.73807	-0.57990	0.25677	-0.23004	31.0	13111	100
2025-3-27 18:23:7.38	WT901BLE68-01(48591DE3C19B)	-0.754	-1.074	0.452	-25.452	51.453	-12.817	-75.16	-21.36	-56.62	-58.506	-41.552	70.070	0.73807	-0.57990	0.25677	-0.23004	31.0	13111	100
2025-3-27 18:23:7.38	WT901BLE68-01(48591DE3C19B)	-0.754	-1.048	0.428	-32.104	14.099	14.832	-75.50	-20.93	-56.56	-58.506	-41.552	70.070	0.73807	-0.57990	0.25677	-0.23004	31.0	13111	100
2025-3-27 18:23:7.72	WT901BLE68-01(48591DE3C19B)	-0.794	-1.048	0.428	-32.104	14.099	14.832	-75.83	-20.49	-56.50	-58.506	-41.552	70.070	0.73807	-0.57990	0.25677	-0.23004	31.0	13111	100
2025-3-27 18:23:7.72	WT901BLE68-01(48591DE3C19B)	-0.679	-1.076	0.398	-31.372	-37.720	45.593	-76.36	-19.89	-55.82	-58.506	-41.552	70.070	0.73807	-0.57990	0.25677	-0.23004	31.0	13111	100
2025-3-27 18:23:7.72	WT901BLE68-01(48591DE3C19B)	-0.679	-0.955	0.345	-23.743	-77.271	81.726	-76.93	-19.14	-54.90	-58.506	-41.552	70.070	0.73807	-0.57990	0.25677	-0.23004	31.0	13111	100
2025-3-27 18:23:7.72	WT901BLE68-01(48591DE3C19B)	-0.551	-0.955	0.345	-23.743	-77.271	81.726	-77.52	-18.25	-53.75	-58.506	-41.552	70.070	0.73807	-0.57990	0.25677	-0.23004	31.0	13111	100
2025-3-27 18:23:7.127	WT901BLE68-01(48591DE3C19B)	-0.551	-0.837	0.279	-20.386	-100.830	117.859	-78.11	-17.20	-52.45	-58.506	-41.552	70.070	0.73807	-0.57990	0.25677	-0.23004	31.0	13111	100
2025-3-27 18:23:7.127	WT901BLE68-01(48591DE3C19B)	-0.461	-0.837	0.279	-20.386	-100.830	117.859	-78.71	-15.99	-51.02	-58.506	-41.552	70.070	0.73807	-0.57990	0.25677	-0.23004	31.0	13111	100
2025-3-27 18:23:7.127	WT901BLE68-01(48591DE3C19B)	-0.461	-0.835	0.225	-18.677	-112.732	146.423	-79.28	-14.64	-49.53	-58.506	-41.552	70.070	0.73807	-0.57990	0.25677	-0.23004	31.0	13111	100
2025-3-27 18:23:7.127	WT901BLE68-01(48591DE3C19B)	-0.396	-0.835	0.225	-18.677	-112.732	146.423	-79.82	-13.16	-47.98	-58.506	-41.552	70.070	0.73807	-0.57990	0.25677	-0.23004	31.0	13111	100
2025-3-27 18:23:7.156	WT901BLE68-01(48591DE3C19B)	-0.396	-0.942	0.184	-15.137	-119.812	168.762	-80.30	-11.57	-46.40	-58.506	-41.552	70.070	0.73807	-0.57990	0.25677	-0.23004	31.0	13111	100
2025-3-27 18:23:7.156	WT901BLE68-01(48591DE3C19B)	-0.347	-0.942	0.184	-15.137	-119.812	168.762	-80.72	-9.88	-44.80	-58.506	-41.552	70.070	0.73807	-0.57990	0.25677	-0.23004	31.0	13111	100
2025-3-27 18:23:7.156	WT901BLE68-01(48591DE3C19B)	-0.347	-1.069	0.184	-7.080	-124.207	185.852	-81.06	-8.11	-43.20	-58.506	-41.552	70.070	0.73807	-0.57990	0.25677	-0.23004	31.0	13111	100
2025-3-27 18:23:7.156	WT901BLE68-01(48591DE3C19B)	-0.282	-1.069	0.184	-7.080	-124.207	185.852	-81.32	-6.27	-41.58	-58.506	-41.552	70.070	0.69907	-0.62299	0.19388	-0.29239	31.0	13111	100
2025-3-27 18:23:7.186	WT901BLE68-01(48591DE3C19B)	-0.282	-1.169	0.210	3.113	-121.887	198.486	-81.46	-4.37	-40.00	-58.506	-41.552	70.070	0.69907	-0.62299	0.19388	-0.29239	31.0	13111	100
2025-3-27 18:23:7.187	WT901BLE68-01(48591DE3C19B)	-0.211	-1.169	0.210	3.113	-121.887	198.486	-81.50	-2.42	-38.44	-58.506	-41.552	70.070	0.69907	-0.62299	0.19388	-0.29239	31.0	13111	100
2025-3-27 18:23:7.187	WT901BLE68-01(48591DE3C19B)	-0.211	-1.247	0.227	14.221	-105.652	208.740	-81.43	-0.44	-36.97	-58.506	-41.552	70.070	0.69907	-0.62299	0.19388	-0.29239	31.0	13111	100
2025-3-27 18:23:7.187	WT901BLE68-01(48591DE3C19B)	-0.172	-1.247	0.227	14.221	-105.652	208.740	-81.25	1.58	-35.58	-58.506	-41.552	70.070	0.69907	-0.62299	0.19388	-0.29239	31.0	13111	100
2025-3-27 18:23:7.246	WT901BLE68-01(48591DE3C19B)	-0.172	-1.297	0.226	24.414	-78.186	216.187	-80.97	3.64	-34.33	-58.506	-41.552	70.070	0.69907	-0.62299	0.19388	-0.29239	31.0	13111	100
2025-3-27 18:23:7.247	WT901BLE68-01(48591DE3C19B)	-0.169	-1.297	0.226	24.414	-78.186	216.187	-80.62	5.73	-33.20	-58.506	-41.552	70.070	0.69907	-0.62299	0.19388	-0.29239	31.0	13111	100
2025-3-27 18:23:7.247	WT901BLE68-01(48591DE3C19B)	-0.169	-1.303	0.207	32.898	-46.814	219.116	-80.20	7.84	-32.23	-58.506	-41.552	70.070	0.69907	-0.62299	0.19388	-0.29239	31.0	13111	100
2025-3-27 18:23:7.247	WT901BLE68-01(48591DE3C19B)	-0.200	-1.303	0.207	32.898	-46.814	219.116	-79.73	9.95	-31.39	-58.506	-41.552	70.070	0.69907	-0.62299	0.19388	-0.29239	31.0	13111	100
2025-3-27 18:23:7.276	WT901BLE68-01(48591DE3C19B)	-0.200	-1.251	0.187	37.903	-20.569	217.346	-79.22	12.06	-30.68	-58.506	-41.552	70.070	0.69907	-0.62299	0.19388	-0.29239	31.0	13111	100
2025-3-27 18:23:7.276	WT901BLE68-01(48591DE3C19B)	-0.225	-1.251	0.187	37.903	-20.569	217.346	-78.70	14.17	-30.08	-58.506	-41.552	70.070	0.69907	-0.62299	0.19388	-0.29239	31.0	13111	100
2025-3-27 18:23:7.276	WT901BLE68-01(48591DE3C19B)	-0.225	-1.166	0.163	38.757	-2.136	212.891	-78.17	16.24	-29.56	-58.506	-41.552	70.070	0.69907	-0.62299	0.19388	-0.29239	31.0	13111	100
2025-3-27 18:23:7.276	WT901BLE68-01(48591DE3C19B)	-0.237	-1.166	0.163	38.757	-2.136	212.891	-77.65	18.30	-29.12	-58.506	-41.552	70.070	0.69907	-0.62299	0.19388	-0.29239	31.0	13111	100
2025-3-27 18:23:7.307	WT901BLE68-01(48591DE3C19B)	-0.237	-1.100	0.137	36.987	9.766	208.130	-77.14	20.32	-28.73	-58.506	-41.552	70.070	0.69907	-0.62299	0.19388	-0.29239	31.0	13111	100
2025-3-27 18:23:7.307	WT901BLE68-01(48591DE3C19B)	-0.264	-1.100	0.137	36.987	9.766	208.130	-76.65	22.32	-28.39	-58.506	-41.552	70.070	0.69907	-0.62299	0.19388	-0.29239	31.0	13111	100
2025-3-27 18:23:7.307	WT901BLE68-01(48591DE3C19B)	-0.264	-1.065	0.102	34.058	13.062	203.491	-76.16	24.30	-28.05	-58.506	-41.552	70.070	0.69907	-0.62299	0.19388	-0.29239	31.0	13111	100
2025-3-27 18:23:7.307	WT901BLE68-01(48591DE3C19B)	-0.286	-1.065	0.102	34.058	13.062	203.491	-75.68	26.23	-27.71	-58.506	-41.552	70.070	0.69907	-0.62299	0.19388	-0.29239	31.0	13111	100
2025-3-27 18:23:7.371	WT901BLE68-01(48591DE3C19B)	-0.286	-1.048	0.067	31.311	6.958	197.144	-75.18	28.11	-27.33	-58.506	-41.552	70.070	0.69907	-0.62299	0.19388	-0.29239	31.0	13111	100
2025-3-27 18:23:7.371	WT901BLE68-01(48591DE3C19B)	-0.289	-1.048	0.067	31.311	6.958	197.144	-74.68	29.94	-26.91	-58.506	-41.552	70.070	0.69907	-0.62299	0.19388	-0.29239	31.0	13111	100
2025-3-27 18:23:7.371	WT901BLE68-01(48591DE3C19B)	-0.289	-1.025	0.047	28.931	-5.615	189.880	-74.13	31.71	-26.39	-58.506	-41.552	70.070	0.69907	-0.62299	0.19388	-0.29239	31.0	13111	100
2025-3-27 18:23:7.371	WT901BLE68-01(48591DE3C19B)	-0.286	-1.025	0.047	28.931	-5.615	189.880	-73.54	33.41	-25.80	-58.506	-41.552	70.070	0.69907	-0.62299	0.19388	-0.29239	31.0	13111	100
2025-3-27 18:23:7.399	WT901BLE68-01(48591DE3C19B)	-0.286	-1.011	0.041	25.940	-19.409	180.969	-72.91	35.04	-25.11	-61.838	-46.550	63.210	0.69907	-0.62299	0.19388	-0.29239	31.0	13111	100
2025-3-27 18:23:7.399	WT901BLE68-01(48591DE3C19B)	-0.289	-1.011	0.041	25.940	-19.409	180.969	-72.21	36.58	-24.33	-61.838	-46.550	63.210	0.69907	-0.62299	0.19388	-0.29239	31.0	13111	100
2025-3-27 18:23:7.399	WT901BLE68-01(48591DE3C19B)	-0.289	-1.022	0.038	22.827	-32.104	169.189	-71.47	38.04	-23.46	-61.838	-46.550	63.210	0.69907	-0.62299	0.19388	-0.29239	31.0	13111	100
2025-3-27 18:23:7.399	WT901BLE68-01(48591DE3C19B)	-0.289	-1.022	0.038	22.827	-32.104	169.189	-70.67	39.40	-22.49	-61.838	-46.550	63.210	0.69907	-0.62299	0.19388	-0.29239	31.0	13111	100
2025-3-27 18:23:7.428	WT901BLE68-01(48591DE3C19B)	-0.289	-1.071	0.067	18.677	-42.297	155.457	-69.83	40.67	-21.47	-61.838	-46.550	63.210	0.69907	-0.62299	0.19388	-0.29239	31.0	13111	100
2025-3-27 18:23:7.428	WT901BLE68-01(48591DE3C19B)	-0.307	-1.071	0.067	18.677	-42.297	155.457	-68.96	41.82	-20.37	-61.838	-46.550	63.210	0.69907	-0.62299	0.19388	-0.29239	31.0	13111	100
2025-3-27 18:23:7.428	WT901BLE68-01(48591DE3C19B)	-0.307	-1.132	0.095	16.785	-52.917	141.052	-68.04	42.89	-19.21	-61.838	-46.550	63.210	0.69907	-0.62299	0.19388	-0.29239	31.0	13111	100
2025-3-27 18:23:7.428	WT901BLE68-01(48591DE3C19B)	-0.293	-1.132	0.095	16.785	-52.917	141.052	-67.06	43.84	-17.98	-61.838	-46.550	63.210	0.69907	-0.62299	0.19388	-0.29239	31.0	13111	100
2025-3-27 18:23:7.487	WT901BLE68-01(48591DE3C19B)	-0.293	-1.144	0.117	15.991	-59.021	127.563	-66.06	44.69	-16.72	-61.838	-46.550	63.210	0.69907	-0.62299	0.19388	-0.29239	31.0	13111	100
2025-3-27 18:23:7.487	WT901BLE68-01(48591DE3C19B)	-0.268	-1.144	0.117	15.991	-59.021	127.563	-65.02	45.46	-15.42	-61.838	-46.550	63.210	0.69907	-0.62299	0.19388	-0.29239	31.0	13111	100
2025-3-27 18:23:7.487	WT901BLE68-01(48591DE3C19B)	-0.268	-1.171	0.117	13.000	-59.021	116.272	-63.99	46.15	-14.14	-61.838	-46.550	63.210	0.69907	-0.62299	0.19388	-0.29239	31.0	13111	100
2025-3-27 18:23:7.487	WT901BLE68-01(48591DE3C19B)	-0.240	-1.171	0.117	13.000	-59.021	116.272	-62.98	46.76	-12.87	-61.838	-46.550	63.210	0.69907	-0.62299	0.19388	-0.29239	31.0	13111	100
2025-3-27 18:23:7.516	WT901BLE68-01(48591DE3C19B)	-0.240	-1.200	0.126	10.132	-54.321	104.797	-62.01	47.32	-11.65	-61.838	-46.550	63.210	0.69907	-0.62299	0.19388	-0.29239	31.0	13111	100
2025-3-27 18:23:7.516	WT901BLE68-01(48591DE3C19B)	-0.250	-1.200	0.126	10.132	-54.321	104.797	-61.08	47.83	-10.48	-61.838	-46.550	63.210	0.69907	-0.62299	0.19388	-0.29239	31.0	13111	100
2025-3-27 18:23:7.516	WT901BLE68-01(48591DE3C19B)	-0.250	-1.240	0.167	7.080	-49.805	91.797	-60.21	48.27	-9.37	-61.838	-46.550	63.210	0.69907	-0.62299	0.19388	-0.29239	31.0	13111	100
2025-3-27 18:23:7.516	WT901BLE68-01(48591DE3C19B)	-0.251	-1.240	0.167	7.080	-49.805	91.797	-59.40	48.65	-8.34	-61.838	-46.550	63.210	0.69907	-0.62299	0.19388	-0.29239	31.0	13111	100
