time	DeviceName	AccX(g)	AccY(g)	AccZ(g)	AsX(°/s)	AsY(°/s)	AsZ(°/s)	AngleX(°)	AngleY(°)	AngleZ(°)	HX(uT)	HY(uT)	HZ(uT)	Q0()	Q1()	Q2()	Q3()	Temperature(°C)	Version()	Battery level(%)
2025-3-27 18:24:55.274	WT901BLE68-01(48591DE3C19B)	-0.182	-0.938	0.281	-1.770	-1.221	-4.822	-71.66	12.57	170.93	-72.716	-56.742	-6.076	-0.05200	0.19559	0.56125	-0.80246	31.1	13111	100
2025-3-27 18:24:55.274	WT901BLE68-01(48591DE3C19B)	-0.233	-0.938	0.281	-1.770	-1.221	-4.822	-71.67	12.49	171.38	-72.716	-56.742	-6.076	-0.05200	0.19559	0.56125	-0.80246	31.1	13111	100
2025-3-27 18:24:55.274	WT901BLE68-01(48591DE3C19B)	-0.233	-0.944	0.285	-2.075	0.061	-4.211	-71.68	12.43	171.80	-72.716	-56.742	-6.076	-0.05200	0.19559	0.56125	-0.80246	31.1	13111	100
2025-3-27 18:24:55.274	WT901BLE68-01(48591DE3C19B)	-0.252	-0.944	0.285	-2.075	0.061	-4.211	-71.70	12.37	172.23	-72.716	-56.742	-6.076	-0.05200	0.19559	0.56125	-0.80246	31.1	13111	100
2025-3-27 18:24:55.306	WT901BLE68-01(48591DE3C19B)	-0.252	-0.951	0.294	-1.831	-4.578	-5.920	-71.70	12.28	172.70	-73.794	-55.762	-5.880	-0.05200	0.19559	0.56125	-0.80246	31.1	13111	100
2025-3-27 18:24:55.306	WT901BLE68-01(48591DE3C19B)	-0.195	-0.951	0.294	-1.831	-4.578	-5.920	-71.71	12.19	173.16	-73.794	-55.762	-5.880	-0.05200	0.19559	0.56125	-0.80246	31.1	13111	100
2025-3-27 18:24:55.306	WT901BLE68-01(48591DE3C19B)	-0.195	-0.943	0.302	-1.770	-9.949	-7.263	-71.71	12.08	173.67	-73.794	-55.762	-5.880	-0.05200	0.19559	0.56125	-0.80246	31.1	13111	100
2025-3-27 18:24:55.306	WT901BLE68-01(48591DE3C19B)	-0.157	-0.943	0.302	-1.770	-9.949	-7.263	-71.71	11.97	174.17	-73.794	-55.762	-5.880	-0.05200	0.19559	0.56125	-0.80246	31.1	13111	100
2025-3-27 18:24:55.364	WT901BLE68-01(48591DE3C19B)	-0.157	-0.938	0.307	-2.258	-11.963	-6.592	-71.71	11.86	174.69	-73.794	-55.762	-5.880	-0.05200	0.19559	0.56125	-0.80246	31.1	13111	100
2025-3-27 18:24:55.364	WT901BLE68-01(48591DE3C19B)	-0.164	-0.938	0.307	-2.258	-11.963	-6.592	-71.71	11.74	175.20	-73.794	-55.762	-5.880	-0.05200	0.19559	0.56125	-0.80246	31.1	13111	100
2025-3-27 18:24:55.365	WT901BLE68-01(48591DE3C19B)	-0.164	-0.936	0.307	-2.930	-13.062	-5.432	-71.72	11.65	175.74	-73.794	-55.762	-5.880	-0.05200	0.19559	0.56125	-0.80246	31.1	13111	100
2025-3-27 18:24:55.365	WT901BLE68-01(48591DE3C19B)	-0.156	-0.936	0.307	-2.930	-13.062	-5.432	-71.72	11.54	176.26	-73.794	-55.762	-5.880	-0.05200	0.19559	0.56125	-0.80246	31.1	13111	100
2025-3-27 18:24:55.423	WT901BLE68-01(48591DE3C19B)	-0.156	-0.937	0.303	-3.662	-10.071	-4.883	-71.74	11.45	176.76	-73.794	-55.762	-5.880	-0.05200	0.19559	0.56125	-0.80246	31.1	13111	100
2025-3-27 18:24:55.423	WT901BLE68-01(48591DE3C19B)	-0.146	-0.937	0.303	-3.662	-10.071	-4.883	-71.76	11.37	177.26	-73.794	-55.762	-5.880	-0.05200	0.19559	0.56125	-0.80246	31.1	13111	100
2025-3-27 18:24:55.424	WT901BLE68-01(48591DE3C19B)	-0.146	-0.936	0.298	-4.272	-3.601	-4.211	-71.80	11.30	177.69	-73.794	-55.762	-5.880	-0.05200	0.19559	0.56125	-0.80246	31.1	13111	100
2025-3-27 18:24:55.424	WT901BLE68-01(48591DE3C19B)	-0.163	-0.936	0.298	-4.272	-3.601	-4.211	-71.83	11.24	178.13	-73.794	-55.762	-5.880	-0.05200	0.19559	0.56125	-0.80246	31.1	13111	100
2025-3-27 18:24:55.424	WT901BLE68-01(48591DE3C19B)	-0.163	-0.936	0.293	-5.249	0.122	-3.235	-71.88	11.20	178.52	-73.794	-55.762	-5.880	-0.05200	0.19559	0.56125	-0.80246	31.1	13111	100
2025-3-27 18:24:55.425	WT901BLE68-01(48591DE3C19B)	-0.176	-0.936	0.293	-5.249	0.122	-3.235	-71.93	11.16	178.92	-73.794	-55.762	-5.880	-0.05200	0.19559	0.56125	-0.80246	31.1	13111	100
2025-3-27 18:24:55.425	WT901BLE68-01(48591DE3C19B)	-0.176	-0.941	0.287	-6.226	0.122	-3.113	-71.99	11.12	179.31	-73.794	-55.762	-5.880	-0.05200	0.19559	0.56125	-0.80246	31.1	13111	100
2025-3-27 18:24:55.425	WT901BLE68-01(48591DE3C19B)	-0.171	-0.941	0.287	-6.226	0.122	-3.113	-72.05	11.09	179.71	-73.794	-55.762	-5.880	-0.05200	0.19559	0.56125	-0.80246	31.1	13111	100
2025-3-27 18:24:55.484	WT901BLE68-01(48591DE3C19B)	-0.171	-0.952	0.281	-7.019	-1.770	-4.089	-72.12	11.03	-179.88	-73.794	-55.762	-5.880	-0.05200	0.19559	0.56125	-0.80246	31.1	13111	100
2025-3-27 18:24:55.484	WT901BLE68-01(48591DE3C19B)	-0.176	-0.952	0.281	-7.019	-1.770	-4.089	-72.19	10.98	-179.48	-73.794	-55.762	-5.880	-0.05200	0.19559	0.56125	-0.80246	31.1	13111	100
2025-3-27 18:24:55.484	WT901BLE68-01(48591DE3C19B)	-0.176	-0.964	0.275	-7.507	-4.761	-5.127	-72.26	10.90	-179.05	-73.794	-55.762	-5.880	-0.05200	0.19559	0.56125	-0.80246	31.1	13111	100
2025-3-27 18:24:55.484	WT901BLE68-01(48591DE3C19B)	-0.174	-0.964	0.275	-7.507	-4.761	-5.127	-72.32	10.83	-178.62	-73.794	-55.762	-5.880	-0.05200	0.19559	0.56125	-0.80246	31.1	13111	100
2025-3-27 18:24:55.514	WT901BLE68-01(48591DE3C19B)	-0.152	-0.974	0.270	-8.179	-10.254	-6.348	-72.39	10.73	-178.15	-73.794	-55.762	-5.880	-0.05200	0.19559	0.56125	-0.80246	31.1	13111	100
2025-3-27 18:24:55.514	WT901BLE68-01(48591DE3C19B)	-0.152	-0.978	0.259	-8.545	-15.442	-7.019	-72.45	10.62	-177.65	-73.794	-55.762	-5.880	-0.05200	0.19559	0.56125	-0.80246	31.1	13111	100
2025-3-27 18:24:55.514	WT901BLE68-01(48591DE3C19B)	-0.145	-0.978	0.259	-8.545	-15.442	-7.019	-72.52	10.50	-177.13	-73.794	-55.762	-5.880	-0.05200	0.19559	0.56125	-0.80246	31.1	13111	100
2025-3-27 18:24:55.514	WT901BLE68-01(48591DE3C19B)	-0.145	-0.983	0.255	-9.399	-20.020	-7.324	-72.58	10.38	-176.59	-73.794	-55.762	-5.880	-0.05200	0.19559	0.56125	-0.80246	31.1	13111	100
2025-3-27 18:24:55.544	WT901BLE68-01(48591DE3C19B)	-0.146	-0.983	0.255	-9.399	-20.020	-7.324	-72.65	10.23	-176.03	-73.794	-55.762	-5.880	0.08054	0.05145	0.59210	-0.80011	31.1	13111	100
2025-3-27 18:24:55.544	WT901BLE68-01(48591DE3C19B)	-0.146	-1.001	0.257	-9.827	-25.757	-7.996	-72.71	10.09	-175.45	-73.794	-55.762	-5.880	0.08054	0.05145	0.59210	-0.80011	31.1	13111	100
2025-3-27 18:24:55.545	WT901BLE68-01(48591DE3C19B)	-0.148	-1.001	0.257	-9.827	-25.757	-7.996	-72.77	9.93	-174.84	-73.794	-55.762	-5.880	0.08054	0.05145	0.59210	-0.80011	31.1	13111	100
2025-3-27 18:24:55.545	WT901BLE68-01(48591DE3C19B)	-0.148	-0.993	0.261	-7.813	-31.433	-8.850	-72.82	9.75	-174.21	-73.794	-55.762	-5.880	0.08054	0.05145	0.59210	-0.80011	31.1	13111	100
2025-3-27 18:24:55.604	WT901BLE68-01(48591DE3C19B)	-0.144	-0.993	0.261	-7.813	-31.433	-8.850	-72.86	9.56	-173.56	-73.794	-55.762	-5.880	0.08054	0.05145	0.59210	-0.80011	31.1	13111	100
2025-3-27 18:24:55.604	WT901BLE68-01(48591DE3C19B)	-0.144	-0.959	0.271	-5.798	-35.156	-8.789	-72.89	9.38	-172.89	-73.794	-55.762	-5.880	0.08054	0.05145	0.59210	-0.80011	31.1	13111	100
2025-3-27 18:24:55.604	WT901BLE68-01(48591DE3C19B)	-0.107	-0.959	0.271	-5.798	-35.156	-8.789	-72.90	9.18	-172.20	-73.794	-55.762	-5.880	0.08054	0.05145	0.59210	-0.80011	31.1	13111	100
2025-3-27 18:24:55.604	WT901BLE68-01(48591DE3C19B)	-0.107	-0.940	0.284	-3.174	-33.813	-6.775	-72.91	9.00	-171.52	-73.794	-55.762	-5.880	0.08054	0.05145	0.59210	-0.80011	31.1	13111	100
2025-3-27 18:24:55.648	WT901BLE68-01(48591DE3C19B)	-0.035	-0.940	0.284	-3.174	-33.813	-6.775	-72.89	8.83	-170.85	-73.794	-55.762	-5.880	0.08054	0.05145	0.59210	-0.80011	31.1	13111	100
2025-3-27 18:24:55.648	WT901BLE68-01(48591DE3C19B)	-0.035	-0.883	0.276	1.953	-26.001	-2.747	-72.86	8.69	-170.21	-73.794	-55.762	-5.880	0.08054	0.05145	0.59210	-0.80011	31.1	13111	100
2025-3-27 18:24:55.648	WT901BLE68-01(48591DE3C19B)	0.050	-0.883	0.276	1.953	-26.001	-2.747	-72.81	8.57	-169.61	-73.794	-55.762	-5.880	0.08054	0.05145	0.59210	-0.80011	31.1	13111	100
2025-3-27 18:24:55.648	WT901BLE68-01(48591DE3C19B)	0.050	-0.803	0.255	5.066	-8.423	1.831	-72.75	8.51	-169.08	-73.794	-55.762	-5.880	0.08054	0.05145	0.59210	-0.80011	31.1	13111	100
2025-3-27 18:24:55.694	WT901BLE68-01(48591DE3C19B)	0.132	-0.803	0.255	5.066	-8.423	1.831	-72.69	8.49	-168.63	-73.794	-55.762	-5.880	0.08054	0.05145	0.59210	-0.80011	31.1	13111	100
2025-3-27 18:24:55.695	WT901BLE68-01(48591DE3C19B)	0.132	-0.778	0.232	3.540	16.785	3.540	-72.64	8.50	-168.31	-73.794	-55.762	-5.880	0.08054	0.05145	0.59210	-0.80011	31.1	13111	100
2025-3-27 18:24:55.695	WT901BLE68-01(48591DE3C19B)	0.129	-0.778	0.232	3.540	16.785	3.540	-72.62	8.56	-168.11	-73.794	-55.762	-5.880	0.08054	0.05145	0.59210	-0.80011	31.1	13111	100
2025-3-27 18:24:55.695	WT901BLE68-01(48591DE3C19B)	0.129	-0.887	0.233	-1.343	42.175	1.160	-72.64	8.64	-168.02	-76.146	-55.174	-5.586	0.08054	0.05145	0.59210	-0.80011	31.1	13111	100
2025-3-27 18:24:55.696	WT901BLE68-01(48591DE3C19B)	0.029	-0.887	0.233	-1.343	42.175	1.160	-72.70	8.74	-168.07	-76.146	-55.174	-5.586	0.08054	0.05145	0.59210	-0.80011	31.1	13111	100
2025-3-27 18:24:55.696	WT901BLE68-01(48591DE3C19B)	0.029	-1.126	0.281	-6.958	55.725	-5.554	-72.79	8.82	-168.19	-76.146	-55.174	-5.586	0.08054	0.05145	0.59210	-0.80011	31.1	13111	100
2025-3-27 18:24:55.696	WT901BLE68-01(48591DE3C19B)	-0.108	-1.126	0.281	-6.958	55.725	-5.554	-72.93	8.88	-168.38	-76.146	-55.174	-5.586	0.08054	0.05145	0.59210	-0.80011	31.1	13111	100
2025-3-27 18:24:55.696	WT901BLE68-01(48591DE3C19B)	-0.108	-1.361	0.332	-4.700	54.504	-14.404	-73.05	8.90	-168.58	-76.146	-55.174	-5.586	0.08054	0.05145	0.59210	-0.80011	31.1	13111	100
2025-3-27 18:24:55.814	WT901BLE68-01(48591DE3C19B)	-0.180	-1.361	0.332	-4.700	54.504	-14.404	-73.17	8.88	-168.79	-76.146	-55.174	-5.586	0.08054	0.05145	0.59210	-0.80011	31.1	13111	100
2025-3-27 18:24:55.814	WT901BLE68-01(48591DE3C19B)	-0.180	-1.370	0.367	2.991	45.959	-23.010	-73.25	8.80	-168.96	-76.146	-55.174	-5.586	0.08054	0.05145	0.59210	-0.80011	31.1	13111	100
2025-3-27 18:24:55.814	WT901BLE68-01(48591DE3C19B)	-0.208	-1.370	0.367	2.991	45.959	-23.010	-73.28	8.67	-169.11	-76.146	-55.174	-5.586	0.08054	0.05145	0.59210	-0.80011	31.1	13111	100
2025-3-27 18:24:55.814	WT901BLE68-01(48591DE3C19B)	-0.208	-1.203	0.370	8.911	37.537	-28.442	-73.28	8.51	-169.23	-76.146	-55.174	-5.586	0.08054	0.05145	0.59210	-0.80011	31.1	13111	100
2025-3-27 18:24:55.815	WT901BLE68-01(48591DE3C19B)	-0.187	-1.203	0.370	8.911	37.537	-28.442	-73.26	8.32	-169.32	-76.146	-55.174	-5.586	0.08054	0.05145	0.59210	-0.80011	31.1	13111	100
2025-3-27 18:24:55.815	WT901BLE68-01(48591DE3C19B)	-0.187	-0.935	0.340	5.737	31.799	-36.072	-73.24	8.09	-169.39	-76.146	-55.174	-5.586	0.08054	0.05145	0.59210	-0.80011	31.1	13111	100
2025-3-27 18:24:55.815	WT901BLE68-01(48591DE3C19B)	-0.170	-0.935	0.340	5.737	31.799	-36.072	-73.23	7.82	-169.45	-76.146	-55.174	-5.586	0.08054	0.05145	0.59210	-0.80011	31.1	13111	100
2025-3-27 18:24:55.815	WT901BLE68-01(48591DE3C19B)	-0.170	-0.771	0.304	-1.465	23.804	-41.504	-73.26	7.51	-169.48	-76.146	-55.174	-5.586	0.08054	0.05145	0.59210	-0.80011	31.1	13111	100
2025-3-27 18:24:55.816	WT901BLE68-01(48591DE3C19B)	-0.179	-0.771	0.304	-1.465	23.804	-41.504	-73.31	7.18	-169.49	-76.146	-55.174	-5.586	0.08054	0.05145	0.59210	-0.80011	31.1	13111	100
2025-3-27 18:24:55.816	WT901BLE68-01(48591DE3C19B)	-0.179	-0.669	0.295	-7.751	11.902	-45.715	-73.39	6.81	-169.44	-76.146	-55.174	-5.586	0.08054	0.05145	0.59210	-0.80011	31.1	13111	100
2025-3-27 18:24:55.816	WT901BLE68-01(48591DE3C19B)	-0.205	-0.669	0.295	-7.751	11.902	-45.715	-73.49	6.41	-169.34	-76.146	-55.174	-5.586	0.08054	0.05145	0.59210	-0.80011	31.1	13111	100
2025-3-27 18:24:55.816	WT901BLE68-01(48591DE3C19B)	-0.205	-0.639	0.303	-13.794	-0.793	-49.927	-73.61	5.98	-169.20	-76.146	-55.174	-5.586	0.08054	0.05145	0.59210	-0.80011	31.1	13111	100
2025-3-27 18:24:55.873	WT901BLE68-01(48591DE3C19B)	-0.241	-0.639	0.303	-13.794	-0.793	-49.927	-73.76	5.52	-169.00	-76.146	-55.174	-5.586	0.08054	0.05145	0.59210	-0.80011	31.1	13111	100
2025-3-27 18:24:55.873	WT901BLE68-01(48591DE3C19B)	-0.241	-0.647	0.295	-16.663	-12.024	-52.612	-73.92	5.04	-168.76	-76.146	-55.174	-5.586	0.08054	0.05145	0.59210	-0.80011	31.1	13111	100
2025-3-27 18:24:55.873	WT901BLE68-01(48591DE3C19B)	-0.291	-0.647	0.295	-16.663	-12.024	-52.612	-74.08	4.53	-168.47	-76.146	-55.174	-5.586	0.08054	0.05145	0.59210	-0.80011	31.1	13111	100
2025-3-27 18:24:55.873	WT901BLE68-01(48591DE3C19B)	-0.291	-0.675	0.284	-17.761	-24.170	-52.917	-74.25	4.02	-168.12	-76.146	-55.174	-5.586	0.08054	0.05145	0.59210	-0.80011	31.1	13111	100
2025-3-27 18:24:55.905	WT901BLE68-01(48591DE3C19B)	-0.325	-0.675	0.284	-17.761	-24.170	-52.917	-74.42	3.50	-167.73	-76.146	-55.174	-5.586	0.10342	-0.04037	0.60355	-0.78949	31.1	13111	100
2025-3-27 18:24:55.905	WT901BLE68-01(48591DE3C19B)	-0.325	-0.715	0.279	-17.944	-38.818	-51.392	-74.58	2.97	-167.27	-76.146	-55.174	-5.586	0.10342	-0.04037	0.60355	-0.78949	31.1	13111	100
2025-3-27 18:24:55.905	WT901BLE68-01(48591DE3C19B)	-0.350	-0.715	0.279	-17.944	-38.818	-51.392	-74.75	2.44	-166.73	-76.146	-55.174	-5.586	0.10342	-0.04037	0.60355	-0.78949	31.1	13111	100
2025-3-27 18:24:55.905	WT901BLE68-01(48591DE3C19B)	-0.350	-0.771	0.304	-18.311	-55.725	-47.913	-74.92	1.92	-166.12	-76.146	-55.174	-5.586	0.10342	-0.04037	0.60355	-0.78949	31.1	13111	100
2025-3-27 18:24:55.933	WT901BLE68-01(48591DE3C19B)	-0.348	-0.771	0.304	-18.311	-55.725	-47.913	-75.10	1.40	-165.43	-76.146	-55.174	-5.586	0.10342	-0.04037	0.60355	-0.78949	31.1	13111	100
2025-3-27 18:24:55.933	WT901BLE68-01(48591DE3C19B)	-0.348	-0.833	0.348	-17.151	-70.740	-42.786	-75.27	0.90	-164.66	-76.146	-55.174	-5.586	0.10342	-0.04037	0.60355	-0.78949	31.1	13111	100
2025-3-27 18:24:55.933	WT901BLE68-01(48591DE3C19B)	-0.350	-0.833	0.348	-17.151	-70.740	-42.786	-75.44	0.41	-163.82	-76.146	-55.174	-5.586	0.10342	-0.04037	0.60355	-0.78949	31.1	13111	100
2025-3-27 18:24:55.933	WT901BLE68-01(48591DE3C19B)	-0.350	-0.875	0.393	-14.282	-81.299	-36.133	-75.58	-0.03	-162.86	-76.146	-55.174	-5.586	0.10342	-0.04037	0.60355	-0.78949	31.1	13111	100
2025-3-27 18:24:55.994	WT901BLE68-01(48591DE3C19B)	-0.333	-0.875	0.393	-14.282	-81.299	-36.133	-75.72	-0.47	-161.91	-76.146	-55.174	-5.586	0.10342	-0.04037	0.60355	-0.78949	31.1	13111	100
2025-3-27 18:24:55.994	WT901BLE68-01(48591DE3C19B)	-0.333	-0.910	0.419	-12.329	-85.571	-28.381	-75.86	-0.84	-160.91	-76.146	-55.174	-5.586	0.10342	-0.04037	0.60355	-0.78949	31.1	13111	100
2025-3-27 18:24:55.994	WT901BLE68-01(48591DE3C19B)	-0.281	-0.910	0.419	-12.329	-85.571	-28.381	-75.99	-1.20	-159.91	-76.146	-55.174	-5.586	0.10342	-0.04037	0.60355	-0.78949	31.1	13111	100
2025-3-27 18:24:55.994	WT901BLE68-01(48591DE3C19B)	-0.281	-0.970	0.408	-12.329	-78.918	-20.874	-76.12	-1.47	-158.96	-76.146	-55.174	-5.586	0.10342	-0.04037	0.60355	-0.78949	31.1	13111	100
2025-3-27 18:24:56.23	WT901BLE68-01(48591DE3C19B)	-0.251	-0.970	0.408	-12.329	-78.918	-20.874	-76.26	-1.74	-158.01	-76.146	-55.174	-5.586	0.10342	-0.04037	0.60355	-0.78949	31.1	13111	100
2025-3-27 18:24:56.24	WT901BLE68-01(48591DE3C19B)	-0.251	-1.061	0.415	-10.437	-65.552	-10.132	-76.37	-1.87	-157.16	-76.146	-55.174	-5.586	0.10342	-0.04037	0.60355	-0.78949	31.1	13111	100
2025-3-27 18:24:56.24	WT901BLE68-01(48591DE3C19B)	-0.250	-1.061	0.415	-10.437	-65.552	-10.132	-76.49	-2.01	-156.32	-76.146	-55.174	-5.586	0.10342	-0.04037	0.60355	-0.78949	31.1	13111	100
2025-3-27 18:24:56.24	WT901BLE68-01(48591DE3C19B)	-0.250	-1.168	0.451	-8.545	-54.688	-0.061	-76.57	-2.02	-155.56	-76.146	-55.174	-5.586	0.10342	-0.04037	0.60355	-0.78949	31.1	13111	100
2025-3-27 18:24:56.55	WT901BLE68-01(48591DE3C19B)	-0.203	-1.168	0.451	-8.545	-54.688	-0.061	-76.67	-2.03	-154.80	-76.146	-55.174	-5.586	0.10342	-0.04037	0.60355	-0.78949	31.1	13111	100
2025-3-27 18:24:56.56	WT901BLE68-01(48591DE3C19B)	-0.203	-1.288	0.443	-9.033	-42.175	8.972	-76.76	-1.93	-154.14	-76.146	-55.174	-5.586	0.10342	-0.04037	0.60355	-0.78949	31.1	13111	100
2025-3-27 18:24:56.56	WT901BLE68-01(48591DE3C19B)	-0.146	-1.288	0.443	-9.033	-42.175	8.972	-76.85	-1.84	-153.48	-76.146	-55.174	-5.586	0.10342	-0.04037	0.60355	-0.78949	31.1	13111	100
2025-3-27 18:24:56.56	WT901BLE68-01(48591DE3C19B)	-0.146	-1.366	0.431	-6.592	-21.118	16.479	-76.91	-1.63	-153.01	-76.146	-55.174	-5.586	0.10342	-0.04037	0.60355	-0.78949	31.1	13111	100
2025-3-27 18:24:56.113	WT901BLE68-01(48591DE3C19B)	-0.141	-1.366	0.431	-6.592	-21.118	16.479	-76.97	-1.43	-152.53	-76.146	-55.174	-5.586	0.10342	-0.04037	0.60355	-0.78949	31.1	13111	100
2025-3-27 18:24:56.114	WT901BLE68-01(48591DE3C19B)	-0.141	-1.367	0.426	-4.883	3.967	20.447	-77.00	-1.13	-152.28	-75.166	-55.468	-5.684	0.10342	-0.04037	0.60355	-0.78949	31.1	13111	100
2025-3-27 18:24:56.114	WT901BLE68-01(48591DE3C19B)	-0.167	-1.367	0.426	-4.883	3.967	20.447	-77.04	-0.85	-152.03	-75.166	-55.468	-5.684	0.10342	-0.04037	0.60355	-0.78949	31.1	13111	100
2025-3-27 18:24:56.114	WT901BLE68-01(48591DE3C19B)	-0.167	-1.370	0.420	-8.362	22.827	18.372	-77.11	-0.54	-151.97	-75.166	-55.468	-5.684	0.10342	-0.04037	0.60355	-0.78949	31.1	13111	100
2025-3-27 18:24:56.143	WT901BLE68-01(48591DE3C19B)	-0.206	-1.370	0.420	-8.362	22.827	18.372	-77.18	-0.24	-151.91	-75.166	-55.468	-5.684	0.10342	-0.04037	0.60355	-0.78949	31.1	13111	100
2025-3-27 18:24:56.143	WT901BLE68-01(48591DE3C19B)	-0.206	-1.397	0.456	-10.925	34.790	13.977	-77.27	0.03	-151.97	-75.166	-55.468	-5.684	0.10342	-0.04037	0.60355	-0.78949	31.1	13111	100
2025-3-27 18:24:56.143	WT901BLE68-01(48591DE3C19B)	-0.314	-1.397	0.456	-10.925	34.790	13.977	-77.37	0.31	-152.03	-75.166	-55.468	-5.684	0.10342	-0.04037	0.60355	-0.78949	31.1	13111	100
2025-3-27 18:24:56.143	WT901BLE68-01(48591DE3C19B)	-0.314	-1.433	0.507	-12.634	38.269	9.460	-77.48	0.55	-152.14	-75.166	-55.468	-5.684	0.10342	-0.04037	0.60355	-0.78949	31.1	13111	100
2025-3-27 18:24:56.203	WT901BLE68-01(48591DE3C19B)	-0.447	-1.433	0.507	-12.634	38.269	9.460	-77.59	0.79	-152.24	-75.166	-55.468	-5.684	0.10342	-0.04037	0.60355	-0.78949	31.1	13111	100
2025-3-27 18:24:56.204	WT901BLE68-01(48591DE3C19B)	-0.447	-1.460	0.558	-13.123	28.015	5.188	-77.71	0.97	-152.27	-75.166	-55.468	-5.684	0.10342	-0.04037	0.60355	-0.78949	31.1	13111	100
2025-3-27 18:24:56.204	WT901BLE68-01(48591DE3C19B)	-0.500	-1.460	0.558	-13.123	28.015	5.188	-77.83	1.15	-152.28	-75.166	-55.468	-5.684	0.10342	-0.04037	0.60355	-0.78949	31.1	13111	100
2025-3-27 18:24:56.204	WT901BLE68-01(48591DE3C19B)	-0.500	-1.385	0.544	-8.606	6.287	4.517	-77.89	1.28	-152.09	-75.166	-55.468	-5.684	0.10342	-0.04037	0.60355	-0.78949	31.1	13111	100
2025-3-27 18:24:56.234	WT901BLE68-01(48591DE3C19B)	-0.446	-1.385	0.544	-8.606	6.287	4.517	-77.96	1.42	-151.91	-75.166	-55.468	-5.684	0.10342	-0.04037	0.60355	-0.78949	31.1	13111	100
2025-3-27 18:24:56.234	WT901BLE68-01(48591DE3C19B)	-0.446	-1.118	0.462	-1.099	-18.799	11.353	-77.95	1.57	-151.47	-75.166	-55.468	-5.684	0.10342	-0.04037	0.60355	-0.78949	31.1	13111	100
2025-3-27 18:24:56.234	WT901BLE68-01(48591DE3C19B)	-0.345	-1.118	0.462	-1.099	-18.799	11.353	-77.93	1.72	-151.04	-75.166	-55.468	-5.684	0.10342	-0.04037	0.60355	-0.78949	31.1	13111	100
2025-3-27 18:24:56.234	WT901BLE68-01(48591DE3C19B)	-0.345	-0.793	0.368	5.005	-38.635	26.978	-77.84	1.99	-150.39	-75.166	-55.468	-5.684	0.10342	-0.04037	0.60355	-0.78949	31.1	13111	100
2025-3-27 18:24:56.263	WT901BLE68-01(48591DE3C19B)	-0.245	-0.793	0.368	5.005	-38.635	26.978	-77.76	2.26	-149.73	-75.166	-55.468	-5.684	0.10342	-0.04037	0.60355	-0.78949	31.1	13111	100
2025-3-27 18:24:56.264	WT901BLE68-01(48591DE3C19B)	-0.245	-0.529	0.273	3.540	-57.678	39.185	-77.67	2.61	-148.87	-75.166	-55.468	-5.684	0.10342	-0.04037	0.60355	-0.78949	31.1	13111	100
2025-3-27 18:24:56.264	WT901BLE68-01(48591DE3C19B)	-0.178	-0.529	0.273	3.540	-57.678	39.185	-77.57	2.96	-148.02	-75.166	-55.468	-5.684	0.23462	-0.15454	0.60703	-0.74329	31.1	13111	100
2025-3-27 18:24:56.264	WT901BLE68-01(48591DE3C19B)	-0.178	-0.469	0.225	-3.052	-75.439	47.180	-77.53	3.35	-146.98	-75.166	-55.468	-5.684	0.23462	-0.15454	0.60703	-0.74329	31.1	13111	100
2025-3-27 18:24:56.323	WT901BLE68-01(48591DE3C19B)	-0.191	-0.469	0.225	-3.052	-75.439	47.180	-77.48	3.73	-145.94	-75.166	-55.468	-5.684	0.23462	-0.15454	0.60703	-0.74329	31.1	13111	100
2025-3-27 18:24:56.323	WT901BLE68-01(48591DE3C19B)	-0.191	-0.727	0.172	-10.681	-90.820	50.781	-77.49	4.11	-144.74	-75.166	-55.468	-5.684	0.23462	-0.15454	0.60703	-0.74329	31.1	13111	100
2025-3-27 18:24:56.323	WT901BLE68-01(48591DE3C19B)	-0.188	-0.727	0.172	-10.681	-90.820	50.781	-77.49	4.49	-143.55	-75.166	-55.468	-5.684	0.23462	-0.15454	0.60703	-0.74329	31.1	13111	100
2025-3-27 18:24:56.323	WT901BLE68-01(48591DE3C19B)	-0.188	-0.971	0.102	2.625	-99.243	55.359	-77.36	4.89	-142.27	-75.166	-55.468	-5.684	0.23462	-0.15454	0.60703	-0.74329	31.1	13111	100
2025-3-27 18:24:56.353	WT901BLE68-01(48591DE3C19B)	-0.141	-0.971	0.102	2.625	-99.243	55.359	-77.22	5.28	-140.97	-75.166	-55.468	-5.684	0.23462	-0.15454	0.60703	-0.74329	31.1	13111	100
2025-3-27 18:24:56.353	WT901BLE68-01(48591DE3C19B)	-0.141	-1.041	0.042	20.447	-98.633	60.852	-76.90	5.71	-139.67	-75.166	-55.468	-5.684	0.23462	-0.15454	0.60703	-0.74329	31.1	13111	100
2025-3-27 18:24:56.353	WT901BLE68-01(48591DE3C19B)	-0.150	-1.041	0.042	20.447	-98.633	60.852	-76.59	6.12	-138.36	-75.166	-55.468	-5.684	0.23462	-0.15454	0.60703	-0.74329	31.1	13111	100
2025-3-27 18:24:56.353	WT901BLE68-01(48591DE3C19B)	-0.150	-1.045	0.021	35.706	-95.947	59.631	-76.13	6.51	-137.07	-75.166	-55.468	-5.684	0.23462	-0.15454	0.60703	-0.74329	31.1	13111	100
2025-3-27 18:24:56.383	WT901BLE68-01(48591DE3C19B)	-0.154	-1.045	0.021	35.706	-95.947	59.631	-75.66	6.89	-135.77	-75.166	-55.468	-5.684	0.23462	-0.15454	0.60703	-0.74329	31.1	13111	100
2025-3-27 18:24:56.384	WT901BLE68-01(48591DE3C19B)	-0.154	-1.139	0.035	43.396	-93.872	57.678	-75.13	7.23	-134.50	-75.166	-55.468	-5.684	0.23462	-0.15454	0.60703	-0.74329	31.1	13111	100
2025-3-27 18:24:56.384	WT901BLE68-01(48591DE3C19B)	-0.071	-1.139	0.035	43.396	-93.872	57.678	-74.59	7.56	-133.23	-75.166	-55.468	-5.684	0.23462	-0.15454	0.60703	-0.74329	31.1	13111	100
2025-3-27 18:24:56.384	WT901BLE68-01(48591DE3C19B)	0.049	-1.127	0.032	58.533	-78.186	62.073	-73.93	7.95	-132.08	-75.166	-55.468	-5.684	0.23462	-0.15454	0.60703	-0.74329	31.1	13111	100
2025-3-27 18:24:56.444	WT901BLE68-01(48591DE3C19B)	0.049	-0.918	0.053	62.622	-46.692	69.458	-73.26	8.40	-131.08	-75.166	-55.468	-5.684	0.23462	-0.15454	0.60703	-0.74329	31.1	13111	100
2025-3-27 18:24:56.444	WT901BLE68-01(48591DE3C19B)	0.112	-0.918	0.053	62.622	-46.692	69.458	-72.59	8.92	-130.21	-75.166	-55.468	-5.684	0.23462	-0.15454	0.60703	-0.74329	31.1	13111	100
2025-3-27 18:24:56.445	WT901BLE68-01(48591DE3C19B)	0.112	-0.849	0.052	55.664	-0.916	75.134	-71.98	9.51	-129.55	-75.166	-55.468	-5.684	0.23462	-0.15454	0.60703	-0.74329	31.1	13111	100
2025-3-27 18:24:56.445	WT901BLE68-01(48591DE3C19B)	0.120	-0.849	0.052	55.664	-0.916	75.134	-71.43	10.18	-129.09	-75.166	-55.468	-5.684	0.23462	-0.15454	0.60703	-0.74329	31.1	13111	100
2025-3-27 18:24:56.473	WT901BLE68-01(48591DE3C19B)	0.120	-0.953	0.027	49.255	35.217	79.102	-70.96	10.91	-128.79	-75.166	-55.468	-5.684	0.23462	-0.15454	0.60703	-0.74329	31.1	13111	100
2025-3-27 18:24:56.474	WT901BLE68-01(48591DE3C19B)	0.122	-0.953	0.027	49.255	35.217	79.102	-70.53	11.71	-128.66	-75.166	-55.468	-5.684	0.23462	-0.15454	0.60703	-0.74329	31.1	13111	100
2025-3-27 18:24:56.474	WT901BLE68-01(48591DE3C19B)	0.122	-1.106	0.007	38.391	53.101	83.191	-70.19	12.54	-128.59	-75.166	-55.468	-5.684	0.23462	-0.15454	0.60703	-0.74329	31.1	13111	100
2025-3-27 18:24:56.474	WT901BLE68-01(48591DE3C19B)	0.016	-1.106	0.007	38.391	53.101	83.191	-69.92	13.41	-128.59	-91.336	-48.412	2.254	0.23462	-0.15454	0.60703	-0.74329	31.1	13111	100
2025-3-27 18:24:56.506	WT901BLE68-01(48591DE3C19B)	0.016	-1.330	-0.037	15.930	47.119	86.121	-69.76	14.28	-128.57	-91.336	-48.412	2.254	0.23462	-0.15454	0.60703	-0.74329	31.1	13111	100
2025-3-27 18:24:56.507	WT901BLE68-01(48591DE3C19B)	-0.081	-1.330	-0.037	15.930	47.119	86.121	-69.70	15.14	-128.50	-91.336	-48.412	2.254	0.23462	-0.15454	0.60703	-0.74329	31.1	13111	100
2025-3-27 18:24:56.507	WT901BLE68-01(48591DE3C19B)	-0.081	-1.679	-0.104	-7.629	28.625	85.876	-69.75	15.96	-128.34	-91.336	-48.412	2.254	0.23462	-0.15454	0.60703	-0.74329	31.1	13111	100
2025-3-27 18:24:56.507	WT901BLE68-01(48591DE3C19B)	-0.068	-1.679	-0.104	-7.629	28.625	85.876	-69.88	16.75	-128.10	-91.336	-48.412	2.254	0.23462	-0.15454	0.60703	-0.74329	31.1	13111	100
2025-3-27 18:24:56.564	WT901BLE68-01(48591DE3C19B)	-0.068	-1.851	-0.127	-14.709	7.324	88.623	-70.03	17.51	-127.74	-91.336	-48.412	2.254	0.23462	-0.15454	0.60703	-0.74329	31.1	13111	100
2025-3-27 18:24:56.564	WT901BLE68-01(48591DE3C19B)	0.103	-1.851	-0.127	-14.709	7.324	88.623	-70.19	18.23	-127.29	-91.336	-48.412	2.254	0.23462	-0.15454	0.60703	-0.74329	31.1	13111	100
2025-3-27 18:24:56.564	WT901BLE68-01(48591DE3C19B)	0.103	-1.577	-0.104	-18.250	-31.128	86.304	-70.29	18.88	-126.64	-91.336	-48.412	2.254	0.23462	-0.15454	0.60703	-0.74329	31.1	13111	100
2025-3-27 18:24:56.564	WT901BLE68-01(48591DE3C19B)	0.279	-1.577	-0.104	-18.250	-31.128	86.304	-70.35	19.45	-125.82	-91.336	-48.412	2.254	0.23462	-0.15454	0.60703	-0.74329	31.1	13111	100
2025-3-27 18:24:56.594	WT901BLE68-01(48591DE3C19B)	0.279	-1.459	-0.100	-35.217	-70.068	75.500	-70.43	19.89	-124.82	-91.336	-48.412	2.254	0.23462	-0.15454	0.60703	-0.74329	31.1	13111	100
2025-3-27 18:24:56.594	WT901BLE68-01(48591DE3C19B)	0.383	-1.459	-0.100	-35.217	-70.068	75.500	-70.54	20.21	-123.66	-91.336	-48.412	2.254	0.23462	-0.15454	0.60703	-0.74329	31.1	13111	100
2025-3-27 18:24:56.594	WT901BLE68-01(48591DE3C19B)	0.383	-1.428	-0.038	-36.072	-75.745	55.664	-70.64	20.42	-122.50	-91.336	-48.412	2.254	0.23462	-0.15454	0.60703	-0.74329	31.1	13111	100
2025-3-27 18:24:56.594	WT901BLE68-01(48591DE3C19B)	0.404	-1.428	-0.038	-36.072	-75.745	55.664	-70.74	20.53	-121.36	-91.336	-48.412	2.254	0.23462	-0.15454	0.60703	-0.74329	31.1	13111	100
2025-3-27 18:24:56.624	WT901BLE68-01(48591DE3C19B)	0.404	-1.328	0.017	-29.053	-45.227	35.156	-70.88	20.58	-120.42	-91.336	-48.412	2.254	0.23462	-0.15454	0.60703	-0.74329	31.1	13111	100
2025-3-27 18:24:56.624	WT901BLE68-01(48591DE3C19B)	0.438	-1.328	0.017	-29.053	-45.227	35.156	-71.04	20.58	-119.67	-91.336	-48.412	2.254	0.23462	-0.15454	0.60703	-0.74329	31.1	13111	100
2025-3-27 18:24:56.625	WT901BLE68-01(48591DE3C19B)	0.438	-1.240	0.053	-18.127	3.296	13.000	-71.25	20.56	-119.21	-91.336	-48.412	2.254	0.23462	-0.15454	0.60703	-0.74329	31.1	13111	100
2025-3-27 18:24:56.625	WT901BLE68-01(48591DE3C19B)	0.525	-1.240	0.053	-18.127	3.296	13.000	-71.49	20.49	-119.03	-91.336	-48.412	2.254	0.23462	-0.15454	0.60703	-0.74329	31.1	13111	100
2025-3-27 18:24:56.684	WT901BLE68-01(48591DE3C19B)	0.525	-1.236	-0.035	1.038	60.974	-12.817	-71.76	20.40	-119.20	-91.336	-48.412	2.254	0.23462	-0.15454	0.60703	-0.74329	31.1	13111	100
2025-3-27 18:24:56.684	WT901BLE68-01(48591DE3C19B)	0.549	-1.236	-0.035	1.038	60.974	-12.817	-72.04	20.26	-119.69	-91.336	-48.412	2.254	0.23462	-0.15454	0.60703	-0.74329	31.1	13111	100
2025-3-27 18:24:56.684	WT901BLE68-01(48591DE3C19B)	0.549	-1.036	-0.123	25.330	115.356	-34.302	-72.30	20.10	-120.50	-91.336	-48.412	2.254	0.23462	-0.15454	0.60703	-0.74329	31.1	13111	100
2025-3-27 18:24:56.684	WT901BLE68-01(48591DE3C19B)	0.466	-1.036	-0.123	25.330	115.356	-34.302	-72.54	19.90	-121.61	-91.336	-48.412	2.254	0.23462	-0.15454	0.60703	-0.74329	31.1	13111	100
2025-3-27 18:24:56.713	WT901BLE68-01(48591DE3C19B)	0.466	-0.860	-0.131	33.386	156.311	-53.833	-72.82	19.66	-122.95	-91.336	-48.412	2.254	0.46246	-0.15610	0.58105	-0.65118	31.1	13111	100
2025-3-27 18:24:56.714	WT901BLE68-01(48591DE3C19B)	0.313	-0.860	-0.131	33.386	156.311	-53.833	-73.13	19.37	-124.52	-91.336	-48.412	2.254	0.46246	-0.15610	0.58105	-0.65118	31.1	13111	100
2025-3-27 18:24:56.714	WT901BLE68-01(48591DE3C19B)	0.313	-0.907	-0.117	31.494	186.279	-72.144	-73.48	19.03	-126.25	-91.336	-48.412	2.254	0.46246	-0.15610	0.58105	-0.65118	31.1	13111	100
2025-3-27 18:24:56.714	WT901BLE68-01(48591DE3C19B)	0.115	-0.907	-0.117	31.494	186.279	-72.144	-73.89	18.63	-128.16	-91.336	-48.412	2.254	0.46246	-0.15610	0.58105	-0.65118	31.1	13111	100
2025-3-27 18:24:56.743	WT901BLE68-01(48591DE3C19B)	0.115	-1.028	-0.066	35.156	198.425	-82.947	-74.28	18.18	-130.12	-91.336	-48.412	2.254	0.46246	-0.15610	0.58105	-0.65118	31.1	13111	100
2025-3-27 18:24:56.743	WT901BLE68-01(48591DE3C19B)	-0.105	-1.028	-0.066	35.156	198.425	-82.947	-74.66	17.69	-132.14	-91.336	-48.412	2.254	0.46246	-0.15610	0.58105	-0.65118	31.1	13111	100
2025-3-27 18:24:56.744	WT901BLE68-01(48591DE3C19B)	-0.105	-1.043	0.029	39.185	184.204	-88.501	-74.98	17.15	-134.08	-91.336	-48.412	2.254	0.46246	-0.15610	0.58105	-0.65118	31.1	13111	100
2025-3-27 18:24:56.744	WT901BLE68-01(48591DE3C19B)	-0.266	-1.043	0.029	39.185	184.204	-88.501	-75.23	16.57	-135.94	-91.336	-48.412	2.254	0.46246	-0.15610	0.58105	-0.65118	31.1	13111	100
2025-3-27 18:24:56.805	WT901BLE68-01(48591DE3C19B)	-0.266	-0.993	0.141	38.391	148.621	-95.276	-75.42	15.91	-137.61	-91.336	-48.412	2.254	0.46246	-0.15610	0.58105	-0.65118	31.1	13111	100
2025-3-27 18:24:56.805	WT901BLE68-01(48591DE3C19B)	-0.310	-0.993	0.141	38.391	148.621	-95.276	-75.54	15.20	-139.10	-91.336	-48.412	2.254	0.46246	-0.15610	0.58105	-0.65118	31.1	13111	100
2025-3-27 18:24:56.805	WT901BLE68-01(48591DE3C19B)	-0.310	-0.908	0.220	31.067	104.492	-104.431	-75.61	14.40	-140.36	-91.336	-48.412	2.254	0.46246	-0.15610	0.58105	-0.65118	31.1	13111	100
2025-3-27 18:24:56.805	WT901BLE68-01(48591DE3C19B)	-0.284	-0.908	0.220	31.067	104.492	-104.431	-75.65	13.51	-141.41	-91.336	-48.412	2.254	0.46246	-0.15610	0.58105	-0.65118	31.1	13111	100
2025-3-27 18:24:56.832	WT901BLE68-01(48591DE3C19B)	-0.284	-0.798	0.246	22.522	67.017	-112.854	-75.67	12.56	-142.27	-91.336	-48.412	2.254	0.46246	-0.15610	0.58105	-0.65118	31.1	13111	100
2025-3-27 18:24:56.832	WT901BLE68-01(48591DE3C19B)	-0.266	-0.798	0.246	22.522	67.017	-112.854	-75.68	11.54	-142.95	-91.336	-48.412	2.254	0.46246	-0.15610	0.58105	-0.65118	31.1	13111	100
2025-3-27 18:24:56.832	WT901BLE68-01(48591DE3C19B)	-0.266	-0.686	0.230	12.024	39.551	-121.704	-75.70	10.46	-143.51	-91.336	-48.412	2.254	0.46246	-0.15610	0.58105	-0.65118	31.1	13111	100
2025-3-27 18:24:56.832	WT901BLE68-01(48591DE3C19B)	-0.253	-0.686	0.230	12.024	39.551	-121.704	-75.73	9.32	-143.95	-91.336	-48.412	2.254	0.46246	-0.15610	0.58105	-0.65118	31.1	13111	100
2025-3-27 18:24:56.872	WT901BLE68-01(48591DE3C19B)	-0.253	-0.611	0.216	0.122	22.949	-130.066	-75.80	8.13	-144.31	-91.336	-48.412	2.254	0.46246	-0.15610	0.58105	-0.65118	31.1	13111	100
2025-3-27 18:24:56.873	WT901BLE68-01(48591DE3C19B)	-0.246	-0.611	0.216	0.122	22.949	-130.066	-75.90	6.90	-144.60	-91.336	-48.412	2.254	0.46246	-0.15610	0.58105	-0.65118	31.1	13111	100
2025-3-27 18:24:56.873	WT901BLE68-01(48591DE3C19B)	-0.246	-0.592	0.254	-11.475	20.142	-138.123	-76.11	5.60	-144.89	-91.336	-48.412	2.254	0.46246	-0.15610	0.58105	-0.65118	31.1	13111	100
2025-3-27 18:24:56.873	WT901BLE68-01(48591DE3C19B)	-0.280	-0.592	0.254	-11.475	20.142	-138.123	-76.30	4.31	-145.17	-91.336	-48.412	2.254	0.46246	-0.15610	0.58105	-0.65118	31.1	13111	100
2025-3-27 18:24:56.924	WT901BLE68-01(48591DE3C19B)	-0.280	-0.597	0.313	-17.639	26.917	-142.944	-76.54	3.00	-145.54	-91.336	-48.412	2.254	0.46246	-0.15610	0.58105	-0.65118	31.1	13111	100
2025-3-27 18:24:56.924	WT901BLE68-01(48591DE3C19B)	-0.329	-0.597	0.313	-17.639	26.917	-142.944	-76.77	1.72	-145.90	-72.128	-50.176	-9.114	0.46246	-0.15610	0.58105	-0.65118	31.1	13111	100
2025-3-27 18:24:56.924	WT901BLE68-01(48591DE3C19B)	-0.329	-0.600	0.337	-17.883	31.555	-145.081	-76.98	0.44	-146.32	-72.128	-50.176	-9.114	0.46246	-0.15610	0.58105	-0.65118	31.1	13111	100
2025-3-27 18:24:56.924	WT901BLE68-01(48591DE3C19B)	-0.356	-0.600	0.337	-17.883	31.555	-145.081	-77.16	-0.82	-146.74	-72.128	-50.176	-9.114	0.46246	-0.15610	0.58105	-0.65118	31.1	13111	100
2025-3-27 18:24:56.954	WT901BLE68-01(48591DE3C19B)	-0.356	-0.601	0.328	-14.160	31.799	-144.287	-77.30	-2.06	-147.16	-72.128	-50.176	-9.114	0.46246	-0.15610	0.58105	-0.65118	31.1	13111	100
2025-3-27 18:24:56.954	WT901BLE68-01(48591DE3C19B)	-0.371	-0.601	0.328	-14.160	31.799	-144.287	-77.42	-3.29	-147.60	-72.128	-50.176	-9.114	0.46246	-0.15610	0.58105	-0.65118	31.1	13111	100
2025-3-27 18:24:56.954	WT901BLE68-01(48591DE3C19B)	-0.371	-0.635	0.294	-8.118	28.870	-139.771	-77.46	-4.46	-148.00	-72.128	-50.176	-9.114	0.46246	-0.15610	0.58105	-0.65118	31.1	13111	100
2025-3-27 18:24:56.954	WT901BLE68-01(48591DE3C19B)	-0.371	-0.635	0.294	-8.118	28.870	-139.771	-77.50	-5.63	-148.41	-72.128	-50.176	-9.114	0.46246	-0.15610	0.58105	-0.65118	31.1	13111	100
2025-3-27 18:24:56.983	WT901BLE68-01(48591DE3C19B)	-0.371	-0.702	0.287	-3.174	30.518	-133.484	-77.46	-6.71	-148.83	-72.128	-50.176	-9.114	0.46246	-0.15610	0.58105	-0.65118	31.1	13111	100
2025-3-27 18:24:56.983	WT901BLE68-01(48591DE3C19B)	-0.435	-0.702	0.287	-3.174	30.518	-133.484	-77.43	-7.78	-149.25	-72.128	-50.176	-9.114	0.46246	-0.15610	0.58105	-0.65118	31.1	13111	100
2025-3-27 18:24:56.984	WT901BLE68-01(48591DE3C19B)	-0.435	-0.774	0.316	2.075	30.090	-120.117	-77.33	-8.71	-149.66	-72.128	-50.176	-9.114	0.46246	-0.15610	0.58105	-0.65118	31.1	13111	100
2025-3-27 18:24:56.984	WT901BLE68-01(48591DE3C19B)	-0.656	-0.774	0.316	2.075	30.090	-120.117	-77.22	-9.63	-150.07	-72.128	-50.176	-9.114	0.46246	-0.15610	0.58105	-0.65118	31.1	13111	100
2025-3-27 18:24:57.43	WT901BLE68-01(48591DE3C19B)	-0.656	-0.932	0.396	2.258	15.991	-103.088	-77.12	-10.40	-150.31	-72.128	-50.176	-9.114	0.46246	-0.15610	0.58105	-0.65118	31.1	13111	100
2025-3-27 18:24:57.43	WT901BLE68-01(48591DE3C19B)	-0.824	-0.932	0.396	2.258	15.991	-103.088	-77.03	-11.16	-150.57	-72.128	-50.176	-9.114	0.46246	-0.15610	0.58105	-0.65118	31.1	13111	100
2025-3-27 18:24:57.43	WT901BLE68-01(48591DE3C19B)	-0.824	-1.215	0.451	5.981	-0.916	-87.646	-76.93	-11.79	-150.64	-72.128	-50.176	-9.114	0.46246	-0.15610	0.58105	-0.65118	31.1	13111	100
2025-3-27 18:24:57.43	WT901BLE68-01(48591DE3C19B)	-0.828	-1.215	0.451	5.981	-0.916	-87.646	-76.83	-12.42	-150.72	-72.128	-50.176	-9.114	0.46246	-0.15610	0.58105	-0.65118	31.1	13111	100
2025-3-27 18:24:57.73	WT901BLE68-01(48591DE3C19B)	-0.828	-1.535	0.419	9.399	-5.798	-66.040	-76.72	-12.84	-150.70	-72.128	-50.176	-9.114	0.46246	-0.15610	0.58105	-0.65118	31.1	13111	100
2025-3-27 18:24:57.74	WT901BLE68-01(48591DE3C19B)	-0.785	-1.535	0.419	9.399	-5.798	-66.040	-76.61	-13.26	-150.68	-72.128	-50.176	-9.114	0.46246	-0.15610	0.58105	-0.65118	31.1	13111	100
2025-3-27 18:24:57.74	WT901BLE68-01(48591DE3C19B)	-0.785	-1.664	0.361	22.217	-0.793	-36.682	-76.39	-13.38	-150.63	-72.128	-50.176	-9.114	0.46246	-0.15610	0.58105	-0.65118	31.1	13111	100
2025-3-27 18:24:57.74	WT901BLE68-01(48591DE3C19B)	-0.740	-1.664	0.361	22.217	-0.793	-36.682	-76.17	-13.51	-150.59	-72.128	-50.176	-9.114	0.46246	-0.15610	0.58105	-0.65118	31.1	13111	100
2025-3-27 18:24:57.104	WT901BLE68-01(48591DE3C19B)	-0.740	-1.493	0.417	22.217	8.667	-7.141	-75.95	-13.32	-150.56	-72.128	-50.176	-9.114	0.46246	-0.15610	0.58105	-0.65118	31.1	13111	100
2025-3-27 18:24:57.105	WT901BLE68-01(48591DE3C19B)	-0.681	-1.493	0.417	22.217	8.667	-7.141	-75.73	-13.14	-150.53	-72.128	-50.176	-9.114	0.46246	-0.15610	0.58105	-0.65118	31.1	13111	100
2025-3-27 18:24:57.105	WT901BLE68-01(48591DE3C19B)	-0.681	-1.435	0.505	6.653	19.348	25.696	-75.67	-12.62	-150.53	-72.128	-50.176	-9.114	0.13440	-0.23895	0.56754	-0.77628	31.1	13111	100
2025-3-27 18:24:57.105	WT901BLE68-01(48591DE3C19B)	-0.697	-1.435	0.505	6.653	19.348	25.696	-75.60	-12.10	-150.53	-72.128	-50.176	-9.114	0.13440	-0.23895	0.56754	-0.77628	31.1	13111	100
2025-3-27 18:24:57.164	WT901BLE68-01(48591DE3C19B)	-0.697	-1.429	0.546	-0.793	21.729	56.824	-75.62	-11.27	-150.47	-72.128	-50.176	-9.114	0.13440	-0.23895	0.56754	-0.77628	31.1	13111	100
2025-3-27 18:24:57.164	WT901BLE68-01(48591DE3C19B)	-0.719	-1.429	0.546	-0.793	21.729	56.824	-75.64	-10.45	-150.42	-72.128	-50.176	-9.114	0.13440	-0.23895	0.56754	-0.77628	31.1	13111	100
2025-3-27 18:24:57.164	WT901BLE68-01(48591DE3C19B)	-0.719	-1.316	0.485	-1.892	6.287	83.374	-75.70	-9.42	-150.15	-72.128	-50.176	-9.114	0.13440	-0.23895	0.56754	-0.77628	31.1	13111	100
2025-3-27 18:24:57.164	WT901BLE68-01(48591DE3C19B)	-0.699	-1.316	0.485	-1.892	6.287	83.374	-75.75	-8.39	-149.89	-72.128	-50.176	-9.114	0.13440	-0.23895	0.56754	-0.77628	31.1	13111	100
2025-3-27 18:24:57.194	WT901BLE68-01(48591DE3C19B)	-0.699	-1.158	0.341	-2.686	-20.447	107.361	-75.85	-7.20	-149.31	-72.128	-50.176	-9.114	0.13440	-0.23895	0.56754	-0.77628	31.1	13111	100
2025-3-27 18:24:57.194	WT901BLE68-01(48591DE3C19B)	-0.625	-1.158	0.341	-2.686	-20.447	107.361	-75.94	-6.02	-148.73	-72.128	-50.176	-9.114	0.13440	-0.23895	0.56754	-0.77628	31.1	13111	100
2025-3-27 18:24:57.194	WT901BLE68-01(48591DE3C19B)	-0.625	-1.001	0.166	-5.554	-48.767	131.653	-76.08	-4.66	-147.83	-72.128	-50.176	-9.114	0.13440	-0.23895	0.56754	-0.77628	31.1	13111	100
2025-3-27 18:24:57.194	WT901BLE68-01(48591DE3C19B)	-0.539	-1.001	0.166	-5.554	-48.767	131.653	-76.20	-3.32	-146.93	-72.128	-50.176	-9.114	0.13440	-0.23895	0.56754	-0.77628	31.1	13111	100
2025-3-27 18:24:57.223	WT901BLE68-01(48591DE3C19B)	-0.539	-0.952	0.038	-11.230	-72.632	157.043	-76.38	-1.79	-145.74	-72.128	-50.176	-9.114	0.13440	-0.23895	0.56754	-0.77628	31.1	13111	100
2025-3-27 18:24:57.224	WT901BLE68-01(48591DE3C19B)	-0.462	-0.952	0.038	-11.230	-72.632	157.043	-76.53	-0.26	-144.55	-72.128	-50.176	-9.114	0.13440	-0.23895	0.56754	-0.77628	31.1	13111	100
2025-3-27 18:24:57.224	WT901BLE68-01(48591DE3C19B)	-0.462	-1.092	-0.026	-13.916	-91.492	179.199	-76.68	1.42	-143.13	-72.128	-50.176	-9.114	0.13440	-0.23895	0.56754	-0.77628	31.1	13111	100
2025-3-27 18:24:57.224	WT901BLE68-01(48591DE3C19B)	-0.393	-1.092	-0.026	-13.916	-91.492	179.199	-76.81	3.09	-141.70	-72.128	-50.176	-9.114	0.13440	-0.23895	0.56754	-0.77628	31.1	13111	100
2025-3-27 18:24:57.283	WT901BLE68-01(48591DE3C19B)	-0.393	-1.261	-0.066	-9.521	-111.023	195.313	-76.84	4.87	-140.03	-72.128	-50.176	-9.114	0.13440	-0.23895	0.56754	-0.77628	31.1	13111	100
2025-3-27 18:24:57.284	WT901BLE68-01(48591DE3C19B)	-0.343	-1.261	-0.066	-9.521	-111.023	195.313	-76.83	6.62	-138.35	-72.128	-50.176	-9.114	0.13440	-0.23895	0.56754	-0.77628	31.1	13111	100
2025-3-27 18:24:57.284	WT901BLE68-01(48591DE3C19B)	-0.343	-1.357	-0.043	-0.366	-134.888	205.322	-76.65	8.40	-136.40	-72.128	-50.176	-9.114	0.13440	-0.23895	0.56754	-0.77628	31.1	13111	100
2025-3-27 18:24:57.284	WT901BLE68-01(48591DE3C19B)	-0.316	-1.357	-0.043	-0.366	-134.888	205.322	-76.42	10.16	-134.43	-72.128	-50.176	-9.114	0.13440	-0.23895	0.56754	-0.77628	31.1	13111	100
2025-3-27 18:24:57.313	WT901BLE68-01(48591DE3C19B)	-0.316	-1.423	0.005	10.498	-151.978	206.543	-75.99	11.85	-132.27	-73.696	-49.196	-9.408	0.13440	-0.23895	0.56754	-0.77628	31.1	13111	100
2025-3-27 18:24:57.313	WT901BLE68-01(48591DE3C19B)	-0.288	-1.423	0.005	10.498	-151.978	206.543	-75.50	13.52	-130.08	-73.696	-49.196	-9.408	0.13440	-0.23895	0.56754	-0.77628	31.1	13111	100
2025-3-27 18:24:57.313	WT901BLE68-01(48591DE3C19B)	-0.288	-1.465	0.042	23.499	-153.015	205.383	-74.82	15.13	-127.86	-73.696	-49.196	-9.408	0.13440	-0.23895	0.56754	-0.77628	31.1	13111	100
2025-3-27 18:24:57.313	WT901BLE68-01(48591DE3C19B)	-0.226	-1.465	0.042	23.499	-153.015	205.383	-74.07	16.70	-125.61	-73.696	-49.196	-9.408	0.13440	-0.23895	0.56754	-0.77628	31.1	13111	100
2025-3-27 18:24:57.343	WT901BLE68-01(48591DE3C19B)	-0.144	-1.347	0.051	37.903	-137.024	205.811	-73.16	18.28	-123.48	-73.696	-49.196	-9.408	0.13440	-0.23895	0.56754	-0.77628	31.1	13111	100
2025-3-27 18:24:57.343	WT901BLE68-01(48591DE3C19B)	-0.144	-1.152	0.063	45.410	-106.506	205.139	-72.21	19.86	-121.47	-73.696	-49.196	-9.408	0.13440	-0.23895	0.56754	-0.77628	31.1	13111	100
2025-3-27 18:24:57.343	WT901BLE68-01(48591DE3C19B)	-0.086	-1.152	0.063	45.410	-106.506	205.139	-71.22	21.43	-119.58	-73.696	-49.196	-9.408	0.13440	-0.23895	0.56754	-0.77628	31.1	13111	100
2025-3-27 18:24:57.343	WT901BLE68-01(48591DE3C19B)	-0.086	-0.982	0.039	47.119	-72.205	202.881	-70.22	23.01	-117.82	-73.696	-49.196	-9.408	0.13440	-0.23895	0.56754	-0.77628	31.1	13111	100
2025-3-27 18:24:57.404	WT901BLE68-01(48591DE3C19B)	-0.060	-0.982	0.039	47.119	-72.205	202.881	-69.23	24.59	-116.20	-73.696	-49.196	-9.408	0.13440	-0.23895	0.56754	-0.77628	31.1	13111	100
2025-3-27 18:24:57.405	WT901BLE68-01(48591DE3C19B)	-0.060	-0.848	0.009	45.898	-42.358	198.547	-68.26	26.16	-114.70	-73.696	-49.196	-9.408	0.13440	-0.23895	0.56754	-0.77628	31.1	13111	100
2025-3-27 18:24:57.405	WT901BLE68-01(48591DE3C19B)	-0.039	-0.848	0.009	45.898	-42.358	198.547	-67.33	27.75	-113.32	-73.696	-49.196	-9.408	0.13440	-0.23895	0.56754	-0.77628	31.1	13111	100
2025-3-27 18:24:57.405	WT901BLE68-01(48591DE3C19B)	-0.039	-0.774	-0.013	39.001	-22.278	193.115	-66.43	29.31	-112.02	-73.696	-49.196	-9.408	0.13440	-0.23895	0.56754	-0.77628	31.1	13111	100
2025-3-27 18:24:57.433	WT901BLE68-01(48591DE3C19B)	-0.066	-0.774	-0.013	39.001	-22.278	193.115	-65.59	30.86	-110.80	-73.696	-49.196	-9.408	0.13440	-0.23895	0.56754	-0.77628	31.1	13111	100
2025-3-27 18:24:57.433	WT901BLE68-01(48591DE3C19B)	-0.066	-0.788	-0.034	29.114	-10.681	186.096	-64.79	32.38	-109.62	-73.696	-49.196	-9.408	0.13440	-0.23895	0.56754	-0.77628	31.1	13111	100
2025-3-27 18:24:57.433	WT901BLE68-01(48591DE3C19B)	-0.115	-0.788	-0.034	29.114	-10.681	186.096	-64.04	33.86	-108.48	-73.696	-49.196	-9.408	0.13440	-0.23895	0.56754	-0.77628	31.1	13111	100
2025-3-27 18:24:57.433	WT901BLE68-01(48591DE3C19B)	-0.115	-0.900	-0.035	17.944	-8.484	178.162	-63.34	35.29	-107.34	-73.696	-49.196	-9.408	0.13440	-0.23895	0.56754	-0.77628	31.1	13111	100
2025-3-27 18:24:57.472	WT901BLE68-01(48591DE3C19B)	-0.158	-0.900	-0.035	17.944	-8.484	178.162	-62.67	36.68	-106.20	-73.696	-49.196	-9.408	0.13440	-0.23895	0.56754	-0.77628	31.1	13111	100
2025-3-27 18:24:57.472	WT901BLE68-01(48591DE3C19B)	-0.158	-1.136	-0.054	5.249	-19.104	167.236	-62.00	37.97	-105.00	-73.696	-49.196	-9.408	0.13440	-0.23895	0.56754	-0.77628	31.1	13111	100
2025-3-27 18:24:57.472	WT901BLE68-01(48591DE3C19B)	-0.126	-1.136	-0.054	5.249	-19.104	167.236	-61.35	39.17	-103.75	-73.696	-49.196	-9.408	0.13440	-0.23895	0.56754	-0.77628	31.1	13111	100
2025-3-27 18:24:57.472	WT901BLE68-01(48591DE3C19B)	-0.126	-1.486	-0.123	-6.714	-50.110	152.283	-60.64	40.21	-102.34	-73.696	-49.196	-9.408	0.13440	-0.23895	0.56754	-0.77628	31.1	13111	100
2025-3-27 18:24:57.524	WT901BLE68-01(48591DE3C19B)	0.117	-1.486	-0.123	-6.714	-50.110	152.283	-59.89	41.08	-100.77	-73.696	-49.196	-9.408	0.13440	-0.23895	0.56754	-0.77628	31.1	13111	100
2025-3-27 18:24:57.524	WT901BLE68-01(48591DE3C19B)	0.117	-1.871	-0.185	-12.451	-89.050	123.291	-59.05	41.72	-99.06	-73.696	-49.196	-9.408	0.66122	-0.06314	0.55139	-0.50467	31.1	13111	100
2025-3-27 18:24:57.524	WT901BLE68-01(48591DE3C19B)	0.353	-1.871	-0.185	-12.451	-89.050	123.291	-58.13	42.09	-97.21	-73.696	-49.196	-9.408	0.66122	-0.06314	0.55139	-0.50467	31.1	13111	100
2025-3-27 18:24:57.524	WT901BLE68-01(48591DE3C19B)	0.353	-2.167	-0.171	-1.343	-104.004	86.731	-57.19	42.24	-95.41	-73.696	-49.196	-9.408	0.66122	-0.06314	0.55139	-0.50467	31.1	13111	100
2025-3-27 18:24:57.583	WT901BLE68-01(48591DE3C19B)	0.431	-2.167	-0.171	-1.343	-104.004	86.731	-56.24	42.17	-93.66	-73.696	-49.196	-9.408	0.66122	-0.06314	0.55139	-0.50467	31.1	13111	100
2025-3-27 18:24:57.584	WT901BLE68-01(48591DE3C19B)	0.431	-2.090	-0.020	3.906	-78.308	41.748	-55.49	41.95	-92.24	-73.696	-49.196	-9.408	0.66122	-0.06314	0.55139	-0.50467	31.1	13111	100
2025-3-27 18:24:57.584	WT901BLE68-01(48591DE3C19B)	0.444	-2.090	-0.020	3.906	-78.308	41.748	-54.93	41.60	-91.14	-73.696	-49.196	-9.408	0.66122	-0.06314	0.55139	-0.50467	31.1	13111	100
2025-3-27 18:24:57.584	WT901BLE68-01(48591DE3C19B)	0.444	-1.981	0.105	-6.470	-23.743	-6.226	-54.75	41.20	-90.53	-73.696	-49.196	-9.408	0.66122	-0.06314	0.55139	-0.50467	31.1	13111	100
2025-3-27 18:24:57.613	WT901BLE68-01(48591DE3C19B)	0.462	-1.981	0.105	-6.470	-23.743	-6.226	-54.94	40.76	-90.41	-73.696	-49.196	-9.408	0.66122	-0.06314	0.55139	-0.50467	31.1	13111	100
2025-3-27 18:24:57.613	WT901BLE68-01(48591DE3C19B)	0.462	-1.771	0.176	-12.512	37.415	-49.072	-55.48	40.31	-90.78	-73.696	-49.196	-9.408	0.66122	-0.06314	0.55139	-0.50467	31.1	13111	100
2025-3-27 18:24:57.613	WT901BLE68-01(48591DE3C19B)	0.406	-1.771	0.176	-12.512	37.415	-49.072	-56.34	39.85	-91.63	-73.696	-49.196	-9.408	0.66122	-0.06314	0.55139	-0.50467	31.1	13111	100
2025-3-27 18:24:57.613	WT901BLE68-01(48591DE3C19B)	0.406	-1.609	0.174	-18.250	82.764	-85.327	-57.44	39.35	-92.83	-73.696	-49.196	-9.408	0.66122	-0.06314	0.55139	-0.50467	31.1	13111	100
2025-3-27 18:24:57.643	WT901BLE68-01(48591DE3C19B)	0.318	-1.609	0.174	-18.250	82.764	-85.327	-58.78	38.80	-94.39	-73.696	-49.196	-9.408	0.66122	-0.06314	0.55139	-0.50467	31.1	13111	100
2025-3-27 18:24:57.643	WT901BLE68-01(48591DE3C19B)	0.318	-1.530	0.124	-20.020	113.647	-122.314	-60.27	38.14	-96.20	-73.696	-49.196	-9.408	0.66122	-0.06314	0.55139	-0.50467	31.1	13111	100
2025-3-27 18:24:57.644	WT901BLE68-01(48591DE3C19B)	0.224	-1.530	0.124	-20.020	113.647	-122.314	-61.87	37.35	-98.25	-73.696	-49.196	-9.408	0.66122	-0.06314	0.55139	-0.50467	31.1	13111	100
2025-3-27 18:24:57.644	WT901BLE68-01(48591DE3C19B)	0.224	-1.450	0.070	-13.306	133.179	-150.085	-63.49	36.44	-100.42	-73.696	-49.196	-9.408	0.66122	-0.06314	0.55139	-0.50467	31.1	13111	100
2025-3-27 18:24:57.705	WT901BLE68-01(48591DE3C19B)	0.047	-1.450	0.070	-13.306	133.179	-150.085	-65.11	35.40	-102.69	-73.696	-49.196	-9.408	0.66122	-0.06314	0.55139	-0.50467	31.1	13111	100
2025-3-27 18:24:57.705	WT901BLE68-01(48591DE3C19B)	0.047	-1.317	0.069	-4.517	139.038	-172.302	-66.64	34.22	-104.99	-73.696	-49.196	-9.408	0.66122	-0.06314	0.55139	-0.50467	31.1	13111	100
2025-3-27 18:24:57.705	WT901BLE68-01(48591DE3C19B)	-0.098	-1.317	0.069	-4.517	139.038	-172.302	-68.09	32.92	-107.29	-73.696	-49.196	-9.408	0.66122	-0.06314	0.55139	-0.50467	31.1	13111	100
2025-3-27 18:24:57.705	WT901BLE68-01(48591DE3C19B)	-0.098	-1.241	0.091	0.061	128.540	-192.261	-69.41	31.46	-109.48	-73.696	-49.196	-9.408	0.66122	-0.06314	0.55139	-0.50467	31.1	13111	100
2025-3-27 18:24:57.733	WT901BLE68-01(48591DE3C19B)	-0.208	-1.241	0.091	0.061	128.540	-192.261	-70.60	29.87	-111.57	-73.696	-49.196	-9.408	0.66122	-0.06314	0.55139	-0.50467	31.1	13111	100
2025-3-27 18:24:57.733	WT901BLE68-01(48591DE3C19B)	-0.208	-1.226	0.098	5.432	109.070	-209.534	-71.63	28.14	-113.51	-91.532	-31.360	-6.762	0.66122	-0.06314	0.55139	-0.50467	31.1	13111	100
2025-3-27 18:24:57.733	WT901BLE68-01(48591DE3C19B)	-0.281	-1.226	0.098	5.432	109.070	-209.534	-72.50	26.28	-115.31	-91.532	-31.360	-6.762	0.66122	-0.06314	0.55139	-0.50467	31.1	13111	100
2025-3-27 18:24:57.733	WT901BLE68-01(48591DE3C19B)	-0.281	-1.176	0.108	9.033	85.449	-224.670	-73.23	24.32	-116.93	-91.532	-31.360	-6.762	0.66122	-0.06314	0.55139	-0.50467	31.1	13111	100
2025-3-27 18:24:57.763	WT901BLE68-01(48591DE3C19B)	-0.308	-1.176	0.108	9.033	85.449	-224.670	-73.82	22.25	-118.39	-91.532	-31.360	-6.762	0.66122	-0.06314	0.55139	-0.50467	31.1	13111	100
2025-3-27 18:24:57.763	WT901BLE68-01(48591DE3C19B)	-0.308	-1.128	0.138	7.202	63.049	-238.098	-74.32	20.09	-119.71	-91.532	-31.360	-6.762	0.66122	-0.06314	0.55139	-0.50467	31.1	13111	100
2025-3-27 18:24:57.763	WT901BLE68-01(48591DE3C19B)	-0.302	-1.128	0.138	7.202	63.049	-238.098	-74.72	17.85	-120.89	-91.532	-31.360	-6.762	0.66122	-0.06314	0.55139	-0.50467	31.1	13111	100
2025-3-27 18:24:57.763	WT901BLE68-01(48591DE3C19B)	-0.302	-1.116	0.180	0.793	53.772	-253.845	-75.10	15.53	-122.01	-91.532	-31.360	-6.762	0.66122	-0.06314	0.55139	-0.50467	31.1	13111	100
2025-3-27 18:24:57.794	WT901BLE68-01(48591DE3C19B)	-0.343	-1.116	0.180	0.793	53.772	-253.845	-75.43	13.14	-123.07	-91.532	-31.360	-6.762	0.66122	-0.06314	0.55139	-0.50467	31.1	13111	100
2025-3-27 18:24:57.794	WT901BLE68-01(48591DE3C19B)	-0.343	-1.139	0.214	-4.822	54.077	-266.479	-75.75	10.70	-124.13	-91.532	-31.360	-6.762	0.66122	-0.06314	0.55139	-0.50467	31.1	13111	100
2025-3-27 18:24:57.794	WT901BLE68-01(48591DE3C19B)	-0.390	-1.139	0.214	-4.822	54.077	-266.479	-76.04	8.22	-125.17	-91.532	-31.360	-6.762	0.66122	-0.06314	0.55139	-0.50467	31.1	13111	100
2025-3-27 18:24:57.794	WT901BLE68-01(48591DE3C19B)	-0.390	-1.181	0.266	-6.226	56.519	-274.902	-76.29	5.67	-126.23	-91.532	-31.360	-6.762	0.66122	-0.06314	0.55139	-0.50467	31.1	13111	100
2025-3-27 18:24:57.853	WT901BLE68-01(48591DE3C19B)	-0.420	-1.181	0.266	-6.226	56.519	-274.902	-76.50	3.15	-127.28	-91.532	-31.360	-6.762	0.66122	-0.06314	0.55139	-0.50467	31.1	13111	100
2025-3-27 18:24:57.853	WT901BLE68-01(48591DE3C19B)	-0.420	-1.192	0.314	-4.578	61.890	-277.588	-76.63	0.63	-128.38	-91.532	-31.360	-6.762	0.66122	-0.06314	0.55139	-0.50467	31.1	13111	100
2025-3-27 18:24:57.853	WT901BLE68-01(48591DE3C19B)	-0.457	-1.192	0.314	-4.578	61.890	-277.588	-76.71	-1.86	-129.46	-91.532	-31.360	-6.762	0.66122	-0.06314	0.55139	-0.50467	31.1	13111	100
2025-3-27 18:24:57.853	WT901BLE68-01(48591DE3C19B)	-0.457	-1.185	0.341	1.770	73.792	-270.752	-76.66	-4.25	-130.65	-91.532	-31.360	-6.762	0.66122	-0.06314	0.55139	-0.50467	31.1	13111	100
2025-3-27 18:24:57.914	WT901BLE68-01(48591DE3C19B)	-0.543	-1.185	0.341	1.770	73.792	-270.752	-76.56	-6.61	-131.85	-91.532	-31.360	-6.762	0.66122	-0.06314	0.55139	-0.50467	31.1	13111	100
2025-3-27 18:24:57.914	WT901BLE68-01(48591DE3C19B)	-0.543	-1.143	0.302	11.414	84.045	-256.226	-76.31	-8.79	-133.12	-91.532	-31.360	-6.762	0.66122	-0.06314	0.55139	-0.50467	31.1	13111	100
2025-3-27 18:24:57.914	WT901BLE68-01(48591DE3C19B)	-0.555	-1.143	0.302	11.414	84.045	-256.226	-75.99	-10.94	-134.42	-91.532	-31.360	-6.762	0.66122	-0.06314	0.55139	-0.50467	31.1	13111	100
2025-3-27 18:24:57.914	WT901BLE68-01(48591DE3C19B)	-0.555	-1.038	0.217	18.188	88.318	-237.427	-75.56	-12.86	-135.73	-91.532	-31.360	-6.762	0.66122	-0.06314	0.55139	-0.50467	31.1	13111	100
2025-3-27 18:24:57.916	WT901BLE68-01(48591DE3C19B)	-0.561	-1.038	0.217	18.188	88.318	-237.427	-75.09	-14.77	-137.07	-91.532	-31.360	-6.762	0.66122	-0.06314	0.55139	-0.50467	31.1	13111	100
2025-3-27 18:24:57.916	WT901BLE68-01(48591DE3C19B)	-0.561	-0.983	0.179	19.897	76.477	-214.966	-74.60	-16.45	-138.26	-91.532	-31.360	-6.762	0.66122	-0.06314	0.55139	-0.50467	31.1	13111	100
2025-3-27 18:24:57.916	WT901BLE68-01(48591DE3C19B)	-0.626	-0.983	0.179	19.897	76.477	-214.966	-74.07	-18.11	-139.48	-91.532	-31.360	-6.762	0.17770	-0.32571	0.51187	-0.77475	31.1	13111	100
2025-3-27 18:24:57.916	WT901BLE68-01(48591DE3C19B)	-0.626	-0.990	0.254	22.583	56.580	-188.110	-73.56	-19.54	-140.44	-91.532	-31.360	-6.762	0.17770	-0.32571	0.51187	-0.77475	31.1	13111	100
2025-3-27 18:24:57.974	WT901BLE68-01(48591DE3C19B)	-0.676	-0.990	0.254	22.583	56.580	-188.110	-73.02	-20.95	-141.44	-91.532	-31.360	-6.762	0.17770	-0.32571	0.51187	-0.77475	31.1	13111	100
2025-3-27 18:24:57.974	WT901BLE68-01(48591DE3C19B)	-0.676	-0.962	0.340	26.245	42.236	-160.522	-72.49	-22.11	-142.24	-91.532	-31.360	-6.762	0.17770	-0.32571	0.51187	-0.77475	31.1	13111	100
2025-3-27 18:24:57.974	WT901BLE68-01(48591DE3C19B)	-0.696	-0.962	0.340	26.245	42.236	-160.522	-71.94	-23.25	-143.07	-91.532	-31.360	-6.762	0.17770	-0.32571	0.51187	-0.77475	31.1	13111	100
2025-3-27 18:24:57.974	WT901BLE68-01(48591DE3C19B)	-0.696	-0.904	0.351	27.344	44.495	-131.226	-71.38	-24.08	-143.86	-91.532	-31.360	-6.762	0.17770	-0.32571	0.51187	-0.77475	31.1	13111	100
2025-3-27 18:24:58.4	WT901BLE68-01(48591DE3C19B)	-0.725	-0.904	0.351	27.344	44.495	-131.226	-70.80	-24.89	-144.68	-91.532	-31.360	-6.762	0.17770	-0.32571	0.51187	-0.77475	31.1	13111	100
2025-3-27 18:24:58.4	WT901BLE68-01(48591DE3C19B)	-0.725	-0.885	0.310	26.855	54.138	-99.792	-70.20	-25.36	-145.51	-91.532	-31.360	-6.762	0.17770	-0.32571	0.51187	-0.77475	31.1	13111	100
2025-3-27 18:24:58.4	WT901BLE68-01(48591DE3C19B)	-0.797	-0.885	0.310	26.855	54.138	-99.792	-69.59	-25.80	-146.37	-91.532	-31.360	-6.762	0.17770	-0.32571	0.51187	-0.77475	31.1	13111	100
2025-3-27 18:24:58.4	WT901BLE68-01(48591DE3C19B)	-0.797	-0.902	0.301	22.339	58.655	-69.519	-69.04	-25.93	-147.18	-91.532	-31.360	-6.762	0.17770	-0.32571	0.51187	-0.77475	31.1	13111	100
2025-3-27 18:24:58.33	WT901BLE68-01(48591DE3C19B)	-0.849	-0.902	0.301	22.339	58.655	-69.519	-68.49	-26.05	-148.01	-91.532	-31.360	-6.762	0.17770	-0.32571	0.51187	-0.77475	31.1	13111	100
2025-3-27 18:24:58.33	WT901BLE68-01(48591DE3C19B)	-0.849	-0.977	0.322	15.076	51.880	-40.344	-68.08	-25.90	-148.68	-91.532	-31.360	-6.762	0.17770	-0.32571	0.51187	-0.77475	31.1	13111	100
2025-3-27 18:24:58.33	WT901BLE68-01(48591DE3C19B)	-0.840	-0.977	0.322	15.076	51.880	-40.344	-67.66	-25.75	-149.36	-91.532	-31.360	-6.762	0.17770	-0.32571	0.51187	-0.77475	31.1	13111	100
2025-3-27 18:24:58.33	WT901BLE68-01(48591DE3C19B)	-0.840	-1.067	0.347	7.629	45.288	-11.597	-67.40	-25.35	-149.86	-91.532	-31.360	-6.762	0.17770	-0.32571	0.51187	-0.77475	31.1	13111	100
2025-3-27 18:24:58.94	WT901BLE68-01(48591DE3C19B)	-0.826	-1.067	0.347	7.629	45.288	-11.597	-67.14	-24.94	-150.37	-91.532	-31.360	-6.762	0.17770	-0.32571	0.51187	-0.77475	31.1	13111	100
2025-3-27 18:24:58.94	WT901BLE68-01(48591DE3C19B)	-0.826	-1.139	0.336	-2.502	36.377	18.677	-67.08	-24.30	-150.67	-91.532	-31.360	-6.762	0.17770	-0.32571	0.51187	-0.77475	31.1	13111	100
2025-3-27 18:24:58.94	WT901BLE68-01(48591DE3C19B)	-0.802	-1.139	0.336	-2.502	36.377	18.677	-67.01	-23.65	-150.96	-91.532	-31.360	-6.762	0.17770	-0.32571	0.51187	-0.77475	31.1	13111	100
2025-3-27 18:24:58.94	WT901BLE68-01(48591DE3C19B)	-0.802	-1.227	0.315	-15.259	20.996	47.546	-67.19	-22.81	-150.99	-91.532	-31.360	-6.762	0.17770	-0.32571	0.51187	-0.77475	31.1	13111	100
2025-3-27 18:24:58.123	WT901BLE68-01(48591DE3C19B)	-0.813	-1.227	0.315	-15.259	20.996	47.546	-67.36	-21.97	-151.01	-47.138	-56.644	-9.800	0.17770	-0.32571	0.51187	-0.77475	31.1	13111	100
2025-3-27 18:24:58.123	WT901BLE68-01(48591DE3C19B)	-0.813	-1.325	0.337	-27.161	-3.357	75.745	-67.79	-20.96	-150.67	-47.138	-56.644	-9.800	0.17770	-0.32571	0.51187	-0.77475	31.1	13111	100
2025-3-27 18:24:58.123	WT901BLE68-01(48591DE3C19B)	-0.837	-1.325	0.337	-27.161	-3.357	75.745	-68.21	-19.97	-150.35	-47.138	-56.644	-9.800	0.17770	-0.32571	0.51187	-0.77475	31.1	13111	100
2025-3-27 18:24:58.123	WT901BLE68-01(48591DE3C19B)	-0.837	-1.336	0.344	-33.936	-35.156	101.196	-68.82	-18.85	-149.62	-47.138	-56.644	-9.800	0.17770	-0.32571	0.51187	-0.77475	31.1	13111	100
2025-3-27 18:24:58.154	WT901BLE68-01(48591DE3C19B)	-0.803	-1.336	0.344	-33.936	-35.156	101.196	-69.41	-17.74	-148.90	-47.138	-56.644	-9.800	0.17770	-0.32571	0.51187	-0.77475	31.1	13111	100
2025-3-27 18:24:58.154	WT901BLE68-01(48591DE3C19B)	-0.803	-1.309	0.294	-40.649	-68.542	124.268	-70.17	-16.52	-147.78	-47.138	-56.644	-9.800	0.17770	-0.32571	0.51187	-0.77475	31.1	13111	100
2025-3-27 18:24:58.154	WT901BLE68-01(48591DE3C19B)	-0.783	-1.309	0.294	-40.649	-68.542	124.268	-70.90	-15.30	-146.68	-47.138	-56.644	-9.800	0.17770	-0.32571	0.51187	-0.77475	31.1	13111	100
2025-3-27 18:24:58.154	WT901BLE68-01(48591DE3C19B)	-0.783	-1.333	0.226	-42.786	-102.417	149.292	-71.73	-13.94	-145.19	-47.138	-56.644	-9.800	0.17770	-0.32571	0.51187	-0.77475	31.1	13111	100
2025-3-27 18:24:58.244	WT901BLE68-01(48591DE3C19B)	-0.713	-1.333	0.226	-42.786	-102.417	149.292	-72.52	-12.57	-143.71	-47.138	-56.644	-9.800	0.17770	-0.32571	0.51187	-0.77475	31.1	13111	100
2025-3-27 18:24:58.244	WT901BLE68-01(48591DE3C19B)	-0.713	-1.269	0.167	-39.246	-136.658	178.284	-73.32	-11.02	-141.84	-47.138	-56.644	-9.800	0.17770	-0.32571	0.51187	-0.77475	31.1	13111	100
2025-3-27 18:24:58.244	WT901BLE68-01(48591DE3C19B)	-0.568	-1.269	0.167	-39.246	-136.658	178.284	-74.06	-9.45	-139.98	-47.138	-56.644	-9.800	0.17770	-0.32571	0.51187	-0.77475	31.1	13111	100
2025-3-27 18:24:58.244	WT901BLE68-01(48591DE3C19B)	-0.568	-1.300	0.121	-36.621	-163.757	210.144	-74.77	-7.64	-137.79	-47.138	-56.644	-9.800	0.17770	-0.32571	0.51187	-0.77475	31.1	13111	100
2025-3-27 18:24:58.245	WT901BLE68-01(48591DE3C19B)	-0.397	-1.300	0.121	-36.621	-163.757	210.144	-75.42	-5.81	-135.63	-47.138	-56.644	-9.800	0.17770	-0.32571	0.51187	-0.77475	31.1	13111	100
2025-3-27 18:24:58.245	WT901BLE68-01(48591DE3C19B)	-0.397	-1.439	0.063	-25.085	-172.852	239.075	-75.90	-3.73	-133.31	-47.138	-56.644	-9.800	0.17770	-0.32571	0.51187	-0.77475	31.1	13111	100
2025-3-27 18:24:58.245	WT901BLE68-01(48591DE3C19B)	-0.271	-1.439	0.063	-25.085	-172.852	239.075	-76.29	-1.65	-131.00	-47.138	-56.644	-9.800	0.17770	-0.32571	0.51187	-0.77475	31.1	13111	100
2025-3-27 18:24:58.245	WT901BLE68-01(48591DE3C19B)	-0.187	-1.563	0.046	-7.690	-166.260	260.559	-76.43	0.64	-128.70	-47.138	-56.644	-9.800	0.17770	-0.32571	0.51187	-0.77475	31.1	13111	100
2025-3-27 18:24:58.275	WT901BLE68-01(48591DE3C19B)	-0.187	-1.660	0.037	8.606	-145.691	270.752	-76.41	2.98	-126.49	-47.138	-56.644	-9.800	0.17770	-0.32571	0.51187	-0.77475	31.1	13111	100
2025-3-27 18:24:58.276	WT901BLE68-01(48591DE3C19B)	-0.146	-1.660	0.037	8.606	-145.691	270.752	-76.22	5.36	-124.34	-47.138	-56.644	-9.800	0.17770	-0.32571	0.51187	-0.77475	31.1	13111	100
2025-3-27 18:24:58.276	WT901BLE68-01(48591DE3C19B)	-0.146	-1.740	0.043	23.743	-111.084	272.522	-75.90	7.76	-122.35	-47.138	-56.644	-9.800	0.17770	-0.32571	0.51187	-0.77475	31.1	13111	100
2025-3-27 18:24:58.276	WT901BLE68-01(48591DE3C19B)	-0.161	-1.740	0.043	23.743	-111.084	272.522	-75.44	10.18	-120.49	-47.138	-56.644	-9.800	0.17770	-0.32571	0.51187	-0.77475	31.1	13111	100
2025-3-27 18:24:58.334	WT901BLE68-01(48591DE3C19B)	-0.161	-1.716	0.046	35.950	-76.172	271.423	-74.88	12.59	-118.78	-47.138	-56.644	-9.800	0.17770	-0.32571	0.51187	-0.77475	31.1	13111	100
2025-3-27 18:24:58.334	WT901BLE68-01(48591DE3C19B)	-0.193	-1.716	0.046	35.950	-76.172	271.423	-74.23	15.01	-117.20	-47.138	-56.644	-9.800	0.47913	-0.22281	0.56488	-0.63370	31.1	13111	100
2025-3-27 18:24:58.334	WT901BLE68-01(48591DE3C19B)	-0.193	-1.631	0.104	43.152	-51.819	269.836	-73.51	17.41	-115.70	-47.138	-56.644	-9.800	0.47913	-0.22281	0.56488	-0.63370	31.1	13111	100
2025-3-27 18:24:58.334	WT901BLE68-01(48591DE3C19B)	-0.174	-1.631	0.104	43.152	-51.819	269.836	-72.72	19.80	-114.28	-47.138	-56.644	-9.800	0.47913	-0.22281	0.56488	-0.63370	31.1	13111	100
2025-3-27 18:24:58.363	WT901BLE68-01(48591DE3C19B)	-0.174	-1.495	0.151	46.570	-24.780	271.057	-71.89	22.20	-112.94	-47.138	-56.644	-9.800	0.47913	-0.22281	0.56488	-0.63370	31.1	13111	100
2025-3-27 18:24:58.363	WT901BLE68-01(48591DE3C19B)	-0.208	-1.495	0.151	46.570	-24.780	271.057	-71.03	24.62	-111.69	-47.138	-56.644	-9.800	0.47913	-0.22281	0.56488	-0.63370	31.1	13111	100
2025-3-27 18:24:58.363	WT901BLE68-01(48591DE3C19B)	-0.208	-1.352	0.104	44.800	1.221	274.231	-70.17	27.06	-110.52	-47.138	-56.644	-9.800	0.47913	-0.22281	0.56488	-0.63370	31.1	13111	100
2025-3-27 18:24:58.363	WT901BLE68-01(48591DE3C19B)	-0.208	-1.352	0.104	44.800	1.221	274.231	-69.31	29.53	-109.41	-47.138	-56.644	-9.800	0.47913	-0.22281	0.56488	-0.63370	31.1	13111	100
2025-3-27 18:24:58.394	WT901BLE68-01(48591DE3C19B)	-0.208	-1.279	0.036	38.391	20.386	269.470	-68.47	31.98	-108.35	-47.138	-56.644	-9.800	0.47913	-0.22281	0.56488	-0.63370	31.1	13111	100
2025-3-27 18:24:58.394	WT901BLE68-01(48591DE3C19B)	-0.183	-1.279	0.036	38.391	20.386	269.470	-67.65	34.41	-107.35	-47.138	-56.644	-9.800	0.47913	-0.22281	0.56488	-0.63370	31.1	13111	100
2025-3-27 18:24:58.394	WT901BLE68-01(48591DE3C19B)	-0.183	-1.302	-0.028	29.114	30.334	258.240	-66.87	36.79	-106.36	-47.138	-56.644	-9.800	0.47913	-0.22281	0.56488	-0.63370	31.1	13111	100
2025-3-27 18:24:58.394	WT901BLE68-01(48591DE3C19B)	-0.184	-1.302	-0.028	29.114	30.334	258.240	-66.12	39.12	-105.41	-47.138	-56.644	-9.800	0.47913	-0.22281	0.56488	-0.63370	31.1	13111	100
2025-3-27 18:24:58.453	WT901BLE68-01(48591DE3C19B)	-0.184	-1.335	-0.049	22.217	24.170	243.347	-65.34	41.33	-104.39	-47.138	-56.644	-9.800	0.47913	-0.22281	0.56488	-0.63370	31.1	13111	100
2025-3-27 18:24:58.454	WT901BLE68-01(48591DE3C19B)	-0.153	-1.335	-0.049	22.217	24.170	243.347	-64.53	43.45	-103.30	-47.138	-56.644	-9.800	0.47913	-0.22281	0.56488	-0.63370	31.1	13111	100
2025-3-27 18:24:58.454	WT901BLE68-01(48591DE3C19B)	-0.153	-1.284	-0.049	16.968	-4.578	223.511	-63.59	45.38	-102.03	-47.138	-56.644	-9.800	0.47913	-0.22281	0.56488	-0.63370	31.1	13111	100
2025-3-27 18:24:58.454	WT901BLE68-01(48591DE3C19B)	-0.134	-1.284	-0.049	16.968	-4.578	223.511	-62.50	47.14	-100.56	-47.138	-56.644	-9.800	0.47913	-0.22281	0.56488	-0.63370	31.1	13111	100
2025-3-27 18:24:58.486	WT901BLE68-01(48591DE3C19B)	-0.134	-1.335	-0.034	4.822	-35.339	197.693	-61.30	48.67	-98.88	-47.138	-56.644	-9.800	0.47913	-0.22281	0.56488	-0.63370	31.1	13111	100
2025-3-27 18:24:58.486	WT901BLE68-01(48591DE3C19B)	-0.107	-1.335	-0.034	4.822	-35.339	197.693	-60.00	49.99	-97.02	-47.138	-56.644	-9.800	0.47913	-0.22281	0.56488	-0.63370	31.1	13111	100
2025-3-27 18:24:58.486	WT901BLE68-01(48591DE3C19B)	-0.107	-1.569	-0.021	-3.845	-60.669	168.457	-58.60	51.09	-95.02	-47.138	-56.644	-9.800	0.47913	-0.22281	0.56488	-0.63370	31.1	13111	100
2025-3-27 18:24:58.486	WT901BLE68-01(48591DE3C19B)	0.077	-1.569	-0.021	-3.845	-60.669	168.457	-57.14	51.95	-92.89	-47.138	-56.644	-9.800	0.47913	-0.22281	0.56488	-0.63370	31.1	13111	100
2025-3-27 18:24:58.545	WT901BLE68-01(48591DE3C19B)	0.077	-1.748	-0.027	-1.587	-78.674	137.085	-55.62	52.59	-90.74	-47.138	-56.644	-9.800	0.47913	-0.22281	0.56488	-0.63370	31.1	13111	100
2025-3-27 18:24:58.545	WT901BLE68-01(48591DE3C19B)	0.465	-1.748	-0.027	-1.587	-78.674	137.085	-54.07	53.01	-88.57	-47.138	-56.644	-9.800	0.47913	-0.22281	0.56488	-0.63370	31.1	13111	100
2025-3-27 18:24:58.545	WT901BLE68-01(48591DE3C19B)	0.465	-1.762	-0.077	7.751	-86.792	105.103	-52.55	53.24	-86.49	-85.946	-26.264	-10.290	0.47913	-0.22281	0.56488	-0.63370	31.1	13111	100
2025-3-27 18:24:58.545	WT901BLE68-01(48591DE3C19B)	0.680	-1.762	-0.077	7.751	-86.792	105.103	-51.06	53.27	-84.52	-85.946	-26.264	-10.290	0.47913	-0.22281	0.56488	-0.63370	31.1	13111	100
2025-3-27 18:24:58.573	WT901BLE68-01(48591DE3C19B)	0.680	-1.662	-0.038	9.277	-66.284	71.472	-49.84	53.20	-82.88	-85.946	-26.264	-10.290	0.47913	-0.22281	0.56488	-0.63370	31.1	13111	100
2025-3-27 18:24:58.573	WT901BLE68-01(48591DE3C19B)	0.550	-1.662	-0.038	9.277	-66.284	71.472	-48.88	53.04	-81.57	-85.946	-26.264	-10.290	0.47913	-0.22281	0.56488	-0.63370	31.1	13111	100
2025-3-27 18:24:58.573	WT901BLE68-01(48591DE3C19B)	0.550	-1.658	0.071	5.066	-28.809	22.644	-48.36	52.81	-80.78	-85.946	-26.264	-10.290	0.47913	-0.22281	0.56488	-0.63370	31.1	13111	100
2025-3-27 18:24:58.573	WT901BLE68-01(48591DE3C19B)	0.423	-1.658	0.071	5.066	-28.809	22.644	-48.26	52.50	-80.50	-85.946	-26.264	-10.290	0.47913	-0.22281	0.56488	-0.63370	31.1	13111	100
2025-3-27 18:24:58.606	WT901BLE68-01(48591DE3C19B)	0.423	-1.614	0.123	5.005	5.432	-36.133	-48.59	52.09	-80.76	-85.946	-26.264	-10.290	0.47913	-0.22281	0.56488	-0.63370	31.1	13111	100
2025-3-27 18:24:58.606	WT901BLE68-01(48591DE3C19B)	0.321	-1.614	0.123	5.005	5.432	-36.133	-49.32	51.56	-81.52	-85.946	-26.264	-10.290	0.47913	-0.22281	0.56488	-0.63370	31.1	13111	100
2025-3-27 18:24:58.606	WT901BLE68-01(48591DE3C19B)	0.321	-1.390	0.162	2.258	40.222	-88.501	-50.40	50.94	-82.74	-85.946	-26.264	-10.290	0.47913	-0.22281	0.56488	-0.63370	31.1	13111	100
2025-3-27 18:24:58.607	WT901BLE68-01(48591DE3C19B)	0.165	-1.390	0.162	2.258	40.222	-88.501	-51.81	50.20	-84.38	-85.946	-26.264	-10.290	0.47913	-0.22281	0.56488	-0.63370	31.1	13111	100
2025-3-27 18:24:58.635	WT901BLE68-01(48591DE3C19B)	0.165	-1.257	0.164	-3.784	65.308	-134.521	-53.46	49.34	-86.33	-85.946	-26.264	-10.290	0.47913	-0.22281	0.56488	-0.63370	31.1	13111	100
2025-3-27 18:24:58.635	WT901BLE68-01(48591DE3C19B)	0.014	-1.257	0.164	-3.784	65.308	-134.521	-55.32	48.32	-88.53	-85.946	-26.264	-10.290	0.47913	-0.22281	0.56488	-0.63370	31.1	13111	100
2025-3-27 18:24:58.636	WT901BLE68-01(48591DE3C19B)	0.014	-1.204	0.136	-0.610	72.449	-169.617	-57.19	47.14	-90.83	-85.946	-26.264	-10.290	0.47913	-0.22281	0.56488	-0.63370	31.1	13111	100
2025-3-27 18:24:58.636	WT901BLE68-01(48591DE3C19B)	-0.081	-1.204	0.136	-0.610	72.449	-169.617	-59.04	45.79	-93.18	-85.946	-26.264	-10.290	0.47913	-0.22281	0.56488	-0.63370	31.1	13111	100
2025-3-27 18:24:58.694	WT901BLE68-01(48591DE3C19B)	-0.081	-1.117	0.139	4.944	72.388	-197.083	-60.79	44.27	-95.48	-85.946	-26.264	-10.290	0.47913	-0.22281	0.56488	-0.63370	31.1	13111	100
2025-3-27 18:24:58.694	WT901BLE68-01(48591DE3C19B)	-0.129	-1.117	0.139	4.944	72.388	-197.083	-62.42	42.60	-97.74	-85.946	-26.264	-10.290	0.47913	-0.22281	0.56488	-0.63370	31.1	13111	100
2025-3-27 18:24:58.694	WT901BLE68-01(48591DE3C19B)	-0.129	-1.090	0.160	4.517	70.435	-220.642	-63.96	40.79	-99.92	-85.946	-26.264	-10.290	0.47913	-0.22281	0.56488	-0.63370	31.1	13111	100
2025-3-27 18:24:58.695	WT901BLE68-01(48591DE3C19B)	-0.201	-1.090	0.160	4.517	70.435	-220.642	-65.37	38.84	-102.02	-85.946	-26.264	-10.290	0.47913	-0.22281	0.56488	-0.63370	31.1	13111	100
2025-3-27 18:24:58.722	WT901BLE68-01(48591DE3C19B)	-0.201	-1.113	0.163	1.221	61.096	-241.760	-66.67	36.75	-103.99	-85.946	-26.264	-10.290	0.47913	-0.22281	0.56488	-0.63370	31.1	13111	100
2025-3-27 18:24:58.722	WT901BLE68-01(48591DE3C19B)	-0.267	-1.113	0.163	1.221	61.096	-241.760	-67.85	34.54	-105.83	-85.946	-26.264	-10.290	0.47913	-0.22281	0.56488	-0.63370	31.1	13111	100
2025-3-27 18:24:58.722	WT901BLE68-01(48591DE3C19B)	-0.267	-1.181	0.181	-4.517	48.157	-264.282	-68.92	32.06	-107.52	-85.946	-26.264	-10.290	0.47913	-0.22281	0.56488	-0.63370	31.1	13111	100
2025-3-27 18:24:58.722	WT901BLE68-01(48591DE3C19B)	-0.358	-1.181	0.181	-4.517	48.157	-264.282	-69.87	29.57	-109.09	-85.946	-26.264	-10.290	0.57874	-0.15073	0.57239	-0.56088	31.1	13111	100
2025-3-27 18:24:58.753	WT901BLE68-01(48591DE3C19B)	-0.358	-1.293	0.222	-8.789	39.490	-281.677	-70.75	26.89	-110.56	-85.946	-26.264	-10.290	0.57874	-0.15073	0.57239	-0.56088	31.1	13111	100
2025-3-27 18:24:58.753	WT901BLE68-01(48591DE3C19B)	-0.465	-1.293	0.222	-8.789	39.490	-281.677	-71.52	24.22	-111.93	-85.946	-26.264	-10.290	0.57874	-0.15073	0.57239	-0.56088	31.1	13111	100
2025-3-27 18:24:58.753	WT901BLE68-01(48591DE3C19B)	-0.465	-1.388	0.270	-12.268	41.565	-294.983	-72.25	21.43	-113.30	-85.946	-26.264	-10.290	0.57874	-0.15073	0.57239	-0.56088	31.1	13111	100
2025-3-27 18:24:58.753	WT901BLE68-01(48591DE3C19B)	-0.532	-1.388	0.270	-12.268	41.565	-294.983	-72.89	18.66	-114.59	-85.946	-26.264	-10.290	0.57874	-0.15073	0.57239	-0.56088	31.1	13111	100
2025-3-27 18:24:58.844	WT901BLE68-01(48591DE3C19B)	-0.532	-1.426	0.298	-11.719	47.974	-300.171	-73.47	15.86	-115.92	-85.946	-26.264	-10.290	0.57874	-0.15073	0.57239	-0.56088	31.1	13111	100
2025-3-27 18:24:58.844	WT901BLE68-01(48591DE3C19B)	-0.518	-1.426	0.298	-11.719	47.974	-300.171	-73.97	13.08	-117.19	-85.946	-26.264	-10.290	0.57874	-0.15073	0.57239	-0.56088	31.1	13111	100
2025-3-27 18:24:58.844	WT901BLE68-01(48591DE3C19B)	-0.518	-1.364	0.322	-9.216	54.382	-297.852	-74.38	10.35	-118.48	-85.946	-26.264	-10.290	0.57874	-0.15073	0.57239	-0.56088	31.1	13111	100
2025-3-27 18:24:58.844	WT901BLE68-01(48591DE3C19B)	-0.478	-1.364	0.322	-9.216	54.382	-297.852	-74.72	7.65	-119.73	-85.946	-26.264	-10.290	0.57874	-0.15073	0.57239	-0.56088	31.1	13111	100
2025-3-27 18:24:58.845	WT901BLE68-01(48591DE3C19B)	-0.478	-1.283	0.346	-7.813	57.190	-288.452	-74.98	5.04	-120.96	-85.946	-26.264	-10.290	0.57874	-0.15073	0.57239	-0.56088	31.1	13111	100
2025-3-27 18:24:58.845	WT901BLE68-01(48591DE3C19B)	-0.480	-1.283	0.346	-7.813	57.190	-288.452	-75.18	2.46	-122.18	-85.946	-26.264	-10.290	0.57874	-0.15073	0.57239	-0.56088	31.1	13111	100
2025-3-27 18:24:58.845	WT901BLE68-01(48591DE3C19B)	-0.480	-1.221	0.374	-2.319	57.800	-273.132	-75.26	0.04	-123.35	-85.946	-26.264	-10.290	0.57874	-0.15073	0.57239	-0.56088	31.1	13111	100
2025-3-27 18:24:58.846	WT901BLE68-01(48591DE3C19B)	-0.618	-1.221	0.374	-2.319	57.800	-273.132	-75.29	-2.36	-124.52	-85.946	-26.264	-10.290	0.57874	-0.15073	0.57239	-0.56088	31.1	13111	100
2025-3-27 18:24:58.875	WT901BLE68-01(48591DE3C19B)	-0.618	-1.170	0.425	10.498	53.345	-252.502	-75.15	-4.55	-125.60	-85.946	-26.264	-10.290	0.57874	-0.15073	0.57239	-0.56088	31.1	13111	100
2025-3-27 18:24:58.876	WT901BLE68-01(48591DE3C19B)	-0.731	-1.170	0.425	10.498	53.345	-252.502	-74.95	-6.72	-126.70	-85.946	-26.264	-10.290	0.57874	-0.15073	0.57239	-0.56088	31.1	13111	100
2025-3-27 18:24:58.876	WT901BLE68-01(48591DE3C19B)	-0.731	-1.124	0.451	23.376	52.368	-234.558	-74.59	-8.69	-127.76	-85.946	-26.264	-10.290	0.57874	-0.15073	0.57239	-0.56088	31.1	13111	100
2025-3-27 18:24:58.876	WT901BLE68-01(48591DE3C19B)	-0.766	-1.124	0.451	23.376	52.368	-234.558	-74.19	-10.63	-128.84	-85.946	-26.264	-10.290	0.57874	-0.15073	0.57239	-0.56088	31.1	13111	100
2025-3-27 18:24:58.964	WT901BLE68-01(48591DE3C19B)	-0.766	-1.127	0.407	36.804	59.021	-207.886	-73.61	-12.28	-129.95	-85.946	-26.264	-10.290	0.57874	-0.15073	0.57239	-0.56088	31.1	13111	100
2025-3-27 18:24:58.964	WT901BLE68-01(48591DE3C19B)	-0.775	-1.127	0.407	36.804	59.021	-207.886	-73.00	-13.89	-131.09	-64.092	-49.686	-14.896	0.57874	-0.15073	0.57239	-0.56088	31.1	13111	100
2025-3-27 18:24:58.964	WT901BLE68-01(48591DE3C19B)	-0.775	-1.134	0.332	47.974	72.083	-173.828	-72.24	-15.11	-132.28	-64.092	-49.686	-14.896	0.57874	-0.15073	0.57239	-0.56088	31.1	13111	100
2025-3-27 18:24:58.964	WT901BLE68-01(48591DE3C19B)	-0.836	-1.134	0.332	47.974	72.083	-173.828	-71.44	-16.30	-133.51	-64.092	-49.686	-14.896	0.57874	-0.15073	0.57239	-0.56088	31.1	13111	100
2025-3-27 18:24:58.973	WT901BLE68-01(48591DE3C19B)	-0.836	-1.058	0.202	55.298	90.210	-141.296	-70.53	-17.10	-134.83	-64.092	-49.686	-14.896	0.57874	-0.15073	0.57239	-0.56088	31.1	13111	100
2025-3-27 18:24:58.973	WT901BLE68-01(48591DE3C19B)	-1.074	-1.058	0.202	55.298	90.210	-141.296	-69.60	-17.86	-136.18	-64.092	-49.686	-14.896	0.57874	-0.15073	0.57239	-0.56088	31.1	13111	100
2025-3-27 18:24:58.973	WT901BLE68-01(48591DE3C19B)	-1.074	-0.896	0.234	54.199	96.680	-111.511	-68.68	-18.29	-137.52	-64.092	-49.686	-14.896	0.57874	-0.15073	0.57239	-0.56088	31.1	13111	100
2025-3-27 18:24:58.973	WT901BLE68-01(48591DE3C19B)	-1.269	-0.896	0.234	54.199	96.680	-111.511	-67.74	-18.68	-138.88	-64.092	-49.686	-14.896	0.57874	-0.15073	0.57239	-0.56088	31.1	13111	100
2025-3-27 18:24:59.24	WT901BLE68-01(48591DE3C19B)	-1.269	-0.882	0.361	36.316	62.683	-79.895	-67.12	-18.88	-139.82	-64.092	-49.686	-14.896	0.57874	-0.15073	0.57239	-0.56088	31.1	13111	100
2025-3-27 18:24:59.24	WT901BLE68-01(48591DE3C19B)	-1.216	-0.882	0.361	36.316	62.683	-79.895	-66.46	-19.05	-140.80	-64.092	-49.686	-14.896	0.57874	-0.15073	0.57239	-0.56088	31.1	13111	100
2025-3-27 18:24:59.24	WT901BLE68-01(48591DE3C19B)	-1.216	-0.999	0.419	19.714	17.517	-47.119	-66.15	-19.09	-141.23	-64.092	-49.686	-14.896	0.57874	-0.15073	0.57239	-0.56088	31.1	13111	100
2025-3-27 18:24:59.24	WT901BLE68-01(48591DE3C19B)	-1.062	-0.999	0.419	19.714	17.517	-47.119	-65.82	-19.12	-141.69	-64.092	-49.686	-14.896	0.57874	-0.15073	0.57239	-0.56088	31.1	13111	100
2025-3-27 18:24:59.53	WT901BLE68-01(48591DE3C19B)	-1.062	-1.090	0.396	7.324	-2.869	-16.968	-65.72	-18.95	-141.83	-64.092	-49.686	-14.896	0.57874	-0.15073	0.57239	-0.56088	31.1	13111	100
2025-3-27 18:24:59.53	WT901BLE68-01(48591DE3C19B)	-0.967	-1.090	0.396	7.324	-2.869	-16.968	-65.60	-18.78	-141.99	-64.092	-49.686	-14.896	0.57874	-0.15073	0.57239	-0.56088	31.1	13111	100
2025-3-27 18:24:59.53	WT901BLE68-01(48591DE3C19B)	-0.967	-1.112	0.362	-4.272	-0.549	13.245	-65.64	-18.33	-142.04	-64.092	-49.686	-14.896	0.57874	-0.15073	0.57239	-0.56088	31.1	13111	100
2025-3-27 18:24:59.53	WT901BLE68-01(48591DE3C19B)	-0.944	-1.112	0.362	-4.272	-0.549	13.245	-65.68	-17.88	-142.10	-64.092	-49.686	-14.896	0.57874	-0.15073	0.57239	-0.56088	31.1	13111	100
2025-3-27 18:24:59.85	WT901BLE68-01(48591DE3C19B)	-0.944	-1.085	0.330	-15.503	10.681	41.687	-65.83	-17.13	-142.14	-64.092	-49.686	-14.896	0.57874	-0.15073	0.57239	-0.56088	31.1	13111	100
2025-3-27 18:24:59.85	WT901BLE68-01(48591DE3C19B)	-0.934	-1.085	0.330	-15.503	10.681	41.687	-65.98	-16.38	-142.19	-64.092	-49.686	-14.896	0.57874	-0.15073	0.57239	-0.56088	31.1	13111	100
2025-3-27 18:24:59.86	WT901BLE68-01(48591DE3C19B)	-0.934	-1.051	0.290	-29.175	9.277	68.420	-66.30	-15.40	-142.11	-64.092	-49.686	-14.896	0.57874	-0.15073	0.57239	-0.56088	31.1	13111	100
2025-3-27 18:24:59.86	WT901BLE68-01(48591DE3C19B)	-0.930	-1.051	0.290	-29.175	9.277	68.420	-66.61	-14.42	-142.04	-64.092	-49.686	-14.896	0.57874	-0.15073	0.57239	-0.56088	31.1	13111	100
2025-3-27 18:24:59.144	WT901BLE68-01(48591DE3C19B)	-0.930	-1.024	0.254	-38.635	-13.123	95.581	-67.09	-13.28	-141.66	-64.092	-49.686	-14.896	0.57874	-0.15073	0.57239	-0.56088	31.1	13111	100
2025-3-27 18:24:59.144	WT901BLE68-01(48591DE3C19B)	-0.885	-1.024	0.254	-38.635	-13.123	95.581	-67.55	-12.15	-141.28	-64.092	-49.686	-14.896	0.22348	-0.26431	0.49542	-0.79666	31.1	13111	100
2025-3-27 18:24:59.144	WT901BLE68-01(48591DE3C19B)	-0.885	-0.956	0.220	-44.250	-44.983	122.559	-68.15	-10.89	-140.51	-64.092	-49.686	-14.896	0.22348	-0.26431	0.49542	-0.79666	31.1	13111	100
2025-3-27 18:24:59.144	WT901BLE68-01(48591DE3C19B)	-0.799	-0.956	0.220	-44.250	-44.983	122.559	-68.72	-9.62	-139.75	-64.092	-49.686	-14.896	0.22348	-0.26431	0.49542	-0.79666	31.1	13111	100
2025-3-27 18:24:59.172	WT901BLE68-01(48591DE3C19B)	-0.799	-0.951	0.156	-47.852	-76.233	150.330	-69.36	-8.20	-138.61	-64.092	-49.686	-14.896	0.22348	-0.26431	0.49542	-0.79666	31.1	13111	100
2025-3-27 18:24:59.173	WT901BLE68-01(48591DE3C19B)	-0.705	-0.951	0.156	-47.852	-76.233	150.330	-69.98	-6.78	-137.48	-64.092	-49.686	-14.896	0.22348	-0.26431	0.49542	-0.79666	31.1	13111	100
2025-3-27 18:24:59.173	WT901BLE68-01(48591DE3C19B)	-0.705	-1.042	0.075	-48.035	-102.783	179.016	-70.61	-5.17	-136.01	-64.092	-49.686	-14.896	0.22348	-0.26431	0.49542	-0.79666	31.1	13111	100
2025-3-27 18:24:59.173	WT901BLE68-01(48591DE3C19B)	-0.613	-1.042	0.075	-48.035	-102.783	179.016	-71.20	-3.57	-134.54	-64.092	-49.686	-14.896	0.22348	-0.26431	0.49542	-0.79666	31.1	13111	100
2025-3-27 18:24:59.204	WT901BLE68-01(48591DE3C19B)	-0.531	-1.212	0.014	-43.640	-120.483	202.881	-71.73	-1.78	-132.83	-64.092	-49.686	-14.896	0.22348	-0.26431	0.49542	-0.79666	31.1	13111	100
2025-3-27 18:24:59.204	WT901BLE68-01(48591DE3C19B)	-0.531	-1.451	0.042	-33.875	-127.136	221.802	-72.16	0.07	-131.05	-64.092	-49.686	-14.896	0.22348	-0.26431	0.49542	-0.79666	31.1	13111	100
2025-3-27 18:24:59.204	WT901BLE68-01(48591DE3C19B)	-0.421	-1.451	0.042	-33.875	-127.136	221.802	-72.50	2.01	-129.19	-64.092	-49.686	-14.896	0.22348	-0.26431	0.49542	-0.79666	31.1	13111	100
2025-3-27 18:24:59.204	WT901BLE68-01(48591DE3C19B)	-0.421	-1.672	0.051	-17.029	-125.549	235.413	-72.70	3.99	-127.31	-64.092	-49.686	-14.896	0.22348	-0.26431	0.49542	-0.79666	31.1	13111	100
2025-3-27 18:24:59.263	WT901BLE68-01(48591DE3C19B)	-0.288	-1.672	0.051	-17.029	-125.549	235.413	-72.77	6.02	-125.39	-64.092	-49.686	-14.896	0.22348	-0.26431	0.49542	-0.79666	31.1	13111	100
2025-3-27 18:24:59.263	WT901BLE68-01(48591DE3C19B)	-0.288	-1.678	0.048	4.272	-108.093	242.310	-72.67	8.07	-123.52	-64.092	-49.686	-14.896	0.22348	-0.26431	0.49542	-0.79666	31.1	13111	100
2025-3-27 18:24:59.264	WT901BLE68-01(48591DE3C19B)	-0.256	-1.678	0.048	4.272	-108.093	242.310	-72.42	10.16	-121.71	-64.092	-49.686	-14.896	0.22348	-0.26431	0.49542	-0.79666	31.1	13111	100
2025-3-27 18:24:59.264	WT901BLE68-01(48591DE3C19B)	-0.256	-1.552	0.060	16.663	-81.543	244.690	-72.06	12.27	-119.98	-64.092	-49.686	-14.896	0.22348	-0.26431	0.49542	-0.79666	31.1	13111	100
2025-3-27 18:24:59.296	WT901BLE68-01(48591DE3C19B)	-0.306	-1.552	0.060	16.663	-81.543	244.690	-71.61	14.39	-118.36	-64.092	-49.686	-14.896	0.22348	-0.26431	0.49542	-0.79666	31.1	13111	100
2025-3-27 18:24:59.296	WT901BLE68-01(48591DE3C19B)	-0.306	-1.472	0.103	18.372	-57.678	243.286	-71.12	16.51	-116.82	-64.092	-49.686	-14.896	0.22348	-0.26431	0.49542	-0.79666	31.1	13111	100
2025-3-27 18:24:59.296	WT901BLE68-01(48591DE3C19B)	-0.341	-1.472	0.103	18.372	-57.678	243.286	-70.60	18.63	-115.38	-64.092	-49.686	-14.896	0.22348	-0.26431	0.49542	-0.79666	31.1	13111	100
2025-3-27 18:24:59.296	WT901BLE68-01(48591DE3C19B)	-0.341	-1.428	0.165	18.066	-38.269	243.347	-70.05	20.76	-113.99	-64.092	-49.686	-14.896	0.22348	-0.26431	0.49542	-0.79666	31.1	13111	100
2025-3-27 18:24:59.354	WT901BLE68-01(48591DE3C19B)	-0.323	-1.428	0.165	18.066	-38.269	243.347	-69.48	22.89	-112.68	-64.092	-49.686	-14.896	0.22348	-0.26431	0.49542	-0.79666	31.1	13111	100
2025-3-27 18:24:59.354	WT901BLE68-01(48591DE3C19B)	-0.323	-1.342	0.197	18.433	-20.752	245.850	-68.88	25.03	-111.40	-64.092	-49.686	-14.896	0.22348	-0.26431	0.49542	-0.79666	31.1	13111	100
2025-3-27 18:24:59.354	WT901BLE68-01(48591DE3C19B)	-0.286	-1.342	0.197	18.433	-20.752	245.850	-68.26	27.20	-110.18	-73.892	-41.356	-13.916	0.22348	-0.26431	0.49542	-0.79666	31.1	13111	100
2025-3-27 18:24:59.354	WT901BLE68-01(48591DE3C19B)	-0.286	-1.238	0.164	15.320	-7.080	247.681	-67.63	29.37	-108.97	-73.892	-41.356	-13.916	0.22348	-0.26431	0.49542	-0.79666	31.1	13111	100
2025-3-27 18:24:59.382	WT901BLE68-01(48591DE3C19B)	-0.257	-1.238	0.164	15.320	-7.080	247.681	-66.98	31.54	-107.79	-73.892	-41.356	-13.916	0.22348	-0.26431	0.49542	-0.79666	31.1	13111	100
2025-3-27 18:24:59.383	WT901BLE68-01(48591DE3C19B)	-0.257	-1.180	0.112	9.399	-0.671	247.375	-66.32	33.70	-106.60	-73.892	-41.356	-13.916	0.22348	-0.26431	0.49542	-0.79666	31.1	13111	100
2025-3-27 18:24:59.383	WT901BLE68-01(48591DE3C19B)	-0.262	-1.180	0.112	9.399	-0.671	247.375	-65.64	35.85	-105.39	-73.892	-41.356	-13.916	0.22348	-0.26431	0.49542	-0.79666	31.1	13111	100
2025-3-27 18:24:59.383	WT901BLE68-01(48591DE3C19B)	-0.262	-1.199	0.073	1.648	-4.517	241.821	-64.92	37.94	-104.12	-73.892	-41.356	-13.916	0.22348	-0.26431	0.49542	-0.79666	31.1	13111	100
2025-3-27 18:24:59.413	WT901BLE68-01(48591DE3C19B)	-0.278	-1.199	0.073	1.648	-4.517	241.821	-64.18	39.96	-102.78	-73.892	-41.356	-13.916	0.22348	-0.26431	0.49542	-0.79666	31.1	13111	100
2025-3-27 18:24:59.414	WT901BLE68-01(48591DE3C19B)	-0.278	-1.254	0.058	-3.540	-17.639	231.873	-63.34	41.89	-101.33	-73.892	-41.356	-13.916	0.22348	-0.26431	0.49542	-0.79666	31.1	13111	100
2025-3-27 18:24:59.414	WT901BLE68-01(48591DE3C19B)	-0.267	-1.254	0.058	-3.540	-17.639	231.873	-62.42	43.71	-99.75	-73.892	-41.356	-13.916	0.22348	-0.26431	0.49542	-0.79666	31.1	13111	100
2025-3-27 18:24:59.414	WT901BLE68-01(48591DE3C19B)	-0.267	-1.306	0.041	-7.507	-33.875	219.299	-61.39	45.42	-98.04	-73.892	-41.356	-13.916	0.22348	-0.26431	0.49542	-0.79666	31.1	13111	100
2025-3-27 18:24:59.444	WT901BLE68-01(48591DE3C19B)	-0.267	-1.306	0.041	-7.507	-33.875	219.299	-60.24	46.99	-96.18	-73.892	-41.356	-13.916	0.22348	-0.26431	0.49542	-0.79666	31.1	13111	100
2025-3-27 18:24:59.444	WT901BLE68-01(48591DE3C19B)	-0.267	-1.368	0.070	-11.658	-44.373	202.942	-59.01	48.43	-94.23	-73.892	-41.356	-13.916	0.22348	-0.26431	0.49542	-0.79666	31.1	13111	100
2025-3-27 18:24:59.444	WT901BLE68-01(48591DE3C19B)	-0.257	-1.368	0.070	-11.658	-44.373	202.942	-57.71	49.74	-92.19	-73.892	-41.356	-13.916	0.22348	-0.26431	0.49542	-0.79666	31.1	13111	100
2025-3-27 18:24:59.444	WT901BLE68-01(48591DE3C19B)	-0.257	-1.520	0.096	-18.066	-59.631	179.321	-56.34	50.86	-90.06	-73.892	-41.356	-13.916	0.22348	-0.26431	0.49542	-0.79666	31.1	13111	100
2025-3-27 18:24:59.504	WT901BLE68-01(48591DE3C19B)	-0.108	-1.520	0.096	-18.066	-59.631	179.321	-54.93	51.81	-87.86	-73.892	-41.356	-13.916	0.22348	-0.26431	0.49542	-0.79666	31.1	13111	100
2025-3-27 18:24:59.505	WT901BLE68-01(48591DE3C19B)	-0.108	-1.666	0.083	-18.677	-70.251	148.682	-53.50	52.56	-85.68	-73.892	-41.356	-13.916	0.22348	-0.26431	0.49542	-0.79666	31.1	13111	100
2025-3-27 18:24:59.505	WT901BLE68-01(48591DE3C19B)	0.128	-1.666	0.083	-18.677	-70.251	148.682	-52.10	53.11	-83.53	-73.892	-41.356	-13.916	0.22348	-0.26431	0.49542	-0.79666	31.1	13111	100
2025-3-27 18:24:59.505	WT901BLE68-01(48591DE3C19B)	0.128	-1.745	0.074	-14.282	-61.829	111.877	-50.84	53.51	-81.60	-73.892	-41.356	-13.916	0.22348	-0.26431	0.49542	-0.79666	31.1	13111	100
2025-3-27 18:24:59.533	WT901BLE68-01(48591DE3C19B)	0.232	-1.745	0.074	-14.282	-61.829	111.877	-49.75	53.77	-79.90	-73.892	-41.356	-13.916	0.22348	-0.26431	0.49542	-0.79666	31.1	13111	100
2025-3-27 18:24:59.533	WT901BLE68-01(48591DE3C19B)	0.232	-1.680	0.108	-3.052	-36.682	71.411	-48.91	53.93	-78.59	-73.892	-41.356	-13.916	0.22348	-0.26431	0.49542	-0.79666	31.1	13111	100
2025-3-27 18:24:59.533	WT901BLE68-01(48591DE3C19B)	0.132	-1.680	0.108	-3.052	-36.682	71.411	-48.33	53.99	-77.66	-73.892	-41.356	-13.916	0.22348	-0.26431	0.49542	-0.79666	31.1	13111	100
2025-3-27 18:24:59.533	WT901BLE68-01(48591DE3C19B)	0.132	-1.409	0.205	-2.991	-8.789	28.625	-48.09	53.99	-77.17	-73.892	-41.356	-13.916	0.75153	-0.02603	0.55045	-0.36255	31.1	13111	100
2025-3-27 18:24:59.572	WT901BLE68-01(48591DE3C19B)	0.088	-1.409	0.205	-2.991	-8.789	28.625	-48.20	53.91	-77.09	-73.892	-41.356	-13.916	0.75153	-0.02603	0.55045	-0.36255	31.1	13111	100
2025-3-27 18:24:59.572	WT901BLE68-01(48591DE3C19B)	0.088	-1.247	0.217	-9.277	10.498	-20.630	-48.65	53.71	-77.42	-73.892	-41.356	-13.916	0.75153	-0.02603	0.55045	-0.36255	31.1	13111	100
2025-3-27 18:24:59.572	WT901BLE68-01(48591DE3C19B)	0.149	-1.247	0.217	-9.277	10.498	-20.630	-49.44	53.38	-78.13	-73.892	-41.356	-13.916	0.75153	-0.02603	0.55045	-0.36255	31.1	13111	100
2025-3-27 18:24:59.572	WT901BLE68-01(48591DE3C19B)	0.149	-1.231	0.176	-9.521	26.306	-66.284	-50.49	52.93	-79.17	-73.892	-41.356	-13.916	0.75153	-0.02603	0.55045	-0.36255	31.1	13111	100
2025-3-27 18:24:59.624	WT901BLE68-01(48591DE3C19B)	0.156	-1.231	0.176	-9.521	26.306	-66.284	-51.77	52.32	-80.51	-73.892	-41.356	-13.916	0.75153	-0.02603	0.55045	-0.36255	31.1	13111	100
2025-3-27 18:24:59.624	WT901BLE68-01(48591DE3C19B)	0.156	-1.201	0.108	-6.104	39.490	-105.896	-53.20	51.59	-82.08	-73.892	-41.356	-13.916	0.75153	-0.02603	0.55045	-0.36255	31.1	13111	100
2025-3-27 18:24:59.624	WT901BLE68-01(48591DE3C19B)	0.057	-1.201	0.108	-6.104	39.490	-105.896	-54.76	50.70	-83.86	-73.892	-41.356	-13.916	0.75153	-0.02603	0.55045	-0.36255	31.1	13111	100
2025-3-27 18:24:59.624	WT901BLE68-01(48591DE3C19B)	0.057	-1.099	0.108	-3.784	39.429	-136.597	-56.33	49.66	-85.69	-73.892	-41.356	-13.916	0.75153	-0.02603	0.55045	-0.36255	31.1	13111	100
2025-3-27 18:24:59.652	WT901BLE68-01(48591DE3C19B)	-0.045	-1.099	0.108	-3.784	39.429	-136.597	-57.89	48.47	-87.56	-73.892	-41.356	-13.916	0.75153	-0.02603	0.55045	-0.36255	31.1	13111	100
2025-3-27 18:24:59.653	WT901BLE68-01(48591DE3C19B)	-0.045	-1.042	0.133	-2.197	33.813	-163.086	-59.38	47.12	-89.38	-73.892	-41.356	-13.916	0.75153	-0.02603	0.55045	-0.36255	31.1	13111	100
2025-3-27 18:24:59.653	WT901BLE68-01(48591DE3C19B)	-0.103	-1.042	0.133	-2.197	33.813	-163.086	-60.79	45.63	-91.16	-73.892	-41.356	-13.916	0.75153	-0.02603	0.55045	-0.36255	31.1	13111	100
2025-3-27 18:24:59.653	WT901BLE68-01(48591DE3C19B)	-0.103	-1.005	0.188	-1.404	27.954	-183.960	-62.12	43.90	-92.89	-73.892	-41.356	-13.916	0.75153	-0.02603	0.55045	-0.36255	31.1	13111	100
2025-3-27 18:24:59.685	WT901BLE68-01(48591DE3C19B)	-0.143	-1.005	0.188	-1.404	27.954	-183.960	-63.34	42.15	-94.51	-73.892	-41.356	-13.916	0.75153	-0.02603	0.55045	-0.36255	31.1	13111	100
2025-3-27 18:24:59.685	WT901BLE68-01(48591DE3C19B)	-0.143	-1.014	0.215	-2.075	25.574	-203.125	-64.50	40.22	-96.10	-73.892	-41.356	-13.916	0.75153	-0.02603	0.55045	-0.36255	31.1	13111	100
2025-3-27 18:24:59.686	WT901BLE68-01(48591DE3C19B)	-0.143	-1.014	0.215	-2.075	25.574	-203.125	-65.56	38.27	-97.60	-73.892	-41.356	-13.916	0.75153	-0.02603	0.55045	-0.36255	31.1	13111	100
2025-3-27 18:24:59.686	WT901BLE68-01(48591DE3C19B)	-0.143	-1.018	0.215	-2.441	21.912	-221.069	-66.54	36.14	-99.05	-73.892	-41.356	-13.916	0.75153	-0.02603	0.55045	-0.36255	31.1	13111	100
2025-3-27 18:24:59.744	WT901BLE68-01(48591DE3C19B)	-0.140	-1.018	0.215	-2.441	21.912	-221.069	-67.42	34.00	-100.41	-73.892	-41.356	-13.916	0.75153	-0.02603	0.55045	-0.36255	31.1	13111	100
2025-3-27 18:24:59.744	WT901BLE68-01(48591DE3C19B)	-0.140	-1.058	0.204	-5.737	25.696	-237.732	-68.31	31.72	-101.80	-76.244	-36.260	-13.818	0.75153	-0.02603	0.55045	-0.36255	31.1	13111	100
2025-3-27 18:24:59.744	WT901BLE68-01(48591DE3C19B)	-0.173	-1.058	0.204	-5.737	25.696	-237.732	-69.11	29.44	-103.12	-76.244	-36.260	-13.818	0.75153	-0.02603	0.55045	-0.36255	31.1	13111	100
2025-3-27 18:24:59.744	WT901BLE68-01(48591DE3C19B)	-0.173	-1.126	0.205	-6.897	41.931	-252.686	-69.94	27.08	-104.59	-76.244	-36.260	-13.818	0.75153	-0.02603	0.55045	-0.36255	31.1	13111	100
2025-3-27 18:24:59.773	WT901BLE68-01(48591DE3C19B)	-0.219	-1.126	0.205	-6.897	41.931	-252.686	-70.69	24.72	-105.99	-76.244	-36.260	-13.818	0.75153	-0.02603	0.55045	-0.36255	31.1	13111	100
2025-3-27 18:24:59.773	WT901BLE68-01(48591DE3C19B)	-0.219	-1.176	0.215	-5.371	63.416	-265.930	-71.44	22.30	-107.58	-76.244	-36.260	-13.818	0.75153	-0.02603	0.55045	-0.36255	31.1	13111	100
2025-3-27 18:24:59.773	WT901BLE68-01(48591DE3C19B)	-0.255	-1.176	0.215	-5.371	63.416	-265.930	-72.10	19.89	-109.12	-76.244	-36.260	-13.818	0.75153	-0.02603	0.55045	-0.36255	31.1	13111	100
2025-3-27 18:24:59.773	WT901BLE68-01(48591DE3C19B)	-0.255	-1.217	0.217	-1.404	84.839	-275.879	-72.71	17.44	-110.83	-76.244	-36.260	-13.818	0.75153	-0.02603	0.55045	-0.36255	31.1	13111	100
2025-3-27 18:24:59.804	WT901BLE68-01(48591DE3C19B)	-0.333	-1.217	0.217	-1.404	84.839	-275.879	-73.25	14.99	-112.49	-76.244	-36.260	-13.818	0.75153	-0.02603	0.55045	-0.36255	31.1	13111	100
2025-3-27 18:24:59.804	WT901BLE68-01(48591DE3C19B)	-0.333	-1.253	0.212	4.517	97.229	-281.372	-73.66	12.54	-114.24	-76.244	-36.260	-13.818	0.75153	-0.02603	0.55045	-0.36255	31.1	13111	100
2025-3-27 18:24:59.804	WT901BLE68-01(48591DE3C19B)	-0.427	-1.253	0.212	4.517	97.229	-281.372	-74.00	10.09	-115.96	-76.244	-36.260	-13.818	0.75153	-0.02603	0.55045	-0.36255	31.1	13111	100
2025-3-27 18:24:59.804	WT901BLE68-01(48591DE3C19B)	-0.427	-1.252	0.238	11.658	98.755	-282.227	-74.19	7.64	-117.65	-76.244	-36.260	-13.818	0.75153	-0.02603	0.55045	-0.36255	31.1	13111	100
2025-3-27 18:24:59.864	WT901BLE68-01(48591DE3C19B)	-0.531	-1.252	0.238	11.658	98.755	-282.227	-74.31	5.22	-119.32	-76.244	-36.260	-13.818	0.75153	-0.02603	0.55045	-0.36255	31.1	13111	100
2025-3-27 18:24:59.864	WT901BLE68-01(48591DE3C19B)	-0.531	-1.230	0.284	18.188	88.806	-275.696	-74.28	2.85	-120.87	-76.244	-36.260	-13.818	0.75153	-0.02603	0.55045	-0.36255	31.1	13111	100
2025-3-27 18:24:59.864	WT901BLE68-01(48591DE3C19B)	-0.602	-1.230	0.284	18.188	88.806	-275.696	-74.18	0.51	-122.42	-76.244	-36.260	-13.818	0.75153	-0.02603	0.55045	-0.36255	31.1	13111	100
2025-3-27 18:24:59.864	WT901BLE68-01(48591DE3C19B)	-0.602	-1.206	0.319	23.254	73.669	-264.099	-73.97	-1.74	-123.79	-76.244	-36.260	-13.818	0.75153	-0.02603	0.55045	-0.36255	31.1	13111	100
2025-3-27 18:24:59.896	WT901BLE68-01(48591DE3C19B)	-0.654	-1.206	0.319	23.254	73.669	-264.099	-73.71	-3.96	-125.17	-76.244	-36.260	-13.818	0.75153	-0.02603	0.55045	-0.36255	31.1	13111	100
2025-3-27 18:24:59.896	WT901BLE68-01(48591DE3C19B)	-0.654	-1.182	0.306	27.588	57.312	-247.986	-73.36	-6.05	-126.36	-76.244	-36.260	-13.818	0.75153	-0.02603	0.55045	-0.36255	31.1	13111	100
2025-3-27 18:24:59.896	WT901BLE68-01(48591DE3C19B)	-0.707	-1.182	0.306	27.588	57.312	-247.986	-72.97	-8.11	-127.58	-76.244	-36.260	-13.818	0.75153	-0.02603	0.55045	-0.36255	31.1	13111	100
2025-3-27 18:24:59.896	WT901BLE68-01(48591DE3C19B)	-0.707	-1.200	0.293	29.236	39.001	-227.539	-72.55	-10.00	-128.58	-76.244	-36.260	-13.818	0.75153	-0.02603	0.55045	-0.36255	31.1	13111	100
2025-3-27 18:24:59.925	WT901BLE68-01(48591DE3C19B)	-0.688	-1.200	0.293	29.236	39.001	-227.539	-72.10	-11.87	-129.60	-76.244	-36.260	-13.818	0.75153	-0.02603	0.55045	-0.36255	31.1	13111	100
2025-3-27 18:24:59.926	WT901BLE68-01(48591DE3C19B)	-0.688	-1.232	0.273	31.799	25.574	-204.590	-71.64	-13.53	-130.45	-76.244	-36.260	-13.818	0.75153	-0.02603	0.55045	-0.36255	31.1	13111	100
2025-3-27 18:24:59.926	WT901BLE68-01(48591DE3C19B)	-0.729	-1.232	0.273	31.799	25.574	-204.590	-71.15	-15.18	-131.31	-76.244	-36.260	-13.818	0.26230	-0.33554	0.48108	-0.76620	31.1	13111	100
2025-3-27 18:24:59.926	WT901BLE68-01(48591DE3C19B)	-0.729	-1.245	0.298	33.813	22.217	-178.894	-70.64	-16.57	-132.08	-76.244	-36.260	-13.818	0.26230	-0.33554	0.48108	-0.76620	31.1	13111	100
2025-3-27 18:24:59.983	WT901BLE68-01(48591DE3C19B)	-0.881	-1.245	0.298	33.813	22.217	-178.894	-70.10	-17.94	-132.88	-76.244	-36.260	-13.818	0.26230	-0.33554	0.48108	-0.76620	31.1	13111	100
2025-3-27 18:24:59.983	WT901BLE68-01(48591DE3C19B)	-0.881	-1.324	0.330	31.799	23.132	-147.949	-69.60	-19.00	-133.60	-76.244	-36.260	-13.818	0.26230	-0.33554	0.48108	-0.76620	31.1	13111	100
2025-3-27 18:24:59.983	WT901BLE68-01(48591DE3C19B)	-0.991	-1.324	0.330	31.799	23.132	-147.949	-69.08	-20.04	-134.34	-76.244	-36.260	-13.818	0.26230	-0.33554	0.48108	-0.76620	31.1	13111	100
2025-3-27 18:24:59.983	WT901BLE68-01(48591DE3C19B)	-0.991	-1.425	0.345	28.259	25.330	-114.807	-68.62	-20.74	-134.99	-76.244	-36.260	-13.818	0.26230	-0.33554	0.48108	-0.76620	31.1	13111	100
2025-3-27 18:25:0.13	WT901BLE68-01(48591DE3C19B)	-0.940	-1.425	0.345	28.259	25.330	-114.807	-68.14	-21.43	-135.66	-76.244	-36.260	-13.818	0.26230	-0.33554	0.48108	-0.76620	31.1	13111	100
2025-3-27 18:25:0.13	WT901BLE68-01(48591DE3C19B)	-0.940	-1.460	0.340	22.217	38.818	-78.979	-67.72	-21.74	-136.35	-76.244	-36.260	-13.818	0.26230	-0.33554	0.48108	-0.76620	31.1	13111	100
2025-3-27 18:25:0.13	WT901BLE68-01(48591DE3C19B)	-0.808	-1.460	0.340	22.217	38.818	-78.979	-67.29	-22.02	-137.04	-76.244	-36.260	-13.818	0.26230	-0.33554	0.48108	-0.76620	31.1	13111	100
2025-3-27 18:25:0.13	WT901BLE68-01(48591DE3C19B)	-0.808	-1.310	0.344	13.855	70.007	-39.551	-66.89	-21.82	-137.88	-76.244	-36.260	-13.818	0.26230	-0.33554	0.48108	-0.76620	31.1	13111	100
2025-3-27 18:25:0.73	WT901BLE68-01(48591DE3C19B)	-0.752	-1.310	0.344	13.855	70.007	-39.551	-66.49	-21.62	-138.72	-76.244	-36.260	-13.818	0.26230	-0.33554	0.48108	-0.76620	31.1	13111	100
2025-3-27 18:25:0.73	WT901BLE68-01(48591DE3C19B)	-0.752	-1.149	0.349	-1.221	99.792	-0.305	-66.20	-20.92	-139.69	-76.244	-36.260	-13.818	0.26230	-0.33554	0.48108	-0.76620	31.1	13111	100
2025-3-27 18:25:0.73	WT901BLE68-01(48591DE3C19B)	-0.758	-1.149	0.349	-1.221	99.792	-0.305	-65.93	-20.23	-140.66	-76.244	-36.260	-13.818	0.26230	-0.33554	0.48108	-0.76620	31.1	13111	100
2025-3-27 18:25:0.73	WT901BLE68-01(48591DE3C19B)	-0.758	-1.050	0.332	-16.052	109.253	34.424	-65.84	-19.18	-141.56	-76.244	-36.260	-13.818	0.26230	-0.33554	0.48108	-0.76620	31.1	13111	100
2025-3-27 18:25:0.106	WT901BLE68-01(48591DE3C19B)	-0.781	-1.050	0.332	-16.052	109.253	34.424	-65.76	-18.13	-142.48	-76.244	-36.260	-13.818	0.26230	-0.33554	0.48108	-0.76620	31.1	13111	100
2025-3-27 18:25:0.106	WT901BLE68-01(48591DE3C19B)	-0.781	-0.973	0.303	-30.579	90.698	62.195	-65.92	-16.91	-143.09	-76.244	-36.260	-13.818	0.26230	-0.33554	0.48108	-0.76620	31.1	13111	100
2025-3-27 18:25:0.106	WT901BLE68-01(48591DE3C19B)	-0.841	-0.973	0.303	-30.579	90.698	62.195	-66.10	-15.69	-143.71	-76.244	-36.260	-13.818	0.26230	-0.33554	0.48108	-0.76620	31.1	13111	100
2025-3-27 18:25:0.106	WT901BLE68-01(48591DE3C19B)	-0.874	-0.906	0.276	-43.030	50.964	85.022	-66.52	-14.44	-143.88	-76.244	-36.260	-13.818	0.26230	-0.33554	0.48108	-0.76620	31.1	13111	100
2025-3-27 18:25:0.135	WT901BLE68-01(48591DE3C19B)	-0.874	-0.840	0.245	-52.063	3.967	105.469	-67.04	-13.18	-143.81	-76.244	-36.260	-13.818	0.26230	-0.33554	0.48108	-0.76620	31.1	13111	100
2025-3-27 18:25:0.135	WT901BLE68-01(48591DE3C19B)	-0.804	-0.840	0.245	-52.063	3.967	105.469	-67.66	-11.91	-143.50	-76.244	-36.260	-13.818	0.26230	-0.33554	0.48108	-0.76620	31.1	13111	100
2025-3-27 18:25:0.135	WT901BLE68-01(48591DE3C19B)	-0.804	-0.785	0.187	-59.570	-38.025	126.160	-68.33	-10.63	-142.98	-76.244	-36.260	-13.818	0.26230	-0.33554	0.48108	-0.76620	31.1	13111	100
2025-3-27 18:25:0.136	WT901BLE68-01(48591DE3C19B)	-0.728	-0.785	0.187	-59.570	-38.025	126.160	-69.06	-9.33	-142.26	-41.846	-48.608	-12.446	0.26230	-0.33554	0.48108	-0.76620	31.1	13111	100
2025-3-27 18:25:0.173	WT901BLE68-01(48591DE3C19B)	-0.728	-0.802	0.136	-64.575	-72.205	147.766	-69.82	-7.97	-141.36	-41.846	-48.608	-12.446	0.26230	-0.33554	0.48108	-0.76620	31.1	13111	100
2025-3-27 18:25:0.173	WT901BLE68-01(48591DE3C19B)	-0.638	-0.802	0.136	-64.575	-72.205	147.766	-70.59	-6.57	-140.28	-41.846	-48.608	-12.446	0.26230	-0.33554	0.48108	-0.76620	31.1	13111	100
2025-3-27 18:25:0.173	WT901BLE68-01(48591DE3C19B)	-0.638	-0.869	0.102	-65.186	-100.159	167.725	-71.36	-5.11	-139.07	-41.846	-48.608	-12.446	0.26230	-0.33554	0.48108	-0.76620	31.1	13111	100
2025-3-27 18:25:0.173	WT901BLE68-01(48591DE3C19B)	-0.585	-0.869	0.102	-65.186	-100.159	167.725	-72.10	-3.59	-137.71	-41.846	-48.608	-12.446	0.26230	-0.33554	0.48108	-0.76620	31.1	13111	100
2025-3-27 18:25:0.224	WT901BLE68-01(48591DE3C19B)	-0.585	-1.002	0.097	-62.317	-124.084	184.204	-72.80	-2.01	-136.22	-41.846	-48.608	-12.446	0.26230	-0.33554	0.48108	-0.76620	31.1	13111	100
2025-3-27 18:25:0.224	WT901BLE68-01(48591DE3C19B)	-0.563	-1.002	0.097	-62.317	-124.084	184.204	-73.45	-0.39	-134.60	-41.846	-48.608	-12.446	0.26230	-0.33554	0.48108	-0.76620	31.1	13111	100
2025-3-27 18:25:0.224	WT901BLE68-01(48591DE3C19B)	-0.563	-1.191	0.097	-51.941	-142.517	196.594	-74.00	1.27	-132.89	-41.846	-48.608	-12.446	0.26230	-0.33554	0.48108	-0.76620	31.1	13111	100
2025-3-27 18:25:0.224	WT901BLE68-01(48591DE3C19B)	-0.536	-1.191	0.097	-51.941	-142.517	196.594	-74.45	2.97	-131.06	-41.846	-48.608	-12.446	0.26230	-0.33554	0.48108	-0.76620	31.1	13111	100
2025-3-27 18:25:0.252	WT901BLE68-01(48591DE3C19B)	-0.536	-1.350	0.089	-35.828	-152.344	205.688	-74.77	4.69	-129.17	-41.846	-48.608	-12.446	0.26230	-0.33554	0.48108	-0.76620	31.1	13111	100
2025-3-27 18:25:0.253	WT901BLE68-01(48591DE3C19B)	-0.488	-1.350	0.089	-35.828	-152.344	205.688	-74.96	6.44	-127.19	-41.846	-48.608	-12.446	0.26230	-0.33554	0.48108	-0.76620	31.1	13111	100
2025-3-27 18:25:0.253	WT901BLE68-01(48591DE3C19B)	-0.488	-1.445	0.068	-18.494	-151.672	210.449	-75.00	8.20	-125.21	-41.846	-48.608	-12.446	0.26230	-0.33554	0.48108	-0.76620	31.1	13111	100
2025-3-27 18:25:0.253	WT901BLE68-01(48591DE3C19B)	-0.425	-1.445	0.068	-18.494	-151.672	210.449	-74.90	9.95	-123.20	-41.846	-48.608	-12.446	0.26230	-0.33554	0.48108	-0.76620	31.1	13111	100
2025-3-27 18:25:0.283	WT901BLE68-01(48591DE3C19B)	-0.425	-1.457	0.046	-2.869	-139.038	211.182	-74.68	11.71	-121.23	-41.846	-48.608	-12.446	0.26230	-0.33554	0.48108	-0.76620	31.1	13111	100
2025-3-27 18:25:0.283	WT901BLE68-01(48591DE3C19B)	-0.364	-1.457	0.046	-2.869	-139.038	211.182	-74.33	13.46	-119.29	-41.846	-48.608	-12.446	0.26230	-0.33554	0.48108	-0.76620	31.1	13111	100
2025-3-27 18:25:0.283	WT901BLE68-01(48591DE3C19B)	-0.364	-1.388	0.048	8.911	-119.873	212.219	-73.89	15.21	-117.41	-41.846	-48.608	-12.446	0.26230	-0.33554	0.48108	-0.76620	31.1	13111	100
2025-3-27 18:25:0.283	WT901BLE68-01(48591DE3C19B)	-0.320	-1.388	0.048	8.911	-119.873	212.219	-73.37	16.96	-115.60	-41.846	-48.608	-12.446	0.26230	-0.33554	0.48108	-0.76620	31.1	13111	100
2025-3-27 18:25:0.344	WT901BLE68-01(48591DE3C19B)	-0.320	-1.333	0.069	17.151	-99.243	214.722	-72.77	18.72	-113.86	-41.846	-48.608	-12.446	0.26230	-0.33554	0.48108	-0.76620	31.1	13111	100
2025-3-27 18:25:0.344	WT901BLE68-01(48591DE3C19B)	-0.283	-1.333	0.069	17.151	-99.243	214.722	-72.10	20.48	-112.18	-41.846	-48.608	-12.446	0.26230	-0.33554	0.48108	-0.76620	31.1	13111	100
2025-3-27 18:25:0.344	WT901BLE68-01(48591DE3C19B)	-0.283	-1.224	0.097	22.217	-78.979	217.651	-71.39	22.25	-110.55	-41.846	-48.608	-12.446	0.26230	-0.33554	0.48108	-0.76620	31.1	13111	100
2025-3-27 18:25:0.344	WT901BLE68-01(48591DE3C19B)	-0.272	-1.224	0.097	22.217	-78.979	217.651	-70.64	24.04	-108.98	-41.846	-48.608	-12.446	0.26230	-0.33554	0.48108	-0.76620	31.1	13111	100
2025-3-27 18:25:0.373	WT901BLE68-01(48591DE3C19B)	-0.272	-1.156	0.139	24.109	-60.913	220.520	-69.85	25.83	-107.47	-41.846	-48.608	-12.446	0.57587	-0.18228	0.55835	-0.56857	31.1	13111	100
2025-3-27 18:25:0.373	WT901BLE68-01(48591DE3C19B)	-0.256	-1.156	0.139	24.109	-60.913	220.520	-69.03	27.64	-105.99	-41.846	-48.608	-12.446	0.57587	-0.18228	0.55835	-0.56857	31.1	13111	100
2025-3-27 18:25:0.373	WT901BLE68-01(48591DE3C19B)	-0.256	-1.136	0.166	22.766	-48.035	222.229	-68.19	29.45	-104.53	-41.846	-48.608	-12.446	0.57587	-0.18228	0.55835	-0.56857	31.1	13111	100
2025-3-27 18:25:0.373	WT901BLE68-01(48591DE3C19B)	-0.221	-1.136	0.166	22.766	-48.035	222.229	-67.32	31.26	-103.09	-41.846	-48.608	-12.446	0.57587	-0.18228	0.55835	-0.56857	31.1	13111	100
2025-3-27 18:25:0.496	WT901BLE68-01(48591DE3C19B)	-0.221	-1.202	0.147	20.996	-31.982	221.252	-66.44	33.06	-101.68	-41.846	-48.608	-12.446	0.57587	-0.18228	0.55835	-0.56857	31.1	13111	100
2025-3-27 18:25:0.496	WT901BLE68-01(48591DE3C19B)	-0.211	-1.202	0.147	20.996	-31.982	221.252	-65.55	34.85	-100.31	-41.846	-48.608	-12.446	0.57587	-0.18228	0.55835	-0.56857	31.1	13111	100
2025-3-27 18:25:0.496	WT901BLE68-01(48591DE3C19B)	-0.211	-1.300	0.108	18.738	-14.832	214.600	-64.68	36.62	-98.99	-41.846	-48.608	-12.446	0.57587	-0.18228	0.55835	-0.56857	31.1	13111	100
2025-3-27 18:25:0.497	WT901BLE68-01(48591DE3C19B)	-0.220	-1.300	0.108	18.738	-14.832	214.600	-63.81	38.36	-97.72	-41.846	-48.608	-12.446	0.57587	-0.18228	0.55835	-0.56857	31.1	13111	100
2025-3-27 18:25:0.497	WT901BLE68-01(48591DE3C19B)	-0.220	-1.472	0.064	14.282	-4.395	200.684	-62.98	40.04	-96.50	-41.846	-48.608	-12.446	0.57587	-0.18228	0.55835	-0.56857	31.1	13111	100
2025-3-27 18:25:0.497	WT901BLE68-01(48591DE3C19B)	-0.281	-1.472	0.064	14.282	-4.395	200.684	-62.17	41.65	-95.32	-41.846	-48.608	-12.446	0.57587	-0.18228	0.55835	-0.56857	31.1	13111	100
2025-3-27 18:25:0.497	WT901BLE68-01(48591DE3C19B)	-0.281	-1.700	0.065	7.874	-3.662	182.861	-61.39	43.16	-94.15	-41.846	-48.608	-12.446	0.57587	-0.18228	0.55835	-0.56857	31.1	13111	100
2025-3-27 18:25:0.497	WT901BLE68-01(48591DE3C19B)	-0.268	-1.700	0.065	7.874	-3.662	182.861	-60.62	44.57	-92.99	-41.846	-48.608	-12.446	0.57587	-0.18228	0.55835	-0.56857	31.1	13111	100
2025-3-27 18:25:0.498	WT901BLE68-01(48591DE3C19B)	-0.268	-1.914	0.077	5.432	-11.963	157.776	-59.84	45.83	-91.82	-41.846	-48.608	-12.446	0.57587	-0.18228	0.55835	-0.56857	31.1	13111	100
2025-3-27 18:25:0.498	WT901BLE68-01(48591DE3C19B)	-0.116	-1.914	0.077	5.432	-11.963	157.776	-59.06	46.94	-90.65	-41.846	-48.608	-12.446	0.57587	-0.18228	0.55835	-0.56857	31.1	13111	100
2025-3-27 18:25:0.498	WT901BLE68-01(48591DE3C19B)	-0.116	-1.881	0.091	9.033	-22.095	133.118	-58.24	47.90	-89.47	-41.846	-48.608	-12.446	0.57587	-0.18228	0.55835	-0.56857	31.1	13111	100
2025-3-27 18:25:0.498	WT901BLE68-01(48591DE3C19B)	0.085	-1.881	0.091	9.033	-22.095	133.118	-57.40	48.71	-88.28	-41.846	-48.608	-12.446	0.57587	-0.18228	0.55835	-0.56857	31.1	13111	100
2025-3-27 18:25:0.554	WT901BLE68-01(48591DE3C19B)	0.085	-1.669	0.132	6.775	-26.917	102.905	-56.61	49.35	-87.16	-41.846	-48.608	-12.446	0.57587	-0.18228	0.55835	-0.56857	31.1	13111	100
2025-3-27 18:25:0.554	WT901BLE68-01(48591DE3C19B)	0.265	-1.669	0.132	6.775	-26.917	102.905	-55.88	49.84	-86.12	-74.088	-48.510	-5.880	0.57587	-0.18228	0.55835	-0.56857	31.1	13111	100
2025-3-27 18:25:0.554	WT901BLE68-01(48591DE3C19B)	0.265	-1.455	0.155	4.089	-24.231	67.566	-55.29	50.17	-85.24	-74.088	-48.510	-5.880	0.57587	-0.18228	0.55835	-0.56857	31.1	13111	100
2025-3-27 18:25:0.554	WT901BLE68-01(48591DE3C19B)	0.332	-1.455	0.155	4.089	-24.231	67.566	-54.84	50.35	-84.54	-74.088	-48.510	-5.880	0.57587	-0.18228	0.55835	-0.56857	31.1	13111	100
2025-3-27 18:25:0.585	WT901BLE68-01(48591DE3C19B)	0.332	-1.232	0.197	-1.526	-13.367	28.076	-54.61	50.39	-84.08	-74.088	-48.510	-5.880	0.57587	-0.18228	0.55835	-0.56857	31.1	13111	100
2025-3-27 18:25:0.585	WT901BLE68-01(48591DE3C19B)	0.315	-1.232	0.197	-1.526	-13.367	28.076	-54.60	50.29	-83.88	-74.088	-48.510	-5.880	0.57587	-0.18228	0.55835	-0.56857	31.1	13111	100
2025-3-27 18:25:0.585	WT901BLE68-01(48591DE3C19B)	0.315	-1.175	0.183	-7.507	6.042	-18.555	-55.16	49.92	-84.34	-74.088	-48.510	-5.880	0.57587	-0.18228	0.55835	-0.56857	31.1	13111	100
2025-3-27 18:25:0.585	WT901BLE68-01(48591DE3C19B)	0.284	-1.175	0.183	-7.507	6.042	-18.555	-55.71	49.53	-84.79	-74.088	-48.510	-5.880	0.57587	-0.18228	0.55835	-0.56857	31.1	13111	100
2025-3-27 18:25:0.615	WT901BLE68-01(48591DE3C19B)	0.284	-1.147	0.170	-9.705	25.146	-66.040	-56.75	48.86	-85.87	-74.088	-48.510	-5.880	0.57587	-0.18228	0.55835	-0.56857	31.1	13111	100
2025-3-27 18:25:0.615	WT901BLE68-01(48591DE3C19B)	0.239	-1.147	0.170	-9.705	25.146	-66.040	-57.75	48.16	-86.92	-74.088	-48.510	-5.880	0.57587	-0.18228	0.55835	-0.56857	31.1	13111	100
2025-3-27 18:25:0.615	WT901BLE68-01(48591DE3C19B)	0.239	-1.060	0.192	-10.071	32.532	-107.178	-59.01	47.15	-88.34	-74.088	-48.510	-5.880	0.57587	-0.18228	0.55835	-0.56857	31.1	13111	100
2025-3-27 18:25:0.616	WT901BLE68-01(48591DE3C19B)	0.217	-1.060	0.192	-10.071	32.532	-107.178	-60.21	46.11	-89.69	-74.088	-48.510	-5.880	0.57587	-0.18228	0.55835	-0.56857	31.1	13111	100
2025-3-27 18:25:0.673	WT901BLE68-01(48591DE3C19B)	0.217	-1.011	0.206	-10.925	34.424	-140.076	-61.52	44.77	-91.22	-74.088	-48.510	-5.880	0.57587	-0.18228	0.55835	-0.56857	31.1	13111	100
2025-3-27 18:25:0.673	WT901BLE68-01(48591DE3C19B)	0.146	-1.011	0.206	-10.925	34.424	-140.076	-62.74	43.42	-92.68	-74.088	-48.510	-5.880	0.57587	-0.18228	0.55835	-0.56857	31.1	13111	100
2025-3-27 18:25:0.673	WT901BLE68-01(48591DE3C19B)	0.146	-1.035	0.210	-9.277	41.016	-166.687	-64.02	41.85	-94.28	-74.088	-48.510	-5.880	0.57587	-0.18228	0.55835	-0.56857	31.1	13111	100
2025-3-27 18:25:0.673	WT901BLE68-01(48591DE3C19B)	0.019	-1.035	0.210	-9.277	41.016	-166.687	-65.20	40.25	-95.80	-74.088	-48.510	-5.880	0.57587	-0.18228	0.55835	-0.56857	31.1	13111	100
2025-3-27 18:25:0.706	WT901BLE68-01(48591DE3C19B)	0.019	-1.063	0.208	-3.479	45.837	-187.012	-66.33	38.48	-97.40	-74.088	-48.510	-5.880	0.57587	-0.18228	0.55835	-0.56857	31.1	13111	100
2025-3-27 18:25:0.706	WT901BLE68-01(48591DE3C19B)	-0.100	-1.063	0.208	-3.479	45.837	-187.012	-67.36	36.69	-98.90	-74.088	-48.510	-5.880	0.57587	-0.18228	0.55835	-0.56857	31.1	13111	100
2025-3-27 18:25:0.706	WT901BLE68-01(48591DE3C19B)	-0.100	-1.079	0.202	3.296	44.373	-204.102	-68.28	34.74	-100.39	-74.088	-48.510	-5.880	0.57587	-0.18228	0.55835	-0.56857	31.1	13111	100
2025-3-27 18:25:0.706	WT901BLE68-01(48591DE3C19B)	-0.195	-1.079	0.202	3.296	44.373	-204.102	-69.10	32.78	-101.80	-74.088	-48.510	-5.880	0.57587	-0.18228	0.55835	-0.56857	31.1	13111	100
2025-3-27 18:25:0.735	WT901BLE68-01(48591DE3C19B)	-0.195	-1.093	0.191	2.991	29.419	-217.529	-69.79	30.65	-103.04	-74.088	-48.510	-5.880	0.57587	-0.18228	0.55835	-0.56857	31.1	13111	100
2025-3-27 18:25:0.736	WT901BLE68-01(48591DE3C19B)	-0.228	-1.093	0.191	2.991	29.419	-217.529	-70.41	28.53	-104.21	-74.088	-48.510	-5.880	0.57587	-0.18228	0.55835	-0.56857	31.1	13111	100
2025-3-27 18:25:0.736	WT901BLE68-01(48591DE3C19B)	-0.228	-1.128	0.186	0.916	16.418	-229.614	-70.93	26.25	-105.23	-74.088	-48.510	-5.880	0.58005	-0.20190	0.55957	-0.55637	31.1	13111	100
2025-3-27 18:25:0.736	WT901BLE68-01(48591DE3C19B)	-0.226	-1.128	0.186	0.916	16.418	-229.614	-71.40	23.99	-106.21	-74.088	-48.510	-5.880	0.58005	-0.20190	0.55957	-0.55637	31.1	13111	100
2025-3-27 18:25:0.794	WT901BLE68-01(48591DE3C19B)	-0.226	-1.176	0.185	-2.625	13.916	-240.479	-71.86	21.63	-107.16	-74.088	-48.510	-5.880	0.58005	-0.20190	0.55957	-0.55637	31.1	13111	100
2025-3-27 18:25:0.794	WT901BLE68-01(48591DE3C19B)	-0.224	-1.176	0.185	-2.625	13.916	-240.479	-72.26	19.28	-108.07	-74.088	-48.510	-5.880	0.58005	-0.20190	0.55957	-0.55637	31.1	13111	100
2025-3-27 18:25:0.794	WT901BLE68-01(48591DE3C19B)	-0.224	-1.216	0.194	-3.906	22.278	-250.610	-72.66	16.88	-109.06	-74.088	-48.510	-5.880	0.58005	-0.20190	0.55957	-0.55637	31.1	13111	100
2025-3-27 18:25:0.794	WT901BLE68-01(48591DE3C19B)	-0.259	-1.216	0.194	-3.906	22.278	-250.610	-73.02	14.48	-110.02	-74.088	-48.510	-5.880	0.58005	-0.20190	0.55957	-0.55637	31.1	13111	100
2025-3-27 18:25:0.823	WT901BLE68-01(48591DE3C19B)	-0.259	-1.226	0.223	-4.883	37.964	-259.583	-73.37	12.06	-111.13	-74.088	-48.510	-5.880	0.58005	-0.20190	0.55957	-0.55637	31.1	13111	100
2025-3-27 18:25:0.823	WT901BLE68-01(48591DE3C19B)	-0.314	-1.226	0.223	-4.883	37.964	-259.583	-73.67	9.65	-112.22	-74.088	-48.510	-5.880	0.58005	-0.20190	0.55957	-0.55637	31.1	13111	100
2025-3-27 18:25:0.823	WT901BLE68-01(48591DE3C19B)	-0.314	-1.235	0.264	-3.906	57.983	-266.296	-73.94	7.24	-113.49	-74.088	-48.510	-5.880	0.58005	-0.20190	0.55957	-0.55637	31.1	13111	100
2025-3-27 18:25:0.823	WT901BLE68-01(48591DE3C19B)	-0.374	-1.235	0.264	-3.906	57.983	-266.296	-74.16	4.85	-114.74	-74.088	-48.510	-5.880	0.58005	-0.20190	0.55957	-0.55637	31.1	13111	100
2025-3-27 18:25:0.854	WT901BLE68-01(48591DE3C19B)	-0.374	-1.229	0.285	-0.061	76.111	-267.578	-74.29	2.51	-116.16	-74.088	-48.510	-5.880	0.58005	-0.20190	0.55957	-0.55637	31.1	13111	100
2025-3-27 18:25:0.854	WT901BLE68-01(48591DE3C19B)	-0.416	-1.229	0.285	-0.061	76.111	-267.578	-74.36	0.19	-117.56	-74.088	-48.510	-5.880	0.58005	-0.20190	0.55957	-0.55637	31.1	13111	100
2025-3-27 18:25:0.854	WT901BLE68-01(48591DE3C19B)	-0.416	-1.196	0.258	7.019	91.309	-262.817	-74.30	-2.03	-119.10	-74.088	-48.510	-5.880	0.58005	-0.20190	0.55957	-0.55637	31.1	13111	100
2025-3-27 18:25:0.854	WT901BLE68-01(48591DE3C19B)	-0.474	-1.196	0.258	7.019	91.309	-262.817	-74.17	-4.22	-120.64	-74.088	-48.510	-5.880	0.58005	-0.20190	0.55957	-0.55637	31.1	13111	100
2025-3-27 18:25:0.916	WT901BLE68-01(48591DE3C19B)	-0.474	-1.144	0.209	15.015	92.346	-252.441	-73.92	-6.29	-122.17	-74.088	-48.510	-5.880	0.58005	-0.20190	0.55957	-0.55637	31.1	13111	100
2025-3-27 18:25:0.916	WT901BLE68-01(48591DE3C19B)	-0.523	-1.144	0.209	15.015	92.346	-252.441	-73.61	-8.33	-123.71	-74.088	-48.510	-5.880	0.58005	-0.20190	0.55957	-0.55637	31.1	13111	100
2025-3-27 18:25:0.916	WT901BLE68-01(48591DE3C19B)	-0.523	-1.083	0.194	21.362	76.050	-237.610	-73.21	-10.26	-125.07	-74.088	-48.510	-5.880	0.58005	-0.20190	0.55957	-0.55637	31.1	13111	100
2025-3-27 18:25:0.916	WT901BLE68-01(48591DE3C19B)	-0.533	-1.083	0.194	21.362	76.050	-237.610	-72.77	-12.15	-126.45	-74.088	-48.510	-5.880	0.58005	-0.20190	0.55957	-0.55637	31.1	13111	100
2025-3-27 18:25:0.945	WT901BLE68-01(48591DE3C19B)	-0.533	-1.023	0.204	23.804	55.481	-219.849	-72.31	-13.91	-127.59	-74.088	-48.510	-5.880	0.58005	-0.20190	0.55957	-0.55637	31.1	13111	100
2025-3-27 18:25:0.945	WT901BLE68-01(48591DE3C19B)	-0.561	-1.023	0.204	23.804	55.481	-219.849	-71.82	-15.64	-128.77	-74.088	-48.510	-5.880	0.58005	-0.20190	0.55957	-0.55637	31.1	13111	100
2025-3-27 18:25:0.946	WT901BLE68-01(48591DE3C19B)	-0.561	-1.043	0.266	23.071	38.269	-198.608	-71.36	-17.20	-129.73	-74.088	-48.510	-5.880	0.58005	-0.20190	0.55957	-0.55637	31.1	13111	100
2025-3-27 18:25:0.946	WT901BLE68-01(48591DE3C19B)	-0.582	-1.043	0.266	23.071	38.269	-198.608	-70.87	-18.74	-130.72	-44.884	-47.530	-8.428	0.58005	-0.20190	0.55957	-0.55637	31.1	13111	100
2025-3-27 18:25:0.975	WT901BLE68-01(48591DE3C19B)	-0.582	-1.104	0.332	23.071	29.419	-175.049	-70.40	-20.07	-131.56	-44.884	-47.530	-8.428	0.58005	-0.20190	0.55957	-0.55637	31.1	13111	100
2025-3-27 18:25:0.976	WT901BLE68-01(48591DE3C19B)	-0.579	-1.104	0.332	23.071	29.419	-175.049	-69.91	-21.37	-132.43	-44.884	-47.530	-8.428	0.58005	-0.20190	0.55957	-0.55637	31.1	13111	100
2025-3-27 18:25:0.976	WT901BLE68-01(48591DE3C19B)	-0.579	-1.121	0.355	22.888	31.860	-148.010	-69.41	-22.40	-133.25	-44.884	-47.530	-8.428	0.58005	-0.20190	0.55957	-0.55637	31.1	13111	100
2025-3-27 18:25:0.976	WT901BLE68-01(48591DE3C19B)	-0.545	-1.121	0.355	22.888	31.860	-148.010	-68.90	-23.40	-134.10	-44.884	-47.530	-8.428	0.58005	-0.20190	0.55957	-0.55637	31.1	13111	100
2025-3-27 18:25:1.34	WT901BLE68-01(48591DE3C19B)	-0.545	-1.158	0.343	17.334	44.983	-121.338	-68.41	-24.10	-134.99	-44.884	-47.530	-8.428	0.58005	-0.20190	0.55957	-0.55637	31.1	13111	100
2025-3-27 18:25:1.34	WT901BLE68-01(48591DE3C19B)	-0.540	-1.158	0.343	17.334	44.983	-121.338	-67.90	-24.79	-135.90	-44.884	-47.530	-8.428	0.58005	-0.20190	0.55957	-0.55637	31.1	13111	100
2025-3-27 18:25:1.34	WT901BLE68-01(48591DE3C19B)	-0.540	-1.239	0.320	11.108	60.791	-95.215	-67.42	-25.16	-136.87	-44.884	-47.530	-8.428	0.58005	-0.20190	0.55957	-0.55637	31.1	13111	100
2025-3-27 18:25:1.34	WT901BLE68-01(48591DE3C19B)	-0.587	-1.239	0.320	11.108	60.791	-95.215	-66.94	-25.53	-137.85	-44.884	-47.530	-8.428	0.58005	-0.20190	0.55957	-0.55637	31.1	13111	100
2025-3-27 18:25:1.62	WT901BLE68-01(48591DE3C19B)	-0.634	-1.259	0.337	6.470	67.322	-69.458	-66.52	-25.62	-138.78	-44.884	-47.530	-8.428	0.58005	-0.20190	0.55957	-0.55637	31.1	13111	100
2025-3-27 18:25:1.63	WT901BLE68-01(48591DE3C19B)	-0.634	-1.236	0.364	-2.075	61.646	-45.593	-66.18	-25.61	-139.63	-44.884	-47.530	-8.428	0.58005	-0.20190	0.55957	-0.55637	31.1	13111	100
2025-3-27 18:25:1.63	WT901BLE68-01(48591DE3C19B)	-0.674	-1.236	0.364	-2.075	61.646	-45.593	-65.92	-25.49	-140.41	-44.884	-47.530	-8.428	0.58005	-0.20190	0.55957	-0.55637	31.1	13111	100
2025-3-27 18:25:1.63	WT901BLE68-01(48591DE3C19B)	-0.674	-1.245	0.381	-11.841	49.744	-21.973	-65.75	-25.30	-141.07	-44.884	-47.530	-8.428	0.58005	-0.20190	0.55957	-0.55637	31.1	13111	100
2025-3-27 18:25:1.95	WT901BLE68-01(48591DE3C19B)	-0.761	-1.245	0.381	-11.841	49.744	-21.973	-65.69	-25.00	-141.62	-44.884	-47.530	-8.428	0.58005	-0.20190	0.55957	-0.55637	31.1	13111	100
2025-3-27 18:25:1.95	WT901BLE68-01(48591DE3C19B)	-0.761	-1.267	0.403	-19.775	28.503	1.282	-65.73	-24.65	-142.02	-44.884	-47.530	-8.428	0.58005	-0.20190	0.55957	-0.55637	31.1	13111	100
2025-3-27 18:25:1.95	WT901BLE68-01(48591DE3C19B)	-0.828	-1.267	0.403	-19.775	28.503	1.282	-65.87	-24.24	-142.27	-44.884	-47.530	-8.428	0.58005	-0.20190	0.55957	-0.55637	31.1	13111	100
2025-3-27 18:25:1.95	WT901BLE68-01(48591DE3C19B)	-0.828	-1.241	0.404	-25.330	-4.639	24.048	-66.12	-23.79	-142.31	-44.884	-47.530	-8.428	0.58005	-0.20190	0.55957	-0.55637	31.1	13111	100
2025-3-27 18:25:1.154	WT901BLE68-01(48591DE3C19B)	-0.788	-1.241	0.404	-25.330	-4.639	24.048	-66.48	-23.30	-142.15	-44.884	-47.530	-8.428	0.58005	-0.20190	0.55957	-0.55637	31.1	13111	100
2025-3-27 18:25:1.154	WT901BLE68-01(48591DE3C19B)	-0.788	-1.090	0.361	-26.733	-38.513	49.866	-66.92	-22.75	-141.78	-44.884	-47.530	-8.428	0.16769	-0.33203	0.45889	-0.80682	31.1	13111	100
2025-3-27 18:25:1.154	WT901BLE68-01(48591DE3C19B)	-0.727	-1.090	0.361	-26.733	-38.513	49.866	-67.45	-22.15	-141.21	-44.884	-47.530	-8.428	0.16769	-0.33203	0.45889	-0.80682	31.1	13111	100
2025-3-27 18:25:1.154	WT901BLE68-01(48591DE3C19B)	-0.727	-0.950	0.323	-29.358	-67.749	80.017	-68.04	-21.46	-140.45	-44.884	-47.530	-8.428	0.16769	-0.33203	0.45889	-0.80682	31.1	13111	100
2025-3-27 18:25:1.183	WT901BLE68-01(48591DE3C19B)	-0.643	-0.950	0.323	-29.358	-67.749	80.017	-68.69	-20.67	-139.50	-44.884	-47.530	-8.428	0.16769	-0.33203	0.45889	-0.80682	31.1	13111	100
2025-3-27 18:25:1.183	WT901BLE68-01(48591DE3C19B)	-0.643	-0.890	0.292	-30.396	-94.177	112.671	-69.39	-19.77	-138.39	-44.884	-47.530	-8.428	0.16769	-0.33203	0.45889	-0.80682	31.1	13111	100
2025-3-27 18:25:1.183	WT901BLE68-01(48591DE3C19B)	-0.527	-0.890	0.292	-30.396	-94.177	112.671	-70.13	-18.75	-137.12	-44.884	-47.530	-8.428	0.16769	-0.33203	0.45889	-0.80682	31.1	13111	100
2025-3-27 18:25:1.183	WT901BLE68-01(48591DE3C19B)	-0.527	-0.891	0.254	-29.602	-112.732	145.020	-70.87	-17.60	-135.72	-44.884	-47.530	-8.428	0.16769	-0.33203	0.45889	-0.80682	31.1	13111	100
2025-3-27 18:25:1.214	WT901BLE68-01(48591DE3C19B)	-0.422	-0.891	0.254	-29.602	-112.732	145.020	-71.61	-16.31	-134.20	-44.884	-47.530	-8.428	0.16769	-0.33203	0.45889	-0.80682	31.1	13111	100
2025-3-27 18:25:1.214	WT901BLE68-01(48591DE3C19B)	-0.422	-0.997	0.215	-25.879	-118.958	175.964	-72.31	-14.88	-132.62	-44.884	-47.530	-8.428	0.16769	-0.33203	0.45889	-0.80682	31.1	13111	100
2025-3-27 18:25:1.214	WT901BLE68-01(48591DE3C19B)	-0.380	-0.997	0.215	-25.879	-118.958	175.964	-72.97	-13.30	-130.98	-44.884	-47.530	-8.428	0.16769	-0.33203	0.45889	-0.80682	31.1	13111	100
2025-3-27 18:25:1.214	WT901BLE68-01(48591DE3C19B)	-0.380	-1.173	0.186	-18.005	-117.188	202.332	-73.54	-11.60	-129.33	-44.884	-47.530	-8.428	0.16769	-0.33203	0.45889	-0.80682	31.1	13111	100
2025-3-27 18:25:1.273	WT901BLE68-01(48591DE3C19B)	-0.343	-1.173	0.186	-18.005	-117.188	202.332	-74.03	-9.76	-127.67	-44.884	-47.530	-8.428	0.16769	-0.33203	0.45889	-0.80682	31.1	13111	100
2025-3-27 18:25:1.274	WT901BLE68-01(48591DE3C19B)	-0.343	-1.366	0.166	-8.057	-113.586	223.877	-74.42	-7.81	-125.99	-44.884	-47.530	-8.428	0.16769	-0.33203	0.45889	-0.80682	31.1	13111	100
2025-3-27 18:25:1.274	WT901BLE68-01(48591DE3C19B)	-0.267	-1.366	0.166	-8.057	-113.586	223.877	-74.70	-5.77	-124.31	-44.884	-47.530	-8.428	0.16769	-0.33203	0.45889	-0.80682	31.1	13111	100
2025-3-27 18:25:1.274	WT901BLE68-01(48591DE3C19B)	-0.267	-1.519	0.163	5.249	-102.905	241.760	-74.87	-3.64	-122.66	-44.884	-47.530	-8.428	0.16769	-0.33203	0.45889	-0.80682	31.1	13111	100
2025-3-27 18:25:1.305	WT901BLE68-01(48591DE3C19B)	-0.190	-1.519	0.163	5.249	-102.905	241.760	-74.90	-1.43	-121.03	-44.884	-47.530	-8.428	0.16769	-0.33203	0.45889	-0.80682	31.1	13111	100
2025-3-27 18:25:1.305	WT901BLE68-01(48591DE3C19B)	-0.190	-1.565	0.174	19.409	-81.360	256.958	-74.82	0.86	-119.47	-44.884	-47.530	-8.428	0.16769	-0.33203	0.45889	-0.80682	31.1	13111	100
2025-3-27 18:25:1.305	WT901BLE68-01(48591DE3C19B)	-0.154	-1.565	0.174	19.409	-81.360	256.958	-74.60	3.22	-117.98	-44.884	-47.530	-8.428	0.16769	-0.33203	0.45889	-0.80682	31.1	13111	100
2025-3-27 18:25:1.305	WT901BLE68-01(48591DE3C19B)	-0.154	-1.529	0.185	27.954	-54.749	267.456	-74.30	5.64	-116.58	-44.884	-47.530	-8.428	0.16769	-0.33203	0.45889	-0.80682	31.1	13111	100
2025-3-27 18:25:1.334	WT901BLE68-01(48591DE3C19B)	-0.167	-1.529	0.185	27.954	-54.749	267.456	-73.91	8.11	-115.27	-44.884	-47.530	-8.428	0.16769	-0.33203	0.45889	-0.80682	31.1	13111	100
2025-3-27 18:25:1.334	WT901BLE68-01(48591DE3C19B)	-0.167	-1.509	0.204	30.457	-28.320	271.240	-73.47	10.61	-114.05	-44.884	-47.530	-8.428	0.16769	-0.33203	0.45889	-0.80682	31.1	13111	100
2025-3-27 18:25:1.334	WT901BLE68-01(48591DE3C19B)	-0.222	-1.509	0.204	30.457	-28.320	271.240	-72.99	13.13	-112.93	-51.646	-51.156	-2.254	0.16769	-0.33203	0.45889	-0.80682	31.1	13111	100
2025-3-27 18:25:1.334	WT901BLE68-01(48591DE3C19B)	-0.222	-1.477	0.223	33.203	-5.554	270.996	-72.48	15.66	-111.89	-51.646	-51.156	-2.254	0.16769	-0.33203	0.45889	-0.80682	31.1	13111	100
2025-3-27 18:25:1.394	WT901BLE68-01(48591DE3C19B)	-0.272	-1.477	0.223	33.203	-5.554	270.996	-71.93	18.19	-110.92	-51.646	-51.156	-2.254	0.16769	-0.33203	0.45889	-0.80682	31.1	13111	100
2025-3-27 18:25:1.394	WT901BLE68-01(48591DE3C19B)	-0.272	-1.389	0.215	33.203	10.925	266.418	-71.36	20.70	-110.01	-51.646	-51.156	-2.254	0.16769	-0.33203	0.45889	-0.80682	31.1	13111	100
2025-3-27 18:25:1.394	WT901BLE68-01(48591DE3C19B)	-0.288	-1.389	0.215	33.203	10.925	266.418	-70.78	23.19	-109.14	-51.646	-51.156	-2.254	0.16769	-0.33203	0.45889	-0.80682	31.1	13111	100
2025-3-27 18:25:1.394	WT901BLE68-01(48591DE3C19B)	-0.288	-1.296	0.179	30.884	25.757	259.216	-70.20	25.65	-108.33	-51.646	-51.156	-2.254	0.16769	-0.33203	0.45889	-0.80682	31.1	13111	100
2025-3-27 18:25:1.423	WT901BLE68-01(48591DE3C19B)	-0.302	-1.296	0.179	30.884	25.757	259.216	-69.63	28.08	-107.55	-51.646	-51.156	-2.254	0.16769	-0.33203	0.45889	-0.80682	31.1	13111	100
2025-3-27 18:25:1.423	WT901BLE68-01(48591DE3C19B)	-0.302	-1.224	0.119	25.940	35.767	249.207	-69.07	30.45	-106.81	-51.646	-51.156	-2.254	0.16769	-0.33203	0.45889	-0.80682	31.1	13111	100
2025-3-27 18:25:1.423	WT901BLE68-01(48591DE3C19B)	-0.323	-1.224	0.119	25.940	35.767	249.207	-68.53	32.79	-106.09	-51.646	-51.156	-2.254	0.16769	-0.33203	0.45889	-0.80682	31.1	13111	100
2025-3-27 18:25:1.423	WT901BLE68-01(48591DE3C19B)	-0.323	-1.187	0.061	19.287	33.691	235.229	-67.99	35.03	-105.36	-51.646	-51.156	-2.254	0.16769	-0.33203	0.45889	-0.80682	31.1	13111	100
2025-3-27 18:25:1.453	WT901BLE68-01(48591DE3C19B)	-0.336	-1.187	0.061	19.287	33.691	235.229	-67.46	37.19	-104.60	-51.646	-51.156	-2.254	0.16769	-0.33203	0.45889	-0.80682	31.1	13111	100
2025-3-27 18:25:1.453	WT901BLE68-01(48591DE3C19B)	-0.336	-1.150	0.022	13.733	18.433	221.008	-66.88	39.23	-103.73	-51.646	-51.156	-2.254	0.16769	-0.33203	0.45889	-0.80682	31.1	13111	100
2025-3-27 18:25:1.454	WT901BLE68-01(48591DE3C19B)	-0.348	-1.150	0.022	13.733	18.433	221.008	-66.24	41.17	-102.76	-51.646	-51.156	-2.254	0.16769	-0.33203	0.45889	-0.80682	31.1	13111	100
2025-3-27 18:25:1.454	WT901BLE68-01(48591DE3C19B)	-0.348	-1.124	0.009	8.789	-2.686	205.383	-65.51	42.96	-101.65	-51.646	-51.156	-2.254	0.16769	-0.33203	0.45889	-0.80682	31.1	13111	100
2025-3-27 18:25:1.515	WT901BLE68-01(48591DE3C19B)	-0.354	-1.124	0.009	8.789	-2.686	205.383	-64.69	44.63	-100.38	-51.646	-51.156	-2.254	0.16769	-0.33203	0.45889	-0.80682	31.1	13111	100
2025-3-27 18:25:1.516	WT901BLE68-01(48591DE3C19B)	-0.354	-1.132	0.012	5.615	-24.292	189.392	-63.75	46.15	-98.95	-51.646	-51.156	-2.254	0.16769	-0.33203	0.45889	-0.80682	31.1	13111	100
2025-3-27 18:25:1.516	WT901BLE68-01(48591DE3C19B)	-0.332	-1.132	0.012	5.615	-24.292	189.392	-62.69	47.54	-97.37	-51.646	-51.156	-2.254	0.16769	-0.33203	0.45889	-0.80682	31.1	13111	100
2025-3-27 18:25:1.516	WT901BLE68-01(48591DE3C19B)	-0.332	-1.128	0.023	4.517	-37.964	172.913	-61.53	48.69	-95.66	-51.646	-51.156	-2.254	0.16769	-0.33203	0.45889	-0.80682	31.1	13111	100
2025-3-27 18:25:1.545	WT901BLE68-01(48591DE3C19B)	-0.326	-1.128	0.023	4.517	-37.964	172.913	-60.30	49.80	-93.87	-51.646	-51.156	-2.254	0.16769	-0.33203	0.45889	-0.80682	31.1	13111	100
2025-3-27 18:25:1.546	WT901BLE68-01(48591DE3C19B)	-0.326	-1.072	0.053	3.052	-49.194	158.936	-58.98	50.71	-91.98	-51.646	-51.156	-2.254	0.16769	-0.33203	0.45889	-0.80682	31.1	13111	100
2025-3-27 18:25:1.546	WT901BLE68-01(48591DE3C19B)	-0.291	-1.072	0.053	3.052	-49.194	158.936	-57.60	51.59	-90.02	-51.646	-51.156	-2.254	0.16769	-0.33203	0.45889	-0.80682	31.1	13111	100
2025-3-27 18:25:1.546	WT901BLE68-01(48591DE3C19B)	-0.291	-1.021	0.069	-0.427	-55.847	145.081	-56.22	52.29	-88.04	-51.646	-51.156	-2.254	0.71359	-0.03403	0.57339	-0.40094	31.1	13111	100
2025-3-27 18:25:1.575	WT901BLE68-01(48591DE3C19B)	-0.249	-1.021	0.069	-0.427	-55.847	145.081	-54.79	52.95	-86.02	-51.646	-51.156	-2.254	0.71359	-0.03403	0.57339	-0.40094	31.1	13111	100
2025-3-27 18:25:1.576	WT901BLE68-01(48591DE3C19B)	-0.249	-0.976	0.083	-3.479	-54.871	132.141	-53.45	53.48	-84.08	-51.646	-51.156	-2.254	0.71359	-0.03403	0.57339	-0.40094	31.1	13111	100
2025-3-27 18:25:1.576	WT901BLE68-01(48591DE3C19B)	-0.230	-0.976	0.083	-3.479	-54.871	132.141	-52.09	53.99	-82.12	-51.646	-51.156	-2.254	0.71359	-0.03403	0.57339	-0.40094	31.1	13111	100
2025-3-27 18:25:1.576	WT901BLE68-01(48591DE3C19B)	-0.230	-0.913	0.105	-6.836	-49.438	119.629	-50.88	54.40	-80.33	-51.646	-51.156	-2.254	0.71359	-0.03403	0.57339	-0.40094	31.1	13111	100
2025-3-27 18:25:1.634	WT901BLE68-01(48591DE3C19B)	-0.217	-0.913	0.105	-6.836	-49.438	119.629	-49.65	54.79	-78.52	-51.646	-51.156	-2.254	0.71359	-0.03403	0.57339	-0.40094	31.1	13111	100
2025-3-27 18:25:1.634	WT901BLE68-01(48591DE3C19B)	-0.217	-0.878	0.107	-12.329	-41.992	104.797	-48.67	55.09	-76.96	-51.646	-51.156	-2.254	0.71359	-0.03403	0.57339	-0.40094	31.1	13111	100
2025-3-27 18:25:1.634	WT901BLE68-01(48591DE3C19B)	-0.205	-0.878	0.107	-12.329	-41.992	104.797	-47.69	55.38	-75.39	-51.646	-51.156	-2.254	0.71359	-0.03403	0.57339	-0.40094	31.1	13111	100
2025-3-27 18:25:1.634	WT901BLE68-01(48591DE3C19B)	-0.205	-0.848	0.113	-18.066	-31.799	86.914	-47.02	55.59	-74.15	-51.646	-51.156	-2.254	0.71359	-0.03403	0.57339	-0.40094	31.1	13111	100
2025-3-27 18:25:1.662	WT901BLE68-01(48591DE3C19B)	-0.236	-0.848	0.113	-18.066	-31.799	86.914	-46.35	55.79	-72.91	-51.646	-51.156	-2.254	0.71359	-0.03403	0.57339	-0.40094	31.1	13111	100
2025-3-27 18:25:1.662	WT901BLE68-01(48591DE3C19B)	-0.236	-0.835	0.145	-24.841	-25.146	65.247	-46.04	55.88	-72.02	-51.646	-51.156	-2.254	0.71359	-0.03403	0.57339	-0.40094	31.1	13111	100
2025-3-27 18:25:1.662	WT901BLE68-01(48591DE3C19B)	-0.289	-0.835	0.145	-24.841	-25.146	65.247	-45.72	55.97	-71.14	-51.646	-51.156	-2.254	0.71359	-0.03403	0.57339	-0.40094	31.1	13111	100
2025-3-27 18:25:1.662	WT901BLE68-01(48591DE3C19B)	-0.289	-0.885	0.199	-31.616	-26.306	39.551	-45.72	55.87	-70.56	-51.646	-51.156	-2.254	0.71359	-0.03403	0.57339	-0.40094	31.1	13111	100
