time	DeviceName	AccX(g)	AccY(g)	AccZ(g)	AsX(°/s)	AsY(°/s)	AsZ(°/s)	AngleX(°)	AngleY(°)	AngleZ(°)	HX(uT)	HY(uT)	HZ(uT)	Q0()	Q1()	Q2()	Q3()	Temperature(°C)	Version()	Battery level(%)
2025-3-27 18:45:28.513	WT901BLE68-01(48591DE3C19B)	-0.304	-0.909	0.300	1.343	-1.221	-3.235	-71.07	18.00	-18.68	-57.526	-33.320	106.918	-0.80713	0.54715	-0.21869	0.03531	30.8	13111	100
2025-3-27 18:45:28.513	WT901BLE68-01(48591DE3C19B)	-0.299	-0.909	0.300	1.343	-1.221	-3.235	-71.05	17.96	-18.69	-57.526	-33.320	106.918	-0.80713	0.54715	-0.21869	0.03531	30.8	13111	100
2025-3-27 18:45:28.513	WT901BLE68-01(48591DE3C19B)	-0.299	-0.904	0.299	1.221	-1.953	-3.601	-71.04	17.92	-18.70	-57.526	-33.320	106.918	-0.80713	0.54715	-0.21869	0.03531	30.8	13111	100
2025-3-27 18:45:28.513	WT901BLE68-01(48591DE3C19B)	-0.293	-0.904	0.299	1.221	-1.953	-3.601	-71.03	17.88	-18.71	-57.526	-33.320	106.918	-0.80713	0.54715	-0.21869	0.03531	30.8	13111	100
2025-3-27 18:45:28.571	WT901BLE68-01(48591DE3C19B)	-0.293	-0.896	0.296	1.099	-1.709	-4.028	-71.02	17.84	-18.72	-57.526	-33.320	106.918	-0.80713	0.54715	-0.21869	0.03531	30.8	13111	100
2025-3-27 18:45:28.571	WT901BLE68-01(48591DE3C19B)	-0.299	-0.896	0.296	1.099	-1.709	-4.028	-71.01	17.79	-18.73	-57.526	-33.320	106.918	-0.80713	0.54715	-0.21869	0.03531	30.8	13111	100
2025-3-27 18:45:28.571	WT901BLE68-01(48591DE3C19B)	-0.299	-0.895	0.292	0.916	-1.709	-4.395	-71.00	17.74	-18.74	-57.526	-33.320	106.918	-0.80713	0.54715	-0.21869	0.03531	30.8	13111	100
2025-3-27 18:45:28.571	WT901BLE68-01(48591DE3C19B)	-0.305	-0.895	0.292	0.916	-1.709	-4.395	-71.00	17.69	-18.75	-57.526	-33.320	106.918	-0.80713	0.54715	-0.21869	0.03531	30.8	13111	100
2025-3-27 18:45:28.600	WT901BLE68-01(48591DE3C19B)	-0.305	-0.899	0.293	0.549	-2.869	-4.761	-70.99	17.64	-18.75	-57.526	-33.320	106.918	-0.80713	0.54715	-0.21869	0.03531	30.8	13111	100
2025-3-27 18:45:28.600	WT901BLE68-01(48591DE3C19B)	-0.315	-0.899	0.293	0.549	-2.869	-4.761	-70.99	17.58	-18.76	-57.526	-33.320	106.918	-0.80713	0.54715	-0.21869	0.03531	30.8	13111	100
2025-3-27 18:45:28.600	WT901BLE68-01(48591DE3C19B)	-0.315	-0.895	0.293	-0.122	-6.226	-4.761	-70.98	17.52	-18.73	-57.526	-33.320	106.918	-0.80713	0.54715	-0.21869	0.03531	30.8	13111	100
2025-3-27 18:45:28.600	WT901BLE68-01(48591DE3C19B)	-0.326	-0.895	0.293	-0.122	-6.226	-4.761	-70.97	17.46	-18.69	-57.526	-33.320	106.918	-0.80713	0.54715	-0.21869	0.03531	30.8	13111	100
2025-3-27 18:45:28.661	WT901BLE68-01(48591DE3C19B)	-0.326	-0.897	0.292	-1.587	-11.841	-4.578	-70.96	17.38	-18.61	-57.526	-33.320	106.918	-0.80713	0.54715	-0.21869	0.03531	30.8	13111	100
2025-3-27 18:45:28.662	WT901BLE68-01(48591DE3C19B)	-0.326	-0.897	0.292	-1.587	-11.841	-4.578	-70.95	17.30	-18.52	-57.526	-33.320	106.918	-0.80713	0.54715	-0.21869	0.03531	30.8	13111	100
2025-3-27 18:45:28.662	WT901BLE68-01(48591DE3C19B)	-0.326	-0.889	0.286	-3.357	-17.883	-4.333	-70.94	17.21	-18.37	-57.526	-33.320	106.918	-0.80713	0.54715	-0.21869	0.03531	30.8	13111	100
2025-3-27 18:45:28.662	WT901BLE68-01(48591DE3C19B)	-0.332	-0.889	0.286	-3.357	-17.883	-4.333	-70.93	17.12	-18.22	-57.526	-33.320	106.918	-0.80713	0.54715	-0.21869	0.03531	30.8	13111	100
2025-3-27 18:45:28.690	WT901BLE68-01(48591DE3C19B)	-0.332	-0.877	0.288	-5.798	-24.231	-3.723	-70.93	17.01	-18.01	-57.526	-33.320	106.918	-0.80713	0.54715	-0.21869	0.03531	30.8	13111	100
2025-3-27 18:45:28.690	WT901BLE68-01(48591DE3C19B)	-0.352	-0.877	0.288	-5.798	-24.231	-3.723	-70.93	16.91	-17.79	-57.526	-33.320	106.918	-0.80908	0.54843	-0.20703	0.04031	30.8	13111	100
2025-3-27 18:45:28.690	WT901BLE68-01(48591DE3C19B)	-0.352	-0.875	0.304	-9.338	-33.875	-2.075	-70.93	16.79	-17.48	-57.526	-33.320	106.918	-0.80908	0.54843	-0.20703	0.04031	30.8	13111	100
2025-3-27 18:45:28.690	WT901BLE68-01(48591DE3C19B)	-0.364	-0.875	0.304	-9.338	-33.875	-2.075	-70.93	16.67	-17.16	-57.526	-33.320	106.918	-0.80908	0.54843	-0.20703	0.04031	30.8	13111	100
2025-3-27 18:45:28.723	WT901BLE68-01(48591DE3C19B)	-0.364	-0.892	0.302	-13.184	-46.631	-0.122	-70.94	16.53	-16.72	-57.526	-33.320	106.918	-0.80908	0.54843	-0.20703	0.04031	30.8	13111	100
2025-3-27 18:45:28.723	WT901BLE68-01(48591DE3C19B)	-0.354	-0.892	0.302	-13.184	-46.631	-0.122	-70.94	16.40	-16.27	-57.526	-33.320	106.918	-0.80908	0.54843	-0.20703	0.04031	30.8	13111	100
2025-3-27 18:45:28.723	WT901BLE68-01(48591DE3C19B)	-0.354	-0.890	0.288	-15.442	-59.143	2.075	-70.93	16.24	-15.69	-57.526	-33.320	106.918	-0.80908	0.54843	-0.20703	0.04031	30.8	13111	100
2025-3-27 18:45:28.723	WT901BLE68-01(48591DE3C19B)	-0.327	-0.890	0.288	-15.442	-59.143	2.075	-70.93	16.09	-15.12	-57.526	-33.320	106.918	-0.80908	0.54843	-0.20703	0.04031	30.8	13111	100
2025-3-27 18:45:28.754	WT901BLE68-01(48591DE3C19B)	-0.327	-0.899	0.273	-17.639	-69.763	3.357	-70.92	15.91	-14.43	-57.526	-33.320	106.918	-0.80908	0.54843	-0.20703	0.04031	30.8	13111	100
2025-3-27 18:45:28.754	WT901BLE68-01(48591DE3C19B)	-0.291	-0.899	0.273	-17.639	-69.763	3.357	-70.91	15.74	-13.74	-57.526	-33.320	106.918	-0.80908	0.54843	-0.20703	0.04031	30.8	13111	100
2025-3-27 18:45:28.754	WT901BLE68-01(48591DE3C19B)	-0.291	-0.895	0.260	-18.860	-75.012	3.235	-70.91	15.55	-13.01	-57.526	-33.320	106.918	-0.80908	0.54843	-0.20703	0.04031	30.8	13111	100
2025-3-27 18:45:28.754	WT901BLE68-01(48591DE3C19B)	-0.272	-0.895	0.260	-18.860	-75.012	3.235	-70.90	15.36	-12.27	-57.526	-33.320	106.918	-0.80908	0.54843	-0.20703	0.04031	30.8	13111	100
2025-3-27 18:45:28.811	WT901BLE68-01(48591DE3C19B)	-0.272	-0.876	0.265	-21.423	-77.820	2.136	-70.92	15.14	-11.51	-57.526	-33.320	106.918	-0.80908	0.54843	-0.20703	0.04031	30.8	13111	100
2025-3-27 18:45:28.811	WT901BLE68-01(48591DE3C19B)	-0.261	-0.876	0.265	-21.423	-77.820	2.136	-70.94	14.94	-10.76	-57.526	-33.320	106.918	-0.80908	0.54843	-0.20703	0.04031	30.8	13111	100
2025-3-27 18:45:28.811	WT901BLE68-01(48591DE3C19B)	-0.227	-0.910	0.265	-26.062	-79.956	0.061	-71.02	14.69	-9.99	-57.526	-33.320	106.918	-0.80908	0.54843	-0.20703	0.04031	30.8	13111	100
2025-3-27 18:45:28.811	WT901BLE68-01(48591DE3C19B)	-0.227	-0.931	0.256	-25.330	-79.224	-1.404	-71.09	14.45	-9.22	-57.526	-33.320	106.918	-0.80908	0.54843	-0.20703	0.04031	30.8	13111	100
2025-3-27 18:45:28.843	WT901BLE68-01(48591DE3C19B)	-0.216	-0.931	0.256	-25.330	-79.224	-1.404	-71.16	14.21	-8.46	-57.526	-33.320	106.918	-0.80908	0.54843	-0.20703	0.04031	30.8	13111	100
2025-3-27 18:45:28.843	WT901BLE68-01(48591DE3C19B)	-0.216	-0.896	0.274	-27.832	-75.317	-5.432	-71.25	13.94	-7.73	-57.526	-33.320	106.918	-0.80908	0.54843	-0.20703	0.04031	30.8	13111	100
2025-3-27 18:45:28.843	WT901BLE68-01(48591DE3C19B)	-0.232	-0.896	0.274	-27.832	-75.317	-5.432	-71.37	13.67	-7.02	-57.526	-33.320	106.918	-0.80908	0.54843	-0.20703	0.04031	30.8	13111	100
2025-3-27 18:45:28.843	WT901BLE68-01(48591DE3C19B)	-0.232	-0.953	0.270	-28.259	-72.144	-9.094	-71.50	13.38	-6.33	-57.526	-33.320	106.918	-0.80908	0.54843	-0.20703	0.04031	30.8	13111	100
2025-3-27 18:45:28.873	WT901BLE68-01(48591DE3C19B)	-0.226	-0.953	0.270	-28.259	-72.144	-9.094	-71.64	13.08	-5.67	-57.526	-33.320	106.918	-0.80908	0.54843	-0.20703	0.04031	30.8	13111	100
2025-3-27 18:45:28.873	WT901BLE68-01(48591DE3C19B)	-0.226	-0.938	0.265	-26.733	-75.745	-12.207	-71.76	12.77	-4.99	-57.526	-33.320	106.918	-0.80908	0.54843	-0.20703	0.04031	30.8	13111	100
2025-3-27 18:45:28.873	WT901BLE68-01(48591DE3C19B)	-0.199	-0.938	0.265	-26.733	-75.745	-12.207	-71.89	12.44	-4.31	-40.866	-38.122	104.566	-0.80908	0.54843	-0.20703	0.04031	30.8	13111	100
2025-3-27 18:45:28.873	WT901BLE68-01(48591DE3C19B)	-0.199	-0.965	0.270	-24.780	-77.332	-14.771	-72.00	12.09	-3.61	-40.866	-38.122	104.566	-0.80908	0.54843	-0.20703	0.04031	30.8	13111	100
2025-3-27 18:45:28.931	WT901BLE68-01(48591DE3C19B)	-0.170	-0.965	0.270	-24.780	-77.332	-14.771	-72.11	11.73	-2.92	-40.866	-38.122	104.566	-0.80908	0.54843	-0.20703	0.04031	30.8	13111	100
2025-3-27 18:45:28.932	WT901BLE68-01(48591DE3C19B)	-0.170	-0.990	0.274	-20.569	-74.951	-16.113	-72.21	11.37	-2.24	-40.866	-38.122	104.566	-0.80908	0.54843	-0.20703	0.04031	30.8	13111	100
2025-3-27 18:45:28.932	WT901BLE68-01(48591DE3C19B)	-0.103	-0.990	0.274	-20.569	-74.951	-16.113	-72.30	11.00	-1.57	-40.866	-38.122	104.566	-0.80908	0.54843	-0.20703	0.04031	30.8	13111	100
2025-3-27 18:45:28.932	WT901BLE68-01(48591DE3C19B)	-0.103	-1.010	0.255	-15.137	-64.270	-17.151	-72.37	10.65	-0.95	-40.866	-38.122	104.566	-0.80908	0.54843	-0.20703	0.04031	30.8	13111	100
2025-3-27 18:45:28.960	WT901BLE68-01(48591DE3C19B)	-0.038	-1.010	0.255	-15.137	-64.270	-17.151	-72.42	10.31	-0.39	-40.866	-38.122	104.566	-0.80908	0.54843	-0.20703	0.04031	30.8	13111	100
2025-3-27 18:45:28.960	WT901BLE68-01(48591DE3C19B)	-0.038	-0.988	0.230	-9.949	-46.875	-17.334	-72.47	9.98	0.08	-40.866	-38.122	104.566	-0.80908	0.54843	-0.20703	0.04031	30.8	13111	100
2025-3-27 18:45:28.961	WT901BLE68-01(48591DE3C19B)	0.027	-0.988	0.230	-9.949	-46.875	-17.334	-72.52	9.68	0.48	-40.866	-38.122	104.566	-0.80908	0.54843	-0.20703	0.04031	30.8	13111	100
2025-3-27 18:45:28.961	WT901BLE68-01(48591DE3C19B)	0.027	-0.985	0.224	-8.179	-22.705	-17.761	-72.57	9.42	0.75	-40.866	-38.122	104.566	-0.80908	0.54843	-0.20703	0.04031	30.8	13111	100
2025-3-27 18:45:28.991	WT901BLE68-01(48591DE3C19B)	0.085	-0.985	0.224	-8.179	-22.705	-17.761	-72.64	9.17	0.91	-40.866	-38.122	104.566	-0.80908	0.54843	-0.20703	0.04031	30.8	13111	100
2025-3-27 18:45:28.991	WT901BLE68-01(48591DE3C19B)	0.085	-0.985	0.230	-5.676	6.104	-17.761	-72.72	8.97	0.93	-40.866	-38.122	104.566	-0.80908	0.54843	-0.20703	0.04031	30.8	13111	100
2025-3-27 18:45:28.991	WT901BLE68-01(48591DE3C19B)	0.096	-0.985	0.230	-5.676	6.104	-17.761	-72.81	8.81	0.81	-40.866	-38.122	104.566	-0.80908	0.54843	-0.20703	0.04031	30.8	13111	100
2025-3-27 18:45:28.991	WT901BLE68-01(48591DE3C19B)	0.096	-0.973	0.244	-3.113	32.288	-16.602	-72.91	8.68	0.56	-40.866	-38.122	104.566	-0.80908	0.54843	-0.20703	0.04031	30.8	13111	100
2025-3-27 18:45:29.53	WT901BLE68-01(48591DE3C19B)	0.107	-0.973	0.244	-3.113	32.288	-16.602	-73.01	8.59	0.19	-40.866	-38.122	104.566	-0.80908	0.54843	-0.20703	0.04031	30.8	13111	100
2025-3-27 18:45:29.53	WT901BLE68-01(48591DE3C19B)	0.107	-0.933	0.240	0.366	55.298	-15.686	-73.11	8.53	-0.29	-40.866	-38.122	104.566	-0.80908	0.54843	-0.20703	0.04031	30.8	13111	100
2025-3-27 18:45:29.53	WT901BLE68-01(48591DE3C19B)	0.097	-0.933	0.240	0.366	55.298	-15.686	-73.21	8.50	-0.87	-40.866	-38.122	104.566	-0.80908	0.54843	-0.20703	0.04031	30.8	13111	100
2025-3-27 18:45:29.54	WT901BLE68-01(48591DE3C19B)	0.097	-0.899	0.214	3.601	73.853	-16.113	-73.30	8.50	-1.55	-40.866	-38.122	104.566	-0.80908	0.54843	-0.20703	0.04031	30.8	13111	100
2025-3-27 18:45:29.82	WT901BLE68-01(48591DE3C19B)	0.077	-0.899	0.214	3.601	73.853	-16.113	-73.39	8.51	-2.32	-40.866	-38.122	104.566	-0.80908	0.54843	-0.20703	0.04031	30.8	13111	100
2025-3-27 18:45:29.82	WT901BLE68-01(48591DE3C19B)	0.077	-0.887	0.193	5.676	86.304	-18.921	-73.48	8.52	-3.16	-40.866	-38.122	104.566	-0.80908	0.54843	-0.20703	0.04031	30.8	13111	100
2025-3-27 18:45:29.82	WT901BLE68-01(48591DE3C19B)	0.021	-0.887	0.193	5.676	86.304	-18.921	-73.57	8.53	-4.06	-40.866	-38.122	104.566	-0.79950	0.59467	-0.08304	-0.01312	30.8	13111	100
2025-3-27 18:45:29.82	WT901BLE68-01(48591DE3C19B)	0.021	-0.893	0.189	6.653	90.027	-23.193	-73.66	8.53	-4.98	-40.866	-38.122	104.566	-0.79950	0.59467	-0.08304	-0.01312	30.8	13111	100
2025-3-27 18:45:29.141	WT901BLE68-01(48591DE3C19B)	-0.061	-0.893	0.189	6.653	90.027	-23.193	-73.75	8.50	-5.93	-40.866	-38.122	104.566	-0.79950	0.59467	-0.08304	-0.01312	30.8	13111	100
2025-3-27 18:45:29.141	WT901BLE68-01(48591DE3C19B)	-0.061	-0.929	0.203	4.089	84.045	-30.579	-73.85	8.43	-6.86	-40.866	-38.122	104.566	-0.79950	0.59467	-0.08304	-0.01312	30.8	13111	100
2025-3-27 18:45:29.141	WT901BLE68-01(48591DE3C19B)	-0.191	-0.929	0.203	4.089	84.045	-30.579	-73.95	8.32	-7.77	-40.866	-38.122	104.566	-0.79950	0.59467	-0.08304	-0.01312	30.8	13111	100
2025-3-27 18:45:29.141	WT901BLE68-01(48591DE3C19B)	-0.191	-1.058	0.256	-1.404	67.566	-40.710	-74.08	8.14	-8.61	-40.866	-38.122	104.566	-0.79950	0.59467	-0.08304	-0.01312	30.8	13111	100
2025-3-27 18:45:29.171	WT901BLE68-01(48591DE3C19B)	-0.361	-1.058	0.256	-1.404	67.566	-40.710	-74.22	7.89	-9.39	-40.866	-38.122	104.566	-0.79950	0.59467	-0.08304	-0.01312	30.8	13111	100
2025-3-27 18:45:29.171	WT901BLE68-01(48591DE3C19B)	-0.361	-1.253	0.349	-3.723	38.940	-51.697	-74.34	7.56	-10.04	-40.866	-38.122	104.566	-0.79950	0.59467	-0.08304	-0.01312	30.8	13111	100
2025-3-27 18:45:29.171	WT901BLE68-01(48591DE3C19B)	-0.452	-1.253	0.349	-3.723	38.940	-51.697	-74.46	7.15	-10.56	-40.866	-38.122	104.566	-0.79950	0.59467	-0.08304	-0.01312	30.8	13111	100
2025-3-27 18:45:29.171	WT901BLE68-01(48591DE3C19B)	-1.807	-1.374	0.436	-0.610	-0.916	-59.998	-74.53	6.66	-10.90	-40.866	-38.122	104.566	-0.79950	0.59467	-0.08304	-0.01312	30.8	13111	100
2025-3-27 18:45:29.203	WT901BLE68-01(48591DE3C19B)	-0.379	-5.496	1.743	-0.610	-0.916	-59.998	-74.55	6.09	-11.06	-40.866	-38.122	104.566	-0.79950	0.59467	-0.08304	-0.01312	30.8	13111	100
2025-3-27 18:45:29.203	WT901BLE68-01(48591DE3C19B)	-0.379	-1.276	0.452	4.883	-28.748	-62.988	-74.53	5.50	-11.09	-40.866	-38.122	104.566	-0.79950	0.59467	-0.08304	-0.01312	30.8	13111	100
2025-3-27 18:45:29.203	WT901BLE68-01(48591DE3C19B)	-0.257	-1.276	0.452	4.883	-28.748	-62.988	-74.47	4.86	-10.99	-40.866	-38.122	104.566	-0.79950	0.59467	-0.08304	-0.01312	30.8	13111	100
2025-3-27 18:45:29.203	WT901BLE68-01(48591DE3C19B)	-0.257	-1.063	0.413	5.310	-28.259	-60.974	-74.40	4.24	-10.88	-40.866	-38.122	104.566	-0.79950	0.59467	-0.08304	-0.01312	30.8	13111	100
2025-3-27 18:45:29.322	WT901BLE68-01(48591DE3C19B)	-0.186	-1.063	0.413	5.310	-28.259	-60.974	-74.33	3.63	-10.78	-40.866	-38.122	104.566	-0.79950	0.59467	-0.08304	-0.01312	30.8	13111	100
2025-3-27 18:45:29.322	WT901BLE68-01(48591DE3C19B)	-0.186	-0.886	0.367	3.418	-9.949	-56.458	-74.28	3.07	-10.77	-40.866	-38.122	104.566	-0.79950	0.59467	-0.08304	-0.01312	30.8	13111	100
2025-3-27 18:45:29.322	WT901BLE68-01(48591DE3C19B)	-0.100	-0.886	0.367	3.418	-9.949	-56.458	-74.24	2.55	-10.83	-40.866	-38.122	104.566	-0.79950	0.59467	-0.08304	-0.01312	30.8	13111	100
2025-3-27 18:45:29.322	WT901BLE68-01(48591DE3C19B)	-0.100	-0.724	0.352	0.549	20.203	-51.758	-74.21	2.11	-11.03	-40.866	-38.122	104.566	-0.79950	0.59467	-0.08304	-0.01312	30.8	13111	100
2025-3-27 18:45:29.322	WT901BLE68-01(48591DE3C19B)	-0.075	-0.724	0.352	0.549	20.203	-51.758	-74.21	1.73	-11.38	-40.866	-38.122	104.566	-0.79950	0.59467	-0.08304	-0.01312	30.8	13111	100
2025-3-27 18:45:29.323	WT901BLE68-01(48591DE3C19B)	-0.075	-0.623	0.394	-1.892	74.463	-44.800	-74.23	1.56	-12.22	-40.866	-38.122	104.566	-0.79950	0.59467	-0.08304	-0.01312	30.8	13111	100
2025-3-27 18:45:29.323	WT901BLE68-01(48591DE3C19B)	-0.115	-0.623	0.394	-1.892	74.463	-44.800	-74.25	1.39	-13.07	-40.866	-38.122	104.566	-0.79950	0.59467	-0.08304	-0.01312	30.8	13111	100
2025-3-27 18:45:29.323	WT901BLE68-01(48591DE3C19B)	-0.115	-0.614	0.409	-0.549	151.978	-37.537	-74.26	1.50	-14.64	-40.866	-38.122	104.566	-0.79950	0.59467	-0.08304	-0.01312	30.8	13111	100
2025-3-27 18:45:29.323	WT901BLE68-01(48591DE3C19B)	-0.190	-0.614	0.409	-0.549	151.978	-37.537	-74.28	1.61	-16.22	-40.866	-38.122	104.566	-0.79950	0.59467	-0.08304	-0.01312	30.8	13111	100
2025-3-27 18:45:29.323	WT901BLE68-01(48591DE3C19B)	-0.190	-0.648	0.344	0.427	223.816	-28.137	-74.31	2.00	-18.46	-40.866	-38.122	104.566	-0.79950	0.59467	-0.08304	-0.01312	30.8	13111	100
2025-3-27 18:45:29.323	WT901BLE68-01(48591DE3C19B)	-0.325	-0.648	0.344	0.427	223.816	-28.137	-74.34	2.39	-20.70	-47.138	-37.044	106.820	-0.79950	0.59467	-0.08304	-0.01312	30.8	13111	100
2025-3-27 18:45:29.323	WT901BLE68-01(48591DE3C19B)	-0.325	-0.732	0.229	-1.160	266.052	-19.226	-74.44	2.98	-23.33	-47.138	-37.044	106.820	-0.79950	0.59467	-0.08304	-0.01312	30.8	13111	100
2025-3-27 18:45:29.381	WT901BLE68-01(48591DE3C19B)	-0.631	-0.732	0.229	-1.160	266.052	-19.226	-74.56	3.56	-25.96	-47.138	-37.044	106.820	-0.79950	0.59467	-0.08304	-0.01312	30.8	13111	100
2025-3-27 18:45:29.381	WT901BLE68-01(48591DE3C19B)	-0.631	-0.828	0.084	-6.836	241.211	-9.338	-74.76	4.17	-28.32	-47.138	-37.044	106.820	-0.79950	0.59467	-0.08304	-0.01312	30.8	13111	100
2025-3-27 18:45:29.381	WT901BLE68-01(48591DE3C19B)	-0.991	-0.828	0.084	-6.836	241.211	-9.338	-74.99	4.78	-30.69	-47.138	-37.044	106.820	-0.79950	0.59467	-0.08304	-0.01312	30.8	13111	100
2025-3-27 18:45:29.381	WT901BLE68-01(48591DE3C19B)	-0.991	-0.919	0.003	-12.390	150.452	-0.061	-75.22	5.26	-32.16	-47.138	-37.044	106.820	-0.79950	0.59467	-0.08304	-0.01312	30.8	13111	100
2025-3-27 18:45:29.410	WT901BLE68-01(48591DE3C19B)	-1.112	-0.919	0.003	-12.390	150.452	-0.061	-75.47	5.75	-33.63	-47.138	-37.044	106.820	-0.79950	0.59467	-0.08304	-0.01312	30.8	13111	100
2025-3-27 18:45:29.410	WT901BLE68-01(48591DE3C19B)	-1.112	-1.037	0.004	-10.986	52.002	-3.601	-75.63	5.97	-34.16	-47.138	-37.044	106.820	-0.79950	0.59467	-0.08304	-0.01312	30.8	13111	100
2025-3-27 18:45:29.410	WT901BLE68-01(48591DE3C19B)	-1.014	-1.037	0.004	-10.986	52.002	-3.601	-75.80	6.20	-34.68	-47.138	-37.044	106.820	-0.79950	0.59467	-0.08304	-0.01312	30.8	13111	100
2025-3-27 18:45:29.410	WT901BLE68-01(48591DE3C19B)	-1.014	-1.117	0.058	-8.545	-19.592	-7.324	-75.88	6.23	-34.51	-47.138	-37.044	106.820	-0.79950	0.59467	-0.08304	-0.01312	30.8	13111	100
2025-3-27 18:45:29.442	WT901BLE68-01(48591DE3C19B)	-0.892	-1.117	0.058	-8.545	-19.592	-7.324	-75.96	6.27	-34.34	-47.138	-37.044	106.820	-0.79950	0.59467	-0.08304	-0.01312	30.8	13111	100
2025-3-27 18:45:29.443	WT901BLE68-01(48591DE3C19B)	-0.892	-1.148	0.115	-8.789	-64.636	-8.118	-76.00	6.20	-33.73	-47.138	-37.044	106.820	-0.79950	0.59467	-0.08304	-0.01312	30.8	13111	100
2025-3-27 18:45:29.443	WT901BLE68-01(48591DE3C19B)	-0.715	-1.148	0.115	-8.789	-64.636	-8.118	-76.04	6.12	-33.12	-47.138	-37.044	106.820	-0.79950	0.59467	-0.08304	-0.01312	30.8	13111	100
2025-3-27 18:45:29.443	WT901BLE68-01(48591DE3C19B)	-0.715	-1.205	0.167	-14.771	-89.966	-5.676	-76.12	6.02	-32.26	-47.138	-37.044	106.820	-0.79950	0.59467	-0.08304	-0.01312	30.8	13111	100
2025-3-27 18:45:29.501	WT901BLE68-01(48591DE3C19B)	-0.542	-1.205	0.167	-14.771	-89.966	-5.676	-76.21	5.91	-31.39	-47.138	-37.044	106.820	-0.79950	0.59467	-0.08304	-0.01312	30.8	13111	100
2025-3-27 18:45:29.501	WT901BLE68-01(48591DE3C19B)	-0.542	-1.244	0.199	-20.874	-88.623	-2.686	-76.35	5.83	-30.53	-47.138	-37.044	106.820	-0.76587	0.58627	-0.19873	0.17352	30.8	13111	100
2025-3-27 18:45:29.501	WT901BLE68-01(48591DE3C19B)	-0.473	-1.244	0.199	-20.874	-88.623	-2.686	-76.50	5.75	-29.66	-47.138	-37.044	106.820	-0.76587	0.58627	-0.19873	0.17352	30.8	13111	100
2025-3-27 18:45:29.501	WT901BLE68-01(48591DE3C19B)	-0.473	-1.255	0.249	-28.137	-76.416	-1.648	-76.73	5.71	-28.92	-47.138	-37.044	106.820	-0.76587	0.58627	-0.19873	0.17352	30.8	13111	100
2025-3-27 18:45:29.530	WT901BLE68-01(48591DE3C19B)	-0.497	-1.255	0.249	-28.137	-76.416	-1.648	-76.95	5.66	-28.17	-47.138	-37.044	106.820	-0.76587	0.58627	-0.19873	0.17352	30.8	13111	100
2025-3-27 18:45:29.531	WT901BLE68-01(48591DE3C19B)	-0.497	-1.250	0.286	-31.616	-74.219	-0.244	-77.22	5.63	-27.44	-47.138	-37.044	106.820	-0.76587	0.58627	-0.19873	0.17352	30.8	13111	100
2025-3-27 18:45:29.531	WT901BLE68-01(48591DE3C19B)	-0.541	-1.250	0.286	-31.616	-74.219	-0.244	-77.48	5.59	-26.71	-47.138	-37.044	106.820	-0.76587	0.58627	-0.19873	0.17352	30.8	13111	100
2025-3-27 18:45:29.531	WT901BLE68-01(48591DE3C19B)	-0.541	-1.153	0.282	-31.067	-82.886	1.709	-77.72	5.56	-25.89	-47.138	-37.044	106.820	-0.76587	0.58627	-0.19873	0.17352	30.8	13111	100
2025-3-27 18:45:29.591	WT901BLE68-01(48591DE3C19B)	-0.629	-1.153	0.282	-31.067	-82.886	1.709	-77.95	5.53	-25.07	-47.138	-37.044	106.820	-0.76587	0.58627	-0.19873	0.17352	30.8	13111	100
2025-3-27 18:45:29.591	WT901BLE68-01(48591DE3C19B)	-0.629	-1.089	0.246	-30.762	-101.929	8.301	-78.17	5.53	-24.04	-47.138	-37.044	106.820	-0.76587	0.58627	-0.19873	0.17352	30.8	13111	100
2025-3-27 18:45:29.591	WT901BLE68-01(48591DE3C19B)	-0.698	-1.089	0.246	-30.762	-101.929	8.301	-78.38	5.54	-23.02	-47.138	-37.044	106.820	-0.76587	0.58627	-0.19873	0.17352	30.8	13111	100
2025-3-27 18:45:29.591	WT901BLE68-01(48591DE3C19B)	-0.698	-1.185	0.170	-30.212	-127.563	24.902	-78.56	5.66	-21.71	-47.138	-37.044	106.820	-0.76587	0.58627	-0.19873	0.17352	30.8	13111	100
2025-3-27 18:45:29.620	WT901BLE68-01(48591DE3C19B)	-0.606	-1.185	0.170	-30.212	-127.563	24.902	-78.74	5.78	-20.40	-47.138	-37.044	106.820	-0.76587	0.58627	-0.19873	0.17352	30.8	13111	100
2025-3-27 18:45:29.620	WT901BLE68-01(48591DE3C19B)	-0.606	-1.230	0.035	-22.095	-148.254	47.363	-78.80	6.09	-18.84	-47.138	-37.044	106.820	-0.76587	0.58627	-0.19873	0.17352	30.8	13111	100
2025-3-27 18:45:29.620	WT901BLE68-01(48591DE3C19B)	-0.437	-1.230	0.035	-22.095	-148.254	47.363	-78.87	6.40	-17.27	-47.138	-37.044	106.820	-0.76587	0.58627	-0.19873	0.17352	30.8	13111	100
2025-3-27 18:45:29.620	WT901BLE68-01(48591DE3C19B)	-0.437	-1.134	-0.080	-15.747	-165.527	75.439	-78.84	6.94	-15.48	-47.138	-37.044	106.820	-0.76587	0.58627	-0.19873	0.17352	30.8	13111	100
2025-3-27 18:45:29.653	WT901BLE68-01(48591DE3C19B)	-0.295	-1.134	-0.080	-15.747	-165.527	75.439	-78.80	7.48	-13.68	-47.138	-37.044	106.820	-0.76587	0.58627	-0.19873	0.17352	30.8	13111	100
2025-3-27 18:45:29.653	WT901BLE68-01(48591DE3C19B)	-0.295	-1.123	-0.106	-14.160	-179.932	103.455	-78.71	8.25	-11.68	-47.138	-37.044	106.820	-0.76587	0.58627	-0.19873	0.17352	30.8	13111	100
2025-3-27 18:45:29.653	WT901BLE68-01(48591DE3C19B)	-0.225	-1.123	-0.106	-14.160	-179.932	103.455	-78.59	9.00	-9.68	-47.138	-37.044	106.820	-0.76587	0.58627	-0.19873	0.17352	30.8	13111	100
2025-3-27 18:45:29.654	WT901BLE68-01(48591DE3C19B)	-0.225	-1.240	-0.063	-10.315	-191.589	125.305	-78.39	9.93	-7.50	-47.138	-37.044	106.820	-0.76587	0.58627	-0.19873	0.17352	30.8	13111	100
2025-3-27 18:45:29.694	WT901BLE68-01(48591DE3C19B)	-0.082	-1.240	-0.063	-10.315	-191.589	125.305	-78.15	10.84	-5.32	-47.138	-37.044	106.820	-0.76587	0.58627	-0.19873	0.17352	30.8	13111	100
2025-3-27 18:45:29.694	WT901BLE68-01(48591DE3C19B)	-0.082	-1.310	-0.021	2.808	-188.477	140.320	-77.76	11.87	-3.13	-47.138	-37.044	106.820	-0.76587	0.58627	-0.19873	0.17352	30.8	13111	100
2025-3-27 18:45:29.694	WT901BLE68-01(48591DE3C19B)	0.049	-1.310	-0.021	2.808	-188.477	140.320	-77.32	12.87	-0.92	-40.082	-44.982	106.134	-0.76587	0.58627	-0.19873	0.17352	30.8	13111	100
2025-3-27 18:45:29.694	WT901BLE68-01(48591DE3C19B)	0.049	-1.188	0.039	15.442	-161.194	150.452	-76.77	13.99	1.04	-40.082	-44.982	106.134	-0.76587	0.58627	-0.19873	0.17352	30.8	13111	100
2025-3-27 18:45:29.741	WT901BLE68-01(48591DE3C19B)	0.117	-1.188	0.039	15.442	-161.194	150.452	-76.19	15.08	3.03	-40.082	-44.982	106.134	-0.76587	0.58627	-0.19873	0.17352	30.8	13111	100
2025-3-27 18:45:29.741	WT901BLE68-01(48591DE3C19B)	0.111	-1.053	0.084	22.461	-114.563	153.198	-75.62	16.27	4.58	-40.082	-44.982	106.134	-0.76587	0.58627	-0.19873	0.17352	30.8	13111	100
2025-3-27 18:45:29.741	WT901BLE68-01(48591DE3C19B)	0.111	-0.930	0.117	25.513	-56.946	151.733	-75.09	17.50	5.84	-40.082	-44.982	106.134	-0.76587	0.58627	-0.19873	0.17352	30.8	13111	100
2025-3-27 18:45:29.742	WT901BLE68-01(48591DE3C19B)	0.067	-0.930	0.117	25.513	-56.946	151.733	-74.60	18.77	6.83	-40.082	-44.982	106.134	-0.76587	0.58627	-0.19873	0.17352	30.8	13111	100
2025-3-27 18:45:29.770	WT901BLE68-01(48591DE3C19B)	0.067	-0.869	0.110	23.254	-3.479	149.841	-74.19	20.08	7.56	-40.082	-44.982	106.134	-0.76587	0.58627	-0.19873	0.17352	30.8	13111	100
2025-3-27 18:45:29.770	WT901BLE68-01(48591DE3C19B)	-0.070	-0.869	0.110	23.254	-3.479	149.841	-73.86	21.43	8.03	-40.082	-44.982	106.134	-0.76587	0.58627	-0.19873	0.17352	30.8	13111	100
2025-3-27 18:45:29.770	WT901BLE68-01(48591DE3C19B)	-0.070	-0.855	0.048	16.846	20.447	148.315	-73.60	22.80	8.38	-40.082	-44.982	106.134	-0.76587	0.58627	-0.19873	0.17352	30.8	13111	100
2025-3-27 18:45:29.770	WT901BLE68-01(48591DE3C19B)	-0.175	-0.855	0.048	16.846	20.447	148.315	-73.42	24.18	8.60	-40.082	-44.982	106.134	-0.76587	0.58627	-0.19873	0.17352	30.8	13111	100
2025-3-27 18:45:29.801	WT901BLE68-01(48591DE3C19B)	-0.175	-0.941	-0.038	5.615	9.644	144.836	-73.26	25.52	8.88	-40.082	-44.982	106.134	-0.76587	0.58627	-0.19873	0.17352	30.8	13111	100
2025-3-27 18:45:29.801	WT901BLE68-01(48591DE3C19B)	-0.142	-0.941	-0.038	5.615	9.644	144.836	-73.14	26.82	9.22	-40.082	-44.982	106.134	-0.76587	0.58627	-0.19873	0.17352	30.8	13111	100
2025-3-27 18:45:29.801	WT901BLE68-01(48591DE3C19B)	-0.142	-1.093	-0.079	-5.371	-20.447	135.986	-72.99	28.03	9.71	-40.082	-44.982	106.134	-0.76587	0.58627	-0.19873	0.17352	30.8	13111	100
2025-3-27 18:45:29.801	WT901BLE68-01(48591DE3C19B)	-0.003	-1.093	-0.079	-5.371	-20.447	135.986	-72.82	29.14	10.35	-40.082	-44.982	106.134	-0.76587	0.58627	-0.19873	0.17352	30.8	13111	100
2025-3-27 18:45:29.863	WT901BLE68-01(48591DE3C19B)	-0.003	-1.252	-0.110	-13.489	-53.528	122.803	-72.61	30.14	11.16	-40.082	-44.982	106.134	-0.76587	0.58627	-0.19873	0.17352	30.8	13111	100
2025-3-27 18:45:29.863	WT901BLE68-01(48591DE3C19B)	0.220	-1.252	-0.110	-13.489	-53.528	122.803	-72.34	31.01	12.13	-40.082	-44.982	106.134	-0.76587	0.58627	-0.19873	0.17352	30.8	13111	100
2025-3-27 18:45:29.863	WT901BLE68-01(48591DE3C19B)	0.220	-1.395	-0.124	-19.226	-73.547	95.703	-72.05	31.70	13.18	-40.082	-44.982	106.134	-0.76587	0.58627	-0.19873	0.17352	30.8	13111	100
2025-3-27 18:45:29.863	WT901BLE68-01(48591DE3C19B)	0.514	-1.395	-0.124	-19.226	-73.547	95.703	-71.76	32.22	14.29	-40.082	-44.982	106.134	-0.76587	0.58627	-0.19873	0.17352	30.8	13111	100
2025-3-27 18:45:29.893	WT901BLE68-01(48591DE3C19B)	0.514	-1.519	-0.151	-20.325	-83.679	57.800	-71.47	32.53	15.39	-40.082	-44.982	106.134	-0.76587	0.58627	-0.19873	0.17352	30.8	13111	100
2025-3-27 18:45:29.893	WT901BLE68-01(48591DE3C19B)	0.587	-1.519	-0.151	-20.325	-83.679	57.800	-71.20	32.61	16.47	-40.082	-44.982	106.134	-0.76587	0.58627	-0.19873	0.17352	30.8	13111	100
2025-3-27 18:45:29.893	WT901BLE68-01(48591DE3C19B)	0.587	-1.593	-0.057	-17.090	-61.157	20.752	-71.02	32.55	17.36	-40.082	-44.982	106.134	-0.76587	0.58627	-0.19873	0.17352	30.8	13111	100
2025-3-27 18:45:29.893	WT901BLE68-01(48591DE3C19B)	0.403	-1.593	-0.057	-17.090	-61.157	20.752	-70.94	32.33	18.04	-40.082	-44.982	106.134	-0.74713	0.58600	-0.13654	-0.28223	30.8	13111	100
2025-3-27 18:45:29.923	WT901BLE68-01(48591DE3C19B)	0.403	-1.645	0.051	-15.015	-9.644	-16.357	-71.04	32.01	18.36	-40.082	-44.982	106.134	-0.74713	0.58600	-0.13654	-0.28223	30.8	13111	100
2025-3-27 18:45:29.923	WT901BLE68-01(48591DE3C19B)	0.209	-1.645	0.051	-15.015	-9.644	-16.357	-71.32	31.61	18.32	-40.082	-44.982	106.134	-0.74713	0.58600	-0.13654	-0.28223	30.8	13111	100
2025-3-27 18:45:29.923	WT901BLE68-01(48591DE3C19B)	0.209	-1.667	0.101	-7.324	38.147	-56.152	-71.73	31.08	17.95	-40.082	-44.982	106.134	-0.74713	0.58600	-0.13654	-0.28223	30.8	13111	100
2025-3-27 18:45:29.923	WT901BLE68-01(48591DE3C19B)	0.201	-1.667	0.101	-7.324	38.147	-56.152	-72.26	30.44	17.25	-40.082	-44.982	106.134	-0.74713	0.58600	-0.13654	-0.28223	30.8	13111	100
2025-3-27 18:45:29.981	WT901BLE68-01(48591DE3C19B)	0.201	-1.557	0.143	3.601	64.209	-86.914	-72.82	29.70	16.36	-40.082	-44.982	106.134	-0.74713	0.58600	-0.13654	-0.28223	30.8	13111	100
2025-3-27 18:45:29.982	WT901BLE68-01(48591DE3C19B)	0.222	-1.557	0.143	3.601	64.209	-86.914	-73.38	28.84	15.31	-40.082	-44.982	106.134	-0.74713	0.58600	-0.13654	-0.28223	30.8	13111	100
2025-3-27 18:45:29.982	WT901BLE68-01(48591DE3C19B)	0.222	-1.508	0.037	11.353	83.252	-110.535	-73.95	27.89	14.13	-40.082	-44.982	106.134	-0.74713	0.58600	-0.13654	-0.28223	30.8	13111	100
2025-3-27 18:45:29.982	WT901BLE68-01(48591DE3C19B)	0.171	-1.508	0.037	11.353	83.252	-110.535	-74.51	26.85	12.84	-40.082	-44.982	106.134	-0.74713	0.58600	-0.13654	-0.28223	30.8	13111	100
2025-3-27 18:45:30.10	WT901BLE68-01(48591DE3C19B)	0.171	-1.349	-0.032	22.461	94.849	-122.498	-75.03	25.76	11.50	-40.082	-44.982	106.134	-0.74713	0.58600	-0.13654	-0.28223	30.8	13111	100
2025-3-27 18:45:30.10	WT901BLE68-01(48591DE3C19B)	0.110	-1.349	-0.032	22.461	94.849	-122.498	-75.48	24.63	10.10	-40.082	-44.982	106.134	-0.74713	0.58600	-0.13654	-0.28223	30.8	13111	100
2025-3-27 18:45:30.10	WT901BLE68-01(48591DE3C19B)	0.110	-1.186	-0.010	23.987	91.858	-132.935	-75.88	23.43	8.72	-40.082	-44.982	106.134	-0.74713	0.58600	-0.13654	-0.28223	30.8	13111	100
2025-3-27 18:45:30.11	WT901BLE68-01(48591DE3C19B)	0.041	-1.186	-0.010	23.987	91.858	-132.935	-76.24	22.19	7.38	-40.082	-44.982	106.134	-0.74713	0.58600	-0.13654	-0.28223	30.8	13111	100
2025-3-27 18:45:30.40	WT901BLE68-01(48591DE3C19B)	0.041	-1.125	0.044	20.325	80.933	-138.062	-76.56	20.91	6.10	-40.082	-44.982	106.134	-0.74713	0.58600	-0.13654	-0.28223	30.8	13111	100
2025-3-27 18:45:30.40	WT901BLE68-01(48591DE3C19B)	-0.033	-1.125	0.044	20.325	80.933	-138.062	-76.85	19.59	4.90	-40.082	-44.982	106.134	-0.74713	0.58600	-0.13654	-0.28223	30.8	13111	100
2025-3-27 18:45:30.40	WT901BLE68-01(48591DE3C19B)	-0.033	-1.095	0.103	16.418	72.449	-139.587	-77.11	18.26	3.76	-40.082	-44.982	106.134	-0.74713	0.58600	-0.13654	-0.28223	30.8	13111	100
2025-3-27 18:45:30.40	WT901BLE68-01(48591DE3C19B)	-0.129	-1.095	0.103	16.418	72.449	-139.587	-77.34	16.92	2.68	-40.082	-44.982	106.134	-0.74713	0.58600	-0.13654	-0.28223	30.8	13111	100
2025-3-27 18:45:30.100	WT901BLE68-01(48591DE3C19B)	-0.129	-1.059	0.161	12.512	61.646	-139.709	-77.54	15.58	1.68	-40.082	-44.982	106.134	-0.74713	0.58600	-0.13654	-0.28223	30.8	13111	100
2025-3-27 18:45:30.100	WT901BLE68-01(48591DE3C19B)	-0.199	-1.059	0.161	12.512	61.646	-139.709	-77.72	14.24	0.73	-40.082	-44.982	106.134	-0.74713	0.58600	-0.13654	-0.28223	30.8	13111	100
2025-3-27 18:45:30.100	WT901BLE68-01(48591DE3C19B)	-0.199	-1.018	0.192	6.958	50.598	-141.357	-77.88	12.88	-0.13	-40.082	-44.982	106.134	-0.74713	0.58600	-0.13654	-0.28223	30.8	13111	100
2025-3-27 18:45:30.100	WT901BLE68-01(48591DE3C19B)	-0.220	-1.018	0.192	6.958	50.598	-141.357	-78.04	11.52	-0.94	-40.082	-44.982	106.134	-0.74713	0.58600	-0.13654	-0.28223	30.8	13111	100
2025-3-27 18:45:30.130	WT901BLE68-01(48591DE3C19B)	-0.220	-0.986	0.200	0.122	47.546	-144.836	-78.20	10.16	-1.73	-41.846	-50.666	106.624	-0.74713	0.58600	-0.13654	-0.28223	30.8	13111	100
2025-3-27 18:45:30.130	WT901BLE68-01(48591DE3C19B)	-0.219	-0.986	0.200	0.122	47.546	-144.836	-78.37	8.78	-2.49	-41.846	-50.666	106.624	-0.74713	0.58600	-0.13654	-0.28223	30.8	13111	100
2025-3-27 18:45:30.130	WT901BLE68-01(48591DE3C19B)	-0.219	-0.934	0.184	-4.028	54.810	-147.522	-78.54	7.41	-3.28	-41.846	-50.666	106.624	-0.74713	0.58600	-0.13654	-0.28223	30.8	13111	100
2025-3-27 18:45:30.130	WT901BLE68-01(48591DE3C19B)	-0.238	-0.934	0.184	-4.028	54.810	-147.522	-78.71	6.05	-4.11	-41.846	-50.666	106.624	-0.74713	0.58600	-0.13654	-0.28223	30.8	13111	100
2025-3-27 18:45:30.160	WT901BLE68-01(48591DE3C19B)	-0.238	-0.852	0.164	-5.127	66.406	-150.330	-78.87	4.70	-4.99	-41.846	-50.666	106.624	-0.74713	0.58600	-0.13654	-0.28223	30.8	13111	100
2025-3-27 18:45:30.160	WT901BLE68-01(48591DE3C19B)	-0.260	-0.852	0.164	-5.127	66.406	-150.330	-79.01	3.35	-5.92	-41.846	-50.666	106.624	-0.74713	0.58600	-0.13654	-0.28223	30.8	13111	100
2025-3-27 18:45:30.160	WT901BLE68-01(48591DE3C19B)	-0.260	-0.750	0.153	-4.089	73.853	-153.320	-79.13	2.01	-6.88	-41.846	-50.666	106.624	-0.74713	0.58600	-0.13654	-0.28223	30.8	13111	100
2025-3-27 18:45:30.160	WT901BLE68-01(48591DE3C19B)	-0.284	-0.750	0.153	-4.089	73.853	-153.320	-79.21	0.67	-7.88	-41.846	-50.666	106.624	-0.74713	0.58600	-0.13654	-0.28223	30.8	13111	100
2025-3-27 18:45:30.220	WT901BLE68-01(48591DE3C19B)	-0.284	-0.648	0.168	-3.845	78.003	-155.090	-79.27	-0.65	-8.90	-41.846	-50.666	106.624	-0.74713	0.58600	-0.13654	-0.28223	30.8	13111	100
2025-3-27 18:45:30.220	WT901BLE68-01(48591DE3C19B)	-0.326	-0.648	0.168	-3.845	78.003	-155.090	-79.30	-1.97	-9.94	-41.846	-50.666	106.624	-0.74713	0.58600	-0.13654	-0.28223	30.8	13111	100
2025-3-27 18:45:30.220	WT901BLE68-01(48591DE3C19B)	-0.326	-0.598	0.189	-3.601	83.923	-153.076	-79.30	-3.25	-11.04	-41.846	-50.666	106.624	-0.74713	0.58600	-0.13654	-0.28223	30.8	13111	100
2025-3-27 18:45:30.220	WT901BLE68-01(48591DE3C19B)	-0.424	-0.598	0.189	-3.601	83.923	-153.076	-79.28	-4.50	-12.13	-41.846	-50.666	106.624	-0.74713	0.58600	-0.13654	-0.28223	30.8	13111	100
2025-3-27 18:45:30.253	WT901BLE68-01(48591DE3C19B)	-0.424	-0.590	0.215	-1.038	87.769	-146.423	-79.19	-5.67	-13.26	-41.846	-50.666	106.624	-0.74713	0.58600	-0.13654	-0.28223	30.8	13111	100
2025-3-27 18:45:30.253	WT901BLE68-01(48591DE3C19B)	-0.559	-0.590	0.215	-1.038	87.769	-146.423	-79.08	-6.82	-14.39	-41.846	-50.666	106.624	-0.74713	0.58600	-0.13654	-0.28223	30.8	13111	100
2025-3-27 18:45:30.253	WT901BLE68-01(48591DE3C19B)	-0.559	-0.579	0.234	4.578	77.576	-133.240	-78.90	-7.83	-15.40	-41.846	-50.666	106.624	-0.74713	0.58600	-0.13654	-0.28223	30.8	13111	100
2025-3-27 18:45:30.253	WT901BLE68-01(48591DE3C19B)	-0.628	-0.579	0.234	4.578	77.576	-133.240	-78.71	-8.83	-16.42	-41.846	-50.666	106.624	-0.74713	0.58600	-0.13654	-0.28223	30.8	13111	100
2025-3-27 18:45:30.290	WT901BLE68-01(48591DE3C19B)	-0.628	-0.563	0.202	6.287	53.528	-116.760	-78.51	-9.68	-17.17	-41.846	-50.666	106.624	-0.74713	0.58600	-0.13654	-0.28223	30.8	13111	100
2025-3-27 18:45:30.290	WT901BLE68-01(48591DE3C19B)	-0.672	-0.563	0.202	6.287	53.528	-116.760	-78.31	-10.51	-17.94	-41.846	-50.666	106.624	-0.74713	0.58600	-0.13654	-0.28223	30.8	13111	100
2025-3-27 18:45:30.290	WT901BLE68-01(48591DE3C19B)	-0.672	-0.626	0.165	3.662	28.992	-95.703	-78.17	-11.17	-18.41	-41.846	-50.666	106.624	-0.75266	0.63150	-0.02582	0.18420	30.8	13111	100
2025-3-27 18:45:30.290	WT901BLE68-01(48591DE3C19B)	-0.803	-0.626	0.165	3.662	28.992	-95.703	-78.03	-11.82	-18.90	-41.846	-50.666	106.624	-0.75266	0.63150	-0.02582	0.18420	30.8	13111	100
2025-3-27 18:45:30.371	WT901BLE68-01(48591DE3C19B)	-0.803	-0.765	0.170	3.113	14.465	-71.960	-77.93	-12.24	-19.19	-41.846	-50.666	106.624	-0.75266	0.63150	-0.02582	0.18420	30.8	13111	100
2025-3-27 18:45:30.371	WT901BLE68-01(48591DE3C19B)	-0.988	-0.765	0.170	3.113	14.465	-71.960	-77.83	-12.65	-19.48	-41.846	-50.666	106.624	-0.75266	0.63150	-0.02582	0.18420	30.8	13111	100
2025-3-27 18:45:30.372	WT901BLE68-01(48591DE3C19B)	-0.988	-0.929	0.196	0.366	0.305	-49.866	-77.81	-12.86	-19.59	-41.846	-50.666	106.624	-0.75266	0.63150	-0.02582	0.18420	30.8	13111	100
2025-3-27 18:45:30.372	WT901BLE68-01(48591DE3C19B)	-1.118	-0.929	0.196	0.366	0.305	-49.866	-77.77	-13.06	-19.69	-41.846	-50.666	106.624	-0.75266	0.63150	-0.02582	0.18420	30.8	13111	100
2025-3-27 18:45:30.373	WT901BLE68-01(48591DE3C19B)	-1.118	-1.145	0.270	0.000	-17.395	-28.625	-77.79	-13.08	-19.57	-41.846	-50.666	106.624	-0.75266	0.63150	-0.02582	0.18420	30.8	13111	100
2025-3-27 18:45:30.373	WT901BLE68-01(48591DE3C19B)	-1.132	-1.145	0.270	0.000	-17.395	-28.625	-77.82	-13.11	-19.45	-41.846	-50.666	106.624	-0.75266	0.63150	-0.02582	0.18420	30.8	13111	100
2025-3-27 18:45:30.373	WT901BLE68-01(48591DE3C19B)	-1.132	-1.282	0.339	-0.061	-28.931	-5.310	-77.88	-12.92	-19.17	-41.846	-50.666	106.624	-0.75266	0.63150	-0.02582	0.18420	30.8	13111	100
2025-3-27 18:45:30.373	WT901BLE68-01(48591DE3C19B)	-1.078	-1.282	0.339	-0.061	-28.931	-5.310	-77.94	-12.73	-18.88	-41.846	-50.666	106.624	-0.75266	0.63150	-0.02582	0.18420	30.8	13111	100
2025-3-27 18:45:30.407	WT901BLE68-01(48591DE3C19B)	-1.078	-1.406	0.381	-3.906	-27.588	28.809	-78.05	-12.21	-18.54	-41.846	-50.666	106.624	-0.75266	0.63150	-0.02582	0.18420	30.8	13111	100
2025-3-27 18:45:30.408	WT901BLE68-01(48591DE3C19B)	-0.973	-1.406	0.381	-3.906	-27.588	28.809	-78.15	-11.69	-18.19	-41.846	-50.666	106.624	-0.75266	0.63150	-0.02582	0.18420	30.8	13111	100
2025-3-27 18:45:30.408	WT901BLE68-01(48591DE3C19B)	-0.973	-1.448	0.350	-9.155	-10.132	61.157	-78.28	-10.83	-17.96	-41.846	-50.666	106.624	-0.75266	0.63150	-0.02582	0.18420	30.8	13111	100
2025-3-27 18:45:30.408	WT901BLE68-01(48591DE3C19B)	-0.960	-1.448	0.350	-9.155	-10.132	61.157	-78.40	-9.98	-17.73	-41.846	-50.666	106.624	-0.75266	0.63150	-0.02582	0.18420	30.8	13111	100
2025-3-27 18:45:30.461	WT901BLE68-01(48591DE3C19B)	-0.960	-1.512	0.335	-17.029	7.690	93.567	-78.58	-8.78	-17.61	-41.846	-50.666	106.624	-0.75266	0.63150	-0.02582	0.18420	30.8	13111	100
2025-3-27 18:45:30.462	WT901BLE68-01(48591DE3C19B)	-1.026	-1.512	0.335	-17.029	7.690	93.567	-78.76	-7.59	-17.49	-41.846	-50.666	106.624	-0.75266	0.63150	-0.02582	0.18420	30.8	13111	100
2025-3-27 18:45:30.462	WT901BLE68-01(48591DE3C19B)	-1.026	-1.542	0.349	-21.545	2.563	125.244	-78.99	-6.10	-17.27	-41.846	-50.666	106.624	-0.75266	0.63150	-0.02582	0.18420	30.8	13111	100
2025-3-27 18:45:30.462	WT901BLE68-01(48591DE3C19B)	-0.997	-1.542	0.349	-21.545	2.563	125.244	-79.22	-4.63	-17.05	-41.846	-50.666	106.624	-0.75266	0.63150	-0.02582	0.18420	30.8	13111	100
2025-3-27 18:45:30.490	WT901BLE68-01(48591DE3C19B)	-0.997	-1.455	0.308	-22.156	-26.978	156.128	-79.46	-2.92	-16.48	-41.846	-50.666	106.624	-0.75266	0.63150	-0.02582	0.18420	30.8	13111	100
2025-3-27 18:45:30.490	WT901BLE68-01(48591DE3C19B)	-0.859	-1.455	0.308	-22.156	-26.978	156.128	-79.69	-1.22	-15.92	-41.846	-50.666	106.624	-0.75266	0.63150	-0.02582	0.18420	30.8	13111	100
2025-3-27 18:45:30.490	WT901BLE68-01(48591DE3C19B)	-0.859	-1.320	0.213	-23.071	-62.439	187.805	-79.92	0.72	-14.96	-41.846	-50.666	106.624	-0.75266	0.63150	-0.02582	0.18420	30.8	13111	100
2025-3-27 18:45:30.490	WT901BLE68-01(48591DE3C19B)	-0.668	-1.320	0.213	-23.071	-62.439	187.805	-80.12	2.65	-14.01	-51.156	-48.608	106.526	-0.75266	0.63150	-0.02582	0.18420	30.8	13111	100
2025-3-27 18:45:30.551	WT901BLE68-01(48591DE3C19B)	-0.668	-1.262	0.146	-20.081	-88.379	215.942	-80.23	4.81	-12.75	-51.156	-48.608	106.526	-0.75266	0.63150	-0.02582	0.18420	30.8	13111	100
2025-3-27 18:45:30.552	WT901BLE68-01(48591DE3C19B)	-0.470	-1.262	0.146	-20.081	-88.379	215.942	-80.30	6.95	-11.49	-51.156	-48.608	106.526	-0.75266	0.63150	-0.02582	0.18420	30.8	13111	100
2025-3-27 18:45:30.552	WT901BLE68-01(48591DE3C19B)	-0.470	-1.263	0.147	-11.047	-90.759	236.816	-80.22	9.27	-10.16	-51.156	-48.608	106.526	-0.75266	0.63150	-0.02582	0.18420	30.8	13111	100
2025-3-27 18:45:30.552	WT901BLE68-01(48591DE3C19B)	-0.439	-1.263	0.147	-11.047	-90.759	236.816	-80.10	11.57	-8.81	-51.156	-48.608	106.526	-0.75266	0.63150	-0.02582	0.18420	30.8	13111	100
2025-3-27 18:45:30.580	WT901BLE68-01(48591DE3C19B)	-0.439	-1.317	0.066	-6.226	-71.716	250.671	-79.90	14.02	-7.62	-51.156	-48.608	106.526	-0.75266	0.63150	-0.02582	0.18420	30.8	13111	100
2025-3-27 18:45:30.580	WT901BLE68-01(48591DE3C19B)	-0.554	-1.317	0.066	-6.226	-71.716	250.671	-79.67	16.44	-6.40	-51.156	-48.608	106.526	-0.75266	0.63150	-0.02582	0.18420	30.8	13111	100
2025-3-27 18:45:30.580	WT901BLE68-01(48591DE3C19B)	-0.554	-1.464	-0.032	-3.418	-65.735	250.122	-79.37	18.84	-5.21	-51.156	-48.608	106.526	-0.75266	0.63150	-0.02582	0.18420	30.8	13111	100
2025-3-27 18:45:30.580	WT901BLE68-01(48591DE3C19B)	-0.533	-1.464	-0.032	-3.418	-65.735	250.122	-79.02	21.21	-4.00	-51.156	-48.608	106.526	-0.75266	0.63150	-0.02582	0.18420	30.8	13111	100
2025-3-27 18:45:30.611	WT901BLE68-01(48591DE3C19B)	-0.533	-1.623	-0.066	1.526	-66.772	243.835	-78.57	23.50	-2.75	-51.156	-48.608	106.526	-0.75266	0.63150	-0.02582	0.18420	30.8	13111	100
2025-3-27 18:45:30.611	WT901BLE68-01(48591DE3C19B)	-0.469	-1.623	-0.066	1.526	-66.772	243.835	-78.07	25.76	-1.47	-51.156	-48.608	106.526	-0.75266	0.63150	-0.02582	0.18420	30.8	13111	100
2025-3-27 18:45:30.611	WT901BLE68-01(48591DE3C19B)	-0.469	-1.832	-0.061	8.423	-57.068	235.107	-77.50	27.92	-0.26	-51.156	-48.608	106.526	-0.75266	0.63150	-0.02582	0.18420	30.8	13111	100
2025-3-27 18:45:30.611	WT901BLE68-01(48591DE3C19B)	-0.336	-1.832	-0.061	8.423	-57.068	235.107	-76.87	30.04	0.98	-51.156	-48.608	106.526	-0.75266	0.63150	-0.02582	0.18420	30.8	13111	100
2025-3-27 18:45:30.673	WT901BLE68-01(48591DE3C19B)	-0.336	-1.655	-0.056	26.917	-45.227	232.117	-76.07	32.14	2.14	-51.156	-48.608	106.526	-0.75266	0.63150	-0.02582	0.18420	30.8	13111	100
2025-3-27 18:45:30.673	WT901BLE68-01(48591DE3C19B)	-0.184	-1.655	-0.056	26.917	-45.227	232.117	-75.22	34.20	3.36	-51.156	-48.608	106.526	-0.75266	0.63150	-0.02582	0.18420	30.8	13111	100
2025-3-27 18:45:30.673	WT901BLE68-01(48591DE3C19B)	-0.066	-1.301	-0.082	24.902	-33.325	229.858	-74.40	36.23	4.48	-51.156	-48.608	106.526	-0.75266	0.63150	-0.02582	0.18420	30.8	13111	100
2025-3-27 18:45:30.673	WT901BLE68-01(48591DE3C19B)	-0.066	-1.102	-0.086	15.991	-20.874	226.013	-73.62	38.24	5.59	-51.156	-48.608	106.526	-0.75266	0.63150	-0.02582	0.18420	30.8	13111	100
2025-3-27 18:45:30.706	WT901BLE68-01(48591DE3C19B)	0.000	-1.102	-0.086	15.991	-20.874	226.013	-72.87	40.22	6.66	-51.156	-48.608	106.526	-0.75266	0.63150	-0.02582	0.18420	30.8	13111	100
2025-3-27 18:45:30.707	WT901BLE68-01(48591DE3C19B)	0.000	-1.049	-0.075	8.789	-12.329	218.811	-72.15	42.14	7.72	-51.156	-48.608	106.526	-0.75266	0.63150	-0.02582	0.18420	30.8	13111	100
2025-3-27 18:45:30.707	WT901BLE68-01(48591DE3C19B)	0.030	-1.049	-0.075	8.789	-12.329	218.811	-71.44	44.02	8.77	-51.156	-48.608	106.526	-0.75266	0.63150	-0.02582	0.18420	30.8	13111	100
2025-3-27 18:45:30.707	WT901BLE68-01(48591DE3C19B)	0.030	-1.034	-0.103	4.578	-6.348	208.618	-70.75	45.83	9.81	-51.156	-48.608	106.526	-0.72650	0.55621	-0.27496	-0.29507	30.8	13111	100
2025-3-27 18:45:30.761	WT901BLE68-01(48591DE3C19B)	0.070	-1.034	-0.103	4.578	-6.348	208.618	-70.05	47.58	10.84	-51.156	-48.608	106.526	-0.72650	0.55621	-0.27496	-0.29507	30.8	13111	100
2025-3-27 18:45:30.761	WT901BLE68-01(48591DE3C19B)	0.070	-1.039	-0.126	-2.258	-2.319	195.129	-69.38	49.25	11.86	-51.156	-48.608	106.526	-0.72650	0.55621	-0.27496	-0.29507	30.8	13111	100
2025-3-27 18:45:30.761	WT901BLE68-01(48591DE3C19B)	0.130	-1.039	-0.126	-2.258	-2.319	195.129	-68.75	50.84	12.86	-51.156	-48.608	106.526	-0.72650	0.55621	-0.27496	-0.29507	30.8	13111	100
2025-3-27 18:45:30.761	WT901BLE68-01(48591DE3C19B)	0.130	-1.172	-0.111	-13.916	-6.165	176.331	-68.14	52.32	13.89	-51.156	-48.608	106.526	-0.72650	0.55621	-0.27496	-0.29507	30.8	13111	100
2025-3-27 18:45:30.790	WT901BLE68-01(48591DE3C19B)	0.196	-1.172	-0.111	-13.916	-6.165	176.331	-67.55	53.67	14.94	-51.156	-48.608	106.526	-0.72650	0.55621	-0.27496	-0.29507	30.8	13111	100
2025-3-27 18:45:30.791	WT901BLE68-01(48591DE3C19B)	0.196	-1.307	-0.076	-21.240	-17.639	151.367	-66.95	54.88	16.02	-51.156	-48.608	106.526	-0.72650	0.55621	-0.27496	-0.29507	30.8	13111	100
2025-3-27 18:45:30.791	WT901BLE68-01(48591DE3C19B)	0.326	-1.307	-0.076	-21.240	-17.639	151.367	-66.34	55.92	17.17	-51.156	-48.608	106.526	-0.72650	0.55621	-0.27496	-0.29507	30.8	13111	100
2025-3-27 18:45:30.791	WT901BLE68-01(48591DE3C19B)	0.326	-1.501	-0.085	-24.475	-23.376	119.507	-65.76	56.79	18.27	-51.156	-48.608	106.526	-0.72650	0.55621	-0.27496	-0.29507	30.8	13111	100
2025-3-27 18:45:30.821	WT901BLE68-01(48591DE3C19B)	0.477	-1.501	-0.085	-24.475	-23.376	119.507	-65.22	57.49	19.32	-51.156	-48.608	106.526	-0.72650	0.55621	-0.27496	-0.29507	30.8	13111	100
2025-3-27 18:45:30.821	WT901BLE68-01(48591DE3C19B)	0.477	-1.717	-0.104	-19.470	-18.982	72.754	-64.92	58.00	20.00	-51.156	-48.608	106.526	-0.72650	0.55621	-0.27496	-0.29507	30.8	13111	100
2025-3-27 18:45:30.821	WT901BLE68-01(48591DE3C19B)	0.436	-1.717	-0.104	-19.470	-18.982	72.754	-64.88	58.35	20.26	-51.156	-48.608	106.526	-0.72650	0.55621	-0.27496	-0.29507	30.8	13111	100
2025-3-27 18:45:30.821	WT901BLE68-01(48591DE3C19B)	0.436	-1.813	-0.078	-16.296	-7.324	21.606	-65.09	58.48	20.20	-51.156	-48.608	106.526	-0.72650	0.55621	-0.27496	-0.29507	30.8	13111	100
2025-3-27 18:45:30.850	WT901BLE68-01(48591DE3C19B)	0.280	-1.813	-0.078	-16.296	-7.324	21.606	-65.56	58.40	19.83	-51.156	-48.608	106.526	-0.72650	0.55621	-0.27496	-0.29507	30.8	13111	100
2025-3-27 18:45:30.851	WT901BLE68-01(48591DE3C19B)	0.280	-1.766	0.013	-14.832	4.578	-34.180	-66.29	58.08	19.14	-51.156	-48.608	106.526	-0.72650	0.55621	-0.27496	-0.29507	30.8	13111	100
2025-3-27 18:45:30.851	WT901BLE68-01(48591DE3C19B)	0.088	-1.766	0.013	-14.832	4.578	-34.180	-67.25	57.54	18.15	-51.156	-48.608	106.526	-0.72650	0.55621	-0.27496	-0.29507	30.8	13111	100
2025-3-27 18:45:30.851	WT901BLE68-01(48591DE3C19B)	0.088	-1.627	0.104	-18.494	17.090	-86.487	-68.43	56.76	16.92	-51.156	-48.608	106.526	-0.72650	0.55621	-0.27496	-0.29507	30.8	13111	100
2025-3-27 18:45:30.911	WT901BLE68-01(48591DE3C19B)	-0.042	-1.627	0.104	-18.494	17.090	-86.487	-69.79	55.76	15.48	-51.156	-48.608	106.526	-0.72650	0.55621	-0.27496	-0.29507	30.8	13111	100
2025-3-27 18:45:30.911	WT901BLE68-01(48591DE3C19B)	-0.042	-1.526	0.174	-24.780	15.381	-134.216	-71.18	54.51	14.01	-51.156	-48.608	106.526	-0.72650	0.55621	-0.27496	-0.29507	30.8	13111	100
2025-3-27 18:45:30.911	WT901BLE68-01(48591DE3C19B)	-0.106	-1.526	0.174	-24.780	15.381	-134.216	-72.59	53.02	12.54	-51.156	-48.608	106.526	-0.72650	0.55621	-0.27496	-0.29507	30.8	13111	100
2025-3-27 18:45:30.911	WT901BLE68-01(48591DE3C19B)	-0.106	-1.466	0.138	-19.714	14.160	-174.011	-73.91	51.33	11.10	-51.156	-48.608	106.526	-0.72650	0.55621	-0.27496	-0.29507	30.8	13111	100
2025-3-27 18:45:30.940	WT901BLE68-01(48591DE3C19B)	-0.175	-1.466	0.138	-19.714	14.160	-174.011	-75.14	49.44	9.72	-67.130	-49.294	97.216	-0.72650	0.55621	-0.27496	-0.29507	30.8	13111	100
2025-3-27 18:45:30.940	WT901BLE68-01(48591DE3C19B)	-0.175	-1.337	0.152	-5.676	22.583	-208.252	-76.26	47.39	8.33	-67.130	-49.294	97.216	-0.72650	0.55621	-0.27496	-0.29507	30.8	13111	100
2025-3-27 18:45:30.940	WT901BLE68-01(48591DE3C19B)	-0.229	-1.337	0.152	-5.676	22.583	-208.252	-77.28	45.18	6.95	-67.130	-49.294	97.216	-0.72650	0.55621	-0.27496	-0.29507	30.8	13111	100
2025-3-27 18:45:30.940	WT901BLE68-01(48591DE3C19B)	-0.229	-1.245	0.164	-2.075	14.709	-236.389	-78.15	42.82	5.70	-67.130	-49.294	97.216	-0.72650	0.55621	-0.27496	-0.29507	30.8	13111	100
2025-3-27 18:45:30.970	WT901BLE68-01(48591DE3C19B)	-0.226	-1.245	0.164	-2.075	14.709	-236.389	-78.89	40.33	4.56	-67.130	-49.294	97.216	-0.72650	0.55621	-0.27496	-0.29507	30.8	13111	100
2025-3-27 18:45:30.971	WT901BLE68-01(48591DE3C19B)	-0.226	-1.303	0.171	-1.465	-7.690	-261.963	-79.46	37.69	3.63	-67.130	-49.294	97.216	-0.72650	0.55621	-0.27496	-0.29507	30.8	13111	100
2025-3-27 18:45:30.971	WT901BLE68-01(48591DE3C19B)	-0.139	-1.303	0.171	-1.465	-7.690	-261.963	-79.89	34.93	2.87	-67.130	-49.294	97.216	-0.72650	0.55621	-0.27496	-0.29507	30.8	13111	100
2025-3-27 18:45:30.971	WT901BLE68-01(48591DE3C19B)	-0.139	-1.377	0.149	-5.859	-12.207	-283.264	-80.28	32.06	2.17	-67.130	-49.294	97.216	-0.72650	0.55621	-0.27496	-0.29507	30.8	13111	100
2025-3-27 18:45:31.62	WT901BLE68-01(48591DE3C19B)	-0.325	-1.377	0.149	-5.859	-12.207	-283.264	-80.63	29.10	1.53	-67.130	-49.294	97.216	-0.72650	0.55621	-0.27496	-0.29507	30.8	13111	100
2025-3-27 18:45:31.62	WT901BLE68-01(48591DE3C19B)	-0.325	-1.483	0.117	-7.751	13.123	-285.828	-81.01	26.16	0.79	-67.130	-49.294	97.216	-0.72650	0.55621	-0.27496	-0.29507	30.8	13111	100
2025-3-27 18:45:31.62	WT901BLE68-01(48591DE3C19B)	-0.514	-1.483	0.117	-7.751	13.123	-285.828	-81.41	23.25	-0.03	-67.130	-49.294	97.216	-0.72650	0.55621	-0.27496	-0.29507	30.8	13111	100
2025-3-27 18:45:31.62	WT901BLE68-01(48591DE3C19B)	-0.514	-1.520	0.124	-2.808	34.485	-294.495	-81.78	20.33	-0.93	-67.130	-49.294	97.216	-0.72650	0.55621	-0.27496	-0.29507	30.8	13111	100
2025-3-27 18:45:31.63	WT901BLE68-01(48591DE3C19B)	-0.519	-1.520	0.124	-2.808	34.485	-294.495	-82.11	17.40	-1.90	-67.130	-49.294	97.216	-0.72650	0.55621	-0.27496	-0.29507	30.8	13111	100
2025-3-27 18:45:31.63	WT901BLE68-01(48591DE3C19B)	-0.519	-1.469	0.202	1.648	63.477	-292.969	-82.39	14.52	-2.97	-67.130	-49.294	97.216	-0.72650	0.55621	-0.27496	-0.29507	30.8	13111	100
2025-3-27 18:45:31.63	WT901BLE68-01(48591DE3C19B)	-0.562	-1.469	0.202	1.648	63.477	-292.969	-82.63	11.68	-4.14	-67.130	-49.294	97.216	-0.72650	0.55621	-0.27496	-0.29507	30.8	13111	100
2025-3-27 18:45:31.63	WT901BLE68-01(48591DE3C19B)	-0.562	-1.436	0.215	7.690	97.290	-280.640	-82.80	8.94	-5.44	-67.130	-49.294	97.216	-0.72650	0.55621	-0.27496	-0.29507	30.8	13111	100
2025-3-27 18:45:31.90	WT901BLE68-01(48591DE3C19B)	-0.619	-1.436	0.215	7.690	97.290	-280.640	-82.91	6.31	-6.88	-67.130	-49.294	97.216	-0.72650	0.55621	-0.27496	-0.29507	30.8	13111	100
2025-3-27 18:45:31.90	WT901BLE68-01(48591DE3C19B)	-0.619	-1.323	0.198	19.165	105.530	-257.690	-82.89	3.81	-8.32	-67.130	-49.294	97.216	-0.72650	0.55621	-0.27496	-0.29507	30.8	13111	100
2025-3-27 18:45:31.90	WT901BLE68-01(48591DE3C19B)	-0.588	-1.323	0.198	19.165	105.530	-257.690	-82.77	1.45	-9.76	-67.130	-49.294	97.216	-0.74777	0.65756	-0.06223	0.06696	30.8	13111	100
2025-3-27 18:45:31.90	WT901BLE68-01(48591DE3C19B)	-0.588	-1.165	0.179	24.719	95.459	-233.276	-82.55	-0.76	-11.13	-67.130	-49.294	97.216	-0.74777	0.65756	-0.06223	0.06696	30.8	13111	100
2025-3-27 18:45:31.151	WT901BLE68-01(48591DE3C19B)	-0.567	-1.165	0.179	24.719	95.459	-233.276	-82.26	-2.83	-12.44	-67.130	-49.294	97.216	-0.74777	0.65756	-0.06223	0.06696	30.8	13111	100
2025-3-27 18:45:31.152	WT901BLE68-01(48591DE3C19B)	-0.567	-1.040	0.135	24.048	95.337	-207.764	-81.94	-4.64	-13.71	-67.130	-49.294	97.216	-0.74777	0.65756	-0.06223	0.06696	30.8	13111	100
2025-3-27 18:45:31.152	WT901BLE68-01(48591DE3C19B)	-0.651	-1.040	0.135	24.048	95.337	-207.764	-81.58	-6.42	-14.99	-67.130	-49.294	97.216	-0.74777	0.65756	-0.06223	0.06696	30.8	13111	100
2025-3-27 18:45:31.152	WT901BLE68-01(48591DE3C19B)	-0.651	-0.923	0.080	20.264	93.567	-183.899	-81.24	-7.94	-16.20	-67.130	-49.294	97.216	-0.74777	0.65756	-0.06223	0.06696	30.8	13111	100
2025-3-27 18:45:31.180	WT901BLE68-01(48591DE3C19B)	-0.691	-0.923	0.080	20.264	93.567	-183.899	-80.87	-9.43	-17.42	-67.130	-49.294	97.216	-0.74777	0.65756	-0.06223	0.06696	30.8	13111	100
2025-3-27 18:45:31.180	WT901BLE68-01(48591DE3C19B)	-0.691	-0.837	0.073	15.442	83.374	-164.856	-80.54	-10.73	-18.51	-67.130	-49.294	97.216	-0.74777	0.65756	-0.06223	0.06696	30.8	13111	100
2025-3-27 18:45:31.180	WT901BLE68-01(48591DE3C19B)	-0.733	-0.837	0.073	15.442	83.374	-164.856	-80.19	-12.01	-19.60	-67.130	-49.294	97.216	-0.74777	0.65756	-0.06223	0.06696	30.8	13111	100
2025-3-27 18:45:31.180	WT901BLE68-01(48591DE3C19B)	-0.733	-0.784	0.112	11.658	65.918	-147.888	-79.91	-13.14	-20.48	-67.130	-49.294	97.216	-0.74777	0.65756	-0.06223	0.06696	30.8	13111	100
2025-3-27 18:45:31.213	WT901BLE68-01(48591DE3C19B)	-0.773	-0.784	0.112	11.658	65.918	-147.888	-79.61	-14.24	-21.35	-67.130	-49.294	97.216	-0.74777	0.65756	-0.06223	0.06696	30.8	13111	100
2025-3-27 18:45:31.213	WT901BLE68-01(48591DE3C19B)	-0.387	-0.737	0.175	10.376	48.523	-129.089	-79.37	-15.17	-22.02	-67.130	-49.294	97.216	-0.74777	0.65756	-0.06223	0.06696	30.8	13111	100
2025-3-27 18:45:31.213	WT901BLE68-01(48591DE3C19B)	-0.821	-0.369	0.087	10.376	48.523	-129.089	-79.12	-16.09	-22.67	-67.130	-49.294	97.216	-0.74777	0.65756	-0.06223	0.06696	30.8	13111	100
2025-3-27 18:45:31.213	WT901BLE68-01(48591DE3C19B)	-0.821	-0.720	0.205	10.986	29.907	-109.253	-78.91	-16.84	-23.09	-67.130	-49.294	97.216	-0.74777	0.65756	-0.06223	0.06696	30.8	13111	100
2025-3-27 18:45:31.272	WT901BLE68-01(48591DE3C19B)	-0.848	-0.720	0.205	10.986	29.907	-109.253	-78.71	-17.57	-23.51	-67.130	-49.294	97.216	-0.74777	0.65756	-0.06223	0.06696	30.8	13111	100
2025-3-27 18:45:31.272	WT901BLE68-01(48591DE3C19B)	-0.848	-0.734	0.213	13.184	13.306	-90.088	-78.55	-18.13	-23.71	-67.130	-49.294	97.216	-0.74777	0.65756	-0.06223	0.06696	30.8	13111	100
2025-3-27 18:45:31.272	WT901BLE68-01(48591DE3C19B)	-0.912	-0.734	0.213	13.184	13.306	-90.088	-78.38	-18.68	-23.90	-67.130	-49.294	97.216	-0.74777	0.65756	-0.06223	0.06696	30.8	13111	100
2025-3-27 18:45:31.272	WT901BLE68-01(48591DE3C19B)	-0.912	-0.786	0.197	16.174	3.174	-73.120	-78.24	-19.08	-23.94	-67.130	-49.294	97.216	-0.74777	0.65756	-0.06223	0.06696	30.8	13111	100
2025-3-27 18:45:31.303	WT901BLE68-01(48591DE3C19B)	-1.005	-0.786	0.197	16.174	3.174	-73.120	-78.10	-19.47	-23.98	-67.130	-49.294	97.216	-0.74777	0.65756	-0.06223	0.06696	30.8	13111	100
2025-3-27 18:45:31.303	WT901BLE68-01(48591DE3C19B)	-1.005	-0.874	0.182	16.785	-3.113	-58.838	-77.98	-19.72	-23.92	-67.130	-49.294	97.216	-0.74777	0.65756	-0.06223	0.06696	30.8	13111	100
2025-3-27 18:45:31.303	WT901BLE68-01(48591DE3C19B)	-1.075	-0.874	0.182	16.785	-3.113	-58.838	-77.87	-19.97	-23.85	-67.130	-49.294	97.216	-0.74777	0.65756	-0.06223	0.06696	30.8	13111	100
2025-3-27 18:45:31.303	WT901BLE68-01(48591DE3C19B)	-1.075	-0.982	0.201	15.869	-15.930	-42.847	-77.83	-20.08	-23.60	-51.450	-50.470	94.864	-0.74777	0.65756	-0.06223	0.06696	30.8	13111	100
2025-3-27 18:45:31.333	WT901BLE68-01(48591DE3C19B)	-1.055	-0.982	0.201	15.869	-15.930	-42.847	-77.80	-20.20	-23.36	-51.450	-50.470	94.864	-0.74777	0.65756	-0.06223	0.06696	30.8	13111	100
2025-3-27 18:45:31.333	WT901BLE68-01(48591DE3C19B)	-1.055	-1.131	0.233	9.766	-29.236	-18.677	-77.89	-20.10	-22.92	-51.450	-50.470	94.864	-0.74777	0.65756	-0.06223	0.06696	30.8	13111	100
2025-3-27 18:45:31.333	WT901BLE68-01(48591DE3C19B)	-0.965	-1.131	0.233	9.766	-29.236	-18.677	-77.98	-20.00	-22.48	-51.450	-50.470	94.864	-0.74777	0.65756	-0.06223	0.06696	30.8	13111	100
2025-3-27 18:45:31.333	WT901BLE68-01(48591DE3C19B)	-0.965	-1.299	0.305	4.700	-36.194	10.986	-78.16	-19.63	-21.92	-51.450	-50.470	94.864	-0.74777	0.65756	-0.06223	0.06696	30.8	13111	100
2025-3-27 18:45:31.390	WT901BLE68-01(48591DE3C19B)	-0.922	-1.299	0.305	4.700	-36.194	10.986	-78.33	-19.26	-21.36	-51.450	-50.470	94.864	-0.74777	0.65756	-0.06223	0.06696	30.8	13111	100
2025-3-27 18:45:31.390	WT901BLE68-01(48591DE3C19B)	-0.922	-1.319	0.344	-1.465	-24.902	50.781	-78.53	-18.48	-20.84	-51.450	-50.470	94.864	-0.74777	0.65756	-0.06223	0.06696	30.8	13111	100
2025-3-27 18:45:31.390	WT901BLE68-01(48591DE3C19B)	-0.987	-1.319	0.344	-1.465	-24.902	50.781	-78.73	-17.70	-20.34	-51.450	-50.470	94.864	-0.74777	0.65756	-0.06223	0.06696	30.8	13111	100
2025-3-27 18:45:31.390	WT901BLE68-01(48591DE3C19B)	-0.987	-1.243	0.303	-6.470	-20.630	87.952	-78.96	-16.57	-19.81	-51.450	-50.470	94.864	-0.74777	0.65756	-0.06223	0.06696	30.8	13111	100
2025-3-27 18:45:31.420	WT901BLE68-01(48591DE3C19B)	-0.953	-1.243	0.303	-6.470	-20.630	87.952	-79.19	-15.43	-19.29	-51.450	-50.470	94.864	-0.74777	0.65756	-0.06223	0.06696	30.8	13111	100
2025-3-27 18:45:31.420	WT901BLE68-01(48591DE3C19B)	-0.953	-1.141	0.221	-13.672	-34.790	122.925	-79.52	-13.98	-18.58	-51.450	-50.470	94.864	-0.74777	0.65756	-0.06223	0.06696	30.8	13111	100
2025-3-27 18:45:31.420	WT901BLE68-01(48591DE3C19B)	-0.955	-1.141	0.221	-13.672	-34.790	122.925	-79.84	-12.54	-17.88	-51.450	-50.470	94.864	-0.74777	0.65756	-0.06223	0.06696	30.8	13111	100
2025-3-27 18:45:31.420	WT901BLE68-01(48591DE3C19B)	-0.955	-1.151	0.135	-21.240	-59.753	158.386	-80.27	-10.79	-16.89	-51.450	-50.470	94.864	-0.74777	0.65756	-0.06223	0.06696	30.8	13111	100
2025-3-27 18:45:31.487	WT901BLE68-01(48591DE3C19B)	-0.910	-1.151	0.135	-21.240	-59.753	158.386	-80.67	-9.04	-15.92	-51.450	-50.470	94.864	-0.74777	0.65756	-0.06223	0.06696	30.8	13111	100
2025-3-27 18:45:31.487	WT901BLE68-01(48591DE3C19B)	-0.910	-1.297	0.094	-25.330	-97.961	193.481	-81.13	-7.02	-14.55	-51.450	-50.470	94.864	-0.74777	0.65756	-0.06223	0.06696	30.8	13111	100
2025-3-27 18:45:31.487	WT901BLE68-01(48591DE3C19B)	-0.790	-1.297	0.094	-25.330	-97.961	193.481	-81.55	-5.00	-13.19	-51.450	-50.470	94.864	-0.74777	0.65756	-0.06223	0.06696	30.8	13111	100
2025-3-27 18:45:31.487	WT901BLE68-01(48591DE3C19B)	-0.790	-1.425	0.061	-18.799	-138.306	226.135	-81.86	-2.72	-11.44	-51.450	-50.470	94.864	-0.74777	0.65756	-0.06223	0.06696	30.8	13111	100
2025-3-27 18:45:31.512	WT901BLE68-01(48591DE3C19B)	-0.641	-1.425	0.061	-18.799	-138.306	226.135	-82.12	-0.45	-9.70	-51.450	-50.470	94.864	-0.74777	0.65756	-0.06223	0.06696	30.8	13111	100
2025-3-27 18:45:31.512	WT901BLE68-01(48591DE3C19B)	-0.641	-1.518	0.030	-10.437	-166.626	251.221	-82.21	2.01	-7.68	-51.450	-50.470	94.864	-0.74777	0.65756	-0.06223	0.06696	30.8	13111	100
2025-3-27 18:45:31.512	WT901BLE68-01(48591DE3C19B)	-0.549	-1.518	0.030	-10.437	-166.626	251.221	-82.21	4.45	-5.67	-51.450	-50.470	94.864	-0.74777	0.65756	-0.06223	0.06696	30.8	13111	100
2025-3-27 18:45:31.513	WT901BLE68-01(48591DE3C19B)	-0.549	-1.688	0.001	-1.038	-180.481	265.808	-82.01	6.99	-3.52	-51.450	-50.470	94.864	-0.74777	0.65756	-0.06223	0.06696	30.8	13111	100
2025-3-27 18:45:31.542	WT901BLE68-01(48591DE3C19B)	-0.513	-1.688	0.001	-1.038	-180.481	265.808	-81.72	9.50	-1.36	-51.450	-50.470	94.864	-0.75424	0.65115	-0.07040	-0.04520	30.8	13111	100
2025-3-27 18:45:31.543	WT901BLE68-01(48591DE3C19B)	-0.513	-1.853	0.012	12.756	-184.509	270.386	-81.18	12.01	0.85	-51.450	-50.470	94.864	-0.75424	0.65115	-0.07040	-0.04520	30.8	13111	100
2025-3-27 18:45:31.543	WT901BLE68-01(48591DE3C19B)	-0.479	-1.853	0.012	12.756	-184.509	270.386	-80.55	14.47	3.09	-51.450	-50.470	94.864	-0.75424	0.65115	-0.07040	-0.04520	30.8	13111	100
2025-3-27 18:45:31.543	WT901BLE68-01(48591DE3C19B)	-0.479	-1.946	0.021	29.785	-185.669	269.287	-79.64	16.87	5.38	-51.450	-50.470	94.864	-0.75424	0.65115	-0.07040	-0.04520	30.8	13111	100
2025-3-27 18:45:31.571	WT901BLE68-01(48591DE3C19B)	-0.412	-1.946	0.021	29.785	-185.669	269.287	-78.62	19.20	7.72	-51.450	-50.470	94.864	-0.75424	0.65115	-0.07040	-0.04520	30.8	13111	100
2025-3-27 18:45:31.571	WT901BLE68-01(48591DE3C19B)	-0.318	-1.910	0.030	47.791	-187.500	266.174	-77.31	21.45	10.13	-51.450	-50.470	94.864	-0.75424	0.65115	-0.07040	-0.04520	30.8	13111	100
2025-3-27 18:45:31.571	WT901BLE68-01(48591DE3C19B)	-0.318	-1.865	0.043	61.523	-181.335	263.184	-75.83	23.60	12.57	-51.450	-50.470	94.864	-0.75424	0.65115	-0.07040	-0.04520	30.8	13111	100
2025-3-27 18:45:31.571	WT901BLE68-01(48591DE3C19B)	-0.167	-1.865	0.043	61.523	-181.335	263.184	-74.18	25.66	15.07	-51.450	-50.470	94.864	-0.75424	0.65115	-0.07040	-0.04520	30.8	13111	100
2025-3-27 18:45:31.631	WT901BLE68-01(48591DE3C19B)	-0.167	-1.770	-0.011	82.092	-148.682	260.193	-72.39	27.67	17.47	-51.450	-50.470	94.864	-0.75424	0.65115	-0.07040	-0.04520	30.8	13111	100
2025-3-27 18:45:31.631	WT901BLE68-01(48591DE3C19B)	-0.073	-1.770	-0.011	82.092	-148.682	260.193	-70.48	29.64	19.79	-51.450	-50.470	94.864	-0.75424	0.65115	-0.07040	-0.04520	30.8	13111	100
2025-3-27 18:45:31.631	WT901BLE68-01(48591DE3C19B)	-0.073	-1.476	-0.010	95.703	-94.849	263.000	-68.52	31.61	21.91	-51.450	-50.470	94.864	-0.75424	0.65115	-0.07040	-0.04520	30.8	13111	100
2025-3-27 18:45:31.631	WT901BLE68-01(48591DE3C19B)	-0.022	-1.476	-0.010	95.703	-94.849	263.000	-66.53	33.63	23.86	-51.450	-50.470	94.864	-0.75424	0.65115	-0.07040	-0.04520	30.8	13111	100
2025-3-27 18:45:31.691	WT901BLE68-01(48591DE3C19B)	-0.022	-1.339	-0.030	93.323	-35.706	261.475	-64.63	35.68	25.59	-51.450	-50.470	94.864	-0.75424	0.65115	-0.07040	-0.04520	30.8	13111	100
2025-3-27 18:45:31.691	WT901BLE68-01(48591DE3C19B)	0.074	-1.339	-0.030	93.323	-35.706	261.475	-62.81	37.80	27.09	-51.450	-50.470	94.864	-0.75424	0.65115	-0.07040	-0.04520	30.8	13111	100
2025-3-27 18:45:31.691	WT901BLE68-01(48591DE3C19B)	0.074	-1.345	-0.050	87.097	19.165	254.883	-61.13	39.96	28.36	-51.450	-50.470	94.864	-0.75424	0.65115	-0.07040	-0.04520	30.8	13111	100
2025-3-27 18:45:31.691	WT901BLE68-01(48591DE3C19B)	0.117	-1.345	-0.050	87.097	19.165	254.883	-59.60	42.18	29.40	-51.450	-50.470	94.864	-0.75424	0.65115	-0.07040	-0.04520	30.8	13111	100
2025-3-27 18:45:31.693	WT901BLE68-01(48591DE3C19B)	0.117	-1.382	-0.099	75.256	58.716	244.812	-58.21	44.42	30.28	-51.450	-50.470	94.864	-0.75424	0.65115	-0.07040	-0.04520	30.8	13111	100
2025-3-27 18:45:31.693	WT901BLE68-01(48591DE3C19B)	0.182	-1.382	-0.099	75.256	58.716	244.812	-56.99	46.70	30.97	-51.450	-50.470	94.864	-0.75424	0.65115	-0.07040	-0.04520	30.8	13111	100
2025-3-27 18:45:31.693	WT901BLE68-01(48591DE3C19B)	0.182	-1.439	-0.177	56.641	72.266	223.328	-55.90	48.90	31.56	-51.450	-50.470	94.864	-0.75424	0.65115	-0.07040	-0.04520	30.8	13111	100
2025-3-27 18:45:31.693	WT901BLE68-01(48591DE3C19B)	0.248	-1.439	-0.177	56.641	72.266	223.328	-54.98	51.03	32.05	-51.450	-50.470	94.864	-0.75424	0.65115	-0.07040	-0.04520	30.8	13111	100
2025-3-27 18:45:31.751	WT901BLE68-01(48591DE3C19B)	0.248	-1.505	-0.253	33.813	63.904	190.918	-54.20	52.98	32.49	-51.450	-50.470	94.864	-0.75424	0.65115	-0.07040	-0.04520	30.8	13111	100
2025-3-27 18:45:31.752	WT901BLE68-01(48591DE3C19B)	0.198	-1.505	-0.253	33.813	63.904	190.918	-53.56	54.77	32.88	-52.920	-46.844	81.732	-0.75424	0.65115	-0.07040	-0.04520	30.8	13111	100
2025-3-27 18:45:31.752	WT901BLE68-01(48591DE3C19B)	0.198	-1.587	-0.218	12.939	46.875	147.034	-53.09	56.32	33.18	-52.920	-46.844	81.732	-0.75424	0.65115	-0.07040	-0.04520	30.8	13111	100
2025-3-27 18:45:31.752	WT901BLE68-01(48591DE3C19B)	0.198	-1.587	-0.218	12.939	46.875	147.034	-52.79	57.63	33.38	-52.920	-46.844	81.732	-0.75424	0.65115	-0.07040	-0.04520	30.8	13111	100
2025-3-27 18:45:31.780	WT901BLE68-01(48591DE3C19B)	0.198	-1.628	-0.124	3.723	29.114	90.881	-52.70	58.66	33.40	-52.920	-46.844	81.732	-0.75424	0.65115	-0.07040	-0.04520	30.8	13111	100
2025-3-27 18:45:31.780	WT901BLE68-01(48591DE3C19B)	0.261	-1.628	-0.124	3.723	29.114	90.881	-52.82	59.41	33.22	-52.920	-46.844	81.732	-0.75424	0.65115	-0.07040	-0.04520	30.8	13111	100
2025-3-27 18:45:31.780	WT901BLE68-01(48591DE3C19B)	0.261	-1.592	-0.064	-0.610	25.513	32.410	-53.26	59.91	32.70	-52.920	-46.844	81.732	-0.75424	0.65115	-0.07040	-0.04520	30.8	13111	100
2025-3-27 18:45:31.780	WT901BLE68-01(48591DE3C19B)	0.318	-1.592	-0.064	-0.610	25.513	32.410	-54.00	60.16	31.83	-52.920	-46.844	81.732	-0.75424	0.65115	-0.07040	-0.04520	30.8	13111	100
2025-3-27 18:45:31.841	WT901BLE68-01(48591DE3C19B)	0.318	-1.502	-0.056	-3.662	39.307	-16.907	-55.12	60.24	30.56	-52.920	-46.844	81.732	-0.75424	0.65115	-0.07040	-0.04520	30.8	13111	100
2025-3-27 18:45:31.841	WT901BLE68-01(48591DE3C19B)	0.303	-1.502	-0.056	-3.662	39.307	-16.907	-56.60	60.14	28.88	-52.920	-46.844	81.732	-0.75424	0.65115	-0.07040	-0.04520	30.8	13111	100
2025-3-27 18:45:31.841	WT901BLE68-01(48591DE3C19B)	0.303	-1.398	-0.014	-8.179	50.659	-59.021	-58.36	59.87	26.90	-52.920	-46.844	81.732	-0.75424	0.65115	-0.07040	-0.04520	30.8	13111	100
2025-3-27 18:45:31.841	WT901BLE68-01(48591DE3C19B)	0.211	-1.398	-0.014	-8.179	50.659	-59.021	-60.37	59.41	24.65	-52.920	-46.844	81.732	-0.75424	0.65115	-0.07040	-0.04520	30.8	13111	100
2025-3-27 18:45:31.901	WT901BLE68-01(48591DE3C19B)	0.211	-1.353	0.035	-12.390	58.167	-96.802	-62.52	58.77	22.24	-52.920	-46.844	81.732	-0.75424	0.65115	-0.07040	-0.04520	30.8	13111	100
2025-3-27 18:45:31.901	WT901BLE68-01(48591DE3C19B)	0.071	-1.353	0.035	-12.390	58.167	-96.802	-64.78	57.93	19.71	-52.920	-46.844	81.732	-0.75424	0.65115	-0.07040	-0.04520	30.8	13111	100
2025-3-27 18:45:31.901	WT901BLE68-01(48591DE3C19B)	0.071	-1.247	0.068	-13.367	56.702	-132.263	-67.01	56.88	17.20	-52.920	-46.844	81.732	-0.75424	0.65115	-0.07040	-0.04520	30.8	13111	100
2025-3-27 18:45:31.901	WT901BLE68-01(48591DE3C19B)	-0.010	-1.247	0.068	-13.367	56.702	-132.263	-69.15	55.61	14.74	-52.920	-46.844	81.732	-0.75424	0.65115	-0.07040	-0.04520	30.8	13111	100
2025-3-27 18:45:31.903	WT901BLE68-01(48591DE3C19B)	-0.010	-1.183	0.128	-17.883	50.598	-164.673	-71.19	54.15	12.41	-52.920	-46.844	81.732	-0.75424	0.65115	-0.07040	-0.04520	30.8	13111	100
2025-3-27 18:45:31.903	WT901BLE68-01(48591DE3C19B)	-0.052	-1.183	0.128	-17.883	50.598	-164.673	-73.08	52.48	10.23	-52.920	-46.844	81.732	-0.75424	0.65115	-0.07040	-0.04520	30.8	13111	100
2025-3-27 18:45:31.903	WT901BLE68-01(48591DE3C19B)	-0.052	-1.213	0.170	-18.738	58.838	-194.092	-74.89	50.65	8.11	-52.920	-46.844	81.732	-0.75424	0.65115	-0.07040	-0.04520	30.8	13111	100
2025-3-27 18:45:31.903	WT901BLE68-01(48591DE3C19B)	-0.097	-1.213	0.170	-18.738	58.838	-194.092	-76.60	48.66	6.06	-52.920	-46.844	81.732	-0.70050	0.58102	-0.29300	-0.29279	30.8	13111	100
2025-3-27 18:45:31.961	WT901BLE68-01(48591DE3C19B)	-0.097	-1.248	0.189	-16.418	73.242	-220.398	-78.23	46.53	4.04	-52.920	-46.844	81.732	-0.70050	0.58102	-0.29300	-0.29279	30.8	13111	100
2025-3-27 18:45:31.961	WT901BLE68-01(48591DE3C19B)	-0.129	-1.248	0.189	-16.418	73.242	-220.398	-79.76	44.27	2.05	-52.920	-46.844	81.732	-0.70050	0.58102	-0.29300	-0.29279	30.8	13111	100
2025-3-27 18:45:31.961	WT901BLE68-01(48591DE3C19B)	-0.129	-1.282	0.165	-14.893	85.327	-245.850	-81.18	41.87	0.13	-52.920	-46.844	81.732	-0.70050	0.58102	-0.29300	-0.29279	30.8	13111	100
2025-3-27 18:45:31.961	WT901BLE68-01(48591DE3C19B)	-0.126	-1.282	0.165	-14.893	85.327	-245.850	-82.49	39.34	-1.73	-52.920	-46.844	81.732	-0.70050	0.58102	-0.29300	-0.29279	30.8	13111	100
2025-3-27 18:45:31.990	WT901BLE68-01(48591DE3C19B)	-0.126	-1.322	0.146	-10.071	102.600	-268.555	-83.70	36.69	-3.57	-52.920	-46.844	81.732	-0.70050	0.58102	-0.29300	-0.29279	30.8	13111	100
2025-3-27 18:45:31.990	WT901BLE68-01(48591DE3C19B)	-0.194	-1.322	0.146	-10.071	102.600	-268.555	-84.80	33.93	-5.39	-52.920	-46.844	81.732	-0.70050	0.58102	-0.29300	-0.29279	30.8	13111	100
2025-3-27 18:45:31.990	WT901BLE68-01(48591DE3C19B)	-0.194	-1.358	0.157	-4.639	121.460	-288.879	-85.80	31.06	-7.21	-52.920	-46.844	81.732	-0.70050	0.58102	-0.29300	-0.29279	30.8	13111	100
2025-3-27 18:45:31.990	WT901BLE68-01(48591DE3C19B)	-0.309	-1.358	0.157	-4.639	121.460	-288.879	-86.68	28.10	-9.01	-52.920	-46.844	81.732	-0.70050	0.58102	-0.29300	-0.29279	30.8	13111	100
2025-3-27 18:45:32.21	WT901BLE68-01(48591DE3C19B)	-0.309	-1.412	0.194	3.601	138.245	-304.321	-87.44	25.07	-10.81	-52.920	-46.844	81.732	-0.70050	0.58102	-0.29300	-0.29279	30.8	13111	100
2025-3-27 18:45:32.21	WT901BLE68-01(48591DE3C19B)	-0.470	-1.412	0.194	3.601	138.245	-304.321	-88.07	21.96	-12.61	-52.920	-46.844	81.732	-0.70050	0.58102	-0.29300	-0.29279	30.8	13111	100
2025-3-27 18:45:32.21	WT901BLE68-01(48591DE3C19B)	-0.470	-1.445	0.221	16.846	141.724	-313.477	-88.52	18.83	-14.34	-52.920	-46.844	81.732	-0.70050	0.58102	-0.29300	-0.29279	30.8	13111	100
2025-3-27 18:45:32.21	WT901BLE68-01(48591DE3C19B)	-0.588	-1.445	0.221	16.846	141.724	-313.477	-88.80	15.66	-16.02	-52.920	-46.844	81.732	-0.70050	0.58102	-0.29300	-0.29279	30.8	13111	100
2025-3-27 18:45:32.82	WT901BLE68-01(48591DE3C19B)	-0.588	-1.419	0.218	31.982	126.282	-316.833	-88.88	12.49	-17.57	-52.920	-46.844	81.732	-0.70050	0.58102	-0.29300	-0.29279	30.8	13111	100
2025-3-27 18:45:32.82	WT901BLE68-01(48591DE3C19B)	-0.655	-1.419	0.218	31.982	126.282	-316.833	-88.79	9.33	-19.02	-52.920	-46.844	81.732	-0.70050	0.58102	-0.29300	-0.29279	30.8	13111	100
2025-3-27 18:45:32.82	WT901BLE68-01(48591DE3C19B)	-0.655	-1.377	0.191	45.654	96.619	-313.538	-88.45	6.24	-20.15	-52.920	-46.844	81.732	-0.70050	0.58102	-0.29300	-0.29279	30.8	13111	100
2025-3-27 18:45:32.82	WT901BLE68-01(48591DE3C19B)	-0.674	-1.377	0.191	45.654	96.619	-313.538	-88.04	3.18	-21.29	-52.920	-46.844	81.732	-0.70050	0.58102	-0.29300	-0.29279	30.8	13111	100
2025-3-27 18:45:32.141	WT901BLE68-01(48591DE3C19B)	-0.674	-1.371	0.138	54.199	66.101	-302.734	-87.50	0.25	-22.12	-52.920	-46.844	81.732	-0.70050	0.58102	-0.29300	-0.29279	30.8	13111	100
2025-3-27 18:45:32.142	WT901BLE68-01(48591DE3C19B)	-0.700	-1.371	0.138	54.199	66.101	-302.734	-86.91	-2.63	-22.97	-52.920	-46.844	81.732	-0.70050	0.58102	-0.29300	-0.29279	30.8	13111	100
2025-3-27 18:45:32.142	WT901BLE68-01(48591DE3C19B)	-0.700	-1.354	0.102	59.387	39.612	-284.851	-86.26	-5.33	-23.57	-52.920	-46.844	81.732	-0.70050	0.58102	-0.29300	-0.29279	30.8	13111	100
2025-3-27 18:45:32.142	WT901BLE68-01(48591DE3C19B)	-0.694	-1.354	0.102	59.387	39.612	-284.851	-85.58	-8.00	-24.19	-56.742	-49.294	79.968	-0.70050	0.58102	-0.29300	-0.29279	30.8	13111	100
2025-3-27 18:45:32.143	WT901BLE68-01(48591DE3C19B)	-0.694	-1.304	0.101	62.134	26.978	-261.841	-84.87	-10.42	-24.69	-56.742	-49.294	79.968	-0.70050	0.58102	-0.29300	-0.29279	30.8	13111	100
2025-3-27 18:45:32.143	WT901BLE68-01(48591DE3C19B)	-0.694	-1.304	0.101	62.134	26.978	-261.841	-84.14	-12.81	-25.21	-56.742	-49.294	79.968	-0.70050	0.58102	-0.29300	-0.29279	30.8	13111	100
2025-3-27 18:45:32.143	WT901BLE68-01(48591DE3C19B)	-0.694	-1.271	0.147	61.340	25.818	-233.459	-83.41	-14.90	-25.72	-56.742	-49.294	79.968	-0.70050	0.58102	-0.29300	-0.29279	30.8	13111	100
2025-3-27 18:45:32.143	WT901BLE68-01(48591DE3C19B)	-0.715	-1.271	0.147	61.340	25.818	-233.459	-82.66	-16.96	-26.26	-56.742	-49.294	79.968	-0.70050	0.58102	-0.29300	-0.29279	30.8	13111	100
2025-3-27 18:45:32.207	WT901BLE68-01(48591DE3C19B)	-0.715	-1.264	0.203	56.335	34.790	-198.853	-81.92	-18.65	-26.87	-56.742	-49.294	79.968	-0.70050	0.58102	-0.29300	-0.29279	30.8	13111	100
2025-3-27 18:45:32.207	WT901BLE68-01(48591DE3C19B)	-0.755	-1.264	0.203	56.335	34.790	-198.853	-81.16	-20.32	-27.50	-56.742	-49.294	79.968	-0.70050	0.58102	-0.29300	-0.29279	30.8	13111	100
2025-3-27 18:45:32.207	WT901BLE68-01(48591DE3C19B)	-0.755	-1.311	0.177	48.096	53.101	-162.720	-80.41	-21.58	-28.28	-56.742	-49.294	79.968	-0.70050	0.58102	-0.29300	-0.29279	30.8	13111	100
2025-3-27 18:45:32.207	WT901BLE68-01(48591DE3C19B)	-0.936	-1.311	0.177	48.096	53.101	-162.720	-79.65	-22.82	-29.08	-56.742	-49.294	79.968	-0.70050	0.58102	-0.29300	-0.29279	30.8	13111	100
2025-3-27 18:45:32.321	WT901BLE68-01(48591DE3C19B)	-0.936	-1.363	0.143	39.734	65.613	-127.014	-78.93	-23.67	-29.95	-56.742	-49.294	79.968	-0.70050	0.58102	-0.29300	-0.29279	30.8	13111	100
2025-3-27 18:45:32.321	WT901BLE68-01(48591DE3C19B)	-1.120	-1.363	0.143	39.734	65.613	-127.014	-78.20	-24.50	-30.84	-56.742	-49.294	79.968	-0.70050	0.58102	-0.29300	-0.29279	30.8	13111	100
2025-3-27 18:45:32.322	WT901BLE68-01(48591DE3C19B)	-1.120	-1.371	0.121	30.334	54.199	-91.431	-77.64	-24.98	-31.52	-56.742	-49.294	79.968	-0.70050	0.58102	-0.29300	-0.29279	30.8	13111	100
2025-3-27 18:45:32.322	WT901BLE68-01(48591DE3C19B)	-1.167	-1.371	0.121	30.334	54.199	-91.431	-77.09	-25.46	-32.20	-56.742	-49.294	79.968	-0.70050	0.58102	-0.29300	-0.29279	30.8	13111	100
2025-3-27 18:45:32.322	WT901BLE68-01(48591DE3C19B)	-1.167	-1.334	0.130	16.785	24.841	-53.955	-76.84	-25.61	-32.47	-56.742	-49.294	79.968	-0.70050	0.58102	-0.29300	-0.29279	30.8	13111	100
2025-3-27 18:45:32.322	WT901BLE68-01(48591DE3C19B)	-1.070	-1.334	0.130	16.785	24.841	-53.955	-76.61	-25.76	-32.73	-56.742	-49.294	79.968	-0.70050	0.58102	-0.29300	-0.29279	30.8	13111	100
2025-3-27 18:45:32.322	WT901BLE68-01(48591DE3C19B)	-1.070	-1.272	0.156	2.319	9.521	-11.841	-76.64	-25.54	-32.71	-56.742	-49.294	79.968	-0.70050	0.58102	-0.29300	-0.29279	30.8	13111	100
2025-3-27 18:45:32.322	WT901BLE68-01(48591DE3C19B)	-0.933	-1.272	0.156	2.319	9.521	-11.841	-76.66	-25.31	-32.69	-56.742	-49.294	79.968	-0.70050	0.58102	-0.29300	-0.29279	30.8	13111	100
2025-3-27 18:45:32.323	WT901BLE68-01(48591DE3C19B)	-0.933	-1.150	0.183	-12.451	16.113	32.166	-76.86	-24.64	-32.62	-56.742	-49.294	79.968	-0.70050	0.58102	-0.29300	-0.29279	30.8	13111	100
2025-3-27 18:45:32.323	WT901BLE68-01(48591DE3C19B)	-0.828	-1.150	0.183	-12.451	16.113	32.166	-77.05	-23.97	-32.56	-56.742	-49.294	79.968	-0.70050	0.58102	-0.29300	-0.29279	30.8	13111	100
2025-3-27 18:45:32.323	WT901BLE68-01(48591DE3C19B)	-0.828	-1.007	0.202	-27.710	29.968	72.388	-77.37	-22.87	-32.56	-56.742	-49.294	79.968	-0.70050	0.58102	-0.29300	-0.29279	30.8	13111	100
2025-3-27 18:45:32.323	WT901BLE68-01(48591DE3C19B)	-0.867	-1.007	0.202	-27.710	29.968	72.388	-77.69	-21.79	-32.55	-56.742	-49.294	79.968	-0.70050	0.58102	-0.29300	-0.29279	30.8	13111	100
2025-3-27 18:45:32.350	WT901BLE68-01(48591DE3C19B)	-0.867	-0.861	0.209	-38.940	28.137	102.966	-78.15	-20.41	-32.46	-56.742	-49.294	79.968	-0.70050	0.58102	-0.29300	-0.29279	30.8	13111	100
2025-3-27 18:45:32.350	WT901BLE68-01(48591DE3C19B)	-0.883	-0.861	0.209	-38.940	28.137	102.966	-78.60	-19.03	-32.39	-56.742	-49.294	79.968	-0.70050	0.58102	-0.29300	-0.29279	30.8	13111	100
2025-3-27 18:45:32.350	WT901BLE68-01(48591DE3C19B)	-0.883	-0.730	0.192	-45.898	3.296	129.028	-79.21	-17.45	-32.01	-56.742	-49.294	79.968	-0.70050	0.58102	-0.29300	-0.29279	30.8	13111	100
2025-3-27 18:45:32.351	WT901BLE68-01(48591DE3C19B)	-0.834	-0.730	0.192	-45.898	3.296	129.028	-79.80	-15.86	-31.65	-56.742	-49.294	79.968	-0.70770	0.64169	-0.07629	0.28540	30.8	13111	100
2025-3-27 18:45:32.380	WT901BLE68-01(48591DE3C19B)	-0.834	-0.710	0.140	-53.162	-27.039	156.067	-80.55	-14.07	-30.96	-56.742	-49.294	79.968	-0.70770	0.64169	-0.07629	0.28540	30.8	13111	100
2025-3-27 18:45:32.380	WT901BLE68-01(48591DE3C19B)	-0.830	-0.710	0.140	-53.162	-27.039	156.067	-81.27	-12.27	-30.29	-56.742	-49.294	79.968	-0.70770	0.64169	-0.07629	0.28540	30.8	13111	100
2025-3-27 18:45:32.380	WT901BLE68-01(48591DE3C19B)	-0.830	-0.854	0.090	-58.289	-58.472	180.481	-82.07	-10.28	-29.30	-56.742	-49.294	79.968	-0.70770	0.64169	-0.07629	0.28540	30.8	13111	100
2025-3-27 18:45:32.380	WT901BLE68-01(48591DE3C19B)	-0.803	-0.854	0.090	-58.289	-58.472	180.481	-82.84	-8.28	-28.34	-56.742	-49.294	79.968	-0.70770	0.64169	-0.07629	0.28540	30.8	13111	100
2025-3-27 18:45:32.440	WT901BLE68-01(48591DE3C19B)	-0.803	-1.040	0.070	-56.213	-94.666	200.684	-83.59	-6.13	-27.04	-56.742	-49.294	79.968	-0.70770	0.64169	-0.07629	0.28540	30.8	13111	100
2025-3-27 18:45:32.440	WT901BLE68-01(48591DE3C19B)	-0.714	-1.040	0.070	-56.213	-94.666	200.684	-84.29	-3.98	-25.77	-56.742	-49.294	79.968	-0.70770	0.64169	-0.07629	0.28540	30.8	13111	100
2025-3-27 18:45:32.441	WT901BLE68-01(48591DE3C19B)	-0.714	-1.194	0.076	-46.509	-126.892	216.614	-84.85	-1.69	-24.21	-56.742	-49.294	79.968	-0.70770	0.64169	-0.07629	0.28540	30.8	13111	100
2025-3-27 18:45:32.441	WT901BLE68-01(48591DE3C19B)	-0.610	-1.194	0.076	-46.509	-126.892	216.614	-85.35	0.58	-22.69	-56.742	-49.294	79.968	-0.70770	0.64169	-0.07629	0.28540	30.8	13111	100
2025-3-27 18:45:32.470	WT901BLE68-01(48591DE3C19B)	-0.610	-1.308	0.053	-33.020	-147.949	228.699	-85.63	2.95	-20.97	-56.742	-49.294	79.968	-0.70770	0.64169	-0.07629	0.28540	30.8	13111	100
2025-3-27 18:45:32.470	WT901BLE68-01(48591DE3C19B)	-0.483	-1.308	0.053	-33.020	-147.949	228.699	-85.85	5.31	-19.28	-56.742	-49.294	79.968	-0.70770	0.64169	-0.07629	0.28540	30.8	13111	100
2025-3-27 18:45:32.470	WT901BLE68-01(48591DE3C19B)	-0.483	-1.368	0.017	-17.761	-153.931	236.877	-85.84	7.72	-17.53	-56.742	-49.294	79.968	-0.70770	0.64169	-0.07629	0.28540	30.8	13111	100
2025-3-27 18:45:32.470	WT901BLE68-01(48591DE3C19B)	-0.391	-1.368	0.017	-17.761	-153.931	236.877	-85.74	10.11	-15.79	-56.742	-49.294	79.968	-0.70770	0.64169	-0.07629	0.28540	30.8	13111	100
2025-3-27 18:45:32.506	WT901BLE68-01(48591DE3C19B)	-0.391	-1.414	0.035	-4.944	-145.630	243.530	-85.46	12.54	-14.13	-56.742	-49.294	79.968	-0.70770	0.64169	-0.07629	0.28540	30.8	13111	100
2025-3-27 18:45:32.506	WT901BLE68-01(48591DE3C19B)	-0.316	-1.414	0.035	-4.944	-145.630	243.530	-85.11	14.94	-12.46	-56.742	-49.294	79.968	-0.70770	0.64169	-0.07629	0.28540	30.8	13111	100
2025-3-27 18:45:32.506	WT901BLE68-01(48591DE3C19B)	-0.220	-1.458	0.036	7.019	-126.770	248.169	-84.61	17.36	-10.95	-56.742	-49.294	79.968	-0.70770	0.64169	-0.07629	0.28540	30.8	13111	100
2025-3-27 18:45:32.506	WT901BLE68-01(48591DE3C19B)	-0.220	-1.368	0.021	19.287	-100.708	252.441	-84.03	19.79	-9.56	-56.742	-49.294	79.968	-0.70770	0.64169	-0.07629	0.28540	30.8	13111	100
2025-3-27 18:45:32.561	WT901BLE68-01(48591DE3C19B)	-0.166	-1.368	0.021	19.287	-100.708	252.441	-83.36	22.20	-8.27	-56.742	-49.294	79.968	-0.70770	0.64169	-0.07629	0.28540	30.8	13111	100
2025-3-27 18:45:32.561	WT901BLE68-01(48591DE3C19B)	-0.166	-1.224	0.029	23.193	-69.153	256.531	-82.68	24.63	-7.11	-52.234	-44.100	72.226	-0.70770	0.64169	-0.07629	0.28540	30.8	13111	100
2025-3-27 18:45:32.561	WT901BLE68-01(48591DE3C19B)	-0.158	-1.224	0.029	23.193	-69.153	256.531	-81.99	27.05	-6.08	-52.234	-44.100	72.226	-0.70770	0.64169	-0.07629	0.28540	30.8	13111	100
2025-3-27 18:45:32.561	WT901BLE68-01(48591DE3C19B)	-0.158	-1.240	0.046	18.921	-38.574	257.874	-81.33	29.47	-5.17	-52.234	-44.100	72.226	-0.70770	0.64169	-0.07629	0.28540	30.8	13111	100
2025-3-27 18:45:32.590	WT901BLE68-01(48591DE3C19B)	-0.153	-1.240	0.046	18.921	-38.574	257.874	-80.73	31.89	-4.39	-52.234	-44.100	72.226	-0.70770	0.64169	-0.07629	0.28540	30.8	13111	100
2025-3-27 18:45:32.590	WT901BLE68-01(48591DE3C19B)	-0.153	-1.340	0.077	18.066	-12.451	258.667	-80.17	34.32	-3.74	-52.234	-44.100	72.226	-0.70770	0.64169	-0.07629	0.28540	30.8	13111	100
2025-3-27 18:45:32.590	WT901BLE68-01(48591DE3C19B)	-0.125	-1.340	0.077	18.066	-12.451	258.667	-79.66	36.74	-3.20	-52.234	-44.100	72.226	-0.70770	0.64169	-0.07629	0.28540	30.8	13111	100
2025-3-27 18:45:32.590	WT901BLE68-01(48591DE3C19B)	-0.125	-1.401	0.096	18.982	9.644	255.127	-79.19	39.13	-2.77	-52.234	-44.100	72.226	-0.70770	0.64169	-0.07629	0.28540	30.8	13111	100
2025-3-27 18:45:32.620	WT901BLE68-01(48591DE3C19B)	-0.137	-1.401	0.096	18.982	9.644	255.127	-78.77	41.52	-2.46	-52.234	-44.100	72.226	-0.70770	0.64169	-0.07629	0.28540	30.8	13111	100
2025-3-27 18:45:32.620	WT901BLE68-01(48591DE3C19B)	-0.137	-1.500	0.133	17.456	20.630	242.004	-78.39	43.82	-2.21	-52.234	-44.100	72.226	-0.70770	0.64169	-0.07629	0.28540	30.8	13111	100
2025-3-27 18:45:32.620	WT901BLE68-01(48591DE3C19B)	-0.145	-1.500	0.133	17.456	20.630	242.004	-78.05	46.06	-2.03	-52.234	-44.100	72.226	-0.70770	0.64169	-0.07629	0.28540	30.8	13111	100
2025-3-27 18:45:32.620	WT901BLE68-01(48591DE3C19B)	-0.145	-1.614	0.126	17.029	16.174	217.590	-77.70	48.15	-1.85	-52.234	-44.100	72.226	-0.70770	0.64169	-0.07629	0.28540	30.8	13111	100
2025-3-27 18:45:32.688	WT901BLE68-01(48591DE3C19B)	-0.146	-1.614	0.126	17.029	16.174	217.590	-77.33	50.11	-1.64	-52.234	-44.100	72.226	-0.70770	0.64169	-0.07629	0.28540	30.8	13111	100
2025-3-27 18:45:32.688	WT901BLE68-01(48591DE3C19B)	-0.146	-1.652	0.122	17.517	12.573	188.110	-76.95	51.90	-1.44	-52.234	-44.100	72.226	-0.70770	0.64169	-0.07629	0.28540	30.8	13111	100
2025-3-27 18:45:32.688	WT901BLE68-01(48591DE3C19B)	-0.196	-1.652	0.122	17.517	12.573	188.110	-76.57	53.53	-1.24	-52.234	-44.100	72.226	-0.70770	0.64169	-0.07629	0.28540	30.8	13111	100
2025-3-27 18:45:32.688	WT901BLE68-01(48591DE3C19B)	-0.196	-1.734	0.169	13.977	8.545	151.611	-76.22	54.97	-1.07	-52.234	-44.100	72.226	-0.70770	0.64169	-0.07629	0.28540	30.8	13111	100
2025-3-27 18:45:32.713	WT901BLE68-01(48591DE3C19B)	-0.174	-1.734	0.169	13.977	8.545	151.611	-75.90	56.22	-0.92	-52.234	-44.100	72.226	-0.70770	0.64169	-0.07629	0.28540	30.8	13111	100
2025-3-27 18:45:32.713	WT901BLE68-01(48591DE3C19B)	-0.174	-1.844	0.199	15.076	1.038	107.117	-75.58	57.23	-0.79	-52.234	-44.100	72.226	-0.70770	0.64169	-0.07629	0.28540	30.8	13111	100
2025-3-27 18:45:32.713	WT901BLE68-01(48591DE3C19B)	-0.083	-1.844	0.199	15.076	1.038	107.117	-75.28	58.01	-0.68	-52.234	-44.100	72.226	-0.70770	0.64169	-0.07629	0.28540	30.8	13111	100
2025-3-27 18:45:32.713	WT901BLE68-01(48591DE3C19B)	-0.083	-1.791	0.179	20.630	-2.380	63.293	-75.01	58.57	-0.65	-52.234	-44.100	72.226	-0.69354	0.52878	-0.39105	-0.29388	30.8	13111	100
2025-3-27 18:45:32.743	WT901BLE68-01(48591DE3C19B)	0.012	-1.791	0.179	20.630	-2.380	63.293	-74.77	58.91	-0.69	-52.234	-44.100	72.226	-0.69354	0.52878	-0.39105	-0.29388	30.8	13111	100
2025-3-27 18:45:32.743	WT901BLE68-01(48591DE3C19B)	0.012	-1.582	0.160	24.536	2.991	22.644	-74.65	59.06	-0.89	-52.234	-44.100	72.226	-0.69354	0.52878	-0.39105	-0.29388	30.8	13111	100
2025-3-27 18:45:32.743	WT901BLE68-01(48591DE3C19B)	0.074	-1.582	0.160	24.536	2.991	22.644	-74.65	59.01	-1.25	-52.234	-44.100	72.226	-0.69354	0.52878	-0.39105	-0.29388	30.8	13111	100
2025-3-27 18:45:32.743	WT901BLE68-01(48591DE3C19B)	0.074	-1.393	0.160	21.179	16.541	-14.771	-74.84	58.80	-1.83	-52.234	-44.100	72.226	-0.69354	0.52878	-0.39105	-0.29388	30.8	13111	100
2025-3-27 18:45:32.831	WT901BLE68-01(48591DE3C19B)	0.111	-1.393	0.160	21.179	16.541	-14.771	-75.25	58.42	-2.62	-52.234	-44.100	72.226	-0.69354	0.52878	-0.39105	-0.29388	30.8	13111	100
2025-3-27 18:45:32.832	WT901BLE68-01(48591DE3C19B)	0.111	-1.248	0.106	19.287	37.048	-47.913	-75.86	57.90	-3.66	-52.234	-44.100	72.226	-0.69354	0.52878	-0.39105	-0.29388	30.8	13111	100
2025-3-27 18:45:32.832	WT901BLE68-01(48591DE3C19B)	0.088	-1.248	0.106	19.287	37.048	-47.913	-76.67	57.24	-4.94	-52.234	-44.100	72.226	-0.69354	0.52878	-0.39105	-0.29388	30.8	13111	100
2025-3-27 18:45:32.832	WT901BLE68-01(48591DE3C19B)	0.088	-1.094	0.092	14.526	52.124	-74.829	-77.62	56.46	-6.35	-52.234	-44.100	72.226	-0.69354	0.52878	-0.39105	-0.29388	30.8	13111	100
2025-3-27 18:45:32.833	WT901BLE68-01(48591DE3C19B)	0.041	-1.094	0.092	14.526	52.124	-74.829	-78.69	55.55	-7.89	-52.234	-44.100	72.226	-0.69354	0.52878	-0.39105	-0.29388	30.8	13111	100
2025-3-27 18:45:32.833	WT901BLE68-01(48591DE3C19B)	0.041	-1.095	0.084	5.554	58.044	-98.938	-79.80	54.51	-9.44	-52.234	-44.100	72.226	-0.69354	0.52878	-0.39105	-0.29388	30.8	13111	100
2025-3-27 18:45:32.833	WT901BLE68-01(48591DE3C19B)	-0.018	-1.095	0.084	5.554	58.044	-98.938	-80.94	53.34	-10.99	-52.234	-44.100	72.226	-0.69354	0.52878	-0.39105	-0.29388	30.8	13111	100
2025-3-27 18:45:32.833	WT901BLE68-01(48591DE3C19B)	-0.018	-1.166	0.093	1.038	55.237	-121.155	-82.01	52.06	-12.46	-52.234	-44.100	72.226	-0.69354	0.52878	-0.39105	-0.29388	30.8	13111	100
2025-3-27 18:45:32.863	WT901BLE68-01(48591DE3C19B)	-0.099	-1.166	0.093	1.038	55.237	-121.155	-83.02	50.65	-13.85	-52.234	-44.100	72.226	-0.69354	0.52878	-0.39105	-0.29388	30.8	13111	100
2025-3-27 18:45:32.863	WT901BLE68-01(48591DE3C19B)	-0.099	-1.155	0.116	-1.587	43.640	-138.916	-83.90	49.14	-15.07	-52.234	-44.100	72.226	-0.69354	0.52878	-0.39105	-0.29388	30.8	13111	100
2025-3-27 18:45:32.863	WT901BLE68-01(48591DE3C19B)	-0.158	-1.155	0.116	-1.587	43.640	-138.916	-84.65	47.54	-16.15	-52.234	-44.100	72.226	-0.69354	0.52878	-0.39105	-0.29388	30.8	13111	100
2025-3-27 18:45:32.863	WT901BLE68-01(48591DE3C19B)	-0.158	-1.100	0.158	-6.470	24.353	-153.992	-85.27	45.86	-17.02	-52.234	-44.100	72.226	-0.69354	0.52878	-0.39105	-0.29388	30.8	13111	100
2025-3-27 18:45:32.921	WT901BLE68-01(48591DE3C19B)	-0.184	-1.100	0.158	-6.470	24.353	-153.992	-85.76	44.09	-17.72	-52.234	-44.100	72.226	-0.69354	0.52878	-0.39105	-0.29388	30.8	13111	100
2025-3-27 18:45:32.921	WT901BLE68-01(48591DE3C19B)	-0.184	-1.048	0.182	-11.597	6.226	-167.175	-86.15	42.27	-18.25	-52.234	-44.100	72.226	-0.69354	0.52878	-0.39105	-0.29388	30.8	13111	100
2025-3-27 18:45:32.921	WT901BLE68-01(48591DE3C19B)	-0.194	-1.048	0.182	-11.597	6.226	-167.175	-86.46	40.39	-18.63	-52.234	-44.100	72.226	-0.69354	0.52878	-0.39105	-0.29388	30.8	13111	100
2025-3-27 18:45:32.922	WT901BLE68-01(48591DE3C19B)	-0.194	-0.994	0.179	-15.076	-5.432	-178.955	-86.71	38.45	-18.92	-52.234	-44.100	72.226	-0.69354	0.52878	-0.39105	-0.29388	30.8	13111	100
2025-3-27 18:45:32.953	WT901BLE68-01(48591DE3C19B)	-0.181	-0.994	0.179	-15.076	-5.432	-178.955	-86.91	36.47	-19.12	-53.998	-44.492	64.974	-0.69354	0.52878	-0.39105	-0.29388	30.8	13111	100
2025-3-27 18:45:32.953	WT901BLE68-01(48591DE3C19B)	-0.181	-0.950	0.163	-18.127	-7.690	-191.284	-87.12	34.44	-19.29	-53.998	-44.492	64.974	-0.69354	0.52878	-0.39105	-0.29388	30.8	13111	100
2025-3-27 18:45:32.953	WT901BLE68-01(48591DE3C19B)	-0.165	-0.950	0.163	-18.127	-7.690	-191.284	-87.31	32.37	-19.43	-53.998	-44.492	64.974	-0.69354	0.52878	-0.39105	-0.29388	30.8	13111	100
2025-3-27 18:45:32.953	WT901BLE68-01(48591DE3C19B)	-0.165	-0.921	0.134	-19.165	-3.113	-204.163	-87.52	30.23	-19.59	-53.998	-44.492	64.974	-0.69354	0.52878	-0.39105	-0.29388	30.8	13111	100
2025-3-27 18:45:32.983	WT901BLE68-01(48591DE3C19B)	-0.173	-0.921	0.134	-19.165	-3.113	-204.163	-87.73	28.06	-19.77	-53.998	-44.492	64.974	-0.69354	0.52878	-0.39105	-0.29388	30.8	13111	100
2025-3-27 18:45:32.983	WT901BLE68-01(48591DE3C19B)	-0.173	-0.881	0.117	-19.348	2.380	-217.590	-87.96	25.76	-20.00	-53.998	-44.492	64.974	-0.69354	0.52878	-0.39105	-0.29388	30.8	13111	100
2025-3-27 18:45:32.983	WT901BLE68-01(48591DE3C19B)	-0.184	-0.881	0.117	-19.348	2.380	-217.590	-88.18	23.48	-20.21	-53.998	-44.492	64.974	-0.69354	0.52878	-0.39105	-0.29388	30.8	13111	100
2025-3-27 18:45:32.983	WT901BLE68-01(48591DE3C19B)	-0.184	-0.861	0.114	-19.592	9.155	-230.835	-88.42	21.09	-20.48	-53.998	-44.492	64.974	-0.69354	0.52878	-0.39105	-0.29388	30.8	13111	100
2025-3-27 18:45:33.71	WT901BLE68-01(48591DE3C19B)	-0.252	-0.861	0.114	-19.592	9.155	-230.835	-88.64	18.71	-20.74	-53.998	-44.492	64.974	-0.69354	0.52878	-0.39105	-0.29388	30.8	13111	100
2025-3-27 18:45:33.71	WT901BLE68-01(48591DE3C19B)	-0.252	-0.916	0.165	-19.470	17.334	-242.493	-88.88	16.24	-21.06	-53.998	-44.492	64.974	-0.69354	0.52878	-0.39105	-0.29388	30.8	13111	100
2025-3-27 18:45:33.71	WT901BLE68-01(48591DE3C19B)	-0.391	-0.916	0.165	-19.470	17.334	-242.493	-89.09	13.78	-21.37	-53.998	-44.492	64.974	-0.69354	0.52878	-0.39105	-0.29388	30.8	13111	100
2025-3-27 18:45:33.71	WT901BLE68-01(48591DE3C19B)	-0.391	-1.091	0.250	-15.503	23.193	-248.108	-89.26	11.28	-21.73	-53.998	-44.492	64.974	-0.69354	0.52878	-0.39105	-0.29388	30.8	13111	100
2025-3-27 18:45:33.72	WT901BLE68-01(48591DE3C19B)	-0.520	-1.091	0.250	-15.503	23.193	-248.108	-89.41	8.81	-22.06	-53.998	-44.492	64.974	-0.69354	0.52878	-0.39105	-0.29388	30.8	13111	100
2025-3-27 18:45:33.72	WT901BLE68-01(48591DE3C19B)	-0.520	-1.216	0.331	-2.808	28.198	-246.948	-89.43	6.37	-22.44	-53.998	-44.492	64.974	-0.69354	0.52878	-0.39105	-0.29388	30.8	13111	100
2025-3-27 18:45:33.72	WT901BLE68-01(48591DE3C19B)	-0.548	-1.216	0.331	-2.808	28.198	-246.948	-89.42	3.95	-22.81	-53.998	-44.492	64.974	-0.69354	0.52878	-0.39105	-0.29388	30.8	13111	100
2025-3-27 18:45:33.72	WT901BLE68-01(48591DE3C19B)	-0.548	-1.265	0.334	10.620	44.861	-239.075	-89.27	1.64	-23.33	-53.998	-44.492	64.974	-0.69354	0.52878	-0.39105	-0.29388	30.8	13111	100
2025-3-27 18:45:33.106	WT901BLE68-01(48591DE3C19B)	-0.556	-1.265	0.334	10.620	44.861	-239.075	-89.10	-0.65	-23.87	-53.998	-44.492	64.974	-0.69354	0.52878	-0.39105	-0.29388	30.8	13111	100
2025-3-27 18:45:33.106	WT901BLE68-01(48591DE3C19B)	-0.556	-1.253	0.232	17.761	59.509	-223.999	-88.84	-2.77	-24.54	-53.998	-44.492	64.974	-0.69354	0.52878	-0.39105	-0.29388	30.8	13111	100
2025-3-27 18:45:33.106	WT901BLE68-01(48591DE3C19B)	-0.667	-1.253	0.232	17.761	59.509	-223.999	-88.56	-4.87	-25.22	-53.998	-44.492	64.974	-0.69354	0.52878	-0.39105	-0.29388	30.8	13111	100
2025-3-27 18:45:33.107	WT901BLE68-01(48591DE3C19B)	-0.667	-1.275	0.175	23.926	60.913	-203.369	-88.19	-6.74	-25.92	-53.998	-44.492	64.974	-0.69354	0.52878	-0.39105	-0.29388	30.8	13111	100
2025-3-27 18:45:33.161	WT901BLE68-01(48591DE3C19B)	-0.792	-1.275	0.175	23.926	60.913	-203.369	-87.81	-8.59	-26.62	-53.998	-44.492	64.974	-0.69354	0.52878	-0.39105	-0.29388	30.8	13111	100
2025-3-27 18:45:33.161	WT901BLE68-01(48591DE3C19B)	-0.792	-1.387	0.236	27.222	59.326	-179.260	-87.38	-10.18	-27.30	-53.998	-44.492	64.974	-0.68536	0.68372	-0.10004	0.22952	30.8	13111	100
2025-3-27 18:45:33.161	WT901BLE68-01(48591DE3C19B)	-0.878	-1.387	0.236	27.222	59.326	-179.260	-86.93	-11.74	-27.99	-53.998	-44.492	64.974	-0.68536	0.68372	-0.10004	0.22952	30.8	13111	100
2025-3-27 18:45:33.162	WT901BLE68-01(48591DE3C19B)	-0.878	-1.488	0.330	39.368	68.176	-153.137	-86.34	-13.02	-28.77	-53.998	-44.492	64.974	-0.68536	0.68372	-0.10004	0.22952	30.8	13111	100
2025-3-27 18:45:33.190	WT901BLE68-01(48591DE3C19B)	-0.992	-1.488	0.330	39.368	68.176	-153.137	-85.72	-14.28	-29.56	-53.998	-44.492	64.974	-0.68536	0.68372	-0.10004	0.22952	30.8	13111	100
2025-3-27 18:45:33.190	WT901BLE68-01(48591DE3C19B)	-0.992	-1.536	0.387	44.800	85.754	-124.695	-85.00	-15.22	-30.51	-53.998	-44.492	64.974	-0.68536	0.68372	-0.10004	0.22952	30.8	13111	100
2025-3-27 18:45:33.190	WT901BLE68-01(48591DE3C19B)	-1.127	-1.536	0.387	44.800	85.754	-124.695	-84.26	-16.13	-31.48	-53.998	-44.492	64.974	-0.68536	0.68372	-0.10004	0.22952	30.8	13111	100
2025-3-27 18:45:33.190	WT901BLE68-01(48591DE3C19B)	-1.127	-1.556	0.367	42.542	102.173	-93.262	-83.50	-16.69	-32.59	-53.998	-44.492	64.974	-0.68536	0.68372	-0.10004	0.22952	30.8	13111	100
2025-3-27 18:45:33.223	WT901BLE68-01(48591DE3C19B)	-1.165	-1.556	0.367	42.542	102.173	-93.262	-82.72	-17.24	-33.70	-53.998	-44.492	64.974	-0.68536	0.68372	-0.10004	0.22952	30.8	13111	100
2025-3-27 18:45:33.223	WT901BLE68-01(48591DE3C19B)	-1.165	-1.458	0.285	37.170	116.089	-58.655	-81.98	-17.39	-34.90	-53.998	-44.492	64.974	-0.68536	0.68372	-0.10004	0.22952	30.8	13111	100
2025-3-27 18:45:33.223	WT901BLE68-01(48591DE3C19B)	-1.070	-1.458	0.285	37.170	116.089	-58.655	-81.24	-17.52	-36.11	-53.998	-44.492	64.974	-0.68536	0.68372	-0.10004	0.22952	30.8	13111	100
2025-3-27 18:45:33.223	WT901BLE68-01(48591DE3C19B)	-1.070	-1.234	0.172	26.184	124.329	-20.813	-80.61	-17.25	-37.32	-53.998	-44.492	64.974	-0.68536	0.68372	-0.10004	0.22952	30.8	13111	100
2025-3-27 18:45:33.280	WT901BLE68-01(48591DE3C19B)	-1.046	-1.234	0.172	26.184	124.329	-20.813	-80.00	-16.97	-38.52	-53.998	-44.492	64.974	-0.68536	0.68372	-0.10004	0.22952	30.8	13111	100
2025-3-27 18:45:33.280	WT901BLE68-01(48591DE3C19B)	-1.046	-1.032	0.091	10.010	119.690	15.991	-79.61	-16.31	-39.59	-53.998	-44.492	64.974	-0.68536	0.68372	-0.10004	0.22952	30.8	13111	100
2025-3-27 18:45:33.280	WT901BLE68-01(48591DE3C19B)	-1.128	-1.032	0.091	10.010	119.690	15.991	-79.24	-15.65	-40.65	-53.998	-44.492	64.974	-0.68536	0.68372	-0.10004	0.22952	30.8	13111	100
2025-3-27 18:45:33.280	WT901BLE68-01(48591DE3C19B)	-1.128	-0.848	0.043	-5.066	83.069	47.363	-79.16	-14.74	-41.25	-53.998	-44.492	64.974	-0.68536	0.68372	-0.10004	0.22952	30.8	13111	100
2025-3-27 18:45:33.311	WT901BLE68-01(48591DE3C19B)	-1.108	-0.848	0.043	-5.066	83.069	47.363	-79.10	-13.83	-41.85	-53.998	-44.492	64.974	-0.68536	0.68372	-0.10004	0.22952	30.8	13111	100
2025-3-27 18:45:33.311	WT901BLE68-01(48591DE3C19B)	-1.108	-0.733	0.003	-20.386	22.949	76.233	-79.37	-12.75	-41.77	-53.998	-44.492	64.974	-0.68536	0.68372	-0.10004	0.22952	30.8	13111	100
2025-3-27 18:45:33.311	WT901BLE68-01(48591DE3C19B)	-0.988	-0.733	0.003	-20.386	22.949	76.233	-79.64	-11.67	-41.69	-53.998	-44.492	64.974	-0.68536	0.68372	-0.10004	0.22952	30.8	13111	100
2025-3-27 18:45:33.311	WT901BLE68-01(48591DE3C19B)	-0.988	-0.695	-0.044	-34.302	-36.316	108.154	-80.18	-10.38	-40.96	-53.998	-44.492	64.974	-0.68536	0.68372	-0.10004	0.22952	30.8	13111	100
2025-3-27 18:45:33.371	WT901BLE68-01(48591DE3C19B)	-0.868	-0.695	-0.044	-34.302	-36.316	108.154	-80.71	-9.08	-40.24	-53.998	-44.492	64.974	-0.68536	0.68372	-0.10004	0.22952	30.8	13111	100
2025-3-27 18:45:33.371	WT901BLE68-01(48591DE3C19B)	-0.868	-0.707	-0.070	-43.823	-87.280	139.038	-81.39	-7.56	-38.99	-53.998	-44.492	64.974	-0.68536	0.68372	-0.10004	0.22952	30.8	13111	100
2025-3-27 18:45:33.371	WT901BLE68-01(48591DE3C19B)	-0.768	-0.707	-0.070	-43.823	-87.280	139.038	-82.03	-6.03	-37.77	-54.880	-30.674	69.580	-0.68536	0.68372	-0.10004	0.22952	30.8	13111	100
2025-3-27 18:45:33.371	WT901BLE68-01(48591DE3C19B)	-0.768	-0.791	-0.053	-47.485	-129.761	165.649	-82.73	-4.28	-36.11	-54.880	-30.674	69.580	-0.68536	0.68372	-0.10004	0.22952	30.8	13111	100
2025-3-27 18:45:33.407	WT901BLE68-01(48591DE3C19B)	-0.674	-0.791	-0.053	-47.485	-129.761	165.649	-83.36	-2.53	-34.48	-54.880	-30.674	69.580	-0.68536	0.68372	-0.10004	0.22952	30.8	13111	100
2025-3-27 18:45:33.407	WT901BLE68-01(48591DE3C19B)	-0.674	-0.921	0.000	-43.274	-155.884	186.768	-83.91	-0.59	-32.60	-54.880	-30.674	69.580	-0.68536	0.68372	-0.10004	0.22952	30.8	13111	100
2025-3-27 18:45:33.407	WT901BLE68-01(48591DE3C19B)	-0.618	-0.921	0.000	-43.274	-155.884	186.768	-84.39	1.35	-30.74	-54.880	-30.674	69.580	-0.68536	0.68372	-0.10004	0.22952	30.8	13111	100
2025-3-27 18:45:33.407	WT901BLE68-01(48591DE3C19B)	-0.618	-1.050	0.047	-31.555	-166.016	200.745	-84.68	3.41	-28.80	-54.880	-30.674	69.580	-0.68536	0.68372	-0.10004	0.22952	30.8	13111	100
2025-3-27 18:45:33.431	WT901BLE68-01(48591DE3C19B)	-0.557	-1.050	0.047	-31.555	-166.016	200.745	-84.89	5.47	-26.87	-54.880	-30.674	69.580	-0.68536	0.68372	-0.10004	0.22952	30.8	13111	100
2025-3-27 18:45:33.431	WT901BLE68-01(48591DE3C19B)	-0.501	-1.145	0.069	-17.212	-164.001	210.083	-84.89	7.61	-24.96	-54.880	-30.674	69.580	-0.68536	0.68372	-0.10004	0.22952	30.8	13111	100
2025-3-27 18:45:33.431	WT901BLE68-01(48591DE3C19B)	-0.501	-1.268	0.073	-3.967	-148.621	215.149	-84.76	9.76	-23.13	-54.880	-30.674	69.580	-0.68536	0.68372	-0.10004	0.22952	30.8	13111	100
2025-3-27 18:45:33.431	WT901BLE68-01(48591DE3C19B)	-0.445	-1.268	0.073	-3.967	-148.621	215.149	-84.50	11.91	-21.37	-54.880	-30.674	69.580	-0.68536	0.68372	-0.10004	0.22952	30.8	13111	100
2025-3-27 18:45:33.492	WT901BLE68-01(48591DE3C19B)	-0.445	-1.338	0.052	11.108	-121.826	218.689	-84.13	14.06	-19.74	-54.880	-30.674	69.580	-0.68536	0.68372	-0.10004	0.22952	30.8	13111	100
2025-3-27 18:45:33.493	WT901BLE68-01(48591DE3C19B)	-0.379	-1.338	0.052	11.108	-121.826	218.689	-83.65	16.20	-18.22	-54.880	-30.674	69.580	-0.68536	0.68372	-0.10004	0.22952	30.8	13111	100
2025-3-27 18:45:33.493	WT901BLE68-01(48591DE3C19B)	-0.379	-1.289	0.040	22.461	-89.783	222.717	-83.11	18.36	-16.84	-54.880	-30.674	69.580	-0.68536	0.68372	-0.10004	0.22952	30.8	13111	100
2025-3-27 18:45:33.493	WT901BLE68-01(48591DE3C19B)	-0.325	-1.289	0.040	22.461	-89.783	222.717	-82.49	20.52	-15.60	-54.880	-30.674	69.580	-0.68536	0.68372	-0.10004	0.22952	30.8	13111	100
2025-3-27 18:45:33.523	WT901BLE68-01(48591DE3C19B)	-0.325	-1.227	0.052	25.879	-59.998	227.844	-81.87	22.69	-14.48	-54.880	-30.674	69.580	-0.68536	0.68372	-0.10004	0.22952	30.8	13111	100
2025-3-27 18:45:33.523	WT901BLE68-01(48591DE3C19B)	-0.273	-1.227	0.052	25.879	-59.998	227.844	-81.23	24.87	-13.49	-54.880	-30.674	69.580	-0.68536	0.68372	-0.10004	0.22952	30.8	13111	100
2025-3-27 18:45:33.523	WT901BLE68-01(48591DE3C19B)	-0.273	-1.211	0.059	26.917	-35.156	233.459	-80.61	27.07	-12.58	-54.880	-30.674	69.580	-0.68536	0.68372	-0.10004	0.22952	30.8	13111	100
2025-3-27 18:45:33.523	WT901BLE68-01(48591DE3C19B)	-0.253	-1.211	0.059	26.917	-35.156	233.459	-79.99	29.29	-11.78	-54.880	-30.674	69.580	-0.75403	0.59509	-0.26154	-0.09363	30.8	13111	100
2025-3-27 18:45:33.553	WT901BLE68-01(48591DE3C19B)	-0.253	-1.166	0.076	25.757	-17.639	239.929	-79.37	31.53	-11.04	-54.880	-30.674	69.580	-0.75403	0.59509	-0.26154	-0.09363	30.8	13111	100
2025-3-27 18:45:33.553	WT901BLE68-01(48591DE3C19B)	-0.250	-1.166	0.076	25.757	-17.639	239.929	-78.77	33.79	-10.35	-54.880	-30.674	69.580	-0.75403	0.59509	-0.26154	-0.09363	30.8	13111	100
2025-3-27 18:45:33.553	WT901BLE68-01(48591DE3C19B)	-0.250	-1.238	0.073	17.761	-7.813	242.371	-78.20	36.05	-9.68	-54.880	-30.674	69.580	-0.75403	0.59509	-0.26154	-0.09363	30.8	13111	100
2025-3-27 18:45:33.553	WT901BLE68-01(48591DE3C19B)	-0.254	-1.238	0.073	17.761	-7.813	242.371	-77.65	38.30	-9.03	-54.880	-30.674	69.580	-0.75403	0.59509	-0.26154	-0.09363	30.8	13111	100
2025-3-27 18:45:33.611	WT901BLE68-01(48591DE3C19B)	-0.254	-1.404	0.085	11.475	-6.042	238.403	-77.10	40.52	-8.36	-54.880	-30.674	69.580	-0.75403	0.59509	-0.26154	-0.09363	30.8	13111	100
2025-3-27 18:45:33.612	WT901BLE68-01(48591DE3C19B)	-0.198	-1.404	0.085	11.475	-6.042	238.403	-76.54	42.69	-7.66	-54.880	-30.674	69.580	-0.75403	0.59509	-0.26154	-0.09363	30.8	13111	100
2025-3-27 18:45:33.612	WT901BLE68-01(48591DE3C19B)	-0.198	-1.561	0.064	10.254	-8.423	226.807	-75.94	44.79	-6.92	-54.880	-30.674	69.580	-0.75403	0.59509	-0.26154	-0.09363	30.8	13111	100
2025-3-27 18:45:33.612	WT901BLE68-01(48591DE3C19B)	-0.118	-1.561	0.064	10.254	-8.423	226.807	-75.29	46.80	-6.15	-54.880	-30.674	69.580	-0.75403	0.59509	-0.26154	-0.09363	30.8	13111	100
2025-3-27 18:45:33.640	WT901BLE68-01(48591DE3C19B)	-0.118	-1.632	0.013	8.362	-6.714	207.825	-74.64	48.69	-5.37	-54.880	-30.674	69.580	-0.75403	0.59509	-0.26154	-0.09363	30.8	13111	100
2025-3-27 18:45:33.640	WT901BLE68-01(48591DE3C19B)	-0.067	-1.632	0.013	8.362	-6.714	207.825	-73.98	50.48	-4.60	-54.880	-30.674	69.580	-0.75403	0.59509	-0.26154	-0.09363	30.8	13111	100
2025-3-27 18:45:33.640	WT901BLE68-01(48591DE3C19B)	-0.067	-1.677	-0.025	2.502	1.099	176.514	-73.40	52.10	-3.91	-54.880	-30.674	69.580	-0.75403	0.59509	-0.26154	-0.09363	30.8	13111	100
2025-3-27 18:45:33.640	WT901BLE68-01(48591DE3C19B)	0.000	-1.677	-0.025	2.502	1.099	176.514	-72.92	53.57	-3.33	-54.880	-30.674	69.580	-0.75403	0.59509	-0.26154	-0.09363	30.8	13111	100
2025-3-27 18:45:33.706	WT901BLE68-01(48591DE3C19B)	0.000	-1.801	-0.016	-7.202	6.104	133.179	-72.58	54.83	-2.88	-54.880	-30.674	69.580	-0.75403	0.59509	-0.26154	-0.09363	30.8	13111	100
2025-3-27 18:45:33.706	WT901BLE68-01(48591DE3C19B)	-0.013	-1.801	-0.016	-7.202	6.104	133.179	-72.41	55.88	-2.58	-54.880	-30.674	69.580	-0.75403	0.59509	-0.26154	-0.09363	30.8	13111	100
2025-3-27 18:45:33.706	WT901BLE68-01(48591DE3C19B)	-0.013	-1.878	0.108	-16.724	-8.240	88.074	-72.27	56.68	-2.27	-54.880	-30.674	69.580	-0.75403	0.59509	-0.26154	-0.09363	30.8	13111	100
2025-3-27 18:45:33.706	WT901BLE68-01(48591DE3C19B)	-0.003	-1.878	0.108	-16.724	-8.240	88.074	-72.19	57.23	-1.98	-54.880	-30.674	69.580	-0.75403	0.59509	-0.26154	-0.09363	30.8	13111	100
2025-3-27 18:45:33.733	WT901BLE68-01(48591DE3C19B)	-0.003	-1.849	0.255	-17.517	-26.184	41.199	-72.08	57.53	-1.66	-54.880	-30.674	69.580	-0.75403	0.59509	-0.26154	-0.09363	30.8	13111	100
2025-3-27 18:45:33.733	WT901BLE68-01(48591DE3C19B)	0.042	-1.849	0.255	-17.517	-26.184	41.199	-71.95	57.57	-1.32	-54.880	-30.674	69.580	-0.75403	0.59509	-0.26154	-0.09363	30.8	13111	100
2025-3-27 18:45:33.733	WT901BLE68-01(48591DE3C19B)	0.042	-1.629	0.325	-9.705	-26.123	-2.197	-71.89	57.41	-1.12	-54.880	-30.674	69.580	-0.75403	0.59509	-0.26154	-0.09363	30.8	13111	100
2025-3-27 18:45:33.733	WT901BLE68-01(48591DE3C19B)	0.125	-1.629	0.325	-9.705	-26.123	-2.197	-71.91	57.04	-1.05	-54.880	-30.674	69.580	-0.75403	0.59509	-0.26154	-0.09363	30.8	13111	100
2025-3-27 18:45:33.763	WT901BLE68-01(48591DE3C19B)	0.125	-1.409	0.221	-0.122	8.606	-41.992	-72.21	56.53	-1.40	-46.354	-48.706	65.660	-0.75403	0.59509	-0.26154	-0.09363	30.8	13111	100
2025-3-27 18:45:33.763	WT901BLE68-01(48591DE3C19B)	0.171	-1.409	0.221	-0.122	8.606	-41.992	-72.80	55.88	-2.14	-46.354	-48.706	65.660	-0.75403	0.59509	-0.26154	-0.09363	30.8	13111	100
2025-3-27 18:45:33.763	WT901BLE68-01(48591DE3C19B)	0.171	-1.200	0.126	-1.526	35.645	-78.979	-73.62	55.09	-3.17	-46.354	-48.706	65.660	-0.75403	0.59509	-0.26154	-0.09363	30.8	13111	100
2025-3-27 18:45:33.763	WT901BLE68-01(48591DE3C19B)	0.232	-1.200	0.126	-1.526	35.645	-78.979	-74.66	54.15	-4.48	-46.354	-48.706	65.660	-0.75403	0.59509	-0.26154	-0.09363	30.8	13111	100
2025-3-27 18:45:33.792	WT901BLE68-01(48591DE3C19B)	0.232	-1.096	0.083	-4.150	50.476	-110.901	-75.81	53.06	-5.91	-46.354	-48.706	65.660	-0.75403	0.59509	-0.26154	-0.09363	30.8	13111	100
2025-3-27 18:45:33.793	WT901BLE68-01(48591DE3C19B)	0.199	-1.096	0.083	-4.150	50.476	-110.901	-77.03	51.82	-7.43	-46.354	-48.706	65.660	-0.75403	0.59509	-0.26154	-0.09363	30.8	13111	100
2025-3-27 18:45:33.793	WT901BLE68-01(48591DE3C19B)	0.199	-1.080	0.080	-7.324	60.486	-134.583	-78.26	50.45	-8.99	-46.354	-48.706	65.660	-0.75403	0.59509	-0.26154	-0.09363	30.8	13111	100
2025-3-27 18:45:33.793	WT901BLE68-01(48591DE3C19B)	0.051	-1.080	0.080	-7.324	60.486	-134.583	-79.50	48.97	-10.57	-46.354	-48.706	65.660	-0.75403	0.59509	-0.26154	-0.09363	30.8	13111	100
2025-3-27 18:45:33.852	WT901BLE68-01(48591DE3C19B)	0.051	-1.156	0.088	-5.127	62.195	-156.921	-80.66	47.36	-12.08	-46.354	-48.706	65.660	-0.75403	0.59509	-0.26154	-0.09363	30.8	13111	100
2025-3-27 18:45:33.852	WT901BLE68-01(48591DE3C19B)	-0.109	-1.156	0.088	-5.127	62.195	-156.921	-81.73	45.64	-13.54	-46.354	-48.706	65.660	-0.75403	0.59509	-0.26154	-0.09363	30.8	13111	100
2025-3-27 18:45:33.852	WT901BLE68-01(48591DE3C19B)	-0.109	-1.210	0.128	1.343	48.645	-173.523	-82.61	43.81	-14.81	-46.354	-48.706	65.660	-0.75403	0.59509	-0.26154	-0.09363	30.8	13111	100
2025-3-27 18:45:33.852	WT901BLE68-01(48591DE3C19B)	-0.240	-1.210	0.128	1.343	48.645	-173.523	-83.32	41.90	-15.92	-46.354	-48.706	65.660	-0.75403	0.59509	-0.26154	-0.09363	30.8	13111	100
2025-3-27 18:45:33.880	WT901BLE68-01(48591DE3C19B)	-0.240	-1.168	0.171	3.235	19.714	-191.223	-83.83	39.89	-16.79	-46.354	-48.706	65.660	-0.75403	0.59509	-0.26154	-0.09363	30.8	13111	100
2025-3-27 18:45:33.880	WT901BLE68-01(48591DE3C19B)	-0.282	-1.168	0.171	3.235	19.714	-191.223	-84.17	37.78	-17.43	-46.354	-48.706	65.660	-0.75403	0.59509	-0.26154	-0.09363	30.8	13111	100
2025-3-27 18:45:33.880	WT901BLE68-01(48591DE3C19B)	-0.282	-1.105	0.204	0.244	-15.381	-208.923	-84.35	35.59	-17.83	-46.354	-48.706	65.660	-0.75403	0.59509	-0.26154	-0.09363	30.8	13111	100
2025-3-27 18:45:33.880	WT901BLE68-01(48591DE3C19B)	-0.260	-1.105	0.204	0.244	-15.381	-208.923	-84.41	33.31	-18.00	-46.354	-48.706	65.660	-0.75403	0.59509	-0.26154	-0.09363	30.8	13111	100
2025-3-27 18:45:33.912	WT901BLE68-01(48591DE3C19B)	-0.260	-1.043	0.211	-6.226	-35.950	-224.915	-84.44	30.96	-18.04	-46.354	-48.706	65.660	-0.75403	0.59509	-0.26154	-0.09363	30.8	13111	100
2025-3-27 18:45:33.913	WT901BLE68-01(48591DE3C19B)	-0.228	-1.043	0.211	-6.226	-35.950	-224.915	-84.43	28.54	-17.97	-46.354	-48.706	65.660	-0.75403	0.59509	-0.26154	-0.09363	30.8	13111	100
2025-3-27 18:45:33.913	WT901BLE68-01(48591DE3C19B)	-0.228	-0.986	0.188	-13.245	-35.767	-237.061	-84.50	26.02	-17.91	-46.354	-48.706	65.660	-0.75403	0.59509	-0.26154	-0.09363	30.8	13111	100
2025-3-27 18:45:33.913	WT901BLE68-01(48591DE3C19B)	-0.198	-0.986	0.188	-13.245	-35.767	-237.061	-84.57	23.51	-17.85	-46.354	-48.706	65.660	-0.75403	0.59509	-0.26154	-0.09363	30.8	13111	100
2025-3-27 18:45:33.971	WT901BLE68-01(48591DE3C19B)	-0.198	-0.937	0.165	-20.569	-21.362	-248.779	-84.78	20.92	-17.95	-46.354	-48.706	65.660	-0.75403	0.59509	-0.26154	-0.09363	30.8	13111	100
2025-3-27 18:45:33.971	WT901BLE68-01(48591DE3C19B)	-0.194	-0.937	0.165	-20.569	-21.362	-248.779	-84.98	18.35	-18.02	-46.354	-48.706	65.660	-0.73495	0.64346	-0.21320	0.01611	30.8	13111	100
2025-3-27 18:45:33.971	WT901BLE68-01(48591DE3C19B)	-0.194	-0.908	0.177	-27.771	-2.136	-261.414	-85.30	15.68	-18.30	-46.354	-48.706	65.660	-0.73495	0.64346	-0.21320	0.01611	30.8	13111	100
2025-3-27 18:45:33.971	WT901BLE68-01(48591DE3C19B)	-0.238	-0.908	0.177	-27.771	-2.136	-261.414	-85.61	13.04	-18.55	-46.354	-48.706	65.660	-0.73495	0.64346	-0.21320	0.01611	30.8	13111	100
2025-3-27 18:45:34.0	WT901BLE68-01(48591DE3C19B)	-0.238	-0.935	0.220	-33.203	13.062	-272.217	-85.98	10.32	-18.95	-46.354	-48.706	65.660	-0.73495	0.64346	-0.21320	0.01611	30.8	13111	100
2025-3-27 18:45:34.0	WT901BLE68-01(48591DE3C19B)	-0.314	-0.935	0.220	-33.203	13.062	-272.217	-86.33	7.61	-19.31	-46.354	-48.706	65.660	-0.73495	0.64346	-0.21320	0.01611	30.8	13111	100
2025-3-27 18:45:34.0	WT901BLE68-01(48591DE3C19B)	-0.314	-0.991	0.274	-33.691	24.170	-277.344	-86.67	4.87	-19.78	-46.354	-48.706	65.660	-0.73495	0.64346	-0.21320	0.01611	30.8	13111	100
2025-3-27 18:45:34.0	WT901BLE68-01(48591DE3C19B)	-0.441	-0.991	0.274	-33.691	24.170	-277.344	-86.98	2.16	-20.21	-46.354	-48.706	65.660	-0.73495	0.64346	-0.21320	0.01611	30.8	13111	100
2025-3-27 18:45:34.31	WT901BLE68-01(48591DE3C19B)	-0.441	-1.050	0.304	-28.870	29.846	-273.987	-87.23	-0.49	-20.69	-46.354	-48.706	65.660	-0.73495	0.64346	-0.21320	0.01611	30.8	13111	100
2025-3-27 18:45:34.31	WT901BLE68-01(48591DE3C19B)	-0.597	-1.050	0.304	-28.870	29.846	-273.987	-87.45	-3.13	-21.15	-46.354	-48.706	65.660	-0.73495	0.64346	-0.21320	0.01611	30.8	13111	100
2025-3-27 18:45:34.31	WT901BLE68-01(48591DE3C19B)	-0.597	-1.075	0.283	-20.996	23.926	-263.184	-87.57	-5.64	-21.53	-46.354	-48.706	65.660	-0.73495	0.64346	-0.21320	0.01611	30.8	13111	100
2025-3-27 18:45:34.31	WT901BLE68-01(48591DE3C19B)	-0.688	-1.075	0.283	-20.996	23.926	-263.184	-87.68	-8.12	-21.91	-46.354	-48.706	65.660	-0.73495	0.64346	-0.21320	0.01611	30.8	13111	100
2025-3-27 18:45:34.92	WT901BLE68-01(48591DE3C19B)	-0.688	-1.104	0.253	-15.808	7.202	-244.202	-87.75	-10.40	-22.10	-46.354	-48.706	65.660	-0.73495	0.64346	-0.21320	0.01611	30.8	13111	100
2025-3-27 18:45:34.92	WT901BLE68-01(48591DE3C19B)	-0.713	-1.104	0.253	-15.808	7.202	-244.202	-87.81	-12.66	-22.29	-46.354	-48.706	65.660	-0.73495	0.64346	-0.21320	0.01611	30.8	13111	100
2025-3-27 18:45:34.92	WT901BLE68-01(48591DE3C19B)	-0.713	-1.165	0.259	-10.498	-10.437	-215.576	-87.86	-14.61	-22.27	-46.354	-48.706	65.660	-0.73495	0.64346	-0.21320	0.01611	30.8	13111	100
2025-3-27 18:45:34.92	WT901BLE68-01(48591DE3C19B)	-0.685	-1.165	0.259	-10.498	-10.437	-215.576	-87.91	-16.55	-22.26	-46.354	-48.706	65.660	-0.73495	0.64346	-0.21320	0.01611	30.8	13111	100
2025-3-27 18:45:34.120	WT901BLE68-01(48591DE3C19B)	-0.685	-1.237	0.341	-4.150	-14.099	-181.641	-87.91	-18.13	-22.19	-46.354	-48.706	65.660	-0.73495	0.64346	-0.21320	0.01611	30.8	13111	100
2025-3-27 18:45:34.121	WT901BLE68-01(48591DE3C19B)	-0.660	-1.237	0.341	-4.150	-14.099	-181.641	-87.92	-19.71	-22.12	-46.354	-48.706	65.660	-0.73495	0.64346	-0.21320	0.01611	30.8	13111	100
2025-3-27 18:45:34.121	WT901BLE68-01(48591DE3C19B)	-0.660	-1.331	0.434	-3.357	3.784	-147.644	-87.85	-20.92	-22.24	-46.354	-48.706	65.660	-0.73495	0.64346	-0.21320	0.01611	30.8	13111	100
2025-3-27 18:45:34.121	WT901BLE68-01(48591DE3C19B)	-0.699	-1.331	0.434	-3.357	3.784	-147.644	-87.78	-22.13	-22.35	-41.258	-23.324	67.718	-0.73495	0.64346	-0.21320	0.01611	30.8	13111	100
2025-3-27 18:45:34.153	WT901BLE68-01(48591DE3C19B)	-0.699	-1.501	0.527	-4.395	36.621	-111.206	-87.57	-22.96	-22.81	-41.258	-23.324	67.718	-0.73495	0.64346	-0.21320	0.01611	30.8	13111	100
2025-3-27 18:45:34.153	WT901BLE68-01(48591DE3C19B)	-0.807	-1.501	0.527	-4.395	36.621	-111.206	-87.36	-23.77	-23.28	-41.258	-23.324	67.718	-0.73495	0.64346	-0.21320	0.01611	30.8	13111	100
2025-3-27 18:45:34.153	WT901BLE68-01(48591DE3C19B)	-0.807	-1.603	0.580	-0.122	68.970	-77.759	-86.96	-24.24	-24.09	-41.258	-23.324	67.718	-0.73495	0.64346	-0.21320	0.01611	30.8	13111	100
2025-3-27 18:45:34.153	WT901BLE68-01(48591DE3C19B)	-0.863	-1.603	0.580	-0.122	68.970	-77.759	-86.56	-24.69	-24.91	-41.258	-23.324	67.718	-0.73495	0.64346	-0.21320	0.01611	30.8	13111	100
2025-3-27 18:45:34.241	WT901BLE68-01(48591DE3C19B)	-0.863	-1.609	0.580	-0.916	91.431	-44.128	-86.06	-24.79	-25.95	-41.258	-23.324	67.718	-0.73495	0.64346	-0.21320	0.01611	30.8	13111	100
2025-3-27 18:45:34.241	WT901BLE68-01(48591DE3C19B)	-0.899	-1.609	0.580	-0.916	91.431	-44.128	-85.56	-24.87	-26.99	-41.258	-23.324	67.718	-0.73495	0.64346	-0.21320	0.01611	30.8	13111	100
2025-3-27 18:45:34.241	WT901BLE68-01(48591DE3C19B)	-0.899	-1.499	0.542	-0.305	100.586	-8.667	-85.03	-24.58	-28.09	-41.258	-23.324	67.718	-0.73495	0.64346	-0.21320	0.01611	30.8	13111	100
2025-3-27 18:45:34.242	WT901BLE68-01(48591DE3C19B)	-0.878	-1.499	0.542	-0.305	100.586	-8.667	-84.51	-24.29	-29.19	-41.258	-23.324	67.718	-0.73495	0.64346	-0.21320	0.01611	30.8	13111	100
2025-3-27 18:45:34.243	WT901BLE68-01(48591DE3C19B)	-0.878	-1.264	0.485	-2.441	92.041	27.283	-84.09	-23.63	-30.13	-41.258	-23.324	67.718	-0.73495	0.64346	-0.21320	0.01611	30.8	13111	100
2025-3-27 18:45:34.243	WT901BLE68-01(48591DE3C19B)	-0.879	-1.264	0.485	-2.441	92.041	27.283	-83.68	-22.96	-31.06	-41.258	-23.324	67.718	-0.73495	0.64346	-0.21320	0.01611	30.8	13111	100
2025-3-27 18:45:34.243	WT901BLE68-01(48591DE3C19B)	-0.879	-1.028	0.418	-4.822	63.965	63.599	-83.45	-21.96	-31.63	-41.258	-23.324	67.718	-0.73495	0.64346	-0.21320	0.01611	30.8	13111	100
2025-3-27 18:45:34.243	WT901BLE68-01(48591DE3C19B)	-0.902	-1.028	0.418	-4.822	63.965	63.599	-83.23	-20.96	-32.18	-41.258	-23.324	67.718	-0.73495	0.64346	-0.21320	0.01611	30.8	13111	100
2025-3-27 18:45:34.272	WT901BLE68-01(48591DE3C19B)	-0.902	-0.862	0.349	-10.010	15.015	97.717	-83.28	-19.68	-32.16	-41.258	-23.324	67.718	-0.73495	0.64346	-0.21320	0.01611	30.8	13111	100
2025-3-27 18:45:34.273	WT901BLE68-01(48591DE3C19B)	-0.867	-0.862	0.349	-10.010	15.015	97.717	-83.33	-18.40	-32.14	-41.258	-23.324	67.718	-0.73495	0.64346	-0.21320	0.01611	30.8	13111	100
2025-3-27 18:45:34.273	WT901BLE68-01(48591DE3C19B)	-0.867	-0.836	0.273	-15.259	-43.518	131.897	-83.63	-16.84	-31.46	-41.258	-23.324	67.718	-0.73495	0.64346	-0.21320	0.01611	30.8	13111	100
2025-3-27 18:45:34.273	WT901BLE68-01(48591DE3C19B)	-0.747	-0.836	0.273	-15.259	-43.518	131.897	-83.91	-15.28	-30.79	-41.258	-23.324	67.718	-0.73495	0.64346	-0.21320	0.01611	30.8	13111	100
2025-3-27 18:45:34.331	WT901BLE68-01(48591DE3C19B)	-0.747	-0.865	0.198	-14.099	-93.872	166.321	-84.30	-13.44	-29.59	-41.258	-23.324	67.718	-0.73495	0.64346	-0.21320	0.01611	30.8	13111	100
2025-3-27 18:45:34.331	WT901BLE68-01(48591DE3C19B)	-0.597	-0.865	0.198	-14.099	-93.872	166.321	-84.65	-11.60	-28.40	-41.258	-23.324	67.718	-0.73495	0.64346	-0.21320	0.01611	30.8	13111	100
2025-3-27 18:45:34.331	WT901BLE68-01(48591DE3C19B)	-0.597	-0.983	0.162	-9.949	-127.319	195.374	-84.98	-9.50	-26.87	-41.258	-23.324	67.718	-0.73495	0.64346	-0.21320	0.01611	30.8	13111	100
2025-3-27 18:45:34.331	WT901BLE68-01(48591DE3C19B)	-0.466	-0.983	0.162	-9.949	-127.319	195.374	-85.25	-7.41	-25.36	-41.258	-23.324	67.718	-0.73495	0.64346	-0.21320	0.01611	30.8	13111	100
2025-3-27 18:45:34.360	WT901BLE68-01(48591DE3C19B)	-0.466	-1.184	0.168	2.014	-141.052	216.003	-85.36	-5.14	-23.72	-41.258	-23.324	67.718	-0.71240	0.66956	-0.10696	0.18069	30.8	13111	100
2025-3-27 18:45:34.360	WT901BLE68-01(48591DE3C19B)	-0.366	-1.184	0.168	2.014	-141.052	216.003	-85.41	-2.88	-22.10	-41.258	-23.324	67.718	-0.71240	0.66956	-0.10696	0.18069	30.8	13111	100
2025-3-27 18:45:34.360	WT901BLE68-01(48591DE3C19B)	-0.308	-1.349	0.175	20.386	-137.695	227.234	-85.21	-0.54	-20.52	-41.258	-23.324	67.718	-0.71240	0.66956	-0.10696	0.18069	30.8	13111	100
2025-3-27 18:45:34.360	WT901BLE68-01(48591DE3C19B)	-0.308	-1.465	0.205	38.269	-122.986	231.873	-84.86	1.80	-19.01	-41.258	-23.324	67.718	-0.71240	0.66956	-0.10696	0.18069	30.8	13111	100
2025-3-27 18:45:34.391	WT901BLE68-01(48591DE3C19B)	-0.296	-1.465	0.205	38.269	-122.986	231.873	-84.36	4.13	-17.55	-41.258	-23.324	67.718	-0.71240	0.66956	-0.10696	0.18069	30.8	13111	100
2025-3-27 18:45:34.391	WT901BLE68-01(48591DE3C19B)	-0.296	-1.588	0.229	52.795	-98.511	232.361	-83.75	6.44	-16.21	-41.258	-23.324	67.718	-0.71240	0.66956	-0.10696	0.18069	30.8	13111	100
2025-3-27 18:45:34.391	WT901BLE68-01(48591DE3C19B)	-0.259	-1.588	0.229	52.795	-98.511	232.361	-83.03	8.73	-14.96	-41.258	-23.324	67.718	-0.71240	0.66956	-0.10696	0.18069	30.8	13111	100
2025-3-27 18:45:34.391	WT901BLE68-01(48591DE3C19B)	-0.259	-1.627	0.169	67.566	-60.242	231.140	-82.22	11.00	-13.88	-41.258	-23.324	67.718	-0.71240	0.66956	-0.10696	0.18069	30.8	13111	100
2025-3-27 18:45:34.452	WT901BLE68-01(48591DE3C19B)	-0.226	-1.627	0.169	67.566	-60.242	231.140	-81.33	13.24	-12.96	-41.258	-23.324	67.718	-0.71240	0.66956	-0.10696	0.18069	30.8	13111	100
2025-3-27 18:45:34.452	WT901BLE68-01(48591DE3C19B)	-0.226	-1.515	0.119	76.843	-16.174	231.323	-80.41	15.50	-12.22	-41.258	-23.324	67.718	-0.71240	0.66956	-0.10696	0.18069	30.8	13111	100
2025-3-27 18:45:34.452	WT901BLE68-01(48591DE3C19B)	-0.228	-1.515	0.119	76.843	-16.174	231.323	-79.48	17.75	-11.68	-41.258	-23.324	67.718	-0.71240	0.66956	-0.10696	0.18069	30.8	13111	100
2025-3-27 18:45:34.452	WT901BLE68-01(48591DE3C19B)	-0.228	-1.361	0.083	75.623	19.226	230.652	-78.59	20.01	-11.27	-41.258	-23.324	67.718	-0.71240	0.66956	-0.10696	0.18069	30.8	13111	100
2025-3-27 18:45:34.480	WT901BLE68-01(48591DE3C19B)	-0.234	-1.361	0.083	75.623	19.226	230.652	-77.74	22.27	-11.02	-41.258	-23.324	67.718	-0.71240	0.66956	-0.10696	0.18069	30.8	13111	100
2025-3-27 18:45:34.480	WT901BLE68-01(48591DE3C19B)	-0.234	-1.213	0.070	68.481	39.978	229.248	-76.96	24.54	-10.84	-41.258	-23.324	67.718	-0.71240	0.66956	-0.10696	0.18069	30.8	13111	100
2025-3-27 18:45:34.481	WT901BLE68-01(48591DE3C19B)	-0.239	-1.213	0.070	68.481	39.978	229.248	-76.26	26.80	-10.74	-41.258	-23.324	67.718	-0.71240	0.66956	-0.10696	0.18069	30.8	13111	100
2025-3-27 18:45:34.481	WT901BLE68-01(48591DE3C19B)	-0.239	-1.118	0.075	57.129	51.147	228.760	-75.62	29.05	-10.67	-41.258	-23.324	67.718	-0.71240	0.66956	-0.10696	0.18069	30.8	13111	100
2025-3-27 18:45:34.513	WT901BLE68-01(48591DE3C19B)	-0.276	-1.118	0.075	57.129	51.147	228.760	-75.06	31.31	-10.65	-41.258	-23.324	67.718	-0.71240	0.66956	-0.10696	0.18069	30.8	13111	100
2025-3-27 18:45:34.513	WT901BLE68-01(48591DE3C19B)	-0.276	-1.052	0.056	46.753	53.833	227.600	-74.55	33.54	-10.61	-41.258	-23.324	67.718	-0.71240	0.66956	-0.10696	0.18069	30.8	13111	100
2025-3-27 18:45:34.513	WT901BLE68-01(48591DE3C19B)	-0.295	-1.052	0.056	46.753	53.833	227.600	-74.09	35.76	-10.57	-41.258	-23.324	67.718	-0.71240	0.66956	-0.10696	0.18069	30.8	13111	100
2025-3-27 18:45:34.513	WT901BLE68-01(48591DE3C19B)	-0.295	-1.007	0.046	35.828	45.959	223.755	-73.65	37.94	-10.47	-41.258	-23.324	67.718	-0.71240	0.66956	-0.10696	0.18069	30.8	13111	100
2025-3-27 18:45:34.572	WT901BLE68-01(48591DE3C19B)	-0.305	-1.007	0.046	35.828	45.959	223.755	-73.22	40.07	-10.31	-41.258	-23.324	67.718	-0.71240	0.66956	-0.10696	0.18069	30.8	13111	100
2025-3-27 18:45:34.572	WT901BLE68-01(48591DE3C19B)	-0.305	-1.009	0.053	25.391	30.396	217.041	-72.77	42.14	-10.03	-37.632	-35.672	70.168	-0.71240	0.66956	-0.10696	0.18069	30.8	13111	100
2025-3-27 18:45:34.572	WT901BLE68-01(48591DE3C19B)	-0.306	-1.009	0.053	25.391	30.396	217.041	-72.29	44.14	-9.64	-37.632	-35.672	70.168	-0.71240	0.66956	-0.10696	0.18069	30.8	13111	100
2025-3-27 18:45:34.572	WT901BLE68-01(48591DE3C19B)	-0.306	-1.046	0.061	17.578	11.169	205.811	-71.74	46.04	-9.11	-37.632	-35.672	70.168	-0.71240	0.66956	-0.10696	0.18069	30.8	13111	100
2025-3-27 18:45:34.607	WT901BLE68-01(48591DE3C19B)	-0.304	-1.046	0.061	17.578	11.169	205.811	-71.10	47.85	-8.43	-37.632	-35.672	70.168	-0.71240	0.66956	-0.10696	0.18069	30.8	13111	100
2025-3-27 18:45:34.607	WT901BLE68-01(48591DE3C19B)	-0.304	-1.091	0.066	10.925	-8.240	190.247	-70.38	49.54	-7.60	-37.632	-35.672	70.168	-0.71240	0.66956	-0.10696	0.18069	30.8	13111	100
2025-3-27 18:45:34.607	WT901BLE68-01(48591DE3C19B)	-0.303	-1.091	0.066	10.925	-8.240	190.247	-69.55	51.10	-6.61	-37.632	-35.672	70.168	-0.71240	0.66956	-0.10696	0.18069	30.8	13111	100
2025-3-27 18:45:34.607	WT901BLE68-01(48591DE3C19B)	-0.303	-1.166	0.081	4.883	-24.841	170.105	-68.64	52.52	-5.49	-37.632	-35.672	70.168	-0.71240	0.66956	-0.10696	0.18069	30.8	13111	100
2025-3-27 18:45:34.631	WT901BLE68-01(48591DE3C19B)	-0.319	-1.166	0.081	4.883	-24.841	170.105	-67.63	53.80	-4.25	-37.632	-35.672	70.168	-0.71240	0.66956	-0.10696	0.18069	30.8	13111	100
2025-3-27 18:45:34.631	WT901BLE68-01(48591DE3C19B)	-0.319	-1.297	0.121	-0.122	-40.466	145.813	-66.54	54.92	-2.89	-37.632	-35.672	70.168	-0.71240	0.66956	-0.10696	0.18069	30.8	13111	100
2025-3-27 18:45:34.631	WT901BLE68-01(48591DE3C19B)	-0.318	-1.297	0.121	-0.122	-40.466	145.813	-65.39	55.87	-1.44	-37.632	-35.672	70.168	-0.71240	0.66956	-0.10696	0.18069	30.8	13111	100
2025-3-27 18:45:34.631	WT901BLE68-01(48591DE3C19B)	-0.318	-1.400	0.152	0.183	-54.443	118.958	-64.15	56.65	0.08	-37.632	-35.672	70.168	-0.71240	0.66956	-0.10696	0.18069	30.8	13111	100
2025-3-27 18:45:34.691	WT901BLE68-01(48591DE3C19B)	-0.279	-1.400	0.152	0.183	-54.443	118.958	-62.87	57.24	1.66	-37.632	-35.672	70.168	-0.71240	0.66956	-0.10696	0.18069	30.8	13111	100
2025-3-27 18:45:34.692	WT901BLE68-01(48591DE3C19B)	-0.279	-1.395	0.164	0.977	-62.866	91.064	-61.58	57.68	3.22	-37.632	-35.672	70.168	-0.71240	0.66956	-0.10696	0.18069	30.8	13111	100
2025-3-27 18:45:34.692	WT901BLE68-01(48591DE3C19B)	-0.250	-1.395	0.164	0.977	-62.866	91.064	-60.31	57.95	4.75	-37.632	-35.672	70.168	-0.71240	0.66956	-0.10696	0.18069	30.8	13111	100
2025-3-27 18:45:34.692	WT901BLE68-01(48591DE3C19B)	-0.250	-1.321	0.182	-2.319	-65.002	60.059	-59.17	58.07	6.16	-37.632	-35.672	70.168	-0.71240	0.66956	-0.10696	0.18069	30.8	13111	100
2025-3-27 18:45:34.723	WT901BLE68-01(48591DE3C19B)	-0.256	-1.321	0.182	-2.319	-65.002	60.059	-58.15	58.03	7.43	-37.632	-35.672	70.168	-0.71240	0.66956	-0.10696	0.18069	30.8	13111	100
2025-3-27 18:45:34.723	WT901BLE68-01(48591DE3C19B)	-0.256	-1.256	0.222	-9.827	-65.063	27.222	-57.32	57.84	8.52	-37.632	-35.672	70.168	-0.71240	0.66956	-0.10696	0.18069	30.8	13111	100
2025-3-27 18:45:34.723	WT901BLE68-01(48591DE3C19B)	-0.268	-1.256	0.222	-9.827	-65.063	27.222	-56.68	57.50	9.43	-37.632	-35.672	70.168	-0.71240	0.66956	-0.10696	0.18069	30.8	13111	100
2025-3-27 18:45:34.723	WT901BLE68-01(48591DE3C19B)	-0.268	-1.222	0.286	-14.893	-66.223	-2.258	-56.21	57.04	10.17	-37.632	-35.672	70.168	-0.71240	0.66956	-0.10696	0.18069	30.8	13111	100
2025-3-27 18:45:34.781	WT901BLE68-01(48591DE3C19B)	-0.196	-1.222	0.286	-14.893	-66.223	-2.258	-55.90	56.44	10.77	-37.632	-35.672	70.168	-0.71240	0.66956	-0.10696	0.18069	30.8	13111	100
2025-3-27 18:45:34.781	WT901BLE68-01(48591DE3C19B)	-0.196	-1.152	0.268	-19.836	-59.265	-26.611	-55.77	55.77	11.17	-37.632	-35.672	70.168	-0.71240	0.66956	-0.10696	0.18069	30.8	13111	100
2025-3-27 18:45:34.782	WT901BLE68-01(48591DE3C19B)	-0.106	-1.152	0.268	-19.836	-59.265	-26.611	-55.82	55.02	11.39	-37.632	-35.672	70.168	-0.75839	0.45358	-0.36496	-0.29288	30.8	13111	100
2025-3-27 18:45:34.782	WT901BLE68-01(48591DE3C19B)	-0.106	-1.019	0.209	-23.743	-34.485	-47.852	-56.11	54.25	11.32	-37.632	-35.672	70.168	-0.75839	0.45358	-0.36496	-0.29288	30.8	13111	100
2025-3-27 18:45:34.810	WT901BLE68-01(48591DE3C19B)	-0.087	-1.019	0.209	-23.743	-34.485	-47.852	-56.63	53.47	11.00	-37.632	-35.672	70.168	-0.75839	0.45358	-0.36496	-0.29288	30.8	13111	100
2025-3-27 18:45:34.810	WT901BLE68-01(48591DE3C19B)	-0.087	-0.919	0.224	-31.372	-10.315	-67.871	-57.39	52.66	10.43	-37.632	-35.672	70.168	-0.75839	0.45358	-0.36496	-0.29288	30.8	13111	100
2025-3-27 18:45:34.810	WT901BLE68-01(48591DE3C19B)	-0.110	-0.919	0.224	-31.372	-10.315	-67.871	-58.34	51.84	9.64	-37.632	-35.672	70.168	-0.75839	0.45358	-0.36496	-0.29288	30.8	13111	100
2025-3-27 18:45:34.810	WT901BLE68-01(48591DE3C19B)	-0.110	-0.942	0.279	-38.818	3.479	-88.684	-59.44	50.95	8.71	-37.632	-35.672	70.168	-0.75839	0.45358	-0.36496	-0.29288	30.8	13111	100
2025-3-27 18:45:34.842	WT901BLE68-01(48591DE3C19B)	-0.135	-0.942	0.279	-38.818	3.479	-88.684	-60.65	50.00	7.66	-37.632	-35.672	70.168	-0.75839	0.45358	-0.36496	-0.29288	30.8	13111	100
2025-3-27 18:45:34.842	WT901BLE68-01(48591DE3C19B)	-0.135	-0.964	0.325	-39.734	10.681	-106.567	-61.98	48.92	6.44	-37.632	-35.672	70.168	-0.75839	0.45358	-0.36496	-0.29288	30.8	13111	100
2025-3-27 18:45:34.842	WT901BLE68-01(48591DE3C19B)	-0.150	-0.964	0.325	-39.734	10.681	-106.567	-63.24	47.82	5.29	-37.632	-35.672	70.168	-0.75839	0.45358	-0.36496	-0.29288	30.8	13111	100
2025-3-27 18:45:34.842	WT901BLE68-01(48591DE3C19B)	-0.150	-0.921	0.335	-37.842	17.334	-122.498	-64.54	46.60	4.02	-37.632	-35.672	70.168	-0.75839	0.45358	-0.36496	-0.29288	30.8	13111	100
2025-3-27 18:45:34.906	WT901BLE68-01(48591DE3C19B)	-0.161	-0.921	0.335	-37.842	17.334	-122.498	-65.78	45.37	2.81	-37.632	-35.672	70.168	-0.75839	0.45358	-0.36496	-0.29288	30.8	13111	100
2025-3-27 18:45:34.906	WT901BLE68-01(48591DE3C19B)	-0.161	-0.846	0.322	-35.461	23.438	-136.536	-67.02	44.03	1.53	-37.632	-35.672	70.168	-0.75839	0.45358	-0.36496	-0.29288	30.8	13111	100
2025-3-27 18:45:34.906	WT901BLE68-01(48591DE3C19B)	-0.183	-0.846	0.322	-35.461	23.438	-136.536	-68.19	42.67	0.32	-37.632	-35.672	70.168	-0.75839	0.45358	-0.36496	-0.29288	30.8	13111	100
2025-3-27 18:45:34.906	WT901BLE68-01(48591DE3C19B)	-0.183	-0.797	0.316	-35.339	27.771	-149.353	-69.35	41.20	-0.92	-37.632	-35.672	70.168	-0.75839	0.45358	-0.36496	-0.29288	30.8	13111	100
2025-3-27 18:45:34.933	WT901BLE68-01(48591DE3C19B)	-0.216	-0.797	0.316	-35.339	27.771	-149.353	-70.44	39.72	-2.10	-37.632	-35.672	70.168	-0.75839	0.45358	-0.36496	-0.29288	30.8	13111	100
2025-3-27 18:45:34.933	WT901BLE68-01(48591DE3C19B)	-0.216	-0.807	0.321	-34.668	31.738	-161.682	-71.51	38.13	-3.31	-37.632	-35.672	70.168	-0.75839	0.45358	-0.36496	-0.29288	30.8	13111	100
2025-3-27 18:45:34.933	WT901BLE68-01(48591DE3C19B)	-0.243	-0.807	0.321	-34.668	31.738	-161.682	-72.51	36.54	-4.44	-37.632	-35.672	70.168	-0.75839	0.45358	-0.36496	-0.29288	30.8	13111	100
2025-3-27 18:45:34.933	WT901BLE68-01(48591DE3C19B)	-0.243	-0.833	0.309	-30.823	36.194	-171.936	-73.45	34.85	-5.60	-37.632	-35.672	70.168	-0.75839	0.45358	-0.36496	-0.29288	30.8	13111	100
2025-3-27 18:45:34.963	WT901BLE68-01(48591DE3C19B)	-0.280	-0.833	0.309	-30.823	36.194	-171.936	-74.33	33.17	-6.69	-37.632	-35.672	70.168	-0.75839	0.45358	-0.36496	-0.29288	30.8	13111	100
