time	DeviceName	AccX(g)	AccY(g)	AccZ(g)	AsX(°/s)	AsY(°/s)	AsZ(°/s)	AngleX(°)	AngleY(°)	AngleZ(°)	HX(uT)	HY(uT)	HZ(uT)	Q0()	Q1()	Q2()	Q3()	Temperature(°C)	Version()	Battery level(%)
2025-3-27 18:40:45.634	WT901BLE68-01(48591DE3C19B)	-0.115	-0.961	0.234	-4.150	-19.165	10.132	-73.87	19.58	-44.48	-64.582	-29.694	69.482	-0.75275	0.53894	-0.28226	0.25128	31.0	13111	100
2025-3-27 18:40:45.634	WT901BLE68-01(48591DE3C19B)	-0.115	-0.951	0.244	-4.639	-21.240	5.188	-73.86	19.53	-44.24	-64.582	-29.694	69.482	-0.75275	0.53894	-0.28226	0.25128	31.0	13111	100
2025-3-27 18:40:45.634	WT901BLE68-01(48591DE3C19B)	-0.094	-0.951	0.244	-4.639	-21.240	5.188	-73.84	19.46	-44.01	-64.582	-29.694	69.482	-0.75275	0.53894	-0.28226	0.25128	31.0	13111	100
2025-3-27 18:40:45.634	WT901BLE68-01(48591DE3C19B)	-0.094	-0.950	0.242	-5.310	-19.714	0.366	-73.83	19.36	-43.79	-64.582	-29.694	69.482	-0.75275	0.53894	-0.28226	0.25128	31.0	13111	100
2025-3-27 18:40:45.663	WT901BLE68-01(48591DE3C19B)	-0.094	-0.950	0.242	-5.310	-19.714	0.366	-73.84	19.25	-43.59	-64.582	-29.694	69.482	-0.75275	0.53894	-0.28226	0.25128	31.0	13111	100
2025-3-27 18:40:45.663	WT901BLE68-01(48591DE3C19B)	-0.094	-0.943	0.236	-5.493	-18.188	-4.272	-73.84	19.11	-43.40	-64.582	-29.694	69.482	-0.75275	0.53894	-0.28226	0.25128	31.0	13111	100
2025-3-27 18:40:45.663	WT901BLE68-01(48591DE3C19B)	-0.094	-0.943	0.236	-5.493	-18.188	-4.272	-73.86	18.95	-43.23	-64.582	-29.694	69.482	-0.75275	0.53894	-0.28226	0.25128	31.0	13111	100
2025-3-27 18:40:45.663	WT901BLE68-01(48591DE3C19B)	-0.094	-0.940	0.231	-6.042	-20.874	-9.521	-73.88	18.76	-43.06	-64.582	-29.694	69.482	-0.75275	0.53894	-0.28226	0.25128	31.0	13111	100
2025-3-27 18:40:45.696	WT901BLE68-01(48591DE3C19B)	-0.076	-0.940	0.231	-6.042	-20.874	-9.521	-73.89	18.54	-42.88	-64.582	-29.694	69.482	-0.75275	0.53894	-0.28226	0.25128	31.0	13111	100
2025-3-27 18:40:45.697	WT901BLE68-01(48591DE3C19B)	-0.076	-0.968	0.220	-8.301	-21.851	-15.137	-73.93	18.30	-42.70	-64.582	-29.694	69.482	-0.75275	0.53894	-0.28226	0.25128	31.0	13111	100
2025-3-27 18:40:45.697	WT901BLE68-01(48591DE3C19B)	-0.083	-0.968	0.220	-8.301	-21.851	-15.137	-73.97	18.03	-42.53	-64.582	-29.694	69.482	-0.75275	0.53894	-0.28226	0.25128	31.0	13111	100
2025-3-27 18:40:45.697	WT901BLE68-01(48591DE3C19B)	-0.083	-1.021	0.208	-9.583	-19.958	-20.813	-74.03	17.73	-42.39	-64.582	-29.694	69.482	-0.75275	0.53894	-0.28226	0.25128	31.0	13111	100
2025-3-27 18:40:45.754	WT901BLE68-01(48591DE3C19B)	-0.083	-1.021	0.208	-9.583	-19.958	-20.813	-74.10	17.41	-42.25	-64.582	-29.694	69.482	-0.75275	0.53894	-0.28226	0.25128	31.0	13111	100
2025-3-27 18:40:45.755	WT901BLE68-01(48591DE3C19B)	-0.083	-1.052	0.210	-8.911	-18.555	-26.855	-74.17	17.06	-42.14	-64.582	-29.694	69.482	-0.76828	0.51389	-0.32480	0.20013	31.0	13111	100
2025-3-27 18:40:45.755	WT901BLE68-01(48591DE3C19B)	-0.094	-1.052	0.210	-8.911	-18.555	-26.855	-74.25	16.69	-42.04	-64.582	-29.694	69.482	-0.76828	0.51389	-0.32480	0.20013	31.0	13111	100
2025-3-27 18:40:45.755	WT901BLE68-01(48591DE3C19B)	-0.094	-1.048	0.222	-7.385	-14.771	-32.898	-74.32	16.29	-41.97	-64.582	-29.694	69.482	-0.76828	0.51389	-0.32480	0.20013	31.0	13111	100
2025-3-27 18:40:45.784	WT901BLE68-01(48591DE3C19B)	-0.087	-1.048	0.222	-7.385	-14.771	-32.898	-74.40	15.88	-41.93	-64.582	-29.694	69.482	-0.76828	0.51389	-0.32480	0.20013	31.0	13111	100
2025-3-27 18:40:45.784	WT901BLE68-01(48591DE3C19B)	-0.087	-1.021	0.225	-5.371	-10.559	-38.330	-74.48	15.44	-41.91	-64.582	-29.694	69.482	-0.76828	0.51389	-0.32480	0.20013	31.0	13111	100
2025-3-27 18:40:45.784	WT901BLE68-01(48591DE3C19B)	-0.049	-1.021	0.225	-5.371	-10.559	-38.330	-74.55	14.99	-41.92	-64.582	-29.694	69.482	-0.76828	0.51389	-0.32480	0.20013	31.0	13111	100
2025-3-27 18:40:45.785	WT901BLE68-01(48591DE3C19B)	-0.049	-0.970	0.215	-2.869	-2.136	-42.297	-74.62	14.52	-41.98	-64.582	-29.694	69.482	-0.76828	0.51389	-0.32480	0.20013	31.0	13111	100
2025-3-27 18:40:45.844	WT901BLE68-01(48591DE3C19B)	-0.025	-0.970	0.215	-2.869	-2.136	-42.297	-74.69	14.06	-42.09	-64.582	-29.694	69.482	-0.76828	0.51389	-0.32480	0.20013	31.0	13111	100
2025-3-27 18:40:45.845	WT901BLE68-01(48591DE3C19B)	-0.025	-0.906	0.189	-2.258	12.024	-45.410	-74.77	13.60	-42.28	-64.582	-29.694	69.482	-0.76828	0.51389	-0.32480	0.20013	31.0	13111	100
2025-3-27 18:40:45.845	WT901BLE68-01(48591DE3C19B)	-0.030	-0.906	0.189	-2.258	12.024	-45.410	-74.87	13.13	-42.53	-64.582	-29.694	69.482	-0.76828	0.51389	-0.32480	0.20013	31.0	13111	100
2025-3-27 18:40:45.845	WT901BLE68-01(48591DE3C19B)	-0.030	-0.936	0.170	-6.226	27.832	-50.781	-75.04	12.67	-42.95	-64.582	-29.694	69.482	-0.76828	0.51389	-0.32480	0.20013	31.0	13111	100
2025-3-27 18:40:45.873	WT901BLE68-01(48591DE3C19B)	-0.094	-0.936	0.170	-6.226	27.832	-50.781	-75.21	12.20	-43.36	-64.582	-29.694	69.482	-0.76828	0.51389	-0.32480	0.20013	31.0	13111	100
2025-3-27 18:40:45.873	WT901BLE68-01(48591DE3C19B)	-0.094	-1.060	0.188	-9.460	40.222	-58.960	-75.43	11.68	-43.92	-64.582	-29.694	69.482	-0.76828	0.51389	-0.32480	0.20013	31.0	13111	100
2025-3-27 18:40:45.873	WT901BLE68-01(48591DE3C19B)	-0.219	-1.060	0.188	-9.460	40.222	-58.960	-75.65	11.17	-44.47	-64.582	-29.694	69.482	-0.76828	0.51389	-0.32480	0.20013	31.0	13111	100
2025-3-27 18:40:45.874	WT901BLE68-01(48591DE3C19B)	-0.219	-1.160	0.259	-10.254	39.307	-69.275	-75.88	10.56	-45.03	-64.582	-29.694	69.482	-0.76828	0.51389	-0.32480	0.20013	31.0	13111	100
2025-3-27 18:40:45.905	WT901BLE68-01(48591DE3C19B)	-0.310	-1.160	0.259	-10.254	39.307	-69.275	-76.09	9.96	-45.58	-64.582	-29.694	69.482	-0.76828	0.51389	-0.32480	0.20013	31.0	13111	100
2025-3-27 18:40:45.905	WT901BLE68-01(48591DE3C19B)	-0.310	-1.183	0.334	-8.911	26.733	-79.529	-76.26	9.23	-46.02	-64.582	-29.694	69.482	-0.76828	0.51389	-0.32480	0.20013	31.0	13111	100
2025-3-27 18:40:45.905	WT901BLE68-01(48591DE3C19B)	-0.345	-1.183	0.334	-8.911	26.733	-79.529	-76.43	8.51	-46.46	-64.582	-29.694	69.482	-0.76828	0.51389	-0.32480	0.20013	31.0	13111	100
2025-3-27 18:40:45.905	WT901BLE68-01(48591DE3C19B)	-0.345	-1.095	0.363	-8.484	9.094	-87.158	-76.56	7.68	-46.74	-64.582	-29.694	69.482	-0.76828	0.51389	-0.32480	0.20013	31.0	13111	100
2025-3-27 18:40:45.964	WT901BLE68-01(48591DE3C19B)	-0.329	-1.095	0.363	-8.484	9.094	-87.158	-76.68	6.87	-47.01	-64.582	-29.694	69.482	-0.76828	0.51389	-0.32480	0.20013	31.0	13111	100
2025-3-27 18:40:45.964	WT901BLE68-01(48591DE3C19B)	-0.329	-0.972	0.354	-9.827	-6.348	-89.966	-76.79	6.00	-47.13	-63.994	-32.144	68.208	-0.76828	0.51389	-0.32480	0.20013	31.0	13111	100
2025-3-27 18:40:45.965	WT901BLE68-01(48591DE3C19B)	-0.326	-0.972	0.354	-9.827	-6.348	-89.966	-76.89	5.15	-47.25	-63.994	-32.144	68.208	-0.76828	0.51389	-0.32480	0.20013	31.0	13111	100
2025-3-27 18:40:45.965	WT901BLE68-01(48591DE3C19B)	-0.326	-0.875	0.335	-11.719	-18.127	-89.111	-77.00	4.28	-47.25	-63.994	-32.144	68.208	-0.76828	0.51389	-0.32480	0.20013	31.0	13111	100
2025-3-27 18:40:46.0	WT901BLE68-01(48591DE3C19B)	-0.332	-0.875	0.335	-11.719	-18.127	-89.111	-77.10	3.42	-47.25	-63.994	-32.144	68.208	-0.76828	0.51389	-0.32480	0.20013	31.0	13111	100
2025-3-27 18:40:46.0	WT901BLE68-01(48591DE3C19B)	-0.332	-0.803	0.337	-14.282	-28.625	-88.501	-77.22	2.55	-47.14	-63.994	-32.144	68.208	-0.76828	0.51389	-0.32480	0.20013	31.0	13111	100
2025-3-27 18:40:46.0	WT901BLE68-01(48591DE3C19B)	-0.286	-0.803	0.337	-14.282	-28.625	-88.501	-77.34	1.70	-47.02	-63.994	-32.144	68.208	-0.76828	0.51389	-0.32480	0.20013	31.0	13111	100
2025-3-27 18:40:46.0	WT901BLE68-01(48591DE3C19B)	-0.286	-0.769	0.351	-17.883	-36.865	-87.769	-77.49	0.85	-46.83	-63.994	-32.144	68.208	-0.76828	0.51389	-0.32480	0.20013	31.0	13111	100
2025-3-27 18:40:46.24	WT901BLE68-01(48591DE3C19B)	-0.258	-0.769	0.351	-17.883	-36.865	-87.769	-77.63	0.00	-46.63	-63.994	-32.144	68.208	-0.76828	0.51389	-0.32480	0.20013	31.0	13111	100
2025-3-27 18:40:46.24	WT901BLE68-01(48591DE3C19B)	-0.258	-0.775	0.372	-20.325	-39.795	-86.060	-77.81	-0.83	-46.40	-63.994	-32.144	68.208	-0.76828	0.51389	-0.32480	0.20013	31.0	13111	100
2025-3-27 18:40:46.24	WT901BLE68-01(48591DE3C19B)	-0.259	-0.775	0.372	-20.325	-39.795	-86.060	-77.98	-1.66	-46.18	-63.994	-32.144	68.208	-0.76828	0.51389	-0.32480	0.20013	31.0	13111	100
2025-3-27 18:40:46.24	WT901BLE68-01(48591DE3C19B)	-0.259	-0.805	0.396	-21.179	-39.368	-84.534	-78.15	-2.46	-45.94	-63.994	-32.144	68.208	-0.76828	0.51389	-0.32480	0.20013	31.0	13111	100
2025-3-27 18:40:46.84	WT901BLE68-01(48591DE3C19B)	-0.268	-0.805	0.396	-21.179	-39.368	-84.534	-78.33	-3.26	-45.71	-63.994	-32.144	68.208	-0.76828	0.51389	-0.32480	0.20013	31.0	13111	100
2025-3-27 18:40:46.84	WT901BLE68-01(48591DE3C19B)	-0.268	-0.852	0.405	-21.667	-35.583	-83.374	-78.50	-4.03	-45.52	-63.994	-32.144	68.208	-0.76828	0.51389	-0.32480	0.20013	31.0	13111	100
2025-3-27 18:40:46.84	WT901BLE68-01(48591DE3C19B)	-0.317	-0.852	0.405	-21.667	-35.583	-83.374	-78.67	-4.80	-45.32	-63.994	-32.144	68.208	-0.76828	0.51389	-0.32480	0.20013	31.0	13111	100
2025-3-27 18:40:46.84	WT901BLE68-01(48591DE3C19B)	-0.317	-0.924	0.444	-18.372	-28.381	-80.750	-78.81	-5.52	-45.19	-63.994	-32.144	68.208	-0.76828	0.51389	-0.32480	0.20013	31.0	13111	100
2025-3-27 18:40:46.116	WT901BLE68-01(48591DE3C19B)	-0.404	-0.924	0.444	-18.372	-28.381	-80.750	-78.94	-6.23	-45.06	-63.994	-32.144	68.208	-0.76828	0.51389	-0.32480	0.20013	31.0	13111	100
2025-3-27 18:40:46.116	WT901BLE68-01(48591DE3C19B)	-0.404	-1.005	0.465	-14.282	-22.278	-77.393	-79.03	-6.90	-44.98	-63.994	-32.144	68.208	-0.76828	0.51389	-0.32480	0.20013	31.0	13111	100
2025-3-27 18:40:46.116	WT901BLE68-01(48591DE3C19B)	-0.432	-1.005	0.465	-14.282	-22.278	-77.393	-79.11	-7.56	-44.90	-63.994	-32.144	68.208	-0.76828	0.51389	-0.32480	0.20013	31.0	13111	100
2025-3-27 18:40:46.116	WT901BLE68-01(48591DE3C19B)	-0.432	-1.090	0.472	-12.512	-19.165	-71.533	-79.18	-8.15	-44.83	-63.994	-32.144	68.208	-0.76828	0.51389	-0.32480	0.20013	31.0	13111	100
2025-3-27 18:40:46.145	WT901BLE68-01(48591DE3C19B)	-0.420	-1.090	0.472	-12.512	-19.165	-71.533	-79.24	-8.73	-44.76	-63.994	-32.144	68.208	-0.76828	0.51389	-0.32480	0.20013	31.0	13111	100
2025-3-27 18:40:46.146	WT901BLE68-01(48591DE3C19B)	-0.420	-1.194	0.471	-11.353	-13.184	-63.721	-79.29	-9.22	-44.74	-63.994	-32.144	68.208	-0.76828	0.51389	-0.32480	0.20013	31.0	13111	100
2025-3-27 18:40:46.146	WT901BLE68-01(48591DE3C19B)	-0.464	-1.194	0.471	-11.353	-13.184	-63.721	-79.34	-9.71	-44.71	-63.994	-32.144	68.208	-0.68817	0.61346	-0.18054	0.34256	31.0	13111	100
2025-3-27 18:40:46.146	WT901BLE68-01(48591DE3C19B)	-0.464	-1.310	0.482	-7.629	-6.897	-53.101	-79.35	-10.07	-44.72	-63.994	-32.144	68.208	-0.68817	0.61346	-0.18054	0.34256	31.0	13111	100
2025-3-27 18:40:46.204	WT901BLE68-01(48591DE3C19B)	-0.508	-1.310	0.482	-7.629	-6.897	-53.101	-79.37	-10.44	-44.73	-63.994	-32.144	68.208	-0.68817	0.61346	-0.18054	0.34256	31.0	13111	100
2025-3-27 18:40:46.204	WT901BLE68-01(48591DE3C19B)	-0.508	-1.367	0.506	-1.770	-0.427	-39.001	-79.31	-10.65	-44.77	-63.994	-32.144	68.208	-0.68817	0.61346	-0.18054	0.34256	31.0	13111	100
2025-3-27 18:40:46.204	WT901BLE68-01(48591DE3C19B)	-0.511	-1.367	0.506	-1.770	-0.427	-39.001	-79.26	-10.86	-44.82	-63.994	-32.144	68.208	-0.68817	0.61346	-0.18054	0.34256	31.0	13111	100
2025-3-27 18:40:46.204	WT901BLE68-01(48591DE3C19B)	-0.511	-1.375	0.513	1.099	9.766	-21.973	-79.17	-10.88	-44.93	-63.994	-32.144	68.208	-0.68817	0.61346	-0.18054	0.34256	31.0	13111	100
2025-3-27 18:40:46.233	WT901BLE68-01(48591DE3C19B)	-0.536	-1.375	0.513	1.099	9.766	-21.973	-79.07	-10.90	-45.04	-63.994	-32.144	68.208	-0.68817	0.61346	-0.18054	0.34256	31.0	13111	100
2025-3-27 18:40:46.233	WT901BLE68-01(48591DE3C19B)	-0.536	-1.408	0.518	1.709	17.883	-5.676	-78.97	-10.74	-45.20	-63.994	-32.144	68.208	-0.68817	0.61346	-0.18054	0.34256	31.0	13111	100
2025-3-27 18:40:46.233	WT901BLE68-01(48591DE3C19B)	-0.616	-1.408	0.518	1.709	17.883	-5.676	-78.87	-10.59	-45.35	-63.994	-32.144	68.208	-0.68817	0.61346	-0.18054	0.34256	31.0	13111	100
2025-3-27 18:40:46.233	WT901BLE68-01(48591DE3C19B)	-0.616	-1.420	0.523	4.456	10.742	10.132	-78.77	-10.29	-45.40	-63.994	-32.144	68.208	-0.68817	0.61346	-0.18054	0.34256	31.0	13111	100
2025-3-27 18:40:46.297	WT901BLE68-01(48591DE3C19B)	-0.660	-1.420	0.523	4.456	10.742	10.132	-78.66	-9.99	-45.44	-63.994	-32.144	68.208	-0.68817	0.61346	-0.18054	0.34256	31.0	13111	100
2025-3-27 18:40:46.297	WT901BLE68-01(48591DE3C19B)	-0.660	-1.317	0.516	8.911	-9.766	27.588	-78.55	-9.56	-45.25	-63.994	-32.144	68.208	-0.68817	0.61346	-0.18054	0.34256	31.0	13111	100
2025-3-27 18:40:46.298	WT901BLE68-01(48591DE3C19B)	-0.638	-1.317	0.516	8.911	-9.766	27.588	-78.45	-9.14	-45.05	-63.994	-32.144	68.208	-0.68817	0.61346	-0.18054	0.34256	31.0	13111	100
2025-3-27 18:40:46.298	WT901BLE68-01(48591DE3C19B)	-0.549	-1.204	0.443	12.390	-35.034	49.866	-78.35	-8.54	-44.55	-63.994	-32.144	68.208	-0.68817	0.61346	-0.18054	0.34256	31.0	13111	100
2025-3-27 18:40:46.324	WT901BLE68-01(48591DE3C19B)	-0.549	-1.071	0.310	18.982	-52.612	78.125	-78.24	-7.82	-43.93	-63.994	-32.144	68.208	-0.68817	0.61346	-0.18054	0.34256	31.0	13111	100
2025-3-27 18:40:46.324	WT901BLE68-01(48591DE3C19B)	-0.432	-1.071	0.310	18.982	-52.612	78.125	-78.10	-6.99	-43.20	-63.994	-32.144	68.208	-0.68817	0.61346	-0.18054	0.34256	31.0	13111	100
2025-3-27 18:40:46.324	WT901BLE68-01(48591DE3C19B)	-0.432	-0.904	0.168	22.278	-63.416	107.056	-77.95	-6.03	-42.39	-63.994	-32.144	68.208	-0.68817	0.61346	-0.18054	0.34256	31.0	13111	100
2025-3-27 18:40:46.324	WT901BLE68-01(48591DE3C19B)	-0.325	-0.904	0.168	22.278	-63.416	107.056	-77.78	-4.94	-41.49	-63.994	-32.144	68.208	-0.68817	0.61346	-0.18054	0.34256	31.0	13111	100
2025-3-27 18:40:46.353	WT901BLE68-01(48591DE3C19B)	-0.325	-0.850	0.084	20.874	-71.777	133.118	-77.61	-3.75	-40.52	-63.994	-32.144	68.208	-0.68817	0.61346	-0.18054	0.34256	31.0	13111	100
2025-3-27 18:40:46.353	WT901BLE68-01(48591DE3C19B)	-0.257	-0.850	0.084	20.874	-71.777	133.118	-77.44	-2.46	-39.49	-63.994	-32.144	68.208	-0.68817	0.61346	-0.18054	0.34256	31.0	13111	100
2025-3-27 18:40:46.353	WT901BLE68-01(48591DE3C19B)	-0.257	-0.945	0.052	19.348	-78.979	150.940	-77.26	-1.09	-38.40	-63.994	-32.144	68.208	-0.68817	0.61346	-0.18054	0.34256	31.0	13111	100
2025-3-27 18:40:46.353	WT901BLE68-01(48591DE3C19B)	-0.239	-0.945	0.052	19.348	-78.979	150.940	-77.06	0.33	-37.25	-55.958	-32.732	68.306	-0.68817	0.61346	-0.18054	0.34256	31.0	13111	100
2025-3-27 18:40:46.386	WT901BLE68-01(48591DE3C19B)	-0.239	-1.107	0.090	23.010	-85.999	161.865	-76.83	1.79	-36.07	-55.958	-32.732	68.306	-0.68817	0.61346	-0.18054	0.34256	31.0	13111	100
2025-3-27 18:40:46.386	WT901BLE68-01(48591DE3C19B)	-0.201	-1.107	0.090	23.010	-85.999	161.865	-76.55	3.27	-34.83	-55.958	-32.732	68.306	-0.68817	0.61346	-0.18054	0.34256	31.0	13111	100
2025-3-27 18:40:46.386	WT901BLE68-01(48591DE3C19B)	-0.201	-1.224	0.138	33.264	-84.473	168.152	-76.19	4.76	-33.60	-55.958	-32.732	68.306	-0.68817	0.61346	-0.18054	0.34256	31.0	13111	100
2025-3-27 18:40:46.386	WT901BLE68-01(48591DE3C19B)	-0.161	-1.224	0.138	33.264	-84.473	168.152	-75.75	6.26	-32.35	-55.958	-32.732	68.306	-0.68817	0.61346	-0.18054	0.34256	31.0	13111	100
2025-3-27 18:40:46.444	WT901BLE68-01(48591DE3C19B)	-0.161	-1.219	0.129	46.692	-68.115	172.791	-75.23	7.78	-31.18	-55.958	-32.732	68.306	-0.68817	0.61346	-0.18054	0.34256	31.0	13111	100
2025-3-27 18:40:46.444	WT901BLE68-01(48591DE3C19B)	-0.145	-1.219	0.129	46.692	-68.115	172.791	-74.62	9.32	-30.07	-55.958	-32.732	68.306	-0.68817	0.61346	-0.18054	0.34256	31.0	13111	100
2025-3-27 18:40:46.445	WT901BLE68-01(48591DE3C19B)	-0.145	-1.069	0.091	55.481	-42.542	175.415	-73.96	10.88	-29.07	-55.958	-32.732	68.306	-0.68817	0.61346	-0.18054	0.34256	31.0	13111	100
2025-3-27 18:40:46.445	WT901BLE68-01(48591DE3C19B)	-0.159	-1.069	0.091	55.481	-42.542	175.415	-73.26	12.46	-28.17	-55.958	-32.732	68.306	-0.68817	0.61346	-0.18054	0.34256	31.0	13111	100
2025-3-27 18:40:46.505	WT901BLE68-01(48591DE3C19B)	-0.159	-0.949	0.046	55.664	-15.930	177.307	-72.56	14.07	-27.38	-55.958	-32.732	68.306	-0.68817	0.61346	-0.18054	0.34256	31.0	13111	100
2025-3-27 18:40:46.506	WT901BLE68-01(48591DE3C19B)	-0.153	-0.949	0.046	55.664	-15.930	177.307	-71.88	15.70	-26.70	-55.958	-32.732	68.306	-0.68817	0.61346	-0.18054	0.34256	31.0	13111	100
2025-3-27 18:40:46.506	WT901BLE68-01(48591DE3C19B)	-0.153	-0.888	0.018	52.246	5.676	180.176	-71.22	17.36	-26.10	-55.958	-32.732	68.306	-0.68817	0.61346	-0.18054	0.34256	31.0	13111	100
2025-3-27 18:40:46.506	WT901BLE68-01(48591DE3C19B)	-0.140	-0.888	0.018	52.246	5.676	180.176	-70.59	19.06	-25.58	-55.958	-32.732	68.306	-0.68817	0.61346	-0.18054	0.34256	31.0	13111	100
2025-3-27 18:40:46.506	WT901BLE68-01(48591DE3C19B)	-0.140	-0.861	-0.005	44.739	19.897	182.922	-70.01	20.77	-25.10	-55.958	-32.732	68.306	-0.68817	0.61346	-0.18054	0.34256	31.0	13111	100
2025-3-27 18:40:46.506	WT901BLE68-01(48591DE3C19B)	-0.124	-0.861	-0.005	44.739	19.897	182.922	-69.47	22.51	-24.68	-55.958	-32.732	68.306	-0.68817	0.61346	-0.18054	0.34256	31.0	13111	100
2025-3-27 18:40:46.506	WT901BLE68-01(48591DE3C19B)	-0.124	-0.938	-0.031	33.752	26.855	184.692	-68.99	24.24	-24.26	-55.958	-32.732	68.306	-0.68817	0.61346	-0.18054	0.34256	31.0	13111	100
2025-3-27 18:40:46.506	WT901BLE68-01(48591DE3C19B)	-0.080	-0.938	-0.031	33.752	26.855	184.692	-68.57	25.99	-23.86	-55.958	-32.732	68.306	-0.68817	0.61346	-0.18054	0.34256	31.0	13111	100
2025-3-27 18:40:46.564	WT901BLE68-01(48591DE3C19B)	-0.080	-1.059	-0.041	24.658	30.457	182.190	-68.18	27.71	-23.47	-55.958	-32.732	68.306	-0.68817	0.61346	-0.18054	0.34256	31.0	13111	100
2025-3-27 18:40:46.564	WT901BLE68-01(48591DE3C19B)	-0.044	-1.059	-0.041	24.658	30.457	182.190	-67.85	29.42	-23.09	-55.958	-32.732	68.306	-0.81470	0.48373	-0.31921	0.01669	31.0	13111	100
2025-3-27 18:40:46.564	WT901BLE68-01(48591DE3C19B)	-0.044	-1.210	-0.047	15.259	31.982	174.255	-67.55	31.07	-22.73	-55.958	-32.732	68.306	-0.81470	0.48373	-0.31921	0.01669	31.0	13111	100
2025-3-27 18:40:46.564	WT901BLE68-01(48591DE3C19B)	-0.047	-1.210	-0.047	15.259	31.982	174.255	-67.31	32.68	-22.38	-55.958	-32.732	68.306	-0.81470	0.48373	-0.31921	0.01669	31.0	13111	100
2025-3-27 18:40:46.599	WT901BLE68-01(48591DE3C19B)	-0.047	-1.422	-0.076	5.920	26.062	156.128	-67.12	34.17	-22.04	-55.958	-32.732	68.306	-0.81470	0.48373	-0.31921	0.01669	31.0	13111	100
2025-3-27 18:40:46.599	WT901BLE68-01(48591DE3C19B)	-0.085	-1.422	-0.076	5.920	26.062	156.128	-66.97	35.56	-21.70	-55.958	-32.732	68.306	-0.81470	0.48373	-0.31921	0.01669	31.0	13111	100
2025-3-27 18:40:46.599	WT901BLE68-01(48591DE3C19B)	-0.085	-1.590	-0.068	0.427	16.663	132.080	-66.84	36.82	-21.36	-55.958	-32.732	68.306	-0.81470	0.48373	-0.31921	0.01669	31.0	13111	100
2025-3-27 18:40:46.599	WT901BLE68-01(48591DE3C19B)	-0.149	-1.590	-0.068	0.427	16.663	132.080	-66.74	37.92	-21.03	-55.958	-32.732	68.306	-0.81470	0.48373	-0.31921	0.01669	31.0	13111	100
2025-3-27 18:40:46.624	WT901BLE68-01(48591DE3C19B)	-0.149	-1.686	-0.024	-3.174	8.972	101.135	-66.67	38.87	-20.72	-55.958	-32.732	68.306	-0.81470	0.48373	-0.31921	0.01669	31.0	13111	100
2025-3-27 18:40:46.624	WT901BLE68-01(48591DE3C19B)	-0.175	-1.686	-0.024	-3.174	8.972	101.135	-66.63	39.66	-20.45	-55.958	-32.732	68.306	-0.81470	0.48373	-0.31921	0.01669	31.0	13111	100
2025-3-27 18:40:46.624	WT901BLE68-01(48591DE3C19B)	-0.175	-1.700	0.063	-6.531	0.671	68.298	-66.63	40.26	-20.21	-55.958	-32.732	68.306	-0.81470	0.48373	-0.31921	0.01669	31.0	13111	100
2025-3-27 18:40:46.624	WT901BLE68-01(48591DE3C19B)	-0.020	-1.700	0.063	-6.531	0.671	68.298	-66.67	40.71	-20.01	-55.958	-32.732	68.306	-0.81470	0.48373	-0.31921	0.01669	31.0	13111	100
2025-3-27 18:40:46.686	WT901BLE68-01(48591DE3C19B)	-0.020	-1.634	0.125	-6.042	-9.705	33.142	-66.71	40.97	-19.83	-55.958	-32.732	68.306	-0.81470	0.48373	-0.31921	0.01669	31.0	13111	100
2025-3-27 18:40:46.686	WT901BLE68-01(48591DE3C19B)	0.289	-1.634	0.125	-6.042	-9.705	33.142	-66.77	41.04	-19.69	-55.958	-32.732	68.306	-0.81470	0.48373	-0.31921	0.01669	31.0	13111	100
2025-3-27 18:40:46.686	WT901BLE68-01(48591DE3C19B)	0.289	-1.490	0.177	-0.549	-8.301	-0.977	-66.87	40.96	-19.64	-55.958	-32.732	68.306	-0.81470	0.48373	-0.31921	0.01669	31.0	13111	100
2025-3-27 18:40:46.686	WT901BLE68-01(48591DE3C19B)	0.409	-1.490	0.177	-0.549	-8.301	-0.977	-67.00	40.71	-19.70	-55.958	-32.732	68.306	-0.81470	0.48373	-0.31921	0.01669	31.0	13111	100
2025-3-27 18:40:46.716	WT901BLE68-01(48591DE3C19B)	0.409	-1.448	0.107	0.000	18.738	-33.447	-67.29	40.36	-20.01	-55.958	-32.732	68.306	-0.81470	0.48373	-0.31921	0.01669	31.0	13111	100
2025-3-27 18:40:46.716	WT901BLE68-01(48591DE3C19B)	0.294	-1.448	0.107	0.000	18.738	-33.447	-67.73	39.90	-20.56	-55.958	-32.732	68.306	-0.81470	0.48373	-0.31921	0.01669	31.0	13111	100
2025-3-27 18:40:46.716	WT901BLE68-01(48591DE3C19B)	0.294	-1.357	0.076	-0.854	53.650	-69.031	-68.34	39.34	-21.39	-55.958	-32.732	68.306	-0.81470	0.48373	-0.31921	0.01669	31.0	13111	100
2025-3-27 18:40:46.716	WT901BLE68-01(48591DE3C19B)	0.195	-1.357	0.076	-0.854	53.650	-69.031	-69.13	38.66	-22.50	-55.958	-32.732	68.306	-0.81470	0.48373	-0.31921	0.01669	31.0	13111	100
2025-3-27 18:40:46.746	WT901BLE68-01(48591DE3C19B)	0.195	-1.251	0.090	-3.540	76.294	-104.614	-70.03	37.84	-23.80	-55.958	-32.732	68.306	-0.81470	0.48373	-0.31921	0.01669	31.0	13111	100
2025-3-27 18:40:46.746	WT901BLE68-01(48591DE3C19B)	0.109	-1.251	0.090	-3.540	76.294	-104.614	-71.03	36.88	-25.26	-55.958	-32.732	68.306	-0.81470	0.48373	-0.31921	0.01669	31.0	13111	100
2025-3-27 18:40:46.746	WT901BLE68-01(48591DE3C19B)	0.109	-1.136	0.141	-2.869	86.731	-132.874	-72.10	35.67	-26.91	-46.648	-27.048	69.678	-0.81470	0.48373	-0.31921	0.01669	31.0	13111	100
2025-3-27 18:40:46.746	WT901BLE68-01(48591DE3C19B)	0.039	-1.136	0.141	-2.869	86.731	-132.874	-73.10	34.43	-28.49	-46.648	-27.048	69.678	-0.81470	0.48373	-0.31921	0.01669	31.0	13111	100
2025-3-27 18:40:46.804	WT901BLE68-01(48591DE3C19B)	0.039	-1.057	0.200	-2.258	84.717	-156.067	-74.06	32.96	-30.08	-46.648	-27.048	69.678	-0.81470	0.48373	-0.31921	0.01669	31.0	13111	100
2025-3-27 18:40:46.804	WT901BLE68-01(48591DE3C19B)	-0.028	-1.057	0.200	-2.258	84.717	-156.067	-74.95	31.48	-31.59	-46.648	-27.048	69.678	-0.81470	0.48373	-0.31921	0.01669	31.0	13111	100
2025-3-27 18:40:46.804	WT901BLE68-01(48591DE3C19B)	-0.028	-1.064	0.227	0.610	73.975	-172.729	-75.70	29.79	-32.98	-46.648	-27.048	69.678	-0.81470	0.48373	-0.31921	0.01669	31.0	13111	100
2025-3-27 18:40:46.804	WT901BLE68-01(48591DE3C19B)	-0.121	-1.064	0.227	0.610	73.975	-172.729	-76.38	28.11	-34.31	-46.648	-27.048	69.678	-0.81470	0.48373	-0.31921	0.01669	31.0	13111	100
2025-3-27 18:40:46.833	WT901BLE68-01(48591DE3C19B)	-0.121	-1.077	0.233	4.700	53.467	-184.875	-76.87	26.26	-35.40	-46.648	-27.048	69.678	-0.81470	0.48373	-0.31921	0.01669	31.0	13111	100
2025-3-27 18:40:46.834	WT901BLE68-01(48591DE3C19B)	-0.181	-1.077	0.233	4.700	53.467	-184.875	-77.31	24.42	-36.45	-46.648	-27.048	69.678	-0.81470	0.48373	-0.31921	0.01669	31.0	13111	100
2025-3-27 18:40:46.834	WT901BLE68-01(48591DE3C19B)	-0.181	-1.056	0.223	5.310	28.198	-195.435	-77.60	22.43	-37.22	-46.648	-27.048	69.678	-0.81470	0.48373	-0.31921	0.01669	31.0	13111	100
2025-3-27 18:40:46.834	WT901BLE68-01(48591DE3C19B)	-0.203	-1.056	0.223	5.310	28.198	-195.435	-77.84	20.46	-37.96	-46.648	-27.048	69.678	-0.81470	0.48373	-0.31921	0.01669	31.0	13111	100
2025-3-27 18:40:46.864	WT901BLE68-01(48591DE3C19B)	-0.203	-1.024	0.208	3.540	11.536	-204.956	-78.02	18.36	-38.53	-46.648	-27.048	69.678	-0.81470	0.48373	-0.31921	0.01669	31.0	13111	100
2025-3-27 18:40:46.864	WT901BLE68-01(48591DE3C19B)	-0.210	-1.024	0.208	3.540	11.536	-204.956	-78.17	16.29	-39.09	-46.648	-27.048	69.678	-0.81470	0.48373	-0.31921	0.01669	31.0	13111	100
2025-3-27 18:40:46.864	WT901BLE68-01(48591DE3C19B)	-0.210	-0.979	0.185	1.343	6.714	-213.257	-78.32	14.15	-39.59	-46.648	-27.048	69.678	-0.81470	0.48373	-0.31921	0.01669	31.0	13111	100
2025-3-27 18:40:46.864	WT901BLE68-01(48591DE3C19B)	-0.205	-0.979	0.185	1.343	6.714	-213.257	-78.43	12.02	-40.09	-46.648	-27.048	69.678	-0.81470	0.48373	-0.31921	0.01669	31.0	13111	100
2025-3-27 18:40:46.926	WT901BLE68-01(48591DE3C19B)	-0.205	-0.914	0.166	-1.160	11.108	-220.093	-78.56	9.84	-40.63	-46.648	-27.048	69.678	-0.81470	0.48373	-0.31921	0.01669	31.0	13111	100
2025-3-27 18:40:46.926	WT901BLE68-01(48591DE3C19B)	-0.222	-0.914	0.166	-1.160	11.108	-220.093	-78.67	7.69	-41.15	-46.648	-27.048	69.678	-0.81470	0.48373	-0.31921	0.01669	31.0	13111	100
2025-3-27 18:40:46.926	WT901BLE68-01(48591DE3C19B)	-0.222	-0.853	0.188	-5.798	17.151	-224.670	-78.82	5.52	-41.74	-46.648	-27.048	69.678	-0.81470	0.48373	-0.31921	0.01669	31.0	13111	100
2025-3-27 18:40:46.926	WT901BLE68-01(48591DE3C19B)	-0.292	-0.853	0.188	-5.798	17.151	-224.670	-78.93	3.36	-42.31	-46.648	-27.048	69.678	-0.81470	0.48373	-0.31921	0.01669	31.0	13111	100
2025-3-27 18:40:46.956	WT901BLE68-01(48591DE3C19B)	-0.292	-0.841	0.256	-11.414	21.118	-225.464	-79.08	1.22	-42.91	-46.648	-27.048	69.678	-0.81470	0.48373	-0.31921	0.01669	31.0	13111	100
2025-3-27 18:40:46.956	WT901BLE68-01(48591DE3C19B)	-0.429	-0.841	0.256	-11.414	21.118	-225.464	-79.19	-0.90	-43.51	-46.648	-27.048	69.678	-0.81470	0.48373	-0.31921	0.01669	31.0	13111	100
2025-3-27 18:40:46.956	WT901BLE68-01(48591DE3C19B)	-0.429	-0.888	0.333	-14.832	23.315	-219.360	-79.33	-2.94	-44.10	-46.648	-27.048	69.678	-0.81470	0.48373	-0.31921	0.01669	31.0	13111	100
2025-3-27 18:40:46.956	WT901BLE68-01(48591DE3C19B)	-0.576	-0.888	0.333	-14.832	23.315	-219.360	-79.43	-4.95	-44.69	-46.648	-27.048	69.678	-0.70026	0.60306	-0.21191	0.31772	31.0	13111	100
2025-3-27 18:40:46.986	WT901BLE68-01(48591DE3C19B)	-0.576	-0.922	0.365	-12.024	24.109	-206.360	-79.48	-6.82	-45.25	-46.648	-27.048	69.678	-0.70026	0.60306	-0.21191	0.31772	31.0	13111	100
2025-3-27 18:40:46.986	WT901BLE68-01(48591DE3C19B)	-0.595	-0.922	0.365	-12.024	24.109	-206.360	-79.50	-8.67	-45.81	-46.648	-27.048	69.678	-0.70026	0.60306	-0.21191	0.31772	31.0	13111	100
2025-3-27 18:40:46.986	WT901BLE68-01(48591DE3C19B)	-0.595	-0.905	0.303	-10.620	19.409	-191.956	-79.51	-10.37	-46.30	-46.648	-27.048	69.678	-0.70026	0.60306	-0.21191	0.31772	31.0	13111	100
2025-3-27 18:40:46.986	WT901BLE68-01(48591DE3C19B)	-0.529	-0.905	0.303	-10.620	19.409	-191.956	-79.50	-12.04	-46.78	-46.648	-27.048	69.678	-0.70026	0.60306	-0.21191	0.31772	31.0	13111	100
2025-3-27 18:40:47.44	WT901BLE68-01(48591DE3C19B)	-0.529	-0.952	0.225	-14.954	3.662	-177.246	-79.57	-13.58	-47.07	-46.648	-27.048	69.678	-0.70026	0.60306	-0.21191	0.31772	31.0	13111	100
2025-3-27 18:40:47.44	WT901BLE68-01(48591DE3C19B)	-0.530	-0.952	0.225	-14.954	3.662	-177.246	-79.63	-15.11	-47.36	-46.648	-27.048	69.678	-0.70026	0.60306	-0.21191	0.31772	31.0	13111	100
2025-3-27 18:40:47.44	WT901BLE68-01(48591DE3C19B)	-0.530	-1.086	0.238	-15.808	-13.184	-158.630	-79.74	-16.47	-47.44	-46.648	-27.048	69.678	-0.70026	0.60306	-0.21191	0.31772	31.0	13111	100
2025-3-27 18:40:47.45	WT901BLE68-01(48591DE3C19B)	-0.625	-1.086	0.238	-15.808	-13.184	-158.630	-79.86	-17.83	-47.52	-46.648	-27.048	69.678	-0.70026	0.60306	-0.21191	0.31772	31.0	13111	100
2025-3-27 18:40:47.73	WT901BLE68-01(48591DE3C19B)	-0.625	-1.191	0.311	-13.428	-25.513	-138.855	-80.00	-19.00	-47.42	-46.648	-27.048	69.678	-0.70026	0.60306	-0.21191	0.31772	31.0	13111	100
2025-3-27 18:40:47.73	WT901BLE68-01(48591DE3C19B)	-0.705	-1.191	0.311	-13.428	-25.513	-138.855	-80.15	-20.15	-47.32	-46.648	-27.048	69.678	-0.70026	0.60306	-0.21191	0.31772	31.0	13111	100
2025-3-27 18:40:47.73	WT901BLE68-01(48591DE3C19B)	-0.705	-1.296	0.372	-13.367	-30.518	-116.882	-80.33	-21.10	-47.13	-46.648	-27.048	69.678	-0.70026	0.60306	-0.21191	0.31772	31.0	13111	100
2025-3-27 18:40:47.73	WT901BLE68-01(48591DE3C19B)	-0.803	-1.296	0.372	-13.367	-30.518	-116.882	-80.51	-22.03	-46.93	-46.648	-27.048	69.678	-0.70026	0.60306	-0.21191	0.31772	31.0	13111	100
2025-3-27 18:40:47.136	WT901BLE68-01(48591DE3C19B)	-0.803	-1.444	0.448	-7.935	-22.644	-89.844	-80.63	-22.68	-46.76	-46.648	-27.048	69.678	-0.70026	0.60306	-0.21191	0.31772	31.0	13111	100
2025-3-27 18:40:47.136	WT901BLE68-01(48591DE3C19B)	-0.841	-1.444	0.448	-7.935	-22.644	-89.844	-80.74	-23.32	-46.59	-46.648	-27.048	69.678	-0.70026	0.60306	-0.21191	0.31772	31.0	13111	100
2025-3-27 18:40:47.137	WT901BLE68-01(48591DE3C19B)	-0.841	-1.492	0.478	2.319	0.244	-59.021	-80.68	-23.62	-46.61	-46.648	-27.048	69.678	-0.70026	0.60306	-0.21191	0.31772	31.0	13111	100
2025-3-27 18:40:47.137	WT901BLE68-01(48591DE3C19B)	-0.795	-1.492	0.478	2.319	0.244	-59.021	-80.62	-23.91	-46.63	-46.648	-27.048	69.678	-0.70026	0.60306	-0.21191	0.31772	31.0	13111	100
2025-3-27 18:40:47.166	WT901BLE68-01(48591DE3C19B)	-0.795	-1.422	0.484	4.517	27.893	-23.376	-80.43	-23.81	-46.88	-46.648	-27.048	69.678	-0.70026	0.60306	-0.21191	0.31772	31.0	13111	100
2025-3-27 18:40:47.166	WT901BLE68-01(48591DE3C19B)	-0.757	-1.422	0.484	4.517	27.893	-23.376	-80.26	-23.70	-47.13	-46.648	-27.048	69.678	-0.70026	0.60306	-0.21191	0.31772	31.0	13111	100
2025-3-27 18:40:47.166	WT901BLE68-01(48591DE3C19B)	-0.757	-1.431	0.483	0.854	51.025	17.212	-80.04	-23.15	-47.55	-46.648	-27.048	69.678	-0.70026	0.60306	-0.21191	0.31772	31.0	13111	100
2025-3-27 18:40:47.166	WT901BLE68-01(48591DE3C19B)	-0.783	-1.431	0.483	0.854	51.025	17.212	-79.84	-22.60	-47.97	-46.648	-27.048	69.678	-0.70026	0.60306	-0.21191	0.31772	31.0	13111	100
2025-3-27 18:40:47.199	WT901BLE68-01(48591DE3C19B)	-0.783	-1.252	0.497	3.906	55.359	57.556	-79.62	-21.65	-48.35	-59.486	-20.874	69.972	-0.70026	0.60306	-0.21191	0.31772	31.0	13111	100
2025-3-27 18:40:47.199	WT901BLE68-01(48591DE3C19B)	-0.775	-1.252	0.497	3.906	55.359	57.556	-79.41	-20.70	-48.72	-59.486	-20.874	69.972	-0.70026	0.60306	-0.21191	0.31772	31.0	13111	100
2025-3-27 18:40:47.199	WT901BLE68-01(48591DE3C19B)	-0.775	-0.995	0.489	1.160	34.607	96.313	-79.34	-19.41	-48.78	-59.486	-20.874	69.972	-0.70026	0.60306	-0.21191	0.31772	31.0	13111	100
2025-3-27 18:40:47.199	WT901BLE68-01(48591DE3C19B)	-0.738	-0.995	0.489	1.160	34.607	96.313	-79.28	-18.12	-48.85	-59.486	-20.874	69.972	-0.70026	0.60306	-0.21191	0.31772	31.0	13111	100
2025-3-27 18:40:47.253	WT901BLE68-01(48591DE3C19B)	-0.632	-0.862	0.441	-2.869	3.357	134.766	-79.37	-16.52	-48.52	-59.486	-20.874	69.972	-0.70026	0.60306	-0.21191	0.31772	31.0	13111	100
2025-3-27 18:40:47.253	WT901BLE68-01(48591DE3C19B)	-0.632	-0.887	0.308	-6.165	-24.597	168.457	-79.51	-14.78	-48.02	-59.486	-20.874	69.972	-0.70026	0.60306	-0.21191	0.31772	31.0	13111	100
2025-3-27 18:40:47.253	WT901BLE68-01(48591DE3C19B)	-0.557	-0.887	0.308	-6.165	-24.597	168.457	-79.70	-12.91	-47.35	-59.486	-20.874	69.972	-0.70026	0.60306	-0.21191	0.31772	31.0	13111	100
2025-3-27 18:40:47.253	WT901BLE68-01(48591DE3C19B)	-0.557	-1.065	0.182	-4.944	-44.800	193.420	-79.88	-10.94	-46.57	-59.486	-20.874	69.972	-0.70026	0.60306	-0.21191	0.31772	31.0	13111	100
2025-3-27 18:40:47.283	WT901BLE68-01(48591DE3C19B)	-0.530	-1.065	0.182	-4.944	-44.800	193.420	-80.06	-8.88	-45.68	-59.486	-20.874	69.972	-0.70026	0.60306	-0.21191	0.31772	31.0	13111	100
2025-3-27 18:40:47.283	WT901BLE68-01(48591DE3C19B)	-0.530	-1.242	0.125	4.822	-59.509	209.106	-80.16	-6.76	-44.72	-59.486	-20.874	69.972	-0.70026	0.60306	-0.21191	0.31772	31.0	13111	100
2025-3-27 18:40:47.283	WT901BLE68-01(48591DE3C19B)	-0.506	-1.242	0.125	4.822	-59.509	209.106	-80.20	-4.60	-43.68	-59.486	-20.874	69.972	-0.70026	0.60306	-0.21191	0.31772	31.0	13111	100
2025-3-27 18:40:47.283	WT901BLE68-01(48591DE3C19B)	-0.506	-1.356	0.101	17.822	-72.266	218.079	-80.15	-2.41	-42.58	-59.486	-20.874	69.972	-0.70026	0.60306	-0.21191	0.31772	31.0	13111	100
2025-3-27 18:40:47.314	WT901BLE68-01(48591DE3C19B)	-0.414	-1.356	0.101	17.822	-72.266	218.079	-79.99	-0.22	-41.42	-59.486	-20.874	69.972	-0.70026	0.60306	-0.21191	0.31772	31.0	13111	100
2025-3-27 18:40:47.314	WT901BLE68-01(48591DE3C19B)	-0.414	-1.426	0.084	31.433	-74.524	224.182	-79.73	1.97	-40.23	-59.486	-20.874	69.972	-0.70026	0.60306	-0.21191	0.31772	31.0	13111	100
2025-3-27 18:40:47.314	WT901BLE68-01(48591DE3C19B)	-0.317	-1.426	0.084	31.433	-74.524	224.182	-79.35	4.17	-39.03	-59.486	-20.874	69.972	-0.70026	0.60306	-0.21191	0.31772	31.0	13111	100
2025-3-27 18:40:47.314	WT901BLE68-01(48591DE3C19B)	-0.317	-1.404	0.062	45.044	-62.073	230.591	-78.88	6.39	-37.86	-59.486	-20.874	69.972	-0.70026	0.60306	-0.21191	0.31772	31.0	13111	100
2025-3-27 18:40:47.373	WT901BLE68-01(48591DE3C19B)	-0.248	-1.404	0.062	45.044	-62.073	230.591	-78.31	8.62	-36.74	-59.486	-20.874	69.972	-0.70026	0.60306	-0.21191	0.31772	31.0	13111	100
2025-3-27 18:40:47.373	WT901BLE68-01(48591DE3C19B)	-0.248	-1.326	0.051	50.720	-43.457	237.671	-77.68	10.87	-35.68	-59.486	-20.874	69.972	-0.75986	0.56766	-0.26569	0.17230	31.0	13111	100
2025-3-27 18:40:47.373	WT901BLE68-01(48591DE3C19B)	-0.200	-1.326	0.051	50.720	-43.457	237.671	-77.00	13.15	-34.67	-59.486	-20.874	69.972	-0.75986	0.56766	-0.26569	0.17230	31.0	13111	100
2025-3-27 18:40:47.373	WT901BLE68-01(48591DE3C19B)	-0.200	-1.275	0.050	50.781	-23.132	245.483	-76.30	15.45	-33.73	-59.486	-20.874	69.972	-0.75986	0.56766	-0.26569	0.17230	31.0	13111	100
2025-3-27 18:40:47.403	WT901BLE68-01(48591DE3C19B)	-0.178	-1.275	0.050	50.781	-23.132	245.483	-75.59	17.79	-32.85	-59.486	-20.874	69.972	-0.75986	0.56766	-0.26569	0.17230	31.0	13111	100
2025-3-27 18:40:47.403	WT901BLE68-01(48591DE3C19B)	-0.178	-1.255	0.057	46.326	-6.348	252.625	-74.89	20.15	-32.01	-59.486	-20.874	69.972	-0.75986	0.56766	-0.26569	0.17230	31.0	13111	100
2025-3-27 18:40:47.403	WT901BLE68-01(48591DE3C19B)	-0.160	-1.255	0.057	46.326	-6.348	252.625	-74.19	22.54	-31.21	-59.486	-20.874	69.972	-0.75986	0.56766	-0.26569	0.17230	31.0	13111	100
2025-3-27 18:40:47.403	WT901BLE68-01(48591DE3C19B)	-0.160	-1.319	0.059	38.147	8.057	256.836	-73.53	24.94	-30.44	-59.486	-20.874	69.972	-0.75986	0.56766	-0.26569	0.17230	31.0	13111	100
2025-3-27 18:40:47.433	WT901BLE68-01(48591DE3C19B)	-0.182	-1.319	0.059	38.147	8.057	256.836	-72.88	27.35	-29.70	-59.486	-20.874	69.972	-0.75986	0.56766	-0.26569	0.17230	31.0	13111	100
2025-3-27 18:40:47.433	WT901BLE68-01(48591DE3C19B)	-0.182	-1.411	0.056	29.541	18.250	256.531	-72.27	29.75	-28.97	-59.486	-20.874	69.972	-0.75986	0.56766	-0.26569	0.17230	31.0	13111	100
2025-3-27 18:40:47.433	WT901BLE68-01(48591DE3C19B)	-0.188	-1.411	0.056	29.541	18.250	256.531	-71.69	32.14	-28.26	-59.486	-20.874	69.972	-0.75986	0.56766	-0.26569	0.17230	31.0	13111	100
2025-3-27 18:40:47.433	WT901BLE68-01(48591DE3C19B)	-0.188	-1.520	0.043	20.874	26.367	253.113	-71.14	34.51	-27.56	-59.486	-20.874	69.972	-0.75986	0.56766	-0.26569	0.17230	31.0	13111	100
2025-3-27 18:40:47.498	WT901BLE68-01(48591DE3C19B)	-0.200	-1.520	0.043	20.874	26.367	253.113	-70.61	36.84	-26.88	-59.486	-20.874	69.972	-0.75986	0.56766	-0.26569	0.17230	31.0	13111	100
2025-3-27 18:40:47.498	WT901BLE68-01(48591DE3C19B)	-0.200	-1.599	0.024	14.160	30.029	247.070	-70.10	39.14	-26.18	-59.486	-20.874	69.972	-0.75986	0.56766	-0.26569	0.17230	31.0	13111	100
2025-3-27 18:40:47.498	WT901BLE68-01(48591DE3C19B)	-0.203	-1.599	0.024	14.160	30.029	247.070	-69.59	41.39	-25.48	-59.486	-20.874	69.972	-0.75986	0.56766	-0.26569	0.17230	31.0	13111	100
2025-3-27 18:40:47.498	WT901BLE68-01(48591DE3C19B)	-0.203	-1.707	0.034	5.554	22.095	231.445	-69.08	43.53	-24.72	-59.486	-20.874	69.972	-0.75986	0.56766	-0.26569	0.17230	31.0	13111	100
2025-3-27 18:40:47.524	WT901BLE68-01(48591DE3C19B)	-0.128	-1.707	0.034	5.554	22.095	231.445	-68.54	45.57	-23.91	-59.486	-20.874	69.972	-0.75986	0.56766	-0.26569	0.17230	31.0	13111	100
2025-3-27 18:40:47.524	WT901BLE68-01(48591DE3C19B)	-0.128	-1.812	0.056	2.075	2.869	203.430	-67.93	47.42	-22.98	-59.486	-20.874	69.972	-0.75986	0.56766	-0.26569	0.17230	31.0	13111	100
2025-3-27 18:40:47.524	WT901BLE68-01(48591DE3C19B)	-0.020	-1.812	0.056	2.075	2.869	203.430	-67.24	49.09	-21.95	-59.486	-20.874	69.972	-0.75986	0.56766	-0.26569	0.17230	31.0	13111	100
2025-3-27 18:40:47.524	WT901BLE68-01(48591DE3C19B)	-0.020	-1.896	0.071	0.610	-21.790	167.786	-66.43	50.52	-20.79	-59.486	-20.874	69.972	-0.75986	0.56766	-0.26569	0.17230	31.0	13111	100
2025-3-27 18:40:47.553	WT901BLE68-01(48591DE3C19B)	0.171	-1.896	0.071	0.610	-21.790	167.786	-65.53	51.72	-19.51	-59.486	-20.874	69.972	-0.75986	0.56766	-0.26569	0.17230	31.0	13111	100
2025-3-27 18:40:47.553	WT901BLE68-01(48591DE3C19B)	0.171	-1.858	0.104	6.348	-37.292	128.723	-64.57	52.68	-18.20	-59.486	-20.874	69.972	-0.75986	0.56766	-0.26569	0.17230	31.0	13111	100
2025-3-27 18:40:47.553	WT901BLE68-01(48591DE3C19B)	0.285	-1.858	0.104	6.348	-37.292	128.723	-63.54	53.41	-16.87	-39.102	-18.326	77.616	-0.75986	0.56766	-0.26569	0.17230	31.0	13111	100
2025-3-27 18:40:47.553	WT901BLE68-01(48591DE3C19B)	0.285	-1.535	0.204	6.287	-34.363	81.909	-62.65	53.92	-15.71	-39.102	-18.326	77.616	-0.75986	0.56766	-0.26569	0.17230	31.0	13111	100
2025-3-27 18:40:47.643	WT901BLE68-01(48591DE3C19B)	0.367	-1.535	0.204	6.287	-34.363	81.909	-61.91	54.20	-14.75	-39.102	-18.326	77.616	-0.75986	0.56766	-0.26569	0.17230	31.0	13111	100
2025-3-27 18:40:47.644	WT901BLE68-01(48591DE3C19B)	0.367	-1.325	0.256	0.854	-12.695	33.936	-61.47	54.32	-14.14	-39.102	-18.326	77.616	-0.75986	0.56766	-0.26569	0.17230	31.0	13111	100
2025-3-27 18:40:47.644	WT901BLE68-01(48591DE3C19B)	0.441	-1.325	0.256	0.854	-12.695	33.936	-61.36	54.26	-13.89	-39.102	-18.326	77.616	-0.75986	0.56766	-0.26569	0.17230	31.0	13111	100
2025-3-27 18:40:47.644	WT901BLE68-01(48591DE3C19B)	0.441	-1.136	0.161	6.958	41.382	-10.193	-61.69	54.14	-14.24	-39.102	-18.326	77.616	-0.75986	0.56766	-0.26569	0.17230	31.0	13111	100
2025-3-27 18:40:47.644	WT901BLE68-01(48591DE3C19B)	0.430	-1.136	0.161	6.958	41.382	-10.193	-62.46	53.93	-15.16	-39.102	-18.326	77.616	-0.75986	0.56766	-0.26569	0.17230	31.0	13111	100
2025-3-27 18:40:47.644	WT901BLE68-01(48591DE3C19B)	0.430	-0.885	0.105	7.568	89.722	-49.377	-63.62	53.65	-16.58	-39.102	-18.326	77.616	-0.75986	0.56766	-0.26569	0.17230	31.0	13111	100
2025-3-27 18:40:47.645	WT901BLE68-01(48591DE3C19B)	0.316	-0.885	0.105	7.568	89.722	-49.377	-65.16	53.27	-18.49	-39.102	-18.326	77.616	-0.75986	0.56766	-0.26569	0.17230	31.0	13111	100
2025-3-27 18:40:47.645	WT901BLE68-01(48591DE3C19B)	0.316	-0.846	0.090	0.793	112.183	-86.853	-66.92	52.72	-20.65	-39.102	-18.326	77.616	-0.75986	0.56766	-0.26569	0.17230	31.0	13111	100
2025-3-27 18:40:47.674	WT901BLE68-01(48591DE3C19B)	0.139	-0.846	0.090	0.793	112.183	-86.853	-68.86	52.00	-23.03	-39.102	-18.326	77.616	-0.75986	0.56766	-0.26569	0.17230	31.0	13111	100
2025-3-27 18:40:47.674	WT901BLE68-01(48591DE3C19B)	0.139	-0.970	0.078	-2.075	108.521	-119.873	-70.78	51.08	-25.37	-39.102	-18.326	77.616	-0.75986	0.56766	-0.26569	0.17230	31.0	13111	100
2025-3-27 18:40:47.674	WT901BLE68-01(48591DE3C19B)	-0.062	-0.970	0.078	-2.075	108.521	-119.873	-72.63	49.94	-27.66	-39.102	-18.326	77.616	-0.75986	0.56766	-0.26569	0.17230	31.0	13111	100
2025-3-27 18:40:47.675	WT901BLE68-01(48591DE3C19B)	-0.062	-1.070	0.095	1.587	84.106	-149.292	-74.14	48.43	-29.60	-39.102	-18.326	77.616	-0.75986	0.56766	-0.26569	0.17230	31.0	13111	100
2025-3-27 18:40:47.734	WT901BLE68-01(48591DE3C19B)	-0.203	-1.070	0.095	1.587	84.106	-149.292	-75.52	46.90	-31.42	-39.102	-18.326	77.616	-0.75986	0.56766	-0.26569	0.17230	31.0	13111	100
2025-3-27 18:40:47.734	WT901BLE68-01(48591DE3C19B)	-0.203	-1.125	0.111	9.644	43.884	-173.950	-76.36	45.02	-32.65	-39.102	-18.326	77.616	-0.75986	0.56766	-0.26569	0.17230	31.0	13111	100
2025-3-27 18:40:47.734	WT901BLE68-01(48591DE3C19B)	-0.246	-1.125	0.111	9.644	43.884	-173.950	-77.11	43.15	-33.79	-39.102	-18.326	77.616	-0.75986	0.56766	-0.26569	0.17230	31.0	13111	100
2025-3-27 18:40:47.734	WT901BLE68-01(48591DE3C19B)	-0.246	-1.103	0.183	14.099	5.371	-191.223	-77.44	41.03	-34.41	-39.102	-18.326	77.616	-0.75986	0.56766	-0.26569	0.17230	31.0	13111	100
2025-3-27 18:40:47.763	WT901BLE68-01(48591DE3C19B)	-0.273	-1.103	0.183	14.099	5.371	-191.223	-77.72	38.94	-35.00	-39.102	-18.326	77.616	-0.75986	0.56766	-0.26569	0.17230	31.0	13111	100
2025-3-27 18:40:47.763	WT901BLE68-01(48591DE3C19B)	-0.273	-1.043	0.202	11.963	-25.452	-208.679	-77.78	36.62	-35.22	-39.102	-18.326	77.616	-0.75986	0.56766	-0.26569	0.17230	31.0	13111	100
2025-3-27 18:40:47.763	WT901BLE68-01(48591DE3C19B)	-0.263	-1.043	0.202	11.963	-25.452	-208.679	-77.82	34.33	-35.43	-39.102	-18.326	77.616	-0.75986	0.56766	-0.26569	0.17230	31.0	13111	100
2025-3-27 18:40:47.763	WT901BLE68-01(48591DE3C19B)	-0.263	-0.971	0.184	7.996	-45.410	-220.581	-77.78	31.90	-35.42	-39.102	-18.326	77.616	-0.76563	0.51392	-0.38040	0.07007	31.0	13111	100
2025-3-27 18:40:47.799	WT901BLE68-01(48591DE3C19B)	-0.217	-0.971	0.184	7.996	-45.410	-220.581	-77.73	29.49	-35.41	-39.102	-18.326	77.616	-0.76563	0.51392	-0.38040	0.07007	31.0	13111	100
2025-3-27 18:40:47.799	WT901BLE68-01(48591DE3C19B)	-0.217	-0.904	0.167	1.099	-47.546	-230.896	-77.76	27.00	-35.41	-39.102	-18.326	77.616	-0.76563	0.51392	-0.38040	0.07007	31.0	13111	100
2025-3-27 18:40:47.799	WT901BLE68-01(48591DE3C19B)	-0.179	-0.904	0.167	1.099	-47.546	-230.896	-77.78	24.52	-35.41	-39.102	-18.326	77.616	-0.76563	0.51392	-0.38040	0.07007	31.0	13111	100
2025-3-27 18:40:47.799	WT901BLE68-01(48591DE3C19B)	-0.179	-0.888	0.165	-6.226	-32.837	-240.417	-77.94	22.00	-35.58	-39.102	-18.326	77.616	-0.76563	0.51392	-0.38040	0.07007	31.0	13111	100
2025-3-27 18:40:47.853	WT901BLE68-01(48591DE3C19B)	-0.225	-0.888	0.165	-6.226	-32.837	-240.417	-78.09	19.50	-35.74	-39.102	-18.326	77.616	-0.76563	0.51392	-0.38040	0.07007	31.0	13111	100
2025-3-27 18:40:47.853	WT901BLE68-01(48591DE3C19B)	-0.225	-0.914	0.186	-11.597	-11.841	-248.962	-78.35	16.97	-36.12	-39.102	-18.326	77.616	-0.76563	0.51392	-0.38040	0.07007	31.0	13111	100
2025-3-27 18:40:47.853	WT901BLE68-01(48591DE3C19B)	-0.348	-0.914	0.186	-11.597	-11.841	-248.962	-78.59	14.46	-36.47	-39.102	-18.326	77.616	-0.76563	0.51392	-0.38040	0.07007	31.0	13111	100
2025-3-27 18:40:47.854	WT901BLE68-01(48591DE3C19B)	-0.348	-0.993	0.232	-14.893	4.150	-251.465	-78.87	11.98	-36.99	-39.102	-18.326	77.616	-0.76563	0.51392	-0.38040	0.07007	31.0	13111	100
2025-3-27 18:40:47.883	WT901BLE68-01(48591DE3C19B)	-0.478	-0.993	0.232	-14.893	4.150	-251.465	-79.13	9.51	-37.47	-39.102	-18.326	77.616	-0.76563	0.51392	-0.38040	0.07007	31.0	13111	100
2025-3-27 18:40:47.883	WT901BLE68-01(48591DE3C19B)	-0.478	-1.091	0.239	-14.404	13.672	-249.634	-79.37	7.10	-38.03	-39.102	-18.326	77.616	-0.76563	0.51392	-0.38040	0.07007	31.0	13111	100
2025-3-27 18:40:47.883	WT901BLE68-01(48591DE3C19B)	-0.593	-1.091	0.239	-14.404	13.672	-249.634	-79.57	4.72	-38.58	-39.102	-18.326	77.616	-0.76563	0.51392	-0.38040	0.07007	31.0	13111	100
2025-3-27 18:40:47.883	WT901BLE68-01(48591DE3C19B)	-0.593	-1.130	0.224	-11.658	13.184	-242.798	-79.73	2.42	-39.09	-39.102	-18.326	77.616	-0.76563	0.51392	-0.38040	0.07007	31.0	13111	100
2025-3-27 18:40:47.944	WT901BLE68-01(48591DE3C19B)	-0.716	-1.130	0.224	-11.658	13.184	-242.798	-79.87	0.14	-39.60	-39.102	-18.326	77.616	-0.76563	0.51392	-0.38040	0.07007	31.0	13111	100
2025-3-27 18:40:47.944	WT901BLE68-01(48591DE3C19B)	-0.716	-1.193	0.187	-13.123	-0.671	-229.919	-80.00	-2.01	-39.94	-39.102	-18.326	77.616	-0.76563	0.51392	-0.38040	0.07007	31.0	13111	100
2025-3-27 18:40:47.944	WT901BLE68-01(48591DE3C19B)	-0.759	-1.193	0.187	-13.123	-0.671	-229.919	-80.12	-4.14	-40.26	-39.102	-18.326	77.616	-0.76563	0.51392	-0.38040	0.07007	31.0	13111	100
2025-3-27 18:40:47.944	WT901BLE68-01(48591DE3C19B)	-0.759	-1.288	0.185	-12.024	-21.240	-213.379	-80.24	-6.13	-40.36	-39.102	-18.326	77.616	-0.76563	0.51392	-0.38040	0.07007	31.0	13111	100
2025-3-27 18:40:47.973	WT901BLE68-01(48591DE3C19B)	-0.750	-1.288	0.185	-12.024	-21.240	-213.379	-80.36	-8.10	-40.44	-39.102	-18.326	77.616	-0.76563	0.51392	-0.38040	0.07007	31.0	13111	100
2025-3-27 18:40:47.973	WT901BLE68-01(48591DE3C19B)	-0.750	-1.337	0.245	-10.498	-31.311	-193.176	-80.48	-9.87	-40.39	-39.102	-18.326	77.616	-0.76563	0.51392	-0.38040	0.07007	31.0	13111	100
2025-3-27 18:40:47.973	WT901BLE68-01(48591DE3C19B)	-0.774	-1.337	0.245	-10.498	-31.311	-193.176	-80.60	-11.62	-40.33	-39.102	-18.326	77.616	-0.76563	0.51392	-0.38040	0.07007	31.0	13111	100
2025-3-27 18:40:47.973	WT901BLE68-01(48591DE3C19B)	-0.774	-1.440	0.324	-14.404	-27.527	-171.021	-80.76	-13.14	-40.26	-39.102	-18.326	77.616	-0.76563	0.51392	-0.38040	0.07007	31.0	13111	100
2025-3-27 18:40:48.3	WT901BLE68-01(48591DE3C19B)	-0.792	-1.440	0.324	-14.404	-27.527	-171.021	-80.92	-14.64	-40.20	-57.820	-11.466	78.988	-0.76563	0.51392	-0.38040	0.07007	31.0	13111	100
2025-3-27 18:40:48.3	WT901BLE68-01(48591DE3C19B)	-0.792	-1.608	0.376	-13.672	-6.653	-149.109	-81.02	-15.89	-40.31	-57.820	-11.466	78.988	-0.76563	0.51392	-0.38040	0.07007	31.0	13111	100
2025-3-27 18:40:48.3	WT901BLE68-01(48591DE3C19B)	-0.775	-1.608	0.376	-13.672	-6.653	-149.109	-81.12	-17.13	-40.42	-57.820	-11.466	78.988	-0.76563	0.51392	-0.38040	0.07007	31.0	13111	100
2025-3-27 18:40:48.3	WT901BLE68-01(48591DE3C19B)	-0.775	-1.665	0.411	-10.498	31.677	-123.230	-81.07	-18.05	-40.88	-57.820	-11.466	78.988	-0.76563	0.51392	-0.38040	0.07007	31.0	13111	100
2025-3-27 18:40:48.33	WT901BLE68-01(48591DE3C19B)	-0.800	-1.665	0.411	-10.498	31.677	-123.230	-81.02	-18.96	-41.35	-57.820	-11.466	78.988	-0.76563	0.51392	-0.38040	0.07007	31.0	13111	100
2025-3-27 18:40:48.33	WT901BLE68-01(48591DE3C19B)	-0.800	-1.591	0.425	-7.996	77.393	-92.773	-80.79	-19.50	-42.24	-57.820	-11.466	78.988	-0.76563	0.51392	-0.38040	0.07007	31.0	13111	100
2025-3-27 18:40:48.33	WT901BLE68-01(48591DE3C19B)	-0.847	-1.591	0.425	-7.996	77.393	-92.773	-80.56	-20.02	-43.14	-57.820	-11.466	78.988	-0.76563	0.51392	-0.38040	0.07007	31.0	13111	100
2025-3-27 18:40:48.33	WT901BLE68-01(48591DE3C19B)	-0.847	-1.374	0.406	-7.324	108.765	-58.716	-80.21	-20.15	-44.30	-57.820	-11.466	78.988	-0.76563	0.51392	-0.38040	0.07007	31.0	13111	100
2025-3-27 18:40:48.99	WT901BLE68-01(48591DE3C19B)	-0.926	-1.374	0.406	-7.324	108.765	-58.716	-79.87	-20.28	-45.47	-57.820	-11.466	78.988	-0.76563	0.51392	-0.38040	0.07007	31.0	13111	100
2025-3-27 18:40:48.99	WT901BLE68-01(48591DE3C19B)	-0.926	-1.116	0.399	-9.155	101.868	-23.865	-79.60	-20.06	-46.48	-57.820	-11.466	78.988	-0.76563	0.51392	-0.38040	0.07007	31.0	13111	100
2025-3-27 18:40:48.99	WT901BLE68-01(48591DE3C19B)	-0.970	-1.116	0.399	-9.155	101.868	-23.865	-79.33	-19.82	-47.49	-57.820	-11.466	78.988	-0.76563	0.51392	-0.38040	0.07007	31.0	13111	100
2025-3-27 18:40:48.99	WT901BLE68-01(48591DE3C19B)	-0.970	-0.893	0.404	-10.132	61.279	10.437	-79.25	-19.32	-48.00	-57.820	-11.466	78.988	-0.76563	0.51392	-0.38040	0.07007	31.0	13111	100
2025-3-27 18:40:48.126	WT901BLE68-01(48591DE3C19B)	-0.955	-0.893	0.404	-10.132	61.279	10.437	-79.17	-18.82	-48.51	-57.820	-11.466	78.988	-0.76563	0.51392	-0.38040	0.07007	31.0	13111	100
2025-3-27 18:40:48.126	WT901BLE68-01(48591DE3C19B)	-0.955	-0.759	0.364	-14.343	9.399	46.082	-79.34	-18.06	-48.40	-57.820	-11.466	78.988	-0.76563	0.51392	-0.38040	0.07007	31.0	13111	100
2025-3-27 18:40:48.126	WT901BLE68-01(48591DE3C19B)	-0.882	-0.759	0.364	-14.343	9.399	46.082	-79.50	-17.29	-48.29	-57.820	-11.466	78.988	-0.76563	0.51392	-0.38040	0.07007	31.0	13111	100
2025-3-27 18:40:48.126	WT901BLE68-01(48591DE3C19B)	-0.768	-0.732	0.261	-15.564	-43.945	81.482	-79.85	-16.27	-47.57	-57.820	-11.466	78.988	-0.76563	0.51392	-0.38040	0.07007	31.0	13111	100
2025-3-27 18:40:48.156	WT901BLE68-01(48591DE3C19B)	-0.768	-0.758	0.143	-12.146	-87.341	113.770	-80.23	-15.12	-46.60	-57.820	-11.466	78.988	-0.76563	0.51392	-0.38040	0.07007	31.0	13111	100
2025-3-27 18:40:48.156	WT901BLE68-01(48591DE3C19B)	-0.662	-0.758	0.143	-12.146	-87.341	113.770	-80.64	-13.84	-45.41	-57.820	-11.466	78.988	-0.76563	0.51392	-0.38040	0.07007	31.0	13111	100
2025-3-27 18:40:48.156	WT901BLE68-01(48591DE3C19B)	-0.662	-0.833	0.063	-5.493	-117.493	141.235	-81.02	-12.45	-44.06	-57.820	-11.466	78.988	-0.67413	0.62955	-0.16574	0.34879	31.0	13111	100
2025-3-27 18:40:48.156	WT901BLE68-01(48591DE3C19B)	-0.557	-0.833	0.063	-5.493	-117.493	141.235	-81.38	-10.95	-42.55	-57.820	-11.466	78.988	-0.67413	0.62955	-0.16574	0.34879	31.0	13111	100
2025-3-27 18:40:48.214	WT901BLE68-01(48591DE3C19B)	-0.557	-0.918	0.044	4.333	-128.601	161.987	-81.65	-9.36	-40.99	-57.820	-11.466	78.988	-0.67413	0.62955	-0.16574	0.34879	31.0	13111	100
2025-3-27 18:40:48.214	WT901BLE68-01(48591DE3C19B)	-0.468	-0.918	0.044	4.333	-128.601	161.987	-81.84	-7.68	-39.39	-57.820	-11.466	78.988	-0.67413	0.62955	-0.16574	0.34879	31.0	13111	100
2025-3-27 18:40:48.214	WT901BLE68-01(48591DE3C19B)	-0.468	-1.013	0.069	16.235	-123.718	175.720	-81.93	-5.93	-37.81	-57.820	-11.466	78.988	-0.67413	0.62955	-0.16574	0.34879	31.0	13111	100
2025-3-27 18:40:48.214	WT901BLE68-01(48591DE3C19B)	-0.396	-1.013	0.069	16.235	-123.718	175.720	-81.90	-4.13	-36.27	-57.820	-11.466	78.988	-0.67413	0.62955	-0.16574	0.34879	31.0	13111	100
2025-3-27 18:40:48.304	WT901BLE68-01(48591DE3C19B)	-0.396	-1.108	0.126	27.649	-108.704	185.730	-81.77	-2.29	-34.80	-57.820	-11.466	78.988	-0.67413	0.62955	-0.16574	0.34879	31.0	13111	100
2025-3-27 18:40:48.304	WT901BLE68-01(48591DE3C19B)	-0.331	-1.108	0.126	27.649	-108.704	185.730	-81.53	-0.41	-33.41	-57.820	-11.466	78.988	-0.67413	0.62955	-0.16574	0.34879	31.0	13111	100
2025-3-27 18:40:48.304	WT901BLE68-01(48591DE3C19B)	-0.331	-1.200	0.179	39.368	-83.679	193.665	-81.19	1.50	-32.13	-57.820	-11.466	78.988	-0.67413	0.62955	-0.16574	0.34879	31.0	13111	100
2025-3-27 18:40:48.304	WT901BLE68-01(48591DE3C19B)	-0.289	-1.200	0.179	39.368	-83.679	193.665	-80.76	3.44	-30.96	-57.820	-11.466	78.988	-0.67413	0.62955	-0.16574	0.34879	31.0	13111	100
2025-3-27 18:40:48.305	WT901BLE68-01(48591DE3C19B)	-0.289	-1.220	0.164	51.086	-47.302	200.745	-80.23	5.42	-29.97	-57.820	-11.466	78.988	-0.67413	0.62955	-0.16574	0.34879	31.0	13111	100
2025-3-27 18:40:48.305	WT901BLE68-01(48591DE3C19B)	-0.292	-1.220	0.164	51.086	-47.302	200.745	-79.64	7.43	-29.12	-57.820	-11.466	78.988	-0.67413	0.62955	-0.16574	0.34879	31.0	13111	100
2025-3-27 18:40:48.305	WT901BLE68-01(48591DE3C19B)	-0.292	-1.127	0.119	57.617	-11.292	207.214	-79.01	9.48	-28.43	-57.820	-11.466	78.988	-0.67413	0.62955	-0.16574	0.34879	31.0	13111	100
2025-3-27 18:40:48.305	WT901BLE68-01(48591DE3C19B)	-0.298	-1.127	0.119	57.617	-11.292	207.214	-78.35	11.57	-27.89	-57.820	-11.466	78.988	-0.67413	0.62955	-0.16574	0.34879	31.0	13111	100
2025-3-27 18:40:48.335	WT901BLE68-01(48591DE3C19B)	-0.298	-1.063	0.080	54.565	14.587	213.135	-77.72	13.69	-27.44	-57.820	-11.466	78.988	-0.67413	0.62955	-0.16574	0.34879	31.0	13111	100
2025-3-27 18:40:48.336	WT901BLE68-01(48591DE3C19B)	-0.307	-1.063	0.080	54.565	14.587	213.135	-77.12	15.84	-27.10	-57.820	-11.466	78.988	-0.67413	0.62955	-0.16574	0.34879	31.0	13111	100
2025-3-27 18:40:48.336	WT901BLE68-01(48591DE3C19B)	-0.307	-1.092	0.053	46.570	29.175	217.407	-76.56	18.02	-26.80	-57.820	-11.466	78.988	-0.67413	0.62955	-0.16574	0.34879	31.0	13111	100
2025-3-27 18:40:48.336	WT901BLE68-01(48591DE3C19B)	-0.328	-1.092	0.053	46.570	29.175	217.407	-76.06	20.21	-26.55	-57.820	-11.466	78.988	-0.67413	0.62955	-0.16574	0.34879	31.0	13111	100
2025-3-27 18:40:48.365	WT901BLE68-01(48591DE3C19B)	-0.328	-1.156	0.034	36.072	28.992	220.703	-75.59	22.40	-26.27	-57.820	-11.466	78.988	-0.67413	0.62955	-0.16574	0.34879	31.0	13111	100
2025-3-27 18:40:48.366	WT901BLE68-01(48591DE3C19B)	-0.333	-1.156	0.034	36.072	28.992	220.703	-75.16	24.59	-25.97	-57.820	-11.466	78.988	-0.67413	0.62955	-0.16574	0.34879	31.0	13111	100
2025-3-27 18:40:48.366	WT901BLE68-01(48591DE3C19B)	-0.333	-1.248	0.028	23.865	17.517	222.107	-74.75	26.75	-25.58	-57.820	-11.466	78.988	-0.67413	0.62955	-0.16574	0.34879	31.0	13111	100
2025-3-27 18:40:48.366	WT901BLE68-01(48591DE3C19B)	-0.324	-1.248	0.028	23.865	17.517	222.107	-74.35	28.88	-25.10	-44.982	-8.722	81.046	-0.67413	0.62955	-0.16574	0.34879	31.0	13111	100
2025-3-27 18:40:48.399	WT901BLE68-01(48591DE3C19B)	-0.324	-1.418	-0.005	9.705	-3.174	216.431	-73.95	30.94	-24.50	-44.982	-8.722	81.046	-0.67413	0.62955	-0.16574	0.34879	31.0	13111	100
2025-3-27 18:40:48.399	WT901BLE68-01(48591DE3C19B)	-0.276	-1.418	-0.005	9.705	-3.174	216.431	-73.53	32.93	-23.76	-44.982	-8.722	81.046	-0.67413	0.62955	-0.16574	0.34879	31.0	13111	100
2025-3-27 18:40:48.399	WT901BLE68-01(48591DE3C19B)	-0.276	-1.658	-0.014	1.282	-21.973	203.369	-73.08	34.80	-22.91	-44.982	-8.722	81.046	-0.67413	0.62955	-0.16574	0.34879	31.0	13111	100
2025-3-27 18:40:48.399	WT901BLE68-01(48591DE3C19B)	-0.268	-1.658	-0.014	1.282	-21.973	203.369	-72.58	36.56	-21.95	-44.982	-8.722	81.046	-0.67413	0.62955	-0.16574	0.34879	31.0	13111	100
2025-3-27 18:40:48.454	WT901BLE68-01(48591DE3C19B)	-0.268	-1.865	0.012	-0.488	-34.607	184.204	-72.02	38.19	-20.91	-44.982	-8.722	81.046	-0.67413	0.62955	-0.16574	0.34879	31.0	13111	100
2025-3-27 18:40:48.454	WT901BLE68-01(48591DE3C19B)	-0.308	-1.865	0.012	-0.488	-34.607	184.204	-71.41	39.69	-19.79	-44.982	-8.722	81.046	-0.67413	0.62955	-0.16574	0.34879	31.0	13111	100
2025-3-27 18:40:48.454	WT901BLE68-01(48591DE3C19B)	-0.308	-1.887	0.055	1.343	-50.293	158.752	-70.72	41.02	-18.60	-44.982	-8.722	81.046	-0.67413	0.62955	-0.16574	0.34879	31.0	13111	100
2025-3-27 18:40:48.454	WT901BLE68-01(48591DE3C19B)	-0.250	-1.887	0.055	1.343	-50.293	158.752	-69.94	42.18	-17.32	-44.982	-8.722	81.046	-0.67413	0.62955	-0.16574	0.34879	31.0	13111	100
2025-3-27 18:40:48.514	WT901BLE68-01(48591DE3C19B)	-0.250	-1.862	0.091	-4.700	-64.941	128.296	-69.15	43.15	-15.99	-44.982	-8.722	81.046	-0.67413	0.62955	-0.16574	0.34879	31.0	13111	100
2025-3-27 18:40:48.514	WT901BLE68-01(48591DE3C19B)	-0.049	-1.862	0.091	-4.700	-64.941	128.296	-68.33	43.93	-14.61	-44.982	-8.722	81.046	-0.67413	0.62955	-0.16574	0.34879	31.0	13111	100
2025-3-27 18:40:48.514	WT901BLE68-01(48591DE3C19B)	-0.049	-1.818	0.145	-5.615	-67.688	98.755	-67.53	44.55	-13.26	-44.982	-8.722	81.046	-0.67413	0.62955	-0.16574	0.34879	31.0	13111	100
2025-3-27 18:40:48.514	WT901BLE68-01(48591DE3C19B)	0.191	-1.818	0.145	-5.615	-67.688	98.755	-66.76	45.00	-11.96	-44.982	-8.722	81.046	-0.67413	0.62955	-0.16574	0.34879	31.0	13111	100
2025-3-27 18:40:48.516	WT901BLE68-01(48591DE3C19B)	0.191	-1.668	0.170	-0.732	-45.837	73.547	-66.11	45.36	-10.86	-44.982	-8.722	81.046	-0.67413	0.62955	-0.16574	0.34879	31.0	13111	100
2025-3-27 18:40:48.516	WT901BLE68-01(48591DE3C19B)	0.435	-1.668	0.170	-0.732	-45.837	73.547	-65.57	45.64	-9.98	-44.982	-8.722	81.046	-0.67413	0.62955	-0.16574	0.34879	31.0	13111	100
2025-3-27 18:40:48.516	WT901BLE68-01(48591DE3C19B)	0.435	-1.498	0.128	9.399	-7.751	48.218	-65.22	45.86	-9.42	-44.982	-8.722	81.046	-0.67413	0.62955	-0.16574	0.34879	31.0	13111	100
2025-3-27 18:40:48.516	WT901BLE68-01(48591DE3C19B)	0.595	-1.498	0.128	9.399	-7.751	48.218	-65.04	46.04	-9.18	-44.982	-8.722	81.046	-0.67413	0.62955	-0.16574	0.34879	31.0	13111	100
2025-3-27 18:40:48.633	WT901BLE68-01(48591DE3C19B)	0.595	-1.211	0.040	12.634	23.621	15.625	-65.08	46.12	-9.26	-44.982	-8.722	81.046	-0.67413	0.62955	-0.16574	0.34879	31.0	13111	100
2025-3-27 18:40:48.633	WT901BLE68-01(48591DE3C19B)	0.599	-1.211	0.040	12.634	23.621	15.625	-65.32	46.11	-9.65	-44.982	-8.722	81.046	-0.67413	0.62955	-0.16574	0.34879	31.0	13111	100
2025-3-27 18:40:48.633	WT901BLE68-01(48591DE3C19B)	0.599	-1.024	0.030	6.531	61.218	-20.142	-65.84	46.00	-10.39	-44.982	-8.722	81.046	-0.67413	0.62955	-0.16574	0.34879	31.0	13111	100
2025-3-27 18:40:48.634	WT901BLE68-01(48591DE3C19B)	0.476	-1.024	0.030	6.531	61.218	-20.142	-66.65	45.79	-11.48	-44.982	-8.722	81.046	-0.67413	0.62955	-0.16574	0.34879	31.0	13111	100
2025-3-27 18:40:48.635	WT901BLE68-01(48591DE3C19B)	0.476	-1.015	0.052	1.831	95.459	-59.631	-67.70	45.43	-12.89	-44.982	-8.722	81.046	-0.78531	0.47452	-0.37637	-0.12775	31.0	13111	100
2025-3-27 18:40:48.635	WT901BLE68-01(48591DE3C19B)	0.308	-1.015	0.052	1.831	95.459	-59.631	-68.98	44.94	-14.61	-44.982	-8.722	81.046	-0.78531	0.47452	-0.37637	-0.12775	31.0	13111	100
2025-3-27 18:40:48.635	WT901BLE68-01(48591DE3C19B)	0.308	-1.093	0.088	-1.160	106.384	-95.581	-70.47	44.12	-16.60	-44.982	-8.722	81.046	-0.78531	0.47452	-0.37637	-0.12775	31.0	13111	100
2025-3-27 18:40:48.635	WT901BLE68-01(48591DE3C19B)	0.161	-1.093	0.088	-1.160	106.384	-95.581	-71.88	43.25	-18.53	-44.982	-8.722	81.046	-0.78531	0.47452	-0.37637	-0.12775	31.0	13111	100
2025-3-27 18:40:48.635	WT901BLE68-01(48591DE3C19B)	0.161	-1.157	0.139	-0.305	94.910	-129.639	-73.20	42.01	-20.37	-44.982	-8.722	81.046	-0.78531	0.47452	-0.37637	-0.12775	31.0	13111	100
2025-3-27 18:40:48.635	WT901BLE68-01(48591DE3C19B)	0.045	-1.157	0.139	-0.305	94.910	-129.639	-74.43	40.74	-22.14	-44.982	-8.722	81.046	-0.78531	0.47452	-0.37637	-0.12775	31.0	13111	100
2025-3-27 18:40:48.635	WT901BLE68-01(48591DE3C19B)	0.045	-1.188	0.181	2.747	71.777	-157.837	-75.42	39.12	-23.63	-44.982	-8.722	81.046	-0.78531	0.47452	-0.37637	-0.12775	31.0	13111	100
2025-3-27 18:40:48.635	WT901BLE68-01(48591DE3C19B)	-0.015	-1.188	0.181	2.747	71.777	-157.837	-76.32	37.50	-25.05	-44.982	-8.722	81.046	-0.78531	0.47452	-0.37637	-0.12775	31.0	13111	100
2025-3-27 18:40:48.695	WT901BLE68-01(48591DE3C19B)	-0.015	-1.143	0.206	7.385	47.119	-181.030	-76.96	35.59	-26.17	-44.982	-8.722	81.046	-0.78531	0.47452	-0.37637	-0.12775	31.0	13111	100
2025-3-27 18:40:48.695	WT901BLE68-01(48591DE3C19B)	-0.047	-1.143	0.206	7.385	47.119	-181.030	-77.53	33.69	-27.23	-44.982	-8.722	81.046	-0.78531	0.47452	-0.37637	-0.12775	31.0	13111	100
2025-3-27 18:40:48.695	WT901BLE68-01(48591DE3C19B)	-0.047	-1.043	0.203	8.484	32.532	-195.251	-77.95	31.63	-28.11	-44.982	-8.722	81.046	-0.78531	0.47452	-0.37637	-0.12775	31.0	13111	100
2025-3-27 18:40:48.695	WT901BLE68-01(48591DE3C19B)	-0.127	-1.043	0.203	8.484	32.532	-195.251	-78.33	29.58	-28.95	-44.982	-8.722	81.046	-0.78531	0.47452	-0.37637	-0.12775	31.0	13111	100
2025-3-27 18:40:48.723	WT901BLE68-01(48591DE3C19B)	-0.127	-0.937	0.187	7.080	26.672	-204.895	-78.65	27.43	-29.71	-44.982	-8.722	81.046	-0.78531	0.47452	-0.37637	-0.12775	31.0	13111	100
2025-3-27 18:40:48.723	WT901BLE68-01(48591DE3C19B)	-0.201	-0.937	0.187	7.080	26.672	-204.895	-78.93	25.30	-30.44	-44.982	-8.722	81.046	-0.78531	0.47452	-0.37637	-0.12775	31.0	13111	100
2025-3-27 18:40:48.723	WT901BLE68-01(48591DE3C19B)	-0.201	-0.843	0.156	1.892	13.489	-213.501	-79.17	23.07	-31.03	-44.982	-8.722	81.046	-0.78531	0.47452	-0.37637	-0.12775	31.0	13111	100
2025-3-27 18:40:48.723	WT901BLE68-01(48591DE3C19B)	-0.255	-0.843	0.156	1.892	13.489	-213.501	-79.39	20.86	-31.59	-44.982	-8.722	81.046	-0.78531	0.47452	-0.37637	-0.12775	31.0	13111	100
2025-3-27 18:40:48.784	WT901BLE68-01(48591DE3C19B)	-0.255	-0.776	0.162	-7.263	-9.644	-219.788	-79.58	18.57	-31.89	-44.982	-8.722	81.046	-0.78531	0.47452	-0.37637	-0.12775	31.0	13111	100
2025-3-27 18:40:48.784	WT901BLE68-01(48591DE3C19B)	-0.308	-0.776	0.162	-7.263	-9.644	-219.788	-79.76	16.30	-32.20	-44.982	-8.722	81.046	-0.78531	0.47452	-0.37637	-0.12775	31.0	13111	100
2025-3-27 18:40:48.784	WT901BLE68-01(48591DE3C19B)	-0.308	-0.756	0.184	-18.494	-36.499	-224.548	-79.96	13.96	-32.21	-44.982	-8.722	81.046	-0.78531	0.47452	-0.37637	-0.12775	31.0	13111	100
2025-3-27 18:40:48.784	WT901BLE68-01(48591DE3C19B)	-0.355	-0.756	0.184	-18.494	-36.499	-224.548	-80.16	11.63	-32.23	-44.982	-8.722	81.046	-0.78531	0.47452	-0.37637	-0.12775	31.0	13111	100
2025-3-27 18:40:48.816	WT901BLE68-01(48591DE3C19B)	-0.355	-0.827	0.211	-31.189	-55.908	-227.234	-80.44	9.28	-32.04	-48.510	-7.350	82.908	-0.78531	0.47452	-0.37637	-0.12775	31.0	13111	100
2025-3-27 18:40:48.816	WT901BLE68-01(48591DE3C19B)	-0.451	-0.827	0.211	-31.189	-55.908	-227.234	-80.72	6.95	-31.84	-48.510	-7.350	82.908	-0.78531	0.47452	-0.37637	-0.12775	31.0	13111	100
2025-3-27 18:40:48.816	WT901BLE68-01(48591DE3C19B)	-0.451	-0.932	0.254	-38.818	-67.993	-224.854	-81.07	4.64	-31.51	-48.510	-7.350	82.908	-0.78531	0.47452	-0.37637	-0.12775	31.0	13111	100
2025-3-27 18:40:48.816	WT901BLE68-01(48591DE3C19B)	-0.542	-0.932	0.254	-38.818	-67.993	-224.854	-81.43	2.37	-31.17	-48.510	-7.350	82.908	-0.78531	0.47452	-0.37637	-0.12775	31.0	13111	100
2025-3-27 18:40:48.844	WT901BLE68-01(48591DE3C19B)	-0.542	-1.072	0.290	-43.762	-74.646	-222.046	-81.84	0.13	-30.75	-48.510	-7.350	82.908	-0.78531	0.47452	-0.37637	-0.12775	31.0	13111	100
2025-3-27 18:40:48.844	WT901BLE68-01(48591DE3C19B)	-0.615	-1.072	0.290	-43.762	-74.646	-222.046	-82.26	-2.07	-30.30	-48.510	-7.350	82.908	-0.78531	0.47452	-0.37637	-0.12775	31.0	13111	100
2025-3-27 18:40:48.844	WT901BLE68-01(48591DE3C19B)	-0.615	-1.217	0.304	-47.424	-82.947	-219.910	-82.74	-4.24	-29.76	-48.510	-7.350	82.908	-0.78531	0.47452	-0.37637	-0.12775	31.0	13111	100
2025-3-27 18:40:48.844	WT901BLE68-01(48591DE3C19B)	-0.641	-1.217	0.304	-47.424	-82.947	-219.910	-83.24	-6.39	-29.20	-48.510	-7.350	82.908	-0.78531	0.47452	-0.37637	-0.12775	31.0	13111	100
2025-3-27 18:40:48.903	WT901BLE68-01(48591DE3C19B)	-0.641	-1.413	0.290	-49.988	-87.097	-217.896	-83.78	-8.50	-28.58	-48.510	-7.350	82.908	-0.78531	0.47452	-0.37637	-0.12775	31.0	13111	100
2025-3-27 18:40:48.904	WT901BLE68-01(48591DE3C19B)	-0.659	-1.413	0.290	-49.988	-87.097	-217.896	-84.35	-10.58	-27.93	-48.510	-7.350	82.908	-0.78531	0.47452	-0.37637	-0.12775	31.0	13111	100
2025-3-27 18:40:48.904	WT901BLE68-01(48591DE3C19B)	-0.659	-1.634	0.306	-51.086	-87.524	-208.984	-84.96	-12.56	-27.25	-48.510	-7.350	82.908	-0.78531	0.47452	-0.37637	-0.12775	31.0	13111	100
2025-3-27 18:40:48.904	WT901BLE68-01(48591DE3C19B)	-0.728	-1.634	0.306	-51.086	-87.524	-208.984	-85.60	-14.51	-26.54	-48.510	-7.350	82.908	-0.78531	0.47452	-0.37637	-0.12775	31.0	13111	100
2025-3-27 18:40:48.935	WT901BLE68-01(48591DE3C19B)	-0.728	-1.809	0.387	-39.612	-76.233	-190.308	-86.12	-16.25	-25.91	-48.510	-7.350	82.908	-0.78531	0.47452	-0.37637	-0.12775	31.0	13111	100
2025-3-27 18:40:48.936	WT901BLE68-01(48591DE3C19B)	-0.678	-1.809	0.387	-39.612	-76.233	-190.308	-86.65	-17.98	-25.27	-48.510	-7.350	82.908	-0.78531	0.47452	-0.37637	-0.12775	31.0	13111	100
2025-3-27 18:40:48.936	WT901BLE68-01(48591DE3C19B)	-0.678	-1.805	0.474	-24.048	-34.729	-166.565	-86.92	-19.43	-25.03	-48.510	-7.350	82.908	-0.78531	0.47452	-0.37637	-0.12775	31.0	13111	100
2025-3-27 18:40:48.936	WT901BLE68-01(48591DE3C19B)	-0.581	-1.805	0.474	-24.048	-34.729	-166.565	-87.19	-20.88	-24.79	-48.510	-7.350	82.908	-0.78531	0.47452	-0.37637	-0.12775	31.0	13111	100
2025-3-27 18:40:48.964	WT901BLE68-01(48591DE3C19B)	-0.581	-1.646	0.514	-7.629	37.231	-130.310	-87.03	-21.92	-25.30	-48.510	-7.350	82.908	-0.78531	0.47452	-0.37637	-0.12775	31.0	13111	100
2025-3-27 18:40:48.964	WT901BLE68-01(48591DE3C19B)	-0.566	-1.646	0.514	-7.629	37.231	-130.310	-86.85	-22.95	-25.81	-48.510	-7.350	82.908	-0.78531	0.47452	-0.37637	-0.12775	31.0	13111	100
2025-3-27 18:40:48.964	WT901BLE68-01(48591DE3C19B)	-0.566	-1.399	0.500	3.662	108.337	-90.149	-86.25	-23.53	-27.08	-48.510	-7.350	82.908	-0.66132	0.68372	-0.01315	0.30807	31.0	13111	100
2025-3-27 18:40:48.964	WT901BLE68-01(48591DE3C19B)	-0.621	-1.399	0.500	3.662	108.337	-90.149	-85.64	-24.10	-28.36	-48.510	-7.350	82.908	-0.66132	0.68372	-0.01315	0.30807	31.0	13111	100
2025-3-27 18:40:49.24	WT901BLE68-01(48591DE3C19B)	-0.621	-1.168	0.494	7.263	153.809	-45.227	-84.80	-24.16	-30.10	-48.510	-7.350	82.908	-0.66132	0.68372	-0.01315	0.30807	31.0	13111	100
2025-3-27 18:40:49.24	WT901BLE68-01(48591DE3C19B)	-0.759	-1.168	0.494	7.263	153.809	-45.227	-83.95	-24.20	-31.83	-48.510	-7.350	82.908	-0.66132	0.68372	-0.01315	0.30807	31.0	13111	100
2025-3-27 18:40:49.24	WT901BLE68-01(48591DE3C19B)	-0.759	-0.987	0.494	10.925	165.283	0.793	-83.06	-23.74	-33.62	-48.510	-7.350	82.908	-0.66132	0.68372	-0.01315	0.30807	31.0	13111	100
2025-3-27 18:40:49.24	WT901BLE68-01(48591DE3C19B)	-0.834	-0.987	0.494	10.925	165.283	0.793	-82.19	-23.24	-35.40	-48.510	-7.350	82.908	-0.66132	0.68372	-0.01315	0.30807	31.0	13111	100
2025-3-27 18:40:49.84	WT901BLE68-01(48591DE3C19B)	-0.834	-0.751	0.433	13.306	148.010	44.006	-81.42	-22.32	-36.89	-48.510	-7.350	82.908	-0.66132	0.68372	-0.01315	0.30807	31.0	13111	100
2025-3-27 18:40:49.84	WT901BLE68-01(48591DE3C19B)	-0.891	-0.751	0.433	13.306	148.010	44.006	-80.69	-21.37	-38.36	-48.510	-7.350	82.908	-0.66132	0.68372	-0.01315	0.30807	31.0	13111	100
2025-3-27 18:40:49.84	WT901BLE68-01(48591DE3C19B)	-0.891	-0.625	0.295	4.822	108.887	86.670	-80.26	-20.05	-39.30	-48.510	-7.350	82.908	-0.66132	0.68372	-0.01315	0.30807	31.0	13111	100
2025-3-27 18:40:49.84	WT901BLE68-01(48591DE3C19B)	-0.926	-0.625	0.295	4.822	108.887	86.670	-79.85	-18.72	-40.23	-48.510	-7.350	82.908	-0.66132	0.68372	-0.01315	0.30807	31.0	13111	100
2025-3-27 18:40:49.86	WT901BLE68-01(48591DE3C19B)	-0.925	-0.740	0.194	-5.676	57.495	125.793	-79.78	-17.09	-40.52	-48.510	-7.350	82.908	-0.66132	0.68372	-0.01315	0.30807	31.0	13111	100
2025-3-27 18:40:49.86	WT901BLE68-01(48591DE3C19B)	-0.925	-0.919	0.139	-6.470	5.371	158.081	-79.81	-15.35	-40.51	-48.510	-7.350	82.908	-0.66132	0.68372	-0.01315	0.30807	31.0	13111	100
2025-3-27 18:40:49.86	WT901BLE68-01(48591DE3C19B)	-0.865	-0.919	0.139	-6.470	5.371	158.081	-79.92	-13.50	-40.20	-48.510	-7.350	82.908	-0.66132	0.68372	-0.01315	0.30807	31.0	13111	100
2025-3-27 18:40:49.86	WT901BLE68-01(48591DE3C19B)	-0.865	-1.040	0.111	-0.671	-38.818	184.814	-80.05	-11.56	-39.66	-48.510	-7.350	82.908	-0.66132	0.68372	-0.01315	0.30807	31.0	13111	100
2025-3-27 18:40:49.146	WT901BLE68-01(48591DE3C19B)	-0.772	-1.040	0.111	-0.671	-38.818	184.814	-80.19	-9.53	-38.87	-48.510	-7.350	82.908	-0.66132	0.68372	-0.01315	0.30807	31.0	13111	100
2025-3-27 18:40:49.146	WT901BLE68-01(48591DE3C19B)	-0.772	-1.123	0.107	7.935	-74.463	206.116	-80.28	-7.44	-37.90	-48.510	-7.350	82.908	-0.66132	0.68372	-0.01315	0.30807	31.0	13111	100
2025-3-27 18:40:49.146	WT901BLE68-01(48591DE3C19B)	-0.665	-1.123	0.107	7.935	-74.463	206.116	-80.32	-5.28	-36.75	-48.510	-7.350	82.908	-0.66132	0.68372	-0.01315	0.30807	31.0	13111	100
2025-3-27 18:40:49.146	WT901BLE68-01(48591DE3C19B)	-0.665	-1.194	0.116	18.127	-104.553	222.961	-80.29	-3.09	-35.45	-48.510	-7.350	82.908	-0.66132	0.68372	-0.01315	0.30807	31.0	13111	100
2025-3-27 18:40:49.175	WT901BLE68-01(48591DE3C19B)	-0.523	-1.194	0.116	18.127	-104.553	222.961	-80.16	-0.86	-34.00	-48.510	-7.350	82.908	-0.66132	0.68372	-0.01315	0.30807	31.0	13111	100
2025-3-27 18:40:49.176	WT901BLE68-01(48591DE3C19B)	-0.523	-1.236	0.134	30.029	-117.798	236.328	-79.91	1.41	-32.46	-48.510	-7.350	82.908	-0.66132	0.68372	-0.01315	0.30807	31.0	13111	100
2025-3-27 18:40:49.176	WT901BLE68-01(48591DE3C19B)	-0.395	-1.236	0.134	30.029	-117.798	236.328	-79.55	3.70	-30.85	-48.510	-7.350	82.908	-0.66132	0.68372	-0.01315	0.30807	31.0	13111	100
2025-3-27 18:40:49.176	WT901BLE68-01(48591DE3C19B)	-0.395	-1.226	0.148	41.626	-108.521	246.948	-79.06	6.03	-29.26	-57.036	-4.410	82.320	-0.66132	0.68372	-0.01315	0.30807	31.0	13111	100
2025-3-27 18:40:49.205	WT901BLE68-01(48591DE3C19B)	-0.324	-1.226	0.148	41.626	-108.521	246.948	-78.46	8.37	-27.69	-57.036	-4.410	82.320	-0.66132	0.68372	-0.01315	0.30807	31.0	13111	100
2025-3-27 18:40:49.205	WT901BLE68-01(48591DE3C19B)	-0.324	-1.160	0.147	49.133	-85.144	254.211	-77.78	10.74	-26.20	-57.036	-4.410	82.320	-0.66132	0.68372	-0.01315	0.30807	31.0	13111	100
2025-3-27 18:40:49.206	WT901BLE68-01(48591DE3C19B)	-0.315	-1.160	0.147	49.133	-85.144	254.211	-77.01	13.13	-24.79	-57.036	-4.410	82.320	-0.66132	0.68372	-0.01315	0.30807	31.0	13111	100
2025-3-27 18:40:49.206	WT901BLE68-01(48591DE3C19B)	-0.315	-1.076	0.117	51.636	-63.660	257.690	-76.20	15.52	-23.44	-57.036	-4.410	82.320	-0.66132	0.68372	-0.01315	0.30807	31.0	13111	100
2025-3-27 18:40:49.264	WT901BLE68-01(48591DE3C19B)	-0.313	-1.076	0.117	51.636	-63.660	257.690	-75.33	17.92	-22.15	-57.036	-4.410	82.320	-0.66132	0.68372	-0.01315	0.30807	31.0	13111	100
2025-3-27 18:40:49.264	WT901BLE68-01(48591DE3C19B)	-0.313	-1.008	0.093	51.880	-49.805	257.446	-74.43	20.29	-20.89	-57.036	-4.410	82.320	-0.66132	0.68372	-0.01315	0.30807	31.0	13111	100
2025-3-27 18:40:49.264	WT901BLE68-01(48591DE3C19B)	-0.273	-1.008	0.093	51.880	-49.805	257.446	-73.49	22.64	-19.63	-57.036	-4.410	82.320	-0.66132	0.68372	-0.01315	0.30807	31.0	13111	100
2025-3-27 18:40:49.264	WT901BLE68-01(48591DE3C19B)	-0.273	-1.006	0.113	47.302	-35.767	252.686	-72.54	24.96	-18.41	-57.036	-4.410	82.320	-0.66132	0.68372	-0.01315	0.30807	31.0	13111	100
2025-3-27 18:40:49.299	WT901BLE68-01(48591DE3C19B)	-0.279	-1.006	0.113	47.302	-35.767	252.686	-71.58	27.24	-17.20	-57.036	-4.410	82.320	-0.66132	0.68372	-0.01315	0.30807	31.0	13111	100
2025-3-27 18:40:49.299	WT901BLE68-01(48591DE3C19B)	-0.279	-1.142	0.132	40.222	-22.339	243.591	-70.63	29.45	-16.03	-57.036	-4.410	82.320	-0.66132	0.68372	-0.01315	0.30807	31.0	13111	100
2025-3-27 18:40:49.299	WT901BLE68-01(48591DE3C19B)	-0.327	-1.142	0.132	40.222	-22.339	243.591	-69.70	31.62	-14.89	-57.036	-4.410	82.320	-0.66132	0.68372	-0.01315	0.30807	31.0	13111	100
2025-3-27 18:40:49.299	WT901BLE68-01(48591DE3C19B)	-0.327	-1.373	0.148	32.776	-19.226	230.896	-68.76	33.70	-13.72	-57.036	-4.410	82.320	-0.66132	0.68372	-0.01315	0.30807	31.0	13111	100
2025-3-27 18:40:49.324	WT901BLE68-01(48591DE3C19B)	-0.334	-1.373	0.148	32.776	-19.226	230.896	-67.82	35.68	-12.55	-57.036	-4.410	82.320	-0.66132	0.68372	-0.01315	0.30807	31.0	13111	100
2025-3-27 18:40:49.325	WT901BLE68-01(48591DE3C19B)	-0.334	-1.700	0.143	27.283	-21.118	215.637	-66.86	37.57	-11.33	-57.036	-4.410	82.320	-0.66132	0.68372	-0.01315	0.30807	31.0	13111	100
2025-3-27 18:40:49.325	WT901BLE68-01(48591DE3C19B)	-0.266	-1.700	0.143	27.283	-21.118	215.637	-65.87	39.34	-10.09	-57.036	-4.410	82.320	-0.66132	0.68372	-0.01315	0.30807	31.0	13111	100
2025-3-27 18:40:49.325	WT901BLE68-01(48591DE3C19B)	-0.266	-2.021	0.048	26.733	-14.893	200.317	-64.88	41.03	-8.85	-57.036	-4.410	82.320	-0.66132	0.68372	-0.01315	0.30807	31.0	13111	100
2025-3-27 18:40:49.384	WT901BLE68-01(48591DE3C19B)	-0.154	-2.021	0.048	26.733	-14.893	200.317	-63.88	42.63	-7.65	-57.036	-4.410	82.320	-0.66132	0.68372	-0.01315	0.30807	31.0	13111	100
2025-3-27 18:40:49.384	WT901BLE68-01(48591DE3C19B)	-0.154	-2.103	-0.060	25.391	-8.484	177.490	-62.91	44.11	-6.49	-57.036	-4.410	82.320	-0.66132	0.68372	-0.01315	0.30807	31.0	13111	100
2025-3-27 18:40:49.384	WT901BLE68-01(48591DE3C19B)	-0.057	-2.103	-0.060	25.391	-8.484	177.490	-61.97	45.48	-5.39	-57.036	-4.410	82.320	-0.66132	0.68372	-0.01315	0.30807	31.0	13111	100
2025-3-27 18:40:49.384	WT901BLE68-01(48591DE3C19B)	-0.057	-2.174	-0.121	10.681	-13.367	151.428	-61.11	46.69	-4.31	-57.036	-4.410	82.320	-0.66132	0.68372	-0.01315	0.30807	31.0	13111	100
2025-3-27 18:40:49.416	WT901BLE68-01(48591DE3C19B)	0.165	-2.174	-0.121	10.681	-13.367	151.428	-60.33	47.76	-3.26	-57.036	-4.410	82.320	-0.79517	0.44717	-0.36505	-0.18542	31.0	13111	100
2025-3-27 18:40:49.416	WT901BLE68-01(48591DE3C19B)	0.165	-2.241	-0.075	1.953	-26.123	114.685	-59.60	48.61	-2.23	-57.036	-4.410	82.320	-0.79517	0.44717	-0.36505	-0.18542	31.0	13111	100
2025-3-27 18:40:49.416	WT901BLE68-01(48591DE3C19B)	0.377	-2.241	-0.075	1.953	-26.123	114.685	-58.94	49.26	-1.24	-57.036	-4.410	82.320	-0.79517	0.44717	-0.36505	-0.18542	31.0	13111	100
2025-3-27 18:40:49.416	WT901BLE68-01(48591DE3C19B)	0.377	-1.943	0.040	7.263	-23.438	82.214	-58.35	49.75	-0.38	-57.036	-4.410	82.320	-0.79517	0.44717	-0.36505	-0.18542	31.0	13111	100
2025-3-27 18:40:49.445	WT901BLE68-01(48591DE3C19B)	0.394	-1.943	0.040	7.263	-23.438	82.214	-57.85	50.10	0.32	-57.036	-4.410	82.320	-0.79517	0.44717	-0.36505	-0.18542	31.0	13111	100
2025-3-27 18:40:49.446	WT901BLE68-01(48591DE3C19B)	0.394	-1.538	0.150	7.629	-8.972	41.870	-57.55	50.30	0.77	-57.036	-4.410	82.320	-0.79517	0.44717	-0.36505	-0.18542	31.0	13111	100
2025-3-27 18:40:49.446	WT901BLE68-01(48591DE3C19B)	0.258	-1.538	0.150	7.629	-8.972	41.870	-57.44	50.37	0.96	-57.036	-4.410	82.320	-0.79517	0.44717	-0.36505	-0.18542	31.0	13111	100
2025-3-27 18:40:49.446	WT901BLE68-01(48591DE3C19B)	0.258	-1.245	0.075	1.831	14.771	-1.831	-57.63	50.30	0.80	-57.036	-4.410	82.320	-0.79517	0.44717	-0.36505	-0.18542	31.0	13111	100
2025-3-27 18:40:49.504	WT901BLE68-01(48591DE3C19B)	0.145	-1.245	0.075	1.831	14.771	-1.831	-58.11	50.11	0.30	-57.036	-4.410	82.320	-0.79517	0.44717	-0.36505	-0.18542	31.0	13111	100
2025-3-27 18:40:49.504	WT901BLE68-01(48591DE3C19B)	0.145	-1.038	0.061	-7.813	27.161	-50.171	-58.83	49.74	-0.47	-57.036	-4.410	82.320	-0.79517	0.44717	-0.36505	-0.18542	31.0	13111	100
2025-3-27 18:40:49.504	WT901BLE68-01(48591DE3C19B)	0.174	-1.038	0.061	-7.813	27.161	-50.171	-59.79	49.19	-1.48	-57.036	-4.410	82.320	-0.79517	0.44717	-0.36505	-0.18542	31.0	13111	100
2025-3-27 18:40:49.504	WT901BLE68-01(48591DE3C19B)	0.174	-0.943	0.090	-13.672	14.771	-93.201	-60.80	48.41	-2.55	-57.036	-4.410	82.320	-0.79517	0.44717	-0.36505	-0.18542	31.0	13111	100
2025-3-27 18:40:49.534	WT901BLE68-01(48591DE3C19B)	0.236	-0.943	0.090	-13.672	14.771	-93.201	-61.86	47.40	-3.65	-57.036	-4.410	82.320	-0.79517	0.44717	-0.36505	-0.18542	31.0	13111	100
2025-3-27 18:40:49.534	WT901BLE68-01(48591DE3C19B)	0.236	-0.927	0.126	-15.991	8.118	-131.042	-62.92	46.19	-4.77	-57.036	-4.410	82.320	-0.79517	0.44717	-0.36505	-0.18542	31.0	13111	100
2025-3-27 18:40:49.534	WT901BLE68-01(48591DE3C19B)	0.159	-0.927	0.126	-15.991	8.118	-131.042	-63.99	44.79	-5.91	-57.036	-4.410	82.320	-0.79517	0.44717	-0.36505	-0.18542	31.0	13111	100
2025-3-27 18:40:49.534	WT901BLE68-01(48591DE3C19B)	0.159	-0.922	0.168	-16.541	11.230	-160.095	-65.14	43.14	-7.19	-57.036	-4.410	82.320	-0.79517	0.44717	-0.36505	-0.18542	31.0	13111	100
2025-3-27 18:40:49.566	WT901BLE68-01(48591DE3C19B)	0.052	-0.922	0.168	-16.541	11.230	-160.095	-66.19	41.47	-8.39	-57.036	-4.410	82.320	-0.79517	0.44717	-0.36505	-0.18542	31.0	13111	100
2025-3-27 18:40:49.566	WT901BLE68-01(48591DE3C19B)	0.052	-0.918	0.213	-17.639	13.306	-186.279	-67.28	39.56	-9.67	-57.036	-4.410	82.320	-0.79517	0.44717	-0.36505	-0.18542	31.0	13111	100
2025-3-27 18:40:49.566	WT901BLE68-01(48591DE3C19B)	0.003	-0.918	0.213	-17.639	13.306	-186.279	-68.27	37.65	-10.86	-57.036	-4.410	82.320	-0.79517	0.44717	-0.36505	-0.18542	31.0	13111	100
2025-3-27 18:40:49.566	WT901BLE68-01(48591DE3C19B)	0.003	-0.920	0.209	-20.630	21.423	-209.351	-69.33	35.55	-12.17	-57.036	-4.410	82.320	-0.79517	0.44717	-0.36505	-0.18542	31.0	13111	100
2025-3-27 18:40:49.624	WT901BLE68-01(48591DE3C19B)	-0.014	-0.920	0.209	-20.630	21.423	-209.351	-70.29	33.44	-13.40	-57.036	-4.410	82.320	-0.79517	0.44717	-0.36505	-0.18542	31.0	13111	100
2025-3-27 18:40:49.624	WT901BLE68-01(48591DE3C19B)	-0.014	-0.903	0.190	-24.170	35.767	-229.675	-71.33	31.18	-14.78	-33.124	-3.626	77.812	-0.79517	0.44717	-0.36505	-0.18542	31.0	13111	100
2025-3-27 18:40:49.624	WT901BLE68-01(48591DE3C19B)	-0.067	-0.903	0.190	-24.170	35.767	-229.675	-72.27	28.92	-16.08	-33.124	-3.626	77.812	-0.79517	0.44717	-0.36505	-0.18542	31.0	13111	100
2025-3-27 18:40:49.624	WT901BLE68-01(48591DE3C19B)	-0.067	-0.907	0.166	-28.015	50.781	-248.047	-73.27	26.53	-17.53	-33.124	-3.626	77.812	-0.79517	0.44717	-0.36505	-0.18542	31.0	13111	100
2025-3-27 18:40:49.653	WT901BLE68-01(48591DE3C19B)	-0.161	-0.907	0.166	-28.015	50.781	-248.047	-74.17	24.14	-18.90	-33.124	-3.626	77.812	-0.79517	0.44717	-0.36505	-0.18542	31.0	13111	100
2025-3-27 18:40:49.653	WT901BLE68-01(48591DE3C19B)	-0.161	-0.980	0.170	-29.907	61.340	-262.146	-75.08	21.63	-20.34	-33.124	-3.626	77.812	-0.79517	0.44717	-0.36505	-0.18542	31.0	13111	100
2025-3-27 18:40:49.653	WT901BLE68-01(48591DE3C19B)	-0.321	-0.980	0.170	-29.907	61.340	-262.146	-75.88	19.13	-21.71	-33.124	-3.626	77.812	-0.79517	0.44717	-0.36505	-0.18542	31.0	13111	100
2025-3-27 18:40:49.653	WT901BLE68-01(48591DE3C19B)	-0.321	-1.064	0.263	-25.208	66.589	-268.250	-76.59	16.58	-23.10	-33.124	-3.626	77.812	-0.79517	0.44717	-0.36505	-0.18542	31.0	13111	100
2025-3-27 18:40:49.684	WT901BLE68-01(48591DE3C19B)	-0.552	-1.064	0.263	-25.208	66.589	-268.250	-77.21	14.05	-24.43	-33.124	-3.626	77.812	-0.79517	0.44717	-0.36505	-0.18542	31.0	13111	100
2025-3-27 18:40:49.684	WT901BLE68-01(48591DE3C19B)	-0.552	-1.129	0.374	-19.043	58.838	-266.052	-77.68	11.54	-25.63	-33.124	-3.626	77.812	-0.79517	0.44717	-0.36505	-0.18542	31.0	13111	100
2025-3-27 18:40:49.684	WT901BLE68-01(48591DE3C19B)	-0.676	-1.129	0.374	-19.043	58.838	-266.052	-78.08	9.05	-26.80	-33.124	-3.626	77.812	-0.79517	0.44717	-0.36505	-0.18542	31.0	13111	100
2025-3-27 18:40:49.684	WT901BLE68-01(48591DE3C19B)	-0.676	-1.152	0.405	-16.113	44.373	-255.432	-78.37	6.65	-27.77	-33.124	-3.626	77.812	-0.79517	0.44717	-0.36505	-0.18542	31.0	13111	100
2025-3-27 18:40:49.745	WT901BLE68-01(48591DE3C19B)	-0.711	-1.152	0.405	-16.113	44.373	-255.432	-78.62	4.28	-28.72	-33.124	-3.626	77.812	-0.79517	0.44717	-0.36505	-0.18542	31.0	13111	100
2025-3-27 18:40:49.745	WT901BLE68-01(48591DE3C19B)	-0.711	-1.112	0.373	-13.184	33.691	-239.563	-78.78	2.07	-29.52	-33.124	-3.626	77.812	-0.79517	0.44717	-0.36505	-0.18542	31.0	13111	100
2025-3-27 18:40:49.745	WT901BLE68-01(48591DE3C19B)	-0.769	-1.112	0.373	-13.184	33.691	-239.563	-78.91	-0.12	-30.31	-33.124	-3.626	77.812	-0.79517	0.44717	-0.36505	-0.18542	31.0	13111	100
2025-3-27 18:40:49.745	WT901BLE68-01(48591DE3C19B)	-0.769	-1.120	0.355	-11.963	27.466	-218.262	-79.00	-2.09	-30.99	-33.124	-3.626	77.812	-0.79517	0.44717	-0.36505	-0.18542	31.0	13111	100
2025-3-27 18:40:49.773	WT901BLE68-01(48591DE3C19B)	-0.829	-1.120	0.355	-11.963	27.466	-218.262	-79.06	-4.05	-31.67	-33.124	-3.626	77.812	-0.79517	0.44717	-0.36505	-0.18542	31.0	13111	100
2025-3-27 18:40:49.773	WT901BLE68-01(48591DE3C19B)	-0.829	-1.151	0.382	-10.742	26.672	-194.275	-79.10	-5.75	-32.29	-33.124	-3.626	77.812	-0.79517	0.44717	-0.36505	-0.18542	31.0	13111	100
2025-3-27 18:40:49.773	WT901BLE68-01(48591DE3C19B)	-0.824	-1.151	0.382	-10.742	26.672	-194.275	-79.11	-7.42	-32.91	-33.124	-3.626	77.812	-0.79517	0.44717	-0.36505	-0.18542	31.0	13111	100
2025-3-27 18:40:49.773	WT901BLE68-01(48591DE3C19B)	-0.824	-1.209	0.441	-8.911	63.232	-168.274	-79.05	-8.76	-33.84	-33.124	-3.626	77.812	-0.72162	0.62418	-0.12830	0.27039	31.0	13111	100
2025-3-27 18:40:49.834	WT901BLE68-01(48591DE3C19B)	-0.937	-1.209	0.441	-8.911	63.232	-168.274	-78.95	-10.09	-34.78	-33.124	-3.626	77.812	-0.72162	0.62418	-0.12830	0.27039	31.0	13111	100
2025-3-27 18:40:49.834	WT901BLE68-01(48591DE3C19B)	-0.937	-1.231	0.321	-7.263	146.729	-144.592	-78.69	-11.00	-36.50	-33.124	-3.626	77.812	-0.72162	0.62418	-0.12830	0.27039	31.0	13111	100
2025-3-27 18:40:49.834	WT901BLE68-01(48591DE3C19B)	-1.318	-1.231	0.321	-7.263	146.729	-144.592	-78.40	-11.90	-38.22	-33.124	-3.626	77.812	-0.72162	0.62418	-0.12830	0.27039	31.0	13111	100
2025-3-27 18:40:49.834	WT901BLE68-01(48591DE3C19B)	-1.318	-1.226	0.141	-10.925	212.036	-115.601	-78.01	-12.35	-40.53	-33.124	-3.626	77.812	-0.72162	0.62418	-0.12830	0.27039	31.0	13111	100
2025-3-27 18:40:49.863	WT901BLE68-01(48591DE3C19B)	-1.728	-1.226	0.141	-10.925	212.036	-115.601	-77.62	-12.77	-42.84	-33.124	-3.626	77.812	-0.72162	0.62418	-0.12830	0.27039	31.0	13111	100
2025-3-27 18:40:49.863	WT901BLE68-01(48591DE3C19B)	-1.728	-1.365	0.216	-20.508	195.679	-80.261	-77.37	-12.85	-44.88	-33.124	-3.626	77.812	-0.72162	0.62418	-0.12830	0.27039	31.0	13111	100
2025-3-27 18:40:49.863	WT901BLE68-01(48591DE3C19B)	-1.645	-1.365	0.216	-20.508	195.679	-80.261	-77.14	-12.92	-46.92	-33.124	-3.626	77.812	-0.72162	0.62418	-0.12830	0.27039	31.0	13111	100
2025-3-27 18:40:49.863	WT901BLE68-01(48591DE3C19B)	-1.645	-1.449	0.350	-17.700	153.320	-42.603	-77.00	-12.70	-48.44	-33.124	-3.626	77.812	-0.72162	0.62418	-0.12830	0.27039	31.0	13111	100
2025-3-27 18:40:49.897	WT901BLE68-01(48591DE3C19B)	-1.416	-1.449	0.350	-17.700	153.320	-42.603	-76.88	-12.47	-49.95	-33.124	-3.626	77.812	-0.72162	0.62418	-0.12830	0.27039	31.0	13111	100
2025-3-27 18:40:49.898	WT901BLE68-01(48591DE3C19B)	-1.416	-1.140	0.251	-13.367	132.385	0.610	-76.79	-11.86	-51.14	-33.124	-3.626	77.812	-0.72162	0.62418	-0.12830	0.27039	31.0	13111	100
2025-3-27 18:40:49.898	WT901BLE68-01(48591DE3C19B)	-1.384	-1.140	0.251	-13.367	132.385	0.610	-76.72	-11.25	-52.32	-33.124	-3.626	77.812	-0.72162	0.62418	-0.12830	0.27039	31.0	13111	100
2025-3-27 18:40:49.898	WT901BLE68-01(48591DE3C19B)	-1.384	-0.862	0.144	-26.611	88.562	43.945	-76.91	-10.32	-52.95	-33.124	-3.626	77.812	-0.72162	0.62418	-0.12830	0.27039	31.0	13111	100
2025-3-27 18:40:49.924	WT901BLE68-01(48591DE3C19B)	-1.418	-0.862	0.144	-26.611	88.562	43.945	-77.11	-9.38	-53.59	-33.124	-3.626	77.812	-0.72162	0.62418	-0.12830	0.27039	31.0	13111	100
2025-3-27 18:40:49.924	WT901BLE68-01(48591DE3C19B)	-1.418	-0.958	0.109	-44.861	26.306	82.520	-77.62	-8.21	-53.51	-33.124	-3.626	77.812	-0.72162	0.62418	-0.12830	0.27039	31.0	13111	100
2025-3-27 18:40:49.924	WT901BLE68-01(48591DE3C19B)	-1.354	-0.958	0.109	-44.861	26.306	82.520	-78.13	-7.05	-53.45	-33.124	-3.626	77.812	-0.72162	0.62418	-0.12830	0.27039	31.0	13111	100
2025-3-27 18:40:49.925	WT901BLE68-01(48591DE3C19B)	-1.354	-1.093	0.104	-47.668	-23.987	118.958	-78.73	-5.63	-52.84	-33.124	-3.626	77.812	-0.72162	0.62418	-0.12830	0.27039	31.0	13111	100
2025-3-27 18:40:49.984	WT901BLE68-01(48591DE3C19B)	-1.179	-1.093	0.104	-47.668	-23.987	118.958	-79.31	-4.21	-52.24	-33.124	-3.626	77.812	-0.72162	0.62418	-0.12830	0.27039	31.0	13111	100
2025-3-27 18:40:49.984	WT901BLE68-01(48591DE3C19B)	-1.179	-1.118	0.044	-46.875	-62.805	154.175	-79.89	-2.52	-51.21	-33.124	-3.626	77.812	-0.72162	0.62418	-0.12830	0.27039	31.0	13111	100
2025-3-27 18:40:49.984	WT901BLE68-01(48591DE3C19B)	-1.020	-1.118	0.044	-46.875	-62.805	154.175	-80.44	-0.83	-50.21	-33.124	-3.626	77.812	-0.72162	0.62418	-0.12830	0.27039	31.0	13111	100
2025-3-27 18:40:49.984	WT901BLE68-01(48591DE3C19B)	-0.879	-1.182	-0.023	-46.143	-92.102	186.157	-80.96	1.12	-48.89	-33.124	-3.626	77.812	-0.72162	0.62418	-0.12830	0.27039	31.0	13111	100
2025-3-27 18:40:50.16	WT901BLE68-01(48591DE3C19B)	-0.879	-1.268	-0.043	-41.321	-110.291	211.731	-81.39	3.19	-47.48	-75.558	-1.078	77.420	-0.72162	0.62418	-0.12830	0.27039	31.0	13111	100
2025-3-27 18:40:50.16	WT901BLE68-01(48591DE3C19B)	-0.731	-1.268	-0.043	-41.321	-110.291	211.731	-81.75	5.35	-45.99	-75.558	-1.078	77.420	-0.72162	0.62418	-0.12830	0.27039	31.0	13111	100
2025-3-27 18:40:50.16	WT901BLE68-01(48591DE3C19B)	-0.731	-1.360	-0.047	-34.607	-122.620	231.140	-82.00	7.60	-44.43	-75.558	-1.078	77.420	-0.72162	0.62418	-0.12830	0.27039	31.0	13111	100
2025-3-27 18:40:50.16	WT901BLE68-01(48591DE3C19B)	-0.605	-1.360	-0.047	-34.607	-122.620	231.140	-82.15	9.92	-42.82	-75.558	-1.078	77.420	-0.72162	0.62418	-0.12830	0.27039	31.0	13111	100
2025-3-27 18:40:50.45	WT901BLE68-01(48591DE3C19B)	-0.605	-1.427	-0.030	-24.414	-125.366	245.117	-82.18	12.28	-41.18	-75.558	-1.078	77.420	-0.72162	0.62418	-0.12830	0.27039	31.0	13111	100
2025-3-27 18:40:50.45	WT901BLE68-01(48591DE3C19B)	-0.522	-1.427	-0.030	-24.414	-125.366	245.117	-82.08	14.68	-39.52	-75.558	-1.078	77.420	-0.72162	0.62418	-0.12830	0.27039	31.0	13111	100
2025-3-27 18:40:50.46	WT901BLE68-01(48591DE3C19B)	-0.522	-1.432	-0.003	-13.855	-122.620	252.136	-81.86	17.10	-37.85	-75.558	-1.078	77.420	-0.72162	0.62418	-0.12830	0.27039	31.0	13111	100
2025-3-27 18:40:50.46	WT901BLE68-01(48591DE3C19B)	-0.437	-1.432	-0.003	-13.855	-122.620	252.136	-81.51	19.52	-36.17	-75.558	-1.078	77.420	-0.72162	0.62418	-0.12830	0.27039	31.0	13111	100
2025-3-27 18:40:50.103	WT901BLE68-01(48591DE3C19B)	-0.437	-1.377	0.019	-3.723	-111.450	255.920	-81.06	21.93	-34.51	-75.558	-1.078	77.420	-0.72162	0.62418	-0.12830	0.27039	31.0	13111	100
2025-3-27 18:40:50.104	WT901BLE68-01(48591DE3C19B)	-0.370	-1.377	0.019	-3.723	-111.450	255.920	-80.49	24.34	-32.86	-75.558	-1.078	77.420	-0.72162	0.62418	-0.12830	0.27039	31.0	13111	100
2025-3-27 18:40:50.104	WT901BLE68-01(48591DE3C19B)	-0.370	-1.261	0.021	3.418	-90.698	259.277	-79.85	26.74	-31.28	-75.558	-1.078	77.420	-0.72162	0.62418	-0.12830	0.27039	31.0	13111	100
2025-3-27 18:40:50.104	WT901BLE68-01(48591DE3C19B)	-0.313	-1.261	0.021	3.418	-90.698	259.277	-79.15	29.14	-29.75	-75.558	-1.078	77.420	-0.72162	0.62418	-0.12830	0.27039	31.0	13111	100
2025-3-27 18:40:50.134	WT901BLE68-01(48591DE3C19B)	-0.313	-1.152	0.007	5.005	-65.613	259.705	-78.42	31.52	-28.30	-75.558	-1.078	77.420	-0.72162	0.62418	-0.12830	0.27039	31.0	13111	100
2025-3-27 18:40:50.134	WT901BLE68-01(48591DE3C19B)	-0.299	-1.152	0.007	5.005	-65.613	259.705	-77.68	33.90	-26.93	-75.558	-1.078	77.420	-0.72162	0.62418	-0.12830	0.27039	31.0	13111	100
2025-3-27 18:40:50.134	WT901BLE68-01(48591DE3C19B)	-0.299	-1.201	-0.012	-0.305	-46.143	256.042	-76.95	36.24	-25.61	-75.558	-1.078	77.420	-0.72162	0.62418	-0.12830	0.27039	31.0	13111	100
2025-3-27 18:40:50.135	WT901BLE68-01(48591DE3C19B)	-0.270	-1.201	-0.012	-0.305	-46.143	256.042	-76.24	38.56	-24.35	-75.558	-1.078	77.420	-0.72162	0.62418	-0.12830	0.27039	31.0	13111	100
2025-3-27 18:40:50.197	WT901BLE68-01(48591DE3C19B)	-0.270	-1.264	-0.013	0.244	-36.011	248.779	-75.49	40.81	-23.09	-75.558	-1.078	77.420	-0.72162	0.62418	-0.12830	0.27039	31.0	13111	100
2025-3-27 18:40:50.198	WT901BLE68-01(48591DE3C19B)	-0.228	-1.264	-0.013	0.244	-36.011	248.779	-74.71	43.02	-21.83	-75.558	-1.078	77.420	-0.72162	0.62418	-0.12830	0.27039	31.0	13111	100
2025-3-27 18:40:50.198	WT901BLE68-01(48591DE3C19B)	-0.228	-1.294	0.022	1.221	-32.227	237.915	-73.86	45.14	-20.53	-75.558	-1.078	77.420	-0.72162	0.62418	-0.12830	0.27039	31.0	13111	100
2025-3-27 18:40:50.198	WT901BLE68-01(48591DE3C19B)	-0.199	-1.294	0.022	1.221	-32.227	237.915	-72.94	47.19	-19.19	-75.558	-1.078	77.420	-0.72162	0.62418	-0.12830	0.27039	31.0	13111	100
2025-3-27 18:40:50.284	WT901BLE68-01(48591DE3C19B)	-0.199	-1.406	0.014	-1.099	-26.672	224.304	-71.99	49.14	-17.82	-75.558	-1.078	77.420	-0.76382	0.47232	-0.41849	-0.13498	31.0	13111	100
2025-3-27 18:40:50.285	WT901BLE68-01(48591DE3C19B)	-0.151	-1.406	0.014	-1.099	-26.672	224.304	-71.01	51.00	-16.43	-75.558	-1.078	77.420	-0.76382	0.47232	-0.41849	-0.13498	31.0	13111	100
2025-3-27 18:40:50.285	WT901BLE68-01(48591DE3C19B)	-0.151	-1.610	-0.025	-4.456	-21.606	203.491	-70.01	52.75	-15.02	-75.558	-1.078	77.420	-0.76382	0.47232	-0.41849	-0.13498	31.0	13111	100
2025-3-27 18:40:50.285	WT901BLE68-01(48591DE3C19B)	-0.035	-1.610	-0.025	-4.456	-21.606	203.491	-69.01	54.37	-13.62	-75.558	-1.078	77.420	-0.76382	0.47232	-0.41849	-0.13498	31.0	13111	100
2025-3-27 18:40:50.286	WT901BLE68-01(48591DE3C19B)	-0.035	-1.765	-0.073	-2.258	-14.038	176.514	-68.02	55.84	-12.27	-75.558	-1.078	77.420	-0.76382	0.47232	-0.41849	-0.13498	31.0	13111	100
2025-3-27 18:40:50.286	WT901BLE68-01(48591DE3C19B)	0.079	-1.765	-0.073	-2.258	-14.038	176.514	-67.07	57.18	-10.98	-75.558	-1.078	77.420	-0.76382	0.47232	-0.41849	-0.13498	31.0	13111	100
2025-3-27 18:40:50.286	WT901BLE68-01(48591DE3C19B)	0.079	-1.765	-0.082	0.916	3.113	145.630	-66.24	58.38	-9.88	-75.558	-1.078	77.420	-0.76382	0.47232	-0.41849	-0.13498	31.0	13111	100
2025-3-27 18:40:50.286	WT901BLE68-01(48591DE3C19B)	0.155	-1.765	-0.082	0.916	3.113	145.630	-65.57	59.45	-8.99	-75.558	-1.078	77.420	-0.76382	0.47232	-0.41849	-0.13498	31.0	13111	100
2025-3-27 18:40:50.316	WT901BLE68-01(48591DE3C19B)	0.155	-1.745	-0.047	-5.005	9.888	106.445	-65.08	60.34	-8.28	-75.558	-1.078	77.420	-0.76382	0.47232	-0.41849	-0.13498	31.0	13111	100
2025-3-27 18:40:50.316	WT901BLE68-01(48591DE3C19B)	0.144	-1.745	-0.047	-5.005	9.888	106.445	-64.79	61.06	-7.77	-75.558	-1.078	77.420	-0.76382	0.47232	-0.41849	-0.13498	31.0	13111	100
2025-3-27 18:40:50.316	WT901BLE68-01(48591DE3C19B)	0.144	-1.660	0.071	-9.949	0.000	57.495	-64.63	61.52	-7.37	-75.558	-1.078	77.420	-0.76382	0.47232	-0.41849	-0.13498	31.0	13111	100
2025-3-27 18:40:50.316	WT901BLE68-01(48591DE3C19B)	0.008	-1.660	0.071	-9.949	0.000	57.495	-64.59	61.73	-7.09	-75.558	-1.078	77.420	-0.76382	0.47232	-0.41849	-0.13498	31.0	13111	100
2025-3-27 18:40:50.345	WT901BLE68-01(48591DE3C19B)	0.008	-1.465	0.197	-11.047	-16.663	8.789	-64.61	61.67	-6.87	-75.558	-1.078	77.420	-0.76382	0.47232	-0.41849	-0.13498	31.0	13111	100
2025-3-27 18:40:50.345	WT901BLE68-01(48591DE3C19B)	-0.071	-1.465	0.197	-11.047	-16.663	8.789	-64.67	61.36	-6.70	-75.558	-1.078	77.420	-0.76382	0.47232	-0.41849	-0.13498	31.0	13111	100
2025-3-27 18:40:50.346	WT901BLE68-01(48591DE3C19B)	-0.071	-1.295	0.324	-9.583	-31.372	-40.527	-64.80	60.80	-6.60	-75.558	-1.078	77.420	-0.76382	0.47232	-0.41849	-0.13498	31.0	13111	100
2025-3-27 18:40:50.346	WT901BLE68-01(48591DE3C19B)	0.043	-1.295	0.324	-9.583	-31.372	-40.527	-64.96	59.99	-6.58	-75.558	-1.078	77.420	-0.76382	0.47232	-0.41849	-0.13498	31.0	13111	100
2025-3-27 18:40:50.376	WT901BLE68-01(48591DE3C19B)	0.043	-1.158	0.273	-5.127	-33.997	-84.167	-65.23	58.97	-6.70	-75.558	-1.078	77.420	-0.76382	0.47232	-0.41849	-0.13498	31.0	13111	100
2025-3-27 18:40:50.376	WT901BLE68-01(48591DE3C19B)	0.157	-1.158	0.273	-5.127	-33.997	-84.167	-65.58	57.75	-6.94	-75.558	-1.078	77.420	-0.76382	0.47232	-0.41849	-0.13498	31.0	13111	100
2025-3-27 18:40:50.376	WT901BLE68-01(48591DE3C19B)	0.157	-0.976	0.189	-2.441	-13.245	-122.131	-66.15	56.41	-7.48	-75.558	-1.078	77.420	-0.76382	0.47232	-0.41849	-0.13498	31.0	13111	100
2025-3-27 18:40:50.376	WT901BLE68-01(48591DE3C19B)	0.191	-0.976	0.189	-2.441	-13.245	-122.131	-66.91	54.93	-8.26	-75.558	-1.078	77.420	-0.76382	0.47232	-0.41849	-0.13498	31.0	13111	100
2025-3-27 18:40:50.434	WT901BLE68-01(48591DE3C19B)	0.191	-0.876	0.117	-5.005	14.648	-156.555	-67.87	53.34	-9.31	-75.558	-1.078	77.420	-0.76382	0.47232	-0.41849	-0.13498	31.0	13111	100
2025-3-27 18:40:50.434	WT901BLE68-01(48591DE3C19B)	0.122	-0.876	0.117	-5.005	14.648	-156.555	-69.01	51.65	-10.59	-19.110	-2.646	73.794	-0.76382	0.47232	-0.41849	-0.13498	31.0	13111	100
2025-3-27 18:40:50.434	WT901BLE68-01(48591DE3C19B)	0.122	-0.924	0.056	-8.118	37.231	-188.599	-70.24	49.82	-12.01	-19.110	-2.646	73.794	-0.76382	0.47232	-0.41849	-0.13498	31.0	13111	100
2025-3-27 18:40:50.434	WT901BLE68-01(48591DE3C19B)	-0.010	-0.924	0.056	-8.118	37.231	-188.599	-71.55	47.88	-13.56	-19.110	-2.646	73.794	-0.76382	0.47232	-0.41849	-0.13498	31.0	13111	100
2025-3-27 18:40:50.463	WT901BLE68-01(48591DE3C19B)	-0.010	-1.014	0.063	-2.380	47.913	-216.248	-72.80	45.80	-15.11	-19.110	-2.646	73.794	-0.76382	0.47232	-0.41849	-0.13498	31.0	13111	100
2025-3-27 18:40:50.463	WT901BLE68-01(48591DE3C19B)	-0.169	-1.014	0.063	-2.380	47.913	-216.248	-73.99	43.60	-16.67	-19.110	-2.646	73.794	-0.76382	0.47232	-0.41849	-0.13498	31.0	13111	100
2025-3-27 18:40:50.463	WT901BLE68-01(48591DE3C19B)	-0.169	-1.077	0.123	4.211	43.457	-242.065	-74.99	41.14	-18.15	-19.110	-2.646	73.794	-0.76382	0.47232	-0.41849	-0.13498	31.0	13111	100
2025-3-27 18:40:50.463	WT901BLE68-01(48591DE3C19B)	-0.307	-1.077	0.123	4.211	43.457	-242.065	-75.88	38.67	-19.51	-19.110	-2.646	73.794	-0.76382	0.47232	-0.41849	-0.13498	31.0	13111	100
2025-3-27 18:40:50.498	WT901BLE68-01(48591DE3C19B)	-0.307	-1.142	0.188	9.827	24.231	-265.259	-76.50	35.95	-20.62	-19.110	-2.646	73.794	-0.76382	0.47232	-0.41849	-0.13498	31.0	13111	100
2025-3-27 18:40:50.498	WT901BLE68-01(48591DE3C19B)	-0.399	-1.142	0.188	9.827	24.231	-265.259	-77.03	33.23	-21.65	-19.110	-2.646	73.794	-0.76382	0.47232	-0.41849	-0.13498	31.0	13111	100
2025-3-27 18:40:50.498	WT901BLE68-01(48591DE3C19B)	-0.399	-1.178	0.249	12.390	4.883	-285.339	-77.37	30.30	-22.46	-19.110	-2.646	73.794	-0.76382	0.47232	-0.41849	-0.13498	31.0	13111	100
2025-3-27 18:40:50.498	WT901BLE68-01(48591DE3C19B)	-0.448	-1.178	0.249	12.390	4.883	-285.339	-77.65	27.39	-23.23	-19.110	-2.646	73.794	-0.76382	0.47232	-0.41849	-0.13498	31.0	13111	100
2025-3-27 18:40:50.554	WT901BLE68-01(48591DE3C19B)	-0.448	-1.197	0.291	10.254	-1.770	-297.058	-77.87	24.38	-23.91	-19.110	-2.646	73.794	-0.76382	0.47232	-0.41849	-0.13498	31.0	13111	100
2025-3-27 18:40:50.554	WT901BLE68-01(48591DE3C19B)	-0.474	-1.197	0.291	10.254	-1.770	-297.058	-78.04	21.39	-24.58	-19.110	-2.646	73.794	-0.76382	0.47232	-0.41849	-0.13498	31.0	13111	100
2025-3-27 18:40:50.554	WT901BLE68-01(48591DE3C19B)	-0.474	-1.206	0.311	7.019	4.395	-297.119	-78.23	18.44	-25.27	-19.110	-2.646	73.794	-0.76382	0.47232	-0.41849	-0.13498	31.0	13111	100
2025-3-27 18:40:50.554	WT901BLE68-01(48591DE3C19B)	-0.504	-1.206	0.311	7.019	4.395	-297.119	-78.37	15.50	-25.96	-19.110	-2.646	73.794	-0.76382	0.47232	-0.41849	-0.13498	31.0	13111	100
2025-3-27 18:40:50.584	WT901BLE68-01(48591DE3C19B)	-0.504	-1.177	0.311	4.272	12.024	-293.213	-78.51	12.65	-26.70	-19.110	-2.646	73.794	-0.76382	0.47232	-0.41849	-0.13498	31.0	13111	100
2025-3-27 18:40:50.584	WT901BLE68-01(48591DE3C19B)	-0.542	-1.177	0.311	4.272	12.024	-293.213	-78.61	9.82	-27.42	-19.110	-2.646	73.794	-0.76382	0.47232	-0.41849	-0.13498	31.0	13111	100
2025-3-27 18:40:50.584	WT901BLE68-01(48591DE3C19B)	-0.542	-1.151	0.296	1.587	15.625	-281.616	-78.70	7.12	-28.15	-19.110	-2.646	73.794	-0.76382	0.47232	-0.41849	-0.13498	31.0	13111	100
2025-3-27 18:40:50.584	WT901BLE68-01(48591DE3C19B)	-0.607	-1.151	0.296	1.587	15.625	-281.616	-78.76	4.45	-28.87	-19.110	-2.646	73.794	-0.75204	0.60834	-0.18082	0.17758	31.0	13111	100
2025-3-27 18:40:50.616	WT901BLE68-01(48591DE3C19B)	-0.607	-1.146	0.303	0.366	14.282	-266.235	-78.78	1.96	-29.54	-19.110	-2.646	73.794	-0.75204	0.60834	-0.18082	0.17758	31.0	13111	100
2025-3-27 18:40:50.616	WT901BLE68-01(48591DE3C19B)	-0.683	-1.146	0.303	0.366	14.282	-266.235	-78.78	-0.52	-30.21	-19.110	-2.646	73.794	-0.75204	0.60834	-0.18082	0.17758	31.0	13111	100
2025-3-27 18:40:50.616	WT901BLE68-01(48591DE3C19B)	-0.683	-1.154	0.337	1.587	10.376	-243.225	-78.74	-2.76	-30.80	-19.110	-2.646	73.794	-0.75204	0.60834	-0.18082	0.17758	31.0	13111	100
2025-3-27 18:40:50.616	WT901BLE68-01(48591DE3C19B)	-0.792	-1.154	0.337	1.587	10.376	-243.225	-78.67	-4.98	-31.39	-19.110	-2.646	73.794	-0.75204	0.60834	-0.18082	0.17758	31.0	13111	100
2025-3-27 18:40:50.674	WT901BLE68-01(48591DE3C19B)	-0.792	-1.124	0.389	8.667	8.118	-215.210	-78.52	-6.90	-31.92	-19.110	-2.646	73.794	-0.75204	0.60834	-0.18082	0.17758	31.0	13111	100
2025-3-27 18:40:50.674	WT901BLE68-01(48591DE3C19B)	-0.850	-1.124	0.389	8.667	8.118	-215.210	-78.35	-8.81	-32.45	-19.110	-2.646	73.794	-0.75204	0.60834	-0.18082	0.17758	31.0	13111	100
2025-3-27 18:40:50.674	WT901BLE68-01(48591DE3C19B)	-0.850	-1.078	0.408	12.451	4.395	-187.195	-78.13	-10.43	-32.89	-19.110	-2.646	73.794	-0.75204	0.60834	-0.18082	0.17758	31.0	13111	100
2025-3-27 18:40:50.674	WT901BLE68-01(48591DE3C19B)	-0.873	-1.078	0.408	12.451	4.395	-187.195	-77.90	-12.04	-33.34	-19.110	-2.646	73.794	-0.75204	0.60834	-0.18082	0.17758	31.0	13111	100
2025-3-27 18:40:50.703	WT901BLE68-01(48591DE3C19B)	-0.873	-1.120	0.413	12.573	4.272	-158.325	-77.67	-13.34	-33.74	-19.110	-2.646	73.794	-0.75204	0.60834	-0.18082	0.17758	31.0	13111	100
2025-3-27 18:40:50.703	WT901BLE68-01(48591DE3C19B)	-0.925	-1.120	0.413	12.573	4.272	-158.325	-77.43	-14.63	-34.14	-19.110	-2.646	73.794	-0.75204	0.60834	-0.18082	0.17758	31.0	13111	100
2025-3-27 18:40:50.703	WT901BLE68-01(48591DE3C19B)	-0.925	-1.250	0.377	13.611	13.306	-130.676	-77.16	-15.62	-34.58	-19.110	-2.646	73.794	-0.75204	0.60834	-0.18082	0.17758	31.0	13111	100
2025-3-27 18:40:50.703	WT901BLE68-01(48591DE3C19B)	-1.004	-1.250	0.377	13.611	13.306	-130.676	-76.88	-16.59	-35.03	-19.110	-2.646	73.794	-0.75204	0.60834	-0.18082	0.17758	31.0	13111	100
2025-3-27 18:40:50.734	WT901BLE68-01(48591DE3C19B)	-1.004	-1.348	0.345	14.709	21.851	-103.394	-76.57	-17.28	-35.50	-19.110	-2.646	73.794	-0.75204	0.60834	-0.18082	0.17758	31.0	13111	100
2025-3-27 18:40:50.734	WT901BLE68-01(48591DE3C19B)	-1.006	-1.348	0.345	14.709	21.851	-103.394	-76.27	-17.95	-35.98	-19.110	-2.646	73.794	-0.75204	0.60834	-0.18082	0.17758	31.0	13111	100
2025-3-27 18:40:50.734	WT901BLE68-01(48591DE3C19B)	-1.006	-1.430	0.318	12.024	32.288	-75.745	-75.98	-18.32	-36.50	-19.110	-2.646	73.794	-0.75204	0.60834	-0.18082	0.17758	31.0	13111	100
2025-3-27 18:40:50.734	WT901BLE68-01(48591DE3C19B)	-0.948	-1.430	0.318	12.024	32.288	-75.745	-75.69	-18.68	-37.01	-19.110	-2.646	73.794	-0.75204	0.60834	-0.18082	0.17758	31.0	13111	100
2025-3-27 18:40:50.797	WT901BLE68-01(48591DE3C19B)	-0.948	-1.458	0.291	8.667	49.988	-45.166	-75.40	-18.70	-37.63	-19.110	-2.646	73.794	-0.75204	0.60834	-0.18082	0.17758	31.0	13111	100
2025-3-27 18:40:50.797	WT901BLE68-01(48591DE3C19B)	-0.897	-1.458	0.291	8.667	49.988	-45.166	-75.12	-18.72	-38.25	-19.110	-2.646	73.794	-0.75204	0.60834	-0.18082	0.17758	31.0	13111	100
2025-3-27 18:40:50.797	WT901BLE68-01(48591DE3C19B)	-0.897	-1.347	0.309	4.944	65.796	-11.292	-74.86	-18.36	-38.94	-19.110	-2.646	73.794	-0.75204	0.60834	-0.18082	0.17758	31.0	13111	100
2025-3-27 18:40:50.798	WT901BLE68-01(48591DE3C19B)	-0.817	-1.347	0.309	4.944	65.796	-11.292	-74.61	-18.00	-39.62	-19.110	-2.646	73.794	-0.75204	0.60834	-0.18082	0.17758	31.0	13111	100
2025-3-27 18:40:50.826	WT901BLE68-01(48591DE3C19B)	-0.817	-1.125	0.334	-4.883	73.181	22.522	-74.47	-17.30	-40.28	-73.892	5.684	74.088	-0.75204	0.60834	-0.18082	0.17758	31.0	13111	100
2025-3-27 18:40:50.826	WT901BLE68-01(48591DE3C19B)	-0.758	-1.125	0.334	-4.883	73.181	22.522	-74.33	-16.60	-40.92	-73.892	5.684	74.088	-0.75204	0.60834	-0.18082	0.17758	31.0	13111	100
2025-3-27 18:40:50.826	WT901BLE68-01(48591DE3C19B)	-0.758	-1.010	0.338	-19.043	64.880	53.528	-74.40	-15.63	-41.40	-73.892	5.684	74.088	-0.75204	0.60834	-0.18082	0.17758	31.0	13111	100
2025-3-27 18:40:50.827	WT901BLE68-01(48591DE3C19B)	-0.726	-1.010	0.338	-19.043	64.880	53.528	-74.48	-14.66	-41.86	-73.892	5.684	74.088	-0.75204	0.60834	-0.18082	0.17758	31.0	13111	100
2025-3-27 18:40:50.855	WT901BLE68-01(48591DE3C19B)	-0.726	-0.901	0.302	-26.611	46.753	81.421	-74.70	-13.47	-42.08	-73.892	5.684	74.088	-0.75204	0.60834	-0.18082	0.17758	31.0	13111	100
2025-3-27 18:40:50.855	WT901BLE68-01(48591DE3C19B)	-0.706	-0.901	0.302	-26.611	46.753	81.421	-74.92	-12.29	-42.29	-73.892	5.684	74.088	-0.75204	0.60834	-0.18082	0.17758	31.0	13111	100
2025-3-27 18:40:50.856	WT901BLE68-01(48591DE3C19B)	-0.706	-0.747	0.241	-30.884	20.630	105.225	-75.25	-10.96	-42.19	-73.892	5.684	74.088	-0.75204	0.60834	-0.18082	0.17758	31.0	13111	100
2025-3-27 18:40:50.856	WT901BLE68-01(48591DE3C19B)	-0.685	-0.747	0.241	-30.884	20.630	105.225	-75.57	-9.62	-42.09	-73.892	5.684	74.088	-0.75204	0.60834	-0.18082	0.17758	31.0	13111	100
2025-3-27 18:40:50.913	WT901BLE68-01(48591DE3C19B)	-0.685	-0.657	0.175	-36.011	-13.062	126.892	-76.00	-8.17	-41.62	-73.892	5.684	74.088	-0.75204	0.60834	-0.18082	0.17758	31.0	13111	100
2025-3-27 18:40:50.913	WT901BLE68-01(48591DE3C19B)	-0.699	-0.657	0.175	-36.011	-13.062	126.892	-76.42	-6.71	-41.15	-73.892	5.684	74.088	-0.75204	0.60834	-0.18082	0.17758	31.0	13111	100
2025-3-27 18:40:50.913	WT901BLE68-01(48591DE3C19B)	-0.699	-0.668	0.135	-39.917	-48.218	143.738	-76.90	-5.17	-40.33	-73.892	5.684	74.088	-0.75204	0.60834	-0.18082	0.17758	31.0	13111	100
2025-3-27 18:40:50.914	WT901BLE68-01(48591DE3C19B)	-0.738	-0.668	0.135	-39.917	-48.218	143.738	-77.36	-3.64	-39.51	-73.892	5.684	74.088	-0.75204	0.60834	-0.18082	0.17758	31.0	13111	100
2025-3-27 18:40:50.943	WT901BLE68-01(48591DE3C19B)	-0.709	-0.795	0.096	-39.978	-86.365	157.837	-77.82	-2.04	-38.30	-73.892	5.684	74.088	-0.75204	0.60834	-0.18082	0.17758	31.0	13111	100
2025-3-27 18:40:50.944	WT901BLE68-01(48591DE3C19B)	-0.709	-0.961	0.080	-33.386	-120.178	168.823	-78.21	-0.43	-36.93	-73.892	5.684	74.088	-0.75204	0.60834	-0.18082	0.17758	31.0	13111	100
2025-3-27 18:40:50.944	WT901BLE68-01(48591DE3C19B)	-0.667	-0.961	0.080	-33.386	-120.178	168.823	-78.53	1.20	-35.40	-73.892	5.684	74.088	-0.75204	0.60834	-0.18082	0.17758	31.0	13111	100
2025-3-27 18:40:50.944	WT901BLE68-01(48591DE3C19B)	-0.667	-1.114	0.076	-22.461	-148.621	176.025	-78.75	2.83	-33.74	-73.892	5.684	74.088	-0.75204	0.60834	-0.18082	0.17758	31.0	13111	100
2025-3-27 18:40:50.976	WT901BLE68-01(48591DE3C19B)	-0.615	-1.114	0.076	-22.461	-148.621	176.025	-78.85	4.47	-31.94	-73.892	5.684	74.088	-0.75204	0.60834	-0.18082	0.17758	31.0	13111	100
2025-3-27 18:40:50.976	WT901BLE68-01(48591DE3C19B)	-0.615	-1.234	0.090	-8.484	-170.471	180.847	-78.83	6.10	-30.04	-73.892	5.684	74.088	-0.75204	0.60834	-0.18082	0.17758	31.0	13111	100
2025-3-27 18:40:50.976	WT901BLE68-01(48591DE3C19B)	-0.520	-1.234	0.090	-8.484	-170.471	180.847	-78.68	7.71	-28.03	-73.892	5.684	74.088	-0.75204	0.60834	-0.18082	0.17758	31.0	13111	100
2025-3-27 18:40:50.976	WT901BLE68-01(48591DE3C19B)	-0.520	-1.308	0.120	6.714	-182.861	185.791	-78.38	9.30	-25.94	-73.892	5.684	74.088	-0.75204	0.60834	-0.18082	0.17758	31.0	13111	100
2025-3-27 18:40:51.34	WT901BLE68-01(48591DE3C19B)	-0.408	-1.308	0.120	6.714	-182.861	185.791	-77.94	10.88	-23.77	-73.892	5.684	74.088	-0.75204	0.60834	-0.18082	0.17758	31.0	13111	100
2025-3-27 18:40:51.34	WT901BLE68-01(48591DE3C19B)	-0.408	-1.336	0.138	20.386	-178.345	190.796	-77.37	12.45	-21.62	-73.892	5.684	74.088	-0.77487	0.59442	-0.19968	0.07889	31.0	13111	100
2025-3-27 18:40:51.34	WT901BLE68-01(48591DE3C19B)	-0.321	-1.336	0.138	20.386	-178.345	190.796	-76.68	14.01	-19.45	-73.892	5.684	74.088	-0.77487	0.59442	-0.19968	0.07889	31.0	13111	100
2025-3-27 18:40:51.34	WT901BLE68-01(48591DE3C19B)	-0.321	-1.349	0.168	33.142	-157.532	194.580	-75.89	15.57	-17.36	-73.892	5.684	74.088	-0.77487	0.59442	-0.19968	0.07889	31.0	13111	100
2025-3-27 18:40:51.63	WT901BLE68-01(48591DE3C19B)	-0.262	-1.349	0.168	33.142	-157.532	194.580	-75.00	17.12	-15.34	-73.892	5.684	74.088	-0.77487	0.59442	-0.19968	0.07889	31.0	13111	100
2025-3-27 18:40:51.63	WT901BLE68-01(48591DE3C19B)	-0.262	-1.344	0.194	44.495	-127.197	197.449	-74.04	18.68	-13.43	-73.892	5.684	74.088	-0.77487	0.59442	-0.19968	0.07889	31.0	13111	100
2025-3-27 18:40:51.63	WT901BLE68-01(48591DE3C19B)	-0.216	-1.344	0.194	44.495	-127.197	197.449	-73.02	20.24	-11.63	-73.892	5.684	74.088	-0.77487	0.59442	-0.19968	0.07889	31.0	13111	100
2025-3-27 18:40:51.63	WT901BLE68-01(48591DE3C19B)	-0.216	-1.300	0.196	51.331	-90.637	198.669	-71.97	21.82	-9.98	-73.892	5.684	74.088	-0.77487	0.59442	-0.19968	0.07889	31.0	13111	100
2025-3-27 18:40:51.98	WT901BLE68-01(48591DE3C19B)	-0.189	-1.300	0.196	51.331	-90.637	198.669	-70.90	23.42	-8.46	-73.892	5.684	74.088	-0.77487	0.59442	-0.19968	0.07889	31.0	13111	100
2025-3-27 18:40:51.98	WT901BLE68-01(48591DE3C19B)	-0.189	-1.253	0.188	54.077	-48.950	197.937	-69.86	25.03	-7.12	-73.892	5.684	74.088	-0.77487	0.59442	-0.19968	0.07889	31.0	13111	100
2025-3-27 18:40:51.98	WT901BLE68-01(48591DE3C19B)	-0.204	-1.253	0.188	54.077	-48.950	197.937	-68.84	26.68	-5.94	-73.892	5.684	74.088	-0.77487	0.59442	-0.19968	0.07889	31.0	13111	100
2025-3-27 18:40:51.98	WT901BLE68-01(48591DE3C19B)	-0.204	-1.295	0.191	52.124	-11.658	194.336	-67.88	28.34	-4.92	-73.892	5.684	74.088	-0.77487	0.59442	-0.19968	0.07889	31.0	13111	100
2025-3-27 18:40:51.154	WT901BLE68-01(48591DE3C19B)	-0.223	-1.295	0.191	52.124	-11.658	194.336	-66.98	30.03	-4.04	-73.892	5.684	74.088	-0.77487	0.59442	-0.19968	0.07889	31.0	13111	100
2025-3-27 18:40:51.154	WT901BLE68-01(48591DE3C19B)	-0.223	-1.441	0.199	49.194	13.794	186.279	-66.14	31.70	-3.28	-73.892	5.684	74.088	-0.77487	0.59442	-0.19968	0.07889	31.0	13111	100
2025-3-27 18:40:51.154	WT901BLE68-01(48591DE3C19B)	-0.226	-1.441	0.199	49.194	13.794	186.279	-65.36	33.37	-2.63	-73.892	5.684	74.088	-0.77487	0.59442	-0.19968	0.07889	31.0	13111	100
2025-3-27 18:40:51.154	WT901BLE68-01(48591DE3C19B)	-0.226	-1.616	0.210	48.401	33.264	175.415	-64.63	35.00	-2.07	-73.892	5.684	74.088	-0.77487	0.59442	-0.19968	0.07889	31.0	13111	100
2025-3-27 18:40:51.186	WT901BLE68-01(48591DE3C19B)	-0.224	-1.616	0.210	48.401	33.264	175.415	-63.95	36.60	-1.60	-73.892	5.684	74.088	-0.77487	0.59442	-0.19968	0.07889	31.0	13111	100
2025-3-27 18:40:51.186	WT901BLE68-01(48591DE3C19B)	-0.224	-1.790	0.204	48.950	52.856	163.452	-63.33	38.17	-1.25	-73.892	5.684	74.088	-0.77487	0.59442	-0.19968	0.07889	31.0	13111	100
2025-3-27 18:40:51.186	WT901BLE68-01(48591DE3C19B)	-0.243	-1.790	0.204	48.950	52.856	163.452	-62.77	39.72	-1.01	-73.892	5.684	74.088	-0.77487	0.59442	-0.19968	0.07889	31.0	13111	100
2025-3-27 18:40:51.186	WT901BLE68-01(48591DE3C19B)	-0.243	-1.815	0.140	51.086	71.167	152.893	-62.28	41.25	-0.87	-73.892	5.684	74.088	-0.77487	0.59442	-0.19968	0.07889	31.0	13111	100
2025-3-27 18:40:51.216	WT901BLE68-01(48591DE3C19B)	-0.271	-1.815	0.140	51.086	71.167	152.893	-61.85	42.76	-0.85	-73.892	5.684	74.088	-0.77487	0.59442	-0.19968	0.07889	31.0	13111	100
2025-3-27 18:40:51.216	WT901BLE68-01(48591DE3C19B)	-0.271	-1.630	0.111	46.753	81.543	142.395	-61.51	44.24	-0.91	-73.892	5.684	74.088	-0.77487	0.59442	-0.19968	0.07889	31.0	13111	100
2025-3-27 18:40:51.217	WT901BLE68-01(48591DE3C19B)	-0.307	-1.630	0.111	46.753	81.543	142.395	-61.26	45.68	-1.05	-8.722	-2.058	63.602	-0.77487	0.59442	-0.19968	0.07889	31.0	13111	100
2025-3-27 18:40:51.217	WT901BLE68-01(48591DE3C19B)	-0.307	-1.466	0.152	34.851	74.402	129.761	-61.06	47.04	-1.18	-8.722	-2.058	63.602	-0.77487	0.59442	-0.19968	0.07889	31.0	13111	100
2025-3-27 18:40:51.274	WT901BLE68-01(48591DE3C19B)	-0.301	-1.466	0.152	34.851	74.402	129.761	-60.92	48.33	-1.30	-8.722	-2.058	63.602	-0.77487	0.59442	-0.19968	0.07889	31.0	13111	100
2025-3-27 18:40:51.274	WT901BLE68-01(48591DE3C19B)	-0.301	-1.315	0.254	25.269	50.537	116.211	-60.74	49.49	-1.31	-8.722	-2.058	63.602	-0.77487	0.59442	-0.19968	0.07889	31.0	13111	100
2025-3-27 18:40:51.274	WT901BLE68-01(48591DE3C19B)	-0.255	-1.315	0.254	25.269	50.537	116.211	-60.52	50.53	-1.19	-8.722	-2.058	63.602	-0.77487	0.59442	-0.19968	0.07889	31.0	13111	100
2025-3-27 18:40:51.274	WT901BLE68-01(48591DE3C19B)	-0.255	-1.150	0.352	21.912	17.822	103.027	-60.17	51.42	-0.88	-8.722	-2.058	63.602	-0.77487	0.59442	-0.19968	0.07889	31.0	13111	100
2025-3-27 18:40:51.303	WT901BLE68-01(48591DE3C19B)	-0.140	-1.150	0.352	21.912	17.822	103.027	-59.68	52.16	-0.37	-8.722	-2.058	63.602	-0.77487	0.59442	-0.19968	0.07889	31.0	13111	100
2025-3-27 18:40:51.303	WT901BLE68-01(48591DE3C19B)	-0.140	-0.970	0.297	20.386	-1.221	88.379	-59.11	52.79	0.22	-8.722	-2.058	63.602	-0.77487	0.59442	-0.19968	0.07889	31.0	13111	100
2025-3-27 18:40:51.303	WT901BLE68-01(48591DE3C19B)	-0.055	-0.970	0.297	20.386	-1.221	88.379	-58.47	53.29	0.91	-8.722	-2.058	63.602	-0.77487	0.59442	-0.19968	0.07889	31.0	13111	100
2025-3-27 18:40:51.303	WT901BLE68-01(48591DE3C19B)	-0.055	-0.816	0.201	17.700	0.732	70.129	-57.91	53.72	1.53	-8.722	-2.058	63.602	-0.77487	0.59442	-0.19968	0.07889	31.0	13111	100
2025-3-27 18:40:51.334	WT901BLE68-01(48591DE3C19B)	-0.033	-0.816	0.201	17.700	0.732	70.129	-57.42	54.07	2.05	-8.722	-2.058	63.602	-0.77487	0.59442	-0.19968	0.07889	31.0	13111	100
2025-3-27 18:40:51.334	WT901BLE68-01(48591DE3C19B)	-0.033	-0.783	0.169	12.451	10.925	46.875	-57.10	54.34	2.41	-8.722	-2.058	63.602	-0.77487	0.59442	-0.19968	0.07889	31.0	13111	100
2025-3-27 18:40:51.334	WT901BLE68-01(48591DE3C19B)	-0.037	-0.783	0.169	12.451	10.925	46.875	-56.95	54.53	2.59	-8.722	-2.058	63.602	-0.77487	0.59442	-0.19968	0.07889	31.0	13111	100
2025-3-27 18:40:51.334	WT901BLE68-01(48591DE3C19B)	-0.037	-0.844	0.179	13.062	25.146	17.517	-57.00	54.64	2.52	-8.722	-2.058	63.602	-0.77487	0.59442	-0.19968	0.07889	31.0	13111	100
2025-3-27 18:40:51.398	WT901BLE68-01(48591DE3C19B)	-0.052	-0.844	0.179	13.062	25.146	17.517	-57.24	54.66	2.21	-8.722	-2.058	63.602	-0.77487	0.59442	-0.19968	0.07889	31.0	13111	100
2025-3-27 18:40:51.398	WT901BLE68-01(48591DE3C19B)	-0.052	-0.808	0.194	20.569	40.161	-11.658	-57.63	54.60	1.65	-8.722	-2.058	63.602	-0.77487	0.59442	-0.19968	0.07889	31.0	13111	100
2025-3-27 18:40:51.398	WT901BLE68-01(48591DE3C19B)	-0.065	-0.808	0.194	20.569	40.161	-11.658	-58.18	54.44	0.86	-8.722	-2.058	63.602	-0.77487	0.59442	-0.19968	0.07889	31.0	13111	100
2025-3-27 18:40:51.398	WT901BLE68-01(48591DE3C19B)	-0.065	-0.712	0.182	25.391	53.284	-39.429	-59.03	54.11	-0.35	-8.722	-2.058	63.602	-0.77487	0.59442	-0.19968	0.07889	31.0	13111	100
2025-3-27 18:40:51.426	WT901BLE68-01(48591DE3C19B)	-0.082	-0.712	0.182	25.391	53.284	-39.429	-59.85	53.78	-1.55	-8.722	-2.058	63.602	-0.77591	0.43958	-0.39795	-0.21515	31.0	13111	100
2025-3-27 18:40:51.426	WT901BLE68-01(48591DE3C19B)	-0.082	-0.629	0.159	28.809	65.063	-66.162	-60.92	53.26	-3.11	-8.722	-2.058	63.602	-0.77591	0.43958	-0.39795	-0.21515	31.0	13111	100
2025-3-27 18:40:51.426	WT901BLE68-01(48591DE3C19B)	-0.146	-0.629	0.159	28.809	65.063	-66.162	-61.95	52.72	-4.63	-8.722	-2.058	63.602	-0.77591	0.43958	-0.39795	-0.21515	31.0	13111	100
2025-3-27 18:40:51.426	WT901BLE68-01(48591DE3C19B)	-0.146	-0.555	0.153	30.762	68.970	-90.637	-63.09	51.98	-6.34	-8.722	-2.058	63.602	-0.77591	0.43958	-0.39795	-0.21515	31.0	13111	100
2025-3-27 18:40:51.456	WT901BLE68-01(48591DE3C19B)	-0.205	-0.555	0.153	30.762	68.970	-90.637	-64.17	51.21	-7.99	-8.722	-2.058	63.602	-0.77591	0.43958	-0.39795	-0.21515	31.0	13111	100
2025-3-27 18:40:51.456	WT901BLE68-01(48591DE3C19B)	-0.205	-0.529	0.167	30.334	64.331	-113.220	-65.25	50.22	-9.67	-8.722	-2.058	63.602	-0.77591	0.43958	-0.39795	-0.21515	31.0	13111	100
2025-3-27 18:40:51.456	WT901BLE68-01(48591DE3C19B)	-0.270	-0.529	0.167	30.334	64.331	-113.220	-66.26	49.21	-11.27	-8.722	-2.058	63.602	-0.77591	0.43958	-0.39795	-0.21515	31.0	13111	100
2025-3-27 18:40:51.456	WT901BLE68-01(48591DE3C19B)	-0.270	-0.551	0.182	30.701	56.946	-132.935	-67.19	47.99	-12.80	-8.722	-2.058	63.602	-0.77591	0.43958	-0.39795	-0.21515	31.0	13111	100
