time	DeviceName	AccX(g)	AccY(g)	AccZ(g)	AsX(°/s)	AsY(°/s)	AsZ(°/s)	AngleX(°)	AngleY(°)	AngleZ(°)	HX(uT)	HY(uT)	HZ(uT)	Q0()	Q1()	Q2()	Q3()	Temperature(°C)	Version()	Battery level(%)
2025-3-27 18:48:0.467	WT901BLE68-01(48591DE3C19B)	-0.286	-0.909	0.300	0.427	3.845	-0.610	-70.82	16.52	-18.76	-47.334	-21.462	103.586	-0.80988	0.54810	-0.20364	0.04559	30.9	13111	100
2025-3-27 18:48:0.467	WT901BLE68-01(48591DE3C19B)	-0.303	-0.909	0.300	0.427	3.845	-0.610	-70.83	16.53	-18.80	-47.334	-21.462	103.586	-0.80988	0.54810	-0.20364	0.04559	30.9	13111	100
2025-3-27 18:48:0.467	WT901BLE68-01(48591DE3C19B)	-0.303	-0.919	0.300	0.366	2.197	-1.099	-70.84	16.52	-18.84	-47.334	-21.462	103.586	-0.80988	0.54810	-0.20364	0.04559	30.9	13111	100
2025-3-27 18:48:0.467	WT901BLE68-01(48591DE3C19B)	-0.290	-0.919	0.300	0.366	2.197	-1.099	-70.85	16.52	-18.86	-47.334	-21.462	103.586	-0.80988	0.54810	-0.20364	0.04559	30.9	13111	100
2025-3-27 18:48:0.499	WT901BLE68-01(48591DE3C19B)	-0.290	-0.924	0.303	0.671	-0.305	-2.075	-70.85	16.50	-18.87	-47.334	-21.462	103.586	-0.80988	0.54810	-0.20364	0.04559	30.9	13111	100
2025-3-27 18:48:0.499	WT901BLE68-01(48591DE3C19B)	-0.278	-0.924	0.303	0.671	-0.305	-2.075	-70.85	16.47	-18.87	-47.334	-21.462	103.586	-0.80988	0.54810	-0.20364	0.04559	30.9	13111	100
2025-3-27 18:48:0.499	WT901BLE68-01(48591DE3C19B)	-0.278	-0.922	0.304	0.916	-1.282	-2.563	-70.84	16.45	-18.87	-51.548	-20.972	104.076	-0.80988	0.54810	-0.20364	0.04559	30.9	13111	100
2025-3-27 18:48:0.499	WT901BLE68-01(48591DE3C19B)	-0.268	-0.922	0.304	0.916	-1.282	-2.563	-70.83	16.42	-18.87	-51.548	-20.972	104.076	-0.80988	0.54810	-0.20364	0.04559	30.9	13111	100
2025-3-27 18:48:0.554	WT901BLE68-01(48591DE3C19B)	-0.268	-0.919	0.305	1.221	-1.160	-2.930	-70.83	16.39	-18.87	-51.548	-20.972	104.076	-0.80988	0.54810	-0.20364	0.04559	30.9	13111	100
2025-3-27 18:48:0.554	WT901BLE68-01(48591DE3C19B)	-0.261	-0.919	0.305	1.221	-1.160	-2.930	-70.82	16.35	-18.87	-51.548	-20.972	104.076	-0.80988	0.54810	-0.20364	0.04559	30.9	13111	100
2025-3-27 18:48:0.555	WT901BLE68-01(48591DE3C19B)	-0.261	-0.914	0.308	1.587	0.427	-3.479	-70.81	16.32	-18.89	-51.548	-20.972	104.076	-0.80988	0.54810	-0.20364	0.04559	30.9	13111	100
2025-3-27 18:48:0.555	WT901BLE68-01(48591DE3C19B)	-0.266	-0.914	0.308	1.587	0.427	-3.479	-70.81	16.29	-18.91	-51.548	-20.972	104.076	-0.80988	0.54810	-0.20364	0.04559	30.9	13111	100
2025-3-27 18:48:0.583	WT901BLE68-01(48591DE3C19B)	-0.266	-0.912	0.309	1.587	1.221	-3.723	-70.80	16.25	-18.93	-51.548	-20.972	104.076	-0.80988	0.54810	-0.20364	0.04559	30.9	13111	100
2025-3-27 18:48:0.583	WT901BLE68-01(48591DE3C19B)	-0.274	-0.912	0.309	1.587	1.221	-3.723	-70.80	16.22	-18.96	-51.548	-20.972	104.076	-0.80988	0.54810	-0.20364	0.04559	30.9	13111	100
2025-3-27 18:48:0.584	WT901BLE68-01(48591DE3C19B)	-0.274	-0.905	0.304	1.221	-0.061	-3.967	-70.80	16.18	-18.98	-51.548	-20.972	104.076	-0.80988	0.54810	-0.20364	0.04559	30.9	13111	100
2025-3-27 18:48:0.584	WT901BLE68-01(48591DE3C19B)	-0.288	-0.905	0.304	1.221	-0.061	-3.967	-70.79	16.14	-18.99	-51.548	-20.972	104.076	-0.80988	0.54810	-0.20364	0.04559	30.9	13111	100
2025-3-27 18:48:0.614	WT901BLE68-01(48591DE3C19B)	-0.288	-0.899	0.292	0.061	-3.967	-4.578	-70.79	16.08	-18.97	-51.548	-20.972	104.076	-0.80988	0.54810	-0.20364	0.04559	30.9	13111	100
2025-3-27 18:48:0.614	WT901BLE68-01(48591DE3C19B)	-0.290	-0.899	0.292	0.061	-3.967	-4.578	-70.78	16.03	-18.95	-51.548	-20.972	104.076	-0.80988	0.54810	-0.20364	0.04559	30.9	13111	100
2025-3-27 18:48:0.614	WT901BLE68-01(48591DE3C19B)	-0.290	-0.899	0.292	-1.770	-9.705	-5.737	-70.79	15.94	-18.87	-51.548	-20.972	104.076	-0.80988	0.54810	-0.20364	0.04559	30.9	13111	100
2025-3-27 18:48:0.614	WT901BLE68-01(48591DE3C19B)	-0.286	-0.899	0.292	-1.770	-9.705	-5.737	-70.79	15.86	-18.80	-51.548	-20.972	104.076	-0.80988	0.54810	-0.20364	0.04559	30.9	13111	100
2025-3-27 18:48:0.674	WT901BLE68-01(48591DE3C19B)	-0.286	-0.904	0.301	-2.808	-14.282	-7.446	-70.79	15.74	-18.69	-51.548	-20.972	104.076	-0.80988	0.54810	-0.20364	0.04559	30.9	13111	100
2025-3-27 18:48:0.674	WT901BLE68-01(48591DE3C19B)	-0.292	-0.904	0.301	-2.808	-14.282	-7.446	-70.80	15.63	-18.58	-51.548	-20.972	104.076	-0.80988	0.54810	-0.20364	0.04559	30.9	13111	100
2025-3-27 18:48:0.674	WT901BLE68-01(48591DE3C19B)	-0.292	-0.896	0.308	-3.845	-20.020	-9.460	-70.80	15.49	-18.41	-51.548	-20.972	104.076	-0.80988	0.54810	-0.20364	0.04559	30.9	13111	100
2025-3-27 18:48:0.675	WT901BLE68-01(48591DE3C19B)	-0.291	-0.896	0.308	-3.845	-20.020	-9.460	-70.80	15.33	-18.25	-51.548	-20.972	104.076	-0.80988	0.54810	-0.20364	0.04559	30.9	13111	100
2025-3-27 18:48:0.704	WT901BLE68-01(48591DE3C19B)	-0.291	-0.881	0.313	-4.456	-25.757	-11.597	-70.78	15.15	-18.04	-51.548	-20.972	104.076	-0.81009	0.55048	-0.19501	0.05103	30.9	13111	100
2025-3-27 18:48:0.704	WT901BLE68-01(48591DE3C19B)	-0.300	-0.881	0.313	-4.456	-25.757	-11.597	-70.78	14.96	-17.83	-51.548	-20.972	104.076	-0.81009	0.55048	-0.19501	0.05103	30.9	13111	100
2025-3-27 18:48:0.705	WT901BLE68-01(48591DE3C19B)	-0.311	-0.892	0.307	-6.042	-31.738	-13.184	-70.77	14.74	-17.57	-51.548	-20.972	104.076	-0.81009	0.55048	-0.19501	0.05103	30.9	13111	100
2025-3-27 18:48:0.705	WT901BLE68-01(48591DE3C19B)	-0.311	-0.937	0.296	-7.324	-40.710	-13.489	-70.77	14.51	-17.26	-51.548	-20.972	104.076	-0.81009	0.55048	-0.19501	0.05103	30.9	13111	100
2025-3-27 18:48:0.735	WT901BLE68-01(48591DE3C19B)	-0.294	-0.937	0.296	-7.324	-40.710	-13.489	-70.76	14.27	-16.91	-51.548	-20.972	104.076	-0.81009	0.55048	-0.19501	0.05103	30.9	13111	100
2025-3-27 18:48:0.735	WT901BLE68-01(48591DE3C19B)	-0.294	-0.975	0.285	-8.545	-51.880	-12.695	-70.74	14.01	-16.51	-51.548	-20.972	104.076	-0.81009	0.55048	-0.19501	0.05103	30.9	13111	100
2025-3-27 18:48:0.735	WT901BLE68-01(48591DE3C19B)	-0.248	-0.975	0.285	-8.545	-51.880	-12.695	-70.72	13.74	-16.05	-51.548	-20.972	104.076	-0.81009	0.55048	-0.19501	0.05103	30.9	13111	100
2025-3-27 18:48:0.735	WT901BLE68-01(48591DE3C19B)	-0.248	-0.994	0.259	-11.108	-63.049	-9.766	-70.71	13.46	-15.53	-51.548	-20.972	104.076	-0.81009	0.55048	-0.19501	0.05103	30.9	13111	100
2025-3-27 18:48:0.796	WT901BLE68-01(48591DE3C19B)	-0.131	-0.994	0.259	-11.108	-63.049	-9.766	-70.70	13.18	-14.95	-51.548	-20.972	104.076	-0.81009	0.55048	-0.19501	0.05103	30.9	13111	100
2025-3-27 18:48:0.796	WT901BLE68-01(48591DE3C19B)	-0.131	-1.011	0.215	-17.822	-71.655	-7.874	-70.71	12.89	-14.33	-51.548	-20.972	104.076	-0.81009	0.55048	-0.19501	0.05103	30.9	13111	100
2025-3-27 18:48:0.796	WT901BLE68-01(48591DE3C19B)	0.015	-1.011	0.215	-17.822	-71.655	-7.874	-70.76	12.60	-13.66	-51.548	-20.972	104.076	-0.81009	0.55048	-0.19501	0.05103	30.9	13111	100
2025-3-27 18:48:0.796	WT901BLE68-01(48591DE3C19B)	0.015	-1.030	0.243	-21.851	-68.298	-7.446	-70.83	12.30	-13.01	-51.548	-20.972	104.076	-0.81009	0.55048	-0.19501	0.05103	30.9	13111	100
2025-3-27 18:48:0.824	WT901BLE68-01(48591DE3C19B)	0.051	-1.030	0.243	-21.851	-68.298	-7.446	-70.94	12.01	-12.38	-51.548	-20.972	104.076	-0.81009	0.55048	-0.19501	0.05103	30.9	13111	100
2025-3-27 18:48:0.824	WT901BLE68-01(48591DE3C19B)	0.051	-1.058	0.287	-23.743	-64.636	-5.554	-71.06	11.73	-11.76	-51.548	-20.972	104.076	-0.81009	0.55048	-0.19501	0.05103	30.9	13111	100
2025-3-27 18:48:0.824	WT901BLE68-01(48591DE3C19B)	0.095	-1.058	0.287	-23.743	-64.636	-5.554	-71.19	11.46	-11.15	-51.548	-20.972	104.076	-0.81009	0.55048	-0.19501	0.05103	30.9	13111	100
2025-3-27 18:48:0.824	WT901BLE68-01(48591DE3C19B)	0.095	-1.072	0.294	-19.531	-56.458	-5.615	-71.32	11.19	-10.59	-51.548	-20.972	104.076	-0.81009	0.55048	-0.19501	0.05103	30.9	13111	100
2025-3-27 18:48:0.857	WT901BLE68-01(48591DE3C19B)	0.169	-1.072	0.294	-19.531	-56.458	-5.615	-71.43	10.94	-10.06	-51.548	-20.972	104.076	-0.81009	0.55048	-0.19501	0.05103	30.9	13111	100
2025-3-27 18:48:0.857	WT901BLE68-01(48591DE3C19B)	0.169	-1.036	0.276	-12.207	-37.903	-9.155	-71.53	10.68	-9.63	-51.548	-20.972	104.076	-0.81009	0.55048	-0.19501	0.05103	30.9	13111	100
2025-3-27 18:48:0.857	WT901BLE68-01(48591DE3C19B)	0.156	-1.036	0.276	-12.207	-37.903	-9.155	-71.60	10.44	-9.29	-51.548	-20.972	104.076	-0.81009	0.55048	-0.19501	0.05103	30.9	13111	100
2025-3-27 18:48:0.857	WT901BLE68-01(48591DE3C19B)	0.156	-0.987	0.262	-6.348	-16.235	-14.160	-71.67	10.20	-9.07	-51.548	-20.972	104.076	-0.81009	0.55048	-0.19501	0.05103	30.9	13111	100
2025-3-27 18:48:0.915	WT901BLE68-01(48591DE3C19B)	0.092	-0.987	0.262	-6.348	-16.235	-14.160	-71.74	9.96	-8.96	-51.548	-20.972	104.076	-0.81009	0.55048	-0.19501	0.05103	30.9	13111	100
2025-3-27 18:48:0.915	WT901BLE68-01(48591DE3C19B)	0.092	-0.944	0.252	-3.479	3.174	-19.775	-71.80	9.73	-8.96	-40.474	-23.618	102.998	-0.81009	0.55048	-0.19501	0.05103	30.9	13111	100
2025-3-27 18:48:0.915	WT901BLE68-01(48591DE3C19B)	-0.013	-0.944	0.252	-3.479	3.174	-19.775	-71.87	9.50	-9.05	-40.474	-23.618	102.998	-0.81009	0.55048	-0.19501	0.05103	30.9	13111	100
2025-3-27 18:48:0.915	WT901BLE68-01(48591DE3C19B)	-0.013	-0.985	0.258	-5.066	13.916	-24.231	-71.95	9.26	-9.21	-40.474	-23.618	102.998	-0.81009	0.55048	-0.19501	0.05103	30.9	13111	100
2025-3-27 18:48:0.944	WT901BLE68-01(48591DE3C19B)	-0.124	-0.985	0.258	-5.066	13.916	-24.231	-72.05	9.01	-9.42	-40.474	-23.618	102.998	-0.81009	0.55048	-0.19501	0.05103	30.9	13111	100
2025-3-27 18:48:0.945	WT901BLE68-01(48591DE3C19B)	-0.124	-1.121	0.283	-7.446	11.292	-28.931	-72.16	8.75	-9.62	-40.474	-23.618	102.998	-0.81009	0.55048	-0.19501	0.05103	30.9	13111	100
2025-3-27 18:48:0.945	WT901BLE68-01(48591DE3C19B)	-0.233	-1.121	0.283	-7.446	11.292	-28.931	-72.28	8.46	-9.82	-40.474	-23.618	102.998	-0.81009	0.55048	-0.19501	0.05103	30.9	13111	100
2025-3-27 18:48:0.945	WT901BLE68-01(48591DE3C19B)	-0.233	-1.217	0.354	-6.775	-5.737	-35.828	-72.39	8.12	-9.95	-40.474	-23.618	102.998	-0.81009	0.55048	-0.19501	0.05103	30.9	13111	100
2025-3-27 18:48:0.975	WT901BLE68-01(48591DE3C19B)	-0.269	-1.217	0.354	-6.775	-5.737	-35.828	-72.48	7.73	-10.00	-40.474	-23.618	102.998	-0.81009	0.55048	-0.19501	0.05103	30.9	13111	100
2025-3-27 18:48:0.975	WT901BLE68-01(48591DE3C19B)	-0.269	-1.174	0.443	-5.676	-26.672	-43.701	-72.55	7.28	-9.96	-40.474	-23.618	102.998	-0.81009	0.55048	-0.19501	0.05103	30.9	13111	100
2025-3-27 18:48:0.975	WT901BLE68-01(48591DE3C19B)	-0.241	-1.174	0.443	-5.676	-26.672	-43.701	-72.60	6.77	-9.84	-40.474	-23.618	102.998	-0.81009	0.55048	-0.19501	0.05103	30.9	13111	100
2025-3-27 18:48:0.975	WT901BLE68-01(48591DE3C19B)	-0.241	-1.058	0.489	-6.897	-36.926	-49.561	-72.65	6.22	-9.67	-40.474	-23.618	102.998	-0.81009	0.55048	-0.19501	0.05103	30.9	13111	100
2025-3-27 18:48:1.35	WT901BLE68-01(48591DE3C19B)	-0.195	-1.058	0.489	-6.897	-36.926	-49.561	-72.70	5.64	-9.47	-40.474	-23.618	102.998	-0.81009	0.55048	-0.19501	0.05103	30.9	13111	100
2025-3-27 18:48:1.35	WT901BLE68-01(48591DE3C19B)	-0.195	-0.930	0.471	-6.897	-26.550	-53.955	-72.75	5.06	-9.32	-40.474	-23.618	102.998	-0.81009	0.55048	-0.19501	0.05103	30.9	13111	100
2025-3-27 18:48:1.35	WT901BLE68-01(48591DE3C19B)	-0.148	-0.930	0.471	-6.897	-26.550	-53.955	-72.80	4.48	-9.22	-40.474	-23.618	102.998	-0.81009	0.55048	-0.19501	0.05103	30.9	13111	100
2025-3-27 18:48:1.35	WT901BLE68-01(48591DE3C19B)	-0.148	-0.810	0.425	-6.042	0.549	-59.509	-72.84	3.92	-9.27	-40.474	-23.618	102.998	-0.81009	0.55048	-0.19501	0.05103	30.9	13111	100
2025-3-27 18:48:1.66	WT901BLE68-01(48591DE3C19B)	-0.158	-0.810	0.425	-6.042	0.549	-59.509	-72.90	3.38	-9.45	-40.474	-23.618	102.998	-0.81009	0.55048	-0.19501	0.05103	30.9	13111	100
2025-3-27 18:48:1.67	WT901BLE68-01(48591DE3C19B)	-0.158	-0.724	0.407	-6.104	23.376	-63.721	-72.95	2.85	-9.74	-40.474	-23.618	102.998	-0.81009	0.55048	-0.19501	0.05103	30.9	13111	100
2025-3-27 18:48:1.67	WT901BLE68-01(48591DE3C19B)	-0.197	-0.724	0.407	-6.104	23.376	-63.721	-73.00	2.34	-10.16	-40.474	-23.618	102.998	-0.81009	0.55048	-0.19501	0.05103	30.9	13111	100
2025-3-27 18:48:1.67	WT901BLE68-01(48591DE3C19B)	-0.197	-0.694	0.405	-8.789	31.494	-67.017	-73.06	1.83	-10.61	-40.474	-23.618	102.998	-0.81009	0.55048	-0.19501	0.05103	30.9	13111	100
2025-3-27 18:48:1.104	WT901BLE68-01(48591DE3C19B)	-0.234	-0.694	0.405	-8.789	31.494	-67.017	-73.13	1.32	-11.11	-40.474	-23.618	102.998	-0.81009	0.55048	-0.19501	0.05103	30.9	13111	100
2025-3-27 18:48:1.104	WT901BLE68-01(48591DE3C19B)	-0.234	-0.692	0.421	-7.935	38.635	-69.031	-73.18	0.82	-11.65	-40.474	-23.618	102.998	-0.81009	0.55048	-0.19501	0.05103	30.9	13111	100
2025-3-27 18:48:1.104	WT901BLE68-01(48591DE3C19B)	-0.323	-0.692	0.421	-7.935	38.635	-69.031	-73.22	0.33	-12.23	-40.474	-23.618	102.998	-0.79825	0.59274	-0.06583	0.08374	30.9	13111	100
2025-3-27 18:48:1.104	WT901BLE68-01(48591DE3C19B)	-0.323	-0.704	0.411	-6.348	41.382	-68.970	-73.25	-0.15	-12.82	-40.474	-23.618	102.998	-0.79825	0.59274	-0.06583	0.08374	30.9	13111	100
2025-3-27 18:48:1.155	WT901BLE68-01(48591DE3C19B)	-0.394	-0.704	0.411	-6.348	41.382	-68.970	-73.26	-0.62	-13.41	-40.474	-23.618	102.998	-0.79825	0.59274	-0.06583	0.08374	30.9	13111	100
2025-3-27 18:48:1.155	WT901BLE68-01(48591DE3C19B)	-0.394	-0.740	0.381	-5.188	38.330	-68.970	-73.25	-1.08	-14.01	-40.474	-23.618	102.998	-0.79825	0.59274	-0.06583	0.08374	30.9	13111	100
2025-3-27 18:48:1.155	WT901BLE68-01(48591DE3C19B)	-0.477	-0.740	0.381	-5.188	38.330	-68.970	-73.23	-1.54	-14.58	-40.474	-23.618	102.998	-0.79825	0.59274	-0.06583	0.08374	30.9	13111	100
2025-3-27 18:48:1.155	WT901BLE68-01(48591DE3C19B)	-0.477	-0.802	0.370	-4.211	27.100	-65.552	-73.21	-1.99	-15.10	-40.474	-23.618	102.998	-0.79825	0.59274	-0.06583	0.08374	30.9	13111	100
2025-3-27 18:48:1.215	WT901BLE68-01(48591DE3C19B)	-0.571	-0.802	0.370	-4.211	27.100	-65.552	-73.19	-2.43	-15.57	-40.474	-23.618	102.998	-0.79825	0.59274	-0.06583	0.08374	30.9	13111	100
2025-3-27 18:48:1.215	WT901BLE68-01(48591DE3C19B)	-0.571	-0.836	0.392	-2.258	10.864	-58.044	-73.14	-2.83	-15.85	-40.474	-23.618	102.998	-0.79825	0.59274	-0.06583	0.08374	30.9	13111	100
2025-3-27 18:48:1.215	WT901BLE68-01(48591DE3C19B)	-0.611	-0.836	0.392	-2.258	10.864	-58.044	-73.10	-3.22	-16.14	-40.474	-23.618	102.998	-0.79825	0.59274	-0.06583	0.08374	30.9	13111	100
2025-3-27 18:48:1.215	WT901BLE68-01(48591DE3C19B)	-0.611	-0.849	0.405	-0.610	-2.686	-48.889	-73.04	-3.56	-16.28	-40.474	-23.618	102.998	-0.79825	0.59274	-0.06583	0.08374	30.9	13111	100
2025-3-27 18:48:1.216	WT901BLE68-01(48591DE3C19B)	-0.633	-0.849	0.405	-0.610	-2.686	-48.889	-72.99	-3.88	-16.41	-40.474	-23.618	102.998	-0.79825	0.59274	-0.06583	0.08374	30.9	13111	100
2025-3-27 18:48:1.216	WT901BLE68-01(48591DE3C19B)	-0.633	-0.870	0.363	-0.977	-10.010	-38.757	-72.94	-4.11	-16.45	-40.474	-23.618	102.998	-0.79825	0.59274	-0.06583	0.08374	30.9	13111	100
2025-3-27 18:48:1.216	WT901BLE68-01(48591DE3C19B)	-0.658	-0.870	0.363	-0.977	-10.010	-38.757	-72.91	-4.35	-16.48	-40.474	-23.618	102.998	-0.79825	0.59274	-0.06583	0.08374	30.9	13111	100
2025-3-27 18:48:1.217	WT901BLE68-01(48591DE3C19B)	-0.658	-0.938	0.324	-4.517	-13.733	-28.015	-72.91	-4.48	-16.45	-40.474	-23.618	102.998	-0.79825	0.59274	-0.06583	0.08374	30.9	13111	100
2025-3-27 18:48:1.274	WT901BLE68-01(48591DE3C19B)	-0.683	-0.938	0.324	-4.517	-13.733	-28.015	-72.92	-4.60	-16.42	-40.474	-23.618	102.998	-0.79825	0.59274	-0.06583	0.08374	30.9	13111	100
2025-3-27 18:48:1.274	WT901BLE68-01(48591DE3C19B)	-0.683	-1.063	0.356	-7.813	-18.250	-17.151	-72.96	-4.63	-16.31	-40.474	-23.618	102.998	-0.79825	0.59274	-0.06583	0.08374	30.9	13111	100
2025-3-27 18:48:1.274	WT901BLE68-01(48591DE3C19B)	-1.408	-1.063	0.356	-7.813	-18.250	-17.151	-73.02	-4.65	-16.21	-40.474	-23.618	102.998	-0.79825	0.59274	-0.06583	0.08374	30.9	13111	100
2025-3-27 18:48:1.274	WT901BLE68-01(48591DE3C19B)	-5.634	-2.458	0.789	-10.254	-23.193	-7.019	-73.10	-4.60	-16.02	-40.474	-23.618	102.998	-0.79825	0.59274	-0.06583	0.08374	30.9	13111	100
2025-3-27 18:48:1.335	WT901BLE68-01(48591DE3C19B)	-0.722	-9.835	3.157	-10.254	-23.193	-7.019	-73.20	-4.54	-15.83	-40.474	-23.618	102.998	-0.79825	0.59274	-0.06583	0.08374	30.9	13111	100
2025-3-27 18:48:1.335	WT901BLE68-01(48591DE3C19B)	-0.722	-1.405	0.357	-13.123	-26.428	0.671	-73.33	-4.42	-15.59	-40.474	-23.618	102.998	-0.79825	0.59274	-0.06583	0.08374	30.9	13111	100
2025-3-27 18:48:1.336	WT901BLE68-01(48591DE3C19B)	-0.767	-1.405	0.357	-13.123	-26.428	0.671	-73.46	-4.29	-15.34	-40.474	-23.618	102.998	-0.79825	0.59274	-0.06583	0.08374	30.9	13111	100
2025-3-27 18:48:1.336	WT901BLE68-01(48591DE3C19B)	-0.767	-1.545	0.353	-15.869	-27.954	6.958	-73.62	-4.11	-15.07	-44.394	-22.246	103.586	-0.79825	0.59274	-0.06583	0.08374	30.9	13111	100
2025-3-27 18:48:1.336	WT901BLE68-01(48591DE3C19B)	-0.856	-1.545	0.353	-15.869	-27.954	6.958	-73.80	-3.94	-14.79	-44.394	-22.246	103.586	-0.79825	0.59274	-0.06583	0.08374	30.9	13111	100
2025-3-27 18:48:1.337	WT901BLE68-01(48591DE3C19B)	-0.856	-1.583	0.395	-16.479	-37.598	18.677	-73.98	-3.67	-14.38	-44.394	-22.246	103.586	-0.79825	0.59274	-0.06583	0.08374	30.9	13111	100
2025-3-27 18:48:1.337	WT901BLE68-01(48591DE3C19B)	-0.892	-1.583	0.395	-16.479	-37.598	18.677	-74.15	-3.42	-13.97	-44.394	-22.246	103.586	-0.79825	0.59274	-0.06583	0.08374	30.9	13111	100
2025-3-27 18:48:1.337	WT901BLE68-01(48591DE3C19B)	-0.892	-1.531	0.403	-13.245	-60.608	42.358	-74.32	-2.99	-13.28	-44.394	-22.246	103.586	-0.79825	0.59274	-0.06583	0.08374	30.9	13111	100
2025-3-27 18:48:1.395	WT901BLE68-01(48591DE3C19B)	-0.780	-1.531	0.403	-13.245	-60.608	42.358	-74.48	-2.56	-12.59	-44.394	-22.246	103.586	-0.79825	0.59274	-0.06583	0.08374	30.9	13111	100
2025-3-27 18:48:1.395	WT901BLE68-01(48591DE3C19B)	-0.780	-1.354	0.315	-7.324	-82.520	78.064	-74.58	-1.85	-11.59	-44.394	-22.246	103.586	-0.79825	0.59274	-0.06583	0.08374	30.9	13111	100
2025-3-27 18:48:1.395	WT901BLE68-01(48591DE3C19B)	-0.629	-1.354	0.315	-7.324	-82.520	78.064	-74.67	-1.14	-10.59	-44.394	-22.246	103.586	-0.79825	0.59274	-0.06583	0.08374	30.9	13111	100
2025-3-27 18:48:1.395	WT901BLE68-01(48591DE3C19B)	-0.629	-1.155	0.157	-3.845	-103.271	119.751	-74.72	-0.09	-9.28	-44.394	-22.246	103.586	-0.79825	0.59274	-0.06583	0.08374	30.9	13111	100
2025-3-27 18:48:1.424	WT901BLE68-01(48591DE3C19B)	-0.488	-1.155	0.157	-3.845	-103.271	119.751	-74.76	0.96	-7.97	-44.394	-22.246	103.586	-0.79825	0.59274	-0.06583	0.08374	30.9	13111	100
2025-3-27 18:48:1.424	WT901BLE68-01(48591DE3C19B)	-0.488	-1.090	0.034	-4.944	-125.916	159.485	-74.77	2.32	-6.33	-44.394	-22.246	103.586	-0.79825	0.59274	-0.06583	0.08374	30.9	13111	100
2025-3-27 18:48:1.424	WT901BLE68-01(48591DE3C19B)	-0.376	-1.090	0.034	-4.944	-125.916	159.485	-74.74	3.67	-4.69	-44.394	-22.246	103.586	-0.79825	0.59274	-0.06583	0.08374	30.9	13111	100
2025-3-27 18:48:1.425	WT901BLE68-01(48591DE3C19B)	-0.376	-1.246	-0.020	-3.235	-140.808	190.491	-74.65	5.27	-2.82	-44.394	-22.246	103.586	-0.79825	0.59274	-0.06583	0.08374	30.9	13111	100
2025-3-27 18:48:1.485	WT901BLE68-01(48591DE3C19B)	-0.292	-1.246	-0.020	-3.235	-140.808	190.491	-74.51	6.85	-0.94	-44.394	-22.246	103.586	-0.79825	0.59274	-0.06583	0.08374	30.9	13111	100
2025-3-27 18:48:1.486	WT901BLE68-01(48591DE3C19B)	-0.292	-1.411	0.011	9.521	-143.677	210.999	-74.19	8.60	1.04	-44.394	-22.246	103.586	-0.79825	0.59274	-0.06583	0.08374	30.9	13111	100
2025-3-27 18:48:1.486	WT901BLE68-01(48591DE3C19B)	-0.215	-1.411	0.011	9.521	-143.677	210.999	-73.80	10.31	3.03	-44.394	-22.246	103.586	-0.79825	0.59274	-0.06583	0.08374	30.9	13111	100
2025-3-27 18:48:1.486	WT901BLE68-01(48591DE3C19B)	-0.215	-1.513	0.078	23.743	-132.568	225.159	-73.23	12.16	4.99	-44.394	-22.246	103.586	-0.79825	0.59274	-0.06583	0.08374	30.9	13111	100
2025-3-27 18:48:1.517	WT901BLE68-01(48591DE3C19B)	-0.113	-1.513	0.078	23.743	-132.568	225.159	-72.60	13.97	6.97	-44.394	-22.246	103.586	-0.79391	0.59012	-0.06482	-0.13098	30.9	13111	100
2025-3-27 18:48:1.517	WT901BLE68-01(48591DE3C19B)	-0.113	-1.506	0.121	40.833	-99.243	228.821	-71.82	15.87	8.67	-44.394	-22.246	103.586	-0.79391	0.59012	-0.06482	-0.13098	30.9	13111	100
2025-3-27 18:48:1.517	WT901BLE68-01(48591DE3C19B)	-0.146	-1.506	0.121	40.833	-99.243	228.821	-70.98	17.73	10.42	-44.394	-22.246	103.586	-0.79391	0.59012	-0.06482	-0.13098	30.9	13111	100
2025-3-27 18:48:1.517	WT901BLE68-01(48591DE3C19B)	-0.146	-1.337	0.127	51.758	-60.608	232.666	-70.08	19.70	11.83	-44.394	-22.246	103.586	-0.79391	0.59012	-0.06482	-0.13098	30.9	13111	100
2025-3-27 18:48:1.547	WT901BLE68-01(48591DE3C19B)	-0.183	-1.337	0.127	51.758	-60.608	232.666	-69.13	21.64	13.29	-44.394	-22.246	103.586	-0.79391	0.59012	-0.06482	-0.13098	30.9	13111	100
2025-3-27 18:48:1.547	WT901BLE68-01(48591DE3C19B)	-0.183	-1.175	0.109	53.040	-35.522	231.445	-68.20	23.63	14.55	-44.394	-22.246	103.586	-0.79391	0.59012	-0.06482	-0.13098	30.9	13111	100
2025-3-27 18:48:1.547	WT901BLE68-01(48591DE3C19B)	-0.135	-1.175	0.109	53.040	-35.522	231.445	-67.21	25.57	15.84	-44.394	-22.246	103.586	-0.79391	0.59012	-0.06482	-0.13098	30.9	13111	100
2025-3-27 18:48:1.547	WT901BLE68-01(48591DE3C19B)	-0.135	-1.057	0.076	49.561	-13.733	227.905	-66.32	27.54	16.96	-44.394	-22.246	103.586	-0.79391	0.59012	-0.06482	-0.13098	30.9	13111	100
2025-3-27 18:48:1.605	WT901BLE68-01(48591DE3C19B)	-0.147	-1.057	0.076	49.561	-13.733	227.905	-65.36	29.48	18.12	-44.394	-22.246	103.586	-0.79391	0.59012	-0.06482	-0.13098	30.9	13111	100
2025-3-27 18:48:1.605	WT901BLE68-01(48591DE3C19B)	-0.147	-0.962	0.015	43.640	4.028	226.074	-64.52	31.44	19.13	-44.394	-22.246	103.586	-0.79391	0.59012	-0.06482	-0.13098	30.9	13111	100
2025-3-27 18:48:1.605	WT901BLE68-01(48591DE3C19B)	-0.154	-0.962	0.015	43.640	4.028	226.074	-63.62	33.38	20.20	-44.394	-22.246	103.586	-0.79391	0.59012	-0.06482	-0.13098	30.9	13111	100
2025-3-27 18:48:1.605	WT901BLE68-01(48591DE3C19B)	-0.154	-0.891	-0.038	33.813	6.714	222.412	-62.79	35.27	21.27	-44.394	-22.246	103.586	-0.79391	0.59012	-0.06482	-0.13098	30.9	13111	100
2025-3-27 18:48:1.635	WT901BLE68-01(48591DE3C19B)	-0.103	-0.891	-0.038	33.813	6.714	222.412	-61.91	37.14	22.38	-44.394	-22.246	103.586	-0.79391	0.59012	-0.06482	-0.13098	30.9	13111	100
2025-3-27 18:48:1.635	WT901BLE68-01(48591DE3C19B)	-0.103	-0.913	-0.087	20.752	3.540	213.867	-61.11	38.90	23.54	-44.394	-22.246	103.586	-0.79391	0.59012	-0.06482	-0.13098	30.9	13111	100
2025-3-27 18:48:1.635	WT901BLE68-01(48591DE3C19B)	-0.051	-0.913	-0.087	20.752	3.540	213.867	-60.26	40.63	24.75	-44.394	-22.246	103.586	-0.79391	0.59012	-0.06482	-0.13098	30.9	13111	100
2025-3-27 18:48:1.635	WT901BLE68-01(48591DE3C19B)	0.020	-1.045	-0.125	7.874	-0.305	199.280	-59.52	42.18	25.94	-44.394	-22.246	103.586	-0.79391	0.59012	-0.06482	-0.13098	30.9	13111	100
2025-3-27 18:48:1.667	WT901BLE68-01(48591DE3C19B)	0.020	-1.203	-0.175	-5.005	-18.616	176.819	-58.77	43.58	27.22	-44.394	-22.246	103.586	-0.79391	0.59012	-0.06482	-0.13098	30.9	13111	100
2025-3-27 18:48:1.667	WT901BLE68-01(48591DE3C19B)	0.237	-1.203	-0.175	-5.005	-18.616	176.819	-58.03	44.80	28.56	-44.394	-22.246	103.586	-0.79391	0.59012	-0.06482	-0.13098	30.9	13111	100
2025-3-27 18:48:1.667	WT901BLE68-01(48591DE3C19B)	0.237	-1.430	-0.259	-14.465	-35.706	140.869	-57.32	45.81	29.90	-44.394	-22.246	103.586	-0.79391	0.59012	-0.06482	-0.13098	30.9	13111	100
2025-3-27 18:48:1.668	WT901BLE68-01(48591DE3C19B)	0.527	-1.430	-0.259	-14.465	-35.706	140.869	-56.66	46.59	31.22	-44.394	-22.246	103.586	-0.79391	0.59012	-0.06482	-0.13098	30.9	13111	100
2025-3-27 18:48:1.725	WT901BLE68-01(48591DE3C19B)	0.527	-1.658	-0.279	-12.878	-30.823	98.328	-56.13	47.19	32.36	-44.394	-22.246	103.586	-0.79391	0.59012	-0.06482	-0.13098	30.9	13111	100
2025-3-27 18:48:1.725	WT901BLE68-01(48591DE3C19B)	0.419	-1.658	-0.279	-12.878	-30.823	98.328	-55.73	47.61	33.29	-49.098	-38.024	103.684	-0.79391	0.59012	-0.06482	-0.13098	30.9	13111	100
2025-3-27 18:48:1.725	WT901BLE68-01(48591DE3C19B)	0.419	-1.686	-0.149	-12.085	-6.836	54.871	-55.59	47.89	33.89	-49.098	-38.024	103.684	-0.79391	0.59012	-0.06482	-0.13098	30.9	13111	100
2025-3-27 18:48:1.725	WT901BLE68-01(48591DE3C19B)	0.132	-1.686	-0.149	-12.085	-6.836	54.871	-55.67	48.07	34.15	-49.098	-38.024	103.684	-0.79391	0.59012	-0.06482	-0.13098	30.9	13111	100
2025-3-27 18:48:1.754	WT901BLE68-01(48591DE3C19B)	0.132	-1.737	-0.023	-23.499	8.728	3.418	-56.06	48.06	34.10	-49.098	-38.024	103.684	-0.79391	0.59012	-0.06482	-0.13098	30.9	13111	100
2025-3-27 18:48:1.755	WT901BLE68-01(48591DE3C19B)	0.058	-1.737	-0.023	-23.499	8.728	3.418	-56.72	47.89	33.73	-49.098	-38.024	103.684	-0.79391	0.59012	-0.06482	-0.13098	30.9	13111	100
2025-3-27 18:48:1.755	WT901BLE68-01(48591DE3C19B)	0.058	-1.758	0.117	-23.315	20.264	-49.744	-57.58	47.52	33.09	-49.098	-38.024	103.684	-0.79391	0.59012	-0.06482	-0.13098	30.9	13111	100
2025-3-27 18:48:1.755	WT901BLE68-01(48591DE3C19B)	0.254	-1.758	0.117	-23.315	20.264	-49.744	-58.62	46.95	32.19	-49.098	-38.024	103.684	-0.79391	0.59012	-0.06482	-0.13098	30.9	13111	100
2025-3-27 18:48:1.785	WT901BLE68-01(48591DE3C19B)	0.254	-1.676	0.107	-21.179	28.992	-96.558	-59.78	46.20	31.09	-49.098	-38.024	103.684	-0.79391	0.59012	-0.06482	-0.13098	30.9	13111	100
2025-3-27 18:48:1.785	WT901BLE68-01(48591DE3C19B)	0.318	-1.676	0.107	-21.179	28.992	-96.558	-61.03	45.25	29.82	-49.098	-38.024	103.684	-0.79391	0.59012	-0.06482	-0.13098	30.9	13111	100
2025-3-27 18:48:1.785	WT901BLE68-01(48591DE3C19B)	0.318	-1.541	0.028	-25.635	35.828	-135.132	-62.37	44.12	28.44	-49.098	-38.024	103.684	-0.79391	0.59012	-0.06482	-0.13098	30.9	13111	100
2025-3-27 18:48:1.785	WT901BLE68-01(48591DE3C19B)	0.202	-1.541	0.028	-25.635	35.828	-135.132	-63.76	42.82	26.97	-49.098	-38.024	103.684	-0.79391	0.59012	-0.06482	-0.13098	30.9	13111	100
2025-3-27 18:48:1.845	WT901BLE68-01(48591DE3C19B)	0.202	-1.533	0.024	-35.156	39.185	-173.218	-65.21	41.34	25.44	-49.098	-38.024	103.684	-0.79391	0.59012	-0.06482	-0.13098	30.9	13111	100
2025-3-27 18:48:1.846	WT901BLE68-01(48591DE3C19B)	-0.017	-1.533	0.024	-35.156	39.185	-173.218	-66.68	39.67	23.89	-49.098	-38.024	103.684	-0.79391	0.59012	-0.06482	-0.13098	30.9	13111	100
2025-3-27 18:48:1.846	WT901BLE68-01(48591DE3C19B)	-0.017	-1.579	0.046	-42.053	40.649	-209.167	-68.15	37.81	22.34	-49.098	-38.024	103.684	-0.79391	0.59012	-0.06482	-0.13098	30.9	13111	100
2025-3-27 18:48:1.846	WT901BLE68-01(48591DE3C19B)	-0.219	-1.579	0.046	-42.053	40.649	-209.167	-69.59	35.77	20.81	-49.098	-38.024	103.684	-0.79391	0.59012	-0.06482	-0.13098	30.9	13111	100
2025-3-27 18:48:1.877	WT901BLE68-01(48591DE3C19B)	-0.219	-1.520	0.152	-36.865	40.833	-237.427	-70.92	33.59	19.33	-49.098	-38.024	103.684	-0.79391	0.59012	-0.06482	-0.13098	30.9	13111	100
2025-3-27 18:48:1.877	WT901BLE68-01(48591DE3C19B)	-0.272	-1.520	0.152	-36.865	40.833	-237.427	-72.15	31.27	17.90	-49.098	-38.024	103.684	-0.79391	0.59012	-0.06482	-0.13098	30.9	13111	100
2025-3-27 18:48:1.877	WT901BLE68-01(48591DE3C19B)	-0.272	-1.374	0.288	-28.076	44.067	-263.855	-73.26	28.82	16.51	-49.098	-38.024	103.684	-0.79391	0.59012	-0.06482	-0.13098	30.9	13111	100
2025-3-27 18:48:1.877	WT901BLE68-01(48591DE3C19B)	-0.135	-1.374	0.288	-28.076	44.067	-263.855	-74.24	26.25	15.14	-49.098	-38.024	103.684	-0.79391	0.59012	-0.06482	-0.13098	30.9	13111	100
2025-3-27 18:48:1.907	WT901BLE68-01(48591DE3C19B)	-0.135	-1.304	0.305	-29.480	59.998	-280.029	-75.18	23.62	13.76	-49.098	-38.024	103.684	-0.79391	0.59012	-0.06482	-0.13098	30.9	13111	100
2025-3-27 18:48:1.907	WT901BLE68-01(48591DE3C19B)	-0.047	-1.304	0.305	-29.480	59.998	-280.029	-76.06	20.93	12.35	-49.098	-38.024	103.684	-0.79391	0.59012	-0.06482	-0.13098	30.9	13111	100
2025-3-27 18:48:1.907	WT901BLE68-01(48591DE3C19B)	-0.047	-1.303	0.271	-27.527	92.590	-286.804	-76.90	18.25	10.83	-49.098	-38.024	103.684	-0.76141	0.62549	-0.06039	-0.15891	30.9	13111	100
2025-3-27 18:48:1.907	WT901BLE68-01(48591DE3C19B)	-0.105	-1.303	0.271	-27.527	92.590	-286.804	-77.69	15.56	9.21	-49.098	-38.024	103.684	-0.76141	0.62549	-0.06039	-0.15891	30.9	13111	100
2025-3-27 18:48:1.965	WT901BLE68-01(48591DE3C19B)	-0.105	-1.337	0.225	-22.339	108.337	-292.175	-78.38	12.86	7.56	-49.098	-38.024	103.684	-0.76141	0.62549	-0.06039	-0.15891	30.9	13111	100
2025-3-27 18:48:1.965	WT901BLE68-01(48591DE3C19B)	-0.211	-1.337	0.225	-22.339	108.337	-292.175	-78.96	10.16	5.88	-49.098	-38.024	103.684	-0.76141	0.62549	-0.06039	-0.15891	30.9	13111	100
2025-3-27 18:48:1.965	WT901BLE68-01(48591DE3C19B)	-0.211	-1.428	0.218	-13.000	113.220	-293.457	-79.42	7.45	4.22	-49.098	-38.024	103.684	-0.76141	0.62549	-0.06039	-0.15891	30.9	13111	100
2025-3-27 18:48:1.965	WT901BLE68-01(48591DE3C19B)	-0.398	-1.428	0.218	-13.000	113.220	-293.457	-79.74	4.75	2.57	-49.098	-38.024	103.684	-0.76141	0.62549	-0.06039	-0.15891	30.9	13111	100
2025-3-27 18:48:1.995	WT901BLE68-01(48591DE3C19B)	-0.398	-1.489	0.191	5.188	118.408	-288.940	-79.90	2.09	0.90	-49.098	-38.024	103.684	-0.76141	0.62549	-0.06039	-0.15891	30.9	13111	100
2025-3-27 18:48:1.995	WT901BLE68-01(48591DE3C19B)	-0.602	-1.489	0.191	5.188	118.408	-288.940	-79.89	-0.52	-0.77	-49.098	-38.024	103.684	-0.76141	0.62549	-0.06039	-0.15891	30.9	13111	100
2025-3-27 18:48:1.995	WT901BLE68-01(48591DE3C19B)	-0.602	-1.437	0.175	25.452	118.958	-279.968	-79.71	-3.05	-2.44	-49.098	-38.024	103.684	-0.76141	0.62549	-0.06039	-0.15891	30.9	13111	100
2025-3-27 18:48:1.996	WT901BLE68-01(48591DE3C19B)	-0.640	-1.437	0.175	25.452	118.958	-279.968	-79.34	-5.52	-4.12	-49.098	-38.024	103.684	-0.76141	0.62549	-0.06039	-0.15891	30.9	13111	100
2025-3-27 18:48:2.24	WT901BLE68-01(48591DE3C19B)	-0.640	-1.331	0.154	38.025	111.145	-263.062	-78.86	-7.87	-5.77	-49.098	-38.024	103.684	-0.76141	0.62549	-0.06039	-0.15891	30.9	13111	100
2025-3-27 18:48:2.25	WT901BLE68-01(48591DE3C19B)	-0.605	-1.331	0.154	38.025	111.145	-263.062	-78.25	-10.11	-7.40	-49.098	-38.024	103.684	-0.76141	0.62549	-0.06039	-0.15891	30.9	13111	100
2025-3-27 18:48:2.25	WT901BLE68-01(48591DE3C19B)	-0.605	-1.167	0.229	47.302	104.065	-235.596	-77.55	-12.18	-8.99	-49.098	-38.024	103.684	-0.76141	0.62549	-0.06039	-0.15891	30.9	13111	100
2025-3-27 18:48:2.25	WT901BLE68-01(48591DE3C19B)	-0.643	-1.167	0.229	47.302	104.065	-235.596	-76.75	-14.08	-10.56	-49.098	-38.024	103.684	-0.76141	0.62549	-0.06039	-0.15891	30.9	13111	100
2025-3-27 18:48:2.84	WT901BLE68-01(48591DE3C19B)	-0.643	-0.952	0.296	47.852	101.257	-207.275	-75.90	-15.81	-12.12	-49.098	-38.024	103.684	-0.76141	0.62549	-0.06039	-0.15891	30.9	13111	100
2025-3-27 18:48:2.84	WT901BLE68-01(48591DE3C19B)	-0.682	-0.952	0.296	47.852	101.257	-207.275	-75.02	-17.36	-13.67	-49.098	-38.024	103.684	-0.76141	0.62549	-0.06039	-0.15891	30.9	13111	100
2025-3-27 18:48:2.84	WT901BLE68-01(48591DE3C19B)	-0.682	-0.861	0.339	43.030	104.492	-182.007	-74.11	-18.75	-15.24	-49.098	-38.024	103.684	-0.76141	0.62549	-0.06039	-0.15891	30.9	13111	100
2025-3-27 18:48:2.84	WT901BLE68-01(48591DE3C19B)	-0.771	-0.861	0.339	43.030	104.492	-182.007	-73.19	-19.98	-16.83	-49.098	-38.024	103.684	-0.76141	0.62549	-0.06039	-0.15891	30.9	13111	100
2025-3-27 18:48:2.115	WT901BLE68-01(48591DE3C19B)	-0.771	-0.914	0.344	42.664	104.248	-155.396	-72.25	-21.03	-18.40	-49.098	-38.024	103.684	-0.76141	0.62549	-0.06039	-0.15891	30.9	13111	100
2025-3-27 18:48:2.115	WT901BLE68-01(48591DE3C19B)	-0.847	-0.914	0.344	42.664	104.248	-155.396	-71.28	-21.92	-19.96	-49.098	-38.024	103.684	-0.76141	0.62549	-0.06039	-0.15891	30.9	13111	100
2025-3-27 18:48:2.115	WT901BLE68-01(48591DE3C19B)	-0.847	-0.925	0.336	46.265	95.703	-128.052	-70.33	-22.55	-21.37	-49.098	-38.024	103.684	-0.76141	0.62549	-0.06039	-0.15891	30.9	13111	100
2025-3-27 18:48:2.115	WT901BLE68-01(48591DE3C19B)	-0.893	-0.925	0.336	46.265	95.703	-128.052	-69.35	-23.14	-22.79	-63.504	-31.556	101.920	-0.76141	0.62549	-0.06039	-0.15891	30.9	13111	100
2025-3-27 18:48:2.144	WT901BLE68-01(48591DE3C19B)	-0.893	-0.876	0.269	46.936	80.200	-99.243	-68.46	-23.48	-23.96	-63.504	-31.556	101.920	-0.76141	0.62549	-0.06039	-0.15891	30.9	13111	100
2025-3-27 18:48:2.144	WT901BLE68-01(48591DE3C19B)	-0.996	-0.876	0.269	46.936	80.200	-99.243	-67.56	-23.79	-25.14	-63.504	-31.556	101.920	-0.76141	0.62549	-0.06039	-0.15891	30.9	13111	100
2025-3-27 18:48:2.144	WT901BLE68-01(48591DE3C19B)	-0.996	-0.869	0.158	41.321	56.274	-71.228	-66.86	-23.92	-25.97	-63.504	-31.556	101.920	-0.76141	0.62549	-0.06039	-0.15891	30.9	13111	100
2025-3-27 18:48:2.144	WT901BLE68-01(48591DE3C19B)	-1.139	-0.869	0.158	41.321	56.274	-71.228	-66.17	-24.02	-26.81	-63.504	-31.556	101.920	-0.76141	0.62549	-0.06039	-0.15891	30.9	13111	100
2025-3-27 18:48:2.205	WT901BLE68-01(48591DE3C19B)	-1.139	-0.944	0.097	30.334	20.020	-42.603	-65.79	-23.99	-27.15	-63.504	-31.556	101.920	-0.76141	0.62549	-0.06039	-0.15891	30.9	13111	100
2025-3-27 18:48:2.205	WT901BLE68-01(48591DE3C19B)	-1.225	-0.944	0.097	30.334	20.020	-42.603	-65.41	-23.96	-27.49	-63.504	-31.556	101.920	-0.76141	0.62549	-0.06039	-0.15891	30.9	13111	100
2025-3-27 18:48:2.205	WT901BLE68-01(48591DE3C19B)	-1.225	-1.108	0.093	16.235	-22.461	-15.076	-65.40	-23.83	-27.28	-63.504	-31.556	101.920	-0.76141	0.62549	-0.06039	-0.15891	30.9	13111	100
2025-3-27 18:48:2.205	WT901BLE68-01(48591DE3C19B)	-1.165	-1.108	0.093	16.235	-22.461	-15.076	-65.40	-23.71	-27.06	-63.504	-31.556	101.920	-0.76141	0.62549	-0.06039	-0.15891	30.9	13111	100
2025-3-27 18:48:2.234	WT901BLE68-01(48591DE3C19B)	-1.165	-1.223	0.177	3.845	-52.307	13.489	-65.69	-23.45	-26.43	-63.504	-31.556	101.920	-0.76141	0.62549	-0.06039	-0.15891	30.9	13111	100
2025-3-27 18:48:2.235	WT901BLE68-01(48591DE3C19B)	-0.983	-1.223	0.177	3.845	-52.307	13.489	-65.98	-23.18	-25.78	-63.504	-31.556	101.920	-0.76141	0.62549	-0.06039	-0.15891	30.9	13111	100
2025-3-27 18:48:2.235	WT901BLE68-01(48591DE3C19B)	-0.983	-1.187	0.251	-10.864	-58.838	49.622	-66.49	-22.61	-24.93	-63.504	-31.556	101.920	-0.76141	0.62549	-0.06039	-0.15891	30.9	13111	100
2025-3-27 18:48:2.235	WT901BLE68-01(48591DE3C19B)	-0.886	-1.187	0.251	-10.864	-58.838	49.622	-66.99	-22.04	-24.08	-63.504	-31.556	101.920	-0.76141	0.62549	-0.06039	-0.15891	30.9	13111	100
2025-3-27 18:48:2.266	WT901BLE68-01(48591DE3C19B)	-0.886	-1.158	0.275	-31.494	-52.307	88.196	-67.71	-21.08	-23.14	-63.504	-31.556	101.920	-0.76141	0.62549	-0.06039	-0.15891	30.9	13111	100
2025-3-27 18:48:2.267	WT901BLE68-01(48591DE3C19B)	-0.919	-1.158	0.275	-31.494	-52.307	88.196	-68.41	-20.12	-22.22	-63.504	-31.556	101.920	-0.76141	0.62549	-0.06039	-0.15891	30.9	13111	100
2025-3-27 18:48:2.267	WT901BLE68-01(48591DE3C19B)	-0.919	-1.156	0.284	-42.664	-52.307	123.413	-69.24	-18.82	-21.19	-63.504	-31.556	101.920	-0.76141	0.62549	-0.06039	-0.15891	30.9	13111	100
2025-3-27 18:48:2.267	WT901BLE68-01(48591DE3C19B)	-0.999	-1.156	0.284	-42.664	-52.307	123.413	-70.03	-17.52	-20.19	-63.504	-31.556	101.920	-0.76141	0.62549	-0.06039	-0.15891	30.9	13111	100
2025-3-27 18:48:2.325	WT901BLE68-01(48591DE3C19B)	-0.499	-1.043	0.288	-49.316	-75.867	156.067	-70.94	-15.98	-18.86	-63.504	-31.556	101.920	-0.76141	0.62549	-0.06039	-0.15891	30.9	13111	100
2025-3-27 18:48:2.325	WT901BLE68-01(48591DE3C19B)	-0.981	-0.521	0.144	-49.316	-75.867	156.067	-71.81	-14.43	-17.57	-63.504	-31.556	101.920	-0.78284	0.59052	0.01166	0.19553	30.9	13111	100
2025-3-27 18:48:2.326	WT901BLE68-01(48591DE3C19B)	-0.981	-1.054	0.239	-57.251	-122.070	191.101	-72.84	-12.67	-15.75	-63.504	-31.556	101.920	-0.78284	0.59052	0.01166	0.19553	30.9	13111	100
2025-3-27 18:48:2.326	WT901BLE68-01(48591DE3C19B)	-0.901	-1.054	0.239	-57.251	-122.070	191.101	-73.81	-10.89	-13.97	-63.504	-31.556	101.920	-0.78284	0.59052	0.01166	0.19553	30.9	13111	100
2025-3-27 18:48:2.354	WT901BLE68-01(48591DE3C19B)	-0.901	-1.260	0.158	-56.030	-169.678	225.159	-74.79	-8.90	-11.67	-63.504	-31.556	101.920	-0.78284	0.59052	0.01166	0.19553	30.9	13111	100
2025-3-27 18:48:2.354	WT901BLE68-01(48591DE3C19B)	-0.796	-1.260	0.158	-56.030	-169.678	225.159	-75.69	-6.88	-9.40	-63.504	-31.556	101.920	-0.78284	0.59052	0.01166	0.19553	30.9	13111	100
2025-3-27 18:48:2.354	WT901BLE68-01(48591DE3C19B)	-0.796	-1.525	0.053	-40.405	-207.275	251.526	-76.39	-4.69	-6.74	-63.504	-31.556	101.920	-0.78284	0.59052	0.01166	0.19553	30.9	13111	100
2025-3-27 18:48:2.354	WT901BLE68-01(48591DE3C19B)	-0.641	-1.525	0.053	-40.405	-207.275	251.526	-76.99	-2.48	-4.11	-63.504	-31.556	101.920	-0.78284	0.59052	0.01166	0.19553	30.9	13111	100
2025-3-27 18:48:2.385	WT901BLE68-01(48591DE3C19B)	-0.641	-1.764	-0.001	-12.939	-226.379	267.639	-77.22	-0.16	-1.27	-63.504	-31.556	101.920	-0.78284	0.59052	0.01166	0.19553	30.9	13111	100
2025-3-27 18:48:2.385	WT901BLE68-01(48591DE3C19B)	-0.484	-1.764	-0.001	-12.939	-226.379	267.639	-77.34	2.13	1.56	-63.504	-31.556	101.920	-0.78284	0.59052	0.01166	0.19553	30.9	13111	100
2025-3-27 18:48:2.385	WT901BLE68-01(48591DE3C19B)	-0.484	-1.890	0.028	21.301	-225.708	272.705	-77.02	4.45	4.41	-63.504	-31.556	101.920	-0.78284	0.59052	0.01166	0.19553	30.9	13111	100
2025-3-27 18:48:2.385	WT901BLE68-01(48591DE3C19B)	-0.322	-1.890	0.028	21.301	-225.708	272.705	-76.58	6.73	7.28	-63.504	-31.556	101.920	-0.78284	0.59052	0.01166	0.19553	30.9	13111	100
2025-3-27 18:48:2.445	WT901BLE68-01(48591DE3C19B)	-0.322	-1.870	0.050	50.781	-203.369	272.888	-75.77	9.00	9.97	-63.504	-31.556	101.920	-0.78284	0.59052	0.01166	0.19553	30.9	13111	100
2025-3-27 18:48:2.445	WT901BLE68-01(48591DE3C19B)	-0.177	-1.870	0.050	50.781	-203.369	272.888	-74.86	11.21	12.71	-63.504	-31.556	101.920	-0.78284	0.59052	0.01166	0.19553	30.9	13111	100
2025-3-27 18:48:2.445	WT901BLE68-01(48591DE3C19B)	-0.177	-1.746	0.076	73.120	-151.611	272.278	-73.71	13.48	14.99	-63.504	-31.556	101.920	-0.78284	0.59052	0.01166	0.19553	30.9	13111	100
2025-3-27 18:48:2.445	WT901BLE68-01(48591DE3C19B)	-0.125	-1.746	0.076	73.120	-151.611	272.278	-72.48	15.68	17.33	-63.504	-31.556	101.920	-0.78284	0.59052	0.01166	0.19553	30.9	13111	100
2025-3-27 18:48:2.476	WT901BLE68-01(48591DE3C19B)	-0.125	-1.577	0.091	83.252	-83.313	271.362	-71.24	18.01	19.07	-63.504	-31.556	101.920	-0.78284	0.59052	0.01166	0.19553	30.9	13111	100
2025-3-27 18:48:2.477	WT901BLE68-01(48591DE3C19B)	-0.163	-1.577	0.091	83.252	-83.313	271.362	-69.91	20.29	20.87	-63.504	-31.556	101.920	-0.78284	0.59052	0.01166	0.19553	30.9	13111	100
2025-3-27 18:48:2.477	WT901BLE68-01(48591DE3C19B)	-0.163	-1.479	0.112	82.520	-36.316	271.179	-68.68	22.66	22.27	-63.504	-31.556	101.920	-0.78284	0.59052	0.01166	0.19553	30.9	13111	100
2025-3-27 18:48:2.477	WT901BLE68-01(48591DE3C19B)	-0.141	-1.479	0.112	82.520	-36.316	271.179	-67.37	24.99	23.75	-63.504	-31.556	101.920	-0.78284	0.59052	0.01166	0.19553	30.9	13111	100
2025-3-27 18:48:2.507	WT901BLE68-01(48591DE3C19B)	-0.141	-1.479	0.128	79.773	-3.723	272.217	-66.14	27.42	24.97	-63.504	-31.556	101.920	-0.78284	0.59052	0.01166	0.19553	30.9	13111	100
2025-3-27 18:48:2.507	WT901BLE68-01(48591DE3C19B)	-0.121	-1.479	0.128	79.773	-3.723	272.217	-64.84	29.79	26.27	-63.504	-31.556	101.920	-0.78284	0.59052	0.01166	0.19553	30.9	13111	100
2025-3-27 18:48:2.507	WT901BLE68-01(48591DE3C19B)	-0.121	-1.399	0.092	75.745	25.879	274.414	-63.65	32.27	27.35	-52.234	-35.966	99.960	-0.78284	0.59052	0.01166	0.19553	30.9	13111	100
2025-3-27 18:48:2.507	WT901BLE68-01(48591DE3C19B)	-0.163	-1.399	0.092	75.745	25.879	274.414	-62.38	34.71	28.52	-52.234	-35.966	99.960	-0.78284	0.59052	0.01166	0.19553	30.9	13111	100
2025-3-27 18:48:2.565	WT901BLE68-01(48591DE3C19B)	-0.163	-1.296	0.017	67.444	46.387	272.400	-61.24	37.20	29.53	-52.234	-35.966	99.960	-0.78284	0.59052	0.01166	0.19553	30.9	13111	100
2025-3-27 18:48:2.565	WT901BLE68-01(48591DE3C19B)	-0.195	-1.296	0.017	67.444	46.387	272.400	-60.01	39.65	30.64	-52.234	-35.966	99.960	-0.78284	0.59052	0.01166	0.19553	30.9	13111	100
2025-3-27 18:48:2.565	WT901BLE68-01(48591DE3C19B)	-0.253	-1.224	-0.043	54.626	47.485	259.949	-58.89	41.97	31.74	-52.234	-35.966	99.960	-0.78284	0.59052	0.01166	0.19553	30.9	13111	100
2025-3-27 18:48:2.565	WT901BLE68-01(48591DE3C19B)	-0.253	-1.292	-0.060	36.377	31.860	241.638	-57.79	44.18	32.79	-52.234	-35.966	99.960	-0.78284	0.59052	0.01166	0.19553	30.9	13111	100
2025-3-27 18:48:2.595	WT901BLE68-01(48591DE3C19B)	-0.239	-1.292	-0.060	36.377	31.860	241.638	-56.71	46.30	33.78	-52.234	-35.966	99.960	-0.78284	0.59052	0.01166	0.19553	30.9	13111	100
2025-3-27 18:48:2.595	WT901BLE68-01(48591DE3C19B)	-0.239	-1.551	-0.072	20.203	10.315	213.745	-55.61	48.21	34.88	-52.234	-35.966	99.960	-0.78284	0.59052	0.01166	0.19553	30.9	13111	100
2025-3-27 18:48:2.595	WT901BLE68-01(48591DE3C19B)	-0.057	-1.551	-0.072	20.203	10.315	213.745	-54.49	49.93	36.08	-52.234	-35.966	99.960	-0.78284	0.59052	0.01166	0.19553	30.9	13111	100
2025-3-27 18:48:2.595	WT901BLE68-01(48591DE3C19B)	-0.057	-1.829	-0.134	14.099	2.197	177.124	-53.41	51.45	37.24	-52.234	-35.966	99.960	-0.78284	0.59052	0.01166	0.19553	30.9	13111	100
2025-3-27 18:48:2.625	WT901BLE68-01(48591DE3C19B)	0.233	-1.829	-0.134	14.099	2.197	177.124	-52.39	52.78	38.34	-52.234	-35.966	99.960	-0.78284	0.59052	0.01166	0.19553	30.9	13111	100
2025-3-27 18:48:2.625	WT901BLE68-01(48591DE3C19B)	0.233	-2.035	-0.203	18.250	6.653	134.949	-51.49	53.93	39.24	-52.234	-35.966	99.960	-0.78284	0.59052	0.01166	0.19553	30.9	13111	100
2025-3-27 18:48:2.625	WT901BLE68-01(48591DE3C19B)	0.404	-2.035	-0.203	18.250	6.653	134.949	-50.74	54.93	39.92	-52.234	-35.966	99.960	-0.78284	0.59052	0.01166	0.19553	30.9	13111	100
2025-3-27 18:48:2.625	WT901BLE68-01(48591DE3C19B)	0.404	-2.001	-0.211	13.245	6.836	92.896	-50.19	55.74	40.39	-52.234	-35.966	99.960	-0.78284	0.59052	0.01166	0.19553	30.9	13111	100
2025-3-27 18:48:2.686	WT901BLE68-01(48591DE3C19B)	0.314	-2.001	-0.211	13.245	6.836	92.896	-49.87	56.39	40.61	-52.234	-35.966	99.960	-0.78284	0.59052	0.01166	0.19553	30.9	13111	100
2025-3-27 18:48:2.687	WT901BLE68-01(48591DE3C19B)	0.314	-1.925	-0.097	3.296	18.127	50.354	-49.87	56.91	40.50	-52.234	-35.966	99.960	-0.78284	0.59052	0.01166	0.19553	30.9	13111	100
2025-3-27 18:48:2.687	WT901BLE68-01(48591DE3C19B)	0.111	-1.925	-0.097	3.296	18.127	50.354	-50.21	57.29	40.05	-52.234	-35.966	99.960	-0.78284	0.59052	0.01166	0.19553	30.9	13111	100
2025-3-27 18:48:2.687	WT901BLE68-01(48591DE3C19B)	0.111	-1.761	0.076	-1.892	36.072	4.639	-50.93	57.55	39.18	-52.234	-35.966	99.960	-0.78284	0.59052	0.01166	0.19553	30.9	13111	100
2025-3-27 18:48:2.717	WT901BLE68-01(48591DE3C19B)	0.088	-1.761	0.076	-1.892	36.072	4.639	-52.01	57.68	37.91	-52.234	-35.966	99.960	-0.78284	0.59052	0.01166	0.19553	30.9	13111	100
2025-3-27 18:48:2.717	WT901BLE68-01(48591DE3C19B)	0.088	-1.583	0.142	-5.493	48.462	-41.626	-53.41	57.65	36.29	-52.234	-35.966	99.960	-0.78284	0.59052	0.01166	0.19553	30.9	13111	100
2025-3-27 18:48:2.717	WT901BLE68-01(48591DE3C19B)	0.188	-1.583	0.142	-5.493	48.462	-41.626	-55.10	57.43	34.33	-52.234	-35.966	99.960	-0.78284	0.59052	0.01166	0.19553	30.9	13111	100
2025-3-27 18:48:2.717	WT901BLE68-01(48591DE3C19B)	0.188	-1.389	0.117	-10.986	57.129	-80.322	-57.00	57.05	32.14	-52.234	-35.966	99.960	-0.67880	0.51901	-0.28720	-0.43271	30.9	13111	100
2025-3-27 18:48:2.746	WT901BLE68-01(48591DE3C19B)	0.226	-1.389	0.117	-10.986	57.129	-80.322	-59.07	56.49	29.76	-52.234	-35.966	99.960	-0.67880	0.51901	-0.28720	-0.43271	30.9	13111	100
2025-3-27 18:48:2.747	WT901BLE68-01(48591DE3C19B)	0.226	-1.264	0.114	-15.747	66.223	-114.685	-61.27	55.75	27.24	-52.234	-35.966	99.960	-0.67880	0.51901	-0.28720	-0.43271	30.9	13111	100
2025-3-27 18:48:2.747	WT901BLE68-01(48591DE3C19B)	0.156	-1.264	0.114	-15.747	66.223	-114.685	-63.55	54.83	24.63	-52.234	-35.966	99.960	-0.67880	0.51901	-0.28720	-0.43271	30.9	13111	100
2025-3-27 18:48:2.747	WT901BLE68-01(48591DE3C19B)	0.156	-1.194	0.097	-18.738	72.815	-146.423	-65.84	53.73	21.98	-52.234	-35.966	99.960	-0.67880	0.51901	-0.28720	-0.43271	30.9	13111	100
2025-3-27 18:48:2.805	WT901BLE68-01(48591DE3C19B)	-0.015	-1.194	0.097	-18.738	72.815	-146.423	-68.11	52.44	19.34	-52.234	-35.966	99.960	-0.67880	0.51901	-0.28720	-0.43271	30.9	13111	100
2025-3-27 18:48:2.805	WT901BLE68-01(48591DE3C19B)	-0.015	-1.194	0.114	-19.958	63.354	-176.208	-70.22	50.94	16.85	-52.234	-35.966	99.960	-0.67880	0.51901	-0.28720	-0.43271	30.9	13111	100
2025-3-27 18:48:2.805	WT901BLE68-01(48591DE3C19B)	-0.145	-1.194	0.114	-19.958	63.354	-176.208	-72.15	49.24	14.54	-52.234	-35.966	99.960	-0.67880	0.51901	-0.28720	-0.43271	30.9	13111	100
2025-3-27 18:48:2.805	WT901BLE68-01(48591DE3C19B)	-0.145	-1.214	0.137	-12.573	56.030	-206.848	-73.88	47.35	12.39	-52.234	-35.966	99.960	-0.67880	0.51901	-0.28720	-0.43271	30.9	13111	100
2025-3-27 18:48:2.834	WT901BLE68-01(48591DE3C19B)	-0.239	-1.214	0.137	-12.573	56.030	-206.848	-75.40	45.28	10.40	-52.234	-35.966	99.960	-0.67880	0.51901	-0.28720	-0.43271	30.9	13111	100
2025-3-27 18:48:2.834	WT901BLE68-01(48591DE3C19B)	-0.239	-1.169	0.177	-4.883	43.640	-236.389	-76.71	43.03	8.60	-52.234	-35.966	99.960	-0.67880	0.51901	-0.28720	-0.43271	30.9	13111	100
2025-3-27 18:48:2.834	WT901BLE68-01(48591DE3C19B)	-0.271	-1.169	0.177	-4.883	43.640	-236.389	-77.79	40.61	6.98	-52.234	-35.966	99.960	-0.67880	0.51901	-0.28720	-0.43271	30.9	13111	100
2025-3-27 18:48:2.835	WT901BLE68-01(48591DE3C19B)	-0.271	-1.123	0.157	-6.287	21.423	-265.015	-78.69	38.03	5.58	-52.234	-35.966	99.960	-0.67880	0.51901	-0.28720	-0.43271	30.9	13111	100
2025-3-27 18:48:2.895	WT901BLE68-01(48591DE3C19B)	-0.235	-1.123	0.157	-6.287	21.423	-265.015	-79.41	35.29	4.38	-52.234	-35.966	99.960	-0.67880	0.51901	-0.28720	-0.43271	30.9	13111	100
2025-3-27 18:48:2.895	WT901BLE68-01(48591DE3C19B)	-0.235	-1.112	0.142	-9.888	5.615	-290.955	-80.03	32.43	3.35	-52.234	-35.966	99.960	-0.67880	0.51901	-0.28720	-0.43271	30.9	13111	100
2025-3-27 18:48:2.895	WT901BLE68-01(48591DE3C19B)	-0.188	-1.112	0.142	-9.888	5.615	-290.955	-80.55	29.43	2.44	-52.234	-35.966	99.960	-0.67880	0.51901	-0.28720	-0.43271	30.9	13111	100
2025-3-27 18:48:2.895	WT901BLE68-01(48591DE3C19B)	-0.188	-1.167	0.147	-14.465	5.310	-313.232	-81.04	26.33	1.58	-52.234	-35.966	99.960	-0.67880	0.51901	-0.28720	-0.43271	30.9	13111	100
2025-3-27 18:48:2.955	WT901BLE68-01(48591DE3C19B)	-0.191	-1.167	0.147	-14.465	5.310	-313.232	-81.49	23.14	0.76	-52.234	-35.966	99.960	-0.67880	0.51901	-0.28720	-0.43271	30.9	13111	100
2025-3-27 18:48:2.955	WT901BLE68-01(48591DE3C19B)	-0.191	-1.255	0.184	-15.991	17.212	-331.787	-81.91	19.88	-0.08	-52.234	-35.966	99.960	-0.67880	0.51901	-0.28720	-0.43271	30.9	13111	100
2025-3-27 18:48:2.956	WT901BLE68-01(48591DE3C19B)	-0.223	-1.255	0.184	-15.991	17.212	-331.787	-82.32	16.55	-0.95	-52.234	-35.966	99.960	-0.67880	0.51901	-0.28720	-0.43271	30.9	13111	100
2025-3-27 18:48:2.956	WT901BLE68-01(48591DE3C19B)	-0.223	-1.365	0.236	-15.503	37.354	-348.145	-82.68	13.17	-1.89	-68.894	-34.496	94.766	-0.67880	0.51901	-0.28720	-0.43271	30.9	13111	100
2025-3-27 18:48:2.956	WT901BLE68-01(48591DE3C19B)	-0.370	-1.365	0.236	-15.503	37.354	-348.145	-83.01	9.74	-2.91	-68.894	-34.496	94.766	-0.67880	0.51901	-0.28720	-0.43271	30.9	13111	100
2025-3-27 18:48:2.957	WT901BLE68-01(48591DE3C19B)	-0.370	-1.468	0.278	-11.353	52.856	-355.957	-83.27	6.30	-3.97	-68.894	-34.496	94.766	-0.67880	0.51901	-0.28720	-0.43271	30.9	13111	100
2025-3-27 18:48:2.957	WT901BLE68-01(48591DE3C19B)	-0.557	-1.468	0.278	-11.353	52.856	-355.957	-83.45	2.84	-5.08	-68.894	-34.496	94.766	-0.67880	0.51901	-0.28720	-0.43271	30.9	13111	100
2025-3-27 18:48:2.957	WT901BLE68-01(48591DE3C19B)	-0.557	-1.558	0.329	-5.432	54.871	-355.652	-83.53	-0.58	-6.19	-68.894	-34.496	94.766	-0.67880	0.51901	-0.28720	-0.43271	30.9	13111	100
2025-3-27 18:48:3.15	WT901BLE68-01(48591DE3C19B)	-0.725	-1.558	0.329	-5.432	54.871	-355.652	-83.52	-3.98	-7.29	-68.894	-34.496	94.766	-0.67880	0.51901	-0.28720	-0.43271	30.9	13111	100
2025-3-27 18:48:3.15	WT901BLE68-01(48591DE3C19B)	-0.725	-1.626	0.374	0.488	45.776	-343.567	-83.42	-7.30	-8.34	-68.894	-34.496	94.766	-0.67880	0.51901	-0.28720	-0.43271	30.9	13111	100
2025-3-27 18:48:3.15	WT901BLE68-01(48591DE3C19B)	-0.764	-1.626	0.374	0.488	45.776	-343.567	-83.24	-10.53	-9.34	-68.894	-34.496	94.766	-0.67880	0.51901	-0.28720	-0.43271	30.9	13111	100
2025-3-27 18:48:3.15	WT901BLE68-01(48591DE3C19B)	-0.764	-1.639	0.348	1.404	35.095	-323.059	-83.02	-13.64	-10.29	-68.894	-34.496	94.766	-0.67880	0.51901	-0.28720	-0.43271	30.9	13111	100
2025-3-27 18:48:3.44	WT901BLE68-01(48591DE3C19B)	-0.667	-1.639	0.348	1.404	35.095	-323.059	-82.75	-16.62	-11.18	-68.894	-34.496	94.766	-0.67880	0.51901	-0.28720	-0.43271	30.9	13111	100
2025-3-27 18:48:3.44	WT901BLE68-01(48591DE3C19B)	-0.667	-1.648	0.314	-2.380	26.978	-291.565	-82.52	-19.28	-11.98	-68.894	-34.496	94.766	-0.67880	0.51901	-0.28720	-0.43271	30.9	13111	100
2025-3-27 18:48:3.44	WT901BLE68-01(48591DE3C19B)	-0.684	-1.648	0.314	-2.380	26.978	-291.565	-82.25	-21.92	-12.78	-68.894	-34.496	94.766	-0.67880	0.51901	-0.28720	-0.43271	30.9	13111	100
2025-3-27 18:48:3.44	WT901BLE68-01(48591DE3C19B)	-0.684	-1.720	0.312	0.427	24.963	-250.671	-81.95	-24.13	-13.52	-68.894	-34.496	94.766	-0.67880	0.51901	-0.28720	-0.43271	30.9	13111	100
2025-3-27 18:48:3.77	WT901BLE68-01(48591DE3C19B)	-0.703	-1.720	0.312	0.427	24.963	-250.671	-81.61	-26.32	-14.28	-68.894	-34.496	94.766	-0.67880	0.51901	-0.28720	-0.43271	30.9	13111	100
2025-3-27 18:48:3.77	WT901BLE68-01(48591DE3C19B)	-0.703	-1.667	0.376	7.019	31.189	-212.585	-81.18	-28.11	-15.07	-68.894	-34.496	94.766	-0.67880	0.51901	-0.28720	-0.43271	30.9	13111	100
2025-3-27 18:48:3.77	WT901BLE68-01(48591DE3C19B)	-0.716	-1.667	0.376	7.019	31.189	-212.585	-80.71	-29.88	-15.89	-68.894	-34.496	94.766	-0.67880	0.51901	-0.28720	-0.43271	30.9	13111	100
2025-3-27 18:48:3.77	WT901BLE68-01(48591DE3C19B)	-0.716	-1.549	0.449	9.399	58.594	-166.687	-80.07	-31.14	-16.95	-68.894	-34.496	94.766	-0.67880	0.51901	-0.28720	-0.43271	30.9	13111	100
2025-3-27 18:48:3.135	WT901BLE68-01(48591DE3C19B)	-0.760	-1.549	0.449	9.399	58.594	-166.687	-79.40	-32.38	-18.04	-68.894	-34.496	94.766	-0.67880	0.51901	-0.28720	-0.43271	30.9	13111	100
2025-3-27 18:48:3.135	WT901BLE68-01(48591DE3C19B)	-0.760	-1.333	0.479	15.259	104.370	-120.422	-78.41	-33.05	-19.58	-68.894	-34.496	94.766	-0.70117	0.63220	0.11331	0.30939	30.9	13111	100
2025-3-27 18:48:3.136	WT901BLE68-01(48591DE3C19B)	-0.871	-1.333	0.479	15.259	104.370	-120.422	-77.40	-33.70	-21.14	-68.894	-34.496	94.766	-0.70117	0.63220	0.11331	0.30939	30.9	13111	100
2025-3-27 18:48:3.136	WT901BLE68-01(48591DE3C19B)	-0.871	-1.111	0.443	15.381	128.784	-75.378	-76.28	-33.81	-22.88	-68.894	-34.496	94.766	-0.70117	0.63220	0.11331	0.30939	30.9	13111	100
2025-3-27 18:48:3.165	WT901BLE68-01(48591DE3C19B)	-0.939	-1.111	0.443	15.381	128.784	-75.378	-75.16	-33.89	-24.61	-68.894	-34.496	94.766	-0.70117	0.63220	0.11331	0.30939	30.9	13111	100
2025-3-27 18:48:3.165	WT901BLE68-01(48591DE3C19B)	-0.939	-0.975	0.359	9.094	120.850	-32.349	-74.25	-33.55	-26.10	-68.894	-34.496	94.766	-0.70117	0.63220	0.11331	0.30939	30.9	13111	100
2025-3-27 18:48:3.165	WT901BLE68-01(48591DE3C19B)	-0.983	-0.975	0.359	9.094	120.850	-32.349	-73.36	-33.18	-27.56	-68.894	-34.496	94.766	-0.70117	0.63220	0.11331	0.30939	30.9	13111	100
2025-3-27 18:48:3.165	WT901BLE68-01(48591DE3C19B)	-0.983	-0.933	0.278	-0.305	90.149	9.216	-72.86	-32.48	-28.50	-68.894	-34.496	94.766	-0.70117	0.63220	0.11331	0.30939	30.9	13111	100
2025-3-27 18:48:3.195	WT901BLE68-01(48591DE3C19B)	-1.011	-0.933	0.278	-0.305	90.149	9.216	-72.38	-31.77	-29.42	-68.894	-34.496	94.766	-0.70117	0.63220	0.11331	0.30939	30.9	13111	100
2025-3-27 18:48:3.195	WT901BLE68-01(48591DE3C19B)	-1.011	-0.951	0.249	-7.935	40.771	45.898	-72.36	-30.86	-29.64	-68.894	-34.496	94.766	-0.70117	0.63220	0.11331	0.30939	30.9	13111	100
2025-3-27 18:48:3.195	WT901BLE68-01(48591DE3C19B)	-0.991	-0.951	0.249	-7.935	40.771	45.898	-72.34	-29.94	-29.84	-68.894	-34.496	94.766	-0.70117	0.63220	0.11331	0.30939	30.9	13111	100
2025-3-27 18:48:3.195	WT901BLE68-01(48591DE3C19B)	-0.991	-0.900	0.253	-10.193	-13.489	77.332	-72.70	-28.89	-29.34	-68.894	-34.496	94.766	-0.70117	0.63220	0.11331	0.30939	30.9	13111	100
2025-3-27 18:48:3.255	WT901BLE68-01(48591DE3C19B)	-0.939	-0.900	0.253	-10.193	-13.489	77.332	-73.05	-27.84	-28.86	-68.894	-34.496	94.766	-0.70117	0.63220	0.11331	0.30939	30.9	13111	100
2025-3-27 18:48:3.255	WT901BLE68-01(48591DE3C19B)	-0.939	-0.842	0.255	-14.465	-66.528	107.605	-73.73	-26.64	-27.71	-68.894	-34.496	94.766	-0.70117	0.63220	0.11331	0.30939	30.9	13111	100
2025-3-27 18:48:3.255	WT901BLE68-01(48591DE3C19B)	-0.860	-0.842	0.255	-14.465	-66.528	107.605	-74.38	-25.43	-26.59	-68.894	-34.496	94.766	-0.70117	0.63220	0.11331	0.30939	30.9	13111	100
2025-3-27 18:48:3.256	WT901BLE68-01(48591DE3C19B)	-0.860	-0.866	0.216	-17.334	-112.427	138.855	-75.26	-24.03	-24.92	-68.894	-34.496	94.766	-0.70117	0.63220	0.11331	0.30939	30.9	13111	100
2025-3-27 18:48:3.287	WT901BLE68-01(48591DE3C19B)	-0.744	-0.866	0.216	-17.334	-112.427	138.855	-76.08	-22.62	-23.30	-68.894	-34.496	94.766	-0.70117	0.63220	0.11331	0.30939	30.9	13111	100
2025-3-27 18:48:3.287	WT901BLE68-01(48591DE3C19B)	-0.744	-0.945	0.151	-15.198	-149.536	168.152	-76.99	-20.99	-21.26	-68.894	-34.496	94.766	-0.70117	0.63220	0.11331	0.30939	30.9	13111	100
2025-3-27 18:48:3.287	WT901BLE68-01(48591DE3C19B)	-0.636	-0.945	0.151	-15.198	-149.536	168.152	-77.82	-19.34	-19.28	-68.894	-34.496	94.766	-0.70117	0.63220	0.11331	0.30939	30.9	13111	100
2025-3-27 18:48:3.287	WT901BLE68-01(48591DE3C19B)	-0.636	-1.059	0.107	-8.850	-176.270	195.618	-78.62	-17.46	-17.02	-68.894	-34.496	94.766	-0.70117	0.63220	0.11331	0.30939	30.9	13111	100
2025-3-27 18:48:3.317	WT901BLE68-01(48591DE3C19B)	-0.608	-1.059	0.107	-8.850	-176.270	195.618	-79.33	-15.57	-14.83	-68.894	-34.496	94.766	-0.70117	0.63220	0.11331	0.30939	30.9	13111	100
2025-3-27 18:48:3.317	WT901BLE68-01(48591DE3C19B)	-0.304	-1.229	0.107	1.282	-197.449	216.553	-79.90	-13.50	-12.43	-68.894	-34.496	94.766	-0.70117	0.63220	0.11331	0.30939	30.9	13111	100
2025-3-27 18:48:3.317	WT901BLE68-01(48591DE3C19B)	-0.580	-0.614	0.054	1.282	-197.449	216.553	-80.38	-11.43	-10.09	-67.816	-40.082	91.728	-0.70117	0.63220	0.11331	0.30939	30.9	13111	100
2025-3-27 18:48:3.317	WT901BLE68-01(48591DE3C19B)	-0.580	-1.412	0.120	16.235	-214.600	231.018	-80.66	-9.25	-7.60	-67.816	-40.082	91.728	-0.70117	0.63220	0.11331	0.30939	30.9	13111	100
2025-3-27 18:48:3.375	WT901BLE68-01(48591DE3C19B)	-0.495	-1.412	0.120	16.235	-214.600	231.018	-80.82	-7.08	-5.16	-67.816	-40.082	91.728	-0.70117	0.63220	0.11331	0.30939	30.9	13111	100
2025-3-27 18:48:3.375	WT901BLE68-01(48591DE3C19B)	-0.495	-1.538	0.130	37.109	-220.276	241.943	-80.69	-4.83	-2.67	-67.816	-40.082	91.728	-0.70117	0.63220	0.11331	0.30939	30.9	13111	100
2025-3-27 18:48:3.375	WT901BLE68-01(48591DE3C19B)	-0.366	-1.538	0.130	37.109	-220.276	241.943	-80.46	-2.60	-0.20	-67.816	-40.082	91.728	-0.70117	0.63220	0.11331	0.30939	30.9	13111	100
2025-3-27 18:48:3.375	WT901BLE68-01(48591DE3C19B)	-0.366	-1.597	0.137	59.448	-204.651	250.122	-79.91	-0.32	2.11	-67.816	-40.082	91.728	-0.70117	0.63220	0.11331	0.30939	30.9	13111	100
2025-3-27 18:48:3.405	WT901BLE68-01(48591DE3C19B)	-0.264	-1.597	0.137	59.448	-204.651	250.122	-79.27	1.91	4.44	-67.816	-40.082	91.728	-0.70117	0.63220	0.11331	0.30939	30.9	13111	100
2025-3-27 18:48:3.405	WT901BLE68-01(48591DE3C19B)	-0.264	-1.617	0.137	79.041	-170.410	257.019	-78.35	4.23	6.45	-67.816	-40.082	91.728	-0.70117	0.63220	0.11331	0.30939	30.9	13111	100
2025-3-27 18:48:3.405	WT901BLE68-01(48591DE3C19B)	-0.174	-1.617	0.137	79.041	-170.410	257.019	-77.36	6.49	8.50	-67.816	-40.082	91.728	-0.70117	0.63220	0.11331	0.30939	30.9	13111	100
2025-3-27 18:48:3.405	WT901BLE68-01(48591DE3C19B)	-0.174	-1.542	0.134	92.957	-112.854	264.404	-76.21	8.89	10.03	-67.816	-40.082	91.728	-0.70117	0.63220	0.11331	0.30939	30.9	13111	100
2025-3-27 18:48:3.435	WT901BLE68-01(48591DE3C19B)	-0.183	-1.542	0.134	92.957	-112.854	264.404	-75.00	11.24	11.61	-67.816	-40.082	91.728	-0.70117	0.63220	0.11331	0.30939	30.9	13111	100
2025-3-27 18:48:3.435	WT901BLE68-01(48591DE3C19B)	-0.183	-1.424	0.138	96.313	-48.706	271.912	-73.82	13.77	12.62	-67.816	-40.082	91.728	-0.70117	0.63220	0.11331	0.30939	30.9	13111	100
2025-3-27 18:48:3.435	WT901BLE68-01(48591DE3C19B)	-0.200	-1.424	0.138	96.313	-48.706	271.912	-72.57	16.27	13.69	-67.816	-40.082	91.728	-0.70117	0.63220	0.11331	0.30939	30.9	13111	100
2025-3-27 18:48:3.435	WT901BLE68-01(48591DE3C19B)	-0.200	-1.398	0.124	93.201	-5.005	276.794	-71.43	18.89	14.40	-67.816	-40.082	91.728	-0.70117	0.63220	0.11331	0.30939	30.9	13111	100
2025-3-27 18:48:3.504	WT901BLE68-01(48591DE3C19B)	-0.205	-1.398	0.124	93.201	-5.005	276.794	-70.23	21.49	15.17	-67.816	-40.082	91.728	-0.70117	0.63220	0.11331	0.30939	30.9	13111	100
2025-3-27 18:48:3.504	WT901BLE68-01(48591DE3C19B)	-0.205	-1.417	0.092	86.426	26.733	280.151	-69.16	24.19	15.69	-67.816	-40.082	91.728	-0.70117	0.63220	0.11331	0.30939	30.9	13111	100
2025-3-27 18:48:3.504	WT901BLE68-01(48591DE3C19B)	-0.250	-1.417	0.092	86.426	26.733	280.151	-68.05	26.86	16.27	-67.816	-40.082	91.728	-0.70117	0.63220	0.11331	0.30939	30.9	13111	100
2025-3-27 18:48:3.504	WT901BLE68-01(48591DE3C19B)	-0.316	-1.542	0.039	75.439	47.241	278.748	-67.10	29.58	16.69	-67.816	-40.082	91.728	-0.70117	0.63220	0.11331	0.30939	30.9	13111	100
2025-3-27 18:48:3.527	WT901BLE68-01(48591DE3C19B)	-0.316	-1.771	-0.007	65.430	52.612	272.522	-66.18	32.24	17.12	-67.816	-40.082	91.728	-0.70117	0.63220	0.11331	0.30939	30.9	13111	100
2025-3-27 18:48:3.527	WT901BLE68-01(48591DE3C19B)	-0.328	-1.771	-0.007	65.430	52.612	272.522	-65.28	34.87	17.57	-67.816	-40.082	91.728	-0.70117	0.63220	0.11331	0.30939	30.9	13111	100
2025-3-27 18:48:3.527	WT901BLE68-01(48591DE3C19B)	-0.328	-1.993	-0.042	61.279	49.683	260.742	-64.36	37.42	18.07	-67.816	-40.082	91.728	-0.70117	0.63220	0.11331	0.30939	30.9	13111	100
2025-3-27 18:48:3.527	WT901BLE68-01(48591DE3C19B)	-0.274	-1.993	-0.042	61.279	49.683	260.742	-63.41	39.89	18.61	-67.816	-40.082	91.728	-0.75769	0.53122	-0.21518	-0.31189	30.9	13111	100
2025-3-27 18:48:3.557	WT901BLE68-01(48591DE3C19B)	-0.274	-2.124	-0.104	58.105	41.077	241.821	-62.43	42.23	19.20	-67.816	-40.082	91.728	-0.75769	0.53122	-0.21518	-0.31189	30.9	13111	100
2025-3-27 18:48:3.557	WT901BLE68-01(48591DE3C19B)	-0.124	-2.124	-0.104	58.105	41.077	241.821	-61.40	44.44	19.87	-67.816	-40.082	91.728	-0.75769	0.53122	-0.21518	-0.31189	30.9	13111	100
2025-3-27 18:48:3.557	WT901BLE68-01(48591DE3C19B)	-0.124	-2.156	-0.172	54.688	30.334	214.722	-60.34	46.49	20.58	-67.816	-40.082	91.728	-0.75769	0.53122	-0.21518	-0.31189	30.9	13111	100
2025-3-27 18:48:3.557	WT901BLE68-01(48591DE3C19B)	0.109	-2.156	-0.172	54.688	30.334	214.722	-59.25	48.37	21.32	-67.816	-40.082	91.728	-0.75769	0.53122	-0.21518	-0.31189	30.9	13111	100
2025-3-27 18:48:3.615	WT901BLE68-01(48591DE3C19B)	0.109	-2.061	-0.185	41.260	17.151	183.472	-58.19	50.06	22.10	-67.816	-40.082	91.728	-0.75769	0.53122	-0.21518	-0.31189	30.9	13111	100
2025-3-27 18:48:3.615	WT901BLE68-01(48591DE3C19B)	0.295	-2.061	-0.185	41.260	17.151	183.472	-57.17	51.56	22.91	-67.816	-40.082	91.728	-0.75769	0.53122	-0.21518	-0.31189	30.9	13111	100
2025-3-27 18:48:3.615	WT901BLE68-01(48591DE3C19B)	0.295	-1.982	-0.068	38.574	21.667	156.128	-56.24	52.95	23.60	-67.816	-40.082	91.728	-0.75769	0.53122	-0.21518	-0.31189	30.9	13111	100
2025-3-27 18:48:3.615	WT901BLE68-01(48591DE3C19B)	0.400	-1.982	-0.068	38.574	21.667	156.128	-55.40	54.21	24.19	-67.816	-40.082	91.728	-0.75769	0.53122	-0.21518	-0.31189	30.9	13111	100
2025-3-27 18:48:3.645	WT901BLE68-01(48591DE3C19B)	0.400	-1.657	0.060	32.104	27.222	122.559	-54.72	55.33	24.61	-67.816	-40.082	91.728	-0.75769	0.53122	-0.21518	-0.31189	30.9	13111	100
2025-3-27 18:48:3.645	WT901BLE68-01(48591DE3C19B)	0.617	-1.657	0.060	32.104	27.222	122.559	-54.23	56.32	24.83	-67.816	-40.082	91.728	-0.75769	0.53122	-0.21518	-0.31189	30.9	13111	100
2025-3-27 18:48:3.645	WT901BLE68-01(48591DE3C19B)	0.617	-1.376	0.070	12.329	33.997	73.608	-54.09	57.11	24.75	-67.816	-40.082	91.728	-0.75769	0.53122	-0.21518	-0.31189	30.9	13111	100
2025-3-27 18:48:3.645	WT901BLE68-01(48591DE3C19B)	0.710	-1.376	0.070	12.329	33.997	73.608	-54.33	57.71	24.34	-67.816	-40.082	91.728	-0.75769	0.53122	-0.21518	-0.31189	30.9	13111	100
2025-3-27 18:48:3.675	WT901BLE68-01(48591DE3C19B)	0.710	-1.178	0.011	-12.268	44.434	18.433	-55.03	58.11	23.53	-67.816	-40.082	91.728	-0.75769	0.53122	-0.21518	-0.31189	30.9	13111	100
2025-3-27 18:48:3.675	WT901BLE68-01(48591DE3C19B)	0.663	-1.178	0.011	-12.268	44.434	18.433	-56.20	58.29	22.31	-67.816	-40.082	91.728	-0.75769	0.53122	-0.21518	-0.31189	30.9	13111	100
2025-3-27 18:48:3.675	WT901BLE68-01(48591DE3C19B)	0.663	-1.083	-0.004	-33.630	40.161	-41.321	-57.72	58.19	20.81	-67.816	-40.082	91.728	-0.75769	0.53122	-0.21518	-0.31189	30.9	13111	100
2025-3-27 18:48:3.676	WT901BLE68-01(48591DE3C19B)	0.577	-1.083	-0.004	-33.630	40.161	-41.321	-59.56	57.80	19.06	-67.816	-40.082	91.728	-0.75769	0.53122	-0.21518	-0.31189	30.9	13111	100
2025-3-27 18:48:3.735	WT901BLE68-01(48591DE3C19B)	0.577	-1.079	0.047	-47.363	24.048	-99.915	-61.52	57.08	17.22	-67.816	-40.082	91.728	-0.75769	0.53122	-0.21518	-0.31189	30.9	13111	100
2025-3-27 18:48:3.736	WT901BLE68-01(48591DE3C19B)	0.398	-1.079	0.047	-47.363	24.048	-99.915	-63.56	56.03	15.36	-67.816	-40.082	91.728	-0.75769	0.53122	-0.21518	-0.31189	30.9	13111	100
2025-3-27 18:48:3.736	WT901BLE68-01(48591DE3C19B)	0.398	-1.149	0.095	-55.054	-1.160	-151.672	-65.51	54.66	13.62	-67.816	-40.082	91.728	-0.75769	0.53122	-0.21518	-0.31189	30.9	13111	100
2025-3-27 18:48:3.736	WT901BLE68-01(48591DE3C19B)	0.218	-1.149	0.095	-55.054	-1.160	-151.672	-67.33	52.98	12.06	-67.816	-40.082	91.728	-0.75769	0.53122	-0.21518	-0.31189	30.9	13111	100
2025-3-27 18:48:3.764	WT901BLE68-01(48591DE3C19B)	0.218	-1.252	0.148	-56.641	-23.193	-192.322	-68.98	51.04	10.68	-56.742	-21.168	83.594	-0.75769	0.53122	-0.21518	-0.31189	30.9	13111	100
2025-3-27 18:48:3.764	WT901BLE68-01(48591DE3C19B)	0.089	-1.252	0.148	-56.641	-23.193	-192.322	-70.45	48.87	9.50	-56.742	-21.168	83.594	-0.75769	0.53122	-0.21518	-0.31189	30.9	13111	100
2025-3-27 18:48:3.764	WT901BLE68-01(48591DE3C19B)	0.089	-1.344	0.166	-53.772	-33.752	-222.412	-71.77	46.54	8.46	-56.742	-21.168	83.594	-0.75769	0.53122	-0.21518	-0.31189	30.9	13111	100
2025-3-27 18:48:3.764	WT901BLE68-01(48591DE3C19B)	0.028	-1.344	0.166	-53.772	-33.752	-222.412	-72.95	44.04	7.56	-56.742	-21.168	83.594	-0.75769	0.53122	-0.21518	-0.31189	30.9	13111	100
2025-3-27 18:48:3.795	WT901BLE68-01(48591DE3C19B)	0.028	-1.354	0.194	-46.143	-32.288	-243.958	-74.03	41.46	6.71	-56.742	-21.168	83.594	-0.75769	0.53122	-0.21518	-0.31189	30.9	13111	100
2025-3-27 18:48:3.795	WT901BLE68-01(48591DE3C19B)	-0.025	-1.354	0.194	-46.143	-32.288	-243.958	-75.00	38.78	5.91	-56.742	-21.168	83.594	-0.75769	0.53122	-0.21518	-0.31189	30.9	13111	100
2025-3-27 18:48:3.795	WT901BLE68-01(48591DE3C19B)	-0.025	-1.325	0.184	-47.607	-21.851	-261.475	-75.95	36.03	5.10	-56.742	-21.168	83.594	-0.75769	0.53122	-0.21518	-0.31189	30.9	13111	100
2025-3-27 18:48:3.795	WT901BLE68-01(48591DE3C19B)	-0.011	-1.325	0.184	-47.607	-21.851	-261.475	-76.87	33.22	4.31	-56.742	-21.168	83.594	-0.75769	0.53122	-0.21518	-0.31189	30.9	13111	100
2025-3-27 18:48:3.855	WT901BLE68-01(48591DE3C19B)	-0.011	-1.362	0.168	-51.392	-0.427	-281.311	-77.81	30.36	3.44	-56.742	-21.168	83.594	-0.75769	0.53122	-0.21518	-0.31189	30.9	13111	100
2025-3-27 18:48:3.856	WT901BLE68-01(48591DE3C19B)	0.050	-1.362	0.168	-51.392	-0.427	-281.311	-78.76	27.42	2.52	-56.742	-21.168	83.594	-0.75769	0.53122	-0.21518	-0.31189	30.9	13111	100
2025-3-27 18:48:3.856	WT901BLE68-01(48591DE3C19B)	0.050	-1.432	0.145	-51.025	43.274	-300.049	-79.74	24.43	1.42	-56.742	-21.168	83.594	-0.75769	0.53122	-0.21518	-0.31189	30.9	13111	100
2025-3-27 18:48:3.856	WT901BLE68-01(48591DE3C19B)	0.042	-1.432	0.145	-51.025	43.274	-300.049	-80.73	21.40	0.16	-56.742	-21.168	83.594	-0.75769	0.53122	-0.21518	-0.31189	30.9	13111	100
2025-3-27 18:48:3.887	WT901BLE68-01(48591DE3C19B)	0.042	-1.508	0.147	-46.326	103.760	-315.308	-81.72	18.34	-1.34	-56.742	-21.168	83.594	-0.75769	0.53122	-0.21518	-0.31189	30.9	13111	100
2025-3-27 18:48:3.887	WT901BLE68-01(48591DE3C19B)	-0.132	-1.508	0.147	-46.326	103.760	-315.308	-82.67	15.24	-3.08	-56.742	-21.168	83.594	-0.75769	0.53122	-0.21518	-0.31189	30.9	13111	100
2025-3-27 18:48:3.887	WT901BLE68-01(48591DE3C19B)	-0.132	-1.577	0.163	-35.400	158.081	-326.660	-83.52	12.11	-5.02	-56.742	-21.168	83.594	-0.75769	0.53122	-0.21518	-0.31189	30.9	13111	100
2025-3-27 18:48:3.887	WT901BLE68-01(48591DE3C19B)	-0.297	-1.577	0.163	-35.400	158.081	-326.660	-84.27	8.96	-7.16	-56.742	-21.168	83.594	-0.75769	0.53122	-0.21518	-0.31189	30.9	13111	100
2025-3-27 18:48:3.945	WT901BLE68-01(48591DE3C19B)	-0.297	-1.633	0.224	-18.921	206.421	-334.473	-84.82	5.79	-9.48	-56.742	-21.168	83.594	-0.75769	0.53122	-0.21518	-0.31189	30.9	13111	100
2025-3-27 18:48:3.945	WT901BLE68-01(48591DE3C19B)	-0.453	-1.633	0.224	-18.921	206.421	-334.473	-85.18	2.61	-11.99	-56.742	-21.168	83.594	-0.75769	0.53122	-0.21518	-0.31189	30.9	13111	100
2025-3-27 18:48:3.945	WT901BLE68-01(48591DE3C19B)	-0.453	-1.700	0.275	7.690	263.062	-333.801	-85.28	-0.52	-14.75	-56.742	-21.168	83.594	-0.72910	0.67215	-0.08362	0.09753	30.9	13111	100
2025-3-27 18:48:3.946	WT901BLE68-01(48591DE3C19B)	-0.752	-1.700	0.275	7.690	263.062	-333.801	-85.08	-3.60	-17.79	-56.742	-21.168	83.594	-0.72910	0.67215	-0.08362	0.09753	30.9	13111	100
2025-3-27 18:48:3.974	WT901BLE68-01(48591DE3C19B)	-0.752	-1.733	0.217	38.879	293.152	-317.078	-84.55	-6.54	-20.98	-56.742	-21.168	83.594	-0.72910	0.67215	-0.08362	0.09753	30.9	13111	100
2025-3-27 18:48:3.974	WT901BLE68-01(48591DE3C19B)	-0.959	-1.733	0.217	38.879	293.152	-317.078	-83.69	-9.31	-24.35	-56.742	-21.168	83.594	-0.72910	0.67215	-0.08362	0.09753	30.9	13111	100
2025-3-27 18:48:3.974	WT901BLE68-01(48591DE3C19B)	-0.959	-1.676	0.063	69.580	273.987	-287.476	-82.42	-11.71	-27.54	-56.742	-21.168	83.594	-0.72910	0.67215	-0.08362	0.09753	30.9	13111	100
2025-3-27 18:48:3.974	WT901BLE68-01(48591DE3C19B)	-0.930	-1.676	0.063	69.580	273.987	-287.476	-81.01	-14.02	-30.79	-56.742	-21.168	83.594	-0.72910	0.67215	-0.08362	0.09753	30.9	13111	100
2025-3-27 18:48:4.4	WT901BLE68-01(48591DE3C19B)	-0.930	-1.552	-0.083	80.383	221.313	-244.263	-79.54	-15.88	-33.51	-56.742	-21.168	83.594	-0.72910	0.67215	-0.08362	0.09753	30.9	13111	100
2025-3-27 18:48:4.5	WT901BLE68-01(48591DE3C19B)	-0.876	-1.552	-0.083	80.383	221.313	-244.263	-77.98	-17.65	-36.28	-56.742	-21.168	83.594	-0.72910	0.67215	-0.08362	0.09753	30.9	13111	100
2025-3-27 18:48:4.5	WT901BLE68-01(48591DE3C19B)	-0.876	-1.528	-0.109	81.421	162.598	-196.167	-76.55	-19.00	-38.39	-56.742	-21.168	83.594	-0.72910	0.67215	-0.08362	0.09753	30.9	13111	100
2025-3-27 18:48:4.5	WT901BLE68-01(48591DE3C19B)	-0.941	-1.528	-0.109	81.421	162.598	-196.167	-75.08	-20.28	-40.54	-56.742	-21.168	83.594	-0.72910	0.67215	-0.08362	0.09753	30.9	13111	100
2025-3-27 18:48:4.34	WT901BLE68-01(48591DE3C19B)	-0.941	-1.471	-0.033	74.585	111.328	-156.433	-73.86	-21.25	-42.08	-56.742	-21.168	83.594	-0.72910	0.67215	-0.08362	0.09753	30.9	13111	100
2025-3-27 18:48:4.34	WT901BLE68-01(48591DE3C19B)	-1.038	-1.471	-0.033	74.585	111.328	-156.433	-72.61	-22.18	-43.65	-56.742	-21.168	83.594	-0.72910	0.67215	-0.08362	0.09753	30.9	13111	100
2025-3-27 18:48:4.34	WT901BLE68-01(48591DE3C19B)	-1.038	-1.432	0.055	55.969	80.444	-121.216	-71.70	-22.84	-44.80	-56.742	-21.168	83.594	-0.72910	0.67215	-0.08362	0.09753	30.9	13111	100
2025-3-27 18:48:4.35	WT901BLE68-01(48591DE3C19B)	-1.092	-1.432	0.055	55.969	80.444	-121.216	-70.78	-23.46	-45.95	-56.742	-21.168	83.594	-0.72910	0.67215	-0.08362	0.09753	30.9	13111	100
2025-3-27 18:48:4.103	WT901BLE68-01(48591DE3C19B)	-1.092	-1.354	0.086	37.354	69.824	-93.018	-70.12	-23.83	-46.90	-56.742	-21.168	83.594	-0.72910	0.67215	-0.08362	0.09753	30.9	13111	100
2025-3-27 18:48:4.103	WT901BLE68-01(48591DE3C19B)	-1.069	-1.354	0.086	37.354	69.824	-93.018	-69.46	-24.18	-47.85	-56.742	-21.168	83.594	-0.72910	0.67215	-0.08362	0.09753	30.9	13111	100
2025-3-27 18:48:4.103	WT901BLE68-01(48591DE3C19B)	-1.069	-1.204	0.077	17.273	70.068	-64.331	-69.05	-24.25	-48.68	-56.742	-21.168	83.594	-0.72910	0.67215	-0.08362	0.09753	30.9	13111	100
2025-3-27 18:48:4.103	WT901BLE68-01(48591DE3C19B)	-1.022	-1.204	0.077	17.273	70.068	-64.331	-68.64	-24.31	-49.50	-56.742	-21.168	83.594	-0.72910	0.67215	-0.08362	0.09753	30.9	13111	100
2025-3-27 18:48:4.128	WT901BLE68-01(48591DE3C19B)	-1.022	-1.043	0.047	-5.066	60.669	-31.677	-68.55	-24.09	-50.09	-56.742	-21.168	83.594	-0.72910	0.67215	-0.08362	0.09753	30.9	13111	100
2025-3-27 18:48:4.128	WT901BLE68-01(48591DE3C19B)	-1.051	-1.043	0.047	-5.066	60.669	-31.677	-68.47	-23.86	-50.67	-56.742	-21.168	83.594	-0.72910	0.67215	-0.08362	0.09753	30.9	13111	100
2025-3-27 18:48:4.128	WT901BLE68-01(48591DE3C19B)	-1.051	-0.968	0.042	-28.076	36.133	0.549	-68.78	-23.42	-50.87	-56.742	-21.168	83.594	-0.72910	0.67215	-0.08362	0.09753	30.9	13111	100
2025-3-27 18:48:4.128	WT901BLE68-01(48591DE3C19B)	-1.114	-0.968	0.042	-28.076	36.133	0.549	-69.09	-22.98	-51.06	-86.142	-39.004	75.950	-0.72910	0.67215	-0.08362	0.09753	30.9	13111	100
2025-3-27 18:48:4.159	WT901BLE68-01(48591DE3C19B)	-1.114	-0.939	0.069	-45.349	0.061	34.058	-69.77	-22.36	-50.75	-86.142	-39.004	75.950	-0.72910	0.67215	-0.08362	0.09753	30.9	13111	100
2025-3-27 18:48:4.159	WT901BLE68-01(48591DE3C19B)	-1.084	-0.939	0.069	-45.349	0.061	34.058	-70.44	-21.73	-50.45	-86.142	-39.004	75.950	-0.72910	0.67215	-0.08362	0.09753	30.9	13111	100
2025-3-27 18:48:4.159	WT901BLE68-01(48591DE3C19B)	-1.084	-0.800	0.075	-56.519	-40.710	70.984	-71.41	-20.87	-49.61	-86.142	-39.004	75.950	-0.72910	0.67215	-0.08362	0.09753	30.9	13111	100
2025-3-27 18:48:4.159	WT901BLE68-01(48591DE3C19B)	-0.988	-0.800	0.075	-56.519	-40.710	70.984	-72.36	-20.00	-48.78	-86.142	-39.004	75.950	-0.72910	0.67215	-0.08362	0.09753	30.9	13111	100
2025-3-27 18:48:4.214	WT901BLE68-01(48591DE3C19B)	-0.988	-0.700	0.051	-68.970	-82.275	109.253	-73.59	-18.88	-47.43	-86.142	-39.004	75.950	-0.72910	0.67215	-0.08362	0.09753	30.9	13111	100
2025-3-27 18:48:4.215	WT901BLE68-01(48591DE3C19B)	-0.892	-0.700	0.051	-68.970	-82.275	109.253	-74.78	-17.73	-46.12	-86.142	-39.004	75.950	-0.72910	0.67215	-0.08362	0.09753	30.9	13111	100
2025-3-27 18:48:4.215	WT901BLE68-01(48591DE3C19B)	-0.892	-0.762	0.002	-80.383	-124.634	147.278	-76.20	-16.29	-44.32	-86.142	-39.004	75.950	-0.72910	0.67215	-0.08362	0.09753	30.9	13111	100
2025-3-27 18:48:4.215	WT901BLE68-01(48591DE3C19B)	-0.854	-0.762	0.002	-80.383	-124.634	147.278	-77.55	-14.82	-42.57	-86.142	-39.004	75.950	-0.72910	0.67215	-0.08362	0.09753	30.9	13111	100
2025-3-27 18:48:4.244	WT901BLE68-01(48591DE3C19B)	-0.854	-0.936	-0.015	-82.703	-167.969	182.739	-78.99	-13.06	-40.36	-86.142	-39.004	75.950	-0.72910	0.67215	-0.08362	0.09753	30.9	13111	100
2025-3-27 18:48:4.244	WT901BLE68-01(48591DE3C19B)	-0.816	-0.936	-0.015	-82.703	-167.969	182.739	-80.33	-11.26	-38.22	-86.142	-39.004	75.950	-0.72910	0.67215	-0.08362	0.09753	30.9	13111	100
2025-3-27 18:48:4.244	WT901BLE68-01(48591DE3C19B)	-0.816	-1.128	0.007	-75.500	-208.557	212.463	-81.60	-9.18	-35.70	-86.142	-39.004	75.950	-0.72910	0.67215	-0.08362	0.09753	30.9	13111	100
2025-3-27 18:48:4.244	WT901BLE68-01(48591DE3C19B)	-0.783	-1.128	0.007	-75.500	-208.557	212.463	-82.75	-7.08	-33.25	-86.142	-39.004	75.950	-0.72910	0.67215	-0.08362	0.09753	30.9	13111	100
2025-3-27 18:48:4.307	WT901BLE68-01(48591DE3C19B)	-0.783	-1.332	0.043	-59.204	-244.873	235.962	-83.67	-4.76	-30.48	-86.142	-39.004	75.950	-0.72910	0.67215	-0.08362	0.09753	30.9	13111	100
2025-3-27 18:48:4.307	WT901BLE68-01(48591DE3C19B)	-0.725	-1.332	0.043	-59.204	-244.873	235.962	-84.46	-2.42	-27.76	-86.142	-39.004	75.950	-0.72910	0.67215	-0.08362	0.09753	30.9	13111	100
2025-3-27 18:48:4.307	WT901BLE68-01(48591DE3C19B)	-0.725	-1.505	0.056	-33.447	-269.714	253.967	-84.87	0.09	-24.83	-86.142	-39.004	75.950	-0.72910	0.67215	-0.08362	0.09753	30.9	13111	100
2025-3-27 18:48:4.307	WT901BLE68-01(48591DE3C19B)	-0.575	-1.505	0.056	-33.447	-269.714	253.967	-85.16	2.59	-21.94	-86.142	-39.004	75.950	-0.72910	0.67215	-0.08362	0.09753	30.9	13111	100
2025-3-27 18:48:4.337	WT901BLE68-01(48591DE3C19B)	-0.575	-1.598	0.068	-1.038	-268.433	264.282	-84.98	5.17	-19.07	-86.142	-39.004	75.950	-0.72910	0.67215	-0.08362	0.09753	30.9	13111	100
2025-3-27 18:48:4.337	WT901BLE68-01(48591DE3C19B)	-0.442	-1.598	0.068	-1.038	-268.433	264.282	-84.67	7.72	-16.19	-86.142	-39.004	75.950	-0.72910	0.67215	-0.08362	0.09753	30.9	13111	100
2025-3-27 18:48:4.337	WT901BLE68-01(48591DE3C19B)	-0.442	-1.576	0.066	28.015	-244.690	273.193	-83.96	10.33	-13.53	-86.142	-39.004	75.950	-0.72910	0.67215	-0.08362	0.09753	30.9	13111	100
2025-3-27 18:48:4.337	WT901BLE68-01(48591DE3C19B)	-0.350	-1.576	0.066	28.015	-244.690	273.193	-83.13	12.88	-10.83	-86.142	-39.004	75.950	-0.74969	0.64481	-0.14749	-0.01828	30.9	13111	100
2025-3-27 18:48:4.367	WT901BLE68-01(48591DE3C19B)	-0.350	-1.485	0.077	50.476	-204.468	275.513	-82.04	15.44	-8.48	-86.142	-39.004	75.950	-0.74969	0.64481	-0.14749	-0.01828	30.9	13111	100
2025-3-27 18:48:4.367	WT901BLE68-01(48591DE3C19B)	-0.291	-1.485	0.077	50.476	-204.468	275.513	-80.83	17.92	-6.07	-86.142	-39.004	75.950	-0.74969	0.64481	-0.14749	-0.01828	30.9	13111	100
2025-3-27 18:48:4.367	WT901BLE68-01(48591DE3C19B)	-0.291	-1.398	0.097	65.491	-159.912	274.719	-79.50	20.39	-4.05	-86.142	-39.004	75.950	-0.74969	0.64481	-0.14749	-0.01828	30.9	13111	100
2025-3-27 18:48:4.367	WT901BLE68-01(48591DE3C19B)	-0.294	-1.398	0.097	65.491	-159.912	274.719	-78.07	22.80	-1.94	-86.142	-39.004	75.950	-0.74969	0.64481	-0.14749	-0.01828	30.9	13111	100
2025-3-27 18:48:4.425	WT901BLE68-01(48591DE3C19B)	-0.294	-1.381	0.129	72.937	-121.704	270.752	-76.61	25.18	-0.16	-86.142	-39.004	75.950	-0.74969	0.64481	-0.14749	-0.01828	30.9	13111	100
2025-3-27 18:48:4.425	WT901BLE68-01(48591DE3C19B)	-0.353	-1.381	0.129	72.937	-121.704	270.752	-75.04	27.49	1.70	-86.142	-39.004	75.950	-0.74969	0.64481	-0.14749	-0.01828	30.9	13111	100
2025-3-27 18:48:4.425	WT901BLE68-01(48591DE3C19B)	-0.373	-1.406	0.169	77.637	-98.328	263.000	-73.45	29.73	3.38	-86.142	-39.004	75.950	-0.74969	0.64481	-0.14749	-0.01828	30.9	13111	100
2025-3-27 18:48:4.425	WT901BLE68-01(48591DE3C19B)	-0.373	-1.482	0.224	77.209	-86.731	251.526	-71.80	31.87	5.09	-86.142	-39.004	75.950	-0.74969	0.64481	-0.14749	-0.01828	30.9	13111	100
2025-3-27 18:48:4.454	WT901BLE68-01(48591DE3C19B)	-0.399	-1.482	0.224	77.209	-86.731	251.526	-70.08	33.91	6.81	-86.142	-39.004	75.950	-0.74969	0.64481	-0.14749	-0.01828	30.9	13111	100
2025-3-27 18:48:4.454	WT901BLE68-01(48591DE3C19B)	-0.399	-1.672	0.286	76.233	-83.557	235.107	-68.30	35.82	8.58	-86.142	-39.004	75.950	-0.74969	0.64481	-0.14749	-0.01828	30.9	13111	100
2025-3-27 18:48:4.454	WT901BLE68-01(48591DE3C19B)	-0.388	-1.672	0.286	76.233	-83.557	235.107	-66.44	37.60	10.40	-86.142	-39.004	75.950	-0.74969	0.64481	-0.14749	-0.01828	30.9	13111	100
2025-3-27 18:48:4.454	WT901BLE68-01(48591DE3C19B)	-0.388	-1.848	0.292	79.285	-77.087	213.989	-64.52	39.22	12.23	-86.142	-39.004	75.950	-0.74969	0.64481	-0.14749	-0.01828	30.9	13111	100
2025-3-27 18:48:4.486	WT901BLE68-01(48591DE3C19B)	-0.344	-1.848	0.292	79.285	-77.087	213.989	-62.55	40.70	14.07	-86.142	-39.004	75.950	-0.74969	0.64481	-0.14749	-0.01828	30.9	13111	100
2025-3-27 18:48:4.486	WT901BLE68-01(48591DE3C19B)	-0.344	-1.939	0.184	77.698	-62.012	193.665	-60.58	42.07	15.84	-86.142	-39.004	75.950	-0.74969	0.64481	-0.14749	-0.01828	30.9	13111	100
2025-3-27 18:48:4.486	WT901BLE68-01(48591DE3C19B)	-0.210	-1.939	0.184	77.698	-62.012	193.665	-58.65	43.33	17.55	-86.142	-39.004	75.950	-0.74969	0.64481	-0.14749	-0.01828	30.9	13111	100
2025-3-27 18:48:4.486	WT901BLE68-01(48591DE3C19B)	-0.210	-2.023	0.015	69.031	-35.706	167.786	-56.86	44.50	19.09	-86.142	-39.004	75.950	-0.74969	0.64481	-0.14749	-0.01828	30.9	13111	100
2025-3-27 18:48:4.545	WT901BLE68-01(48591DE3C19B)	0.105	-2.023	0.015	69.031	-35.706	167.786	-55.23	45.59	20.43	-86.142	-39.004	75.950	-0.74969	0.64481	-0.14749	-0.01828	30.9	13111	100
2025-3-27 18:48:4.545	WT901BLE68-01(48591DE3C19B)	0.105	-2.150	-0.104	53.955	8.301	134.399	-53.92	46.63	21.44	-51.254	-13.818	84.672	-0.74969	0.64481	-0.14749	-0.01828	30.9	13111	100
2025-3-27 18:48:4.545	WT901BLE68-01(48591DE3C19B)	0.489	-2.150	-0.104	53.955	8.301	134.399	-52.95	47.65	22.07	-51.254	-13.818	84.672	-0.74969	0.64481	-0.14749	-0.01828	30.9	13111	100
2025-3-27 18:48:4.545	WT901BLE68-01(48591DE3C19B)	0.489	-2.181	-0.174	49.438	54.688	108.643	-52.27	48.68	22.33	-51.254	-13.818	84.672	-0.74969	0.64481	-0.14749	-0.01828	30.9	13111	100
2025-3-27 18:48:4.575	WT901BLE68-01(48591DE3C19B)	0.581	-2.181	-0.174	49.438	54.688	108.643	-51.93	49.74	22.20	-51.254	-13.818	84.672	-0.74969	0.64481	-0.14749	-0.01828	30.9	13111	100
2025-3-27 18:48:4.575	WT901BLE68-01(48591DE3C19B)	0.581	-1.885	-0.112	40.771	64.148	96.985	-51.72	50.77	21.94	-51.254	-13.818	84.672	-0.74969	0.64481	-0.14749	-0.01828	30.9	13111	100
2025-3-27 18:48:4.575	WT901BLE68-01(48591DE3C19B)	0.607	-1.885	-0.112	40.771	64.148	96.985	-51.67	51.77	21.56	-51.254	-13.818	84.672	-0.74969	0.64481	-0.14749	-0.01828	30.9	13111	100
2025-3-27 18:48:4.575	WT901BLE68-01(48591DE3C19B)	0.607	-1.581	-0.075	30.212	59.937	75.745	-51.75	52.66	21.07	-51.254	-13.818	84.672	-0.74969	0.64481	-0.14749	-0.01828	30.9	13111	100
2025-3-27 18:48:4.604	WT901BLE68-01(48591DE3C19B)	0.547	-1.581	-0.075	30.212	59.937	75.745	-51.98	53.44	20.49	-51.254	-13.818	84.672	-0.74969	0.64481	-0.14749	-0.01828	30.9	13111	100
2025-3-27 18:48:4.604	WT901BLE68-01(48591DE3C19B)	0.547	-1.277	-0.095	30.518	79.834	47.058	-52.45	54.16	19.59	-51.254	-13.818	84.672	-0.74969	0.64481	-0.14749	-0.01828	30.9	13111	100
2025-3-27 18:48:4.604	WT901BLE68-01(48591DE3C19B)	0.425	-1.277	-0.095	30.518	79.834	47.058	-53.19	54.81	18.39	-51.254	-13.818	84.672	-0.74969	0.64481	-0.14749	-0.01828	30.9	13111	100
2025-3-27 18:48:4.604	WT901BLE68-01(48591DE3C19B)	0.425	-1.050	-0.143	16.663	112.305	7.813	-54.39	55.38	16.72	-51.254	-13.818	84.672	-0.74969	0.64481	-0.14749	-0.01828	30.9	13111	100
2025-3-27 18:48:4.665	WT901BLE68-01(48591DE3C19B)	0.493	-1.050	-0.143	16.663	112.305	7.813	-56.06	55.84	14.56	-51.254	-13.818	84.672	-0.74969	0.64481	-0.14749	-0.01828	30.9	13111	100
2025-3-27 18:48:4.665	WT901BLE68-01(48591DE3C19B)	0.493	-1.032	-0.141	3.235	132.813	-47.546	-58.19	56.09	11.94	-51.254	-13.818	84.672	-0.74969	0.64481	-0.14749	-0.01828	30.9	13111	100
2025-3-27 18:48:4.665	WT901BLE68-01(48591DE3C19B)	0.611	-1.032	-0.141	3.235	132.813	-47.546	-60.75	56.08	8.89	-51.254	-13.818	84.672	-0.74969	0.64481	-0.14749	-0.01828	30.9	13111	100
2025-3-27 18:48:4.665	WT901BLE68-01(48591DE3C19B)	0.611	-1.028	-0.084	-3.174	142.517	-96.863	-63.55	55.80	5.58	-51.254	-13.818	84.672	-0.74969	0.64481	-0.14749	-0.01828	30.9	13111	100
2025-3-27 18:48:4.703	WT901BLE68-01(48591DE3C19B)	0.458	-1.028	-0.084	-3.174	142.517	-96.863	-66.52	55.21	2.08	-51.254	-13.818	84.672	-0.74969	0.64481	-0.14749	-0.01828	30.9	13111	100
2025-3-27 18:48:4.703	WT901BLE68-01(48591DE3C19B)	0.458	-1.028	0.021	-12.451	147.522	-138.489	-69.54	54.34	-1.46	-51.254	-13.818	84.672	-0.74969	0.64481	-0.14749	-0.01828	30.9	13111	100
2025-3-27 18:48:4.703	WT901BLE68-01(48591DE3C19B)	0.154	-1.028	0.021	-12.451	147.522	-138.489	-72.54	53.17	-4.97	-51.254	-13.818	84.672	-0.74969	0.64481	-0.14749	-0.01828	30.9	13111	100
2025-3-27 18:48:4.703	WT901BLE68-01(48591DE3C19B)	0.154	-1.104	0.102	-19.836	138.489	-176.758	-75.37	51.71	-8.28	-51.254	-13.818	84.672	-0.74969	0.64481	-0.14749	-0.01828	30.9	13111	100
2025-3-27 18:48:4.727	WT901BLE68-01(48591DE3C19B)	-0.082	-1.104	0.102	-19.836	138.489	-176.758	-77.98	49.97	-11.36	-51.254	-13.818	84.672	-0.74969	0.64481	-0.14749	-0.01828	30.9	13111	100
2025-3-27 18:48:4.727	WT901BLE68-01(48591DE3C19B)	-0.082	-1.099	0.112	-21.667	112.122	-210.144	-80.23	47.98	-14.04	-51.254	-13.818	84.672	-0.74969	0.64481	-0.14749	-0.01828	30.9	13111	100
2025-3-27 18:48:4.727	WT901BLE68-01(48591DE3C19B)	-0.229	-1.099	0.112	-21.667	112.122	-210.144	-82.14	45.75	-16.35	-51.254	-13.818	84.672	-0.72290	0.56290	-0.37393	-0.14374	30.9	13111	100
2025-3-27 18:48:4.727	WT901BLE68-01(48591DE3C19B)	-0.229	-1.067	0.093	-21.729	75.134	-239.014	-83.67	43.34	-18.23	-51.254	-13.818	84.672	-0.72290	0.56290	-0.37393	-0.14374	30.9	13111	100
2025-3-27 18:48:4.785	WT901BLE68-01(48591DE3C19B)	-0.284	-1.067	0.093	-21.729	75.134	-239.014	-84.89	40.75	-19.71	-51.254	-13.818	84.672	-0.72290	0.56290	-0.37393	-0.14374	30.9	13111	100
2025-3-27 18:48:4.785	WT901BLE68-01(48591DE3C19B)	-0.284	-1.060	0.083	-17.822	42.542	-263.855	-85.81	38.03	-20.89	-51.254	-13.818	84.672	-0.72290	0.56290	-0.37393	-0.14374	30.9	13111	100
2025-3-27 18:48:4.785	WT901BLE68-01(48591DE3C19B)	-0.262	-1.060	0.083	-17.822	42.542	-263.855	-86.50	35.19	-21.76	-51.254	-13.818	84.672	-0.72290	0.56290	-0.37393	-0.14374	30.9	13111	100
2025-3-27 18:48:4.785	WT901BLE68-01(48591DE3C19B)	-0.262	-1.026	0.060	-21.057	12.390	-279.236	-87.03	32.28	-22.40	-51.254	-13.818	84.672	-0.72290	0.56290	-0.37393	-0.14374	30.9	13111	100
2025-3-27 18:48:4.814	WT901BLE68-01(48591DE3C19B)	-0.263	-1.026	0.060	-21.057	12.390	-279.236	-87.43	29.31	-22.82	-51.254	-13.818	84.672	-0.72290	0.56290	-0.37393	-0.14374	30.9	13111	100
2025-3-27 18:48:4.814	WT901BLE68-01(48591DE3C19B)	-0.263	-1.072	0.038	-32.471	-10.376	-289.124	-87.80	26.31	-23.08	-51.254	-13.818	84.672	-0.72290	0.56290	-0.37393	-0.14374	30.9	13111	100
2025-3-27 18:48:4.814	WT901BLE68-01(48591DE3C19B)	-0.357	-1.072	0.038	-32.471	-10.376	-289.124	-88.15	23.28	-23.18	-51.254	-13.818	84.672	-0.72290	0.56290	-0.37393	-0.14374	30.9	13111	100
2025-3-27 18:48:4.814	WT901BLE68-01(48591DE3C19B)	-0.357	-1.188	0.050	-42.114	-21.362	-294.006	-88.51	20.25	-23.21	-51.254	-13.818	84.672	-0.72290	0.56290	-0.37393	-0.14374	30.9	13111	100
2025-3-27 18:48:4.845	WT901BLE68-01(48591DE3C19B)	-0.460	-1.188	0.050	-42.114	-21.362	-294.006	-88.89	17.22	-23.15	-51.254	-13.818	84.672	-0.72290	0.56290	-0.37393	-0.14374	30.9	13111	100
2025-3-27 18:48:4.845	WT901BLE68-01(48591DE3C19B)	-0.460	-1.298	0.125	-42.542	-8.179	-293.396	-89.29	14.23	-23.15	-51.254	-13.818	84.672	-0.72290	0.56290	-0.37393	-0.14374	30.9	13111	100
2025-3-27 18:48:4.845	WT901BLE68-01(48591DE3C19B)	-0.491	-1.298	0.125	-42.542	-8.179	-293.396	-89.69	11.26	-23.19	-51.254	-13.818	84.672	-0.72290	0.56290	-0.37393	-0.14374	30.9	13111	100
2025-3-27 18:48:4.845	WT901BLE68-01(48591DE3C19B)	-0.491	-1.326	0.176	-38.330	15.259	-286.865	-90.08	8.35	-23.32	-51.254	-13.818	84.672	-0.72290	0.56290	-0.37393	-0.14374	30.9	13111	100
2025-3-27 18:48:4.907	WT901BLE68-01(48591DE3C19B)	-0.472	-1.326	0.176	-38.330	15.259	-286.865	-90.46	5.50	-23.54	-51.254	-13.818	84.672	-0.72290	0.56290	-0.37393	-0.14374	30.9	13111	100
2025-3-27 18:48:4.907	WT901BLE68-01(48591DE3C19B)	-0.472	-1.292	0.150	-33.081	30.273	-273.621	-90.78	2.80	-23.91	-51.254	-13.818	84.672	-0.72290	0.56290	-0.37393	-0.14374	30.9	13111	100
2025-3-27 18:48:4.907	WT901BLE68-01(48591DE3C19B)	-0.567	-1.292	0.150	-33.081	30.273	-273.621	-91.08	0.12	-24.24	-51.254	-13.818	84.672	-0.72290	0.56290	-0.37393	-0.14374	30.9	13111	100
2025-3-27 18:48:4.907	WT901BLE68-01(48591DE3C19B)	-0.567	-1.307	0.187	-25.330	26.855	-249.390	-91.29	-2.29	-24.54	-51.254	-13.818	84.672	-0.72290	0.56290	-0.37393	-0.14374	30.9	13111	100
2025-3-27 18:48:4.937	WT901BLE68-01(48591DE3C19B)	-0.869	-1.307	0.187	-25.330	26.855	-249.390	-91.48	-4.69	-24.82	-51.254	-13.818	84.672	-0.72290	0.56290	-0.37393	-0.14374	30.9	13111	100
2025-3-27 18:48:4.937	WT901BLE68-01(48591DE3C19B)	-0.869	-1.375	0.381	-11.902	17.212	-216.919	-91.53	-6.73	-25.00	-51.254	-13.818	84.672	-0.72290	0.56290	-0.37393	-0.14374	30.9	13111	100
2025-3-27 18:48:4.937	WT901BLE68-01(48591DE3C19B)	-1.132	-1.375	0.381	-11.902	17.212	-216.919	-91.57	-8.75	-25.19	-51.254	-13.818	84.672	-0.72290	0.56290	-0.37393	-0.14374	30.9	13111	100
2025-3-27 18:48:4.937	WT901BLE68-01(48591DE3C19B)	-1.132	-1.435	0.521	-3.113	17.334	-190.491	-91.51	-10.49	-25.37	-70.756	-34.888	85.064	-0.72290	0.56290	-0.37393	-0.14374	30.9	13111	100
2025-3-27 18:48:4.966	WT901BLE68-01(48591DE3C19B)	-1.123	-1.435	0.521	-3.113	17.334	-190.491	-91.44	-12.19	-25.55	-70.756	-34.888	85.064	-0.72290	0.56290	-0.37393	-0.14374	30.9	13111	100
2025-3-27 18:48:4.967	WT901BLE68-01(48591DE3C19B)	-1.123	-1.584	0.547	0.732	26.794	-168.091	-91.30	-13.67	-25.83	-70.756	-34.888	85.064	-0.72290	0.56290	-0.37393	-0.14374	30.9	13111	100
2025-3-27 18:48:4.967	WT901BLE68-01(48591DE3C19B)	-1.118	-1.584	0.547	0.732	26.794	-168.091	-91.14	-15.12	-26.11	-70.756	-34.888	85.064	-0.72290	0.56290	-0.37393	-0.14374	30.9	13111	100
2025-3-27 18:48:4.967	WT901BLE68-01(48591DE3C19B)	-1.118	-1.704	0.534	3.601	41.748	-138.123	-90.91	-16.27	-26.55	-70.756	-34.888	85.064	-0.72290	0.56290	-0.37393	-0.14374	30.9	13111	100
2025-3-27 18:48:5.85	WT901BLE68-01(48591DE3C19B)	-1.235	-1.704	0.534	3.601	41.748	-138.123	-90.67	-17.39	-27.00	-70.756	-34.888	85.064	-0.72290	0.56290	-0.37393	-0.14374	30.9	13111	100
2025-3-27 18:48:5.86	WT901BLE68-01(48591DE3C19B)	-1.235	-1.625	0.528	7.690	58.350	-103.149	-90.32	-18.16	-27.63	-70.756	-34.888	85.064	-0.72290	0.56290	-0.37393	-0.14374	30.9	13111	100
2025-3-27 18:48:5.86	WT901BLE68-01(48591DE3C19B)	-1.343	-1.625	0.528	7.690	58.350	-103.149	-89.97	-18.92	-28.25	-70.756	-34.888	85.064	-0.72290	0.56290	-0.37393	-0.14374	30.9	13111	100
2025-3-27 18:48:5.86	WT901BLE68-01(48591DE3C19B)	-1.343	-1.442	0.590	2.197	60.120	-65.735	-89.66	-19.28	-28.89	-70.756	-34.888	85.064	-0.72290	0.56290	-0.37393	-0.14374	30.9	13111	100
2025-3-27 18:48:5.86	WT901BLE68-01(48591DE3C19B)	-1.409	-1.442	0.590	2.197	60.120	-65.735	-89.35	-19.64	-29.53	-70.756	-34.888	85.064	-0.72290	0.56290	-0.37393	-0.14374	30.9	13111	100
2025-3-27 18:48:5.86	WT901BLE68-01(48591DE3C19B)	-1.409	-1.405	0.645	-4.211	42.725	-25.940	-89.17	-19.58	-29.98	-70.756	-34.888	85.064	-0.72290	0.56290	-0.37393	-0.14374	30.9	13111	100
2025-3-27 18:48:5.86	WT901BLE68-01(48591DE3C19B)	-1.291	-1.405	0.645	-4.211	42.725	-25.940	-88.98	-19.52	-30.41	-70.756	-34.888	85.064	-0.72290	0.56290	-0.37393	-0.14374	30.9	13111	100
2025-3-27 18:48:5.87	WT901BLE68-01(48591DE3C19B)	-1.291	-1.307	0.599	-1.953	10.132	17.151	-88.90	-19.03	-30.48	-70.756	-34.888	85.064	-0.72290	0.56290	-0.37393	-0.14374	30.9	13111	100
2025-3-27 18:48:5.87	WT901BLE68-01(48591DE3C19B)	-1.086	-1.307	0.599	-1.953	10.132	17.151	-88.81	-18.54	-30.55	-70.756	-34.888	85.064	-0.72290	0.56290	-0.37393	-0.14374	30.9	13111	100
2025-3-27 18:48:5.87	WT901BLE68-01(48591DE3C19B)	-1.086	-1.096	0.500	2.563	-18.494	61.829	-88.79	-17.61	-30.31	-70.756	-34.888	85.064	-0.72290	0.56290	-0.37393	-0.14374	30.9	13111	100
2025-3-27 18:48:5.87	WT901BLE68-01(48591DE3C19B)	-0.998	-1.096	0.500	2.563	-18.494	61.829	-88.75	-16.67	-30.06	-70.756	-34.888	85.064	-0.72290	0.56290	-0.37393	-0.14374	30.9	13111	100
2025-3-27 18:48:5.87	WT901BLE68-01(48591DE3C19B)	-0.998	-0.968	0.366	6.409	-30.151	102.356	-88.71	-15.34	-29.69	-70.756	-34.888	85.064	-0.72290	0.56290	-0.37393	-0.14374	30.9	13111	100
2025-3-27 18:48:5.145	WT901BLE68-01(48591DE3C19B)	-0.891	-0.968	0.366	6.409	-30.151	102.356	-88.66	-14.01	-29.31	-70.756	-34.888	85.064	-0.72290	0.56290	-0.37393	-0.14374	30.9	13111	100
2025-3-27 18:48:5.145	WT901BLE68-01(48591DE3C19B)	-0.891	-0.865	0.247	12.634	-33.264	136.963	-88.55	-12.35	-28.89	-70.756	-34.888	85.064	-0.72290	0.56290	-0.37393	-0.14374	30.9	13111	100
2025-3-27 18:48:5.145	WT901BLE68-01(48591DE3C19B)	-0.802	-0.865	0.247	12.634	-33.264	136.963	-88.43	-10.69	-28.47	-70.756	-34.888	85.064	-0.72290	0.56290	-0.37393	-0.14374	30.9	13111	100
2025-3-27 18:48:5.146	WT901BLE68-01(48591DE3C19B)	-0.802	-0.883	0.176	14.709	-33.386	167.542	-88.29	-8.74	-28.04	-70.756	-34.888	85.064	-0.72290	0.56290	-0.37393	-0.14374	30.9	13111	100
2025-3-27 18:48:5.175	WT901BLE68-01(48591DE3C19B)	-0.724	-0.883	0.176	14.709	-33.386	167.542	-88.13	-6.80	-27.61	-70.756	-34.888	85.064	-0.68665	0.68436	-0.12433	0.21121	30.9	13111	100
2025-3-27 18:48:5.175	WT901BLE68-01(48591DE3C19B)	-0.724	-1.043	0.109	18.433	-37.598	190.186	-87.93	-4.64	-27.14	-70.756	-34.888	85.064	-0.68665	0.68436	-0.12433	0.21121	30.9	13111	100
2025-3-27 18:48:5.175	WT901BLE68-01(48591DE3C19B)	-0.679	-1.043	0.109	18.433	-37.598	190.186	-87.72	-2.50	-26.66	-70.756	-34.888	85.064	-0.68665	0.68436	-0.12433	0.21121	30.9	13111	100
2025-3-27 18:48:5.175	WT901BLE68-01(48591DE3C19B)	-0.679	-1.205	0.099	27.954	-50.720	210.083	-87.40	-0.20	-26.04	-70.756	-34.888	85.064	-0.68665	0.68436	-0.12433	0.21121	30.9	13111	100
2025-3-27 18:48:5.204	WT901BLE68-01(48591DE3C19B)	-0.674	-1.205	0.099	27.954	-50.720	210.083	-87.06	2.09	-25.42	-70.756	-34.888	85.064	-0.68665	0.68436	-0.12433	0.21121	30.9	13111	100
2025-3-27 18:48:5.204	WT901BLE68-01(48591DE3C19B)	-0.674	-1.288	0.055	38.757	-63.171	229.248	-86.57	4.53	-24.66	-70.756	-34.888	85.064	-0.68665	0.68436	-0.12433	0.21121	30.9	13111	100
2025-3-27 18:48:5.204	WT901BLE68-01(48591DE3C19B)	-0.678	-1.288	0.055	38.757	-63.171	229.248	-86.07	6.95	-23.88	-70.756	-34.888	85.064	-0.68665	0.68436	-0.12433	0.21121	30.9	13111	100
2025-3-27 18:48:5.204	WT901BLE68-01(48591DE3C19B)	-0.678	-1.317	0.020	46.814	-71.472	241.821	-85.43	9.47	-22.99	-70.756	-34.888	85.064	-0.68665	0.68436	-0.12433	0.21121	30.9	13111	100
2025-3-27 18:48:5.301	WT901BLE68-01(48591DE3C19B)	-0.650	-1.317	0.020	46.814	-71.472	241.821	-84.76	11.95	-22.09	-70.756	-34.888	85.064	-0.68665	0.68436	-0.12433	0.21121	30.9	13111	100
2025-3-27 18:48:5.301	WT901BLE68-01(48591DE3C19B)	-0.650	-1.336	-0.006	52.673	-76.843	251.038	-83.97	14.49	-21.08	-70.756	-34.888	85.064	-0.68665	0.68436	-0.12433	0.21121	30.9	13111	100
2025-3-27 18:48:5.301	WT901BLE68-01(48591DE3C19B)	-0.561	-1.336	-0.006	52.673	-76.843	251.038	-83.14	17.00	-20.04	-70.756	-34.888	85.064	-0.68665	0.68436	-0.12433	0.21121	30.9	13111	100
2025-3-27 18:48:5.302	WT901BLE68-01(48591DE3C19B)	-0.561	-1.310	-0.004	58.411	-78.186	257.935	-82.18	19.53	-18.94	-70.756	-34.888	85.064	-0.68665	0.68436	-0.12433	0.21121	30.9	13111	100
2025-3-27 18:48:5.302	WT901BLE68-01(48591DE3C19B)	-0.439	-1.310	-0.004	58.411	-78.186	257.935	-81.17	22.03	-17.78	-70.756	-34.888	85.064	-0.68665	0.68436	-0.12433	0.21121	30.9	13111	100
2025-3-27 18:48:5.302	WT901BLE68-01(48591DE3C19B)	-0.439	-1.261	0.008	61.951	-72.388	264.099	-80.08	24.56	-16.62	-70.756	-34.888	85.064	-0.68665	0.68436	-0.12433	0.21121	30.9	13111	100
2025-3-27 18:48:5.302	WT901BLE68-01(48591DE3C19B)	-0.392	-1.261	0.008	61.951	-72.388	264.099	-78.91	27.04	-15.39	-70.756	-34.888	85.064	-0.68665	0.68436	-0.12433	0.21121	30.9	13111	100
2025-3-27 18:48:5.302	WT901BLE68-01(48591DE3C19B)	-0.392	-1.219	0.007	63.110	-59.937	268.188	-77.72	29.55	-14.22	-70.756	-34.888	85.064	-0.68665	0.68436	-0.12433	0.21121	30.9	13111	100
2025-3-27 18:48:5.385	WT901BLE68-01(48591DE3C19B)	-0.396	-1.219	0.007	63.110	-59.937	268.188	-76.44	32.01	-12.97	-70.756	-34.888	85.064	-0.68665	0.68436	-0.12433	0.21121	30.9	13111	100
2025-3-27 18:48:5.386	WT901BLE68-01(48591DE3C19B)	-0.389	-1.202	0.006	62.256	-48.401	265.564	-75.16	34.44	-11.78	-70.756	-34.888	85.064	-0.68665	0.68436	-0.12433	0.21121	30.9	13111	100
2025-3-27 18:48:5.386	WT901BLE68-01(48591DE3C19B)	-0.389	-1.262	0.030	57.312	-41.382	256.958	-73.84	36.79	-10.56	-74.676	-19.796	79.968	-0.68665	0.68436	-0.12433	0.21121	30.9	13111	100
2025-3-27 18:48:5.386	WT901BLE68-01(48591DE3C19B)	-0.391	-1.262	0.030	57.312	-41.382	256.958	-72.49	39.06	-9.29	-74.676	-19.796	79.968	-0.68665	0.68436	-0.12433	0.21121	30.9	13111	100
2025-3-27 18:48:5.387	WT901BLE68-01(48591DE3C19B)	-0.391	-1.403	0.053	53.467	-37.964	244.629	-71.09	41.24	-7.98	-74.676	-19.796	79.968	-0.68665	0.68436	-0.12433	0.21121	30.9	13111	100
2025-3-27 18:48:5.387	WT901BLE68-01(48591DE3C19B)	-0.388	-1.403	0.053	53.467	-37.964	244.629	-69.63	43.33	-6.61	-74.676	-19.796	79.968	-0.68665	0.68436	-0.12433	0.21121	30.9	13111	100
2025-3-27 18:48:5.387	WT901BLE68-01(48591DE3C19B)	-0.388	-1.532	0.066	52.551	-33.264	231.750	-68.12	45.32	-5.19	-74.676	-19.796	79.968	-0.68665	0.68436	-0.12433	0.21121	30.9	13111	100
2025-3-27 18:48:5.387	WT901BLE68-01(48591DE3C19B)	-0.393	-1.532	0.066	52.551	-33.264	231.750	-66.53	47.22	-3.73	-74.676	-19.796	79.968	-0.68665	0.68436	-0.12433	0.21121	30.9	13111	100
2025-3-27 18:48:5.417	WT901BLE68-01(48591DE3C19B)	-0.393	-1.672	0.042	48.889	-24.963	219.177	-64.92	49.03	-2.24	-74.676	-19.796	79.968	-0.68665	0.68436	-0.12433	0.21121	30.9	13111	100
2025-3-27 18:48:5.417	WT901BLE68-01(48591DE3C19B)	-0.321	-1.672	0.042	48.889	-24.963	219.177	-63.29	50.76	-0.74	-74.676	-19.796	79.968	-0.68665	0.68436	-0.12433	0.21121	30.9	13111	100
2025-3-27 18:48:5.417	WT901BLE68-01(48591DE3C19B)	-0.321	-1.781	-0.008	43.091	-11.841	206.299	-61.68	52.42	0.74	-74.676	-19.796	79.968	-0.68665	0.68436	-0.12433	0.21121	30.9	13111	100
2025-3-27 18:48:5.417	WT901BLE68-01(48591DE3C19B)	-0.197	-1.781	-0.008	43.091	-11.841	206.299	-60.09	54.02	2.20	-74.676	-19.796	79.968	-0.68665	0.68436	-0.12433	0.21121	30.9	13111	100
2025-3-27 18:48:5.447	WT901BLE68-01(48591DE3C19B)	-0.197	-1.814	-0.030	30.701	0.977	191.589	-58.58	55.55	3.60	-74.676	-19.796	79.968	-0.68665	0.68436	-0.12433	0.21121	30.9	13111	100
2025-3-27 18:48:5.447	WT901BLE68-01(48591DE3C19B)	-0.070	-1.814	-0.030	30.701	0.977	191.589	-57.16	57.02	4.95	-74.676	-19.796	79.968	-0.68665	0.68436	-0.12433	0.21121	30.9	13111	100
2025-3-27 18:48:5.447	WT901BLE68-01(48591DE3C19B)	-0.070	-1.781	-0.004	15.442	12.634	174.194	-55.87	58.41	6.23	-74.676	-19.796	79.968	-0.68665	0.68436	-0.12433	0.21121	30.9	13111	100
2025-3-27 18:48:5.447	WT901BLE68-01(48591DE3C19B)	0.089	-1.781	-0.004	15.442	12.634	174.194	-54.72	59.74	7.40	-74.676	-19.796	79.968	-0.68665	0.68436	-0.12433	0.21121	30.9	13111	100
2025-3-27 18:48:5.507	WT901BLE68-01(48591DE3C19B)	0.089	-1.682	0.032	-1.038	22.827	148.315	-53.78	60.97	8.42	-74.676	-19.796	79.968	-0.68665	0.68436	-0.12433	0.21121	30.9	13111	100
2025-3-27 18:48:5.507	WT901BLE68-01(48591DE3C19B)	0.223	-1.682	0.032	-1.038	22.827	148.315	-53.07	62.12	9.25	-74.676	-19.796	79.968	-0.68665	0.68436	-0.12433	0.21121	30.9	13111	100
2025-3-27 18:48:5.507	WT901BLE68-01(48591DE3C19B)	0.223	-1.542	0.117	-12.085	24.597	116.455	-52.58	63.12	9.90	-74.676	-19.796	79.968	-0.68665	0.68436	-0.12433	0.21121	30.9	13111	100
2025-3-27 18:48:5.507	WT901BLE68-01(48591DE3C19B)	0.235	-1.542	0.117	-12.085	24.597	116.455	-52.31	63.98	10.33	-74.676	-19.796	79.968	-0.68665	0.68436	-0.12433	0.21121	30.9	13111	100
2025-3-27 18:48:5.535	WT901BLE68-01(48591DE3C19B)	0.235	-1.366	0.216	-24.414	7.996	78.552	-52.20	64.64	10.66	-74.676	-19.796	79.968	-0.68665	0.68436	-0.12433	0.21121	30.9	13111	100
2025-3-27 18:48:5.535	WT901BLE68-01(48591DE3C19B)	0.132	-1.366	0.216	-24.414	7.996	78.552	-52.26	65.09	10.87	-74.676	-19.796	79.968	-0.68665	0.68436	-0.12433	0.21121	30.9	13111	100
2025-3-27 18:48:5.536	WT901BLE68-01(48591DE3C19B)	0.132	-1.262	0.222	-31.555	10.925	26.367	-52.72	65.33	10.66	-74.676	-19.796	79.968	-0.68665	0.68436	-0.12433	0.21121	30.9	13111	100
2025-3-27 18:48:5.536	WT901BLE68-01(48591DE3C19B)	0.075	-1.262	0.222	-31.555	10.925	26.367	-53.60	65.37	10.04	-74.676	-19.796	79.968	-0.72702	0.42017	-0.44693	-0.30826	30.9	13111	100
2025-3-27 18:48:5.563	WT901BLE68-01(48591DE3C19B)	0.075	-1.145	0.171	-31.494	26.001	-28.259	-54.94	65.22	8.89	-74.676	-19.796	79.968	-0.72702	0.42017	-0.44693	-0.30826	30.9	13111	100
2025-3-27 18:48:5.563	WT901BLE68-01(48591DE3C19B)	0.059	-1.145	0.171	-31.494	26.001	-28.259	-56.73	64.87	7.25	-74.676	-19.796	79.968	-0.72702	0.42017	-0.44693	-0.30826	30.9	13111	100
2025-3-27 18:48:5.563	WT901BLE68-01(48591DE3C19B)	0.059	-1.011	0.121	-35.034	50.903	-87.341	-59.01	64.32	5.07	-74.676	-19.796	79.968	-0.72702	0.42017	-0.44693	-0.30826	30.9	13111	100
2025-3-27 18:48:5.563	WT901BLE68-01(48591DE3C19B)	0.073	-1.011	0.121	-35.034	50.903	-87.341	-61.72	63.54	2.42	-74.676	-19.796	79.968	-0.72702	0.42017	-0.44693	-0.30826	30.9	13111	100
2025-3-27 18:48:5.626	WT901BLE68-01(48591DE3C19B)	0.073	-0.982	0.103	-40.833	64.697	-143.311	-64.64	62.48	-0.46	-74.676	-19.796	79.968	-0.72702	0.42017	-0.44693	-0.30826	30.9	13111	100
2025-3-27 18:48:5.626	WT901BLE68-01(48591DE3C19B)	0.032	-0.982	0.103	-40.833	64.697	-143.311	-67.68	61.14	-3.47	-74.676	-19.796	79.968	-0.72702	0.42017	-0.44693	-0.30826	30.9	13111	100
2025-3-27 18:48:5.626	WT901BLE68-01(48591DE3C19B)	0.032	-1.000	0.121	-37.476	64.270	-186.523	-70.53	59.53	-6.34	-74.676	-19.796	79.968	-0.72702	0.42017	-0.44693	-0.30826	30.9	13111	100
2025-3-27 18:48:5.626	WT901BLE68-01(48591DE3C19B)	-0.034	-1.000	0.121	-37.476	64.270	-186.523	-73.17	57.66	-9.04	-74.676	-19.796	79.968	-0.72702	0.42017	-0.44693	-0.30826	30.9	13111	100
2025-3-27 18:48:5.654	WT901BLE68-01(48591DE3C19B)	-0.034	-1.034	0.097	-30.640	63.293	-220.703	-75.54	55.57	-11.51	-74.676	-19.796	79.968	-0.72702	0.42017	-0.44693	-0.30826	30.9	13111	100
2025-3-27 18:48:5.654	WT901BLE68-01(48591DE3C19B)	-0.111	-1.034	0.097	-30.640	63.293	-220.703	-77.63	53.28	-13.76	-74.676	-19.796	79.968	-0.72702	0.42017	-0.44693	-0.30826	30.9	13111	100
2025-3-27 18:48:5.654	WT901BLE68-01(48591DE3C19B)	-0.111	-1.060	0.143	-23.804	49.744	-246.765	-79.38	50.82	-15.69	-74.676	-19.796	79.968	-0.72702	0.42017	-0.44693	-0.30826	30.9	13111	100
2025-3-27 18:48:5.654	WT901BLE68-01(48591DE3C19B)	-0.167	-1.060	0.143	-23.804	49.744	-246.765	-80.83	48.21	-17.34	-74.676	-19.796	79.968	-0.72702	0.42017	-0.44693	-0.30826	30.9	13111	100
2025-3-27 18:48:5.685	WT901BLE68-01(48591DE3C19B)	-0.167	-1.076	0.169	-26.001	26.978	-272.217	-82.01	45.45	-18.67	-74.676	-19.796	79.968	-0.72702	0.42017	-0.44693	-0.30826	30.9	13111	100
2025-3-27 18:48:5.685	WT901BLE68-01(48591DE3C19B)	-0.223	-1.076	0.169	-26.001	26.978	-272.217	-82.95	42.55	-19.74	-74.676	-19.796	79.968	-0.72702	0.42017	-0.44693	-0.30826	30.9	13111	100
2025-3-27 18:48:5.685	WT901BLE68-01(48591DE3C19B)	-0.223	-1.164	0.176	-30.090	3.357	-296.753	-83.72	39.52	-20.55	-74.676	-19.796	79.968	-0.72702	0.42017	-0.44693	-0.30826	30.9	13111	100
2025-3-27 18:48:5.685	WT901BLE68-01(48591DE3C19B)	-0.283	-1.164	0.176	-30.090	3.357	-296.753	-84.33	36.38	-21.15	-74.676	-19.796	79.968	-0.72702	0.42017	-0.44693	-0.30826	30.9	13111	100
2025-3-27 18:48:5.745	WT901BLE68-01(48591DE3C19B)	-0.283	-1.279	0.180	-32.898	-9.338	-319.397	-84.86	33.13	-21.62	-74.676	-19.796	79.968	-0.72702	0.42017	-0.44693	-0.30826	30.9	13111	100
2025-3-27 18:48:5.745	WT901BLE68-01(48591DE3C19B)	-0.386	-1.279	0.180	-32.898	-9.338	-319.397	-85.32	29.79	-21.98	-74.676	-19.796	79.968	-0.72702	0.42017	-0.44693	-0.30826	30.9	13111	100
2025-3-27 18:48:5.745	WT901BLE68-01(48591DE3C19B)	-0.386	-1.371	0.205	-36.377	-7.568	-338.806	-85.77	26.38	-22.31	-74.676	-19.796	79.968	-0.72702	0.42017	-0.44693	-0.30826	30.9	13111	100
2025-3-27 18:48:5.746	WT901BLE68-01(48591DE3C19B)	-0.518	-1.371	0.205	-36.377	-7.568	-338.806	-86.21	22.89	-22.63	-74.676	-19.796	79.968	-0.72702	0.42017	-0.44693	-0.30826	30.9	13111	100
2025-3-27 18:48:5.774	WT901BLE68-01(48591DE3C19B)	-0.518	-1.438	0.239	-42.358	1.831	-352.905	-86.66	19.36	-22.95	-77.714	-21.756	78.694	-0.72702	0.42017	-0.44693	-0.30826	30.9	13111	100
2025-3-27 18:48:5.774	WT901BLE68-01(48591DE3C19B)	-0.566	-1.438	0.239	-42.358	1.831	-352.905	-87.13	15.79	-23.29	-77.714	-21.756	78.694	-0.72702	0.42017	-0.44693	-0.30826	30.9	13111	100
2025-3-27 18:48:5.774	WT901BLE68-01(48591DE3C19B)	-0.566	-1.478	0.270	-46.753	12.329	-355.591	-87.60	12.24	-23.65	-77.714	-21.756	78.694	-0.72702	0.42017	-0.44693	-0.30826	30.9	13111	100
2025-3-27 18:48:5.774	WT901BLE68-01(48591DE3C19B)	-0.542	-1.478	0.270	-46.753	12.329	-355.591	-88.08	8.70	-24.02	-77.714	-21.756	78.694	-0.72702	0.42017	-0.44693	-0.30826	30.9	13111	100
2025-3-27 18:48:5.835	WT901BLE68-01(48591DE3C19B)	-0.542	-1.486	0.270	-47.302	27.161	-346.375	-88.54	5.23	-24.43	-77.714	-21.756	78.694	-0.72702	0.42017	-0.44693	-0.30826	30.9	13111	100
2025-3-27 18:48:5.835	WT901BLE68-01(48591DE3C19B)	-0.524	-1.486	0.270	-47.302	27.161	-346.375	-88.98	1.83	-24.88	-77.714	-21.756	78.694	-0.72702	0.42017	-0.44693	-0.30826	30.9	13111	100
2025-3-27 18:48:5.835	WT901BLE68-01(48591DE3C19B)	-0.524	-1.486	0.243	-43.640	35.950	-328.003	-89.36	-1.36	-25.39	-77.714	-21.756	78.694	-0.72702	0.42017	-0.44693	-0.30826	30.9	13111	100
2025-3-27 18:48:5.835	WT901BLE68-01(48591DE3C19B)	-0.543	-1.486	0.243	-43.640	35.950	-328.003	-89.71	-4.53	-25.87	-77.714	-21.756	78.694	-0.72702	0.42017	-0.44693	-0.30826	30.9	13111	100
2025-3-27 18:48:5.865	WT901BLE68-01(48591DE3C19B)	-0.543	-1.473	0.251	-33.203	41.077	-300.110	-89.93	-7.40	-26.38	-77.714	-21.756	78.694	-0.72702	0.42017	-0.44693	-0.30826	30.9	13111	100
2025-3-27 18:48:5.865	WT901BLE68-01(48591DE3C19B)	-0.663	-1.473	0.251	-33.203	41.077	-300.110	-90.13	-10.26	-26.89	-77.714	-21.756	78.694	-0.72702	0.42017	-0.44693	-0.30826	30.9	13111	100
2025-3-27 18:48:5.865	WT901BLE68-01(48591DE3C19B)	-0.663	-1.398	0.309	-25.879	50.415	-268.860	-90.21	-12.79	-27.48	-77.714	-21.756	78.694	-0.72702	0.42017	-0.44693	-0.30826	30.9	13111	100
2025-3-27 18:48:5.865	WT901BLE68-01(48591DE3C19B)	-0.830	-1.398	0.309	-25.879	50.415	-268.860	-90.27	-15.29	-28.06	-77.714	-21.756	78.694	-0.72702	0.42017	-0.44693	-0.30826	30.9	13111	100
2025-3-27 18:48:5.903	WT901BLE68-01(48591DE3C19B)	-0.830	-1.378	0.312	-19.104	58.960	-235.718	-90.21	-17.45	-28.73	-77.714	-21.756	78.694	-0.72702	0.42017	-0.44693	-0.30826	30.9	13111	100
2025-3-27 18:48:5.903	WT901BLE68-01(48591DE3C19B)	-0.824	-1.378	0.312	-19.104	58.960	-235.718	-90.13	-19.58	-29.42	-77.714	-21.756	78.694	-0.72702	0.42017	-0.44693	-0.30826	30.9	13111	100
2025-3-27 18:48:5.903	WT901BLE68-01(48591DE3C19B)	-0.824	-1.289	0.275	-9.888	62.500	-200.073	-89.92	-21.34	-30.13	-77.714	-21.756	78.694	-0.72702	0.42017	-0.44693	-0.30826	30.9	13111	100
2025-3-27 18:48:5.903	WT901BLE68-01(48591DE3C19B)	-0.742	-1.289	0.275	-9.888	62.500	-200.073	-89.68	-23.08	-30.86	-77.714	-21.756	78.694	-0.72702	0.42017	-0.44693	-0.30826	30.9	13111	100
2025-3-27 18:48:5.955	WT901BLE68-01(48591DE3C19B)	-0.742	-1.175	0.293	-5.615	71.960	-160.156	-89.35	-24.40	-31.69	-77.714	-21.756	78.694	-0.72702	0.42017	-0.44693	-0.30826	30.9	13111	100
2025-3-27 18:48:5.955	WT901BLE68-01(48591DE3C19B)	-0.773	-1.175	0.293	-5.615	71.960	-160.156	-88.99	-25.70	-32.53	-77.714	-21.756	78.694	-0.62228	0.69928	-0.03845	0.34949	30.9	13111	100
2025-3-27 18:48:5.956	WT901BLE68-01(48591DE3C19B)	-0.773	-1.100	0.369	-6.470	80.200	-122.986	-88.59	-26.62	-33.46	-77.714	-21.756	78.694	-0.62228	0.69928	-0.03845	0.34949	30.9	13111	100
2025-3-27 18:48:5.956	WT901BLE68-01(48591DE3C19B)	-0.839	-1.100	0.369	-6.470	80.200	-122.986	-88.17	-27.52	-34.40	-77.714	-21.756	78.694	-0.62228	0.69928	-0.03845	0.34949	30.9	13111	100
2025-3-27 18:48:5.984	WT901BLE68-01(48591DE3C19B)	-0.839	-1.087	0.425	-10.315	79.163	-90.454	-87.78	-28.08	-35.33	-77.714	-21.756	78.694	-0.62228	0.69928	-0.03845	0.34949	30.9	13111	100
2025-3-27 18:48:5.984	WT901BLE68-01(48591DE3C19B)	-0.884	-1.087	0.425	-10.315	79.163	-90.454	-87.39	-28.62	-36.24	-77.714	-21.756	78.694	-0.62228	0.69928	-0.03845	0.34949	30.9	13111	100
2025-3-27 18:48:5.984	WT901BLE68-01(48591DE3C19B)	-0.884	-1.113	0.440	-14.160	69.946	-61.035	-87.08	-28.86	-37.04	-77.714	-21.756	78.694	-0.62228	0.69928	-0.03845	0.34949	30.9	13111	100
2025-3-27 18:48:5.984	WT901BLE68-01(48591DE3C19B)	-0.926	-1.113	0.440	-14.160	69.946	-61.035	-86.78	-29.10	-37.84	-77.714	-21.756	78.694	-0.62228	0.69928	-0.03845	0.34949	30.9	13111	100
2025-3-27 18:48:6.15	WT901BLE68-01(48591DE3C19B)	-0.926	-1.165	0.426	-18.799	49.377	-34.607	-86.64	-29.07	-38.37	-77.714	-21.756	78.694	-0.62228	0.69928	-0.03845	0.34949	30.9	13111	100
2025-3-27 18:48:6.15	WT901BLE68-01(48591DE3C19B)	-0.951	-1.165	0.426	-18.799	49.377	-34.607	-86.51	-29.04	-38.90	-77.714	-21.756	78.694	-0.62228	0.69928	-0.03845	0.34949	30.9	13111	100
2025-3-27 18:48:6.15	WT901BLE68-01(48591DE3C19B)	-0.951	-1.226	0.417	-21.118	23.560	-9.338	-86.56	-28.76	-39.11	-77.714	-21.756	78.694	-0.62228	0.69928	-0.03845	0.34949	30.9	13111	100
2025-3-27 18:48:6.15	WT901BLE68-01(48591DE3C19B)	-0.972	-1.226	0.417	-21.118	23.560	-9.338	-86.61	-28.49	-39.31	-77.714	-21.756	78.694	-0.62228	0.69928	-0.03845	0.34949	30.9	13111	100
2025-3-27 18:48:6.75	WT901BLE68-01(48591DE3C19B)	-0.972	-1.221	0.421	-18.127	-4.822	17.639	-86.79	-27.97	-39.17	-77.714	-21.756	78.694	-0.62228	0.69928	-0.03845	0.34949	30.9	13111	100
2025-3-27 18:48:6.75	WT901BLE68-01(48591DE3C19B)	-0.980	-1.221	0.421	-18.127	-4.822	17.639	-86.96	-27.44	-39.03	-77.714	-21.756	78.694	-0.62228	0.69928	-0.03845	0.34949	30.9	13111	100
2025-3-27 18:48:6.75	WT901BLE68-01(48591DE3C19B)	-0.980	-1.127	0.433	-14.709	-36.316	48.584	-87.28	-26.62	-38.52	-77.714	-21.756	78.694	-0.62228	0.69928	-0.03845	0.34949	30.9	13111	100
2025-3-27 18:48:6.75	WT901BLE68-01(48591DE3C19B)	-0.941	-1.127	0.433	-14.709	-36.316	48.584	-87.57	-25.80	-38.02	-77.714	-21.756	78.694	-0.62228	0.69928	-0.03845	0.34949	30.9	13111	100
2025-3-27 18:48:6.107	WT901BLE68-01(48591DE3C19B)	-0.941	-1.169	0.427	-13.977	-65.979	84.045	-87.99	-24.64	-37.19	-77.714	-21.756	78.694	-0.62228	0.69928	-0.03845	0.34949	30.9	13111	100
2025-3-27 18:48:6.107	WT901BLE68-01(48591DE3C19B)	-0.823	-1.169	0.427	-13.977	-65.979	84.045	-88.40	-23.47	-36.38	-77.714	-21.756	78.694	-0.62228	0.69928	-0.03845	0.34949	30.9	13111	100
2025-3-27 18:48:6.107	WT901BLE68-01(48591DE3C19B)	-0.823	-1.200	0.387	-3.174	-83.801	123.901	-88.73	-21.92	-35.38	-77.714	-21.756	78.694	-0.62228	0.69928	-0.03845	0.34949	30.9	13111	100
2025-3-27 18:48:6.108	WT901BLE68-01(48591DE3C19B)	-0.664	-1.200	0.387	-3.174	-83.801	123.901	-89.03	-20.37	-34.41	-77.714	-21.756	78.694	-0.62228	0.69928	-0.03845	0.34949	30.9	13111	100
2025-3-27 18:48:6.137	WT901BLE68-01(48591DE3C19B)	-0.664	-1.128	0.313	7.751	-87.769	166.809	-89.21	-18.40	-33.42	-77.714	-21.756	78.694	-0.62228	0.69928	-0.03845	0.34949	30.9	13111	100
2025-3-27 18:48:6.137	WT901BLE68-01(48591DE3C19B)	-0.539	-1.128	0.313	7.751	-87.769	166.809	-89.34	-16.44	-32.46	-77.714	-21.756	78.694	-0.62228	0.69928	-0.03845	0.34949	30.9	13111	100
2025-3-27 18:48:6.137	WT901BLE68-01(48591DE3C19B)	-0.539	-1.117	0.264	15.381	-77.515	206.299	-89.32	-14.11	-31.62	-75.950	-51.744	74.970	-0.62228	0.69928	-0.03845	0.34949	30.9	13111	100
2025-3-27 18:48:6.137	WT901BLE68-01(48591DE3C19B)	-0.512	-1.117	0.264	15.381	-77.515	206.299	-89.27	-11.79	-30.80	-75.950	-51.744	74.970	-0.62228	0.69928	-0.03845	0.34949	30.9	13111	100
2025-3-27 18:48:6.195	WT901BLE68-01(48591DE3C19B)	-0.512	-1.198	0.253	20.508	-68.481	237.122	-89.11	-9.18	-30.08	-75.950	-51.744	74.970	-0.62228	0.69928	-0.03845	0.34949	30.9	13111	100
2025-3-27 18:48:6.195	WT901BLE68-01(48591DE3C19B)	-0.532	-1.198	0.253	20.508	-68.481	237.122	-88.92	-6.60	-29.37	-75.950	-51.744	74.970	-0.62228	0.69928	-0.03845	0.34949	30.9	13111	100
2025-3-27 18:48:6.195	WT901BLE68-01(48591DE3C19B)	-0.532	-1.356	0.277	25.146	-69.519	256.287	-88.65	-3.85	-28.65	-75.950	-51.744	74.970	-0.62228	0.69928	-0.03845	0.34949	30.9	13111	100
2025-3-27 18:48:6.195	WT901BLE68-01(48591DE3C19B)	-0.545	-1.356	0.277	25.146	-69.519	256.287	-88.35	-1.13	-27.93	-75.950	-51.744	74.970	-0.62228	0.69928	-0.03845	0.34949	30.9	13111	100
2025-3-27 18:48:6.224	WT901BLE68-01(48591DE3C19B)	-0.545	-1.556	0.286	33.569	-75.806	266.968	-87.93	1.67	-27.15	-75.950	-51.744	74.970	-0.62228	0.69928	-0.03845	0.34949	30.9	13111	100
2025-3-27 18:48:6.224	WT901BLE68-01(48591DE3C19B)	-0.521	-1.556	0.286	33.569	-75.806	266.968	-87.47	4.44	-26.35	-75.950	-51.744	74.970	-0.62228	0.69928	-0.03845	0.34949	30.9	13111	100
2025-3-27 18:48:6.225	WT901BLE68-01(48591DE3C19B)	-0.521	-1.715	0.231	48.462	-78.918	272.888	-86.82	7.23	-25.49	-75.950	-51.744	74.970	-0.62228	0.69928	-0.03845	0.34949	30.9	13111	100
2025-3-27 18:48:6.225	WT901BLE68-01(48591DE3C19B)	-0.494	-1.715	0.231	48.462	-78.918	272.888	-86.13	9.99	-24.60	-75.950	-51.744	74.970	-0.62228	0.69928	-0.03845	0.34949	30.9	13111	100
2025-3-27 18:48:6.255	WT901BLE68-01(48591DE3C19B)	-0.494	-1.751	0.172	65.125	-76.477	273.804	-85.23	12.73	-23.71	-75.950	-51.744	74.970	-0.62228	0.69928	-0.03845	0.34949	30.9	13111	100
2025-3-27 18:48:6.255	WT901BLE68-01(48591DE3C19B)	-0.468	-1.751	0.172	65.125	-76.477	273.804	-84.28	15.43	-22.77	-75.950	-51.744	74.970	-0.62228	0.69928	-0.03845	0.34949	30.9	13111	100
2025-3-27 18:48:6.255	WT901BLE68-01(48591DE3C19B)	-0.444	-1.711	0.130	75.439	-69.275	272.583	-83.20	18.09	-21.85	-75.950	-51.744	74.970	-0.62228	0.69928	-0.03845	0.34949	30.9	13111	100
2025-3-27 18:48:6.255	WT901BLE68-01(48591DE3C19B)	-0.444	-1.717	0.096	82.825	-56.396	266.968	-82.06	20.69	-20.95	-75.950	-51.744	74.970	-0.62228	0.69928	-0.03845	0.34949	30.9	13111	100
2025-3-27 18:48:6.317	WT901BLE68-01(48591DE3C19B)	-0.399	-1.717	0.096	82.825	-56.396	266.968	-80.85	23.24	-20.05	-75.950	-51.744	74.970	-0.62228	0.69928	-0.03845	0.34949	30.9	13111	100
2025-3-27 18:48:6.317	WT901BLE68-01(48591DE3C19B)	-0.399	-1.640	0.048	86.731	-38.940	261.353	-79.60	25.73	-19.18	-75.950	-51.744	74.970	-0.62228	0.69928	-0.03845	0.34949	30.9	13111	100
2025-3-27 18:48:6.318	WT901BLE68-01(48591DE3C19B)	-0.394	-1.640	0.048	86.731	-38.940	261.353	-78.32	28.17	-18.35	-75.950	-51.744	74.970	-0.62228	0.69928	-0.03845	0.34949	30.9	13111	100
2025-3-27 18:48:6.318	WT901BLE68-01(48591DE3C19B)	-0.394	-1.563	0.009	86.670	-22.156	256.592	-77.02	30.58	-17.53	-75.950	-51.744	74.970	-0.62228	0.69928	-0.03845	0.34949	30.9	13111	100
2025-3-27 18:48:6.347	WT901BLE68-01(48591DE3C19B)	-0.405	-1.563	0.009	86.670	-22.156	256.592	-75.72	32.95	-16.75	-75.950	-51.744	74.970	-0.62228	0.69928	-0.03845	0.34949	30.9	13111	100
2025-3-27 18:48:6.347	WT901BLE68-01(48591DE3C19B)	-0.405	-1.509	-0.001	80.688	-13.000	249.756	-74.42	35.27	-15.95	-75.950	-51.744	74.970	-0.62228	0.69928	-0.03845	0.34949	30.9	13111	100
2025-3-27 18:48:6.347	WT901BLE68-01(48591DE3C19B)	-0.418	-1.509	-0.001	80.688	-13.000	249.756	-73.11	37.53	-15.13	-75.950	-51.744	74.970	-0.62228	0.69928	-0.03845	0.34949	30.9	13111	100
2025-3-27 18:48:6.347	WT901BLE68-01(48591DE3C19B)	-0.418	-1.499	-0.010	73.608	-8.545	240.845	-71.79	39.73	-14.28	-75.950	-51.744	74.970	-0.78122	0.50702	-0.34720	-0.10944	30.9	13111	100
2025-3-27 18:48:6.377	WT901BLE68-01(48591DE3C19B)	-0.392	-1.499	-0.010	73.608	-8.545	240.845	-70.47	41.87	-13.39	-75.950	-51.744	74.970	-0.78122	0.50702	-0.34720	-0.10944	30.9	13111	100
2025-3-27 18:48:6.377	WT901BLE68-01(48591DE3C19B)	-0.392	-1.436	-0.020	68.665	-4.822	231.995	-69.11	43.94	-12.44	-75.950	-51.744	74.970	-0.78122	0.50702	-0.34720	-0.10944	30.9	13111	100
2025-3-27 18:48:6.377	WT901BLE68-01(48591DE3C19B)	-0.357	-1.436	-0.020	68.665	-4.822	231.995	-67.73	45.95	-11.45	-75.950	-51.744	74.970	-0.78122	0.50702	-0.34720	-0.10944	30.9	13111	100
2025-3-27 18:48:6.377	WT901BLE68-01(48591DE3C19B)	-0.357	-1.313	-0.028	61.646	-0.122	223.572	-66.32	47.89	-10.43	-75.950	-51.744	74.970	-0.78122	0.50702	-0.34720	-0.10944	30.9	13111	100
2025-3-27 18:48:6.435	WT901BLE68-01(48591DE3C19B)	-0.332	-1.313	-0.028	61.646	-0.122	223.572	-64.90	49.79	-9.35	-75.950	-51.744	74.970	-0.78122	0.50702	-0.34720	-0.10944	30.9	13111	100
2025-3-27 18:48:6.435	WT901BLE68-01(48591DE3C19B)	-0.332	-1.201	-0.038	52.307	6.165	215.271	-63.47	51.62	-8.23	-75.950	-51.744	74.970	-0.78122	0.50702	-0.34720	-0.10944	30.9	13111	100
2025-3-27 18:48:6.435	WT901BLE68-01(48591DE3C19B)	-0.315	-1.201	-0.038	52.307	6.165	215.271	-62.05	53.41	-7.09	-75.950	-51.744	74.970	-0.78122	0.50702	-0.34720	-0.10944	30.9	13111	100
2025-3-27 18:48:6.436	WT901BLE68-01(48591DE3C19B)	-0.315	-1.127	-0.048	40.283	11.169	205.627	-60.63	55.14	-5.91	-75.950	-51.744	74.970	-0.78122	0.50702	-0.34720	-0.10944	30.9	13111	100
2025-3-27 18:48:6.464	WT901BLE68-01(48591DE3C19B)	-0.322	-1.127	-0.048	40.283	11.169	205.627	-59.23	56.82	-4.69	-75.950	-51.744	74.970	-0.78122	0.50702	-0.34720	-0.10944	30.9	13111	100
2025-3-27 18:48:6.464	WT901BLE68-01(48591DE3C19B)	-0.322	-1.125	-0.029	28.381	10.742	193.604	-57.80	58.41	-3.41	-75.950	-51.744	74.970	-0.78122	0.50702	-0.34720	-0.10944	30.9	13111	100
2025-3-27 18:48:6.464	WT901BLE68-01(48591DE3C19B)	-0.307	-1.125	-0.029	28.381	10.742	193.604	-56.37	59.92	-2.05	-75.950	-51.744	74.970	-0.78122	0.50702	-0.34720	-0.10944	30.9	13111	100
2025-3-27 18:48:6.464	WT901BLE68-01(48591DE3C19B)	-0.307	-1.084	0.026	20.386	6.104	179.932	-54.87	61.35	-0.61	-75.950	-51.744	74.970	-0.78122	0.50702	-0.34720	-0.10944	30.9	13111	100
2025-3-27 18:48:6.495	WT901BLE68-01(48591DE3C19B)	-0.266	-1.084	0.026	20.386	6.104	179.932	-53.32	62.68	0.92	-75.950	-51.744	74.970	-0.78122	0.50702	-0.34720	-0.10944	30.9	13111	100
2025-3-27 18:48:6.495	WT901BLE68-01(48591DE3C19B)	-0.266	-0.994	0.074	13.977	0.000	166.199	-51.69	63.90	2.55	-75.950	-51.744	74.970	-0.78122	0.50702	-0.34720	-0.10944	30.9	13111	100
2025-3-27 18:48:6.495	WT901BLE68-01(48591DE3C19B)	-0.235	-0.994	0.074	13.977	0.000	166.199	-49.99	65.02	4.27	-75.950	-51.744	74.970	-0.78122	0.50702	-0.34720	-0.10944	30.9	13111	100
2025-3-27 18:48:6.495	WT901BLE68-01(48591DE3C19B)	-0.235	-0.888	0.104	6.104	-4.211	152.222	-48.25	66.06	6.07	-75.950	-51.744	74.970	-0.78122	0.50702	-0.34720	-0.10944	30.9	13111	100
2025-3-27 18:48:6.555	WT901BLE68-01(48591DE3C19B)	-0.239	-0.888	0.104	6.104	-4.211	152.222	-46.47	66.99	7.92	-75.950	-51.744	74.970	-0.78122	0.50702	-0.34720	-0.10944	30.9	13111	100
2025-3-27 18:48:6.555	WT901BLE68-01(48591DE3C19B)	-0.239	-0.824	0.138	-5.615	-14.465	134.094	-44.69	67.79	9.83	-75.950	-51.744	74.970	-0.78122	0.50702	-0.34720	-0.10944	30.9	13111	100
2025-3-27 18:48:6.556	WT901BLE68-01(48591DE3C19B)	-0.240	-0.824	0.138	-5.615	-14.465	134.094	-42.91	68.47	11.79	-75.950	-51.744	74.970	-0.78122	0.50702	-0.34720	-0.10944	30.9	13111	100
2025-3-27 18:48:6.556	WT901BLE68-01(48591DE3C19B)	-0.240	-0.859	0.160	-16.602	-27.100	109.314	-41.21	68.99	13.71	-75.950	-51.744	74.970	-0.78122	0.50702	-0.34720	-0.10944	30.9	13111	100
2025-3-27 18:48:6.584	WT901BLE68-01(48591DE3C19B)	-0.228	-0.859	0.160	-16.602	-27.100	109.314	-39.63	69.36	15.54	-72.030	-19.600	52.528	-0.78122	0.50702	-0.34720	-0.10944	30.9	13111	100
2025-3-27 18:48:6.584	WT901BLE68-01(48591DE3C19B)	-0.228	-0.881	0.195	-22.705	-39.429	81.787	-38.21	69.58	17.22	-72.030	-19.600	52.528	-0.78122	0.50702	-0.34720	-0.10944	30.9	13111	100
2025-3-27 18:48:6.584	WT901BLE68-01(48591DE3C19B)	-0.204	-0.881	0.195	-22.705	-39.429	81.787	-37.00	69.64	18.72	-72.030	-19.600	52.528	-0.78122	0.50702	-0.34720	-0.10944	30.9	13111	100
2025-3-27 18:48:6.584	WT901BLE68-01(48591DE3C19B)	-0.204	-0.871	0.228	-28.198	-46.143	53.955	-36.06	69.59	19.94	-72.030	-19.600	52.528	-0.78122	0.50702	-0.34720	-0.10944	30.9	13111	100
2025-3-27 18:48:6.615	WT901BLE68-01(48591DE3C19B)	-0.150	-0.871	0.228	-28.198	-46.143	53.955	-35.40	69.42	20.89	-72.030	-19.600	52.528	-0.78122	0.50702	-0.34720	-0.10944	30.9	13111	100
2025-3-27 18:48:6.616	WT901BLE68-01(48591DE3C19B)	-0.150	-0.830	0.259	-31.799	-39.551	24.475	-35.16	69.18	21.41	-72.030	-19.600	52.528	-0.78122	0.50702	-0.34720	-0.10944	30.9	13111	100
2025-3-27 18:48:6.616	WT901BLE68-01(48591DE3C19B)	-0.146	-0.830	0.259	-31.799	-39.551	24.475	-35.29	68.89	21.54	-72.030	-19.600	52.528	-0.78122	0.50702	-0.34720	-0.10944	30.9	13111	100
2025-3-27 18:48:6.616	WT901BLE68-01(48591DE3C19B)	-0.146	-0.759	0.288	-36.072	-26.672	-2.930	-35.84	68.57	21.25	-72.030	-19.600	52.528	-0.78122	0.50702	-0.34720	-0.10944	30.9	13111	100
2025-3-27 18:48:6.675	WT901BLE68-01(48591DE3C19B)	-0.126	-0.759	0.288	-36.072	-26.672	-2.930	-36.75	68.22	20.58	-72.030	-19.600	52.528	-0.78122	0.50702	-0.34720	-0.10944	30.9	13111	100
2025-3-27 18:48:6.675	WT901BLE68-01(48591DE3C19B)	-0.126	-0.731	0.259	-40.527	-8.606	-31.555	-38.08	67.85	19.48	-72.030	-19.600	52.528	-0.78122	0.50702	-0.34720	-0.10944	30.9	13111	100
2025-3-27 18:48:6.675	WT901BLE68-01(48591DE3C19B)	-0.092	-0.731	0.259	-40.527	-8.606	-31.555	-39.78	67.45	18.00	-72.030	-19.600	52.528	-0.78122	0.50702	-0.34720	-0.10944	30.9	13111	100
2025-3-27 18:48:6.675	WT901BLE68-01(48591DE3C19B)	-0.092	-0.694	0.185	-44.312	19.531	-63.660	-41.95	67.03	16.02	-72.030	-19.600	52.528	-0.78122	0.50702	-0.34720	-0.10944	30.9	13111	100
2025-3-27 18:48:6.706	WT901BLE68-01(48591DE3C19B)	-0.173	-0.694	0.185	-44.312	19.531	-63.660	-44.54	66.58	13.58	-72.030	-19.600	52.528	-0.78122	0.50702	-0.34720	-0.10944	30.9	13111	100
2025-3-27 18:48:6.706	WT901BLE68-01(48591DE3C19B)	-0.173	-0.724	0.191	-50.842	41.931	-102.051	-47.54	66.02	10.73	-72.030	-19.600	52.528	-0.78122	0.50702	-0.34720	-0.10944	30.9	13111	100
2025-3-27 18:48:6.706	WT901BLE68-01(48591DE3C19B)	-0.323	-0.724	0.191	-50.842	41.931	-102.051	-50.87	65.33	7.53	-72.030	-19.600	52.528	-0.78122	0.50702	-0.34720	-0.10944	30.9	13111	100
2025-3-27 18:48:6.706	WT901BLE68-01(48591DE3C19B)	-0.323	-0.884	0.307	-57.556	47.180	-144.592	-54.34	64.42	4.19	-72.030	-19.600	52.528	-0.78122	0.50702	-0.34720	-0.10944	30.9	13111	100
2025-3-27 18:48:6.737	WT901BLE68-01(48591DE3C19B)	-0.471	-0.884	0.307	-57.556	47.180	-144.592	-57.85	63.28	0.80	-72.030	-19.600	52.528	-0.78122	0.50702	-0.34720	-0.10944	30.9	13111	100
2025-3-27 18:48:6.737	WT901BLE68-01(48591DE3C19B)	-0.471	-1.040	0.415	-59.631	37.903	-184.448	-61.28	61.66	-2.51	-72.030	-19.600	52.528	-0.78122	0.50702	-0.34720	-0.10944	30.9	13111	100
2025-3-27 18:48:6.737	WT901BLE68-01(48591DE3C19B)	-0.545	-1.040	0.415	-59.631	37.903	-184.448	-64.31	59.97	-5.44	-72.030	-19.600	52.528	-0.74503	0.44034	-0.44455	-0.23090	30.9	13111	100
2025-3-27 18:48:6.737	WT901BLE68-01(48591DE3C19B)	-0.545	-1.149	0.456	-59.204	24.780	-217.285	-67.02	57.89	-8.06	-72.030	-19.600	52.528	-0.74503	0.44034	-0.44455	-0.23090	30.9	13111	100
