time	DeviceName	AccX(g)	AccY(g)	AccZ(g)	AsX(°/s)	AsY(°/s)	AsZ(°/s)	AngleX(°)	AngleY(°)	AngleZ(°)	HX(uT)	HY(uT)	HZ(uT)	Q0()	Q1()	Q2()	Q3()	Temperature(°C)	Version()	Battery level(%)
2025-3-27 18:51:47.331	WT901BLE68-01(48591DE3C19B)	-0.200	-0.941	0.253	3.052	2.014	2.319	-73.15	11.87	-114.14	-81.242	-50.274	-3.234	-0.47711	0.28015	-0.53955	0.63455	30.8	13111	100
2025-3-27 18:51:47.331	WT901BLE68-01(48591DE3C19B)	-0.200	-0.934	0.258	2.686	0.427	2.502	-73.13	11.89	-114.07	-81.242	-50.274	-3.234	-0.47711	0.28015	-0.53955	0.63455	30.8	13111	100
2025-3-27 18:51:47.331	WT901BLE68-01(48591DE3C19B)	-0.212	-0.934	0.258	2.686	0.427	2.502	-73.11	11.90	-113.99	-81.242	-50.274	-3.234	-0.47711	0.28015	-0.53955	0.63455	30.8	13111	100
2025-3-27 18:51:47.331	WT901BLE68-01(48591DE3C19B)	-0.212	-0.945	0.264	2.014	0.183	3.174	-73.10	11.92	-113.92	-81.242	-50.274	-3.234	-0.47711	0.28015	-0.53955	0.63455	30.8	13111	100
2025-3-27 18:51:47.332	WT901BLE68-01(48591DE3C19B)	-0.229	-0.945	0.264	2.014	0.183	3.174	-73.08	11.94	-113.85	-81.242	-50.274	-3.234	-0.47711	0.28015	-0.53955	0.63455	30.8	13111	100
2025-3-27 18:51:47.332	WT901BLE68-01(48591DE3C19B)	-0.229	-0.963	0.268	2.625	0.732	4.272	-73.06	11.98	-113.78	-81.242	-50.274	-3.234	-0.47711	0.28015	-0.53955	0.63455	30.8	13111	100
2025-3-27 18:51:47.332	WT901BLE68-01(48591DE3C19B)	-0.242	-0.963	0.268	2.625	0.732	4.272	-73.04	12.01	-113.71	-81.242	-50.274	-3.234	-0.47711	0.28015	-0.53955	0.63455	30.8	13111	100
2025-3-27 18:51:47.332	WT901BLE68-01(48591DE3C19B)	-0.242	-0.963	0.267	3.479	0.854	5.615	-73.02	12.06	-113.64	-81.242	-50.274	-3.234	-0.47711	0.28015	-0.53955	0.63455	30.8	13111	100
2025-3-27 18:51:47.391	WT901BLE68-01(48591DE3C19B)	-0.245	-0.963	0.267	3.479	0.854	5.615	-72.99	12.12	-113.57	-81.242	-50.274	-3.234	-0.47711	0.28015	-0.53955	0.63455	30.8	13111	100
2025-3-27 18:51:47.392	WT901BLE68-01(48591DE3C19B)	-0.245	-0.958	0.268	3.906	0.732	6.714	-72.96	12.18	-113.49	-81.242	-50.274	-3.234	-0.47711	0.28015	-0.53955	0.63455	30.8	13111	100
2025-3-27 18:51:47.392	WT901BLE68-01(48591DE3C19B)	-0.250	-0.958	0.268	3.906	0.732	6.714	-72.93	12.24	-113.42	-81.242	-50.274	-3.234	-0.47711	0.28015	-0.53955	0.63455	30.8	13111	100
2025-3-27 18:51:47.392	WT901BLE68-01(48591DE3C19B)	-0.250	-0.955	0.274	4.333	0.916	7.935	-72.89	12.32	-113.35	-81.242	-50.274	-3.234	-0.47711	0.28015	-0.53955	0.63455	30.8	13111	100
2025-3-27 18:51:47.420	WT901BLE68-01(48591DE3C19B)	-0.253	-0.955	0.274	4.333	0.916	7.935	-72.85	12.40	-113.27	-81.242	-50.274	-3.234	-0.47711	0.28015	-0.53955	0.63455	30.8	13111	100
2025-3-27 18:51:47.420	WT901BLE68-01(48591DE3C19B)	-0.253	-0.938	0.285	4.456	0.732	9.216	-72.81	12.49	-113.20	-81.242	-50.274	-3.234	-0.49472	0.25150	-0.54068	0.63211	30.8	13111	100
2025-3-27 18:51:47.420	WT901BLE68-01(48591DE3C19B)	-0.251	-0.938	0.285	4.456	0.732	9.216	-72.77	12.58	-113.12	-81.242	-50.274	-3.234	-0.49472	0.25150	-0.54068	0.63211	30.8	13111	100
2025-3-27 18:51:47.420	WT901BLE68-01(48591DE3C19B)	-0.251	-0.931	0.292	3.845	0.977	10.193	-72.73	12.68	-113.04	-81.242	-50.274	-3.234	-0.49472	0.25150	-0.54068	0.63211	30.8	13111	100
2025-3-27 18:51:47.452	WT901BLE68-01(48591DE3C19B)	-0.248	-0.931	0.292	3.845	0.977	10.193	-72.70	12.78	-112.97	-81.242	-50.274	-3.234	-0.49472	0.25150	-0.54068	0.63211	30.8	13111	100
2025-3-27 18:51:47.452	WT901BLE68-01(48591DE3C19B)	-0.248	-0.935	0.292	3.784	2.441	10.376	-72.67	12.89	-112.91	-81.242	-50.274	-3.234	-0.49472	0.25150	-0.54068	0.63211	30.8	13111	100
2025-3-27 18:51:47.452	WT901BLE68-01(48591DE3C19B)	-0.246	-0.935	0.292	3.784	2.441	10.376	-72.64	13.00	-112.85	-81.242	-50.274	-3.234	-0.49472	0.25150	-0.54068	0.63211	30.8	13111	100
2025-3-27 18:51:47.452	WT901BLE68-01(48591DE3C19B)	-0.246	-0.936	0.288	4.333	4.761	9.460	-72.60	13.10	-112.81	-81.242	-50.274	-3.234	-0.49472	0.25150	-0.54068	0.63211	30.8	13111	100
2025-3-27 18:51:47.542	WT901BLE68-01(48591DE3C19B)	-0.248	-0.936	0.288	4.333	4.761	9.460	-72.57	13.21	-112.78	-81.242	-50.274	-3.234	-0.49472	0.25150	-0.54068	0.63211	30.8	13111	100
2025-3-27 18:51:47.542	WT901BLE68-01(48591DE3C19B)	-0.248	-0.921	0.287	5.188	6.653	7.813	-72.53	13.30	-112.77	-81.242	-50.274	-3.234	-0.49472	0.25150	-0.54068	0.63211	30.8	13111	100
2025-3-27 18:51:47.542	WT901BLE68-01(48591DE3C19B)	-0.252	-0.921	0.287	5.188	6.653	7.813	-72.49	13.40	-112.76	-81.242	-50.274	-3.234	-0.49472	0.25150	-0.54068	0.63211	30.8	13111	100
2025-3-27 18:51:47.542	WT901BLE68-01(48591DE3C19B)	-0.252	-0.908	0.286	5.432	7.385	5.432	-72.46	13.47	-112.77	-81.242	-50.274	-3.234	-0.49472	0.25150	-0.54068	0.63211	30.8	13111	100
2025-3-27 18:51:47.544	WT901BLE68-01(48591DE3C19B)	-0.256	-0.908	0.286	5.432	7.385	5.432	-72.42	13.55	-112.77	-81.242	-50.274	-3.234	-0.49472	0.25150	-0.54068	0.63211	30.8	13111	100
2025-3-27 18:51:47.544	WT901BLE68-01(48591DE3C19B)	-0.256	-0.907	0.294	5.981	7.324	2.686	-72.38	13.60	-112.79	-81.242	-50.274	-3.234	-0.49472	0.25150	-0.54068	0.63211	30.8	13111	100
2025-3-27 18:51:47.544	WT901BLE68-01(48591DE3C19B)	-0.258	-0.907	0.294	5.981	7.324	2.686	-72.34	13.65	-112.81	-81.242	-50.274	-3.234	-0.49472	0.25150	-0.54068	0.63211	30.8	13111	100
2025-3-27 18:51:47.544	WT901BLE68-01(48591DE3C19B)	-0.258	-0.899	0.310	7.263	6.897	0.549	-72.28	13.68	-112.82	-81.242	-50.274	-3.234	-0.49472	0.25150	-0.54068	0.63211	30.8	13111	100
2025-3-27 18:51:47.573	WT901BLE68-01(48591DE3C19B)	-0.257	-0.899	0.310	7.263	6.897	0.549	-72.24	13.71	-112.85	-81.242	-50.274	-3.234	-0.49472	0.25150	-0.54068	0.63211	30.8	13111	100
2025-3-27 18:51:47.573	WT901BLE68-01(48591DE3C19B)	-0.257	-0.886	0.304	8.667	6.104	-0.366	-72.16	13.73	-112.86	-81.242	-50.274	-3.234	-0.49472	0.25150	-0.54068	0.63211	30.8	13111	100
2025-3-27 18:51:47.574	WT901BLE68-01(48591DE3C19B)	-0.241	-0.886	0.304	8.667	6.104	-0.366	-72.09	13.74	-112.88	-81.242	-50.274	-3.234	-0.49472	0.25150	-0.54068	0.63211	30.8	13111	100
2025-3-27 18:51:47.574	WT901BLE68-01(48591DE3C19B)	-0.231	-0.863	0.285	10.193	7.629	-0.061	-72.01	13.77	-112.91	-81.242	-50.274	-3.234	-0.49472	0.25150	-0.54068	0.63211	30.8	13111	100
2025-3-27 18:51:47.603	WT901BLE68-01(48591DE3C19B)	-0.231	-0.854	0.260	10.681	10.437	0.854	-71.93	13.81	-112.95	-81.242	-50.274	-3.234	-0.49472	0.25150	-0.54068	0.63211	30.8	13111	100
2025-3-27 18:51:47.603	WT901BLE68-01(48591DE3C19B)	-0.230	-0.854	0.260	10.681	10.437	0.854	-71.85	13.85	-113.01	-81.242	-50.274	-3.234	-0.49472	0.25150	-0.54068	0.63211	30.8	13111	100
2025-3-27 18:51:47.603	WT901BLE68-01(48591DE3C19B)	-0.230	-0.874	0.240	10.071	11.475	1.892	-71.77	13.90	-113.06	-80.948	-50.764	-3.234	-0.49472	0.25150	-0.54068	0.63211	30.8	13111	100
2025-3-27 18:51:47.603	WT901BLE68-01(48591DE3C19B)	-0.221	-0.874	0.240	10.071	11.475	1.892	-71.70	13.96	-113.12	-80.948	-50.764	-3.234	-0.49472	0.25150	-0.54068	0.63211	30.8	13111	100
2025-3-27 18:51:47.661	WT901BLE68-01(48591DE3C19B)	-0.221	-0.912	0.235	9.644	11.475	1.892	-71.64	14.02	-113.18	-80.948	-50.764	-3.234	-0.49472	0.25150	-0.54068	0.63211	30.8	13111	100
2025-3-27 18:51:47.662	WT901BLE68-01(48591DE3C19B)	-0.196	-0.912	0.235	9.644	11.475	1.892	-71.58	14.07	-113.24	-80.948	-50.764	-3.234	-0.49472	0.25150	-0.54068	0.63211	30.8	13111	100
2025-3-27 18:51:47.662	WT901BLE68-01(48591DE3C19B)	-0.196	-0.957	0.238	8.972	12.573	0.427	-71.52	14.12	-113.30	-80.948	-50.764	-3.234	-0.49472	0.25150	-0.54068	0.63211	30.8	13111	100
2025-3-27 18:51:47.662	WT901BLE68-01(48591DE3C19B)	-0.144	-0.957	0.238	8.972	12.573	0.427	-71.48	14.16	-113.37	-80.948	-50.764	-3.234	-0.49472	0.25150	-0.54068	0.63211	30.8	13111	100
2025-3-27 18:51:47.721	WT901BLE68-01(48591DE3C19B)	-0.144	-0.998	0.225	9.094	16.663	-3.296	-71.44	14.19	-113.46	-80.948	-50.764	-3.234	-0.49472	0.25150	-0.54068	0.63211	30.8	13111	100
2025-3-27 18:51:47.721	WT901BLE68-01(48591DE3C19B)	-0.079	-0.998	0.225	9.094	16.663	-3.296	-71.41	14.20	-113.58	-80.948	-50.764	-3.234	-0.49472	0.25150	-0.54068	0.63211	30.8	13111	100
2025-3-27 18:51:47.721	WT901BLE68-01(48591DE3C19B)	-0.079	-1.003	0.213	9.705	25.330	-7.935	-71.38	14.21	-113.75	-80.948	-50.764	-3.234	-0.49472	0.25150	-0.54068	0.63211	30.8	13111	100
2025-3-27 18:51:47.721	WT901BLE68-01(48591DE3C19B)	-0.028	-1.003	0.213	9.705	25.330	-7.935	-71.37	14.19	-113.96	-80.948	-50.764	-3.234	-0.49472	0.25150	-0.54068	0.63211	30.8	13111	100
2025-3-27 18:51:47.722	WT901BLE68-01(48591DE3C19B)	-0.028	-0.996	0.202	8.728	36.438	-13.550	-71.39	14.17	-114.23	-80.948	-50.764	-3.234	-0.49472	0.25150	-0.54068	0.63211	30.8	13111	100
2025-3-27 18:51:47.722	WT901BLE68-01(48591DE3C19B)	0.064	-0.996	0.202	8.728	36.438	-13.550	-71.42	14.12	-114.56	-80.948	-50.764	-3.234	-0.49472	0.25150	-0.54068	0.63211	30.8	13111	100
2025-3-27 18:51:47.723	WT901BLE68-01(48591DE3C19B)	0.064	-0.999	0.186	5.493	47.302	-21.118	-71.49	14.06	-114.96	-80.948	-50.764	-3.234	-0.49472	0.25150	-0.54068	0.63211	30.8	13111	100
2025-3-27 18:51:47.723	WT901BLE68-01(48591DE3C19B)	0.085	-0.999	0.186	5.493	47.302	-21.118	-71.58	13.97	-115.41	-80.948	-50.764	-3.234	-0.49472	0.25150	-0.54068	0.63211	30.8	13111	100
2025-3-27 18:51:47.784	WT901BLE68-01(48591DE3C19B)	0.085	-1.016	0.211	5.981	57.556	-27.466	-71.69	13.85	-115.92	-80.948	-50.764	-3.234	-0.49472	0.25150	-0.54068	0.63211	30.8	13111	100
2025-3-27 18:51:47.784	WT901BLE68-01(48591DE3C19B)	0.085	-1.016	0.211	5.981	57.556	-27.466	-71.81	13.72	-116.49	-80.948	-50.764	-3.234	-0.49472	0.25150	-0.54068	0.63211	30.8	13111	100
2025-3-27 18:51:47.784	WT901BLE68-01(48591DE3C19B)	0.085	-1.017	0.222	6.958	61.584	-35.400	-71.93	13.55	-117.08	-80.948	-50.764	-3.234	-0.49472	0.25150	-0.54068	0.63211	30.8	13111	100
2025-3-27 18:51:47.784	WT901BLE68-01(48591DE3C19B)	0.091	-1.017	0.222	6.958	61.584	-35.400	-72.05	13.34	-117.71	-80.948	-50.764	-3.234	-0.49472	0.25150	-0.54068	0.63211	30.8	13111	100
2025-3-27 18:51:47.813	WT901BLE68-01(48591DE3C19B)	0.091	-1.055	0.228	7.568	60.791	-43.762	-72.16	13.08	-118.33	-80.948	-50.764	-3.234	-0.49472	0.25150	-0.54068	0.63211	30.8	13111	100
2025-3-27 18:51:47.813	WT901BLE68-01(48591DE3C19B)	0.054	-1.055	0.228	7.568	60.791	-43.762	-72.27	12.78	-118.97	-80.948	-50.764	-3.234	-0.49472	0.25150	-0.54068	0.63211	30.8	13111	100
2025-3-27 18:51:47.813	WT901BLE68-01(48591DE3C19B)	0.054	-1.128	0.213	9.338	59.570	-52.612	-72.37	12.44	-119.60	-80.948	-50.764	-3.234	-0.49472	0.25150	-0.54068	0.63211	30.8	13111	100
2025-3-27 18:51:47.814	WT901BLE68-01(48591DE3C19B)	0.018	-1.128	0.213	9.338	59.570	-52.612	-72.45	12.04	-120.24	-80.948	-50.764	-3.234	-0.45065	0.21924	-0.55200	0.66635	30.8	13111	100
2025-3-27 18:51:47.843	WT901BLE68-01(48591DE3C19B)	0.018	-1.111	0.215	14.038	50.964	-60.242	-72.50	11.60	-120.84	-80.948	-50.764	-3.234	-0.45065	0.21924	-0.55200	0.66635	30.8	13111	100
2025-3-27 18:51:47.843	WT901BLE68-01(48591DE3C19B)	0.000	-1.111	0.215	14.038	50.964	-60.242	-72.52	11.11	-121.42	-80.948	-50.764	-3.234	-0.45065	0.21924	-0.55200	0.66635	30.8	13111	100
2025-3-27 18:51:47.844	WT901BLE68-01(48591DE3C19B)	0.000	-1.063	0.229	10.559	37.476	-67.932	-72.53	10.56	-121.93	-80.948	-50.764	-3.234	-0.45065	0.21924	-0.55200	0.66635	30.8	13111	100
2025-3-27 18:51:47.844	WT901BLE68-01(48591DE3C19B)	-0.059	-1.063	0.229	10.559	37.476	-67.932	-72.55	9.96	-122.38	-80.948	-50.764	-3.234	-0.45065	0.21924	-0.55200	0.66635	30.8	13111	100
2025-3-27 18:51:47.931	WT901BLE68-01(48591DE3C19B)	-0.059	-1.128	0.280	3.662	18.738	-75.989	-72.59	9.30	-122.76	-80.948	-50.764	-3.234	-0.45065	0.21924	-0.55200	0.66635	30.8	13111	100
2025-3-27 18:51:47.932	WT901BLE68-01(48591DE3C19B)	-0.154	-1.128	0.280	3.662	18.738	-75.989	-72.63	8.57	-123.05	-80.948	-50.764	-3.234	-0.45065	0.21924	-0.55200	0.66635	30.8	13111	100
2025-3-27 18:51:47.932	WT901BLE68-01(48591DE3C19B)	-0.154	-1.164	0.362	2.441	-6.897	-83.008	-72.66	7.79	-123.23	-80.948	-50.764	-3.234	-0.45065	0.21924	-0.55200	0.66635	30.8	13111	100
2025-3-27 18:51:47.932	WT901BLE68-01(48591DE3C19B)	-0.215	-1.164	0.362	2.441	-6.897	-83.008	-72.69	6.94	-123.31	-80.948	-50.764	-3.234	-0.45065	0.21924	-0.55200	0.66635	30.8	13111	100
2025-3-27 18:51:47.933	WT901BLE68-01(48591DE3C19B)	-0.215	-1.103	0.413	2.136	-35.706	-88.928	-72.69	6.03	-123.25	-80.948	-50.764	-3.234	-0.45065	0.21924	-0.55200	0.66635	30.8	13111	100
2025-3-27 18:51:47.933	WT901BLE68-01(48591DE3C19B)	-0.207	-1.103	0.413	2.136	-35.706	-88.928	-72.67	5.06	-123.07	-80.948	-50.764	-3.234	-0.45065	0.21924	-0.55200	0.66635	30.8	13111	100
2025-3-27 18:51:47.933	WT901BLE68-01(48591DE3C19B)	-0.207	-1.004	0.412	1.953	-52.124	-93.140	-72.65	4.05	-122.83	-80.948	-50.764	-3.234	-0.45065	0.21924	-0.55200	0.66635	30.8	13111	100
2025-3-27 18:51:47.933	WT901BLE68-01(48591DE3C19B)	-0.169	-1.004	0.412	1.953	-52.124	-93.140	-72.63	3.02	-122.52	-80.948	-50.764	-3.234	-0.45065	0.21924	-0.55200	0.66635	30.8	13111	100
2025-3-27 18:51:47.963	WT901BLE68-01(48591DE3C19B)	-0.169	-0.896	0.372	0.305	-49.866	-95.032	-72.62	1.98	-122.23	-80.948	-50.764	-3.234	-0.45065	0.21924	-0.55200	0.66635	30.8	13111	100
2025-3-27 18:51:47.963	WT901BLE68-01(48591DE3C19B)	-0.157	-0.896	0.372	0.305	-49.866	-95.032	-72.62	0.95	-121.96	-80.948	-50.764	-3.234	-0.45065	0.21924	-0.55200	0.66635	30.8	13111	100
2025-3-27 18:51:47.963	WT901BLE68-01(48591DE3C19B)	-0.157	-0.848	0.331	-1.709	-35.950	-96.313	-72.63	-0.05	-121.76	-80.948	-50.764	-3.234	-0.45065	0.21924	-0.55200	0.66635	30.8	13111	100
2025-3-27 18:51:47.963	WT901BLE68-01(48591DE3C19B)	-0.178	-0.848	0.331	-1.709	-35.950	-96.313	-72.65	-1.04	-121.64	-80.948	-50.764	-3.234	-0.45065	0.21924	-0.55200	0.66635	30.8	13111	100
2025-3-27 18:51:48.82	WT901BLE68-01(48591DE3C19B)	-0.178	-0.853	0.320	-2.991	-23.987	-96.252	-72.67	-1.99	-121.57	-80.948	-50.764	-3.234	-0.45065	0.21924	-0.55200	0.66635	30.8	13111	100
2025-3-27 18:51:48.82	WT901BLE68-01(48591DE3C19B)	-0.187	-0.853	0.320	-2.991	-23.987	-96.252	-72.70	-2.93	-121.56	-80.948	-50.764	-3.234	-0.45065	0.21924	-0.55200	0.66635	30.8	13111	100
2025-3-27 18:51:48.83	WT901BLE68-01(48591DE3C19B)	-0.187	-0.865	0.330	-3.052	-16.235	-93.445	-72.72	-3.82	-121.59	-80.948	-50.764	-3.234	-0.45065	0.21924	-0.55200	0.66635	30.8	13111	100
2025-3-27 18:51:48.83	WT901BLE68-01(48591DE3C19B)	-0.202	-0.865	0.330	-3.052	-16.235	-93.445	-72.75	-4.69	-121.65	-80.948	-50.764	-3.234	-0.45065	0.21924	-0.55200	0.66635	30.8	13111	100
2025-3-27 18:51:48.83	WT901BLE68-01(48591DE3C19B)	-0.202	-0.863	0.350	-2.747	-7.202	-88.867	-72.76	-5.52	-121.76	-66.836	-57.526	-5.586	-0.45065	0.21924	-0.55200	0.66635	30.8	13111	100
2025-3-27 18:51:48.83	WT901BLE68-01(48591DE3C19B)	-0.250	-0.863	0.350	-2.747	-7.202	-88.867	-72.76	-6.30	-121.89	-66.836	-57.526	-5.586	-0.45065	0.21924	-0.55200	0.66635	30.8	13111	100
2025-3-27 18:51:48.83	WT901BLE68-01(48591DE3C19B)	-0.250	-0.869	0.366	-1.282	2.930	-83.618	-72.73	-6.99	-122.12	-66.836	-57.526	-5.586	-0.45065	0.21924	-0.55200	0.66635	30.8	13111	100
2025-3-27 18:51:48.84	WT901BLE68-01(48591DE3C19B)	-0.316	-0.869	0.366	-1.282	2.930	-83.618	-72.70	-7.68	-122.35	-66.836	-57.526	-5.586	-0.45065	0.21924	-0.55200	0.66635	30.8	13111	100
2025-3-27 18:51:48.141	WT901BLE68-01(48591DE3C19B)	-0.316	-0.871	0.371	1.221	7.263	-77.881	-72.64	-8.29	-122.61	-66.836	-57.526	-5.586	-0.45065	0.21924	-0.55200	0.66635	30.8	13111	100
2025-3-27 18:51:48.142	WT901BLE68-01(48591DE3C19B)	-0.337	-0.871	0.371	1.221	7.263	-77.881	-72.57	-8.89	-122.88	-66.836	-57.526	-5.586	-0.45065	0.21924	-0.55200	0.66635	30.8	13111	100
2025-3-27 18:51:48.142	WT901BLE68-01(48591DE3C19B)	-0.337	-0.853	0.379	3.662	6.714	-70.923	-72.48	-9.42	-123.12	-66.836	-57.526	-5.586	-0.45065	0.21924	-0.55200	0.66635	30.8	13111	100
2025-3-27 18:51:48.142	WT901BLE68-01(48591DE3C19B)	-0.342	-0.853	0.379	3.662	6.714	-70.923	-72.38	-9.94	-123.37	-66.836	-57.526	-5.586	-0.45065	0.21924	-0.55200	0.66635	30.8	13111	100
2025-3-27 18:51:48.143	WT901BLE68-01(48591DE3C19B)	-0.342	-0.841	0.395	4.639	8.240	-61.096	-72.27	-10.35	-123.61	-66.836	-57.526	-5.586	-0.45065	0.21924	-0.55200	0.66635	30.8	13111	100
2025-3-27 18:51:48.143	WT901BLE68-01(48591DE3C19B)	-0.392	-0.841	0.395	4.639	8.240	-61.096	-72.16	-10.76	-123.85	-66.836	-57.526	-5.586	-0.45065	0.21924	-0.55200	0.66635	30.8	13111	100
2025-3-27 18:51:48.143	WT901BLE68-01(48591DE3C19B)	-0.392	-0.844	0.397	4.761	10.925	-48.523	-72.04	-11.04	-124.09	-66.836	-57.526	-5.586	-0.45065	0.21924	-0.55200	0.66635	30.8	13111	100
2025-3-27 18:51:48.143	WT901BLE68-01(48591DE3C19B)	-0.408	-0.844	0.397	4.761	10.925	-48.523	-71.92	-11.30	-124.34	-66.836	-57.526	-5.586	-0.45065	0.21924	-0.55200	0.66635	30.8	13111	100
2025-3-27 18:51:48.173	WT901BLE68-01(48591DE3C19B)	-0.408	-0.849	0.379	4.822	11.658	-33.081	-71.81	-11.41	-124.55	-66.836	-57.526	-5.586	-0.45065	0.21924	-0.55200	0.66635	30.8	13111	100
2025-3-27 18:51:48.173	WT901BLE68-01(48591DE3C19B)	-0.400	-0.849	0.379	4.822	11.658	-33.081	-71.69	-11.52	-124.76	-66.836	-57.526	-5.586	-0.45065	0.21924	-0.55200	0.66635	30.8	13111	100
2025-3-27 18:51:48.173	WT901BLE68-01(48591DE3C19B)	-0.400	-0.855	0.343	4.028	14.404	-15.625	-71.59	-11.45	-124.95	-66.836	-57.526	-5.586	-0.45065	0.21924	-0.55200	0.66635	30.8	13111	100
2025-3-27 18:51:48.173	WT901BLE68-01(48591DE3C19B)	-0.417	-0.855	0.343	4.028	14.404	-15.625	-71.49	-11.38	-125.13	-66.836	-57.526	-5.586	-0.45065	0.21924	-0.55200	0.66635	30.8	13111	100
2025-3-27 18:51:48.232	WT901BLE68-01(48591DE3C19B)	-0.417	-0.947	0.342	-0.488	14.343	2.747	-71.44	-11.12	-125.26	-66.836	-57.526	-5.586	-0.45065	0.21924	-0.55200	0.66635	30.8	13111	100
2025-3-27 18:51:48.232	WT901BLE68-01(48591DE3C19B)	-0.479	-0.947	0.342	-0.488	14.343	2.747	-71.41	-10.88	-125.39	-66.836	-57.526	-5.586	-0.45065	0.21924	-0.55200	0.66635	30.8	13111	100
2025-3-27 18:51:48.232	WT901BLE68-01(48591DE3C19B)	-0.479	-1.160	0.385	-4.822	9.827	21.545	-71.43	-10.46	-125.41	-66.836	-57.526	-5.586	-0.32339	0.33231	-0.48267	0.74289	30.8	13111	100
2025-3-27 18:51:48.232	WT901BLE68-01(48591DE3C19B)	-0.521	-1.160	0.385	-4.822	9.827	21.545	-71.46	-10.05	-125.44	-66.836	-57.526	-5.586	-0.32339	0.33231	-0.48267	0.74289	30.8	13111	100
2025-3-27 18:51:48.321	WT901BLE68-01(48591DE3C19B)	-0.521	-1.369	0.410	-5.249	4.333	38.452	-71.52	-9.49	-125.35	-66.836	-57.526	-5.586	-0.32339	0.33231	-0.48267	0.74289	30.8	13111	100
2025-3-27 18:51:48.321	WT901BLE68-01(48591DE3C19B)	-0.487	-1.369	0.410	-5.249	4.333	38.452	-71.58	-8.94	-125.26	-66.836	-57.526	-5.586	-0.32339	0.33231	-0.48267	0.74289	30.8	13111	100
2025-3-27 18:51:48.321	WT901BLE68-01(48591DE3C19B)	-0.487	-1.489	0.388	-5.493	2.014	54.321	-71.65	-8.26	-125.09	-66.836	-57.526	-5.586	-0.32339	0.33231	-0.48267	0.74289	30.8	13111	100
2025-3-27 18:51:48.321	WT901BLE68-01(48591DE3C19B)	-0.448	-1.489	0.388	-5.493	2.014	54.321	-71.72	-7.57	-124.92	-66.836	-57.526	-5.586	-0.32339	0.33231	-0.48267	0.74289	30.8	13111	100
2025-3-27 18:51:48.322	WT901BLE68-01(48591DE3C19B)	-0.448	-1.531	0.379	-8.789	3.845	68.420	-71.84	-6.75	-124.71	-66.836	-57.526	-5.586	-0.32339	0.33231	-0.48267	0.74289	30.8	13111	100
2025-3-27 18:51:48.322	WT901BLE68-01(48591DE3C19B)	-0.456	-1.531	0.379	-8.789	3.845	68.420	-71.95	-5.94	-124.51	-66.836	-57.526	-5.586	-0.32339	0.33231	-0.48267	0.74289	30.8	13111	100
2025-3-27 18:51:48.322	WT901BLE68-01(48591DE3C19B)	-0.456	-1.508	0.386	-11.353	4.089	79.590	-72.10	-5.03	-124.27	-66.836	-57.526	-5.586	-0.32339	0.33231	-0.48267	0.74289	30.8	13111	100
2025-3-27 18:51:48.322	WT901BLE68-01(48591DE3C19B)	-0.493	-1.508	0.386	-11.353	4.089	79.590	-72.25	-4.13	-124.02	-66.836	-57.526	-5.586	-0.32339	0.33231	-0.48267	0.74289	30.8	13111	100
2025-3-27 18:51:48.323	WT901BLE68-01(48591DE3C19B)	-0.493	-1.409	0.434	-17.700	-2.869	89.172	-72.45	-3.16	-123.68	-66.836	-57.526	-5.586	-0.32339	0.33231	-0.48267	0.74289	30.8	13111	100
2025-3-27 18:51:48.323	WT901BLE68-01(48591DE3C19B)	-0.526	-1.409	0.434	-17.700	-2.869	89.172	-72.65	-2.20	-123.35	-66.836	-57.526	-5.586	-0.32339	0.33231	-0.48267	0.74289	30.8	13111	100
2025-3-27 18:51:48.323	WT901BLE68-01(48591DE3C19B)	-0.526	-1.396	0.448	-25.208	-14.526	97.412	-72.92	-1.19	-122.89	-66.836	-57.526	-5.586	-0.32339	0.33231	-0.48267	0.74289	30.8	13111	100
2025-3-27 18:51:48.323	WT901BLE68-01(48591DE3C19B)	-0.530	-1.396	0.448	-25.208	-14.526	97.412	-73.19	-0.19	-122.44	-66.836	-57.526	-5.586	-0.32339	0.33231	-0.48267	0.74289	30.8	13111	100
2025-3-27 18:51:48.384	WT901BLE68-01(48591DE3C19B)	-0.530	-1.258	0.402	-25.208	-27.222	108.215	-73.43	0.87	-121.83	-66.836	-57.526	-5.586	-0.32339	0.33231	-0.48267	0.74289	30.8	13111	100
2025-3-27 18:51:48.384	WT901BLE68-01(48591DE3C19B)	-0.525	-1.258	0.402	-25.208	-27.222	108.215	-73.67	1.94	-121.24	-66.836	-57.526	-5.586	-0.32339	0.33231	-0.48267	0.74289	30.8	13111	100
2025-3-27 18:51:48.384	WT901BLE68-01(48591DE3C19B)	-0.525	-1.073	0.312	-28.259	-44.495	125.549	-73.92	3.12	-120.44	-66.836	-57.526	-5.586	-0.32339	0.33231	-0.48267	0.74289	30.8	13111	100
2025-3-27 18:51:48.384	WT901BLE68-01(48591DE3C19B)	-0.495	-1.073	0.312	-28.259	-44.495	125.549	-74.15	4.30	-119.64	-66.836	-57.526	-5.586	-0.32339	0.33231	-0.48267	0.74289	30.8	13111	100
2025-3-27 18:51:48.413	WT901BLE68-01(48591DE3C19B)	-0.495	-1.022	0.222	-33.264	-66.223	146.912	-74.39	5.63	-118.58	-66.836	-57.526	-5.586	-0.32339	0.33231	-0.48267	0.74289	30.8	13111	100
2025-3-27 18:51:48.413	WT901BLE68-01(48591DE3C19B)	-0.376	-1.022	0.222	-33.264	-66.223	146.912	-74.60	6.95	-117.53	-66.836	-57.526	-5.586	-0.32339	0.33231	-0.48267	0.74289	30.8	13111	100
2025-3-27 18:51:48.414	WT901BLE68-01(48591DE3C19B)	-0.376	-1.121	0.158	-33.630	-82.642	171.509	-74.77	8.46	-116.25	-66.836	-57.526	-5.586	-0.32339	0.33231	-0.48267	0.74289	30.8	13111	100
2025-3-27 18:51:48.414	WT901BLE68-01(48591DE3C19B)	-0.254	-1.121	0.158	-33.630	-82.642	171.509	-74.90	9.97	-114.96	-71.442	-54.096	-5.488	-0.32339	0.33231	-0.48267	0.74289	30.8	13111	100
2025-3-27 18:51:48.444	WT901BLE68-01(48591DE3C19B)	-0.254	-1.238	0.080	-24.170	-86.548	194.275	-74.90	11.67	-113.57	-71.442	-54.096	-5.488	-0.32339	0.33231	-0.48267	0.74289	30.8	13111	100
2025-3-27 18:51:48.445	WT901BLE68-01(48591DE3C19B)	-0.165	-1.238	0.080	-24.170	-86.548	194.275	-74.86	13.35	-112.17	-71.442	-54.096	-5.488	-0.32339	0.33231	-0.48267	0.74289	30.8	13111	100
2025-3-27 18:51:48.445	WT901BLE68-01(48591DE3C19B)	-0.165	-1.239	0.035	-11.963	-79.468	208.496	-74.66	15.18	-110.78	-71.442	-54.096	-5.488	-0.32339	0.33231	-0.48267	0.74289	30.8	13111	100
2025-3-27 18:51:48.445	WT901BLE68-01(48591DE3C19B)	-0.115	-1.239	0.035	-11.963	-79.468	208.496	-74.43	16.98	-109.37	-71.442	-54.096	-5.488	-0.32339	0.33231	-0.48267	0.74289	30.8	13111	100
2025-3-27 18:51:48.501	WT901BLE68-01(48591DE3C19B)	-0.115	-1.209	0.042	-3.906	-63.538	211.609	-74.12	18.83	-108.09	-71.442	-54.096	-5.488	-0.32339	0.33231	-0.48267	0.74289	30.8	13111	100
2025-3-27 18:51:48.501	WT901BLE68-01(48591DE3C19B)	-0.105	-1.209	0.042	-3.906	-63.538	211.609	-73.77	20.65	-106.79	-71.442	-54.096	-5.488	-0.32339	0.33231	-0.48267	0.74289	30.8	13111	100
2025-3-27 18:51:48.501	WT901BLE68-01(48591DE3C19B)	-0.115	-1.105	0.082	1.038	-45.288	206.787	-73.40	22.46	-105.66	-71.442	-54.096	-5.488	-0.32339	0.33231	-0.48267	0.74289	30.8	13111	100
2025-3-27 18:51:48.501	WT901BLE68-01(48591DE3C19B)	-0.115	-1.005	0.140	1.221	-24.353	196.838	-73.04	24.23	-104.63	-71.442	-54.096	-5.488	-0.32339	0.33231	-0.48267	0.74289	30.8	13111	100
2025-3-27 18:51:48.530	WT901BLE68-01(48591DE3C19B)	-0.184	-1.005	0.140	1.221	-24.353	196.838	-72.70	25.96	-103.71	-71.442	-54.096	-5.488	-0.32339	0.33231	-0.48267	0.74289	30.8	13111	100
2025-3-27 18:51:48.530	WT901BLE68-01(48591DE3C19B)	-0.184	-0.938	0.141	1.343	-5.981	186.829	-72.38	27.66	-102.88	-71.442	-54.096	-5.488	-0.32339	0.33231	-0.48267	0.74289	30.8	13111	100
2025-3-27 18:51:48.530	WT901BLE68-01(48591DE3C19B)	-0.206	-0.938	0.141	1.343	-5.981	186.829	-72.08	29.32	-102.15	-71.442	-54.096	-5.488	-0.32339	0.33231	-0.48267	0.74289	30.8	13111	100
2025-3-27 18:51:48.530	WT901BLE68-01(48591DE3C19B)	-0.206	-0.820	0.143	0.488	4.089	175.964	-71.80	30.93	-101.48	-71.442	-54.096	-5.488	-0.32339	0.33231	-0.48267	0.74289	30.8	13111	100
2025-3-27 18:51:48.600	WT901BLE68-01(48591DE3C19B)	-0.180	-0.820	0.143	0.488	4.089	175.964	-71.54	32.49	-100.86	-71.442	-54.096	-5.488	-0.32339	0.33231	-0.48267	0.74289	30.8	13111	100
2025-3-27 18:51:48.600	WT901BLE68-01(48591DE3C19B)	-0.180	-0.765	0.102	-2.197	9.338	166.443	-71.29	34.01	-100.28	-71.442	-54.096	-5.488	-0.32339	0.33231	-0.48267	0.74289	30.8	13111	100
2025-3-27 18:51:48.600	WT901BLE68-01(48591DE3C19B)	-0.150	-0.765	0.102	-2.197	9.338	166.443	-71.07	35.48	-99.73	-71.442	-54.096	-5.488	-0.32339	0.33231	-0.48267	0.74289	30.8	13111	100
2025-3-27 18:51:48.600	WT901BLE68-01(48591DE3C19B)	-0.150	-0.745	0.064	-7.446	7.751	155.579	-70.86	36.89	-99.18	-71.442	-54.096	-5.488	-0.32339	0.33231	-0.48267	0.74289	30.8	13111	100
2025-3-27 18:51:48.623	WT901BLE68-01(48591DE3C19B)	-0.145	-0.745	0.064	-7.446	7.751	155.579	-70.66	38.23	-98.64	-71.442	-54.096	-5.488	-0.32339	0.33231	-0.48267	0.74289	30.8	13111	100
2025-3-27 18:51:48.624	WT901BLE68-01(48591DE3C19B)	-0.145	-0.826	0.031	-14.709	-4.944	143.555	-70.47	39.48	-98.02	-71.442	-54.096	-5.488	-0.32339	0.33231	-0.48267	0.74289	30.8	13111	100
2025-3-27 18:51:48.624	WT901BLE68-01(48591DE3C19B)	-0.119	-0.826	0.031	-14.709	-4.944	143.555	-70.25	40.65	-97.34	-71.442	-54.096	-5.488	-0.32339	0.33231	-0.48267	0.74289	30.8	13111	100
2025-3-27 18:51:48.624	WT901BLE68-01(48591DE3C19B)	-0.119	-0.944	0.021	-19.714	-25.024	125.916	-69.99	41.69	-96.56	-71.442	-54.096	-5.488	-0.66440	0.13754	-0.59436	0.43158	30.8	13111	100
2025-3-27 18:51:48.653	WT901BLE68-01(48591DE3C19B)	-0.071	-0.944	0.021	-19.714	-25.024	125.916	-69.68	42.60	-95.69	-71.442	-54.096	-5.488	-0.66440	0.13754	-0.59436	0.43158	30.8	13111	100
2025-3-27 18:51:48.654	WT901BLE68-01(48591DE3C19B)	-0.071	-1.113	0.045	-25.513	-44.250	101.257	-69.33	43.36	-94.74	-71.442	-54.096	-5.488	-0.66440	0.13754	-0.59436	0.43158	30.8	13111	100
2025-3-27 18:51:48.654	WT901BLE68-01(48591DE3C19B)	-0.006	-1.113	0.045	-25.513	-44.250	101.257	-68.97	43.95	-93.71	-71.442	-54.096	-5.488	-0.66440	0.13754	-0.59436	0.43158	30.8	13111	100
2025-3-27 18:51:48.654	WT901BLE68-01(48591DE3C19B)	-0.006	-1.357	0.047	-28.198	-53.406	67.383	-68.62	44.36	-92.70	-71.442	-54.096	-5.488	-0.66440	0.13754	-0.59436	0.43158	30.8	13111	100
2025-3-27 18:51:48.744	WT901BLE68-01(48591DE3C19B)	0.051	-1.357	0.047	-28.198	-53.406	67.383	-68.30	44.58	-91.71	-71.442	-54.096	-5.488	-0.66440	0.13754	-0.59436	0.43158	30.8	13111	100
2025-3-27 18:51:48.744	WT901BLE68-01(48591DE3C19B)	0.051	-1.601	0.039	-29.297	-51.758	23.987	-68.08	44.59	-90.86	-71.442	-54.096	-5.488	-0.66440	0.13754	-0.59436	0.43158	30.8	13111	100
2025-3-27 18:51:48.744	WT901BLE68-01(48591DE3C19B)	0.205	-1.601	0.039	-29.297	-51.758	23.987	-67.96	44.39	-90.13	-71.442	-54.096	-5.488	-0.66440	0.13754	-0.59436	0.43158	30.8	13111	100
2025-3-27 18:51:48.744	WT901BLE68-01(48591DE3C19B)	0.205	-1.699	0.057	-21.301	-38.208	-21.790	-67.95	44.01	-89.62	-71.442	-54.096	-5.488	-0.66440	0.13754	-0.59436	0.43158	30.8	13111	100
2025-3-27 18:51:48.745	WT901BLE68-01(48591DE3C19B)	0.314	-1.699	0.057	-21.301	-38.208	-21.790	-68.05	43.43	-89.32	-71.442	-54.096	-5.488	-0.66440	0.13754	-0.59436	0.43158	30.8	13111	100
2025-3-27 18:51:48.745	WT901BLE68-01(48591DE3C19B)	0.314	-1.688	0.147	-21.423	-17.822	-68.115	-68.33	42.67	-89.27	-71.442	-54.096	-5.488	-0.66440	0.13754	-0.59436	0.43158	30.8	13111	100
2025-3-27 18:51:48.745	WT901BLE68-01(48591DE3C19B)	0.338	-1.688	0.147	-21.423	-17.822	-68.115	-68.76	41.73	-89.47	-71.442	-54.096	-5.488	-0.66440	0.13754	-0.59436	0.43158	30.8	13111	100
2025-3-27 18:51:48.745	WT901BLE68-01(48591DE3C19B)	0.338	-1.639	0.220	-10.437	8.179	-105.957	-69.30	40.65	-89.89	-71.442	-54.096	-5.488	-0.66440	0.13754	-0.59436	0.43158	30.8	13111	100
2025-3-27 18:51:48.773	WT901BLE68-01(48591DE3C19B)	0.277	-1.639	0.220	-10.437	8.179	-105.957	-69.90	39.45	-90.54	-71.442	-54.096	-5.488	-0.66440	0.13754	-0.59436	0.43158	30.8	13111	100
2025-3-27 18:51:48.773	WT901BLE68-01(48591DE3C19B)	0.277	-1.543	0.205	-0.366	42.297	-137.207	-70.59	38.14	-91.43	-71.442	-54.096	-5.488	-0.66440	0.13754	-0.59436	0.43158	30.8	13111	100
2025-3-27 18:51:48.773	WT901BLE68-01(48591DE3C19B)	0.220	-1.543	0.205	-0.366	42.297	-137.207	-71.35	36.74	-92.54	-71.442	-54.096	-5.488	-0.66440	0.13754	-0.59436	0.43158	30.8	13111	100
2025-3-27 18:51:48.773	WT901BLE68-01(48591DE3C19B)	0.220	-1.471	0.135	10.437	73.792	-164.429	-72.14	35.26	-93.83	-71.442	-54.096	-5.488	-0.66440	0.13754	-0.59436	0.43158	30.8	13111	100
2025-3-27 18:51:48.832	WT901BLE68-01(48591DE3C19B)	0.199	-1.471	0.135	10.437	73.792	-164.429	-72.93	33.68	-95.31	-71.442	-54.096	-5.488	-0.66440	0.13754	-0.59436	0.43158	30.8	13111	100
2025-3-27 18:51:48.832	WT901BLE68-01(48591DE3C19B)	0.199	-1.361	0.036	23.376	94.177	-186.890	-73.69	32.01	-96.88	-71.442	-54.096	-5.488	-0.66440	0.13754	-0.59436	0.43158	30.8	13111	100
2025-3-27 18:51:48.832	WT901BLE68-01(48591DE3C19B)	0.125	-1.361	0.036	23.376	94.177	-186.890	-74.38	30.26	-98.53	-71.442	-54.096	-5.488	-0.66440	0.13754	-0.59436	0.43158	30.8	13111	100
2025-3-27 18:51:48.832	WT901BLE68-01(48591DE3C19B)	0.125	-1.257	-0.005	27.832	98.145	-201.599	-74.99	28.43	-100.17	-71.442	-54.096	-5.488	-0.66440	0.13754	-0.59436	0.43158	30.8	13111	100
2025-3-27 18:51:48.860	WT901BLE68-01(48591DE3C19B)	0.001	-1.257	-0.005	27.832	98.145	-201.599	-75.54	26.53	-101.79	-88.102	-33.712	-4.606	-0.66440	0.13754	-0.59436	0.43158	30.8	13111	100
2025-3-27 18:51:48.861	WT901BLE68-01(48591DE3C19B)	0.001	-1.272	0.023	28.564	93.567	-212.769	-75.99	24.57	-103.34	-88.102	-33.712	-4.606	-0.66440	0.13754	-0.59436	0.43158	30.8	13111	100
2025-3-27 18:51:48.861	WT901BLE68-01(48591DE3C19B)	-0.124	-1.272	0.023	28.564	93.567	-212.769	-76.38	22.56	-104.84	-88.102	-33.712	-4.606	-0.66440	0.13754	-0.59436	0.43158	30.8	13111	100
2025-3-27 18:51:48.861	WT901BLE68-01(48591DE3C19B)	-0.124	-1.328	0.095	29.846	90.149	-220.520	-76.69	20.51	-106.29	-88.102	-33.712	-4.606	-0.66440	0.13754	-0.59436	0.43158	30.8	13111	100
2025-3-27 18:51:48.891	WT901BLE68-01(48591DE3C19B)	-0.250	-1.328	0.095	29.846	90.149	-220.520	-76.93	18.42	-107.69	-88.102	-33.712	-4.606	-0.66440	0.13754	-0.59436	0.43158	30.8	13111	100
2025-3-27 18:51:48.891	WT901BLE68-01(48591DE3C19B)	-0.250	-1.372	0.191	28.442	80.261	-228.882	-77.10	16.30	-109.02	-88.102	-33.712	-4.606	-0.66440	0.13754	-0.59436	0.43158	30.8	13111	100
2025-3-27 18:51:48.891	WT901BLE68-01(48591DE3C19B)	-0.292	-1.372	0.191	28.442	80.261	-228.882	-77.21	14.15	-110.29	-88.102	-33.712	-4.606	-0.66440	0.13754	-0.59436	0.43158	30.8	13111	100
2025-3-27 18:51:48.892	WT901BLE68-01(48591DE3C19B)	-0.292	-1.390	0.251	25.879	69.824	-234.375	-77.27	11.98	-111.48	-88.102	-33.712	-4.606	-0.66440	0.13754	-0.59436	0.43158	30.8	13111	100
2025-3-27 18:51:48.951	WT901BLE68-01(48591DE3C19B)	-0.297	-1.390	0.251	25.879	69.824	-234.375	-77.28	9.78	-112.62	-88.102	-33.712	-4.606	-0.66440	0.13754	-0.59436	0.43158	30.8	13111	100
2025-3-27 18:51:48.952	WT901BLE68-01(48591DE3C19B)	-0.297	-1.351	0.269	23.376	65.918	-236.389	-77.25	7.60	-113.72	-88.102	-33.712	-4.606	-0.66440	0.13754	-0.59436	0.43158	30.8	13111	100
2025-3-27 18:51:48.952	WT901BLE68-01(48591DE3C19B)	-0.315	-1.351	0.269	23.376	65.918	-236.389	-77.19	5.41	-114.81	-88.102	-33.712	-4.606	-0.66440	0.13754	-0.59436	0.43158	30.8	13111	100
2025-3-27 18:51:48.952	WT901BLE68-01(48591DE3C19B)	-0.315	-1.263	0.240	23.865	64.697	-234.436	-77.08	3.26	-115.88	-88.102	-33.712	-4.606	-0.66440	0.13754	-0.59436	0.43158	30.8	13111	100
2025-3-27 18:51:49.41	WT901BLE68-01(48591DE3C19B)	-0.345	-1.263	0.240	23.865	64.697	-234.436	-76.92	1.14	-116.94	-88.102	-33.712	-4.606	-0.66440	0.13754	-0.59436	0.43158	30.8	13111	100
2025-3-27 18:51:49.42	WT901BLE68-01(48591DE3C19B)	-0.345	-1.104	0.195	26.855	66.223	-228.088	-76.71	-0.93	-118.02	-88.102	-33.712	-4.606	-0.66440	0.13754	-0.59436	0.43158	30.8	13111	100
2025-3-27 18:51:49.42	WT901BLE68-01(48591DE3C19B)	-0.401	-1.104	0.195	26.855	66.223	-228.088	-76.45	-2.94	-119.09	-88.102	-33.712	-4.606	-0.66440	0.13754	-0.59436	0.43158	30.8	13111	100
2025-3-27 18:51:49.42	WT901BLE68-01(48591DE3C19B)	-0.401	-0.941	0.154	28.198	54.626	-219.360	-76.14	-4.88	-120.04	-88.102	-33.712	-4.606	-0.66440	0.13754	-0.59436	0.43158	30.8	13111	100
2025-3-27 18:51:49.43	WT901BLE68-01(48591DE3C19B)	-0.435	-0.941	0.154	28.198	54.626	-219.360	-75.80	-6.79	-121.00	-88.102	-33.712	-4.606	-0.66440	0.13754	-0.59436	0.43158	30.8	13111	100
2025-3-27 18:51:49.43	WT901BLE68-01(48591DE3C19B)	-0.435	-0.812	0.155	27.771	32.654	-206.848	-75.47	-8.61	-121.73	-88.102	-33.712	-4.606	-0.66440	0.13754	-0.59436	0.43158	30.8	13111	100
2025-3-27 18:51:49.43	WT901BLE68-01(48591DE3C19B)	-0.476	-0.812	0.155	27.771	32.654	-206.848	-75.10	-10.40	-122.48	-88.102	-33.712	-4.606	-0.32629	0.35837	-0.49411	0.72168	30.8	13111	100
2025-3-27 18:51:49.43	WT901BLE68-01(48591DE3C19B)	-0.476	-0.743	0.179	27.283	8.606	-188.171	-74.78	-12.06	-122.95	-88.102	-33.712	-4.606	-0.32629	0.35837	-0.49411	0.72168	30.8	13111	100
2025-3-27 18:51:49.73	WT901BLE68-01(48591DE3C19B)	-0.504	-0.743	0.179	27.283	8.606	-188.171	-74.43	-13.69	-123.45	-88.102	-33.712	-4.606	-0.32629	0.35837	-0.49411	0.72168	30.8	13111	100
2025-3-27 18:51:49.73	WT901BLE68-01(48591DE3C19B)	-0.504	-0.722	0.183	26.306	-8.423	-165.771	-74.14	-15.13	-123.73	-88.102	-33.712	-4.606	-0.32629	0.35837	-0.49411	0.72168	30.8	13111	100
2025-3-27 18:51:49.73	WT901BLE68-01(48591DE3C19B)	-0.514	-0.722	0.183	26.306	-8.423	-165.771	-73.83	-16.55	-124.04	-88.102	-33.712	-4.606	-0.32629	0.35837	-0.49411	0.72168	30.8	13111	100
2025-3-27 18:51:49.73	WT901BLE68-01(48591DE3C19B)	-0.514	-0.721	0.149	24.963	-9.277	-141.907	-73.55	-17.73	-124.27	-88.102	-33.712	-4.606	-0.32629	0.35837	-0.49411	0.72168	30.8	13111	100
2025-3-27 18:51:49.103	WT901BLE68-01(48591DE3C19B)	-0.492	-0.721	0.149	24.963	-9.277	-141.907	-73.26	-18.90	-124.53	-88.102	-33.712	-4.606	-0.32629	0.35837	-0.49411	0.72168	30.8	13111	100
2025-3-27 18:51:49.103	WT901BLE68-01(48591DE3C19B)	-0.492	-0.767	0.156	24.292	-3.479	-117.676	-72.98	-19.79	-124.78	-88.102	-33.712	-4.606	-0.32629	0.35837	-0.49411	0.72168	30.8	13111	100
2025-3-27 18:51:49.103	WT901BLE68-01(48591DE3C19B)	-0.528	-0.767	0.156	24.292	-3.479	-117.676	-72.68	-20.68	-125.05	-88.102	-33.712	-4.606	-0.32629	0.35837	-0.49411	0.72168	30.8	13111	100
2025-3-27 18:51:49.103	WT901BLE68-01(48591DE3C19B)	-0.528	-0.855	0.236	24.048	0.916	-91.370	-72.39	-21.30	-125.29	-88.102	-33.712	-4.606	-0.32629	0.35837	-0.49411	0.72168	30.8	13111	100
2025-3-27 18:51:49.131	WT901BLE68-01(48591DE3C19B)	-0.579	-0.855	0.236	24.048	0.916	-91.370	-72.10	-21.90	-125.55	-88.102	-33.712	-4.606	-0.32629	0.35837	-0.49411	0.72168	30.8	13111	100
2025-3-27 18:51:49.131	WT901BLE68-01(48591DE3C19B)	-0.579	-0.954	0.287	23.438	8.911	-66.895	-71.80	-22.24	-125.83	-88.102	-33.712	-4.606	-0.32629	0.35837	-0.49411	0.72168	30.8	13111	100
2025-3-27 18:51:49.132	WT901BLE68-01(48591DE3C19B)	-0.620	-0.954	0.287	23.438	8.911	-66.895	-71.49	-22.57	-126.11	-88.102	-33.712	-4.606	-0.32629	0.35837	-0.49411	0.72168	30.8	13111	100
2025-3-27 18:51:49.132	WT901BLE68-01(48591DE3C19B)	-0.620	-1.033	0.287	20.691	21.606	-44.067	-71.18	-22.63	-126.46	-88.102	-33.712	-4.606	-0.32629	0.35837	-0.49411	0.72168	30.8	13111	100
2025-3-27 18:51:49.200	WT901BLE68-01(48591DE3C19B)	-0.692	-1.033	0.287	20.691	21.606	-44.067	-70.87	-22.69	-126.82	-88.102	-33.712	-4.606	-0.32629	0.35837	-0.49411	0.72168	30.8	13111	100
2025-3-27 18:51:49.200	WT901BLE68-01(48591DE3C19B)	-0.692	-1.137	0.273	12.268	29.114	-23.315	-70.64	-22.53	-127.19	-88.102	-33.712	-4.606	-0.32629	0.35837	-0.49411	0.72168	30.8	13111	100
2025-3-27 18:51:49.200	WT901BLE68-01(48591DE3C19B)	-0.750	-1.137	0.273	12.268	29.114	-23.315	-70.41	-22.36	-127.57	-88.102	-33.712	-4.606	-0.32629	0.35837	-0.49411	0.72168	30.8	13111	100
2025-3-27 18:51:49.200	WT901BLE68-01(48591DE3C19B)	-0.750	-1.246	0.294	3.235	28.870	-4.761	-70.29	-22.02	-127.88	-88.102	-33.712	-4.606	-0.32629	0.35837	-0.49411	0.72168	30.8	13111	100
2025-3-27 18:51:49.252	WT901BLE68-01(48591DE3C19B)	-0.753	-1.246	0.294	3.235	28.870	-4.761	-70.18	-21.68	-128.19	-88.102	-33.712	-4.606	-0.32629	0.35837	-0.49411	0.72168	30.8	13111	100
2025-3-27 18:51:49.252	WT901BLE68-01(48591DE3C19B)	-0.753	-1.272	0.317	-6.226	22.888	17.029	-70.21	-21.15	-128.36	-88.102	-33.712	-4.606	-0.32629	0.35837	-0.49411	0.72168	30.8	13111	100
2025-3-27 18:51:49.252	WT901BLE68-01(48591DE3C19B)	-0.742	-1.272	0.317	-6.226	22.888	17.029	-70.24	-20.63	-128.54	-88.102	-33.712	-4.606	-0.32629	0.35837	-0.49411	0.72168	30.8	13111	100
2025-3-27 18:51:49.252	WT901BLE68-01(48591DE3C19B)	-0.742	-1.290	0.332	-19.592	15.869	41.687	-70.46	-19.90	-128.57	-53.508	-56.546	-7.644	-0.32629	0.35837	-0.49411	0.72168	30.8	13111	100
2025-3-27 18:51:49.253	WT901BLE68-01(48591DE3C19B)	-0.769	-1.290	0.332	-19.592	15.869	41.687	-70.68	-19.17	-128.59	-53.508	-56.546	-7.644	-0.32629	0.35837	-0.49411	0.72168	30.8	13111	100
2025-3-27 18:51:49.253	WT901BLE68-01(48591DE3C19B)	-0.769	-1.329	0.335	-30.029	5.615	67.322	-71.05	-18.24	-128.44	-53.508	-56.546	-7.644	-0.32629	0.35837	-0.49411	0.72168	30.8	13111	100
2025-3-27 18:51:49.253	WT901BLE68-01(48591DE3C19B)	-0.805	-1.329	0.335	-30.029	5.615	67.322	-71.43	-17.31	-128.29	-53.508	-56.546	-7.644	-0.32629	0.35837	-0.49411	0.72168	30.8	13111	100
2025-3-27 18:51:49.253	WT901BLE68-01(48591DE3C19B)	-0.805	-1.225	0.337	-31.799	-18.066	94.727	-71.90	-16.20	-127.83	-53.508	-56.546	-7.644	-0.32629	0.35837	-0.49411	0.72168	30.8	13111	100
2025-3-27 18:51:49.342	WT901BLE68-01(48591DE3C19B)	-0.768	-1.225	0.337	-31.799	-18.066	94.727	-72.36	-15.09	-127.38	-53.508	-56.546	-7.644	-0.32629	0.35837	-0.49411	0.72168	30.8	13111	100
2025-3-27 18:51:49.342	WT901BLE68-01(48591DE3C19B)	-0.768	-0.997	0.281	-33.752	-54.810	126.526	-72.93	-13.79	-126.49	-53.508	-56.546	-7.644	-0.32629	0.35837	-0.49411	0.72168	30.8	13111	100
2025-3-27 18:51:49.342	WT901BLE68-01(48591DE3C19B)	-0.654	-0.997	0.281	-33.752	-54.810	126.526	-73.47	-12.48	-125.62	-53.508	-56.546	-7.644	-0.32629	0.35837	-0.49411	0.72168	30.8	13111	100
2025-3-27 18:51:49.342	WT901BLE68-01(48591DE3C19B)	-0.654	-0.979	0.174	-41.504	-91.858	163.086	-74.15	-10.92	-124.30	-53.508	-56.546	-7.644	-0.32629	0.35837	-0.49411	0.72168	30.8	13111	100
2025-3-27 18:51:49.343	WT901BLE68-01(48591DE3C19B)	-0.555	-0.979	0.174	-41.504	-91.858	163.086	-74.79	-9.35	-123.01	-53.508	-56.546	-7.644	-0.32629	0.35837	-0.49411	0.72168	30.8	13111	100
2025-3-27 18:51:49.343	WT901BLE68-01(48591DE3C19B)	-0.555	-1.260	0.099	-42.542	-118.958	198.181	-75.47	-7.51	-121.38	-53.508	-56.546	-7.644	-0.32629	0.35837	-0.49411	0.72168	30.8	13111	100
2025-3-27 18:51:49.343	WT901BLE68-01(48591DE3C19B)	-0.480	-1.260	0.099	-42.542	-118.958	198.181	-76.09	-5.67	-119.76	-53.508	-56.546	-7.644	-0.32629	0.35837	-0.49411	0.72168	30.8	13111	100
2025-3-27 18:51:49.343	WT901BLE68-01(48591DE3C19B)	-0.480	-1.569	0.083	-28.564	-136.108	227.539	-76.53	-3.59	-117.91	-53.508	-56.546	-7.644	-0.32629	0.35837	-0.49411	0.72168	30.8	13111	100
2025-3-27 18:51:49.403	WT901BLE68-01(48591DE3C19B)	-0.356	-1.569	0.083	-28.564	-136.108	227.539	-76.92	-1.51	-116.06	-53.508	-56.546	-7.644	-0.32629	0.35837	-0.49411	0.72168	30.8	13111	100
2025-3-27 18:51:49.403	WT901BLE68-01(48591DE3C19B)	-0.356	-1.768	0.085	-10.315	-144.348	249.146	-77.06	0.74	-114.08	-53.508	-56.546	-7.644	-0.32629	0.35837	-0.49411	0.72168	30.8	13111	100
2025-3-27 18:51:49.403	WT901BLE68-01(48591DE3C19B)	-0.207	-1.768	0.085	-10.315	-144.348	249.146	-77.13	2.97	-112.10	-53.508	-56.546	-7.644	-0.32629	0.35837	-0.49411	0.72168	30.8	13111	100
2025-3-27 18:51:49.404	WT901BLE68-01(48591DE3C19B)	-0.207	-1.787	0.105	11.902	-129.028	263.977	-76.91	5.36	-110.23	-53.508	-56.546	-7.644	-0.32629	0.35837	-0.49411	0.72168	30.8	13111	100
2025-3-27 18:51:49.433	WT901BLE68-01(48591DE3C19B)	-0.134	-1.787	0.105	11.902	-129.028	263.977	-76.62	7.71	-108.34	-53.508	-56.546	-7.644	-0.32629	0.35837	-0.49411	0.72168	30.8	13111	100
2025-3-27 18:51:49.433	WT901BLE68-01(48591DE3C19B)	-0.134	-1.638	0.111	25.940	-97.229	271.362	-76.15	10.17	-106.71	-53.508	-56.546	-7.644	-0.32629	0.35837	-0.49411	0.72168	30.8	13111	100
2025-3-27 18:51:49.434	WT901BLE68-01(48591DE3C19B)	-0.137	-1.638	0.111	25.940	-97.229	271.362	-75.62	12.59	-105.06	-53.508	-56.546	-7.644	-0.32629	0.35837	-0.49411	0.72168	30.8	13111	100
2025-3-27 18:51:49.434	WT901BLE68-01(48591DE3C19B)	-0.153	-1.490	0.119	29.358	-62.134	274.231	-75.06	15.10	-103.71	-53.508	-56.546	-7.644	-0.32629	0.35837	-0.49411	0.72168	30.8	13111	100
2025-3-27 18:51:49.491	WT901BLE68-01(48591DE3C19B)	-0.153	-1.353	0.123	29.236	-31.738	273.499	-74.48	17.60	-102.47	-53.508	-56.546	-7.644	-0.56473	0.27939	-0.54257	0.55545	30.8	13111	100
2025-3-27 18:51:49.491	WT901BLE68-01(48591DE3C19B)	-0.162	-1.353	0.123	29.236	-31.738	273.499	-73.89	20.12	-101.36	-53.508	-56.546	-7.644	-0.56473	0.27939	-0.54257	0.55545	30.8	13111	100
2025-3-27 18:51:49.491	WT901BLE68-01(48591DE3C19B)	-0.162	-1.234	0.087	26.611	-7.080	270.874	-73.30	22.62	-100.34	-53.508	-56.546	-7.644	-0.56473	0.27939	-0.54257	0.55545	30.8	13111	100
2025-3-27 18:51:49.491	WT901BLE68-01(48591DE3C19B)	-0.167	-1.234	0.087	26.611	-7.080	270.874	-72.72	25.12	-99.40	-53.508	-56.546	-7.644	-0.56473	0.27939	-0.54257	0.55545	30.8	13111	100
2025-3-27 18:51:49.493	WT901BLE68-01(48591DE3C19B)	-0.167	-1.117	0.048	20.447	8.423	265.808	-72.17	27.60	-98.51	-53.508	-56.546	-7.644	-0.56473	0.27939	-0.54257	0.55545	30.8	13111	100
2025-3-27 18:51:49.493	WT901BLE68-01(48591DE3C19B)	-0.191	-1.117	0.048	20.447	8.423	265.808	-71.64	30.05	-97.68	-53.508	-56.546	-7.644	-0.56473	0.27939	-0.54257	0.55545	30.8	13111	100
2025-3-27 18:51:49.493	WT901BLE68-01(48591DE3C19B)	-0.191	-1.124	0.011	10.498	15.259	255.737	-71.14	32.44	-96.86	-53.508	-56.546	-7.644	-0.56473	0.27939	-0.54257	0.55545	30.8	13111	100
2025-3-27 18:51:49.493	WT901BLE68-01(48591DE3C19B)	-0.224	-1.124	0.011	10.498	15.259	255.737	-70.67	34.77	-96.06	-53.508	-56.546	-7.644	-0.56473	0.27939	-0.54257	0.55545	30.8	13111	100
2025-3-27 18:51:49.551	WT901BLE68-01(48591DE3C19B)	-0.224	-1.209	-0.006	2.136	7.935	241.943	-70.19	37.01	-95.21	-53.508	-56.546	-7.644	-0.56473	0.27939	-0.54257	0.55545	30.8	13111	100
2025-3-27 18:51:49.552	WT901BLE68-01(48591DE3C19B)	-0.243	-1.209	-0.006	2.136	7.935	241.943	-69.69	39.15	-94.30	-53.508	-56.546	-7.644	-0.56473	0.27939	-0.54257	0.55545	30.8	13111	100
2025-3-27 18:51:49.552	WT901BLE68-01(48591DE3C19B)	-0.243	-1.308	-0.020	-1.404	-9.338	224.915	-69.12	41.17	-93.27	-53.508	-56.546	-7.644	-0.56473	0.27939	-0.54257	0.55545	30.8	13111	100
2025-3-27 18:51:49.552	WT901BLE68-01(48591DE3C19B)	-0.231	-1.308	-0.020	-1.404	-9.338	224.915	-68.46	43.05	-92.13	-53.508	-56.546	-7.644	-0.56473	0.27939	-0.54257	0.55545	30.8	13111	100
2025-3-27 18:51:49.581	WT901BLE68-01(48591DE3C19B)	-0.231	-1.416	-0.009	-3.296	-29.968	205.505	-67.69	44.78	-90.84	-53.508	-56.546	-7.644	-0.56473	0.27939	-0.54257	0.55545	30.8	13111	100
2025-3-27 18:51:49.581	WT901BLE68-01(48591DE3C19B)	-0.153	-1.416	-0.009	-3.296	-29.968	205.505	-66.80	46.36	-89.41	-53.508	-56.546	-7.644	-0.56473	0.27939	-0.54257	0.55545	30.8	13111	100
2025-3-27 18:51:49.581	WT901BLE68-01(48591DE3C19B)	-0.153	-1.539	-0.016	-2.930	-46.143	182.739	-65.80	47.79	-87.87	-53.508	-56.546	-7.644	-0.56473	0.27939	-0.54257	0.55545	30.8	13111	100
2025-3-27 18:51:49.581	WT901BLE68-01(48591DE3C19B)	-0.036	-1.539	-0.016	-2.930	-46.143	182.739	-64.70	49.04	-86.23	-53.508	-56.546	-7.644	-0.56473	0.27939	-0.54257	0.55545	30.8	13111	100
2025-3-27 18:51:49.614	WT901BLE68-01(48591DE3C19B)	-0.036	-1.581	-0.011	-0.732	-54.932	156.738	-63.54	50.13	-84.55	-53.508	-56.546	-7.644	-0.56473	0.27939	-0.54257	0.55545	30.8	13111	100
2025-3-27 18:51:49.614	WT901BLE68-01(48591DE3C19B)	0.091	-1.581	-0.011	-0.732	-54.932	156.738	-62.34	51.04	-82.84	-53.508	-56.546	-7.644	-0.56473	0.27939	-0.54257	0.55545	30.8	13111	100
2025-3-27 18:51:49.614	WT901BLE68-01(48591DE3C19B)	0.091	-1.628	-0.029	-3.052	-51.392	125.305	-61.21	51.80	-81.23	-53.508	-56.546	-7.644	-0.56473	0.27939	-0.54257	0.55545	30.8	13111	100
2025-3-27 18:51:49.614	WT901BLE68-01(48591DE3C19B)	0.216	-1.628	-0.029	-3.052	-51.392	125.305	-60.17	52.40	-79.73	-53.508	-56.546	-7.644	-0.56473	0.27939	-0.54257	0.55545	30.8	13111	100
2025-3-27 18:51:49.701	WT901BLE68-01(48591DE3C19B)	0.216	-1.708	-0.012	-4.333	-40.771	88.989	-59.29	52.86	-78.44	-53.508	-56.546	-7.644	-0.56473	0.27939	-0.54257	0.55545	30.8	13111	100
2025-3-27 18:51:49.701	WT901BLE68-01(48591DE3C19B)	0.291	-1.708	-0.012	-4.333	-40.771	88.989	-58.59	53.16	-77.36	-89.376	-22.834	-7.252	-0.56473	0.27939	-0.54257	0.55545	30.8	13111	100
2025-3-27 18:51:49.702	WT901BLE68-01(48591DE3C19B)	0.291	-1.699	0.052	-1.648	-30.945	46.814	-58.08	53.29	-76.54	-89.376	-22.834	-7.252	-0.56473	0.27939	-0.54257	0.55545	30.8	13111	100
2025-3-27 18:51:49.702	WT901BLE68-01(48591DE3C19B)	0.263	-1.699	0.052	-1.648	-30.945	46.814	-57.77	53.26	-75.98	-89.376	-22.834	-7.252	-0.56473	0.27939	-0.54257	0.55545	30.8	13111	100
2025-3-27 18:51:49.703	WT901BLE68-01(48591DE3C19B)	0.263	-1.564	0.157	-0.671	-21.484	4.211	-57.65	53.07	-75.68	-89.376	-22.834	-7.252	-0.56473	0.27939	-0.54257	0.55545	30.8	13111	100
2025-3-27 18:51:49.703	WT901BLE68-01(48591DE3C19B)	0.259	-1.564	0.157	-0.671	-21.484	4.211	-57.74	52.72	-75.64	-89.376	-22.834	-7.252	-0.56473	0.27939	-0.54257	0.55545	30.8	13111	100
2025-3-27 18:51:49.703	WT901BLE68-01(48591DE3C19B)	0.259	-1.434	0.208	2.991	2.930	-40.771	-58.10	52.25	-75.96	-89.376	-22.834	-7.252	-0.56473	0.27939	-0.54257	0.55545	30.8	13111	100
2025-3-27 18:51:49.703	WT901BLE68-01(48591DE3C19B)	0.402	-1.434	0.208	2.991	2.930	-40.771	-58.71	51.64	-76.64	-89.376	-22.834	-7.252	-0.56473	0.27939	-0.54257	0.55545	30.8	13111	100
2025-3-27 18:51:49.733	WT901BLE68-01(48591DE3C19B)	0.402	-1.227	0.130	13.794	38.879	-85.571	-59.56	50.93	-77.71	-89.376	-22.834	-7.252	-0.56473	0.27939	-0.54257	0.55545	30.8	13111	100
2025-3-27 18:51:49.733	WT901BLE68-01(48591DE3C19B)	0.492	-1.227	0.130	13.794	38.879	-85.571	-60.65	50.09	-79.17	-89.376	-22.834	-7.252	-0.56473	0.27939	-0.54257	0.55545	30.8	13111	100
2025-3-27 18:51:49.733	WT901BLE68-01(48591DE3C19B)	0.492	-1.000	0.072	16.968	72.083	-125.488	-61.94	49.14	-80.93	-89.376	-22.834	-7.252	-0.56473	0.27939	-0.54257	0.55545	30.8	13111	100
2025-3-27 18:51:49.734	WT901BLE68-01(48591DE3C19B)	0.350	-1.000	0.072	16.968	72.083	-125.488	-63.41	48.06	-82.98	-89.376	-22.834	-7.252	-0.56473	0.27939	-0.54257	0.55545	30.8	13111	100
2025-3-27 18:51:49.800	WT901BLE68-01(48591DE3C19B)	0.350	-1.009	0.054	9.888	101.624	-161.987	-65.04	46.84	-85.24	-89.376	-22.834	-7.252	-0.56473	0.27939	-0.54257	0.55545	30.8	13111	100
2025-3-27 18:51:49.800	WT901BLE68-01(48591DE3C19B)	0.128	-1.009	0.054	9.888	101.624	-161.987	-66.80	45.47	-87.69	-89.376	-22.834	-7.252	-0.56473	0.27939	-0.54257	0.55545	30.8	13111	100
2025-3-27 18:51:49.800	WT901BLE68-01(48591DE3C19B)	0.128	-1.150	0.047	10.376	117.004	-194.519	-68.54	43.93	-90.20	-89.376	-22.834	-7.252	-0.56473	0.27939	-0.54257	0.55545	30.8	13111	100
2025-3-27 18:51:49.800	WT901BLE68-01(48591DE3C19B)	-0.059	-1.150	0.047	10.376	117.004	-194.519	-70.26	42.23	-92.73	-89.376	-22.834	-7.252	-0.56473	0.27939	-0.54257	0.55545	30.8	13111	100
2025-3-27 18:51:49.823	WT901BLE68-01(48591DE3C19B)	-0.059	-1.152	0.078	19.348	109.009	-221.802	-71.77	40.34	-95.13	-89.376	-22.834	-7.252	-0.56473	0.27939	-0.54257	0.55545	30.8	13111	100
2025-3-27 18:51:49.824	WT901BLE68-01(48591DE3C19B)	-0.183	-1.152	0.078	19.348	109.009	-221.802	-73.09	38.28	-97.38	-89.376	-22.834	-7.252	-0.56473	0.27939	-0.54257	0.55545	30.8	13111	100
2025-3-27 18:51:49.824	WT901BLE68-01(48591DE3C19B)	-0.183	-1.134	0.100	23.132	82.825	-240.784	-74.16	36.08	-99.38	-89.376	-22.834	-7.252	-0.56473	0.27939	-0.54257	0.55545	30.8	13111	100
2025-3-27 18:51:49.824	WT901BLE68-01(48591DE3C19B)	-0.281	-1.134	0.100	23.132	82.825	-240.784	-75.01	33.74	-101.14	-89.376	-22.834	-7.252	-0.61859	0.19217	-0.59625	0.47412	30.8	13111	100
2025-3-27 18:51:49.853	WT901BLE68-01(48591DE3C19B)	-0.281	-1.156	0.162	24.963	54.504	-258.057	-75.66	31.29	-102.68	-89.376	-22.834	-7.252	-0.61859	0.19217	-0.59625	0.47412	30.8	13111	100
2025-3-27 18:51:49.853	WT901BLE68-01(48591DE3C19B)	-0.298	-1.156	0.162	24.963	54.504	-258.057	-76.14	28.73	-104.00	-89.376	-22.834	-7.252	-0.61859	0.19217	-0.59625	0.47412	30.8	13111	100
2025-3-27 18:51:49.853	WT901BLE68-01(48591DE3C19B)	-0.298	-1.183	0.184	21.179	25.391	-272.583	-76.49	26.08	-105.12	-89.376	-22.834	-7.252	-0.61859	0.19217	-0.59625	0.47412	30.8	13111	100
2025-3-27 18:51:49.853	WT901BLE68-01(48591DE3C19B)	-0.268	-1.183	0.184	21.179	25.391	-272.583	-76.73	23.34	-106.06	-89.376	-22.834	-7.252	-0.61859	0.19217	-0.59625	0.47412	30.8	13111	100
2025-3-27 18:51:49.910	WT901BLE68-01(48591DE3C19B)	-0.268	-1.194	0.188	14.832	12.024	-283.081	-76.92	20.56	-106.91	-89.376	-22.834	-7.252	-0.61859	0.19217	-0.59625	0.47412	30.8	13111	100
2025-3-27 18:51:49.911	WT901BLE68-01(48591DE3C19B)	-0.271	-1.194	0.188	14.832	12.024	-283.081	-77.07	17.74	-107.67	-89.376	-22.834	-7.252	-0.61859	0.19217	-0.59625	0.47412	30.8	13111	100
2025-3-27 18:51:49.911	WT901BLE68-01(48591DE3C19B)	-0.271	-1.209	0.187	7.568	9.705	-292.603	-77.26	14.83	-108.41	-89.376	-22.834	-7.252	-0.61859	0.19217	-0.59625	0.47412	30.8	13111	100
2025-3-27 18:51:49.911	WT901BLE68-01(48591DE3C19B)	-0.304	-1.209	0.187	7.568	9.705	-292.603	-77.39	11.95	-109.12	-89.376	-22.834	-7.252	-0.61859	0.19217	-0.59625	0.47412	30.8	13111	100
2025-3-27 18:51:49.940	WT901BLE68-01(48591DE3C19B)	-0.304	-1.247	0.190	2.502	14.709	-301.392	-77.55	9.01	-109.89	-89.376	-22.834	-7.252	-0.61859	0.19217	-0.59625	0.47412	30.8	13111	100
2025-3-27 18:51:49.941	WT901BLE68-01(48591DE3C19B)	-0.380	-1.247	0.190	2.502	14.709	-301.392	-77.66	6.09	-110.64	-89.376	-22.834	-7.252	-0.61859	0.19217	-0.59625	0.47412	30.8	13111	100
2025-3-27 18:51:49.941	WT901BLE68-01(48591DE3C19B)	-0.380	-1.305	0.224	1.465	20.203	-305.969	-77.75	3.16	-111.44	-89.376	-22.834	-7.252	-0.61859	0.19217	-0.59625	0.47412	30.8	13111	100
2025-3-27 18:51:49.941	WT901BLE68-01(48591DE3C19B)	-0.521	-1.305	0.224	1.465	20.203	-305.969	-77.79	0.26	-112.24	-89.376	-22.834	-7.252	-0.61859	0.19217	-0.59625	0.47412	30.8	13111	100
2025-3-27 18:51:49.970	WT901BLE68-01(48591DE3C19B)	-0.521	-1.369	0.274	5.005	6.897	-301.819	-77.76	-2.60	-112.90	-89.376	-22.834	-7.252	-0.61859	0.19217	-0.59625	0.47412	30.8	13111	100
2025-3-27 18:51:49.970	WT901BLE68-01(48591DE3C19B)	-0.592	-1.369	0.274	5.005	6.897	-301.819	-77.69	-5.45	-113.55	-89.376	-22.834	-7.252	-0.61859	0.19217	-0.59625	0.47412	30.8	13111	100
2025-3-27 18:51:49.971	WT901BLE68-01(48591DE3C19B)	-0.592	-1.398	0.284	11.230	-12.390	-289.612	-77.55	-8.18	-114.01	-89.376	-22.834	-7.252	-0.61859	0.19217	-0.59625	0.47412	30.8	13111	100
2025-3-27 18:51:49.971	WT901BLE68-01(48591DE3C19B)	-0.549	-1.398	0.284	11.230	-12.390	-289.612	-77.38	-10.90	-114.48	-89.376	-22.834	-7.252	-0.61859	0.19217	-0.59625	0.47412	30.8	13111	100
2025-3-27 18:51:50.121	WT901BLE68-01(48591DE3C19B)	-0.549	-1.412	0.212	14.709	-26.733	-272.034	-77.20	-13.46	-114.77	-89.376	-22.834	-7.252	-0.61859	0.19217	-0.59625	0.47412	30.8	13111	100
2025-3-27 18:51:50.121	WT901BLE68-01(48591DE3C19B)	-0.495	-1.412	0.212	14.709	-26.733	-272.034	-76.99	-15.99	-115.09	-89.376	-22.834	-7.252	-0.61859	0.19217	-0.59625	0.47412	30.8	13111	100
2025-3-27 18:51:50.121	WT901BLE68-01(48591DE3C19B)	-0.495	-1.522	0.192	24.780	-19.592	-246.582	-76.67	-18.24	-115.43	-89.376	-22.834	-7.252	-0.61859	0.19217	-0.59625	0.47412	30.8	13111	100
2025-3-27 18:51:50.122	WT901BLE68-01(48591DE3C19B)	-0.613	-1.522	0.192	24.780	-19.592	-246.582	-76.33	-20.48	-115.79	-89.376	-22.834	-7.252	-0.61859	0.19217	-0.59625	0.47412	30.8	13111	100
2025-3-27 18:51:50.151	WT901BLE68-01(48591DE3C19B)	-0.613	-1.555	0.239	37.292	5.127	-217.712	-75.78	-22.36	-116.36	-66.934	-51.254	-11.270	-0.61859	0.19217	-0.59625	0.47412	30.8	13111	100
2025-3-27 18:51:50.151	WT901BLE68-01(48591DE3C19B)	-0.886	-1.555	0.239	37.292	5.127	-217.712	-75.21	-24.21	-116.95	-66.934	-51.254	-11.270	-0.61859	0.19217	-0.59625	0.47412	30.8	13111	100
2025-3-27 18:51:50.151	WT901BLE68-01(48591DE3C19B)	-0.886	-1.526	0.363	35.889	20.386	-182.434	-74.59	-25.67	-117.64	-66.934	-51.254	-11.270	-0.61859	0.19217	-0.59625	0.47412	30.8	13111	100
2025-3-27 18:51:50.151	WT901BLE68-01(48591DE3C19B)	-1.055	-1.526	0.363	35.889	20.386	-182.434	-73.94	-27.10	-118.37	-66.934	-51.254	-11.270	-0.61859	0.19217	-0.59625	0.47412	30.8	13111	100
2025-3-27 18:51:50.152	WT901BLE68-01(48591DE3C19B)	-1.055	-1.476	0.416	28.564	29.785	-140.320	-73.35	-28.08	-119.10	-66.934	-51.254	-11.270	-0.61859	0.19217	-0.59625	0.47412	30.8	13111	100
2025-3-27 18:51:50.152	WT901BLE68-01(48591DE3C19B)	-0.951	-1.476	0.416	28.564	29.785	-140.320	-72.73	-29.04	-119.87	-66.934	-51.254	-11.270	-0.61859	0.19217	-0.59625	0.47412	30.8	13111	100
2025-3-27 18:51:50.152	WT901BLE68-01(48591DE3C19B)	-0.951	-1.352	0.354	13.977	51.636	-84.167	-72.22	-29.38	-120.70	-66.934	-51.254	-11.270	-0.61859	0.19217	-0.59625	0.47412	30.8	13111	100
2025-3-27 18:51:50.152	WT901BLE68-01(48591DE3C19B)	-0.766	-1.352	0.354	13.977	51.636	-84.167	-71.70	-29.70	-121.56	-66.934	-51.254	-11.270	-0.61859	0.19217	-0.59625	0.47412	30.8	13111	100
2025-3-27 18:51:50.153	WT901BLE68-01(48591DE3C19B)	-0.766	-1.218	0.351	-6.470	78.125	-19.531	-71.34	-29.32	-122.48	-66.934	-51.254	-11.270	-0.61859	0.19217	-0.59625	0.47412	30.8	13111	100
2025-3-27 18:51:50.153	WT901BLE68-01(48591DE3C19B)	-0.689	-1.218	0.351	-6.470	78.125	-19.531	-70.99	-28.94	-123.40	-66.934	-51.254	-11.270	-0.61859	0.19217	-0.59625	0.47412	30.8	13111	100
2025-3-27 18:51:50.153	WT901BLE68-01(48591DE3C19B)	-0.689	-1.096	0.420	-29.053	88.074	37.598	-70.93	-27.98	-124.22	-66.934	-51.254	-11.270	-0.61859	0.19217	-0.59625	0.47412	30.8	13111	100
2025-3-27 18:51:50.153	WT901BLE68-01(48591DE3C19B)	-0.743	-1.096	0.420	-29.053	88.074	37.598	-70.87	-27.02	-125.04	-66.934	-51.254	-11.270	-0.61859	0.19217	-0.59625	0.47412	30.8	13111	100
2025-3-27 18:51:50.180	WT901BLE68-01(48591DE3C19B)	-0.743	-1.104	0.473	-45.837	80.261	79.102	-71.09	-25.70	-125.62	-66.934	-51.254	-11.270	-0.61859	0.19217	-0.59625	0.47412	30.8	13111	100
2025-3-27 18:51:50.180	WT901BLE68-01(48591DE3C19B)	-0.730	-1.104	0.473	-45.837	80.261	79.102	-71.31	-24.38	-126.22	-66.934	-51.254	-11.270	-0.61859	0.19217	-0.59625	0.47412	30.8	13111	100
2025-3-27 18:51:50.180	WT901BLE68-01(48591DE3C19B)	-0.730	-1.064	0.430	-50.781	63.049	107.056	-71.70	-22.87	-126.56	-66.934	-51.254	-11.270	-0.61859	0.19217	-0.59625	0.47412	30.8	13111	100
2025-3-27 18:51:50.180	WT901BLE68-01(48591DE3C19B)	-0.644	-1.064	0.430	-50.781	63.049	107.056	-72.09	-21.36	-126.90	-66.934	-51.254	-11.270	-0.61859	0.19217	-0.59625	0.47412	30.8	13111	100
2025-3-27 18:51:50.241	WT901BLE68-01(48591DE3C19B)	-0.644	-0.875	0.326	-46.814	52.612	126.038	-72.49	-19.72	-127.10	-66.934	-51.254	-11.270	-0.61859	0.19217	-0.59625	0.47412	30.8	13111	100
2025-3-27 18:51:50.242	WT901BLE68-01(48591DE3C19B)	-0.595	-0.875	0.326	-46.814	52.612	126.038	-72.88	-18.08	-127.30	-66.934	-51.254	-11.270	-0.61859	0.19217	-0.59625	0.47412	30.8	13111	100
2025-3-27 18:51:50.242	WT901BLE68-01(48591DE3C19B)	-0.595	-0.695	0.183	-46.265	40.649	143.982	-73.33	-16.31	-127.34	-66.934	-51.254	-11.270	-0.61859	0.19217	-0.59625	0.47412	30.8	13111	100
2025-3-27 18:51:50.242	WT901BLE68-01(48591DE3C19B)	-0.685	-0.695	0.183	-46.265	40.649	143.982	-73.76	-14.55	-127.40	-66.934	-51.254	-11.270	-0.61859	0.19217	-0.59625	0.47412	30.8	13111	100
2025-3-27 18:51:50.270	WT901BLE68-01(48591DE3C19B)	-0.685	-0.747	0.086	-50.110	15.076	156.921	-74.30	-12.74	-127.19	-66.934	-51.254	-11.270	-0.29657	0.34183	-0.50287	0.73636	30.8	13111	100
2025-3-27 18:51:50.270	WT901BLE68-01(48591DE3C19B)	-0.691	-0.747	0.086	-50.110	15.076	156.921	-74.82	-10.93	-127.00	-66.934	-51.254	-11.270	-0.29657	0.34183	-0.50287	0.73636	30.8	13111	100
2025-3-27 18:51:50.271	WT901BLE68-01(48591DE3C19B)	-0.691	-0.911	0.065	-44.983	-19.775	163.391	-75.35	-9.16	-126.46	-66.934	-51.254	-11.270	-0.29657	0.34183	-0.50287	0.73636	30.8	13111	100
2025-3-27 18:51:50.271	WT901BLE68-01(48591DE3C19B)	-0.646	-0.911	0.065	-44.983	-19.775	163.391	-75.86	-7.38	-125.94	-66.934	-51.254	-11.270	-0.29657	0.34183	-0.50287	0.73636	30.8	13111	100
2025-3-27 18:51:50.300	WT901BLE68-01(48591DE3C19B)	-0.646	-1.054	0.092	-36.926	-58.289	171.082	-76.32	-5.63	-125.04	-66.934	-51.254	-11.270	-0.29657	0.34183	-0.50287	0.73636	30.8	13111	100
2025-3-27 18:51:50.300	WT901BLE68-01(48591DE3C19B)	-0.584	-1.054	0.092	-36.926	-58.289	171.082	-76.76	-3.88	-124.14	-66.934	-51.254	-11.270	-0.29657	0.34183	-0.50287	0.73636	30.8	13111	100
2025-3-27 18:51:50.300	WT901BLE68-01(48591DE3C19B)	-0.584	-1.199	0.101	-26.428	-101.318	178.650	-77.09	-2.16	-122.81	-66.934	-51.254	-11.270	-0.29657	0.34183	-0.50287	0.73636	30.8	13111	100
2025-3-27 18:51:50.300	WT901BLE68-01(48591DE3C19B)	-0.413	-1.199	0.101	-26.428	-101.318	178.650	-77.38	-0.44	-121.47	-66.934	-51.254	-11.270	-0.29657	0.34183	-0.50287	0.73636	30.8	13111	100
2025-3-27 18:51:50.361	WT901BLE68-01(48591DE3C19B)	-0.413	-1.273	0.089	-12.329	-118.713	187.073	-77.50	1.29	-119.94	-66.934	-51.254	-11.270	-0.29657	0.34183	-0.50287	0.73636	30.8	13111	100
2025-3-27 18:51:50.361	WT901BLE68-01(48591DE3C19B)	-0.219	-1.273	0.089	-12.329	-118.713	187.073	-77.57	3.02	-118.41	-66.934	-51.254	-11.270	-0.29657	0.34183	-0.50287	0.73636	30.8	13111	100
2025-3-27 18:51:50.361	WT901BLE68-01(48591DE3C19B)	-0.168	-1.257	0.082	-0.366	-83.679	196.045	-77.51	4.89	-117.17	-66.934	-51.254	-11.270	-0.29657	0.34183	-0.50287	0.73636	30.8	13111	100
2025-3-27 18:51:50.361	WT901BLE68-01(48591DE3C19B)	-0.168	-1.198	0.080	0.305	-28.442	204.285	-77.44	6.84	-116.20	-66.934	-51.254	-11.270	-0.29657	0.34183	-0.50287	0.73636	30.8	13111	100
2025-3-27 18:51:50.512	WT901BLE68-01(48591DE3C19B)	-0.189	-1.198	0.080	0.305	-28.442	204.285	-77.36	8.87	-115.46	-66.934	-51.254	-11.270	-0.29657	0.34183	-0.50287	0.73636	30.8	13111	100
2025-3-27 18:51:50.513	WT901BLE68-01(48591DE3C19B)	-0.189	-1.176	0.076	-4.639	19.714	213.684	-77.33	10.98	-114.94	-66.934	-51.254	-11.270	-0.29657	0.34183	-0.50287	0.73636	30.8	13111	100
2025-3-27 18:51:50.513	WT901BLE68-01(48591DE3C19B)	-0.219	-1.176	0.076	-4.639	19.714	213.684	-77.35	13.16	-114.65	-66.934	-51.254	-11.270	-0.29657	0.34183	-0.50287	0.73636	30.8	13111	100
2025-3-27 18:51:50.513	WT901BLE68-01(48591DE3C19B)	-0.219	-1.120	0.085	-12.329	50.293	225.769	-77.44	15.41	-114.48	-66.934	-51.254	-11.270	-0.29657	0.34183	-0.50287	0.73636	30.8	13111	100
2025-3-27 18:51:50.513	WT901BLE68-01(48591DE3C19B)	-0.253	-1.120	0.085	-12.329	50.293	225.769	-77.60	17.73	-114.47	-66.934	-51.254	-11.270	-0.29657	0.34183	-0.50287	0.73636	30.8	13111	100
2025-3-27 18:51:50.513	WT901BLE68-01(48591DE3C19B)	-0.253	-1.132	0.080	-25.208	62.012	238.220	-77.84	20.12	-114.50	-66.934	-51.254	-11.270	-0.29657	0.34183	-0.50287	0.73636	30.8	13111	100
2025-3-27 18:51:50.514	WT901BLE68-01(48591DE3C19B)	-0.295	-1.132	0.080	-25.208	62.012	238.220	-78.18	22.55	-114.59	-66.934	-51.254	-11.270	-0.29657	0.34183	-0.50287	0.73636	30.8	13111	100
2025-3-27 18:51:50.514	WT901BLE68-01(48591DE3C19B)	-0.295	-1.205	0.054	-37.781	58.044	248.718	-78.57	25.02	-114.67	-66.934	-51.254	-11.270	-0.29657	0.34183	-0.50287	0.73636	30.8	13111	100
2025-3-27 18:51:50.602	WT901BLE68-01(48591DE3C19B)	-0.330	-1.205	0.054	-37.781	58.044	248.718	-79.02	27.50	-114.73	-66.934	-51.254	-11.270	-0.29657	0.34183	-0.50287	0.73636	30.8	13111	100
2025-3-27 18:51:50.603	WT901BLE68-01(48591DE3C19B)	-0.330	-1.306	0.015	-47.974	42.603	256.287	-79.49	30.00	-114.72	-66.934	-51.254	-11.270	-0.29657	0.34183	-0.50287	0.73636	30.8	13111	100
2025-3-27 18:51:50.603	WT901BLE68-01(48591DE3C19B)	-0.340	-1.306	0.015	-47.974	42.603	256.287	-79.97	32.51	-114.65	-66.934	-51.254	-11.270	-0.29657	0.34183	-0.50287	0.73636	30.8	13111	100
2025-3-27 18:51:50.603	WT901BLE68-01(48591DE3C19B)	-0.340	-1.456	-0.026	-55.298	20.569	257.507	-80.44	34.99	-114.46	-66.934	-51.254	-11.270	-0.29657	0.34183	-0.50287	0.73636	30.8	13111	100
2025-3-27 18:51:50.603	WT901BLE68-01(48591DE3C19B)	-0.331	-1.456	-0.026	-55.298	20.569	257.507	-80.86	37.44	-114.15	-66.934	-51.254	-11.270	-0.29657	0.34183	-0.50287	0.73636	30.8	13111	100
2025-3-27 18:51:50.603	WT901BLE68-01(48591DE3C19B)	-0.331	-1.667	-0.073	-57.617	-4.517	249.512	-81.20	39.81	-113.71	-66.934	-51.254	-11.270	-0.29657	0.34183	-0.50287	0.73636	30.8	13111	100
2025-3-27 18:51:50.603	WT901BLE68-01(48591DE3C19B)	-0.316	-1.667	-0.073	-57.617	-4.517	249.512	-81.45	42.11	-113.12	-66.934	-51.254	-11.270	-0.29657	0.34183	-0.50287	0.73636	30.8	13111	100
2025-3-27 18:51:50.603	WT901BLE68-01(48591DE3C19B)	-0.316	-1.928	-0.070	-52.795	-33.569	232.544	-81.52	44.29	-112.33	-66.934	-51.254	-11.270	-0.29657	0.34183	-0.50287	0.73636	30.8	13111	100
2025-3-27 18:51:50.603	WT901BLE68-01(48591DE3C19B)	-0.098	-1.928	-0.070	-52.795	-33.569	232.544	-81.40	46.35	-111.34	-66.934	-51.254	-11.270	-0.29657	0.34183	-0.50287	0.73636	30.8	13111	100
2025-3-27 18:51:50.603	WT901BLE68-01(48591DE3C19B)	-0.098	-2.099	-0.025	-37.720	-73.792	193.542	-80.97	48.16	-110.06	-66.934	-51.254	-11.270	-0.29657	0.34183	-0.50287	0.73636	30.8	13111	100
2025-3-27 18:51:50.603	WT901BLE68-01(48591DE3C19B)	0.293	-2.099	-0.025	-37.720	-73.792	193.542	-80.20	49.73	-108.45	-70.070	-31.262	-15.484	-0.29657	0.34183	-0.50287	0.73636	30.8	13111	100
2025-3-27 18:51:50.603	WT901BLE68-01(48591DE3C19B)	0.293	-2.068	-0.022	-21.118	-92.224	145.569	-79.21	51.01	-106.70	-70.070	-31.262	-15.484	-0.29657	0.34183	-0.50287	0.73636	30.8	13111	100
2025-3-27 18:51:50.604	WT901BLE68-01(48591DE3C19B)	0.351	-2.068	-0.022	-21.118	-92.224	145.569	-78.01	51.99	-104.81	-70.070	-31.262	-15.484	-0.29657	0.34183	-0.50287	0.73636	30.8	13111	100
2025-3-27 18:51:50.604	WT901BLE68-01(48591DE3C19B)	0.351	-1.933	0.062	-21.790	-72.998	98.267	-76.94	52.73	-103.10	-70.070	-31.262	-15.484	-0.29657	0.34183	-0.50287	0.73636	30.8	13111	100
2025-3-27 18:51:50.604	WT901BLE68-01(48591DE3C19B)	0.141	-1.933	0.062	-21.790	-72.998	98.267	-76.03	53.23	-101.59	-70.070	-31.262	-15.484	-0.29657	0.34183	-0.50287	0.73636	30.8	13111	100
2025-3-27 18:51:50.604	WT901BLE68-01(48591DE3C19B)	0.141	-1.627	0.146	-29.236	-52.307	49.011	-75.34	53.50	-100.34	-70.070	-31.262	-15.484	-0.29657	0.34183	-0.50287	0.73636	30.8	13111	100
2025-3-27 18:51:50.691	WT901BLE68-01(48591DE3C19B)	0.069	-1.627	0.146	-29.236	-52.307	49.011	-74.92	53.54	-99.36	-70.070	-31.262	-15.484	-0.29657	0.34183	-0.50287	0.73636	30.8	13111	100
2025-3-27 18:51:50.691	WT901BLE68-01(48591DE3C19B)	0.069	-1.388	0.257	-26.917	-62.500	2.441	-74.50	53.34	-98.41	-70.070	-31.262	-15.484	-0.29657	0.34183	-0.50287	0.73636	30.8	13111	100
2025-3-27 18:51:50.691	WT901BLE68-01(48591DE3C19B)	0.160	-1.388	0.257	-26.917	-62.500	2.441	-74.09	52.90	-97.49	-70.070	-31.262	-15.484	-0.29657	0.34183	-0.50287	0.73636	30.8	13111	100
2025-3-27 18:51:50.691	WT901BLE68-01(48591DE3C19B)	0.160	-1.279	0.247	-17.944	-81.787	-36.865	-73.61	52.23	-96.54	-70.070	-31.262	-15.484	-0.67648	0.09888	-0.63367	0.36188	30.8	13111	100
2025-3-27 18:51:50.691	WT901BLE68-01(48591DE3C19B)	0.320	-1.279	0.247	-17.944	-81.787	-36.865	-73.07	51.36	-95.55	-70.070	-31.262	-15.484	-0.67648	0.09888	-0.63367	0.36188	30.8	13111	100
2025-3-27 18:51:50.692	WT901BLE68-01(48591DE3C19B)	0.320	-1.134	0.153	-8.545	-87.402	-65.552	-72.54	50.32	-94.63	-70.070	-31.262	-15.484	-0.67648	0.09888	-0.63367	0.36188	30.8	13111	100
2025-3-27 18:51:50.692	WT901BLE68-01(48591DE3C19B)	0.377	-1.134	0.153	-8.545	-87.402	-65.552	-72.02	49.14	-93.76	-70.070	-31.262	-15.484	-0.67648	0.09888	-0.63367	0.36188	30.8	13111	100
2025-3-27 18:51:50.692	WT901BLE68-01(48591DE3C19B)	0.377	-1.034	0.111	-7.629	-80.383	-88.257	-71.61	47.86	-93.04	-70.070	-31.262	-15.484	-0.67648	0.09888	-0.63367	0.36188	30.8	13111	100
2025-3-27 18:51:50.721	WT901BLE68-01(48591DE3C19B)	0.346	-1.034	0.111	-7.629	-80.383	-88.257	-71.32	46.48	-92.46	-70.070	-31.262	-15.484	-0.67648	0.09888	-0.63367	0.36188	30.8	13111	100
2025-3-27 18:51:50.721	WT901BLE68-01(48591DE3C19B)	0.346	-1.051	0.114	-7.935	-61.768	-110.107	-71.17	45.03	-92.08	-70.070	-31.262	-15.484	-0.67648	0.09888	-0.63367	0.36188	30.8	13111	100
2025-3-27 18:51:50.721	WT901BLE68-01(48591DE3C19B)	0.242	-1.051	0.114	-7.935	-61.768	-110.107	-71.17	43.50	-91.87	-70.070	-31.262	-15.484	-0.67648	0.09888	-0.63367	0.36188	30.8	13111	100
2025-3-27 18:51:50.721	WT901BLE68-01(48591DE3C19B)	0.242	-1.109	0.153	-3.418	-30.762	-134.705	-71.32	41.91	-91.93	-70.070	-31.262	-15.484	-0.67648	0.09888	-0.63367	0.36188	30.8	13111	100
2025-3-27 18:51:50.750	WT901BLE68-01(48591DE3C19B)	0.098	-1.109	0.153	-3.418	-30.762	-134.705	-71.60	40.26	-92.21	-70.070	-31.262	-15.484	-0.67648	0.09888	-0.63367	0.36188	30.8	13111	100
2025-3-27 18:51:50.750	WT901BLE68-01(48591DE3C19B)	0.098	-1.152	0.188	3.967	-3.296	-155.273	-71.95	38.57	-92.69	-70.070	-31.262	-15.484	-0.67648	0.09888	-0.63367	0.36188	30.8	13111	100
2025-3-27 18:51:50.751	WT901BLE68-01(48591DE3C19B)	0.035	-1.152	0.188	3.967	-3.296	-155.273	-72.37	36.82	-93.34	-70.070	-31.262	-15.484	-0.67648	0.09888	-0.63367	0.36188	30.8	13111	100
2025-3-27 18:51:50.751	WT901BLE68-01(48591DE3C19B)	0.035	-1.150	0.202	14.709	12.817	-172.302	-72.76	35.02	-94.08	-70.070	-31.262	-15.484	-0.67648	0.09888	-0.63367	0.36188	30.8	13111	100
2025-3-27 18:51:50.812	WT901BLE68-01(48591DE3C19B)	-0.042	-1.150	0.202	14.709	12.817	-172.302	-73.13	33.18	-94.91	-70.070	-31.262	-15.484	-0.67648	0.09888	-0.63367	0.36188	30.8	13111	100
2025-3-27 18:51:50.812	WT901BLE68-01(48591DE3C19B)	-0.042	-1.083	0.214	19.531	25.391	-188.416	-73.48	31.29	-95.80	-70.070	-31.262	-15.484	-0.67648	0.09888	-0.63367	0.36188	30.8	13111	100
2025-3-27 18:51:50.812	WT901BLE68-01(48591DE3C19B)	-0.128	-1.083	0.214	19.531	25.391	-188.416	-73.81	29.35	-96.75	-70.070	-31.262	-15.484	-0.67648	0.09888	-0.63367	0.36188	30.8	13111	100
2025-3-27 18:51:50.812	WT901BLE68-01(48591DE3C19B)	-0.128	-1.058	0.226	18.982	36.072	-205.200	-74.13	27.35	-97.74	-70.070	-31.262	-15.484	-0.67648	0.09888	-0.63367	0.36188	30.8	13111	100
2025-3-27 18:51:50.871	WT901BLE68-01(48591DE3C19B)	-0.202	-1.058	0.226	18.982	36.072	-205.200	-74.44	25.30	-98.78	-70.070	-31.262	-15.484	-0.67648	0.09888	-0.63367	0.36188	30.8	13111	100
2025-3-27 18:51:50.871	WT901BLE68-01(48591DE3C19B)	-0.202	-1.069	0.210	19.958	45.288	-217.651	-74.73	23.21	-99.85	-70.070	-31.262	-15.484	-0.67648	0.09888	-0.63367	0.36188	30.8	13111	100
2025-3-27 18:51:50.871	WT901BLE68-01(48591DE3C19B)	-0.207	-1.069	0.210	19.958	45.288	-217.651	-74.99	21.09	-100.96	-70.070	-31.262	-15.484	-0.67648	0.09888	-0.63367	0.36188	30.8	13111	100
2025-3-27 18:51:50.871	WT901BLE68-01(48591DE3C19B)	-0.207	-1.031	0.176	21.790	54.504	-229.675	-75.21	18.90	-102.16	-70.070	-31.262	-15.484	-0.67648	0.09888	-0.63367	0.36188	30.8	13111	100
2025-3-27 18:51:50.872	WT901BLE68-01(48591DE3C19B)	-0.199	-1.031	0.176	21.790	54.504	-229.675	-75.39	16.71	-103.34	-77.616	-36.946	-13.034	-0.67648	0.09888	-0.63367	0.36188	30.8	13111	100
2025-3-27 18:51:50.872	WT901BLE68-01(48591DE3C19B)	-0.199	-0.989	0.155	20.142	64.270	-242.737	-75.56	14.44	-104.62	-77.616	-36.946	-13.034	-0.67648	0.09888	-0.63367	0.36188	30.8	13111	100
2025-3-27 18:51:50.872	WT901BLE68-01(48591DE3C19B)	-0.228	-0.989	0.155	20.142	64.270	-242.737	-75.69	12.19	-105.87	-77.616	-36.946	-13.034	-0.67648	0.09888	-0.63367	0.36188	30.8	13111	100
2025-3-27 18:51:50.872	WT901BLE68-01(48591DE3C19B)	-0.228	-0.995	0.148	16.907	69.336	-257.446	-75.81	9.82	-107.19	-77.616	-36.946	-13.034	-0.67648	0.09888	-0.63367	0.36188	30.8	13111	100
2025-3-27 18:51:50.900	WT901BLE68-01(48591DE3C19B)	-0.294	-0.995	0.148	16.907	69.336	-257.446	-75.87	7.47	-108.49	-77.616	-36.946	-13.034	-0.67648	0.09888	-0.63367	0.36188	30.8	13111	100
2025-3-27 18:51:50.900	WT901BLE68-01(48591DE3C19B)	-0.294	-1.042	0.173	14.587	71.960	-270.447	-75.90	5.02	-109.84	-77.616	-36.946	-13.034	-0.67648	0.09888	-0.63367	0.36188	30.8	13111	100
2025-3-27 18:51:50.900	WT901BLE68-01(48591DE3C19B)	-0.399	-1.042	0.173	14.587	71.960	-270.447	-75.88	2.59	-111.17	-77.616	-36.946	-13.034	-0.67648	0.09888	-0.63367	0.36188	30.8	13111	100
2025-3-27 18:51:50.901	WT901BLE68-01(48591DE3C19B)	-0.399	-1.095	0.218	14.709	69.031	-277.344	-75.79	0.10	-112.48	-77.616	-36.946	-13.034	-0.67648	0.09888	-0.63367	0.36188	30.8	13111	100
2025-3-27 18:51:50.961	WT901BLE68-01(48591DE3C19B)	-0.563	-1.095	0.218	14.709	69.031	-277.344	-75.65	-2.35	-113.81	-77.616	-36.946	-13.034	-0.67648	0.09888	-0.63367	0.36188	30.8	13111	100
2025-3-27 18:51:50.962	WT901BLE68-01(48591DE3C19B)	-0.563	-1.141	0.309	17.578	55.847	-276.367	-75.43	-4.80	-115.00	-77.616	-36.946	-13.034	-0.67648	0.09888	-0.63367	0.36188	30.8	13111	100
2025-3-27 18:51:50.962	WT901BLE68-01(48591DE3C19B)	-0.771	-1.141	0.309	17.578	55.847	-276.367	-75.16	-7.22	-116.22	-77.616	-36.946	-13.034	-0.67648	0.09888	-0.63367	0.36188	30.8	13111	100
2025-3-27 18:51:50.962	WT901BLE68-01(48591DE3C19B)	-0.771	-1.162	0.389	24.536	29.907	-261.841	-74.79	-9.53	-117.17	-77.616	-36.946	-13.034	-0.67648	0.09888	-0.63367	0.36188	30.8	13111	100
2025-3-27 18:51:50.990	WT901BLE68-01(48591DE3C19B)	-0.918	-1.162	0.389	24.536	29.907	-261.841	-74.39	-11.81	-118.15	-77.616	-36.946	-13.034	-0.67648	0.09888	-0.63367	0.36188	30.8	13111	100
2025-3-27 18:51:50.991	WT901BLE68-01(48591DE3C19B)	-0.918	-1.147	0.337	23.315	0.732	-235.535	-74.03	-13.89	-118.80	-77.616	-36.946	-13.034	-0.67648	0.09888	-0.63367	0.36188	30.8	13111	100
2025-3-27 18:51:50.991	WT901BLE68-01(48591DE3C19B)	-0.865	-1.147	0.337	23.315	0.732	-235.535	-73.64	-15.93	-119.48	-77.616	-36.946	-13.034	-0.67648	0.09888	-0.63367	0.36188	30.8	13111	100
2025-3-27 18:51:50.991	WT901BLE68-01(48591DE3C19B)	-0.865	-1.256	0.223	14.282	-19.714	-200.562	-73.41	-17.67	-119.88	-77.616	-36.946	-13.034	-0.67648	0.09888	-0.63367	0.36188	30.8	13111	100
2025-3-27 18:51:51.23	WT901BLE68-01(48591DE3C19B)	-0.760	-1.256	0.223	14.282	-19.714	-200.562	-73.15	-19.40	-120.30	-77.616	-36.946	-13.034	-0.67648	0.09888	-0.63367	0.36188	30.8	13111	100
2025-3-27 18:51:51.23	WT901BLE68-01(48591DE3C19B)	-0.760	-1.468	0.179	15.442	-1.953	-156.921	-72.87	-20.64	-120.77	-77.616	-36.946	-13.034	-0.67648	0.09888	-0.63367	0.36188	30.8	13111	100
2025-3-27 18:51:51.23	WT901BLE68-01(48591DE3C19B)	-0.844	-1.468	0.179	15.442	-1.953	-156.921	-72.56	-21.87	-121.26	-77.616	-36.946	-13.034	-0.67648	0.09888	-0.63367	0.36188	30.8	13111	100
2025-3-27 18:51:51.23	WT901BLE68-01(48591DE3C19B)	-0.844	-1.669	0.284	18.860	37.903	-103.333	-72.14	-22.46	-121.99	-77.616	-36.946	-13.034	-0.67648	0.09888	-0.63367	0.36188	30.8	13111	100
2025-3-27 18:51:51.82	WT901BLE68-01(48591DE3C19B)	-0.909	-1.669	0.284	18.860	37.903	-103.333	-71.70	-23.04	-122.73	-77.616	-36.946	-13.034	-0.67648	0.09888	-0.63367	0.36188	30.8	13111	100
2025-3-27 18:51:51.82	WT901BLE68-01(48591DE3C19B)	-0.909	-1.656	0.437	30.273	95.703	-59.509	-70.97	-23.02	-123.93	-77.616	-36.946	-13.034	-0.27271	0.41074	-0.42569	0.75867	30.8	13111	100
2025-3-27 18:51:51.82	WT901BLE68-01(48591DE3C19B)	-0.960	-1.656	0.437	30.273	95.703	-59.509	-70.24	-22.98	-125.13	-77.616	-36.946	-13.034	-0.27271	0.41074	-0.42569	0.75867	30.8	13111	100
2025-3-27 18:51:51.82	WT901BLE68-01(48591DE3C19B)	-0.960	-1.450	0.481	24.597	141.113	-10.559	-69.46	-22.30	-126.62	-77.616	-36.946	-13.034	-0.27271	0.41074	-0.42569	0.75867	30.8	13111	100
2025-3-27 18:51:51.111	WT901BLE68-01(48591DE3C19B)	-0.950	-1.450	0.481	24.597	141.113	-10.559	-68.70	-21.61	-128.10	-77.616	-36.946	-13.034	-0.27271	0.41074	-0.42569	0.75867	30.8	13111	100
2025-3-27 18:51:51.111	WT901BLE68-01(48591DE3C19B)	-0.950	-1.207	0.408	11.353	169.861	33.447	-68.07	-20.39	-129.68	-77.616	-36.946	-13.034	-0.27271	0.41074	-0.42569	0.75867	30.8	13111	100
2025-3-27 18:51:51.111	WT901BLE68-01(48591DE3C19B)	-0.943	-1.207	0.408	11.353	169.861	33.447	-67.46	-19.15	-131.25	-77.616	-36.946	-13.034	-0.27271	0.41074	-0.42569	0.75867	30.8	13111	100
2025-3-27 18:51:51.111	WT901BLE68-01(48591DE3C19B)	-0.943	-1.035	0.275	-9.216	172.974	70.313	-67.14	-17.55	-132.69	-77.616	-36.946	-13.034	-0.27271	0.41074	-0.42569	0.75867	30.8	13111	100
2025-3-27 18:51:51.171	WT901BLE68-01(48591DE3C19B)	-1.021	-1.035	0.275	-9.216	172.974	70.313	-66.86	-15.95	-134.11	-77.616	-36.946	-13.034	-0.27271	0.41074	-0.42569	0.75867	30.8	13111	100
2025-3-27 18:51:51.171	WT901BLE68-01(48591DE3C19B)	-1.021	-0.995	0.160	-33.142	137.634	97.778	-66.97	-14.23	-135.09	-77.616	-36.946	-13.034	-0.27271	0.41074	-0.42569	0.75867	30.8	13111	100
2025-3-27 18:51:51.171	WT901BLE68-01(48591DE3C19B)	-1.102	-0.995	0.160	-33.142	137.634	97.778	-67.11	-12.52	-136.08	-77.616	-36.946	-13.034	-0.27271	0.41074	-0.42569	0.75867	30.8	13111	100
2025-3-27 18:51:51.172	WT901BLE68-01(48591DE3C19B)	-1.102	-0.978	0.096	-52.429	74.402	120.117	-67.60	-10.85	-136.41	-77.616	-36.946	-13.034	-0.27271	0.41074	-0.42569	0.75867	30.8	13111	100
2025-3-27 18:51:51.233	WT901BLE68-01(48591DE3C19B)	-1.122	-0.978	0.096	-52.429	74.402	120.117	-68.08	-9.18	-136.76	-77.616	-36.946	-13.034	-0.27271	0.41074	-0.42569	0.75867	30.8	13111	100
2025-3-27 18:51:51.234	WT901BLE68-01(48591DE3C19B)	-1.122	-0.952	0.055	-68.420	-4.150	141.235	-68.84	-7.62	-136.33	-77.616	-36.946	-13.034	-0.27271	0.41074	-0.42569	0.75867	30.8	13111	100
2025-3-27 18:51:51.234	WT901BLE68-01(48591DE3C19B)	-0.988	-0.952	0.055	-68.420	-4.150	141.235	-69.57	-6.04	-135.95	-77.616	-36.946	-13.034	-0.27271	0.41074	-0.42569	0.75867	30.8	13111	100
2025-3-27 18:51:51.234	WT901BLE68-01(48591DE3C19B)	-0.988	-0.940	0.042	-75.562	-75.500	164.673	-70.42	-4.49	-134.84	-77.616	-36.946	-13.034	-0.27271	0.41074	-0.42569	0.75867	30.8	13111	100
2025-3-27 18:51:51.234	WT901BLE68-01(48591DE3C19B)	-0.807	-0.940	0.042	-75.562	-75.500	164.673	-71.24	-2.93	-133.76	-77.616	-36.946	-13.034	-0.27271	0.41074	-0.42569	0.75867	30.8	13111	100
2025-3-27 18:51:51.234	WT901BLE68-01(48591DE3C19B)	-0.807	-0.926	0.007	-77.698	-138.062	187.683	-72.06	-1.33	-132.03	-77.616	-36.946	-13.034	-0.27271	0.41074	-0.42569	0.75867	30.8	13111	100
2025-3-27 18:51:51.235	WT901BLE68-01(48591DE3C19B)	-0.655	-0.926	0.007	-77.698	-138.062	187.683	-72.84	0.28	-130.31	-77.616	-36.946	-13.034	-0.27271	0.41074	-0.42569	0.75867	30.8	13111	100
2025-3-27 18:51:51.235	WT901BLE68-01(48591DE3C19B)	-0.655	-0.948	-0.017	-74.036	-188.110	205.811	-73.53	1.94	-128.07	-77.616	-36.946	-13.034	-0.27271	0.41074	-0.42569	0.75867	30.8	13111	100
2025-3-27 18:51:51.291	WT901BLE68-01(48591DE3C19B)	-0.573	-0.948	-0.017	-74.036	-188.110	205.811	-74.15	3.61	-125.83	-77.616	-36.946	-13.034	-0.27271	0.41074	-0.42569	0.75867	30.8	13111	100
2025-3-27 18:51:51.291	WT901BLE68-01(48591DE3C19B)	-0.573	-1.033	-0.012	-63.782	-224.426	218.079	-74.59	5.32	-123.19	-77.616	-36.946	-13.034	-0.27271	0.41074	-0.42569	0.75867	30.8	13111	100
2025-3-27 18:51:51.292	WT901BLE68-01(48591DE3C19B)	-0.563	-1.033	-0.012	-63.782	-224.426	218.079	-74.95	7.03	-120.53	-55.370	-47.628	-13.818	-0.27271	0.41074	-0.42569	0.75867	30.8	13111	100
2025-3-27 18:51:51.292	WT901BLE68-01(48591DE3C19B)	-0.505	-1.168	0.028	-46.997	-248.108	224.060	-75.04	8.72	-117.60	-55.370	-47.628	-13.818	-0.27271	0.41074	-0.42569	0.75867	30.8	13111	100
2025-3-27 18:51:51.321	WT901BLE68-01(48591DE3C19B)	-0.505	-1.292	0.060	-22.949	-259.216	224.915	-74.92	10.39	-114.59	-55.370	-47.628	-13.818	-0.27271	0.41074	-0.42569	0.75867	30.8	13111	100
2025-3-27 18:51:51.321	WT901BLE68-01(48591DE3C19B)	-0.371	-1.292	0.060	-22.949	-259.216	224.915	-74.59	12.02	-111.49	-55.370	-47.628	-13.818	-0.27271	0.41074	-0.42569	0.75867	30.8	13111	100
2025-3-27 18:51:51.321	WT901BLE68-01(48591DE3C19B)	-0.371	-1.328	0.043	3.174	-244.202	221.436	-74.05	13.61	-108.44	-55.370	-47.628	-13.818	-0.27271	0.41074	-0.42569	0.75867	30.8	13111	100
2025-3-27 18:51:51.321	WT901BLE68-01(48591DE3C19B)	-0.287	-1.328	0.043	3.174	-244.202	221.436	-73.33	15.16	-105.41	-55.370	-47.628	-13.818	-0.27271	0.41074	-0.42569	0.75867	30.8	13111	100
2025-3-27 18:51:51.351	WT901BLE68-01(48591DE3C19B)	-0.287	-1.280	0.030	24.048	-210.266	216.736	-72.46	16.67	-102.53	-55.370	-47.628	-13.818	-0.27271	0.41074	-0.42569	0.75867	30.8	13111	100
2025-3-27 18:51:51.351	WT901BLE68-01(48591DE3C19B)	-0.252	-1.280	0.030	24.048	-210.266	216.736	-71.47	18.14	-99.77	-55.370	-47.628	-13.818	-0.27271	0.41074	-0.42569	0.75867	30.8	13111	100
2025-3-27 18:51:51.351	WT901BLE68-01(48591DE3C19B)	-0.252	-1.253	0.036	36.682	-166.321	210.388	-70.41	19.59	-97.21	-55.370	-47.628	-13.818	-0.27271	0.41074	-0.42569	0.75867	30.8	13111	100
2025-3-27 18:51:51.351	WT901BLE68-01(48591DE3C19B)	-0.213	-1.253	0.036	36.682	-166.321	210.388	-69.30	21.03	-94.82	-55.370	-47.628	-13.818	-0.27271	0.41074	-0.42569	0.75867	30.8	13111	100
2025-3-27 18:51:51.382	WT901BLE68-01(48591DE3C19B)	-0.213	-1.334	0.071	44.739	-118.958	206.116	-68.16	22.47	-92.64	-55.370	-47.628	-13.818	-0.27271	0.41074	-0.42569	0.75867	30.8	13111	100
2025-3-27 18:51:51.382	WT901BLE68-01(48591DE3C19B)	-0.168	-1.334	0.071	44.739	-118.958	206.116	-67.03	23.93	-90.66	-55.370	-47.628	-13.818	-0.27271	0.41074	-0.42569	0.75867	30.8	13111	100
2025-3-27 18:51:51.382	WT901BLE68-01(48591DE3C19B)	-0.168	-1.365	0.130	55.908	-73.364	208.557	-65.87	25.43	-88.86	-55.370	-47.628	-13.818	-0.27271	0.41074	-0.42569	0.75867	30.8	13111	100
2025-3-27 18:51:51.382	WT901BLE68-01(48591DE3C19B)	-0.192	-1.365	0.130	55.908	-73.364	208.557	-64.69	26.99	-87.24	-55.370	-47.628	-13.818	-0.27271	0.41074	-0.42569	0.75867	30.8	13111	100
2025-3-27 18:51:51.441	WT901BLE68-01(48591DE3C19B)	-0.192	-1.369	0.142	56.702	-37.354	215.454	-63.53	28.61	-85.73	-55.370	-47.628	-13.818	-0.27271	0.41074	-0.42569	0.75867	30.8	13111	100
2025-3-27 18:51:51.441	WT901BLE68-01(48591DE3C19B)	-0.222	-1.369	0.142	56.702	-37.354	215.454	-62.37	30.30	-84.34	-55.370	-47.628	-13.818	-0.27271	0.41074	-0.42569	0.75867	30.8	13111	100
2025-3-27 18:51:51.441	WT901BLE68-01(48591DE3C19B)	-0.222	-1.545	0.063	45.105	-23.010	216.614	-61.26	31.99	-82.96	-55.370	-47.628	-13.818	-0.27271	0.41074	-0.42569	0.75867	30.8	13111	100
2025-3-27 18:51:51.441	WT901BLE68-01(48591DE3C19B)	-0.177	-1.545	0.063	45.105	-23.010	216.614	-60.18	33.68	-81.60	-55.370	-47.628	-13.818	-0.27271	0.41074	-0.42569	0.75867	30.8	13111	100
2025-3-27 18:51:51.470	WT901BLE68-01(48591DE3C19B)	-0.177	-1.785	0.016	37.537	-13.794	210.693	-59.11	35.34	-80.24	-55.370	-47.628	-13.818	-0.27271	0.41074	-0.42569	0.75867	30.8	13111	100
2025-3-27 18:51:51.470	WT901BLE68-01(48591DE3C19B)	-0.197	-1.785	0.016	37.537	-13.794	210.693	-58.07	36.96	-78.91	-55.370	-47.628	-13.818	-0.27271	0.41074	-0.42569	0.75867	30.8	13111	100
2025-3-27 18:51:51.470	WT901BLE68-01(48591DE3C19B)	-0.197	-2.002	-0.056	29.175	-14.099	203.613	-57.01	38.51	-77.54	-55.370	-47.628	-13.818	-0.74881	0.16528	-0.50891	0.39099	30.8	13111	100
2025-3-27 18:51:51.471	WT901BLE68-01(48591DE3C19B)	-0.251	-2.002	-0.056	29.175	-14.099	203.613	-55.96	40.01	-76.14	-55.370	-47.628	-13.818	-0.74881	0.16528	-0.50891	0.39099	30.8	13111	100
2025-3-27 18:51:51.531	WT901BLE68-01(48591DE3C19B)	-0.251	-2.224	-0.143	20.020	-35.706	183.838	-54.87	41.33	-74.63	-55.370	-47.628	-13.818	-0.74881	0.16528	-0.50891	0.39099	30.8	13111	100
2025-3-27 18:51:51.531	WT901BLE68-01(48591DE3C19B)	-0.136	-2.224	-0.143	20.020	-35.706	183.838	-53.73	42.47	-73.04	-55.370	-47.628	-13.818	-0.74881	0.16528	-0.50891	0.39099	30.8	13111	100
2025-3-27 18:51:51.531	WT901BLE68-01(48591DE3C19B)	-0.136	-2.167	-0.199	20.996	-61.768	148.499	-52.55	43.36	-71.40	-55.370	-47.628	-13.818	-0.74881	0.16528	-0.50891	0.39099	30.8	13111	100
2025-3-27 18:51:51.531	WT901BLE68-01(48591DE3C19B)	0.076	-2.167	-0.199	20.996	-61.768	148.499	-51.34	44.01	-69.74	-55.370	-47.628	-13.818	-0.74881	0.16528	-0.50891	0.39099	30.8	13111	100
2025-3-27 18:51:51.560	WT901BLE68-01(48591DE3C19B)	0.076	-1.839	-0.110	14.160	-64.514	106.323	-50.26	44.45	-68.21	-55.370	-47.628	-13.818	-0.74881	0.16528	-0.50891	0.39099	30.8	13111	100
2025-3-27 18:51:51.560	WT901BLE68-01(48591DE3C19B)	0.319	-1.839	-0.110	14.160	-64.514	106.323	-49.33	44.69	-66.87	-55.370	-47.628	-13.818	-0.74881	0.16528	-0.50891	0.39099	30.8	13111	100
2025-3-27 18:51:51.560	WT901BLE68-01(48591DE3C19B)	0.319	-1.436	0.021	-1.892	-51.086	61.218	-48.67	44.79	-65.80	-55.370	-47.628	-13.818	-0.74881	0.16528	-0.50891	0.39099	30.8	13111	100
2025-3-27 18:51:51.560	WT901BLE68-01(48591DE3C19B)	0.480	-1.436	0.021	-1.892	-51.086	61.218	-48.30	44.76	-65.01	-55.370	-47.628	-13.818	-0.74881	0.16528	-0.50891	0.39099	30.8	13111	100
2025-3-27 18:51:51.591	WT901BLE68-01(48591DE3C19B)	0.480	-1.131	0.159	-19.348	-20.325	11.536	-48.30	44.63	-64.63	-55.370	-47.628	-13.818	-0.74881	0.16528	-0.50891	0.39099	30.8	13111	100
2025-3-27 18:51:51.591	WT901BLE68-01(48591DE3C19B)	0.450	-1.131	0.159	-19.348	-20.325	11.536	-48.66	44.41	-64.65	-55.370	-47.628	-13.818	-0.74881	0.16528	-0.50891	0.39099	30.8	13111	100
2025-3-27 18:51:51.591	WT901BLE68-01(48591DE3C19B)	0.450	-1.088	0.163	-29.236	26.306	-33.691	-49.38	44.17	-65.13	-55.370	-47.628	-13.818	-0.74881	0.16528	-0.50891	0.39099	30.8	13111	100
2025-3-27 18:51:51.591	WT901BLE68-01(48591DE3C19B)	0.383	-1.088	0.163	-29.236	26.306	-33.691	-50.46	43.88	-66.04	-55.370	-47.628	-13.818	-0.74881	0.16528	-0.50891	0.39099	30.8	13111	100
2025-3-27 18:51:51.712	WT901BLE68-01(48591DE3C19B)	0.383	-1.086	0.136	-30.640	69.946	-76.050	-51.82	43.56	-67.37	-55.370	-47.628	-13.818	-0.74881	0.16528	-0.50891	0.39099	30.8	13111	100
2025-3-27 18:51:51.712	WT901BLE68-01(48591DE3C19B)	0.372	-1.086	0.136	-30.640	69.946	-76.050	-53.43	43.16	-69.08	-55.370	-47.628	-13.818	-0.74881	0.16528	-0.50891	0.39099	30.8	13111	100
2025-3-27 18:51:51.712	WT901BLE68-01(48591DE3C19B)	0.372	-1.066	0.085	-31.128	107.483	-112.915	-55.26	42.69	-71.11	-55.370	-47.628	-13.818	-0.74881	0.16528	-0.50891	0.39099	30.8	13111	100
2025-3-27 18:51:51.712	WT901BLE68-01(48591DE3C19B)	0.278	-1.066	0.085	-31.128	107.483	-112.915	-57.27	42.11	-73.45	-55.370	-47.628	-13.818	-0.74881	0.16528	-0.50891	0.39099	30.8	13111	100
2025-3-27 18:51:51.713	WT901BLE68-01(48591DE3C19B)	0.278	-1.111	0.049	-28.198	137.695	-142.944	-59.39	41.42	-76.00	-84.672	-32.144	-8.918	-0.74881	0.16528	-0.50891	0.39099	30.8	13111	100
2025-3-27 18:51:51.713	WT901BLE68-01(48591DE3C19B)	0.132	-1.111	0.049	-28.198	137.695	-142.944	-61.58	40.61	-78.76	-84.672	-32.144	-8.918	-0.74881	0.16528	-0.50891	0.39099	30.8	13111	100
2025-3-27 18:51:51.713	WT901BLE68-01(48591DE3C19B)	0.132	-1.168	0.028	-20.569	152.527	-170.227	-63.75	39.63	-81.58	-84.672	-32.144	-8.918	-0.74881	0.16528	-0.50891	0.39099	30.8	13111	100
2025-3-27 18:51:51.713	WT901BLE68-01(48591DE3C19B)	0.000	-1.168	0.028	-20.569	152.527	-170.227	-65.88	38.49	-84.46	-84.672	-32.144	-8.918	-0.74881	0.16528	-0.50891	0.39099	30.8	13111	100
2025-3-27 18:51:51.771	WT901BLE68-01(48591DE3C19B)	0.000	-1.182	0.027	-13.428	148.987	-192.871	-67.86	37.16	-87.26	-84.672	-32.144	-8.918	-0.74881	0.16528	-0.50891	0.39099	30.8	13111	100
2025-3-27 18:51:51.771	WT901BLE68-01(48591DE3C19B)	-0.117	-1.182	0.027	-13.428	148.987	-192.871	-69.70	35.66	-89.97	-84.672	-32.144	-8.918	-0.74881	0.16528	-0.50891	0.39099	30.8	13111	100
2025-3-27 18:51:51.771	WT901BLE68-01(48591DE3C19B)	-0.117	-1.193	0.056	-8.606	130.981	-213.379	-71.34	33.98	-92.50	-84.672	-32.144	-8.918	-0.74881	0.16528	-0.50891	0.39099	30.8	13111	100
2025-3-27 18:51:51.772	WT901BLE68-01(48591DE3C19B)	-0.229	-1.193	0.056	-8.606	130.981	-213.379	-72.78	32.13	-94.84	-84.672	-32.144	-8.918	-0.74881	0.16528	-0.50891	0.39099	30.8	13111	100
2025-3-27 18:51:51.773	WT901BLE68-01(48591DE3C19B)	-0.229	-1.151	0.126	-5.127	103.394	-232.361	-74.02	30.12	-96.95	-84.672	-32.144	-8.918	-0.74881	0.16528	-0.50891	0.39099	30.8	13111	100
2025-3-27 18:51:51.773	WT901BLE68-01(48591DE3C19B)	-0.319	-1.151	0.126	-5.127	103.394	-232.361	-75.06	27.98	-98.83	-84.672	-32.144	-8.918	-0.74881	0.16528	-0.50891	0.39099	30.8	13111	100
2025-3-27 18:51:51.773	WT901BLE68-01(48591DE3C19B)	-0.319	-1.104	0.198	-9.033	70.740	-252.625	-75.89	25.54	-100.34	-84.672	-32.144	-8.918	-0.74881	0.16528	-0.50891	0.39099	30.8	13111	100
2025-3-27 18:51:51.773	WT901BLE68-01(48591DE3C19B)	-0.365	-1.104	0.198	-9.033	70.740	-252.625	-76.63	23.12	-101.77	-84.672	-32.144	-8.918	-0.74881	0.16528	-0.50891	0.39099	30.8	13111	100
2025-3-27 18:51:51.803	WT901BLE68-01(48591DE3C19B)	-0.365	-1.078	0.246	-12.939	39.307	-271.606	-77.21	20.45	-102.85	-84.672	-32.144	-8.918	-0.74881	0.16528	-0.50891	0.39099	30.8	13111	100
2025-3-27 18:51:51.803	WT901BLE68-01(48591DE3C19B)	-0.362	-1.078	0.246	-12.939	39.307	-271.606	-77.72	17.79	-103.89	-84.672	-32.144	-8.918	-0.74881	0.16528	-0.50891	0.39099	30.8	13111	100
2025-3-27 18:51:51.803	WT901BLE68-01(48591DE3C19B)	-0.362	-1.048	0.273	-15.686	23.315	-285.217	-78.16	14.99	-104.74	-84.672	-32.144	-8.918	-0.74881	0.16528	-0.50891	0.39099	30.8	13111	100
2025-3-27 18:51:51.803	WT901BLE68-01(48591DE3C19B)	-0.361	-1.048	0.273	-15.686	23.315	-285.217	-78.54	12.20	-105.57	-84.672	-32.144	-8.918	-0.74881	0.16528	-0.50891	0.39099	30.8	13111	100
2025-3-27 18:51:51.833	WT901BLE68-01(48591DE3C19B)	-0.361	-1.023	0.281	-17.456	17.639	-294.006	-78.88	9.33	-106.34	-84.672	-32.144	-8.918	-0.74881	0.16528	-0.50891	0.39099	30.8	13111	100
2025-3-27 18:51:51.834	WT901BLE68-01(48591DE3C19B)	-0.357	-1.023	0.281	-17.456	17.639	-294.006	-79.17	6.49	-107.08	-84.672	-32.144	-8.918	-0.74881	0.16528	-0.50891	0.39099	30.8	13111	100
2025-3-27 18:51:51.834	WT901BLE68-01(48591DE3C19B)	-0.357	-1.030	0.295	-18.921	22.949	-298.523	-79.44	3.63	-107.86	-84.672	-32.144	-8.918	-0.74881	0.16528	-0.50891	0.39099	30.8	13111	100
2025-3-27 18:51:51.834	WT901BLE68-01(48591DE3C19B)	-0.360	-1.030	0.295	-18.921	22.949	-298.523	-79.66	0.79	-108.63	-84.672	-32.144	-8.918	-0.74881	0.16528	-0.50891	0.39099	30.8	13111	100
2025-3-27 18:51:51.892	WT901BLE68-01(48591DE3C19B)	-0.360	-1.065	0.302	-15.869	33.569	-297.180	-79.80	-2.00	-109.49	-84.672	-32.144	-8.918	-0.74881	0.16528	-0.50891	0.39099	30.8	13111	100
2025-3-27 18:51:51.892	WT901BLE68-01(48591DE3C19B)	-0.423	-1.065	0.302	-15.869	33.569	-297.180	-79.91	-4.77	-110.35	-84.672	-32.144	-8.918	-0.40643	0.39786	-0.50461	0.64944	30.8	13111	100
2025-3-27 18:51:51.892	WT901BLE68-01(48591DE3C19B)	-0.423	-1.134	0.293	-10.132	37.354	-291.199	-79.91	-7.46	-111.24	-84.672	-32.144	-8.918	-0.40643	0.39786	-0.50461	0.64944	30.8	13111	100
2025-3-27 18:51:51.892	WT901BLE68-01(48591DE3C19B)	-0.557	-1.134	0.293	-10.132	37.354	-291.199	-79.87	-10.12	-112.13	-84.672	-32.144	-8.918	-0.40643	0.39786	-0.50461	0.64944	30.8	13111	100
2025-3-27 18:51:51.921	WT901BLE68-01(48591DE3C19B)	-0.557	-1.219	0.282	0.305	26.367	-275.757	-79.70	-12.63	-112.90	-84.672	-32.144	-8.918	-0.40643	0.39786	-0.50461	0.64944	30.8	13111	100
2025-3-27 18:51:51.921	WT901BLE68-01(48591DE3C19B)	-0.688	-1.219	0.282	0.305	26.367	-275.757	-79.50	-15.12	-113.68	-84.672	-32.144	-8.918	-0.40643	0.39786	-0.50461	0.64944	30.8	13111	100
2025-3-27 18:51:51.921	WT901BLE68-01(48591DE3C19B)	-0.688	-1.282	0.300	10.132	4.150	-251.526	-79.24	-17.39	-114.22	-84.672	-32.144	-8.918	-0.40643	0.39786	-0.50461	0.64944	30.8	13111	100
2025-3-27 18:51:51.922	WT901BLE68-01(48591DE3C19B)	-0.704	-1.282	0.300	10.132	4.150	-251.526	-78.95	-19.63	-114.77	-84.672	-32.144	-8.918	-0.40643	0.39786	-0.50461	0.64944	30.8	13111	100
2025-3-27 18:51:51.951	WT901BLE68-01(48591DE3C19B)	-0.704	-1.305	0.333	16.846	-13.245	-218.018	-78.66	-21.56	-115.11	-84.672	-32.144	-8.918	-0.40643	0.39786	-0.50461	0.64944	30.8	13111	100
2025-3-27 18:51:51.951	WT901BLE68-01(48591DE3C19B)	-0.663	-1.305	0.333	16.846	-13.245	-218.018	-78.35	-23.47	-115.46	-84.672	-32.144	-8.918	-0.40643	0.39786	-0.50461	0.64944	30.8	13111	100
2025-3-27 18:51:51.951	WT901BLE68-01(48591DE3C19B)	-0.663	-1.341	0.334	19.104	-4.150	-170.898	-78.01	-24.88	-115.82	-84.672	-32.144	-8.918	-0.40643	0.39786	-0.50461	0.64944	30.8	13111	100
2025-3-27 18:51:51.951	WT901BLE68-01(48591DE3C19B)	-0.621	-1.341	0.334	19.104	-4.150	-170.898	-77.65	-26.28	-116.21	-84.672	-32.144	-8.918	-0.40643	0.39786	-0.50461	0.64944	30.8	13111	100
2025-3-27 18:51:52.11	WT901BLE68-01(48591DE3C19B)	-0.621	-1.323	0.375	24.231	32.532	-124.878	-77.10	-27.15	-116.91	-84.672	-32.144	-8.918	-0.40643	0.39786	-0.50461	0.64944	30.8	13111	100
2025-3-27 18:51:52.12	WT901BLE68-01(48591DE3C19B)	-0.656	-1.323	0.375	24.231	32.532	-124.878	-76.52	-28.00	-117.61	-84.672	-32.144	-8.918	-0.40643	0.39786	-0.50461	0.64944	30.8	13111	100
2025-3-27 18:51:52.12	WT901BLE68-01(48591DE3C19B)	-0.656	-1.333	0.435	20.142	73.853	-80.994	-75.82	-28.32	-118.68	-84.672	-32.144	-8.918	-0.40643	0.39786	-0.50461	0.64944	30.8	13111	100
2025-3-27 18:51:52.12	WT901BLE68-01(48591DE3C19B)	-0.758	-1.333	0.435	20.142	73.853	-80.994	-75.11	-28.62	-119.76	-84.672	-32.144	-8.918	-0.40643	0.39786	-0.50461	0.64944	30.8	13111	100
2025-3-27 18:51:52.43	WT901BLE68-01(48591DE3C19B)	-0.758	-1.406	0.494	16.479	102.051	-40.466	-74.33	-28.44	-121.04	-84.672	-32.144	-8.918	-0.40643	0.39786	-0.50461	0.64944	30.8	13111	100
2025-3-27 18:51:52.43	WT901BLE68-01(48591DE3C19B)	-0.828	-1.406	0.494	16.479	102.051	-40.466	-73.57	-28.25	-122.31	-84.672	-32.144	-8.918	-0.40643	0.39786	-0.50461	0.64944	30.8	13111	100
2025-3-27 18:51:52.44	WT901BLE68-01(48591DE3C19B)	-0.828	-1.364	0.521	11.963	113.464	-6.104	-72.86	-27.67	-123.59	-84.672	-32.144	-8.918	-0.40643	0.39786	-0.50461	0.64944	30.8	13111	100
2025-3-27 18:51:52.44	WT901BLE68-01(48591DE3C19B)	-0.880	-1.364	0.521	11.963	113.464	-6.104	-72.15	-27.09	-124.87	-84.672	-32.144	-8.918	-0.40643	0.39786	-0.50461	0.64944	30.8	13111	100
2025-3-27 18:51:52.73	WT901BLE68-01(48591DE3C19B)	-0.880	-1.245	0.485	1.648	106.567	25.391	-71.66	-26.22	-125.95	-84.672	-32.144	-8.918	-0.40643	0.39786	-0.50461	0.64944	30.8	13111	100
2025-3-27 18:51:52.73	WT901BLE68-01(48591DE3C19B)	-0.948	-1.245	0.485	1.648	106.567	25.391	-71.18	-25.33	-127.03	-84.672	-32.144	-8.918	-0.40643	0.39786	-0.50461	0.64944	30.8	13111	100
2025-3-27 18:51:52.73	WT901BLE68-01(48591DE3C19B)	-0.948	-1.169	0.413	-11.658	76.355	54.199	-71.03	-24.27	-127.68	-50.470	-46.844	-13.916	-0.40643	0.39786	-0.50461	0.64944	30.8	13111	100
2025-3-27 18:51:52.73	WT901BLE68-01(48591DE3C19B)	-1.009	-1.169	0.413	-11.658	76.355	54.199	-70.88	-23.21	-128.34	-50.470	-46.844	-13.916	-0.40643	0.39786	-0.50461	0.64944	30.8	13111	100
2025-3-27 18:51:52.162	WT901BLE68-01(48591DE3C19B)	-1.009	-1.059	0.375	-18.250	24.475	81.787	-71.06	-22.06	-128.36	-50.470	-46.844	-13.916	-0.40643	0.39786	-0.50461	0.64944	30.8	13111	100
2025-3-27 18:51:52.162	WT901BLE68-01(48591DE3C19B)	-0.979	-1.059	0.375	-18.250	24.475	81.787	-71.22	-20.90	-128.41	-50.470	-46.844	-13.916	-0.40643	0.39786	-0.50461	0.64944	30.8	13111	100
2025-3-27 18:51:52.162	WT901BLE68-01(48591DE3C19B)	-0.979	-0.924	0.323	-25.146	-42.175	112.671	-71.71	-19.67	-127.70	-50.470	-46.844	-13.916	-0.40643	0.39786	-0.50461	0.64944	30.8	13111	100
2025-3-27 18:51:52.162	WT901BLE68-01(48591DE3C19B)	-0.834	-0.924	0.323	-25.146	-42.175	112.671	-72.17	-18.43	-127.02	-50.470	-46.844	-13.916	-0.40643	0.39786	-0.50461	0.64944	30.8	13111	100
2025-3-27 18:51:52.163	WT901BLE68-01(48591DE3C19B)	-0.834	-0.868	0.239	-30.151	-103.271	146.240	-72.88	-17.05	-125.65	-50.470	-46.844	-13.916	-0.40643	0.39786	-0.50461	0.64944	30.8	13111	100
2025-3-27 18:51:52.163	WT901BLE68-01(48591DE3C19B)	-0.656	-0.868	0.239	-30.151	-103.271	146.240	-73.53	-15.66	-124.30	-50.470	-46.844	-13.916	-0.40643	0.39786	-0.50461	0.64944	30.8	13111	100
2025-3-27 18:51:52.163	WT901BLE68-01(48591DE3C19B)	-0.656	-0.930	0.137	-32.043	-146.790	177.795	-74.30	-14.08	-122.48	-50.470	-46.844	-13.916	-0.40643	0.39786	-0.50461	0.64944	30.8	13111	100
2025-3-27 18:51:52.163	WT901BLE68-01(48591DE3C19B)	-0.532	-0.930	0.137	-32.043	-146.790	177.795	-75.00	-12.47	-120.67	-50.470	-46.844	-13.916	-0.40643	0.39786	-0.50461	0.64944	30.8	13111	100
2025-3-27 18:51:52.221	WT901BLE68-01(48591DE3C19B)	-0.532	-1.108	0.079	-24.292	-170.044	204.102	-75.63	-10.67	-118.59	-50.470	-46.844	-13.916	-0.40643	0.39786	-0.50461	0.64944	30.8	13111	100
2025-3-27 18:51:52.221	WT901BLE68-01(48591DE3C19B)	-0.469	-1.108	0.079	-24.292	-170.044	204.102	-76.20	-8.85	-116.53	-50.470	-46.844	-13.916	-0.40643	0.39786	-0.50461	0.64944	30.8	13111	100
2025-3-27 18:51:52.221	WT901BLE68-01(48591DE3C19B)	-0.403	-1.290	0.113	-7.324	-177.917	220.337	-76.55	-6.90	-114.37	-50.470	-46.844	-13.916	-0.40643	0.39786	-0.50461	0.64944	30.8	13111	100
2025-3-27 18:51:52.221	WT901BLE68-01(48591DE3C19B)	-0.403	-1.482	0.179	11.841	-175.781	227.783	-76.73	-4.92	-112.21	-50.470	-46.844	-13.916	-0.40643	0.39786	-0.50461	0.64944	30.8	13111	100
2025-3-27 18:51:52.253	WT901BLE68-01(48591DE3C19B)	-0.286	-1.482	0.179	11.841	-175.781	227.783	-76.76	-2.91	-110.06	-50.470	-46.844	-13.916	-0.40643	0.39786	-0.50461	0.64944	30.8	13111	100
2025-3-27 18:51:52.254	WT901BLE68-01(48591DE3C19B)	-0.286	-1.601	0.199	37.476	-154.724	230.652	-76.57	-0.88	-108.00	-50.470	-46.844	-13.916	-0.40643	0.39786	-0.50461	0.64944	30.8	13111	100
2025-3-27 18:51:52.254	WT901BLE68-01(48591DE3C19B)	-0.227	-1.601	0.199	37.476	-154.724	230.652	-76.20	1.14	-106.02	-50.470	-46.844	-13.916	-0.40643	0.39786	-0.50461	0.64944	30.8	13111	100
2025-3-27 18:51:52.254	WT901BLE68-01(48591DE3C19B)	-0.227	-1.559	0.203	59.448	-116.211	232.117	-75.65	3.19	-104.21	-50.470	-46.844	-13.916	-0.40643	0.39786	-0.50461	0.64944	30.8	13111	100
2025-3-27 18:51:52.283	WT901BLE68-01(48591DE3C19B)	-0.232	-1.559	0.203	59.448	-116.211	232.117	-74.95	5.25	-102.56	-50.470	-46.844	-13.916	-0.40643	0.39786	-0.50461	0.64944	30.8	13111	100
2025-3-27 18:51:52.283	WT901BLE68-01(48591DE3C19B)	-0.232	-1.460	0.191	70.313	-73.608	231.812	-74.16	7.31	-101.08	-50.470	-46.844	-13.916	-0.40643	0.39786	-0.50461	0.64944	30.8	13111	100
2025-3-27 18:51:52.283	WT901BLE68-01(48591DE3C19B)	-0.227	-1.460	0.191	70.313	-73.608	231.812	-73.30	9.40	-99.77	-50.470	-46.844	-13.916	-0.40643	0.39786	-0.50461	0.64944	30.8	13111	100
2025-3-27 18:51:52.283	WT901BLE68-01(48591DE3C19B)	-0.227	-1.375	0.166	74.768	-33.264	233.215	-72.39	11.51	-98.61	-50.470	-46.844	-13.916	-0.56836	0.32169	-0.49832	0.57013	30.8	13111	100
2025-3-27 18:51:52.313	WT901BLE68-01(48591DE3C19B)	-0.208	-1.375	0.166	74.768	-33.264	233.215	-71.47	13.66	-97.61	-50.470	-46.844	-13.916	-0.56836	0.32169	-0.49832	0.57013	30.8	13111	100
2025-3-27 18:51:52.313	WT901BLE68-01(48591DE3C19B)	-0.208	-1.235	0.134	75.073	-0.183	237.854	-70.54	15.85	-96.72	-50.470	-46.844	-13.916	-0.56836	0.32169	-0.49832	0.57013	30.8	13111	100
2025-3-27 18:51:52.313	WT901BLE68-01(48591DE3C19B)	-0.186	-1.235	0.134	75.073	-0.183	237.854	-69.61	18.08	-95.94	-50.470	-46.844	-13.916	-0.56836	0.32169	-0.49832	0.57013	30.8	13111	100
2025-3-27 18:51:52.313	WT901BLE68-01(48591DE3C19B)	-0.186	-1.145	0.120	67.627	25.269	242.981	-68.72	20.36	-95.23	-50.470	-46.844	-13.916	-0.56836	0.32169	-0.49832	0.57013	30.8	13111	100
2025-3-27 18:51:52.401	WT901BLE68-01(48591DE3C19B)	-0.179	-1.145	0.120	67.627	25.269	242.981	-67.87	22.68	-94.59	-50.470	-46.844	-13.916	-0.56836	0.32169	-0.49832	0.57013	30.8	13111	100
2025-3-27 18:51:52.401	WT901BLE68-01(48591DE3C19B)	-0.179	-1.103	0.104	59.814	48.706	246.643	-67.07	25.03	-94.02	-50.470	-46.844	-13.916	-0.56836	0.32169	-0.49832	0.57013	30.8	13111	100
2025-3-27 18:51:52.401	WT901BLE68-01(48591DE3C19B)	-0.214	-1.103	0.104	59.814	48.706	246.643	-66.31	27.42	-93.51	-50.470	-46.844	-13.916	-0.56836	0.32169	-0.49832	0.57013	30.8	13111	100
2025-3-27 18:51:52.401	WT901BLE68-01(48591DE3C19B)	-0.214	-1.119	0.104	49.805	59.143	246.826	-65.60	29.81	-93.01	-50.470	-46.844	-13.916	-0.56836	0.32169	-0.49832	0.57013	30.8	13111	100
2025-3-27 18:51:52.402	WT901BLE68-01(48591DE3C19B)	-0.241	-1.119	0.104	49.805	59.143	246.826	-64.93	32.20	-92.53	-50.470	-46.844	-13.916	-0.56836	0.32169	-0.49832	0.57013	30.8	13111	100
2025-3-27 18:51:52.403	WT901BLE68-01(48591DE3C19B)	-0.241	-1.178	0.121	40.222	55.969	241.211	-64.27	34.54	-91.99	-50.470	-46.844	-13.916	-0.56836	0.32169	-0.49832	0.57013	30.8	13111	100
2025-3-27 18:51:52.403	WT901BLE68-01(48591DE3C19B)	-0.267	-1.178	0.121	40.222	55.969	241.211	-63.61	36.83	-91.41	-50.470	-46.844	-13.916	-0.56836	0.32169	-0.49832	0.57013	30.8	13111	100
2025-3-27 18:51:52.403	WT901BLE68-01(48591DE3C19B)	-0.267	-1.273	0.142	31.494	45.471	226.929	-62.94	39.01	-90.76	-50.470	-46.844	-13.916	-0.56836	0.32169	-0.49832	0.57013	30.8	13111	100
2025-3-27 18:51:52.461	WT901BLE68-01(48591DE3C19B)	-0.322	-1.273	0.142	31.494	45.471	226.929	-62.25	41.08	-90.04	-50.470	-46.844	-13.916	-0.56836	0.32169	-0.49832	0.57013	30.8	13111	100
2025-3-27 18:51:52.461	WT901BLE68-01(48591DE3C19B)	-0.322	-1.453	0.121	20.264	32.471	204.590	-61.56	43.01	-89.26	-50.470	-46.844	-13.916	-0.56836	0.32169	-0.49832	0.57013	30.8	13111	100
2025-3-27 18:51:52.461	WT901BLE68-01(48591DE3C19B)	-0.383	-1.453	0.121	20.264	32.471	204.590	-60.88	44.79	-88.43	-50.470	-46.844	-13.916	-0.56836	0.32169	-0.49832	0.57013	30.8	13111	100
2025-3-27 18:51:52.461	WT901BLE68-01(48591DE3C19B)	-0.383	-1.772	0.082	10.376	17.822	176.270	-60.19	46.39	-87.56	-50.470	-46.844	-13.916	-0.56836	0.32169	-0.49832	0.57013	30.8	13111	100
2025-3-27 18:51:52.491	WT901BLE68-01(48591DE3C19B)	-0.363	-1.772	0.082	10.376	17.822	176.270	-59.52	47.82	-86.64	-50.470	-46.844	-13.916	-0.56836	0.32169	-0.49832	0.57013	30.8	13111	100
2025-3-27 18:51:52.491	WT901BLE68-01(48591DE3C19B)	-0.363	-2.121	0.050	7.202	-7.813	139.526	-58.80	49.00	-85.65	-50.470	-46.844	-13.916	-0.56836	0.32169	-0.49832	0.57013	30.8	13111	100
2025-3-27 18:51:52.491	WT901BLE68-01(48591DE3C19B)	-0.196	-2.121	0.050	7.202	-7.813	139.526	-58.04	49.95	-84.61	-50.470	-46.844	-13.916	-0.56836	0.32169	-0.49832	0.57013	30.8	13111	100
2025-3-27 18:51:52.491	WT901BLE68-01(48591DE3C19B)	-0.196	-2.249	-0.013	15.564	-38.452	105.530	-57.16	50.66	-83.46	-50.470	-46.844	-13.916	-0.56836	0.32169	-0.49832	0.57013	30.8	13111	100
2025-3-27 18:51:52.521	WT901BLE68-01(48591DE3C19B)	-0.044	-2.249	-0.013	15.564	-38.452	105.530	-56.18	51.12	-82.23	-73.794	-49.686	-3.234	-0.56836	0.32169	-0.49832	0.57013	30.8	13111	100
2025-3-27 18:51:52.521	WT901BLE68-01(48591DE3C19B)	-0.044	-2.042	0.019	24.780	-64.453	77.942	-55.10	51.37	-80.94	-73.794	-49.686	-3.234	-0.56836	0.32169	-0.49832	0.57013	30.8	13111	100
2025-3-27 18:51:52.521	WT901BLE68-01(48591DE3C19B)	0.301	-2.042	0.019	24.780	-64.453	77.942	-53.94	51.41	-79.60	-73.794	-49.686	-3.234	-0.56836	0.32169	-0.49832	0.57013	30.8	13111	100
2025-3-27 18:51:52.521	WT901BLE68-01(48591DE3C19B)	0.301	-1.800	0.061	20.630	-60.913	45.959	-52.95	51.31	-78.44	-73.794	-49.686	-3.234	-0.56836	0.32169	-0.49832	0.57013	30.8	13111	100
2025-3-27 18:51:52.551	WT901BLE68-01(48591DE3C19B)	0.691	-1.800	0.061	20.630	-60.913	45.959	-52.14	51.08	-77.46	-73.794	-49.686	-3.234	-0.56836	0.32169	-0.49832	0.57013	30.8	13111	100
2025-3-27 18:51:52.551	WT901BLE68-01(48591DE3C19B)	0.691	-1.441	0.047	24.231	-23.499	17.212	-51.61	50.84	-76.88	-73.794	-49.686	-3.234	-0.56836	0.32169	-0.49832	0.57013	30.8	13111	100
2025-3-27 18:51:52.551	WT901BLE68-01(48591DE3C19B)	0.760	-1.441	0.047	24.231	-23.499	17.212	-51.38	50.58	-76.69	-73.794	-49.686	-3.234	-0.56836	0.32169	-0.49832	0.57013	30.8	13111	100
2025-3-27 18:51:52.551	WT901BLE68-01(48591DE3C19B)	0.760	-1.029	0.057	16.296	14.343	-16.724	-51.49	50.30	-76.90	-73.794	-49.686	-3.234	-0.56836	0.32169	-0.49832	0.57013	30.8	13111	100
2025-3-27 18:51:52.611	WT901BLE68-01(48591DE3C19B)	0.578	-1.029	0.057	16.296	14.343	-16.724	-51.94	49.99	-77.50	-73.794	-49.686	-3.234	-0.56836	0.32169	-0.49832	0.57013	30.8	13111	100
2025-3-27 18:51:52.612	WT901BLE68-01(48591DE3C19B)	0.578	-0.891	0.104	-7.507	43.579	-62.500	-52.81	49.57	-78.49	-73.794	-49.686	-3.234	-0.56836	0.32169	-0.49832	0.57013	30.8	13111	100
2025-3-27 18:51:52.612	WT901BLE68-01(48591DE3C19B)	0.412	-0.891	0.104	-7.507	43.579	-62.500	-54.06	49.03	-79.84	-73.794	-49.686	-3.234	-0.56836	0.32169	-0.49832	0.57013	30.8	13111	100
2025-3-27 18:51:52.612	WT901BLE68-01(48591DE3C19B)	0.412	-1.020	0.215	-23.254	66.772	-113.220	-55.62	48.33	-81.52	-73.794	-49.686	-3.234	-0.56836	0.32169	-0.49832	0.57013	30.8	13111	100
2025-3-27 18:51:52.643	WT901BLE68-01(48591DE3C19B)	0.214	-1.020	0.215	-23.254	66.772	-113.220	-57.45	47.45	-83.49	-73.794	-49.686	-3.234	-0.56836	0.32169	-0.49832	0.57013	30.8	13111	100
2025-3-27 18:51:52.643	WT901BLE68-01(48591DE3C19B)	0.214	-1.112	0.280	-27.283	83.740	-157.715	-59.40	46.38	-85.65	-73.794	-49.686	-3.234	-0.56836	0.32169	-0.49832	0.57013	30.8	13111	100
2025-3-27 18:51:52.643	WT901BLE68-01(48591DE3C19B)	0.039	-1.112	0.280	-27.283	83.740	-157.715	-61.45	45.11	-87.96	-73.794	-49.686	-3.234	-0.56836	0.32169	-0.49832	0.57013	30.8	13111	100
2025-3-27 18:51:52.643	WT901BLE68-01(48591DE3C19B)	0.039	-1.127	0.265	-23.987	79.407	-192.932	-63.40	43.63	-90.23	-73.794	-49.686	-3.234	-0.56836	0.32169	-0.49832	0.57013	30.8	13111	100
2025-3-27 18:51:52.673	WT901BLE68-01(48591DE3C19B)	-0.072	-1.127	0.265	-23.987	79.407	-192.932	-65.23	41.94	-92.44	-73.794	-49.686	-3.234	-0.56836	0.32169	-0.49832	0.57013	30.8	13111	100
2025-3-27 18:51:52.673	WT901BLE68-01(48591DE3C19B)	-0.072	-1.111	0.189	-14.343	66.101	-215.027	-66.86	40.08	-94.49	-73.794	-49.686	-3.234	-0.56836	0.32169	-0.49832	0.57013	30.8	13111	100
2025-3-27 18:51:52.673	WT901BLE68-01(48591DE3C19B)	-0.104	-1.111	0.189	-14.343	66.101	-215.027	-68.28	38.08	-96.38	-73.794	-49.686	-3.234	-0.65802	0.15237	-0.57541	0.46106	30.8	13111	100
2025-3-27 18:51:52.673	WT901BLE68-01(48591DE3C19B)	-0.104	-1.042	0.134	-5.432	55.542	-233.276	-69.45	35.85	-98.11	-73.794	-49.686	-3.234	-0.65802	0.15237	-0.57541	0.46106	30.8	13111	100
2025-3-27 18:51:52.731	WT901BLE68-01(48591DE3C19B)	-0.138	-1.042	0.134	-5.432	55.542	-233.276	-70.50	33.61	-99.73	-73.794	-49.686	-3.234	-0.65802	0.15237	-0.57541	0.46106	30.8	13111	100
2025-3-27 18:51:52.732	WT901BLE68-01(48591DE3C19B)	-0.138	-1.008	0.059	-9.644	37.354	-244.934	-71.41	31.20	-101.11	-73.794	-49.686	-3.234	-0.65802	0.15237	-0.57541	0.46106	30.8	13111	100
2025-3-27 18:51:52.732	WT901BLE68-01(48591DE3C19B)	-0.172	-1.008	0.059	-9.644	37.354	-244.934	-72.22	28.80	-102.39	-73.794	-49.686	-3.234	-0.65802	0.15237	-0.57541	0.46106	30.8	13111	100
2025-3-27 18:51:52.732	WT901BLE68-01(48591DE3C19B)	-0.172	-1.074	0.003	-17.639	5.493	-259.460	-72.89	26.16	-103.31	-73.794	-49.686	-3.234	-0.65802	0.15237	-0.57541	0.46106	30.8	13111	100
2025-3-27 18:51:52.760	WT901BLE68-01(48591DE3C19B)	-0.215	-1.074	0.003	-17.639	5.493	-259.460	-73.50	23.53	-104.17	-73.794	-49.686	-3.234	-0.65802	0.15237	-0.57541	0.46106	30.8	13111	100
2025-3-27 18:51:52.760	WT901BLE68-01(48591DE3C19B)	-0.215	-1.184	0.034	-24.231	-19.165	-267.456	-74.04	20.78	-104.75	-73.794	-49.686	-3.234	-0.65802	0.15237	-0.57541	0.46106	30.8	13111	100
2025-3-27 18:51:52.760	WT901BLE68-01(48591DE3C19B)	-0.265	-1.184	0.034	-24.231	-19.165	-267.456	-74.53	18.04	-105.29	-73.794	-49.686	-3.234	-0.65802	0.15237	-0.57541	0.46106	30.8	13111	100
2025-3-27 18:51:52.760	WT901BLE68-01(48591DE3C19B)	-0.265	-1.250	0.114	-28.015	-11.902	-272.583	-75.05	15.29	-105.89	-73.794	-49.686	-3.234	-0.65802	0.15237	-0.57541	0.46106	30.8	13111	100
2025-3-27 18:51:52.791	WT901BLE68-01(48591DE3C19B)	-0.403	-1.250	0.114	-28.015	-11.902	-272.583	-75.53	12.56	-106.45	-73.794	-49.686	-3.234	-0.65802	0.15237	-0.57541	0.46106	30.8	13111	100
2025-3-27 18:51:52.791	WT901BLE68-01(48591DE3C19B)	-0.403	-1.306	0.207	-29.663	18.433	-280.151	-76.04	9.85	-107.29	-73.794	-49.686	-3.234	-0.65802	0.15237	-0.57541	0.46106	30.8	13111	100
2025-3-27 18:51:52.791	WT901BLE68-01(48591DE3C19B)	-0.522	-1.306	0.207	-29.663	18.433	-280.151	-76.51	7.15	-108.11	-73.794	-49.686	-3.234	-0.65802	0.15237	-0.57541	0.46106	30.8	13111	100
2025-3-27 18:51:52.791	WT901BLE68-01(48591DE3C19B)	-0.522	-1.327	0.279	-27.039	44.861	-285.339	-76.94	4.49	-109.17	-73.794	-49.686	-3.234	-0.65802	0.15237	-0.57541	0.46106	30.8	13111	100
2025-3-27 18:51:52.853	WT901BLE68-01(48591DE3C19B)	-0.592	-1.327	0.279	-27.039	44.861	-285.339	-77.31	1.85	-110.21	-73.794	-49.686	-3.234	-0.65802	0.15237	-0.57541	0.46106	30.8	13111	100
2025-3-27 18:51:52.853	WT901BLE68-01(48591DE3C19B)	-0.592	-1.320	0.316	-18.921	61.462	-282.166	-77.54	-0.71	-111.39	-73.794	-49.686	-3.234	-0.65802	0.15237	-0.57541	0.46106	30.8	13111	100
2025-3-27 18:51:52.853	WT901BLE68-01(48591DE3C19B)	-0.669	-1.320	0.316	-18.921	61.462	-282.166	-77.71	-3.25	-112.57	-73.794	-49.686	-3.234	-0.65802	0.15237	-0.57541	0.46106	30.8	13111	100
2025-3-27 18:51:52.853	WT901BLE68-01(48591DE3C19B)	-0.669	-1.313	0.298	-9.644	61.646	-268.921	-77.74	-5.64	-113.71	-73.794	-49.686	-3.234	-0.65802	0.15237	-0.57541	0.46106	30.8	13111	100
2025-3-27 18:51:52.912	WT901BLE68-01(48591DE3C19B)	-0.704	-1.313	0.298	-9.644	61.646	-268.921	-77.72	-8.00	-114.87	-73.794	-49.686	-3.234	-0.65802	0.15237	-0.57541	0.46106	30.8	13111	100
2025-3-27 18:51:52.912	WT901BLE68-01(48591DE3C19B)	-0.704	-1.236	0.260	2.319	46.814	-247.070	-77.56	-10.16	-115.85	-73.794	-49.686	-3.234	-0.65802	0.15237	-0.57541	0.46106	30.8	13111	100
2025-3-27 18:51:52.912	WT901BLE68-01(48591DE3C19B)	-0.651	-1.236	0.260	2.319	46.814	-247.070	-77.37	-12.29	-116.83	-73.794	-49.686	-3.234	-0.65802	0.15237	-0.57541	0.46106	30.8	13111	100
2025-3-27 18:51:52.912	WT901BLE68-01(48591DE3C19B)	-0.651	-1.072	0.254	7.690	30.945	-222.900	-77.12	-14.21	-117.64	-50.666	-46.452	-8.330	-0.65802	0.15237	-0.57541	0.46106	30.8	13111	100
2025-3-27 18:51:52.940	WT901BLE68-01(48591DE3C19B)	-0.637	-1.072	0.254	7.690	30.945	-222.900	-76.85	-16.09	-118.45	-50.666	-46.452	-8.330	-0.65802	0.15237	-0.57541	0.46106	30.8	13111	100
2025-3-27 18:51:52.940	WT901BLE68-01(48591DE3C19B)	-0.637	-1.003	0.305	2.197	16.968	-194.519	-76.66	-17.73	-119.09	-50.666	-46.452	-8.330	-0.65802	0.15237	-0.57541	0.46106	30.8	13111	100
2025-3-27 18:51:52.941	WT901BLE68-01(48591DE3C19B)	-0.673	-1.003	0.305	2.197	16.968	-194.519	-76.44	-19.34	-119.75	-50.666	-46.452	-8.330	-0.65802	0.15237	-0.57541	0.46106	30.8	13111	100
2025-3-27 18:51:52.941	WT901BLE68-01(48591DE3C19B)	-0.673	-1.160	0.399	-10.864	7.690	-166.443	-76.38	-20.68	-120.25	-50.666	-46.452	-8.330	-0.65802	0.15237	-0.57541	0.46106	30.8	13111	100
2025-3-27 18:51:52.971	WT901BLE68-01(48591DE3C19B)	-0.821	-1.160	0.399	-10.864	7.690	-166.443	-76.31	-22.02	-120.77	-50.666	-46.452	-8.330	-0.65802	0.15237	-0.57541	0.46106	30.8	13111	100
2025-3-27 18:51:52.971	WT901BLE68-01(48591DE3C19B)	-0.821	-1.403	0.523	-13.000	2.808	-137.695	-76.28	-23.08	-121.18	-50.666	-46.452	-8.330	-0.65802	0.15237	-0.57541	0.46106	30.8	13111	100
2025-3-27 18:51:52.971	WT901BLE68-01(48591DE3C19B)	-0.920	-1.403	0.523	-13.000	2.808	-137.695	-76.23	-24.12	-121.61	-50.666	-46.452	-8.330	-0.65802	0.15237	-0.57541	0.46106	30.8	13111	100
2025-3-27 18:51:52.971	WT901BLE68-01(48591DE3C19B)	-0.920	-1.538	0.536	-13.855	-5.798	-110.657	-76.25	-24.92	-121.89	-50.666	-46.452	-8.330	-0.65802	0.15237	-0.57541	0.46106	30.8	13111	100
2025-3-27 18:51:53.0	WT901BLE68-01(48591DE3C19B)	-0.901	-1.538	0.536	-13.855	-5.798	-110.657	-76.25	-25.71	-122.18	-50.666	-46.452	-8.330	-0.65802	0.15237	-0.57541	0.46106	30.8	13111	100
2025-3-27 18:51:53.0	WT901BLE68-01(48591DE3C19B)	-0.901	-1.535	0.503	-12.085	-14.893	-82.581	-76.31	-26.25	-122.30	-50.666	-46.452	-8.330	-0.65802	0.15237	-0.57541	0.46106	30.8	13111	100
2025-3-27 18:51:53.0	WT901BLE68-01(48591DE3C19B)	-0.858	-1.535	0.503	-12.085	-14.893	-82.581	-76.36	-26.78	-122.43	-50.666	-46.452	-8.330	-0.65802	0.15237	-0.57541	0.46106	30.8	13111	100
2025-3-27 18:51:53.1	WT901BLE68-01(48591DE3C19B)	-0.858	-1.456	0.521	-10.864	-21.484	-51.453	-76.46	-27.02	-122.40	-50.666	-46.452	-8.330	-0.65802	0.15237	-0.57541	0.46106	30.8	13111	100
2025-3-27 18:51:53.122	WT901BLE68-01(48591DE3C19B)	-0.818	-1.456	0.521	-10.864	-21.484	-51.453	-76.56	-27.26	-122.38	-50.666	-46.452	-8.330	-0.65802	0.15237	-0.57541	0.46106	30.8	13111	100
2025-3-27 18:51:53.122	WT901BLE68-01(48591DE3C19B)	-0.818	-1.395	0.555	-10.071	-30.457	-18.372	-76.73	-27.20	-122.18	-50.666	-46.452	-8.330	-0.65802	0.15237	-0.57541	0.46106	30.8	13111	100
2025-3-27 18:51:53.122	WT901BLE68-01(48591DE3C19B)	-0.760	-1.395	0.555	-10.071	-30.457	-18.372	-76.90	-27.14	-121.99	-50.666	-46.452	-8.330	-0.65802	0.15237	-0.57541	0.46106	30.8	13111	100
2025-3-27 18:51:53.122	WT901BLE68-01(48591DE3C19B)	-0.760	-1.247	0.580	-3.540	-36.743	16.235	-77.07	-26.75	-121.64	-50.666	-46.452	-8.330	-0.65802	0.15237	-0.57541	0.46106	30.8	13111	100
2025-3-27 18:51:53.123	WT901BLE68-01(48591DE3C19B)	-0.724	-1.247	0.580	-3.540	-36.743	16.235	-77.22	-26.37	-121.30	-50.666	-46.452	-8.330	-0.65802	0.15237	-0.57541	0.46106	30.8	13111	100
2025-3-27 18:51:53.123	WT901BLE68-01(48591DE3C19B)	-0.724	-1.071	0.556	-1.343	-43.823	51.086	-77.42	-25.66	-120.81	-50.666	-46.452	-8.330	-0.65802	0.15237	-0.57541	0.46106	30.8	13111	100
2025-3-27 18:51:53.123	WT901BLE68-01(48591DE3C19B)	-0.697	-1.071	0.556	-1.343	-43.823	51.086	-77.59	-24.96	-120.33	-50.666	-46.452	-8.330	-0.65802	0.15237	-0.57541	0.46106	30.8	13111	100
2025-3-27 18:51:53.123	WT901BLE68-01(48591DE3C19B)	-0.697	-0.996	0.492	2.747	-58.411	88.074	-77.81	-23.92	-119.62	-50.666	-46.452	-8.330	-0.65802	0.15237	-0.57541	0.46106	30.8	13111	100
2025-3-27 18:51:53.124	WT901BLE68-01(48591DE3C19B)	-0.609	-0.996	0.492	2.747	-58.411	88.074	-78.00	-22.89	-118.93	-50.666	-46.452	-8.330	-0.65802	0.15237	-0.57541	0.46106	30.8	13111	100
2025-3-27 18:51:53.124	WT901BLE68-01(48591DE3C19B)	-0.609	-0.885	0.393	11.292	-76.355	126.709	-78.20	-21.52	-117.97	-50.666	-46.452	-8.330	-0.65802	0.15237	-0.57541	0.46106	30.8	13111	100
2025-3-27 18:51:53.124	WT901BLE68-01(48591DE3C19B)	-0.464	-0.885	0.393	11.292	-76.355	126.709	-78.35	-20.16	-117.03	-50.666	-46.452	-8.330	-0.65802	0.15237	-0.57541	0.46106	30.8	13111	100
2025-3-27 18:51:53.124	WT901BLE68-01(48591DE3C19B)	-0.357	-0.824	0.258	12.878	-90.393	161.865	-78.54	-18.49	-115.89	-50.666	-46.452	-8.330	-0.65802	0.15237	-0.57541	0.46106	30.8	13111	100
2025-3-27 18:51:53.181	WT901BLE68-01(48591DE3C19B)	-0.357	-0.941	0.165	14.160	-97.473	191.162	-78.71	-16.68	-114.70	-50.666	-46.452	-8.330	-0.65802	0.15237	-0.57541	0.46106	30.8	13111	100
2025-3-27 18:51:53.182	WT901BLE68-01(48591DE3C19B)	-0.314	-0.941	0.165	14.160	-97.473	191.162	-78.84	-14.75	-113.44	-50.666	-46.452	-8.330	-0.36050	0.42621	-0.47415	0.68076	30.8	13111	100
2025-3-27 18:51:53.182	WT901BLE68-01(48591DE3C19B)	-0.314	-1.172	0.123	20.569	-102.356	210.815	-78.92	-12.74	-112.15	-50.666	-46.452	-8.330	-0.36050	0.42621	-0.47415	0.68076	30.8	13111	100
2025-3-27 18:51:53.182	WT901BLE68-01(48591DE3C19B)	-0.249	-1.172	0.123	20.569	-102.356	210.815	-78.94	-10.65	-110.82	-50.666	-46.452	-8.330	-0.36050	0.42621	-0.47415	0.68076	30.8	13111	100
2025-3-27 18:51:53.216	WT901BLE68-01(48591DE3C19B)	-0.249	-1.390	0.122	32.227	-106.934	221.802	-78.86	-8.53	-109.45	-50.666	-46.452	-8.330	-0.36050	0.42621	-0.47415	0.68076	30.8	13111	100
2025-3-27 18:51:53.216	WT901BLE68-01(48591DE3C19B)	-0.145	-1.390	0.122	32.227	-106.934	221.802	-78.69	-6.38	-108.03	-50.666	-46.452	-8.330	-0.36050	0.42621	-0.47415	0.68076	30.8	13111	100
2025-3-27 18:51:53.216	WT901BLE68-01(48591DE3C19B)	-0.145	-1.486	0.132	52.979	-96.619	227.722	-78.37	-4.22	-106.64	-50.666	-46.452	-8.330	-0.36050	0.42621	-0.47415	0.68076	30.8	13111	100
2025-3-27 18:51:53.216	WT901BLE68-01(48591DE3C19B)	-0.086	-1.486	0.132	52.979	-96.619	227.722	-77.90	-2.05	-105.28	-50.666	-46.452	-8.330	-0.36050	0.42621	-0.47415	0.68076	30.8	13111	100
2025-3-27 18:51:53.271	WT901BLE68-01(48591DE3C19B)	-0.086	-1.379	0.152	70.068	-71.594	228.821	-77.31	0.10	-104.01	-50.666	-46.452	-8.330	-0.36050	0.42621	-0.47415	0.68076	30.8	13111	100
2025-3-27 18:51:53.272	WT901BLE68-01(48591DE3C19B)	-0.113	-1.379	0.152	70.068	-71.594	228.821	-76.59	2.26	-102.83	-50.666	-46.452	-8.330	-0.36050	0.42621	-0.47415	0.68076	30.8	13111	100
2025-3-27 18:51:53.272	WT901BLE68-01(48591DE3C19B)	-0.113	-1.263	0.187	73.486	-45.349	224.121	-75.82	4.40	-101.76	-50.666	-46.452	-8.330	-0.36050	0.42621	-0.47415	0.68076	30.8	13111	100
2025-3-27 18:51:53.272	WT901BLE68-01(48591DE3C19B)	-0.174	-1.263	0.187	73.486	-45.349	224.121	-75.01	6.51	-100.78	-50.666	-46.452	-8.330	-0.36050	0.42621	-0.47415	0.68076	30.8	13111	100
2025-3-27 18:51:53.300	WT901BLE68-01(48591DE3C19B)	-0.174	-1.229	0.223	74.219	-17.029	216.492	-74.19	8.59	-99.91	-50.666	-46.452	-8.330	-0.36050	0.42621	-0.47415	0.68076	30.8	13111	100
2025-3-27 18:51:53.300	WT901BLE68-01(48591DE3C19B)	-0.271	-1.229	0.223	74.219	-17.029	216.492	-73.34	10.64	-99.16	-50.666	-46.452	-8.330	-0.36050	0.42621	-0.47415	0.68076	30.8	13111	100
2025-3-27 18:51:53.301	WT901BLE68-01(48591DE3C19B)	-0.271	-1.219	0.267	75.745	7.568	211.914	-72.50	12.68	-98.49	-50.666	-46.452	-8.330	-0.36050	0.42621	-0.47415	0.68076	30.8	13111	100
2025-3-27 18:51:53.301	WT901BLE68-01(48591DE3C19B)	-0.284	-1.219	0.267	75.745	7.568	211.914	-71.64	14.72	-97.92	-50.666	-46.452	-8.330	-0.36050	0.42621	-0.47415	0.68076	30.8	13111	100
2025-3-27 18:51:53.331	WT901BLE68-01(48591DE3C19B)	-0.284	-1.206	0.219	75.745	29.785	207.031	-70.80	16.74	-97.43	-63.504	-51.058	-0.196	-0.36050	0.42621	-0.47415	0.68076	30.8	13111	100
2025-3-27 18:51:53.332	WT901BLE68-01(48591DE3C19B)	-0.245	-1.206	0.219	75.745	29.785	207.031	-69.96	18.76	-97.02	-63.504	-51.058	-0.196	-0.36050	0.42621	-0.47415	0.68076	30.8	13111	100
2025-3-27 18:51:53.332	WT901BLE68-01(48591DE3C19B)	-0.245	-1.112	0.122	71.838	47.546	202.942	-69.16	20.78	-96.66	-63.504	-51.058	-0.196	-0.36050	0.42621	-0.47415	0.68076	30.8	13111	100
2025-3-27 18:51:53.332	WT901BLE68-01(48591DE3C19B)	-0.243	-1.112	0.122	71.838	47.546	202.942	-68.40	22.79	-96.37	-63.504	-51.058	-0.196	-0.36050	0.42621	-0.47415	0.68076	30.8	13111	100
2025-3-27 18:51:53.391	WT901BLE68-01(48591DE3C19B)	-0.243	-1.037	0.041	62.866	54.443	198.608	-67.68	24.77	-96.08	-63.504	-51.058	-0.196	-0.36050	0.42621	-0.47415	0.68076	30.8	13111	100
2025-3-27 18:51:53.391	WT901BLE68-01(48591DE3C19B)	-0.296	-1.037	0.041	62.866	54.443	198.608	-67.01	26.73	-95.80	-63.504	-51.058	-0.196	-0.36050	0.42621	-0.47415	0.68076	30.8	13111	100
2025-3-27 18:51:53.391	WT901BLE68-01(48591DE3C19B)	-0.296	-1.076	0.009	49.866	45.898	194.885	-66.37	28.65	-95.45	-63.504	-51.058	-0.196	-0.36050	0.42621	-0.47415	0.68076	30.8	13111	100
2025-3-27 18:51:53.391	WT901BLE68-01(48591DE3C19B)	-0.308	-1.076	0.009	49.866	45.898	194.885	-65.76	30.51	-95.03	-63.504	-51.058	-0.196	-0.36050	0.42621	-0.47415	0.68076	30.8	13111	100
2025-3-27 18:51:53.421	WT901BLE68-01(48591DE3C19B)	-0.308	-1.113	-0.019	43.884	28.015	191.223	-65.12	32.31	-94.48	-63.504	-51.058	-0.196	-0.36050	0.42621	-0.47415	0.68076	30.8	13111	100
2025-3-27 18:51:53.421	WT901BLE68-01(48591DE3C19B)	-0.307	-1.113	-0.019	43.884	28.015	191.223	-64.43	34.04	-93.81	-63.504	-51.058	-0.196	-0.36050	0.42621	-0.47415	0.68076	30.8	13111	100
2025-3-27 18:51:53.421	WT901BLE68-01(48591DE3C19B)	-0.307	-1.080	-0.020	37.415	8.423	187.378	-63.69	35.69	-93.00	-63.504	-51.058	-0.196	-0.36050	0.42621	-0.47415	0.68076	30.8	13111	100
2025-3-27 18:51:53.421	WT901BLE68-01(48591DE3C19B)	-0.297	-1.080	-0.020	37.415	8.423	187.378	-62.89	37.27	-92.06	-63.504	-51.058	-0.196	-0.36050	0.42621	-0.47415	0.68076	30.8	13111	100
2025-3-27 18:51:53.453	WT901BLE68-01(48591DE3C19B)	-0.297	-1.071	-0.009	30.273	-9.399	180.786	-62.03	38.75	-90.98	-63.504	-51.058	-0.196	-0.36050	0.42621	-0.47415	0.68076	30.8	13111	100
2025-3-27 18:51:53.453	WT901BLE68-01(48591DE3C19B)	-0.308	-1.071	-0.009	30.273	-9.399	180.786	-61.12	40.14	-89.77	-63.504	-51.058	-0.196	-0.36050	0.42621	-0.47415	0.68076	30.8	13111	100
2025-3-27 18:51:53.453	WT901BLE68-01(48591DE3C19B)	-0.308	-1.096	0.014	23.010	-25.452	170.654	-60.14	41.42	-88.46	-63.504	-51.058	-0.196	-0.36050	0.42621	-0.47415	0.68076	30.8	13111	100
2025-3-27 18:51:53.453	WT901BLE68-01(48591DE3C19B)	-0.312	-1.096	0.014	23.010	-25.452	170.654	-59.13	42.60	-87.03	-63.504	-51.058	-0.196	-0.36050	0.42621	-0.47415	0.68076	30.8	13111	100
2025-3-27 18:51:53.483	WT901BLE68-01(48591DE3C19B)	-0.312	-1.156	0.070	15.808	-43.091	157.959	-58.05	43.66	-85.50	-63.504	-51.058	-0.196	-0.36050	0.42621	-0.47415	0.68076	30.8	13111	100
2025-3-27 18:51:53.483	WT901BLE68-01(48591DE3C19B)	-0.290	-1.156	0.070	15.808	-43.091	157.959	-56.93	44.59	-83.87	-63.504	-51.058	-0.196	-0.36050	0.42621	-0.47415	0.68076	30.8	13111	100
2025-3-27 18:51:53.483	WT901BLE68-01(48591DE3C19B)	-0.290	-1.255	0.119	11.658	-54.749	142.639	-55.78	45.39	-82.19	-63.504	-51.058	-0.196	-0.73666	0.09930	-0.53937	0.39554	30.8	13111	100
2025-3-27 18:51:53.484	WT901BLE68-01(48591DE3C19B)	-0.255	-1.255	0.119	11.658	-54.749	142.639	-54.60	46.07	-80.46	-63.504	-51.058	-0.196	-0.73666	0.09930	-0.53937	0.39554	30.8	13111	100
2025-3-27 18:51:53.542	WT901BLE68-01(48591DE3C19B)	-0.255	-1.284	0.148	10.681	-55.664	126.831	-53.44	46.66	-78.77	-63.504	-51.058	-0.196	-0.73666	0.09930	-0.53937	0.39554	30.8	13111	100
2025-3-27 18:51:53.542	WT901BLE68-01(48591DE3C19B)	-0.215	-1.284	0.148	10.681	-55.664	126.831	-52.29	47.15	-77.12	-63.504	-51.058	-0.196	-0.73666	0.09930	-0.53937	0.39554	30.8	13111	100
2025-3-27 18:51:53.542	WT901BLE68-01(48591DE3C19B)	-0.215	-1.323	0.144	5.737	-47.852	106.323	-51.26	47.57	-75.60	-63.504	-51.058	-0.196	-0.73666	0.09930	-0.53937	0.39554	30.8	13111	100
2025-3-27 18:51:53.542	WT901BLE68-01(48591DE3C19B)	-0.219	-1.323	0.144	5.737	-47.852	106.323	-50.34	47.91	-74.20	-63.504	-51.058	-0.196	-0.73666	0.09930	-0.53937	0.39554	30.8	13111	100
2025-3-27 18:51:53.570	WT901BLE68-01(48591DE3C19B)	-0.219	-1.357	0.145	0.793	-36.804	80.811	-49.57	48.16	-72.98	-63.504	-51.058	-0.196	-0.73666	0.09930	-0.53937	0.39554	30.8	13111	100
2025-3-27 18:51:53.571	WT901BLE68-01(48591DE3C19B)	-0.238	-1.357	0.145	0.793	-36.804	80.811	-48.96	48.35	-71.94	-63.504	-51.058	-0.196	-0.73666	0.09930	-0.53937	0.39554	30.8	13111	100
2025-3-27 18:51:53.571	WT901BLE68-01(48591DE3C19B)	-0.238	-1.329	0.168	-5.920	-28.870	50.598	-48.53	48.44	-71.10	-63.504	-51.058	-0.196	-0.73666	0.09930	-0.53937	0.39554	30.8	13111	100
2025-3-27 18:51:53.571	WT901BLE68-01(48591DE3C19B)	-0.252	-1.329	0.168	-5.920	-28.870	50.598	-48.28	48.44	-70.46	-63.504	-51.058	-0.196	-0.73666	0.09930	-0.53937	0.39554	30.8	13111	100
2025-3-27 18:51:53.601	WT901BLE68-01(48591DE3C19B)	-0.252	-1.267	0.214	-14.343	-23.376	17.822	-48.21	48.33	-70.01	-63.504	-51.058	-0.196	-0.73666	0.09930	-0.53937	0.39554	30.8	13111	100
2025-3-27 18:51:53.601	WT901BLE68-01(48591DE3C19B)	-0.245	-1.267	0.214	-14.343	-23.376	17.822	-48.33	48.13	-69.76	-63.504	-51.058	-0.196	-0.73666	0.09930	-0.53937	0.39554	30.8	13111	100
2025-3-27 18:51:53.601	WT901BLE68-01(48591DE3C19B)	-0.245	-1.172	0.287	-21.790	-17.334	-15.076	-48.82	47.72	-69.91	-63.504	-51.058	-0.196	-0.73666	0.09930	-0.53937	0.39554	30.8	13111	100
2025-3-27 18:51:53.601	WT901BLE68-01(48591DE3C19B)	-0.229	-1.172	0.287	-21.790	-17.334	-15.076	-49.30	47.31	-70.05	-63.504	-51.058	-0.196	-0.73666	0.09930	-0.53937	0.39554	30.8	13111	100
2025-3-27 18:51:53.691	WT901BLE68-01(48591DE3C19B)	-0.229	-1.070	0.300	-30.090	-6.287	-48.218	-50.15	46.72	-70.63	-63.504	-51.058	-0.196	-0.73666	0.09930	-0.53937	0.39554	30.8	13111	100
2025-3-27 18:51:53.692	WT901BLE68-01(48591DE3C19B)	-0.231	-1.070	0.300	-30.090	-6.287	-48.218	-50.99	46.13	-71.17	-63.504	-51.058	-0.196	-0.73666	0.09930	-0.53937	0.39554	30.8	13111	100
2025-3-27 18:51:53.692	WT901BLE68-01(48591DE3C19B)	-0.231	-0.939	0.288	-36.438	6.348	-79.407	-52.16	45.37	-72.11	-63.504	-51.058	-0.196	-0.73666	0.09930	-0.53937	0.39554	30.8	13111	100
2025-3-27 18:51:53.692	WT901BLE68-01(48591DE3C19B)	-0.244	-0.939	0.288	-36.438	6.348	-79.407	-53.28	44.60	-73.02	-63.504	-51.058	-0.196	-0.73666	0.09930	-0.53937	0.39554	30.8	13111	100
2025-3-27 18:51:53.693	WT901BLE68-01(48591DE3C19B)	-0.244	-0.850	0.293	-44.983	12.146	-107.239	-54.65	43.64	-74.18	-63.504	-51.058	-0.196	-0.73666	0.09930	-0.53937	0.39554	30.8	13111	100
2025-3-27 18:51:53.693	WT901BLE68-01(48591DE3C19B)	-0.249	-0.850	0.293	-44.983	12.146	-107.239	-55.96	42.67	-75.28	-63.504	-51.058	-0.196	-0.73666	0.09930	-0.53937	0.39554	30.8	13111	100
2025-3-27 18:51:53.693	WT901BLE68-01(48591DE3C19B)	-0.249	-0.859	0.335	-51.880	12.207	-132.141	-57.39	41.47	-76.51	-63.504	-51.058	-0.196	-0.73666	0.09930	-0.53937	0.39554	30.8	13111	100
