time	DeviceName	AccX(g)	AccY(g)	AccZ(g)	AsX(°/s)	AsY(°/s)	AsZ(°/s)	AngleX(°)	AngleY(°)	AngleZ(°)	HX(uT)	HY(uT)	HZ(uT)	Q0()	Q1()	Q2()	Q3()	Temperature(°C)	Version()	Battery level(%)
2025-3-27 18:32:38.270	WT901BLE68-01(48591DE3C19B)	-0.294	-0.871	0.357	-2.319	-1.343	-23.865	-68.38	19.83	-21.05	-40.376	-34.496	106.134	0.81885	-0.51312	0.25317	-0.04449	31.0	13111	100
2025-3-27 18:32:38.270	WT901BLE68-01(48591DE3C19B)	-0.294	-0.871	0.356	-3.601	-3.235	-24.963	-68.43	19.57	-21.11	-40.376	-34.496	106.134	0.81885	-0.51312	0.25317	-0.04449	31.0	13111	100
2025-3-27 18:32:38.270	WT901BLE68-01(48591DE3C19B)	-0.296	-0.871	0.356	-3.601	-3.235	-24.963	-68.48	19.30	-21.16	-40.376	-34.496	106.134	0.81885	-0.51312	0.25317	-0.04449	31.0	13111	100
2025-3-27 18:32:38.270	WT901BLE68-01(48591DE3C19B)	-0.296	-0.891	0.360	-4.944	-5.737	-25.574	-68.54	19.03	-21.19	-40.376	-34.496	106.134	0.81885	-0.51312	0.25317	-0.04449	31.0	13111	100
2025-3-27 18:32:38.299	WT901BLE68-01(48591DE3C19B)	-0.295	-0.891	0.360	-4.944	-5.737	-25.574	-68.59	18.75	-21.22	-40.376	-34.496	106.134	0.81885	-0.51312	0.25317	-0.04449	31.0	13111	100
2025-3-27 18:32:38.299	WT901BLE68-01(48591DE3C19B)	-0.295	-0.913	0.367	-5.493	-8.240	-25.696	-68.65	18.48	-21.24	-40.376	-34.496	106.134	0.81885	-0.51312	0.25317	-0.04449	31.0	13111	100
2025-3-27 18:32:38.299	WT901BLE68-01(48591DE3C19B)	-0.292	-0.913	0.367	-5.493	-8.240	-25.696	-68.71	18.19	-21.24	-40.376	-34.496	106.134	0.81885	-0.51312	0.25317	-0.04449	31.0	13111	100
2025-3-27 18:32:38.299	WT901BLE68-01(48591DE3C19B)	-0.292	-0.923	0.374	-5.615	-9.949	-25.513	-68.76	17.91	-21.23	-40.376	-34.496	106.134	0.81885	-0.51312	0.25317	-0.04449	31.0	13111	100
2025-3-27 18:32:38.340	WT901BLE68-01(48591DE3C19B)	-0.289	-0.923	0.374	-5.615	-9.949	-25.513	-68.81	17.63	-21.21	-40.376	-34.496	106.134	0.81885	-0.51312	0.25317	-0.04449	31.0	13111	100
2025-3-27 18:32:38.340	WT901BLE68-01(48591DE3C19B)	-0.289	-0.933	0.382	-5.554	-10.254	-24.658	-68.86	17.35	-21.20	-40.376	-34.496	106.134	0.81885	-0.51312	0.25317	-0.04449	31.0	13111	100
2025-3-27 18:32:38.340	WT901BLE68-01(48591DE3C19B)	-0.290	-0.933	0.382	-5.554	-10.254	-24.658	-68.91	17.08	-21.18	-40.376	-34.496	106.134	0.81885	-0.51312	0.25317	-0.04449	31.0	13111	100
2025-3-27 18:32:38.340	WT901BLE68-01(48591DE3C19B)	-0.290	-0.944	0.391	-4.883	-10.132	-23.132	-68.94	16.81	-21.15	-40.376	-34.496	106.134	0.81885	-0.51312	0.25317	-0.04449	31.0	13111	100
2025-3-27 18:32:38.391	WT901BLE68-01(48591DE3C19B)	-0.287	-0.944	0.391	-4.883	-10.132	-23.132	-68.98	16.56	-21.12	-40.376	-34.496	106.134	0.81885	-0.51312	0.25317	-0.04449	31.0	13111	100
2025-3-27 18:32:38.391	WT901BLE68-01(48591DE3C19B)	-0.287	-0.943	0.391	-4.028	-9.888	-20.874	-69.02	16.31	-21.09	-44.198	-33.516	108.094	0.81885	-0.51312	0.25317	-0.04449	31.0	13111	100
2025-3-27 18:32:38.391	WT901BLE68-01(48591DE3C19B)	-0.276	-0.943	0.391	-4.028	-9.888	-20.874	-69.04	16.08	-21.06	-44.198	-33.516	108.094	0.81885	-0.51312	0.25317	-0.04449	31.0	13111	100
2025-3-27 18:32:38.391	WT901BLE68-01(48591DE3C19B)	-0.276	-0.930	0.379	-3.235	-8.728	-18.188	-69.07	15.87	-21.03	-44.198	-33.516	108.094	0.81885	-0.51312	0.25317	-0.04449	31.0	13111	100
2025-3-27 18:32:38.419	WT901BLE68-01(48591DE3C19B)	-0.265	-0.930	0.379	-3.235	-8.728	-18.188	-69.09	15.67	-20.99	-44.198	-33.516	108.094	0.81885	-0.51312	0.25317	-0.04449	31.0	13111	100
2025-3-27 18:32:38.420	WT901BLE68-01(48591DE3C19B)	-0.265	-0.924	0.366	-3.845	-8.240	-15.320	-69.11	15.49	-20.96	-44.198	-33.516	108.094	0.81885	-0.51312	0.25317	-0.04449	31.0	13111	100
2025-3-27 18:32:38.420	WT901BLE68-01(48591DE3C19B)	-0.244	-0.924	0.366	-3.845	-8.240	-15.320	-69.14	15.31	-20.92	-44.198	-33.516	108.094	0.81885	-0.51312	0.25317	-0.04449	31.0	13111	100
2025-3-27 18:32:38.420	WT901BLE68-01(48591DE3C19B)	-0.244	-0.938	0.355	-4.089	-8.057	-13.489	-69.16	15.16	-20.89	-44.198	-33.516	108.094	0.81885	-0.51312	0.25317	-0.04449	31.0	13111	100
2025-3-27 18:32:38.487	WT901BLE68-01(48591DE3C19B)	-0.220	-0.938	0.355	-4.089	-8.057	-13.489	-69.19	15.00	-20.84	-44.198	-33.516	108.094	0.81885	-0.51312	0.25317	-0.04449	31.0	13111	100
2025-3-27 18:32:38.487	WT901BLE68-01(48591DE3C19B)	-0.220	-0.923	0.364	-2.930	-6.531	-12.268	-69.20	14.87	-20.81	-44.198	-33.516	108.094	0.81885	-0.51312	0.25317	-0.04449	31.0	13111	100
2025-3-27 18:32:38.487	WT901BLE68-01(48591DE3C19B)	-0.205	-0.923	0.364	-2.930	-6.531	-12.268	-69.22	14.73	-20.78	-44.198	-33.516	108.094	0.81885	-0.51312	0.25317	-0.04449	31.0	13111	100
2025-3-27 18:32:38.487	WT901BLE68-01(48591DE3C19B)	-0.205	-0.909	0.365	-1.953	-4.150	-11.719	-69.24	14.61	-20.77	-44.198	-33.516	108.094	0.81885	-0.51312	0.25317	-0.04449	31.0	13111	100
2025-3-27 18:32:38.512	WT901BLE68-01(48591DE3C19B)	-0.153	-0.909	0.365	-1.953	-4.150	-11.719	-69.25	14.49	-20.76	-44.198	-33.516	108.094	0.81885	-0.51312	0.25317	-0.04449	31.0	13111	100
2025-3-27 18:32:38.512	WT901BLE68-01(48591DE3C19B)	-0.153	-0.878	0.358	-0.061	1.404	-11.841	-69.26	14.38	-20.80	-44.198	-33.516	108.094	0.81885	-0.51312	0.25317	-0.04449	31.0	13111	100
2025-3-27 18:32:38.512	WT901BLE68-01(48591DE3C19B)	-0.115	-0.878	0.358	-0.061	1.404	-11.841	-69.26	14.27	-20.85	-44.198	-33.516	108.094	0.81885	-0.51312	0.25317	-0.04449	31.0	13111	100
2025-3-27 18:32:38.512	WT901BLE68-01(48591DE3C19B)	-0.115	-0.864	0.329	0.366	13.306	-12.634	-69.30	14.19	-21.01	-44.198	-33.516	108.094	0.81885	-0.51312	0.25317	-0.04449	31.0	13111	100
2025-3-27 18:32:38.542	WT901BLE68-01(48591DE3C19B)	-0.113	-0.864	0.329	0.366	13.306	-12.634	-69.33	14.11	-21.17	-44.198	-33.516	108.094	0.81885	-0.51312	0.25317	-0.04449	31.0	13111	100
2025-3-27 18:32:38.542	WT901BLE68-01(48591DE3C19B)	-0.113	-0.901	0.306	-0.671	25.452	-15.442	-69.41	14.04	-21.46	-44.198	-33.516	108.094	0.81885	-0.51312	0.25317	-0.04449	31.0	13111	100
2025-3-27 18:32:38.542	WT901BLE68-01(48591DE3C19B)	-0.141	-0.901	0.306	-0.671	25.452	-15.442	-69.48	13.97	-21.75	-44.198	-33.516	108.094	0.81363	-0.53674	0.20538	-0.08725	31.0	13111	100
2025-3-27 18:32:38.542	WT901BLE68-01(48591DE3C19B)	-0.141	-0.951	0.315	-1.587	31.921	-20.264	-69.58	13.87	-22.12	-44.198	-33.516	108.094	0.81363	-0.53674	0.20538	-0.08725	31.0	13111	100
2025-3-27 18:32:38.599	WT901BLE68-01(48591DE3C19B)	-0.184	-0.951	0.315	-1.587	31.921	-20.264	-69.69	13.78	-22.48	-44.198	-33.516	108.094	0.81363	-0.53674	0.20538	-0.08725	31.0	13111	100
2025-3-27 18:32:38.599	WT901BLE68-01(48591DE3C19B)	-0.184	-0.984	0.354	-2.136	31.982	-26.184	-69.80	13.62	-22.87	-44.198	-33.516	108.094	0.81363	-0.53674	0.20538	-0.08725	31.0	13111	100
2025-3-27 18:32:38.599	WT901BLE68-01(48591DE3C19B)	-0.232	-0.984	0.354	-2.136	31.982	-26.184	-69.92	13.47	-23.26	-44.198	-33.516	108.094	0.81363	-0.53674	0.20538	-0.08725	31.0	13111	100
2025-3-27 18:32:38.599	WT901BLE68-01(48591DE3C19B)	-0.232	-0.999	0.386	-1.770	28.870	-32.166	-70.02	13.25	-23.64	-44.198	-33.516	108.094	0.81363	-0.53674	0.20538	-0.08725	31.0	13111	100
2025-3-27 18:32:38.660	WT901BLE68-01(48591DE3C19B)	-0.261	-0.999	0.386	-1.770	28.870	-32.166	-70.12	13.04	-24.02	-44.198	-33.516	108.094	0.81363	-0.53674	0.20538	-0.08725	31.0	13111	100
2025-3-27 18:32:38.661	WT901BLE68-01(48591DE3C19B)	-0.261	-0.969	0.388	-0.183	24.658	-38.330	-70.20	12.74	-24.37	-44.198	-33.516	108.094	0.81363	-0.53674	0.20538	-0.08725	31.0	13111	100
2025-3-27 18:32:38.661	WT901BLE68-01(48591DE3C19B)	-0.267	-0.969	0.388	-0.183	24.658	-38.330	-70.28	12.46	-24.74	-44.198	-33.516	108.094	0.81363	-0.53674	0.20538	-0.08725	31.0	13111	100
2025-3-27 18:32:38.661	WT901BLE68-01(48591DE3C19B)	-0.267	-0.916	0.362	0.244	19.775	-44.250	-70.34	12.11	-25.07	-44.198	-33.516	108.094	0.81363	-0.53674	0.20538	-0.08725	31.0	13111	100
2025-3-27 18:32:38.662	WT901BLE68-01(48591DE3C19B)	-0.260	-0.916	0.362	0.244	19.775	-44.250	-70.40	11.76	-25.39	-44.198	-33.516	108.094	0.81363	-0.53674	0.20538	-0.08725	31.0	13111	100
2025-3-27 18:32:38.662	WT901BLE68-01(48591DE3C19B)	-0.260	-0.856	0.348	0.610	16.174	-49.255	-70.45	11.35	-25.71	-44.198	-33.516	108.094	0.81363	-0.53674	0.20538	-0.08725	31.0	13111	100
2025-3-27 18:32:38.662	WT901BLE68-01(48591DE3C19B)	-0.265	-0.856	0.348	0.610	16.174	-49.255	-70.50	10.96	-26.02	-44.198	-33.516	108.094	0.81363	-0.53674	0.20538	-0.08725	31.0	13111	100
2025-3-27 18:32:38.662	WT901BLE68-01(48591DE3C19B)	-0.265	-0.808	0.351	-0.183	12.939	-53.406	-70.54	10.51	-26.31	-44.198	-33.516	108.094	0.81363	-0.53674	0.20538	-0.08725	31.0	13111	100
2025-3-27 18:32:38.722	WT901BLE68-01(48591DE3C19B)	-0.275	-0.808	0.351	-0.183	12.939	-53.406	-70.59	10.07	-26.60	-44.198	-33.516	108.094	0.81363	-0.53674	0.20538	-0.08725	31.0	13111	100
2025-3-27 18:32:38.723	WT901BLE68-01(48591DE3C19B)	-0.275	-0.778	0.357	-1.038	10.864	-57.739	-70.64	9.59	-26.89	-44.198	-33.516	108.094	0.81363	-0.53674	0.20538	-0.08725	31.0	13111	100
2025-3-27 18:32:38.723	WT901BLE68-01(48591DE3C19B)	-0.303	-0.778	0.357	-1.038	10.864	-57.739	-70.68	9.11	-27.18	-44.198	-33.516	108.094	0.81363	-0.53674	0.20538	-0.08725	31.0	13111	100
2025-3-27 18:32:38.723	WT901BLE68-01(48591DE3C19B)	-0.303	-0.762	0.362	-2.014	9.460	-61.096	-70.73	8.60	-27.47	-44.198	-33.516	108.094	0.81363	-0.53674	0.20538	-0.08725	31.0	13111	100
2025-3-27 18:32:38.786	WT901BLE68-01(48591DE3C19B)	-0.351	-0.762	0.362	-2.014	9.460	-61.096	-70.77	8.09	-27.75	-44.198	-33.516	108.094	0.81363	-0.53674	0.20538	-0.08725	31.0	13111	100
2025-3-27 18:32:38.786	WT901BLE68-01(48591DE3C19B)	-0.351	-0.768	0.389	-2.930	6.348	-62.439	-70.82	7.58	-28.01	-44.198	-33.516	108.094	0.81363	-0.53674	0.20538	-0.08725	31.0	13111	100
2025-3-27 18:32:38.786	WT901BLE68-01(48591DE3C19B)	-0.424	-0.768	0.389	-2.930	6.348	-62.439	-70.86	7.06	-28.27	-44.198	-33.516	108.094	0.81363	-0.53674	0.20538	-0.08725	31.0	13111	100
2025-3-27 18:32:38.786	WT901BLE68-01(48591DE3C19B)	-0.424	-0.782	0.436	-3.967	-2.441	-60.486	-70.89	6.54	-28.44	-46.844	-32.634	108.780	0.81363	-0.53674	0.20538	-0.08725	31.0	13111	100
2025-3-27 18:32:38.786	WT901BLE68-01(48591DE3C19B)	-0.477	-0.782	0.436	-3.967	-2.441	-60.486	-70.92	6.03	-28.61	-46.844	-32.634	108.780	0.81363	-0.53674	0.20538	-0.08725	31.0	13111	100
2025-3-27 18:32:38.786	WT901BLE68-01(48591DE3C19B)	-0.477	-0.811	0.481	-5.127	-15.686	-56.274	-70.94	5.53	-28.64	-46.844	-32.634	108.780	0.81363	-0.53674	0.20538	-0.08725	31.0	13111	100
2025-3-27 18:32:38.786	WT901BLE68-01(48591DE3C19B)	-0.528	-0.811	0.481	-5.127	-15.686	-56.274	-70.96	5.04	-28.67	-46.844	-32.634	108.780	0.81363	-0.53674	0.20538	-0.08725	31.0	13111	100
2025-3-27 18:32:38.786	WT901BLE68-01(48591DE3C19B)	-0.528	-0.855	0.525	-4.883	-26.611	-48.523	-70.96	4.59	-28.58	-46.844	-32.634	108.780	0.81363	-0.53674	0.20538	-0.08725	31.0	13111	100
2025-3-27 18:32:38.840	WT901BLE68-01(48591DE3C19B)	-0.549	-0.855	0.525	-4.883	-26.611	-48.523	-70.96	4.14	-28.48	-46.844	-32.634	108.780	0.81363	-0.53674	0.20538	-0.08725	31.0	13111	100
2025-3-27 18:32:38.841	WT901BLE68-01(48591DE3C19B)	-0.549	-0.887	0.549	-3.784	-38.513	-38.635	-70.93	3.76	-28.25	-46.844	-32.634	108.780	0.81363	-0.53674	0.20538	-0.08725	31.0	13111	100
2025-3-27 18:32:38.841	WT901BLE68-01(48591DE3C19B)	-0.539	-0.887	0.549	-3.784	-38.513	-38.635	-70.91	3.38	-28.01	-46.844	-32.634	108.780	0.81363	-0.53674	0.20538	-0.08725	31.0	13111	100
2025-3-27 18:32:38.841	WT901BLE68-01(48591DE3C19B)	-0.539	-0.920	0.548	-2.136	-51.086	-28.687	-70.85	3.07	-27.63	-46.844	-32.634	108.780	0.81363	-0.53674	0.20538	-0.08725	31.0	13111	100
2025-3-27 18:32:38.869	WT901BLE68-01(48591DE3C19B)	-0.483	-0.920	0.548	-2.136	-51.086	-28.687	-70.80	2.75	-27.24	-46.844	-32.634	108.780	0.81363	-0.53674	0.20538	-0.08725	31.0	13111	100
2025-3-27 18:32:38.869	WT901BLE68-01(48591DE3C19B)	-0.483	-0.948	0.502	-2.502	-58.411	-19.348	-70.75	2.50	-26.75	-46.844	-32.634	108.780	0.81363	-0.53674	0.20538	-0.08725	31.0	13111	100
2025-3-27 18:32:38.869	WT901BLE68-01(48591DE3C19B)	-0.423	-0.948	0.502	-2.502	-58.411	-19.348	-70.70	2.26	-26.27	-46.844	-32.634	108.780	0.81363	-0.53674	0.20538	-0.08725	31.0	13111	100
2025-3-27 18:32:38.869	WT901BLE68-01(48591DE3C19B)	-0.423	-1.029	0.452	-4.883	-56.641	-14.587	-70.69	2.06	-25.79	-46.844	-32.634	108.780	0.81363	-0.53674	0.20538	-0.08725	31.0	13111	100
2025-3-27 18:32:38.900	WT901BLE68-01(48591DE3C19B)	-0.392	-1.029	0.452	-4.883	-56.641	-14.587	-70.67	1.86	-25.31	-46.844	-32.634	108.780	0.81363	-0.53674	0.20538	-0.08725	31.0	13111	100
2025-3-27 18:32:38.900	WT901BLE68-01(48591DE3C19B)	-0.389	-1.154	0.436	-5.493	-48.584	-12.390	-70.67	1.71	-24.89	-46.844	-32.634	108.780	0.81363	-0.53674	0.20538	-0.08725	31.0	13111	100
2025-3-27 18:32:38.900	WT901BLE68-01(48591DE3C19B)	-0.389	-1.237	0.454	-4.822	-34.607	-12.024	-70.68	1.58	-24.54	-46.844	-32.634	108.780	0.81363	-0.53674	0.20538	-0.08725	31.0	13111	100
2025-3-27 18:32:38.900	WT901BLE68-01(48591DE3C19B)	-0.403	-1.237	0.454	-4.822	-34.607	-12.024	-70.68	1.47	-24.25	-46.844	-32.634	108.780	0.81363	-0.53674	0.20538	-0.08725	31.0	13111	100
2025-3-27 18:32:38.960	WT901BLE68-01(48591DE3C19B)	-0.403	-1.254	0.479	-4.639	-17.212	-10.681	-70.69	1.40	-24.05	-46.844	-32.634	108.780	0.81363	-0.53674	0.20538	-0.08725	31.0	13111	100
2025-3-27 18:32:38.960	WT901BLE68-01(48591DE3C19B)	-0.437	-1.254	0.479	-4.639	-17.212	-10.681	-70.70	1.36	-23.92	-46.844	-32.634	108.780	0.81363	-0.53674	0.20538	-0.08725	31.0	13111	100
2025-3-27 18:32:38.960	WT901BLE68-01(48591DE3C19B)	-0.437	-1.219	0.489	-5.981	0.061	-7.996	-70.73	1.35	-23.87	-46.844	-32.634	108.780	0.81363	-0.53674	0.20538	-0.08725	31.0	13111	100
2025-3-27 18:32:38.960	WT901BLE68-01(48591DE3C19B)	-0.472	-1.219	0.489	-5.981	0.061	-7.996	-70.76	1.38	-23.90	-46.844	-32.634	108.780	0.81363	-0.53674	0.20538	-0.08725	31.0	13111	100
2025-3-27 18:32:39.20	WT901BLE68-01(48591DE3C19B)	-0.472	-1.150	0.467	-10.925	12.512	-2.930	-70.82	1.47	-23.97	-46.844	-32.634	108.780	0.79840	-0.56473	0.13135	-0.16205	31.0	13111	100
2025-3-27 18:32:39.20	WT901BLE68-01(48591DE3C19B)	-0.504	-1.150	0.467	-10.925	12.512	-2.930	-70.92	1.59	-24.10	-46.844	-32.634	108.780	0.79840	-0.56473	0.13135	-0.16205	31.0	13111	100
2025-3-27 18:32:39.21	WT901BLE68-01(48591DE3C19B)	-0.504	-1.101	0.451	-18.555	14.832	3.662	-71.04	1.75	-24.22	-46.844	-32.634	108.780	0.79840	-0.56473	0.13135	-0.16205	31.0	13111	100
2025-3-27 18:32:39.21	WT901BLE68-01(48591DE3C19B)	-0.548	-1.101	0.451	-18.555	14.832	3.662	-71.21	1.94	-24.35	-46.844	-32.634	108.780	0.79840	-0.56473	0.13135	-0.16205	31.0	13111	100
2025-3-27 18:32:39.22	WT901BLE68-01(48591DE3C19B)	-0.548	-1.115	0.437	-25.696	1.831	8.911	-71.41	2.14	-24.41	-46.844	-32.634	108.780	0.79840	-0.56473	0.13135	-0.16205	31.0	13111	100
2025-3-27 18:32:39.22	WT901BLE68-01(48591DE3C19B)	-0.589	-1.115	0.437	-25.696	1.831	8.911	-71.64	2.34	-24.40	-46.844	-32.634	108.780	0.79840	-0.56473	0.13135	-0.16205	31.0	13111	100
2025-3-27 18:32:39.22	WT901BLE68-01(48591DE3C19B)	-0.589	-1.035	0.433	-25.330	-23.682	18.372	-71.86	2.55	-24.25	-46.844	-32.634	108.780	0.79840	-0.56473	0.13135	-0.16205	31.0	13111	100
2025-3-27 18:32:39.22	WT901BLE68-01(48591DE3C19B)	-0.610	-1.035	0.433	-25.330	-23.682	18.372	-72.07	2.77	-23.97	-46.844	-32.634	108.780	0.79840	-0.56473	0.13135	-0.16205	31.0	13111	100
2025-3-27 18:32:39.86	WT901BLE68-01(48591DE3C19B)	-0.610	-0.859	0.385	-25.024	-56.396	33.508	-72.27	3.01	-23.51	-46.844	-32.634	108.780	0.79840	-0.56473	0.13135	-0.16205	31.0	13111	100
2025-3-27 18:32:39.86	WT901BLE68-01(48591DE3C19B)	-0.582	-0.859	0.385	-25.024	-56.396	33.508	-72.45	3.28	-22.87	-46.844	-32.634	108.780	0.79840	-0.56473	0.13135	-0.16205	31.0	13111	100
2025-3-27 18:32:39.87	WT901BLE68-01(48591DE3C19B)	-0.582	-0.740	0.296	-26.123	-90.759	54.199	-72.63	3.60	-22.03	-46.844	-32.634	108.780	0.79840	-0.56473	0.13135	-0.16205	31.0	13111	100
2025-3-27 18:32:39.87	WT901BLE68-01(48591DE3C19B)	-0.509	-0.740	0.296	-26.123	-90.759	54.199	-72.80	3.98	-21.00	-46.844	-32.634	108.780	0.79840	-0.56473	0.13135	-0.16205	31.0	13111	100
2025-3-27 18:32:39.111	WT901BLE68-01(48591DE3C19B)	-0.509	-0.786	0.178	-27.100	-118.042	76.660	-72.94	4.43	-19.81	-46.844	-32.634	108.780	0.79840	-0.56473	0.13135	-0.16205	31.0	13111	100
2025-3-27 18:32:39.111	WT901BLE68-01(48591DE3C19B)	-0.391	-0.786	0.178	-27.100	-118.042	76.660	-73.08	4.95	-18.45	-46.844	-32.634	108.780	0.79840	-0.56473	0.13135	-0.16205	31.0	13111	100
2025-3-27 18:32:39.111	WT901BLE68-01(48591DE3C19B)	-0.391	-0.858	0.065	-21.912	-135.742	97.778	-73.16	5.55	-16.97	-46.844	-32.634	108.780	0.79840	-0.56473	0.13135	-0.16205	31.0	13111	100
2025-3-27 18:32:39.111	WT901BLE68-01(48591DE3C19B)	-0.278	-0.858	0.065	-21.912	-135.742	97.778	-73.21	6.22	-15.37	-46.844	-32.634	108.780	0.79840	-0.56473	0.13135	-0.16205	31.0	13111	100
2025-3-27 18:32:39.139	WT901BLE68-01(48591DE3C19B)	-0.278	-0.962	-0.006	-15.564	-146.851	113.342	-73.20	6.94	-13.69	-46.844	-32.634	108.780	0.79840	-0.56473	0.13135	-0.16205	31.0	13111	100
2025-3-27 18:32:39.139	WT901BLE68-01(48591DE3C19B)	-0.197	-0.962	-0.006	-15.564	-146.851	113.342	-73.14	7.71	-11.93	-46.844	-32.634	108.780	0.79840	-0.56473	0.13135	-0.16205	31.0	13111	100
2025-3-27 18:32:39.139	WT901BLE68-01(48591DE3C19B)	-0.197	-1.097	-0.009	-5.859	-148.438	121.338	-73.01	8.50	-10.14	-46.844	-32.634	108.780	0.79840	-0.56473	0.13135	-0.16205	31.0	13111	100
2025-3-27 18:32:39.139	WT901BLE68-01(48591DE3C19B)	-0.152	-1.097	-0.009	-5.859	-148.438	121.338	-72.82	9.31	-8.32	-46.844	-32.634	108.780	0.79840	-0.56473	0.13135	-0.16205	31.0	13111	100
2025-3-27 18:32:39.200	WT901BLE68-01(48591DE3C19B)	-0.152	-1.204	0.040	8.118	-138.794	124.817	-72.54	10.12	-6.54	-46.844	-32.634	108.780	0.79840	-0.56473	0.13135	-0.16205	31.0	13111	100
2025-3-27 18:32:39.200	WT901BLE68-01(48591DE3C19B)	-0.107	-1.204	0.040	8.118	-138.794	124.817	-72.19	10.95	-4.80	-28.714	-40.768	104.370	0.79840	-0.56473	0.13135	-0.16205	31.0	13111	100
2025-3-27 18:32:39.201	WT901BLE68-01(48591DE3C19B)	-0.107	-1.203	0.083	24.292	-114.441	127.380	-71.76	11.80	-3.15	-28.714	-40.768	104.370	0.79840	-0.56473	0.13135	-0.16205	31.0	13111	100
2025-3-27 18:32:39.201	WT901BLE68-01(48591DE3C19B)	-0.047	-1.203	0.083	24.292	-114.441	127.380	-71.25	12.68	-1.61	-28.714	-40.768	104.370	0.79840	-0.56473	0.13135	-0.16205	31.0	13111	100
2025-3-27 18:32:39.229	WT901BLE68-01(48591DE3C19B)	-0.047	-1.096	0.115	33.264	-74.829	128.113	-70.72	13.59	-0.25	-28.714	-40.768	104.370	0.79840	-0.56473	0.13135	-0.16205	31.0	13111	100
2025-3-27 18:32:39.229	WT901BLE68-01(48591DE3C19B)	-0.013	-1.096	0.115	33.264	-74.829	128.113	-70.17	14.55	0.92	-28.714	-40.768	104.370	0.79840	-0.56473	0.13135	-0.16205	31.0	13111	100
2025-3-27 18:32:39.229	WT901BLE68-01(48591DE3C19B)	-0.013	-1.039	0.108	35.095	-26.550	131.409	-69.66	15.58	1.89	-28.714	-40.768	104.370	0.79840	-0.56473	0.13135	-0.16205	31.0	13111	100
2025-3-27 18:32:39.229	WT901BLE68-01(48591DE3C19B)	0.025	-1.039	0.108	35.095	-26.550	131.409	-69.18	16.69	2.64	-28.714	-40.768	104.370	0.79840	-0.56473	0.13135	-0.16205	31.0	13111	100
2025-3-27 18:32:39.260	WT901BLE68-01(48591DE3C19B)	0.025	-0.987	0.087	32.959	23.254	132.141	-68.77	17.88	3.15	-28.714	-40.768	104.370	0.79840	-0.56473	0.13135	-0.16205	31.0	13111	100
2025-3-27 18:32:39.260	WT901BLE68-01(48591DE3C19B)	0.067	-0.987	0.087	32.959	23.254	132.141	-68.43	19.14	3.43	-28.714	-40.768	104.370	0.79840	-0.56473	0.13135	-0.16205	31.0	13111	100
2025-3-27 18:32:39.260	WT901BLE68-01(48591DE3C19B)	0.067	-0.982	0.068	26.672	71.411	130.371	-68.21	20.47	3.47	-28.714	-40.768	104.370	0.79840	-0.56473	0.13135	-0.16205	31.0	13111	100
2025-3-27 18:32:39.260	WT901BLE68-01(48591DE3C19B)	0.019	-0.982	0.068	26.672	71.411	130.371	-68.11	21.87	3.27	-28.714	-40.768	104.370	0.79840	-0.56473	0.13135	-0.16205	31.0	13111	100
2025-3-27 18:32:39.322	WT901BLE68-01(48591DE3C19B)	0.019	-1.030	0.089	16.663	102.356	127.441	-68.13	23.29	2.90	-28.714	-40.768	104.370	0.79840	-0.56473	0.13135	-0.16205	31.0	13111	100
2025-3-27 18:32:39.322	WT901BLE68-01(48591DE3C19B)	-0.099	-1.030	0.089	16.663	102.356	127.441	-68.27	24.75	2.36	-28.714	-40.768	104.370	0.79840	-0.56473	0.13135	-0.16205	31.0	13111	100
2025-3-27 18:32:39.322	WT901BLE68-01(48591DE3C19B)	-0.099	-1.141	0.107	-3.052	93.201	119.019	-68.52	26.14	1.83	-28.714	-40.768	104.370	0.79840	-0.56473	0.13135	-0.16205	31.0	13111	100
2025-3-27 18:32:39.322	WT901BLE68-01(48591DE3C19B)	-0.199	-1.141	0.107	-3.052	93.201	119.019	-68.86	27.45	1.31	-28.714	-40.768	104.370	0.79840	-0.56473	0.13135	-0.16205	31.0	13111	100
2025-3-27 18:32:39.351	WT901BLE68-01(48591DE3C19B)	-0.199	-1.381	0.063	-19.958	42.297	101.440	-69.20	28.59	1.02	-28.714	-40.768	104.370	0.79840	-0.56473	0.13135	-0.16205	31.0	13111	100
2025-3-27 18:32:39.352	WT901BLE68-01(48591DE3C19B)	-0.142	-1.381	0.063	-19.958	42.297	101.440	-69.53	29.55	0.94	-28.714	-40.768	104.370	0.79840	-0.56473	0.13135	-0.16205	31.0	13111	100
2025-3-27 18:32:39.352	WT901BLE68-01(48591DE3C19B)	-0.142	-1.651	-0.013	-28.015	-16.052	77.698	-69.76	30.30	1.12	-28.714	-40.768	104.370	0.79840	-0.56473	0.13135	-0.16205	31.0	13111	100
2025-3-27 18:32:39.352	WT901BLE68-01(48591DE3C19B)	0.038	-1.651	-0.013	-28.015	-16.052	77.698	-69.90	30.83	1.57	-28.714	-40.768	104.370	0.78796	-0.55518	0.21024	0.16309	31.0	13111	100
2025-3-27 18:32:39.384	WT901BLE68-01(48591DE3C19B)	0.038	-1.694	-0.034	-24.780	-61.340	57.068	-69.80	31.00	2.43	-28.714	-40.768	104.370	0.78796	-0.55518	0.21024	0.16309	31.0	13111	100
2025-3-27 18:32:39.384	WT901BLE68-01(48591DE3C19B)	0.347	-1.694	-0.034	-24.780	-61.340	57.068	-69.70	31.17	3.28	-28.714	-40.768	104.370	0.78796	-0.55518	0.21024	0.16309	31.0	13111	100
2025-3-27 18:32:39.384	WT901BLE68-01(48591DE3C19B)	0.347	-1.598	-0.059	-24.902	-84.229	28.931	-69.53	30.98	4.27	-28.714	-40.768	104.370	0.78796	-0.55518	0.21024	0.16309	31.0	13111	100
2025-3-27 18:32:39.384	WT901BLE68-01(48591DE3C19B)	0.639	-1.598	-0.059	-24.902	-84.229	28.931	-69.38	30.78	5.26	-28.714	-40.768	104.370	0.78796	-0.55518	0.21024	0.16309	31.0	13111	100
2025-3-27 18:32:39.440	WT901BLE68-01(48591DE3C19B)	0.639	-1.530	-0.026	-26.489	-69.031	-3.235	-69.41	30.32	5.94	-28.714	-40.768	104.370	0.78796	-0.55518	0.21024	0.16309	31.0	13111	100
2025-3-27 18:32:39.441	WT901BLE68-01(48591DE3C19B)	0.659	-1.530	-0.026	-26.489	-69.031	-3.235	-69.44	29.86	6.61	-28.714	-40.768	104.370	0.78796	-0.55518	0.21024	0.16309	31.0	13111	100
2025-3-27 18:32:39.441	WT901BLE68-01(48591DE3C19B)	0.659	-1.460	0.060	-25.330	-18.372	-34.607	-69.80	29.26	6.61	-28.714	-40.768	104.370	0.78796	-0.55518	0.21024	0.16309	31.0	13111	100
2025-3-27 18:32:39.441	WT901BLE68-01(48591DE3C19B)	0.504	-1.460	0.060	-25.330	-18.372	-34.607	-70.15	28.66	6.62	-28.714	-40.768	104.370	0.78796	-0.55518	0.21024	0.16309	31.0	13111	100
2025-3-27 18:32:39.470	WT901BLE68-01(48591DE3C19B)	0.504	-1.420	0.119	-17.334	36.133	-64.209	-70.75	27.96	5.93	-28.714	-40.768	104.370	0.78796	-0.55518	0.21024	0.16309	31.0	13111	100
2025-3-27 18:32:39.470	WT901BLE68-01(48591DE3C19B)	0.404	-1.420	0.119	-17.334	36.133	-64.209	-71.32	27.25	5.26	-28.714	-40.768	104.370	0.78796	-0.55518	0.21024	0.16309	31.0	13111	100
2025-3-27 18:32:39.470	WT901BLE68-01(48591DE3C19B)	0.404	-1.383	0.055	-5.554	84.900	-94.299	-72.05	26.40	3.98	-28.714	-40.768	104.370	0.78796	-0.55518	0.21024	0.16309	31.0	13111	100
2025-3-27 18:32:39.470	WT901BLE68-01(48591DE3C19B)	0.299	-1.383	0.055	-5.554	84.900	-94.299	-72.75	25.54	2.71	-28.714	-40.768	104.370	0.78796	-0.55518	0.21024	0.16309	31.0	13111	100
2025-3-27 18:32:39.500	WT901BLE68-01(48591DE3C19B)	0.299	-1.241	-0.004	9.705	124.451	-116.394	-73.47	24.58	0.99	-28.714	-40.768	104.370	0.78796	-0.55518	0.21024	0.16309	31.0	13111	100
2025-3-27 18:32:39.500	WT901BLE68-01(48591DE3C19B)	0.170	-1.241	-0.004	9.705	124.451	-116.394	-74.14	23.59	-0.70	-28.714	-40.768	104.370	0.78796	-0.55518	0.21024	0.16309	31.0	13111	100
2025-3-27 18:32:39.500	WT901BLE68-01(48591DE3C19B)	0.170	-1.092	-0.021	18.555	146.851	-130.737	-74.80	22.53	-2.65	-28.714	-40.768	104.370	0.78796	-0.55518	0.21024	0.16309	31.0	13111	100
2025-3-27 18:32:39.501	WT901BLE68-01(48591DE3C19B)	0.035	-1.092	-0.021	18.555	146.851	-130.737	-75.41	21.45	-4.57	-28.714	-40.768	104.370	0.78796	-0.55518	0.21024	0.16309	31.0	13111	100
2025-3-27 18:32:39.561	WT901BLE68-01(48591DE3C19B)	0.035	-1.016	0.005	22.278	151.917	-140.930	-75.96	20.26	-6.54	-28.714	-40.768	104.370	0.78796	-0.55518	0.21024	0.16309	31.0	13111	100
2025-3-27 18:32:39.561	WT901BLE68-01(48591DE3C19B)	-0.103	-1.016	0.005	22.278	151.917	-140.930	-76.47	19.08	-8.48	-28.714	-40.768	104.370	0.78796	-0.55518	0.21024	0.16309	31.0	13111	100
2025-3-27 18:32:39.561	WT901BLE68-01(48591DE3C19B)	-0.103	-0.980	0.075	23.254	139.465	-148.743	-76.88	17.79	-10.28	-28.714	-40.768	104.370	0.78796	-0.55518	0.21024	0.16309	31.0	13111	100
2025-3-27 18:32:39.561	WT901BLE68-01(48591DE3C19B)	-0.218	-0.980	0.075	23.254	139.465	-148.743	-77.24	16.51	-12.06	-28.714	-40.768	104.370	0.78796	-0.55518	0.21024	0.16309	31.0	13111	100
2025-3-27 18:32:39.590	WT901BLE68-01(48591DE3C19B)	-0.218	-0.986	0.151	19.836	110.474	-155.579	-77.50	15.10	-13.53	-41.944	-51.940	109.074	0.78796	-0.55518	0.21024	0.16309	31.0	13111	100
2025-3-27 18:32:39.590	WT901BLE68-01(48591DE3C19B)	-0.306	-0.986	0.151	19.836	110.474	-155.579	-77.73	13.70	-14.99	-41.944	-51.940	109.074	0.78796	-0.55518	0.21024	0.16309	31.0	13111	100
2025-3-27 18:32:39.590	WT901BLE68-01(48591DE3C19B)	-0.306	-1.007	0.201	15.503	75.439	-161.865	-77.88	12.18	-16.08	-41.944	-51.940	109.074	0.78796	-0.55518	0.21024	0.16309	31.0	13111	100
2025-3-27 18:32:39.590	WT901BLE68-01(48591DE3C19B)	-0.349	-1.007	0.201	15.503	75.439	-161.865	-77.99	10.68	-17.17	-41.944	-51.940	109.074	0.78796	-0.55518	0.21024	0.16309	31.0	13111	100
2025-3-27 18:32:39.619	WT901BLE68-01(48591DE3C19B)	-0.349	-0.985	0.231	9.949	42.480	-167.908	-78.06	9.07	-17.94	-41.944	-51.940	109.074	0.78796	-0.55518	0.21024	0.16309	31.0	13111	100
2025-3-27 18:32:39.619	WT901BLE68-01(48591DE3C19B)	-0.344	-0.985	0.231	9.949	42.480	-167.908	-78.11	7.48	-18.69	-41.944	-51.940	109.074	0.78796	-0.55518	0.21024	0.16309	31.0	13111	100
2025-3-27 18:32:39.619	WT901BLE68-01(48591DE3C19B)	-0.344	-0.916	0.245	2.563	22.034	-172.058	-78.18	5.83	-19.24	-41.944	-51.940	109.074	0.78796	-0.55518	0.21024	0.16309	31.0	13111	100
2025-3-27 18:32:39.619	WT901BLE68-01(48591DE3C19B)	-0.320	-0.916	0.245	2.563	22.034	-172.058	-78.24	4.19	-19.79	-41.944	-51.940	109.074	0.78796	-0.55518	0.21024	0.16309	31.0	13111	100
2025-3-27 18:32:39.688	WT901BLE68-01(48591DE3C19B)	-0.320	-0.839	0.259	-5.432	17.761	-173.706	-78.34	2.54	-20.30	-41.944	-51.940	109.074	0.78796	-0.55518	0.21024	0.16309	31.0	13111	100
2025-3-27 18:32:39.688	WT901BLE68-01(48591DE3C19B)	-0.326	-0.839	0.259	-5.432	17.761	-173.706	-78.44	0.92	-20.80	-41.944	-51.940	109.074	0.78796	-0.55518	0.21024	0.16309	31.0	13111	100
2025-3-27 18:32:39.688	WT901BLE68-01(48591DE3C19B)	-0.326	-0.771	0.292	-10.986	17.456	-172.180	-78.56	-0.68	-21.29	-41.944	-51.940	109.074	0.78796	-0.55518	0.21024	0.16309	31.0	13111	100
2025-3-27 18:32:39.688	WT901BLE68-01(48591DE3C19B)	-0.315	-0.771	0.292	-10.986	17.456	-172.180	-78.67	-2.26	-21.78	-41.944	-51.940	109.074	0.78796	-0.55518	0.21024	0.16309	31.0	13111	100
2025-3-27 18:32:39.710	WT901BLE68-01(48591DE3C19B)	-0.315	-0.734	0.320	-14.587	21.240	-172.546	-78.78	-3.82	-22.30	-41.944	-51.940	109.074	0.78796	-0.55518	0.21024	0.16309	31.0	13111	100
2025-3-27 18:32:39.710	WT901BLE68-01(48591DE3C19B)	-0.311	-0.734	0.320	-14.587	21.240	-172.546	-78.88	-5.38	-22.83	-41.944	-51.940	109.074	0.78796	-0.55518	0.21024	0.16309	31.0	13111	100
2025-3-27 18:32:39.710	WT901BLE68-01(48591DE3C19B)	-0.311	-0.751	0.345	-12.634	30.212	-169.617	-78.93	-6.87	-23.43	-41.944	-51.940	109.074	0.78796	-0.55518	0.21024	0.16309	31.0	13111	100
2025-3-27 18:32:39.710	WT901BLE68-01(48591DE3C19B)	-0.398	-0.751	0.345	-12.634	30.212	-169.617	-78.96	-8.35	-24.05	-41.944	-51.940	109.074	0.78796	-0.55518	0.21024	0.16309	31.0	13111	100
2025-3-27 18:32:39.742	WT901BLE68-01(48591DE3C19B)	-0.398	-0.786	0.372	-5.493	35.522	-162.842	-78.89	-9.73	-24.70	-41.944	-51.940	109.074	0.78796	-0.55518	0.21024	0.16309	31.0	13111	100
2025-3-27 18:32:39.742	WT901BLE68-01(48591DE3C19B)	-0.573	-0.786	0.372	-5.493	35.522	-162.842	-78.79	-11.11	-25.37	-41.944	-51.940	109.074	0.78796	-0.55518	0.21024	0.16309	31.0	13111	100
2025-3-27 18:32:39.743	WT901BLE68-01(48591DE3C19B)	-0.573	-0.863	0.371	1.709	26.733	-152.283	-78.63	-12.38	-25.93	-41.944	-51.940	109.074	0.78796	-0.55518	0.21024	0.16309	31.0	13111	100
2025-3-27 18:32:39.743	WT901BLE68-01(48591DE3C19B)	-0.652	-0.863	0.371	1.709	26.733	-152.283	-78.45	-13.63	-26.50	-41.944	-51.940	109.074	0.78796	-0.55518	0.21024	0.16309	31.0	13111	100
2025-3-27 18:32:39.800	WT901BLE68-01(48591DE3C19B)	-0.652	-0.966	0.286	3.906	13.123	-136.597	-78.27	-14.73	-26.92	-41.944	-51.940	109.074	0.78796	-0.55518	0.21024	0.16309	31.0	13111	100
2025-3-27 18:32:39.800	WT901BLE68-01(48591DE3C19B)	-0.641	-0.966	0.286	3.906	13.123	-136.597	-78.09	-15.83	-27.33	-41.944	-51.940	109.074	0.72693	-0.63150	0.04352	-0.26602	31.0	13111	100
2025-3-27 18:32:39.800	WT901BLE68-01(48591DE3C19B)	-0.641	-1.060	0.201	4.944	1.587	-112.549	-77.94	-16.69	-27.59	-41.944	-51.940	109.074	0.72693	-0.63150	0.04352	-0.26602	31.0	13111	100
2025-3-27 18:32:39.800	WT901BLE68-01(48591DE3C19B)	-0.688	-1.060	0.201	4.944	1.587	-112.549	-77.79	-17.55	-27.85	-41.944	-51.940	109.074	0.72693	-0.63150	0.04352	-0.26602	31.0	13111	100
2025-3-27 18:32:39.830	WT901BLE68-01(48591DE3C19B)	-0.688	-1.166	0.178	3.845	-8.057	-85.388	-77.71	-18.14	-27.95	-41.944	-51.940	109.074	0.72693	-0.63150	0.04352	-0.26602	31.0	13111	100
2025-3-27 18:32:39.830	WT901BLE68-01(48591DE3C19B)	-0.758	-1.166	0.178	3.845	-8.057	-85.388	-77.62	-18.74	-28.05	-41.944	-51.940	109.074	0.72693	-0.63150	0.04352	-0.26602	31.0	13111	100
2025-3-27 18:32:39.830	WT901BLE68-01(48591DE3C19B)	-0.794	-1.275	0.251	2.380	-14.404	-60.181	-77.60	-19.09	-28.03	-41.944	-51.940	109.074	0.72693	-0.63150	0.04352	-0.26602	31.0	13111	100
2025-3-27 18:32:39.830	WT901BLE68-01(48591DE3C19B)	-0.794	-1.446	0.391	-3.662	-13.977	-27.649	-77.61	-19.29	-27.98	-41.944	-51.940	109.074	0.72693	-0.63150	0.04352	-0.26602	31.0	13111	100
2025-3-27 18:32:39.890	WT901BLE68-01(48591DE3C19B)	-0.746	-1.446	0.391	-3.662	-13.977	-27.649	-77.67	-19.32	-27.89	-41.944	-51.940	109.074	0.72693	-0.63150	0.04352	-0.26602	31.0	13111	100
2025-3-27 18:32:39.890	WT901BLE68-01(48591DE3C19B)	-0.746	-1.565	0.454	-2.930	2.014	5.005	-77.71	-19.17	-27.84	-41.944	-51.940	109.074	0.72693	-0.63150	0.04352	-0.26602	31.0	13111	100
2025-3-27 18:32:39.890	WT901BLE68-01(48591DE3C19B)	-0.645	-1.565	0.454	-2.930	2.014	5.005	-77.73	-18.85	-27.84	-41.944	-51.940	109.074	0.72693	-0.63150	0.04352	-0.26602	31.0	13111	100
2025-3-27 18:32:39.890	WT901BLE68-01(48591DE3C19B)	-0.645	-1.352	0.444	-3.784	24.597	40.527	-77.72	-18.34	-27.93	-41.944	-51.940	109.074	0.72693	-0.63150	0.04352	-0.26602	31.0	13111	100
2025-3-27 18:32:39.919	WT901BLE68-01(48591DE3C19B)	-0.603	-1.352	0.444	-3.784	24.597	40.527	-77.70	-17.64	-28.08	-41.944	-51.940	109.074	0.72693	-0.63150	0.04352	-0.26602	31.0	13111	100
2025-3-27 18:32:39.919	WT901BLE68-01(48591DE3C19B)	-0.603	-1.123	0.441	-13.306	39.429	74.646	-77.71	-16.75	-28.28	-41.944	-51.940	109.074	0.72693	-0.63150	0.04352	-0.26602	31.0	13111	100
2025-3-27 18:32:39.920	WT901BLE68-01(48591DE3C19B)	-0.644	-1.123	0.441	-13.306	39.429	74.646	-77.75	-15.69	-28.51	-41.944	-51.940	109.074	0.72693	-0.63150	0.04352	-0.26602	31.0	13111	100
2025-3-27 18:32:39.920	WT901BLE68-01(48591DE3C19B)	-0.644	-1.048	0.428	-21.606	33.630	102.051	-77.86	-14.51	-28.69	-41.944	-51.940	109.074	0.72693	-0.63150	0.04352	-0.26602	31.0	13111	100
2025-3-27 18:32:39.950	WT901BLE68-01(48591DE3C19B)	-0.604	-1.048	0.428	-21.606	33.630	102.051	-78.02	-13.21	-28.80	-41.944	-51.940	109.074	0.72693	-0.63150	0.04352	-0.26602	31.0	13111	100
2025-3-27 18:32:39.950	WT901BLE68-01(48591DE3C19B)	-0.604	-0.941	0.374	-21.851	15.991	125.366	-78.20	-11.82	-28.81	-41.944	-51.940	109.074	0.72693	-0.63150	0.04352	-0.26602	31.0	13111	100
2025-3-27 18:32:39.950	WT901BLE68-01(48591DE3C19B)	-0.564	-0.941	0.374	-21.851	15.991	125.366	-78.41	-10.33	-28.71	-41.944	-51.940	109.074	0.72693	-0.63150	0.04352	-0.26602	31.0	13111	100
2025-3-27 18:32:39.950	WT901BLE68-01(48591DE3C19B)	-0.564	-0.843	0.274	-21.912	-3.113	147.766	-78.62	-8.76	-28.49	-41.944	-51.940	109.074	0.72693	-0.63150	0.04352	-0.26602	31.0	13111	100
2025-3-27 18:32:40.10	WT901BLE68-01(48591DE3C19B)	-0.607	-0.843	0.274	-21.912	-3.113	147.766	-78.85	-7.11	-28.17	-41.944	-51.940	109.074	0.72693	-0.63150	0.04352	-0.26602	31.0	13111	100
2025-3-27 18:32:40.10	WT901BLE68-01(48591DE3C19B)	-0.607	-0.894	0.167	-22.522	-25.146	164.612	-79.09	-5.40	-27.72	-47.334	-49.098	108.584	0.72693	-0.63150	0.04352	-0.26602	31.0	13111	100
2025-3-27 18:32:40.10	WT901BLE68-01(48591DE3C19B)	-0.630	-0.894	0.167	-22.522	-25.146	164.612	-79.32	-3.64	-27.16	-47.334	-49.098	108.584	0.72693	-0.63150	0.04352	-0.26602	31.0	13111	100
2025-3-27 18:32:40.11	WT901BLE68-01(48591DE3C19B)	-0.630	-1.074	0.083	-18.616	-51.331	177.551	-79.53	-1.83	-26.46	-47.334	-49.098	108.584	0.72693	-0.63150	0.04352	-0.26602	31.0	13111	100
2025-3-27 18:32:40.39	WT901BLE68-01(48591DE3C19B)	-0.584	-1.074	0.083	-18.616	-51.331	177.551	-79.71	-0.01	-25.61	-47.334	-49.098	108.584	0.72693	-0.63150	0.04352	-0.26602	31.0	13111	100
2025-3-27 18:32:40.39	WT901BLE68-01(48591DE3C19B)	-0.584	-1.254	0.020	-6.958	-75.745	188.171	-79.80	1.85	-24.65	-47.334	-49.098	108.584	0.72693	-0.63150	0.04352	-0.26602	31.0	13111	100
2025-3-27 18:32:40.39	WT901BLE68-01(48591DE3C19B)	-0.499	-1.254	0.020	-6.958	-75.745	188.171	-79.81	3.71	-23.55	-47.334	-49.098	108.584	0.72693	-0.63150	0.04352	-0.26602	31.0	13111	100
2025-3-27 18:32:40.39	WT901BLE68-01(48591DE3C19B)	-0.499	-1.380	-0.041	6.348	-96.924	196.594	-79.72	5.59	-22.33	-47.334	-49.098	108.584	0.72693	-0.63150	0.04352	-0.26602	31.0	13111	100
2025-3-27 18:32:40.70	WT901BLE68-01(48591DE3C19B)	-0.404	-1.380	-0.041	6.348	-96.924	196.594	-79.51	7.48	-20.98	-47.334	-49.098	108.584	0.72693	-0.63150	0.04352	-0.26602	31.0	13111	100
2025-3-27 18:32:40.70	WT901BLE68-01(48591DE3C19B)	-0.404	-1.409	-0.063	20.752	-114.075	200.562	-79.18	9.34	-19.53	-47.334	-49.098	108.584	0.72693	-0.63150	0.04352	-0.26602	31.0	13111	100
2025-3-27 18:32:40.70	WT901BLE68-01(48591DE3C19B)	-0.341	-1.409	-0.063	20.752	-114.075	200.562	-78.73	11.18	-17.98	-47.334	-49.098	108.584	0.72693	-0.63150	0.04352	-0.26602	31.0	13111	100
2025-3-27 18:32:40.70	WT901BLE68-01(48591DE3C19B)	-0.341	-1.420	-0.022	28.076	-127.380	204.590	-78.18	12.99	-16.32	-47.334	-49.098	108.584	0.72693	-0.63150	0.04352	-0.26602	31.0	13111	100
2025-3-27 18:32:40.132	WT901BLE68-01(48591DE3C19B)	-0.296	-1.420	-0.022	28.076	-127.380	204.590	-77.53	14.77	-14.57	-47.334	-49.098	108.584	0.72693	-0.63150	0.04352	-0.26602	31.0	13111	100
2025-3-27 18:32:40.132	WT901BLE68-01(48591DE3C19B)	-0.296	-1.477	0.047	34.058	-135.986	210.144	-76.78	16.53	-12.73	-47.334	-49.098	108.584	0.72693	-0.63150	0.04352	-0.26602	31.0	13111	100
2025-3-27 18:32:40.132	WT901BLE68-01(48591DE3C19B)	-0.184	-1.477	0.047	34.058	-135.986	210.144	-75.93	18.28	-10.80	-47.334	-49.098	108.584	0.72693	-0.63150	0.04352	-0.26602	31.0	13111	100
2025-3-27 18:32:40.132	WT901BLE68-01(48591DE3C19B)	-0.184	-1.429	0.066	42.786	-127.991	217.468	-74.98	20.01	-8.85	-47.334	-49.098	108.584	0.72693	-0.63150	0.04352	-0.26602	31.0	13111	100
2025-3-27 18:32:40.162	WT901BLE68-01(48591DE3C19B)	-0.097	-1.429	0.066	42.786	-127.991	217.468	-73.93	21.75	-6.89	-47.334	-49.098	108.584	0.72693	-0.63150	0.04352	-0.26602	31.0	13111	100
2025-3-27 18:32:40.162	WT901BLE68-01(48591DE3C19B)	-0.097	-1.264	0.080	46.204	-102.722	226.868	-72.84	23.51	-4.99	-47.334	-49.098	108.584	0.72693	-0.63150	0.04352	-0.26602	31.0	13111	100
2025-3-27 18:32:40.162	WT901BLE68-01(48591DE3C19B)	-0.083	-1.264	0.080	46.204	-102.722	226.868	-71.70	25.31	-3.15	-47.334	-49.098	108.584	0.72693	-0.63150	0.04352	-0.26602	31.0	13111	100
2025-3-27 18:32:40.162	WT901BLE68-01(48591DE3C19B)	-0.083	-1.189	0.071	41.077	-69.946	233.765	-70.59	27.14	-1.42	-47.334	-49.098	108.584	0.79504	-0.55579	0.20157	0.13504	31.0	13111	100
2025-3-27 18:32:40.191	WT901BLE68-01(48591DE3C19B)	-0.080	-1.189	0.071	41.077	-69.946	233.765	-69.51	29.01	0.22	-47.334	-49.098	108.584	0.79504	-0.55579	0.20157	0.13504	31.0	13111	100
2025-3-27 18:32:40.192	WT901BLE68-01(48591DE3C19B)	-0.080	-1.256	0.033	33.691	-49.622	233.643	-68.44	30.87	1.81	-47.334	-49.098	108.584	0.79504	-0.55579	0.20157	0.13504	31.0	13111	100
2025-3-27 18:32:40.192	WT901BLE68-01(48591DE3C19B)	-0.020	-1.256	0.033	33.691	-49.622	233.643	-67.40	32.73	3.36	-47.334	-49.098	108.584	0.79504	-0.55579	0.20157	0.13504	31.0	13111	100
2025-3-27 18:32:40.192	WT901BLE68-01(48591DE3C19B)	-0.020	-1.375	-0.015	29.297	-41.016	227.600	-66.34	34.55	4.91	-47.334	-49.098	108.584	0.79504	-0.55579	0.20157	0.13504	31.0	13111	100
2025-3-27 18:32:40.250	WT901BLE68-01(48591DE3C19B)	0.076	-1.375	-0.015	29.297	-41.016	227.600	-65.27	36.30	6.46	-47.334	-49.098	108.584	0.79504	-0.55579	0.20157	0.13504	31.0	13111	100
2025-3-27 18:32:40.250	WT901BLE68-01(48591DE3C19B)	0.076	-1.450	-0.058	26.306	-25.513	215.332	-64.21	38.01	7.95	-47.334	-49.098	108.584	0.79504	-0.55579	0.20157	0.13504	31.0	13111	100
2025-3-27 18:32:40.250	WT901BLE68-01(48591DE3C19B)	0.127	-1.450	-0.058	26.306	-25.513	215.332	-63.18	39.65	9.39	-47.334	-49.098	108.584	0.79504	-0.55579	0.20157	0.13504	31.0	13111	100
2025-3-27 18:32:40.250	WT901BLE68-01(48591DE3C19B)	0.127	-1.500	-0.098	18.738	-10.620	197.327	-62.21	41.21	10.74	-47.334	-49.098	108.584	0.79504	-0.55579	0.20157	0.13504	31.0	13111	100
2025-3-27 18:32:40.310	WT901BLE68-01(48591DE3C19B)	0.113	-1.500	-0.098	18.738	-10.620	197.327	-61.31	42.69	12.00	-47.334	-49.098	108.584	0.79504	-0.55579	0.20157	0.13504	31.0	13111	100
2025-3-27 18:32:40.311	WT901BLE68-01(48591DE3C19B)	0.113	-1.641	-0.146	4.333	-16.602	170.715	-60.48	44.02	13.26	-47.334	-49.098	108.584	0.79504	-0.55579	0.20157	0.13504	31.0	13111	100
2025-3-27 18:32:40.311	WT901BLE68-01(48591DE3C19B)	0.211	-1.641	-0.146	4.333	-16.602	170.715	-59.71	45.20	14.50	-47.334	-49.098	108.584	0.79504	-0.55579	0.20157	0.13504	31.0	13111	100
2025-3-27 18:32:40.311	WT901BLE68-01(48591DE3C19B)	0.211	-1.848	-0.158	-9.216	-41.443	126.526	-58.98	46.10	15.77	-47.334	-49.098	108.584	0.79504	-0.55579	0.20157	0.13504	31.0	13111	100
2025-3-27 18:32:40.312	WT901BLE68-01(48591DE3C19B)	0.384	-1.848	-0.158	-9.216	-41.443	126.526	-58.30	46.73	17.04	-47.334	-49.098	108.584	0.79504	-0.55579	0.20157	0.13504	31.0	13111	100
2025-3-27 18:32:40.312	WT901BLE68-01(48591DE3C19B)	0.384	-1.917	-0.060	-7.202	-46.082	78.979	-57.82	46.91	18.01	-47.334	-49.098	108.584	0.79504	-0.55579	0.20157	0.13504	31.0	13111	100
2025-3-27 18:32:40.312	WT901BLE68-01(48591DE3C19B)	0.364	-1.917	-0.060	-7.202	-46.082	78.979	-57.33	47.08	18.98	-47.334	-49.098	108.584	0.79504	-0.55579	0.20157	0.13504	31.0	13111	100
2025-3-27 18:32:40.312	WT901BLE68-01(48591DE3C19B)	0.364	-1.647	0.045	-2.991	-25.330	29.236	-57.28	46.94	19.31	-47.334	-49.098	108.584	0.79504	-0.55579	0.20157	0.13504	31.0	13111	100
2025-3-27 18:32:40.370	WT901BLE68-01(48591DE3C19B)	0.290	-1.647	0.045	-2.991	-25.330	29.236	-57.23	46.79	19.63	-47.334	-49.098	108.584	0.79504	-0.55579	0.20157	0.13504	31.0	13111	100
2025-3-27 18:32:40.370	WT901BLE68-01(48591DE3C19B)	0.290	-1.411	0.103	-11.414	-0.427	-22.400	-57.78	46.33	19.24	-47.334	-49.098	108.584	0.79504	-0.55579	0.20157	0.13504	31.0	13111	100
2025-3-27 18:32:40.370	WT901BLE68-01(48591DE3C19B)	0.336	-1.411	0.103	-11.414	-0.427	-22.400	-58.31	45.88	18.85	-47.334	-49.098	108.584	0.79504	-0.55579	0.20157	0.13504	31.0	13111	100
2025-3-27 18:32:40.370	WT901BLE68-01(48591DE3C19B)	0.336	-1.307	0.067	-14.587	28.381	-64.209	-59.33	45.21	17.83	-47.334	-49.098	108.584	0.79504	-0.55579	0.20157	0.13504	31.0	13111	100
2025-3-27 18:32:40.399	WT901BLE68-01(48591DE3C19B)	0.333	-1.307	0.067	-14.587	28.381	-64.209	-60.31	44.52	16.84	-55.664	-50.666	100.744	0.79504	-0.55579	0.20157	0.13504	31.0	13111	100
2025-3-27 18:32:40.399	WT901BLE68-01(48591DE3C19B)	0.333	-1.208	0.022	-13.245	57.617	-99.121	-61.66	43.67	15.28	-55.664	-50.666	100.744	0.79504	-0.55579	0.20157	0.13504	31.0	13111	100
2025-3-27 18:32:40.399	WT901BLE68-01(48591DE3C19B)	0.245	-1.208	0.022	-13.245	57.617	-99.121	-62.95	42.78	13.79	-55.664	-50.666	100.744	0.79504	-0.55579	0.20157	0.13504	31.0	13111	100
2025-3-27 18:32:40.399	WT901BLE68-01(48591DE3C19B)	0.245	-1.125	0.017	-12.512	78.308	-126.465	-64.45	41.72	11.93	-55.664	-50.666	100.744	0.79504	-0.55579	0.20157	0.13504	31.0	13111	100
2025-3-27 18:32:40.430	WT901BLE68-01(48591DE3C19B)	0.132	-1.125	0.017	-12.512	78.308	-126.465	-65.86	40.63	10.15	-55.664	-50.666	100.744	0.79504	-0.55579	0.20157	0.13504	31.0	13111	100
2025-3-27 18:32:40.430	WT901BLE68-01(48591DE3C19B)	0.132	-1.125	0.022	-12.512	87.524	-149.048	-67.35	39.34	8.21	-55.664	-50.666	100.744	0.79504	-0.55579	0.20157	0.13504	31.0	13111	100
2025-3-27 18:32:40.430	WT901BLE68-01(48591DE3C19B)	0.036	-1.125	0.022	-12.512	87.524	-149.048	-68.75	38.02	6.35	-55.664	-50.666	100.744	0.79504	-0.55579	0.20157	0.13504	31.0	13111	100
2025-3-27 18:32:40.430	WT901BLE68-01(48591DE3C19B)	0.036	-1.182	0.057	-10.132	91.919	-167.664	-70.10	36.52	4.44	-55.664	-50.666	100.744	0.79504	-0.55579	0.20157	0.13504	31.0	13111	100
2025-3-27 18:32:40.490	WT901BLE68-01(48591DE3C19B)	-0.083	-1.182	0.057	-10.132	91.919	-167.664	-71.37	35.00	2.61	-55.664	-50.666	100.744	0.79504	-0.55579	0.20157	0.13504	31.0	13111	100
2025-3-27 18:32:40.490	WT901BLE68-01(48591DE3C19B)	-0.083	-1.231	0.094	-6.226	89.355	-182.922	-72.52	33.30	0.85	-55.664	-50.666	100.744	0.79504	-0.55579	0.20157	0.13504	31.0	13111	100
2025-3-27 18:32:40.490	WT901BLE68-01(48591DE3C19B)	-0.190	-1.231	0.094	-6.226	89.355	-182.922	-73.57	31.59	-0.84	-55.664	-50.666	100.744	0.79504	-0.55579	0.20157	0.13504	31.0	13111	100
2025-3-27 18:32:40.490	WT901BLE68-01(48591DE3C19B)	-0.190	-1.228	0.127	-4.211	75.073	-196.289	-74.46	29.71	-2.35	-55.664	-50.666	100.744	0.79504	-0.55579	0.20157	0.13504	31.0	13111	100
2025-3-27 18:32:40.519	WT901BLE68-01(48591DE3C19B)	-0.221	-1.228	0.127	-4.211	75.073	-196.289	-75.27	27.83	-3.78	-55.664	-50.666	100.744	0.79504	-0.55579	0.20157	0.13504	31.0	13111	100
2025-3-27 18:32:40.519	WT901BLE68-01(48591DE3C19B)	-0.221	-1.219	0.154	-5.859	59.998	-209.839	-75.96	25.77	-5.04	-55.664	-50.666	100.744	0.79504	-0.55579	0.20157	0.13504	31.0	13111	100
2025-3-27 18:32:40.520	WT901BLE68-01(48591DE3C19B)	-0.225	-1.219	0.154	-5.859	59.998	-209.839	-76.59	23.73	-6.24	-55.664	-50.666	100.744	0.79504	-0.55579	0.20157	0.13504	31.0	13111	100
2025-3-27 18:32:40.520	WT901BLE68-01(48591DE3C19B)	-0.225	-1.186	0.194	-8.972	57.739	-219.666	-77.17	21.59	-7.39	-55.664	-50.666	100.744	0.79504	-0.55579	0.20157	0.13504	31.0	13111	100
2025-3-27 18:32:40.552	WT901BLE68-01(48591DE3C19B)	-0.267	-1.186	0.194	-8.972	57.739	-219.666	-77.71	19.46	-8.50	-55.664	-50.666	100.744	0.79504	-0.55579	0.20157	0.13504	31.0	13111	100
2025-3-27 18:32:40.552	WT901BLE68-01(48591DE3C19B)	-0.267	-1.146	0.213	-11.841	62.012	-227.112	-78.23	17.28	-9.64	-55.664	-50.666	100.744	0.79504	-0.55579	0.20157	0.13504	31.0	13111	100
2025-3-27 18:32:40.552	WT901BLE68-01(48591DE3C19B)	-0.297	-1.146	0.213	-11.841	62.012	-227.112	-78.69	15.10	-10.73	-55.664	-50.666	100.744	0.79504	-0.55579	0.20157	0.13504	31.0	13111	100
2025-3-27 18:32:40.552	WT901BLE68-01(48591DE3C19B)	-0.297	-1.086	0.219	-13.672	63.721	-235.352	-79.12	12.86	-11.83	-55.664	-50.666	100.744	0.79504	-0.55579	0.20157	0.13504	31.0	13111	100
2025-3-27 18:32:40.610	WT901BLE68-01(48591DE3C19B)	-0.309	-1.086	0.219	-13.672	63.721	-235.352	-79.51	10.63	-12.95	-55.664	-50.666	100.744	0.79504	-0.55579	0.20157	0.13504	31.0	13111	100
2025-3-27 18:32:40.611	WT901BLE68-01(48591DE3C19B)	-0.309	-1.028	0.220	-14.038	62.073	-242.126	-79.85	8.34	-14.10	-55.664	-50.666	100.744	0.76340	-0.63010	0.12964	-0.05750	31.0	13111	100
2025-3-27 18:32:40.611	WT901BLE68-01(48591DE3C19B)	-0.347	-1.028	0.220	-14.038	62.073	-242.126	-80.13	6.08	-15.22	-55.664	-50.666	100.744	0.76340	-0.63010	0.12964	-0.05750	31.0	13111	100
2025-3-27 18:32:40.611	WT901BLE68-01(48591DE3C19B)	-0.347	-1.001	0.233	-12.817	54.260	-245.789	-80.35	3.77	-16.24	-55.664	-50.666	100.744	0.76340	-0.63010	0.12964	-0.05750	31.0	13111	100
2025-3-27 18:32:40.640	WT901BLE68-01(48591DE3C19B)	-0.389	-1.001	0.233	-12.817	54.260	-245.789	-80.53	1.48	-17.24	-55.664	-50.666	100.744	0.76340	-0.63010	0.12964	-0.05750	31.0	13111	100
2025-3-27 18:32:40.640	WT901BLE68-01(48591DE3C19B)	-0.389	-1.009	0.236	-9.338	42.603	-245.361	-80.63	-0.81	-18.10	-55.664	-50.666	100.744	0.76340	-0.63010	0.12964	-0.05750	31.0	13111	100
2025-3-27 18:32:40.640	WT901BLE68-01(48591DE3C19B)	-0.416	-1.009	0.236	-9.338	42.603	-245.361	-80.69	-3.08	-18.95	-55.664	-50.666	100.744	0.76340	-0.63010	0.12964	-0.05750	31.0	13111	100
2025-3-27 18:32:40.640	WT901BLE68-01(48591DE3C19B)	-0.416	-1.028	0.216	-4.150	35.522	-242.126	-80.68	-5.31	-19.71	-55.664	-50.666	100.744	0.76340	-0.63010	0.12964	-0.05750	31.0	13111	100
2025-3-27 18:32:40.668	WT901BLE68-01(48591DE3C19B)	-0.463	-1.028	0.216	-4.150	35.522	-242.126	-80.63	-7.52	-20.47	-55.664	-50.666	100.744	0.76340	-0.63010	0.12964	-0.05750	31.0	13111	100
2025-3-27 18:32:40.669	WT901BLE68-01(48591DE3C19B)	-0.463	-1.038	0.178	1.953	25.452	-236.511	-80.51	-9.67	-21.12	-55.664	-50.666	100.744	0.76340	-0.63010	0.12964	-0.05750	31.0	13111	100
2025-3-27 18:32:40.669	WT901BLE68-01(48591DE3C19B)	-0.522	-1.038	0.178	1.953	25.452	-236.511	-80.38	-11.81	-21.76	-55.664	-50.666	100.744	0.76340	-0.63010	0.12964	-0.05750	31.0	13111	100
2025-3-27 18:32:40.669	WT901BLE68-01(48591DE3C19B)	-0.522	-1.059	0.172	5.371	5.005	-228.088	-80.23	-13.88	-22.18	-55.664	-50.666	100.744	0.76340	-0.63010	0.12964	-0.05750	31.0	13111	100
2025-3-27 18:32:40.731	WT901BLE68-01(48591DE3C19B)	-0.540	-1.059	0.172	5.371	5.005	-228.088	-80.07	-15.92	-22.59	-55.664	-50.666	100.744	0.76340	-0.63010	0.12964	-0.05750	31.0	13111	100
2025-3-27 18:32:40.731	WT901BLE68-01(48591DE3C19B)	-0.540	-1.117	0.202	5.066	-20.203	-216.980	-79.98	-17.89	-22.73	-55.664	-50.666	100.744	0.76340	-0.63010	0.12964	-0.05750	31.0	13111	100
2025-3-27 18:32:40.731	WT901BLE68-01(48591DE3C19B)	-0.522	-1.117	0.202	5.066	-20.203	-216.980	-79.89	-19.83	-22.86	-55.664	-50.666	100.744	0.76340	-0.63010	0.12964	-0.05750	31.0	13111	100
2025-3-27 18:32:40.731	WT901BLE68-01(48591DE3C19B)	-0.522	-1.206	0.232	1.709	-41.443	-202.820	-79.92	-21.67	-22.74	-55.664	-50.666	100.744	0.76340	-0.63010	0.12964	-0.05750	31.0	13111	100
2025-3-27 18:32:40.759	WT901BLE68-01(48591DE3C19B)	-0.540	-1.206	0.232	1.709	-41.443	-202.820	-79.95	-23.48	-22.61	-55.664	-50.666	100.744	0.76340	-0.63010	0.12964	-0.05750	31.0	13111	100
2025-3-27 18:32:40.759	WT901BLE68-01(48591DE3C19B)	-0.583	-1.435	0.278	-4.333	-65.674	-186.340	-80.17	-25.18	-22.18	-55.664	-50.666	100.744	0.76340	-0.63010	0.12964	-0.05750	31.0	13111	100
2025-3-27 18:32:40.759	WT901BLE68-01(48591DE3C19B)	-0.583	-1.698	0.342	-8.545	-77.881	-166.931	-80.46	-26.77	-21.64	-55.664	-50.666	100.744	0.76340	-0.63010	0.12964	-0.05750	31.0	13111	100
2025-3-27 18:32:40.759	WT901BLE68-01(48591DE3C19B)	-0.650	-1.698	0.342	-8.545	-77.881	-166.931	-80.83	-28.26	-21.01	-55.664	-50.666	100.744	0.76340	-0.63010	0.12964	-0.05750	31.0	13111	100
2025-3-27 18:32:40.790	WT901BLE68-01(48591DE3C19B)	-0.650	-1.860	0.479	-2.625	-50.781	-135.376	-81.13	-29.57	-20.47	-55.664	-50.666	100.744	0.76340	-0.63010	0.12964	-0.05750	31.0	13111	100
2025-3-27 18:32:40.790	WT901BLE68-01(48591DE3C19B)	-0.675	-1.860	0.479	-2.625	-50.781	-135.376	-81.35	-30.70	-20.06	-55.664	-50.666	100.744	0.76340	-0.63010	0.12964	-0.05750	31.0	13111	100
2025-3-27 18:32:40.790	WT901BLE68-01(48591DE3C19B)	-0.675	-1.628	0.557	3.296	12.939	-95.459	-81.36	-31.57	-19.96	-36.456	-52.920	94.276	0.76340	-0.63010	0.12964	-0.05750	31.0	13111	100
2025-3-27 18:32:40.790	WT901BLE68-01(48591DE3C19B)	-0.645	-1.628	0.557	3.296	12.939	-95.459	-81.18	-32.20	-20.20	-36.456	-52.920	94.276	0.76340	-0.63010	0.12964	-0.05750	31.0	13111	100
2025-3-27 18:32:40.850	WT901BLE68-01(48591DE3C19B)	-0.645	-1.340	0.571	-2.380	78.125	-41.321	-80.84	-32.49	-20.78	-36.456	-52.920	94.276	0.76340	-0.63010	0.12964	-0.05750	31.0	13111	100
2025-3-27 18:32:40.850	WT901BLE68-01(48591DE3C19B)	-0.657	-1.340	0.571	-2.380	78.125	-41.321	-80.34	-32.46	-21.67	-36.456	-52.920	94.276	0.76340	-0.63010	0.12964	-0.05750	31.0	13111	100
2025-3-27 18:32:40.850	WT901BLE68-01(48591DE3C19B)	-0.657	-1.169	0.572	-9.277	107.788	16.296	-79.82	-32.12	-22.68	-36.456	-52.920	94.276	0.76340	-0.63010	0.12964	-0.05750	31.0	13111	100
2025-3-27 18:32:40.850	WT901BLE68-01(48591DE3C19B)	-0.691	-1.169	0.572	-9.277	107.788	16.296	-79.29	-31.45	-23.77	-36.456	-52.920	94.276	0.76340	-0.63010	0.12964	-0.05750	31.0	13111	100
2025-3-27 18:32:40.886	WT901BLE68-01(48591DE3C19B)	-0.691	-1.107	0.586	-13.733	82.642	68.542	-78.91	-30.55	-24.64	-36.456	-52.920	94.276	0.76340	-0.63010	0.12964	-0.05750	31.0	13111	100
2025-3-27 18:32:40.886	WT901BLE68-01(48591DE3C19B)	-0.688	-1.107	0.586	-13.733	82.642	68.542	-78.68	-29.41	-25.30	-36.456	-52.920	94.276	0.76340	-0.63010	0.12964	-0.05750	31.0	13111	100
2025-3-27 18:32:40.886	WT901BLE68-01(48591DE3C19B)	-0.688	-1.009	0.532	-13.000	34.546	112.000	-78.61	-28.11	-25.61	-36.456	-52.920	94.276	0.76340	-0.63010	0.12964	-0.05750	31.0	13111	100
2025-3-27 18:32:40.886	WT901BLE68-01(48591DE3C19B)	-0.695	-1.009	0.532	-13.000	34.546	112.000	-78.70	-26.64	-25.61	-36.456	-52.920	94.276	0.76340	-0.63010	0.12964	-0.05750	31.0	13111	100
2025-3-27 18:32:40.909	WT901BLE68-01(48591DE3C19B)	-0.695	-0.893	0.394	-9.949	-11.169	150.513	-78.89	-25.04	-25.32	-36.456	-52.920	94.276	0.76340	-0.63010	0.12964	-0.05750	31.0	13111	100
2025-3-27 18:32:40.910	WT901BLE68-01(48591DE3C19B)	-0.656	-0.893	0.394	-9.949	-11.169	150.513	-79.17	-23.29	-24.75	-36.456	-52.920	94.276	0.76340	-0.63010	0.12964	-0.05750	31.0	13111	100
2025-3-27 18:32:40.910	WT901BLE68-01(48591DE3C19B)	-0.656	-0.857	0.229	-6.226	-46.753	179.565	-79.50	-21.43	-23.98	-36.456	-52.920	94.276	0.76340	-0.63010	0.12964	-0.05750	31.0	13111	100
2025-3-27 18:32:40.910	WT901BLE68-01(48591DE3C19B)	-0.591	-0.857	0.229	-6.226	-46.753	179.565	-79.85	-19.47	-23.02	-36.456	-52.920	94.276	0.76340	-0.63010	0.12964	-0.05750	31.0	13111	100
2025-3-27 18:32:40.970	WT901BLE68-01(48591DE3C19B)	-0.591	-0.927	0.101	-1.282	-65.857	200.134	-80.18	-17.42	-21.97	-36.456	-52.920	94.276	0.76340	-0.63010	0.12964	-0.05750	31.0	13111	100
2025-3-27 18:32:40.970	WT901BLE68-01(48591DE3C19B)	-0.518	-0.927	0.101	-1.282	-65.857	200.134	-80.48	-15.30	-20.83	-36.456	-52.920	94.276	0.76340	-0.63010	0.12964	-0.05750	31.0	13111	100
2025-3-27 18:32:40.970	WT901BLE68-01(48591DE3C19B)	-0.518	-1.078	0.053	6.042	-75.562	212.097	-80.71	-13.13	-19.66	-36.456	-52.920	94.276	0.76340	-0.63010	0.12964	-0.05750	31.0	13111	100
2025-3-27 18:32:40.970	WT901BLE68-01(48591DE3C19B)	-0.457	-1.078	0.053	6.042	-75.562	212.097	-80.88	-10.91	-18.46	-36.456	-52.920	94.276	0.76340	-0.63010	0.12964	-0.05750	31.0	13111	100
2025-3-27 18:32:40.999	WT901BLE68-01(48591DE3C19B)	-0.457	-1.251	0.079	19.714	-86.121	217.896	-80.94	-8.70	-17.22	-36.456	-52.920	94.276	0.76340	-0.63010	0.12964	-0.05750	31.0	13111	100
2025-3-27 18:32:41.0	WT901BLE68-01(48591DE3C19B)	-0.378	-1.251	0.079	19.714	-86.121	217.896	-80.90	-6.48	-15.95	-36.456	-52.920	94.276	0.76340	-0.63010	0.12964	-0.05750	31.0	13111	100
2025-3-27 18:32:41.0	WT901BLE68-01(48591DE3C19B)	-0.378	-1.326	0.100	35.706	-95.581	220.520	-80.74	-4.27	-14.65	-36.456	-52.920	94.276	0.76340	-0.63010	0.12964	-0.05750	31.0	13111	100
2025-3-27 18:32:41.0	WT901BLE68-01(48591DE3C19B)	-0.282	-1.326	0.100	35.706	-95.581	220.520	-80.45	-2.09	-13.31	-36.456	-52.920	94.276	0.75684	-0.64291	0.06100	-0.10013	31.0	13111	100
2025-3-27 18:32:41.30	WT901BLE68-01(48591DE3C19B)	-0.282	-1.354	0.102	48.401	-91.492	222.900	-80.05	0.08	-11.99	-36.456	-52.920	94.276	0.75684	-0.64291	0.06100	-0.10013	31.0	13111	100
2025-3-27 18:32:41.30	WT901BLE68-01(48591DE3C19B)	-0.241	-1.354	0.102	48.401	-91.492	222.900	-79.54	2.24	-10.69	-36.456	-52.920	94.276	0.75684	-0.64291	0.06100	-0.10013	31.0	13111	100
2025-3-27 18:32:41.30	WT901BLE68-01(48591DE3C19B)	-0.241	-1.335	0.100	60.242	-70.862	224.915	-78.94	4.40	-9.49	-36.456	-52.920	94.276	0.75684	-0.64291	0.06100	-0.10013	31.0	13111	100
2025-3-27 18:32:41.30	WT901BLE68-01(48591DE3C19B)	-0.239	-1.335	0.100	60.242	-70.862	224.915	-78.24	6.55	-8.37	-36.456	-52.920	94.276	0.75684	-0.64291	0.06100	-0.10013	31.0	13111	100
2025-3-27 18:32:41.90	WT901BLE68-01(48591DE3C19B)	-0.239	-1.220	0.090	63.782	-45.410	228.455	-77.50	8.72	-7.36	-36.456	-52.920	94.276	0.75684	-0.64291	0.06100	-0.10013	31.0	13111	100
2025-3-27 18:32:41.90	WT901BLE68-01(48591DE3C19B)	-0.235	-1.220	0.090	63.782	-45.410	228.455	-76.72	10.90	-6.44	-36.456	-52.920	94.276	0.75684	-0.64291	0.06100	-0.10013	31.0	13111	100
2025-3-27 18:32:41.90	WT901BLE68-01(48591DE3C19B)	-0.235	-1.139	0.077	57.556	-29.602	233.154	-75.95	13.08	-5.58	-36.456	-52.920	94.276	0.75684	-0.64291	0.06100	-0.10013	31.0	13111	100
2025-3-27 18:32:41.90	WT901BLE68-01(48591DE3C19B)	-0.236	-1.139	0.077	57.556	-29.602	233.154	-75.20	15.29	-4.76	-36.456	-52.920	94.276	0.75684	-0.64291	0.06100	-0.10013	31.0	13111	100
2025-3-27 18:32:41.122	WT901BLE68-01(48591DE3C19B)	-0.236	-1.241	0.077	50.354	-24.719	238.525	-74.45	17.51	-3.93	-36.456	-52.920	94.276	0.75684	-0.64291	0.06100	-0.10013	31.0	13111	100
2025-3-27 18:32:41.122	WT901BLE68-01(48591DE3C19B)	-0.157	-1.241	0.077	50.354	-24.719	238.525	-73.71	19.72	-3.09	-36.456	-52.920	94.276	0.75684	-0.64291	0.06100	-0.10013	31.0	13111	100
2025-3-27 18:32:41.122	WT901BLE68-01(48591DE3C19B)	-0.157	-1.321	0.035	50.232	-13.794	247.253	-72.94	21.97	-2.27	-36.456	-52.920	94.276	0.75684	-0.64291	0.06100	-0.10013	31.0	13111	100
2025-3-27 18:32:41.122	WT901BLE68-01(48591DE3C19B)	-0.074	-1.321	0.035	50.232	-13.794	247.253	-72.14	24.25	-1.45	-36.456	-52.920	94.276	0.75684	-0.64291	0.06100	-0.10013	31.0	13111	100
2025-3-27 18:32:41.152	WT901BLE68-01(48591DE3C19B)	-0.074	-1.340	-0.040	44.678	2.197	254.150	-71.37	26.55	-0.66	-36.456	-52.920	94.276	0.75684	-0.64291	0.06100	-0.10013	31.0	13111	100
2025-3-27 18:32:41.152	WT901BLE68-01(48591DE3C19B)	-0.025	-1.340	-0.040	44.678	2.197	254.150	-70.61	28.89	0.07	-36.456	-52.920	94.276	0.75684	-0.64291	0.06100	-0.10013	31.0	13111	100
2025-3-27 18:32:41.153	WT901BLE68-01(48591DE3C19B)	-0.025	-1.458	-0.082	33.630	14.038	252.991	-69.90	31.22	0.79	-36.456	-52.920	94.276	0.75684	-0.64291	0.06100	-0.10013	31.0	13111	100
2025-3-27 18:32:41.153	WT901BLE68-01(48591DE3C19B)	-0.054	-1.458	-0.082	33.630	14.038	252.991	-69.24	33.53	1.47	-36.456	-52.920	94.276	0.75684	-0.64291	0.06100	-0.10013	31.0	13111	100
2025-3-27 18:32:41.211	WT901BLE68-01(48591DE3C19B)	-0.054	-1.726	-0.076	21.606	9.949	243.286	-68.59	35.77	2.19	-36.456	-52.920	94.276	0.75684	-0.64291	0.06100	-0.10013	31.0	13111	100
2025-3-27 18:32:41.211	WT901BLE68-01(48591DE3C19B)	-0.065	-1.726	-0.076	21.606	9.949	243.286	-67.96	37.94	2.95	-55.664	-46.648	86.338	0.75684	-0.64291	0.06100	-0.10013	31.0	13111	100
2025-3-27 18:32:41.211	WT901BLE68-01(48591DE3C19B)	-0.065	-1.999	-0.078	12.878	-12.268	227.661	-67.26	39.96	3.85	-55.664	-46.648	86.338	0.75684	-0.64291	0.06100	-0.10013	31.0	13111	100
2025-3-27 18:32:41.211	WT901BLE68-01(48591DE3C19B)	-0.053	-1.999	-0.078	12.878	-12.268	227.661	-66.49	41.86	4.88	-55.664	-46.648	86.338	0.75684	-0.64291	0.06100	-0.10013	31.0	13111	100
2025-3-27 18:32:41.239	WT901BLE68-01(48591DE3C19B)	-0.053	-2.119	-0.035	11.047	-31.982	207.092	-65.60	43.46	6.10	-55.664	-46.648	86.338	0.75684	-0.64291	0.06100	-0.10013	31.0	13111	100
2025-3-27 18:32:41.239	WT901BLE68-01(48591DE3C19B)	-0.017	-2.119	-0.035	11.047	-31.982	207.092	-64.64	45.03	7.37	-55.664	-46.648	86.338	0.75684	-0.64291	0.06100	-0.10013	31.0	13111	100
2025-3-27 18:32:41.239	WT901BLE68-01(48591DE3C19B)	-0.017	-2.104	0.006	3.479	-54.504	174.622	-63.62	46.19	8.79	-55.664	-46.648	86.338	0.75684	-0.64291	0.06100	-0.10013	31.0	13111	100
2025-3-27 18:32:41.240	WT901BLE68-01(48591DE3C19B)	0.176	-2.104	0.006	3.479	-54.504	174.622	-62.56	47.33	10.25	-55.664	-46.648	86.338	0.75684	-0.64291	0.06100	-0.10013	31.0	13111	100
2025-3-27 18:32:41.330	WT901BLE68-01(48591DE3C19B)	0.176	-2.007	0.010	-0.427	-72.876	134.399	-61.51	48.00	11.71	-55.664	-46.648	86.338	0.75684	-0.64291	0.06100	-0.10013	31.0	13111	100
2025-3-27 18:32:41.330	WT901BLE68-01(48591DE3C19B)	0.344	-2.007	0.010	-0.427	-72.876	134.399	-60.44	48.64	13.20	-55.664	-46.648	86.338	0.75684	-0.64291	0.06100	-0.10013	31.0	13111	100
2025-3-27 18:32:41.330	WT901BLE68-01(48591DE3C19B)	0.344	-1.688	0.049	0.305	-78.613	91.675	-59.52	48.86	14.45	-55.664	-46.648	86.338	0.75684	-0.64291	0.06100	-0.10013	31.0	13111	100
2025-3-27 18:32:41.330	WT901BLE68-01(48591DE3C19B)	0.458	-1.688	0.049	0.305	-78.613	91.675	-58.61	49.06	15.69	-55.664	-46.648	86.338	0.75684	-0.64291	0.06100	-0.10013	31.0	13111	100
2025-3-27 18:32:41.332	WT901BLE68-01(48591DE3C19B)	0.458	-1.364	0.116	-4.700	-60.486	46.082	-58.21	48.96	16.34	-55.664	-46.648	86.338	0.75684	-0.64291	0.06100	-0.10013	31.0	13111	100
2025-3-27 18:32:41.332	WT901BLE68-01(48591DE3C19B)	0.443	-1.364	0.116	-4.700	-60.486	46.082	-57.82	48.85	16.96	-55.664	-46.648	86.338	0.75684	-0.64291	0.06100	-0.10013	31.0	13111	100
2025-3-27 18:32:41.332	WT901BLE68-01(48591DE3C19B)	0.443	-1.162	0.113	-9.155	-21.118	1.282	-58.12	48.56	16.70	-55.664	-46.648	86.338	0.75684	-0.64291	0.06100	-0.10013	31.0	13111	100
2025-3-27 18:32:41.332	WT901BLE68-01(48591DE3C19B)	0.338	-1.162	0.113	-9.155	-21.118	1.282	-58.44	48.27	16.45	-55.664	-46.648	86.338	0.75684	-0.64291	0.06100	-0.10013	31.0	13111	100
2025-3-27 18:32:41.362	WT901BLE68-01(48591DE3C19B)	0.338	-1.015	0.074	-11.292	18.677	-41.016	-59.39	47.82	15.36	-55.664	-46.648	86.338	0.75684	-0.64291	0.06100	-0.10013	31.0	13111	100
2025-3-27 18:32:41.362	WT901BLE68-01(48591DE3C19B)	0.228	-1.015	0.074	-11.292	18.677	-41.016	-60.31	47.36	14.30	-55.664	-46.648	86.338	0.75684	-0.64291	0.06100	-0.10013	31.0	13111	100
2025-3-27 18:32:41.362	WT901BLE68-01(48591DE3C19B)	0.228	-0.903	0.073	-15.320	41.016	-76.599	-61.64	46.68	12.73	-55.664	-46.648	86.338	0.75684	-0.64291	0.06100	-0.10013	31.0	13111	100
2025-3-27 18:32:41.362	WT901BLE68-01(48591DE3C19B)	0.143	-0.903	0.073	-15.320	41.016	-76.599	-62.93	45.97	11.20	-55.664	-46.648	86.338	0.75684	-0.64291	0.06100	-0.10013	31.0	13111	100
2025-3-27 18:32:41.421	WT901BLE68-01(48591DE3C19B)	0.143	-0.897	0.085	-19.531	42.236	-108.337	-64.36	44.97	9.50	-55.664	-46.648	86.338	0.75684	-0.64291	0.06100	-0.10013	31.0	13111	100
2025-3-27 18:32:41.421	WT901BLE68-01(48591DE3C19B)	0.074	-0.897	0.085	-19.531	42.236	-108.337	-65.71	43.95	7.88	-55.664	-46.648	86.338	0.76382	-0.52698	0.27655	0.24954	31.0	13111	100
2025-3-27 18:32:41.421	WT901BLE68-01(48591DE3C19B)	0.074	-0.965	0.096	-23.132	33.264	-136.475	-67.05	42.61	6.30	-55.664	-46.648	86.338	0.76382	-0.52698	0.27655	0.24954	31.0	13111	100
2025-3-27 18:32:41.421	WT901BLE68-01(48591DE3C19B)	-0.001	-0.965	0.096	-23.132	33.264	-136.475	-68.30	41.25	4.79	-55.664	-46.648	86.338	0.76382	-0.52698	0.27655	0.24954	31.0	13111	100
2025-3-27 18:32:41.449	WT901BLE68-01(48591DE3C19B)	-0.001	-1.046	0.127	-25.696	25.391	-158.020	-69.51	39.66	3.36	-55.664	-46.648	86.338	0.76382	-0.52698	0.27655	0.24954	31.0	13111	100
2025-3-27 18:32:41.449	WT901BLE68-01(48591DE3C19B)	-0.065	-1.046	0.127	-25.696	25.391	-158.020	-70.62	38.05	2.02	-55.664	-46.648	86.338	0.76382	-0.52698	0.27655	0.24954	31.0	13111	100
2025-3-27 18:32:41.449	WT901BLE68-01(48591DE3C19B)	-0.065	-1.113	0.151	-28.259	16.968	-174.866	-71.66	36.24	0.78	-55.664	-46.648	86.338	0.76382	-0.52698	0.27655	0.24954	31.0	13111	100
2025-3-27 18:32:41.449	WT901BLE68-01(48591DE3C19B)	-0.106	-1.113	0.151	-28.259	16.968	-174.866	-72.63	34.44	-0.38	-55.664	-46.648	86.338	0.76382	-0.52698	0.27655	0.24954	31.0	13111	100
2025-3-27 18:32:41.487	WT901BLE68-01(48591DE3C19B)	-0.106	-1.108	0.192	-30.884	11.169	-188.721	-73.53	32.48	-1.45	-55.664	-46.648	86.338	0.76382	-0.52698	0.27655	0.24954	31.0	13111	100
2025-3-27 18:32:41.487	WT901BLE68-01(48591DE3C19B)	-0.135	-1.108	0.192	-30.884	11.169	-188.721	-74.37	30.53	-2.45	-55.664	-46.648	86.338	0.76382	-0.52698	0.27655	0.24954	31.0	13111	100
2025-3-27 18:32:41.487	WT901BLE68-01(48591DE3C19B)	-0.135	-1.066	0.234	-36.682	13.000	-202.332	-75.23	28.45	-3.46	-55.664	-46.648	86.338	0.76382	-0.52698	0.27655	0.24954	31.0	13111	100
2025-3-27 18:32:41.487	WT901BLE68-01(48591DE3C19B)	-0.173	-1.066	0.234	-36.682	13.000	-202.332	-76.03	26.37	-4.39	-55.664	-46.648	86.338	0.76382	-0.52698	0.27655	0.24954	31.0	13111	100
2025-3-27 18:32:41.570	WT901BLE68-01(48591DE3C19B)	-0.173	-1.036	0.252	-42.175	21.179	-214.111	-76.87	24.21	-5.39	-55.664	-46.648	86.338	0.76382	-0.52698	0.27655	0.24954	31.0	13111	100
2025-3-27 18:32:41.570	WT901BLE68-01(48591DE3C19B)	-0.231	-1.036	0.252	-42.175	21.179	-214.111	-77.65	22.04	-6.34	-55.664	-46.648	86.338	0.76382	-0.52698	0.27655	0.24954	31.0	13111	100
2025-3-27 18:32:41.570	WT901BLE68-01(48591DE3C19B)	-0.231	-1.028	0.282	-46.143	32.043	-222.412	-78.46	19.83	-7.36	-55.664	-46.648	86.338	0.76382	-0.52698	0.27655	0.24954	31.0	13111	100
2025-3-27 18:32:41.570	WT901BLE68-01(48591DE3C19B)	-0.334	-1.028	0.282	-46.143	32.043	-222.412	-79.21	17.62	-8.32	-55.664	-46.648	86.338	0.76382	-0.52698	0.27655	0.24954	31.0	13111	100
2025-3-27 18:32:41.572	WT901BLE68-01(48591DE3C19B)	-0.334	-1.054	0.315	-47.180	39.307	-226.990	-79.94	15.39	-9.31	-55.664	-46.648	86.338	0.76382	-0.52698	0.27655	0.24954	31.0	13111	100
2025-3-27 18:32:41.572	WT901BLE68-01(48591DE3C19B)	-0.450	-1.054	0.315	-47.180	39.307	-226.990	-80.61	13.17	-10.26	-55.664	-46.648	86.338	0.76382	-0.52698	0.27655	0.24954	31.0	13111	100
2025-3-27 18:32:41.572	WT901BLE68-01(48591DE3C19B)	-0.450	-1.069	0.361	-46.448	33.752	-226.990	-81.22	10.95	-11.10	-55.664	-46.648	86.338	0.76382	-0.52698	0.27655	0.24954	31.0	13111	100
2025-3-27 18:32:41.572	WT901BLE68-01(48591DE3C19B)	-0.521	-1.069	0.361	-46.448	33.752	-226.990	-81.78	8.75	-11.90	-51.744	-48.804	78.302	0.76382	-0.52698	0.27655	0.24954	31.0	13111	100
2025-3-27 18:32:41.600	WT901BLE68-01(48591DE3C19B)	-0.521	-1.113	0.386	-45.471	21.240	-224.121	-82.27	6.56	-12.55	-51.744	-48.804	78.302	0.76382	-0.52698	0.27655	0.24954	31.0	13111	100
2025-3-27 18:32:41.600	WT901BLE68-01(48591DE3C19B)	-0.530	-1.113	0.386	-45.471	21.240	-224.121	-82.73	4.41	-13.15	-51.744	-48.804	78.302	0.76382	-0.52698	0.27655	0.24954	31.0	13111	100
2025-3-27 18:32:41.600	WT901BLE68-01(48591DE3C19B)	-0.530	-1.193	0.303	-44.250	9.216	-218.994	-83.15	2.30	-13.60	-51.744	-48.804	78.302	0.76382	-0.52698	0.27655	0.24954	31.0	13111	100
2025-3-27 18:32:41.600	WT901BLE68-01(48591DE3C19B)	-0.593	-1.193	0.303	-44.250	9.216	-218.994	-83.55	0.20	-14.03	-51.744	-48.804	78.302	0.76382	-0.52698	0.27655	0.24954	31.0	13111	100
2025-3-27 18:32:41.660	WT901BLE68-01(48591DE3C19B)	-0.593	-1.263	0.234	-41.565	-7.507	-209.900	-83.91	-1.79	-14.25	-51.744	-48.804	78.302	0.76382	-0.52698	0.27655	0.24954	31.0	13111	100
2025-3-27 18:32:41.660	WT901BLE68-01(48591DE3C19B)	-0.626	-1.263	0.234	-41.565	-7.507	-209.900	-84.27	-3.77	-14.45	-51.744	-48.804	78.302	0.76382	-0.52698	0.27655	0.24954	31.0	13111	100
2025-3-27 18:32:41.660	WT901BLE68-01(48591DE3C19B)	-0.626	-1.327	0.243	-38.574	-23.193	-200.745	-84.61	-5.66	-14.47	-51.744	-48.804	78.302	0.76382	-0.52698	0.27655	0.24954	31.0	13111	100
2025-3-27 18:32:41.660	WT901BLE68-01(48591DE3C19B)	-0.540	-1.327	0.243	-38.574	-23.193	-200.745	-84.94	-7.54	-14.47	-51.744	-48.804	78.302	0.76382	-0.52698	0.27655	0.24954	31.0	13111	100
2025-3-27 18:32:41.689	WT901BLE68-01(48591DE3C19B)	-0.540	-1.360	0.315	-39.429	-9.888	-189.758	-85.28	-9.27	-14.57	-51.744	-48.804	78.302	0.76382	-0.52698	0.27655	0.24954	31.0	13111	100
2025-3-27 18:32:41.689	WT901BLE68-01(48591DE3C19B)	-0.377	-1.360	0.315	-39.429	-9.888	-189.758	-85.61	-11.00	-14.66	-51.744	-48.804	78.302	0.76382	-0.52698	0.27655	0.24954	31.0	13111	100
2025-3-27 18:32:41.689	WT901BLE68-01(48591DE3C19B)	-0.441	-1.452	0.407	-36.316	65.796	-179.810	-85.74	-12.56	-15.51	-51.744	-48.804	78.302	0.76382	-0.52698	0.27655	0.24954	31.0	13111	100
2025-3-27 18:32:41.689	WT901BLE68-01(48591DE3C19B)	-0.441	-1.520	0.502	-21.667	153.809	-166.077	-85.68	-14.02	-16.79	-51.744	-48.804	78.302	0.76382	-0.52698	0.27655	0.24954	31.0	13111	100
2025-3-27 18:32:41.719	WT901BLE68-01(48591DE3C19B)	-0.699	-1.520	0.502	-21.667	153.809	-166.077	-85.40	-15.36	-18.54	-51.744	-48.804	78.302	0.76382	-0.52698	0.27655	0.24954	31.0	13111	100
2025-3-27 18:32:41.719	WT901BLE68-01(48591DE3C19B)	-0.699	-1.380	0.545	-3.113	191.223	-145.142	-84.93	-16.57	-20.48	-51.744	-48.804	78.302	0.76382	-0.52698	0.27655	0.24954	31.0	13111	100
2025-3-27 18:32:41.720	WT901BLE68-01(48591DE3C19B)	-0.828	-1.380	0.545	-3.113	191.223	-145.142	-84.28	-17.62	-22.61	-51.744	-48.804	78.302	0.76382	-0.52698	0.27655	0.24954	31.0	13111	100
2025-3-27 18:32:41.720	WT901BLE68-01(48591DE3C19B)	-0.828	-1.123	0.513	10.681	194.519	-121.521	-83.51	-18.52	-24.76	-51.744	-48.804	78.302	0.76382	-0.52698	0.27655	0.24954	31.0	13111	100
2025-3-27 18:32:41.785	WT901BLE68-01(48591DE3C19B)	-0.854	-1.123	0.513	10.681	194.519	-121.521	-82.66	-19.25	-26.92	-51.744	-48.804	78.302	0.76382	-0.52698	0.27655	0.24954	31.0	13111	100
2025-3-27 18:32:41.785	WT901BLE68-01(48591DE3C19B)	-0.854	-0.913	0.333	16.357	191.833	-93.933	-81.75	-19.81	-29.05	-51.744	-48.804	78.302	0.76382	-0.52698	0.27655	0.24954	31.0	13111	100
2025-3-27 18:32:41.785	WT901BLE68-01(48591DE3C19B)	-0.970	-0.913	0.333	16.357	191.833	-93.933	-80.83	-20.18	-31.14	-51.744	-48.804	78.302	0.76382	-0.52698	0.27655	0.24954	31.0	13111	100
2025-3-27 18:32:41.785	WT901BLE68-01(48591DE3C19B)	-0.970	-0.805	0.142	13.062	163.086	-63.599	-79.99	-20.39	-33.04	-51.744	-48.804	78.302	0.76382	-0.52698	0.27655	0.24954	31.0	13111	100
2025-3-27 18:32:41.810	WT901BLE68-01(48591DE3C19B)	-1.105	-0.805	0.142	13.062	163.086	-63.599	-79.23	-20.43	-34.74	-51.744	-48.804	78.302	0.68927	-0.63705	0.06042	-0.33960	31.0	13111	100
2025-3-27 18:32:41.810	WT901BLE68-01(48591DE3C19B)	-1.105	-0.769	0.086	8.606	94.299	-29.907	-78.66	-20.36	-36.03	-51.744	-48.804	78.302	0.68927	-0.63705	0.06042	-0.33960	31.0	13111	100
2025-3-27 18:32:41.810	WT901BLE68-01(48591DE3C19B)	-1.190	-0.769	0.086	8.606	94.299	-29.907	-78.27	-20.16	-36.90	-51.744	-48.804	78.302	0.68927	-0.63705	0.06042	-0.33960	31.0	13111	100
2025-3-27 18:32:41.810	WT901BLE68-01(48591DE3C19B)	-1.190	-0.721	0.091	0.916	2.991	9.644	-78.11	-19.85	-37.24	-51.744	-48.804	78.302	0.68927	-0.63705	0.06042	-0.33960	31.0	13111	100
2025-3-27 18:32:41.839	WT901BLE68-01(48591DE3C19B)	-1.180	-0.721	0.091	0.916	2.991	9.644	-78.18	-19.43	-37.05	-51.744	-48.804	78.302	0.68927	-0.63705	0.06042	-0.33960	31.0	13111	100
2025-3-27 18:32:41.839	WT901BLE68-01(48591DE3C19B)	-1.180	-0.850	0.068	-10.925	-91.003	53.223	-78.50	-18.89	-36.31	-51.744	-48.804	78.302	0.68927	-0.63705	0.06042	-0.33960	31.0	13111	100
2025-3-27 18:32:41.839	WT901BLE68-01(48591DE3C19B)	-1.111	-0.850	0.068	-10.925	-91.003	53.223	-79.04	-18.22	-35.05	-51.744	-48.804	78.302	0.68927	-0.63705	0.06042	-0.33960	31.0	13111	100
2025-3-27 18:32:41.839	WT901BLE68-01(48591DE3C19B)	-1.111	-1.097	0.028	-13.977	-178.955	97.717	-79.73	-17.39	-33.29	-51.744	-48.804	78.302	0.68927	-0.63705	0.06042	-0.33960	31.0	13111	100
2025-3-27 18:32:41.899	WT901BLE68-01(48591DE3C19B)	-0.892	-1.097	0.028	-13.977	-178.955	97.717	-80.55	-16.41	-31.09	-51.744	-48.804	78.302	0.68927	-0.63705	0.06042	-0.33960	31.0	13111	100
2025-3-27 18:32:41.899	WT901BLE68-01(48591DE3C19B)	-0.892	-1.313	0.002	-4.456	-248.108	137.939	-81.38	-15.25	-28.53	-51.744	-48.804	78.302	0.68927	-0.63705	0.06042	-0.33960	31.0	13111	100
2025-3-27 18:32:41.899	WT901BLE68-01(48591DE3C19B)	-0.567	-1.313	0.002	-4.456	-248.108	137.939	-82.19	-13.93	-25.63	-51.744	-48.804	78.302	0.68927	-0.63705	0.06042	-0.33960	31.0	13111	100
2025-3-27 18:32:41.899	WT901BLE68-01(48591DE3C19B)	-0.567	-1.445	-0.005	14.038	-283.447	172.974	-82.86	-12.43	-22.59	-51.744	-48.804	78.302	0.68927	-0.63705	0.06042	-0.33960	31.0	13111	100
2025-3-27 18:32:41.929	WT901BLE68-01(48591DE3C19B)	-0.248	-1.445	-0.005	14.038	-283.447	172.974	-83.39	-10.76	-19.41	-51.744	-48.804	78.302	0.68927	-0.63705	0.06042	-0.33960	31.0	13111	100
2025-3-27 18:32:41.929	WT901BLE68-01(48591DE3C19B)	-0.248	-1.526	0.005	37.537	-267.578	198.608	-83.68	-8.95	-16.35	-51.744	-48.804	78.302	0.68927	-0.63705	0.06042	-0.33960	31.0	13111	100
2025-3-27 18:32:41.929	WT901BLE68-01(48591DE3C19B)	-0.073	-1.526	0.005	37.537	-267.578	198.608	-83.73	-7.03	-13.41	-51.744	-48.804	78.302	0.68927	-0.63705	0.06042	-0.33960	31.0	13111	100
2025-3-27 18:32:41.929	WT901BLE68-01(48591DE3C19B)	-0.073	-1.513	0.030	60.974	-220.215	218.201	-83.53	-5.02	-10.74	-51.744	-48.804	78.302	0.68927	-0.63705	0.06042	-0.33960	31.0	13111	100
2025-3-27 18:32:41.962	WT901BLE68-01(48591DE3C19B)	0.039	-1.513	0.030	60.974	-220.215	218.201	-83.10	-2.92	-8.31	-51.744	-48.804	78.302	0.68927	-0.63705	0.06042	-0.33960	31.0	13111	100
2025-3-27 18:32:41.962	WT901BLE68-01(48591DE3C19B)	0.039	-1.388	0.089	78.247	-154.480	230.957	-82.49	-0.76	-6.22	-51.744	-48.804	78.302	0.68927	-0.63705	0.06042	-0.33960	31.0	13111	100
2025-3-27 18:32:41.962	WT901BLE68-01(48591DE3C19B)	0.092	-1.388	0.089	78.247	-154.480	230.957	-81.71	1.44	-4.43	-51.744	-48.804	78.302	0.68927	-0.63705	0.06042	-0.33960	31.0	13111	100
2025-3-27 18:32:41.962	WT901BLE68-01(48591DE3C19B)	0.092	-1.249	0.165	87.708	-79.651	239.258	-80.83	3.70	-3.00	-51.744	-48.804	78.302	0.68927	-0.63705	0.06042	-0.33960	31.0	13111	100
2025-3-27 18:32:42.20	WT901BLE68-01(48591DE3C19B)	0.082	-1.249	0.165	87.708	-79.651	239.258	-79.87	6.01	-1.92	-51.744	-48.804	78.302	0.68927	-0.63705	0.06042	-0.33960	31.0	13111	100
2025-3-27 18:32:42.21	WT901BLE68-01(48591DE3C19B)	0.082	-1.146	0.241	91.553	-1.343	249.023	-78.90	8.39	-1.18	-42.336	-43.806	69.580	0.68927	-0.63705	0.06042	-0.33960	31.0	13111	100
2025-3-27 18:32:42.21	WT901BLE68-01(48591DE3C19B)	-0.010	-1.146	0.241	91.553	-1.343	249.023	-77.93	10.87	-0.80	-42.336	-43.806	69.580	0.68927	-0.63705	0.06042	-0.33960	31.0	13111	100
2025-3-27 18:32:42.21	WT901BLE68-01(48591DE3C19B)	-0.010	-1.047	0.247	87.463	70.862	259.521	-77.03	13.43	-0.72	-42.336	-43.806	69.580	0.68927	-0.63705	0.06042	-0.33960	31.0	13111	100
2025-3-27 18:32:42.49	WT901BLE68-01(48591DE3C19B)	-0.097	-1.047	0.247	87.463	70.862	259.521	-76.22	16.11	-0.97	-42.336	-43.806	69.580	0.68927	-0.63705	0.06042	-0.33960	31.0	13111	100
2025-3-27 18:32:42.49	WT901BLE68-01(48591DE3C19B)	-0.097	-0.958	0.233	76.416	127.197	265.503	-75.56	18.87	-1.46	-42.336	-43.806	69.580	0.68927	-0.63705	0.06042	-0.33960	31.0	13111	100
2025-3-27 18:32:42.49	WT901BLE68-01(48591DE3C19B)	-0.235	-0.958	0.233	76.416	127.197	265.503	-75.06	21.71	-2.22	-42.336	-43.806	69.580	0.68927	-0.63705	0.06042	-0.33960	31.0	13111	100
2025-3-27 18:32:42.49	WT901BLE68-01(48591DE3C19B)	-0.235	-0.995	0.219	59.814	160.706	267.822	-74.74	24.59	-3.14	-42.336	-43.806	69.580	0.68927	-0.63705	0.06042	-0.33960	31.0	13111	100
2025-3-27 18:32:42.86	WT901BLE68-01(48591DE3C19B)	-0.375	-0.995	0.219	59.814	160.706	267.822	-74.62	27.52	-4.25	-42.336	-43.806	69.580	0.68927	-0.63705	0.06042	-0.33960	31.0	13111	100
2025-3-27 18:32:42.86	WT901BLE68-01(48591DE3C19B)	-0.375	-1.111	0.129	40.344	156.738	260.742	-74.65	30.39	-5.36	-42.336	-43.806	69.580	0.68927	-0.63705	0.06042	-0.33960	31.0	13111	100
2025-3-27 18:32:42.86	WT901BLE68-01(48591DE3C19B)	-0.437	-1.111	0.129	40.344	156.738	260.742	-74.83	33.20	-6.50	-42.336	-43.806	69.580	0.68927	-0.63705	0.06042	-0.33960	31.0	13111	100
2025-3-27 18:32:42.86	WT901BLE68-01(48591DE3C19B)	-0.437	-1.197	0.058	21.362	120.178	248.596	-75.06	35.90	-7.48	-42.336	-43.806	69.580	0.68927	-0.63705	0.06042	-0.33960	31.0	13111	100
2025-3-27 18:32:42.140	WT901BLE68-01(48591DE3C19B)	-0.499	-1.197	0.058	21.362	120.178	248.596	-75.33	38.47	-8.31	-42.336	-43.806	69.580	0.68927	-0.63705	0.06042	-0.33960	31.0	13111	100
2025-3-27 18:32:42.140	WT901BLE68-01(48591DE3C19B)	-0.499	-1.447	-0.007	0.610	54.749	235.474	-75.50	40.89	-8.78	-42.336	-43.806	69.580	0.68927	-0.63705	0.06042	-0.33960	31.0	13111	100
2025-3-27 18:32:42.140	WT901BLE68-01(48591DE3C19B)	-0.446	-1.447	-0.007	0.610	54.749	235.474	-75.54	43.15	-8.87	-42.336	-43.806	69.580	0.68927	-0.63705	0.06042	-0.33960	31.0	13111	100
2025-3-27 18:32:42.140	WT901BLE68-01(48591DE3C19B)	-0.446	-1.831	-0.064	-10.437	-16.724	215.637	-75.33	45.21	-8.51	-42.336	-43.806	69.580	0.68927	-0.63705	0.06042	-0.33960	31.0	13111	100
2025-3-27 18:32:42.172	WT901BLE68-01(48591DE3C19B)	-0.300	-1.831	-0.064	-10.437	-16.724	215.637	-74.82	47.08	-7.67	-42.336	-43.806	69.580	0.68927	-0.63705	0.06042	-0.33960	31.0	13111	100
2025-3-27 18:32:42.172	WT901BLE68-01(48591DE3C19B)	-0.300	-2.098	-0.063	-4.395	-72.266	198.181	-73.66	48.61	-6.05	-42.336	-43.806	69.580	0.68927	-0.63705	0.06042	-0.33960	31.0	13111	100
2025-3-27 18:32:42.172	WT901BLE68-01(48591DE3C19B)	-0.143	-2.098	-0.063	-4.395	-72.266	198.181	-72.41	50.10	-4.36	-42.336	-43.806	69.580	0.68927	-0.63705	0.06042	-0.33960	31.0	13111	100
2025-3-27 18:32:42.172	WT901BLE68-01(48591DE3C19B)	-0.143	-2.108	0.011	4.211	-113.403	172.546	-70.61	51.19	-2.09	-42.336	-43.806	69.580	0.68927	-0.63705	0.06042	-0.33960	31.0	13111	100
2025-3-27 18:32:42.202	WT901BLE68-01(48591DE3C19B)	-0.007	-2.108	0.011	4.211	-113.403	172.546	-68.72	52.21	0.26	-42.336	-43.806	69.580	0.68927	-0.63705	0.06042	-0.33960	31.0	13111	100
2025-3-27 18:32:42.202	WT901BLE68-01(48591DE3C19B)	-0.007	-2.069	0.037	9.216	-151.550	141.357	-66.40	52.73	3.07	-42.336	-43.806	69.580	0.68927	-0.63705	0.06042	-0.33960	31.0	13111	100
2025-3-27 18:32:42.202	WT901BLE68-01(48591DE3C19B)	0.222	-2.069	0.037	9.216	-151.550	141.357	-64.03	53.18	5.92	-42.336	-43.806	69.580	0.74490	-0.49298	0.35455	0.27615	31.0	13111	100
2025-3-27 18:32:42.203	WT901BLE68-01(48591DE3C19B)	0.222	-1.745	0.056	19.226	-171.326	102.661	-61.55	53.12	8.78	-42.336	-43.806	69.580	0.74490	-0.49298	0.35455	0.27615	31.0	13111	100
2025-3-27 18:32:42.260	WT901BLE68-01(48591DE3C19B)	0.404	-1.745	0.056	19.226	-171.326	102.661	-59.10	52.98	11.61	-42.336	-43.806	69.580	0.74490	-0.49298	0.35455	0.27615	31.0	13111	100
2025-3-27 18:32:42.260	WT901BLE68-01(48591DE3C19B)	0.404	-1.438	0.112	10.803	-143.433	62.561	-57.38	52.58	13.64	-42.336	-43.806	69.580	0.74490	-0.49298	0.35455	0.27615	31.0	13111	100
2025-3-27 18:32:42.260	WT901BLE68-01(48591DE3C19B)	0.418	-1.438	0.112	10.803	-143.433	62.561	-55.73	52.13	15.61	-42.336	-43.806	69.580	0.74490	-0.49298	0.35455	0.27615	31.0	13111	100
2025-3-27 18:32:42.260	WT901BLE68-01(48591DE3C19B)	0.418	-1.175	0.053	2.319	-81.238	18.982	-55.18	51.66	16.29	-42.336	-43.806	69.580	0.74490	-0.49298	0.35455	0.27615	31.0	13111	100
2025-3-27 18:32:42.289	WT901BLE68-01(48591DE3C19B)	0.338	-1.175	0.053	2.319	-81.238	18.982	-54.66	51.17	16.95	-42.336	-43.806	69.580	0.74490	-0.49298	0.35455	0.27615	31.0	13111	100
2025-3-27 18:32:42.289	WT901BLE68-01(48591DE3C19B)	0.338	-0.916	0.038	-9.216	-26.062	-23.376	-55.12	50.66	16.49	-42.336	-43.806	69.580	0.74490	-0.49298	0.35455	0.27615	31.0	13111	100
2025-3-27 18:32:42.289	WT901BLE68-01(48591DE3C19B)	0.221	-0.916	0.038	-9.216	-26.062	-23.376	-55.59	50.15	16.03	-42.336	-43.806	69.580	0.74490	-0.49298	0.35455	0.27615	31.0	13111	100
2025-3-27 18:32:42.289	WT901BLE68-01(48591DE3C19B)	0.221	-0.842	0.092	-21.179	0.549	-64.087	-56.68	49.44	14.90	-42.336	-43.806	69.580	0.74490	-0.49298	0.35455	0.27615	31.0	13111	100
2025-3-27 18:32:42.320	WT901BLE68-01(48591DE3C19B)	0.146	-0.842	0.092	-21.179	0.549	-64.087	-57.74	48.72	13.81	-42.336	-43.806	69.580	0.74490	-0.49298	0.35455	0.27615	31.0	13111	100
2025-3-27 18:32:42.320	WT901BLE68-01(48591DE3C19B)	0.146	-0.949	0.165	-29.602	9.460	-100.891	-59.14	47.71	12.36	-42.336	-43.806	69.580	0.74490	-0.49298	0.35455	0.27615	31.0	13111	100
2025-3-27 18:32:42.320	WT901BLE68-01(48591DE3C19B)	0.095	-0.949	0.165	-29.602	9.460	-100.891	-60.46	46.70	10.98	-42.336	-43.806	69.580	0.74490	-0.49298	0.35455	0.27615	31.0	13111	100
2025-3-27 18:32:42.320	WT901BLE68-01(48591DE3C19B)	0.095	-1.027	0.199	-30.640	15.625	-133.179	-61.95	45.41	9.37	-42.336	-43.806	69.580	0.74490	-0.49298	0.35455	0.27615	31.0	13111	100
2025-3-27 18:32:42.385	WT901BLE68-01(48591DE3C19B)	0.047	-1.027	0.199	-30.640	15.625	-133.179	-63.33	44.09	7.84	-42.336	-43.806	69.580	0.74490	-0.49298	0.35455	0.27615	31.0	13111	100
2025-3-27 18:32:42.385	WT901BLE68-01(48591DE3C19B)	0.047	-1.035	0.211	-31.677	24.170	-161.743	-64.82	42.54	6.14	-42.336	-43.806	69.580	0.74490	-0.49298	0.35455	0.27615	31.0	13111	100
2025-3-27 18:32:42.385	WT901BLE68-01(48591DE3C19B)	0.003	-1.035	0.211	-31.677	24.170	-161.743	-66.21	40.97	4.53	-42.336	-43.806	69.580	0.74490	-0.49298	0.35455	0.27615	31.0	13111	100
2025-3-27 18:32:42.385	WT901BLE68-01(48591DE3C19B)	0.003	-1.037	0.208	-35.034	33.203	-187.744	-67.69	39.18	2.79	-42.336	-43.806	69.580	0.74490	-0.49298	0.35455	0.27615	31.0	13111	100
2025-3-27 18:32:42.412	WT901BLE68-01(48591DE3C19B)	-0.024	-1.037	0.208	-35.034	33.203	-187.744	-69.05	37.36	1.16	-47.530	-45.570	60.172	0.74490	-0.49298	0.35455	0.27615	31.0	13111	100
2025-3-27 18:32:42.412	WT901BLE68-01(48591DE3C19B)	-0.024	-1.038	0.208	-39.124	43.335	-210.144	-70.47	35.35	-0.58	-47.530	-45.570	60.172	0.74490	-0.49298	0.35455	0.27615	31.0	13111	100
2025-3-27 18:32:42.412	WT901BLE68-01(48591DE3C19B)	-0.037	-1.038	0.208	-39.124	43.335	-210.144	-71.77	33.32	-2.20	-47.530	-45.570	60.172	0.74490	-0.49298	0.35455	0.27615	31.0	13111	100
2025-3-27 18:32:42.412	WT901BLE68-01(48591DE3C19B)	-0.037	-1.031	0.211	-40.833	59.814	-227.417	-73.11	31.16	-3.97	-47.530	-45.570	60.172	0.74490	-0.49298	0.35455	0.27615	31.0	13111	100
2025-3-27 18:32:42.440	WT901BLE68-01(48591DE3C19B)	-0.034	-1.031	0.211	-40.833	59.814	-227.417	-74.34	28.98	-5.63	-47.530	-45.570	60.172	0.74490	-0.49298	0.35455	0.27615	31.0	13111	100
2025-3-27 18:32:42.440	WT901BLE68-01(48591DE3C19B)	-0.034	-1.010	0.197	-42.969	85.938	-242.615	-75.64	26.70	-7.51	-47.530	-45.570	60.172	0.74490	-0.49298	0.35455	0.27615	31.0	13111	100
2025-3-27 18:32:42.441	WT901BLE68-01(48591DE3C19B)	-0.042	-1.010	0.197	-42.969	85.938	-242.615	-76.83	24.41	-9.29	-47.530	-45.570	60.172	0.74490	-0.49298	0.35455	0.27615	31.0	13111	100
2025-3-27 18:32:42.441	WT901BLE68-01(48591DE3C19B)	-0.042	-1.019	0.179	-41.443	114.624	-255.127	-78.02	22.03	-11.32	-47.530	-45.570	60.172	0.74490	-0.49298	0.35455	0.27615	31.0	13111	100
2025-3-27 18:32:42.500	WT901BLE68-01(48591DE3C19B)	-0.111	-1.019	0.179	-41.443	114.624	-255.127	-79.10	19.64	-13.24	-47.530	-45.570	60.172	0.74490	-0.49298	0.35455	0.27615	31.0	13111	100
2025-3-27 18:32:42.500	WT901BLE68-01(48591DE3C19B)	-0.111	-1.025	0.185	-34.729	128.723	-266.846	-80.06	17.14	-15.24	-47.530	-45.570	60.172	0.74490	-0.49298	0.35455	0.27615	31.0	13111	100
2025-3-27 18:32:42.500	WT901BLE68-01(48591DE3C19B)	-0.216	-1.025	0.185	-34.729	128.723	-266.846	-80.92	14.64	-17.16	-47.530	-45.570	60.172	0.74490	-0.49298	0.35455	0.27615	31.0	13111	100
2025-3-27 18:32:42.501	WT901BLE68-01(48591DE3C19B)	-0.216	-1.065	0.230	-28.748	128.601	-275.085	-81.62	12.05	-19.02	-47.530	-45.570	60.172	0.74490	-0.49298	0.35455	0.27615	31.0	13111	100
2025-3-27 18:32:42.529	WT901BLE68-01(48591DE3C19B)	-0.395	-1.065	0.230	-28.748	128.601	-275.085	-82.22	9.45	-20.82	-47.530	-45.570	60.172	0.74490	-0.49298	0.35455	0.27615	31.0	13111	100
2025-3-27 18:32:42.529	WT901BLE68-01(48591DE3C19B)	-0.395	-1.135	0.299	-18.921	117.859	-274.048	-82.61	6.87	-22.46	-47.530	-45.570	60.172	0.74490	-0.49298	0.35455	0.27615	31.0	13111	100
2025-3-27 18:32:42.529	WT901BLE68-01(48591DE3C19B)	-0.601	-1.135	0.299	-18.921	117.859	-274.048	-82.92	4.30	-24.05	-47.530	-45.570	60.172	0.74490	-0.49298	0.35455	0.27615	31.0	13111	100
2025-3-27 18:32:42.529	WT901BLE68-01(48591DE3C19B)	-0.601	-1.168	0.330	-7.690	97.351	-266.418	-83.05	1.80	-25.41	-47.530	-45.570	60.172	0.74490	-0.49298	0.35455	0.27615	31.0	13111	100
2025-3-27 18:32:42.562	WT901BLE68-01(48591DE3C19B)	-0.679	-1.168	0.330	-7.690	97.351	-266.418	-83.10	-0.66	-26.75	-47.530	-45.570	60.172	0.74490	-0.49298	0.35455	0.27615	31.0	13111	100
2025-3-27 18:32:42.562	WT901BLE68-01(48591DE3C19B)	-0.679	-1.119	0.308	3.906	73.792	-251.831	-83.00	-2.99	-27.82	-47.530	-45.570	60.172	0.74490	-0.49298	0.35455	0.27615	31.0	13111	100
2025-3-27 18:32:42.562	WT901BLE68-01(48591DE3C19B)	-0.655	-1.119	0.308	3.906	73.792	-251.831	-82.85	-5.29	-28.88	-47.530	-45.570	60.172	0.74490	-0.49298	0.35455	0.27615	31.0	13111	100
2025-3-27 18:32:42.562	WT901BLE68-01(48591DE3C19B)	-0.655	-1.033	0.246	9.827	51.819	-233.276	-82.63	-7.40	-29.70	-47.530	-45.570	60.172	0.74490	-0.49298	0.35455	0.27615	31.0	13111	100
2025-3-27 18:32:42.620	WT901BLE68-01(48591DE3C19B)	-0.616	-1.033	0.246	9.827	51.819	-233.276	-82.38	-9.49	-30.52	-47.530	-45.570	60.172	0.74490	-0.49298	0.35455	0.27615	31.0	13111	100
2025-3-27 18:32:42.621	WT901BLE68-01(48591DE3C19B)	-0.663	-1.037	0.205	9.277	30.518	-214.539	-82.15	-11.40	-31.11	-47.530	-45.570	60.172	0.70508	-0.64993	0.10318	-0.26401	31.0	13111	100
2025-3-27 18:32:42.621	WT901BLE68-01(48591DE3C19B)	-0.663	-1.177	0.220	5.005	1.160	-193.054	-81.97	-13.20	-31.53	-47.530	-45.570	60.172	0.70508	-0.64993	0.10318	-0.26401	31.0	13111	100
2025-3-27 18:32:42.621	WT901BLE68-01(48591DE3C19B)	-0.710	-1.177	0.220	5.005	1.160	-193.054	-81.84	-14.90	-31.79	-47.530	-45.570	60.172	0.70508	-0.64993	0.10318	-0.26401	31.0	13111	100
2025-3-27 18:32:42.686	WT901BLE68-01(48591DE3C19B)	-0.710	-1.404	0.282	5.249	-23.804	-171.936	-81.73	-16.50	-31.90	-47.530	-45.570	60.172	0.70508	-0.64993	0.10318	-0.26401	31.0	13111	100
2025-3-27 18:32:42.686	WT901BLE68-01(48591DE3C19B)	-0.750	-1.404	0.282	5.249	-23.804	-171.936	-81.67	-18.00	-31.87	-47.530	-45.570	60.172	0.70508	-0.64993	0.10318	-0.26401	31.0	13111	100
2025-3-27 18:32:42.687	WT901BLE68-01(48591DE3C19B)	-0.750	-1.552	0.348	10.315	-23.804	-146.912	-81.60	-19.36	-31.82	-47.530	-45.570	60.172	0.70508	-0.64993	0.10318	-0.26401	31.0	13111	100
2025-3-27 18:32:42.687	WT901BLE68-01(48591DE3C19B)	-0.741	-1.552	0.348	10.315	-23.804	-146.912	-81.50	-20.59	-31.75	-47.530	-45.570	60.172	0.70508	-0.64993	0.10318	-0.26401	31.0	13111	100
2025-3-27 18:32:42.687	WT901BLE68-01(48591DE3C19B)	-0.741	-1.602	0.375	14.221	4.028	-118.530	-81.33	-21.66	-31.81	-47.530	-45.570	60.172	0.70508	-0.64993	0.10318	-0.26401	31.0	13111	100
2025-3-27 18:32:42.687	WT901BLE68-01(48591DE3C19B)	-0.708	-1.602	0.375	14.221	4.028	-118.530	-81.10	-22.55	-32.00	-47.530	-45.570	60.172	0.70508	-0.64993	0.10318	-0.26401	31.0	13111	100
2025-3-27 18:32:42.687	WT901BLE68-01(48591DE3C19B)	-0.708	-1.600	0.364	12.756	48.279	-86.365	-80.79	-23.25	-32.40	-47.530	-45.570	60.172	0.70508	-0.64993	0.10318	-0.26401	31.0	13111	100
2025-3-27 18:32:42.687	WT901BLE68-01(48591DE3C19B)	-0.690	-1.600	0.364	12.756	48.279	-86.365	-80.40	-23.75	-33.01	-47.530	-45.570	60.172	0.70508	-0.64993	0.10318	-0.26401	31.0	13111	100
2025-3-27 18:32:42.740	WT901BLE68-01(48591DE3C19B)	-0.690	-1.527	0.359	9.766	100.403	-49.866	-79.92	-24.02	-33.88	-47.530	-45.570	60.172	0.70508	-0.64993	0.10318	-0.26401	31.0	13111	100
2025-3-27 18:32:42.740	WT901BLE68-01(48591DE3C19B)	-0.731	-1.527	0.359	9.766	100.403	-49.866	-79.36	-24.05	-34.99	-47.530	-45.570	60.172	0.70508	-0.64993	0.10318	-0.26401	31.0	13111	100
2025-3-27 18:32:42.740	WT901BLE68-01(48591DE3C19B)	-0.731	-1.333	0.352	1.709	138.489	-11.353	-78.78	-23.84	-36.26	-47.530	-45.570	60.172	0.70508	-0.64993	0.10318	-0.26401	31.0	13111	100
2025-3-27 18:32:42.741	WT901BLE68-01(48591DE3C19B)	-0.805	-1.333	0.352	1.709	138.489	-11.353	-78.18	-23.40	-37.68	-47.530	-45.570	60.172	0.70508	-0.64993	0.10318	-0.26401	31.0	13111	100
2025-3-27 18:32:42.772	WT901BLE68-01(48591DE3C19B)	-0.805	-1.147	0.354	-12.573	139.954	25.635	-77.70	-22.76	-39.05	-47.530	-45.570	60.172	0.70508	-0.64993	0.10318	-0.26401	31.0	13111	100
2025-3-27 18:32:42.772	WT901BLE68-01(48591DE3C19B)	-0.856	-1.147	0.354	-12.573	139.954	25.635	-77.32	-21.93	-40.36	-47.530	-45.570	60.172	0.70508	-0.64993	0.10318	-0.26401	31.0	13111	100
2025-3-27 18:32:42.772	WT901BLE68-01(48591DE3C19B)	-0.856	-0.999	0.337	-27.405	102.173	59.570	-77.13	-20.97	-41.41	-47.530	-45.570	60.172	0.70508	-0.64993	0.10318	-0.26401	31.0	13111	100
2025-3-27 18:32:42.772	WT901BLE68-01(48591DE3C19B)	-0.829	-0.999	0.337	-27.405	102.173	59.570	-77.12	-19.89	-42.20	-47.530	-45.570	60.172	0.70508	-0.64993	0.10318	-0.26401	31.0	13111	100
2025-3-27 18:32:42.830	WT901BLE68-01(48591DE3C19B)	-0.829	-0.875	0.291	-41.870	42.908	91.187	-77.33	-18.72	-42.64	-47.530	-45.570	60.172	0.70508	-0.64993	0.10318	-0.26401	31.0	13111	100
2025-3-27 18:32:42.831	WT901BLE68-01(48591DE3C19B)	-0.778	-0.875	0.291	-41.870	42.908	91.187	-77.71	-17.46	-42.74	-51.548	-30.184	68.404	0.70508	-0.64993	0.10318	-0.26401	31.0	13111	100
2025-3-27 18:32:42.831	WT901BLE68-01(48591DE3C19B)	-0.778	-0.813	0.224	-52.429	-15.564	120.117	-78.25	-16.13	-42.52	-51.548	-30.184	68.404	0.70508	-0.64993	0.10318	-0.26401	31.0	13111	100
2025-3-27 18:32:42.831	WT901BLE68-01(48591DE3C19B)	-0.764	-0.813	0.224	-52.429	-15.564	120.117	-78.91	-14.71	-41.98	-51.548	-30.184	68.404	0.70508	-0.64993	0.10318	-0.26401	31.0	13111	100
2025-3-27 18:32:42.859	WT901BLE68-01(48591DE3C19B)	-0.764	-0.820	0.159	-54.871	-66.101	144.653	-79.65	-13.21	-41.18	-51.548	-30.184	68.404	0.70508	-0.64993	0.10318	-0.26401	31.0	13111	100
2025-3-27 18:32:42.859	WT901BLE68-01(48591DE3C19B)	-0.736	-0.820	0.159	-54.871	-66.101	144.653	-80.42	-11.63	-40.12	-51.548	-30.184	68.404	0.70508	-0.64993	0.10318	-0.26401	31.0	13111	100
2025-3-27 18:32:42.859	WT901BLE68-01(48591DE3C19B)	-0.736	-0.879	0.113	-52.490	-108.032	164.795	-81.19	-9.99	-38.86	-51.548	-30.184	68.404	0.70508	-0.64993	0.10318	-0.26401	31.0	13111	100
2025-3-27 18:32:42.859	WT901BLE68-01(48591DE3C19B)	-0.715	-0.879	0.113	-52.490	-108.032	164.795	-81.95	-8.26	-37.41	-51.548	-30.184	68.404	0.70508	-0.64993	0.10318	-0.26401	31.0	13111	100
2025-3-27 18:32:42.890	WT901BLE68-01(48591DE3C19B)	-0.715	-1.020	0.078	-44.800	-146.057	182.251	-82.64	-6.46	-35.80	-51.548	-30.184	68.404	0.70508	-0.64993	0.10318	-0.26401	31.0	13111	100
2025-3-27 18:32:42.890	WT901BLE68-01(48591DE3C19B)	-0.659	-1.020	0.078	-44.800	-146.057	182.251	-83.27	-4.59	-34.01	-51.548	-30.184	68.404	0.70508	-0.64993	0.10318	-0.26401	31.0	13111	100
2025-3-27 18:32:42.890	WT901BLE68-01(48591DE3C19B)	-0.659	-1.177	0.073	-27.405	-176.208	194.275	-83.75	-2.68	-32.10	-51.548	-30.184	68.404	0.70508	-0.64993	0.10318	-0.26401	31.0	13111	100
2025-3-27 18:32:42.890	WT901BLE68-01(48591DE3C19B)	-0.577	-1.177	0.073	-27.405	-176.208	194.275	-84.08	-0.73	-30.05	-51.548	-30.184	68.404	0.70508	-0.64993	0.10318	-0.26401	31.0	13111	100
2025-3-27 18:32:42.949	WT901BLE68-01(48591DE3C19B)	-0.577	-1.304	0.088	-6.165	-195.801	201.050	-84.24	1.25	-27.93	-51.548	-30.184	68.404	0.70508	-0.64993	0.10318	-0.26401	31.0	13111	100
2025-3-27 18:32:42.949	WT901BLE68-01(48591DE3C19B)	-0.466	-1.304	0.088	-6.165	-195.801	201.050	-84.22	3.23	-25.71	-51.548	-30.184	68.404	0.70508	-0.64993	0.10318	-0.26401	31.0	13111	100
2025-3-27 18:32:42.949	WT901BLE68-01(48591DE3C19B)	-0.466	-1.401	0.106	17.212	-200.806	203.613	-84.01	5.20	-23.48	-51.548	-30.184	68.404	0.70508	-0.64993	0.10318	-0.26401	31.0	13111	100
2025-3-27 18:32:42.949	WT901BLE68-01(48591DE3C19B)	-0.367	-1.401	0.106	17.212	-200.806	203.613	-83.59	7.15	-21.22	-51.548	-30.184	68.404	0.70508	-0.64993	0.10318	-0.26401	31.0	13111	100
2025-3-27 18:32:42.985	WT901BLE68-01(48591DE3C19B)	-0.367	-1.450	0.112	38.208	-190.674	203.430	-83.00	9.06	-19.00	-51.548	-30.184	68.404	0.70508	-0.64993	0.10318	-0.26401	31.0	13111	100
2025-3-27 18:32:42.985	WT901BLE68-01(48591DE3C19B)	-0.296	-1.450	0.112	38.208	-190.674	203.430	-82.24	10.94	-16.81	-51.548	-30.184	68.404	0.70508	-0.64993	0.10318	-0.26401	31.0	13111	100
2025-3-27 18:32:42.985	WT901BLE68-01(48591DE3C19B)	-0.296	-1.494	0.124	53.772	-167.114	200.928	-81.36	12.77	-14.72	-51.548	-30.184	68.404	0.70508	-0.64993	0.10318	-0.26401	31.0	13111	100
2025-3-27 18:32:42.985	WT901BLE68-01(48591DE3C19B)	-0.243	-1.494	0.124	53.772	-167.114	200.928	-80.36	14.55	-12.73	-51.548	-30.184	68.404	0.70508	-0.64993	0.10318	-0.26401	31.0	13111	100
2025-3-27 18:32:43.10	WT901BLE68-01(48591DE3C19B)	-0.243	-1.507	0.144	66.101	-130.737	198.669	-79.28	16.29	-10.88	-51.548	-30.184	68.404	0.70508	-0.64993	0.10318	-0.26401	31.0	13111	100
2025-3-27 18:32:43.10	WT901BLE68-01(48591DE3C19B)	-0.205	-1.507	0.144	66.101	-130.737	198.669	-78.13	18.01	-9.20	-51.548	-30.184	68.404	0.70508	-0.64993	0.10318	-0.26401	31.0	13111	100
2025-3-27 18:32:43.11	WT901BLE68-01(48591DE3C19B)	-0.205	-1.434	0.161	75.012	-85.938	199.402	-76.96	19.73	-7.70	-51.548	-30.184	68.404	0.77866	-0.59842	0.17761	0.06277	31.0	13111	100
2025-3-27 18:32:43.11	WT901BLE68-01(48591DE3C19B)	-0.182	-1.434	0.161	75.012	-85.938	199.402	-75.77	21.45	-6.38	-51.548	-30.184	68.404	0.77866	-0.59842	0.17761	0.06277	31.0	13111	100
2025-3-27 18:32:43.70	WT901BLE68-01(48591DE3C19B)	-0.182	-1.303	0.165	76.599	-40.100	202.759	-74.60	23.21	-5.27	-51.548	-30.184	68.404	0.77866	-0.59842	0.17761	0.06277	31.0	13111	100
2025-3-27 18:32:43.70	WT901BLE68-01(48591DE3C19B)	-0.189	-1.303	0.165	76.599	-40.100	202.759	-73.48	25.02	-4.35	-51.548	-30.184	68.404	0.77866	-0.59842	0.17761	0.06277	31.0	13111	100
2025-3-27 18:32:43.70	WT901BLE68-01(48591DE3C19B)	-0.189	-1.199	0.156	73.181	0.244	208.435	-72.43	26.87	-3.58	-51.548	-30.184	68.404	0.77866	-0.59842	0.17761	0.06277	31.0	13111	100
2025-3-27 18:32:43.70	WT901BLE68-01(48591DE3C19B)	-0.193	-1.199	0.156	73.181	0.244	208.435	-71.44	28.79	-2.99	-51.548	-30.184	68.404	0.77866	-0.59842	0.17761	0.06277	31.0	13111	100
2025-3-27 18:32:43.130	WT901BLE68-01(48591DE3C19B)	-0.193	-1.136	0.137	66.895	30.212	215.210	-70.64	30.84	-2.65	-51.548	-30.184	68.404	0.77866	-0.59842	0.17761	0.06277	31.0	13111	100
2025-3-27 18:32:43.130	WT901BLE68-01(48591DE3C19B)	-0.179	-1.136	0.137	66.895	30.212	215.210	-69.80	32.88	-2.28	-51.548	-30.184	68.404	0.77866	-0.59842	0.17761	0.06277	31.0	13111	100
2025-3-27 18:32:43.131	WT901BLE68-01(48591DE3C19B)	-0.179	-1.121	0.092	56.458	54.077	221.863	-69.17	35.04	-2.11	-51.548	-30.184	68.404	0.77866	-0.59842	0.17761	0.06277	31.0	13111	100
2025-3-27 18:32:43.131	WT901BLE68-01(48591DE3C19B)	-0.207	-1.121	0.092	56.458	54.077	221.863	-68.52	37.19	-1.92	-51.548	-30.184	68.404	0.77866	-0.59842	0.17761	0.06277	31.0	13111	100
2025-3-27 18:32:43.131	WT901BLE68-01(48591DE3C19B)	-0.207	-1.199	0.047	41.992	69.092	224.609	-68.10	39.40	-1.86	-51.548	-30.184	68.404	0.77866	-0.59842	0.17761	0.06277	31.0	13111	100
2025-3-27 18:32:43.131	WT901BLE68-01(48591DE3C19B)	-0.253	-1.199	0.047	41.992	69.092	224.609	-67.66	41.59	-1.79	-51.548	-30.184	68.404	0.77866	-0.59842	0.17761	0.06277	31.0	13111	100
2025-3-27 18:32:43.131	WT901BLE68-01(48591DE3C19B)	-0.253	-1.397	0.016	27.344	67.200	224.426	-67.34	43.77	-1.68	-51.548	-30.184	68.404	0.77866	-0.59842	0.17761	0.06277	31.0	13111	100
2025-3-27 18:32:43.131	WT901BLE68-01(48591DE3C19B)	-0.311	-1.397	0.016	27.344	67.200	224.426	-67.01	45.93	-1.54	-51.548	-30.184	68.404	0.77866	-0.59842	0.17761	0.06277	31.0	13111	100
2025-3-27 18:32:43.190	WT901BLE68-01(48591DE3C19B)	-0.311	-1.625	0.002	16.663	50.232	220.093	-66.62	47.97	-1.19	-51.548	-30.184	68.404	0.77866	-0.59842	0.17761	0.06277	31.0	13111	100
2025-3-27 18:32:43.190	WT901BLE68-01(48591DE3C19B)	-0.269	-1.625	0.002	16.663	50.232	220.093	-66.20	50.00	-0.82	-51.548	-30.184	68.404	0.77866	-0.59842	0.17761	0.06277	31.0	13111	100
2025-3-27 18:32:43.190	WT901BLE68-01(48591DE3C19B)	-0.269	-1.867	-0.043	6.042	22.827	205.078	-65.62	51.77	-0.11	-51.548	-30.184	68.404	0.77866	-0.59842	0.17761	0.06277	31.0	13111	100
2025-3-27 18:32:43.190	WT901BLE68-01(48591DE3C19B)	-0.103	-1.867	-0.043	6.042	22.827	205.078	-64.99	53.53	0.64	-51.548	-30.184	68.404	0.77866	-0.59842	0.17761	0.06277	31.0	13111	100
2025-3-27 18:32:43.219	WT901BLE68-01(48591DE3C19B)	-0.103	-1.941	-0.116	8.606	2.930	183.167	-64.16	54.98	1.59	-51.548	-30.184	68.404	0.77866	-0.59842	0.17761	0.06277	31.0	13111	100
2025-3-27 18:32:43.219	WT901BLE68-01(48591DE3C19B)	0.141	-1.941	-0.116	8.606	2.930	183.167	-63.28	56.41	2.59	-51.548	-30.184	68.404	0.77866	-0.59842	0.17761	0.06277	31.0	13111	100
2025-3-27 18:32:43.220	WT901BLE68-01(48591DE3C19B)	0.141	-1.739	-0.114	5.432	-24.170	150.635	-62.22	57.41	3.82	-51.548	-30.184	68.404	0.77866	-0.59842	0.17761	0.06277	31.0	13111	100
2025-3-27 18:32:43.220	WT901BLE68-01(48591DE3C19B)	0.381	-1.739	-0.114	5.432	-24.170	150.635	-61.12	58.40	5.09	-45.276	-48.804	59.388	0.77866	-0.59842	0.17761	0.06277	31.0	13111	100
2025-3-27 18:32:43.250	WT901BLE68-01(48591DE3C19B)	0.381	-1.522	-0.014	-4.272	-37.598	109.314	-60.21	58.94	6.23	-45.276	-48.804	59.388	0.77866	-0.59842	0.17761	0.06277	31.0	13111	100
2025-3-27 18:32:43.250	WT901BLE68-01(48591DE3C19B)	0.296	-1.522	-0.014	-4.272	-37.598	109.314	-59.29	59.45	7.38	-45.276	-48.804	59.388	0.77866	-0.59842	0.17761	0.06277	31.0	13111	100
2025-3-27 18:32:43.250	WT901BLE68-01(48591DE3C19B)	0.296	-1.263	0.169	-13.245	-37.292	55.603	-58.92	59.50	7.98	-45.276	-48.804	59.388	0.77866	-0.59842	0.17761	0.06277	31.0	13111	100
2025-3-27 18:32:43.250	WT901BLE68-01(48591DE3C19B)	0.153	-1.263	0.169	-13.245	-37.292	55.603	-58.56	59.55	8.57	-45.276	-48.804	59.388	0.77866	-0.59842	0.17761	0.06277	31.0	13111	100
2025-3-27 18:32:43.310	WT901BLE68-01(48591DE3C19B)	0.153	-1.101	0.334	-19.653	-37.964	6.470	-58.69	59.16	8.66	-45.276	-48.804	59.388	0.77866	-0.59842	0.17761	0.06277	31.0	13111	100
2025-3-27 18:32:43.311	WT901BLE68-01(48591DE3C19B)	0.177	-1.101	0.334	-19.653	-37.964	6.470	-58.82	58.78	8.73	-45.276	-48.804	59.388	0.77866	-0.59842	0.17761	0.06277	31.0	13111	100
2025-3-27 18:32:43.311	WT901BLE68-01(48591DE3C19B)	0.177	-0.995	0.313	-16.663	-10.071	-42.664	-59.70	58.11	7.88	-45.276	-48.804	59.388	0.77866	-0.59842	0.17761	0.06277	31.0	13111	100
2025-3-27 18:32:43.311	WT901BLE68-01(48591DE3C19B)	0.286	-0.995	0.313	-16.663	-10.071	-42.664	-60.55	57.44	7.05	-45.276	-48.804	59.388	0.77866	-0.59842	0.17761	0.06277	31.0	13111	100
2025-3-27 18:32:43.339	WT901BLE68-01(48591DE3C19B)	0.286	-0.854	0.239	-17.761	45.898	-85.083	-62.43	56.65	5.00	-45.276	-48.804	59.388	0.77866	-0.59842	0.17761	0.06277	31.0	13111	100
2025-3-27 18:32:43.339	WT901BLE68-01(48591DE3C19B)	0.240	-0.854	0.239	-17.761	45.898	-85.083	-64.22	55.83	3.03	-45.276	-48.804	59.388	0.77866	-0.59842	0.17761	0.06277	31.0	13111	100
2025-3-27 18:32:43.339	WT901BLE68-01(48591DE3C19B)	0.240	-0.803	0.166	-24.719	85.022	-125.793	-66.72	54.76	0.25	-45.276	-48.804	59.388	0.77866	-0.59842	0.17761	0.06277	31.0	13111	100
2025-3-27 18:32:43.339	WT901BLE68-01(48591DE3C19B)	0.140	-0.803	0.166	-24.719	85.022	-125.793	-69.06	53.63	-2.36	-45.276	-48.804	59.388	0.77866	-0.59842	0.17761	0.06277	31.0	13111	100
2025-3-27 18:32:43.372	WT901BLE68-01(48591DE3C19B)	0.140	-0.940	0.156	-29.297	96.863	-165.405	-71.59	52.11	-5.21	-45.276	-48.804	59.388	0.77866	-0.59842	0.17761	0.06277	31.0	13111	100
2025-3-27 18:32:43.372	WT901BLE68-01(48591DE3C19B)	0.010	-0.940	0.156	-29.297	96.863	-165.405	-73.90	50.52	-7.84	-45.276	-48.804	59.388	0.77866	-0.59842	0.17761	0.06277	31.0	13111	100
2025-3-27 18:32:43.372	WT901BLE68-01(48591DE3C19B)	0.010	-1.155	0.134	-16.296	104.065	-202.271	-76.06	48.55	-10.52	-45.276	-48.804	59.388	0.77866	-0.59842	0.17761	0.06277	31.0	13111	100
2025-3-27 18:32:43.372	WT901BLE68-01(48591DE3C19B)	-0.179	-1.155	0.134	-16.296	104.065	-202.271	-78.00	46.53	-12.97	-45.276	-48.804	59.388	0.77866	-0.59842	0.17761	0.06277	31.0	13111	100
2025-3-27 18:32:43.430	WT901BLE68-01(48591DE3C19B)	-0.179	-1.265	0.196	-1.343	82.214	-227.478	-79.40	44.18	-15.00	-45.276	-48.804	59.388	0.77866	-0.59842	0.17761	0.06277	31.0	13111	100
2025-3-27 18:32:43.431	WT901BLE68-01(48591DE3C19B)	-0.219	-1.265	0.196	-1.343	82.214	-227.478	-80.64	41.83	-16.84	-45.276	-48.804	59.388	0.73907	-0.56247	0.35260	0.11371	31.0	13111	100
2025-3-27 18:32:43.431	WT901BLE68-01(48591DE3C19B)	-0.219	-1.332	0.168	1.038	43.274	-255.493	-81.41	39.14	-18.11	-45.276	-48.804	59.388	0.73907	-0.56247	0.35260	0.11371	31.0	13111	100
2025-3-27 18:32:43.431	WT901BLE68-01(48591DE3C19B)	-0.175	-1.332	0.168	1.038	43.274	-255.493	-82.07	36.45	-19.26	-45.276	-48.804	59.388	0.73907	-0.56247	0.35260	0.11371	31.0	13111	100
2025-3-27 18:32:43.459	WT901BLE68-01(48591DE3C19B)	-0.175	-1.369	0.167	2.197	22.156	-282.410	-82.51	33.49	-20.12	-45.276	-48.804	59.388	0.73907	-0.56247	0.35260	0.11371	31.0	13111	100
2025-3-27 18:32:43.459	WT901BLE68-01(48591DE3C19B)	-0.191	-1.369	0.167	2.197	22.156	-282.410	-82.88	30.54	-20.92	-45.276	-48.804	59.388	0.73907	-0.56247	0.35260	0.11371	31.0	13111	100
2025-3-27 18:32:43.459	WT901BLE68-01(48591DE3C19B)	-0.191	-1.390	0.208	0.244	26.428	-305.115	-83.24	27.38	-21.74	-45.276	-48.804	59.388	0.73907	-0.56247	0.35260	0.11371	31.0	13111	100
2025-3-27 18:32:43.459	WT901BLE68-01(48591DE3C19B)	-0.212	-1.390	0.208	0.244	26.428	-305.115	-83.55	24.25	-22.51	-45.276	-48.804	59.388	0.73907	-0.56247	0.35260	0.11371	31.0	13111	100
2025-3-27 18:32:43.490	WT901BLE68-01(48591DE3C19B)	-0.212	-1.480	0.249	-2.014	50.171	-322.510	-83.92	20.99	-23.51	-45.276	-48.804	59.388	0.73907	-0.56247	0.35260	0.11371	31.0	13111	100
2025-3-27 18:32:43.490	WT901BLE68-01(48591DE3C19B)	-0.307	-1.480	0.249	-2.014	50.171	-322.510	-84.23	17.74	-24.45	-45.276	-48.804	59.388	0.73907	-0.56247	0.35260	0.11371	31.0	13111	100
2025-3-27 18:32:43.490	WT901BLE68-01(48591DE3C19B)	-0.307	-1.566	0.277	0.610	78.003	-332.764	-84.53	14.44	-25.65	-45.276	-48.804	59.388	0.73907	-0.56247	0.35260	0.11371	31.0	13111	100
2025-3-27 18:32:43.490	WT901BLE68-01(48591DE3C19B)	-0.379	-1.566	0.277	0.610	78.003	-332.764	-84.75	11.16	-26.80	-45.276	-48.804	59.388	0.73907	-0.56247	0.35260	0.11371	31.0	13111	100
2025-3-27 18:32:43.550	WT901BLE68-01(48591DE3C19B)	-0.379	-1.585	0.306	6.531	98.389	-338.318	-84.89	7.86	-28.13	-45.276	-48.804	59.388	0.73907	-0.56247	0.35260	0.11371	31.0	13111	100
2025-3-27 18:32:43.550	WT901BLE68-01(48591DE3C19B)	-0.450	-1.585	0.306	6.531	98.389	-338.318	-84.94	4.59	-29.43	-45.276	-48.804	59.388	0.73907	-0.56247	0.35260	0.11371	31.0	13111	100
2025-3-27 18:32:43.550	WT901BLE68-01(48591DE3C19B)	-0.543	-1.591	0.321	12.512	110.107	-334.717	-84.86	1.38	-30.83	-45.276	-48.804	59.388	0.73907	-0.56247	0.35260	0.11371	31.0	13111	100
2025-3-27 18:32:43.550	WT901BLE68-01(48591DE3C19B)	-0.543	-1.583	0.284	22.888	112.000	-322.937	-84.65	-1.72	-32.23	-45.276	-48.804	59.388	0.73907	-0.56247	0.35260	0.11371	31.0	13111	100
2025-3-27 18:32:43.585	WT901BLE68-01(48591DE3C19B)	-0.609	-1.583	0.284	22.888	112.000	-322.937	-84.32	-4.75	-33.65	-45.276	-48.804	59.388	0.73907	-0.56247	0.35260	0.11371	31.0	13111	100
2025-3-27 18:32:43.585	WT901BLE68-01(48591DE3C19B)	-0.609	-1.473	0.211	33.020	101.318	-305.054	-83.88	-7.65	-35.01	-45.276	-48.804	59.388	0.73907	-0.56247	0.35260	0.11371	31.0	13111	100
2025-3-27 18:32:43.585	WT901BLE68-01(48591DE3C19B)	-0.582	-1.473	0.211	33.020	101.318	-305.054	-83.32	-10.44	-36.34	-45.276	-48.804	59.388	0.73907	-0.56247	0.35260	0.11371	31.0	13111	100
2025-3-27 18:32:43.585	WT901BLE68-01(48591DE3C19B)	-0.582	-1.346	0.144	39.063	87.769	-281.006	-82.69	-13.08	-37.61	-45.276	-48.804	59.388	0.73907	-0.56247	0.35260	0.11371	31.0	13111	100
2025-3-27 18:32:43.610	WT901BLE68-01(48591DE3C19B)	-0.556	-1.346	0.144	39.063	87.769	-281.006	-81.99	-15.57	-38.84	-45.276	-48.804	59.388	0.73907	-0.56247	0.35260	0.11371	31.0	13111	100
2025-3-27 18:32:43.610	WT901BLE68-01(48591DE3C19B)	-0.556	-1.171	0.112	42.969	76.355	-252.014	-81.23	-17.90	-40.03	-45.276	-48.804	59.388	0.73907	-0.56247	0.35260	0.11371	31.0	13111	100
2025-3-27 18:32:43.611	WT901BLE68-01(48591DE3C19B)	-0.548	-1.171	0.112	42.969	76.355	-252.014	-80.43	-20.06	-41.17	-45.178	-24.598	65.758	0.73907	-0.56247	0.35260	0.11371	31.0	13111	100
2025-3-27 18:32:43.611	WT901BLE68-01(48591DE3C19B)	-0.548	-1.030	0.149	41.016	61.646	-219.604	-79.63	-22.04	-42.25	-45.178	-24.598	65.758	0.73907	-0.56247	0.35260	0.11371	31.0	13111	100
2025-3-27 18:32:43.670	WT901BLE68-01(48591DE3C19B)	-0.539	-1.030	0.149	41.016	61.646	-219.604	-78.84	-23.84	-43.25	-45.178	-24.598	65.758	0.73907	-0.56247	0.35260	0.11371	31.0	13111	100
2025-3-27 18:32:43.670	WT901BLE68-01(48591DE3C19B)	-0.539	-0.943	0.208	36.987	43.701	-184.875	-78.09	-25.47	-44.17	-45.178	-24.598	65.758	0.73907	-0.56247	0.35260	0.11371	31.0	13111	100
2025-3-27 18:32:43.670	WT901BLE68-01(48591DE3C19B)	-0.494	-0.943	0.208	36.987	43.701	-184.875	-77.38	-26.92	-44.97	-45.178	-24.598	65.758	0.73907	-0.56247	0.35260	0.11371	31.0	13111	100
2025-3-27 18:32:43.670	WT901BLE68-01(48591DE3C19B)	-0.494	-0.938	0.258	31.250	40.100	-152.222	-76.70	-28.19	-45.74	-45.178	-24.598	65.758	0.73907	-0.56247	0.35260	0.11371	31.0	13111	100
2025-3-27 18:32:43.701	WT901BLE68-01(48591DE3C19B)	-0.495	-0.938	0.258	31.250	40.100	-152.222	-76.05	-29.30	-46.46	-45.178	-24.598	65.758	0.73907	-0.56247	0.35260	0.11371	31.0	13111	100
2025-3-27 18:32:43.701	WT901BLE68-01(48591DE3C19B)	-0.495	-1.035	0.258	26.733	51.025	-121.155	-75.39	-30.21	-47.23	-45.178	-24.598	65.758	0.73907	-0.56247	0.35260	0.11371	31.0	13111	100
2025-3-27 18:32:43.701	WT901BLE68-01(48591DE3C19B)	-0.570	-1.035	0.258	26.733	51.025	-121.155	-74.73	-30.96	-48.03	-45.178	-24.598	65.758	0.73907	-0.56247	0.35260	0.11371	31.0	13111	100
2025-3-27 18:32:43.701	WT901BLE68-01(48591DE3C19B)	-0.570	-1.156	0.207	23.926	65.674	-92.712	-74.06	-31.53	-48.88	-45.178	-24.598	65.758	0.73907	-0.56247	0.35260	0.11371	31.0	13111	100
2025-3-27 18:32:43.729	WT901BLE68-01(48591DE3C19B)	-0.648	-1.156	0.207	23.926	65.674	-92.712	-73.37	-31.93	-49.78	-45.178	-24.598	65.758	0.73907	-0.56247	0.35260	0.11371	31.0	13111	100
2025-3-27 18:32:43.730	WT901BLE68-01(48591DE3C19B)	-0.648	-1.248	0.150	18.799	76.965	-67.017	-72.69	-32.18	-50.70	-45.178	-24.598	65.758	0.73907	-0.56247	0.35260	0.11371	31.0	13111	100
2025-3-27 18:32:43.730	WT901BLE68-01(48591DE3C19B)	-0.694	-1.248	0.150	18.799	76.965	-67.017	-72.03	-32.28	-51.65	-45.178	-24.598	65.758	0.73907	-0.56247	0.35260	0.11371	31.0	13111	100
2025-3-27 18:32:43.730	WT901BLE68-01(48591DE3C19B)	-0.694	-1.320	0.135	11.414	83.679	-41.809	-71.42	-32.24	-52.58	-45.178	-24.598	65.758	0.73907	-0.56247	0.35260	0.11371	31.0	13111	100
2025-3-27 18:32:43.790	WT901BLE68-01(48591DE3C19B)	-0.715	-1.320	0.135	11.414	83.679	-41.809	-70.86	-32.06	-53.49	-45.178	-24.598	65.758	0.73907	-0.56247	0.35260	0.11371	31.0	13111	100
2025-3-27 18:32:43.790	WT901BLE68-01(48591DE3C19B)	-0.715	-1.336	0.175	2.625	84.167	-17.639	-70.38	-31.75	-54.35	-45.178	-24.598	65.758	0.73907	-0.56247	0.35260	0.11371	31.0	13111	100
2025-3-27 18:32:43.790	WT901BLE68-01(48591DE3C19B)	-0.704	-1.336	0.175	2.625	84.167	-17.639	-69.98	-31.33	-55.15	-45.178	-24.598	65.758	0.73907	-0.56247	0.35260	0.11371	31.0	13111	100
2025-3-27 18:32:43.790	WT901BLE68-01(48591DE3C19B)	-0.704	-1.313	0.232	-9.277	75.867	9.338	-69.70	-30.79	-55.85	-45.178	-24.598	65.758	0.73907	-0.56247	0.35260	0.11371	31.0	13111	100
2025-3-27 18:32:43.819	WT901BLE68-01(48591DE3C19B)	-0.710	-1.313	0.232	-9.277	75.867	9.338	-69.55	-30.14	-56.44	-45.178	-24.598	65.758	0.73907	-0.56247	0.35260	0.11371	31.0	13111	100
2025-3-27 18:32:43.820	WT901BLE68-01(48591DE3C19B)	-0.710	-1.185	0.257	-20.813	57.190	35.645	-69.54	-29.40	-56.86	-45.178	-24.598	65.758	0.73907	-0.56247	0.35260	0.11371	31.0	13111	100
2025-3-27 18:32:43.820	WT901BLE68-01(48591DE3C19B)	-0.727	-1.185	0.257	-20.813	57.190	35.645	-69.68	-28.57	-57.13	-45.178	-24.598	65.758	0.73907	-0.56247	0.35260	0.11371	31.0	13111	100
2025-3-27 18:32:43.820	WT901BLE68-01(48591DE3C19B)	-0.727	-1.048	0.257	-36.926	25.635	63.538	-69.99	-27.66	-57.18	-45.178	-24.598	65.758	0.63275	-0.58270	0.09448	-0.50101	31.0	13111	100
2025-3-27 18:32:43.850	WT901BLE68-01(48591DE3C19B)	-0.759	-1.048	0.257	-36.926	25.635	63.538	-70.49	-26.69	-57.01	-45.178	-24.598	65.758	0.63275	-0.58270	0.09448	-0.50101	31.0	13111	100
2025-3-27 18:32:43.850	WT901BLE68-01(48591DE3C19B)	-0.759	-1.080	0.247	-51.758	-20.020	94.055	-71.18	-25.64	-56.56	-45.178	-24.598	65.758	0.63275	-0.58270	0.09448	-0.50101	31.0	13111	100
2025-3-27 18:32:43.850	WT901BLE68-01(48591DE3C19B)	-0.715	-1.080	0.247	-51.758	-20.020	94.055	-72.05	-24.52	-55.83	-45.178	-24.598	65.758	0.63275	-0.58270	0.09448	-0.50101	31.0	13111	100
2025-3-27 18:32:43.850	WT901BLE68-01(48591DE3C19B)	-0.715	-1.049	0.220	-57.129	-70.129	127.380	-73.05	-23.31	-54.82	-45.178	-24.598	65.758	0.63275	-0.58270	0.09448	-0.50101	31.0	13111	100
2025-3-27 18:32:43.910	WT901BLE68-01(48591DE3C19B)	-0.637	-1.049	0.220	-57.129	-70.129	127.380	-74.15	-21.99	-53.53	-45.178	-24.598	65.758	0.63275	-0.58270	0.09448	-0.50101	31.0	13111	100
2025-3-27 18:32:43.911	WT901BLE68-01(48591DE3C19B)	-0.637	-0.983	0.153	-62.134	-114.807	163.513	-75.34	-20.55	-52.00	-45.178	-24.598	65.758	0.63275	-0.58270	0.09448	-0.50101	31.0	13111	100
2025-3-27 18:32:43.911	WT901BLE68-01(48591DE3C19B)	-0.567	-0.983	0.153	-62.134	-114.807	163.513	-76.58	-18.96	-50.24	-45.178	-24.598	65.758	0.63275	-0.58270	0.09448	-0.50101	31.0	13111	100
2025-3-27 18:32:43.911	WT901BLE68-01(48591DE3C19B)	-0.567	-1.056	0.063	-66.406	-154.114	197.632	-77.85	-17.23	-48.30	-45.178	-24.598	65.758	0.63275	-0.58270	0.09448	-0.50101	31.0	13111	100
2025-3-27 18:32:43.939	WT901BLE68-01(48591DE3C19B)	-0.497	-1.056	0.063	-66.406	-154.114	197.632	-79.13	-15.34	-46.19	-45.178	-24.598	65.758	0.63275	-0.58270	0.09448	-0.50101	31.0	13111	100
2025-3-27 18:32:43.939	WT901BLE68-01(48591DE3C19B)	-0.497	-1.259	0.021	-64.697	-189.209	227.661	-80.36	-13.29	-43.95	-45.178	-24.598	65.758	0.63275	-0.58270	0.09448	-0.50101	31.0	13111	100
2025-3-27 18:32:43.939	WT901BLE68-01(48591DE3C19B)	-0.397	-1.259	0.021	-64.697	-189.209	227.661	-81.53	-11.11	-41.57	-45.178	-24.598	65.758	0.63275	-0.58270	0.09448	-0.50101	31.0	13111	100
2025-3-27 18:32:43.939	WT901BLE68-01(48591DE3C19B)	-0.397	-1.593	0.045	-53.772	-219.116	252.319	-82.57	-8.79	-39.09	-45.178	-24.598	65.758	0.63275	-0.58270	0.09448	-0.50101	31.0	13111	100
2025-3-27 18:32:43.972	WT901BLE68-01(48591DE3C19B)	-0.196	-1.593	0.045	-53.772	-219.116	252.319	-83.46	-6.36	-36.52	-45.178	-24.598	65.758	0.63275	-0.58270	0.09448	-0.50101	31.0	13111	100
2025-3-27 18:32:43.972	WT901BLE68-01(48591DE3C19B)	-0.196	-1.837	0.050	-25.024	-223.389	270.935	-84.09	-3.82	-33.98	-45.178	-24.598	65.758	0.63275	-0.58270	0.09448	-0.50101	31.0	13111	100
2025-3-27 18:32:43.972	WT901BLE68-01(48591DE3C19B)	0.000	-1.837	0.050	-25.024	-223.389	270.935	-84.46	-1.21	-31.45	-45.178	-24.598	65.758	0.63275	-0.58270	0.09448	-0.50101	31.0	13111	100
2025-3-27 18:32:43.972	WT901BLE68-01(48591DE3C19B)	0.000	-1.801	0.081	7.935	-190.308	284.485	-84.55	1.47	-29.11	-45.178	-24.598	65.758	0.63275	-0.58270	0.09448	-0.50101	31.0	13111	100
2025-3-27 18:32:44.30	WT901BLE68-01(48591DE3C19B)	0.040	-1.801	0.081	7.935	-190.308	284.485	-84.37	4.20	-26.93	-45.178	-24.598	65.758	0.63275	-0.58270	0.09448	-0.50101	31.0	13111	100
2025-3-27 18:32:44.31	WT901BLE68-01(48591DE3C19B)	0.040	-1.620	0.142	26.428	-137.817	287.842	-83.95	6.98	-25.26	-42.532	-24.304	68.208	0.63275	-0.58270	0.09448	-0.50101	31.0	13111	100
2025-3-27 18:32:44.31	WT901BLE68-01(48591DE3C19B)	-0.029	-1.620	0.142	26.428	-137.817	287.842	-83.45	9.72	-23.58	-42.532	-24.304	68.208	0.63275	-0.58270	0.09448	-0.50101	31.0	13111	100
2025-3-27 18:32:44.31	WT901BLE68-01(48591DE3C19B)	-0.029	-1.555	0.223	33.936	-84.229	281.799	-82.89	12.43	-22.41	-42.532	-24.304	68.208	0.63275	-0.58270	0.09448	-0.50101	31.0	13111	100
2025-3-27 18:32:44.59	WT901BLE68-01(48591DE3C19B)	-0.102	-1.555	0.223	33.936	-84.229	281.799	-82.27	15.10	-21.21	-42.532	-24.304	68.208	0.63275	-0.58270	0.09448	-0.50101	31.0	13111	100
2025-3-27 18:32:44.59	WT901BLE68-01(48591DE3C19B)	-0.102	-1.494	0.278	41.260	-36.072	273.987	-81.66	17.72	-20.47	-42.532	-24.304	68.208	0.63275	-0.58270	0.09448	-0.50101	31.0	13111	100
2025-3-27 18:32:44.59	WT901BLE68-01(48591DE3C19B)	-0.164	-1.494	0.278	41.260	-36.072	273.987	-81.00	20.31	-19.70	-42.532	-24.304	68.208	0.63275	-0.58270	0.09448	-0.50101	31.0	13111	100
2025-3-27 18:32:44.59	WT901BLE68-01(48591DE3C19B)	-0.164	-1.388	0.295	45.471	8.789	265.686	-80.43	22.87	-19.38	-42.532	-24.304	68.208	0.63275	-0.58270	0.09448	-0.50101	31.0	13111	100
2025-3-27 18:32:44.90	WT901BLE68-01(48591DE3C19B)	-0.225	-1.388	0.295	45.471	8.789	265.686	-79.84	25.42	-19.03	-42.532	-24.304	68.208	0.63275	-0.58270	0.09448	-0.50101	31.0	13111	100
2025-3-27 18:32:44.90	WT901BLE68-01(48591DE3C19B)	-0.225	-1.287	0.228	43.030	46.570	256.409	-79.43	27.92	-19.07	-42.532	-24.304	68.208	0.63275	-0.58270	0.09448	-0.50101	31.0	13111	100
2025-3-27 18:32:44.90	WT901BLE68-01(48591DE3C19B)	-0.207	-1.287	0.228	43.030	46.570	256.409	-79.02	30.40	-19.10	-42.532	-24.304	68.208	0.63275	-0.58270	0.09448	-0.50101	31.0	13111	100
2025-3-27 18:32:44.90	WT901BLE68-01(48591DE3C19B)	-0.207	-1.213	0.144	35.095	76.172	246.460	-78.87	32.83	-19.47	-42.532	-24.304	68.208	0.63275	-0.58270	0.09448	-0.50101	31.0	13111	100
2025-3-27 18:32:44.150	WT901BLE68-01(48591DE3C19B)	-0.230	-1.213	0.144	35.095	76.172	246.460	-78.73	35.24	-19.85	-42.532	-24.304	68.208	0.63275	-0.58270	0.09448	-0.50101	31.0	13111	100
2025-3-27 18:32:44.150	WT901BLE68-01(48591DE3C19B)	-0.230	-1.164	0.070	26.489	90.820	234.863	-78.83	37.56	-20.44	-42.532	-24.304	68.208	0.63275	-0.58270	0.09448	-0.50101	31.0	13111	100
2025-3-27 18:32:44.150	WT901BLE68-01(48591DE3C19B)	-0.283	-1.164	0.070	26.489	90.820	234.863	-78.95	39.87	-21.05	-42.532	-24.304	68.208	0.63275	-0.58270	0.09448	-0.50101	31.0	13111	100
2025-3-27 18:32:44.150	WT901BLE68-01(48591DE3C19B)	-0.283	-1.121	0.029	17.456	81.604	222.107	-79.15	42.02	-21.60	-42.532	-24.304	68.208	0.63275	-0.58270	0.09448	-0.50101	31.0	13111	100
2025-3-27 18:32:44.185	WT901BLE68-01(48591DE3C19B)	-0.323	-1.121	0.029	17.456	81.604	222.107	-79.38	44.15	-22.17	-42.532	-24.304	68.208	0.63275	-0.58270	0.09448	-0.50101	31.0	13111	100
2025-3-27 18:32:44.185	WT901BLE68-01(48591DE3C19B)	-0.323	-1.089	0.010	9.705	52.368	209.534	-79.46	46.10	-22.40	-42.532	-24.304	68.208	0.63275	-0.58270	0.09448	-0.50101	31.0	13111	100
2025-3-27 18:32:44.185	WT901BLE68-01(48591DE3C19B)	-0.327	-1.089	0.010	9.705	52.368	209.534	-79.56	48.05	-22.64	-42.532	-24.304	68.208	0.63275	-0.58270	0.09448	-0.50101	31.0	13111	100
2025-3-27 18:32:44.185	WT901BLE68-01(48591DE3C19B)	-0.327	-1.038	0.021	4.700	16.357	198.669	-79.34	49.81	-22.38	-42.532	-24.304	68.208	0.63275	-0.58270	0.09448	-0.50101	31.0	13111	100
2025-3-27 18:32:44.240	WT901BLE68-01(48591DE3C19B)	-0.325	-1.038	0.021	4.700	16.357	198.669	-79.09	51.56	-22.09	-42.532	-24.304	68.208	0.63275	-0.58270	0.09448	-0.50101	31.0	13111	100
2025-3-27 18:32:44.241	WT901BLE68-01(48591DE3C19B)	-0.325	-1.092	0.021	0.916	-15.259	183.655	-78.50	53.10	-21.32	-42.532	-24.304	68.208	0.73227	-0.48898	0.44775	0.15524	31.0	13111	100
2025-3-27 18:32:44.241	WT901BLE68-01(48591DE3C19B)	-0.275	-1.092	0.021	0.916	-15.259	183.655	-77.85	54.62	-20.50	-42.532	-24.304	68.208	0.73227	-0.48898	0.44775	0.15524	31.0	13111	100
2025-3-27 18:32:44.241	WT901BLE68-01(48591DE3C19B)	-0.275	-1.099	0.032	2.869	-34.912	167.297	-76.90	55.94	-19.35	-42.532	-24.304	68.208	0.73227	-0.48898	0.44775	0.15524	31.0	13111	100
2025-3-27 18:32:44.269	WT901BLE68-01(48591DE3C19B)	-0.260	-1.099	0.032	2.869	-34.912	167.297	-75.88	57.23	-18.12	-42.532	-24.304	68.208	0.73227	-0.48898	0.44775	0.15524	31.0	13111	100
2025-3-27 18:32:44.269	WT901BLE68-01(48591DE3C19B)	-0.260	-1.081	0.050	4.211	-46.936	150.146	-74.65	58.30	-16.68	-42.532	-24.304	68.208	0.73227	-0.48898	0.44775	0.15524	31.0	13111	100
2025-3-27 18:32:44.269	WT901BLE68-01(48591DE3C19B)	-0.224	-1.081	0.050	4.211	-46.936	150.146	-73.34	59.36	-15.15	-42.532	-24.304	68.208	0.73227	-0.48898	0.44775	0.15524	31.0	13111	100
2025-3-27 18:32:44.269	WT901BLE68-01(48591DE3C19B)	-0.224	-1.030	0.069	5.066	-53.223	131.287	-71.93	60.19	-13.54	-42.532	-24.304	68.208	0.73227	-0.48898	0.44775	0.15524	31.0	13111	100
2025-3-27 18:32:44.300	WT901BLE68-01(48591DE3C19B)	-0.183	-1.030	0.069	5.066	-53.223	131.287	-70.45	60.99	-11.85	-42.532	-24.304	68.208	0.73227	-0.48898	0.44775	0.15524	31.0	13111	100
2025-3-27 18:32:44.301	WT901BLE68-01(48591DE3C19B)	-0.183	-0.982	0.083	3.113	-48.340	112.610	-69.12	61.62	-10.33	-42.532	-24.304	68.208	0.73227	-0.48898	0.44775	0.15524	31.0	13111	100
2025-3-27 18:32:44.301	WT901BLE68-01(48591DE3C19B)	-0.175	-0.982	0.083	3.113	-48.340	112.610	-67.74	62.22	-8.75	-42.532	-24.304	68.208	0.73227	-0.48898	0.44775	0.15524	31.0	13111	100
2025-3-27 18:32:44.301	WT901BLE68-01(48591DE3C19B)	-0.175	-0.987	0.101	-1.648	-37.537	93.628	-66.68	62.66	-7.50	-42.532	-24.304	68.208	0.73227	-0.48898	0.44775	0.15524	31.0	13111	100
2025-3-27 18:32:44.360	WT901BLE68-01(48591DE3C19B)	-0.191	-0.987	0.101	-1.648	-37.537	93.628	-65.59	63.09	-6.22	-42.532	-24.304	68.208	0.73227	-0.48898	0.44775	0.15524	31.0	13111	100
2025-3-27 18:32:44.360	WT901BLE68-01(48591DE3C19B)	-0.191	-1.048	0.121	-8.179	-26.428	72.083	-64.93	63.37	-5.34	-42.532	-24.304	68.208	0.73227	-0.48898	0.44775	0.15524	31.0	13111	100
2025-3-27 18:32:44.360	WT901BLE68-01(48591DE3C19B)	-0.217	-1.048	0.121	-8.179	-26.428	72.083	-64.25	63.63	-4.45	-42.532	-24.304	68.208	0.73227	-0.48898	0.44775	0.15524	31.0	13111	100
2025-3-27 18:32:44.360	WT901BLE68-01(48591DE3C19B)	-0.217	-1.128	0.142	-15.503	-18.250	48.462	-64.00	63.72	-3.96	-42.532	-24.304	68.208	0.73227	-0.48898	0.44775	0.15524	31.0	13111	100
2025-3-27 18:32:44.391	WT901BLE68-01(48591DE3C19B)	-0.223	-1.128	0.142	-15.503	-18.250	48.462	-63.74	63.80	-3.46	-42.532	-24.304	68.208	0.73227	-0.48898	0.44775	0.15524	31.0	13111	100
2025-3-27 18:32:44.391	WT901BLE68-01(48591DE3C19B)	-0.223	-1.177	0.175	-20.691	-12.024	23.621	-63.86	63.68	-3.33	-42.532	-24.304	68.208	0.73227	-0.48898	0.44775	0.15524	31.0	13111	100
2025-3-27 18:32:44.391	WT901BLE68-01(48591DE3C19B)	-0.238	-1.177	0.175	-20.691	-12.024	23.621	-63.99	63.57	-3.22	-42.532	-24.304	68.208	0.73227	-0.48898	0.44775	0.15524	31.0	13111	100
2025-3-27 18:32:44.391	WT901BLE68-01(48591DE3C19B)	-0.238	-1.138	0.227	-24.841	-9.155	-1.404	-64.42	63.24	-3.39	-42.532	-24.304	68.208	0.73227	-0.48898	0.44775	0.15524	31.0	13111	100
2025-3-27 18:32:44.421	WT901BLE68-01(48591DE3C19B)	-0.274	-1.138	0.227	-24.841	-9.155	-1.404	-64.84	62.92	-3.57	-42.532	-24.304	68.208	0.73227	-0.48898	0.44775	0.15524	31.0	13111	100
2025-3-27 18:32:44.421	WT901BLE68-01(48591DE3C19B)	-0.274	-1.090	0.279	-31.067	-17.029	-27.710	-65.37	62.33	-3.81	-42.532	-24.304	68.208	0.73227	-0.48898	0.44775	0.15524	31.0	13111	100
2025-3-27 18:32:44.421	WT901BLE68-01(48591DE3C19B)	-0.258	-1.090	0.279	-31.067	-17.029	-27.710	-65.89	61.74	-4.02	-41.356	-41.454	69.286	0.73227	-0.48898	0.44775	0.15524	31.0	13111	100
2025-3-27 18:32:44.421	WT901BLE68-01(48591DE3C19B)	-0.258	-1.053	0.259	-37.231	-26.062	-56.763	-66.50	60.85	-4.29	-41.356	-41.454	69.286	0.73227	-0.48898	0.44775	0.15524	31.0	13111	100
2025-3-27 18:32:44.486	WT901BLE68-01(48591DE3C19B)	-0.198	-1.053	0.259	-37.231	-26.062	-56.763	-67.08	59.96	-4.53	-41.356	-41.454	69.286	0.73227	-0.48898	0.44775	0.15524	31.0	13111	100
2025-3-27 18:32:44.486	WT901BLE68-01(48591DE3C19B)	-0.206	-1.000	0.195	-41.016	-21.057	-88.196	-67.95	58.80	-5.06	-41.356	-41.454	69.286	0.73227	-0.48898	0.44775	0.15524	31.0	13111	100
2025-3-27 18:32:44.486	WT901BLE68-01(48591DE3C19B)	-0.206	-0.915	0.212	-46.570	-15.686	-122.314	-68.93	57.51	-5.71	-41.356	-41.454	69.286	0.73227	-0.48898	0.44775	0.15524	31.0	13111	100
2025-3-27 18:32:44.486	WT901BLE68-01(48591DE3C19B)	-0.250	-0.915	0.212	-46.570	-15.686	-122.314	-70.00	56.06	-6.43	-41.356	-41.454	69.286	0.73227	-0.48898	0.44775	0.15524	31.0	13111	100
2025-3-27 18:32:44.540	WT901BLE68-01(48591DE3C19B)	-0.250	-0.954	0.320	-52.063	-22.278	-160.950	-71.06	54.42	-7.14	-41.356	-41.454	69.286	0.73227	-0.48898	0.44775	0.15524	31.0	13111	100
2025-3-27 18:32:44.541	WT901BLE68-01(48591DE3C19B)	-0.294	-0.954	0.320	-52.063	-22.278	-160.950	-72.10	52.59	-7.81	-41.356	-41.454	69.286	0.73227	-0.48898	0.44775	0.15524	31.0	13111	100
2025-3-27 18:32:44.541	WT901BLE68-01(48591DE3C19B)	-0.294	-1.006	0.413	-51.392	-35.339	-198.242	-73.05	50.57	-8.38	-41.356	-41.454	69.286	0.73227	-0.48898	0.44775	0.15524	31.0	13111	100
2025-3-27 18:32:44.541	WT901BLE68-01(48591DE3C19B)	-0.319	-1.006	0.413	-51.392	-35.339	-198.242	-73.90	48.36	-8.86	-41.356	-41.454	69.286	0.73227	-0.48898	0.44775	0.15524	31.0	13111	100
2025-3-27 18:32:44.542	WT901BLE68-01(48591DE3C19B)	-0.319	-1.046	0.438	-49.438	-39.429	-231.018	-74.69	46.00	-9.30	-41.356	-41.454	69.286	0.73227	-0.48898	0.44775	0.15524	31.0	13111	100
2025-3-27 18:32:44.542	WT901BLE68-01(48591DE3C19B)	-0.359	-1.046	0.438	-49.438	-39.429	-231.018	-75.43	43.48	-9.70	-41.356	-41.454	69.286	0.73227	-0.48898	0.44775	0.15524	31.0	13111	100
2025-3-27 18:32:44.542	WT901BLE68-01(48591DE3C19B)	-0.359	-1.101	0.423	-44.067	-35.828	-257.446	-76.12	40.86	-10.11	-41.356	-41.454	69.286	0.73227	-0.48898	0.44775	0.15524	31.0	13111	100
2025-3-27 18:32:44.542	WT901BLE68-01(48591DE3C19B)	-0.368	-1.101	0.423	-44.067	-35.828	-257.446	-76.78	38.12	-10.51	-41.356	-41.454	69.286	0.73227	-0.48898	0.44775	0.15524	31.0	13111	100
2025-3-27 18:32:44.600	WT901BLE68-01(48591DE3C19B)	-0.368	-1.151	0.417	-37.292	-29.236	-278.992	-77.38	35.30	-10.94	-41.356	-41.454	69.286	0.73227	-0.48898	0.44775	0.15524	31.0	13111	100
2025-3-27 18:32:44.601	WT901BLE68-01(48591DE3C19B)	-0.368	-1.151	0.417	-37.292	-29.236	-278.992	-77.94	32.40	-11.37	-41.356	-41.454	69.286	0.73227	-0.48898	0.44775	0.15524	31.0	13111	100
2025-3-27 18:32:44.601	WT901BLE68-01(48591DE3C19B)	-0.368	-1.221	0.436	-29.480	-19.043	-291.199	-78.45	29.47	-11.82	-41.356	-41.454	69.286	0.73227	-0.48898	0.44775	0.15524	31.0	13111	100
2025-3-27 18:32:44.601	WT901BLE68-01(48591DE3C19B)	-0.379	-1.221	0.436	-29.480	-19.043	-291.199	-78.92	26.50	-12.30	-41.356	-41.454	69.286	0.73227	-0.48898	0.44775	0.15524	31.0	13111	100
2025-3-27 18:32:44.629	WT901BLE68-01(48591DE3C19B)	-0.379	-1.279	0.444	-20.996	-3.967	-293.762	-79.34	23.54	-12.83	-41.356	-41.454	69.286	0.73227	-0.48898	0.44775	0.15524	31.0	13111	100
2025-3-27 18:32:44.630	WT901BLE68-01(48591DE3C19B)	-0.381	-1.279	0.444	-20.996	-3.967	-293.762	-79.71	20.61	-13.40	-41.356	-41.454	69.286	0.73227	-0.48898	0.44775	0.15524	31.0	13111	100
2025-3-27 18:32:44.630	WT901BLE68-01(48591DE3C19B)	-0.381	-1.308	0.425	-13.123	14.221	-287.781	-80.02	17.74	-14.02	-41.356	-41.454	69.286	0.73227	-0.48898	0.44775	0.15524	31.0	13111	100
2025-3-27 18:32:44.630	WT901BLE68-01(48591DE3C19B)	-0.365	-1.308	0.425	-13.123	14.221	-287.781	-80.29	14.92	-14.71	-41.356	-41.454	69.286	0.76181	-0.62372	0.17303	-0.02396	31.0	13111	100
2025-3-27 18:32:44.659	WT901BLE68-01(48591DE3C19B)	-0.365	-1.298	0.398	-4.028	35.522	-275.085	-80.49	12.20	-15.47	-41.356	-41.454	69.286	0.76181	-0.62372	0.17303	-0.02396	31.0	13111	100
2025-3-27 18:32:44.659	WT901BLE68-01(48591DE3C19B)	-0.366	-1.298	0.398	-4.028	35.522	-275.085	-80.63	9.57	-16.30	-41.356	-41.454	69.286	0.76181	-0.62372	0.17303	-0.02396	31.0	13111	100
2025-3-27 18:32:44.659	WT901BLE68-01(48591DE3C19B)	-0.366	-1.253	0.373	3.967	58.655	-258.179	-80.72	7.06	-17.23	-41.356	-41.454	69.286	0.76181	-0.62372	0.17303	-0.02396	31.0	13111	100
2025-3-27 18:32:44.660	WT901BLE68-01(48591DE3C19B)	-0.392	-1.253	0.373	3.967	58.655	-258.179	-80.73	4.66	-18.24	-41.356	-41.454	69.286	0.76181	-0.62372	0.17303	-0.02396	31.0	13111	100
2025-3-27 18:32:44.720	WT901BLE68-01(48591DE3C19B)	-0.392	-1.199	0.355	10.925	81.970	-239.380	-80.67	2.40	-19.35	-41.356	-41.454	69.286	0.76181	-0.62372	0.17303	-0.02396	31.0	13111	100
2025-3-27 18:32:44.721	WT901BLE68-01(48591DE3C19B)	-0.427	-1.199	0.355	10.925	81.970	-239.380	-80.54	0.26	-20.55	-41.356	-41.454	69.286	0.76181	-0.62372	0.17303	-0.02396	31.0	13111	100
2025-3-27 18:32:44.721	WT901BLE68-01(48591DE3C19B)	-0.427	-1.165	0.358	17.700	101.196	-216.248	-80.33	-1.73	-21.82	-41.356	-41.454	69.286	0.76181	-0.62372	0.17303	-0.02396	31.0	13111	100
