time	DeviceName	AccX(g)	AccY(g)	AccZ(g)	AsX(°/s)	AsY(°/s)	AsZ(°/s)	AngleX(°)	AngleY(°)	AngleZ(°)	HX(uT)	HY(uT)	HZ(uT)	Q0()	Q1()	Q2()	Q3()	Temperature(°C)	Version()	Battery level(%)
2025-3-27 18:49:22.967	WT901BLE68-01(48591DE3C19B)	-0.129	-0.954	0.203	0.366	8.606	4.700	-80.16	10.51	-71.84	-71.442	-46.550	10.388	0.66803	-0.51431	0.39453	-0.36533	30.7	13111	100
2025-3-27 18:49:22.967	WT901BLE68-01(48591DE3C19B)	-0.129	-0.950	0.202	-0.610	6.592	3.906	-80.17	10.54	-72.00	-71.442	-46.550	10.388	0.66803	-0.51431	0.39453	-0.36533	30.7	13111	100
2025-3-27 18:49:22.968	WT901BLE68-01(48591DE3C19B)	-0.133	-0.950	0.202	-0.610	6.592	3.906	-80.17	10.57	-72.17	-71.442	-46.550	10.388	0.66803	-0.51431	0.39453	-0.36533	30.7	13111	100
2025-3-27 18:49:22.968	WT901BLE68-01(48591DE3C19B)	-0.133	-0.965	0.205	-0.793	4.028	2.869	-80.18	10.59	-72.31	-71.442	-46.550	10.388	0.66803	-0.51431	0.39453	-0.36533	30.7	13111	100
2025-3-27 18:49:22.997	WT901BLE68-01(48591DE3C19B)	-0.125	-0.965	0.205	-0.793	4.028	2.869	-80.18	10.60	-72.45	-71.442	-46.550	10.388	0.66803	-0.51431	0.39453	-0.36533	30.7	13111	100
2025-3-27 18:49:22.998	WT901BLE68-01(48591DE3C19B)	-0.125	-0.973	0.214	-0.671	2.930	1.831	-80.18	10.61	-72.58	-71.442	-46.550	10.388	0.66803	-0.51431	0.39453	-0.36533	30.7	13111	100
2025-3-27 18:49:22.998	WT901BLE68-01(48591DE3C19B)	-0.138	-0.973	0.214	-0.671	2.930	1.831	-80.18	10.61	-72.71	-71.442	-46.550	10.388	0.66803	-0.51431	0.39453	-0.36533	30.7	13111	100
2025-3-27 18:49:22.998	WT901BLE68-01(48591DE3C19B)	-0.138	-0.969	0.222	-0.244	4.456	0.793	-80.18	10.60	-72.86	-71.442	-46.550	10.388	0.66803	-0.51431	0.39453	-0.36533	30.7	13111	100
2025-3-27 18:49:23.27	WT901BLE68-01(48591DE3C19B)	-0.151	-0.969	0.222	-0.244	4.456	0.793	-80.18	10.60	-73.01	-71.442	-46.550	10.388	0.66803	-0.51431	0.39453	-0.36533	30.7	13111	100
2025-3-27 18:49:23.28	WT901BLE68-01(48591DE3C19B)	-0.151	-0.952	0.218	-0.183	4.150	0.122	-80.18	10.59	-73.15	-71.442	-46.550	10.388	0.66803	-0.51431	0.39453	-0.36533	30.7	13111	100
2025-3-27 18:49:23.28	WT901BLE68-01(48591DE3C19B)	-0.165	-0.952	0.218	-0.183	4.150	0.122	-80.18	10.58	-73.30	-71.442	-46.550	10.388	0.66803	-0.51431	0.39453	-0.36533	30.7	13111	100
2025-3-27 18:49:23.28	WT901BLE68-01(48591DE3C19B)	-0.165	-0.931	0.211	-0.671	3.235	0.000	-80.18	10.56	-73.43	-71.442	-46.550	10.388	0.66803	-0.51431	0.39453	-0.36533	30.7	13111	100
2025-3-27 18:49:23.88	WT901BLE68-01(48591DE3C19B)	-0.186	-0.931	0.211	-0.671	3.235	0.000	-80.18	10.55	-73.56	-71.442	-46.550	10.388	0.66803	-0.51431	0.39453	-0.36533	30.7	13111	100
2025-3-27 18:49:23.88	WT901BLE68-01(48591DE3C19B)	-0.186	-0.918	0.205	-1.526	1.099	-0.061	-80.18	10.54	-73.67	-71.442	-46.550	10.388	0.64511	-0.47107	0.44070	-0.40933	30.7	13111	100
2025-3-27 18:49:23.88	WT901BLE68-01(48591DE3C19B)	-0.208	-0.918	0.205	-1.526	1.099	-0.061	-80.18	10.53	-73.78	-71.442	-46.550	10.388	0.64511	-0.47107	0.44070	-0.40933	30.7	13111	100
2025-3-27 18:49:23.88	WT901BLE68-01(48591DE3C19B)	-0.208	-0.915	0.201	-2.625	-2.197	0.183	-80.19	10.51	-73.86	-71.442	-46.550	10.388	0.64511	-0.47107	0.44070	-0.40933	30.7	13111	100
2025-3-27 18:49:23.116	WT901BLE68-01(48591DE3C19B)	-0.235	-0.915	0.201	-2.625	-2.197	0.183	-80.20	10.50	-73.94	-71.442	-46.550	10.388	0.64511	-0.47107	0.44070	-0.40933	30.7	13111	100
2025-3-27 18:49:23.116	WT901BLE68-01(48591DE3C19B)	-0.235	-0.914	0.197	-3.723	-6.104	0.732	-80.21	10.49	-73.98	-71.442	-46.550	10.388	0.64511	-0.47107	0.44070	-0.40933	30.7	13111	100
2025-3-27 18:49:23.116	WT901BLE68-01(48591DE3C19B)	-0.266	-0.914	0.197	-3.723	-6.104	0.732	-80.22	10.49	-74.01	-71.442	-46.550	10.388	0.64511	-0.47107	0.44070	-0.40933	30.7	13111	100
2025-3-27 18:49:23.117	WT901BLE68-01(48591DE3C19B)	-0.290	-0.915	0.192	-5.127	-11.475	1.526	-80.23	10.48	-73.99	-71.442	-46.550	10.388	0.64511	-0.47107	0.44070	-0.40933	30.7	13111	100
2025-3-27 18:49:23.147	WT901BLE68-01(48591DE3C19B)	-0.290	-0.908	0.170	-7.263	-17.456	2.441	-80.26	10.48	-73.94	-71.442	-46.550	10.388	0.64511	-0.47107	0.44070	-0.40933	30.7	13111	100
2025-3-27 18:49:23.148	WT901BLE68-01(48591DE3C19B)	-0.321	-0.908	0.170	-7.263	-17.456	2.441	-80.28	10.48	-73.86	-71.442	-46.550	10.388	0.64511	-0.47107	0.44070	-0.40933	30.7	13111	100
2025-3-27 18:49:23.148	WT901BLE68-01(48591DE3C19B)	-0.321	-0.907	0.125	-12.573	-24.719	2.319	-80.33	10.48	-73.75	-71.442	-46.550	10.388	0.64511	-0.47107	0.44070	-0.40933	30.7	13111	100
2025-3-27 18:49:23.148	WT901BLE68-01(48591DE3C19B)	-0.396	-0.907	0.125	-12.573	-24.719	2.319	-80.39	10.47	-73.59	-71.442	-46.550	10.388	0.64511	-0.47107	0.44070	-0.40933	30.7	13111	100
2025-3-27 18:49:23.212	WT901BLE68-01(48591DE3C19B)	-0.396	-0.911	0.141	-17.517	-34.912	0.854	-80.47	10.45	-73.39	-71.442	-46.550	10.388	0.64511	-0.47107	0.44070	-0.40933	30.7	13111	100
2025-3-27 18:49:23.212	WT901BLE68-01(48591DE3C19B)	-0.524	-0.911	0.141	-17.517	-34.912	0.854	-80.57	10.43	-73.13	-71.442	-46.550	10.388	0.64511	-0.47107	0.44070	-0.40933	30.7	13111	100
2025-3-27 18:49:23.212	WT901BLE68-01(48591DE3C19B)	-0.524	-0.832	0.242	-21.912	-52.856	1.038	-80.68	10.40	-72.79	-71.442	-46.550	10.388	0.64511	-0.47107	0.44070	-0.40933	30.7	13111	100
2025-3-27 18:49:23.212	WT901BLE68-01(48591DE3C19B)	-0.666	-0.832	0.242	-21.912	-52.856	1.038	-80.78	10.37	-72.36	-71.442	-46.550	10.388	0.64511	-0.47107	0.44070	-0.40933	30.7	13111	100
2025-3-27 18:49:23.237	WT901BLE68-01(48591DE3C19B)	-0.666	-0.812	0.338	-27.649	-79.163	4.456	-80.88	10.34	-71.80	-71.442	-46.550	10.388	0.64511	-0.47107	0.44070	-0.40933	30.7	13111	100
2025-3-27 18:49:23.238	WT901BLE68-01(48591DE3C19B)	-0.706	-0.812	0.338	-27.649	-79.163	4.456	-80.98	10.32	-71.11	-71.442	-46.550	10.388	0.64511	-0.47107	0.44070	-0.40933	30.7	13111	100
2025-3-27 18:49:23.238	WT901BLE68-01(48591DE3C19B)	-0.706	-0.836	0.307	-27.405	-95.459	16.418	-81.06	10.35	-70.35	-71.442	-46.550	10.388	0.64511	-0.47107	0.44070	-0.40933	30.7	13111	100
2025-3-27 18:49:23.238	WT901BLE68-01(48591DE3C19B)	-0.666	-0.836	0.307	-27.405	-95.459	16.418	-81.10	10.44	-69.50	-72.618	-44.884	9.702	0.64511	-0.47107	0.44070	-0.40933	30.7	13111	100
2025-3-27 18:49:23.267	WT901BLE68-01(48591DE3C19B)	-0.666	-0.831	0.187	-25.940	-92.590	30.884	-81.14	10.61	-68.66	-72.618	-44.884	9.702	0.64511	-0.47107	0.44070	-0.40933	30.7	13111	100
2025-3-27 18:49:23.268	WT901BLE68-01(48591DE3C19B)	-0.649	-0.831	0.187	-25.940	-92.590	30.884	-81.16	10.87	-67.82	-72.618	-44.884	9.702	0.64511	-0.47107	0.44070	-0.40933	30.7	13111	100
2025-3-27 18:49:23.268	WT901BLE68-01(48591DE3C19B)	-0.649	-0.930	0.067	-24.658	-76.111	47.119	-81.19	11.21	-67.06	-72.618	-44.884	9.702	0.64511	-0.47107	0.44070	-0.40933	30.7	13111	100
2025-3-27 18:49:23.268	WT901BLE68-01(48591DE3C19B)	-0.710	-0.930	0.067	-24.658	-76.111	47.119	-81.22	11.66	-66.36	-72.618	-44.884	9.702	0.64511	-0.47107	0.44070	-0.40933	30.7	13111	100
2025-3-27 18:49:23.328	WT901BLE68-01(48591DE3C19B)	-0.710	-1.097	0.032	-16.907	-59.875	62.683	-81.23	12.20	-65.72	-72.618	-44.884	9.702	0.64511	-0.47107	0.44070	-0.40933	30.7	13111	100
2025-3-27 18:49:23.328	WT901BLE68-01(48591DE3C19B)	-0.809	-1.097	0.032	-16.907	-59.875	62.683	-81.22	12.83	-65.14	-72.618	-44.884	9.702	0.64511	-0.47107	0.44070	-0.40933	30.7	13111	100
2025-3-27 18:49:23.328	WT901BLE68-01(48591DE3C19B)	-0.809	-1.235	0.069	-7.690	-46.631	75.623	-81.16	13.53	-64.62	-72.618	-44.884	9.702	0.64511	-0.47107	0.44070	-0.40933	30.7	13111	100
2025-3-27 18:49:23.328	WT901BLE68-01(48591DE3C19B)	-0.844	-1.235	0.069	-7.690	-46.631	75.623	-81.08	14.30	-64.15	-72.618	-44.884	9.702	0.64511	-0.47107	0.44070	-0.40933	30.7	13111	100
2025-3-27 18:49:23.357	WT901BLE68-01(48591DE3C19B)	-0.844	-1.292	0.126	3.906	-28.503	90.088	-80.95	15.16	-63.75	-72.618	-44.884	9.702	0.64511	-0.47107	0.44070	-0.40933	30.7	13111	100
2025-3-27 18:49:23.357	WT901BLE68-01(48591DE3C19B)	-0.789	-1.292	0.126	3.906	-28.503	90.088	-80.78	16.09	-63.43	-72.618	-44.884	9.702	0.64511	-0.47107	0.44070	-0.40933	30.7	13111	100
2025-3-27 18:49:23.357	WT901BLE68-01(48591DE3C19B)	-0.789	-1.248	0.138	10.803	-4.456	104.858	-80.61	17.12	-63.22	-72.618	-44.884	9.702	0.64511	-0.47107	0.44070	-0.40933	30.7	13111	100
2025-3-27 18:49:23.357	WT901BLE68-01(48591DE3C19B)	-0.722	-1.248	0.138	10.803	-4.456	104.858	-80.42	18.23	-63.11	-72.618	-44.884	9.702	0.64511	-0.47107	0.44070	-0.40933	30.7	13111	100
2025-3-27 18:49:23.419	WT901BLE68-01(48591DE3C19B)	-0.722	-1.136	0.115	9.094	21.973	121.216	-80.29	19.43	-63.12	-72.618	-44.884	9.702	0.64511	-0.47107	0.44070	-0.40933	30.7	13111	100
2025-3-27 18:49:23.419	WT901BLE68-01(48591DE3C19B)	-0.719	-1.136	0.115	9.094	21.973	121.216	-80.20	20.73	-63.26	-72.618	-44.884	9.702	0.64511	-0.47107	0.44070	-0.40933	30.7	13111	100
2025-3-27 18:49:23.420	WT901BLE68-01(48591DE3C19B)	-0.719	-1.060	0.091	3.479	31.921	136.353	-80.16	22.11	-63.43	-72.618	-44.884	9.702	0.64511	-0.47107	0.44070	-0.40933	30.7	13111	100
2025-3-27 18:49:23.420	WT901BLE68-01(48591DE3C19B)	-0.710	-1.060	0.091	3.479	31.921	136.353	-80.16	23.57	-63.64	-72.618	-44.884	9.702	0.64511	-0.47107	0.44070	-0.40933	30.7	13111	100
2025-3-27 18:49:23.450	WT901BLE68-01(48591DE3C19B)	-0.710	-0.985	0.079	-2.502	25.513	145.264	-80.18	25.05	-63.81	-72.618	-44.884	9.702	0.64511	-0.47107	0.44070	-0.40933	30.7	13111	100
2025-3-27 18:49:23.450	WT901BLE68-01(48591DE3C19B)	-0.680	-0.985	0.079	-2.502	25.513	145.264	-80.22	26.56	-63.95	-72.618	-44.884	9.702	0.64511	-0.47107	0.44070	-0.40933	30.7	13111	100
2025-3-27 18:49:23.450	WT901BLE68-01(48591DE3C19B)	-0.680	-0.928	0.049	-8.972	10.071	149.841	-80.26	28.08	-63.99	-72.618	-44.884	9.702	0.64511	-0.47107	0.44070	-0.40933	30.7	13111	100
2025-3-27 18:49:23.450	WT901BLE68-01(48591DE3C19B)	-0.642	-0.928	0.049	-8.972	10.071	149.841	-80.27	29.60	-63.95	-72.618	-44.884	9.702	0.71524	-0.42188	0.49918	-0.24728	30.7	13111	100
2025-3-27 18:49:23.479	WT901BLE68-01(48591DE3C19B)	-0.642	-0.886	0.015	-12.939	-9.888	151.123	-80.26	31.11	-63.79	-72.618	-44.884	9.702	0.71524	-0.42188	0.49918	-0.24728	30.7	13111	100
2025-3-27 18:49:23.480	WT901BLE68-01(48591DE3C19B)	-0.587	-0.886	0.015	-12.939	-9.888	151.123	-80.18	32.59	-63.51	-72.618	-44.884	9.702	0.71524	-0.42188	0.49918	-0.24728	30.7	13111	100
2025-3-27 18:49:23.480	WT901BLE68-01(48591DE3C19B)	-0.587	-0.833	-0.013	-15.625	-33.508	148.804	-80.05	34.04	-63.08	-72.618	-44.884	9.702	0.71524	-0.42188	0.49918	-0.24728	30.7	13111	100
2025-3-27 18:49:23.480	WT901BLE68-01(48591DE3C19B)	-0.515	-0.833	-0.013	-15.625	-33.508	148.804	-79.83	35.45	-62.51	-72.618	-44.884	9.702	0.71524	-0.42188	0.49918	-0.24728	30.7	13111	100
2025-3-27 18:49:23.537	WT901BLE68-01(48591DE3C19B)	-0.515	-0.799	-0.017	-17.456	-53.040	145.081	-79.54	36.80	-61.81	-72.618	-44.884	9.702	0.71524	-0.42188	0.49918	-0.24728	30.7	13111	100
2025-3-27 18:49:23.538	WT901BLE68-01(48591DE3C19B)	-0.465	-0.799	-0.017	-17.456	-53.040	145.081	-79.15	38.12	-60.98	-72.618	-44.884	9.702	0.71524	-0.42188	0.49918	-0.24728	30.7	13111	100
2025-3-27 18:49:23.538	WT901BLE68-01(48591DE3C19B)	-0.465	-0.797	-0.019	-18.433	-66.956	139.893	-78.70	39.38	-60.04	-72.618	-44.884	9.702	0.71524	-0.42188	0.49918	-0.24728	30.7	13111	100
2025-3-27 18:49:23.538	WT901BLE68-01(48591DE3C19B)	-0.435	-0.797	-0.019	-18.433	-66.956	139.893	-78.16	40.59	-59.00	-72.618	-44.884	9.702	0.71524	-0.42188	0.49918	-0.24728	30.7	13111	100
2025-3-27 18:49:23.568	WT901BLE68-01(48591DE3C19B)	-0.435	-0.811	-0.009	-20.386	-77.515	132.263	-77.56	41.73	-57.87	-72.618	-44.884	9.702	0.71524	-0.42188	0.49918	-0.24728	30.7	13111	100
2025-3-27 18:49:23.568	WT901BLE68-01(48591DE3C19B)	-0.411	-0.811	-0.009	-20.386	-77.515	132.263	-76.90	42.80	-56.66	-72.618	-44.884	9.702	0.71524	-0.42188	0.49918	-0.24728	30.7	13111	100
2025-3-27 18:49:23.568	WT901BLE68-01(48591DE3C19B)	-0.411	-0.920	0.014	-24.292	-87.463	122.803	-76.19	43.80	-55.36	-72.618	-44.884	9.702	0.71524	-0.42188	0.49918	-0.24728	30.7	13111	100
2025-3-27 18:49:23.568	WT901BLE68-01(48591DE3C19B)	-0.387	-0.920	0.014	-24.292	-87.463	122.803	-75.42	44.73	-53.99	-72.618	-44.884	9.702	0.71524	-0.42188	0.49918	-0.24728	30.7	13111	100
2025-3-27 18:49:23.597	WT901BLE68-01(48591DE3C19B)	-0.387	-1.079	0.034	-26.489	-96.436	110.840	-74.60	45.55	-52.55	-72.618	-44.884	9.702	0.71524	-0.42188	0.49918	-0.24728	30.7	13111	100
2025-3-27 18:49:23.597	WT901BLE68-01(48591DE3C19B)	-0.326	-1.079	0.034	-26.489	-96.436	110.840	-73.73	46.28	-51.04	-72.618	-44.884	9.702	0.71524	-0.42188	0.49918	-0.24728	30.7	13111	100
2025-3-27 18:49:23.597	WT901BLE68-01(48591DE3C19B)	-0.326	-1.235	0.047	-27.161	-103.271	98.267	-72.81	46.84	-49.47	-72.618	-44.884	9.702	0.71524	-0.42188	0.49918	-0.24728	30.7	13111	100
2025-3-27 18:49:23.597	WT901BLE68-01(48591DE3C19B)	-0.236	-1.235	0.047	-27.161	-103.271	98.267	-71.87	47.38	-47.89	-72.618	-44.884	9.702	0.71524	-0.42188	0.49918	-0.24728	30.7	13111	100
2025-3-27 18:49:23.658	WT901BLE68-01(48591DE3C19B)	-0.236	-1.399	0.095	-27.222	-107.178	82.703	-70.93	47.72	-46.31	-72.618	-44.884	9.702	0.71524	-0.42188	0.49918	-0.24728	30.7	13111	100
2025-3-27 18:49:23.658	WT901BLE68-01(48591DE3C19B)	-0.073	-1.399	0.095	-27.222	-107.178	82.703	-69.97	48.03	-44.73	-72.618	-44.884	9.702	0.71524	-0.42188	0.49918	-0.24728	30.7	13111	100
2025-3-27 18:49:23.658	WT901BLE68-01(48591DE3C19B)	-0.073	-1.533	0.105	-24.353	-99.670	60.425	-69.16	48.14	-43.37	-72.618	-44.884	9.702	0.71524	-0.42188	0.49918	-0.24728	30.7	13111	100
2025-3-27 18:49:23.658	WT901BLE68-01(48591DE3C19B)	0.216	-1.533	0.105	-24.353	-99.670	60.425	-68.35	48.21	-42.03	-72.618	-44.884	9.702	0.71524	-0.42188	0.49918	-0.24728	30.7	13111	100
2025-3-27 18:49:23.689	WT901BLE68-01(48591DE3C19B)	0.216	-1.562	0.049	-20.508	-71.899	31.799	-67.93	48.10	-41.25	-83.888	-25.284	2.548	0.71524	-0.42188	0.49918	-0.24728	30.7	13111	100
2025-3-27 18:49:23.689	WT901BLE68-01(48591DE3C19B)	0.497	-1.562	0.049	-20.508	-71.899	31.799	-67.52	47.98	-40.48	-83.888	-25.284	2.548	0.71524	-0.42188	0.49918	-0.24728	30.7	13111	100
2025-3-27 18:49:23.689	WT901BLE68-01(48591DE3C19B)	0.497	-1.639	-0.048	-18.616	-15.137	-2.991	-67.85	47.74	-40.70	-83.888	-25.284	2.548	0.71524	-0.42188	0.49918	-0.24728	30.7	13111	100
2025-3-27 18:49:23.689	WT901BLE68-01(48591DE3C19B)	0.553	-1.639	-0.048	-18.616	-15.137	-2.991	-68.18	47.47	-40.94	-83.888	-25.284	2.548	0.71524	-0.42188	0.49918	-0.24728	30.7	13111	100
2025-3-27 18:49:23.717	WT901BLE68-01(48591DE3C19B)	0.276	-1.683	-0.023	-17.456	32.349	-43.823	-69.15	46.99	-42.03	-83.888	-25.284	2.548	0.71524	-0.42188	0.49918	-0.24728	30.7	13111	100
2025-3-27 18:49:23.717	WT901BLE68-01(48591DE3C19B)	0.349	-0.841	-0.011	-17.456	32.349	-43.823	-70.10	46.49	-43.11	-83.888	-25.284	2.548	0.71524	-0.42188	0.49918	-0.24728	30.7	13111	100
2025-3-27 18:49:23.717	WT901BLE68-01(48591DE3C19B)	0.349	-1.898	0.020	-26.123	62.256	-96.008	-71.58	45.58	-44.81	-83.888	-25.284	2.548	0.71524	-0.42188	0.49918	-0.24728	30.7	13111	100
2025-3-27 18:49:23.717	WT901BLE68-01(48591DE3C19B)	0.036	-1.898	0.020	-26.123	62.256	-96.008	-72.99	44.64	-46.45	-83.888	-25.284	2.548	0.71524	-0.42188	0.49918	-0.24728	30.7	13111	100
2025-3-27 18:49:23.777	WT901BLE68-01(48591DE3C19B)	0.036	-1.967	0.071	-7.446	90.332	-148.193	-74.54	43.25	-48.59	-83.888	-25.284	2.548	0.71524	-0.42188	0.49918	-0.24728	30.7	13111	100
2025-3-27 18:49:23.777	WT901BLE68-01(48591DE3C19B)	-0.031	-1.967	0.071	-7.446	90.332	-148.193	-75.98	41.82	-50.61	-83.888	-25.284	2.548	0.71524	-0.42188	0.49918	-0.24728	30.7	13111	100
2025-3-27 18:49:23.777	WT901BLE68-01(48591DE3C19B)	-0.031	-1.600	0.154	9.338	90.820	-207.336	-77.25	39.81	-52.72	-83.888	-25.284	2.548	0.71524	-0.42188	0.49918	-0.24728	30.7	13111	100
2025-3-27 18:49:23.777	WT901BLE68-01(48591DE3C19B)	-0.013	-1.600	0.154	9.338	90.820	-207.336	-78.39	37.77	-54.71	-83.888	-25.284	2.548	0.71524	-0.42188	0.49918	-0.24728	30.7	13111	100
2025-3-27 18:49:23.810	WT901BLE68-01(48591DE3C19B)	-0.013	-1.332	0.201	11.597	63.721	-242.737	-79.22	35.32	-56.33	-83.888	-25.284	2.548	0.71524	-0.42188	0.49918	-0.24728	30.7	13111	100
2025-3-27 18:49:23.810	WT901BLE68-01(48591DE3C19B)	-0.038	-1.332	0.201	11.597	63.721	-242.737	-79.95	32.86	-57.86	-83.888	-25.284	2.548	0.71524	-0.42188	0.49918	-0.24728	30.7	13111	100
2025-3-27 18:49:23.810	WT901BLE68-01(48591DE3C19B)	-0.038	-1.136	0.255	19.104	35.156	-259.705	-80.34	30.19	-59.01	-83.888	-25.284	2.548	0.71524	-0.42188	0.49918	-0.24728	30.7	13111	100
2025-3-27 18:49:23.810	WT901BLE68-01(48591DE3C19B)	-0.152	-1.136	0.255	19.104	35.156	-259.705	-80.67	27.53	-60.11	-83.888	-25.284	2.548	0.71524	-0.42188	0.49918	-0.24728	30.7	13111	100
2025-3-27 18:49:23.839	WT901BLE68-01(48591DE3C19B)	-0.152	-0.967	0.316	19.470	-2.747	-265.198	-80.74	24.77	-60.77	-83.888	-25.284	2.548	0.71524	-0.42188	0.49918	-0.24728	30.7	13111	100
2025-3-27 18:49:23.839	WT901BLE68-01(48591DE3C19B)	-0.220	-0.967	0.316	19.470	-2.747	-265.198	-80.78	22.02	-61.40	-83.888	-25.284	2.548	0.71524	-0.42188	0.49918	-0.24728	30.7	13111	100
2025-3-27 18:49:23.839	WT901BLE68-01(48591DE3C19B)	-0.220	-0.889	0.331	5.188	-37.964	-271.301	-80.79	19.18	-61.66	-83.888	-25.284	2.548	0.69705	-0.48904	0.42966	-0.30038	30.7	13111	100
2025-3-27 18:49:23.839	WT901BLE68-01(48591DE3C19B)	-0.011	-0.889	0.331	5.188	-37.964	-271.301	-80.79	16.36	-61.91	-83.888	-25.284	2.548	0.69705	-0.48904	0.42966	-0.30038	30.7	13111	100
2025-3-27 18:49:23.897	WT901BLE68-01(48591DE3C19B)	-0.011	-0.986	0.356	-11.658	-18.250	-282.349	-81.00	13.47	-62.37	-83.888	-25.284	2.548	0.69705	-0.48904	0.42966	-0.30038	30.7	13111	100
2025-3-27 18:49:23.897	WT901BLE68-01(48591DE3C19B)	-0.418	-0.986	0.356	-11.658	-18.250	-282.349	-81.18	10.60	-62.82	-83.888	-25.284	2.548	0.69705	-0.48904	0.42966	-0.30038	30.7	13111	100
2025-3-27 18:49:23.897	WT901BLE68-01(48591DE3C19B)	-0.418	-1.246	0.416	0.854	-47.607	-279.236	-81.16	7.73	-62.96	-83.888	-25.284	2.548	0.69705	-0.48904	0.42966	-0.30038	30.7	13111	100
2025-3-27 18:49:23.897	WT901BLE68-01(48591DE3C19B)	-0.135	-1.246	0.416	0.854	-47.607	-279.236	-81.13	4.89	-63.11	-83.888	-25.284	2.548	0.69705	-0.48904	0.42966	-0.30038	30.7	13111	100
2025-3-27 18:49:23.928	WT901BLE68-01(48591DE3C19B)	-0.135	-1.284	0.433	-17.700	-36.377	-308.350	-81.29	1.80	-63.40	-83.888	-25.284	2.548	0.69705	-0.48904	0.42966	-0.30038	30.7	13111	100
2025-3-27 18:49:23.928	WT901BLE68-01(48591DE3C19B)	-0.051	-1.284	0.433	-17.700	-36.377	-308.350	-81.43	-1.27	-63.69	-83.888	-25.284	2.548	0.69705	-0.48904	0.42966	-0.30038	30.7	13111	100
2025-3-27 18:49:23.928	WT901BLE68-01(48591DE3C19B)	-0.051	-1.549	0.366	-16.541	25.146	-302.368	-81.52	-4.18	-64.58	-83.888	-25.284	2.548	0.69705	-0.48904	0.42966	-0.30038	30.7	13111	100
2025-3-27 18:49:23.928	WT901BLE68-01(48591DE3C19B)	-0.074	-1.549	0.366	-16.541	25.146	-302.368	-81.57	-7.08	-65.46	-83.888	-25.284	2.548	0.69705	-0.48904	0.42966	-0.30038	30.7	13111	100
2025-3-27 18:49:23.987	WT901BLE68-01(48591DE3C19B)	-0.074	-1.647	0.187	0.000	120.728	-302.734	-81.29	-9.82	-67.29	-83.888	-25.284	2.548	0.69705	-0.48904	0.42966	-0.30038	30.7	13111	100
2025-3-27 18:49:23.988	WT901BLE68-01(48591DE3C19B)	-0.232	-1.647	0.187	0.000	120.728	-302.734	-80.92	-12.54	-69.15	-83.888	-25.284	2.548	0.69705	-0.48904	0.42966	-0.30038	30.7	13111	100
2025-3-27 18:49:23.988	WT901BLE68-01(48591DE3C19B)	-0.232	-1.623	0.165	32.471	197.021	-277.344	-79.97	-14.83	-71.77	-83.888	-25.284	2.548	0.69705	-0.48904	0.42966	-0.30038	30.7	13111	100
2025-3-27 18:49:23.988	WT901BLE68-01(48591DE3C19B)	-0.454	-1.623	0.165	32.471	197.021	-277.344	-78.93	-17.07	-74.45	-83.888	-25.284	2.548	0.69705	-0.48904	0.42966	-0.30038	30.7	13111	100
2025-3-27 18:49:24.78	WT901BLE68-01(48591DE3C19B)	-0.454	-1.432	0.176	66.040	259.277	-245.972	-77.27	-18.80	-77.76	-83.888	-25.284	2.548	0.69705	-0.48904	0.42966	-0.30038	30.7	13111	100
2025-3-27 18:49:24.78	WT901BLE68-01(48591DE3C19B)	-0.587	-1.432	0.176	66.040	259.277	-245.972	-75.50	-20.42	-81.15	-83.888	-25.284	2.548	0.69705	-0.48904	0.42966	-0.30038	30.7	13111	100
2025-3-27 18:49:24.78	WT901BLE68-01(48591DE3C19B)	-0.587	-1.166	0.146	80.688	302.490	-203.918	-73.39	-21.39	-84.92	-83.888	-25.284	2.548	0.69705	-0.48904	0.42966	-0.30038	30.7	13111	100
2025-3-27 18:49:24.78	WT901BLE68-01(48591DE3C19B)	-0.705	-1.166	0.146	80.688	302.490	-203.918	-71.22	-22.22	-88.74	-83.888	-25.284	2.548	0.69705	-0.48904	0.42966	-0.30038	30.7	13111	100
2025-3-27 18:49:24.79	WT901BLE68-01(48591DE3C19B)	-0.705	-0.957	0.130	87.341	328.552	-160.278	-68.91	-22.40	-92.68	-83.888	-25.284	2.548	0.69705	-0.48904	0.42966	-0.30038	30.7	13111	100
2025-3-27 18:49:24.79	WT901BLE68-01(48591DE3C19B)	-0.829	-0.957	0.130	87.341	328.552	-160.278	-66.61	-22.42	-96.61	-83.888	-25.284	2.548	0.69705	-0.48904	0.42966	-0.30038	30.7	13111	100
2025-3-27 18:49:24.79	WT901BLE68-01(48591DE3C19B)	-0.906	-0.854	0.124	80.261	311.401	-114.380	-64.56	-21.95	-100.15	-83.888	-25.284	2.548	0.69705	-0.48904	0.42966	-0.30038	30.7	13111	100
2025-3-27 18:49:24.79	WT901BLE68-01(48591DE3C19B)	-0.906	-0.860	0.138	69.031	270.813	-73.669	-62.73	-21.26	-103.34	-54.978	-51.744	2.548	0.69705	-0.48904	0.42966	-0.30038	30.7	13111	100
2025-3-27 18:49:24.79	WT901BLE68-01(48591DE3C19B)	-0.948	-0.860	0.138	69.031	270.813	-73.669	-61.13	-20.40	-106.19	-54.978	-51.744	2.548	0.69705	-0.48904	0.42966	-0.30038	30.7	13111	100
2025-3-27 18:49:24.80	WT901BLE68-01(48591DE3C19B)	-0.948	-0.900	0.108	54.138	223.572	-39.185	-59.78	-19.43	-108.68	-54.978	-51.744	2.548	0.69705	-0.48904	0.42966	-0.30038	30.7	13111	100
2025-3-27 18:49:24.80	WT901BLE68-01(48591DE3C19B)	-0.961	-0.900	0.108	54.138	223.572	-39.185	-58.67	-18.37	-110.81	-54.978	-51.744	2.548	0.69705	-0.48904	0.42966	-0.30038	30.7	13111	100
2025-3-27 18:49:24.80	WT901BLE68-01(48591DE3C19B)	-0.961	-0.958	0.027	35.156	169.800	-11.536	-57.81	-17.30	-112.58	-54.978	-51.744	2.548	0.69705	-0.48904	0.42966	-0.30038	30.7	13111	100
2025-3-27 18:49:24.138	WT901BLE68-01(48591DE3C19B)	-0.936	-0.958	0.027	35.156	169.800	-11.536	-57.19	-16.24	-114.01	-54.978	-51.744	2.548	0.69705	-0.48904	0.42966	-0.30038	30.7	13111	100
2025-3-27 18:49:24.138	WT901BLE68-01(48591DE3C19B)	-0.936	-0.956	-0.060	13.428	112.366	11.169	-56.81	-15.23	-115.07	-54.978	-51.744	2.548	0.69705	-0.48904	0.42966	-0.30038	30.7	13111	100
2025-3-27 18:49:24.138	WT901BLE68-01(48591DE3C19B)	-0.931	-0.956	-0.060	13.428	112.366	11.169	-56.66	-14.29	-115.77	-54.978	-51.744	2.548	0.69705	-0.48904	0.42966	-0.30038	30.7	13111	100
2025-3-27 18:49:24.138	WT901BLE68-01(48591DE3C19B)	-0.931	-0.944	-0.088	-13.184	56.641	30.457	-56.76	-13.44	-116.11	-54.978	-51.744	2.548	0.69705	-0.48904	0.42966	-0.30038	30.7	13111	100
2025-3-27 18:49:24.197	WT901BLE68-01(48591DE3C19B)	-0.893	-0.944	-0.088	-13.184	56.641	30.457	-57.09	-12.71	-116.07	-54.978	-51.744	2.548	0.69705	-0.48904	0.42966	-0.30038	30.7	13111	100
2025-3-27 18:49:24.197	WT901BLE68-01(48591DE3C19B)	-0.893	-0.983	-0.077	-41.016	12.756	47.241	-57.65	-12.09	-115.68	-54.978	-51.744	2.548	0.69705	-0.48904	0.42966	-0.30038	30.7	13111	100
2025-3-27 18:49:24.198	WT901BLE68-01(48591DE3C19B)	-0.867	-0.983	-0.077	-41.016	12.756	47.241	-58.41	-11.57	-114.98	-54.978	-51.744	2.548	0.69705	-0.48904	0.42966	-0.30038	30.7	13111	100
2025-3-27 18:49:24.198	WT901BLE68-01(48591DE3C19B)	-0.867	-0.995	-0.026	-66.223	-13.916	64.453	-59.34	-11.09	-114.08	-54.978	-51.744	2.548	0.69705	-0.48904	0.42966	-0.30038	30.7	13111	100
2025-3-27 18:49:24.198	WT901BLE68-01(48591DE3C19B)	-0.890	-0.995	-0.026	-66.223	-13.916	64.453	-60.41	-10.60	-113.02	-54.978	-51.744	2.548	0.69705	-0.48904	0.42966	-0.30038	30.7	13111	100
2025-3-27 18:49:24.198	WT901BLE68-01(48591DE3C19B)	-0.890	-1.007	0.022	-89.600	-44.922	81.116	-61.62	-10.12	-111.79	-54.978	-51.744	2.548	0.69705	-0.48904	0.42966	-0.30038	30.7	13111	100
2025-3-27 18:49:24.198	WT901BLE68-01(48591DE3C19B)	-0.911	-1.007	0.022	-89.600	-44.922	81.116	-62.96	-9.62	-110.38	-54.978	-51.744	2.548	0.69705	-0.48904	0.42966	-0.30038	30.7	13111	100
2025-3-27 18:49:24.198	WT901BLE68-01(48591DE3C19B)	-0.911	-1.056	0.051	-106.506	-90.149	99.670	-64.42	-9.12	-108.74	-54.978	-51.744	2.548	0.69705	-0.48904	0.42966	-0.30038	30.7	13111	100
2025-3-27 18:49:24.258	WT901BLE68-01(48591DE3C19B)	-0.894	-1.056	0.051	-106.506	-90.149	99.670	-65.98	-8.59	-106.88	-54.978	-51.744	2.548	0.69705	-0.48904	0.42966	-0.30038	30.7	13111	100
2025-3-27 18:49:24.258	WT901BLE68-01(48591DE3C19B)	-0.894	-0.990	0.062	-114.136	-139.221	121.704	-67.60	-8.00	-104.77	-54.978	-51.744	2.548	0.69705	-0.48904	0.42966	-0.30038	30.7	13111	100
2025-3-27 18:49:24.258	WT901BLE68-01(48591DE3C19B)	-0.873	-0.990	0.062	-114.136	-139.221	121.704	-69.27	-7.33	-102.43	-54.978	-51.744	2.548	0.69705	-0.48904	0.42966	-0.30038	30.7	13111	100
2025-3-27 18:49:24.258	WT901BLE68-01(48591DE3C19B)	-0.873	-0.981	0.042	-120.850	-193.176	148.804	-70.96	-6.51	-99.88	-54.978	-51.744	2.548	0.69705	-0.48904	0.42966	-0.30038	30.7	13111	100
2025-3-27 18:49:24.289	WT901BLE68-01(48591DE3C19B)	-0.845	-0.981	0.042	-120.850	-193.176	148.804	-72.59	-5.50	-97.28	-54.978	-51.744	2.548	0.51056	-0.41974	0.41824	-0.62299	30.7	13111	100
2025-3-27 18:49:24.289	WT901BLE68-01(48591DE3C19B)	-0.845	-1.153	0.007	-122.375	-247.742	180.298	-74.12	-4.30	-94.63	-54.978	-51.744	2.548	0.51056	-0.41974	0.41824	-0.62299	30.7	13111	100
2025-3-27 18:49:24.289	WT901BLE68-01(48591DE3C19B)	-0.769	-1.153	0.007	-122.375	-247.742	180.298	-75.60	-2.96	-91.77	-54.978	-51.744	2.548	0.51056	-0.41974	0.41824	-0.62299	30.7	13111	100
2025-3-27 18:49:24.289	WT901BLE68-01(48591DE3C19B)	-0.769	-1.386	-0.041	-108.582	-290.833	208.740	-76.92	-1.46	-88.72	-54.978	-51.744	2.548	0.51056	-0.41974	0.41824	-0.62299	30.7	13111	100
2025-3-27 18:49:24.317	WT901BLE68-01(48591DE3C19B)	-0.635	-1.386	-0.041	-108.582	-290.833	208.740	-78.08	0.18	-85.47	-54.978	-51.744	2.548	0.51056	-0.41974	0.41824	-0.62299	30.7	13111	100
2025-3-27 18:49:24.317	WT901BLE68-01(48591DE3C19B)	-0.635	-1.595	-0.073	-82.520	-315.247	231.934	-79.01	1.94	-82.13	-54.978	-51.744	2.548	0.51056	-0.41974	0.41824	-0.62299	30.7	13111	100
2025-3-27 18:49:24.317	WT901BLE68-01(48591DE3C19B)	-0.477	-1.595	-0.073	-82.520	-315.247	231.934	-79.69	3.83	-78.67	-54.978	-51.744	2.548	0.51056	-0.41974	0.41824	-0.62299	30.7	13111	100
2025-3-27 18:49:24.317	WT901BLE68-01(48591DE3C19B)	-0.477	-1.741	-0.042	-47.974	-316.284	247.986	-80.08	5.82	-75.22	-54.978	-51.744	2.548	0.51056	-0.41974	0.41824	-0.62299	30.7	13111	100
2025-3-27 18:49:24.378	WT901BLE68-01(48591DE3C19B)	-0.316	-1.741	-0.042	-47.974	-316.284	247.986	-80.16	7.87	-71.77	-54.978	-51.744	2.548	0.51056	-0.41974	0.41824	-0.62299	30.7	13111	100
2025-3-27 18:49:24.378	WT901BLE68-01(48591DE3C19B)	-0.316	-1.771	0.011	-11.902	-293.945	258.728	-79.96	9.96	-68.42	-54.978	-51.744	2.548	0.51056	-0.41974	0.41824	-0.62299	30.7	13111	100
2025-3-27 18:49:24.378	WT901BLE68-01(48591DE3C19B)	-0.161	-1.771	0.011	-11.902	-293.945	258.728	-79.46	12.09	-65.15	-54.978	-51.744	2.548	0.51056	-0.41974	0.41824	-0.62299	30.7	13111	100
2025-3-27 18:49:24.378	WT901BLE68-01(48591DE3C19B)	-0.161	-1.704	0.062	17.944	-249.268	263.855	-78.74	14.23	-62.08	-54.978	-51.744	2.548	0.51056	-0.41974	0.41824	-0.62299	30.7	13111	100
2025-3-27 18:49:24.412	WT901BLE68-01(48591DE3C19B)	-0.057	-1.704	0.062	17.944	-249.268	263.855	-77.80	16.36	-59.19	-54.978	-51.744	2.548	0.51056	-0.41974	0.41824	-0.62299	30.7	13111	100
2025-3-27 18:49:24.412	WT901BLE68-01(48591DE3C19B)	-0.057	-1.591	0.106	40.588	-185.852	265.320	-76.73	18.50	-56.56	-54.978	-51.744	2.548	0.51056	-0.41974	0.41824	-0.62299	30.7	13111	100
2025-3-27 18:49:24.412	WT901BLE68-01(48591DE3C19B)	-0.036	-1.591	0.106	40.588	-185.852	265.320	-75.53	20.65	-54.20	-54.978	-51.744	2.548	0.51056	-0.41974	0.41824	-0.62299	30.7	13111	100
2025-3-27 18:49:24.412	WT901BLE68-01(48591DE3C19B)	-0.036	-1.521	0.150	52.124	-116.638	265.137	-74.31	22.82	-52.13	-54.978	-51.744	2.548	0.51056	-0.41974	0.41824	-0.62299	30.7	13111	100
2025-3-27 18:49:24.439	WT901BLE68-01(48591DE3C19B)	-0.047	-1.521	0.150	52.124	-116.638	265.137	-73.06	25.02	-50.35	-54.978	-51.744	2.548	0.51056	-0.41974	0.41824	-0.62299	30.7	13111	100
2025-3-27 18:49:24.440	WT901BLE68-01(48591DE3C19B)	-0.047	-1.496	0.186	57.312	-53.467	263.550	-71.85	27.25	-48.84	-54.978	-51.744	2.548	0.51056	-0.41974	0.41824	-0.62299	30.7	13111	100
2025-3-27 18:49:24.440	WT901BLE68-01(48591DE3C19B)	-0.089	-1.496	0.186	57.312	-53.467	263.550	-70.69	29.53	-47.60	-54.978	-51.744	2.548	0.51056	-0.41974	0.41824	-0.62299	30.7	13111	100
2025-3-27 18:49:24.440	WT901BLE68-01(48591DE3C19B)	-0.089	-1.519	0.221	53.772	-5.798	261.841	-69.59	31.83	-46.55	-54.978	-51.744	2.548	0.51056	-0.41974	0.41824	-0.62299	30.7	13111	100
2025-3-27 18:49:24.497	WT901BLE68-01(48591DE3C19B)	-0.178	-1.519	0.221	53.772	-5.798	261.841	-68.58	34.17	-45.70	-54.978	-51.744	2.548	0.51056	-0.41974	0.41824	-0.62299	30.7	13111	100
2025-3-27 18:49:24.498	WT901BLE68-01(48591DE3C19B)	-0.178	-1.644	0.232	41.870	23.865	256.348	-67.66	36.52	-44.96	-78.694	-36.554	-2.646	0.51056	-0.41974	0.41824	-0.62299	30.7	13111	100
2025-3-27 18:49:24.498	WT901BLE68-01(48591DE3C19B)	-0.233	-1.644	0.232	41.870	23.865	256.348	-66.85	38.86	-44.35	-78.694	-36.554	-2.646	0.51056	-0.41974	0.41824	-0.62299	30.7	13111	100
2025-3-27 18:49:24.498	WT901BLE68-01(48591DE3C19B)	-0.233	-1.903	0.168	26.794	42.908	246.033	-66.15	41.18	-43.82	-78.694	-36.554	-2.646	0.51056	-0.41974	0.41824	-0.62299	30.7	13111	100
2025-3-27 18:49:24.557	WT901BLE68-01(48591DE3C19B)	-0.266	-1.903	0.168	26.794	42.908	246.033	-65.56	43.47	-43.39	-78.694	-36.554	-2.646	0.51056	-0.41974	0.41824	-0.62299	30.7	13111	100
2025-3-27 18:49:24.558	WT901BLE68-01(48591DE3C19B)	-0.266	-2.082	0.096	21.606	51.270	236.389	-65.10	45.69	-43.07	-78.694	-36.554	-2.646	0.51056	-0.41974	0.41824	-0.62299	30.7	13111	100
2025-3-27 18:49:24.558	WT901BLE68-01(48591DE3C19B)	-0.330	-2.082	0.096	21.606	51.270	236.389	-64.59	47.89	-42.72	-78.694	-36.554	-2.646	0.51056	-0.41974	0.41824	-0.62299	30.7	13111	100
2025-3-27 18:49:24.558	WT901BLE68-01(48591DE3C19B)	-0.330	-2.146	0.045	14.221	25.940	218.140	-63.95	49.81	-42.10	-78.694	-36.554	-2.646	0.51056	-0.41974	0.41824	-0.62299	30.7	13111	100
2025-3-27 18:49:24.559	WT901BLE68-01(48591DE3C19B)	-0.219	-2.146	0.045	14.221	25.940	218.140	-63.24	51.72	-41.42	-78.694	-36.554	-2.646	0.51056	-0.41974	0.41824	-0.62299	30.7	13111	100
2025-3-27 18:49:24.559	WT901BLE68-01(48591DE3C19B)	-0.219	-2.269	-0.014	8.118	-6.226	188.660	-62.34	53.20	-40.42	-78.694	-36.554	-2.646	0.51056	-0.41974	0.41824	-0.62299	30.7	13111	100
2025-3-27 18:49:24.559	WT901BLE68-01(48591DE3C19B)	-0.045	-2.269	-0.014	8.118	-6.226	188.660	-61.36	54.66	-39.36	-78.694	-36.554	-2.646	0.51056	-0.41974	0.41824	-0.62299	30.7	13111	100
2025-3-27 18:49:24.559	WT901BLE68-01(48591DE3C19B)	-0.045	-2.088	-0.084	17.578	-29.297	158.997	-60.14	55.72	-38.12	-78.694	-36.554	-2.646	0.51056	-0.41974	0.41824	-0.62299	30.7	13111	100
2025-3-27 18:49:24.616	WT901BLE68-01(48591DE3C19B)	0.079	-2.088	-0.084	17.578	-29.297	158.997	-58.85	56.77	-36.82	-78.694	-36.554	-2.646	0.51056	-0.41974	0.41824	-0.62299	30.7	13111	100
2025-3-27 18:49:24.616	WT901BLE68-01(48591DE3C19B)	0.079	-1.663	-0.047	18.982	-39.246	132.080	-57.57	57.51	-35.56	-78.694	-36.554	-2.646	0.51056	-0.41974	0.41824	-0.62299	30.7	13111	100
2025-3-27 18:49:24.617	WT901BLE68-01(48591DE3C19B)	0.110	-1.663	-0.047	18.982	-39.246	132.080	-56.25	58.22	-34.24	-78.694	-36.554	-2.646	0.51056	-0.41974	0.41824	-0.62299	30.7	13111	100
2025-3-27 18:49:24.617	WT901BLE68-01(48591DE3C19B)	0.110	-1.273	0.033	6.287	-43.030	103.333	-55.22	58.66	-33.15	-78.694	-36.554	-2.646	0.51056	-0.41974	0.41824	-0.62299	30.7	13111	100
2025-3-27 18:49:24.649	WT901BLE68-01(48591DE3C19B)	0.105	-1.273	0.033	6.287	-43.030	103.333	-54.18	59.08	-32.02	-78.694	-36.554	-2.646	0.51056	-0.41974	0.41824	-0.62299	30.7	13111	100
2025-3-27 18:49:24.649	WT901BLE68-01(48591DE3C19B)	0.105	-1.013	0.164	-3.479	-44.312	67.444	-53.55	59.19	-31.28	-78.694	-36.554	-2.646	0.51056	-0.41974	0.41824	-0.62299	30.7	13111	100
2025-3-27 18:49:24.649	WT901BLE68-01(48591DE3C19B)	0.211	-1.013	0.164	-3.479	-44.312	67.444	-52.93	59.29	-30.54	-78.694	-36.554	-2.646	0.51056	-0.41974	0.41824	-0.62299	30.7	13111	100
2025-3-27 18:49:24.649	WT901BLE68-01(48591DE3C19B)	0.211	-0.884	0.213	-8.606	-42.847	31.372	-52.74	59.11	-30.25	-78.694	-36.554	-2.646	0.51056	-0.41974	0.41824	-0.62299	30.7	13111	100
2025-3-27 18:49:24.679	WT901BLE68-01(48591DE3C19B)	0.409	-0.884	0.213	-8.606	-42.847	31.372	-52.56	58.92	-29.97	-78.694	-36.554	-2.646	0.51056	-0.41974	0.41824	-0.62299	30.7	13111	100
2025-3-27 18:49:24.679	WT901BLE68-01(48591DE3C19B)	0.409	-0.821	0.118	-10.132	-22.339	-4.028	-53.03	58.57	-30.42	-78.694	-36.554	-2.646	0.51056	-0.41974	0.41824	-0.62299	30.7	13111	100
2025-3-27 18:49:24.679	WT901BLE68-01(48591DE3C19B)	0.542	-0.821	0.118	-10.132	-22.339	-4.028	-53.49	58.21	-30.87	-78.694	-36.554	-2.646	0.81030	-0.26337	0.52338	0.00336	30.7	13111	100
2025-3-27 18:49:24.679	WT901BLE68-01(48591DE3C19B)	0.542	-0.675	0.077	-6.165	4.028	-35.278	-54.54	57.75	-32.06	-78.694	-36.554	-2.646	0.81030	-0.26337	0.52338	0.00336	30.7	13111	100
2025-3-27 18:49:24.737	WT901BLE68-01(48591DE3C19B)	0.497	-0.675	0.077	-6.165	4.028	-35.278	-55.57	57.27	-33.22	-78.694	-36.554	-2.646	0.81030	-0.26337	0.52338	0.00336	30.7	13111	100
2025-3-27 18:49:24.738	WT901BLE68-01(48591DE3C19B)	0.497	-0.592	0.104	-9.094	30.701	-73.730	-57.26	56.59	-35.14	-78.694	-36.554	-2.646	0.81030	-0.26337	0.52338	0.00336	30.7	13111	100
2025-3-27 18:49:24.738	WT901BLE68-01(48591DE3C19B)	0.357	-0.592	0.104	-9.094	30.701	-73.730	-58.88	55.88	-36.99	-78.694	-36.554	-2.646	0.81030	-0.26337	0.52338	0.00336	30.7	13111	100
2025-3-27 18:49:24.738	WT901BLE68-01(48591DE3C19B)	0.357	-0.674	0.132	-10.498	57.068	-121.887	-61.10	54.84	-39.57	-78.694	-36.554	-2.646	0.81030	-0.26337	0.52338	0.00336	30.7	13111	100
2025-3-27 18:49:24.766	WT901BLE68-01(48591DE3C19B)	0.196	-0.674	0.132	-10.498	57.068	-121.887	-63.18	53.76	-42.01	-78.694	-36.554	-2.646	0.81030	-0.26337	0.52338	0.00336	30.7	13111	100
2025-3-27 18:49:24.766	WT901BLE68-01(48591DE3C19B)	0.196	-0.736	0.181	-5.066	72.083	-167.297	-65.48	52.28	-44.85	-78.694	-36.554	-2.646	0.81030	-0.26337	0.52338	0.00336	30.7	13111	100
2025-3-27 18:49:24.766	WT901BLE68-01(48591DE3C19B)	0.081	-0.736	0.181	-5.066	72.083	-167.297	-67.59	50.74	-47.49	-78.694	-36.554	-2.646	0.81030	-0.26337	0.52338	0.00336	30.7	13111	100
2025-3-27 18:49:24.766	WT901BLE68-01(48591DE3C19B)	0.081	-0.790	0.235	-2.014	77.942	-210.876	-69.70	48.77	-50.26	-78.694	-36.554	-2.646	0.81030	-0.26337	0.52338	0.00336	30.7	13111	100
2025-3-27 18:49:24.828	WT901BLE68-01(48591DE3C19B)	0.035	-0.790	0.235	-2.014	77.942	-210.876	-71.58	46.74	-52.81	-78.694	-36.554	-2.646	0.81030	-0.26337	0.52338	0.00336	30.7	13111	100
2025-3-27 18:49:24.828	WT901BLE68-01(48591DE3C19B)	0.035	-0.861	0.231	-3.235	84.290	-250.488	-73.43	44.32	-55.40	-78.694	-36.554	-2.646	0.81030	-0.26337	0.52338	0.00336	30.7	13111	100
2025-3-27 18:49:24.828	WT901BLE68-01(48591DE3C19B)	-0.030	-0.861	0.231	-3.235	84.290	-250.488	-75.05	41.86	-57.77	-78.694	-36.554	-2.646	0.81030	-0.26337	0.52338	0.00336	30.7	13111	100
2025-3-27 18:49:24.828	WT901BLE68-01(48591DE3C19B)	-0.030	-0.915	0.258	-3.418	91.431	-281.738	-76.59	39.09	-60.14	-78.694	-36.554	-2.646	0.81030	-0.26337	0.52338	0.00336	30.7	13111	100
2025-3-27 18:49:24.857	WT901BLE68-01(48591DE3C19B)	-0.175	-0.915	0.258	-3.418	91.431	-281.738	-77.91	36.30	-62.33	-78.694	-36.554	-2.646	0.81030	-0.26337	0.52338	0.00336	30.7	13111	100
2025-3-27 18:49:24.857	WT901BLE68-01(48591DE3C19B)	-0.175	-1.027	0.335	-5.493	98.633	-305.359	-79.15	33.27	-64.48	-78.694	-36.554	-2.646	0.81030	-0.26337	0.52338	0.00336	30.7	13111	100
2025-3-27 18:49:24.857	WT901BLE68-01(48591DE3C19B)	-0.388	-1.027	0.335	-5.493	98.633	-305.359	-80.20	30.24	-66.49	-78.694	-36.554	-2.646	0.81030	-0.26337	0.52338	0.00336	30.7	13111	100
2025-3-27 18:49:24.857	WT901BLE68-01(48591DE3C19B)	-0.388	-1.170	0.362	-2.869	105.530	-321.045	-81.12	27.06	-68.48	-74.578	-31.262	-7.252	0.81030	-0.26337	0.52338	0.00336	30.7	13111	100
2025-3-27 18:49:24.889	WT901BLE68-01(48591DE3C19B)	-0.575	-1.170	0.362	-2.869	105.530	-321.045	-81.89	23.90	-70.35	-74.578	-31.262	-7.252	0.81030	-0.26337	0.52338	0.00336	30.7	13111	100
2025-3-27 18:49:24.889	WT901BLE68-01(48591DE3C19B)	-0.575	-1.210	0.378	1.465	105.652	-329.468	-82.48	20.65	-72.15	-74.578	-31.262	-7.252	0.81030	-0.26337	0.52338	0.00336	30.7	13111	100
2025-3-27 18:49:24.889	WT901BLE68-01(48591DE3C19B)	-0.640	-1.210	0.378	1.465	105.652	-329.468	-82.95	17.44	-73.87	-74.578	-31.262	-7.252	0.81030	-0.26337	0.52338	0.00336	30.7	13111	100
2025-3-27 18:49:24.889	WT901BLE68-01(48591DE3C19B)	-0.640	-1.227	0.407	2.991	94.543	-329.163	-83.27	14.23	-75.43	-74.578	-31.262	-7.252	0.81030	-0.26337	0.52338	0.00336	30.7	13111	100
2025-3-27 18:49:24.947	WT901BLE68-01(48591DE3C19B)	-0.666	-1.227	0.407	2.991	94.543	-329.163	-83.48	11.05	-76.94	-74.578	-31.262	-7.252	0.81030	-0.26337	0.52338	0.00336	30.7	13111	100
2025-3-27 18:49:24.947	WT901BLE68-01(48591DE3C19B)	-0.666	-1.276	0.383	2.441	75.134	-321.899	-83.58	7.94	-78.23	-74.578	-31.262	-7.252	0.81030	-0.26337	0.52338	0.00336	30.7	13111	100
2025-3-27 18:49:24.947	WT901BLE68-01(48591DE3C19B)	-0.795	-1.276	0.383	2.441	75.134	-321.899	-83.62	4.87	-79.51	-74.578	-31.262	-7.252	0.81030	-0.26337	0.52338	0.00336	30.7	13111	100
2025-3-27 18:49:24.947	WT901BLE68-01(48591DE3C19B)	-0.795	-1.396	0.324	2.075	76.477	-303.772	-83.59	1.99	-80.77	-74.578	-31.262	-7.252	0.81030	-0.26337	0.52338	0.00336	30.7	13111	100
2025-3-27 18:49:24.976	WT901BLE68-01(48591DE3C19B)	-1.057	-1.396	0.324	2.075	76.477	-303.772	-83.51	-0.84	-82.03	-74.578	-31.262	-7.252	0.81030	-0.26337	0.52338	0.00336	30.7	13111	100
2025-3-27 18:49:24.976	WT901BLE68-01(48591DE3C19B)	-1.057	-1.524	0.278	14.465	98.267	-274.902	-83.24	-3.34	-83.49	-74.578	-31.262	-7.252	0.81030	-0.26337	0.52338	0.00336	30.7	13111	100
2025-3-27 18:49:24.976	WT901BLE68-01(48591DE3C19B)	-1.414	-1.524	0.278	14.465	98.267	-274.902	-82.92	-5.81	-84.96	-74.578	-31.262	-7.252	0.81030	-0.26337	0.52338	0.00336	30.7	13111	100
2025-3-27 18:49:24.976	WT901BLE68-01(48591DE3C19B)	-1.702	-1.608	0.266	26.184	104.797	-235.474	-82.42	-7.83	-86.47	-74.578	-31.262	-7.252	0.81030	-0.26337	0.52338	0.00336	30.7	13111	100
2025-3-27 18:49:25.6	WT901BLE68-01(48591DE3C19B)	-1.702	-1.595	0.254	32.349	78.979	-189.148	-81.86	-9.61	-87.85	-74.578	-31.262	-7.252	0.81030	-0.26337	0.52338	0.00336	30.7	13111	100
2025-3-27 18:49:25.6	WT901BLE68-01(48591DE3C19B)	-1.664	-1.595	0.254	32.349	78.979	-189.148	-81.27	-11.14	-89.09	-74.578	-31.262	-7.252	0.81030	-0.26337	0.52338	0.00336	30.7	13111	100
2025-3-27 18:49:25.6	WT901BLE68-01(48591DE3C19B)	-1.664	-1.428	0.251	36.316	53.650	-136.780	-80.65	-12.40	-90.20	-74.578	-31.262	-7.252	0.81030	-0.26337	0.52338	0.00336	30.7	13111	100
2025-3-27 18:49:25.6	WT901BLE68-01(48591DE3C19B)	-1.467	-1.428	0.251	36.316	53.650	-136.780	-80.02	-13.39	-91.16	-74.578	-31.262	-7.252	0.81030	-0.26337	0.52338	0.00336	30.7	13111	100
2025-3-27 18:49:25.68	WT901BLE68-01(48591DE3C19B)	-1.467	-1.245	0.214	30.945	49.377	-78.552	-79.43	-14.08	-92.07	-74.578	-31.262	-7.252	0.81030	-0.26337	0.52338	0.00336	30.7	13111	100
2025-3-27 18:49:25.69	WT901BLE68-01(48591DE3C19B)	-1.279	-1.245	0.214	30.945	49.377	-78.552	-78.87	-14.47	-92.92	-74.578	-31.262	-7.252	0.81030	-0.26337	0.52338	0.00336	30.7	13111	100
2025-3-27 18:49:25.69	WT901BLE68-01(48591DE3C19B)	-1.279	-1.084	0.176	19.592	50.049	-24.536	-78.37	-14.58	-93.73	-74.578	-31.262	-7.252	0.81030	-0.26337	0.52338	0.00336	30.7	13111	100
2025-3-27 18:49:25.69	WT901BLE68-01(48591DE3C19B)	-1.125	-1.084	0.176	19.592	50.049	-24.536	-77.94	-14.42	-94.50	-74.578	-31.262	-7.252	0.81030	-0.26337	0.52338	0.00336	30.7	13111	100
2025-3-27 18:49:25.127	WT901BLE68-01(48591DE3C19B)	-1.125	-0.970	0.139	1.770	49.683	22.339	-77.61	-14.02	-95.22	-74.578	-31.262	-7.252	0.46497	-0.48651	0.39761	-0.62363	30.7	13111	100
2025-3-27 18:49:25.127	WT901BLE68-01(48591DE3C19B)	-1.099	-0.970	0.139	1.770	49.683	22.339	-77.38	-13.40	-95.89	-74.578	-31.262	-7.252	0.46497	-0.48651	0.39761	-0.62363	30.7	13111	100
2025-3-27 18:49:25.127	WT901BLE68-01(48591DE3C19B)	-1.099	-0.980	0.129	-15.686	45.105	59.082	-77.27	-12.59	-96.51	-74.578	-31.262	-7.252	0.46497	-0.48651	0.39761	-0.62363	30.7	13111	100
2025-3-27 18:49:25.127	WT901BLE68-01(48591DE3C19B)	-1.153	-0.980	0.129	-15.686	45.105	59.082	-77.26	-11.62	-97.06	-74.578	-31.262	-7.252	0.46497	-0.48651	0.39761	-0.62363	30.7	13111	100
2025-3-27 18:49:25.128	WT901BLE68-01(48591DE3C19B)	-1.153	-0.968	0.118	-26.855	23.010	87.769	-77.33	-10.53	-97.47	-74.578	-31.262	-7.252	0.46497	-0.48651	0.39761	-0.62363	30.7	13111	100
2025-3-27 18:49:25.128	WT901BLE68-01(48591DE3C19B)	-1.135	-0.968	0.118	-26.855	23.010	87.769	-77.49	-9.33	-97.76	-74.578	-31.262	-7.252	0.46497	-0.48651	0.39761	-0.62363	30.7	13111	100
2025-3-27 18:49:25.129	WT901BLE68-01(48591DE3C19B)	-1.135	-0.906	0.062	-38.696	-11.841	113.953	-77.73	-8.05	-97.84	-74.578	-31.262	-7.252	0.46497	-0.48651	0.39761	-0.62363	30.7	13111	100
2025-3-27 18:49:25.129	WT901BLE68-01(48591DE3C19B)	-1.090	-0.906	0.062	-38.696	-11.841	113.953	-78.06	-6.67	-97.75	-74.578	-31.262	-7.252	0.46497	-0.48651	0.39761	-0.62363	30.7	13111	100
2025-3-27 18:49:25.187	WT901BLE68-01(48591DE3C19B)	-1.090	-0.962	-0.017	-53.040	-47.607	142.395	-78.46	-5.20	-97.45	-74.578	-31.262	-7.252	0.46497	-0.48651	0.39761	-0.62363	30.7	13111	100
2025-3-27 18:49:25.187	WT901BLE68-01(48591DE3C19B)	-1.031	-0.962	-0.017	-53.040	-47.607	142.395	-78.95	-3.63	-96.97	-74.578	-31.262	-7.252	0.46497	-0.48651	0.39761	-0.62363	30.7	13111	100
2025-3-27 18:49:25.187	WT901BLE68-01(48591DE3C19B)	-1.031	-1.101	-0.066	-60.974	-82.703	170.898	-79.47	-1.94	-96.29	-74.578	-31.262	-7.252	0.46497	-0.48651	0.39761	-0.62363	30.7	13111	100
2025-3-27 18:49:25.187	WT901BLE68-01(48591DE3C19B)	-0.961	-1.101	-0.066	-60.974	-82.703	170.898	-80.01	-0.15	-95.42	-74.578	-31.262	-7.252	0.46497	-0.48651	0.39761	-0.62363	30.7	13111	100
2025-3-27 18:49:25.215	WT901BLE68-01(48591DE3C19B)	-0.961	-1.216	-0.073	-62.500	-120.789	195.618	-80.54	1.72	-94.33	-74.578	-31.262	-7.252	0.46497	-0.48651	0.39761	-0.62363	30.7	13111	100
2025-3-27 18:49:25.215	WT901BLE68-01(48591DE3C19B)	-0.851	-1.216	-0.073	-62.500	-120.789	195.618	-81.04	3.70	-93.03	-74.578	-31.262	-7.252	0.46497	-0.48651	0.39761	-0.62363	30.7	13111	100
2025-3-27 18:49:25.215	WT901BLE68-01(48591DE3C19B)	-0.851	-1.312	-0.050	-58.655	-156.433	217.346	-81.46	5.76	-91.53	-74.578	-31.262	-7.252	0.46497	-0.48651	0.39761	-0.62363	30.7	13111	100
2025-3-27 18:49:25.216	WT901BLE68-01(48591DE3C19B)	-0.742	-1.312	-0.050	-58.655	-156.433	217.346	-81.79	7.89	-89.82	-74.578	-31.262	-7.252	0.46497	-0.48651	0.39761	-0.62363	30.7	13111	100
2025-3-27 18:49:25.248	WT901BLE68-01(48591DE3C19B)	-0.742	-1.382	-0.005	-47.607	-174.866	236.633	-82.00	10.10	-87.99	-74.578	-31.262	-7.252	0.46497	-0.48651	0.39761	-0.62363	30.7	13111	100
2025-3-27 18:49:25.248	WT901BLE68-01(48591DE3C19B)	-0.620	-1.382	-0.005	-47.607	-174.866	236.633	-82.05	12.37	-86.04	-74.578	-31.262	-7.252	0.46497	-0.48651	0.39761	-0.62363	30.7	13111	100
2025-3-27 18:49:25.248	WT901BLE68-01(48591DE3C19B)	-0.620	-1.426	0.044	-31.982	-172.485	251.099	-81.95	14.70	-84.08	-74.578	-31.262	-7.252	0.46497	-0.48651	0.39761	-0.62363	30.7	13111	100
2025-3-27 18:49:25.248	WT901BLE68-01(48591DE3C19B)	-0.504	-1.426	0.044	-31.982	-172.485	251.099	-81.69	17.07	-82.08	-74.578	-31.262	-7.252	0.46497	-0.48651	0.39761	-0.62363	30.7	13111	100
2025-3-27 18:49:25.310	WT901BLE68-01(48591DE3C19B)	-0.504	-1.428	0.079	-14.648	-154.358	261.902	-81.28	19.48	-80.13	-74.578	-31.262	-7.252	0.46497	-0.48651	0.39761	-0.62363	30.7	13111	100
2025-3-27 18:49:25.310	WT901BLE68-01(48591DE3C19B)	-0.401	-1.428	0.079	-14.648	-154.358	261.902	-80.72	21.91	-78.21	-65.562	-36.162	-8.428	0.46497	-0.48651	0.39761	-0.62363	30.7	13111	100
2025-3-27 18:49:25.310	WT901BLE68-01(48591DE3C19B)	-0.401	-1.379	0.069	1.892	-124.329	268.250	-80.04	24.35	-76.39	-65.562	-36.162	-8.428	0.46497	-0.48651	0.39761	-0.62363	30.7	13111	100
2025-3-27 18:49:25.310	WT901BLE68-01(48591DE3C19B)	-0.333	-1.379	0.069	1.892	-124.329	268.250	-79.24	26.81	-74.67	-65.562	-36.162	-8.428	0.46497	-0.48651	0.39761	-0.62363	30.7	13111	100
2025-3-27 18:49:25.336	WT901BLE68-01(48591DE3C19B)	-0.333	-1.257	0.036	13.245	-90.027	271.423	-78.38	29.27	-73.05	-65.562	-36.162	-8.428	0.46497	-0.48651	0.39761	-0.62363	30.7	13111	100
2025-3-27 18:49:25.336	WT901BLE68-01(48591DE3C19B)	-0.310	-1.257	0.036	13.245	-90.027	271.423	-77.45	31.73	-71.55	-65.562	-36.162	-8.428	0.46497	-0.48651	0.39761	-0.62363	30.7	13111	100
2025-3-27 18:49:25.337	WT901BLE68-01(48591DE3C19B)	-0.310	-1.204	0.025	14.465	-59.570	269.226	-76.53	34.18	-70.15	-65.562	-36.162	-8.428	0.46497	-0.48651	0.39761	-0.62363	30.7	13111	100
2025-3-27 18:49:25.337	WT901BLE68-01(48591DE3C19B)	-0.320	-1.204	0.025	14.465	-59.570	269.226	-75.60	36.61	-68.85	-65.562	-36.162	-8.428	0.46497	-0.48651	0.39761	-0.62363	30.7	13111	100
2025-3-27 18:49:25.367	WT901BLE68-01(48591DE3C19B)	-0.320	-1.287	0.046	13.306	-39.978	262.573	-74.67	39.00	-67.59	-65.562	-36.162	-8.428	0.46497	-0.48651	0.39761	-0.62363	30.7	13111	100
2025-3-27 18:49:25.367	WT901BLE68-01(48591DE3C19B)	-0.294	-1.287	0.046	13.306	-39.978	262.573	-73.73	41.34	-66.37	-65.562	-36.162	-8.428	0.46497	-0.48651	0.39761	-0.62363	30.7	13111	100
2025-3-27 18:49:25.367	WT901BLE68-01(48591DE3C19B)	-0.294	-1.358	0.088	15.137	-30.518	253.052	-72.75	43.62	-65.15	-65.562	-36.162	-8.428	0.46497	-0.48651	0.39761	-0.62363	30.7	13111	100
2025-3-27 18:49:25.367	WT901BLE68-01(48591DE3C19B)	-0.262	-1.358	0.088	15.137	-30.518	253.052	-71.70	45.82	-63.92	-65.562	-36.162	-8.428	0.46497	-0.48651	0.39761	-0.62363	30.7	13111	100
2025-3-27 18:49:25.457	WT901BLE68-01(48591DE3C19B)	-0.262	-1.472	0.105	13.184	-28.259	239.258	-70.60	47.93	-62.63	-65.562	-36.162	-8.428	0.46497	-0.48651	0.39761	-0.62363	30.7	13111	100
2025-3-27 18:49:25.457	WT901BLE68-01(48591DE3C19B)	-0.213	-1.472	0.105	13.184	-28.259	239.258	-69.43	49.95	-61.28	-65.562	-36.162	-8.428	0.46497	-0.48651	0.39761	-0.62363	30.7	13111	100
2025-3-27 18:49:25.458	WT901BLE68-01(48591DE3C19B)	-0.213	-1.603	0.073	10.925	-22.766	217.896	-68.24	51.84	-59.92	-65.562	-36.162	-8.428	0.46497	-0.48651	0.39761	-0.62363	30.7	13111	100
2025-3-27 18:49:25.458	WT901BLE68-01(48591DE3C19B)	-0.087	-1.603	0.073	10.925	-22.766	217.896	-67.02	53.60	-58.56	-65.562	-36.162	-8.428	0.46497	-0.48651	0.39761	-0.62363	30.7	13111	100
2025-3-27 18:49:25.487	WT901BLE68-01(48591DE3C19B)	-0.087	-1.706	-0.021	9.888	-3.052	188.171	-65.91	55.23	-57.35	-65.562	-36.162	-8.428	0.46497	-0.48651	0.39761	-0.62363	30.7	13111	100
2025-3-27 18:49:25.487	WT901BLE68-01(48591DE3C19B)	0.048	-1.706	-0.021	9.888	-3.052	188.171	-64.95	56.74	-56.32	-65.562	-36.162	-8.428	0.46497	-0.48651	0.39761	-0.62363	30.7	13111	100
2025-3-27 18:49:25.487	WT901BLE68-01(48591DE3C19B)	0.048	-1.745	-0.085	10.559	26.733	152.893	-64.56	58.04	-56.01	-65.562	-36.162	-8.428	0.46497	-0.48651	0.39761	-0.62363	30.7	13111	100
2025-3-27 18:49:25.487	WT901BLE68-01(48591DE3C19B)	0.123	-1.745	-0.085	10.559	26.733	152.893	-64.16	59.32	-55.67	-65.562	-36.162	-8.428	0.46497	-0.48651	0.39761	-0.62363	30.7	13111	100
2025-3-27 18:49:25.489	WT901BLE68-01(48591DE3C19B)	0.123	-1.792	-0.056	-1.404	34.790	109.070	-64.32	60.23	-55.84	-65.562	-36.162	-8.428	0.46497	-0.48651	0.39761	-0.62363	30.7	13111	100
2025-3-27 18:49:25.489	WT901BLE68-01(48591DE3C19B)	0.037	-1.792	-0.056	-1.404	34.790	109.070	-64.50	61.13	-56.03	-65.562	-36.162	-8.428	0.46497	-0.48651	0.39761	-0.62363	30.7	13111	100
2025-3-27 18:49:25.489	WT901BLE68-01(48591DE3C19B)	0.037	-1.790	0.034	-9.644	14.038	60.852	-64.81	61.49	-56.28	-65.562	-36.162	-8.428	0.76837	-0.20203	0.59894	-0.09970	30.7	13111	100
2025-3-27 18:49:25.489	WT901BLE68-01(48591DE3C19B)	-0.016	-1.790	0.034	-9.644	14.038	60.852	-65.12	61.84	-56.53	-65.562	-36.162	-8.428	0.76837	-0.20203	0.59894	-0.09970	30.7	13111	100
2025-3-27 18:49:25.547	WT901BLE68-01(48591DE3C19B)	-0.016	-1.584	0.203	-1.953	-5.737	13.611	-65.40	61.68	-56.83	-65.562	-36.162	-8.428	0.76837	-0.20203	0.59894	-0.09970	30.7	13111	100
2025-3-27 18:49:25.547	WT901BLE68-01(48591DE3C19B)	0.026	-1.584	0.203	-1.953	-5.737	13.611	-65.67	61.52	-57.12	-65.562	-36.162	-8.428	0.76837	-0.20203	0.59894	-0.09970	30.7	13111	100
2025-3-27 18:49:25.547	WT901BLE68-01(48591DE3C19B)	0.026	-1.344	0.233	0.244	-10.132	-32.043	-66.17	60.92	-57.71	-65.562	-36.162	-8.428	0.76837	-0.20203	0.59894	-0.09970	30.7	13111	100
2025-3-27 18:49:25.548	WT901BLE68-01(48591DE3C19B)	0.127	-1.344	0.233	0.244	-10.132	-32.043	-66.64	60.31	-58.28	-65.562	-36.162	-8.428	0.76837	-0.20203	0.59894	-0.09970	30.7	13111	100
2025-3-27 18:49:25.576	WT901BLE68-01(48591DE3C19B)	0.127	-1.120	0.192	1.404	-3.906	-71.899	-67.44	59.37	-59.24	-65.562	-36.162	-8.428	0.76837	-0.20203	0.59894	-0.09970	30.7	13111	100
2025-3-27 18:49:25.576	WT901BLE68-01(48591DE3C19B)	0.250	-1.120	0.192	1.404	-3.906	-71.899	-68.18	58.41	-60.14	-65.562	-36.162	-8.428	0.76837	-0.20203	0.59894	-0.09970	30.7	13111	100
2025-3-27 18:49:25.576	WT901BLE68-01(48591DE3C19B)	0.250	-0.967	0.141	-2.441	7.996	-107.727	-69.28	57.16	-61.44	-65.562	-36.162	-8.428	0.76837	-0.20203	0.59894	-0.09970	30.7	13111	100
2025-3-27 18:49:25.576	WT901BLE68-01(48591DE3C19B)	0.307	-0.967	0.141	-2.441	7.996	-107.727	-70.30	55.90	-62.64	-65.562	-36.162	-8.428	0.76837	-0.20203	0.59894	-0.09970	30.7	13111	100
2025-3-27 18:49:25.611	WT901BLE68-01(48591DE3C19B)	0.307	-0.954	0.111	-4.150	24.109	-138.184	-71.60	54.39	-64.19	-65.562	-36.162	-8.428	0.76837	-0.20203	0.59894	-0.09970	30.7	13111	100
2025-3-27 18:49:25.611	WT901BLE68-01(48591DE3C19B)	0.222	-0.954	0.111	-4.150	24.109	-138.184	-72.78	52.86	-65.63	-65.562	-36.162	-8.428	0.76837	-0.20203	0.59894	-0.09970	30.7	13111	100
2025-3-27 18:49:25.611	WT901BLE68-01(48591DE3C19B)	0.222	-0.993	0.083	-1.770	44.861	-166.077	-74.18	51.11	-67.41	-65.562	-36.162	-8.428	0.76837	-0.20203	0.59894	-0.09970	30.7	13111	100
2025-3-27 18:49:25.611	WT901BLE68-01(48591DE3C19B)	0.045	-0.993	0.083	-1.770	44.861	-166.077	-75.44	49.33	-69.04	-65.562	-36.162	-8.428	0.76837	-0.20203	0.59894	-0.09970	30.7	13111	100
2025-3-27 18:49:25.667	WT901BLE68-01(48591DE3C19B)	0.045	-1.049	0.072	3.296	57.129	-192.505	-76.73	47.32	-70.82	-65.562	-36.162	-8.428	0.76837	-0.20203	0.59894	-0.09970	30.7	13111	100
2025-3-27 18:49:25.667	WT901BLE68-01(48591DE3C19B)	-0.077	-1.049	0.072	3.296	57.129	-192.505	-77.88	45.30	-72.47	-65.562	-36.162	-8.428	0.76837	-0.20203	0.59894	-0.09970	30.7	13111	100
2025-3-27 18:49:25.667	WT901BLE68-01(48591DE3C19B)	-0.077	-1.082	0.086	10.681	55.298	-218.384	-78.85	43.02	-74.04	-65.562	-36.162	-8.428	0.76837	-0.20203	0.59894	-0.09970	30.7	13111	100
2025-3-27 18:49:25.667	WT901BLE68-01(48591DE3C19B)	-0.129	-1.082	0.086	10.681	55.298	-218.384	-79.71	40.73	-75.50	-65.562	-36.162	-8.428	0.76837	-0.20203	0.59894	-0.09970	30.7	13111	100
2025-3-27 18:49:25.699	WT901BLE68-01(48591DE3C19B)	-0.129	-1.067	0.117	12.634	44.678	-243.286	-80.39	38.18	-76.78	-75.558	-24.990	-7.644	0.76837	-0.20203	0.59894	-0.09970	30.7	13111	100
2025-3-27 18:49:25.699	WT901BLE68-01(48591DE3C19B)	-0.200	-1.067	0.117	12.634	44.678	-243.286	-80.96	35.64	-77.98	-75.558	-24.990	-7.644	0.76837	-0.20203	0.59894	-0.09970	30.7	13111	100
2025-3-27 18:49:25.699	WT901BLE68-01(48591DE3C19B)	-0.200	-1.099	0.144	9.033	32.593	-266.785	-81.44	32.86	-79.00	-75.558	-24.990	-7.644	0.76837	-0.20203	0.59894	-0.09970	30.7	13111	100
2025-3-27 18:49:25.699	WT901BLE68-01(48591DE3C19B)	-0.310	-1.099	0.144	9.033	32.593	-266.785	-81.83	30.10	-79.96	-75.558	-24.990	-7.644	0.76837	-0.20203	0.59894	-0.09970	30.7	13111	100
2025-3-27 18:49:25.757	WT901BLE68-01(48591DE3C19B)	-0.310	-1.157	0.199	5.371	24.841	-287.720	-82.17	27.13	-80.82	-75.558	-24.990	-7.644	0.76837	-0.20203	0.59894	-0.09970	30.7	13111	100
2025-3-27 18:49:25.758	WT901BLE68-01(48591DE3C19B)	-0.455	-1.157	0.199	5.371	24.841	-287.720	-82.45	24.19	-81.63	-75.558	-24.990	-7.644	0.76837	-0.20203	0.59894	-0.09970	30.7	13111	100
2025-3-27 18:49:25.758	WT901BLE68-01(48591DE3C19B)	-0.455	-1.221	0.250	1.526	19.775	-303.040	-82.71	21.11	-82.38	-75.558	-24.990	-7.644	0.76837	-0.20203	0.59894	-0.09970	30.7	13111	100
2025-3-27 18:49:25.758	WT901BLE68-01(48591DE3C19B)	-0.622	-1.221	0.250	1.526	19.775	-303.040	-82.91	18.06	-83.09	-75.558	-24.990	-7.644	0.76837	-0.20203	0.59894	-0.09970	30.7	13111	100
2025-3-27 18:49:25.786	WT901BLE68-01(48591DE3C19B)	-0.622	-1.251	0.329	-5.493	12.817	-311.157	-83.11	14.94	-83.72	-75.558	-24.990	-7.644	0.76837	-0.20203	0.59894	-0.09970	30.7	13111	100
2025-3-27 18:49:25.786	WT901BLE68-01(48591DE3C19B)	-0.704	-1.251	0.329	-5.493	12.817	-311.157	-83.28	11.85	-84.33	-75.558	-24.990	-7.644	0.76837	-0.20203	0.59894	-0.09970	30.7	13111	100
2025-3-27 18:49:25.786	WT901BLE68-01(48591DE3C19B)	-0.704	-1.262	0.379	-13.123	12.756	-310.364	-83.47	8.81	-84.92	-75.558	-24.990	-7.644	0.76837	-0.20203	0.59894	-0.09970	30.7	13111	100
2025-3-27 18:49:25.786	WT901BLE68-01(48591DE3C19B)	-0.726	-1.262	0.379	-13.123	12.756	-310.364	-83.64	5.78	-85.51	-75.558	-24.990	-7.644	0.76837	-0.20203	0.59894	-0.09970	30.7	13111	100
2025-3-27 18:49:25.817	WT901BLE68-01(48591DE3C19B)	-0.726	-1.312	0.343	-21.240	24.536	-296.753	-83.85	2.92	-86.18	-75.558	-24.990	-7.644	0.76837	-0.20203	0.59894	-0.09970	30.7	13111	100
2025-3-27 18:49:25.817	WT901BLE68-01(48591DE3C19B)	-0.836	-1.312	0.343	-21.240	24.536	-296.753	-84.03	0.09	-86.85	-75.558	-24.990	-7.644	0.76837	-0.20203	0.59894	-0.09970	30.7	13111	100
2025-3-27 18:49:25.817	WT901BLE68-01(48591DE3C19B)	-0.836	-1.400	0.247	-21.301	31.006	-273.804	-84.19	-2.48	-87.55	-75.558	-24.990	-7.644	0.76837	-0.20203	0.59894	-0.09970	30.7	13111	100
2025-3-27 18:49:25.817	WT901BLE68-01(48591DE3C19B)	-0.986	-1.400	0.247	-21.301	31.006	-273.804	-84.31	-5.03	-88.24	-75.558	-24.990	-7.644	0.76837	-0.20203	0.59894	-0.09970	30.7	13111	100
2025-3-27 18:49:25.849	WT901BLE68-01(48591DE3C19B)	-0.986	-1.469	0.184	-14.221	29.907	-244.263	-84.34	-7.27	-88.90	-75.558	-24.990	-7.644	0.76837	-0.20203	0.59894	-0.09970	30.7	13111	100
2025-3-27 18:49:25.849	WT901BLE68-01(48591DE3C19B)	-1.031	-1.469	0.184	-14.221	29.907	-244.263	-84.34	-9.48	-89.55	-75.558	-24.990	-7.644	0.76837	-0.20203	0.59894	-0.09970	30.7	13111	100
2025-3-27 18:49:25.849	WT901BLE68-01(48591DE3C19B)	-1.031	-1.474	0.199	-9.338	31.433	-209.106	-84.28	-11.33	-90.19	-75.558	-24.990	-7.644	0.76837	-0.20203	0.59894	-0.09970	30.7	13111	100
2025-3-27 18:49:25.849	WT901BLE68-01(48591DE3C19B)	-1.021	-1.474	0.199	-9.338	31.433	-209.106	-84.20	-13.16	-90.83	-75.558	-24.990	-7.644	0.76837	-0.20203	0.59894	-0.09970	30.7	13111	100
2025-3-27 18:49:25.909	WT901BLE68-01(48591DE3C19B)	-1.021	-1.446	0.286	-6.409	57.434	-176.575	-84.02	-14.62	-91.72	-75.558	-24.990	-7.644	0.76837	-0.20203	0.59894	-0.09970	30.7	13111	100
2025-3-27 18:49:25.910	WT901BLE68-01(48591DE3C19B)	-1.056	-1.446	0.286	-6.409	57.434	-176.575	-83.81	-16.07	-92.62	-75.558	-24.990	-7.644	0.44147	-0.53201	0.40637	-0.59732	30.7	13111	100
2025-3-27 18:49:25.910	WT901BLE68-01(48591DE3C19B)	-1.167	-1.469	0.418	-4.761	124.817	-143.799	-83.38	-17.09	-94.20	-75.558	-24.990	-7.644	0.44147	-0.53201	0.40637	-0.59732	30.7	13111	100
2025-3-27 18:49:25.910	WT901BLE68-01(48591DE3C19B)	-1.167	-1.425	0.455	-1.038	196.716	-110.535	-82.78	-17.90	-96.15	-75.558	-24.990	-7.644	0.44147	-0.53201	0.40637	-0.59732	30.7	13111	100
2025-3-27 18:49:25.936	WT901BLE68-01(48591DE3C19B)	-1.352	-1.425	0.455	-1.038	196.716	-110.535	-82.03	-18.46	-98.46	-75.558	-24.990	-7.644	0.44147	-0.53201	0.40637	-0.59732	30.7	13111	100
2025-3-27 18:49:25.937	WT901BLE68-01(48591DE3C19B)	-1.352	-1.206	0.266	-1.770	217.407	-72.388	-81.24	-18.78	-100.88	-75.558	-24.990	-7.644	0.44147	-0.53201	0.40637	-0.59732	30.7	13111	100
2025-3-27 18:49:25.937	WT901BLE68-01(48591DE3C19B)	-1.417	-1.206	0.266	-1.770	217.407	-72.388	-80.43	-18.85	-103.37	-75.558	-24.990	-7.644	0.44147	-0.53201	0.40637	-0.59732	30.7	13111	100
2025-3-27 18:49:25.937	WT901BLE68-01(48591DE3C19B)	-1.417	-0.956	0.028	-4.883	190.247	-32.898	-79.68	-18.70	-105.69	-75.558	-24.990	-7.644	0.44147	-0.53201	0.40637	-0.59732	30.7	13111	100
2025-3-27 18:49:25.967	WT901BLE68-01(48591DE3C19B)	-1.379	-0.956	0.028	-4.883	190.247	-32.898	-79.03	-18.36	-107.83	-75.558	-24.990	-7.644	0.44147	-0.53201	0.40637	-0.59732	30.7	13111	100
2025-3-27 18:49:25.967	WT901BLE68-01(48591DE3C19B)	-1.379	-0.766	-0.107	-20.386	135.071	8.179	-78.57	-17.84	-109.64	-75.558	-24.990	-7.644	0.44147	-0.53201	0.40637	-0.59732	30.7	13111	100
2025-3-27 18:49:25.967	WT901BLE68-01(48591DE3C19B)	-1.381	-0.766	-0.107	-20.386	135.071	8.179	-78.32	-17.16	-111.13	-75.558	-24.990	-7.644	0.44147	-0.53201	0.40637	-0.59732	30.7	13111	100
2025-3-27 18:49:25.967	WT901BLE68-01(48591DE3C19B)	-1.381	-0.625	-0.140	-36.072	59.692	49.500	-78.28	-16.34	-112.19	-75.558	-24.990	-7.644	0.44147	-0.53201	0.40637	-0.59732	30.7	13111	100
2025-3-27 18:49:26.59	WT901BLE68-01(48591DE3C19B)	-1.320	-0.625	-0.140	-36.072	59.692	49.500	-78.44	-15.39	-112.84	-75.558	-24.990	-7.644	0.44147	-0.53201	0.40637	-0.59732	30.7	13111	100
2025-3-27 18:49:26.59	WT901BLE68-01(48591DE3C19B)	-1.320	-0.531	-0.097	-52.246	-26.184	90.088	-78.80	-14.32	-113.04	-75.558	-24.990	-7.644	0.44147	-0.53201	0.40637	-0.59732	30.7	13111	100
2025-3-27 18:49:26.59	WT901BLE68-01(48591DE3C19B)	-1.121	-0.531	-0.097	-52.246	-26.184	90.088	-79.34	-13.13	-112.81	-75.558	-24.990	-7.644	0.44147	-0.53201	0.40637	-0.59732	30.7	13111	100
2025-3-27 18:49:26.59	WT901BLE68-01(48591DE3C19B)	-1.121	-0.606	-0.050	-64.575	-94.055	126.038	-79.98	-11.84	-112.25	-75.558	-24.990	-7.644	0.44147	-0.53201	0.40637	-0.59732	30.7	13111	100
2025-3-27 18:49:26.60	WT901BLE68-01(48591DE3C19B)	-0.976	-0.606	-0.050	-64.575	-94.055	126.038	-80.73	-10.42	-111.35	-75.558	-24.990	-7.644	0.44147	-0.53201	0.40637	-0.59732	30.7	13111	100
2025-3-27 18:49:26.60	WT901BLE68-01(48591DE3C19B)	-0.976	-0.793	-0.003	-67.322	-139.832	157.715	-81.49	-8.87	-110.24	-75.558	-24.990	-7.644	0.44147	-0.53201	0.40637	-0.59732	30.7	13111	100
2025-3-27 18:49:26.60	WT901BLE68-01(48591DE3C19B)	-0.946	-0.793	-0.003	-67.322	-139.832	157.715	-82.27	-7.19	-108.88	-75.558	-24.990	-7.644	0.44147	-0.53201	0.40637	-0.59732	30.7	13111	100
2025-3-27 18:49:26.60	WT901BLE68-01(48591DE3C19B)	-0.946	-1.006	0.056	-59.265	-174.500	184.631	-82.98	-5.37	-107.35	-75.558	-24.990	-7.644	0.44147	-0.53201	0.40637	-0.59732	30.7	13111	100
2025-3-27 18:49:26.89	WT901BLE68-01(48591DE3C19B)	-0.903	-1.006	0.056	-59.265	-174.500	184.631	-83.62	-3.44	-105.62	-75.558	-24.990	-7.644	0.44147	-0.53201	0.40637	-0.59732	30.7	13111	100
2025-3-27 18:49:26.89	WT901BLE68-01(48591DE3C19B)	-0.903	-1.226	0.098	-42.847	-190.735	208.374	-84.13	-1.39	-103.80	-75.558	-24.990	-7.644	0.44147	-0.53201	0.40637	-0.59732	30.7	13111	100
2025-3-27 18:49:26.89	WT901BLE68-01(48591DE3C19B)	-0.831	-1.226	0.098	-42.847	-190.735	208.374	-84.51	0.76	-101.87	-56.350	-35.280	-9.212	0.44147	-0.53201	0.40637	-0.59732	30.7	13111	100
2025-3-27 18:49:26.89	WT901BLE68-01(48591DE3C19B)	-0.831	-1.404	0.095	-17.761	-188.904	226.135	-84.69	3.01	-99.93	-56.350	-35.280	-9.212	0.44147	-0.53201	0.40637	-0.59732	30.7	13111	100
2025-3-27 18:49:26.147	WT901BLE68-01(48591DE3C19B)	-0.700	-1.404	0.095	-17.761	-188.904	226.135	-84.68	5.32	-97.97	-56.350	-35.280	-9.212	0.44147	-0.53201	0.40637	-0.59732	30.7	13111	100
2025-3-27 18:49:26.147	WT901BLE68-01(48591DE3C19B)	-0.700	-1.516	0.104	8.606	-176.208	242.676	-84.46	7.70	-96.03	-56.350	-35.280	-9.212	0.44147	-0.53201	0.40637	-0.59732	30.7	13111	100
2025-3-27 18:49:26.147	WT901BLE68-01(48591DE3C19B)	-0.573	-1.516	0.104	8.606	-176.208	242.676	-84.04	10.12	-94.12	-56.350	-35.280	-9.212	0.44147	-0.53201	0.40637	-0.59732	30.7	13111	100
2025-3-27 18:49:26.148	WT901BLE68-01(48591DE3C19B)	-0.573	-1.611	0.102	30.579	-155.212	255.859	-83.45	12.59	-92.26	-56.350	-35.280	-9.212	0.44147	-0.53201	0.40637	-0.59732	30.7	13111	100
2025-3-27 18:49:26.176	WT901BLE68-01(48591DE3C19B)	-0.455	-1.611	0.102	30.579	-155.212	255.859	-82.69	15.08	-90.46	-56.350	-35.280	-9.212	0.44147	-0.53201	0.40637	-0.59732	30.7	13111	100
2025-3-27 18:49:26.176	WT901BLE68-01(48591DE3C19B)	-0.455	-1.653	0.122	48.340	-128.418	267.700	-81.79	17.59	-88.72	-56.350	-35.280	-9.212	0.44147	-0.53201	0.40637	-0.59732	30.7	13111	100
2025-3-27 18:49:26.176	WT901BLE68-01(48591DE3C19B)	-0.338	-1.653	0.122	48.340	-128.418	267.700	-80.75	20.13	-87.04	-56.350	-35.280	-9.212	0.44147	-0.53201	0.40637	-0.59732	30.7	13111	100
2025-3-27 18:49:26.176	WT901BLE68-01(48591DE3C19B)	-0.338	-1.626	0.130	61.401	-94.421	276.367	-79.62	22.68	-85.46	-56.350	-35.280	-9.212	0.44147	-0.53201	0.40637	-0.59732	30.7	13111	100
2025-3-27 18:49:26.237	WT901BLE68-01(48591DE3C19B)	-0.313	-1.626	0.130	61.401	-94.421	276.367	-78.40	25.25	-83.97	-56.350	-35.280	-9.212	0.44147	-0.53201	0.40637	-0.59732	30.7	13111	100
2025-3-27 18:49:26.237	WT901BLE68-01(48591DE3C19B)	-0.313	-1.561	0.169	63.416	-64.148	280.884	-77.14	27.81	-82.55	-56.350	-35.280	-9.212	0.44147	-0.53201	0.40637	-0.59732	30.7	13111	100
2025-3-27 18:49:26.237	WT901BLE68-01(48591DE3C19B)	-0.361	-1.561	0.169	63.416	-64.148	280.884	-75.86	30.38	-81.20	-56.350	-35.280	-9.212	0.44147	-0.53201	0.40637	-0.59732	30.7	13111	100
2025-3-27 18:49:26.237	WT901BLE68-01(48591DE3C19B)	-0.361	-1.609	0.226	56.946	-45.898	276.367	-74.56	32.89	-79.87	-56.350	-35.280	-9.212	0.44147	-0.53201	0.40637	-0.59732	30.7	13111	100
2025-3-27 18:49:26.269	WT901BLE68-01(48591DE3C19B)	-0.367	-1.609	0.226	56.946	-45.898	276.367	-73.26	35.36	-78.54	-56.350	-35.280	-9.212	0.44147	-0.53201	0.40637	-0.59732	30.7	13111	100
2025-3-27 18:49:26.269	WT901BLE68-01(48591DE3C19B)	-0.367	-1.734	0.272	50.659	-38.208	264.282	-71.93	37.74	-77.17	-56.350	-35.280	-9.212	0.44147	-0.53201	0.40637	-0.59732	30.7	13111	100
2025-3-27 18:49:26.269	WT901BLE68-01(48591DE3C19B)	-0.364	-1.734	0.272	50.659	-38.208	264.282	-70.56	40.02	-75.78	-56.350	-35.280	-9.212	0.44147	-0.53201	0.40637	-0.59732	30.7	13111	100
2025-3-27 18:49:26.269	WT901BLE68-01(48591DE3C19B)	-0.364	-1.819	0.270	45.471	-32.227	246.277	-69.15	42.19	-74.34	-56.350	-35.280	-9.212	0.44147	-0.53201	0.40637	-0.59732	30.7	13111	100
2025-3-27 18:49:26.328	WT901BLE68-01(48591DE3C19B)	-0.347	-1.819	0.270	45.471	-32.227	246.277	-67.71	44.23	-72.88	-56.350	-35.280	-9.212	0.44147	-0.53201	0.40637	-0.59732	30.7	13111	100
2025-3-27 18:49:26.328	WT901BLE68-01(48591DE3C19B)	-0.347	-1.771	0.206	37.720	-17.334	220.459	-66.32	46.14	-71.47	-56.350	-35.280	-9.212	0.44147	-0.53201	0.40637	-0.59732	30.7	13111	100
2025-3-27 18:49:26.328	WT901BLE68-01(48591DE3C19B)	-0.412	-1.771	0.206	37.720	-17.334	220.459	-64.98	47.92	-70.14	-56.350	-35.280	-9.212	0.75897	-0.19897	0.56342	-0.25845	30.7	13111	100
2025-3-27 18:49:26.328	WT901BLE68-01(48591DE3C19B)	-0.412	-1.714	0.151	22.522	2.380	192.993	-63.79	49.59	-68.92	-56.350	-35.280	-9.212	0.75897	-0.19897	0.56342	-0.25845	30.7	13111	100
2025-3-27 18:49:26.356	WT901BLE68-01(48591DE3C19B)	-0.446	-1.714	0.151	22.522	2.380	192.993	-62.78	51.16	-67.86	-56.350	-35.280	-9.212	0.75897	-0.19897	0.56342	-0.25845	30.7	13111	100
2025-3-27 18:49:26.357	WT901BLE68-01(48591DE3C19B)	-0.446	-1.691	0.132	7.874	17.090	163.574	-61.93	52.60	-66.93	-56.350	-35.280	-9.212	0.75897	-0.19897	0.56342	-0.25845	30.7	13111	100
2025-3-27 18:49:26.357	WT901BLE68-01(48591DE3C19B)	-0.362	-1.691	0.132	7.874	17.090	163.574	-61.28	53.94	-66.19	-56.350	-35.280	-9.212	0.75897	-0.19897	0.56342	-0.25845	30.7	13111	100
2025-3-27 18:49:26.357	WT901BLE68-01(48591DE3C19B)	-0.362	-1.638	0.186	-1.953	19.836	136.963	-60.74	55.15	-65.52	-56.350	-35.280	-9.212	0.75897	-0.19897	0.56342	-0.25845	30.7	13111	100
2025-3-27 18:49:26.387	WT901BLE68-01(48591DE3C19B)	-0.140	-1.638	0.186	-1.953	19.836	136.963	-60.32	56.24	-64.96	-56.350	-35.280	-9.212	0.75897	-0.19897	0.56342	-0.25845	30.7	13111	100
2025-3-27 18:49:26.387	WT901BLE68-01(48591DE3C19B)	-0.140	-1.517	0.223	-5.249	9.766	110.596	-59.98	57.05	-64.46	-56.350	-35.280	-9.212	0.75897	-0.19897	0.56342	-0.25845	30.7	13111	100
2025-3-27 18:49:26.387	WT901BLE68-01(48591DE3C19B)	0.114	-1.517	0.223	-5.249	9.766	110.596	-59.62	57.84	-63.93	-56.350	-35.280	-9.212	0.75897	-0.19897	0.56342	-0.25845	30.7	13111	100
2025-3-27 18:49:26.387	WT901BLE68-01(48591DE3C19B)	0.114	-1.280	0.173	1.465	-8.545	87.708	-59.12	58.33	-63.33	-56.350	-35.280	-9.212	0.75897	-0.19897	0.56342	-0.25845	30.7	13111	100
2025-3-27 18:49:26.416	WT901BLE68-01(48591DE3C19B)	0.394	-1.280	0.173	1.465	-8.545	87.708	-58.60	58.80	-62.70	-56.350	-35.280	-9.212	0.75897	-0.19897	0.56342	-0.25845	30.7	13111	100
2025-3-27 18:49:26.416	WT901BLE68-01(48591DE3C19B)	0.394	-1.048	0.069	6.897	-25.635	67.383	-57.96	59.00	-62.00	-56.350	-35.280	-9.212	0.75897	-0.19897	0.56342	-0.25845	30.7	13111	100
2025-3-27 18:49:26.416	WT901BLE68-01(48591DE3C19B)	0.612	-1.048	0.069	6.897	-25.635	67.383	-57.33	59.18	-61.30	-56.350	-35.280	-9.212	0.75897	-0.19897	0.56342	-0.25845	30.7	13111	100
2025-3-27 18:49:26.416	WT901BLE68-01(48591DE3C19B)	0.612	-0.877	-0.065	13.977	-10.193	33.630	-57.16	59.16	-61.22	-56.350	-35.280	-9.212	0.75897	-0.19897	0.56342	-0.25845	30.7	13111	100
2025-3-27 18:49:26.477	WT901BLE68-01(48591DE3C19B)	0.660	-0.877	-0.065	13.977	-10.193	33.630	-57.01	59.11	-61.15	-56.350	-35.280	-9.212	0.75897	-0.19897	0.56342	-0.25845	30.7	13111	100
2025-3-27 18:49:26.477	WT901BLE68-01(48591DE3C19B)	0.660	-0.695	-0.070	16.602	30.396	-12.451	-57.83	58.89	-62.23	-56.350	-35.280	-9.212	0.75897	-0.19897	0.56342	-0.25845	30.7	13111	100
2025-3-27 18:49:26.477	WT901BLE68-01(48591DE3C19B)	0.537	-0.695	-0.070	16.602	30.396	-12.451	-58.63	58.64	-63.31	-56.350	-35.280	-9.212	0.75897	-0.19897	0.56342	-0.25845	30.7	13111	100
2025-3-27 18:49:26.477	WT901BLE68-01(48591DE3C19B)	0.537	-0.680	-0.031	11.536	58.716	-60.791	-60.28	58.10	-65.29	-56.350	-35.280	-9.212	0.75897	-0.19897	0.56342	-0.25845	30.7	13111	100
2025-3-27 18:49:26.510	WT901BLE68-01(48591DE3C19B)	0.325	-0.680	-0.031	11.536	58.716	-60.791	-61.85	57.52	-67.22	-79.086	-18.816	-1.960	0.75897	-0.19897	0.56342	-0.25845	30.7	13111	100
2025-3-27 18:49:26.510	WT901BLE68-01(48591DE3C19B)	0.325	-0.842	0.029	9.949	69.336	-108.826	-63.85	56.54	-69.64	-79.086	-18.816	-1.960	0.75897	-0.19897	0.56342	-0.25845	30.7	13111	100
2025-3-27 18:49:26.510	WT901BLE68-01(48591DE3C19B)	0.138	-0.842	0.029	9.949	69.336	-108.826	-65.70	55.51	-71.93	-79.086	-18.816	-1.960	0.75897	-0.19897	0.56342	-0.25845	30.7	13111	100
2025-3-27 18:49:26.510	WT901BLE68-01(48591DE3C19B)	0.138	-0.944	0.095	16.174	70.557	-154.358	-67.62	54.03	-74.40	-79.086	-18.816	-1.960	0.75897	-0.19897	0.56342	-0.25845	30.7	13111	100
2025-3-27 18:49:26.537	WT901BLE68-01(48591DE3C19B)	-0.006	-0.944	0.095	16.174	70.557	-154.358	-69.35	52.51	-76.70	-79.086	-18.816	-1.960	0.75897	-0.19897	0.56342	-0.25845	30.7	13111	100
2025-3-27 18:49:26.537	WT901BLE68-01(48591DE3C19B)	-0.006	-0.931	0.121	18.066	63.660	-194.641	-70.98	50.56	-78.93	-79.086	-18.816	-1.960	0.75897	-0.19897	0.56342	-0.25845	30.7	13111	100
2025-3-27 18:49:26.537	WT901BLE68-01(48591DE3C19B)	-0.119	-0.931	0.121	18.066	63.660	-194.641	-72.41	48.60	-80.98	-79.086	-18.816	-1.960	0.75897	-0.19897	0.56342	-0.25845	30.7	13111	100
2025-3-27 18:49:26.538	WT901BLE68-01(48591DE3C19B)	-0.119	-0.927	0.129	14.465	52.246	-225.769	-73.67	46.29	-82.84	-79.086	-18.816	-1.960	0.75897	-0.19897	0.56342	-0.25845	30.7	13111	100
2025-3-27 18:49:26.597	WT901BLE68-01(48591DE3C19B)	-0.262	-0.927	0.129	14.465	52.246	-225.769	-74.77	43.97	-84.54	-79.086	-18.816	-1.960	0.75897	-0.19897	0.56342	-0.25845	30.7	13111	100
2025-3-27 18:49:26.597	WT901BLE68-01(48591DE3C19B)	-0.262	-0.958	0.169	11.536	43.030	-247.375	-75.72	41.42	-86.06	-79.086	-18.816	-1.960	0.75897	-0.19897	0.56342	-0.25845	30.7	13111	100
2025-3-27 18:49:26.597	WT901BLE68-01(48591DE3C19B)	-0.378	-0.958	0.169	11.536	43.030	-247.375	-76.55	38.88	-87.46	-79.086	-18.816	-1.960	0.75897	-0.19897	0.56342	-0.25845	30.7	13111	100
2025-3-27 18:49:26.597	WT901BLE68-01(48591DE3C19B)	-0.378	-0.979	0.208	8.362	36.987	-260.498	-77.26	36.21	-88.73	-79.086	-18.816	-1.960	0.75897	-0.19897	0.56342	-0.25845	30.7	13111	100
2025-3-27 18:49:26.628	WT901BLE68-01(48591DE3C19B)	-0.433	-0.979	0.208	8.362	36.987	-260.498	-77.87	33.55	-89.91	-79.086	-18.816	-1.960	0.75897	-0.19897	0.56342	-0.25845	30.7	13111	100
2025-3-27 18:49:26.628	WT901BLE68-01(48591DE3C19B)	-0.433	-0.973	0.222	7.568	33.569	-269.531	-78.39	30.82	-90.99	-79.086	-18.816	-1.960	0.75897	-0.19897	0.56342	-0.25845	30.7	13111	100
2025-3-27 18:49:26.628	WT901BLE68-01(48591DE3C19B)	-0.422	-0.973	0.222	7.568	33.569	-269.531	-78.83	28.10	-92.02	-79.086	-18.816	-1.960	0.75897	-0.19897	0.56342	-0.25845	30.7	13111	100
2025-3-27 18:49:26.628	WT901BLE68-01(48591DE3C19B)	-0.422	-0.982	0.221	1.831	27.588	-272.888	-79.23	25.37	-92.94	-79.086	-18.816	-1.960	0.75897	-0.19897	0.56342	-0.25845	30.7	13111	100
2025-3-27 18:49:26.659	WT901BLE68-01(48591DE3C19B)	-0.440	-0.982	0.221	1.831	27.588	-272.888	-79.57	22.65	-93.81	-79.086	-18.816	-1.960	0.75897	-0.19897	0.56342	-0.25845	30.7	13111	100
2025-3-27 18:49:26.659	WT901BLE68-01(48591DE3C19B)	-0.440	-1.068	0.188	-4.211	23.010	-274.597	-79.90	19.93	-94.61	-79.086	-18.816	-1.960	0.75897	-0.19897	0.56342	-0.25845	30.7	13111	100
2025-3-27 18:49:26.659	WT901BLE68-01(48591DE3C19B)	-0.574	-1.068	0.188	-4.211	23.010	-274.597	-80.19	17.23	-95.37	-79.086	-18.816	-1.960	0.75897	-0.19897	0.56342	-0.25845	30.7	13111	100
2025-3-27 18:49:26.659	WT901BLE68-01(48591DE3C19B)	-0.574	-1.177	0.168	-8.728	10.254	-267.883	-80.44	14.60	-95.97	-79.086	-18.816	-1.960	0.75897	-0.19897	0.56342	-0.25845	30.7	13111	100
2025-3-27 18:49:26.717	WT901BLE68-01(48591DE3C19B)	-0.717	-1.177	0.168	-8.728	10.254	-267.883	-80.66	11.99	-96.54	-79.086	-18.816	-1.960	0.75897	-0.19897	0.56342	-0.25845	30.7	13111	100
2025-3-27 18:49:26.717	WT901BLE68-01(48591DE3C19B)	-0.717	-1.285	0.172	-12.024	-6.042	-258.423	-80.84	9.46	-96.92	-79.086	-18.816	-1.960	0.53708	-0.38757	0.52130	-0.53802	30.7	13111	100
2025-3-27 18:49:26.717	WT901BLE68-01(48591DE3C19B)	-0.822	-1.285	0.172	-12.024	-6.042	-258.423	-81.01	6.97	-97.29	-79.086	-18.816	-1.960	0.53708	-0.38757	0.52130	-0.53802	30.7	13111	100
2025-3-27 18:49:26.717	WT901BLE68-01(48591DE3C19B)	-0.822	-1.392	0.181	-14.893	-12.756	-245.239	-81.19	4.61	-97.58	-79.086	-18.816	-1.960	0.53708	-0.38757	0.52130	-0.53802	30.7	13111	100
2025-3-27 18:49:26.746	WT901BLE68-01(48591DE3C19B)	-0.941	-1.392	0.181	-14.893	-12.756	-245.239	-81.35	2.28	-97.84	-79.086	-18.816	-1.960	0.53708	-0.38757	0.52130	-0.53802	30.7	13111	100
2025-3-27 18:49:26.746	WT901BLE68-01(48591DE3C19B)	-0.941	-1.501	0.166	-14.404	-5.554	-232.788	-81.50	0.10	-98.16	-79.086	-18.816	-1.960	0.53708	-0.38757	0.52130	-0.53802	30.7	13111	100
2025-3-27 18:49:26.746	WT901BLE68-01(48591DE3C19B)	-1.061	-1.501	0.166	-14.404	-5.554	-232.788	-81.63	-2.06	-98.47	-79.086	-18.816	-1.960	0.53708	-0.38757	0.52130	-0.53802	30.7	13111	100
2025-3-27 18:49:26.747	WT901BLE68-01(48591DE3C19B)	-1.061	-1.566	0.165	-10.864	-6.775	-219.727	-81.73	-4.07	-98.75	-79.086	-18.816	-1.960	0.53708	-0.38757	0.52130	-0.53802	30.7	13111	100
2025-3-27 18:49:26.777	WT901BLE68-01(48591DE3C19B)	-1.083	-1.566	0.165	-10.864	-6.775	-219.727	-81.81	-6.07	-99.03	-79.086	-18.816	-1.960	0.53708	-0.38757	0.52130	-0.53802	30.7	13111	100
2025-3-27 18:49:26.777	WT901BLE68-01(48591DE3C19B)	-1.083	-1.566	0.197	-12.329	-9.644	-207.825	-81.90	-7.93	-99.25	-79.086	-18.816	-1.960	0.53708	-0.38757	0.52130	-0.53802	30.7	13111	100
2025-3-27 18:49:26.777	WT901BLE68-01(48591DE3C19B)	-1.033	-1.566	0.197	-12.329	-9.644	-207.825	-81.99	-9.78	-99.48	-79.086	-18.816	-1.960	0.53708	-0.38757	0.52130	-0.53802	30.7	13111	100
2025-3-27 18:49:26.777	WT901BLE68-01(48591DE3C19B)	-1.033	-1.577	0.289	-17.090	10.742	-192.322	-82.08	-11.44	-99.90	-79.086	-18.816	-1.960	0.53708	-0.38757	0.52130	-0.53802	30.7	13111	100
2025-3-27 18:49:26.837	WT901BLE68-01(48591DE3C19B)	-1.044	-1.577	0.289	-17.090	10.742	-192.322	-82.16	-13.08	-100.31	-79.086	-18.816	-1.960	0.53708	-0.38757	0.52130	-0.53802	30.7	13111	100
2025-3-27 18:49:26.837	WT901BLE68-01(48591DE3C19B)	-1.044	-1.495	0.366	-19.226	48.706	-169.495	-82.15	-14.44	-101.09	-79.086	-18.816	-1.960	0.53708	-0.38757	0.52130	-0.53802	30.7	13111	100
2025-3-27 18:49:26.837	WT901BLE68-01(48591DE3C19B)	-1.056	-1.495	0.366	-19.226	48.706	-169.495	-82.12	-15.79	-101.88	-79.086	-18.816	-1.960	0.53708	-0.38757	0.52130	-0.53802	30.7	13111	100
2025-3-27 18:49:26.838	WT901BLE68-01(48591DE3C19B)	-0.990	-1.288	0.368	-19.775	77.332	-138.916	-82.01	-16.78	-102.93	-79.086	-18.816	-1.960	0.53708	-0.38757	0.52130	-0.53802	30.7	13111	100
2025-3-27 18:49:26.869	WT901BLE68-01(48591DE3C19B)	-0.990	-1.063	0.276	-23.010	91.309	-105.286	-81.88	-17.58	-104.03	-79.086	-18.816	-1.960	0.53708	-0.38757	0.52130	-0.53802	30.7	13111	100
2025-3-27 18:49:26.869	WT901BLE68-01(48591DE3C19B)	-0.938	-1.063	0.276	-23.010	91.309	-105.286	-81.73	-18.20	-105.19	-79.086	-18.816	-1.960	0.53708	-0.38757	0.52130	-0.53802	30.7	13111	100
2025-3-27 18:49:26.869	WT901BLE68-01(48591DE3C19B)	-0.938	-0.875	0.197	-27.344	88.501	-65.979	-81.61	-18.62	-106.32	-79.086	-18.816	-1.960	0.53708	-0.38757	0.52130	-0.53802	30.7	13111	100
2025-3-27 18:49:26.869	WT901BLE68-01(48591DE3C19B)	-0.980	-0.875	0.197	-27.344	88.501	-65.979	-81.51	-18.84	-107.41	-79.086	-18.816	-1.960	0.53708	-0.38757	0.52130	-0.53802	30.7	13111	100
2025-3-27 18:49:26.899	WT901BLE68-01(48591DE3C19B)	-0.980	-0.726	0.167	-32.654	61.401	-27.893	-81.49	-18.87	-108.33	-79.086	-18.816	-1.960	0.53708	-0.38757	0.52130	-0.53802	30.7	13111	100
2025-3-27 18:49:26.899	WT901BLE68-01(48591DE3C19B)	-1.021	-0.726	0.167	-32.654	61.401	-27.893	-81.54	-18.74	-109.09	-79.086	-18.816	-1.960	0.53708	-0.38757	0.52130	-0.53802	30.7	13111	100
2025-3-27 18:49:26.899	WT901BLE68-01(48591DE3C19B)	-1.021	-0.627	0.201	-40.222	10.193	13.611	-81.73	-18.43	-109.56	-60.760	-39.004	-7.644	0.53708	-0.38757	0.52130	-0.53802	30.7	13111	100
2025-3-27 18:49:26.899	WT901BLE68-01(48591DE3C19B)	-0.990	-0.627	0.201	-40.222	10.193	13.611	-82.04	-17.96	-109.74	-60.760	-39.004	-7.644	0.53708	-0.38757	0.52130	-0.53802	30.7	13111	100
2025-3-27 18:49:26.958	WT901BLE68-01(48591DE3C19B)	-0.990	-0.665	0.219	-49.622	-46.570	53.284	-82.48	-17.31	-109.62	-60.760	-39.004	-7.644	0.53708	-0.38757	0.52130	-0.53802	30.7	13111	100
2025-3-27 18:49:26.958	WT901BLE68-01(48591DE3C19B)	-0.903	-0.665	0.219	-49.622	-46.570	53.284	-83.05	-16.52	-109.20	-60.760	-39.004	-7.644	0.53708	-0.38757	0.52130	-0.53802	30.7	13111	100
2025-3-27 18:49:26.958	WT901BLE68-01(48591DE3C19B)	-0.903	-0.824	0.203	-46.753	-79.712	91.553	-83.63	-15.54	-108.61	-60.760	-39.004	-7.644	0.53708	-0.38757	0.52130	-0.53802	30.7	13111	100
2025-3-27 18:49:26.958	WT901BLE68-01(48591DE3C19B)	-0.885	-0.824	0.203	-46.753	-79.712	91.553	-84.23	-14.39	-107.83	-60.760	-39.004	-7.644	0.53708	-0.38757	0.52130	-0.53802	30.7	13111	100
2025-3-27 18:49:26.986	WT901BLE68-01(48591DE3C19B)	-0.885	-0.938	0.158	-29.541	-97.046	127.563	-84.75	-13.07	-106.97	-60.760	-39.004	-7.644	0.53708	-0.38757	0.52130	-0.53802	30.7	13111	100
2025-3-27 18:49:26.986	WT901BLE68-01(48591DE3C19B)	-0.752	-0.938	0.158	-29.541	-97.046	127.563	-85.18	-11.57	-106.01	-60.760	-39.004	-7.644	0.53708	-0.38757	0.52130	-0.53802	30.7	13111	100
2025-3-27 18:49:26.986	WT901BLE68-01(48591DE3C19B)	-0.752	-0.992	0.148	-8.240	-117.432	152.771	-85.49	-9.96	-104.95	-60.760	-39.004	-7.644	0.53708	-0.38757	0.52130	-0.53802	30.7	13111	100
2025-3-27 18:49:26.986	WT901BLE68-01(48591DE3C19B)	-0.620	-0.992	0.148	-8.240	-117.432	152.771	-85.69	-8.25	-103.77	-60.760	-39.004	-7.644	0.53708	-0.38757	0.52130	-0.53802	30.7	13111	100
2025-3-27 18:49:27.17	WT901BLE68-01(48591DE3C19B)	-0.620	-1.059	0.174	11.780	-125.793	172.668	-85.76	-6.43	-102.55	-60.760	-39.004	-7.644	0.53708	-0.38757	0.52130	-0.53802	30.7	13111	100
2025-3-27 18:49:27.17	WT901BLE68-01(48591DE3C19B)	-0.589	-1.059	0.174	11.780	-125.793	172.668	-85.70	-4.54	-101.27	-60.760	-39.004	-7.644	0.53708	-0.38757	0.52130	-0.53802	30.7	13111	100
2025-3-27 18:49:27.17	WT901BLE68-01(48591DE3C19B)	-0.589	-1.140	0.191	29.358	-126.465	188.599	-85.51	-2.59	-99.97	-60.760	-39.004	-7.644	0.53708	-0.38757	0.52130	-0.53802	30.7	13111	100
2025-3-27 18:49:27.17	WT901BLE68-01(48591DE3C19B)	-0.520	-1.140	0.191	29.358	-126.465	188.599	-85.19	-0.59	-98.65	-60.760	-39.004	-7.644	0.53708	-0.38757	0.52130	-0.53802	30.7	13111	100
2025-3-27 18:49:27.79	WT901BLE68-01(48591DE3C19B)	-0.520	-1.241	0.190	45.166	-118.225	202.454	-84.75	1.46	-97.34	-60.760	-39.004	-7.644	0.53708	-0.38757	0.52130	-0.53802	30.7	13111	100
2025-3-27 18:49:27.79	WT901BLE68-01(48591DE3C19B)	-0.442	-1.241	0.190	45.166	-118.225	202.454	-84.20	3.55	-96.05	-60.760	-39.004	-7.644	0.53708	-0.38757	0.52130	-0.53802	30.7	13111	100
2025-3-27 18:49:27.79	WT901BLE68-01(48591DE3C19B)	-0.442	-1.303	0.186	58.777	-94.299	214.844	-83.53	5.69	-94.84	-60.760	-39.004	-7.644	0.53708	-0.38757	0.52130	-0.53802	30.7	13111	100
2025-3-27 18:49:27.79	WT901BLE68-01(48591DE3C19B)	-0.389	-1.303	0.186	58.777	-94.299	214.844	-82.78	7.86	-93.70	-60.760	-39.004	-7.644	0.53708	-0.38757	0.52130	-0.53802	30.7	13111	100
2025-3-27 18:49:27.109	WT901BLE68-01(48591DE3C19B)	-0.389	-1.302	0.186	67.017	-59.814	227.112	-81.96	10.07	-92.70	-60.760	-39.004	-7.644	0.53708	-0.38757	0.52130	-0.53802	30.7	13111	100
2025-3-27 18:49:27.109	WT901BLE68-01(48591DE3C19B)	-0.344	-1.302	0.186	67.017	-59.814	227.112	-81.09	12.34	-91.81	-60.760	-39.004	-7.644	0.53708	-0.38757	0.52130	-0.53802	30.7	13111	100
2025-3-27 18:49:27.109	WT901BLE68-01(48591DE3C19B)	-0.344	-1.231	0.173	69.275	-23.682	238.281	-80.21	14.66	-91.06	-60.760	-39.004	-7.644	0.53708	-0.38757	0.52130	-0.53802	30.7	13111	100
2025-3-27 18:49:27.109	WT901BLE68-01(48591DE3C19B)	-0.316	-1.231	0.173	69.275	-23.682	238.281	-79.34	17.02	-90.43	-60.760	-39.004	-7.644	0.60330	-0.36380	0.52832	-0.47372	30.7	13111	100
2025-3-27 18:49:27.139	WT901BLE68-01(48591DE3C19B)	-0.316	-1.117	0.145	64.392	9.216	247.070	-78.50	19.43	-89.92	-60.760	-39.004	-7.644	0.60330	-0.36380	0.52832	-0.47372	30.7	13111	100
2025-3-27 18:49:27.139	WT901BLE68-01(48591DE3C19B)	-0.301	-1.117	0.145	64.392	9.216	247.070	-77.72	21.90	-89.53	-60.760	-39.004	-7.644	0.60330	-0.36380	0.52832	-0.47372	30.7	13111	100
2025-3-27 18:49:27.139	WT901BLE68-01(48591DE3C19B)	-0.301	-1.051	0.105	53.772	31.250	252.197	-77.00	24.38	-89.20	-60.760	-39.004	-7.644	0.60330	-0.36380	0.52832	-0.47372	30.7	13111	100
2025-3-27 18:49:27.139	WT901BLE68-01(48591DE3C19B)	-0.258	-1.051	0.105	53.772	31.250	252.197	-76.36	26.89	-88.95	-60.760	-39.004	-7.644	0.60330	-0.36380	0.52832	-0.47372	30.7	13111	100
2025-3-27 18:49:27.197	WT901BLE68-01(48591DE3C19B)	-0.258	-1.096	0.073	39.185	44.678	253.113	-75.81	29.40	-88.73	-60.760	-39.004	-7.644	0.60330	-0.36380	0.52832	-0.47372	30.7	13111	100
2025-3-27 18:49:27.197	WT901BLE68-01(48591DE3C19B)	-0.225	-1.096	0.073	39.185	44.678	253.113	-75.34	31.92	-88.55	-60.760	-39.004	-7.644	0.60330	-0.36380	0.52832	-0.47372	30.7	13111	100
2025-3-27 18:49:27.197	WT901BLE68-01(48591DE3C19B)	-0.225	-1.168	0.061	28.992	52.246	246.582	-74.94	34.38	-88.40	-60.760	-39.004	-7.644	0.60330	-0.36380	0.52832	-0.47372	30.7	13111	100
2025-3-27 18:49:27.197	WT901BLE68-01(48591DE3C19B)	-0.267	-1.168	0.061	28.992	52.246	246.582	-74.61	36.81	-88.29	-60.760	-39.004	-7.644	0.60330	-0.36380	0.52832	-0.47372	30.7	13111	100
2025-3-27 18:49:27.228	WT901BLE68-01(48591DE3C19B)	-0.267	-1.270	0.051	16.174	47.852	233.398	-74.33	39.14	-88.14	-60.760	-39.004	-7.644	0.60330	-0.36380	0.52832	-0.47372	30.7	13111	100
2025-3-27 18:49:27.228	WT901BLE68-01(48591DE3C19B)	-0.374	-1.270	0.051	16.174	47.852	233.398	-74.10	41.39	-87.98	-60.760	-39.004	-7.644	0.60330	-0.36380	0.52832	-0.47372	30.7	13111	100
2025-3-27 18:49:27.228	WT901BLE68-01(48591DE3C19B)	-0.374	-1.531	0.023	0.610	31.128	208.130	-73.89	43.47	-87.74	-60.760	-39.004	-7.644	0.60330	-0.36380	0.52832	-0.47372	30.7	13111	100
2025-3-27 18:49:27.228	WT901BLE68-01(48591DE3C19B)	-0.454	-1.531	0.023	0.610	31.128	208.130	-73.71	45.40	-87.42	-60.760	-39.004	-7.644	0.60330	-0.36380	0.52832	-0.47372	30.7	13111	100
2025-3-27 18:49:27.259	WT901BLE68-01(48591DE3C19B)	-0.454	-1.836	-0.019	-3.845	4.517	173.645	-73.44	47.11	-86.97	-60.760	-39.004	-7.644	0.60330	-0.36380	0.52832	-0.47372	30.7	13111	100
2025-3-27 18:49:27.260	WT901BLE68-01(48591DE3C19B)	-0.399	-1.836	-0.019	-3.845	4.517	173.645	-73.09	48.60	-86.37	-60.760	-39.004	-7.644	0.60330	-0.36380	0.52832	-0.47372	30.7	13111	100
2025-3-27 18:49:27.260	WT901BLE68-01(48591DE3C19B)	-0.399	-1.922	-0.003	-0.244	-29.602	136.658	-72.57	49.86	-85.59	-60.760	-39.004	-7.644	0.60330	-0.36380	0.52832	-0.47372	30.7	13111	100
2025-3-27 18:49:27.260	WT901BLE68-01(48591DE3C19B)	-0.249	-1.922	-0.003	-0.244	-29.602	136.658	-71.87	50.87	-84.61	-60.760	-39.004	-7.644	0.60330	-0.36380	0.52832	-0.47372	30.7	13111	100
2025-3-27 18:49:27.317	WT901BLE68-01(48591DE3C19B)	-0.249	-1.933	0.047	-3.906	-55.359	95.276	-71.09	51.62	-83.50	-60.760	-39.004	-7.644	0.60330	-0.36380	0.52832	-0.47372	30.7	13111	100
2025-3-27 18:49:27.317	WT901BLE68-01(48591DE3C19B)	-0.053	-1.933	0.047	-3.906	-55.359	95.276	-70.23	52.13	-82.28	-78.890	-20.776	-3.234	0.60330	-0.36380	0.52832	-0.47372	30.7	13111	100
2025-3-27 18:49:27.317	WT901BLE68-01(48591DE3C19B)	-0.053	-1.836	0.089	2.014	-65.125	55.420	-69.36	52.21	-81.13	-78.890	-20.776	-3.234	0.60330	-0.36380	0.52832	-0.47372	30.7	13111	100
2025-3-27 18:49:27.317	WT901BLE68-01(48591DE3C19B)	0.174	-1.836	0.089	2.014	-65.125	55.420	-68.49	52.26	-79.97	-78.890	-20.776	-3.234	0.60330	-0.36380	0.52832	-0.47372	30.7	13111	100
2025-3-27 18:49:27.346	WT901BLE68-01(48591DE3C19B)	0.174	-1.548	0.152	5.310	-60.913	19.226	-67.83	51.98	-79.11	-78.890	-20.776	-3.234	0.60330	-0.36380	0.52832	-0.47372	30.7	13111	100
2025-3-27 18:49:27.346	WT901BLE68-01(48591DE3C19B)	0.340	-1.548	0.152	5.310	-60.913	19.226	-67.18	51.69	-78.27	-78.890	-20.776	-3.234	0.60330	-0.36380	0.52832	-0.47372	30.7	13111	100
2025-3-27 18:49:27.347	WT901BLE68-01(48591DE3C19B)	0.340	-1.349	0.117	5.798	-31.311	-15.686	-67.05	51.18	-78.09	-78.890	-20.776	-3.234	0.60330	-0.36380	0.52832	-0.47372	30.7	13111	100
2025-3-27 18:49:27.347	WT901BLE68-01(48591DE3C19B)	0.375	-1.349	0.117	5.798	-31.311	-15.686	-66.93	50.66	-77.93	-78.890	-20.776	-3.234	0.60330	-0.36380	0.52832	-0.47372	30.7	13111	100
2025-3-27 18:49:27.377	WT901BLE68-01(48591DE3C19B)	0.375	-1.103	0.085	8.179	14.709	-49.255	-67.46	50.01	-78.62	-78.890	-20.776	-3.234	0.60330	-0.36380	0.52832	-0.47372	30.7	13111	100
2025-3-27 18:49:27.377	WT901BLE68-01(48591DE3C19B)	0.271	-1.103	0.085	8.179	14.709	-49.255	-67.96	49.35	-79.30	-78.890	-20.776	-3.234	0.60330	-0.36380	0.52832	-0.47372	30.7	13111	100
2025-3-27 18:49:27.377	WT901BLE68-01(48591DE3C19B)	0.271	-0.940	0.067	0.427	56.946	-84.778	-69.11	48.50	-80.74	-78.890	-20.776	-3.234	0.60330	-0.36380	0.52832	-0.47372	30.7	13111	100
2025-3-27 18:49:27.377	WT901BLE68-01(48591DE3C19B)	0.147	-0.940	0.067	0.427	56.946	-84.778	-70.20	47.63	-82.13	-78.890	-20.776	-3.234	0.60330	-0.36380	0.52832	-0.47372	30.7	13111	100
2025-3-27 18:49:27.436	WT901BLE68-01(48591DE3C19B)	0.147	-0.972	0.073	-6.348	81.421	-117.798	-71.66	46.51	-83.95	-78.890	-20.776	-3.234	0.60330	-0.36380	0.52832	-0.47372	30.7	13111	100
2025-3-27 18:49:27.437	WT901BLE68-01(48591DE3C19B)	0.014	-0.972	0.073	-6.348	81.421	-117.798	-73.04	45.36	-85.69	-78.890	-20.776	-3.234	0.60330	-0.36380	0.52832	-0.47372	30.7	13111	100
2025-3-27 18:49:27.437	WT901BLE68-01(48591DE3C19B)	0.014	-1.100	0.080	-7.324	87.952	-148.193	-74.47	43.92	-87.54	-78.890	-20.776	-3.234	0.60330	-0.36380	0.52832	-0.47372	30.7	13111	100
2025-3-27 18:49:27.437	WT901BLE68-01(48591DE3C19B)	-0.104	-1.100	0.080	-7.324	87.952	-148.193	-75.79	42.45	-89.29	-78.890	-20.776	-3.234	0.60330	-0.36380	0.52832	-0.47372	30.7	13111	100
2025-3-27 18:49:27.467	WT901BLE68-01(48591DE3C19B)	-0.104	-1.134	0.117	1.587	76.416	-172.607	-76.88	40.71	-90.88	-78.890	-20.776	-3.234	0.60330	-0.36380	0.52832	-0.47372	30.7	13111	100
2025-3-27 18:49:27.467	WT901BLE68-01(48591DE3C19B)	-0.169	-1.134	0.117	1.587	76.416	-172.607	-77.87	38.95	-92.37	-78.890	-20.776	-3.234	0.60330	-0.36380	0.52832	-0.47372	30.7	13111	100
2025-3-27 18:49:27.468	WT901BLE68-01(48591DE3C19B)	-0.169	-1.081	0.145	7.080	50.476	-192.322	-78.54	36.95	-93.52	-78.890	-20.776	-3.234	0.60330	-0.36380	0.52832	-0.47372	30.7	13111	100
2025-3-27 18:49:27.468	WT901BLE68-01(48591DE3C19B)	-0.190	-1.081	0.145	7.080	50.476	-192.322	-79.15	34.96	-94.60	-78.890	-20.776	-3.234	0.60330	-0.36380	0.52832	-0.47372	30.7	13111	100
2025-3-27 18:49:27.496	WT901BLE68-01(48591DE3C19B)	-0.190	-1.036	0.156	6.042	25.330	-208.130	-79.55	32.77	-95.36	-78.890	-20.776	-3.234	0.60330	-0.36380	0.52832	-0.47372	30.7	13111	100
2025-3-27 18:49:27.496	WT901BLE68-01(48591DE3C19B)	-0.213	-1.036	0.156	6.042	25.330	-208.130	-79.90	30.60	-96.09	-78.890	-20.776	-3.234	0.60330	-0.36380	0.52832	-0.47372	30.7	13111	100
2025-3-27 18:49:27.496	WT901BLE68-01(48591DE3C19B)	-0.213	-1.016	0.162	2.075	7.935	-222.351	-80.17	28.27	-96.61	-78.890	-20.776	-3.234	0.61084	-0.27579	0.59052	-0.44940	30.7	13111	100
2025-3-27 18:49:27.496	WT901BLE68-01(48591DE3C19B)	-0.222	-1.016	0.162	2.075	7.935	-222.351	-80.40	25.95	-97.11	-78.890	-20.776	-3.234	0.61084	-0.27579	0.59052	-0.44940	30.7	13111	100
2025-3-27 18:49:27.557	WT901BLE68-01(48591DE3C19B)	-0.222	-1.016	0.147	-1.831	-1.282	-236.572	-80.61	23.50	-97.52	-78.890	-20.776	-3.234	0.61084	-0.27579	0.59052	-0.44940	30.7	13111	100
2025-3-27 18:49:27.557	WT901BLE68-01(48591DE3C19B)	-0.237	-1.016	0.147	-1.831	-1.282	-236.572	-80.80	21.06	-97.90	-78.890	-20.776	-3.234	0.61084	-0.27579	0.59052	-0.44940	30.7	13111	100
2025-3-27 18:49:27.557	WT901BLE68-01(48591DE3C19B)	-0.237	-1.017	0.125	-5.188	-7.263	-252.136	-80.98	18.48	-98.23	-78.890	-20.776	-3.234	0.61084	-0.27579	0.59052	-0.44940	30.7	13111	100
2025-3-27 18:49:27.557	WT901BLE68-01(48591DE3C19B)	-0.288	-1.017	0.125	-5.188	-7.263	-252.136	-81.15	15.92	-98.55	-78.890	-20.776	-3.234	0.61084	-0.27579	0.59052	-0.44940	30.7	13111	100
2025-3-27 18:49:27.586	WT901BLE68-01(48591DE3C19B)	-0.288	-1.032	0.133	-10.559	-10.498	-267.517	-81.34	13.22	-98.85	-78.890	-20.776	-3.234	0.61084	-0.27579	0.59052	-0.44940	30.7	13111	100
2025-3-27 18:49:27.586	WT901BLE68-01(48591DE3C19B)	-0.356	-1.032	0.133	-10.559	-10.498	-267.517	-81.52	10.54	-99.13	-78.890	-20.776	-3.234	0.61084	-0.27579	0.59052	-0.44940	30.7	13111	100
2025-3-27 18:49:27.586	WT901BLE68-01(48591DE3C19B)	-0.356	-1.086	0.179	-15.442	-10.864	-279.907	-81.73	7.76	-99.42	-78.890	-20.776	-3.234	0.61084	-0.27579	0.59052	-0.44940	30.7	13111	100
2025-3-27 18:49:27.586	WT901BLE68-01(48591DE3C19B)	-0.427	-1.086	0.179	-15.442	-10.864	-279.907	-81.93	5.00	-99.69	-78.890	-20.776	-3.234	0.61084	-0.27579	0.59052	-0.44940	30.7	13111	100
2025-3-27 18:49:27.616	WT901BLE68-01(48591DE3C19B)	-0.427	-1.139	0.244	-18.250	-6.958	-286.438	-82.13	2.20	-100.00	-78.890	-20.776	-3.234	0.61084	-0.27579	0.59052	-0.44940	30.7	13111	100
2025-3-27 18:49:27.616	WT901BLE68-01(48591DE3C19B)	-0.500	-1.139	0.244	-18.250	-6.958	-286.438	-82.32	-0.57	-100.31	-78.890	-20.776	-3.234	0.61084	-0.27579	0.59052	-0.44940	30.7	13111	100
2025-3-27 18:49:27.616	WT901BLE68-01(48591DE3C19B)	-0.500	-1.202	0.279	-18.066	-0.244	-284.851	-82.49	-3.30	-100.66	-78.890	-20.776	-3.234	0.61084	-0.27579	0.59052	-0.44940	30.7	13111	100
2025-3-27 18:49:27.616	WT901BLE68-01(48591DE3C19B)	-0.581	-1.202	0.279	-18.066	-0.244	-284.851	-82.63	-6.01	-101.02	-78.890	-20.776	-3.234	0.61084	-0.27579	0.59052	-0.44940	30.7	13111	100
2025-3-27 18:49:27.677	WT901BLE68-01(48591DE3C19B)	-0.581	-1.237	0.287	-12.634	11.597	-272.461	-82.68	-8.56	-101.48	-78.890	-20.776	-3.234	0.61084	-0.27579	0.59052	-0.44940	30.7	13111	100
2025-3-27 18:49:27.677	WT901BLE68-01(48591DE3C19B)	-0.560	-1.237	0.287	-12.634	11.597	-272.461	-82.72	-11.09	-101.93	-78.890	-20.776	-3.234	0.61084	-0.27579	0.59052	-0.44940	30.7	13111	100
2025-3-27 18:49:27.677	WT901BLE68-01(48591DE3C19B)	-0.560	-1.252	0.243	-3.845	38.513	-253.052	-82.59	-13.36	-102.65	-78.890	-20.776	-3.234	0.61084	-0.27579	0.59052	-0.44940	30.7	13111	100
2025-3-27 18:49:27.678	WT901BLE68-01(48591DE3C19B)	-0.440	-1.252	0.243	-3.845	38.513	-253.052	-82.43	-15.63	-103.38	-78.890	-20.776	-3.234	0.61084	-0.27579	0.59052	-0.44940	30.7	13111	100
2025-3-27 18:49:27.711	WT901BLE68-01(48591DE3C19B)	-0.440	-1.266	0.184	9.644	88.562	-227.539	-81.97	-17.56	-104.60	-78.890	-20.776	-3.234	0.61084	-0.27579	0.59052	-0.44940	30.7	13111	100
2025-3-27 18:49:27.711	WT901BLE68-01(48591DE3C19B)	-0.437	-1.266	0.184	9.644	88.562	-227.539	-81.47	-19.46	-105.85	-78.890	-20.776	-3.234	0.61084	-0.27579	0.59052	-0.44940	30.7	13111	100
2025-3-27 18:49:27.711	WT901BLE68-01(48591DE3C19B)	-0.437	-1.263	0.137	20.752	129.700	-197.876	-80.68	-20.98	-107.51	-67.620	-41.160	-4.900	0.61084	-0.27579	0.59052	-0.44940	30.7	13111	100
2025-3-27 18:49:27.711	WT901BLE68-01(48591DE3C19B)	-0.493	-1.263	0.137	20.752	129.700	-197.876	-79.85	-22.48	-109.20	-67.620	-41.160	-4.900	0.61084	-0.27579	0.59052	-0.44940	30.7	13111	100
2025-3-27 18:49:27.767	WT901BLE68-01(48591DE3C19B)	-0.493	-1.376	0.131	24.475	157.104	-166.138	-78.85	-23.58	-111.17	-67.620	-41.160	-4.900	0.61084	-0.27579	0.59052	-0.44940	30.7	13111	100
2025-3-27 18:49:27.767	WT901BLE68-01(48591DE3C19B)	-0.625	-1.376	0.131	24.475	157.104	-166.138	-77.81	-24.64	-113.15	-67.620	-41.160	-4.900	0.61084	-0.27579	0.59052	-0.44940	30.7	13111	100
2025-3-27 18:49:27.768	WT901BLE68-01(48591DE3C19B)	-0.810	-1.504	0.171	34.058	175.964	-133.057	-76.59	-25.29	-115.28	-67.620	-41.160	-4.900	0.61084	-0.27579	0.59052	-0.44940	30.7	13111	100
2025-3-27 18:49:27.768	WT901BLE68-01(48591DE3C19B)	-0.810	-1.550	0.222	32.654	179.199	-103.577	-75.37	-25.75	-117.41	-67.620	-41.160	-4.900	0.61084	-0.27579	0.59052	-0.44940	30.7	13111	100
2025-3-27 18:49:27.796	WT901BLE68-01(48591DE3C19B)	-0.973	-1.550	0.222	32.654	179.199	-103.577	-74.15	-26.01	-119.53	-67.620	-41.160	-4.900	0.61084	-0.27579	0.59052	-0.44940	30.7	13111	100
2025-3-27 18:49:27.796	WT901BLE68-01(48591DE3C19B)	-0.973	-1.559	0.221	27.893	172.546	-78.491	-72.99	-26.11	-121.57	-67.620	-41.160	-4.900	0.61084	-0.27579	0.59052	-0.44940	30.7	13111	100
2025-3-27 18:49:27.796	WT901BLE68-01(48591DE3C19B)	-0.986	-1.559	0.221	27.893	172.546	-78.491	-71.89	-26.07	-123.54	-67.620	-41.160	-4.900	0.61084	-0.27579	0.59052	-0.44940	30.7	13111	100
2025-3-27 18:49:27.796	WT901BLE68-01(48591DE3C19B)	-0.986	-1.363	0.187	19.958	164.856	-50.171	-70.89	-25.86	-125.40	-67.620	-41.160	-4.900	0.61084	-0.27579	0.59052	-0.44940	30.7	13111	100
2025-3-27 18:49:27.886	WT901BLE68-01(48591DE3C19B)	-0.916	-1.363	0.187	19.958	164.856	-50.171	-69.98	-25.50	-127.17	-67.620	-41.160	-4.900	0.61084	-0.27579	0.59052	-0.44940	30.7	13111	100
2025-3-27 18:49:27.887	WT901BLE68-01(48591DE3C19B)	-0.916	-1.155	0.142	1.282	156.189	-14.954	-69.25	-24.97	-128.81	-67.620	-41.160	-4.900	0.61084	-0.27579	0.59052	-0.44940	30.7	13111	100
2025-3-27 18:49:27.887	WT901BLE68-01(48591DE3C19B)	-0.920	-1.155	0.142	1.282	156.189	-14.954	-68.68	-24.26	-130.32	-67.620	-41.160	-4.900	0.61084	-0.27579	0.59052	-0.44940	30.7	13111	100
2025-3-27 18:49:27.887	WT901BLE68-01(48591DE3C19B)	-0.920	-0.996	0.145	-19.226	126.587	23.315	-68.32	-23.42	-131.59	-67.620	-41.160	-4.900	0.61084	-0.27579	0.59052	-0.44940	30.7	13111	100
2025-3-27 18:49:27.887	WT901BLE68-01(48591DE3C19B)	-0.922	-0.996	0.145	-19.226	126.587	23.315	-68.19	-22.45	-132.63	-67.620	-41.160	-4.900	0.61084	-0.27579	0.59052	-0.44940	30.7	13111	100
2025-3-27 18:49:27.888	WT901BLE68-01(48591DE3C19B)	-0.922	-0.866	0.164	-39.368	65.613	58.594	-68.31	-21.41	-133.29	-67.620	-41.160	-4.900	0.61084	-0.27579	0.59052	-0.44940	30.7	13111	100
2025-3-27 18:49:27.888	WT901BLE68-01(48591DE3C19B)	-0.896	-0.866	0.164	-39.368	65.613	58.594	-68.68	-20.34	-133.60	-67.620	-41.160	-4.900	0.61084	-0.27579	0.59052	-0.44940	30.7	13111	100
2025-3-27 18:49:27.888	WT901BLE68-01(48591DE3C19B)	-0.896	-0.873	0.149	-59.021	-7.141	96.436	-69.27	-19.20	-133.50	-67.620	-41.160	-4.900	0.61084	-0.27579	0.59052	-0.44940	30.7	13111	100
2025-3-27 18:49:27.916	WT901BLE68-01(48591DE3C19B)	-0.880	-0.873	0.149	-59.021	-7.141	96.436	-70.09	-18.03	-133.01	-67.620	-41.160	-4.900	0.61084	-0.27579	0.59052	-0.44940	30.7	13111	100
2025-3-27 18:49:27.916	WT901BLE68-01(48591DE3C19B)	-0.880	-0.964	0.109	-71.411	-71.594	136.169	-71.05	-16.76	-132.17	-67.620	-41.160	-4.900	0.61084	-0.27579	0.59052	-0.44940	30.7	13111	100
2025-3-27 18:49:27.916	WT901BLE68-01(48591DE3C19B)	-0.814	-0.964	0.109	-71.411	-71.594	136.169	-72.15	-15.39	-130.97	-67.620	-41.160	-4.900	0.61084	-0.27579	0.59052	-0.44940	30.7	13111	100
2025-3-27 18:49:27.916	WT901BLE68-01(48591DE3C19B)	-0.814	-1.041	0.045	-75.134	-116.821	172.729	-73.30	-13.90	-129.55	-67.620	-41.160	-4.900	0.28180	-0.34058	0.49884	-0.74542	30.7	13111	100
2025-3-27 18:49:27.946	WT901BLE68-01(48591DE3C19B)	-0.697	-1.041	0.045	-75.134	-116.821	172.729	-74.47	-12.28	-127.88	-67.620	-41.160	-4.900	0.28180	-0.34058	0.49884	-0.74542	30.7	13111	100
2025-3-27 18:49:27.946	WT901BLE68-01(48591DE3C19B)	-0.697	-1.130	0.010	-75.989	-147.522	205.383	-75.63	-10.52	-126.06	-67.620	-41.160	-4.900	0.28180	-0.34058	0.49884	-0.74542	30.7	13111	100
2025-3-27 18:49:27.947	WT901BLE68-01(48591DE3C19B)	-0.609	-1.130	0.010	-75.989	-147.522	205.383	-76.77	-8.61	-124.08	-67.620	-41.160	-4.900	0.28180	-0.34058	0.49884	-0.74542	30.7	13111	100
2025-3-27 18:49:27.947	WT901BLE68-01(48591DE3C19B)	-0.609	-1.271	0.027	-71.167	-167.908	232.849	-77.82	-6.57	-122.00	-67.620	-41.160	-4.900	0.28180	-0.34058	0.49884	-0.74542	30.7	13111	100
2025-3-27 18:49:28.11	WT901BLE68-01(48591DE3C19B)	-0.547	-1.271	0.027	-71.167	-167.908	232.849	-78.78	-4.40	-119.83	-67.620	-41.160	-4.900	0.28180	-0.34058	0.49884	-0.74542	30.7	13111	100
2025-3-27 18:49:28.11	WT901BLE68-01(48591DE3C19B)	-0.547	-1.390	0.071	-60.669	-184.509	252.502	-79.62	-2.14	-117.59	-67.620	-41.160	-4.900	0.28180	-0.34058	0.49884	-0.74542	30.7	13111	100
2025-3-27 18:49:28.11	WT901BLE68-01(48591DE3C19B)	-0.485	-1.390	0.071	-60.669	-184.509	252.502	-80.30	0.21	-115.29	-67.620	-41.160	-4.900	0.28180	-0.34058	0.49884	-0.74542	30.7	13111	100
2025-3-27 18:49:28.11	WT901BLE68-01(48591DE3C19B)	-0.485	-1.501	0.104	-44.556	-193.787	267.700	-80.82	2.64	-112.94	-67.620	-41.160	-4.900	0.28180	-0.34058	0.49884	-0.74542	30.7	13111	100
2025-3-27 18:49:28.36	WT901BLE68-01(48591DE3C19B)	-0.435	-1.501	0.104	-44.556	-193.787	267.700	-81.14	5.13	-110.56	-67.620	-41.160	-4.900	0.28180	-0.34058	0.49884	-0.74542	30.7	13111	100
2025-3-27 18:49:28.37	WT901BLE68-01(48591DE3C19B)	-0.435	-1.530	0.134	-25.818	-185.547	273.926	-81.27	7.64	-108.22	-67.620	-41.160	-4.900	0.28180	-0.34058	0.49884	-0.74542	30.7	13111	100
2025-3-27 18:49:28.37	WT901BLE68-01(48591DE3C19B)	-0.429	-1.530	0.134	-25.818	-185.547	273.926	-81.21	10.17	-105.91	-67.620	-41.160	-4.900	0.28180	-0.34058	0.49884	-0.74542	30.7	13111	100
2025-3-27 18:49:28.37	WT901BLE68-01(48591DE3C19B)	-0.429	-1.533	0.115	-8.667	-161.377	275.208	-80.97	12.69	-103.70	-67.620	-41.160	-4.900	0.28180	-0.34058	0.49884	-0.74542	30.7	13111	100
2025-3-27 18:49:28.69	WT901BLE68-01(48591DE3C19B)	-0.417	-1.533	0.115	-8.667	-161.377	275.208	-80.58	15.22	-101.59	-67.620	-41.160	-4.900	0.28180	-0.34058	0.49884	-0.74542	30.7	13111	100
2025-3-27 18:49:28.69	WT901BLE68-01(48591DE3C19B)	-0.417	-1.490	0.096	4.944	-127.930	270.691	-80.08	17.70	-99.61	-67.620	-41.160	-4.900	0.28180	-0.34058	0.49884	-0.74542	30.7	13111	100
2025-3-27 18:49:28.69	WT901BLE68-01(48591DE3C19B)	-0.429	-1.490	0.096	4.944	-127.930	270.691	-79.47	20.16	-97.76	-67.620	-41.160	-4.900	0.28180	-0.34058	0.49884	-0.74542	30.7	13111	100
2025-3-27 18:49:28.69	WT901BLE68-01(48591DE3C19B)	-0.429	-1.386	0.080	16.052	-94.604	265.686	-78.78	22.58	-96.04	-67.620	-41.160	-4.900	0.28180	-0.34058	0.49884	-0.74542	30.7	13111	100
2025-3-27 18:49:28.158	WT901BLE68-01(48591DE3C19B)	-0.397	-1.386	0.080	16.052	-94.604	265.686	-78.02	24.98	-94.45	-67.620	-41.160	-4.900	0.28180	-0.34058	0.49884	-0.74542	30.7	13111	100
2025-3-27 18:49:28.158	WT901BLE68-01(48591DE3C19B)	-0.397	-1.262	0.065	21.851	-69.397	260.742	-77.22	27.34	-92.94	-74.676	-34.888	-1.862	0.28180	-0.34058	0.49884	-0.74542	30.7	13111	100
2025-3-27 18:49:28.158	WT901BLE68-01(48591DE3C19B)	-0.349	-1.262	0.065	21.851	-69.397	260.742	-76.37	29.67	-91.51	-74.676	-34.888	-1.862	0.28180	-0.34058	0.49884	-0.74542	30.7	13111	100
2025-3-27 18:49:28.158	WT901BLE68-01(48591DE3C19B)	-0.349	-1.151	0.040	25.024	-46.631	256.042	-75.49	31.98	-90.15	-74.676	-34.888	-1.862	0.28180	-0.34058	0.49884	-0.74542	30.7	13111	100
2025-3-27 18:49:28.159	WT901BLE68-01(48591DE3C19B)	-0.354	-1.151	0.040	25.024	-46.631	256.042	-74.59	34.25	-88.86	-74.676	-34.888	-1.862	0.28180	-0.34058	0.49884	-0.74542	30.7	13111	100
2025-3-27 18:49:28.159	WT901BLE68-01(48591DE3C19B)	-0.354	-1.076	0.020	25.269	-31.189	252.563	-73.67	36.50	-87.58	-74.676	-34.888	-1.862	0.28180	-0.34058	0.49884	-0.74542	30.7	13111	100
2025-3-27 18:49:28.159	WT901BLE68-01(48591DE3C19B)	-0.373	-1.076	0.020	25.269	-31.189	252.563	-72.72	38.72	-86.34	-74.676	-34.888	-1.862	0.28180	-0.34058	0.49884	-0.74542	30.7	13111	100
2025-3-27 18:49:28.159	WT901BLE68-01(48591DE3C19B)	-0.373	-1.074	-0.004	24.048	-27.222	246.704	-71.71	40.89	-85.04	-74.676	-34.888	-1.862	0.28180	-0.34058	0.49884	-0.74542	30.7	13111	100
2025-3-27 18:49:28.189	WT901BLE68-01(48591DE3C19B)	-0.355	-1.074	-0.004	24.048	-27.222	246.704	-70.65	43.01	-83.69	-74.676	-34.888	-1.862	0.28180	-0.34058	0.49884	-0.74542	30.7	13111	100
2025-3-27 18:49:28.189	WT901BLE68-01(48591DE3C19B)	-0.355	-1.120	-0.012	23.132	-29.724	237.244	-69.49	45.04	-82.25	-74.676	-34.888	-1.862	0.28180	-0.34058	0.49884	-0.74542	30.7	13111	100
2025-3-27 18:49:28.189	WT901BLE68-01(48591DE3C19B)	-0.348	-1.120	-0.012	23.132	-29.724	237.244	-68.24	47.00	-80.72	-74.676	-34.888	-1.862	0.28180	-0.34058	0.49884	-0.74542	30.7	13111	100
2025-3-27 18:49:28.189	WT901BLE68-01(48591DE3C19B)	-0.348	-1.158	-0.006	24.048	-35.645	222.717	-66.87	48.84	-79.08	-74.676	-34.888	-1.862	0.28180	-0.34058	0.49884	-0.74542	30.7	13111	100
2025-3-27 18:49:28.247	WT901BLE68-01(48591DE3C19B)	-0.345	-1.158	-0.006	24.048	-35.645	222.717	-65.37	50.56	-77.32	-74.676	-34.888	-1.862	0.28180	-0.34058	0.49884	-0.74542	30.7	13111	100
2025-3-27 18:49:28.247	WT901BLE68-01(48591DE3C19B)	-0.345	-1.206	0.011	22.156	-42.969	204.529	-63.79	52.04	-75.45	-74.676	-34.888	-1.862	0.28180	-0.34058	0.49884	-0.74542	30.7	13111	100
2025-3-27 18:49:28.248	WT901BLE68-01(48591DE3C19B)	-0.355	-1.206	0.011	22.156	-42.969	204.529	-62.08	53.49	-73.46	-74.676	-34.888	-1.862	0.28180	-0.34058	0.49884	-0.74542	30.7	13111	100
2025-3-27 18:49:28.248	WT901BLE68-01(48591DE3C19B)	-0.355	-1.321	0.021	18.555	-49.377	182.434	-60.36	54.66	-71.43	-74.676	-34.888	-1.862	0.28180	-0.34058	0.49884	-0.74542	30.7	13111	100
2025-3-27 18:49:28.279	WT901BLE68-01(48591DE3C19B)	-0.353	-1.321	0.021	18.555	-49.377	182.434	-58.52	55.78	-69.30	-74.676	-34.888	-1.862	0.28180	-0.34058	0.49884	-0.74542	30.7	13111	100
2025-3-27 18:49:28.279	WT901BLE68-01(48591DE3C19B)	-0.353	-1.395	0.035	15.930	-51.941	157.043	-56.78	56.64	-67.26	-74.676	-34.888	-1.862	0.28180	-0.34058	0.49884	-0.74542	30.7	13111	100
2025-3-27 18:49:28.279	WT901BLE68-01(48591DE3C19B)	-0.341	-1.395	0.035	15.930	-51.941	157.043	-54.95	57.45	-65.14	-74.676	-34.888	-1.862	0.28180	-0.34058	0.49884	-0.74542	30.7	13111	100
2025-3-27 18:49:28.279	WT901BLE68-01(48591DE3C19B)	-0.341	-1.446	0.067	12.085	-50.354	131.409	-53.35	58.02	-63.26	-74.676	-34.888	-1.862	0.28180	-0.34058	0.49884	-0.74542	30.7	13111	100
2025-3-27 18:49:28.309	WT901BLE68-01(48591DE3C19B)	-0.313	-1.446	0.067	12.085	-50.354	131.409	-51.69	58.56	-61.32	-74.676	-34.888	-1.862	0.28180	-0.34058	0.49884	-0.74542	30.7	13111	100
2025-3-27 18:49:28.309	WT901BLE68-01(48591DE3C19B)	-0.313	-1.464	0.111	7.446	-46.936	105.408	-50.36	58.89	-59.71	-74.676	-34.888	-1.862	0.28180	-0.34058	0.49884	-0.74542	30.7	13111	100
2025-3-27 18:49:28.309	WT901BLE68-01(48591DE3C19B)	-0.264	-1.464	0.111	7.446	-46.936	105.408	-48.99	59.20	-58.08	-74.676	-34.888	-1.862	0.79251	-0.09637	0.56689	-0.20291	30.7	13111	100
2025-3-27 18:49:28.309	WT901BLE68-01(48591DE3C19B)	-0.264	-1.374	0.141	3.662	-42.114	78.369	-48.02	59.32	-56.85	-74.676	-34.888	-1.862	0.79251	-0.09637	0.56689	-0.20291	30.7	13111	100
2025-3-27 18:49:28.367	WT901BLE68-01(48591DE3C19B)	-0.208	-1.374	0.141	3.662	-42.114	78.369	-47.04	59.41	-55.63	-74.676	-34.888	-1.862	0.79251	-0.09637	0.56689	-0.20291	30.7	13111	100
2025-3-27 18:49:28.367	WT901BLE68-01(48591DE3C19B)	-0.208	-1.238	0.159	-3.174	-37.537	50.476	-46.51	59.33	-54.85	-74.676	-34.888	-1.862	0.79251	-0.09637	0.56689	-0.20291	30.7	13111	100
2025-3-27 18:49:28.368	WT901BLE68-01(48591DE3C19B)	-0.147	-1.238	0.159	-3.174	-37.537	50.476	-45.98	59.24	-54.07	-74.676	-34.888	-1.862	0.79251	-0.09637	0.56689	-0.20291	30.7	13111	100
2025-3-27 18:49:28.368	WT901BLE68-01(48591DE3C19B)	-0.147	-1.138	0.207	-12.329	-36.194	19.165	-45.94	58.94	-53.75	-74.676	-34.888	-1.862	0.79251	-0.09637	0.56689	-0.20291	30.7	13111	100
2025-3-27 18:49:28.457	WT901BLE68-01(48591DE3C19B)	-0.077	-1.138	0.207	-12.329	-36.194	19.165	-45.89	58.63	-53.43	-74.676	-34.888	-1.862	0.79251	-0.09637	0.56689	-0.20291	30.7	13111	100
2025-3-27 18:49:28.458	WT901BLE68-01(48591DE3C19B)	-0.077	-1.053	0.216	-21.484	-31.860	-14.526	-46.37	58.11	-53.62	-74.676	-34.888	-1.862	0.79251	-0.09637	0.56689	-0.20291	30.7	13111	100
2025-3-27 18:49:28.458	WT901BLE68-01(48591DE3C19B)	-0.008	-1.053	0.216	-21.484	-31.860	-14.526	-46.83	57.58	-53.81	-74.676	-34.888	-1.862	0.79251	-0.09637	0.56689	-0.20291	30.7	13111	100
2025-3-27 18:49:28.458	WT901BLE68-01(48591DE3C19B)	-0.008	-0.953	0.190	-28.809	-17.029	-47.241	-47.87	56.92	-54.57	-74.676	-34.888	-1.862	0.79251	-0.09637	0.56689	-0.20291	30.7	13111	100
2025-3-27 18:49:28.459	WT901BLE68-01(48591DE3C19B)	-0.008	-0.953	0.190	-28.809	-17.029	-47.241	-48.86	56.25	-55.32	-74.676	-34.888	-1.862	0.79251	-0.09637	0.56689	-0.20291	30.7	13111	100
2025-3-27 18:49:28.459	WT901BLE68-01(48591DE3C19B)	-0.008	-0.887	0.186	-38.086	5.127	-79.712	-50.46	55.46	-56.68	-74.676	-34.888	-1.862	0.79251	-0.09637	0.56689	-0.20291	30.7	13111	100
2025-3-27 18:49:28.459	WT901BLE68-01(48591DE3C19B)	-0.069	-0.887	0.186	-38.086	5.127	-79.712	-51.99	54.66	-57.97	-74.676	-34.888	-1.862	0.79251	-0.09637	0.56689	-0.20291	30.7	13111	100
2025-3-27 18:49:28.460	WT901BLE68-01(48591DE3C19B)	-0.069	-0.933	0.205	-45.349	22.888	-115.540	-54.00	53.65	-59.80	-74.676	-34.888	-1.862	0.79251	-0.09637	0.56689	-0.20291	30.7	13111	100
2025-3-27 18:49:28.489	WT901BLE68-01(48591DE3C19B)	-0.103	-0.933	0.205	-45.349	22.888	-115.540	-55.90	52.61	-61.52	-74.676	-34.888	-1.862	0.79251	-0.09637	0.56689	-0.20291	30.7	13111	100
2025-3-27 18:49:28.489	WT901BLE68-01(48591DE3C19B)	-0.103	-0.967	0.237	-46.814	29.419	-149.719	-58.01	51.30	-63.52	-74.676	-34.888	-1.862	0.79251	-0.09637	0.56689	-0.20291	30.7	13111	100
2025-3-27 18:49:28.489	WT901BLE68-01(48591DE3C19B)	-0.113	-0.967	0.237	-46.814	29.419	-149.719	-59.97	49.94	-65.37	-74.676	-34.888	-1.862	0.79251	-0.09637	0.56689	-0.20291	30.7	13111	100
2025-3-27 18:49:28.489	WT901BLE68-01(48591DE3C19B)	-0.113	-0.990	0.243	-46.509	27.588	-178.711	-61.93	48.30	-67.27	-74.676	-34.888	-1.862	0.79251	-0.09637	0.56689	-0.20291	30.7	13111	100
2025-3-27 18:49:28.519	WT901BLE68-01(48591DE3C19B)	-0.118	-0.990	0.243	-46.509	27.588	-178.711	-63.74	46.61	-69.03	-74.676	-34.888	-1.862	0.79251	-0.09637	0.56689	-0.20291	30.7	13111	100
2025-3-27 18:49:28.519	WT901BLE68-01(48591DE3C19B)	-0.118	-0.986	0.227	-45.349	18.860	-203.491	-65.41	44.65	-70.68	-74.676	-34.888	-1.862	0.79251	-0.09637	0.56689	-0.20291	30.7	13111	100
2025-3-27 18:49:28.519	WT901BLE68-01(48591DE3C19B)	-0.120	-0.986	0.227	-45.349	18.860	-203.491	-66.95	42.66	-72.20	-74.676	-34.888	-1.862	0.79251	-0.09637	0.56689	-0.20291	30.7	13111	100
2025-3-27 18:49:28.519	WT901BLE68-01(48591DE3C19B)	-0.120	-0.997	0.187	-46.814	9.094	-224.854	-68.37	40.42	-73.57	-81.928	-23.030	9.702	0.79251	-0.09637	0.56689	-0.20291	30.7	13111	100
2025-3-27 18:49:28.549	WT901BLE68-01(48591DE3C19B)	-0.142	-0.997	0.187	-46.814	9.094	-224.854	-69.66	38.18	-74.83	-81.928	-23.030	9.702	0.79251	-0.09637	0.56689	-0.20291	30.7	13111	100
2025-3-27 18:49:28.549	WT901BLE68-01(48591DE3C19B)	-0.142	-1.028	0.210	-48.218	-4.456	-243.469	-70.81	35.71	-75.90	-81.928	-23.030	9.702	0.79251	-0.09637	0.56689	-0.20291	30.7	13111	100
2025-3-27 18:49:28.549	WT901BLE68-01(48591DE3C19B)	-0.235	-1.028	0.210	-48.218	-4.456	-243.469	-71.87	33.23	-76.87	-81.928	-23.030	9.702	0.79251	-0.09637	0.56689	-0.20291	30.7	13111	100
2025-3-27 18:49:28.550	WT901BLE68-01(48591DE3C19B)	-0.235	-1.085	0.344	-48.950	-17.151	-266.296	-72.82	30.50	-77.70	-81.928	-23.030	9.702	0.79251	-0.09637	0.56689	-0.20291	30.7	13111	100
2025-3-27 18:49:28.611	WT901BLE68-01(48591DE3C19B)	-0.312	-1.085	0.344	-48.950	-17.151	-266.296	-73.69	27.78	-78.46	-81.928	-23.030	9.702	0.79251	-0.09637	0.56689	-0.20291	30.7	13111	100
2025-3-27 18:49:28.611	WT901BLE68-01(48591DE3C19B)	-0.312	-1.135	0.478	-49.500	-25.452	-285.767	-74.47	24.87	-79.12	-81.928	-23.030	9.702	0.79251	-0.09637	0.56689	-0.20291	30.7	13111	100
2025-3-27 18:49:28.611	WT901BLE68-01(48591DE3C19B)	-0.298	-1.135	0.478	-49.500	-25.452	-285.767	-75.20	21.96	-79.72	-81.928	-23.030	9.702	0.79251	-0.09637	0.56689	-0.20291	30.7	13111	100
2025-3-27 18:49:28.611	WT901BLE68-01(48591DE3C19B)	-0.298	-1.186	0.534	-51.819	-26.550	-301.331	-75.90	18.92	-80.30	-81.928	-23.030	9.702	0.79251	-0.09637	0.56689	-0.20291	30.7	13111	100
2025-3-27 18:49:28.636	WT901BLE68-01(48591DE3C19B)	-0.307	-1.186	0.534	-51.819	-26.550	-301.331	-76.55	15.89	-80.84	-81.928	-23.030	9.702	0.79251	-0.09637	0.56689	-0.20291	30.7	13111	100
2025-3-27 18:49:28.637	WT901BLE68-01(48591DE3C19B)	-0.307	-1.278	0.546	-52.368	-15.320	-313.171	-77.20	12.78	-81.47	-81.928	-23.030	9.702	0.79251	-0.09637	0.56689	-0.20291	30.7	13111	100
2025-3-27 18:49:28.637	WT901BLE68-01(48591DE3C19B)	-0.400	-1.278	0.546	-52.368	-15.320	-313.171	-77.79	9.69	-82.06	-81.928	-23.030	9.702	0.79251	-0.09637	0.56689	-0.20291	30.7	13111	100
2025-3-27 18:49:28.637	WT901BLE68-01(48591DE3C19B)	-0.400	-1.404	0.539	-49.194	1.526	-319.580	-78.34	6.59	-82.80	-81.928	-23.030	9.702	0.79251	-0.09637	0.56689	-0.20291	30.7	13111	100
2025-3-27 18:49:28.666	WT901BLE68-01(48591DE3C19B)	-0.451	-1.404	0.539	-49.194	1.526	-319.580	-78.84	3.49	-83.50	-81.928	-23.030	9.702	0.79251	-0.09637	0.56689	-0.20291	30.7	13111	100
2025-3-27 18:49:28.666	WT901BLE68-01(48591DE3C19B)	-0.452	-1.469	0.516	-40.222	23.560	-317.749	-79.22	0.48	-84.39	-81.928	-23.030	9.702	0.79251	-0.09637	0.56689	-0.20291	30.7	13111	100
2025-3-27 18:49:28.666	WT901BLE68-01(48591DE3C19B)	-0.452	-1.467	0.458	-28.564	50.537	-304.871	-79.49	-2.42	-85.39	-81.928	-23.030	9.702	0.79251	-0.09637	0.56689	-0.20291	30.7	13111	100
2025-3-27 18:49:28.666	WT901BLE68-01(48591DE3C19B)	-0.463	-1.467	0.458	-28.564	50.537	-304.871	-79.65	-5.23	-86.48	-81.928	-23.030	9.702	0.79251	-0.09637	0.56689	-0.20291	30.7	13111	100
2025-3-27 18:49:28.728	WT901BLE68-01(48591DE3C19B)	-0.463	-1.441	0.394	-16.113	79.895	-284.546	-79.68	-7.89	-87.71	-81.928	-23.030	9.702	0.79251	-0.09637	0.56689	-0.20291	30.7	13111	100
2025-3-27 18:49:28.728	WT901BLE68-01(48591DE3C19B)	-0.465	-1.441	0.394	-16.113	79.895	-284.546	-79.58	-10.41	-89.07	-81.928	-23.030	9.702	0.79251	-0.09637	0.56689	-0.20291	30.7	13111	100
2025-3-27 18:49:28.728	WT901BLE68-01(48591DE3C19B)	-0.465	-1.391	0.352	-4.883	107.544	-260.254	-79.34	-12.76	-90.56	-81.928	-23.030	9.702	0.79251	-0.09637	0.56689	-0.20291	30.7	13111	100
2025-3-27 18:49:28.728	WT901BLE68-01(48591DE3C19B)	-0.452	-1.391	0.352	-4.883	107.544	-260.254	-78.96	-14.94	-92.19	-81.928	-23.030	9.702	0.79251	-0.09637	0.56689	-0.20291	30.7	13111	100
2025-3-27 18:49:28.759	WT901BLE68-01(48591DE3C19B)	-0.452	-1.363	0.322	6.409	137.024	-226.990	-78.43	-16.91	-93.96	-81.928	-23.030	9.702	0.45486	-0.50992	0.37949	-0.62369	30.7	13111	100
2025-3-27 18:49:28.759	WT901BLE68-01(48591DE3C19B)	-0.459	-1.363	0.322	6.409	137.024	-226.990	-77.75	-18.65	-95.87	-81.928	-23.030	9.702	0.45486	-0.50992	0.37949	-0.62369	30.7	13111	100
2025-3-27 18:49:28.759	WT901BLE68-01(48591DE3C19B)	-0.459	-1.282	0.304	17.883	168.518	-191.833	-76.92	-20.15	-97.95	-81.928	-23.030	9.702	0.45486	-0.50992	0.37949	-0.62369	30.7	13111	100
2025-3-27 18:49:28.760	WT901BLE68-01(48591DE3C19B)	-0.485	-1.282	0.304	17.883	168.518	-191.833	-75.93	-21.40	-100.17	-81.928	-23.030	9.702	0.45486	-0.50992	0.37949	-0.62369	30.7	13111	100
2025-3-27 18:49:28.789	WT901BLE68-01(48591DE3C19B)	-0.485	-1.200	0.277	25.391	199.829	-154.175	-74.82	-22.38	-102.55	-81.928	-23.030	9.702	0.45486	-0.50992	0.37949	-0.62369	30.7	13111	100
2025-3-27 18:49:28.789	WT901BLE68-01(48591DE3C19B)	-0.522	-1.200	0.277	25.391	199.829	-154.175	-73.60	-23.09	-105.05	-81.928	-23.030	9.702	0.45486	-0.50992	0.37949	-0.62369	30.7	13111	100
2025-3-27 18:49:28.789	WT901BLE68-01(48591DE3C19B)	-0.522	-1.092	0.257	31.128	223.633	-116.089	-72.30	-23.52	-107.64	-81.928	-23.030	9.702	0.45486	-0.50992	0.37949	-0.62369	30.7	13111	100
2025-3-27 18:49:28.789	WT901BLE68-01(48591DE3C19B)	-0.557	-1.092	0.257	31.128	223.633	-116.089	-70.94	-23.67	-110.29	-81.928	-23.030	9.702	0.45486	-0.50992	0.37949	-0.62369	30.7	13111	100
2025-3-27 18:49:28.847	WT901BLE68-01(48591DE3C19B)	-0.557	-1.004	0.251	30.151	228.394	-80.872	-69.61	-23.59	-112.90	-81.928	-23.030	9.702	0.45486	-0.50992	0.37949	-0.62369	30.7	13111	100
2025-3-27 18:49:28.847	WT901BLE68-01(48591DE3C19B)	-0.597	-1.004	0.251	30.151	228.394	-80.872	-68.32	-23.28	-115.44	-81.928	-23.030	9.702	0.45486	-0.50992	0.37949	-0.62369	30.7	13111	100
2025-3-27 18:49:28.848	WT901BLE68-01(48591DE3C19B)	-0.597	-0.986	0.244	25.269	206.970	-49.072	-67.16	-22.81	-117.80	-81.928	-23.030	9.702	0.45486	-0.50992	0.37949	-0.62369	30.7	13111	100
2025-3-27 18:49:28.848	WT901BLE68-01(48591DE3C19B)	-0.638	-0.986	0.244	25.269	206.970	-49.072	-66.13	-22.19	-119.95	-81.928	-23.030	9.702	0.45486	-0.50992	0.37949	-0.62369	30.7	13111	100
2025-3-27 18:49:28.879	WT901BLE68-01(48591DE3C19B)	-0.638	-0.968	0.203	17.883	165.344	-22.644	-65.28	-21.51	-121.81	-81.928	-23.030	9.702	0.45486	-0.50992	0.37949	-0.62369	30.7	13111	100
2025-3-27 18:49:28.879	WT901BLE68-01(48591DE3C19B)	-0.646	-0.968	0.203	17.883	165.344	-22.644	-64.59	-20.77	-123.39	-81.928	-23.030	9.702	0.45486	-0.50992	0.37949	-0.62369	30.7	13111	100
2025-3-27 18:49:28.879	WT901BLE68-01(48591DE3C19B)	-0.646	-0.949	0.157	10.559	113.770	-3.052	-64.07	-20.03	-124.65	-81.928	-23.030	9.702	0.45486	-0.50992	0.37949	-0.62369	30.7	13111	100
2025-3-27 18:49:28.879	WT901BLE68-01(48591DE3C19B)	-0.641	-0.949	0.157	10.559	113.770	-3.052	-63.72	-19.31	-125.61	-81.928	-23.030	9.702	0.45486	-0.50992	0.37949	-0.62369	30.7	13111	100
2025-3-27 18:49:28.911	WT901BLE68-01(48591DE3C19B)	-0.641	-0.959	0.138	0.366	62.256	11.047	-63.52	-18.64	-126.28	-81.928	-23.030	9.702	0.45486	-0.50992	0.37949	-0.62369	30.7	13111	100
2025-3-27 18:49:28.911	WT901BLE68-01(48591DE3C19B)	-0.620	-0.959	0.138	0.366	62.256	11.047	-63.47	-18.03	-126.67	-81.928	-23.030	9.702	0.45486	-0.50992	0.37949	-0.62369	30.7	13111	100
2025-3-27 18:49:28.911	WT901BLE68-01(48591DE3C19B)	-0.620	-1.015	0.157	-11.230	19.714	20.264	-63.56	-17.46	-126.83	-53.116	-52.822	3.724	0.45486	-0.50992	0.37949	-0.62369	30.7	13111	100
2025-3-27 18:49:28.911	WT901BLE68-01(48591DE3C19B)	-0.579	-1.015	0.157	-11.230	19.714	20.264	-63.78	-16.95	-126.77	-53.116	-52.822	3.724	0.45486	-0.50992	0.37949	-0.62369	30.7	13111	100
