time	DeviceName	AccX(g)	AccY(g)	AccZ(g)	AsX(°/s)	AsY(°/s)	AsZ(°/s)	AngleX(°)	AngleY(°)	AngleZ(°)	HX(uT)	HY(uT)	HZ(uT)	Q0()	Q1()	Q2()	Q3()	Temperature(°C)	Version()	Battery level(%)
2025-3-27 18:38:1.769	WT901BLE68-01(48591DE3C19B)	-0.288	-0.908	0.318	-0.183	0.061	-6.165	-70.33	15.10	-32.00	-56.938	-18.326	83.790	0.80063	-0.51788	0.26276	-0.14713	31.0	13111	100
2025-3-27 18:38:1.769	WT901BLE68-01(48591DE3C19B)	-0.288	-0.908	0.318	-0.183	0.061	-6.165	-70.35	15.05	-32.01	-56.938	-18.326	83.790	0.80063	-0.51788	0.26276	-0.14713	31.0	13111	100
2025-3-27 18:38:1.769	WT901BLE68-01(48591DE3C19B)	-0.288	-0.905	0.316	-0.183	-0.366	-5.188	-70.35	15.00	-32.01	-56.938	-18.326	83.790	0.80063	-0.51788	0.26276	-0.14713	31.0	13111	100
2025-3-27 18:38:1.769	WT901BLE68-01(48591DE3C19B)	-0.288	-0.905	0.316	-0.183	-0.366	-5.188	-70.36	14.96	-32.02	-56.938	-18.326	83.790	0.80063	-0.51788	0.26276	-0.14713	31.0	13111	100
2025-3-27 18:38:1.798	WT901BLE68-01(48591DE3C19B)	-0.288	-0.905	0.316	-0.488	-0.793	-4.211	-70.37	14.92	-32.02	-56.938	-18.326	83.790	0.80063	-0.51788	0.26276	-0.14713	31.0	13111	100
2025-3-27 18:38:1.799	WT901BLE68-01(48591DE3C19B)	-0.290	-0.905	0.316	-0.488	-0.793	-4.211	-70.38	14.89	-32.01	-56.938	-18.326	83.790	0.80063	-0.51788	0.26276	-0.14713	31.0	13111	100
2025-3-27 18:38:1.799	WT901BLE68-01(48591DE3C19B)	-0.290	-0.914	0.319	-0.854	-1.831	-3.174	-70.39	14.86	-32.00	-56.938	-18.326	83.790	0.80063	-0.51788	0.26276	-0.14713	31.0	13111	100
2025-3-27 18:38:1.799	WT901BLE68-01(48591DE3C19B)	-0.290	-0.914	0.319	-0.854	-1.831	-3.174	-70.39	14.83	-31.98	-56.938	-18.326	83.790	0.80063	-0.51788	0.26276	-0.14713	31.0	13111	100
2025-3-27 18:38:1.831	WT901BLE68-01(48591DE3C19B)	-0.290	-0.917	0.318	-0.793	-2.991	-2.319	-70.41	14.80	-31.96	-56.938	-18.326	83.790	0.80063	-0.51788	0.26276	-0.14713	31.0	13111	100
2025-3-27 18:38:1.832	WT901BLE68-01(48591DE3C19B)	-0.289	-0.917	0.318	-0.793	-2.991	-2.319	-70.41	14.79	-31.93	-56.938	-18.326	83.790	0.80063	-0.51788	0.26276	-0.14713	31.0	13111	100
2025-3-27 18:38:1.832	WT901BLE68-01(48591DE3C19B)	-0.289	-0.913	0.316	-0.916	-4.578	-1.648	-70.41	14.77	-31.88	-56.938	-18.326	83.790	0.80063	-0.51788	0.26276	-0.14713	31.0	13111	100
2025-3-27 18:38:1.832	WT901BLE68-01(48591DE3C19B)	-0.290	-0.913	0.316	-0.916	-4.578	-1.648	-70.41	14.74	-31.83	-56.938	-18.326	83.790	0.80063	-0.51788	0.26276	-0.14713	31.0	13111	100
2025-3-27 18:38:1.889	WT901BLE68-01(48591DE3C19B)	-0.290	-0.901	0.311	-1.404	-7.202	-1.099	-70.41	14.72	-31.76	-56.938	-18.326	83.790	0.80063	-0.51788	0.26276	-0.14713	31.0	13111	100
2025-3-27 18:38:1.889	WT901BLE68-01(48591DE3C19B)	-0.289	-0.901	0.311	-1.404	-7.202	-1.099	-70.41	14.70	-31.68	-57.330	-18.424	83.986	0.80063	-0.51788	0.26276	-0.14713	31.0	13111	100
2025-3-27 18:38:1.889	WT901BLE68-01(48591DE3C19B)	-0.289	-0.902	0.305	-2.563	-10.498	-0.671	-70.42	14.67	-31.57	-57.330	-18.424	83.986	0.80063	-0.51788	0.26276	-0.14713	31.0	13111	100
2025-3-27 18:38:1.889	WT901BLE68-01(48591DE3C19B)	-0.289	-0.902	0.305	-2.563	-10.498	-0.671	-70.42	14.64	-31.46	-57.330	-18.424	83.986	0.80063	-0.51788	0.26276	-0.14713	31.0	13111	100
2025-3-27 18:38:1.920	WT901BLE68-01(48591DE3C19B)	-0.289	-0.895	0.301	-3.357	-13.794	-0.305	-70.42	14.60	-31.31	-57.330	-18.424	83.986	0.80063	-0.51788	0.26276	-0.14713	31.0	13111	100
2025-3-27 18:38:1.920	WT901BLE68-01(48591DE3C19B)	-0.288	-0.895	0.301	-3.357	-13.794	-0.305	-70.43	14.57	-31.17	-57.330	-18.424	83.986	0.80063	-0.51788	0.26276	-0.14713	31.0	13111	100
2025-3-27 18:38:1.920	WT901BLE68-01(48591DE3C19B)	-0.288	-0.891	0.297	-4.944	-18.372	0.061	-70.43	14.52	-30.98	-57.330	-18.424	83.986	0.80063	-0.51788	0.26276	-0.14713	31.0	13111	100
2025-3-27 18:38:1.920	WT901BLE68-01(48591DE3C19B)	-0.286	-0.891	0.297	-4.944	-18.372	0.061	-70.44	14.47	-30.79	-57.330	-18.424	83.986	0.80063	-0.51788	0.26276	-0.14713	31.0	13111	100
2025-3-27 18:38:2.9	WT901BLE68-01(48591DE3C19B)	-0.286	-0.887	0.288	-6.348	-23.010	0.488	-70.46	14.41	-30.56	-57.330	-18.424	83.986	0.80063	-0.51788	0.26276	-0.14713	31.0	13111	100
2025-3-27 18:38:2.10	WT901BLE68-01(48591DE3C19B)	-0.291	-0.887	0.288	-6.348	-23.010	0.488	-70.47	14.35	-30.33	-57.330	-18.424	83.986	0.80063	-0.51788	0.26276	-0.14713	31.0	13111	100
2025-3-27 18:38:2.10	WT901BLE68-01(48591DE3C19B)	-0.291	-0.902	0.270	-8.972	-29.419	1.038	-70.49	14.28	-30.04	-57.330	-18.424	83.986	0.80063	-0.51788	0.26276	-0.14713	31.0	13111	100
2025-3-27 18:38:2.10	WT901BLE68-01(48591DE3C19B)	-0.292	-0.902	0.270	-8.972	-29.419	1.038	-70.52	14.21	-29.74	-57.330	-18.424	83.986	0.80063	-0.51788	0.26276	-0.14713	31.0	13111	100
2025-3-27 18:38:2.11	WT901BLE68-01(48591DE3C19B)	-0.292	-0.939	0.258	-12.512	-37.598	0.427	-70.56	14.11	-29.37	-57.330	-18.424	83.986	0.80063	-0.51788	0.26276	-0.14713	31.0	13111	100
2025-3-27 18:38:2.11	WT901BLE68-01(48591DE3C19B)	-0.281	-0.939	0.258	-12.512	-37.598	0.427	-70.60	14.00	-29.00	-57.330	-18.424	83.986	0.80063	-0.51788	0.26276	-0.14713	31.0	13111	100
2025-3-27 18:38:2.11	WT901BLE68-01(48591DE3C19B)	-0.281	-0.979	0.261	-15.991	-45.715	-2.502	-70.67	13.84	-28.56	-57.330	-18.424	83.986	0.80063	-0.51788	0.26276	-0.14713	31.0	13111	100
2025-3-27 18:38:2.11	WT901BLE68-01(48591DE3C19B)	-0.245	-0.979	0.261	-15.991	-45.715	-2.502	-70.74	13.68	-28.13	-57.330	-18.424	83.986	0.80063	-0.51788	0.26276	-0.14713	31.0	13111	100
2025-3-27 18:38:2.41	WT901BLE68-01(48591DE3C19B)	-0.245	-1.006	0.270	-19.714	-53.650	-7.202	-70.83	13.46	-27.64	-57.330	-18.424	83.986	0.80063	-0.51788	0.26276	-0.14713	31.0	13111	100
2025-3-27 18:38:2.41	WT901BLE68-01(48591DE3C19B)	-0.201	-1.006	0.270	-19.714	-53.650	-7.202	-70.93	13.23	-27.15	-57.330	-18.424	83.986	0.80063	-0.51788	0.26276	-0.14713	31.0	13111	100
2025-3-27 18:38:2.42	WT901BLE68-01(48591DE3C19B)	-0.201	-1.039	0.263	-23.193	-59.448	-13.306	-71.05	12.93	-26.63	-57.330	-18.424	83.986	0.80063	-0.51788	0.26276	-0.14713	31.0	13111	100
2025-3-27 18:38:2.42	WT901BLE68-01(48591DE3C19B)	-0.138	-1.039	0.263	-23.193	-59.448	-13.306	-71.18	12.62	-26.11	-57.330	-18.424	83.986	0.80063	-0.51788	0.26276	-0.14713	31.0	13111	100
2025-3-27 18:38:2.99	WT901BLE68-01(48591DE3C19B)	-0.138	-1.067	0.272	-26.794	-61.096	-20.935	-71.35	12.24	-25.60	-57.330	-18.424	83.986	0.80063	-0.51788	0.26276	-0.14713	31.0	13111	100
2025-3-27 18:38:2.99	WT901BLE68-01(48591DE3C19B)	-0.149	-1.067	0.272	-26.794	-61.096	-20.935	-71.53	11.86	-25.10	-57.330	-18.424	83.986	0.80060	-0.55066	0.20563	-0.11581	31.0	13111	100
2025-3-27 18:38:2.99	WT901BLE68-01(48591DE3C19B)	-0.149	-1.104	0.318	-25.940	-59.753	-27.588	-71.70	11.41	-24.64	-57.330	-18.424	83.986	0.80060	-0.55066	0.20563	-0.11581	31.0	13111	100
2025-3-27 18:38:2.99	WT901BLE68-01(48591DE3C19B)	-0.156	-1.104	0.318	-25.940	-59.753	-27.588	-71.88	10.98	-24.18	-57.330	-18.424	83.986	0.80060	-0.55066	0.20563	-0.11581	31.0	13111	100
2025-3-27 18:38:2.129	WT901BLE68-01(48591DE3C19B)	-0.156	-1.088	0.372	-21.118	-67.810	-31.189	-71.99	10.48	-23.65	-57.330	-18.424	83.986	0.80060	-0.55066	0.20563	-0.11581	31.0	13111	100
2025-3-27 18:38:2.129	WT901BLE68-01(48591DE3C19B)	-0.093	-1.088	0.372	-21.118	-67.810	-31.189	-72.11	9.98	-23.13	-57.330	-18.424	83.986	0.80060	-0.55066	0.20563	-0.11581	31.0	13111	100
2025-3-27 18:38:2.129	WT901BLE68-01(48591DE3C19B)	-0.093	-1.032	0.366	-13.306	-70.007	-32.166	-72.16	9.46	-22.59	-57.330	-18.424	83.986	0.80060	-0.55066	0.20563	-0.11581	31.0	13111	100
2025-3-27 18:38:2.129	WT901BLE68-01(48591DE3C19B)	0.001	-1.032	0.366	-13.306	-70.007	-32.166	-72.20	8.95	-22.06	-57.330	-18.424	83.986	0.80060	-0.55066	0.20563	-0.11581	31.0	13111	100
2025-3-27 18:38:2.160	WT901BLE68-01(48591DE3C19B)	0.001	-0.926	0.307	-4.395	-57.068	-30.273	-72.18	8.49	-21.65	-57.330	-18.424	83.986	0.80060	-0.55066	0.20563	-0.11581	31.0	13111	100
2025-3-27 18:38:2.160	WT901BLE68-01(48591DE3C19B)	0.111	-0.926	0.307	-4.395	-57.068	-30.273	-72.16	8.04	-21.25	-57.330	-18.424	83.986	0.80060	-0.55066	0.20563	-0.11581	31.0	13111	100
2025-3-27 18:38:2.160	WT901BLE68-01(48591DE3C19B)	0.111	-0.825	0.250	2.258	-30.334	-28.992	-72.11	7.66	-21.10	-57.330	-18.424	83.986	0.80060	-0.55066	0.20563	-0.11581	31.0	13111	100
2025-3-27 18:38:2.160	WT901BLE68-01(48591DE3C19B)	0.179	-0.825	0.250	2.258	-30.334	-28.992	-72.07	7.29	-20.96	-57.330	-18.424	83.986	0.80060	-0.55066	0.20563	-0.11581	31.0	13111	100
2025-3-27 18:38:2.221	WT901BLE68-01(48591DE3C19B)	0.179	-0.788	0.246	4.517	2.930	-28.809	-72.05	7.01	-21.14	-57.330	-18.424	83.986	0.80060	-0.55066	0.20563	-0.11581	31.0	13111	100
2025-3-27 18:38:2.221	WT901BLE68-01(48591DE3C19B)	0.177	-0.788	0.246	4.517	2.930	-28.809	-72.02	6.72	-21.32	-57.330	-18.424	83.986	0.80060	-0.55066	0.20563	-0.11581	31.0	13111	100
2025-3-27 18:38:2.221	WT901BLE68-01(48591DE3C19B)	0.177	-0.849	0.293	3.906	39.734	-28.687	-72.04	6.55	-21.85	-57.330	-18.424	83.986	0.80060	-0.55066	0.20563	-0.11581	31.0	13111	100
2025-3-27 18:38:2.221	WT901BLE68-01(48591DE3C19B)	0.049	-0.849	0.293	3.906	39.734	-28.687	-72.06	6.37	-22.38	-57.330	-18.424	83.986	0.80060	-0.55066	0.20563	-0.11581	31.0	13111	100
2025-3-27 18:38:2.249	WT901BLE68-01(48591DE3C19B)	0.049	-0.977	0.362	2.930	64.453	-27.954	-72.11	6.26	-23.15	-57.330	-18.424	83.986	0.80060	-0.55066	0.20563	-0.11581	31.0	13111	100
2025-3-27 18:38:2.250	WT901BLE68-01(48591DE3C19B)	-0.082	-0.977	0.362	2.930	64.453	-27.954	-72.16	6.16	-23.92	-57.330	-18.424	83.986	0.80060	-0.55066	0.20563	-0.11581	31.0	13111	100
2025-3-27 18:38:2.250	WT901BLE68-01(48591DE3C19B)	-0.082	-1.054	0.421	4.272	70.801	-26.733	-72.20	6.08	-24.74	-57.330	-18.424	83.986	0.80060	-0.55066	0.20563	-0.11581	31.0	13111	100
2025-3-27 18:38:2.250	WT901BLE68-01(48591DE3C19B)	-0.182	-1.054	0.421	4.272	70.801	-26.733	-72.24	6.01	-25.55	-57.330	-18.424	83.986	0.80060	-0.55066	0.20563	-0.11581	31.0	13111	100
2025-3-27 18:38:2.287	WT901BLE68-01(48591DE3C19B)	-0.182	-1.039	0.427	5.920	64.270	-25.818	-72.24	5.93	-26.29	-57.330	-18.424	83.986	0.80060	-0.55066	0.20563	-0.11581	31.0	13111	100
2025-3-27 18:38:2.287	WT901BLE68-01(48591DE3C19B)	-0.254	-1.039	0.427	5.920	64.270	-25.818	-72.25	5.86	-27.03	-57.330	-18.424	83.986	0.80060	-0.55066	0.20563	-0.11581	31.0	13111	100
2025-3-27 18:38:2.287	WT901BLE68-01(48591DE3C19B)	-0.254	-0.969	0.399	5.493	44.678	-24.170	-72.23	5.75	-27.56	-51.352	-20.090	84.672	0.80060	-0.55066	0.20563	-0.11581	31.0	13111	100
2025-3-27 18:38:2.287	WT901BLE68-01(48591DE3C19B)	-0.264	-0.969	0.399	5.493	44.678	-24.170	-72.21	5.65	-28.10	-51.352	-20.090	84.672	0.80060	-0.55066	0.20563	-0.11581	31.0	13111	100
2025-3-27 18:38:2.340	WT901BLE68-01(48591DE3C19B)	-0.269	-0.918	0.361	4.211	21.667	-22.705	-72.18	5.50	-28.40	-51.352	-20.090	84.672	0.80060	-0.55066	0.20563	-0.11581	31.0	13111	100
2025-3-27 18:38:2.340	WT901BLE68-01(48591DE3C19B)	-0.269	-0.871	0.345	4.456	1.770	-20.569	-72.14	5.33	-28.60	-51.352	-20.090	84.672	0.80060	-0.55066	0.20563	-0.11581	31.0	13111	100
2025-3-27 18:38:2.340	WT901BLE68-01(48591DE3C19B)	-0.245	-0.871	0.345	4.456	1.770	-20.569	-72.09	5.16	-28.71	-51.352	-20.090	84.672	0.80060	-0.55066	0.20563	-0.11581	31.0	13111	100
2025-3-27 18:38:2.340	WT901BLE68-01(48591DE3C19B)	-0.245	-0.825	0.354	4.578	-12.390	-20.264	-72.03	4.97	-28.73	-51.352	-20.090	84.672	0.80060	-0.55066	0.20563	-0.11581	31.0	13111	100
2025-3-27 18:38:2.368	WT901BLE68-01(48591DE3C19B)	-0.219	-0.825	0.354	4.578	-12.390	-20.264	-71.96	4.76	-28.70	-51.352	-20.090	84.672	0.80060	-0.55066	0.20563	-0.11581	31.0	13111	100
2025-3-27 18:38:2.369	WT901BLE68-01(48591DE3C19B)	-0.219	-0.790	0.369	5.066	-15.564	-21.179	-71.89	4.54	-28.65	-51.352	-20.090	84.672	0.80060	-0.55066	0.20563	-0.11581	31.0	13111	100
2025-3-27 18:38:2.369	WT901BLE68-01(48591DE3C19B)	-0.225	-0.790	0.369	5.066	-15.564	-21.179	-71.81	4.32	-28.58	-51.352	-20.090	84.672	0.80060	-0.55066	0.20563	-0.11581	31.0	13111	100
2025-3-27 18:38:2.369	WT901BLE68-01(48591DE3C19B)	-0.225	-0.764	0.380	4.944	-12.207	-24.475	-71.74	4.10	-28.53	-51.352	-20.090	84.672	0.80060	-0.55066	0.20563	-0.11581	31.0	13111	100
2025-3-27 18:38:2.399	WT901BLE68-01(48591DE3C19B)	-0.244	-0.764	0.380	4.944	-12.207	-24.475	-71.66	3.87	-28.51	-51.352	-20.090	84.672	0.80060	-0.55066	0.20563	-0.11581	31.0	13111	100
2025-3-27 18:38:2.400	WT901BLE68-01(48591DE3C19B)	-0.244	-0.762	0.387	4.456	-4.883	-30.334	-71.59	3.63	-28.53	-51.352	-20.090	84.672	0.80060	-0.55066	0.20563	-0.11581	31.0	13111	100
2025-3-27 18:38:2.400	WT901BLE68-01(48591DE3C19B)	-0.297	-0.762	0.387	4.456	-4.883	-30.334	-71.52	3.37	-28.59	-51.352	-20.090	84.672	0.80060	-0.55066	0.20563	-0.11581	31.0	13111	100
2025-3-27 18:38:2.400	WT901BLE68-01(48591DE3C19B)	-0.297	-0.769	0.387	4.822	1.038	-36.072	-71.44	3.10	-28.69	-51.352	-20.090	84.672	0.80060	-0.55066	0.20563	-0.11581	31.0	13111	100
2025-3-27 18:38:2.459	WT901BLE68-01(48591DE3C19B)	-0.345	-0.769	0.387	4.822	1.038	-36.072	-71.37	2.82	-28.82	-51.352	-20.090	84.672	0.80060	-0.55066	0.20563	-0.11581	31.0	13111	100
2025-3-27 18:38:2.460	WT901BLE68-01(48591DE3C19B)	-0.345	-0.776	0.379	4.333	3.418	-41.260	-71.30	2.52	-28.98	-51.352	-20.090	84.672	0.80060	-0.55066	0.20563	-0.11581	31.0	13111	100
2025-3-27 18:38:2.460	WT901BLE68-01(48591DE3C19B)	-0.399	-0.776	0.379	4.333	3.418	-41.260	-71.24	2.21	-29.14	-51.352	-20.090	84.672	0.80060	-0.55066	0.20563	-0.11581	31.0	13111	100
2025-3-27 18:38:2.460	WT901BLE68-01(48591DE3C19B)	-0.399	-0.821	0.356	1.038	1.709	-45.105	-71.18	1.89	-29.31	-51.352	-20.090	84.672	0.80060	-0.55066	0.20563	-0.11581	31.0	13111	100
2025-3-27 18:38:2.488	WT901BLE68-01(48591DE3C19B)	-0.442	-0.821	0.356	1.038	1.709	-45.105	-71.15	1.55	-29.46	-51.352	-20.090	84.672	0.78827	-0.55981	0.15781	-0.20053	31.0	13111	100
2025-3-27 18:38:2.488	WT901BLE68-01(48591DE3C19B)	-0.442	-0.933	0.330	-4.333	-0.610	-49.622	-71.14	1.20	-29.61	-51.352	-20.090	84.672	0.78827	-0.55981	0.15781	-0.20053	31.0	13111	100
2025-3-27 18:38:2.488	WT901BLE68-01(48591DE3C19B)	-0.500	-0.933	0.330	-4.333	-0.610	-49.622	-71.16	0.83	-29.75	-51.352	-20.090	84.672	0.78827	-0.55981	0.15781	-0.20053	31.0	13111	100
2025-3-27 18:38:2.488	WT901BLE68-01(48591DE3C19B)	-0.500	-1.074	0.331	-9.399	-4.211	-53.467	-71.21	0.44	-29.88	-51.352	-20.090	84.672	0.78827	-0.55981	0.15781	-0.20053	31.0	13111	100
2025-3-27 18:38:2.520	WT901BLE68-01(48591DE3C19B)	-0.531	-1.074	0.331	-9.399	-4.211	-53.467	-71.28	0.03	-29.99	-51.352	-20.090	84.672	0.78827	-0.55981	0.15781	-0.20053	31.0	13111	100
2025-3-27 18:38:2.520	WT901BLE68-01(48591DE3C19B)	-0.531	-1.188	0.343	-13.367	-10.132	-54.626	-71.38	-0.38	-30.07	-51.352	-20.090	84.672	0.78827	-0.55981	0.15781	-0.20053	31.0	13111	100
2025-3-27 18:38:2.520	WT901BLE68-01(48591DE3C19B)	-0.522	-1.188	0.343	-13.367	-10.132	-54.626	-71.51	-0.80	-30.12	-51.352	-20.090	84.672	0.78827	-0.55981	0.15781	-0.20053	31.0	13111	100
2025-3-27 18:38:2.520	WT901BLE68-01(48591DE3C19B)	-0.522	-1.247	0.347	-17.944	-12.268	-51.880	-71.66	-1.21	-30.15	-51.352	-20.090	84.672	0.78827	-0.55981	0.15781	-0.20053	31.0	13111	100
2025-3-27 18:38:2.588	WT901BLE68-01(48591DE3C19B)	-0.525	-1.247	0.347	-17.944	-12.268	-51.880	-71.83	-1.61	-30.17	-51.352	-20.090	84.672	0.78827	-0.55981	0.15781	-0.20053	31.0	13111	100
2025-3-27 18:38:2.588	WT901BLE68-01(48591DE3C19B)	-2.101	-1.312	0.344	-24.170	-7.446	-45.166	-72.04	-1.97	-30.20	-51.352	-20.090	84.672	0.78827	-0.55981	0.15781	-0.20053	31.0	13111	100
2025-3-27 18:38:2.588	WT901BLE68-01(48591DE3C19B)	-0.539	-5.249	1.378	-24.170	-7.446	-45.166	-72.28	-2.29	-30.23	-51.352	-20.090	84.672	0.78827	-0.55981	0.15781	-0.20053	31.0	13111	100
2025-3-27 18:38:2.588	WT901BLE68-01(48591DE3C19B)	-0.539	-1.409	0.344	-29.114	-9.644	-35.156	-72.56	-2.55	-30.25	-51.352	-20.090	84.672	0.78827	-0.55981	0.15781	-0.20053	31.0	13111	100
2025-3-27 18:38:2.609	WT901BLE68-01(48591DE3C19B)	-0.526	-1.409	0.344	-29.114	-9.644	-35.156	-72.86	-2.78	-30.23	-51.352	-20.090	84.672	0.78827	-0.55981	0.15781	-0.20053	31.0	13111	100
2025-3-27 18:38:2.609	WT901BLE68-01(48591DE3C19B)	-0.526	-1.501	0.373	-29.907	-17.151	-22.644	-73.16	-2.95	-30.16	-51.352	-20.090	84.672	0.78827	-0.55981	0.15781	-0.20053	31.0	13111	100
2025-3-27 18:38:2.609	WT901BLE68-01(48591DE3C19B)	-0.538	-1.501	0.373	-29.907	-17.151	-22.644	-73.48	-3.08	-30.03	-51.352	-20.090	84.672	0.78827	-0.55981	0.15781	-0.20053	31.0	13111	100
2025-3-27 18:38:2.609	WT901BLE68-01(48591DE3C19B)	-0.538	-1.461	0.398	-25.330	-14.648	-4.089	-73.76	-3.11	-29.89	-51.352	-20.090	84.672	0.78827	-0.55981	0.15781	-0.20053	31.0	13111	100
2025-3-27 18:38:2.641	WT901BLE68-01(48591DE3C19B)	-0.576	-1.461	0.398	-25.330	-14.648	-4.089	-74.03	-3.05	-29.74	-51.352	-20.090	84.672	0.78827	-0.55981	0.15781	-0.20053	31.0	13111	100
2025-3-27 18:38:2.641	WT901BLE68-01(48591DE3C19B)	-0.576	-1.280	0.375	-20.081	-18.188	18.555	-74.27	-2.88	-29.54	-51.352	-20.090	84.672	0.78827	-0.55981	0.15781	-0.20053	31.0	13111	100
2025-3-27 18:38:2.641	WT901BLE68-01(48591DE3C19B)	-0.583	-1.280	0.375	-20.081	-18.188	18.555	-74.48	-2.61	-29.30	-51.352	-20.090	84.672	0.78827	-0.55981	0.15781	-0.20053	31.0	13111	100
2025-3-27 18:38:2.641	WT901BLE68-01(48591DE3C19B)	-0.583	-1.050	0.312	-15.503	-34.912	47.607	-74.68	-2.22	-28.93	-51.352	-20.090	84.672	0.78827	-0.55981	0.15781	-0.20053	31.0	13111	100
2025-3-27 18:38:2.699	WT901BLE68-01(48591DE3C19B)	-0.553	-1.050	0.312	-15.503	-34.912	47.607	-74.85	-1.72	-28.45	-51.352	-20.090	84.672	0.78827	-0.55981	0.15781	-0.20053	31.0	13111	100
2025-3-27 18:38:2.699	WT901BLE68-01(48591DE3C19B)	-0.553	-0.854	0.238	-14.587	-56.763	80.322	-75.01	-1.08	-27.83	-54.586	-21.854	82.222	0.78827	-0.55981	0.15781	-0.20053	31.0	13111	100
2025-3-27 18:38:2.699	WT901BLE68-01(48591DE3C19B)	-0.468	-0.854	0.238	-14.587	-56.763	80.322	-75.16	-0.31	-27.06	-54.586	-21.854	82.222	0.78827	-0.55981	0.15781	-0.20053	31.0	13111	100
2025-3-27 18:38:2.699	WT901BLE68-01(48591DE3C19B)	-0.468	-0.843	0.177	-17.944	-80.750	111.023	-75.32	0.57	-26.14	-54.586	-21.854	82.222	0.78827	-0.55981	0.15781	-0.20053	31.0	13111	100
2025-3-27 18:38:2.728	WT901BLE68-01(48591DE3C19B)	-0.380	-0.843	0.177	-17.944	-80.750	111.023	-75.48	1.57	-25.07	-54.586	-21.854	82.222	0.78827	-0.55981	0.15781	-0.20053	31.0	13111	100
2025-3-27 18:38:2.728	WT901BLE68-01(48591DE3C19B)	-0.380	-0.930	0.111	-15.381	-98.755	136.658	-75.59	2.68	-23.89	-54.586	-21.854	82.222	0.78827	-0.55981	0.15781	-0.20053	31.0	13111	100
2025-3-27 18:38:2.729	WT901BLE68-01(48591DE3C19B)	-0.299	-0.930	0.111	-15.381	-98.755	136.658	-75.67	3.87	-22.59	-54.586	-21.854	82.222	0.78827	-0.55981	0.15781	-0.20053	31.0	13111	100
2025-3-27 18:38:2.729	WT901BLE68-01(48591DE3C19B)	-0.299	-1.000	0.095	-10.315	-109.680	154.541	-75.69	5.14	-21.23	-54.586	-21.854	82.222	0.78827	-0.55981	0.15781	-0.20053	31.0	13111	100
2025-3-27 18:38:2.759	WT901BLE68-01(48591DE3C19B)	-0.266	-1.000	0.095	-10.315	-109.680	154.541	-75.65	6.47	-19.80	-54.586	-21.854	82.222	0.78827	-0.55981	0.15781	-0.20053	31.0	13111	100
2025-3-27 18:38:2.760	WT901BLE68-01(48591DE3C19B)	-0.266	-1.074	0.100	-4.822	-113.037	164.673	-75.55	7.83	-18.34	-54.586	-21.854	82.222	0.78827	-0.55981	0.15781	-0.20053	31.0	13111	100
2025-3-27 18:38:2.760	WT901BLE68-01(48591DE3C19B)	-0.233	-1.074	0.100	-4.822	-113.037	164.673	-75.38	9.21	-16.85	-54.586	-21.854	82.222	0.78827	-0.55981	0.15781	-0.20053	31.0	13111	100
2025-3-27 18:38:2.760	WT901BLE68-01(48591DE3C19B)	-0.233	-1.165	0.143	1.343	-109.802	168.518	-75.12	10.63	-15.39	-54.586	-21.854	82.222	0.78827	-0.55981	0.15781	-0.20053	31.0	13111	100
2025-3-27 18:38:2.820	WT901BLE68-01(48591DE3C19B)	-0.192	-1.165	0.143	1.343	-109.802	168.518	-74.83	12.02	-13.92	-54.586	-21.854	82.222	0.78827	-0.55981	0.15781	-0.20053	31.0	13111	100
2025-3-27 18:38:2.820	WT901BLE68-01(48591DE3C19B)	-0.192	-1.282	0.166	10.254	-93.445	170.349	-74.44	13.45	-12.61	-54.586	-21.854	82.222	0.78827	-0.55981	0.15781	-0.20053	31.0	13111	100
2025-3-27 18:38:2.821	WT901BLE68-01(48591DE3C19B)	-0.147	-1.282	0.166	10.254	-93.445	170.349	-74.03	14.86	-11.28	-54.586	-21.854	82.222	0.78827	-0.55981	0.15781	-0.20053	31.0	13111	100
2025-3-27 18:38:2.821	WT901BLE68-01(48591DE3C19B)	-0.147	-1.255	0.123	24.292	-66.284	171.387	-73.51	16.33	-10.22	-54.586	-21.854	82.222	0.78827	-0.55981	0.15781	-0.20053	31.0	13111	100
2025-3-27 18:38:2.851	WT901BLE68-01(48591DE3C19B)	-0.099	-1.255	0.123	24.292	-66.284	171.387	-72.97	17.78	-9.14	-54.586	-21.854	82.222	0.78827	-0.55981	0.15781	-0.20053	31.0	13111	100
2025-3-27 18:38:2.852	WT901BLE68-01(48591DE3C19B)	-0.099	-1.085	0.087	29.663	-34.912	171.387	-72.44	19.30	-8.36	-54.586	-21.854	82.222	0.78827	-0.55981	0.15781	-0.20053	31.0	13111	100
2025-3-27 18:38:2.852	WT901BLE68-01(48591DE3C19B)	-0.116	-1.085	0.087	29.663	-34.912	171.387	-71.89	20.79	-7.56	-54.586	-21.854	82.222	0.78827	-0.55981	0.15781	-0.20053	31.0	13111	100
2025-3-27 18:38:2.852	WT901BLE68-01(48591DE3C19B)	-0.116	-0.998	0.063	26.672	-6.836	170.410	-71.46	22.35	-7.05	-54.586	-21.854	82.222	0.78827	-0.55981	0.15781	-0.20053	31.0	13111	100
2025-3-27 18:38:2.886	WT901BLE68-01(48591DE3C19B)	-0.173	-0.998	0.063	26.672	-6.836	170.410	-71.02	23.88	-6.51	-54.586	-21.854	82.222	0.78827	-0.55981	0.15781	-0.20053	31.0	13111	100
2025-3-27 18:38:2.887	WT901BLE68-01(48591DE3C19B)	-0.173	-1.027	0.021	18.616	5.981	169.739	-70.69	25.45	-6.10	-54.586	-21.854	82.222	0.78827	-0.55981	0.15781	-0.20053	31.0	13111	100
2025-3-27 18:38:2.887	WT901BLE68-01(48591DE3C19B)	-0.137	-1.027	0.021	18.616	5.981	169.739	-70.35	27.00	-5.68	-54.586	-21.854	82.222	0.80048	-0.54999	0.21832	0.09488	31.0	13111	100
2025-3-27 18:38:2.887	WT901BLE68-01(48591DE3C19B)	-0.137	-1.079	-0.024	10.681	12.817	166.443	-70.11	28.53	-5.33	-54.586	-21.854	82.222	0.80048	-0.54999	0.21832	0.09488	31.0	13111	100
2025-3-27 18:38:2.939	WT901BLE68-01(48591DE3C19B)	-0.067	-1.079	-0.024	10.681	12.817	166.443	-69.87	30.04	-4.98	-54.586	-21.854	82.222	0.80048	-0.54999	0.21832	0.09488	31.0	13111	100
2025-3-27 18:38:2.939	WT901BLE68-01(48591DE3C19B)	-0.067	-1.121	-0.038	2.136	14.893	158.081	-69.74	31.48	-4.68	-54.586	-21.854	82.222	0.80048	-0.54999	0.21832	0.09488	31.0	13111	100
2025-3-27 18:38:2.939	WT901BLE68-01(48591DE3C19B)	-0.083	-1.121	-0.038	2.136	14.893	158.081	-69.60	32.90	-4.37	-54.586	-21.854	82.222	0.80048	-0.54999	0.21832	0.09488	31.0	13111	100
2025-3-27 18:38:2.939	WT901BLE68-01(48591DE3C19B)	-0.083	-1.237	-0.043	-9.705	-1.343	144.043	-69.50	34.12	-3.94	-54.586	-21.854	82.222	0.80048	-0.54999	0.21832	0.09488	31.0	13111	100
2025-3-27 18:38:2.969	WT901BLE68-01(48591DE3C19B)	-0.024	-1.237	-0.043	-9.705	-1.343	144.043	-69.40	35.34	-3.50	-54.586	-21.854	82.222	0.80048	-0.54999	0.21832	0.09488	31.0	13111	100
2025-3-27 18:38:2.969	WT901BLE68-01(48591DE3C19B)	-0.024	-1.408	-0.046	-17.944	-25.818	116.760	-69.27	36.21	-2.91	-54.586	-21.854	82.222	0.80048	-0.54999	0.21832	0.09488	31.0	13111	100
2025-3-27 18:38:2.969	WT901BLE68-01(48591DE3C19B)	0.114	-1.408	-0.046	-17.944	-25.818	116.760	-69.14	37.06	-2.31	-54.586	-21.854	82.222	0.80048	-0.54999	0.21832	0.09488	31.0	13111	100
2025-3-27 18:38:2.969	WT901BLE68-01(48591DE3C19B)	0.114	-1.505	-0.018	-20.325	-41.931	81.665	-69.01	37.52	-1.68	-54.586	-21.854	82.222	0.80048	-0.54999	0.21832	0.09488	31.0	13111	100
2025-3-27 18:38:2.999	WT901BLE68-01(48591DE3C19B)	0.221	-1.505	-0.018	-20.325	-41.931	81.665	-68.88	37.97	-1.06	-54.586	-21.854	82.222	0.80048	-0.54999	0.21832	0.09488	31.0	13111	100
2025-3-27 18:38:2.999	WT901BLE68-01(48591DE3C19B)	0.221	-1.506	0.021	-20.874	-52.307	44.922	-68.79	38.03	-0.48	-54.586	-21.854	82.222	0.80048	-0.54999	0.21832	0.09488	31.0	13111	100
2025-3-27 18:38:3.0	WT901BLE68-01(48591DE3C19B)	0.320	-1.506	0.021	-20.874	-52.307	44.922	-68.70	38.09	0.07	-54.586	-21.854	82.222	0.80048	-0.54999	0.21832	0.09488	31.0	13111	100
2025-3-27 18:38:3.0	WT901BLE68-01(48591DE3C19B)	0.320	-1.541	0.102	-17.334	-50.720	7.385	-68.69	37.80	0.44	-54.586	-21.854	82.222	0.80048	-0.54999	0.21832	0.09488	31.0	13111	100
2025-3-27 18:38:3.60	WT901BLE68-01(48591DE3C19B)	0.400	-1.541	0.102	-17.334	-50.720	7.385	-68.70	37.50	0.79	-54.586	-21.854	82.222	0.80048	-0.54999	0.21832	0.09488	31.0	13111	100
2025-3-27 18:38:3.60	WT901BLE68-01(48591DE3C19B)	0.400	-1.530	0.152	-6.287	-31.250	-25.879	-68.82	36.95	0.76	-54.586	-21.854	82.222	0.80048	-0.54999	0.21832	0.09488	31.0	13111	100
2025-3-27 18:38:3.60	WT901BLE68-01(48591DE3C19B)	0.449	-1.530	0.152	-6.287	-31.250	-25.879	-68.95	36.41	0.73	-54.586	-21.854	82.222	0.80048	-0.54999	0.21832	0.09488	31.0	13111	100
2025-3-27 18:38:3.60	WT901BLE68-01(48591DE3C19B)	0.449	-1.488	0.126	3.601	2.869	-58.228	-69.30	35.68	0.15	-54.586	-21.854	82.222	0.80048	-0.54999	0.21832	0.09488	31.0	13111	100
2025-3-27 18:38:3.89	WT901BLE68-01(48591DE3C19B)	0.416	-1.488	0.126	3.601	2.869	-58.228	-69.63	34.94	-0.40	-54.586	-21.854	82.222	0.80048	-0.54999	0.21832	0.09488	31.0	13111	100
2025-3-27 18:38:3.89	WT901BLE68-01(48591DE3C19B)	0.416	-1.400	0.056	12.573	44.373	-87.524	-70.20	34.07	-1.54	-54.586	-21.854	82.222	0.80048	-0.54999	0.21832	0.09488	31.0	13111	100
2025-3-27 18:38:3.89	WT901BLE68-01(48591DE3C19B)	0.307	-1.400	0.056	12.573	44.373	-87.524	-70.74	33.18	-2.65	-54.586	-21.854	82.222	0.80048	-0.54999	0.21832	0.09488	31.0	13111	100
2025-3-27 18:38:3.89	WT901BLE68-01(48591DE3C19B)	0.307	-1.216	0.043	17.761	75.500	-110.168	-71.43	32.18	-4.18	-42.140	-29.988	69.972	0.80048	-0.54999	0.21832	0.09488	31.0	13111	100
2025-3-27 18:38:3.122	WT901BLE68-01(48591DE3C19B)	0.198	-1.216	0.043	17.761	75.500	-110.168	-72.08	31.16	-5.66	-42.140	-29.988	69.972	0.80048	-0.54999	0.21832	0.09488	31.0	13111	100
2025-3-27 18:38:3.122	WT901BLE68-01(48591DE3C19B)	0.198	-1.081	0.066	19.043	88.623	-126.099	-72.78	30.03	-7.31	-42.140	-29.988	69.972	0.80048	-0.54999	0.21832	0.09488	31.0	13111	100
2025-3-27 18:38:3.122	WT901BLE68-01(48591DE3C19B)	0.109	-1.081	0.066	19.043	88.623	-126.099	-73.43	28.87	-8.91	-42.140	-29.988	69.972	0.80048	-0.54999	0.21832	0.09488	31.0	13111	100
2025-3-27 18:38:3.122	WT901BLE68-01(48591DE3C19B)	0.109	-1.049	0.123	16.479	92.163	-138.855	-74.09	27.60	-10.55	-42.140	-29.988	69.972	0.80048	-0.54999	0.21832	0.09488	31.0	13111	100
2025-3-27 18:38:3.187	WT901BLE68-01(48591DE3C19B)	-0.019	-1.049	0.123	16.479	92.163	-138.855	-74.69	26.32	-12.14	-42.140	-29.988	69.972	0.80048	-0.54999	0.21832	0.09488	31.0	13111	100
2025-3-27 18:38:3.188	WT901BLE68-01(48591DE3C19B)	-0.019	-1.098	0.180	13.611	88.013	-148.193	-75.26	24.93	-13.67	-42.140	-29.988	69.972	0.80048	-0.54999	0.21832	0.09488	31.0	13111	100
2025-3-27 18:38:3.188	WT901BLE68-01(48591DE3C19B)	-0.162	-1.098	0.180	13.611	88.013	-148.193	-75.78	23.55	-15.16	-42.140	-29.988	69.972	0.80048	-0.54999	0.21832	0.09488	31.0	13111	100
2025-3-27 18:38:3.188	WT901BLE68-01(48591DE3C19B)	-0.162	-1.129	0.216	13.000	68.359	-156.982	-76.17	22.03	-16.43	-42.140	-29.988	69.972	0.80048	-0.54999	0.21832	0.09488	31.0	13111	100
2025-3-27 18:38:3.209	WT901BLE68-01(48591DE3C19B)	-0.246	-1.129	0.216	13.000	68.359	-156.982	-76.53	20.52	-17.66	-42.140	-29.988	69.972	0.80048	-0.54999	0.21832	0.09488	31.0	13111	100
2025-3-27 18:38:3.209	WT901BLE68-01(48591DE3C19B)	-0.246	-1.083	0.229	10.315	37.720	-167.664	-76.76	18.85	-18.57	-42.140	-29.988	69.972	0.80048	-0.54999	0.21832	0.09488	31.0	13111	100
2025-3-27 18:38:3.209	WT901BLE68-01(48591DE3C19B)	-0.283	-1.083	0.229	10.315	37.720	-167.664	-76.96	17.19	-19.46	-42.140	-29.988	69.972	0.80048	-0.54999	0.21832	0.09488	31.0	13111	100
2025-3-27 18:38:3.209	WT901BLE68-01(48591DE3C19B)	-0.287	-1.014	0.222	4.578	9.277	-179.871	-77.11	15.36	-20.07	-42.140	-29.988	69.972	0.80048	-0.54999	0.21832	0.09488	31.0	13111	100
2025-3-27 18:38:3.270	WT901BLE68-01(48591DE3C19B)	-0.287	-0.938	0.212	-1.892	-9.277	-190.979	-77.24	13.48	-20.58	-42.140	-29.988	69.972	0.80048	-0.54999	0.21832	0.09488	31.0	13111	100
2025-3-27 18:38:3.270	WT901BLE68-01(48591DE3C19B)	-0.268	-0.938	0.212	-1.892	-9.277	-190.979	-77.37	11.54	-21.00	-42.140	-29.988	69.972	0.80048	-0.54999	0.21832	0.09488	31.0	13111	100
2025-3-27 18:38:3.270	WT901BLE68-01(48591DE3C19B)	-0.268	-0.884	0.222	-10.193	-16.357	-199.585	-77.51	9.57	-21.38	-42.140	-29.988	69.972	0.80048	-0.54999	0.21832	0.09488	31.0	13111	100
2025-3-27 18:38:3.270	WT901BLE68-01(48591DE3C19B)	-0.251	-0.884	0.222	-10.193	-16.357	-199.585	-77.68	7.57	-21.71	-42.140	-29.988	69.972	0.80048	-0.54999	0.21832	0.09488	31.0	13111	100
2025-3-27 18:38:3.299	WT901BLE68-01(48591DE3C19B)	-0.251	-0.856	0.255	-16.907	-14.282	-205.505	-77.87	5.55	-22.06	-42.140	-29.988	69.972	0.80048	-0.54999	0.21832	0.09488	31.0	13111	100
2025-3-27 18:38:3.299	WT901BLE68-01(48591DE3C19B)	-0.247	-0.856	0.255	-16.907	-14.282	-205.505	-78.07	3.53	-22.41	-42.140	-29.988	69.972	0.76529	-0.61282	0.14581	-0.13184	31.0	13111	100
2025-3-27 18:38:3.299	WT901BLE68-01(48591DE3C19B)	-0.247	-0.840	0.298	-20.386	-5.859	-208.740	-78.28	1.51	-22.79	-42.140	-29.988	69.972	0.76529	-0.61282	0.14581	-0.13184	31.0	13111	100
2025-3-27 18:38:3.299	WT901BLE68-01(48591DE3C19B)	-0.287	-0.840	0.298	-20.386	-5.859	-208.740	-78.48	-0.49	-23.21	-42.140	-29.988	69.972	0.76529	-0.61282	0.14581	-0.13184	31.0	13111	100
2025-3-27 18:38:3.359	WT901BLE68-01(48591DE3C19B)	-0.287	-0.826	0.354	-18.311	1.526	-208.557	-78.66	-2.48	-23.65	-42.140	-29.988	69.972	0.76529	-0.61282	0.14581	-0.13184	31.0	13111	100
2025-3-27 18:38:3.359	WT901BLE68-01(48591DE3C19B)	-0.368	-0.826	0.354	-18.311	1.526	-208.557	-78.80	-4.44	-24.11	-42.140	-29.988	69.972	0.76529	-0.61282	0.14581	-0.13184	31.0	13111	100
2025-3-27 18:38:3.359	WT901BLE68-01(48591DE3C19B)	-0.368	-0.810	0.369	-13.062	3.052	-204.407	-78.89	-6.37	-24.58	-42.140	-29.988	69.972	0.76529	-0.61282	0.14581	-0.13184	31.0	13111	100
2025-3-27 18:38:3.360	WT901BLE68-01(48591DE3C19B)	-0.427	-0.810	0.369	-13.062	3.052	-204.407	-78.94	-8.26	-25.05	-42.140	-29.988	69.972	0.76529	-0.61282	0.14581	-0.13184	31.0	13111	100
2025-3-27 18:38:3.388	WT901BLE68-01(48591DE3C19B)	-0.427	-0.787	0.362	-6.714	-2.075	-194.702	-78.94	-10.08	-25.47	-42.140	-29.988	69.972	0.76529	-0.61282	0.14581	-0.13184	31.0	13111	100
2025-3-27 18:38:3.388	WT901BLE68-01(48591DE3C19B)	-0.447	-0.787	0.362	-6.714	-2.075	-194.702	-78.90	-11.84	-25.86	-42.140	-29.988	69.972	0.76529	-0.61282	0.14581	-0.13184	31.0	13111	100
2025-3-27 18:38:3.388	WT901BLE68-01(48591DE3C19B)	-0.447	-0.823	0.395	-1.770	-12.390	-179.382	-78.84	-13.53	-26.19	-42.140	-29.988	69.972	0.76529	-0.61282	0.14581	-0.13184	31.0	13111	100
2025-3-27 18:38:3.388	WT901BLE68-01(48591DE3C19B)	-0.428	-0.823	0.395	-1.770	-12.390	-179.382	-78.75	-15.13	-26.44	-42.140	-29.988	69.972	0.76529	-0.61282	0.14581	-0.13184	31.0	13111	100
2025-3-27 18:38:3.420	WT901BLE68-01(48591DE3C19B)	-0.428	-0.932	0.422	1.709	-22.156	-158.142	-78.66	-16.62	-26.63	-42.140	-29.988	69.972	0.76529	-0.61282	0.14581	-0.13184	31.0	13111	100
2025-3-27 18:38:3.420	WT901BLE68-01(48591DE3C19B)	-0.396	-0.932	0.422	1.709	-22.156	-158.142	-78.56	-18.01	-26.75	-42.140	-29.988	69.972	0.76529	-0.61282	0.14581	-0.13184	31.0	13111	100
2025-3-27 18:38:3.420	WT901BLE68-01(48591DE3C19B)	-0.396	-1.016	0.408	7.080	-16.479	-134.399	-78.43	-19.26	-26.88	-42.140	-29.988	69.972	0.76529	-0.61282	0.14581	-0.13184	31.0	13111	100
2025-3-27 18:38:3.420	WT901BLE68-01(48591DE3C19B)	-0.477	-1.016	0.408	7.080	-16.479	-134.399	-78.26	-20.38	-27.02	-42.140	-29.988	69.972	0.76529	-0.61282	0.14581	-0.13184	31.0	13111	100
2025-3-27 18:38:3.451	WT901BLE68-01(48591DE3C19B)	-0.477	-1.146	0.448	11.169	0.610	-110.046	-78.05	-21.36	-27.22	-42.140	-29.988	69.972	0.76529	-0.61282	0.14581	-0.13184	31.0	13111	100
2025-3-27 18:38:3.451	WT901BLE68-01(48591DE3C19B)	-0.602	-1.146	0.448	11.169	0.610	-110.046	-77.79	-22.20	-27.49	-42.140	-29.988	69.972	0.76529	-0.61282	0.14581	-0.13184	31.0	13111	100
2025-3-27 18:38:3.451	WT901BLE68-01(48591DE3C19B)	-0.602	-1.374	0.520	14.343	16.357	-82.764	-77.50	-22.87	-27.81	-42.140	-29.988	69.972	0.76529	-0.61282	0.14581	-0.13184	31.0	13111	100
2025-3-27 18:38:3.451	WT901BLE68-01(48591DE3C19B)	-0.598	-1.374	0.520	14.343	16.357	-82.764	-77.16	-23.39	-28.19	-42.140	-29.988	69.972	0.76529	-0.61282	0.14581	-0.13184	31.0	13111	100
2025-3-27 18:38:3.539	WT901BLE68-01(48591DE3C19B)	-0.598	-1.521	0.533	17.212	38.757	-52.368	-76.77	-23.73	-28.65	-42.140	-29.988	69.972	0.76529	-0.61282	0.14581	-0.13184	31.0	13111	100
2025-3-27 18:38:3.540	WT901BLE68-01(48591DE3C19B)	-0.561	-1.521	0.533	17.212	38.757	-52.368	-76.34	-23.90	-29.20	-51.940	-19.110	77.714	0.76529	-0.61282	0.14581	-0.13184	31.0	13111	100
2025-3-27 18:38:3.540	WT901BLE68-01(48591DE3C19B)	-0.561	-1.433	0.541	20.874	71.716	-18.066	-75.84	-23.85	-29.88	-51.940	-19.110	77.714	0.76529	-0.61282	0.14581	-0.13184	31.0	13111	100
2025-3-27 18:38:3.540	WT901BLE68-01(48591DE3C19B)	-0.605	-1.433	0.541	20.874	71.716	-18.066	-75.28	-23.58	-30.67	-51.940	-19.110	77.714	0.76529	-0.61282	0.14581	-0.13184	31.0	13111	100
2025-3-27 18:38:3.541	WT901BLE68-01(48591DE3C19B)	-0.605	-1.281	0.546	11.780	90.942	14.526	-74.75	-23.13	-31.53	-51.940	-19.110	77.714	0.76529	-0.61282	0.14581	-0.13184	31.0	13111	100
2025-3-27 18:38:3.541	WT901BLE68-01(48591DE3C19B)	-0.666	-1.281	0.546	11.780	90.942	14.526	-74.26	-22.49	-32.42	-51.940	-19.110	77.714	0.76529	-0.61282	0.14581	-0.13184	31.0	13111	100
2025-3-27 18:38:3.541	WT901BLE68-01(48591DE3C19B)	-0.666	-1.178	0.526	1.770	89.600	41.992	-73.84	-21.73	-33.24	-51.940	-19.110	77.714	0.76529	-0.61282	0.14581	-0.13184	31.0	13111	100
2025-3-27 18:38:3.541	WT901BLE68-01(48591DE3C19B)	-0.743	-1.178	0.526	1.770	89.600	41.992	-73.52	-20.82	-34.01	-51.940	-19.110	77.714	0.76529	-0.61282	0.14581	-0.13184	31.0	13111	100
2025-3-27 18:38:3.571	WT901BLE68-01(48591DE3C19B)	-0.743	-1.061	0.494	-7.141	62.988	67.017	-73.32	-19.82	-34.59	-51.940	-19.110	77.714	0.76529	-0.61282	0.14581	-0.13184	31.0	13111	100
2025-3-27 18:38:3.571	WT901BLE68-01(48591DE3C19B)	-0.786	-1.061	0.494	-7.141	62.988	67.017	-73.23	-18.75	-34.98	-51.940	-19.110	77.714	0.76529	-0.61282	0.14581	-0.13184	31.0	13111	100
2025-3-27 18:38:3.571	WT901BLE68-01(48591DE3C19B)	-0.786	-0.987	0.428	-14.893	18.616	90.332	-73.27	-17.63	-35.11	-51.940	-19.110	77.714	0.76529	-0.61282	0.14581	-0.13184	31.0	13111	100
2025-3-27 18:38:3.571	WT901BLE68-01(48591DE3C19B)	-0.796	-0.987	0.428	-14.893	18.616	90.332	-73.44	-16.46	-34.98	-51.940	-19.110	77.714	0.76529	-0.61282	0.14581	-0.13184	31.0	13111	100
2025-3-27 18:38:3.630	WT901BLE68-01(48591DE3C19B)	-0.796	-0.938	0.340	-18.433	-32.043	114.563	-73.69	-15.25	-34.56	-51.940	-19.110	77.714	0.76529	-0.61282	0.14581	-0.13184	31.0	13111	100
2025-3-27 18:38:3.630	WT901BLE68-01(48591DE3C19B)	-0.734	-0.938	0.340	-18.433	-32.043	114.563	-74.03	-14.00	-33.87	-51.940	-19.110	77.714	0.76529	-0.61282	0.14581	-0.13184	31.0	13111	100
2025-3-27 18:38:3.630	WT901BLE68-01(48591DE3C19B)	-0.734	-0.970	0.249	-20.386	-77.698	140.259	-74.41	-12.67	-32.92	-51.940	-19.110	77.714	0.76529	-0.61282	0.14581	-0.13184	31.0	13111	100
2025-3-27 18:38:3.630	WT901BLE68-01(48591DE3C19B)	-0.628	-0.970	0.249	-20.386	-77.698	140.259	-74.84	-11.28	-31.72	-51.940	-19.110	77.714	0.76529	-0.61282	0.14581	-0.13184	31.0	13111	100
2025-3-27 18:38:3.660	WT901BLE68-01(48591DE3C19B)	-0.628	-1.037	0.162	-16.235	-107.666	165.283	-75.25	-9.81	-30.36	-51.940	-19.110	77.714	0.76529	-0.61282	0.14581	-0.13184	31.0	13111	100
2025-3-27 18:38:3.661	WT901BLE68-01(48591DE3C19B)	-0.511	-1.037	0.162	-16.235	-107.666	165.283	-75.64	-8.25	-28.84	-51.940	-19.110	77.714	0.76529	-0.61282	0.14581	-0.13184	31.0	13111	100
2025-3-27 18:38:3.661	WT901BLE68-01(48591DE3C19B)	-0.511	-1.141	0.091	-10.193	-123.840	185.059	-75.96	-6.62	-27.25	-51.940	-19.110	77.714	0.76529	-0.61282	0.14581	-0.13184	31.0	13111	100
2025-3-27 18:38:3.661	WT901BLE68-01(48591DE3C19B)	-0.421	-1.141	0.091	-10.193	-123.840	185.059	-76.22	-4.92	-25.57	-51.940	-19.110	77.714	0.76529	-0.61282	0.14581	-0.13184	31.0	13111	100
2025-3-27 18:38:3.720	WT901BLE68-01(48591DE3C19B)	-0.421	-1.275	0.075	0.000	-134.705	198.608	-76.39	-3.16	-23.84	-51.940	-19.110	77.714	0.76529	-0.61282	0.14581	-0.13184	31.0	13111	100
2025-3-27 18:38:3.720	WT901BLE68-01(48591DE3C19B)	-0.331	-1.275	0.075	0.000	-134.705	198.608	-76.45	-1.37	-22.06	-51.940	-19.110	77.714	0.76529	-0.61282	0.14581	-0.13184	31.0	13111	100
2025-3-27 18:38:3.720	WT901BLE68-01(48591DE3C19B)	-0.331	-1.443	0.108	13.245	-136.353	208.740	-76.40	0.44	-20.27	-51.940	-19.110	77.714	0.77618	-0.60745	0.11319	-0.12497	31.0	13111	100
2025-3-27 18:38:3.720	WT901BLE68-01(48591DE3C19B)	-0.229	-1.443	0.108	13.245	-136.353	208.740	-76.23	2.29	-18.47	-51.940	-19.110	77.714	0.77618	-0.60745	0.11319	-0.12497	31.0	13111	100
2025-3-27 18:38:3.749	WT901BLE68-01(48591DE3C19B)	-0.229	-1.507	0.099	32.104	-121.704	218.079	-75.83	4.23	-16.79	-51.940	-19.110	77.714	0.77618	-0.60745	0.11319	-0.12497	31.0	13111	100
2025-3-27 18:38:3.749	WT901BLE68-01(48591DE3C19B)	-0.158	-1.507	0.099	32.104	-121.704	218.079	-75.37	6.14	-15.11	-51.940	-19.110	77.714	0.77618	-0.60745	0.11319	-0.12497	31.0	13111	100
2025-3-27 18:38:3.749	WT901BLE68-01(48591DE3C19B)	-0.158	-1.371	0.098	47.485	-93.262	226.990	-74.73	8.17	-13.67	-51.940	-19.110	77.714	0.77618	-0.60745	0.11319	-0.12497	31.0	13111	100
2025-3-27 18:38:3.749	WT901BLE68-01(48591DE3C19B)	-0.157	-1.371	0.098	47.485	-93.262	226.990	-74.05	10.16	-12.21	-51.940	-19.110	77.714	0.77618	-0.60745	0.11319	-0.12497	31.0	13111	100
2025-3-27 18:38:3.778	WT901BLE68-01(48591DE3C19B)	-0.157	-1.238	0.096	50.903	-62.866	234.558	-73.33	12.28	-11.00	-51.940	-19.110	77.714	0.77618	-0.60745	0.11319	-0.12497	31.0	13111	100
2025-3-27 18:38:3.778	WT901BLE68-01(48591DE3C19B)	-0.164	-1.238	0.096	50.903	-62.866	234.558	-72.58	14.36	-9.76	-51.940	-19.110	77.714	0.77618	-0.60745	0.11319	-0.12497	31.0	13111	100
2025-3-27 18:38:3.779	WT901BLE68-01(48591DE3C19B)	-0.164	-1.241	0.100	49.072	-37.292	242.126	-71.84	16.56	-8.72	-51.940	-19.110	77.714	0.77618	-0.60745	0.11319	-0.12497	31.0	13111	100
2025-3-27 18:38:3.779	WT901BLE68-01(48591DE3C19B)	-0.152	-1.241	0.100	49.072	-37.292	242.126	-71.06	18.73	-7.65	-51.940	-19.110	77.714	0.77618	-0.60745	0.11319	-0.12497	31.0	13111	100
2025-3-27 18:38:3.809	WT901BLE68-01(48591DE3C19B)	-0.152	-1.257	0.104	48.645	-17.273	248.596	-70.30	20.99	-6.72	-51.940	-19.110	77.714	0.77618	-0.60745	0.11319	-0.12497	31.0	13111	100
2025-3-27 18:38:3.810	WT901BLE68-01(48591DE3C19B)	-0.158	-1.257	0.104	48.645	-17.273	248.596	-69.49	23.23	-5.75	-51.940	-19.110	77.714	0.77618	-0.60745	0.11319	-0.12497	31.0	13111	100
2025-3-27 18:38:3.810	WT901BLE68-01(48591DE3C19B)	-0.158	-1.269	0.083	44.189	-2.197	252.625	-68.74	25.53	-4.87	-51.940	-19.110	77.714	0.77618	-0.60745	0.11319	-0.12497	31.0	13111	100
2025-3-27 18:38:3.810	WT901BLE68-01(48591DE3C19B)	-0.162	-1.269	0.083	44.189	-2.197	252.625	-67.93	27.80	-3.96	-51.940	-19.110	77.714	0.77618	-0.60745	0.11319	-0.12497	31.0	13111	100
2025-3-27 18:38:3.869	WT901BLE68-01(48591DE3C19B)	-0.162	-1.293	0.023	37.903	8.362	252.380	-67.19	30.08	-3.10	-51.940	-19.110	77.714	0.77618	-0.60745	0.11319	-0.12497	31.0	13111	100
2025-3-27 18:38:3.869	WT901BLE68-01(48591DE3C19B)	-0.137	-1.293	0.023	37.903	8.362	252.380	-66.40	32.33	-2.20	-51.940	-19.110	77.714	0.77618	-0.60745	0.11319	-0.12497	31.0	13111	100
2025-3-27 18:38:3.869	WT901BLE68-01(48591DE3C19B)	-0.137	-1.308	-0.012	29.297	14.587	245.544	-65.69	34.52	-1.36	-51.940	-19.110	77.714	0.77618	-0.60745	0.11319	-0.12497	31.0	13111	100
2025-3-27 18:38:3.869	WT901BLE68-01(48591DE3C19B)	-0.160	-1.308	-0.012	29.297	14.587	245.544	-64.93	36.69	-0.47	-51.940	-19.110	77.714	0.77618	-0.60745	0.11319	-0.12497	31.0	13111	100
2025-3-27 18:38:3.960	WT901BLE68-01(48591DE3C19B)	-0.160	-1.368	-0.003	16.846	10.010	231.689	-64.26	38.69	0.45	-51.940	-19.110	77.714	0.77618	-0.60745	0.11319	-0.12497	31.0	13111	100
2025-3-27 18:38:3.960	WT901BLE68-01(48591DE3C19B)	-0.222	-1.368	-0.003	16.846	10.010	231.689	-63.53	40.68	1.42	-51.940	-19.110	77.714	0.77618	-0.60745	0.11319	-0.12497	31.0	13111	100
2025-3-27 18:38:3.960	WT901BLE68-01(48591DE3C19B)	-0.222	-1.575	0.029	0.977	-5.249	209.778	-62.87	42.37	2.49	-51.940	-19.110	77.714	0.77618	-0.60745	0.11319	-0.12497	31.0	13111	100
2025-3-27 18:38:3.960	WT901BLE68-01(48591DE3C19B)	-0.176	-1.575	0.029	0.977	-5.249	209.778	-62.16	44.06	3.61	-40.376	-29.204	68.796	0.77618	-0.60745	0.11319	-0.12497	31.0	13111	100
2025-3-27 18:38:3.988	WT901BLE68-01(48591DE3C19B)	-0.176	-1.877	0.020	-4.944	-18.799	177.551	-61.47	45.37	4.73	-40.376	-29.204	68.796	0.77618	-0.60745	0.11319	-0.12497	31.0	13111	100
2025-3-27 18:38:3.989	WT901BLE68-01(48591DE3C19B)	0.074	-1.877	0.020	-4.944	-18.799	177.551	-60.75	46.66	5.88	-40.376	-29.204	68.796	0.77618	-0.60745	0.11319	-0.12497	31.0	13111	100
2025-3-27 18:38:3.989	WT901BLE68-01(48591DE3C19B)	0.074	-2.018	-0.024	7.080	-13.428	137.634	-60.13	47.61	6.71	-40.376	-29.204	68.796	0.77618	-0.60745	0.11319	-0.12497	31.0	13111	100
2025-3-27 18:38:3.989	WT901BLE68-01(48591DE3C19B)	0.365	-2.018	-0.024	7.080	-13.428	137.634	-59.48	48.55	7.56	-40.376	-29.204	68.796	0.77618	-0.60745	0.11319	-0.12497	31.0	13111	100
2025-3-27 18:38:3.990	WT901BLE68-01(48591DE3C19B)	0.365	-1.903	-0.065	13.245	-3.113	95.215	-59.11	49.17	7.96	-40.376	-29.204	68.796	0.77618	-0.60745	0.11319	-0.12497	31.0	13111	100
2025-3-27 18:38:3.990	WT901BLE68-01(48591DE3C19B)	0.412	-1.903	-0.065	13.245	-3.113	95.215	-58.74	49.77	8.36	-40.376	-29.204	68.796	0.77618	-0.60745	0.11319	-0.12497	31.0	13111	100
2025-3-27 18:38:3.990	WT901BLE68-01(48591DE3C19B)	0.412	-1.715	-0.036	6.714	14.526	50.293	-58.89	50.07	8.15	-40.376	-29.204	68.796	0.77618	-0.60745	0.11319	-0.12497	31.0	13111	100
2025-3-27 18:38:3.990	WT901BLE68-01(48591DE3C19B)	0.339	-1.715	-0.036	6.714	14.526	50.293	-59.06	50.36	7.93	-40.376	-29.204	68.796	0.77618	-0.60745	0.11319	-0.12497	31.0	13111	100
2025-3-27 18:38:4.19	WT901BLE68-01(48591DE3C19B)	0.339	-1.498	0.022	2.686	39.795	3.418	-59.82	50.37	6.99	-40.376	-29.204	68.796	0.77618	-0.60745	0.11319	-0.12497	31.0	13111	100
2025-3-27 18:38:4.19	WT901BLE68-01(48591DE3C19B)	0.304	-1.498	0.022	2.686	39.795	3.418	-60.57	50.37	6.04	-40.376	-29.204	68.796	0.77618	-0.60745	0.11319	-0.12497	31.0	13111	100
2025-3-27 18:38:4.19	WT901BLE68-01(48591DE3C19B)	0.304	-1.339	0.090	-3.601	60.852	-39.917	-61.86	50.08	4.49	-40.376	-29.204	68.796	0.77618	-0.60745	0.11319	-0.12497	31.0	13111	100
2025-3-27 18:38:4.19	WT901BLE68-01(48591DE3C19B)	0.278	-1.339	0.090	-3.601	60.852	-39.917	-63.12	49.76	2.96	-40.376	-29.204	68.796	0.77618	-0.60745	0.11319	-0.12497	31.0	13111	100
2025-3-27 18:38:4.51	WT901BLE68-01(48591DE3C19B)	0.278	-1.200	0.086	-6.653	64.636	-77.942	-64.61	49.09	1.16	-40.376	-29.204	68.796	0.77618	-0.60745	0.11319	-0.12497	31.0	13111	100
2025-3-27 18:38:4.52	WT901BLE68-01(48591DE3C19B)	0.286	-1.200	0.086	-6.653	64.636	-77.942	-66.03	48.39	-0.58	-40.376	-29.204	68.796	0.77618	-0.60745	0.11319	-0.12497	31.0	13111	100
2025-3-27 18:38:4.52	WT901BLE68-01(48591DE3C19B)	0.286	-1.061	0.081	-7.507	59.692	-109.375	-67.49	47.36	-2.38	-40.376	-29.204	68.796	0.77618	-0.60745	0.11319	-0.12497	31.0	13111	100
2025-3-27 18:38:4.52	WT901BLE68-01(48591DE3C19B)	0.226	-1.061	0.081	-7.507	59.692	-109.375	-68.86	46.30	-4.11	-40.376	-29.204	68.796	0.77618	-0.60745	0.11319	-0.12497	31.0	13111	100
2025-3-27 18:38:4.140	WT901BLE68-01(48591DE3C19B)	0.226	-0.983	0.081	-9.766	54.382	-134.888	-70.21	44.96	-5.81	-40.376	-29.204	68.796	0.77618	-0.60745	0.11319	-0.12497	31.0	13111	100
2025-3-27 18:38:4.140	WT901BLE68-01(48591DE3C19B)	0.111	-0.983	0.081	-9.766	54.382	-134.888	-71.47	43.60	-7.42	-40.376	-29.204	68.796	0.76617	-0.52536	0.33344	0.16022	31.0	13111	100
2025-3-27 18:38:4.140	WT901BLE68-01(48591DE3C19B)	0.111	-1.025	0.100	-12.451	50.781	-157.898	-72.70	41.99	-8.99	-40.376	-29.204	68.796	0.76617	-0.52536	0.33344	0.16022	31.0	13111	100
2025-3-27 18:38:4.140	WT901BLE68-01(48591DE3C19B)	-0.059	-1.025	0.100	-12.451	50.781	-157.898	-73.83	40.36	-10.46	-40.376	-29.204	68.796	0.76617	-0.52536	0.33344	0.16022	31.0	13111	100
2025-3-27 18:38:4.141	WT901BLE68-01(48591DE3C19B)	-0.059	-1.116	0.112	-9.766	45.959	-174.622	-74.84	38.56	-11.85	-40.376	-29.204	68.796	0.76617	-0.52536	0.33344	0.16022	31.0	13111	100
2025-3-27 18:38:4.141	WT901BLE68-01(48591DE3C19B)	-0.155	-1.116	0.112	-9.766	45.959	-174.622	-75.77	36.75	-13.16	-40.376	-29.204	68.796	0.76617	-0.52536	0.33344	0.16022	31.0	13111	100
2025-3-27 18:38:4.141	WT901BLE68-01(48591DE3C19B)	-0.155	-1.167	0.105	-3.052	41.626	-191.589	-76.54	34.77	-14.39	-40.376	-29.204	68.796	0.76617	-0.52536	0.33344	0.16022	31.0	13111	100
2025-3-27 18:38:4.141	WT901BLE68-01(48591DE3C19B)	-0.168	-1.167	0.105	-3.052	41.626	-191.589	-77.24	32.79	-15.55	-40.376	-29.204	68.796	0.76617	-0.52536	0.33344	0.16022	31.0	13111	100
2025-3-27 18:38:4.171	WT901BLE68-01(48591DE3C19B)	-0.178	-1.102	0.099	0.671	34.180	-206.848	-77.81	30.65	-16.59	-40.376	-29.204	68.796	0.76617	-0.52536	0.33344	0.16022	31.0	13111	100
2025-3-27 18:38:4.171	WT901BLE68-01(48591DE3C19B)	-0.178	-1.067	0.085	-4.028	25.391	-223.572	-78.33	28.43	-17.56	-40.376	-29.204	68.796	0.76617	-0.52536	0.33344	0.16022	31.0	13111	100
2025-3-27 18:38:4.171	WT901BLE68-01(48591DE3C19B)	-0.176	-1.067	0.085	-4.028	25.391	-223.572	-78.79	26.14	-18.44	-40.376	-29.204	68.796	0.76617	-0.52536	0.33344	0.16022	31.0	13111	100
2025-3-27 18:38:4.171	WT901BLE68-01(48591DE3C19B)	-0.176	-1.101	0.093	-9.033	22.583	-242.004	-79.24	23.76	-19.29	-40.376	-29.204	68.796	0.76617	-0.52536	0.33344	0.16022	31.0	13111	100
2025-3-27 18:38:4.230	WT901BLE68-01(48591DE3C19B)	-0.169	-1.101	0.093	-9.033	22.583	-242.004	-79.66	21.30	-20.09	-40.376	-29.204	68.796	0.76617	-0.52536	0.33344	0.16022	31.0	13111	100
2025-3-27 18:38:4.230	WT901BLE68-01(48591DE3C19B)	-0.169	-1.147	0.120	-12.146	31.128	-256.104	-80.07	18.79	-20.91	-40.376	-29.204	68.796	0.76617	-0.52536	0.33344	0.16022	31.0	13111	100
2025-3-27 18:38:4.230	WT901BLE68-01(48591DE3C19B)	-0.206	-1.147	0.120	-12.146	31.128	-256.104	-80.47	16.24	-21.75	-40.376	-29.204	68.796	0.76617	-0.52536	0.33344	0.16022	31.0	13111	100
2025-3-27 18:38:4.230	WT901BLE68-01(48591DE3C19B)	-0.206	-1.169	0.157	-13.855	47.058	-267.700	-80.85	13.65	-22.65	-40.376	-29.204	68.796	0.76617	-0.52536	0.33344	0.16022	31.0	13111	100
2025-3-27 18:38:4.261	WT901BLE68-01(48591DE3C19B)	-0.271	-1.169	0.157	-13.855	47.058	-267.700	-81.21	11.04	-23.60	-40.376	-29.204	68.796	0.76617	-0.52536	0.33344	0.16022	31.0	13111	100
2025-3-27 18:38:4.261	WT901BLE68-01(48591DE3C19B)	-0.271	-1.208	0.210	-15.503	59.814	-278.015	-81.54	8.39	-24.60	-40.376	-29.204	68.796	0.76617	-0.52536	0.33344	0.16022	31.0	13111	100
2025-3-27 18:38:4.261	WT901BLE68-01(48591DE3C19B)	-0.335	-1.208	0.210	-15.503	59.814	-278.015	-81.83	5.72	-25.64	-40.376	-29.204	68.796	0.76617	-0.52536	0.33344	0.16022	31.0	13111	100
2025-3-27 18:38:4.261	WT901BLE68-01(48591DE3C19B)	-0.335	-1.292	0.269	-15.564	64.575	-285.828	-82.07	3.03	-26.67	-40.376	-29.204	68.796	0.76617	-0.52536	0.33344	0.16022	31.0	13111	100
2025-3-27 18:38:4.291	WT901BLE68-01(48591DE3C19B)	-0.406	-1.292	0.269	-15.564	64.575	-285.828	-82.27	0.32	-27.73	-40.376	-29.204	68.796	0.76617	-0.52536	0.33344	0.16022	31.0	13111	100
2025-3-27 18:38:4.291	WT901BLE68-01(48591DE3C19B)	-0.406	-1.367	0.320	-12.451	60.120	-288.940	-82.39	-2.38	-28.75	-40.376	-29.204	68.796	0.76617	-0.52536	0.33344	0.16022	31.0	13111	100
2025-3-27 18:38:4.291	WT901BLE68-01(48591DE3C19B)	-0.491	-1.367	0.320	-12.451	60.120	-288.940	-82.45	-5.09	-29.73	-48.608	-23.520	75.558	0.76617	-0.52536	0.33344	0.16022	31.0	13111	100
2025-3-27 18:38:4.291	WT901BLE68-01(48591DE3C19B)	-0.491	-1.458	0.348	-6.653	42.542	-286.133	-82.44	-7.77	-30.62	-48.608	-23.520	75.558	0.76617	-0.52536	0.33344	0.16022	31.0	13111	100
2025-3-27 18:38:4.349	WT901BLE68-01(48591DE3C19B)	-0.539	-1.458	0.348	-6.653	42.542	-286.133	-82.36	-10.43	-31.44	-48.608	-23.520	75.558	0.76617	-0.52536	0.33344	0.16022	31.0	13111	100
2025-3-27 18:38:4.349	WT901BLE68-01(48591DE3C19B)	-0.539	-1.514	0.361	-1.831	18.738	-280.212	-82.25	-13.05	-32.12	-48.608	-23.520	75.558	0.76617	-0.52536	0.33344	0.16022	31.0	13111	100
2025-3-27 18:38:4.349	WT901BLE68-01(48591DE3C19B)	-0.505	-1.514	0.361	-1.831	18.738	-280.212	-82.12	-15.63	-32.70	-48.608	-23.520	75.558	0.76617	-0.52536	0.33344	0.16022	31.0	13111	100
2025-3-27 18:38:4.350	WT901BLE68-01(48591DE3C19B)	-0.505	-1.590	0.315	-2.808	3.784	-268.860	-81.98	-18.15	-33.20	-48.608	-23.520	75.558	0.76617	-0.52536	0.33344	0.16022	31.0	13111	100
2025-3-27 18:38:4.387	WT901BLE68-01(48591DE3C19B)	-0.463	-1.590	0.315	-2.808	3.784	-268.860	-81.85	-20.61	-33.62	-48.608	-23.520	75.558	0.76617	-0.52536	0.33344	0.16022	31.0	13111	100
2025-3-27 18:38:4.387	WT901BLE68-01(48591DE3C19B)	-0.463	-1.646	0.252	-5.737	-3.174	-250.854	-81.74	-22.97	-34.01	-48.608	-23.520	75.558	0.76617	-0.52536	0.33344	0.16022	31.0	13111	100
2025-3-27 18:38:4.387	WT901BLE68-01(48591DE3C19B)	-0.529	-1.646	0.252	-5.737	-3.174	-250.854	-81.64	-25.22	-34.35	-48.608	-23.520	75.558	0.76617	-0.52536	0.33344	0.16022	31.0	13111	100
2025-3-27 18:38:4.387	WT901BLE68-01(48591DE3C19B)	-0.529	-1.665	0.278	-6.531	-15.564	-221.924	-81.58	-27.33	-34.61	-48.608	-23.520	75.558	0.76617	-0.52536	0.33344	0.16022	31.0	13111	100
2025-3-27 18:38:4.470	WT901BLE68-01(48591DE3C19B)	-0.651	-1.665	0.278	-6.531	-15.564	-221.924	-81.55	-29.30	-34.78	-48.608	-23.520	75.558	0.76617	-0.52536	0.33344	0.16022	31.0	13111	100
2025-3-27 18:38:4.470	WT901BLE68-01(48591DE3C19B)	-0.651	-1.578	0.423	-2.441	-18.250	-182.861	-81.52	-31.05	-34.90	-48.608	-23.520	75.558	0.76617	-0.52536	0.33344	0.16022	31.0	13111	100
2025-3-27 18:38:4.470	WT901BLE68-01(48591DE3C19B)	-0.696	-1.578	0.423	-2.441	-18.250	-182.861	-81.49	-32.61	-34.98	-48.608	-23.520	75.558	0.76617	-0.52536	0.33344	0.16022	31.0	13111	100
2025-3-27 18:38:4.470	WT901BLE68-01(48591DE3C19B)	-0.696	-1.392	0.481	-3.052	13.000	-134.583	-81.38	-33.89	-35.21	-48.608	-23.520	75.558	0.76617	-0.52536	0.33344	0.16022	31.0	13111	100
2025-3-27 18:38:4.471	WT901BLE68-01(48591DE3C19B)	-0.714	-1.392	0.481	-3.052	13.000	-134.583	-81.17	-34.90	-35.58	-48.608	-23.520	75.558	0.76617	-0.52536	0.33344	0.16022	31.0	13111	100
2025-3-27 18:38:4.471	WT901BLE68-01(48591DE3C19B)	-0.714	-1.158	0.409	-5.066	48.279	-75.256	-80.88	-35.57	-36.11	-48.608	-23.520	75.558	0.76617	-0.52536	0.33344	0.16022	31.0	13111	100
2025-3-27 18:38:4.471	WT901BLE68-01(48591DE3C19B)	-0.631	-1.158	0.409	-5.066	48.279	-75.256	-80.50	-35.91	-36.80	-48.608	-23.520	75.558	0.76617	-0.52536	0.33344	0.16022	31.0	13111	100
2025-3-27 18:38:4.471	WT901BLE68-01(48591DE3C19B)	-0.631	-0.960	0.399	-10.010	55.481	-15.259	-80.15	-35.95	-37.48	-48.608	-23.520	75.558	0.76617	-0.52536	0.33344	0.16022	31.0	13111	100
2025-3-27 18:38:4.498	WT901BLE68-01(48591DE3C19B)	-0.514	-0.960	0.399	-10.010	55.481	-15.259	-79.83	-35.67	-38.13	-48.608	-23.520	75.558	0.76617	-0.52536	0.33344	0.16022	31.0	13111	100
2025-3-27 18:38:4.498	WT901BLE68-01(48591DE3C19B)	-0.514	-0.861	0.465	-12.207	42.664	35.217	-79.62	-35.16	-38.64	-48.608	-23.520	75.558	0.76617	-0.52536	0.33344	0.16022	31.0	13111	100
2025-3-27 18:38:4.499	WT901BLE68-01(48591DE3C19B)	-0.514	-0.861	0.465	-12.207	42.664	35.217	-79.49	-34.40	-39.01	-48.608	-23.520	75.558	0.76617	-0.52536	0.33344	0.16022	31.0	13111	100
2025-3-27 18:38:4.499	WT901BLE68-01(48591DE3C19B)	-0.514	-0.780	0.495	-11.353	26.733	75.684	-79.44	-33.46	-39.24	-48.608	-23.520	75.558	0.63202	-0.65079	-0.00305	-0.42062	31.0	13111	100
2025-3-27 18:38:4.528	WT901BLE68-01(48591DE3C19B)	-0.569	-0.780	0.495	-11.353	26.733	75.684	-79.46	-32.34	-39.33	-48.608	-23.520	75.558	0.63202	-0.65079	-0.00305	-0.42062	31.0	13111	100
2025-3-27 18:38:4.529	WT901BLE68-01(48591DE3C19B)	-0.569	-0.713	0.464	-7.568	7.263	107.788	-79.54	-31.09	-39.27	-48.608	-23.520	75.558	0.63202	-0.65079	-0.00305	-0.42062	31.0	13111	100
2025-3-27 18:38:4.529	WT901BLE68-01(48591DE3C19B)	-0.631	-0.713	0.464	-7.568	7.263	107.788	-79.66	-29.69	-39.06	-48.608	-23.520	75.558	0.63202	-0.65079	-0.00305	-0.42062	31.0	13111	100
2025-3-27 18:38:4.529	WT901BLE68-01(48591DE3C19B)	-0.631	-0.757	0.375	-6.653	-16.846	131.958	-79.84	-28.20	-38.71	-48.608	-23.520	75.558	0.63202	-0.65079	-0.00305	-0.42062	31.0	13111	100
2025-3-27 18:38:4.588	WT901BLE68-01(48591DE3C19B)	-0.705	-0.757	0.375	-6.653	-16.846	131.958	-80.08	-26.62	-38.20	-48.608	-23.520	75.558	0.63202	-0.65079	-0.00305	-0.42062	31.0	13111	100
2025-3-27 18:38:4.588	WT901BLE68-01(48591DE3C19B)	-0.705	-0.937	0.249	-2.563	-41.931	148.682	-80.34	-24.97	-37.56	-48.608	-23.520	75.558	0.63202	-0.65079	-0.00305	-0.42062	31.0	13111	100
2025-3-27 18:38:4.588	WT901BLE68-01(48591DE3C19B)	-0.735	-0.937	0.249	-2.563	-41.931	148.682	-80.63	-23.27	-36.77	-48.608	-23.520	75.558	0.63202	-0.65079	-0.00305	-0.42062	31.0	13111	100
2025-3-27 18:38:4.588	WT901BLE68-01(48591DE3C19B)	-0.367	-1.138	0.151	5.981	-68.909	160.706	-80.91	-21.53	-35.85	-48.608	-23.520	75.558	0.63202	-0.65079	-0.00305	-0.42062	31.0	13111	100
2025-3-27 18:38:4.649	WT901BLE68-01(48591DE3C19B)	-0.675	-0.569	0.075	5.981	-68.909	160.706	-81.18	-19.76	-34.80	-48.608	-23.520	75.558	0.63202	-0.65079	-0.00305	-0.42062	31.0	13111	100
2025-3-27 18:38:4.649	WT901BLE68-01(48591DE3C19B)	-0.675	-1.309	0.108	18.982	-98.938	170.593	-81.40	-17.96	-33.60	-48.608	-23.520	75.558	0.63202	-0.65079	-0.00305	-0.42062	31.0	13111	100
2025-3-27 18:38:4.649	WT901BLE68-01(48591DE3C19B)	-0.558	-1.309	0.108	18.982	-98.938	170.593	-81.56	-16.15	-32.26	-48.608	-23.520	75.558	0.63202	-0.65079	-0.00305	-0.42062	31.0	13111	100
2025-3-27 18:38:4.649	WT901BLE68-01(48591DE3C19B)	-0.558	-1.399	0.096	35.034	-127.014	179.993	-81.61	-14.30	-30.65	-48.608	-23.520	75.558	0.63202	-0.65079	-0.00305	-0.42062	31.0	13111	100
2025-3-27 18:38:4.650	WT901BLE68-01(48591DE3C19B)	-0.419	-1.399	0.096	35.034	-127.014	179.993	-81.61	-12.46	-29.05	-48.608	-23.520	75.558	0.63202	-0.65079	-0.00305	-0.42062	31.0	13111	100
2025-3-27 18:38:4.650	WT901BLE68-01(48591DE3C19B)	-0.419	-1.432	0.111	48.706	-142.334	189.636	-81.45	-10.57	-27.31	-48.608	-23.520	75.558	0.63202	-0.65079	-0.00305	-0.42062	31.0	13111	100
2025-3-27 18:38:4.650	WT901BLE68-01(48591DE3C19B)	-0.293	-1.432	0.111	48.706	-142.334	189.636	-81.24	-8.71	-25.58	-48.608	-23.520	75.558	0.63202	-0.65079	-0.00305	-0.42062	31.0	13111	100
2025-3-27 18:38:4.650	WT901BLE68-01(48591DE3C19B)	-0.293	-1.489	0.123	60.242	-139.160	201.233	-80.86	-6.75	-23.88	-48.608	-23.520	75.558	0.63202	-0.65079	-0.00305	-0.42062	31.0	13111	100
2025-3-27 18:38:4.710	WT901BLE68-01(48591DE3C19B)	-0.167	-1.489	0.123	60.242	-139.160	201.233	-80.43	-4.82	-22.18	-48.608	-23.520	75.558	0.63202	-0.65079	-0.00305	-0.42062	31.0	13111	100
2025-3-27 18:38:4.710	WT901BLE68-01(48591DE3C19B)	-0.167	-1.417	0.125	74.341	-116.699	214.844	-79.78	-2.76	-20.68	-48.608	-23.520	75.558	0.63202	-0.65079	-0.00305	-0.42062	31.0	13111	100
2025-3-27 18:38:4.710	WT901BLE68-01(48591DE3C19B)	-0.085	-1.417	0.125	74.341	-116.699	214.844	-79.09	-0.74	-19.17	-48.608	-23.520	75.558	0.63202	-0.65079	-0.00305	-0.42062	31.0	13111	100
2025-3-27 18:38:4.710	WT901BLE68-01(48591DE3C19B)	-0.085	-1.256	0.136	80.750	-77.759	229.980	-78.28	1.47	-18.00	-48.608	-23.520	75.558	0.63202	-0.65079	-0.00305	-0.42062	31.0	13111	100
2025-3-27 18:38:4.742	WT901BLE68-01(48591DE3C19B)	-0.082	-1.256	0.136	80.750	-77.759	229.980	-77.44	3.64	-16.81	-46.256	-22.540	73.990	0.63202	-0.65079	-0.00305	-0.42062	31.0	13111	100
2025-3-27 18:38:4.742	WT901BLE68-01(48591DE3C19B)	-0.082	-1.172	0.147	80.444	-34.058	244.751	-76.59	6.00	-15.99	-46.256	-22.540	73.990	0.63202	-0.65079	-0.00305	-0.42062	31.0	13111	100
2025-3-27 18:38:4.742	WT901BLE68-01(48591DE3C19B)	-0.111	-1.172	0.147	80.444	-34.058	244.751	-75.70	8.34	-15.13	-46.256	-22.540	73.990	0.63202	-0.65079	-0.00305	-0.42062	31.0	13111	100
2025-3-27 18:38:4.742	WT901BLE68-01(48591DE3C19B)	-0.111	-1.179	0.131	76.843	0.488	258.179	-74.86	10.87	-14.54	-46.256	-22.540	73.990	0.63202	-0.65079	-0.00305	-0.42062	31.0	13111	100
2025-3-27 18:38:4.769	WT901BLE68-01(48591DE3C19B)	-0.145	-1.179	0.131	76.843	0.488	258.179	-73.99	13.36	-13.92	-46.256	-22.540	73.990	0.63202	-0.65079	-0.00305	-0.42062	31.0	13111	100
2025-3-27 18:38:4.769	WT901BLE68-01(48591DE3C19B)	-0.145	-1.200	0.090	69.763	21.423	268.982	-73.20	16.00	-13.43	-46.256	-22.540	73.990	0.63202	-0.65079	-0.00305	-0.42062	31.0	13111	100
2025-3-27 18:38:4.770	WT901BLE68-01(48591DE3C19B)	-0.189	-1.200	0.090	69.763	21.423	268.982	-72.38	18.60	-12.91	-46.256	-22.540	73.990	0.63202	-0.65079	-0.00305	-0.42062	31.0	13111	100
2025-3-27 18:38:4.770	WT901BLE68-01(48591DE3C19B)	-0.189	-1.295	0.062	59.021	29.480	275.513	-71.66	21.26	-12.40	-46.256	-22.540	73.990	0.63202	-0.65079	-0.00305	-0.42062	31.0	13111	100
2025-3-27 18:38:4.830	WT901BLE68-01(48591DE3C19B)	-0.253	-1.295	0.062	59.021	29.480	275.513	-70.91	23.91	-11.86	-46.256	-22.540	73.990	0.63202	-0.65079	-0.00305	-0.42062	31.0	13111	100
2025-3-27 18:38:4.830	WT901BLE68-01(48591DE3C19B)	-0.253	-1.513	0.063	45.776	18.616	276.672	-70.20	26.50	-11.16	-46.256	-22.540	73.990	0.63202	-0.65079	-0.00305	-0.42062	31.0	13111	100
2025-3-27 18:38:4.830	WT901BLE68-01(48591DE3C19B)	-0.361	-1.513	0.063	45.776	18.616	276.672	-69.44	29.08	-10.40	-46.256	-22.540	73.990	0.63202	-0.65079	-0.00305	-0.42062	31.0	13111	100
2025-3-27 18:38:4.830	WT901BLE68-01(48591DE3C19B)	-0.361	-1.846	0.111	32.898	-8.789	266.724	-68.63	31.43	-9.35	-46.256	-22.540	73.990	0.63202	-0.65079	-0.00305	-0.42062	31.0	13111	100
2025-3-27 18:38:4.861	WT901BLE68-01(48591DE3C19B)	-0.494	-1.846	0.111	32.898	-8.789	266.724	-67.75	33.76	-8.23	-46.256	-22.540	73.990	0.63202	-0.65079	-0.00305	-0.42062	31.0	13111	100
2025-3-27 18:38:4.861	WT901BLE68-01(48591DE3C19B)	-0.494	-2.246	0.149	30.273	-53.406	246.277	-66.60	35.71	-6.64	-46.256	-22.540	73.990	0.63202	-0.65079	-0.00305	-0.42062	31.0	13111	100
2025-3-27 18:38:4.861	WT901BLE68-01(48591DE3C19B)	-0.463	-2.246	0.149	30.273	-53.406	246.277	-65.36	37.61	-4.97	-46.256	-22.540	73.990	0.63202	-0.65079	-0.00305	-0.42062	31.0	13111	100
2025-3-27 18:38:4.861	WT901BLE68-01(48591DE3C19B)	-0.463	-2.430	0.152	40.527	-101.440	223.511	-63.65	39.06	-2.79	-46.256	-22.540	73.990	0.63202	-0.65079	-0.00305	-0.42062	31.0	13111	100
2025-3-27 18:38:4.920	WT901BLE68-01(48591DE3C19B)	-0.198	-2.430	0.152	40.527	-101.440	223.511	-61.86	40.45	-0.52	-46.256	-22.540	73.990	0.63202	-0.65079	-0.00305	-0.42062	31.0	13111	100
2025-3-27 18:38:4.920	WT901BLE68-01(48591DE3C19B)	-0.198	-2.377	0.122	46.509	-130.554	192.932	-59.83	41.35	1.97	-46.256	-22.540	73.990	0.80869	-0.46710	0.29758	0.19797	31.0	13111	100
2025-3-27 18:38:4.920	WT901BLE68-01(48591DE3C19B)	0.094	-2.377	0.122	46.509	-130.554	192.932	-57.73	42.19	4.52	-46.256	-22.540	73.990	0.80869	-0.46710	0.29758	0.19797	31.0	13111	100
2025-3-27 18:38:4.920	WT901BLE68-01(48591DE3C19B)	0.094	-2.238	0.054	49.561	-130.432	161.804	-55.71	42.69	6.89	-46.256	-22.540	73.990	0.80869	-0.46710	0.29758	0.19797	31.0	13111	100
2025-3-27 18:38:4.949	WT901BLE68-01(48591DE3C19B)	0.436	-2.238	0.054	49.561	-130.432	161.804	-53.67	43.12	9.27	-46.256	-22.540	73.990	0.80869	-0.46710	0.29758	0.19797	31.0	13111	100
2025-3-27 18:38:4.949	WT901BLE68-01(48591DE3C19B)	0.436	-2.030	-0.021	49.072	-102.295	126.831	-52.03	43.37	11.07	-46.256	-22.540	73.990	0.80869	-0.46710	0.29758	0.19797	31.0	13111	100
2025-3-27 18:38:4.949	WT901BLE68-01(48591DE3C19B)	0.720	-2.030	-0.021	49.072	-102.295	126.831	-50.39	43.59	12.87	-46.256	-22.540	73.990	0.80869	-0.46710	0.29758	0.19797	31.0	13111	100
2025-3-27 18:38:4.949	WT901BLE68-01(48591DE3C19B)	0.720	-1.646	-0.027	45.593	-57.495	98.633	-49.30	43.83	13.94	-46.256	-22.540	73.990	0.80869	-0.46710	0.29758	0.19797	31.0	13111	100
2025-3-27 18:38:4.978	WT901BLE68-01(48591DE3C19B)	0.707	-1.646	-0.027	45.593	-57.495	98.633	-48.21	44.05	15.00	-46.256	-22.540	73.990	0.80869	-0.46710	0.29758	0.19797	31.0	13111	100
2025-3-27 18:38:4.979	WT901BLE68-01(48591DE3C19B)	0.707	-1.167	0.005	33.325	-4.211	66.406	-47.84	44.37	15.20	-46.256	-22.540	73.990	0.80869	-0.46710	0.29758	0.19797	31.0	13111	100
2025-3-27 18:38:4.979	WT901BLE68-01(48591DE3C19B)	0.616	-1.167	0.005	33.325	-4.211	66.406	-47.48	44.67	15.40	-46.256	-22.540	73.990	0.80869	-0.46710	0.29758	0.19797	31.0	13111	100
2025-3-27 18:38:4.979	WT901BLE68-01(48591DE3C19B)	0.616	-0.812	0.015	21.057	44.617	26.672	-47.87	45.01	14.70	-46.256	-22.540	73.990	0.80869	-0.46710	0.29758	0.19797	31.0	13111	100
2025-3-27 18:38:5.39	WT901BLE68-01(48591DE3C19B)	0.589	-0.812	0.015	21.057	44.617	26.672	-48.27	45.32	13.99	-46.256	-22.540	73.990	0.80869	-0.46710	0.29758	0.19797	31.0	13111	100
2025-3-27 18:38:5.39	WT901BLE68-01(48591DE3C19B)	0.589	-0.668	-0.047	8.789	84.717	-12.878	-49.38	45.60	12.46	-46.256	-22.540	73.990	0.80869	-0.46710	0.29758	0.19797	31.0	13111	100
2025-3-27 18:38:5.39	WT901BLE68-01(48591DE3C19B)	0.524	-0.668	-0.047	8.789	84.717	-12.878	-50.51	45.84	10.93	-46.256	-22.540	73.990	0.80869	-0.46710	0.29758	0.19797	31.0	13111	100
2025-3-27 18:38:5.39	WT901BLE68-01(48591DE3C19B)	0.524	-0.772	-0.124	-1.343	114.136	-48.401	-52.21	45.96	8.73	-46.256	-22.540	73.990	0.80869	-0.46710	0.29758	0.19797	31.0	13111	100
2025-3-27 18:38:5.69	WT901BLE68-01(48591DE3C19B)	0.386	-0.772	-0.124	-1.343	114.136	-48.401	-53.93	46.02	6.53	-46.256	-22.540	73.990	0.80869	-0.46710	0.29758	0.19797	31.0	13111	100
2025-3-27 18:38:5.70	WT901BLE68-01(48591DE3C19B)	0.386	-0.947	-0.152	-1.099	124.512	-75.989	-55.88	45.87	3.98	-46.256	-22.540	73.990	0.80869	-0.46710	0.29758	0.19797	31.0	13111	100
2025-3-27 18:38:5.70	WT901BLE68-01(48591DE3C19B)	0.266	-0.947	-0.152	-1.099	124.512	-75.989	-57.80	45.65	1.46	-46.256	-22.540	73.990	0.80869	-0.46710	0.29758	0.19797	31.0	13111	100
2025-3-27 18:38:5.70	WT901BLE68-01(48591DE3C19B)	0.162	-0.964	-0.126	2.625	118.286	-97.107	-59.71	45.17	-1.09	-46.256	-22.540	73.990	0.80869	-0.46710	0.29758	0.19797	31.0	13111	100
2025-3-27 18:38:5.98	WT901BLE68-01(48591DE3C19B)	0.162	-0.929	-0.068	0.549	106.628	-119.751	-61.57	44.50	-3.60	-46.256	-22.540	73.990	0.80869	-0.46710	0.29758	0.19797	31.0	13111	100
2025-3-27 18:38:5.99	WT901BLE68-01(48591DE3C19B)	0.059	-0.929	-0.068	0.549	106.628	-119.751	-63.37	43.65	-6.03	-46.256	-22.540	73.990	0.80869	-0.46710	0.29758	0.19797	31.0	13111	100
2025-3-27 18:38:5.99	WT901BLE68-01(48591DE3C19B)	0.059	-0.911	-0.006	-4.761	94.299	-143.066	-65.09	42.63	-8.37	-43.022	-29.008	70.070	0.80869	-0.46710	0.29758	0.19797	31.0	13111	100
2025-3-27 18:38:5.99	WT901BLE68-01(48591DE3C19B)	-0.039	-0.911	-0.006	-4.761	94.299	-143.066	-66.73	41.43	-10.59	-43.022	-29.008	70.070	0.80869	-0.46710	0.29758	0.19797	31.0	13111	100
2025-3-27 18:38:5.158	WT901BLE68-01(48591DE3C19B)	-0.039	-0.903	0.042	-10.986	79.773	-167.664	-68.27	40.06	-12.69	-43.022	-29.008	70.070	0.80869	-0.46710	0.29758	0.19797	31.0	13111	100
2025-3-27 18:38:5.159	WT901BLE68-01(48591DE3C19B)	-0.094	-0.903	0.042	-10.986	79.773	-167.664	-69.72	38.52	-14.65	-43.022	-29.008	70.070	0.80869	-0.46710	0.29758	0.19797	31.0	13111	100
2025-3-27 18:38:5.159	WT901BLE68-01(48591DE3C19B)	-0.094	-0.897	0.060	-16.846	68.115	-192.993	-71.07	36.82	-16.49	-43.022	-29.008	70.070	0.80869	-0.46710	0.29758	0.19797	31.0	13111	100
2025-3-27 18:38:5.159	WT901BLE68-01(48591DE3C19B)	-0.139	-0.897	0.060	-16.846	68.115	-192.993	-72.33	34.96	-18.21	-43.022	-29.008	70.070	0.80869	-0.46710	0.29758	0.19797	31.0	13111	100
2025-3-27 18:38:5.188	WT901BLE68-01(48591DE3C19B)	-0.139	-0.891	0.077	-23.926	62.195	-218.567	-73.52	32.96	-19.84	-43.022	-29.008	70.070	0.80869	-0.46710	0.29758	0.19797	31.0	13111	100
2025-3-27 18:38:5.188	WT901BLE68-01(48591DE3C19B)	-0.202	-0.891	0.077	-23.926	62.195	-218.567	-74.64	30.82	-21.37	-43.022	-29.008	70.070	0.80869	-0.46710	0.29758	0.19797	31.0	13111	100
2025-3-27 18:38:5.188	WT901BLE68-01(48591DE3C19B)	-0.202	-0.951	0.121	-32.104	61.340	-243.896	-75.72	28.55	-22.85	-43.022	-29.008	70.070	0.80869	-0.46710	0.29758	0.19797	31.0	13111	100
2025-3-27 18:38:5.188	WT901BLE68-01(48591DE3C19B)	-0.345	-0.951	0.121	-32.104	61.340	-243.896	-76.74	26.15	-24.26	-43.022	-29.008	70.070	0.80869	-0.46710	0.29758	0.19797	31.0	13111	100
2025-3-27 18:38:5.220	WT901BLE68-01(48591DE3C19B)	-0.345	-1.021	0.177	-36.865	51.270	-266.724	-77.69	23.64	-25.57	-43.022	-29.008	70.070	0.80869	-0.46710	0.29758	0.19797	31.0	13111	100
2025-3-27 18:38:5.220	WT901BLE68-01(48591DE3C19B)	-0.522	-1.021	0.177	-36.865	51.270	-266.724	-78.56	21.01	-26.76	-43.022	-29.008	70.070	0.80869	-0.46710	0.29758	0.19797	31.0	13111	100
2025-3-27 18:38:5.220	WT901BLE68-01(48591DE3C19B)	-0.522	-1.105	0.256	-40.833	35.095	-281.799	-79.34	18.30	-27.81	-43.022	-29.008	70.070	0.80869	-0.46710	0.29758	0.19797	31.0	13111	100
2025-3-27 18:38:5.220	WT901BLE68-01(48591DE3C19B)	-0.833	-1.105	0.256	-40.833	35.095	-281.799	-80.05	15.53	-28.72	-43.022	-29.008	70.070	0.80869	-0.46710	0.29758	0.19797	31.0	13111	100
2025-3-27 18:38:5.286	WT901BLE68-01(48591DE3C19B)	-0.833	-1.241	0.382	-41.687	11.963	-281.555	-80.66	12.76	-29.47	-43.022	-29.008	70.070	0.80869	-0.46710	0.29758	0.19797	31.0	13111	100
2025-3-27 18:38:5.286	WT901BLE68-01(48591DE3C19B)	-1.073	-1.241	0.382	-41.687	11.963	-281.555	-81.20	10.00	-30.04	-43.022	-29.008	70.070	0.80869	-0.46710	0.29758	0.19797	31.0	13111	100
2025-3-27 18:38:5.286	WT901BLE68-01(48591DE3C19B)	-1.073	-1.261	0.482	-32.898	-21.057	-267.700	-81.63	7.31	-30.40	-43.022	-29.008	70.070	0.80869	-0.46710	0.29758	0.19797	31.0	13111	100
2025-3-27 18:38:5.286	WT901BLE68-01(48591DE3C19B)	-0.969	-1.261	0.482	-32.898	-21.057	-267.700	-81.97	4.71	-30.56	-43.022	-29.008	70.070	0.80869	-0.46710	0.29758	0.19797	31.0	13111	100
2025-3-27 18:38:5.309	WT901BLE68-01(48591DE3C19B)	-0.969	-1.064	0.492	-29.968	-61.890	-242.004	-82.27	2.24	-30.48	-43.022	-29.008	70.070	0.80869	-0.46710	0.29758	0.19797	31.0	13111	100
2025-3-27 18:38:5.309	WT901BLE68-01(48591DE3C19B)	-0.760	-1.064	0.492	-29.968	-61.890	-242.004	-82.55	-0.10	-30.15	-43.022	-29.008	70.070	0.80869	-0.46710	0.29758	0.19797	31.0	13111	100
2025-3-27 18:38:5.309	WT901BLE68-01(48591DE3C19B)	-0.760	-0.930	0.590	-38.208	-100.037	-208.923	-82.87	-2.29	-29.60	-43.022	-29.008	70.070	0.80869	-0.46710	0.29758	0.19797	31.0	13111	100
2025-3-27 18:38:5.309	WT901BLE68-01(48591DE3C19B)	-0.729	-0.930	0.590	-38.208	-100.037	-208.923	-83.25	-4.30	-28.82	-43.022	-29.008	70.070	0.71509	-0.65295	0.12979	-0.21289	31.0	13111	100
2025-3-27 18:38:5.338	WT901BLE68-01(48591DE3C19B)	-0.729	-1.057	0.858	-41.931	-98.328	-183.289	-83.67	-6.16	-28.03	-43.022	-29.008	70.070	0.71509	-0.65295	0.12979	-0.21289	31.0	13111	100
2025-3-27 18:38:5.338	WT901BLE68-01(48591DE3C19B)	-0.866	-1.057	0.858	-41.931	-98.328	-183.289	-84.12	-7.88	-27.21	-43.022	-29.008	70.070	0.71509	-0.65295	0.12979	-0.21289	31.0	13111	100
2025-3-27 18:38:5.338	WT901BLE68-01(48591DE3C19B)	-0.866	-1.304	0.950	-32.410	-60.425	-158.203	-84.51	-9.44	-26.56	-43.022	-29.008	70.070	0.71509	-0.65295	0.12979	-0.21289	31.0	13111	100
2025-3-27 18:38:5.339	WT901BLE68-01(48591DE3C19B)	-0.943	-1.304	0.950	-32.410	-60.425	-158.203	-84.81	-10.84	-26.08	-43.022	-29.008	70.070	0.71509	-0.65295	0.12979	-0.21289	31.0	13111	100
2025-3-27 18:38:5.398	WT901BLE68-01(48591DE3C19B)	-0.943	-1.509	0.834	-15.686	12.329	-131.226	-84.97	-12.07	-25.96	-43.022	-29.008	70.070	0.71509	-0.65295	0.12979	-0.21289	31.0	13111	100
2025-3-27 18:38:5.398	WT901BLE68-01(48591DE3C19B)	-1.187	-1.509	0.834	-15.686	12.329	-131.226	-84.97	-13.12	-26.19	-43.022	-29.008	70.070	0.71509	-0.65295	0.12979	-0.21289	31.0	13111	100
2025-3-27 18:38:5.398	WT901BLE68-01(48591DE3C19B)	-1.187	-1.609	0.643	1.160	67.566	-101.990	-84.82	-13.99	-26.68	-43.022	-29.008	70.070	0.71509	-0.65295	0.12979	-0.21289	31.0	13111	100
2025-3-27 18:38:5.399	WT901BLE68-01(48591DE3C19B)	-1.314	-1.609	0.643	1.160	67.566	-101.990	-84.51	-14.68	-27.45	-43.022	-29.008	70.070	0.71509	-0.65295	0.12979	-0.21289	31.0	13111	100
2025-3-27 18:38:5.428	WT901BLE68-01(48591DE3C19B)	-1.314	-1.537	0.536	18.188	86.609	-72.632	-84.10	-15.21	-28.30	-43.022	-29.008	70.070	0.71509	-0.65295	0.12979	-0.21289	31.0	13111	100
2025-3-27 18:38:5.428	WT901BLE68-01(48591DE3C19B)	-1.215	-1.537	0.536	18.188	86.609	-72.632	-83.59	-15.55	-29.22	-43.022	-29.008	70.070	0.71509	-0.65295	0.12979	-0.21289	31.0	13111	100
2025-3-27 18:38:5.429	WT901BLE68-01(48591DE3C19B)	-1.215	-1.425	0.494	20.081	88.623	-37.964	-83.07	-15.72	-30.13	-43.022	-29.008	70.070	0.71509	-0.65295	0.12979	-0.21289	31.0	13111	100
2025-3-27 18:38:5.429	WT901BLE68-01(48591DE3C19B)	-1.131	-1.425	0.494	20.081	88.623	-37.964	-82.56	-15.69	-31.03	-43.022	-29.008	70.070	0.71509	-0.65295	0.12979	-0.21289	31.0	13111	100
2025-3-27 18:38:5.458	WT901BLE68-01(48591DE3C19B)	-1.131	-1.316	0.510	21.545	83.130	1.404	-82.06	-15.46	-31.85	-43.022	-29.008	70.070	0.71509	-0.65295	0.12979	-0.21289	31.0	13111	100
2025-3-27 18:38:5.458	WT901BLE68-01(48591DE3C19B)	-1.046	-1.316	0.510	21.545	83.130	1.404	-81.58	-15.03	-32.62	-43.022	-29.008	70.070	0.71509	-0.65295	0.12979	-0.21289	31.0	13111	100
2025-3-27 18:38:5.458	WT901BLE68-01(48591DE3C19B)	-1.046	-1.116	0.504	19.653	57.922	43.579	-81.17	-14.41	-33.22	-43.022	-29.008	70.070	0.71509	-0.65295	0.12979	-0.21289	31.0	13111	100
2025-3-27 18:38:5.459	WT901BLE68-01(48591DE3C19B)	-0.933	-1.116	0.504	19.653	57.922	43.579	-80.82	-13.60	-33.64	-43.022	-29.008	70.070	0.71509	-0.65295	0.12979	-0.21289	31.0	13111	100
2025-3-27 18:38:5.519	WT901BLE68-01(48591DE3C19B)	-0.933	-0.992	0.450	15.259	20.569	84.900	-80.56	-12.61	-33.83	-43.022	-29.008	70.070	0.71509	-0.65295	0.12979	-0.21289	31.0	13111	100
2025-3-27 18:38:5.519	WT901BLE68-01(48591DE3C19B)	-0.785	-0.992	0.450	15.259	20.569	84.900	-80.36	-11.45	-33.79	-43.022	-29.008	70.070	0.71509	-0.65295	0.12979	-0.21289	31.0	13111	100
2025-3-27 18:38:5.520	WT901BLE68-01(48591DE3C19B)	-0.785	-0.970	0.333	10.986	-15.808	122.498	-80.24	-10.15	-33.54	-43.022	-29.008	70.070	0.71509	-0.65295	0.12979	-0.21289	31.0	13111	100
2025-3-27 18:38:5.520	WT901BLE68-01(48591DE3C19B)	-0.644	-0.970	0.333	10.986	-15.808	122.498	-80.17	-8.69	-33.06	-43.022	-29.008	70.070	0.71509	-0.65295	0.12979	-0.21289	31.0	13111	100
2025-3-27 18:38:5.587	WT901BLE68-01(48591DE3C19B)	-0.644	-1.033	0.208	7.935	-37.598	153.625	-80.12	-7.11	-32.46	-52.332	-24.402	75.852	0.71509	-0.65295	0.12979	-0.21289	31.0	13111	100
2025-3-27 18:38:5.587	WT901BLE68-01(48591DE3C19B)	-0.592	-1.033	0.208	7.935	-37.598	153.625	-80.08	-5.41	-31.73	-52.332	-24.402	75.852	0.71509	-0.65295	0.12979	-0.21289	31.0	13111	100
2025-3-27 18:38:5.587	WT901BLE68-01(48591DE3C19B)	-0.592	-1.159	0.152	8.972	-49.927	177.063	-80.04	-3.62	-30.93	-52.332	-24.402	75.852	0.71509	-0.65295	0.12979	-0.21289	31.0	13111	100
2025-3-27 18:38:5.587	WT901BLE68-01(48591DE3C19B)	-0.596	-1.159	0.152	8.972	-49.927	177.063	-79.96	-1.74	-30.05	-52.332	-24.402	75.852	0.71509	-0.65295	0.12979	-0.21289	31.0	13111	100
2025-3-27 18:38:5.587	WT901BLE68-01(48591DE3C19B)	-0.596	-1.280	0.152	14.954	-61.707	194.885	-79.81	0.27	-29.03	-52.332	-24.402	75.852	0.71509	-0.65295	0.12979	-0.21289	31.0	13111	100
2025-3-27 18:38:5.587	WT901BLE68-01(48591DE3C19B)	-0.561	-1.280	0.152	14.954	-61.707	194.885	-79.62	2.27	-28.01	-52.332	-24.402	75.852	0.71509	-0.65295	0.12979	-0.21289	31.0	13111	100
2025-3-27 18:38:5.587	WT901BLE68-01(48591DE3C19B)	-0.561	-1.343	0.143	24.170	-72.327	207.336	-79.30	4.35	-26.87	-52.332	-24.402	75.852	0.71509	-0.65295	0.12979	-0.21289	31.0	13111	100
2025-3-27 18:38:5.587	WT901BLE68-01(48591DE3C19B)	-0.470	-1.343	0.143	24.170	-72.327	207.336	-78.95	6.40	-25.72	-52.332	-24.402	75.852	0.71509	-0.65295	0.12979	-0.21289	31.0	13111	100
2025-3-27 18:38:5.639	WT901BLE68-01(48591DE3C19B)	-0.470	-1.356	0.114	34.424	-71.228	215.881	-78.45	8.51	-24.55	-52.332	-24.402	75.852	0.71509	-0.65295	0.12979	-0.21289	31.0	13111	100
2025-3-27 18:38:5.640	WT901BLE68-01(48591DE3C19B)	-0.377	-1.356	0.114	34.424	-71.228	215.881	-77.92	10.60	-23.37	-52.332	-24.402	75.852	0.71509	-0.65295	0.12979	-0.21289	31.0	13111	100
2025-3-27 18:38:5.640	WT901BLE68-01(48591DE3C19B)	-0.377	-1.283	0.068	43.274	-57.617	222.168	-77.28	12.74	-22.30	-52.332	-24.402	75.852	0.71509	-0.65295	0.12979	-0.21289	31.0	13111	100
2025-3-27 18:38:5.640	WT901BLE68-01(48591DE3C19B)	-0.293	-1.283	0.068	43.274	-57.617	222.168	-76.60	14.85	-21.20	-52.332	-24.402	75.852	0.71509	-0.65295	0.12979	-0.21289	31.0	13111	100
2025-3-27 18:38:5.699	WT901BLE68-01(48591DE3C19B)	-0.293	-1.146	0.047	46.936	-40.894	228.271	-75.88	17.03	-20.23	-52.332	-24.402	75.852	0.71509	-0.65295	0.12979	-0.21289	31.0	13111	100
2025-3-27 18:38:5.699	WT901BLE68-01(48591DE3C19B)	-0.196	-1.146	0.047	46.936	-40.894	228.271	-75.12	19.17	-19.23	-52.332	-24.402	75.852	0.71509	-0.65295	0.12979	-0.21289	31.0	13111	100
2025-3-27 18:38:5.699	WT901BLE68-01(48591DE3C19B)	-0.196	-1.075	0.041	43.457	-26.184	232.056	-74.40	21.36	-18.34	-52.332	-24.402	75.852	0.71509	-0.65295	0.12979	-0.21289	31.0	13111	100
2025-3-27 18:38:5.699	WT901BLE68-01(48591DE3C19B)	-0.093	-1.075	0.041	43.457	-26.184	232.056	-73.65	23.53	-17.42	-52.332	-24.402	75.852	0.71509	-0.65295	0.12979	-0.21289	31.0	13111	100
2025-3-27 18:38:5.700	WT901BLE68-01(48591DE3C19B)	-0.093	-1.061	0.022	40.466	-12.512	232.056	-72.94	25.70	-16.61	-52.332	-24.402	75.852	0.71509	-0.65295	0.12979	-0.21289	31.0	13111	100
2025-3-27 18:38:5.701	WT901BLE68-01(48591DE3C19B)	-0.035	-1.061	0.022	40.466	-12.512	232.056	-72.20	27.83	-15.76	-52.332	-24.402	75.852	0.71509	-0.65295	0.12979	-0.21289	31.0	13111	100
2025-3-27 18:38:5.701	WT901BLE68-01(48591DE3C19B)	-0.035	-1.003	0.014	35.645	4.578	231.628	-71.54	29.99	-15.07	-52.332	-24.402	75.852	0.79672	-0.53223	0.28217	0.04721	31.0	13111	100
2025-3-27 18:38:5.701	WT901BLE68-01(48591DE3C19B)	-0.039	-1.003	0.014	35.645	4.578	231.628	-70.86	32.13	-14.34	-52.332	-24.402	75.852	0.79672	-0.53223	0.28217	0.04721	31.0	13111	100
2025-3-27 18:38:5.789	WT901BLE68-01(48591DE3C19B)	-0.039	-1.071	0.031	27.222	20.691	227.478	-70.32	34.25	-13.78	-52.332	-24.402	75.852	0.79672	-0.53223	0.28217	0.04721	31.0	13111	100
2025-3-27 18:38:5.789	WT901BLE68-01(48591DE3C19B)	-0.009	-1.071	0.031	27.222	20.691	227.478	-69.76	36.35	-13.20	-52.332	-24.402	75.852	0.79672	-0.53223	0.28217	0.04721	31.0	13111	100
2025-3-27 18:38:5.789	WT901BLE68-01(48591DE3C19B)	-0.009	-1.189	0.047	23.132	34.363	218.079	-69.32	38.38	-12.79	-52.332	-24.402	75.852	0.79672	-0.53223	0.28217	0.04721	31.0	13111	100
2025-3-27 18:38:5.789	WT901BLE68-01(48591DE3C19B)	0.011	-1.189	0.047	23.132	34.363	218.079	-68.86	40.40	-12.35	-52.332	-24.402	75.852	0.79672	-0.53223	0.28217	0.04721	31.0	13111	100
2025-3-27 18:38:5.790	WT901BLE68-01(48591DE3C19B)	0.011	-1.234	0.060	18.066	39.856	205.322	-68.51	42.29	-12.04	-52.332	-24.402	75.852	0.79672	-0.53223	0.28217	0.04721	31.0	13111	100
2025-3-27 18:38:5.790	WT901BLE68-01(48591DE3C19B)	0.064	-1.234	0.060	18.066	39.856	205.322	-68.14	44.17	-11.69	-52.332	-24.402	75.852	0.79672	-0.53223	0.28217	0.04721	31.0	13111	100
2025-3-27 18:38:5.790	WT901BLE68-01(48591DE3C19B)	0.064	-1.392	0.021	5.676	41.077	181.152	-67.98	45.81	-11.49	-52.332	-24.402	75.852	0.79672	-0.53223	0.28217	0.04721	31.0	13111	100
2025-3-27 18:38:5.790	WT901BLE68-01(48591DE3C19B)	0.208	-1.392	0.021	5.676	41.077	181.152	-67.81	47.43	-11.28	-52.332	-24.402	75.852	0.79672	-0.53223	0.28217	0.04721	31.0	13111	100
2025-3-27 18:38:5.819	WT901BLE68-01(48591DE3C19B)	0.208	-1.661	-0.015	-3.540	33.875	144.043	-67.82	48.67	-11.19	-52.332	-24.402	75.852	0.79672	-0.53223	0.28217	0.04721	31.0	13111	100
2025-3-27 18:38:5.819	WT901BLE68-01(48591DE3C19B)	0.340	-1.661	-0.015	-3.540	33.875	144.043	-67.83	49.91	-11.11	-52.332	-24.402	75.852	0.79672	-0.53223	0.28217	0.04721	31.0	13111	100
2025-3-27 18:38:5.819	WT901BLE68-01(48591DE3C19B)	0.340	-1.896	0.009	-10.010	12.085	100.586	-67.87	50.63	-10.98	-52.332	-24.402	75.852	0.79672	-0.53223	0.28217	0.04721	31.0	13111	100
2025-3-27 18:38:5.819	WT901BLE68-01(48591DE3C19B)	0.347	-1.896	0.009	-10.010	12.085	100.586	-67.91	51.35	-10.85	-52.332	-24.402	75.852	0.79672	-0.53223	0.28217	0.04721	31.0	13111	100
2025-3-27 18:38:5.885	WT901BLE68-01(48591DE3C19B)	0.347	-1.974	0.077	-7.507	-9.338	54.932	-67.90	51.56	-10.70	-52.332	-24.402	75.852	0.79672	-0.53223	0.28217	0.04721	31.0	13111	100
2025-3-27 18:38:5.885	WT901BLE68-01(48591DE3C19B)	0.294	-1.974	0.077	-7.507	-9.338	54.932	-67.90	51.76	-10.55	-52.332	-24.402	75.852	0.79672	-0.53223	0.28217	0.04721	31.0	13111	100
2025-3-27 18:38:5.885	WT901BLE68-01(48591DE3C19B)	0.294	-1.829	0.161	-6.226	-18.860	6.165	-68.00	51.47	-10.56	-52.332	-24.402	75.852	0.79672	-0.53223	0.28217	0.04721	31.0	13111	100
2025-3-27 18:38:5.886	WT901BLE68-01(48591DE3C19B)	0.202	-1.829	0.161	-6.226	-18.860	6.165	-68.10	51.19	-10.57	-52.332	-24.402	75.852	0.79672	-0.53223	0.28217	0.04721	31.0	13111	100
2025-3-27 18:38:5.911	WT901BLE68-01(48591DE3C19B)	0.202	-1.689	0.253	-11.414	-17.761	-39.734	-68.47	50.47	-10.87	-52.332	-24.402	75.852	0.79672	-0.53223	0.28217	0.04721	31.0	13111	100
2025-3-27 18:38:5.912	WT901BLE68-01(48591DE3C19B)	0.204	-1.689	0.253	-11.414	-17.761	-39.734	-68.83	49.76	-11.15	-52.332	-24.402	75.852	0.79672	-0.53223	0.28217	0.04721	31.0	13111	100
2025-3-27 18:38:5.912	WT901BLE68-01(48591DE3C19B)	0.204	-1.539	0.215	-8.789	2.197	-83.496	-69.53	48.71	-11.94	-52.332	-24.402	75.852	0.79672	-0.53223	0.28217	0.04721	31.0	13111	100
2025-3-27 18:38:5.912	WT901BLE68-01(48591DE3C19B)	0.213	-1.539	0.215	-8.789	2.197	-83.496	-70.20	47.66	-12.68	-53.214	-32.438	69.776	0.79672	-0.53223	0.28217	0.04721	31.0	13111	100
2025-3-27 18:38:5.941	WT901BLE68-01(48591DE3C19B)	0.213	-1.304	0.162	-8.484	24.475	-118.774	-71.17	46.35	-13.87	-53.214	-32.438	69.776	0.79672	-0.53223	0.28217	0.04721	31.0	13111	100
2025-3-27 18:38:5.941	WT901BLE68-01(48591DE3C19B)	0.197	-1.304	0.162	-8.484	24.475	-118.774	-72.08	45.03	-14.99	-53.214	-32.438	69.776	0.79672	-0.53223	0.28217	0.04721	31.0	13111	100
2025-3-27 18:38:5.941	WT901BLE68-01(48591DE3C19B)	0.197	-1.138	0.121	-12.207	44.128	-147.827	-73.22	43.48	-16.43	-53.214	-32.438	69.776	0.79672	-0.53223	0.28217	0.04721	31.0	13111	100
2025-3-27 18:38:5.941	WT901BLE68-01(48591DE3C19B)	0.166	-1.138	0.121	-12.207	44.128	-147.827	-74.28	41.92	-17.79	-53.214	-32.438	69.776	0.79672	-0.53223	0.28217	0.04721	31.0	13111	100
2025-3-27 18:38:5.999	WT901BLE68-01(48591DE3C19B)	0.166	-1.111	0.111	-17.517	57.190	-173.157	-75.47	40.14	-19.31	-53.214	-32.438	69.776	0.79672	-0.53223	0.28217	0.04721	31.0	13111	100
2025-3-27 18:38:5.999	WT901BLE68-01(48591DE3C19B)	0.072	-1.111	0.111	-17.517	57.190	-173.157	-76.56	38.35	-20.75	-53.214	-32.438	69.776	0.79672	-0.53223	0.28217	0.04721	31.0	13111	100
2025-3-27 18:38:5.999	WT901BLE68-01(48591DE3C19B)	0.072	-1.224	0.114	-19.592	66.711	-193.970	-77.70	36.36	-22.26	-53.214	-32.438	69.776	0.79672	-0.53223	0.28217	0.04721	31.0	13111	100
2025-3-27 18:38:5.999	WT901BLE68-01(48591DE3C19B)	-0.083	-1.224	0.114	-19.592	66.711	-193.970	-78.73	34.37	-23.69	-53.214	-32.438	69.776	0.79672	-0.53223	0.28217	0.04721	31.0	13111	100
2025-3-27 18:38:6.29	WT901BLE68-01(48591DE3C19B)	-0.242	-1.301	0.162	-8.789	69.275	-208.191	-79.60	32.23	-25.10	-53.214	-32.438	69.776	0.79672	-0.53223	0.28217	0.04721	31.0	13111	100
2025-3-27 18:38:6.29	WT901BLE68-01(48591DE3C19B)	-0.242	-1.284	0.189	-5.127	51.941	-224.487	-80.32	30.01	-26.35	-53.214	-32.438	69.776	0.79672	-0.53223	0.28217	0.04721	31.0	13111	100
2025-3-27 18:38:6.29	WT901BLE68-01(48591DE3C19B)	-0.250	-1.284	0.189	-5.127	51.941	-224.487	-80.90	27.70	-27.44	-53.214	-32.438	69.776	0.79672	-0.53223	0.28217	0.04721	31.0	13111	100
2025-3-27 18:38:6.29	WT901BLE68-01(48591DE3C19B)	-0.250	-1.270	0.198	-6.409	33.264	-240.845	-81.38	25.30	-28.39	-53.214	-32.438	69.776	0.79672	-0.53223	0.28217	0.04721	31.0	13111	100
2025-3-27 18:38:6.58	WT901BLE68-01(48591DE3C19B)	-0.224	-1.270	0.198	-6.409	33.264	-240.845	-81.78	22.82	-29.21	-53.214	-32.438	69.776	0.79672	-0.53223	0.28217	0.04721	31.0	13111	100
2025-3-27 18:38:6.58	WT901BLE68-01(48591DE3C19B)	-0.224	-1.264	0.202	-9.277	31.067	-253.662	-82.14	20.30	-29.99	-53.214	-32.438	69.776	0.79672	-0.53223	0.28217	0.04721	31.0	13111	100
2025-3-27 18:38:6.58	WT901BLE68-01(48591DE3C19B)	-0.244	-1.264	0.202	-9.277	31.067	-253.662	-82.46	17.73	-30.72	-53.214	-32.438	69.776	0.79672	-0.53223	0.28217	0.04721	31.0	13111	100
2025-3-27 18:38:6.58	WT901BLE68-01(48591DE3C19B)	-0.244	-1.244	0.199	-10.132	36.499	-266.113	-82.77	15.12	-31.46	-53.214	-32.438	69.776	0.79672	-0.53223	0.28217	0.04721	31.0	13111	100
2025-3-27 18:38:6.120	WT901BLE68-01(48591DE3C19B)	-0.279	-1.244	0.199	-10.132	36.499	-266.113	-83.04	12.46	-32.21	-53.214	-32.438	69.776	0.79672	-0.53223	0.28217	0.04721	31.0	13111	100
2025-3-27 18:38:6.120	WT901BLE68-01(48591DE3C19B)	-0.279	-1.250	0.188	-11.536	40.344	-277.954	-83.29	9.77	-32.96	-53.214	-32.438	69.776	0.79672	-0.53223	0.28217	0.04721	31.0	13111	100
2025-3-27 18:38:6.120	WT901BLE68-01(48591DE3C19B)	-0.348	-1.250	0.188	-11.536	40.344	-277.954	-83.50	7.03	-33.71	-53.214	-32.438	69.776	0.79672	-0.53223	0.28217	0.04721	31.0	13111	100
2025-3-27 18:38:6.121	WT901BLE68-01(48591DE3C19B)	-0.348	-1.273	0.192	-10.864	40.344	-287.720	-83.68	4.27	-34.45	-53.214	-32.438	69.776	0.79672	-0.53223	0.28217	0.04721	31.0	13111	100
2025-3-27 18:38:6.149	WT901BLE68-01(48591DE3C19B)	-0.431	-1.273	0.192	-10.864	40.344	-287.720	-83.81	1.48	-35.17	-53.214	-32.438	69.776	0.71194	-0.63373	0.21097	-0.21658	31.0	13111	100
2025-3-27 18:38:6.149	WT901BLE68-01(48591DE3C19B)	-0.431	-1.277	0.232	-7.446	38.635	-292.358	-83.90	-1.31	-35.88	-53.214	-32.438	69.776	0.71194	-0.63373	0.21097	-0.21658	31.0	13111	100
2025-3-27 18:38:6.149	WT901BLE68-01(48591DE3C19B)	-0.560	-1.277	0.232	-7.446	38.635	-292.358	-83.92	-4.10	-36.57	-53.214	-32.438	69.776	0.71194	-0.63373	0.21097	-0.21658	31.0	13111	100
2025-3-27 18:38:6.149	WT901BLE68-01(48591DE3C19B)	-0.560	-1.269	0.275	-1.465	28.809	-290.588	-83.90	-6.87	-37.20	-53.214	-32.438	69.776	0.71194	-0.63373	0.21097	-0.21658	31.0	13111	100
2025-3-27 18:38:6.187	WT901BLE68-01(48591DE3C19B)	-0.702	-1.269	0.275	-1.465	28.809	-290.588	-83.81	-9.61	-37.79	-53.214	-32.438	69.776	0.71194	-0.63373	0.21097	-0.21658	31.0	13111	100
2025-3-27 18:38:6.187	WT901BLE68-01(48591DE3C19B)	-0.702	-1.241	0.289	5.859	8.606	-280.273	-83.68	-12.28	-38.27	-53.214	-32.438	69.776	0.71194	-0.63373	0.21097	-0.21658	31.0	13111	100
2025-3-27 18:38:6.188	WT901BLE68-01(48591DE3C19B)	-0.792	-1.241	0.289	5.859	8.606	-280.273	-83.52	-14.89	-38.64	-53.214	-32.438	69.776	0.71194	-0.63373	0.21097	-0.21658	31.0	13111	100
2025-3-27 18:38:6.188	WT901BLE68-01(48591DE3C19B)	-0.792	-1.181	0.294	12.634	-13.611	-260.437	-83.34	-17.38	-38.89	-53.214	-32.438	69.776	0.71194	-0.63373	0.21097	-0.21658	31.0	13111	100
2025-3-27 18:38:6.240	WT901BLE68-01(48591DE3C19B)	-0.765	-1.181	0.294	12.634	-13.611	-260.437	-83.16	-19.76	-39.02	-53.214	-32.438	69.776	0.71194	-0.63373	0.21097	-0.21658	31.0	13111	100
2025-3-27 18:38:6.240	WT901BLE68-01(48591DE3C19B)	-0.765	-1.124	0.292	14.771	-24.536	-231.750	-82.97	-21.99	-39.07	-53.214	-32.438	69.776	0.71194	-0.63373	0.21097	-0.21658	31.0	13111	100
2025-3-27 18:38:6.240	WT901BLE68-01(48591DE3C19B)	-0.597	-1.124	0.292	14.771	-24.536	-231.750	-82.81	-24.06	-39.05	-53.214	-32.438	69.776	0.71194	-0.63373	0.21097	-0.21658	31.0	13111	100
2025-3-27 18:38:6.240	WT901BLE68-01(48591DE3C19B)	-0.597	-1.088	0.304	14.832	-17.639	-195.679	-82.64	-25.93	-39.05	-53.214	-32.438	69.776	0.71194	-0.63373	0.21097	-0.21658	31.0	13111	100
2025-3-27 18:38:6.270	WT901BLE68-01(48591DE3C19B)	-0.500	-1.088	0.304	14.832	-17.639	-195.679	-82.47	-27.60	-39.06	-53.214	-32.438	69.776	0.71194	-0.63373	0.21097	-0.21658	31.0	13111	100
2025-3-27 18:38:6.270	WT901BLE68-01(48591DE3C19B)	-0.500	-1.093	0.329	12.634	-2.991	-161.255	-82.27	-29.08	-39.13	-53.214	-32.438	69.776	0.71194	-0.63373	0.21097	-0.21658	31.0	13111	100
2025-3-27 18:38:6.270	WT901BLE68-01(48591DE3C19B)	-0.526	-1.093	0.329	12.634	-2.991	-161.255	-82.05	-30.38	-39.26	-53.214	-32.438	69.776	0.71194	-0.63373	0.21097	-0.21658	31.0	13111	100
2025-3-27 18:38:6.270	WT901BLE68-01(48591DE3C19B)	-0.526	-1.176	0.368	8.423	8.362	-135.132	-81.82	-31.53	-39.45	-53.214	-32.438	69.776	0.71194	-0.63373	0.21097	-0.21658	31.0	13111	100
2025-3-27 18:38:6.330	WT901BLE68-01(48591DE3C19B)	-0.646	-1.176	0.368	8.423	8.362	-135.132	-81.57	-32.53	-39.68	-53.214	-32.438	69.776	0.71194	-0.63373	0.21097	-0.21658	31.0	13111	100
2025-3-27 18:38:6.330	WT901BLE68-01(48591DE3C19B)	-0.646	-1.314	0.447	5.859	26.184	-101.685	-81.29	-33.35	-40.00	-54.586	-31.948	78.106	0.71194	-0.63373	0.21097	-0.21658	31.0	13111	100
2025-3-27 18:38:6.330	WT901BLE68-01(48591DE3C19B)	-0.806	-1.314	0.447	5.859	26.184	-101.685	-80.97	-33.98	-40.41	-54.586	-31.948	78.106	0.71194	-0.63373	0.21097	-0.21658	31.0	13111	100
2025-3-27 18:38:6.330	WT901BLE68-01(48591DE3C19B)	-0.806	-1.416	0.483	3.967	44.678	-68.115	-80.61	-34.43	-40.89	-54.586	-31.948	78.106	0.71194	-0.63373	0.21097	-0.21658	31.0	13111	100
2025-3-27 18:38:6.358	WT901BLE68-01(48591DE3C19B)	-0.885	-1.416	0.483	3.967	44.678	-68.115	-80.21	-34.69	-41.45	-54.586	-31.948	78.106	0.71194	-0.63373	0.21097	-0.21658	31.0	13111	100
2025-3-27 18:38:6.359	WT901BLE68-01(48591DE3C19B)	-0.885	-1.406	0.471	2.380	61.523	-28.137	-79.79	-34.73	-42.07	-54.586	-31.948	78.106	0.71194	-0.63373	0.21097	-0.21658	31.0	13111	100
2025-3-27 18:38:6.359	WT901BLE68-01(48591DE3C19B)	-0.932	-1.406	0.471	2.380	61.523	-28.137	-79.34	-34.55	-42.74	-54.586	-31.948	78.106	0.71194	-0.63373	0.21097	-0.21658	31.0	13111	100
2025-3-27 18:38:6.359	WT901BLE68-01(48591DE3C19B)	-0.932	-1.312	0.448	-3.052	57.922	15.320	-78.98	-34.15	-43.34	-54.586	-31.948	78.106	0.71194	-0.63373	0.21097	-0.21658	31.0	13111	100
2025-3-27 18:38:6.390	WT901BLE68-01(48591DE3C19B)	-0.927	-1.312	0.448	-3.052	57.922	15.320	-78.69	-33.54	-43.84	-54.586	-31.948	78.106	0.71194	-0.63373	0.21097	-0.21658	31.0	13111	100
2025-3-27 18:38:6.390	WT901BLE68-01(48591DE3C19B)	-0.927	-1.204	0.447	-8.545	31.616	59.631	-78.55	-32.74	-44.13	-54.586	-31.948	78.106	0.71194	-0.63373	0.21097	-0.21658	31.0	13111	100
2025-3-27 18:38:6.390	WT901BLE68-01(48591DE3C19B)	-0.933	-1.204	0.447	-8.545	31.616	59.631	-78.56	-31.74	-44.20	-54.586	-31.948	78.106	0.71194	-0.63373	0.21097	-0.21658	31.0	13111	100
2025-3-27 18:38:6.390	WT901BLE68-01(48591DE3C19B)	-0.933	-1.084	0.419	-13.916	-10.925	100.342	-78.76	-30.60	-43.98	-54.586	-31.948	78.106	0.71194	-0.63373	0.21097	-0.21658	31.0	13111	100
2025-3-27 18:38:6.449	WT901BLE68-01(48591DE3C19B)	-0.909	-1.084	0.419	-13.916	-10.925	100.342	-79.11	-29.29	-43.49	-54.586	-31.948	78.106	0.71194	-0.63373	0.21097	-0.21658	31.0	13111	100
2025-3-27 18:38:6.449	WT901BLE68-01(48591DE3C19B)	-0.909	-1.052	0.336	-17.700	-63.049	138.733	-79.62	-27.84	-42.67	-54.586	-31.948	78.106	0.71194	-0.63373	0.21097	-0.21658	31.0	13111	100
2025-3-27 18:38:6.449	WT901BLE68-01(48591DE3C19B)	-0.767	-1.052	0.336	-17.700	-63.049	138.733	-80.27	-26.25	-41.56	-54.586	-31.948	78.106	0.71194	-0.63373	0.21097	-0.21658	31.0	13111	100
2025-3-27 18:38:6.449	WT901BLE68-01(48591DE3C19B)	-0.767	-1.102	0.238	-16.663	-108.704	174.683	-80.99	-24.51	-40.20	-54.586	-31.948	78.106	0.71194	-0.63373	0.21097	-0.21658	31.0	13111	100
2025-3-27 18:38:6.485	WT901BLE68-01(48591DE3C19B)	-0.567	-1.102	0.238	-16.663	-108.704	174.683	-81.76	-22.62	-38.61	-54.586	-31.948	78.106	0.71194	-0.63373	0.21097	-0.21658	31.0	13111	100
2025-3-27 18:38:6.485	WT901BLE68-01(48591DE3C19B)	-0.567	-1.203	0.177	-7.935	-128.052	205.078	-82.46	-20.45	-36.84	-54.586	-31.948	78.106	0.71194	-0.63373	0.21097	-0.21658	31.0	13111	100
2025-3-27 18:38:6.485	WT901BLE68-01(48591DE3C19B)	-0.430	-1.203	0.177	-7.935	-128.052	205.078	-83.07	-18.28	-35.12	-54.586	-31.948	78.106	0.71194	-0.63373	0.21097	-0.21658	31.0	13111	100
2025-3-27 18:38:6.485	WT901BLE68-01(48591DE3C19B)	-0.430	-1.295	0.158	5.981	-127.869	228.333	-83.48	-15.88	-33.43	-54.586	-31.948	78.106	0.71194	-0.63373	0.21097	-0.21658	31.0	13111	100
2025-3-27 18:38:6.512	WT901BLE68-01(48591DE3C19B)	-0.341	-1.295	0.158	5.981	-127.869	228.333	-83.80	-13.49	-31.78	-54.586	-31.948	78.106	0.71194	-0.63373	0.21097	-0.21658	31.0	13111	100
2025-3-27 18:38:6.512	WT901BLE68-01(48591DE3C19B)	-0.341	-1.382	0.167	20.508	-121.033	243.835	-83.90	-10.96	-30.23	-54.586	-31.948	78.106	0.71194	-0.63373	0.21097	-0.21658	31.0	13111	100
2025-3-27 18:38:6.512	WT901BLE68-01(48591DE3C19B)	-0.281	-1.382	0.167	20.508	-121.033	243.835	-83.92	-8.45	-28.71	-54.586	-31.948	78.106	0.71051	-0.65805	0.11630	-0.22025	31.0	13111	100
2025-3-27 18:38:6.512	WT901BLE68-01(48591DE3C19B)	-0.281	-1.457	0.194	36.194	-108.948	253.174	-83.70	-5.86	-27.32	-54.586	-31.948	78.106	0.71051	-0.65805	0.11630	-0.22025	31.0	13111	100
2025-3-27 18:38:6.569	WT901BLE68-01(48591DE3C19B)	-0.250	-1.457	0.194	36.194	-108.948	253.174	-83.42	-3.31	-25.94	-54.586	-31.948	78.106	0.71051	-0.65805	0.11630	-0.22025	31.0	13111	100
2025-3-27 18:38:6.569	WT901BLE68-01(48591DE3C19B)	-0.250	-1.518	0.226	50.964	-90.271	260.376	-82.94	-0.69	-24.74	-54.586	-31.948	78.106	0.71051	-0.65805	0.11630	-0.22025	31.0	13111	100
2025-3-27 18:38:6.569	WT901BLE68-01(48591DE3C19B)	-0.238	-1.518	0.226	50.964	-90.271	260.376	-82.39	1.90	-23.52	-54.586	-31.948	78.106	0.71051	-0.65805	0.11630	-0.22025	31.0	13111	100
2025-3-27 18:38:6.570	WT901BLE68-01(48591DE3C19B)	-0.238	-1.549	0.201	62.683	-67.932	264.832	-81.69	4.52	-22.51	-54.586	-31.948	78.106	0.71051	-0.65805	0.11630	-0.22025	31.0	13111	100
2025-3-27 18:38:6.598	WT901BLE68-01(48591DE3C19B)	-0.235	-1.549	0.201	62.683	-67.932	264.832	-80.94	7.10	-21.47	-54.586	-31.948	78.106	0.71051	-0.65805	0.11630	-0.22025	31.0	13111	100
2025-3-27 18:38:6.598	WT901BLE68-01(48591DE3C19B)	-0.235	-1.488	0.164	71.411	-44.983	268.005	-80.09	9.72	-20.62	-54.586	-31.948	78.106	0.71051	-0.65805	0.11630	-0.22025	31.0	13111	100
2025-3-27 18:38:6.598	WT901BLE68-01(48591DE3C19B)	-0.248	-1.488	0.164	71.411	-44.983	268.005	-79.20	12.31	-19.73	-54.586	-31.948	78.106	0.71051	-0.65805	0.11630	-0.22025	31.0	13111	100
2025-3-27 18:38:6.598	WT901BLE68-01(48591DE3C19B)	-0.248	-1.382	0.173	75.500	-24.475	269.226	-78.27	14.91	-19.00	-54.586	-31.948	78.106	0.71051	-0.65805	0.11630	-0.22025	31.0	13111	100
2025-3-27 18:38:6.629	WT901BLE68-01(48591DE3C19B)	-0.249	-1.382	0.173	75.500	-24.475	269.226	-77.31	17.48	-18.23	-54.586	-31.948	78.106	0.71051	-0.65805	0.11630	-0.22025	31.0	13111	100
2025-3-27 18:38:6.629	WT901BLE68-01(48591DE3C19B)	-0.249	-1.408	0.176	73.547	-7.874	272.644	-76.36	20.10	-17.58	-54.586	-31.948	78.106	0.71051	-0.65805	0.11630	-0.22025	31.0	13111	100
2025-3-27 18:38:6.629	WT901BLE68-01(48591DE3C19B)	-0.212	-1.408	0.176	73.547	-7.874	272.644	-75.38	22.68	-16.87	-54.586	-31.948	78.106	0.71051	-0.65805	0.11630	-0.22025	31.0	13111	100
2025-3-27 18:38:6.629	WT901BLE68-01(48591DE3C19B)	-0.212	-1.435	0.141	74.402	7.446	276.184	-74.40	25.31	-16.27	-54.586	-31.948	78.106	0.71051	-0.65805	0.11630	-0.22025	31.0	13111	100
2025-3-27 18:38:6.691	WT901BLE68-01(48591DE3C19B)	-0.193	-1.435	0.141	74.402	7.446	276.184	-73.37	27.91	-15.60	-54.586	-31.948	78.106	0.71051	-0.65805	0.11630	-0.22025	31.0	13111	100
2025-3-27 18:38:6.691	WT901BLE68-01(48591DE3C19B)	-0.193	-1.435	0.117	70.679	19.958	278.259	-72.39	30.53	-15.01	-54.586	-31.948	78.106	0.71051	-0.65805	0.11630	-0.22025	31.0	13111	100
2025-3-27 18:38:6.691	WT901BLE68-01(48591DE3C19B)	-0.200	-1.435	0.117	70.679	19.958	278.259	-71.36	33.13	-14.35	-54.586	-31.948	78.106	0.71051	-0.65805	0.11630	-0.22025	31.0	13111	100
2025-3-27 18:38:6.691	WT901BLE68-01(48591DE3C19B)	-0.200	-1.606	0.086	60.730	26.550	275.696	-70.42	35.70	-13.72	-54.586	-31.948	78.106	0.71051	-0.65805	0.11630	-0.22025	31.0	13111	100
2025-3-27 18:38:6.722	WT901BLE68-01(48591DE3C19B)	-0.218	-1.606	0.086	60.730	26.550	275.696	-69.41	38.24	-13.02	-54.586	-31.948	78.106	0.71051	-0.65805	0.11630	-0.22025	31.0	13111	100
2025-3-27 18:38:6.723	WT901BLE68-01(48591DE3C19B)	-0.218	-1.845	0.069	53.955	24.048	271.606	-68.40	40.70	-12.24	-54.586	-31.948	78.106	0.71051	-0.65805	0.11630	-0.22025	31.0	13111	100
2025-3-27 18:38:6.723	WT901BLE68-01(48591DE3C19B)	-0.230	-1.845	0.069	53.955	24.048	271.606	-67.31	43.15	-11.37	-54.586	-31.948	78.106	0.71051	-0.65805	0.11630	-0.22025	31.0	13111	100
2025-3-27 18:38:6.723	WT901BLE68-01(48591DE3C19B)	-0.230	-2.145	0.121	48.584	13.245	266.663	-66.12	45.47	-10.31	-58.310	-37.730	69.090	0.71051	-0.65805	0.11630	-0.22025	31.0	13111	100
2025-3-27 18:38:6.751	WT901BLE68-01(48591DE3C19B)	-0.063	-2.145	0.121	48.584	13.245	266.663	-64.81	47.76	-9.14	-58.310	-37.730	69.090	0.71051	-0.65805	0.11630	-0.22025	31.0	13111	100
2025-3-27 18:38:6.751	WT901BLE68-01(48591DE3C19B)	-0.063	-2.304	0.058	52.551	-0.610	249.878	-63.29	49.81	-7.77	-58.310	-37.730	69.090	0.71051	-0.65805	0.11630	-0.22025	31.0	13111	100
2025-3-27 18:38:6.751	WT901BLE68-01(48591DE3C19B)	0.321	-2.304	0.058	52.551	-0.610	249.878	-61.63	51.81	-6.27	-58.310	-37.730	69.090	0.71051	-0.65805	0.11630	-0.22025	31.0	13111	100
2025-3-27 18:38:6.751	WT901BLE68-01(48591DE3C19B)	0.321	-2.046	-0.077	60.669	-6.897	220.581	-59.88	53.49	-4.78	-58.310	-37.730	69.090	0.71051	-0.65805	0.11630	-0.22025	31.0	13111	100
2025-3-27 18:38:6.810	WT901BLE68-01(48591DE3C19B)	0.529	-2.046	-0.077	60.669	-6.897	220.581	-58.00	55.12	-3.16	-58.310	-37.730	69.090	0.71051	-0.65805	0.11630	-0.22025	31.0	13111	100
2025-3-27 18:38:6.810	WT901BLE68-01(48591DE3C19B)	0.529	-1.862	-0.043	51.453	-1.953	186.462	-56.42	56.44	-1.81	-58.310	-37.730	69.090	0.71051	-0.65805	0.11630	-0.22025	31.0	13111	100
2025-3-27 18:38:6.810	WT901BLE68-01(48591DE3C19B)	0.356	-1.862	-0.043	51.453	-1.953	186.462	-54.74	57.73	-0.38	-58.310	-37.730	69.090	0.71051	-0.65805	0.11630	-0.22025	31.0	13111	100
2025-3-27 18:38:6.810	WT901BLE68-01(48591DE3C19B)	0.356	-1.783	0.087	25.146	-4.944	132.080	-53.72	58.54	0.58	-58.310	-37.730	69.090	0.71051	-0.65805	0.11630	-0.22025	31.0	13111	100
2025-3-27 18:38:6.902	WT901BLE68-01(48591DE3C19B)	0.277	-1.783	0.087	25.146	-4.944	132.080	-52.66	59.33	1.58	-58.310	-37.730	69.090	0.71051	-0.65805	0.11630	-0.22025	31.0	13111	100
2025-3-27 18:38:6.902	WT901BLE68-01(48591DE3C19B)	0.277	-1.625	0.247	13.123	-14.954	61.401	-52.28	59.48	1.91	-58.310	-37.730	69.090	0.71051	-0.65805	0.11630	-0.22025	31.0	13111	100
2025-3-27 18:38:6.902	WT901BLE68-01(48591DE3C19B)	0.396	-1.625	0.247	13.123	-14.954	61.401	-51.90	59.63	2.24	-58.310	-37.730	69.090	0.71051	-0.65805	0.11630	-0.22025	31.0	13111	100
2025-3-27 18:38:6.902	WT901BLE68-01(48591DE3C19B)	0.396	-1.328	0.287	5.615	-9.338	0.427	-52.32	59.33	1.74	-58.310	-37.730	69.090	0.71051	-0.65805	0.11630	-0.22025	31.0	13111	100
2025-3-27 18:38:6.902	WT901BLE68-01(48591DE3C19B)	0.392	-1.328	0.287	5.615	-9.338	0.427	-52.72	59.02	1.25	-58.310	-37.730	69.090	0.71051	-0.65805	0.11630	-0.22025	31.0	13111	100
2025-3-27 18:38:6.903	WT901BLE68-01(48591DE3C19B)	0.392	-1.122	0.174	-5.066	23.010	-49.988	-54.14	58.50	-0.31	-58.310	-37.730	69.090	0.71051	-0.65805	0.11630	-0.22025	31.0	13111	100
2025-3-27 18:38:6.903	WT901BLE68-01(48591DE3C19B)	0.308	-1.122	0.174	-5.066	23.010	-49.988	-55.50	57.96	-1.82	-58.310	-37.730	69.090	0.71051	-0.65805	0.11630	-0.22025	31.0	13111	100
2025-3-27 18:38:6.903	WT901BLE68-01(48591DE3C19B)	0.308	-0.978	0.066	-15.137	44.495	-91.797	-57.54	57.16	-4.03	-58.310	-37.730	69.090	0.71051	-0.65805	0.11630	-0.22025	31.0	13111	100
2025-3-27 18:38:6.959	WT901BLE68-01(48591DE3C19B)	0.229	-0.978	0.066	-15.137	44.495	-91.797	-59.49	56.33	-6.14	-58.310	-37.730	69.090	0.71051	-0.65805	0.11630	-0.22025	31.0	13111	100
2025-3-27 18:38:6.959	WT901BLE68-01(48591DE3C19B)	0.229	-0.929	0.004	-23.193	54.688	-127.686	-61.78	55.19	-8.60	-58.310	-37.730	69.090	0.71051	-0.65805	0.11630	-0.22025	31.0	13111	100
2025-3-27 18:38:6.960	WT901BLE68-01(48591DE3C19B)	0.134	-0.929	0.004	-23.193	54.688	-127.686	-63.91	54.01	-10.91	-58.310	-37.730	69.090	0.71051	-0.65805	0.11630	-0.22025	31.0	13111	100
2025-3-27 18:38:6.960	WT901BLE68-01(48591DE3C19B)	0.000	-0.975	-0.016	-28.687	61.646	-159.302	-66.21	52.53	-13.39	-58.310	-37.730	69.090	0.71051	-0.65805	0.11630	-0.22025	31.0	13111	100
2025-3-27 18:38:6.961	WT901BLE68-01(48591DE3C19B)	0.000	-1.052	-0.008	-30.029	63.416	-188.599	-68.40	50.86	-15.77	-58.310	-37.730	69.090	0.77225	-0.45966	0.41928	0.12820	31.0	13111	100
2025-3-27 18:38:6.961	WT901BLE68-01(48591DE3C19B)	-0.137	-1.052	-0.008	-30.029	63.416	-188.599	-70.47	49.03	-18.05	-58.310	-37.730	69.090	0.77225	-0.45966	0.41928	0.12820	31.0	13111	100
2025-3-27 18:38:6.961	WT901BLE68-01(48591DE3C19B)	-0.137	-1.083	0.038	-29.541	51.636	-216.919	-72.33	47.01	-20.12	-58.310	-37.730	69.090	0.77225	-0.45966	0.41928	0.12820	31.0	13111	100
2025-3-27 18:38:6.961	WT901BLE68-01(48591DE3C19B)	-0.243	-1.083	0.038	-29.541	51.636	-216.919	-73.99	44.81	-21.99	-58.310	-37.730	69.090	0.77225	-0.45966	0.41928	0.12820	31.0	13111	100
2025-3-27 18:38:6.991	WT901BLE68-01(48591DE3C19B)	-0.243	-1.124	0.097	-31.677	31.616	-244.507	-75.43	42.43	-23.60	-58.310	-37.730	69.090	0.77225	-0.45966	0.41928	0.12820	31.0	13111	100
2025-3-27 18:38:6.991	WT901BLE68-01(48591DE3C19B)	-0.340	-1.124	0.097	-31.677	31.616	-244.507	-76.67	39.90	-24.99	-58.310	-37.730	69.090	0.77225	-0.45966	0.41928	0.12820	31.0	13111	100
2025-3-27 18:38:6.991	WT901BLE68-01(48591DE3C19B)	-0.340	-1.189	0.146	-34.973	11.902	-269.836	-77.74	37.22	-26.16	-58.310	-37.730	69.090	0.77225	-0.45966	0.41928	0.12820	31.0	13111	100
2025-3-27 18:38:6.991	WT901BLE68-01(48591DE3C19B)	-0.438	-1.189	0.146	-34.973	11.902	-269.836	-78.67	34.40	-27.13	-58.310	-37.730	69.090	0.77225	-0.45966	0.41928	0.12820	31.0	13111	100
2025-3-27 18:38:7.50	WT901BLE68-01(48591DE3C19B)	-0.438	-1.258	0.177	-37.781	-5.188	-289.490	-79.48	31.49	-27.93	-58.310	-37.730	69.090	0.77225	-0.45966	0.41928	0.12820	31.0	13111	100
2025-3-27 18:38:7.50	WT901BLE68-01(48591DE3C19B)	-0.486	-1.258	0.177	-37.781	-5.188	-289.490	-80.18	28.48	-28.57	-58.310	-37.730	69.090	0.77225	-0.45966	0.41928	0.12820	31.0	13111	100
2025-3-27 18:38:7.50	WT901BLE68-01(48591DE3C19B)	-0.486	-1.229	0.192	-41.565	-17.273	-300.110	-80.82	25.43	-29.09	-58.310	-37.730	69.090	0.77225	-0.45966	0.41928	0.12820	31.0	13111	100
2025-3-27 18:38:7.50	WT901BLE68-01(48591DE3C19B)	-0.494	-1.229	0.192	-41.565	-17.273	-300.110	-81.40	22.35	-29.49	-58.310	-37.730	69.090	0.77225	-0.45966	0.41928	0.12820	31.0	13111	100
2025-3-27 18:38:7.85	WT901BLE68-01(48591DE3C19B)	-0.494	-1.199	0.205	-49.988	-22.583	-305.481	-81.97	19.25	-29.82	-58.310	-37.730	69.090	0.77225	-0.45966	0.41928	0.12820	31.0	13111	100
2025-3-27 18:38:7.85	WT901BLE68-01(48591DE3C19B)	-0.452	-1.199	0.205	-49.988	-22.583	-305.481	-82.55	16.16	-30.09	-58.310	-37.730	69.090	0.77225	-0.45966	0.41928	0.12820	31.0	13111	100
2025-3-27 18:38:7.85	WT901BLE68-01(48591DE3C19B)	-0.452	-1.164	0.216	-58.899	-24.292	-306.580	-83.13	13.07	-30.29	-58.310	-37.730	69.090	0.77225	-0.45966	0.41928	0.12820	31.0	13111	100
2025-3-27 18:38:7.86	WT901BLE68-01(48591DE3C19B)	-0.421	-1.164	0.216	-58.899	-24.292	-306.580	-83.74	10.01	-30.45	-58.310	-37.730	69.090	0.77225	-0.45966	0.41928	0.12820	31.0	13111	100
2025-3-27 18:38:7.109	WT901BLE68-01(48591DE3C19B)	-0.421	-1.141	0.237	-67.261	-25.269	-305.725	-84.38	6.97	-30.57	-58.310	-37.730	69.090	0.77225	-0.45966	0.41928	0.12820	31.0	13111	100
2025-3-27 18:38:7.109	WT901BLE68-01(48591DE3C19B)	-0.446	-1.141	0.237	-67.261	-25.269	-305.725	-85.03	3.95	-30.64	-58.310	-37.730	69.090	0.77225	-0.45966	0.41928	0.12820	31.0	13111	100
2025-3-27 18:38:7.109	WT901BLE68-01(48591DE3C19B)	-0.446	-1.180	0.275	-76.111	-31.433	-300.476	-85.72	0.98	-30.64	-59.094	-43.610	68.012	0.77225	-0.45966	0.41928	0.12820	31.0	13111	100
2025-3-27 18:38:7.110	WT901BLE68-01(48591DE3C19B)	-0.537	-1.180	0.275	-76.111	-31.433	-300.476	-86.45	-1.94	-30.56	-59.094	-43.610	68.012	0.77225	-0.45966	0.41928	0.12820	31.0	13111	100
2025-3-27 18:38:7.169	WT901BLE68-01(48591DE3C19B)	-0.537	-1.270	0.349	-78.003	-42.664	-286.560	-87.20	-4.77	-30.38	-59.094	-43.610	68.012	0.77225	-0.45966	0.41928	0.12820	31.0	13111	100
2025-3-27 18:38:7.169	WT901BLE68-01(48591DE3C19B)	-0.613	-1.270	0.349	-78.003	-42.664	-286.560	-87.96	-7.52	-30.10	-59.094	-43.610	68.012	0.77225	-0.45966	0.41928	0.12820	31.0	13111	100
2025-3-27 18:38:7.170	WT901BLE68-01(48591DE3C19B)	-0.613	-1.304	0.442	-70.740	-54.321	-267.334	-88.71	-10.15	-29.72	-59.094	-43.610	68.012	0.77225	-0.45966	0.41928	0.12820	31.0	13111	100
2025-3-27 18:38:7.170	WT901BLE68-01(48591DE3C19B)	-0.627	-1.304	0.442	-70.740	-54.321	-267.334	-89.45	-12.65	-29.23	-59.094	-43.610	68.012	0.77225	-0.45966	0.41928	0.12820	31.0	13111	100
2025-3-27 18:38:7.198	WT901BLE68-01(48591DE3C19B)	-0.627	-1.250	0.488	-60.181	-63.904	-242.310	-90.18	-15.01	-28.66	-59.094	-43.610	68.012	0.77225	-0.45966	0.41928	0.12820	31.0	13111	100
2025-3-27 18:38:7.199	WT901BLE68-01(48591DE3C19B)	-0.585	-1.250	0.488	-60.181	-63.904	-242.310	-90.88	-17.22	-28.00	-59.094	-43.610	68.012	0.77225	-0.45966	0.41928	0.12820	31.0	13111	100
2025-3-27 18:38:7.199	WT901BLE68-01(48591DE3C19B)	-0.585	-1.222	0.538	-51.636	-71.045	-211.792	-91.58	-19.24	-27.27	-59.094	-43.610	68.012	0.77225	-0.45966	0.41928	0.12820	31.0	13111	100
2025-3-27 18:38:7.199	WT901BLE68-01(48591DE3C19B)	-0.470	-1.222	0.538	-51.636	-71.045	-211.792	-92.28	-21.10	-26.47	-59.094	-43.610	68.012	0.77225	-0.45966	0.41928	0.12820	31.0	13111	100
2025-3-27 18:38:7.229	WT901BLE68-01(48591DE3C19B)	-0.470	-1.261	0.563	-45.837	-68.237	-182.800	-92.97	-22.79	-25.66	-59.094	-43.610	68.012	0.77225	-0.45966	0.41928	0.12820	31.0	13111	100
2025-3-27 18:38:7.229	WT901BLE68-01(48591DE3C19B)	-0.429	-1.261	0.563	-45.837	-68.237	-182.800	-93.64	-24.32	-24.86	-59.094	-43.610	68.012	0.77225	-0.45966	0.41928	0.12820	31.0	13111	100
2025-3-27 18:38:7.230	WT901BLE68-01(48591DE3C19B)	-0.429	-1.379	0.652	-34.607	-47.607	-149.841	-94.21	-25.68	-24.15	-59.094	-43.610	68.012	0.77225	-0.45966	0.41928	0.12820	31.0	13111	100
2025-3-27 18:38:7.230	WT901BLE68-01(48591DE3C19B)	-0.431	-1.379	0.652	-34.607	-47.607	-149.841	-94.70	-26.87	-23.56	-59.094	-43.610	68.012	0.77225	-0.45966	0.41928	0.12820	31.0	13111	100
2025-3-27 18:38:7.291	WT901BLE68-01(48591DE3C19B)	-0.431	-1.422	0.685	-19.165	8.423	-117.615	-94.95	-27.92	-23.29	-59.094	-43.610	68.012	0.77225	-0.45966	0.41928	0.12820	31.0	13111	100
2025-3-27 18:38:7.291	WT901BLE68-01(48591DE3C19B)	-0.519	-1.422	0.685	-19.165	8.423	-117.615	-94.98	-28.83	-23.35	-59.094	-43.610	68.012	0.77225	-0.45966	0.41928	0.12820	31.0	13111	100
2025-3-27 18:38:7.292	WT901BLE68-01(48591DE3C19B)	-0.519	-1.330	0.692	-1.770	76.172	-84.106	-94.72	-29.60	-23.82	-59.094	-43.610	68.012	0.77225	-0.45966	0.41928	0.12820	31.0	13111	100
2025-3-27 18:38:7.292	WT901BLE68-01(48591DE3C19B)	-0.630	-1.330	0.692	-1.770	76.172	-84.106	-94.16	-30.22	-24.70	-59.094	-43.610	68.012	0.77225	-0.45966	0.41928	0.12820	31.0	13111	100
2025-3-27 18:38:7.322	WT901BLE68-01(48591DE3C19B)	-0.630	-1.266	0.699	6.226	113.098	-48.218	-93.43	-30.67	-25.82	-59.094	-43.610	68.012	0.77225	-0.45966	0.41928	0.12820	31.0	13111	100
2025-3-27 18:38:7.322	WT901BLE68-01(48591DE3C19B)	-0.709	-1.266	0.699	6.226	113.098	-48.218	-92.53	-30.92	-27.17	-59.094	-43.610	68.012	0.77225	-0.45966	0.41928	0.12820	31.0	13111	100
2025-3-27 18:38:7.322	WT901BLE68-01(48591DE3C19B)	-0.709	-1.286	0.718	12.085	117.920	-13.794	-91.59	-30.98	-28.55	-59.094	-43.610	68.012	0.77225	-0.45966	0.41928	0.12820	31.0	13111	100
2025-3-27 18:38:7.322	WT901BLE68-01(48591DE3C19B)	-0.819	-1.286	0.718	12.085	117.920	-13.794	-90.61	-30.84	-29.96	-59.094	-43.610	68.012	0.60605	-0.71030	-0.00351	-0.35788	31.0	13111	100
2025-3-27 18:38:7.386	WT901BLE68-01(48591DE3C19B)	-0.819	-1.227	0.727	21.179	95.764	22.095	-89.66	-30.50	-31.23	-59.094	-43.610	68.012	0.60605	-0.71030	-0.00351	-0.35788	31.0	13111	100
2025-3-27 18:38:7.386	WT901BLE68-01(48591DE3C19B)	-0.868	-1.227	0.727	21.179	95.764	22.095	-88.75	-29.96	-32.34	-59.094	-43.610	68.012	0.60605	-0.71030	-0.00351	-0.35788	31.0	13111	100
2025-3-27 18:38:7.386	WT901BLE68-01(48591DE3C19B)	-0.868	-1.065	0.660	25.208	56.152	55.847	-87.97	-29.24	-33.19	-59.094	-43.610	68.012	0.60605	-0.71030	-0.00351	-0.35788	31.0	13111	100
2025-3-27 18:38:7.386	WT901BLE68-01(48591DE3C19B)	-0.874	-1.065	0.660	25.208	56.152	55.847	-87.30	-28.34	-33.78	-59.094	-43.610	68.012	0.60605	-0.71030	-0.00351	-0.35788	31.0	13111	100
2025-3-27 18:38:7.409	WT901BLE68-01(48591DE3C19B)	-0.874	-1.031	0.556	26.367	4.639	89.905	-86.79	-27.28	-34.05	-59.094	-43.610	68.012	0.60605	-0.71030	-0.00351	-0.35788	31.0	13111	100
2025-3-27 18:38:7.409	WT901BLE68-01(48591DE3C19B)	-0.780	-1.031	0.556	26.367	4.639	89.905	-86.43	-26.07	-33.99	-59.094	-43.610	68.012	0.60605	-0.71030	-0.00351	-0.35788	31.0	13111	100
2025-3-27 18:38:7.409	WT901BLE68-01(48591DE3C19B)	-0.780	-1.036	0.445	34.790	-44.434	124.268	-86.15	-24.70	-33.64	-59.094	-43.610	68.012	0.60605	-0.71030	-0.00351	-0.35788	31.0	13111	100
2025-3-27 18:38:7.409	WT901BLE68-01(48591DE3C19B)	-0.607	-1.036	0.445	34.790	-44.434	124.268	-85.95	-23.18	-33.00	-59.094	-43.610	68.012	0.60605	-0.71030	-0.00351	-0.35788	31.0	13111	100
2025-3-27 18:38:7.439	WT901BLE68-01(48591DE3C19B)	-0.607	-0.990	0.342	42.908	-74.707	156.372	-85.79	-21.36	-32.01	-59.094	-43.610	68.012	0.60605	-0.71030	-0.00351	-0.35788	31.0	13111	100
2025-3-27 18:38:7.439	WT901BLE68-01(48591DE3C19B)	-0.451	-0.990	0.342	42.908	-74.707	156.372	-85.59	-19.57	-31.04	-59.094	-43.610	68.012	0.60605	-0.71030	-0.00351	-0.35788	31.0	13111	100
2025-3-27 18:38:7.439	WT901BLE68-01(48591DE3C19B)	-0.451	-1.044	0.268	49.377	-86.304	181.458	-85.35	-17.55	-29.93	-59.094	-43.610	68.012	0.60605	-0.71030	-0.00351	-0.35788	31.0	13111	100
2025-3-27 18:38:7.439	WT901BLE68-01(48591DE3C19B)	-0.376	-1.044	0.268	49.377	-86.304	181.458	-85.07	-15.55	-28.83	-59.094	-43.610	68.012	0.60605	-0.71030	-0.00351	-0.35788	31.0	13111	100
2025-3-27 18:38:7.468	WT901BLE68-01(48591DE3C19B)	-0.376	-1.195	0.229	58.289	-86.365	197.327	-84.68	-13.41	-27.73	-59.094	-43.610	68.012	0.60605	-0.71030	-0.00351	-0.35788	31.0	13111	100
2025-3-27 18:38:7.468	WT901BLE68-01(48591DE3C19B)	-0.342	-1.195	0.229	58.289	-86.365	197.327	-84.25	-11.30	-26.63	-59.094	-43.610	68.012	0.60605	-0.71030	-0.00351	-0.35788	31.0	13111	100
2025-3-27 18:38:7.468	WT901BLE68-01(48591DE3C19B)	-0.342	-1.352	0.220	68.970	-84.717	206.665	-83.68	-9.12	-25.54	-59.094	-43.610	68.012	0.60605	-0.71030	-0.00351	-0.35788	31.0	13111	100
2025-3-27 18:38:7.469	WT901BLE68-01(48591DE3C19B)	-0.326	-1.352	0.220	68.970	-84.717	206.665	-83.07	-6.98	-24.46	-59.094	-43.610	68.012	0.60605	-0.71030	-0.00351	-0.35788	31.0	13111	100
2025-3-27 18:38:7.530	WT901BLE68-01(48591DE3C19B)	-0.326	-1.487	0.212	80.627	-78.430	211.365	-82.32	-4.82	-23.42	-59.094	-43.610	68.012	0.60605	-0.71030	-0.00351	-0.35788	31.0	13111	100
2025-3-27 18:38:7.530	WT901BLE68-01(48591DE3C19B)	-0.341	-1.487	0.212	80.627	-78.430	211.365	-81.52	-2.69	-22.36	-59.094	-43.610	68.012	0.60605	-0.71030	-0.00351	-0.35788	31.0	13111	100
2025-3-27 18:38:7.530	WT901BLE68-01(48591DE3C19B)	-0.341	-1.597	0.201	92.957	-66.345	215.149	-80.58	-0.54	-21.41	-59.094	-43.610	68.012	0.60605	-0.71030	-0.00351	-0.35788	31.0	13111	100
2025-3-27 18:38:7.530	WT901BLE68-01(48591DE3C19B)	-0.344	-1.597	0.201	92.957	-66.345	215.149	-79.61	1.57	-20.42	-59.094	-43.610	68.012	0.60605	-0.71030	-0.00351	-0.35788	31.0	13111	100
2025-3-27 18:38:7.590	WT901BLE68-01(48591DE3C19B)	-0.344	-1.693	0.182	101.990	-50.232	216.797	-78.52	3.70	-19.57	-49.098	-45.668	63.896	0.60605	-0.71030	-0.00351	-0.35788	31.0	13111	100
2025-3-27 18:38:7.590	WT901BLE68-01(48591DE3C19B)	-0.313	-1.693	0.182	101.990	-50.232	216.797	-77.42	5.79	-18.68	-49.098	-45.668	63.896	0.60605	-0.71030	-0.00351	-0.35788	31.0	13111	100
2025-3-27 18:38:7.590	WT901BLE68-01(48591DE3C19B)	-0.313	-1.720	0.175	110.352	-28.625	219.482	-76.22	7.92	-17.97	-49.098	-45.668	63.896	0.60605	-0.71030	-0.00351	-0.35788	31.0	13111	100
2025-3-27 18:38:7.590	WT901BLE68-01(48591DE3C19B)	-0.269	-1.720	0.175	110.352	-28.625	219.482	-75.01	10.01	-17.21	-49.098	-45.668	63.896	0.60605	-0.71030	-0.00351	-0.35788	31.0	13111	100
2025-3-27 18:38:7.591	WT901BLE68-01(48591DE3C19B)	-0.269	-1.660	0.160	113.525	-3.784	224.426	-73.77	12.19	-16.64	-49.098	-45.668	63.896	0.60605	-0.71030	-0.00351	-0.35788	31.0	13111	100
2025-3-27 18:38:7.591	WT901BLE68-01(48591DE3C19B)	-0.223	-1.660	0.160	113.525	-3.784	224.426	-72.52	14.34	-16.03	-49.098	-45.668	63.896	0.60605	-0.71030	-0.00351	-0.35788	31.0	13111	100
2025-3-27 18:38:7.591	WT901BLE68-01(48591DE3C19B)	-0.223	-1.525	0.156	113.342	21.240	232.117	-71.30	16.61	-15.60	-49.098	-45.668	63.896	0.60605	-0.71030	-0.00351	-0.35788	31.0	13111	100
2025-3-27 18:38:7.591	WT901BLE68-01(48591DE3C19B)	-0.200	-1.525	0.156	113.342	21.240	232.117	-70.05	18.85	-15.11	-49.098	-45.668	63.896	0.60605	-0.71030	-0.00351	-0.35788	31.0	13111	100
2025-3-27 18:38:7.649	WT901BLE68-01(48591DE3C19B)	-0.200	-1.403	0.120	104.126	41.443	239.075	-68.92	21.21	-14.75	-49.098	-45.668	63.896	0.60605	-0.71030	-0.00351	-0.35788	31.0	13111	100
2025-3-27 18:38:7.650	WT901BLE68-01(48591DE3C19B)	-0.187	-1.403	0.120	104.126	41.443	239.075	-67.77	23.53	-14.35	-49.098	-45.668	63.896	0.60605	-0.71030	-0.00351	-0.35788	31.0	13111	100
2025-3-27 18:38:7.650	WT901BLE68-01(48591DE3C19B)	-0.187	-1.313	0.090	92.102	57.556	244.385	-66.76	25.95	-14.04	-49.098	-45.668	63.896	0.60605	-0.71030	-0.00351	-0.35788	31.0	13111	100
2025-3-27 18:38:7.650	WT901BLE68-01(48591DE3C19B)	-0.212	-1.313	0.090	92.102	57.556	244.385	-65.73	28.34	-13.67	-49.098	-45.668	63.896	0.60605	-0.71030	-0.00351	-0.35788	31.0	13111	100
2025-3-27 18:38:7.686	WT901BLE68-01(48591DE3C19B)	-0.212	-1.290	0.089	76.721	65.918	247.253	-64.85	30.78	-13.34	-49.098	-45.668	63.896	0.60605	-0.71030	-0.00351	-0.35788	31.0	13111	100
2025-3-27 18:38:7.686	WT901BLE68-01(48591DE3C19B)	-0.268	-1.290	0.089	76.721	65.918	247.253	-63.93	33.19	-12.95	-49.098	-45.668	63.896	0.60605	-0.71030	-0.00351	-0.35788	31.0	13111	100
2025-3-27 18:38:7.687	WT901BLE68-01(48591DE3C19B)	-0.268	-1.302	0.125	63.110	61.096	247.620	-63.09	35.57	-12.46	-49.098	-45.668	63.896	0.60605	-0.71030	-0.00351	-0.35788	31.0	13111	100
2025-3-27 18:38:7.687	WT901BLE68-01(48591DE3C19B)	-0.320	-1.302	0.125	63.110	61.096	247.620	-62.19	37.92	-11.93	-49.098	-45.668	63.896	0.60605	-0.71030	-0.00351	-0.35788	31.0	13111	100
2025-3-27 18:38:7.770	WT901BLE68-01(48591DE3C19B)	-0.320	-1.352	0.166	50.964	43.640	241.882	-61.26	40.13	-11.17	-49.098	-45.668	63.896	0.60605	-0.71030	-0.00351	-0.35788	31.0	13111	100
2025-3-27 18:38:7.770	WT901BLE68-01(48591DE3C19B)	-0.324	-1.352	0.166	50.964	43.640	241.882	-60.26	42.31	-10.34	-49.098	-45.668	63.896	0.60605	-0.71030	-0.00351	-0.35788	31.0	13111	100
2025-3-27 18:38:7.770	WT901BLE68-01(48591DE3C19B)	-0.324	-1.418	0.166	43.091	25.391	232.239	-59.16	44.30	-9.29	-49.098	-45.668	63.896	0.60605	-0.71030	-0.00351	-0.35788	31.0	13111	100
2025-3-27 18:38:7.770	WT901BLE68-01(48591DE3C19B)	-0.315	-1.418	0.166	43.091	25.391	232.239	-57.98	46.26	-8.16	-49.098	-45.668	63.896	0.60605	-0.71030	-0.00351	-0.35788	31.0	13111	100
2025-3-27 18:38:7.771	WT901BLE68-01(48591DE3C19B)	-0.315	-1.491	0.142	36.621	11.230	217.590	-56.73	47.99	-6.88	-49.098	-45.668	63.896	0.81299	-0.40750	0.38757	0.15051	31.0	13111	100
2025-3-27 18:38:7.771	WT901BLE68-01(48591DE3C19B)	-0.321	-1.491	0.142	36.621	11.230	217.590	-55.38	49.69	-5.50	-49.098	-45.668	63.896	0.81299	-0.40750	0.38757	0.15051	31.0	13111	100
2025-3-27 18:38:7.771	WT901BLE68-01(48591DE3C19B)	-0.321	-1.591	0.119	29.968	-3.479	197.876	-53.99	51.12	-4.03	-49.098	-45.668	63.896	0.81299	-0.40750	0.38757	0.15051	31.0	13111	100
2025-3-27 18:38:7.772	WT901BLE68-01(48591DE3C19B)	-0.307	-1.591	0.119	29.968	-3.479	197.876	-52.50	52.52	-2.46	-49.098	-45.668	63.896	0.81299	-0.40750	0.38757	0.15051	31.0	13111	100
2025-3-27 18:38:7.800	WT901BLE68-01(48591DE3C19B)	-0.307	-1.663	0.128	24.719	-19.287	174.011	-51.01	53.60	-0.83	-49.098	-45.668	63.896	0.81299	-0.40750	0.38757	0.15051	31.0	13111	100
2025-3-27 18:38:7.801	WT901BLE68-01(48591DE3C19B)	-0.268	-1.663	0.128	24.719	-19.287	174.011	-49.43	54.65	0.86	-49.098	-45.668	63.896	0.81299	-0.40750	0.38757	0.15051	31.0	13111	100
2025-3-27 18:38:7.801	WT901BLE68-01(48591DE3C19B)	-0.268	-1.611	0.159	21.912	-31.250	148.071	-47.93	55.39	2.49	-49.098	-45.668	63.896	0.81299	-0.40750	0.38757	0.15051	31.0	13111	100
2025-3-27 18:38:7.801	WT901BLE68-01(48591DE3C19B)	-0.234	-1.611	0.159	21.912	-31.250	148.071	-46.37	56.10	4.17	-49.098	-45.668	63.896	0.81299	-0.40750	0.38757	0.15051	31.0	13111	100
2025-3-27 18:38:7.891	WT901BLE68-01(48591DE3C19B)	-0.234	-1.420	0.228	17.517	-39.429	121.033	-44.99	56.54	5.67	-49.098	-45.668	63.896	0.81299	-0.40750	0.38757	0.15051	31.0	13111	100
2025-3-27 18:38:7.891	WT901BLE68-01(48591DE3C19B)	-0.215	-1.420	0.228	17.517	-39.429	121.033	-43.59	56.95	7.20	-49.098	-45.668	63.896	0.81299	-0.40750	0.38757	0.15051	31.0	13111	100
2025-3-27 18:38:7.891	WT901BLE68-01(48591DE3C19B)	-0.215	-1.200	0.294	12.756	-41.443	95.764	-42.47	57.16	8.42	-49.098	-45.668	63.896	0.81299	-0.40750	0.38757	0.15051	31.0	13111	100
2025-3-27 18:38:7.891	WT901BLE68-01(48591DE3C19B)	-0.116	-1.200	0.294	12.756	-41.443	95.764	-41.35	57.34	9.66	-49.098	-45.668	63.896	0.81299	-0.40750	0.38757	0.15051	31.0	13111	100
2025-3-27 18:38:7.892	WT901BLE68-01(48591DE3C19B)	-0.018	-0.974	0.268	4.761	-30.029	77.209	-40.63	57.49	10.49	-49.098	-45.668	63.896	0.81299	-0.40750	0.38757	0.15051	31.0	13111	100
2025-3-27 18:38:7.892	WT901BLE68-01(48591DE3C19B)	-0.018	-0.807	0.223	-7.019	-5.188	56.335	-40.22	57.65	11.03	-49.098	-45.668	63.896	0.81299	-0.40750	0.38757	0.15051	31.0	13111	100
2025-3-27 18:38:7.892	WT901BLE68-01(48591DE3C19B)	-0.008	-0.807	0.223	-7.019	-5.188	56.335	-40.12	57.83	11.27	-49.098	-45.668	63.896	0.81299	-0.40750	0.38757	0.15051	31.0	13111	100
2025-3-27 18:38:7.892	WT901BLE68-01(48591DE3C19B)	-0.008	-0.752	0.237	-20.569	17.517	28.320	-40.37	58.01	11.16	-49.098	-45.668	63.896	0.81299	-0.40750	0.38757	0.15051	31.0	13111	100
2025-3-27 18:38:7.922	WT901BLE68-01(48591DE3C19B)	-0.061	-0.752	0.237	-20.569	17.517	28.320	-40.98	58.18	10.70	-49.098	-45.668	63.896	0.81299	-0.40750	0.38757	0.15051	31.0	13111	100
2025-3-27 18:38:7.922	WT901BLE68-01(48591DE3C19B)	-0.061	-0.829	0.273	-33.081	27.771	-1.282	-41.90	58.28	9.96	-49.098	-45.668	63.896	0.81299	-0.40750	0.38757	0.15051	31.0	13111	100
2025-3-27 18:38:7.922	WT901BLE68-01(48591DE3C19B)	-0.080	-0.829	0.273	-33.081	27.771	-1.282	-43.10	58.32	8.94	-66.836	-39.494	64.288	0.81299	-0.40750	0.38757	0.15051	31.0	13111	100
2025-3-27 18:38:7.922	WT901BLE68-01(48591DE3C19B)	-0.080	-0.869	0.305	-37.170	25.146	-27.588	-44.45	58.24	7.75	-66.836	-39.494	64.288	0.81299	-0.40750	0.38757	0.15051	31.0	13111	100
2025-3-27 18:38:7.987	WT901BLE68-01(48591DE3C19B)	-0.064	-0.869	0.305	-37.170	25.146	-27.588	-45.94	58.05	6.42	-66.836	-39.494	64.288	0.81299	-0.40750	0.38757	0.15051	31.0	13111	100
2025-3-27 18:38:7.988	WT901BLE68-01(48591DE3C19B)	-0.064	-0.790	0.349	-38.025	23.865	-49.683	-47.53	57.74	4.98	-66.836	-39.494	64.288	0.81299	-0.40750	0.38757	0.15051	31.0	13111	100
2025-3-27 18:38:7.988	WT901BLE68-01(48591DE3C19B)	-0.085	-0.790	0.349	-38.025	23.865	-49.683	-49.17	57.34	3.45	-66.836	-39.494	64.288	0.81299	-0.40750	0.38757	0.15051	31.0	13111	100
2025-3-27 18:38:7.988	WT901BLE68-01(48591DE3C19B)	-0.085	-0.730	0.357	-39.978	27.344	-69.763	-50.91	56.84	1.81	-66.836	-39.494	64.288	0.81299	-0.40750	0.38757	0.15051	31.0	13111	100
2025-3-27 18:38:8.9	WT901BLE68-01(48591DE3C19B)	-0.097	-0.730	0.357	-39.978	27.344	-69.763	-52.69	56.26	0.10	-66.836	-39.494	64.288	0.81299	-0.40750	0.38757	0.15051	31.0	13111	100
2025-3-27 18:38:8.9	WT901BLE68-01(48591DE3C19B)	-0.097	-0.718	0.329	-41.504	29.175	-89.783	-54.51	55.57	-1.66	-66.836	-39.494	64.288	0.81299	-0.40750	0.38757	0.15051	31.0	13111	100
2025-3-27 18:38:8.9	WT901BLE68-01(48591DE3C19B)	-0.080	-0.718	0.329	-41.504	29.175	-89.783	-56.35	54.78	-3.46	-66.836	-39.494	64.288	0.81299	-0.40750	0.38757	0.15051	31.0	13111	100
2025-3-27 18:38:8.9	WT901BLE68-01(48591DE3C19B)	-0.080	-0.702	0.283	-40.833	33.325	-111.938	-58.19	53.88	-5.30	-66.836	-39.494	64.288	0.81299	-0.40750	0.38757	0.15051	31.0	13111	100
