time	DeviceName	AccX(g)	AccY(g)	AccZ(g)	AsX(°/s)	AsY(°/s)	AsZ(°/s)	AngleX(°)	AngleY(°)	AngleZ(°)	HX(uT)	HY(uT)	HZ(uT)	Q0()	Q1()	Q2()	Q3()	Temperature(°C)	Version()	Battery level(%)
2025-3-27 18:44:26.259	WT901BLE68-01(48591DE3C19B)	-0.244	-0.950	0.333	-1.465	-12.390	4.395	-72.01	12.36	-33.06	-49.392	-21.854	82.026	0.78375	-0.51093	0.29947	-0.18686	30.9	13111	100
2025-3-27 18:44:26.259	WT901BLE68-01(48591DE3C19B)	-0.244	-0.937	0.325	-1.038	-11.414	6.409	-71.99	12.38	-32.89	-49.392	-21.854	82.026	0.78375	-0.51093	0.29947	-0.18686	30.9	13111	100
2025-3-27 18:44:26.259	WT901BLE68-01(48591DE3C19B)	-0.240	-0.937	0.325	-1.038	-11.414	6.409	-71.97	12.41	-32.73	-49.392	-21.854	82.026	0.78375	-0.51093	0.29947	-0.18686	30.9	13111	100
2025-3-27 18:44:26.260	WT901BLE68-01(48591DE3C19B)	-0.240	-0.924	0.313	-0.916	-9.338	8.667	-71.94	12.45	-32.57	-49.392	-21.854	82.026	0.78375	-0.51093	0.29947	-0.18686	30.9	13111	100
2025-3-27 18:44:26.289	WT901BLE68-01(48591DE3C19B)	-0.243	-0.924	0.313	-0.916	-9.338	8.667	-71.93	12.51	-32.42	-49.392	-21.854	82.026	0.79059	-0.53595	0.24747	-0.16248	30.9	13111	100
2025-3-27 18:44:26.289	WT901BLE68-01(48591DE3C19B)	-0.243	-0.925	0.311	-1.343	-7.935	10.742	-71.91	12.58	-32.27	-49.392	-21.854	82.026	0.79059	-0.53595	0.24747	-0.16248	30.9	13111	100
2025-3-27 18:44:26.289	WT901BLE68-01(48591DE3C19B)	-0.248	-0.925	0.311	-1.343	-7.935	10.742	-71.89	12.66	-32.12	-49.392	-21.854	82.026	0.79059	-0.53595	0.24747	-0.16248	30.9	13111	100
2025-3-27 18:44:26.289	WT901BLE68-01(48591DE3C19B)	-0.248	-0.935	0.313	-1.343	-7.629	12.756	-71.88	12.77	-31.98	-49.392	-21.854	82.026	0.79059	-0.53595	0.24747	-0.16248	30.9	13111	100
2025-3-27 18:44:26.318	WT901BLE68-01(48591DE3C19B)	-0.243	-0.935	0.313	-1.343	-7.629	12.756	-71.86	12.86	-31.83	-49.392	-21.854	82.026	0.79059	-0.53595	0.24747	-0.16248	30.9	13111	100
2025-3-27 18:44:26.319	WT901BLE68-01(48591DE3C19B)	-0.243	-0.939	0.312	-1.526	-7.813	14.526	-71.85	12.98	-31.68	-49.392	-21.854	82.026	0.79059	-0.53595	0.24747	-0.16248	30.9	13111	100
2025-3-27 18:44:26.319	WT901BLE68-01(48591DE3C19B)	-0.238	-0.939	0.312	-1.526	-7.813	14.526	-71.83	13.10	-31.53	-49.392	-21.854	82.026	0.79059	-0.53595	0.24747	-0.16248	30.9	13111	100
2025-3-27 18:44:26.319	WT901BLE68-01(48591DE3C19B)	-0.238	-0.944	0.306	-2.197	-8.118	15.381	-71.82	13.22	-31.37	-49.392	-21.854	82.026	0.79059	-0.53595	0.24747	-0.16248	30.9	13111	100
2025-3-27 18:44:26.379	WT901BLE68-01(48591DE3C19B)	-0.242	-0.944	0.306	-2.197	-8.118	15.381	-71.81	13.34	-31.21	-49.392	-21.854	82.026	0.79059	-0.53595	0.24747	-0.16248	30.9	13111	100
2025-3-27 18:44:26.379	WT901BLE68-01(48591DE3C19B)	-0.242	-0.953	0.295	-3.174	-9.644	15.137	-71.81	13.46	-31.04	-49.392	-21.854	82.026	0.79059	-0.53595	0.24747	-0.16248	30.9	13111	100
2025-3-27 18:44:26.379	WT901BLE68-01(48591DE3C19B)	-0.247	-0.953	0.295	-3.174	-9.644	15.137	-71.81	13.57	-30.86	-49.392	-21.854	82.026	0.79059	-0.53595	0.24747	-0.16248	30.9	13111	100
2025-3-27 18:44:26.380	WT901BLE68-01(48591DE3C19B)	-0.247	-0.957	0.292	-4.028	-11.963	13.733	-71.81	13.67	-30.67	-49.392	-21.854	82.026	0.79059	-0.53595	0.24747	-0.16248	30.9	13111	100
2025-3-27 18:44:26.408	WT901BLE68-01(48591DE3C19B)	-0.252	-0.957	0.292	-4.028	-11.963	13.733	-71.81	13.76	-30.49	-49.392	-21.854	82.026	0.79059	-0.53595	0.24747	-0.16248	30.9	13111	100
2025-3-27 18:44:26.408	WT901BLE68-01(48591DE3C19B)	-0.252	-0.961	0.287	-5.554	-16.907	11.963	-71.82	13.82	-30.26	-49.392	-21.854	82.026	0.79059	-0.53595	0.24747	-0.16248	30.9	13111	100
2025-3-27 18:44:26.408	WT901BLE68-01(48591DE3C19B)	-0.241	-0.961	0.287	-5.554	-16.907	11.963	-71.83	13.88	-30.03	-49.392	-21.854	82.026	0.79059	-0.53595	0.24747	-0.16248	30.9	13111	100
2025-3-27 18:44:26.409	WT901BLE68-01(48591DE3C19B)	-0.241	-0.950	0.278	-6.653	-22.705	10.071	-71.84	13.90	-29.75	-49.392	-21.854	82.026	0.79059	-0.53595	0.24747	-0.16248	30.9	13111	100
2025-3-27 18:44:26.440	WT901BLE68-01(48591DE3C19B)	-0.207	-0.950	0.278	-6.653	-22.705	10.071	-71.85	13.93	-29.47	-49.392	-21.854	82.026	0.79059	-0.53595	0.24747	-0.16248	30.9	13111	100
2025-3-27 18:44:26.440	WT901BLE68-01(48591DE3C19B)	-0.207	-0.936	0.267	-8.667	-28.931	7.568	-71.86	13.90	-29.14	-49.392	-21.854	82.026	0.79059	-0.53595	0.24747	-0.16248	30.9	13111	100
2025-3-27 18:44:26.440	WT901BLE68-01(48591DE3C19B)	-0.190	-0.936	0.267	-8.667	-28.931	7.568	-71.88	13.89	-28.81	-49.392	-21.854	82.026	0.79059	-0.53595	0.24747	-0.16248	30.9	13111	100
2025-3-27 18:44:26.440	WT901BLE68-01(48591DE3C19B)	-0.190	-0.929	0.261	-10.681	-32.959	5.066	-71.91	13.83	-28.45	-49.392	-21.854	82.026	0.79059	-0.53595	0.24747	-0.16248	30.9	13111	100
2025-3-27 18:44:26.529	WT901BLE68-01(48591DE3C19B)	-0.179	-0.929	0.261	-10.681	-32.959	5.066	-71.94	13.77	-28.10	-49.392	-21.854	82.026	0.79059	-0.53595	0.24747	-0.16248	30.9	13111	100
2025-3-27 18:44:26.529	WT901BLE68-01(48591DE3C19B)	-0.179	-0.928	0.258	-12.634	-36.072	2.197	-71.99	13.67	-27.73	-45.374	-23.324	81.438	0.79059	-0.53595	0.24747	-0.16248	30.9	13111	100
2025-3-27 18:44:26.529	WT901BLE68-01(48591DE3C19B)	-0.145	-0.928	0.258	-12.634	-36.072	2.197	-72.04	13.57	-27.36	-45.374	-23.324	81.438	0.79059	-0.53595	0.24747	-0.16248	30.9	13111	100
2025-3-27 18:44:26.530	WT901BLE68-01(48591DE3C19B)	-0.145	-0.942	0.256	-14.282	-37.170	-1.648	-72.11	13.44	-26.99	-45.374	-23.324	81.438	0.79059	-0.53595	0.24747	-0.16248	30.9	13111	100
2025-3-27 18:44:26.530	WT901BLE68-01(48591DE3C19B)	-0.109	-0.942	0.256	-14.282	-37.170	-1.648	-72.18	13.30	-26.63	-45.374	-23.324	81.438	0.79059	-0.53595	0.24747	-0.16248	30.9	13111	100
2025-3-27 18:44:26.530	WT901BLE68-01(48591DE3C19B)	-0.109	-0.965	0.246	-15.137	-33.325	-5.554	-72.27	13.13	-26.32	-45.374	-23.324	81.438	0.79059	-0.53595	0.24747	-0.16248	30.9	13111	100
2025-3-27 18:44:26.530	WT901BLE68-01(48591DE3C19B)	-0.057	-0.965	0.246	-15.137	-33.325	-5.554	-72.36	12.97	-26.01	-45.374	-23.324	81.438	0.79059	-0.53595	0.24747	-0.16248	30.9	13111	100
2025-3-27 18:44:26.531	WT901BLE68-01(48591DE3C19B)	-0.057	-1.000	0.224	-15.137	-25.757	-9.155	-72.47	12.79	-25.78	-45.374	-23.324	81.438	0.79059	-0.53595	0.24747	-0.16248	30.9	13111	100
2025-3-27 18:44:26.559	WT901BLE68-01(48591DE3C19B)	0.009	-1.000	0.224	-15.137	-25.757	-9.155	-72.59	12.60	-25.57	-45.374	-23.324	81.438	0.79059	-0.53595	0.24747	-0.16248	30.9	13111	100
2025-3-27 18:44:26.559	WT901BLE68-01(48591DE3C19B)	0.009	-1.028	0.203	-13.977	-13.794	-12.451	-72.72	12.42	-25.48	-45.374	-23.324	81.438	0.79059	-0.53595	0.24747	-0.16248	30.9	13111	100
2025-3-27 18:44:26.559	WT901BLE68-01(48591DE3C19B)	0.082	-1.028	0.203	-13.977	-13.794	-12.451	-72.86	12.23	-25.39	-45.374	-23.324	81.438	0.79059	-0.53595	0.24747	-0.16248	30.9	13111	100
2025-3-27 18:44:26.560	WT901BLE68-01(48591DE3C19B)	0.041	-1.020	0.180	-12.634	3.784	-16.235	-73.02	12.06	-25.50	-45.374	-23.324	81.438	0.79059	-0.53595	0.24747	-0.16248	30.9	13111	100
2025-3-27 18:44:26.619	WT901BLE68-01(48591DE3C19B)	0.125	-0.510	0.090	-12.634	3.784	-16.235	-73.18	11.87	-25.60	-45.374	-23.324	81.438	0.79059	-0.53595	0.24747	-0.16248	30.9	13111	100
2025-3-27 18:44:26.619	WT901BLE68-01(48591DE3C19B)	0.125	-0.999	0.168	-12.512	21.973	-21.179	-73.38	11.69	-25.89	-45.374	-23.324	81.438	0.79059	-0.53595	0.24747	-0.16248	30.9	13111	100
2025-3-27 18:44:26.619	WT901BLE68-01(48591DE3C19B)	0.139	-0.999	0.168	-12.512	21.973	-21.179	-73.59	11.50	-26.19	-45.374	-23.324	81.438	0.79059	-0.53595	0.24747	-0.16248	30.9	13111	100
2025-3-27 18:44:26.619	WT901BLE68-01(48591DE3C19B)	0.139	-0.996	0.182	-12.634	36.499	-27.344	-73.82	11.29	-26.65	-45.374	-23.324	81.438	0.79059	-0.53595	0.24747	-0.16248	30.9	13111	100
2025-3-27 18:44:26.679	WT901BLE68-01(48591DE3C19B)	0.097	-0.996	0.182	-12.634	36.499	-27.344	-74.05	11.07	-27.10	-45.374	-23.324	81.438	0.79059	-0.53595	0.24747	-0.16248	30.9	13111	100
2025-3-27 18:44:26.679	WT901BLE68-01(48591DE3C19B)	0.097	-0.995	0.202	-10.498	46.387	-33.447	-74.28	10.81	-27.67	-45.374	-23.324	81.438	0.79059	-0.53595	0.24747	-0.16248	30.9	13111	100
2025-3-27 18:44:26.679	WT901BLE68-01(48591DE3C19B)	0.096	-0.995	0.202	-10.498	46.387	-33.447	-74.51	10.55	-28.23	-45.374	-23.324	81.438	0.79059	-0.53595	0.24747	-0.16248	30.9	13111	100
2025-3-27 18:44:26.679	WT901BLE68-01(48591DE3C19B)	0.096	-0.977	0.212	-7.324	52.246	-39.978	-74.72	10.23	-28.87	-45.374	-23.324	81.438	0.79059	-0.53595	0.24747	-0.16248	30.9	13111	100
2025-3-27 18:44:26.681	WT901BLE68-01(48591DE3C19B)	0.092	-0.977	0.212	-7.324	52.246	-39.978	-74.92	9.92	-29.50	-45.374	-23.324	81.438	0.79059	-0.53595	0.24747	-0.16248	30.9	13111	100
2025-3-27 18:44:26.681	WT901BLE68-01(48591DE3C19B)	0.092	-0.962	0.203	-5.737	58.350	-48.218	-75.11	9.54	-30.21	-45.374	-23.324	81.438	0.79059	-0.53595	0.24747	-0.16248	30.9	13111	100
2025-3-27 18:44:26.681	WT901BLE68-01(48591DE3C19B)	0.018	-0.962	0.203	-5.737	58.350	-48.218	-75.29	9.16	-30.91	-45.374	-23.324	81.438	0.77365	-0.56998	0.22318	-0.16333	30.9	13111	100
2025-3-27 18:44:26.681	WT901BLE68-01(48591DE3C19B)	0.018	-0.980	0.202	-6.470	58.044	-56.091	-75.49	8.70	-31.62	-45.374	-23.324	81.438	0.77365	-0.56998	0.22318	-0.16333	30.9	13111	100
2025-3-27 18:44:26.740	WT901BLE68-01(48591DE3C19B)	-0.078	-0.980	0.202	-6.470	58.044	-56.091	-75.67	8.23	-32.34	-45.374	-23.324	81.438	0.77365	-0.56998	0.22318	-0.16333	30.9	13111	100
2025-3-27 18:44:26.740	WT901BLE68-01(48591DE3C19B)	-0.078	-1.062	0.234	-8.301	44.739	-65.186	-75.85	7.66	-32.93	-45.374	-23.324	81.438	0.77365	-0.56998	0.22318	-0.16333	30.9	13111	100
2025-3-27 18:44:26.740	WT901BLE68-01(48591DE3C19B)	-0.148	-1.062	0.234	-8.301	44.739	-65.186	-76.02	7.09	-33.52	-45.374	-23.324	81.438	0.77365	-0.56998	0.22318	-0.16333	30.9	13111	100
2025-3-27 18:44:26.740	WT901BLE68-01(48591DE3C19B)	-0.214	-1.141	0.285	-6.958	21.362	-72.693	-76.14	6.39	-33.89	-45.374	-23.324	81.438	0.77365	-0.56998	0.22318	-0.16333	30.9	13111	100
2025-3-27 18:44:26.769	WT901BLE68-01(48591DE3C19B)	-0.214	-1.146	0.339	-5.432	-8.179	-77.515	-76.23	5.65	-34.12	-45.374	-23.324	81.438	0.77365	-0.56998	0.22318	-0.16333	30.9	13111	100
2025-3-27 18:44:26.769	WT901BLE68-01(48591DE3C19B)	-0.236	-1.146	0.339	-5.432	-8.179	-77.515	-76.31	4.86	-34.21	-45.374	-23.324	81.438	0.77365	-0.56998	0.22318	-0.16333	30.9	13111	100
2025-3-27 18:44:26.769	WT901BLE68-01(48591DE3C19B)	-0.236	-1.107	0.362	-4.272	-35.034	-81.116	-76.35	4.03	-34.16	-45.374	-23.324	81.438	0.77365	-0.56998	0.22318	-0.16333	30.9	13111	100
2025-3-27 18:44:26.769	WT901BLE68-01(48591DE3C19B)	-0.192	-1.107	0.362	-4.272	-35.034	-81.116	-76.38	3.16	-33.99	-45.374	-23.324	81.438	0.77365	-0.56998	0.22318	-0.16333	30.9	13111	100
2025-3-27 18:44:26.800	WT901BLE68-01(48591DE3C19B)	-0.192	-1.039	0.363	-4.028	-46.997	-83.313	-76.41	2.28	-33.76	-45.374	-23.324	81.438	0.77365	-0.56998	0.22318	-0.16333	30.9	13111	100
2025-3-27 18:44:26.800	WT901BLE68-01(48591DE3C19B)	-0.128	-1.039	0.363	-4.028	-46.997	-83.313	-76.44	1.38	-33.48	-45.374	-23.324	81.438	0.77365	-0.56998	0.22318	-0.16333	30.9	13111	100
2025-3-27 18:44:26.800	WT901BLE68-01(48591DE3C19B)	-0.128	-0.981	0.362	-4.700	-35.706	-83.435	-76.46	0.50	-33.25	-45.374	-23.324	81.438	0.77365	-0.56998	0.22318	-0.16333	30.9	13111	100
2025-3-27 18:44:26.800	WT901BLE68-01(48591DE3C19B)	-0.114	-0.981	0.362	-4.700	-35.706	-83.435	-76.50	-0.35	-33.07	-45.374	-23.324	81.438	0.77365	-0.56998	0.22318	-0.16333	30.9	13111	100
2025-3-27 18:44:26.860	WT901BLE68-01(48591DE3C19B)	-0.114	-0.931	0.364	-4.456	-12.268	-83.557	-76.53	-1.18	-33.01	-45.374	-23.324	81.438	0.77365	-0.56998	0.22318	-0.16333	30.9	13111	100
2025-3-27 18:44:26.860	WT901BLE68-01(48591DE3C19B)	-0.124	-0.931	0.364	-4.456	-12.268	-83.557	-76.55	-1.97	-33.07	-45.374	-23.324	81.438	0.77365	-0.56998	0.22318	-0.16333	30.9	13111	100
2025-3-27 18:44:26.860	WT901BLE68-01(48591DE3C19B)	-0.124	-0.905	0.373	-4.272	9.399	-81.543	-76.57	-2.73	-33.22	-45.374	-23.324	81.438	0.77365	-0.56998	0.22318	-0.16333	30.9	13111	100
2025-3-27 18:44:26.860	WT901BLE68-01(48591DE3C19B)	-0.167	-0.905	0.373	-4.272	9.399	-81.543	-76.57	-3.44	-33.48	-45.374	-23.324	81.438	0.77365	-0.56998	0.22318	-0.16333	30.9	13111	100
2025-3-27 18:44:26.888	WT901BLE68-01(48591DE3C19B)	-0.167	-0.902	0.378	-2.380	24.719	-78.552	-76.56	-4.12	-33.81	-46.060	-22.834	84.182	0.77365	-0.56998	0.22318	-0.16333	30.9	13111	100
2025-3-27 18:44:26.888	WT901BLE68-01(48591DE3C19B)	-0.241	-0.902	0.378	-2.380	24.719	-78.552	-76.52	-4.76	-34.21	-46.060	-22.834	84.182	0.77365	-0.56998	0.22318	-0.16333	30.9	13111	100
2025-3-27 18:44:26.889	WT901BLE68-01(48591DE3C19B)	-0.241	-0.895	0.383	1.343	31.555	-72.998	-76.46	-5.36	-34.63	-46.060	-22.834	84.182	0.77365	-0.56998	0.22318	-0.16333	30.9	13111	100
2025-3-27 18:44:26.889	WT901BLE68-01(48591DE3C19B)	-0.310	-0.895	0.383	1.343	31.555	-72.998	-76.37	-5.91	-35.07	-46.060	-22.834	84.182	0.77365	-0.56998	0.22318	-0.16333	30.9	13111	100
2025-3-27 18:44:26.919	WT901BLE68-01(48591DE3C19B)	-0.310	-0.867	0.390	4.822	29.480	-66.711	-76.26	-6.43	-35.50	-46.060	-22.834	84.182	0.77365	-0.56998	0.22318	-0.16333	30.9	13111	100
2025-3-27 18:44:26.919	WT901BLE68-01(48591DE3C19B)	-0.360	-0.867	0.390	4.822	29.480	-66.711	-76.12	-6.90	-35.91	-46.060	-22.834	84.182	0.77365	-0.56998	0.22318	-0.16333	30.9	13111	100
2025-3-27 18:44:26.920	WT901BLE68-01(48591DE3C19B)	-0.360	-0.848	0.399	7.019	23.193	-59.265	-75.98	-7.35	-36.27	-46.060	-22.834	84.182	0.77365	-0.56998	0.22318	-0.16333	30.9	13111	100
2025-3-27 18:44:26.920	WT901BLE68-01(48591DE3C19B)	-0.406	-0.848	0.399	7.019	23.193	-59.265	-75.83	-7.75	-36.60	-46.060	-22.834	84.182	0.77365	-0.56998	0.22318	-0.16333	30.9	13111	100
2025-3-27 18:44:26.979	WT901BLE68-01(48591DE3C19B)	-0.406	-0.841	0.411	9.155	16.418	-49.988	-75.67	-8.11	-36.87	-46.060	-22.834	84.182	0.77365	-0.56998	0.22318	-0.16333	30.9	13111	100
2025-3-27 18:44:26.979	WT901BLE68-01(48591DE3C19B)	-0.426	-0.841	0.411	9.155	16.418	-49.988	-75.51	-8.42	-37.10	-46.060	-22.834	84.182	0.77365	-0.56998	0.22318	-0.16333	30.9	13111	100
2025-3-27 18:44:26.979	WT901BLE68-01(48591DE3C19B)	-0.426	-0.853	0.413	9.583	8.240	-39.307	-75.35	-8.68	-37.27	-46.060	-22.834	84.182	0.77365	-0.56998	0.22318	-0.16333	30.9	13111	100
2025-3-27 18:44:26.979	WT901BLE68-01(48591DE3C19B)	-0.429	-0.853	0.413	9.583	8.240	-39.307	-75.19	-8.89	-37.39	-46.060	-22.834	84.182	0.77365	-0.56998	0.22318	-0.16333	30.9	13111	100
2025-3-27 18:44:27.8	WT901BLE68-01(48591DE3C19B)	-0.429	-0.879	0.399	10.071	2.441	-28.015	-75.04	-9.05	-37.46	-46.060	-22.834	84.182	0.77365	-0.56998	0.22318	-0.16333	30.9	13111	100
2025-3-27 18:44:27.8	WT901BLE68-01(48591DE3C19B)	-0.421	-0.879	0.399	10.071	2.441	-28.015	-74.90	-9.15	-37.49	-46.060	-22.834	84.182	0.77365	-0.56998	0.22318	-0.16333	30.9	13111	100
2025-3-27 18:44:27.8	WT901BLE68-01(48591DE3C19B)	-0.421	-0.889	0.382	10.071	0.000	-16.357	-74.76	-9.20	-37.49	-46.060	-22.834	84.182	0.77365	-0.56998	0.22318	-0.16333	30.9	13111	100
2025-3-27 18:44:27.8	WT901BLE68-01(48591DE3C19B)	-0.430	-0.889	0.382	10.071	0.000	-16.357	-74.62	-9.19	-37.45	-46.060	-22.834	84.182	0.77365	-0.56998	0.22318	-0.16333	30.9	13111	100
2025-3-27 18:44:27.39	WT901BLE68-01(48591DE3C19B)	-0.430	-0.921	0.376	8.179	-0.061	-5.066	-74.50	-9.12	-37.41	-46.060	-22.834	84.182	0.77365	-0.56998	0.22318	-0.16333	30.9	13111	100
2025-3-27 18:44:27.39	WT901BLE68-01(48591DE3C19B)	-0.427	-0.921	0.376	8.179	-0.061	-5.066	-74.39	-9.00	-37.34	-46.060	-22.834	84.182	0.77365	-0.56998	0.22318	-0.16333	30.9	13111	100
2025-3-27 18:44:27.40	WT901BLE68-01(48591DE3C19B)	-0.427	-0.998	0.378	5.798	2.258	5.493	-74.30	-8.82	-37.27	-46.060	-22.834	84.182	0.77365	-0.56998	0.22318	-0.16333	30.9	13111	100
2025-3-27 18:44:27.40	WT901BLE68-01(48591DE3C19B)	-0.420	-0.998	0.378	5.798	2.258	5.493	-74.22	-8.59	-37.20	-46.060	-22.834	84.182	0.77365	-0.56998	0.22318	-0.16333	30.9	13111	100
2025-3-27 18:44:27.99	WT901BLE68-01(48591DE3C19B)	-0.420	-1.126	0.370	1.831	6.958	16.479	-74.17	-8.29	-37.14	-46.060	-22.834	84.182	0.77365	-0.56998	0.22318	-0.16333	30.9	13111	100
2025-3-27 18:44:27.99	WT901BLE68-01(48591DE3C19B)	-0.411	-1.126	0.370	1.831	6.958	16.479	-74.13	-7.95	-37.08	-46.060	-22.834	84.182	0.74136	-0.58765	0.13876	-0.29272	30.9	13111	100
2025-3-27 18:44:27.99	WT901BLE68-01(48591DE3C19B)	-0.411	-1.248	0.353	0.549	14.099	27.771	-74.10	-7.54	-37.05	-46.060	-22.834	84.182	0.74136	-0.58765	0.13876	-0.29272	30.9	13111	100
2025-3-27 18:44:27.99	WT901BLE68-01(48591DE3C19B)	-0.423	-1.248	0.353	0.549	14.099	27.771	-74.08	-7.07	-37.03	-46.060	-22.834	84.182	0.74136	-0.58765	0.13876	-0.29272	30.9	13111	100
2025-3-27 18:44:27.130	WT901BLE68-01(48591DE3C19B)	-1.692	-1.321	0.329	-2.075	21.118	37.598	-74.07	-6.55	-37.03	-46.060	-22.834	84.182	0.74136	-0.58765	0.13876	-0.29272	30.9	13111	100
2025-3-27 18:44:27.130	WT901BLE68-01(48591DE3C19B)	-0.485	-5.283	1.318	-2.075	21.118	37.598	-74.08	-5.98	-37.06	-46.060	-22.834	84.182	0.74136	-0.58765	0.13876	-0.29272	30.9	13111	100
2025-3-27 18:44:27.130	WT901BLE68-01(48591DE3C19B)	-0.485	-1.367	0.330	-6.287	22.095	45.166	-74.12	-5.38	-37.08	-46.060	-22.834	84.182	0.74136	-0.58765	0.13876	-0.29272	30.9	13111	100
2025-3-27 18:44:27.130	WT901BLE68-01(48591DE3C19B)	-0.569	-1.367	0.330	-6.287	22.095	45.166	-74.19	-4.75	-37.10	-46.060	-22.834	84.182	0.74136	-0.58765	0.13876	-0.29272	30.9	13111	100
2025-3-27 18:44:27.158	WT901BLE68-01(48591DE3C19B)	-0.569	-1.380	0.345	-8.301	12.512	50.903	-74.27	-4.10	-37.07	-46.060	-22.834	84.182	0.74136	-0.58765	0.13876	-0.29272	30.9	13111	100
2025-3-27 18:44:27.158	WT901BLE68-01(48591DE3C19B)	-0.624	-1.380	0.345	-8.301	12.512	50.903	-74.36	-3.44	-36.98	-46.060	-22.834	84.182	0.74136	-0.58765	0.13876	-0.29272	30.9	13111	100
2025-3-27 18:44:27.158	WT901BLE68-01(48591DE3C19B)	-0.624	-1.278	0.360	-9.644	-8.362	56.641	-74.47	-2.79	-36.79	-46.060	-22.834	84.182	0.74136	-0.58765	0.13876	-0.29272	30.9	13111	100
2025-3-27 18:44:27.158	WT901BLE68-01(48591DE3C19B)	-0.627	-1.278	0.360	-9.644	-8.362	56.641	-74.58	-2.14	-36.49	-46.060	-22.834	84.182	0.74136	-0.58765	0.13876	-0.29272	30.9	13111	100
2025-3-27 18:44:27.219	WT901BLE68-01(48591DE3C19B)	-0.627	-1.223	0.325	-13.916	-36.255	68.787	-74.72	-1.46	-36.04	-46.060	-22.834	84.182	0.74136	-0.58765	0.13876	-0.29272	30.9	13111	100
2025-3-27 18:44:27.219	WT901BLE68-01(48591DE3C19B)	-0.576	-1.223	0.325	-13.916	-36.255	68.787	-74.88	-0.76	-35.44	-46.060	-22.834	84.182	0.74136	-0.58765	0.13876	-0.29272	30.9	13111	100
2025-3-27 18:44:27.220	WT901BLE68-01(48591DE3C19B)	-0.576	-1.146	0.239	-13.672	-65.674	91.675	-75.03	0.00	-34.68	-46.060	-22.834	84.182	0.74136	-0.58765	0.13876	-0.29272	30.9	13111	100
2025-3-27 18:44:27.220	WT901BLE68-01(48591DE3C19B)	-0.475	-1.146	0.239	-13.672	-65.674	91.675	-75.17	0.84	-33.75	-46.060	-22.834	84.182	0.74136	-0.58765	0.13876	-0.29272	30.9	13111	100
2025-3-27 18:44:27.251	WT901BLE68-01(48591DE3C19B)	-0.475	-1.060	0.125	-15.808	-88.562	121.277	-75.31	1.91	-32.54	-46.060	-22.834	84.182	0.74136	-0.58765	0.13876	-0.29272	30.9	13111	100
2025-3-27 18:44:27.251	WT901BLE68-01(48591DE3C19B)	-0.349	-1.060	0.125	-15.808	-88.562	121.277	-75.43	2.97	-31.32	-46.060	-22.834	84.182	0.74136	-0.58765	0.13876	-0.29272	30.9	13111	100
2025-3-27 18:44:27.251	WT901BLE68-01(48591DE3C19B)	-0.349	-1.056	0.002	-21.362	-108.704	150.330	-75.56	4.26	-29.85	-46.060	-22.834	84.182	0.74136	-0.58765	0.13876	-0.29272	30.9	13111	100
2025-3-27 18:44:27.251	WT901BLE68-01(48591DE3C19B)	-0.236	-1.056	0.002	-21.362	-108.704	150.330	-75.67	5.54	-28.39	-46.060	-22.834	84.182	0.74136	-0.58765	0.13876	-0.29272	30.9	13111	100
2025-3-27 18:44:27.309	WT901BLE68-01(48591DE3C19B)	-0.236	-1.205	-0.063	-22.705	-124.512	173.035	-75.73	7.00	-26.72	-46.060	-22.834	84.182	0.74136	-0.58765	0.13876	-0.29272	30.9	13111	100
2025-3-27 18:44:27.310	WT901BLE68-01(48591DE3C19B)	-0.171	-1.205	-0.063	-22.705	-124.512	173.035	-75.77	8.44	-25.07	-48.510	-23.814	78.988	0.74136	-0.58765	0.13876	-0.29272	30.9	13111	100
2025-3-27 18:44:27.310	WT901BLE68-01(48591DE3C19B)	-0.171	-1.381	-0.046	-15.564	-134.155	187.378	-75.67	9.98	-23.28	-48.510	-23.814	78.988	0.74136	-0.58765	0.13876	-0.29272	30.9	13111	100
2025-3-27 18:44:27.310	WT901BLE68-01(48591DE3C19B)	-0.128	-1.381	-0.046	-15.564	-134.155	187.378	-75.53	11.50	-21.50	-48.510	-23.814	78.988	0.74136	-0.58765	0.13876	-0.29272	30.9	13111	100
2025-3-27 18:44:27.339	WT901BLE68-01(48591DE3C19B)	-0.128	-1.491	0.000	-2.136	-133.667	197.266	-75.21	13.10	-19.69	-48.510	-23.814	78.988	0.74136	-0.58765	0.13876	-0.29272	30.9	13111	100
2025-3-27 18:44:27.339	WT901BLE68-01(48591DE3C19B)	-0.074	-1.491	0.000	-2.136	-133.667	197.266	-74.84	14.67	-17.89	-48.510	-23.814	78.988	0.74136	-0.58765	0.13876	-0.29272	30.9	13111	100
2025-3-27 18:44:27.339	WT901BLE68-01(48591DE3C19B)	-0.074	-1.365	0.038	15.747	-114.563	198.608	-74.29	16.28	-16.24	-48.510	-23.814	78.988	0.74136	-0.58765	0.13876	-0.29272	30.9	13111	100
2025-3-27 18:44:27.339	WT901BLE68-01(48591DE3C19B)	-0.035	-1.365	0.038	15.747	-114.563	198.608	-73.69	17.85	-14.59	-48.510	-23.814	78.988	0.74136	-0.58765	0.13876	-0.29272	30.9	13111	100
2025-3-27 18:44:27.370	WT901BLE68-01(48591DE3C19B)	-0.035	-1.168	0.064	21.057	-79.346	195.068	-73.11	19.46	-13.28	-48.510	-23.814	78.988	0.74136	-0.58765	0.13876	-0.29272	30.9	13111	100
2025-3-27 18:44:27.370	WT901BLE68-01(48591DE3C19B)	-0.028	-1.168	0.064	21.057	-79.346	195.068	-72.49	21.04	-11.95	-48.510	-23.814	78.988	0.74136	-0.58765	0.13876	-0.29272	30.9	13111	100
2025-3-27 18:44:27.370	WT901BLE68-01(48591DE3C19B)	-0.028	-1.093	0.041	20.203	-32.471	187.439	-72.03	22.66	-11.11	-48.510	-23.814	78.988	0.74136	-0.58765	0.13876	-0.29272	30.9	13111	100
2025-3-27 18:44:27.370	WT901BLE68-01(48591DE3C19B)	-0.009	-1.093	0.041	20.203	-32.471	187.439	-71.54	24.27	-10.24	-48.510	-23.814	78.988	0.74136	-0.58765	0.13876	-0.29272	30.9	13111	100
2025-3-27 18:44:27.430	WT901BLE68-01(48591DE3C19B)	-0.009	-0.984	0.003	21.667	13.123	178.345	-71.22	25.92	-9.87	-48.510	-23.814	78.988	0.74136	-0.58765	0.13876	-0.29272	30.9	13111	100
2025-3-27 18:44:27.430	WT901BLE68-01(48591DE3C19B)	0.028	-0.984	0.003	21.667	13.123	178.345	-70.89	27.55	-9.49	-48.510	-23.814	78.988	0.74136	-0.58765	0.13876	-0.29272	30.9	13111	100
2025-3-27 18:44:27.430	WT901BLE68-01(48591DE3C19B)	0.028	-0.832	-0.007	15.808	42.419	166.870	-70.77	29.16	-9.46	-48.510	-23.814	78.988	0.74136	-0.58765	0.13876	-0.29272	30.9	13111	100
2025-3-27 18:44:27.430	WT901BLE68-01(48591DE3C19B)	0.008	-0.832	-0.007	15.808	42.419	166.870	-70.66	30.76	-9.43	-48.510	-23.814	78.988	0.74136	-0.58765	0.13876	-0.29272	30.9	13111	100
2025-3-27 18:44:27.461	WT901BLE68-01(48591DE3C19B)	0.008	-0.787	-0.028	1.892	46.326	154.541	-70.73	32.23	-9.49	-48.510	-23.814	78.988	0.74136	-0.58765	0.13876	-0.29272	30.9	13111	100
2025-3-27 18:44:27.462	WT901BLE68-01(48591DE3C19B)	-0.042	-0.787	-0.028	1.892	46.326	154.541	-70.81	33.71	-9.56	-48.510	-23.814	78.988	0.74136	-0.58765	0.13876	-0.29272	30.9	13111	100
2025-3-27 18:44:27.462	WT901BLE68-01(48591DE3C19B)	-0.042	-0.856	-0.024	-9.155	38.147	138.428	-70.98	34.99	-9.61	-48.510	-23.814	78.988	0.74136	-0.58765	0.13876	-0.29272	30.9	13111	100
2025-3-27 18:44:27.462	WT901BLE68-01(48591DE3C19B)	0.013	-0.856	-0.024	-9.155	38.147	138.428	-71.16	36.26	-9.67	-48.510	-23.814	78.988	0.74136	-0.58765	0.13876	-0.29272	30.9	13111	100
2025-3-27 18:44:27.491	WT901BLE68-01(48591DE3C19B)	0.013	-0.952	-0.027	-14.099	20.996	120.422	-71.32	37.30	-9.60	-48.510	-23.814	78.988	0.74136	-0.58765	0.13876	-0.29272	30.9	13111	100
2025-3-27 18:44:27.491	WT901BLE68-01(48591DE3C19B)	0.145	-0.952	-0.027	-14.099	20.996	120.422	-71.48	38.33	-9.55	-48.510	-23.814	78.988	0.74136	-0.58765	0.13876	-0.29272	30.9	13111	100
2025-3-27 18:44:27.491	WT901BLE68-01(48591DE3C19B)	0.145	-1.070	-0.057	-20.569	3.174	96.191	-71.64	39.07	-9.38	-48.510	-23.814	78.988	0.77640	-0.52747	0.31720	0.13510	30.9	13111	100
2025-3-27 18:44:27.492	WT901BLE68-01(48591DE3C19B)	0.353	-1.070	-0.057	-20.569	3.174	96.191	-71.80	39.79	-9.22	-48.510	-23.814	78.988	0.77640	-0.52747	0.31720	0.13510	30.9	13111	100
2025-3-27 18:44:27.579	WT901BLE68-01(48591DE3C19B)	0.353	-1.350	-0.077	-23.438	-11.292	57.129	-71.98	40.09	-9.06	-48.510	-23.814	78.988	0.77640	-0.52747	0.31720	0.13510	30.9	13111	100
2025-3-27 18:44:27.579	WT901BLE68-01(48591DE3C19B)	0.551	-1.350	-0.077	-23.438	-11.292	57.129	-72.17	40.39	-8.90	-48.510	-23.814	78.988	0.77640	-0.52747	0.31720	0.13510	30.9	13111	100
2025-3-27 18:44:27.579	WT901BLE68-01(48591DE3C19B)	0.551	-1.646	-0.076	-12.024	-16.663	15.015	-72.32	40.25	-8.87	-48.510	-23.814	78.988	0.77640	-0.52747	0.31720	0.13510	30.9	13111	100
2025-3-27 18:44:27.579	WT901BLE68-01(48591DE3C19B)	0.521	-1.646	-0.076	-12.024	-16.663	15.015	-72.48	40.11	-8.83	-48.510	-23.814	78.988	0.77640	-0.52747	0.31720	0.13510	30.9	13111	100
2025-3-27 18:44:27.580	WT901BLE68-01(48591DE3C19B)	0.521	-1.774	-0.035	-1.953	-2.991	-24.902	-72.75	39.62	-9.13	-48.510	-23.814	78.988	0.77640	-0.52747	0.31720	0.13510	30.9	13111	100
2025-3-27 18:44:27.580	WT901BLE68-01(48591DE3C19B)	0.405	-1.774	-0.035	-1.953	-2.991	-24.902	-73.02	39.12	-9.42	-48.510	-23.814	78.988	0.77640	-0.52747	0.31720	0.13510	30.9	13111	100
2025-3-27 18:44:27.581	WT901BLE68-01(48591DE3C19B)	0.405	-1.884	0.052	-2.319	24.414	-68.237	-73.58	38.29	-10.21	-48.510	-23.814	78.988	0.77640	-0.52747	0.31720	0.13510	30.9	13111	100
2025-3-27 18:44:27.581	WT901BLE68-01(48591DE3C19B)	0.341	-1.884	0.052	-2.319	24.414	-68.237	-74.12	37.46	-10.96	-48.510	-23.814	78.988	0.77640	-0.52747	0.31720	0.13510	30.9	13111	100
2025-3-27 18:44:27.609	WT901BLE68-01(48591DE3C19B)	0.341	-1.922	0.110	5.798	53.345	-108.948	-74.85	36.30	-12.18	-48.510	-23.814	78.988	0.77640	-0.52747	0.31720	0.13510	30.9	13111	100
2025-3-27 18:44:27.609	WT901BLE68-01(48591DE3C19B)	0.277	-1.922	0.110	5.798	53.345	-108.948	-75.53	35.15	-13.35	-48.510	-23.814	78.988	0.77640	-0.52747	0.31720	0.13510	30.9	13111	100
2025-3-27 18:44:27.610	WT901BLE68-01(48591DE3C19B)	0.277	-1.809	0.138	15.259	65.308	-143.921	-76.20	33.67	-14.73	-48.510	-23.814	78.988	0.77640	-0.52747	0.31720	0.13510	30.9	13111	100
2025-3-27 18:44:27.610	WT901BLE68-01(48591DE3C19B)	0.217	-1.809	0.138	15.259	65.308	-143.921	-76.81	32.20	-16.06	-48.510	-23.814	78.988	0.77640	-0.52747	0.31720	0.13510	30.9	13111	100
2025-3-27 18:44:27.670	WT901BLE68-01(48591DE3C19B)	0.217	-1.728	0.058	24.231	73.730	-172.913	-77.36	30.45	-17.50	-48.510	-23.814	78.988	0.77640	-0.52747	0.31720	0.13510	30.9	13111	100
2025-3-27 18:44:27.670	WT901BLE68-01(48591DE3C19B)	0.081	-1.728	0.058	24.231	73.730	-172.913	-77.85	28.71	-18.89	-48.510	-23.814	78.988	0.77640	-0.52747	0.31720	0.13510	30.9	13111	100
2025-3-27 18:44:27.670	WT901BLE68-01(48591DE3C19B)	0.081	-1.564	0.022	33.875	75.256	-192.993	-78.21	26.77	-20.30	-48.510	-23.814	78.988	0.77640	-0.52747	0.31720	0.13510	30.9	13111	100
2025-3-27 18:44:27.670	WT901BLE68-01(48591DE3C19B)	-0.089	-1.564	0.022	33.875	75.256	-192.993	-78.51	24.85	-21.66	-48.510	-23.814	78.988	0.77640	-0.52747	0.31720	0.13510	30.9	13111	100
2025-3-27 18:44:27.698	WT901BLE68-01(48591DE3C19B)	-0.240	-1.436	-0.004	35.339	68.726	-207.581	-78.72	22.77	-22.94	-46.060	-28.910	71.834	0.77640	-0.52747	0.31720	0.13510	30.9	13111	100
2025-3-27 18:44:27.699	WT901BLE68-01(48591DE3C19B)	-0.240	-1.310	0.084	36.255	49.011	-217.651	-78.84	20.65	-24.09	-46.060	-28.910	71.834	0.77640	-0.52747	0.31720	0.13510	30.9	13111	100
2025-3-27 18:44:27.699	WT901BLE68-01(48591DE3C19B)	-0.276	-1.310	0.084	36.255	49.011	-217.651	-78.88	18.47	-25.12	-46.060	-28.910	71.834	0.77640	-0.52747	0.31720	0.13510	30.9	13111	100
2025-3-27 18:44:27.699	WT901BLE68-01(48591DE3C19B)	-0.276	-1.166	0.190	32.288	22.644	-222.412	-78.85	16.27	-26.00	-46.060	-28.910	71.834	0.77640	-0.52747	0.31720	0.13510	30.9	13111	100
2025-3-27 18:44:27.729	WT901BLE68-01(48591DE3C19B)	-0.331	-1.166	0.190	32.288	22.644	-222.412	-78.76	14.04	-26.73	-46.060	-28.910	71.834	0.77640	-0.52747	0.31720	0.13510	30.9	13111	100
2025-3-27 18:44:27.729	WT901BLE68-01(48591DE3C19B)	-0.331	-1.078	0.256	22.217	-7.751	-220.398	-78.66	11.80	-27.30	-46.060	-28.910	71.834	0.77640	-0.52747	0.31720	0.13510	30.9	13111	100
2025-3-27 18:44:27.729	WT901BLE68-01(48591DE3C19B)	-0.292	-1.078	0.256	22.217	-7.751	-220.398	-78.56	9.57	-27.71	-46.060	-28.910	71.834	0.77640	-0.52747	0.31720	0.13510	30.9	13111	100
2025-3-27 18:44:27.729	WT901BLE68-01(48591DE3C19B)	-0.292	-1.083	0.267	9.094	-31.494	-217.041	-78.49	7.35	-27.99	-46.060	-28.910	71.834	0.77640	-0.52747	0.31720	0.13510	30.9	13111	100
2025-3-27 18:44:27.789	WT901BLE68-01(48591DE3C19B)	-0.167	-1.083	0.267	9.094	-31.494	-217.041	-78.45	5.15	-28.15	-46.060	-28.910	71.834	0.77640	-0.52747	0.31720	0.13510	30.9	13111	100
2025-3-27 18:44:27.789	WT901BLE68-01(48591DE3C19B)	-0.167	-1.103	0.237	0.183	-25.024	-211.548	-78.45	2.99	-28.33	-46.060	-28.910	71.834	0.77640	-0.52747	0.31720	0.13510	30.9	13111	100
2025-3-27 18:44:27.789	WT901BLE68-01(48591DE3C19B)	-0.127	-1.103	0.237	0.183	-25.024	-211.548	-78.48	0.89	-28.53	-46.060	-28.910	71.834	0.77640	-0.52747	0.31720	0.13510	30.9	13111	100
2025-3-27 18:44:27.789	WT901BLE68-01(48591DE3C19B)	-0.127	-1.075	0.181	-3.967	10.193	-203.674	-78.52	-1.13	-28.89	-46.060	-28.910	71.834	0.77640	-0.52747	0.31720	0.13510	30.9	13111	100
2025-3-27 18:44:27.818	WT901BLE68-01(48591DE3C19B)	-0.180	-1.075	0.181	-3.967	10.193	-203.674	-78.57	-3.05	-29.42	-46.060	-28.910	71.834	0.77640	-0.52747	0.31720	0.13510	30.9	13111	100
2025-3-27 18:44:27.818	WT901BLE68-01(48591DE3C19B)	-0.180	-1.005	0.140	-5.127	49.255	-197.510	-78.59	-4.91	-30.12	-46.060	-28.910	71.834	0.77640	-0.52747	0.31720	0.13510	30.9	13111	100
2025-3-27 18:44:27.818	WT901BLE68-01(48591DE3C19B)	-0.234	-1.005	0.140	-5.127	49.255	-197.510	-78.57	-6.67	-31.01	-46.060	-28.910	71.834	0.77640	-0.52747	0.31720	0.13510	30.9	13111	100
2025-3-27 18:44:27.818	WT901BLE68-01(48591DE3C19B)	-0.234	-0.905	0.170	-3.784	75.562	-191.162	-78.51	-8.37	-32.02	-46.060	-28.910	71.834	0.77640	-0.52747	0.31720	0.13510	30.9	13111	100
2025-3-27 18:44:27.851	WT901BLE68-01(48591DE3C19B)	-0.268	-0.905	0.170	-3.784	75.562	-191.162	-78.39	-10.00	-33.16	-46.060	-28.910	71.834	0.77640	-0.52747	0.31720	0.13510	30.9	13111	100
2025-3-27 18:44:27.851	WT901BLE68-01(48591DE3C19B)	-0.268	-0.812	0.241	-2.014	90.271	-180.664	-78.22	-11.54	-34.35	-46.060	-28.910	71.834	0.77640	-0.52747	0.31720	0.13510	30.9	13111	100
2025-3-27 18:44:27.851	WT901BLE68-01(48591DE3C19B)	-0.299	-0.812	0.241	-2.014	90.271	-180.664	-77.99	-13.00	-35.62	-46.060	-28.910	71.834	0.77640	-0.52747	0.31720	0.13510	30.9	13111	100
2025-3-27 18:44:27.851	WT901BLE68-01(48591DE3C19B)	-0.299	-0.733	0.271	1.953	99.548	-167.725	-77.69	-14.37	-36.93	-46.060	-28.910	71.834	0.77640	-0.52747	0.31720	0.13510	30.9	13111	100
2025-3-27 18:44:27.909	WT901BLE68-01(48591DE3C19B)	-0.347	-0.733	0.271	1.953	99.548	-167.725	-77.34	-15.64	-38.27	-46.060	-28.910	71.834	0.77640	-0.52747	0.31720	0.13510	30.9	13111	100
2025-3-27 18:44:27.909	WT901BLE68-01(48591DE3C19B)	-0.347	-0.664	0.245	7.385	104.248	-155.457	-76.92	-16.83	-39.64	-46.060	-28.910	71.834	0.69543	-0.61646	0.10013	-0.35526	30.9	13111	100
2025-3-27 18:44:27.909	WT901BLE68-01(48591DE3C19B)	-0.421	-0.664	0.245	7.385	104.248	-155.457	-76.44	-17.93	-41.02	-46.060	-28.910	71.834	0.69543	-0.61646	0.10013	-0.35526	30.9	13111	100
2025-3-27 18:44:27.909	WT901BLE68-01(48591DE3C19B)	-0.421	-0.626	0.211	10.925	96.985	-145.020	-75.93	-18.96	-42.37	-46.060	-28.910	71.834	0.69543	-0.61646	0.10013	-0.35526	30.9	13111	100
2025-3-27 18:44:27.940	WT901BLE68-01(48591DE3C19B)	-0.481	-0.626	0.211	10.925	96.985	-145.020	-75.39	-19.92	-43.67	-46.060	-28.910	71.834	0.69543	-0.61646	0.10013	-0.35526	30.9	13111	100
2025-3-27 18:44:27.940	WT901BLE68-01(48591DE3C19B)	-0.481	-0.631	0.219	12.878	76.843	-133.484	-74.87	-20.83	-44.87	-46.060	-28.910	71.834	0.69543	-0.61646	0.10013	-0.35526	30.9	13111	100
2025-3-27 18:44:27.940	WT901BLE68-01(48591DE3C19B)	-0.523	-0.631	0.219	12.878	76.843	-133.484	-74.36	-21.69	-45.94	-46.060	-28.910	71.834	0.69543	-0.61646	0.10013	-0.35526	30.9	13111	100
2025-3-27 18:44:27.940	WT901BLE68-01(48591DE3C19B)	-0.523	-0.686	0.254	12.390	56.213	-119.812	-73.88	-22.48	-46.91	-46.060	-28.910	71.834	0.69543	-0.61646	0.10013	-0.35526	30.9	13111	100
2025-3-27 18:44:27.968	WT901BLE68-01(48591DE3C19B)	-0.561	-0.686	0.254	12.390	56.213	-119.812	-73.43	-23.22	-47.75	-46.060	-28.910	71.834	0.69543	-0.61646	0.10013	-0.35526	30.9	13111	100
2025-3-27 18:44:27.969	WT901BLE68-01(48591DE3C19B)	-0.561	-0.829	0.278	10.132	42.175	-105.225	-73.03	-23.89	-48.49	-46.060	-28.910	71.834	0.69543	-0.61646	0.10013	-0.35526	30.9	13111	100
2025-3-27 18:44:27.969	WT901BLE68-01(48591DE3C19B)	-0.598	-0.829	0.278	10.132	42.175	-105.225	-72.67	-24.50	-49.14	-46.060	-28.910	71.834	0.69543	-0.61646	0.10013	-0.35526	30.9	13111	100
2025-3-27 18:44:27.969	WT901BLE68-01(48591DE3C19B)	-0.598	-1.021	0.288	7.996	30.212	-88.928	-72.36	-25.04	-49.70	-46.060	-28.910	71.834	0.69543	-0.61646	0.10013	-0.35526	30.9	13111	100
2025-3-27 18:44:28.30	WT901BLE68-01(48591DE3C19B)	-0.656	-1.021	0.288	7.996	30.212	-88.928	-72.09	-25.50	-50.18	-46.060	-28.910	71.834	0.69543	-0.61646	0.10013	-0.35526	30.9	13111	100
2025-3-27 18:44:28.30	WT901BLE68-01(48591DE3C19B)	-0.656	-1.226	0.312	4.944	17.395	-71.899	-71.87	-25.91	-50.56	-46.060	-28.910	71.834	0.69543	-0.61646	0.10013	-0.35526	30.9	13111	100
2025-3-27 18:44:28.30	WT901BLE68-01(48591DE3C19B)	-0.722	-1.226	0.312	4.944	17.395	-71.899	-71.71	-26.24	-50.84	-46.060	-28.910	71.834	0.69543	-0.61646	0.10013	-0.35526	30.9	13111	100
2025-3-27 18:44:28.30	WT901BLE68-01(48591DE3C19B)	-0.722	-1.424	0.359	-4.395	5.554	-49.011	-71.64	-26.48	-51.03	-46.060	-28.910	71.834	0.69543	-0.61646	0.10013	-0.35526	30.9	13111	100
2025-3-27 18:44:28.61	WT901BLE68-01(48591DE3C19B)	-0.785	-1.424	0.359	-4.395	5.554	-49.011	-71.67	-26.64	-51.10	-46.060	-28.910	71.834	0.69543	-0.61646	0.10013	-0.35526	30.9	13111	100
2025-3-27 18:44:28.61	WT901BLE68-01(48591DE3C19B)	-0.785	-1.481	0.414	-4.272	-3.601	-18.982	-71.74	-26.66	-51.08	-46.060	-28.910	71.834	0.69543	-0.61646	0.10013	-0.35526	30.9	13111	100
2025-3-27 18:44:28.61	WT901BLE68-01(48591DE3C19B)	-0.738	-1.481	0.414	-4.272	-3.601	-18.982	-71.85	-26.55	-50.96	-46.060	-28.910	71.834	0.69543	-0.61646	0.10013	-0.35526	30.9	13111	100
2025-3-27 18:44:28.61	WT901BLE68-01(48591DE3C19B)	-0.738	-1.363	0.505	-14.526	-17.212	17.761	-72.08	-26.29	-50.71	-46.060	-28.910	71.834	0.69543	-0.61646	0.10013	-0.35526	30.9	13111	100
2025-3-27 18:44:28.91	WT901BLE68-01(48591DE3C19B)	-0.685	-1.363	0.505	-14.526	-17.212	17.761	-72.40	-25.88	-50.32	-46.060	-28.910	71.834	0.69543	-0.61646	0.10013	-0.35526	30.9	13111	100
2025-3-27 18:44:28.91	WT901BLE68-01(48591DE3C19B)	-0.685	-1.347	0.578	-28.076	-40.100	59.509	-72.86	-25.30	-49.75	-46.060	-28.910	71.834	0.69543	-0.61646	0.10013	-0.35526	30.9	13111	100
2025-3-27 18:44:28.91	WT901BLE68-01(48591DE3C19B)	-0.655	-1.347	0.578	-28.076	-40.100	59.509	-73.45	-24.55	-49.02	-64.582	-19.796	78.008	0.69543	-0.61646	0.10013	-0.35526	30.9	13111	100
2025-3-27 18:44:28.91	WT901BLE68-01(48591DE3C19B)	-0.655	-1.344	0.602	-33.142	-75.378	98.877	-74.15	-23.66	-48.05	-64.582	-19.796	78.008	0.69543	-0.61646	0.10013	-0.35526	30.9	13111	100
2025-3-27 18:44:28.179	WT901BLE68-01(48591DE3C19B)	-0.635	-1.344	0.602	-33.142	-75.378	98.877	-74.93	-22.63	-46.87	-64.582	-19.796	78.008	0.69543	-0.61646	0.10013	-0.35526	30.9	13111	100
2025-3-27 18:44:28.180	WT901BLE68-01(48591DE3C19B)	-0.635	-1.254	0.532	-28.748	-111.450	137.634	-75.74	-21.44	-45.47	-64.582	-19.796	78.008	0.69543	-0.61646	0.10013	-0.35526	30.9	13111	100
2025-3-27 18:44:28.180	WT901BLE68-01(48591DE3C19B)	-0.594	-1.254	0.532	-28.748	-111.450	137.634	-76.56	-20.10	-43.88	-64.582	-19.796	78.008	0.69543	-0.61646	0.10013	-0.35526	30.9	13111	100
2025-3-27 18:44:28.180	WT901BLE68-01(48591DE3C19B)	-0.594	-1.087	0.417	-18.616	-140.503	174.316	-77.35	-18.45	-41.95	-64.582	-19.796	78.008	0.69543	-0.61646	0.10013	-0.35526	30.9	13111	100
2025-3-27 18:44:28.181	WT901BLE68-01(48591DE3C19B)	-0.557	-1.087	0.417	-18.616	-140.503	174.316	-78.08	-16.79	-40.06	-64.582	-19.796	78.008	0.69543	-0.61646	0.10013	-0.35526	30.9	13111	100
2025-3-27 18:44:28.181	WT901BLE68-01(48591DE3C19B)	-0.557	-1.005	0.235	-14.099	-164.490	207.825	-78.77	-14.84	-37.90	-64.582	-19.796	78.008	0.69543	-0.61646	0.10013	-0.35526	30.9	13111	100
2025-3-27 18:44:28.181	WT901BLE68-01(48591DE3C19B)	-0.487	-1.005	0.235	-14.099	-164.490	207.825	-79.38	-12.88	-35.79	-64.582	-19.796	78.008	0.69543	-0.61646	0.10013	-0.35526	30.9	13111	100
2025-3-27 18:44:28.181	WT901BLE68-01(48591DE3C19B)	-0.487	-1.150	0.073	-12.573	-181.396	233.521	-79.94	-10.68	-33.50	-64.582	-19.796	78.008	0.69543	-0.61646	0.10013	-0.35526	30.9	13111	100
2025-3-27 18:44:28.211	WT901BLE68-01(48591DE3C19B)	-0.373	-1.150	0.073	-12.573	-181.396	233.521	-80.40	-8.48	-31.26	-64.582	-19.796	78.008	0.69543	-0.61646	0.10013	-0.35526	30.9	13111	100
2025-3-27 18:44:28.211	WT901BLE68-01(48591DE3C19B)	-0.373	-1.464	-0.036	-1.221	-188.904	250.061	-80.68	-6.14	-28.95	-64.582	-19.796	78.008	0.69543	-0.61646	0.10013	-0.35526	30.9	13111	100
2025-3-27 18:44:28.211	WT901BLE68-01(48591DE3C19B)	-0.218	-1.464	-0.036	-1.221	-188.904	250.061	-80.88	-3.80	-26.68	-64.582	-19.796	78.008	0.69543	-0.61646	0.10013	-0.35526	30.9	13111	100
2025-3-27 18:44:28.211	WT901BLE68-01(48591DE3C19B)	-0.218	-1.793	-0.071	21.423	-189.270	258.362	-80.76	-1.41	-24.41	-64.582	-19.796	78.008	0.69543	-0.61646	0.10013	-0.35526	30.9	13111	100
2025-3-27 18:44:28.271	WT901BLE68-01(48591DE3C19B)	-0.045	-1.793	-0.071	21.423	-189.270	258.362	-80.55	0.95	-22.15	-64.582	-19.796	78.008	0.69543	-0.61646	0.10013	-0.35526	30.9	13111	100
2025-3-27 18:44:28.271	WT901BLE68-01(48591DE3C19B)	-0.045	-1.976	-0.079	54.016	-175.598	260.864	-79.93	3.31	-20.01	-64.582	-19.796	78.008	0.69543	-0.61646	0.10013	-0.35526	30.9	13111	100
2025-3-27 18:44:28.271	WT901BLE68-01(48591DE3C19B)	0.046	-1.976	-0.079	54.016	-175.598	260.864	-79.24	5.63	-17.86	-64.582	-19.796	78.008	0.69543	-0.61646	0.10013	-0.35526	30.9	13111	100
2025-3-27 18:44:28.271	WT901BLE68-01(48591DE3C19B)	0.046	-1.882	0.000	84.412	-146.912	259.827	-78.20	7.93	-15.96	-64.582	-19.796	78.008	0.69543	-0.61646	0.10013	-0.35526	30.9	13111	100
2025-3-27 18:44:28.301	WT901BLE68-01(48591DE3C19B)	0.004	-1.882	0.000	84.412	-146.912	259.827	-77.08	10.18	-14.03	-64.582	-19.796	78.008	0.69543	-0.61646	0.10013	-0.35526	30.9	13111	100
2025-3-27 18:44:28.301	WT901BLE68-01(48591DE3C19B)	0.004	-1.713	0.128	96.680	-106.262	251.892	-75.84	12.38	-12.47	-64.582	-19.796	78.008	0.69543	-0.61646	0.10013	-0.35526	30.9	13111	100
2025-3-27 18:44:28.301	WT901BLE68-01(48591DE3C19B)	-0.108	-1.713	0.128	96.680	-106.262	251.892	-74.54	14.52	-10.85	-64.582	-19.796	78.008	0.69543	-0.61646	0.10013	-0.35526	30.9	13111	100
2025-3-27 18:44:28.301	WT901BLE68-01(48591DE3C19B)	-0.108	-1.608	0.187	103.271	-55.359	242.188	-73.25	16.67	-9.72	-64.582	-19.796	78.008	0.79849	-0.57831	0.16592	0.01886	30.9	13111	100
2025-3-27 18:44:28.331	WT901BLE68-01(48591DE3C19B)	-0.151	-1.608	0.187	103.271	-55.359	242.188	-71.91	18.77	-8.53	-64.582	-19.796	78.008	0.79849	-0.57831	0.16592	0.01886	30.9	13111	100
2025-3-27 18:44:28.332	WT901BLE68-01(48591DE3C19B)	-0.151	-1.496	0.168	105.530	1.038	239.014	-70.68	20.98	-7.86	-64.582	-19.796	78.008	0.79849	-0.57831	0.16592	0.01886	30.9	13111	100
2025-3-27 18:44:28.332	WT901BLE68-01(48591DE3C19B)	-0.147	-1.496	0.168	105.530	1.038	239.014	-69.41	23.15	-7.12	-64.582	-19.796	78.008	0.79849	-0.57831	0.16592	0.01886	30.9	13111	100
2025-3-27 18:44:28.332	WT901BLE68-01(48591DE3C19B)	-0.147	-1.378	0.091	97.351	54.077	238.342	-68.39	25.49	-6.88	-64.582	-19.796	78.008	0.79849	-0.57831	0.16592	0.01886	30.9	13111	100
2025-3-27 18:44:28.389	WT901BLE68-01(48591DE3C19B)	-0.140	-1.378	0.091	97.351	54.077	238.342	-67.35	27.81	-6.59	-64.582	-19.796	78.008	0.79849	-0.57831	0.16592	0.01886	30.9	13111	100
2025-3-27 18:44:28.389	WT901BLE68-01(48591DE3C19B)	-0.140	-1.336	0.031	79.773	93.689	237.549	-66.66	30.25	-6.67	-64.582	-19.796	78.008	0.79849	-0.57831	0.16592	0.01886	30.9	13111	100
2025-3-27 18:44:28.389	WT901BLE68-01(48591DE3C19B)	-0.138	-1.336	0.031	79.773	93.689	237.549	-65.96	32.68	-6.73	-64.582	-19.796	78.008	0.79849	-0.57831	0.16592	0.01886	30.9	13111	100
2025-3-27 18:44:28.389	WT901BLE68-01(48591DE3C19B)	-0.138	-1.348	-0.044	59.753	114.319	236.877	-65.58	35.17	-6.99	-64.582	-19.796	78.008	0.79849	-0.57831	0.16592	0.01886	30.9	13111	100
2025-3-27 18:44:28.451	WT901BLE68-01(48591DE3C19B)	-0.181	-1.348	-0.044	59.753	114.319	236.877	-65.21	37.65	-7.23	-64.582	-19.796	78.008	0.79849	-0.57831	0.16592	0.01886	30.9	13111	100
2025-3-27 18:44:28.451	WT901BLE68-01(48591DE3C19B)	-0.181	-1.338	-0.121	38.330	113.831	238.831	-65.04	40.13	-7.47	-64.582	-19.796	78.008	0.79849	-0.57831	0.16592	0.01886	30.9	13111	100
2025-3-27 18:44:28.451	WT901BLE68-01(48591DE3C19B)	-0.288	-1.338	-0.121	38.330	113.831	238.831	-64.90	42.60	-7.69	-64.582	-19.796	78.008	0.79849	-0.57831	0.16592	0.01886	30.9	13111	100
2025-3-27 18:44:28.451	WT901BLE68-01(48591DE3C19B)	-0.288	-1.452	-0.136	13.611	86.914	234.985	-64.79	44.91	-7.61	-64.582	-19.796	78.008	0.79849	-0.57831	0.16592	0.01886	30.9	13111	100
2025-3-27 18:44:28.452	WT901BLE68-01(48591DE3C19B)	-0.227	-1.452	-0.136	13.611	86.914	234.985	-64.67	47.21	-7.52	-64.582	-19.796	78.008	0.79849	-0.57831	0.16592	0.01886	30.9	13111	100
2025-3-27 18:44:28.452	WT901BLE68-01(48591DE3C19B)	-0.227	-1.672	-0.149	-0.183	47.302	223.328	-64.33	49.22	-6.96	-64.582	-19.796	78.008	0.79849	-0.57831	0.16592	0.01886	30.9	13111	100
2025-3-27 18:44:28.452	WT901BLE68-01(48591DE3C19B)	-0.135	-1.672	-0.149	-0.183	47.302	223.328	-63.96	51.23	-6.37	-64.582	-19.796	78.008	0.79849	-0.57831	0.16592	0.01886	30.9	13111	100
2025-3-27 18:44:28.452	WT901BLE68-01(48591DE3C19B)	-0.135	-1.809	-0.162	-2.563	9.888	208.557	-63.22	52.92	-5.29	-64.582	-19.796	78.008	0.79849	-0.57831	0.16592	0.01886	30.9	13111	100
2025-3-27 18:44:28.509	WT901BLE68-01(48591DE3C19B)	0.064	-1.809	-0.162	-2.563	9.888	208.557	-62.40	54.59	-4.15	-64.582	-19.796	78.008	0.79849	-0.57831	0.16592	0.01886	30.9	13111	100
2025-3-27 18:44:28.509	WT901BLE68-01(48591DE3C19B)	0.064	-1.793	-0.171	0.916	-23.682	185.303	-61.20	55.87	-2.60	-43.414	-28.322	70.952	0.79849	-0.57831	0.16592	0.01886	30.9	13111	100
2025-3-27 18:44:28.509	WT901BLE68-01(48591DE3C19B)	0.206	-1.793	-0.171	0.916	-23.682	185.303	-59.92	57.13	-0.97	-43.414	-28.322	70.952	0.79849	-0.57831	0.16592	0.01886	30.9	13111	100
2025-3-27 18:44:28.509	WT901BLE68-01(48591DE3C19B)	0.206	-1.646	-0.080	-2.563	-42.664	153.931	-58.57	57.99	0.75	-43.414	-28.322	70.952	0.79849	-0.57831	0.16592	0.01886	30.9	13111	100
2025-3-27 18:44:28.599	WT901BLE68-01(48591DE3C19B)	0.189	-1.646	-0.080	-2.563	-42.664	153.931	-57.17	58.82	2.53	-43.414	-28.322	70.952	0.79849	-0.57831	0.16592	0.01886	30.9	13111	100
2025-3-27 18:44:28.599	WT901BLE68-01(48591DE3C19B)	0.189	-1.457	0.029	-15.747	-62.317	113.586	-55.93	59.18	4.25	-43.414	-28.322	70.952	0.79849	-0.57831	0.16592	0.01886	30.9	13111	100
2025-3-27 18:44:28.599	WT901BLE68-01(48591DE3C19B)	0.141	-1.457	0.029	-15.747	-62.317	113.586	-54.67	59.51	5.99	-43.414	-28.322	70.952	0.79849	-0.57831	0.16592	0.01886	30.9	13111	100
2025-3-27 18:44:28.599	WT901BLE68-01(48591DE3C19B)	0.141	-1.261	0.188	-21.790	-80.750	69.885	-53.65	59.36	7.52	-43.414	-28.322	70.952	0.79849	-0.57831	0.16592	0.01886	30.9	13111	100
2025-3-27 18:44:28.601	WT901BLE68-01(48591DE3C19B)	0.168	-1.261	0.188	-21.790	-80.750	69.885	-52.64	59.19	9.04	-43.414	-28.322	70.952	0.79849	-0.57831	0.16592	0.01886	30.9	13111	100
2025-3-27 18:44:28.601	WT901BLE68-01(48591DE3C19B)	0.168	-1.148	0.253	-21.362	-83.740	25.146	-52.06	58.65	10.04	-43.414	-28.322	70.952	0.79849	-0.57831	0.16592	0.01886	30.9	13111	100
2025-3-27 18:44:28.601	WT901BLE68-01(48591DE3C19B)	0.245	-1.148	0.253	-21.362	-83.740	25.146	-51.51	58.08	11.01	-43.414	-28.322	70.952	0.79849	-0.57831	0.16592	0.01886	30.9	13111	100
2025-3-27 18:44:28.601	WT901BLE68-01(48591DE3C19B)	0.235	-1.042	0.195	-18.616	-58.350	-16.357	-51.69	57.36	11.10	-43.414	-28.322	70.952	0.79849	-0.57831	0.16592	0.01886	30.9	13111	100
2025-3-27 18:44:28.631	WT901BLE68-01(48591DE3C19B)	0.235	-0.939	0.168	-20.142	-17.578	-55.786	-52.29	56.60	10.68	-43.414	-28.322	70.952	0.79849	-0.57831	0.16592	0.01886	30.9	13111	100
2025-3-27 18:44:28.632	WT901BLE68-01(48591DE3C19B)	0.163	-0.939	0.168	-20.142	-17.578	-55.786	-53.30	55.81	9.78	-43.414	-28.322	70.952	0.79849	-0.57831	0.16592	0.01886	30.9	13111	100
2025-3-27 18:44:28.632	WT901BLE68-01(48591DE3C19B)	0.163	-0.920	0.167	-22.766	14.343	-95.703	-54.62	54.94	8.49	-43.414	-28.322	70.952	0.79849	-0.57831	0.16592	0.01886	30.9	13111	100
2025-3-27 18:44:28.632	WT901BLE68-01(48591DE3C19B)	0.061	-0.920	0.167	-22.766	14.343	-95.703	-56.23	53.98	6.86	-43.414	-28.322	70.952	0.79849	-0.57831	0.16592	0.01886	30.9	13111	100
2025-3-27 18:44:28.661	WT901BLE68-01(48591DE3C19B)	0.061	-0.953	0.186	-21.240	39.124	-134.460	-58.02	52.90	4.98	-43.414	-28.322	70.952	0.79849	-0.57831	0.16592	0.01886	30.9	13111	100
2025-3-27 18:44:28.661	WT901BLE68-01(48591DE3C19B)	-0.066	-0.953	0.186	-21.240	39.124	-134.460	-59.94	51.69	2.87	-43.414	-28.322	70.952	0.79849	-0.57831	0.16592	0.01886	30.9	13111	100
2025-3-27 18:44:28.661	WT901BLE68-01(48591DE3C19B)	-0.066	-0.960	0.219	-19.348	51.025	-168.030	-61.88	50.32	0.70	-43.414	-28.322	70.952	0.79849	-0.57831	0.16592	0.01886	30.9	13111	100
2025-3-27 18:44:28.661	WT901BLE68-01(48591DE3C19B)	-0.127	-0.960	0.219	-19.348	51.025	-168.030	-63.80	48.80	-1.52	-43.414	-28.322	70.952	0.79849	-0.57831	0.16592	0.01886	30.9	13111	100
2025-3-27 18:44:28.720	WT901BLE68-01(48591DE3C19B)	-0.127	-1.000	0.262	-15.137	60.669	-199.890	-65.65	47.12	-3.75	-43.414	-28.322	70.952	0.79849	-0.57831	0.16592	0.01886	30.9	13111	100
2025-3-27 18:44:28.720	WT901BLE68-01(48591DE3C19B)	-0.125	-1.000	0.262	-15.137	60.669	-199.890	-67.43	45.28	-5.96	-43.414	-28.322	70.952	0.77805	-0.49945	0.34357	0.16446	30.9	13111	100
2025-3-27 18:44:28.720	WT901BLE68-01(48591DE3C19B)	-0.125	-0.982	0.244	-13.794	56.824	-226.196	-69.05	43.28	-8.05	-43.414	-28.322	70.952	0.77805	-0.49945	0.34357	0.16446	30.9	13111	100
2025-3-27 18:44:28.720	WT901BLE68-01(48591DE3C19B)	-0.170	-0.982	0.244	-13.794	56.824	-226.196	-70.54	41.12	-10.03	-43.414	-28.322	70.952	0.77805	-0.49945	0.34357	0.16446	30.9	13111	100
2025-3-27 18:44:28.748	WT901BLE68-01(48591DE3C19B)	-0.170	-0.965	0.202	-14.526	52.124	-245.789	-71.87	38.84	-11.85	-43.414	-28.322	70.952	0.77805	-0.49945	0.34357	0.16446	30.9	13111	100
2025-3-27 18:44:28.748	WT901BLE68-01(48591DE3C19B)	-0.272	-0.965	0.202	-14.526	52.124	-245.789	-73.06	36.45	-13.56	-43.414	-28.322	70.952	0.77805	-0.49945	0.34357	0.16446	30.9	13111	100
2025-3-27 18:44:28.748	WT901BLE68-01(48591DE3C19B)	-0.272	-0.972	0.181	-15.198	46.143	-265.503	-74.14	33.95	-15.14	-43.414	-28.322	70.952	0.77805	-0.49945	0.34357	0.16446	30.9	13111	100
2025-3-27 18:44:28.748	WT901BLE68-01(48591DE3C19B)	-0.264	-0.972	0.181	-15.198	46.143	-265.503	-75.09	31.34	-16.61	-43.414	-28.322	70.952	0.77805	-0.49945	0.34357	0.16446	30.9	13111	100
2025-3-27 18:44:28.779	WT901BLE68-01(48591DE3C19B)	-0.264	-0.954	0.180	-15.747	29.602	-283.081	-75.90	28.64	-17.91	-43.414	-28.322	70.952	0.77805	-0.49945	0.34357	0.16446	30.9	13111	100
2025-3-27 18:44:28.779	WT901BLE68-01(48591DE3C19B)	-0.210	-0.954	0.180	-15.747	29.602	-283.081	-76.59	25.83	-19.07	-43.414	-28.322	70.952	0.77805	-0.49945	0.34357	0.16446	30.9	13111	100
2025-3-27 18:44:28.779	WT901BLE68-01(48591DE3C19B)	-0.210	-0.940	0.219	-18.127	14.893	-295.105	-77.18	22.97	-20.08	-43.414	-28.322	70.952	0.77805	-0.49945	0.34357	0.16446	30.9	13111	100
2025-3-27 18:44:28.779	WT901BLE68-01(48591DE3C19B)	-0.266	-0.940	0.219	-18.127	14.893	-295.105	-77.70	20.03	-20.98	-43.414	-28.322	70.952	0.77805	-0.49945	0.34357	0.16446	30.9	13111	100
2025-3-27 18:44:28.839	WT901BLE68-01(48591DE3C19B)	-0.266	-0.961	0.309	-22.583	7.935	-300.964	-78.16	17.08	-21.80	-43.414	-28.322	70.952	0.77805	-0.49945	0.34357	0.16446	30.9	13111	100
2025-3-27 18:44:28.840	WT901BLE68-01(48591DE3C19B)	-0.392	-0.961	0.309	-22.583	7.935	-300.964	-78.58	14.11	-22.54	-43.414	-28.322	70.952	0.77805	-0.49945	0.34357	0.16446	30.9	13111	100
2025-3-27 18:44:28.840	WT901BLE68-01(48591DE3C19B)	-0.392	-1.038	0.427	-26.367	1.404	-301.208	-78.96	11.15	-23.23	-43.414	-28.322	70.952	0.77805	-0.49945	0.34357	0.16446	30.9	13111	100
2025-3-27 18:44:28.840	WT901BLE68-01(48591DE3C19B)	-0.422	-1.038	0.427	-26.367	1.404	-301.208	-79.31	8.20	-23.84	-43.414	-28.322	70.952	0.77805	-0.49945	0.34357	0.16446	30.9	13111	100
2025-3-27 18:44:28.871	WT901BLE68-01(48591DE3C19B)	-0.422	-1.105	0.466	-26.550	5.859	-294.556	-79.62	5.31	-24.44	-43.414	-28.322	70.952	0.77805	-0.49945	0.34357	0.16446	30.9	13111	100
2025-3-27 18:44:28.871	WT901BLE68-01(48591DE3C19B)	-0.430	-1.105	0.466	-26.550	5.859	-294.556	-79.90	2.47	-25.04	-43.414	-28.322	70.952	0.77805	-0.49945	0.34357	0.16446	30.9	13111	100
2025-3-27 18:44:28.871	WT901BLE68-01(48591DE3C19B)	-0.430	-1.128	0.422	-23.743	18.433	-280.457	-80.12	-0.26	-25.67	-43.414	-28.322	70.952	0.77805	-0.49945	0.34357	0.16446	30.9	13111	100
2025-3-27 18:44:28.871	WT901BLE68-01(48591DE3C19B)	-0.481	-1.128	0.422	-23.743	18.433	-280.457	-80.30	-2.90	-26.34	-43.414	-28.322	70.952	0.77805	-0.49945	0.34357	0.16446	30.9	13111	100
2025-3-27 18:44:28.899	WT901BLE68-01(48591DE3C19B)	-0.481	-1.191	0.343	-20.325	26.245	-259.827	-80.43	-5.41	-27.02	-43.414	-28.322	70.952	0.77805	-0.49945	0.34357	0.16446	30.9	13111	100
2025-3-27 18:44:28.899	WT901BLE68-01(48591DE3C19B)	-0.537	-1.191	0.343	-20.325	26.245	-259.827	-80.51	-7.79	-27.71	-43.414	-28.322	70.952	0.77805	-0.49945	0.34357	0.16446	30.9	13111	100
2025-3-27 18:44:28.899	WT901BLE68-01(48591DE3C19B)	-0.537	-1.250	0.329	-13.855	23.193	-237.305	-80.54	-10.06	-28.37	-46.256	-19.992	76.244	0.77805	-0.49945	0.34357	0.16446	30.9	13111	100
2025-3-27 18:44:28.899	WT901BLE68-01(48591DE3C19B)	-0.541	-1.250	0.329	-13.855	23.193	-237.305	-80.52	-12.19	-28.99	-46.256	-19.992	76.244	0.77805	-0.49945	0.34357	0.16446	30.9	13111	100
2025-3-27 18:44:28.959	WT901BLE68-01(48591DE3C19B)	-0.541	-1.332	0.369	-13.184	19.409	-213.562	-80.48	-14.19	-29.58	-46.256	-19.992	76.244	0.77805	-0.49945	0.34357	0.16446	30.9	13111	100
2025-3-27 18:44:28.959	WT901BLE68-01(48591DE3C19B)	-0.605	-1.332	0.369	-13.184	19.409	-213.562	-80.43	-16.07	-30.12	-46.256	-19.992	76.244	0.77805	-0.49945	0.34357	0.16446	30.9	13111	100
2025-3-27 18:44:28.960	WT901BLE68-01(48591DE3C19B)	-0.605	-1.514	0.383	-14.893	21.545	-188.416	-80.38	-17.80	-30.67	-46.256	-19.992	76.244	0.77805	-0.49945	0.34357	0.16446	30.9	13111	100
2025-3-27 18:44:28.960	WT901BLE68-01(48591DE3C19B)	-0.728	-1.514	0.383	-14.893	21.545	-188.416	-80.32	-19.40	-31.21	-46.256	-19.992	76.244	0.77805	-0.49945	0.34357	0.16446	30.9	13111	100
2025-3-27 18:44:28.988	WT901BLE68-01(48591DE3C19B)	-0.728	-1.663	0.401	-14.343	19.287	-166.687	-80.26	-20.89	-31.72	-46.256	-19.992	76.244	0.77805	-0.49945	0.34357	0.16446	30.9	13111	100
2025-3-27 18:44:28.988	WT901BLE68-01(48591DE3C19B)	-0.823	-1.663	0.401	-14.343	19.287	-166.687	-80.19	-22.25	-32.20	-46.256	-19.992	76.244	0.77805	-0.49945	0.34357	0.16446	30.9	13111	100
2025-3-27 18:44:28.989	WT901BLE68-01(48591DE3C19B)	-0.823	-1.721	0.461	-13.855	9.399	-143.616	-80.14	-23.50	-32.61	-46.256	-19.992	76.244	0.77805	-0.49945	0.34357	0.16446	30.9	13111	100
2025-3-27 18:44:28.989	WT901BLE68-01(48591DE3C19B)	-0.839	-1.721	0.461	-13.855	9.399	-143.616	-80.11	-24.63	-32.94	-46.256	-19.992	76.244	0.77805	-0.49945	0.34357	0.16446	30.9	13111	100
2025-3-27 18:44:29.19	WT901BLE68-01(48591DE3C19B)	-0.839	-1.629	0.517	-12.817	-3.174	-119.263	-80.11	-25.65	-33.19	-46.256	-19.992	76.244	0.77805	-0.49945	0.34357	0.16446	30.9	13111	100
2025-3-27 18:44:29.19	WT901BLE68-01(48591DE3C19B)	-0.776	-1.629	0.517	-12.817	-3.174	-119.263	-80.14	-26.55	-33.34	-46.256	-19.992	76.244	0.77805	-0.49945	0.34357	0.16446	30.9	13111	100
2025-3-27 18:44:29.19	WT901BLE68-01(48591DE3C19B)	-0.776	-1.500	0.568	-18.250	-13.672	-86.792	-80.23	-27.28	-33.41	-46.256	-19.992	76.244	0.77805	-0.49945	0.34357	0.16446	30.9	13111	100
2025-3-27 18:44:29.19	WT901BLE68-01(48591DE3C19B)	-0.702	-1.500	0.568	-18.250	-13.672	-86.792	-80.39	-27.87	-33.38	-46.256	-19.992	76.244	0.77805	-0.49945	0.34357	0.16446	30.9	13111	100
2025-3-27 18:44:29.109	WT901BLE68-01(48591DE3C19B)	-0.702	-1.385	0.565	-17.700	-21.118	-47.607	-80.57	-28.26	-33.28	-46.256	-19.992	76.244	0.77805	-0.49945	0.34357	0.16446	30.9	13111	100
2025-3-27 18:44:29.109	WT901BLE68-01(48591DE3C19B)	-0.690	-1.385	0.565	-17.700	-21.118	-47.607	-80.79	-28.47	-33.09	-46.256	-19.992	76.244	0.77805	-0.49945	0.34357	0.16446	30.9	13111	100
2025-3-27 18:44:29.110	WT901BLE68-01(48591DE3C19B)	-0.690	-1.265	0.554	-13.000	-26.855	4.089	-81.02	-28.41	-32.83	-46.256	-19.992	76.244	0.77805	-0.49945	0.34357	0.16446	30.9	13111	100
2025-3-27 18:44:29.110	WT901BLE68-01(48591DE3C19B)	-0.719	-1.265	0.554	-13.000	-26.855	4.089	-81.26	-28.11	-32.49	-46.256	-19.992	76.244	0.77805	-0.49945	0.34357	0.16446	30.9	13111	100
2025-3-27 18:44:29.111	WT901BLE68-01(48591DE3C19B)	-0.719	-1.172	0.490	-6.958	-34.485	55.847	-81.51	-27.31	-31.98	-46.256	-19.992	76.244	0.77805	-0.49945	0.34357	0.16446	30.9	13111	100
2025-3-27 18:44:29.111	WT901BLE68-01(48591DE3C19B)	-0.703	-1.172	0.490	-6.958	-34.485	55.847	-81.75	-26.50	-31.48	-46.256	-19.992	76.244	0.77805	-0.49945	0.34357	0.16446	30.9	13111	100
2025-3-27 18:44:29.111	WT901BLE68-01(48591DE3C19B)	-0.703	-1.056	0.410	1.038	-45.837	104.309	-81.98	-25.24	-30.79	-46.256	-19.992	76.244	0.77805	-0.49945	0.34357	0.16446	30.9	13111	100
2025-3-27 18:44:29.111	WT901BLE68-01(48591DE3C19B)	-0.597	-1.056	0.410	1.038	-45.837	104.309	-82.19	-23.97	-30.10	-46.256	-19.992	76.244	0.67929	-0.66159	0.01947	-0.31683	30.9	13111	100
2025-3-27 18:44:29.169	WT901BLE68-01(48591DE3C19B)	-0.597	-0.926	0.311	8.240	-44.312	146.912	-82.33	-22.29	-29.39	-46.256	-19.992	76.244	0.67929	-0.66159	0.01947	-0.31683	30.9	13111	100
2025-3-27 18:44:29.169	WT901BLE68-01(48591DE3C19B)	-0.453	-0.926	0.311	8.240	-44.312	146.912	-82.44	-20.60	-28.69	-46.256	-19.992	76.244	0.67929	-0.66159	0.01947	-0.31683	30.9	13111	100
2025-3-27 18:44:29.169	WT901BLE68-01(48591DE3C19B)	-0.226	-0.802	0.245	16.296	-28.625	179.138	-82.41	-18.59	-28.11	-46.256	-19.992	76.244	0.67929	-0.66159	0.01947	-0.31683	30.9	13111	100
2025-3-27 18:44:29.169	WT901BLE68-01(48591DE3C19B)	-0.423	-0.401	0.123	16.296	-28.625	179.138	-82.36	-16.60	-27.54	-46.256	-19.992	76.244	0.67929	-0.66159	0.01947	-0.31683	30.9	13111	100
2025-3-27 18:44:29.198	WT901BLE68-01(48591DE3C19B)	-0.423	-0.751	0.225	19.836	-15.076	202.576	-82.23	-14.36	-27.08	-46.256	-19.992	76.244	0.67929	-0.66159	0.01947	-0.31683	30.9	13111	100
2025-3-27 18:44:29.198	WT901BLE68-01(48591DE3C19B)	-0.457	-0.751	0.225	19.836	-15.076	202.576	-82.08	-12.14	-26.62	-46.256	-19.992	76.244	0.67929	-0.66159	0.01947	-0.31683	30.9	13111	100
2025-3-27 18:44:29.198	WT901BLE68-01(48591DE3C19B)	-0.457	-0.816	0.211	21.545	-14.709	216.919	-81.90	-9.78	-26.14	-46.256	-19.992	76.244	0.67929	-0.66159	0.01947	-0.31683	30.9	13111	100
2025-3-27 18:44:29.199	WT901BLE68-01(48591DE3C19B)	-0.494	-0.816	0.211	21.545	-14.709	216.919	-81.71	-7.45	-25.66	-46.256	-19.992	76.244	0.67929	-0.66159	0.01947	-0.31683	30.9	13111	100
2025-3-27 18:44:29.230	WT901BLE68-01(48591DE3C19B)	-0.494	-0.936	0.191	26.917	-27.161	224.304	-81.46	-5.07	-25.04	-46.256	-19.992	76.244	0.67929	-0.66159	0.01947	-0.31683	30.9	13111	100
2025-3-27 18:44:29.230	WT901BLE68-01(48591DE3C19B)	-0.504	-0.936	0.191	26.917	-27.161	224.304	-81.19	-2.71	-24.41	-46.256	-19.992	76.244	0.67929	-0.66159	0.01947	-0.31683	30.9	13111	100
2025-3-27 18:44:29.230	WT901BLE68-01(48591DE3C19B)	-0.504	-1.041	0.166	35.461	-43.030	226.990	-80.83	-0.37	-23.60	-46.256	-19.992	76.244	0.67929	-0.66159	0.01947	-0.31683	30.9	13111	100
2025-3-27 18:44:29.230	WT901BLE68-01(48591DE3C19B)	-0.510	-1.041	0.166	35.461	-43.030	226.990	-80.43	1.95	-22.79	-46.256	-19.992	76.244	0.67929	-0.66159	0.01947	-0.31683	30.9	13111	100
2025-3-27 18:44:29.261	WT901BLE68-01(48591DE3C19B)	-0.510	-1.153	0.174	42.358	-59.265	227.051	-79.93	4.23	-21.81	-46.256	-19.992	76.244	0.67929	-0.66159	0.01947	-0.31683	30.9	13111	100
2025-3-27 18:44:29.261	WT901BLE68-01(48591DE3C19B)	-0.518	-1.153	0.174	42.358	-59.265	227.051	-79.39	6.48	-20.80	-46.256	-19.992	76.244	0.67929	-0.66159	0.01947	-0.31683	30.9	13111	100
2025-3-27 18:44:29.261	WT901BLE68-01(48591DE3C19B)	-0.518	-1.248	0.180	50.415	-74.524	228.027	-78.72	8.68	-19.63	-46.256	-19.992	76.244	0.67929	-0.66159	0.01947	-0.31683	30.9	13111	100
2025-3-27 18:44:29.261	WT901BLE68-01(48591DE3C19B)	-0.475	-1.248	0.180	50.415	-74.524	228.027	-78.01	10.86	-18.42	-46.256	-19.992	76.244	0.67929	-0.66159	0.01947	-0.31683	30.9	13111	100
2025-3-27 18:44:29.319	WT901BLE68-01(48591DE3C19B)	-0.475	-1.269	0.125	56.580	-85.876	227.844	-77.16	12.97	-17.08	-46.256	-19.992	76.244	0.67929	-0.66159	0.01947	-0.31683	30.9	13111	100
2025-3-27 18:44:29.320	WT901BLE68-01(48591DE3C19B)	-0.433	-1.269	0.125	56.580	-85.876	227.844	-76.27	15.06	-15.70	-43.316	-23.618	72.912	0.67929	-0.66159	0.01947	-0.31683	30.9	13111	100
2025-3-27 18:44:29.320	WT901BLE68-01(48591DE3C19B)	-0.433	-1.252	0.076	58.167	-91.858	227.478	-75.28	17.08	-14.22	-43.316	-23.618	72.912	0.67929	-0.66159	0.01947	-0.31683	30.9	13111	100
2025-3-27 18:44:29.320	WT901BLE68-01(48591DE3C19B)	-0.435	-1.252	0.076	58.167	-91.858	227.478	-74.25	19.07	-12.70	-43.316	-23.618	72.912	0.67929	-0.66159	0.01947	-0.31683	30.9	13111	100
2025-3-27 18:44:29.348	WT901BLE68-01(48591DE3C19B)	-0.435	-1.329	0.082	52.917	-103.149	227.051	-73.17	20.98	-11.02	-43.316	-23.618	72.912	0.67929	-0.66159	0.01947	-0.31683	30.9	13111	100
2025-3-27 18:44:29.348	WT901BLE68-01(48591DE3C19B)	-0.438	-1.329	0.082	52.917	-103.149	227.051	-72.03	22.84	-9.29	-43.316	-23.618	72.912	0.67929	-0.66159	0.01947	-0.31683	30.9	13111	100
2025-3-27 18:44:29.348	WT901BLE68-01(48591DE3C19B)	-0.438	-1.495	0.128	51.270	-122.192	223.816	-70.76	24.57	-7.33	-43.316	-23.618	72.912	0.67929	-0.66159	0.01947	-0.31683	30.9	13111	100
2025-3-27 18:44:29.348	WT901BLE68-01(48591DE3C19B)	-0.386	-1.495	0.128	51.270	-122.192	223.816	-69.42	26.24	-5.31	-43.316	-23.618	72.912	0.67929	-0.66159	0.01947	-0.31683	30.9	13111	100
2025-3-27 18:44:29.379	WT901BLE68-01(48591DE3C19B)	-0.386	-1.648	0.188	56.763	-137.024	220.947	-67.88	27.76	-3.09	-43.316	-23.618	72.912	0.67929	-0.66159	0.01947	-0.31683	30.9	13111	100
2025-3-27 18:44:29.379	WT901BLE68-01(48591DE3C19B)	-0.282	-1.648	0.188	56.763	-137.024	220.947	-66.27	29.22	-0.80	-43.316	-23.618	72.912	0.67929	-0.66159	0.01947	-0.31683	30.9	13111	100
2025-3-27 18:44:29.379	WT901BLE68-01(48591DE3C19B)	-0.282	-1.785	0.169	65.247	-132.935	217.529	-64.52	30.60	1.47	-43.316	-23.618	72.912	0.67929	-0.66159	0.01947	-0.31683	30.9	13111	100
2025-3-27 18:44:29.379	WT901BLE68-01(48591DE3C19B)	-0.147	-1.785	0.169	65.247	-132.935	217.529	-62.71	31.90	3.82	-43.316	-23.618	72.912	0.67929	-0.66159	0.01947	-0.31683	30.9	13111	100
2025-3-27 18:44:29.440	WT901BLE68-01(48591DE3C19B)	-0.147	-1.811	0.100	75.317	-103.638	213.867	-60.89	33.22	5.90	-43.316	-23.618	72.912	0.67929	-0.66159	0.01947	-0.31683	30.9	13111	100
2025-3-27 18:44:29.440	WT901BLE68-01(48591DE3C19B)	-0.079	-1.811	0.100	75.317	-103.638	213.867	-59.01	34.48	8.04	-43.316	-23.618	72.912	0.67929	-0.66159	0.01947	-0.31683	30.9	13111	100
2025-3-27 18:44:29.440	WT901BLE68-01(48591DE3C19B)	-0.079	-1.814	0.040	77.454	-57.739	206.665	-57.34	35.85	9.72	-43.316	-23.618	72.912	0.67929	-0.66159	0.01947	-0.31683	30.9	13111	100
2025-3-27 18:44:29.440	WT901BLE68-01(48591DE3C19B)	-0.061	-1.814	0.040	77.454	-57.739	206.665	-55.60	37.16	11.46	-43.316	-23.618	72.912	0.67929	-0.66159	0.01947	-0.31683	30.9	13111	100
2025-3-27 18:44:29.471	WT901BLE68-01(48591DE3C19B)	-0.061	-1.878	0.001	72.327	-13.000	193.787	-54.19	38.58	12.71	-43.316	-23.618	72.912	0.67929	-0.66159	0.01947	-0.31683	30.9	13111	100
2025-3-27 18:44:29.471	WT901BLE68-01(48591DE3C19B)	-0.021	-1.878	0.001	72.327	-13.000	193.787	-52.72	39.96	14.02	-43.316	-23.618	72.912	0.67929	-0.66159	0.01947	-0.31683	30.9	13111	100
2025-3-27 18:44:29.471	WT901BLE68-01(48591DE3C19B)	-0.021	-1.859	-0.039	66.040	26.611	178.223	-51.62	41.42	14.84	-43.316	-23.618	72.912	0.67929	-0.66159	0.01947	-0.31683	30.9	13111	100
2025-3-27 18:44:29.471	WT901BLE68-01(48591DE3C19B)	0.097	-1.859	-0.039	66.040	26.611	178.223	-50.47	42.86	15.70	-43.316	-23.618	72.912	0.67929	-0.66159	0.01947	-0.31683	30.9	13111	100
2025-3-27 18:44:29.501	WT901BLE68-01(48591DE3C19B)	0.097	-1.767	-0.065	55.054	71.655	158.081	-49.84	44.41	15.96	-43.316	-23.618	72.912	0.67929	-0.66159	0.01947	-0.31683	30.9	13111	100
2025-3-27 18:44:29.501	WT901BLE68-01(48591DE3C19B)	0.192	-1.767	-0.065	55.054	71.655	158.081	-49.19	45.95	16.23	-43.316	-23.618	72.912	0.67929	-0.66159	0.01947	-0.31683	30.9	13111	100
2025-3-27 18:44:29.501	WT901BLE68-01(48591DE3C19B)	0.192	-1.631	-0.064	45.044	114.441	135.132	-49.13	47.58	15.83	-43.316	-23.618	72.912	0.80112	-0.42731	0.31100	0.28070	30.9	13111	100
2025-3-27 18:44:29.501	WT901BLE68-01(48591DE3C19B)	0.210	-1.631	-0.064	45.044	114.441	135.132	-49.09	49.20	15.40	-43.316	-23.618	72.912	0.80112	-0.42731	0.31100	0.28070	30.9	13111	100
2025-3-27 18:44:29.559	WT901BLE68-01(48591DE3C19B)	0.102	-1.457	0.007	26.550	122.009	107.727	-49.55	50.65	14.58	-43.316	-23.618	72.912	0.80112	-0.42731	0.31100	0.28070	30.9	13111	100
2025-3-27 18:44:29.559	WT901BLE68-01(48591DE3C19B)	0.102	-1.330	0.088	10.254	110.413	69.336	-50.23	51.90	13.59	-43.316	-23.618	72.912	0.80112	-0.42731	0.31100	0.28070	30.9	13111	100
2025-3-27 18:44:29.559	WT901BLE68-01(48591DE3C19B)	-0.043	-1.330	0.088	10.254	110.413	69.336	-51.14	52.94	12.41	-43.316	-23.618	72.912	0.80112	-0.42731	0.31100	0.28070	30.9	13111	100
2025-3-27 18:44:29.559	WT901BLE68-01(48591DE3C19B)	-0.043	-1.257	0.117	4.822	91.309	20.386	-52.23	53.72	11.06	-43.316	-23.618	72.912	0.80112	-0.42731	0.31100	0.28070	30.9	13111	100
2025-3-27 18:44:29.588	WT901BLE68-01(48591DE3C19B)	-0.005	-1.257	0.117	4.822	91.309	20.386	-53.48	54.22	9.54	-43.316	-23.618	72.912	0.80112	-0.42731	0.31100	0.28070	30.9	13111	100
2025-3-27 18:44:29.588	WT901BLE68-01(48591DE3C19B)	-0.005	-1.104	0.074	5.676	68.848	-32.288	-54.83	54.42	7.89	-43.316	-23.618	72.912	0.80112	-0.42731	0.31100	0.28070	30.9	13111	100
2025-3-27 18:44:29.588	WT901BLE68-01(48591DE3C19B)	0.180	-1.104	0.074	5.676	68.848	-32.288	-56.26	54.32	6.14	-43.316	-23.618	72.912	0.80112	-0.42731	0.31100	0.28070	30.9	13111	100
2025-3-27 18:44:29.588	WT901BLE68-01(48591DE3C19B)	0.180	-0.943	0.039	2.747	59.692	-80.261	-57.81	53.96	4.26	-43.316	-23.618	72.912	0.80112	-0.42731	0.31100	0.28070	30.9	13111	100
2025-3-27 18:44:29.619	WT901BLE68-01(48591DE3C19B)	0.245	-0.943	0.039	2.747	59.692	-80.261	-59.44	53.35	2.27	-43.316	-23.618	72.912	0.80112	-0.42731	0.31100	0.28070	30.9	13111	100
2025-3-27 18:44:29.620	WT901BLE68-01(48591DE3C19B)	0.245	-0.876	0.020	-4.761	64.270	-122.009	-61.20	52.53	0.15	-43.316	-23.618	72.912	0.80112	-0.42731	0.31100	0.28070	30.9	13111	100
2025-3-27 18:44:29.620	WT901BLE68-01(48591DE3C19B)	0.099	-0.876	0.020	-4.761	64.270	-122.009	-63.05	51.49	-2.07	-43.316	-23.618	72.912	0.80112	-0.42731	0.31100	0.28070	30.9	13111	100
2025-3-27 18:44:29.620	WT901BLE68-01(48591DE3C19B)	0.099	-0.900	0.073	-15.747	62.988	-154.846	-64.92	50.27	-4.27	-43.316	-23.618	72.912	0.80112	-0.42731	0.31100	0.28070	30.9	13111	100
2025-3-27 18:44:29.681	WT901BLE68-01(48591DE3C19B)	-0.112	-0.900	0.073	-15.747	62.988	-154.846	-66.79	48.85	-6.44	-43.316	-23.618	72.912	0.80112	-0.42731	0.31100	0.28070	30.9	13111	100
2025-3-27 18:44:29.681	WT901BLE68-01(48591DE3C19B)	-0.112	-0.965	0.157	-24.292	42.786	-182.617	-68.49	47.23	-8.41	-43.316	-23.618	72.912	0.80112	-0.42731	0.31100	0.28070	30.9	13111	100
2025-3-27 18:44:29.681	WT901BLE68-01(48591DE3C19B)	-0.248	-0.965	0.157	-24.292	42.786	-182.617	-70.05	45.42	-10.16	-43.316	-23.618	72.912	0.80112	-0.42731	0.31100	0.28070	30.9	13111	100
2025-3-27 18:44:29.681	WT901BLE68-01(48591DE3C19B)	-0.248	-1.029	0.224	-25.818	16.724	-206.177	-71.39	43.45	-11.67	-43.316	-23.618	72.912	0.80112	-0.42731	0.31100	0.28070	30.9	13111	100
2025-3-27 18:44:29.711	WT901BLE68-01(48591DE3C19B)	-0.223	-1.029	0.224	-25.818	16.724	-206.177	-72.53	41.31	-12.93	-43.316	-23.618	72.912	0.80112	-0.42731	0.31100	0.28070	30.9	13111	100
2025-3-27 18:44:29.711	WT901BLE68-01(48591DE3C19B)	-0.223	-1.012	0.307	-20.752	4.517	-228.638	-73.52	39.05	-14.05	-43.316	-23.618	72.912	0.80112	-0.42731	0.31100	0.28070	30.9	13111	100
2025-3-27 18:44:29.711	WT901BLE68-01(48591DE3C19B)	-0.172	-1.012	0.307	-20.752	4.517	-228.638	-74.36	36.67	-15.05	-43.316	-23.618	72.912	0.80112	-0.42731	0.31100	0.28070	30.9	13111	100
2025-3-27 18:44:29.712	WT901BLE68-01(48591DE3C19B)	-0.172	-0.966	0.291	-27.893	-8.240	-244.324	-75.12	34.20	-15.91	-43.218	-29.792	72.226	0.80112	-0.42731	0.31100	0.28070	30.9	13111	100
2025-3-27 18:44:29.741	WT901BLE68-01(48591DE3C19B)	-0.157	-0.966	0.291	-27.893	-8.240	-244.324	-75.81	31.65	-16.66	-43.218	-29.792	72.226	0.80112	-0.42731	0.31100	0.28070	30.9	13111	100
2025-3-27 18:44:29.741	WT901BLE68-01(48591DE3C19B)	-0.157	-1.013	0.239	-34.424	-12.451	-261.719	-76.47	29.03	-17.35	-43.218	-29.792	72.226	0.80112	-0.42731	0.31100	0.28070	30.9	13111	100
2025-3-27 18:44:29.741	WT901BLE68-01(48591DE3C19B)	-0.188	-1.013	0.239	-34.424	-12.451	-261.719	-77.11	26.32	-17.97	-43.218	-29.792	72.226	0.80112	-0.42731	0.31100	0.28070	30.9	13111	100
2025-3-27 18:44:29.741	WT901BLE68-01(48591DE3C19B)	-0.188	-1.084	0.193	-37.781	-9.521	-278.503	-77.72	23.54	-18.58	-43.218	-29.792	72.226	0.80112	-0.42731	0.31100	0.28070	30.9	13111	100
2025-3-27 18:44:29.799	WT901BLE68-01(48591DE3C19B)	-0.254	-1.084	0.193	-37.781	-9.521	-278.503	-78.32	20.71	-19.18	-43.218	-29.792	72.226	0.80112	-0.42731	0.31100	0.28070	30.9	13111	100
2025-3-27 18:44:29.799	WT901BLE68-01(48591DE3C19B)	-0.254	-1.139	0.195	-39.001	0.549	-292.419	-78.90	17.83	-19.80	-43.218	-29.792	72.226	0.80112	-0.42731	0.31100	0.28070	30.9	13111	100
2025-3-27 18:44:29.799	WT901BLE68-01(48591DE3C19B)	-0.337	-1.139	0.195	-39.001	0.549	-292.419	-79.47	14.90	-20.43	-43.218	-29.792	72.226	0.80112	-0.42731	0.31100	0.28070	30.9	13111	100
2025-3-27 18:44:29.799	WT901BLE68-01(48591DE3C19B)	-0.337	-1.165	0.263	-38.513	10.010	-300.964	-80.00	11.96	-21.08	-43.218	-29.792	72.226	0.80112	-0.42731	0.31100	0.28070	30.9	13111	100
2025-3-27 18:44:29.830	WT901BLE68-01(48591DE3C19B)	-0.379	-1.165	0.263	-38.513	10.010	-300.964	-80.49	9.00	-21.74	-43.218	-29.792	72.226	0.80112	-0.42731	0.31100	0.28070	30.9	13111	100
2025-3-27 18:44:29.830	WT901BLE68-01(48591DE3C19B)	-0.379	-1.163	0.339	-36.987	15.625	-302.856	-80.94	6.06	-22.40	-43.218	-29.792	72.226	0.80112	-0.42731	0.31100	0.28070	30.9	13111	100
2025-3-27 18:44:29.830	WT901BLE68-01(48591DE3C19B)	-0.412	-1.163	0.339	-36.987	15.625	-302.856	-81.35	3.13	-23.05	-43.218	-29.792	72.226	0.80112	-0.42731	0.31100	0.28070	30.9	13111	100
2025-3-27 18:44:29.830	WT901BLE68-01(48591DE3C19B)	-0.412	-1.140	0.382	-31.067	19.836	-296.082	-81.68	0.25	-23.69	-43.218	-29.792	72.226	0.80112	-0.42731	0.31100	0.28070	30.9	13111	100
2025-3-27 18:44:29.858	WT901BLE68-01(48591DE3C19B)	-0.492	-1.140	0.382	-31.067	19.836	-296.082	-81.95	-2.57	-24.33	-43.218	-29.792	72.226	0.80112	-0.42731	0.31100	0.28070	30.9	13111	100
2025-3-27 18:44:29.858	WT901BLE68-01(48591DE3C19B)	-0.492	-1.088	0.387	-23.743	15.503	-282.837	-82.16	-5.31	-24.92	-43.218	-29.792	72.226	0.80112	-0.42731	0.31100	0.28070	30.9	13111	100
2025-3-27 18:44:29.859	WT901BLE68-01(48591DE3C19B)	-0.528	-1.088	0.387	-23.743	15.503	-282.837	-82.29	-7.97	-25.48	-43.218	-29.792	72.226	0.80112	-0.42731	0.31100	0.28070	30.9	13111	100
2025-3-27 18:44:29.859	WT901BLE68-01(48591DE3C19B)	-0.528	-1.035	0.367	-19.775	-1.953	-266.235	-82.40	-10.53	-25.92	-43.218	-29.792	72.226	0.80112	-0.42731	0.31100	0.28070	30.9	13111	100
2025-3-27 18:44:29.919	WT901BLE68-01(48591DE3C19B)	-0.505	-1.035	0.367	-19.775	-1.953	-266.235	-82.49	-13.00	-26.26	-43.218	-29.792	72.226	0.80112	-0.42731	0.31100	0.28070	30.9	13111	100
2025-3-27 18:44:29.920	WT901BLE68-01(48591DE3C19B)	-0.505	-1.035	0.421	-17.212	-20.020	-246.094	-82.57	-15.37	-26.50	-43.218	-29.792	72.226	0.80112	-0.42731	0.31100	0.28070	30.9	13111	100
2025-3-27 18:44:29.920	WT901BLE68-01(48591DE3C19B)	-0.502	-1.035	0.421	-17.212	-20.020	-246.094	-82.66	-17.63	-26.62	-43.218	-29.792	72.226	0.80112	-0.42731	0.31100	0.28070	30.9	13111	100
2025-3-27 18:44:29.920	WT901BLE68-01(48591DE3C19B)	-0.502	-1.131	0.469	-17.395	-24.597	-221.130	-82.75	-19.75	-26.70	-43.218	-29.792	72.226	0.80112	-0.42731	0.31100	0.28070	30.9	13111	100
2025-3-27 18:44:29.948	WT901BLE68-01(48591DE3C19B)	-0.494	-1.131	0.469	-17.395	-24.597	-221.130	-82.86	-21.74	-26.74	-43.218	-29.792	72.226	0.68744	-0.66489	0.01263	-0.29166	30.9	13111	100
2025-3-27 18:44:29.948	WT901BLE68-01(48591DE3C19B)	-0.494	-1.271	0.480	-16.174	-12.390	-194.336	-82.94	-23.58	-26.82	-43.218	-29.792	72.226	0.68744	-0.66489	0.01263	-0.29166	30.9	13111	100
2025-3-27 18:44:29.948	WT901BLE68-01(48591DE3C19B)	-0.512	-1.271	0.480	-16.174	-12.390	-194.336	-82.98	-25.26	-26.94	-43.218	-29.792	72.226	0.68744	-0.66489	0.01263	-0.29166	30.9	13111	100
2025-3-27 18:44:29.948	WT901BLE68-01(48591DE3C19B)	-0.512	-1.411	0.466	-14.587	10.010	-166.382	-82.97	-26.78	-27.18	-43.218	-29.792	72.226	0.68744	-0.66489	0.01263	-0.29166	30.9	13111	100
2025-3-27 18:44:29.979	WT901BLE68-01(48591DE3C19B)	-0.620	-1.411	0.466	-14.587	10.010	-166.382	-82.89	-28.15	-27.53	-43.218	-29.792	72.226	0.68744	-0.66489	0.01263	-0.29166	30.9	13111	100
2025-3-27 18:44:29.979	WT901BLE68-01(48591DE3C19B)	-0.620	-1.509	0.487	-9.277	29.358	-136.597	-82.73	-29.34	-27.97	-43.218	-29.792	72.226	0.68744	-0.66489	0.01263	-0.29166	30.9	13111	100
2025-3-27 18:44:29.979	WT901BLE68-01(48591DE3C19B)	-0.749	-1.509	0.487	-9.277	29.358	-136.597	-82.50	-30.37	-28.50	-43.218	-29.792	72.226	0.68744	-0.66489	0.01263	-0.29166	30.9	13111	100
2025-3-27 18:44:29.979	WT901BLE68-01(48591DE3C19B)	-0.749	-1.507	0.529	-5.798	33.142	-103.638	-82.22	-31.06	-29.04	-43.218	-29.792	72.226	0.68744	-0.66489	0.01263	-0.29166	30.9	13111	100
2025-3-27 18:44:30.39	WT901BLE68-01(48591DE3C19B)	-0.761	-1.507	0.529	-5.798	33.142	-103.638	-81.94	-31.73	-29.58	-43.218	-29.792	72.226	0.68744	-0.66489	0.01263	-0.29166	30.9	13111	100
2025-3-27 18:44:30.40	WT901BLE68-01(48591DE3C19B)	-0.761	-1.448	0.539	-6.775	30.701	-65.552	-81.71	-32.03	-30.03	-43.218	-29.792	72.226	0.68744	-0.66489	0.01263	-0.29166	30.9	13111	100
2025-3-27 18:44:30.40	WT901BLE68-01(48591DE3C19B)	-0.714	-1.448	0.539	-6.775	30.701	-65.552	-81.47	-32.32	-30.48	-43.218	-29.792	72.226	0.68744	-0.66489	0.01263	-0.29166	30.9	13111	100
2025-3-27 18:44:30.40	WT901BLE68-01(48591DE3C19B)	-0.714	-1.334	0.538	-7.507	31.067	-21.118	-81.29	-32.16	-30.85	-43.218	-29.792	72.226	0.68744	-0.66489	0.01263	-0.29166	30.9	13111	100
2025-3-27 18:44:30.99	WT901BLE68-01(48591DE3C19B)	-0.684	-1.334	0.538	-7.507	31.067	-21.118	-81.11	-32.00	-31.22	-43.218	-29.792	72.226	0.68744	-0.66489	0.01263	-0.29166	30.9	13111	100
2025-3-27 18:44:30.99	WT901BLE68-01(48591DE3C19B)	-0.684	-1.169	0.546	-9.094	23.621	24.292	-81.03	-31.40	-31.42	-43.218	-29.792	72.226	0.68744	-0.66489	0.01263	-0.29166	30.9	13111	100
2025-3-27 18:44:30.99	WT901BLE68-01(48591DE3C19B)	-0.647	-1.169	0.546	-9.094	23.621	24.292	-80.96	-30.81	-31.62	-43.218	-29.792	72.226	0.68744	-0.66489	0.01263	-0.29166	30.9	13111	100
2025-3-27 18:44:30.99	WT901BLE68-01(48591DE3C19B)	-0.647	-1.090	0.542	-14.221	-2.319	67.078	-81.12	-29.83	-31.44	-43.218	-29.792	72.226	0.68744	-0.66489	0.01263	-0.29166	30.9	13111	100
2025-3-27 18:44:30.130	WT901BLE68-01(48591DE3C19B)	-0.611	-1.090	0.542	-14.221	-2.319	67.078	-81.28	-28.86	-31.26	-43.218	-29.792	72.226	0.68744	-0.66489	0.01263	-0.29166	30.9	13111	100
2025-3-27 18:44:30.130	WT901BLE68-01(48591DE3C19B)	-0.611	-1.050	0.497	-11.230	-31.372	106.995	-81.59	-27.54	-30.70	-43.218	-29.792	72.226	0.68744	-0.66489	0.01263	-0.29166	30.9	13111	100
2025-3-27 18:44:30.130	WT901BLE68-01(48591DE3C19B)	-0.607	-1.050	0.497	-11.230	-31.372	106.995	-81.88	-26.22	-30.15	-48.608	-20.776	78.008	0.68744	-0.66489	0.01263	-0.29166	30.9	13111	100
2025-3-27 18:44:30.130	WT901BLE68-01(48591DE3C19B)	-0.607	-0.929	0.431	-2.075	-58.411	143.250	-82.20	-24.58	-29.27	-48.608	-20.776	78.008	0.68744	-0.66489	0.01263	-0.29166	30.9	13111	100
2025-3-27 18:44:30.161	WT901BLE68-01(48591DE3C19B)	-0.581	-0.929	0.431	-2.075	-58.411	143.250	-82.49	-22.95	-28.40	-48.608	-20.776	78.008	0.68744	-0.66489	0.01263	-0.29166	30.9	13111	100
2025-3-27 18:44:30.161	WT901BLE68-01(48591DE3C19B)	-0.581	-0.947	0.350	0.610	-84.778	176.331	-82.84	-21.03	-27.24	-48.608	-20.776	78.008	0.68744	-0.66489	0.01263	-0.29166	30.9	13111	100
2025-3-27 18:44:30.161	WT901BLE68-01(48591DE3C19B)	-0.490	-0.947	0.350	0.610	-84.778	176.331	-83.14	-19.11	-26.09	-48.608	-20.776	78.008	0.68744	-0.66489	0.01263	-0.29166	30.9	13111	100
2025-3-27 18:44:30.161	WT901BLE68-01(48591DE3C19B)	-0.490	-1.178	0.258	9.033	-97.656	201.477	-83.38	-16.96	-24.81	-48.608	-20.776	78.008	0.68744	-0.66489	0.01263	-0.29166	30.9	13111	100
2025-3-27 18:44:30.219	WT901BLE68-01(48591DE3C19B)	-0.400	-1.178	0.258	9.033	-97.656	201.477	-83.55	-14.83	-23.56	-48.608	-20.776	78.008	0.68744	-0.66489	0.01263	-0.29166	30.9	13111	100
2025-3-27 18:44:30.220	WT901BLE68-01(48591DE3C19B)	-0.400	-1.400	0.185	28.259	-97.717	220.581	-83.50	-12.51	-22.31	-48.608	-20.776	78.008	0.68744	-0.66489	0.01263	-0.29166	30.9	13111	100
2025-3-27 18:44:30.220	WT901BLE68-01(48591DE3C19B)	-0.297	-1.400	0.185	28.259	-97.717	220.581	-83.40	-10.23	-21.07	-48.608	-20.776	78.008	0.68744	-0.66489	0.01263	-0.29166	30.9	13111	100
2025-3-27 18:44:30.220	WT901BLE68-01(48591DE3C19B)	-0.297	-1.534	0.174	50.659	-90.088	235.107	-83.02	-7.81	-19.90	-48.608	-20.776	78.008	0.68744	-0.66489	0.01263	-0.29166	30.9	13111	100
2025-3-27 18:44:30.248	WT901BLE68-01(48591DE3C19B)	-0.202	-1.534	0.174	50.659	-90.088	235.107	-82.60	-5.43	-18.73	-48.608	-20.776	78.008	0.68744	-0.66489	0.01263	-0.29166	30.9	13111	100
2025-3-27 18:44:30.248	WT901BLE68-01(48591DE3C19B)	-0.202	-1.622	0.146	70.557	-72.144	240.234	-81.93	-3.00	-17.72	-48.608	-20.776	78.008	0.68744	-0.66489	0.01263	-0.29166	30.9	13111	100
2025-3-27 18:44:30.248	WT901BLE68-01(48591DE3C19B)	-0.138	-1.622	0.146	70.557	-72.144	240.234	-81.22	-0.62	-16.69	-48.608	-20.776	78.008	0.68744	-0.66489	0.01263	-0.29166	30.9	13111	100
2025-3-27 18:44:30.248	WT901BLE68-01(48591DE3C19B)	-0.138	-1.587	0.139	88.989	-41.138	242.798	-80.30	1.80	-15.95	-48.608	-20.776	78.008	0.68744	-0.66489	0.01263	-0.29166	30.9	13111	100
2025-3-27 18:44:30.281	WT901BLE68-01(48591DE3C19B)	-0.142	-1.587	0.139	88.989	-41.138	242.798	-79.35	4.19	-15.17	-48.608	-20.776	78.008	0.68744	-0.66489	0.01263	-0.29166	30.9	13111	100
2025-3-27 18:44:30.281	WT901BLE68-01(48591DE3C19B)	-0.142	-1.495	0.158	95.337	-7.202	244.629	-78.35	6.63	-14.68	-48.608	-20.776	78.008	0.68744	-0.66489	0.01263	-0.29166	30.9	13111	100
2025-3-27 18:44:30.282	WT901BLE68-01(48591DE3C19B)	-0.166	-1.495	0.158	95.337	-7.202	244.629	-77.32	9.04	-14.16	-48.608	-20.776	78.008	0.68744	-0.66489	0.01263	-0.29166	30.9	13111	100
2025-3-27 18:44:30.282	WT901BLE68-01(48591DE3C19B)	-0.166	-1.407	0.165	95.520	23.682	246.155	-76.33	11.51	-13.90	-48.608	-20.776	78.008	0.68744	-0.66489	0.01263	-0.29166	30.9	13111	100
2025-3-27 18:44:30.311	WT901BLE68-01(48591DE3C19B)	-0.179	-1.407	0.165	95.520	23.682	246.155	-75.32	13.95	-13.59	-48.608	-20.776	78.008	0.68744	-0.66489	0.01263	-0.29166	30.9	13111	100
2025-3-27 18:44:30.311	WT901BLE68-01(48591DE3C19B)	-0.179	-1.250	0.165	90.515	54.871	249.329	-74.42	16.48	-13.55	-48.608	-20.776	78.008	0.68744	-0.66489	0.01263	-0.29166	30.9	13111	100
2025-3-27 18:44:30.311	WT901BLE68-01(48591DE3C19B)	-0.205	-1.250	0.165	90.515	54.871	249.329	-73.50	19.00	-13.47	-48.608	-20.776	78.008	0.79721	-0.56592	0.20969	0.01099	30.9	13111	100
2025-3-27 18:44:30.312	WT901BLE68-01(48591DE3C19B)	-0.205	-1.225	0.163	74.585	82.275	250.549	-72.84	21.58	-13.63	-48.608	-20.776	78.008	0.79721	-0.56592	0.20969	0.01099	30.9	13111	100
2025-3-27 18:44:30.369	WT901BLE68-01(48591DE3C19B)	-0.244	-1.225	0.163	74.585	82.275	250.549	-72.17	24.15	-13.75	-48.608	-20.776	78.008	0.79721	-0.56592	0.20969	0.01099	30.9	13111	100
2025-3-27 18:44:30.369	WT901BLE68-01(48591DE3C19B)	-0.244	-1.249	0.123	61.279	100.220	252.380	-71.71	26.78	-14.05	-48.608	-20.776	78.008	0.79721	-0.56592	0.20969	0.01099	30.9	13111	100
2025-3-27 18:44:30.369	WT901BLE68-01(48591DE3C19B)	-0.272	-1.249	0.123	61.279	100.220	252.380	-71.26	29.40	-14.32	-48.608	-20.776	78.008	0.79721	-0.56592	0.20969	0.01099	30.9	13111	100
2025-3-27 18:44:30.369	WT901BLE68-01(48591DE3C19B)	-0.272	-1.266	0.123	44.067	101.746	251.892	-70.99	32.00	-14.60	-48.608	-20.776	78.008	0.79721	-0.56592	0.20969	0.01099	30.9	13111	100
2025-3-27 18:44:30.398	WT901BLE68-01(48591DE3C19B)	-0.292	-1.266	0.123	44.067	101.746	251.892	-70.74	34.58	-14.88	-48.608	-20.776	78.008	0.79721	-0.56592	0.20969	0.01099	30.9	13111	100
2025-3-27 18:44:30.399	WT901BLE68-01(48591DE3C19B)	-0.292	-1.407	0.102	24.292	88.989	247.986	-70.61	37.08	-15.02	-48.608	-20.776	78.008	0.79721	-0.56592	0.20969	0.01099	30.9	13111	100
2025-3-27 18:44:30.399	WT901BLE68-01(48591DE3C19B)	-0.304	-1.407	0.102	24.292	88.989	247.986	-70.49	39.57	-15.16	-48.608	-20.776	78.008	0.79721	-0.56592	0.20969	0.01099	30.9	13111	100
2025-3-27 18:44:30.399	WT901BLE68-01(48591DE3C19B)	-0.304	-1.525	0.053	13.672	69.397	245.361	-70.33	41.94	-15.07	-48.608	-20.776	78.008	0.79721	-0.56592	0.20969	0.01099	30.9	13111	100
2025-3-27 18:44:30.430	WT901BLE68-01(48591DE3C19B)	-0.260	-1.525	0.053	13.672	69.397	245.361	-70.16	44.31	-14.97	-48.608	-20.776	78.008	0.79721	-0.56592	0.20969	0.01099	30.9	13111	100
2025-3-27 18:44:30.430	WT901BLE68-01(48591DE3C19B)	-0.260	-1.672	-0.011	1.465	44.250	236.511	-69.90	46.49	-14.58	-48.608	-20.776	78.008	0.79721	-0.56592	0.20969	0.01099	30.9	13111	100
2025-3-27 18:44:30.430	WT901BLE68-01(48591DE3C19B)	-0.158	-1.672	-0.011	1.465	44.250	236.511	-69.61	48.66	-14.15	-48.608	-20.776	78.008	0.79721	-0.56592	0.20969	0.01099	30.9	13111	100
2025-3-27 18:44:30.430	WT901BLE68-01(48591DE3C19B)	-0.021	-1.807	-0.071	-6.409	21.301	221.191	-69.18	50.59	-13.45	-48.608	-20.776	78.008	0.79721	-0.56592	0.20969	0.01099	30.9	13111	100
2025-3-27 18:44:30.497	WT901BLE68-01(48591DE3C19B)	-0.021	-1.888	-0.100	-12.207	-0.427	197.510	-68.66	52.36	-12.62	-48.608	-20.776	78.008	0.79721	-0.56592	0.20969	0.01099	30.9	13111	100
2025-3-27 18:44:30.497	WT901BLE68-01(48591DE3C19B)	0.208	-1.888	-0.100	-12.207	-0.427	197.510	-68.04	53.95	-11.65	-48.608	-20.776	78.008	0.79721	-0.56592	0.20969	0.01099	30.9	13111	100
2025-3-27 18:44:30.498	WT901BLE68-01(48591DE3C19B)	0.208	-1.902	-0.072	-6.897	-23.132	161.194	-67.29	55.32	-10.56	-48.608	-20.776	78.008	0.79721	-0.56592	0.20969	0.01099	30.9	13111	100
2025-3-27 18:44:30.498	WT901BLE68-01(48591DE3C19B)	0.407	-1.902	-0.072	-6.897	-23.132	161.194	-66.42	56.45	-9.37	-48.608	-20.776	78.008	0.79721	-0.56592	0.20969	0.01099	30.9	13111	100
2025-3-27 18:44:30.522	WT901BLE68-01(48591DE3C19B)	0.407	-1.804	0.057	5.310	-31.738	117.981	-65.50	57.34	-8.21	-48.608	-20.776	78.008	0.79721	-0.56592	0.20969	0.01099	30.9	13111	100
2025-3-27 18:44:30.522	WT901BLE68-01(48591DE3C19B)	0.378	-1.804	0.057	5.310	-31.738	117.981	-64.57	58.00	-7.13	-48.608	-20.776	78.008	0.79721	-0.56592	0.20969	0.01099	30.9	13111	100
2025-3-27 18:44:30.522	WT901BLE68-01(48591DE3C19B)	0.378	-1.514	0.203	-1.221	-40.222	63.904	-63.78	58.39	-6.17	-48.608	-20.776	78.008	0.79721	-0.56592	0.20969	0.01099	30.9	13111	100
2025-3-27 18:44:30.522	WT901BLE68-01(48591DE3C19B)	0.449	-1.514	0.203	-1.221	-40.222	63.904	-63.14	58.49	-5.38	-52.136	-33.712	71.736	0.79721	-0.56592	0.20969	0.01099	30.9	13111	100
2025-3-27 18:44:30.551	WT901BLE68-01(48591DE3C19B)	0.449	-1.339	0.193	0.671	-21.484	3.540	-62.87	58.36	-5.00	-52.136	-33.712	71.736	0.79721	-0.56592	0.20969	0.01099	30.9	13111	100
2025-3-27 18:44:30.551	WT901BLE68-01(48591DE3C19B)	0.433	-1.339	0.193	0.671	-21.484	3.540	-62.94	58.00	-5.06	-52.136	-33.712	71.736	0.79721	-0.56592	0.20969	0.01099	30.9	13111	100
2025-3-27 18:44:30.551	WT901BLE68-01(48591DE3C19B)	0.433	-1.088	0.182	3.357	34.241	-47.180	-63.58	57.54	-5.81	-52.136	-33.712	71.736	0.79721	-0.56592	0.20969	0.01099	30.9	13111	100
2025-3-27 18:44:30.551	WT901BLE68-01(48591DE3C19B)	0.322	-1.088	0.182	3.357	34.241	-47.180	-64.74	56.95	-7.20	-52.136	-33.712	71.736	0.79721	-0.56592	0.20969	0.01099	30.9	13111	100
2025-3-27 18:44:30.609	WT901BLE68-01(48591DE3C19B)	0.322	-0.945	0.167	0.244	84.900	-93.689	-66.35	56.24	-9.12	-52.136	-33.712	71.736	0.79721	-0.56592	0.20969	0.01099	30.9	13111	100
2025-3-27 18:44:30.609	WT901BLE68-01(48591DE3C19B)	0.199	-0.945	0.167	0.244	84.900	-93.689	-68.36	55.39	-11.54	-52.136	-33.712	71.736	0.79721	-0.56592	0.20969	0.01099	30.9	13111	100
2025-3-27 18:44:30.609	WT901BLE68-01(48591DE3C19B)	0.199	-0.936	0.175	-2.502	98.572	-136.719	-70.46	54.31	-14.07	-52.136	-33.712	71.736	0.79721	-0.56592	0.20969	0.01099	30.9	13111	100
2025-3-27 18:44:30.609	WT901BLE68-01(48591DE3C19B)	0.016	-0.936	0.175	-2.502	98.572	-136.719	-72.59	52.99	-16.68	-52.136	-33.712	71.736	0.79721	-0.56592	0.20969	0.01099	30.9	13111	100
2025-3-27 18:44:30.638	WT901BLE68-01(48591DE3C19B)	0.016	-0.965	0.204	-2.869	83.191	-175.354	-74.52	51.43	-19.08	-52.136	-33.712	71.736	0.79721	-0.56592	0.20969	0.01099	30.9	13111	100
2025-3-27 18:44:30.638	WT901BLE68-01(48591DE3C19B)	-0.151	-0.965	0.204	-2.869	83.191	-175.354	-76.23	49.62	-21.26	-52.136	-33.712	71.736	0.79721	-0.56592	0.20969	0.01099	30.9	13111	100
2025-3-27 18:44:30.638	WT901BLE68-01(48591DE3C19B)	-0.151	-1.056	0.221	-0.427	51.086	-210.388	-77.62	47.58	-23.09	-52.136	-33.712	71.736	0.79721	-0.56592	0.20969	0.01099	30.9	13111	100
2025-3-27 18:44:30.639	WT901BLE68-01(48591DE3C19B)	-0.269	-1.056	0.221	-0.427	51.086	-210.388	-78.71	45.34	-24.60	-52.136	-33.712	71.736	0.79721	-0.56592	0.20969	0.01099	30.9	13111	100
2025-3-27 18:44:30.669	WT901BLE68-01(48591DE3C19B)	-0.269	-1.171	0.263	7.141	13.489	-237.305	-79.48	42.92	-25.76	-52.136	-33.712	71.736	0.79721	-0.56592	0.20969	0.01099	30.9	13111	100
2025-3-27 18:44:30.670	WT901BLE68-01(48591DE3C19B)	-0.321	-1.171	0.263	7.141	13.489	-237.305	-79.95	40.35	-26.62	-52.136	-33.712	71.736	0.79721	-0.56592	0.20969	0.01099	30.9	13111	100
2025-3-27 18:44:30.670	WT901BLE68-01(48591DE3C19B)	-0.321	-1.164	0.270	5.127	-34.546	-261.597	-80.21	37.64	-27.14	-52.136	-33.712	71.736	0.79721	-0.56592	0.20969	0.01099	30.9	13111	100
2025-3-27 18:44:30.670	WT901BLE68-01(48591DE3C19B)	-0.280	-1.164	0.270	5.127	-34.546	-261.597	-80.26	34.80	-27.35	-52.136	-33.712	71.736	0.79721	-0.56592	0.20969	0.01099	30.9	13111	100
2025-3-27 18:44:30.730	WT901BLE68-01(48591DE3C19B)	-0.280	-1.170	0.254	-4.700	-69.092	-283.386	-80.26	31.84	-27.37	-52.136	-33.712	71.736	0.79721	-0.56592	0.20969	0.01099	30.9	13111	100
2025-3-27 18:44:30.730	WT901BLE68-01(48591DE3C19B)	-0.214	-1.170	0.254	-4.700	-69.092	-283.386	-80.21	28.78	-27.21	-52.136	-33.712	71.736	0.79721	-0.56592	0.20969	0.01099	30.9	13111	100
2025-3-27 18:44:30.730	WT901BLE68-01(48591DE3C19B)	-0.214	-1.198	0.231	-13.367	-78.186	-299.133	-80.19	25.65	-27.02	-52.136	-33.712	71.736	0.79721	-0.56592	0.20969	0.01099	30.9	13111	100
2025-3-27 18:44:30.730	WT901BLE68-01(48591DE3C19B)	-0.175	-1.198	0.231	-13.367	-78.186	-299.133	-80.22	22.46	-26.80	-52.136	-33.712	71.736	0.79721	-0.56592	0.20969	0.01099	30.9	13111	100
2025-3-27 18:44:30.761	WT901BLE68-01(48591DE3C19B)	-0.175	-1.204	0.225	-20.752	-69.336	-311.401	-80.31	19.23	-26.64	-52.136	-33.712	71.736	0.75729	-0.59384	0.26035	-0.07739	30.9	13111	100
2025-3-27 18:44:30.761	WT901BLE68-01(48591DE3C19B)	-0.150	-1.204	0.225	-20.752	-69.336	-311.401	-80.47	15.97	-26.52	-52.136	-33.712	71.736	0.75729	-0.59384	0.26035	-0.07739	30.9	13111	100
2025-3-27 18:44:30.761	WT901BLE68-01(48591DE3C19B)	-0.150	-1.189	0.254	-27.283	-47.302	-321.533	-80.69	12.71	-26.52	-52.136	-33.712	71.736	0.75729	-0.59384	0.26035	-0.07739	30.9	13111	100
2025-3-27 18:44:30.761	WT901BLE68-01(48591DE3C19B)	-0.162	-1.189	0.254	-27.283	-47.302	-321.533	-80.97	9.43	-26.61	-52.136	-33.712	71.736	0.75729	-0.59384	0.26035	-0.07739	30.9	13111	100
2025-3-27 18:44:30.798	WT901BLE68-01(48591DE3C19B)	-0.162	-1.209	0.314	-30.884	-17.944	-328.064	-81.27	6.16	-26.85	-52.136	-33.712	71.736	0.75729	-0.59384	0.26035	-0.07739	30.9	13111	100
2025-3-27 18:44:30.799	WT901BLE68-01(48591DE3C19B)	-0.237	-1.209	0.314	-30.884	-17.944	-328.064	-81.59	2.91	-27.20	-52.136	-33.712	71.736	0.75729	-0.59384	0.26035	-0.07739	30.9	13111	100
2025-3-27 18:44:30.799	WT901BLE68-01(48591DE3C19B)	-0.237	-1.274	0.375	-28.992	10.010	-329.041	-81.88	-0.31	-27.67	-52.136	-33.712	71.736	0.75729	-0.59384	0.26035	-0.07739	30.9	13111	100
2025-3-27 18:44:30.799	WT901BLE68-01(48591DE3C19B)	-0.395	-1.274	0.375	-28.992	10.010	-329.041	-82.12	-3.50	-28.27	-52.136	-33.712	71.736	0.75729	-0.59384	0.26035	-0.07739	30.9	13111	100
2025-3-27 18:44:30.849	WT901BLE68-01(48591DE3C19B)	-0.395	-1.366	0.403	-20.935	26.184	-322.327	-82.28	-6.63	-28.92	-52.136	-33.712	71.736	0.75729	-0.59384	0.26035	-0.07739	30.9	13111	100
2025-3-27 18:44:30.850	WT901BLE68-01(48591DE3C19B)	-0.588	-1.366	0.403	-20.935	26.184	-322.327	-82.36	-9.69	-29.64	-52.136	-33.712	71.736	0.75729	-0.59384	0.26035	-0.07739	30.9	13111	100
2025-3-27 18:44:30.850	WT901BLE68-01(48591DE3C19B)	-0.588	-1.424	0.404	-8.118	26.611	-305.298	-82.33	-12.64	-30.36	-52.136	-33.712	71.736	0.75729	-0.59384	0.26035	-0.07739	30.9	13111	100
2025-3-27 18:44:30.850	WT901BLE68-01(48591DE3C19B)	-0.655	-1.424	0.404	-8.118	26.611	-305.298	-82.21	-15.48	-31.06	-52.136	-33.712	71.736	0.75729	-0.59384	0.26035	-0.07739	30.9	13111	100
2025-3-27 18:44:30.881	WT901BLE68-01(48591DE3C19B)	-0.655	-1.402	0.343	-1.099	20.264	-281.006	-82.03	-18.18	-31.72	-52.136	-33.712	71.736	0.75729	-0.59384	0.26035	-0.07739	30.9	13111	100
2025-3-27 18:44:30.881	WT901BLE68-01(48591DE3C19B)	-0.567	-1.402	0.343	-1.099	20.264	-281.006	-81.80	-20.73	-32.34	-52.136	-33.712	71.736	0.75729	-0.59384	0.26035	-0.07739	30.9	13111	100
2025-3-27 18:44:30.881	WT901BLE68-01(48591DE3C19B)	-0.567	-1.365	0.223	0.916	23.926	-248.657	-81.53	-23.10	-32.98	-52.136	-33.712	71.736	0.75729	-0.59384	0.26035	-0.07739	30.9	13111	100
2025-3-27 18:44:30.881	WT901BLE68-01(48591DE3C19B)	-0.523	-1.365	0.223	0.916	23.926	-248.657	-81.23	-25.29	-33.61	-52.136	-33.712	71.736	0.75729	-0.59384	0.26035	-0.07739	30.9	13111	100
2025-3-27 18:44:30.911	WT901BLE68-01(48591DE3C19B)	-0.523	-1.315	0.169	-1.404	29.419	-212.036	-80.92	-27.26	-34.27	-52.136	-33.712	71.736	0.75729	-0.59384	0.26035	-0.07739	30.9	13111	100
2025-3-27 18:44:30.911	WT901BLE68-01(48591DE3C19B)	-0.521	-1.315	0.169	-1.404	29.419	-212.036	-80.60	-29.05	-34.94	-52.136	-33.712	71.736	0.75729	-0.59384	0.26035	-0.07739	30.9	13111	100
2025-3-27 18:44:30.911	WT901BLE68-01(48591DE3C19B)	-0.521	-1.350	0.210	-8.545	23.804	-173.401	-80.32	-30.62	-35.55	-48.902	-29.694	75.656	0.75729	-0.59384	0.26035	-0.07739	30.9	13111	100
2025-3-27 18:44:30.911	WT901BLE68-01(48591DE3C19B)	-0.489	-1.350	0.210	-8.545	23.804	-173.401	-80.10	-32.01	-36.11	-48.902	-29.694	75.656	0.75729	-0.59384	0.26035	-0.07739	30.9	13111	100
2025-3-27 18:44:30.969	WT901BLE68-01(48591DE3C19B)	-0.489	-1.456	0.292	-17.029	19.836	-133.423	-80.02	-32.99	-36.55	-48.902	-29.694	75.656	0.75729	-0.59384	0.26035	-0.07739	30.9	13111	100
2025-3-27 18:44:30.969	WT901BLE68-01(48591DE3C19B)	-0.485	-1.456	0.292	-17.029	19.836	-133.423	-79.93	-33.98	-36.99	-48.902	-29.694	75.656	0.75729	-0.59384	0.26035	-0.07739	30.9	13111	100
2025-3-27 18:44:30.969	WT901BLE68-01(48591DE3C19B)	-0.485	-1.504	0.360	-18.066	33.569	-91.309	-79.80	-34.51	-37.50	-48.902	-29.694	75.656	0.75729	-0.59384	0.26035	-0.07739	30.9	13111	100
2025-3-27 18:44:30.969	WT901BLE68-01(48591DE3C19B)	-0.544	-1.504	0.360	-18.066	33.569	-91.309	-79.67	-35.05	-38.02	-48.902	-29.694	75.656	0.75729	-0.59384	0.26035	-0.07739	30.9	13111	100
2025-3-27 18:44:30.998	WT901BLE68-01(48591DE3C19B)	-0.544	-1.424	0.385	-18.372	57.007	-47.913	-79.43	-35.11	-38.73	-48.902	-29.694	75.656	0.75729	-0.59384	0.26035	-0.07739	30.9	13111	100
2025-3-27 18:44:30.998	WT901BLE68-01(48591DE3C19B)	-0.599	-1.424	0.385	-18.372	57.007	-47.913	-79.18	-35.17	-39.43	-48.902	-29.694	75.656	0.75729	-0.59384	0.26035	-0.07739	30.9	13111	100
2025-3-27 18:44:30.998	WT901BLE68-01(48591DE3C19B)	-0.599	-1.322	0.411	-20.630	77.515	-10.010	-78.88	-34.80	-40.29	-48.902	-29.694	75.656	0.75729	-0.59384	0.26035	-0.07739	30.9	13111	100
2025-3-27 18:44:30.998	WT901BLE68-01(48591DE3C19B)	-0.664	-1.322	0.411	-20.630	77.515	-10.010	-78.58	-34.44	-41.13	-48.902	-29.694	75.656	0.75729	-0.59384	0.26035	-0.07739	30.9	13111	100
2025-3-27 18:44:31.30	WT901BLE68-01(48591DE3C19B)	-0.664	-1.205	0.447	-20.447	82.886	22.400	-78.30	-33.75	-41.95	-48.902	-29.694	75.656	0.75729	-0.59384	0.26035	-0.07739	30.9	13111	100
2025-3-27 18:44:31.30	WT901BLE68-01(48591DE3C19B)	-0.738	-1.205	0.447	-20.447	82.886	22.400	-78.04	-33.05	-42.74	-48.902	-29.694	75.656	0.75729	-0.59384	0.26035	-0.07739	30.9	13111	100
2025-3-27 18:44:31.30	WT901BLE68-01(48591DE3C19B)	-0.738	-0.991	0.449	-18.005	64.209	52.185	-77.93	-32.10	-43.24	-48.902	-29.694	75.656	0.75729	-0.59384	0.26035	-0.07739	30.9	13111	100
2025-3-27 18:44:31.30	WT901BLE68-01(48591DE3C19B)	-0.805	-0.991	0.449	-18.005	64.209	52.185	-77.82	-31.14	-43.72	-48.902	-29.694	75.656	0.75729	-0.59384	0.26035	-0.07739	30.9	13111	100
2025-3-27 18:44:31.97	WT901BLE68-01(48591DE3C19B)	-0.805	-0.796	0.438	-19.653	22.644	80.994	-78.02	-29.98	-43.64	-48.902	-29.694	75.656	0.75729	-0.59384	0.26035	-0.07739	30.9	13111	100
2025-3-27 18:44:31.98	WT901BLE68-01(48591DE3C19B)	-0.840	-0.796	0.438	-19.653	22.644	80.994	-78.22	-28.83	-43.57	-48.902	-29.694	75.656	0.75729	-0.59384	0.26035	-0.07739	30.9	13111	100
2025-3-27 18:44:31.98	WT901BLE68-01(48591DE3C19B)	-0.840	-0.794	0.350	-24.963	-35.217	110.840	-78.80	-27.49	-42.79	-48.902	-29.694	75.656	0.75729	-0.59384	0.26035	-0.07739	30.9	13111	100
2025-3-27 18:44:31.98	WT901BLE68-01(48591DE3C19B)	-0.779	-0.794	0.350	-24.963	-35.217	110.840	-79.36	-26.15	-42.03	-48.902	-29.694	75.656	0.75729	-0.59384	0.26035	-0.07739	30.9	13111	100
2025-3-27 18:44:31.121	WT901BLE68-01(48591DE3C19B)	-0.779	-0.948	0.232	-25.879	-93.323	142.578	-80.19	-24.59	-40.60	-48.902	-29.694	75.656	0.75729	-0.59384	0.26035	-0.07739	30.9	13111	100
2025-3-27 18:44:31.122	WT901BLE68-01(48591DE3C19B)	-0.649	-0.948	0.232	-25.879	-93.323	142.578	-80.98	-23.02	-39.21	-48.902	-29.694	75.656	0.75729	-0.59384	0.26035	-0.07739	30.9	13111	100
2025-3-27 18:44:31.122	WT901BLE68-01(48591DE3C19B)	-0.649	-1.155	0.155	-17.700	-134.949	173.889	-81.82	-21.20	-37.37	-48.902	-29.694	75.656	0.75729	-0.59384	0.26035	-0.07739	30.9	13111	100
2025-3-27 18:44:31.122	WT901BLE68-01(48591DE3C19B)	-0.496	-1.155	0.155	-17.700	-134.949	173.889	-82.58	-19.36	-35.58	-48.902	-29.694	75.656	0.67126	-0.65793	0.07846	-0.33200	30.9	13111	100
2025-3-27 18:44:31.151	WT901BLE68-01(48591DE3C19B)	-0.496	-1.366	0.111	-2.625	-155.518	200.256	-83.19	-17.29	-33.61	-48.902	-29.694	75.656	0.67126	-0.65793	0.07846	-0.33200	30.9	13111	100
2025-3-27 18:44:31.151	WT901BLE68-01(48591DE3C19B)	-0.350	-1.366	0.111	-2.625	-155.518	200.256	-83.73	-15.21	-31.69	-48.902	-29.694	75.656	0.67126	-0.65793	0.07846	-0.33200	30.9	13111	100
2025-3-27 18:44:31.151	WT901BLE68-01(48591DE3C19B)	-0.350	-1.514	0.131	20.813	-158.752	220.764	-83.96	-12.94	-29.76	-48.902	-29.694	75.656	0.67126	-0.65793	0.07846	-0.33200	30.9	13111	100
2025-3-27 18:44:31.151	WT901BLE68-01(48591DE3C19B)	-0.187	-1.514	0.131	20.813	-158.752	220.764	-84.12	-10.70	-27.87	-48.902	-29.694	75.656	0.67126	-0.65793	0.07846	-0.33200	30.9	13111	100
2025-3-27 18:44:31.209	WT901BLE68-01(48591DE3C19B)	-0.187	-1.555	0.163	44.312	-140.991	236.755	-83.93	-8.29	-26.18	-48.902	-29.694	75.656	0.67126	-0.65793	0.07846	-0.33200	30.9	13111	100
2025-3-27 18:44:31.209	WT901BLE68-01(48591DE3C19B)	-0.074	-1.555	0.163	44.312	-140.991	236.755	-83.67	-5.92	-24.50	-48.902	-29.694	75.656	0.67126	-0.65793	0.07846	-0.33200	30.9	13111	100
2025-3-27 18:44:31.209	WT901BLE68-01(48591DE3C19B)	-0.074	-1.526	0.190	62.561	-101.868	249.390	-83.13	-3.42	-23.21	-48.902	-29.694	75.656	0.67126	-0.65793	0.07846	-0.33200	30.9	13111	100
2025-3-27 18:44:31.209	WT901BLE68-01(48591DE3C19B)	-0.027	-1.526	0.190	62.561	-101.868	249.390	-82.54	-0.95	-21.91	-48.902	-29.694	75.656	0.67126	-0.65793	0.07846	-0.33200	30.9	13111	100
2025-3-27 18:44:31.238	WT901BLE68-01(48591DE3C19B)	-0.027	-1.430	0.200	74.463	-50.781	261.597	-81.78	1.66	-21.08	-48.902	-29.694	75.656	0.67126	-0.65793	0.07846	-0.33200	30.9	13111	100
2025-3-27 18:44:31.238	WT901BLE68-01(48591DE3C19B)	-0.047	-1.430	0.200	74.463	-50.781	261.597	-80.98	4.24	-20.23	-48.902	-29.694	75.656	0.67126	-0.65793	0.07846	-0.33200	30.9	13111	100
2025-3-27 18:44:31.238	WT901BLE68-01(48591DE3C19B)	-0.047	-1.279	0.198	77.820	-1.648	273.682	-80.16	6.98	-19.81	-48.902	-29.694	75.656	0.67126	-0.65793	0.07846	-0.33200	30.9	13111	100
2025-3-27 18:44:31.239	WT901BLE68-01(48591DE3C19B)	-0.101	-1.279	0.198	77.820	-1.648	273.682	-79.31	9.69	-19.36	-48.902	-29.694	75.656	0.67126	-0.65793	0.07846	-0.33200	30.9	13111	100
2025-3-27 18:44:31.269	WT901BLE68-01(48591DE3C19B)	-0.101	-1.148	0.192	72.815	36.926	282.959	-78.56	12.54	-19.24	-48.902	-29.694	75.656	0.67126	-0.65793	0.07846	-0.33200	30.9	13111	100
2025-3-27 18:44:31.269	WT901BLE68-01(48591DE3C19B)	-0.144	-1.148	0.192	72.815	36.926	282.959	-77.79	15.37	-19.09	-48.902	-29.694	75.656	0.67126	-0.65793	0.07846	-0.33200	30.9	13111	100
2025-3-27 18:44:31.269	WT901BLE68-01(48591DE3C19B)	-0.144	-1.102	0.154	60.181	65.979	288.879	-77.22	18.29	-19.18	-48.902	-29.694	75.656	0.67126	-0.65793	0.07846	-0.33200	30.9	13111	100
2025-3-27 18:44:31.269	WT901BLE68-01(48591DE3C19B)	-0.192	-1.102	0.154	60.181	65.979	288.879	-76.65	21.20	-19.25	-48.902	-29.694	75.656	0.67126	-0.65793	0.07846	-0.33200	30.9	13111	100
2025-3-27 18:44:31.330	WT901BLE68-01(48591DE3C19B)	-0.192	-1.135	0.121	46.997	81.970	291.382	-76.27	24.15	-19.47	-48.902	-29.694	75.656	0.67126	-0.65793	0.07846	-0.33200	30.9	13111	100
2025-3-27 18:44:31.330	WT901BLE68-01(48591DE3C19B)	-0.227	-1.135	0.121	46.997	81.970	291.382	-75.89	27.09	-19.66	-48.902	-29.694	75.656	0.67126	-0.65793	0.07846	-0.33200	30.9	13111	100
2025-3-27 18:44:31.330	WT901BLE68-01(48591DE3C19B)	-0.227	-1.227	0.108	31.860	83.984	288.208	-75.68	29.98	-19.88	-48.902	-29.694	75.656	0.67126	-0.65793	0.07846	-0.33200	30.9	13111	100
2025-3-27 18:44:31.330	WT901BLE68-01(48591DE3C19B)	-0.287	-1.227	0.108	31.860	83.984	288.208	-75.48	32.85	-20.09	-48.902	-29.694	75.656	0.67126	-0.65793	0.07846	-0.33200	30.9	13111	100
2025-3-27 18:44:31.361	WT901BLE68-01(48591DE3C19B)	-0.287	-1.415	0.100	18.555	68.970	278.320	-75.34	35.58	-20.16	-54.978	-39.396	70.854	0.67126	-0.65793	0.07846	-0.33200	30.9	13111	100
2025-3-27 18:44:31.361	WT901BLE68-01(48591DE3C19B)	-0.314	-1.415	0.100	18.555	68.970	278.320	-75.21	38.30	-20.23	-54.978	-39.396	70.854	0.67126	-0.65793	0.07846	-0.33200	30.9	13111	100
2025-3-27 18:44:31.361	WT901BLE68-01(48591DE3C19B)	-0.314	-1.575	0.049	14.954	44.006	264.465	-74.93	40.80	-20.02	-54.978	-39.396	70.854	0.67126	-0.65793	0.07846	-0.33200	30.9	13111	100
2025-3-27 18:44:31.361	WT901BLE68-01(48591DE3C19B)	-0.275	-1.575	0.049	14.954	44.006	264.465	-74.64	43.29	-19.79	-54.978	-39.396	70.854	0.67126	-0.65793	0.07846	-0.33200	30.9	13111	100
2025-3-27 18:44:31.398	WT901BLE68-01(48591DE3C19B)	-0.198	-1.705	-0.028	9.460	21.973	242.981	-74.23	45.49	-19.32	-54.978	-39.396	70.854	0.67126	-0.65793	0.07846	-0.33200	30.9	13111	100
2025-3-27 18:44:31.398	WT901BLE68-01(48591DE3C19B)	-0.198	-1.929	-0.055	0.732	3.906	211.853	-73.78	47.51	-18.76	-54.978	-39.396	70.854	0.67126	-0.65793	0.07846	-0.33200	30.9	13111	100
2025-3-27 18:44:31.398	WT901BLE68-01(48591DE3C19B)	-0.058	-1.929	-0.055	0.732	3.906	211.853	-73.30	49.33	-18.09	-54.978	-39.396	70.854	0.67126	-0.65793	0.07846	-0.33200	30.9	13111	100
2025-3-27 18:44:31.398	WT901BLE68-01(48591DE3C19B)	-0.058	-2.075	-0.042	2.136	-16.113	173.584	-72.72	50.94	-17.33	-54.978	-39.396	70.854	0.67126	-0.65793	0.07846	-0.33200	30.9	13111	100
2025-3-27 18:44:31.449	WT901BLE68-01(48591DE3C19B)	0.097	-2.075	-0.042	2.136	-16.113	173.584	-72.04	52.31	-16.47	-54.978	-39.396	70.854	0.67126	-0.65793	0.07846	-0.33200	30.9	13111	100
2025-3-27 18:44:31.450	WT901BLE68-01(48591DE3C19B)	0.097	-2.027	0.043	10.071	-41.382	135.803	-71.20	53.44	-15.47	-54.978	-39.396	70.854	0.67126	-0.65793	0.07846	-0.33200	30.9	13111	100
2025-3-27 18:44:31.450	WT901BLE68-01(48591DE3C19B)	0.171	-2.027	0.043	10.071	-41.382	135.803	-70.20	54.33	-14.34	-54.978	-39.396	70.854	0.67126	-0.65793	0.07846	-0.33200	30.9	13111	100
2025-3-27 18:44:31.450	WT901BLE68-01(48591DE3C19B)	0.171	-1.823	0.146	12.573	-56.274	95.093	-69.15	54.99	-13.17	-54.978	-39.396	70.854	0.67126	-0.65793	0.07846	-0.33200	30.9	13111	100
2025-3-27 18:44:31.480	WT901BLE68-01(48591DE3C19B)	0.171	-1.823	0.146	12.573	-56.274	95.093	-68.07	55.41	-11.99	-54.978	-39.396	70.854	0.67126	-0.65793	0.07846	-0.33200	30.9	13111	100
2025-3-27 18:44:31.480	WT901BLE68-01(48591DE3C19B)	0.171	-1.571	0.232	12.756	-56.030	52.002	-67.10	55.61	-10.94	-54.978	-39.396	70.854	0.67126	-0.65793	0.07846	-0.33200	30.9	13111	100
2025-3-27 18:44:31.480	WT901BLE68-01(48591DE3C19B)	0.224	-1.571	0.232	12.756	-56.030	52.002	-66.25	55.60	-10.05	-54.978	-39.396	70.854	0.67126	-0.65793	0.07846	-0.33200	30.9	13111	100
2025-3-27 18:44:31.480	WT901BLE68-01(48591DE3C19B)	0.224	-1.347	0.236	7.996	-38.574	9.216	-65.68	55.43	-9.47	-54.978	-39.396	70.854	0.67126	-0.65793	0.07846	-0.33200	30.9	13111	100
2025-3-27 18:44:31.539	WT901BLE68-01(48591DE3C19B)	0.302	-1.347	0.236	7.996	-38.574	9.216	-65.38	55.08	-9.19	-54.978	-39.396	70.854	0.67126	-0.65793	0.07846	-0.33200	30.9	13111	100
2025-3-27 18:44:31.540	WT901BLE68-01(48591DE3C19B)	0.302	-1.137	0.188	5.127	0.000	-30.518	-65.47	54.64	-9.37	-54.978	-39.396	70.854	0.67126	-0.65793	0.07846	-0.33200	30.9	13111	100
2025-3-27 18:44:31.540	WT901BLE68-01(48591DE3C19B)	0.282	-1.137	0.188	5.127	0.000	-30.518	-65.92	54.09	-9.99	-54.978	-39.396	70.854	0.67126	-0.65793	0.07846	-0.33200	30.9	13111	100
2025-3-27 18:44:31.540	WT901BLE68-01(48591DE3C19B)	0.282	-0.990	0.144	-1.831	34.607	-68.054	-66.72	53.43	-10.99	-54.978	-39.396	70.854	0.67126	-0.65793	0.07846	-0.33200	30.9	13111	100
2025-3-27 18:44:31.599	WT901BLE68-01(48591DE3C19B)	0.216	-0.990	0.144	-1.831	34.607	-68.054	-67.82	52.66	-12.34	-54.978	-39.396	70.854	0.67126	-0.65793	0.07846	-0.33200	30.9	13111	100
2025-3-27 18:44:31.599	WT901BLE68-01(48591DE3C19B)	0.216	-0.987	0.110	-9.827	54.932	-105.347	-69.11	51.73	-13.90	-54.978	-39.396	70.854	0.76553	-0.46313	0.41840	0.15598	30.9	13111	100
2025-3-27 18:44:31.600	WT901BLE68-01(48591DE3C19B)	0.097	-0.987	0.110	-9.827	54.932	-105.347	-70.56	50.65	-15.63	-54.978	-39.396	70.854	0.76553	-0.46313	0.41840	0.15598	30.9	13111	100
2025-3-27 18:44:31.600	WT901BLE68-01(48591DE3C19B)	0.097	-1.039	0.106	-13.367	63.538	-137.573	-72.05	49.40	-17.42	-54.978	-39.396	70.854	0.76553	-0.46313	0.41840	0.15598	30.9	13111	100
2025-3-27 18:44:31.601	WT901BLE68-01(48591DE3C19B)	-0.069	-1.039	0.106	-13.367	63.538	-137.573	-73.54	47.99	-19.24	-54.978	-39.396	70.854	0.76553	-0.46313	0.41840	0.15598	30.9	13111	100
2025-3-27 18:44:31.601	WT901BLE68-01(48591DE3C19B)	-0.069	-1.069	0.132	-13.794	58.533	-166.382	-74.94	46.41	-20.97	-54.978	-39.396	70.854	0.76553	-0.46313	0.41840	0.15598	30.9	13111	100
2025-3-27 18:44:31.601	WT901BLE68-01(48591DE3C19B)	-0.216	-1.069	0.132	-13.794	58.533	-166.382	-76.23	44.68	-22.60	-54.978	-39.396	70.854	0.76553	-0.46313	0.41840	0.15598	30.9	13111	100
2025-3-27 18:44:31.601	WT901BLE68-01(48591DE3C19B)	-0.216	-1.079	0.159	-9.766	38.574	-187.317	-77.33	42.81	-24.02	-54.978	-39.396	70.854	0.76553	-0.46313	0.41840	0.15598	30.9	13111	100
2025-3-27 18:44:31.660	WT901BLE68-01(48591DE3C19B)	-0.293	-1.079	0.159	-9.766	38.574	-187.317	-78.23	40.81	-25.24	-54.978	-39.396	70.854	0.76553	-0.46313	0.41840	0.15598	30.9	13111	100
2025-3-27 18:44:31.660	WT901BLE68-01(48591DE3C19B)	-0.293	-1.004	0.214	-6.226	10.864	-206.360	-78.93	38.70	-26.22	-54.978	-39.396	70.854	0.76553	-0.46313	0.41840	0.15598	30.9	13111	100
2025-3-27 18:44:31.660	WT901BLE68-01(48591DE3C19B)	-0.292	-1.004	0.214	-6.226	10.864	-206.360	-79.44	36.49	-26.99	-54.978	-39.396	70.854	0.76553	-0.46313	0.41840	0.15598	30.9	13111	100
2025-3-27 18:44:31.660	WT901BLE68-01(48591DE3C19B)	-0.292	-0.936	0.207	-12.878	-22.644	-222.046	-79.83	34.18	-27.53	-54.978	-39.396	70.854	0.76553	-0.46313	0.41840	0.15598	30.9	13111	100
2025-3-27 18:44:31.698	WT901BLE68-01(48591DE3C19B)	-0.246	-0.936	0.207	-12.878	-22.644	-222.046	-80.11	31.79	-27.84	-54.978	-39.396	70.854	0.76553	-0.46313	0.41840	0.15598	30.9	13111	100
2025-3-27 18:44:31.699	WT901BLE68-01(48591DE3C19B)	-0.246	-0.924	0.182	-19.531	-44.556	-233.276	-80.34	29.33	-28.02	-54.978	-39.396	70.854	0.76553	-0.46313	0.41840	0.15598	30.9	13111	100
2025-3-27 18:44:31.699	WT901BLE68-01(48591DE3C19B)	-0.208	-0.924	0.182	-19.531	-44.556	-233.276	-80.54	26.83	-28.06	-54.978	-39.396	70.854	0.76553	-0.46313	0.41840	0.15598	30.9	13111	100
2025-3-27 18:44:31.699	WT901BLE68-01(48591DE3C19B)	-0.208	-0.907	0.155	-25.208	-55.847	-242.798	-80.73	24.29	-28.04	-54.978	-39.396	70.854	0.76553	-0.46313	0.41840	0.15598	30.9	13111	100
2025-3-27 18:44:31.721	WT901BLE68-01(48591DE3C19B)	-0.173	-0.907	0.155	-25.208	-55.847	-242.798	-80.93	21.71	-27.95	-54.978	-39.396	70.854	0.76553	-0.46313	0.41840	0.15598	30.9	13111	100
2025-3-27 18:44:31.721	WT901BLE68-01(48591DE3C19B)	-0.173	-0.882	0.144	-31.372	-55.481	-252.808	-81.16	19.09	-27.87	-54.978	-39.396	70.854	0.76553	-0.46313	0.41840	0.15598	30.9	13111	100
2025-3-27 18:44:31.722	WT901BLE68-01(48591DE3C19B)	-0.157	-0.882	0.144	-31.372	-55.481	-252.808	-81.43	16.46	-27.78	-60.956	-44.394	69.090	0.76553	-0.46313	0.41840	0.15598	30.9	13111	100
2025-3-27 18:44:31.722	WT901BLE68-01(48591DE3C19B)	-0.157	-0.896	0.152	-38.574	-40.833	-264.282	-81.75	13.79	-27.76	-60.956	-44.394	69.090	0.76553	-0.46313	0.41840	0.15598	30.9	13111	100
2025-3-27 18:44:31.779	WT901BLE68-01(48591DE3C19B)	-0.186	-0.896	0.152	-38.574	-40.833	-264.282	-82.13	11.09	-27.80	-60.956	-44.394	69.090	0.76553	-0.46313	0.41840	0.15598	30.9	13111	100
2025-3-27 18:44:31.779	WT901BLE68-01(48591DE3C19B)	-0.186	-0.963	0.180	-42.725	-15.808	-274.353	-82.54	8.37	-27.95	-60.956	-44.394	69.090	0.76553	-0.46313	0.41840	0.15598	30.9	13111	100
2025-3-27 18:44:31.779	WT901BLE68-01(48591DE3C19B)	-0.258	-0.963	0.180	-42.725	-15.808	-274.353	-82.97	5.64	-28.20	-60.956	-44.394	69.090	0.76553	-0.46313	0.41840	0.15598	30.9	13111	100
2025-3-27 18:44:31.779	WT901BLE68-01(48591DE3C19B)	-0.258	-1.042	0.226	-42.053	5.554	-280.640	-83.40	2.91	-28.54	-60.956	-44.394	69.090	0.76553	-0.46313	0.41840	0.15598	30.9	13111	100
2025-3-27 18:44:31.808	WT901BLE68-01(48591DE3C19B)	-0.364	-1.042	0.226	-42.053	5.554	-280.640	-83.81	0.18	-28.97	-60.956	-44.394	69.090	0.76553	-0.46313	0.41840	0.15598	30.9	13111	100
2025-3-27 18:44:31.808	WT901BLE68-01(48591DE3C19B)	-0.364	-1.154	0.293	-39.490	11.902	-283.264	-84.18	-2.55	-29.39	-60.956	-44.394	69.090	0.76553	-0.46313	0.41840	0.15598	30.9	13111	100
2025-3-27 18:44:31.808	WT901BLE68-01(48591DE3C19B)	-0.478	-1.154	0.293	-39.490	11.902	-283.264	-84.51	-5.27	-29.84	-60.956	-44.394	69.090	0.76553	-0.46313	0.41840	0.15598	30.9	13111	100
2025-3-27 18:44:31.808	WT901BLE68-01(48591DE3C19B)	-0.478	-1.271	0.350	-32.410	1.404	-280.151	-84.79	-7.95	-30.20	-60.956	-44.394	69.090	0.76553	-0.46313	0.41840	0.15598	30.9	13111	100
2025-3-27 18:44:31.839	WT901BLE68-01(48591DE3C19B)	-0.530	-1.271	0.350	-32.410	1.404	-280.151	-85.03	-10.61	-30.50	-60.956	-44.394	69.090	0.76553	-0.46313	0.41840	0.15598	30.9	13111	100
2025-3-27 18:44:31.839	WT901BLE68-01(48591DE3C19B)	-0.530	-1.336	0.333	-27.588	-15.869	-270.386	-85.25	-13.21	-30.68	-60.956	-44.394	69.090	0.76553	-0.46313	0.41840	0.15598	30.9	13111	100
2025-3-27 18:44:31.840	WT901BLE68-01(48591DE3C19B)	-0.512	-1.336	0.333	-27.588	-15.869	-270.386	-85.46	-15.74	-30.77	-60.956	-44.394	69.090	0.76553	-0.46313	0.41840	0.15598	30.9	13111	100
2025-3-27 18:44:31.840	WT901BLE68-01(48591DE3C19B)	-0.512	-1.357	0.282	-29.907	-29.297	-256.531	-85.74	-18.13	-30.68	-60.956	-44.394	69.090	0.76553	-0.46313	0.41840	0.15598	30.9	13111	100
2025-3-27 18:44:31.930	WT901BLE68-01(48591DE3C19B)	-0.591	-1.357	0.282	-29.907	-29.297	-256.531	-86.03	-20.49	-30.57	-60.956	-44.394	69.090	0.76553	-0.46313	0.41840	0.15598	30.9	13111	100
2025-3-27 18:44:31.930	WT901BLE68-01(48591DE3C19B)	-0.591	-1.414	0.369	-31.799	-55.969	-226.135	-86.46	-22.56	-30.14	-60.956	-44.394	69.090	0.76553	-0.46313	0.41840	0.15598	30.9	13111	100
2025-3-27 18:44:31.930	WT901BLE68-01(48591DE3C19B)	-0.659	-1.414	0.369	-31.799	-55.969	-226.135	-86.91	-24.61	-29.67	-60.956	-44.394	69.090	0.76553	-0.46313	0.41840	0.15598	30.9	13111	100
2025-3-27 18:44:31.930	WT901BLE68-01(48591DE3C19B)	-0.659	-1.334	0.500	-33.875	-94.116	-191.772	-87.59	-26.31	-28.74	-60.956	-44.394	69.090	0.76553	-0.46313	0.41840	0.15598	30.9	13111	100
2025-3-27 18:44:31.931	WT901BLE68-01(48591DE3C19B)	-0.555	-1.334	0.500	-33.875	-94.116	-191.772	-88.30	-27.99	-27.77	-60.956	-44.394	69.090	0.76553	-0.46313	0.41840	0.15598	30.9	13111	100
2025-3-27 18:44:31.931	WT901BLE68-01(48591DE3C19B)	-0.555	-1.266	0.607	-43.518	-120.300	-153.015	-89.29	-29.26	-26.45	-60.956	-44.394	69.090	0.76553	-0.46313	0.41840	0.15598	30.9	13111	100
2025-3-27 18:44:31.932	WT901BLE68-01(48591DE3C19B)	-0.445	-1.266	0.607	-43.518	-120.300	-153.015	-90.31	-30.51	-25.09	-60.956	-44.394	69.090	0.76553	-0.46313	0.41840	0.15598	30.9	13111	100
2025-3-27 18:44:31.932	WT901BLE68-01(48591DE3C19B)	-0.445	-1.348	0.659	-50.049	-126.038	-105.225	-91.46	-31.25	-23.65	-60.956	-44.394	69.090	0.61588	-0.71609	-0.04779	-0.32486	30.9	13111	100
2025-3-27 18:44:31.961	WT901BLE68-01(48591DE3C19B)	-0.378	-1.348	0.659	-50.049	-126.038	-105.225	-92.61	-31.96	-22.19	-60.956	-44.394	69.090	0.61588	-0.71609	-0.04779	-0.32486	30.9	13111	100
2025-3-27 18:44:31.961	WT901BLE68-01(48591DE3C19B)	-0.378	-1.451	0.668	-44.067	-108.337	-58.411	-93.59	-32.20	-20.95	-60.956	-44.394	69.090	0.61588	-0.71609	-0.04779	-0.32486	30.9	13111	100
2025-3-27 18:44:31.961	WT901BLE68-01(48591DE3C19B)	-0.339	-1.451	0.668	-44.067	-108.337	-58.411	-94.56	-32.43	-19.71	-60.956	-44.394	69.090	0.61588	-0.71609	-0.04779	-0.32486	30.9	13111	100
2025-3-27 18:44:31.961	WT901BLE68-01(48591DE3C19B)	-0.339	-1.484	0.677	-31.494	-71.228	-13.672	-95.15	-32.22	-18.96	-60.956	-44.394	69.090	0.61588	-0.71609	-0.04779	-0.32486	30.9	13111	100
2025-3-27 18:44:32.19	WT901BLE68-01(48591DE3C19B)	-0.330	-1.484	0.677	-31.494	-71.228	-13.672	-95.72	-32.02	-18.23	-60.956	-44.394	69.090	0.61588	-0.71609	-0.04779	-0.32486	30.9	13111	100
2025-3-27 18:44:32.20	WT901BLE68-01(48591DE3C19B)	-0.330	-1.490	0.671	-11.963	-31.799	26.184	-95.82	-31.47	-18.01	-60.956	-44.394	69.090	0.61588	-0.71609	-0.04779	-0.32486	30.9	13111	100
2025-3-27 18:44:32.20	WT901BLE68-01(48591DE3C19B)	-0.355	-1.490	0.671	-11.963	-31.799	26.184	-95.90	-30.92	-17.79	-60.956	-44.394	69.090	0.61588	-0.71609	-0.04779	-0.32486	30.9	13111	100
2025-3-27 18:44:32.20	WT901BLE68-01(48591DE3C19B)	-0.355	-1.313	0.664	11.719	-7.690	60.669	-95.59	-30.06	-17.90	-60.956	-44.394	69.090	0.61588	-0.71609	-0.04779	-0.32486	30.9	13111	100
2025-3-27 18:44:32.49	WT901BLE68-01(48591DE3C19B)	-0.348	-1.313	0.664	11.719	-7.690	60.669	-95.27	-29.21	-18.01	-60.956	-44.394	69.090	0.61588	-0.71609	-0.04779	-0.32486	30.9	13111	100
2025-3-27 18:44:32.49	WT901BLE68-01(48591DE3C19B)	-0.348	-1.215	0.649	26.733	4.211	88.379	-94.73	-28.10	-18.26	-60.956	-44.394	69.090	0.61588	-0.71609	-0.04779	-0.32486	30.9	13111	100
2025-3-27 18:44:32.49	WT901BLE68-01(48591DE3C19B)	-0.324	-1.215	0.649	26.733	4.211	88.379	-94.20	-26.99	-18.52	-60.956	-44.394	69.090	0.61588	-0.71609	-0.04779	-0.32486	30.9	13111	100
2025-3-27 18:44:32.49	WT901BLE68-01(48591DE3C19B)	-0.324	-1.154	0.583	48.218	19.165	113.525	-93.38	-25.65	-18.93	-60.956	-44.394	69.090	0.61588	-0.71609	-0.04779	-0.32486	30.9	13111	100
2025-3-27 18:44:32.79	WT901BLE68-01(48591DE3C19B)	-0.289	-1.154	0.583	48.218	19.165	113.525	-92.59	-24.31	-19.32	-60.956	-44.394	69.090	0.61588	-0.71609	-0.04779	-0.32486	30.9	13111	100
2025-3-27 18:44:32.79	WT901BLE68-01(48591DE3C19B)	-0.289	-0.986	0.456	66.284	41.321	136.169	-91.54	-22.76	-19.95	-60.956	-44.394	69.090	0.61588	-0.71609	-0.04779	-0.32486	30.9	13111	100
2025-3-27 18:44:32.79	WT901BLE68-01(48591DE3C19B)	-0.300	-0.986	0.456	66.284	41.321	136.169	-90.52	-21.21	-20.52	-60.956	-44.394	69.090	0.61588	-0.71609	-0.04779	-0.32486	30.9	13111	100
2025-3-27 18:44:32.79	WT901BLE68-01(48591DE3C19B)	-0.300	-0.967	0.357	74.463	56.946	156.067	-89.40	-19.46	-21.23	-60.956	-44.394	69.090	0.61588	-0.71609	-0.04779	-0.32486	30.9	13111	100
2025-3-27 18:44:32.140	WT901BLE68-01(48591DE3C19B)	-0.301	-0.967	0.357	74.463	56.946	156.067	-88.32	-17.70	-21.88	-60.956	-44.394	69.090	0.61588	-0.71609	-0.04779	-0.32486	30.9	13111	100
2025-3-27 18:44:32.140	WT901BLE68-01(48591DE3C19B)	-0.301	-1.111	0.325	82.031	62.195	174.072	-87.19	-15.77	-22.54	-60.956	-44.394	69.090	0.61588	-0.71609	-0.04779	-0.32486	30.9	13111	100
2025-3-27 18:44:32.140	WT901BLE68-01(48591DE3C19B)	-0.249	-1.111	0.325	82.031	62.195	174.072	-86.11	-13.83	-23.15	-60.956	-44.394	69.090	0.61588	-0.71609	-0.04779	-0.32486	30.9	13111	100
2025-3-27 18:44:32.140	WT901BLE68-01(48591DE3C19B)	-0.249	-1.247	0.365	92.529	72.266	190.308	-84.94	-11.72	-23.81	-60.956	-44.394	69.090	0.61588	-0.71609	-0.04779	-0.32486	30.9	13111	100
2025-3-27 18:44:32.168	WT901BLE68-01(48591DE3C19B)	-0.128	-1.247	0.365	92.529	72.266	190.308	-83.80	-9.62	-24.41	-44.296	-46.354	63.504	0.61588	-0.71609	-0.04779	-0.32486	30.9	13111	100
2025-3-27 18:44:32.168	WT901BLE68-01(48591DE3C19B)	-0.128	-1.331	0.373	102.356	112.854	204.712	-82.56	-7.33	-25.36	-44.296	-46.354	63.504	0.61588	-0.71609	-0.04779	-0.32486	30.9	13111	100
2025-3-27 18:44:32.168	WT901BLE68-01(48591DE3C19B)	-0.080	-1.331	0.373	102.356	112.854	204.712	-81.36	-5.04	-26.26	-44.296	-46.354	63.504	0.61588	-0.71609	-0.04779	-0.32486	30.9	13111	100
2025-3-27 18:44:32.169	WT901BLE68-01(48591DE3C19B)	-0.080	-1.363	0.310	107.300	181.763	221.680	-80.13	-2.48	-27.76	-44.296	-46.354	63.504	0.61588	-0.71609	-0.04779	-0.32486	30.9	13111	100
2025-3-27 18:44:32.199	WT901BLE68-01(48591DE3C19B)	-0.122	-1.363	0.310	107.300	181.763	221.680	-78.98	0.09	-29.20	-44.296	-46.354	63.504	0.61588	-0.71609	-0.04779	-0.32486	30.9	13111	100
2025-3-27 18:44:32.199	WT901BLE68-01(48591DE3C19B)	-0.122	-1.395	0.232	101.196	252.808	240.906	-77.98	3.00	-31.25	-44.296	-46.354	63.504	0.61588	-0.71609	-0.04779	-0.32486	30.9	13111	100
2025-3-27 18:44:32.199	WT901BLE68-01(48591DE3C19B)	-0.243	-1.395	0.232	101.196	252.808	240.906	-77.09	5.93	-33.24	-44.296	-46.354	63.504	0.61588	-0.71609	-0.04779	-0.32486	30.9	13111	100
2025-3-27 18:44:32.199	WT901BLE68-01(48591DE3C19B)	-0.243	-1.417	0.159	85.632	298.401	260.925	-76.52	9.16	-35.60	-44.296	-46.354	63.504	0.61588	-0.71609	-0.04779	-0.32486	30.9	13111	100
2025-3-27 18:44:32.259	WT901BLE68-01(48591DE3C19B)	-0.357	-1.417	0.159	85.632	298.401	260.925	-76.09	12.39	-37.94	-44.296	-46.354	63.504	0.61588	-0.71609	-0.04779	-0.32486	30.9	13111	100
2025-3-27 18:44:32.260	WT901BLE68-01(48591DE3C19B)	-0.357	-1.397	0.104	60.120	313.660	278.015	-76.09	15.81	-40.39	-44.296	-46.354	63.504	0.61588	-0.71609	-0.04779	-0.32486	30.9	13111	100
2025-3-27 18:44:32.260	WT901BLE68-01(48591DE3C19B)	-0.468	-1.397	0.104	60.120	313.660	278.015	-76.25	19.21	-42.87	-44.296	-46.354	63.504	0.61588	-0.71609	-0.04779	-0.32486	30.9	13111	100
2025-3-27 18:44:32.260	WT901BLE68-01(48591DE3C19B)	-0.468	-1.317	0.075	32.410	296.326	291.809	-76.77	22.68	-45.21	-44.296	-46.354	63.504	0.61588	-0.71609	-0.04779	-0.32486	30.9	13111	100
2025-3-27 18:44:32.297	WT901BLE68-01(48591DE3C19B)	-0.529	-1.317	0.075	32.410	296.326	291.809	-77.46	26.10	-47.63	-44.296	-46.354	63.504	0.61588	-0.71609	-0.04779	-0.32486	30.9	13111	100
2025-3-27 18:44:32.297	WT901BLE68-01(48591DE3C19B)	-0.529	-1.208	0.057	0.244	255.310	296.082	-78.45	29.44	-49.71	-44.296	-46.354	63.504	0.61588	-0.71609	-0.04779	-0.32486	30.9	13111	100
2025-3-27 18:44:32.297	WT901BLE68-01(48591DE3C19B)	-0.567	-1.208	0.057	0.244	255.310	296.082	-79.62	32.72	-51.92	-44.296	-46.354	63.504	0.61588	-0.71609	-0.04779	-0.32486	30.9	13111	100
2025-3-27 18:44:32.297	WT901BLE68-01(48591DE3C19B)	-0.598	-1.202	0.037	-29.236	200.134	293.152	-80.91	35.83	-53.64	-44.296	-46.354	63.504	0.61588	-0.71609	-0.04779	-0.32486	30.9	13111	100
2025-3-27 18:44:32.349	WT901BLE68-01(48591DE3C19B)	-0.598	-1.177	0.061	-47.485	138.367	284.180	-82.22	38.80	-55.12	-44.296	-46.354	63.504	0.61588	-0.71609	-0.04779	-0.32486	30.9	13111	100
2025-3-27 18:44:32.350	WT901BLE68-01(48591DE3C19B)	-0.570	-1.177	0.061	-47.485	138.367	284.180	-83.53	41.65	-56.37	-44.296	-46.354	63.504	0.61588	-0.71609	-0.04779	-0.32486	30.9	13111	100
2025-3-27 18:44:32.350	WT901BLE68-01(48591DE3C19B)	-0.570	-1.167	0.058	-60.059	73.547	270.935	-84.74	44.37	-57.31	-44.296	-46.354	63.504	0.72229	-0.41379	0.54407	-0.10468	30.9	13111	100
2025-3-27 18:44:32.350	WT901BLE68-01(48591DE3C19B)	-0.515	-1.167	0.058	-60.059	73.547	270.935	-85.82	46.98	-57.93	-44.296	-46.354	63.504	0.72229	-0.41379	0.54407	-0.10468	30.9	13111	100
2025-3-27 18:44:32.378	WT901BLE68-01(48591DE3C19B)	-0.515	-1.116	0.046	-64.209	18.188	255.981	-86.70	49.47	-58.24	-44.296	-46.354	63.504	0.72229	-0.41379	0.54407	-0.10468	30.9	13111	100
2025-3-27 18:44:32.378	WT901BLE68-01(48591DE3C19B)	-0.477	-1.116	0.046	-64.209	18.188	255.981	-87.34	51.84	-58.20	-44.296	-46.354	63.504	0.72229	-0.41379	0.54407	-0.10468	30.9	13111	100
2025-3-27 18:44:32.378	WT901BLE68-01(48591DE3C19B)	-0.477	-1.107	0.068	-68.970	-25.757	236.816	-87.74	54.11	-57.84	-44.296	-46.354	63.504	0.72229	-0.41379	0.54407	-0.10468	30.9	13111	100
2025-3-27 18:44:32.379	WT901BLE68-01(48591DE3C19B)	-0.497	-1.107	0.068	-68.970	-25.757	236.816	-87.86	56.27	-57.11	-44.296	-46.354	63.504	0.72229	-0.41379	0.54407	-0.10468	30.9	13111	100
2025-3-27 18:44:32.409	WT901BLE68-01(48591DE3C19B)	-0.497	-1.216	0.077	-71.045	-67.627	213.440	-87.63	58.28	-55.98	-44.296	-46.354	63.504	0.72229	-0.41379	0.54407	-0.10468	30.9	13111	100
2025-3-27 18:44:32.409	WT901BLE68-01(48591DE3C19B)	-0.493	-1.216	0.077	-71.045	-67.627	213.440	-86.97	60.16	-54.36	-44.296	-46.354	63.504	0.72229	-0.41379	0.54407	-0.10468	30.9	13111	100
2025-3-27 18:44:32.409	WT901BLE68-01(48591DE3C19B)	-0.493	-1.355	0.125	-69.458	-110.107	189.148	-85.79	61.88	-52.19	-44.296	-46.354	63.504	0.72229	-0.41379	0.54407	-0.10468	30.9	13111	100
2025-3-27 18:44:32.409	WT901BLE68-01(48591DE3C19B)	-0.447	-1.355	0.125	-69.458	-110.107	189.148	-84.02	63.41	-49.39	-44.296	-46.354	63.504	0.72229	-0.41379	0.54407	-0.10468	30.9	13111	100
2025-3-27 18:44:32.438	WT901BLE68-01(48591DE3C19B)	-0.447	-1.530	0.159	-63.354	-146.667	163.269	-81.61	64.74	-45.97	-44.296	-46.354	63.504	0.72229	-0.41379	0.54407	-0.10468	30.9	13111	100
2025-3-27 18:44:32.438	WT901BLE68-01(48591DE3C19B)	-0.319	-1.530	0.159	-63.354	-146.667	163.269	-78.56	65.84	-41.90	-44.296	-46.354	63.504	0.72229	-0.41379	0.54407	-0.10468	30.9	13111	100
2025-3-27 18:44:32.438	WT901BLE68-01(48591DE3C19B)	-0.319	-1.575	0.182	-49.927	-166.138	138.977	-75.00	66.68	-37.38	-44.296	-46.354	63.504	0.72229	-0.41379	0.54407	-0.10468	30.9	13111	100
2025-3-27 18:44:32.439	WT901BLE68-01(48591DE3C19B)	-0.214	-1.575	0.182	-49.927	-166.138	138.977	-71.02	67.25	-32.50	-44.296	-46.354	63.504	0.72229	-0.41379	0.54407	-0.10468	30.9	13111	100
2025-3-27 18:44:32.502	WT901BLE68-01(48591DE3C19B)	-0.214	-1.483	0.216	-41.321	-167.175	113.037	-66.94	67.55	-27.58	-44.296	-46.354	63.504	0.72229	-0.41379	0.54407	-0.10468	30.9	13111	100
2025-3-27 18:44:32.502	WT901BLE68-01(48591DE3C19B)	-0.156	-1.483	0.216	-41.321	-167.175	113.037	-62.89	67.60	-22.74	-44.296	-46.354	63.504	0.72229	-0.41379	0.54407	-0.10468	30.9	13111	100
2025-3-27 18:44:32.502	WT901BLE68-01(48591DE3C19B)	-0.156	-1.373	0.279	-35.217	-156.189	85.999	-59.13	67.42	-18.25	-44.296	-46.354	63.504	0.72229	-0.41379	0.54407	-0.10468	30.9	13111	100
2025-3-27 18:44:32.502	WT901BLE68-01(48591DE3C19B)	-0.113	-1.373	0.279	-35.217	-156.189	85.999	-55.74	67.06	-14.18	-44.296	-46.354	63.504	0.72229	-0.41379	0.54407	-0.10468	30.9	13111	100
2025-3-27 18:44:32.560	WT901BLE68-01(48591DE3C19B)	-0.113	-1.147	0.367	-27.771	-134.766	53.589	-52.90	66.53	-10.74	-44.296	-46.354	63.504	0.72229	-0.41379	0.54407	-0.10468	30.9	13111	100
2025-3-27 18:44:32.560	WT901BLE68-01(48591DE3C19B)	-0.071	-1.147	0.367	-27.771	-134.766	53.589	-50.59	65.89	-7.91	-44.296	-46.354	63.504	0.72229	-0.41379	0.54407	-0.10468	30.9	13111	100
2025-3-27 18:44:32.560	WT901BLE68-01(48591DE3C19B)	-0.071	-0.958	0.443	-26.062	-105.469	22.827	-48.88	65.18	-5.74	-44.296	-46.354	63.504	0.72229	-0.41379	0.54407	-0.10468	30.9	13111	100
2025-3-27 18:44:32.560	WT901BLE68-01(48591DE3C19B)	0.024	-0.958	0.443	-26.062	-105.469	22.827	-47.73	64.43	-4.17	-74.970	-36.848	61.544	0.72229	-0.41379	0.54407	-0.10468	30.9	13111	100
2025-3-27 18:44:32.561	WT901BLE68-01(48591DE3C19B)	0.024	-0.802	0.369	-26.611	-51.819	-6.897	-47.26	63.75	-3.37	-74.970	-36.848	61.544	0.72229	-0.41379	0.54407	-0.10468	30.9	13111	100
2025-3-27 18:44:32.561	WT901BLE68-01(48591DE3C19B)	0.095	-0.802	0.369	-26.611	-51.819	-6.897	-47.42	63.13	-3.27	-74.970	-36.848	61.544	0.72229	-0.41379	0.54407	-0.10468	30.9	13111	100
2025-3-27 18:44:32.561	WT901BLE68-01(48591DE3C19B)	0.095	-0.701	0.293	-27.222	15.259	-37.964	-48.26	62.63	-3.93	-74.970	-36.848	61.544	0.72229	-0.41379	0.54407	-0.10468	30.9	13111	100
2025-3-27 18:44:32.561	WT901BLE68-01(48591DE3C19B)	0.067	-0.701	0.293	-27.222	15.259	-37.964	-49.75	62.22	-5.33	-74.970	-36.848	61.544	0.72229	-0.41379	0.54407	-0.10468	30.9	13111	100
2025-3-27 18:44:32.621	WT901BLE68-01(48591DE3C19B)	0.067	-0.686	0.368	-25.391	70.984	-74.585	-51.80	61.81	-7.40	-74.970	-36.848	61.544	0.72229	-0.41379	0.54407	-0.10468	30.9	13111	100
2025-3-27 18:44:32.621	WT901BLE68-01(48591DE3C19B)	-0.149	-0.686	0.368	-25.391	70.984	-74.585	-54.39	61.40	-10.09	-74.970	-36.848	61.544	0.72229	-0.41379	0.54407	-0.10468	30.9	13111	100
2025-3-27 18:44:32.621	WT901BLE68-01(48591DE3C19B)	-0.149	-0.808	0.515	-14.282	92.590	-112.244	-57.17	60.82	-13.10	-74.970	-36.848	61.544	0.72229	-0.41379	0.54407	-0.10468	30.9	13111	100
2025-3-27 18:44:32.621	WT901BLE68-01(48591DE3C19B)	-0.351	-0.808	0.515	-14.282	92.590	-112.244	-60.08	60.08	-16.35	-74.970	-36.848	61.544	0.72229	-0.41379	0.54407	-0.10468	30.9	13111	100
2025-3-27 18:44:32.651	WT901BLE68-01(48591DE3C19B)	-0.351	-0.864	0.516	7.751	89.355	-147.339	-62.81	59.10	-19.56	-74.970	-36.848	61.544	0.72229	-0.41379	0.54407	-0.10468	30.9	13111	100
2025-3-27 18:44:32.651	WT901BLE68-01(48591DE3C19B)	-0.446	-0.864	0.516	7.751	89.355	-147.339	-65.31	57.89	-22.68	-74.970	-36.848	61.544	0.72229	-0.41379	0.54407	-0.10468	30.9	13111	100
2025-3-27 18:44:32.651	WT901BLE68-01(48591DE3C19B)	-0.446	-0.820	0.418	26.489	78.308	-173.035	-67.48	56.50	-25.58	-74.970	-36.848	61.544	0.72229	-0.41379	0.54407	-0.10468	30.9	13111	100
2025-3-27 18:44:32.651	WT901BLE68-01(48591DE3C19B)	-0.473	-0.820	0.418	26.489	78.308	-173.035	-69.33	54.93	-28.25	-74.970	-36.848	61.544	0.72229	-0.41379	0.54407	-0.10468	30.9	13111	100
2025-3-27 18:44:32.681	WT901BLE68-01(48591DE3C19B)	-0.473	-0.764	0.288	38.330	64.636	-189.209	-70.86	53.22	-30.65	-74.970	-36.848	61.544	0.72229	-0.41379	0.54407	-0.10468	30.9	13111	100
2025-3-27 18:44:32.681	WT901BLE68-01(48591DE3C19B)	-0.527	-0.764	0.288	38.330	64.636	-189.209	-72.09	51.41	-32.81	-74.970	-36.848	61.544	0.72229	-0.41379	0.54407	-0.10468	30.9	13111	100
