time	DeviceName	AccX(g)	AccY(g)	AccZ(g)	AsX(°/s)	AsY(°/s)	AsZ(°/s)	AngleX(°)	AngleY(°)	AngleZ(°)	HX(uT)	HY(uT)	HZ(uT)	Q0()	Q1()	Q2()	Q3()	Temperature(°C)	Version()	Battery level(%)
2025-3-27 18:24:19.96	WT901BLE68-01(48591DE3C19B)	-0.167	-0.946	0.288	3.845	-5.127	-5.249	-75.71	15.69	-0.34	-36.946	-40.180	102.998	-0.77859	0.61166	-0.11588	-0.07813	31.1	13111	100
2025-3-27 18:24:19.96	WT901BLE68-01(48591DE3C19B)	-0.167	-0.949	0.287	4.639	-4.150	-7.263	-75.65	15.57	-0.32	-36.946	-40.180	102.998	-0.77859	0.61166	-0.11588	-0.07813	31.1	13111	100
2025-3-27 18:24:19.96	WT901BLE68-01(48591DE3C19B)	-0.169	-0.949	0.287	4.639	-4.150	-7.263	-75.57	15.45	-0.30	-36.946	-40.180	102.998	-0.77859	0.61166	-0.11588	-0.07813	31.1	13111	100
2025-3-27 18:24:19.96	WT901BLE68-01(48591DE3C19B)	-0.169	-0.949	0.278	5.310	-2.136	-8.667	-75.51	15.31	-0.30	-36.946	-40.180	102.998	-0.77859	0.61166	-0.11588	-0.07813	31.1	13111	100
2025-3-27 18:24:19.126	WT901BLE68-01(48591DE3C19B)	-0.169	-0.949	0.278	5.310	-2.136	-8.667	-75.44	15.19	-0.30	-36.946	-40.180	102.998	-0.77859	0.61166	-0.11588	-0.07813	31.1	13111	100
2025-3-27 18:24:19.126	WT901BLE68-01(48591DE3C19B)	-0.169	-0.957	0.275	5.554	-1.282	-9.460	-75.37	15.06	-0.31	-36.946	-40.180	102.998	-0.77859	0.61166	-0.11588	-0.07813	31.1	13111	100
2025-3-27 18:24:19.126	WT901BLE68-01(48591DE3C19B)	-0.169	-0.957	0.275	5.554	-1.282	-9.460	-75.31	14.93	-0.32	-37.240	-41.258	104.370	-0.77859	0.61166	-0.11588	-0.07813	31.1	13111	100
2025-3-27 18:24:19.127	WT901BLE68-01(48591DE3C19B)	-0.169	-0.979	0.282	5.615	-0.366	-10.315	-75.25	14.79	-0.35	-37.240	-41.258	104.370	-0.77859	0.61166	-0.11588	-0.07813	31.1	13111	100
2025-3-27 18:24:19.185	WT901BLE68-01(48591DE3C19B)	-0.147	-0.979	0.282	5.615	-0.366	-10.315	-75.18	14.66	-0.37	-37.240	-41.258	104.370	-0.77859	0.61166	-0.11588	-0.07813	31.1	13111	100
2025-3-27 18:24:19.185	WT901BLE68-01(48591DE3C19B)	-0.147	-0.994	0.291	6.470	0.916	-10.925	-75.12	14.52	-0.41	-37.240	-41.258	104.370	-0.77859	0.61166	-0.11588	-0.07813	31.1	13111	100
2025-3-27 18:24:19.185	WT901BLE68-01(48591DE3C19B)	-0.137	-0.994	0.291	6.470	0.916	-10.925	-75.05	14.39	-0.46	-37.240	-41.258	104.370	-0.77859	0.61166	-0.11588	-0.07813	31.1	13111	100
2025-3-27 18:24:19.185	WT901BLE68-01(48591DE3C19B)	-0.137	-1.002	0.294	7.080	4.944	-11.047	-74.99	14.26	-0.53	-37.240	-41.258	104.370	-0.77859	0.61166	-0.11588	-0.07813	31.1	13111	100
2025-3-27 18:24:19.214	WT901BLE68-01(48591DE3C19B)	-0.124	-1.002	0.294	7.080	4.944	-11.047	-74.93	14.13	-0.62	-37.240	-41.258	104.370	-0.77859	0.61166	-0.11588	-0.07813	31.1	13111	100
2025-3-27 18:24:19.215	WT901BLE68-01(48591DE3C19B)	-0.124	-1.017	0.288	7.813	7.751	-10.986	-74.87	14.02	-0.73	-37.240	-41.258	104.370	-0.77859	0.61166	-0.11588	-0.07813	31.1	13111	100
2025-3-27 18:24:19.215	WT901BLE68-01(48591DE3C19B)	-0.104	-1.017	0.288	7.813	7.751	-10.986	-74.81	13.90	-0.83	-37.240	-41.258	104.370	-0.77859	0.61166	-0.11588	-0.07813	31.1	13111	100
2025-3-27 18:24:19.215	WT901BLE68-01(48591DE3C19B)	-0.104	-1.018	0.276	9.033	10.071	-10.315	-74.75	13.79	-0.96	-37.240	-41.258	104.370	-0.77859	0.61166	-0.11588	-0.07813	31.1	13111	100
2025-3-27 18:24:19.244	WT901BLE68-01(48591DE3C19B)	-0.103	-1.018	0.276	9.033	10.071	-10.315	-74.68	13.68	-1.09	-37.240	-41.258	104.370	-0.77859	0.61166	-0.11588	-0.07813	31.1	13111	100
2025-3-27 18:24:19.244	WT901BLE68-01(48591DE3C19B)	-0.103	-0.993	0.272	9.827	12.329	-10.193	-74.61	13.58	-1.24	-37.240	-41.258	104.370	-0.77859	0.61166	-0.11588	-0.07813	31.1	13111	100
2025-3-27 18:24:19.245	WT901BLE68-01(48591DE3C19B)	-0.113	-0.993	0.272	9.827	12.329	-10.193	-74.55	13.48	-1.40	-37.240	-41.258	104.370	-0.77859	0.61166	-0.11588	-0.07813	31.1	13111	100
2025-3-27 18:24:19.245	WT901BLE68-01(48591DE3C19B)	-0.113	-1.000	0.276	9.705	10.803	-11.292	-74.48	13.36	-1.53	-37.240	-41.258	104.370	-0.77859	0.61166	-0.11588	-0.07813	31.1	13111	100
2025-3-27 18:24:19.306	WT901BLE68-01(48591DE3C19B)	-0.108	-1.000	0.276	9.705	10.803	-11.292	-74.41	13.24	-1.68	-37.240	-41.258	104.370	-0.77859	0.61166	-0.11588	-0.07813	31.1	13111	100
2025-3-27 18:24:19.306	WT901BLE68-01(48591DE3C19B)	-0.108	-0.998	0.286	11.902	7.874	-12.085	-74.32	13.11	-1.79	-37.240	-41.258	104.370	-0.77859	0.61166	-0.11588	-0.07813	31.1	13111	100
2025-3-27 18:24:19.306	WT901BLE68-01(48591DE3C19B)	-0.079	-0.998	0.286	11.902	7.874	-12.085	-74.22	12.98	-1.90	-37.240	-41.258	104.370	-0.77859	0.61166	-0.11588	-0.07813	31.1	13111	100
2025-3-27 18:24:19.306	WT901BLE68-01(48591DE3C19B)	-0.079	-0.962	0.276	15.137	9.460	-12.634	-74.10	12.85	-2.03	-37.240	-41.258	104.370	-0.77859	0.61166	-0.11588	-0.07813	31.1	13111	100
2025-3-27 18:24:19.335	WT901BLE68-01(48591DE3C19B)	-0.050	-0.962	0.276	15.137	9.460	-12.634	-73.98	12.72	-2.16	-37.240	-41.258	104.370	-0.77859	0.61166	-0.11588	-0.07813	31.1	13111	100
2025-3-27 18:24:19.335	WT901BLE68-01(48591DE3C19B)	-0.025	-0.910	0.265	16.602	16.235	-12.146	-73.86	12.61	-2.36	-37.240	-41.258	104.370	-0.77859	0.61166	-0.11588	-0.07813	31.1	13111	100
2025-3-27 18:24:19.335	WT901BLE68-01(48591DE3C19B)	-0.021	-0.455	0.132	16.602	16.235	-12.146	-73.73	12.50	-2.55	-37.240	-41.258	104.370	-0.77859	0.61166	-0.11588	-0.07813	31.1	13111	100
2025-3-27 18:24:19.335	WT901BLE68-01(48591DE3C19B)	-0.017	-0.866	0.250	16.052	24.597	-11.230	-73.63	12.42	-2.83	-37.240	-41.258	104.370	-0.79752	0.59296	-0.10175	-0.04388	31.1	13111	100
2025-3-27 18:24:19.364	WT901BLE68-01(48591DE3C19B)	-0.017	-0.831	0.242	12.634	33.081	-11.353	-73.56	12.35	-3.15	-37.240	-41.258	104.370	-0.79752	0.59296	-0.10175	-0.04388	31.1	13111	100
2025-3-27 18:24:19.365	WT901BLE68-01(48591DE3C19B)	-0.055	-0.831	0.242	12.634	33.081	-11.353	-73.52	12.29	-3.51	-37.240	-41.258	104.370	-0.79752	0.59296	-0.10175	-0.04388	31.1	13111	100
2025-3-27 18:24:19.365	WT901BLE68-01(48591DE3C19B)	-0.055	-0.857	0.246	5.737	38.086	-13.916	-73.50	12.22	-3.89	-37.240	-41.258	104.370	-0.79752	0.59296	-0.10175	-0.04388	31.1	13111	100
2025-3-27 18:24:19.365	WT901BLE68-01(48591DE3C19B)	-0.127	-0.857	0.246	5.737	38.086	-13.916	-73.54	12.15	-4.31	-37.240	-41.258	104.370	-0.79752	0.59296	-0.10175	-0.04388	31.1	13111	100
2025-3-27 18:24:19.455	WT901BLE68-01(48591DE3C19B)	-0.127	-0.944	0.288	-1.465	32.959	-19.470	-73.60	12.05	-4.71	-37.240	-41.258	104.370	-0.79752	0.59296	-0.10175	-0.04388	31.1	13111	100
2025-3-27 18:24:19.455	WT901BLE68-01(48591DE3C19B)	-0.224	-0.944	0.288	-1.465	32.959	-19.470	-73.70	11.91	-5.09	-37.240	-41.258	104.370	-0.79752	0.59296	-0.10175	-0.04388	31.1	13111	100
2025-3-27 18:24:19.455	WT901BLE68-01(48591DE3C19B)	-0.224	-1.054	0.351	-5.249	20.264	-26.367	-73.80	11.72	-5.42	-37.240	-41.258	104.370	-0.79752	0.59296	-0.10175	-0.04388	31.1	13111	100
2025-3-27 18:24:19.456	WT901BLE68-01(48591DE3C19B)	-0.275	-1.054	0.351	-5.249	20.264	-26.367	-73.91	11.49	-5.70	-37.240	-41.258	104.370	-0.79752	0.59296	-0.10175	-0.04388	31.1	13111	100
2025-3-27 18:24:19.635	WT901BLE68-01(48591DE3C19B)	-0.275	-1.106	0.385	-4.272	3.723	-32.959	-73.99	11.21	-5.89	-37.240	-41.258	104.370	-0.79752	0.59296	-0.10175	-0.04388	31.1	13111	100
2025-3-27 18:24:19.636	WT901BLE68-01(48591DE3C19B)	-0.267	-1.106	0.385	-4.272	3.723	-32.959	-74.05	10.88	-6.03	-37.240	-41.258	104.370	-0.79752	0.59296	-0.10175	-0.04388	31.1	13111	100
2025-3-27 18:24:19.636	WT901BLE68-01(48591DE3C19B)	-0.267	-1.042	0.379	-2.136	-10.864	-37.720	-74.08	10.52	-6.09	-37.240	-41.258	104.370	-0.79752	0.59296	-0.10175	-0.04388	31.1	13111	100
2025-3-27 18:24:19.636	WT901BLE68-01(48591DE3C19B)	-0.243	-1.042	0.379	-2.136	-10.864	-37.720	-74.09	10.12	-6.09	-37.240	-41.258	104.370	-0.79752	0.59296	-0.10175	-0.04388	31.1	13111	100
2025-3-27 18:24:19.636	WT901BLE68-01(48591DE3C19B)	-0.243	-0.948	0.354	-1.709	-16.602	-39.551	-74.10	9.70	-6.06	-37.240	-41.258	104.370	-0.79752	0.59296	-0.10175	-0.04388	31.1	13111	100
2025-3-27 18:24:19.636	WT901BLE68-01(48591DE3C19B)	-0.232	-0.948	0.354	-1.709	-16.602	-39.551	-74.09	9.28	-6.02	-37.240	-41.258	104.370	-0.79752	0.59296	-0.10175	-0.04388	31.1	13111	100
2025-3-27 18:24:19.637	WT901BLE68-01(48591DE3C19B)	-0.232	-0.859	0.330	-1.282	-17.029	-39.490	-74.09	8.86	-5.97	-37.240	-41.258	104.370	-0.79752	0.59296	-0.10175	-0.04388	31.1	13111	100
2025-3-27 18:24:19.637	WT901BLE68-01(48591DE3C19B)	-0.221	-0.859	0.330	-1.282	-17.029	-39.490	-74.08	8.44	-5.91	-37.240	-41.258	104.370	-0.79752	0.59296	-0.10175	-0.04388	31.1	13111	100
2025-3-27 18:24:19.638	WT901BLE68-01(48591DE3C19B)	-0.221	-0.793	0.328	-1.160	-15.137	-37.476	-74.06	8.04	-5.86	-37.240	-41.258	104.370	-0.79752	0.59296	-0.10175	-0.04388	31.1	13111	100
2025-3-27 18:24:19.639	WT901BLE68-01(48591DE3C19B)	-0.203	-0.793	0.328	-1.160	-15.137	-37.476	-74.05	7.66	-5.82	-37.240	-41.258	104.370	-0.79752	0.59296	-0.10175	-0.04388	31.1	13111	100
2025-3-27 18:24:19.639	WT901BLE68-01(48591DE3C19B)	-0.203	-0.750	0.331	-1.831	-9.216	-35.522	-74.04	7.30	-5.81	-37.240	-41.258	104.370	-0.79752	0.59296	-0.10175	-0.04388	31.1	13111	100
2025-3-27 18:24:19.639	WT901BLE68-01(48591DE3C19B)	-0.198	-0.750	0.331	-1.831	-9.216	-35.522	-74.04	6.96	-5.82	-37.240	-41.258	104.370	-0.79752	0.59296	-0.10175	-0.04388	31.1	13111	100
2025-3-27 18:24:19.639	WT901BLE68-01(48591DE3C19B)	-0.198	-0.748	0.325	-2.258	0.305	-33.020	-74.04	6.65	-5.87	-37.240	-41.258	104.370	-0.79752	0.59296	-0.10175	-0.04388	31.1	13111	100
2025-3-27 18:24:19.639	WT901BLE68-01(48591DE3C19B)	-0.218	-0.748	0.325	-2.258	0.305	-33.020	-74.04	6.36	-5.97	-37.240	-41.258	104.370	-0.79752	0.59296	-0.10175	-0.04388	31.1	13111	100
2025-3-27 18:24:19.639	WT901BLE68-01(48591DE3C19B)	-0.218	-0.754	0.318	-1.587	8.240	-30.090	-74.05	6.11	-6.10	-37.240	-41.258	104.370	-0.79752	0.59296	-0.10175	-0.04388	31.1	13111	100
2025-3-27 18:24:19.640	WT901BLE68-01(48591DE3C19B)	-0.258	-0.754	0.318	-1.587	8.240	-30.090	-74.05	5.88	-6.27	-37.240	-41.258	104.370	-0.79752	0.59296	-0.10175	-0.04388	31.1	13111	100
2025-3-27 18:24:19.640	WT901BLE68-01(48591DE3C19B)	-0.258	-0.763	0.336	-1.038	10.498	-27.771	-74.05	5.67	-6.45	-37.240	-41.258	104.370	-0.79752	0.59296	-0.10175	-0.04388	31.1	13111	100
2025-3-27 18:24:19.640	WT901BLE68-01(48591DE3C19B)	-0.314	-0.763	0.336	-1.038	10.498	-27.771	-74.05	5.47	-6.63	-37.240	-41.258	104.370	-0.79752	0.59296	-0.10175	-0.04388	31.1	13111	100
2025-3-27 18:24:19.640	WT901BLE68-01(48591DE3C19B)	-0.314	-0.794	0.374	-1.404	5.737	-24.902	-74.04	5.29	-6.79	-37.240	-41.258	104.370	-0.79752	0.59296	-0.10175	-0.04388	31.1	13111	100
2025-3-27 18:24:19.640	WT901BLE68-01(48591DE3C19B)	-0.350	-0.794	0.374	-1.404	5.737	-24.902	-74.03	5.12	-6.92	-37.240	-41.258	104.370	-0.79752	0.59296	-0.10175	-0.04388	31.1	13111	100
2025-3-27 18:24:19.697	WT901BLE68-01(48591DE3C19B)	-0.350	-0.827	0.416	-0.488	-3.967	-22.095	-74.01	4.95	-7.00	-37.240	-41.258	104.370	-0.79752	0.59296	-0.10175	-0.04388	31.1	13111	100
2025-3-27 18:24:19.697	WT901BLE68-01(48591DE3C19B)	-0.355	-0.827	0.416	-0.488	-3.967	-22.095	-73.98	4.80	-7.03	-37.240	-41.258	104.370	-0.79752	0.59296	-0.10175	-0.04388	31.1	13111	100
2025-3-27 18:24:19.697	WT901BLE68-01(48591DE3C19B)	-0.355	-0.860	0.449	0.854	-14.404	-19.104	-73.93	4.64	-7.00	-37.240	-41.258	104.370	-0.79752	0.59296	-0.10175	-0.04388	31.1	13111	100
2025-3-27 18:24:19.697	WT901BLE68-01(48591DE3C19B)	-0.355	-0.860	0.449	0.854	-14.404	-19.104	-73.87	4.49	-6.93	-37.240	-41.258	104.370	-0.79752	0.59296	-0.10175	-0.04388	31.1	13111	100
2025-3-27 18:24:19.697	WT901BLE68-01(48591DE3C19B)	-0.355	-0.910	0.485	3.113	-22.217	-16.174	-73.79	4.34	-6.81	-39.200	-35.770	105.644	-0.79752	0.59296	-0.10175	-0.04388	31.1	13111	100
2025-3-27 18:24:19.697	WT901BLE68-01(48591DE3C19B)	-0.338	-0.910	0.485	3.113	-22.217	-16.174	-73.70	4.20	-6.65	-39.200	-35.770	105.644	-0.79752	0.59296	-0.10175	-0.04388	31.1	13111	100
2025-3-27 18:24:19.697	WT901BLE68-01(48591DE3C19B)	-0.338	-0.953	0.498	6.531	-27.039	-12.512	-73.59	4.07	-6.46	-39.200	-35.770	105.644	-0.79752	0.59296	-0.10175	-0.04388	31.1	13111	100
2025-3-27 18:24:19.698	WT901BLE68-01(48591DE3C19B)	-0.302	-0.953	0.498	6.531	-27.039	-12.512	-73.45	3.95	-6.25	-39.200	-35.770	105.644	-0.79752	0.59296	-0.10175	-0.04388	31.1	13111	100
2025-3-27 18:24:19.726	WT901BLE68-01(48591DE3C19B)	-0.302	-0.974	0.496	9.033	-26.001	-8.118	-73.31	3.86	-6.03	-39.200	-35.770	105.644	-0.79752	0.59296	-0.10175	-0.04388	31.1	13111	100
2025-3-27 18:24:19.727	WT901BLE68-01(48591DE3C19B)	-0.254	-0.974	0.496	9.033	-26.001	-8.118	-73.15	3.78	-5.82	-39.200	-35.770	105.644	-0.79752	0.59296	-0.10175	-0.04388	31.1	13111	100
2025-3-27 18:24:19.727	WT901BLE68-01(48591DE3C19B)	-0.254	-1.021	0.449	7.751	-17.700	-4.272	-73.00	3.74	-5.64	-39.200	-35.770	105.644	-0.80334	0.59250	-0.05542	0.02011	31.1	13111	100
2025-3-27 18:24:19.727	WT901BLE68-01(48591DE3C19B)	-0.223	-1.021	0.449	7.751	-17.700	-4.272	-72.86	3.72	-5.49	-39.200	-35.770	105.644	-0.80334	0.59250	-0.05542	0.02011	31.1	13111	100
2025-3-27 18:24:19.815	WT901BLE68-01(48591DE3C19B)	-0.223	-1.108	0.419	5.127	-5.371	-2.014	-72.75	3.72	-5.40	-39.200	-35.770	105.644	-0.80334	0.59250	-0.05542	0.02011	31.1	13111	100
2025-3-27 18:24:19.815	WT901BLE68-01(48591DE3C19B)	-0.226	-1.108	0.419	5.127	-5.371	-2.014	-72.65	3.76	-5.36	-39.200	-35.770	105.644	-0.80334	0.59250	-0.05542	0.02011	31.1	13111	100
2025-3-27 18:24:19.815	WT901BLE68-01(48591DE3C19B)	-0.226	-1.215	0.423	2.686	6.409	-1.343	-72.56	3.81	-5.38	-39.200	-35.770	105.644	-0.80334	0.59250	-0.05542	0.02011	31.1	13111	100
2025-3-27 18:24:19.815	WT901BLE68-01(48591DE3C19B)	-0.239	-1.215	0.423	2.686	6.409	-1.343	-72.51	3.88	-5.45	-39.200	-35.770	105.644	-0.80334	0.59250	-0.05542	0.02011	31.1	13111	100
2025-3-27 18:24:19.817	WT901BLE68-01(48591DE3C19B)	-0.239	-1.296	0.420	0.244	18.127	-3.601	-72.47	3.95	-5.58	-39.200	-35.770	105.644	-0.80334	0.59250	-0.05542	0.02011	31.1	13111	100
2025-3-27 18:24:19.817	WT901BLE68-01(48591DE3C19B)	-0.254	-1.296	0.420	0.244	18.127	-3.601	-72.45	4.03	-5.77	-39.200	-35.770	105.644	-0.80334	0.59250	-0.05542	0.02011	31.1	13111	100
2025-3-27 18:24:19.817	WT901BLE68-01(48591DE3C19B)	-0.254	-1.355	0.407	-3.906	29.175	-6.226	-72.48	4.11	-6.08	-39.200	-35.770	105.644	-0.80334	0.59250	-0.05542	0.02011	31.1	13111	100
2025-3-27 18:24:19.817	WT901BLE68-01(48591DE3C19B)	-0.287	-1.355	0.407	-3.906	29.175	-6.226	-72.52	4.19	-6.38	-39.200	-35.770	105.644	-0.80334	0.59250	-0.05542	0.02011	31.1	13111	100
2025-3-27 18:24:19.846	WT901BLE68-01(48591DE3C19B)	-0.287	-1.395	0.406	-8.484	39.490	-10.437	-72.62	4.26	-6.80	-39.200	-35.770	105.644	-0.80334	0.59250	-0.05542	0.02011	31.1	13111	100
2025-3-27 18:24:19.846	WT901BLE68-01(48591DE3C19B)	-0.371	-1.395	0.406	-8.484	39.490	-10.437	-72.71	4.32	-7.21	-39.200	-35.770	105.644	-0.80334	0.59250	-0.05542	0.02011	31.1	13111	100
2025-3-27 18:24:19.846	WT901BLE68-01(48591DE3C19B)	-0.371	-1.433	0.426	-14.282	40.771	-16.602	-72.88	4.33	-7.66	-39.200	-35.770	105.644	-0.80334	0.59250	-0.05542	0.02011	31.1	13111	100
2025-3-27 18:24:19.846	WT901BLE68-01(48591DE3C19B)	-0.458	-1.433	0.426	-14.282	40.771	-16.602	-73.04	4.34	-8.10	-39.200	-35.770	105.644	-0.80334	0.59250	-0.05542	0.02011	31.1	13111	100
2025-3-27 18:24:19.907	WT901BLE68-01(48591DE3C19B)	-0.458	-1.405	0.462	-17.090	30.090	-21.545	-73.22	4.27	-8.46	-39.200	-35.770	105.644	-0.80334	0.59250	-0.05542	0.02011	31.1	13111	100
2025-3-27 18:24:19.907	WT901BLE68-01(48591DE3C19B)	-0.503	-1.405	0.462	-17.090	30.090	-21.545	-73.41	4.21	-8.81	-39.200	-35.770	105.644	-0.80334	0.59250	-0.05542	0.02011	31.1	13111	100
2025-3-27 18:24:19.907	WT901BLE68-01(48591DE3C19B)	-0.503	-1.270	0.468	-17.090	10.620	-20.752	-73.57	4.10	-8.98	-39.200	-35.770	105.644	-0.80334	0.59250	-0.05542	0.02011	31.1	13111	100
2025-3-27 18:24:19.907	WT901BLE68-01(48591DE3C19B)	-0.483	-1.270	0.468	-17.090	10.620	-20.752	-73.73	4.00	-9.15	-39.200	-35.770	105.644	-0.80334	0.59250	-0.05542	0.02011	31.1	13111	100
2025-3-27 18:24:19.936	WT901BLE68-01(48591DE3C19B)	-0.483	-1.029	0.419	-14.954	-12.390	-8.057	-73.86	3.96	-9.06	-39.200	-35.770	105.644	-0.80334	0.59250	-0.05542	0.02011	31.1	13111	100
2025-3-27 18:24:19.936	WT901BLE68-01(48591DE3C19B)	-0.435	-1.029	0.419	-14.954	-12.390	-8.057	-73.98	3.92	-8.96	-39.200	-35.770	105.644	-0.80334	0.59250	-0.05542	0.02011	31.1	13111	100
2025-3-27 18:24:19.936	WT901BLE68-01(48591DE3C19B)	-0.435	-0.755	0.327	-14.526	-32.959	15.564	-74.08	4.05	-8.61	-39.200	-35.770	105.644	-0.80334	0.59250	-0.05542	0.02011	31.1	13111	100
2025-3-27 18:24:19.937	WT901BLE68-01(48591DE3C19B)	-0.382	-0.755	0.327	-14.526	-32.959	15.564	-74.17	4.19	-8.26	-42.140	-35.476	107.114	-0.80334	0.59250	-0.05542	0.02011	31.1	13111	100
2025-3-27 18:24:19.966	WT901BLE68-01(48591DE3C19B)	-0.382	-0.594	0.210	-22.644	-53.284	36.133	-74.32	4.48	-7.65	-42.140	-35.476	107.114	-0.80334	0.59250	-0.05542	0.02011	31.1	13111	100
2025-3-27 18:24:19.966	WT901BLE68-01(48591DE3C19B)	-0.274	-0.594	0.210	-22.644	-53.284	36.133	-74.47	4.77	-7.05	-42.140	-35.476	107.114	-0.80334	0.59250	-0.05542	0.02011	31.1	13111	100
2025-3-27 18:24:19.966	WT901BLE68-01(48591DE3C19B)	-0.274	-0.619	0.109	-31.982	-75.745	54.565	-74.69	5.19	-6.17	-42.140	-35.476	107.114	-0.80334	0.59250	-0.05542	0.02011	31.1	13111	100
2025-3-27 18:24:19.966	WT901BLE68-01(48591DE3C19B)	-0.189	-0.619	0.109	-31.982	-75.745	54.565	-74.90	5.60	-5.30	-42.140	-35.476	107.114	-0.80334	0.59250	-0.05542	0.02011	31.1	13111	100
2025-3-27 18:24:20.25	WT901BLE68-01(48591DE3C19B)	-0.189	-0.761	0.072	-35.522	-96.985	67.871	-75.12	6.09	-4.19	-42.140	-35.476	107.114	-0.80334	0.59250	-0.05542	0.02011	31.1	13111	100
2025-3-27 18:24:20.25	WT901BLE68-01(48591DE3C19B)	-0.121	-0.761	0.072	-35.522	-96.985	67.871	-75.34	6.58	-3.08	-42.140	-35.476	107.114	-0.80334	0.59250	-0.05542	0.02011	31.1	13111	100
2025-3-27 18:24:20.25	WT901BLE68-01(48591DE3C19B)	-0.121	-0.886	0.056	-28.137	-104.187	76.660	-75.47	7.12	-1.87	-42.140	-35.476	107.114	-0.80334	0.59250	-0.05542	0.02011	31.1	13111	100
2025-3-27 18:24:20.25	WT901BLE68-01(48591DE3C19B)	-0.085	-0.886	0.056	-28.137	-104.187	76.660	-75.59	7.66	-0.66	-42.140	-35.476	107.114	-0.80334	0.59250	-0.05542	0.02011	31.1	13111	100
2025-3-27 18:24:20.53	WT901BLE68-01(48591DE3C19B)	-0.085	-0.883	0.087	-15.930	-96.802	83.130	-75.60	8.28	0.49	-42.140	-35.476	107.114	-0.80334	0.59250	-0.05542	0.02011	31.1	13111	100
2025-3-27 18:24:20.54	WT901BLE68-01(48591DE3C19B)	-0.058	-0.883	0.087	-15.930	-96.802	83.130	-75.59	8.88	1.65	-42.140	-35.476	107.114	-0.80334	0.59250	-0.05542	0.02011	31.1	13111	100
2025-3-27 18:24:20.54	WT901BLE68-01(48591DE3C19B)	-0.058	-0.855	0.119	-7.324	-80.994	82.703	-75.51	9.51	2.65	-42.140	-35.476	107.114	-0.80334	0.59250	-0.05542	0.02011	31.1	13111	100
2025-3-27 18:24:20.54	WT901BLE68-01(48591DE3C19B)	-0.009	-0.855	0.119	-7.324	-80.994	82.703	-75.43	10.13	3.66	-42.140	-35.476	107.114	-0.80334	0.59250	-0.05542	0.02011	31.1	13111	100
2025-3-27 18:24:20.145	WT901BLE68-01(48591DE3C19B)	-0.009	-0.850	0.127	-0.427	-57.129	79.834	-75.31	10.77	4.43	-42.140	-35.476	107.114	-0.80334	0.59250	-0.05542	0.02011	31.1	13111	100
2025-3-27 18:24:20.145	WT901BLE68-01(48591DE3C19B)	0.024	-0.850	0.127	-0.427	-57.129	79.834	-75.18	11.40	5.20	-42.140	-35.476	107.114	-0.80334	0.59250	-0.05542	0.02011	31.1	13111	100
2025-3-27 18:24:20.145	WT901BLE68-01(48591DE3C19B)	0.024	-0.808	0.112	5.859	-26.672	75.867	-75.05	12.06	5.66	-42.140	-35.476	107.114	-0.80334	0.59250	-0.05542	0.02011	31.1	13111	100
2025-3-27 18:24:20.145	WT901BLE68-01(48591DE3C19B)	0.039	-0.808	0.112	5.859	-26.672	75.867	-74.92	12.70	6.12	-42.140	-35.476	107.114	-0.80334	0.59250	-0.05542	0.02011	31.1	13111	100
2025-3-27 18:24:20.146	WT901BLE68-01(48591DE3C19B)	0.039	-0.752	0.104	7.202	0.916	72.449	-74.83	13.38	6.30	-42.140	-35.476	107.114	-0.80334	0.59250	-0.05542	0.02011	31.1	13111	100
2025-3-27 18:24:20.146	WT901BLE68-01(48591DE3C19B)	0.025	-0.752	0.104	7.202	0.916	72.449	-74.75	14.04	6.49	-42.140	-35.476	107.114	-0.80334	0.59250	-0.05542	0.02011	31.1	13111	100
2025-3-27 18:24:20.146	WT901BLE68-01(48591DE3C19B)	0.025	-0.750	0.099	4.028	21.851	70.068	-74.75	14.72	6.45	-42.140	-35.476	107.114	-0.80334	0.59250	-0.05542	0.02011	31.1	13111	100
2025-3-27 18:24:20.147	WT901BLE68-01(48591DE3C19B)	0.012	-0.750	0.099	4.028	21.851	70.068	-74.75	15.40	6.42	-42.140	-35.476	107.114	-0.80334	0.59250	-0.05542	0.02011	31.1	13111	100
2025-3-27 18:24:20.179	WT901BLE68-01(48591DE3C19B)	0.012	-0.785	0.116	-0.488	28.625	65.979	-74.81	16.05	6.31	-42.140	-35.476	107.114	-0.80334	0.59250	-0.05542	0.02011	31.1	13111	100
2025-3-27 18:24:20.179	WT901BLE68-01(48591DE3C19B)	0.015	-0.785	0.116	-0.488	28.625	65.979	-74.88	16.69	6.19	-42.140	-35.476	107.114	-0.80334	0.59250	-0.05542	0.02011	31.1	13111	100
2025-3-27 18:24:20.179	WT901BLE68-01(48591DE3C19B)	0.015	-0.894	0.130	-7.996	21.790	60.425	-75.01	17.25	6.13	-42.140	-35.476	107.114	-0.80334	0.59250	-0.05542	0.02011	31.1	13111	100
2025-3-27 18:24:20.179	WT901BLE68-01(48591DE3C19B)	0.012	-0.894	0.130	-7.996	21.790	60.425	-75.14	17.80	6.06	-42.140	-35.476	107.114	-0.77692	0.60803	-0.09061	-0.13565	31.1	13111	100
2025-3-27 18:24:20.235	WT901BLE68-01(48591DE3C19B)	0.012	-1.130	0.136	-13.916	8.179	52.856	-75.30	18.25	6.11	-42.140	-35.476	107.114	-0.77692	0.60803	-0.09061	-0.13565	31.1	13111	100
2025-3-27 18:24:20.235	WT901BLE68-01(48591DE3C19B)	0.051	-1.130	0.136	-13.916	8.179	52.856	-75.45	18.68	6.16	-42.140	-35.476	107.114	-0.77692	0.60803	-0.09061	-0.13565	31.1	13111	100
2025-3-27 18:24:20.235	WT901BLE68-01(48591DE3C19B)	0.051	-1.426	0.105	-14.771	-5.066	40.771	-75.59	18.96	6.31	-42.140	-35.476	107.114	-0.77692	0.60803	-0.09061	-0.13565	31.1	13111	100
2025-3-27 18:24:20.235	WT901BLE68-01(48591DE3C19B)	0.127	-1.426	0.105	-14.771	-5.066	40.771	-75.73	19.24	6.45	-42.140	-35.476	107.114	-0.77692	0.60803	-0.09061	-0.13565	31.1	13111	100
2025-3-27 18:24:20.266	WT901BLE68-01(48591DE3C19B)	0.127	-1.628	0.087	-3.052	-13.367	28.198	-75.73	19.37	6.65	-42.140	-35.476	107.114	-0.77692	0.60803	-0.09061	-0.13565	31.1	13111	100
2025-3-27 18:24:20.267	WT901BLE68-01(48591DE3C19B)	0.147	-1.628	0.087	-3.052	-13.367	28.198	-75.75	19.50	6.85	-42.140	-35.476	107.114	-0.77692	0.60803	-0.09061	-0.13565	31.1	13111	100
2025-3-27 18:24:20.267	WT901BLE68-01(48591DE3C19B)	0.132	-1.677	0.084	0.671	-14.526	13.733	-75.73	19.47	7.02	-42.140	-35.476	107.114	-0.77692	0.60803	-0.09061	-0.13565	31.1	13111	100
2025-3-27 18:24:20.267	WT901BLE68-01(48591DE3C19B)	0.132	-1.780	0.083	6.042	-10.986	1.648	-75.70	19.39	7.16	-42.140	-35.476	107.114	-0.77692	0.60803	-0.09061	-0.13565	31.1	13111	100
2025-3-27 18:24:20.294	WT901BLE68-01(48591DE3C19B)	0.175	-1.780	0.083	6.042	-10.986	1.648	-75.66	19.25	7.26	-42.140	-35.476	107.114	-0.77692	0.60803	-0.09061	-0.13565	31.1	13111	100
2025-3-27 18:24:20.295	WT901BLE68-01(48591DE3C19B)	0.175	-1.731	0.129	15.686	-8.118	-6.897	-75.59	19.08	7.33	-42.140	-35.476	107.114	-0.77692	0.60803	-0.09061	-0.13565	31.1	13111	100
2025-3-27 18:24:20.295	WT901BLE68-01(48591DE3C19B)	0.296	-1.731	0.129	15.686	-8.118	-6.897	-75.47	18.86	7.38	-42.140	-35.476	107.114	-0.77692	0.60803	-0.09061	-0.13565	31.1	13111	100
2025-3-27 18:24:20.295	WT901BLE68-01(48591DE3C19B)	0.296	-1.609	0.162	25.208	2.441	-14.160	-75.33	18.63	7.36	-42.140	-35.476	107.114	-0.77692	0.60803	-0.09061	-0.13565	31.1	13111	100
2025-3-27 18:24:20.355	WT901BLE68-01(48591DE3C19B)	0.412	-1.609	0.162	25.208	2.441	-14.160	-75.16	18.36	7.28	-42.140	-35.476	107.114	-0.77692	0.60803	-0.09061	-0.13565	31.1	13111	100
2025-3-27 18:24:20.356	WT901BLE68-01(48591DE3C19B)	0.412	-1.479	0.111	33.142	28.931	-21.912	-74.99	18.09	7.06	-42.140	-35.476	107.114	-0.77692	0.60803	-0.09061	-0.13565	31.1	13111	100
2025-3-27 18:24:20.356	WT901BLE68-01(48591DE3C19B)	0.396	-1.479	0.111	33.142	28.931	-21.912	-74.84	17.81	6.69	-42.140	-35.476	107.114	-0.77692	0.60803	-0.09061	-0.13565	31.1	13111	100
2025-3-27 18:24:20.356	WT901BLE68-01(48591DE3C19B)	0.396	-1.198	0.095	39.124	63.538	-28.809	-74.71	17.55	6.13	-42.140	-35.476	107.114	-0.77692	0.60803	-0.09061	-0.13565	31.1	13111	100
2025-3-27 18:24:20.387	WT901BLE68-01(48591DE3C19B)	0.262	-1.198	0.095	39.124	63.538	-28.809	-74.60	17.29	5.39	-39.494	-46.452	107.310	-0.77692	0.60803	-0.09061	-0.13565	31.1	13111	100
2025-3-27 18:24:20.387	WT901BLE68-01(48591DE3C19B)	0.262	-0.935	0.112	31.250	87.952	-40.710	-74.57	17.01	4.51	-39.494	-46.452	107.310	-0.77692	0.60803	-0.09061	-0.13565	31.1	13111	100
2025-3-27 18:24:20.387	WT901BLE68-01(48591DE3C19B)	0.142	-0.935	0.112	31.250	87.952	-40.710	-74.61	16.69	3.49	-39.494	-46.452	107.310	-0.77692	0.60803	-0.09061	-0.13565	31.1	13111	100
2025-3-27 18:24:20.387	WT901BLE68-01(48591DE3C19B)	0.142	-0.811	0.151	23.438	98.816	-52.368	-74.71	16.34	2.41	-39.494	-46.452	107.310	-0.77692	0.60803	-0.09061	-0.13565	31.1	13111	100
2025-3-27 18:24:20.417	WT901BLE68-01(48591DE3C19B)	0.034	-0.811	0.151	23.438	98.816	-52.368	-74.85	15.94	1.26	-39.494	-46.452	107.310	-0.77692	0.60803	-0.09061	-0.13565	31.1	13111	100
2025-3-27 18:24:20.417	WT901BLE68-01(48591DE3C19B)	0.034	-0.774	0.184	19.653	96.558	-59.326	-75.00	15.51	0.12	-39.494	-46.452	107.310	-0.77692	0.60803	-0.09061	-0.13565	31.1	13111	100
2025-3-27 18:24:20.418	WT901BLE68-01(48591DE3C19B)	-0.032	-0.774	0.184	19.653	96.558	-59.326	-75.15	15.04	-1.02	-39.494	-46.452	107.310	-0.77692	0.60803	-0.09061	-0.13565	31.1	13111	100
2025-3-27 18:24:20.418	WT901BLE68-01(48591DE3C19B)	-0.032	-0.781	0.215	17.273	83.496	-60.791	-75.28	14.55	-2.08	-39.494	-46.452	107.310	-0.77692	0.60803	-0.09061	-0.13565	31.1	13111	100
2025-3-27 18:24:20.480	WT901BLE68-01(48591DE3C19B)	-0.087	-0.781	0.215	17.273	83.496	-60.791	-75.40	14.05	-3.08	-39.494	-46.452	107.310	-0.77692	0.60803	-0.09061	-0.13565	31.1	13111	100
2025-3-27 18:24:20.481	WT901BLE68-01(48591DE3C19B)	-0.087	-0.823	0.226	14.954	64.148	-61.279	-75.49	13.52	-3.98	-39.494	-46.452	107.310	-0.77692	0.60803	-0.09061	-0.13565	31.1	13111	100
2025-3-27 18:24:20.481	WT901BLE68-01(48591DE3C19B)	-0.129	-0.823	0.226	14.954	64.148	-61.279	-75.56	12.97	-4.78	-39.494	-46.452	107.310	-0.77692	0.60803	-0.09061	-0.13565	31.1	13111	100
2025-3-27 18:24:20.481	WT901BLE68-01(48591DE3C19B)	-0.129	-0.821	0.220	14.465	43.091	-62.988	-75.60	12.40	-5.47	-39.494	-46.452	107.310	-0.77692	0.60803	-0.09061	-0.13565	31.1	13111	100
2025-3-27 18:24:20.504	WT901BLE68-01(48591DE3C19B)	-0.151	-0.821	0.220	14.465	43.091	-62.988	-75.61	11.80	-6.06	-39.494	-46.452	107.310	-0.77692	0.60803	-0.09061	-0.13565	31.1	13111	100
2025-3-27 18:24:20.504	WT901BLE68-01(48591DE3C19B)	-0.151	-0.771	0.203	13.672	21.973	-66.040	-75.59	11.17	-6.55	-39.494	-46.452	107.310	-0.77692	0.60803	-0.09061	-0.13565	31.1	13111	100
2025-3-27 18:24:20.504	WT901BLE68-01(48591DE3C19B)	-0.159	-0.771	0.203	13.672	21.973	-66.040	-75.55	10.51	-6.93	-39.494	-46.452	107.310	-0.77692	0.60803	-0.09061	-0.13565	31.1	13111	100
2025-3-27 18:24:20.504	WT901BLE68-01(48591DE3C19B)	-0.159	-0.704	0.203	11.963	4.395	-69.092	-75.49	9.83	-7.23	-39.494	-46.452	107.310	-0.77692	0.60803	-0.09061	-0.13565	31.1	13111	100
2025-3-27 18:24:20.535	WT901BLE68-01(48591DE3C19B)	-0.146	-0.704	0.203	11.963	4.395	-69.092	-75.43	9.12	-7.45	-39.494	-46.452	107.310	-0.77692	0.60803	-0.09061	-0.13565	31.1	13111	100
2025-3-27 18:24:20.535	WT901BLE68-01(48591DE3C19B)	-0.146	-0.630	0.222	9.155	-4.578	-71.106	-75.37	8.40	-7.62	-39.494	-46.452	107.310	-0.77692	0.60803	-0.09061	-0.13565	31.1	13111	100
2025-3-27 18:24:20.535	WT901BLE68-01(48591DE3C19B)	-0.140	-0.630	0.222	9.155	-4.578	-71.106	-75.31	7.66	-7.76	-39.494	-46.452	107.310	-0.77692	0.60803	-0.09061	-0.13565	31.1	13111	100
2025-3-27 18:24:20.535	WT901BLE68-01(48591DE3C19B)	-0.140	-0.572	0.254	6.897	-2.563	-72.571	-75.26	6.94	-7.90	-39.494	-46.452	107.310	-0.77692	0.60803	-0.09061	-0.13565	31.1	13111	100
2025-3-27 18:24:20.594	WT901BLE68-01(48591DE3C19B)	-0.176	-0.572	0.254	6.897	-2.563	-72.571	-75.22	6.21	-8.06	-39.494	-46.452	107.310	-0.77692	0.60803	-0.09061	-0.13565	31.1	13111	100
2025-3-27 18:24:20.595	WT901BLE68-01(48591DE3C19B)	-0.176	-0.531	0.286	5.432	3.967	-73.792	-75.18	5.50	-8.25	-39.494	-46.452	107.310	-0.79153	0.60501	-0.07990	0.03036	31.1	13111	100
2025-3-27 18:24:20.595	WT901BLE68-01(48591DE3C19B)	-0.240	-0.531	0.286	5.432	3.967	-73.792	-75.14	4.80	-8.47	-39.494	-46.452	107.310	-0.79153	0.60501	-0.07990	0.03036	31.1	13111	100
2025-3-27 18:24:20.595	WT901BLE68-01(48591DE3C19B)	-0.240	-0.505	0.307	3.967	5.432	-74.707	-75.10	4.10	-8.70	-39.494	-46.452	107.310	-0.79153	0.60501	-0.07990	0.03036	31.1	13111	100
2025-3-27 18:24:20.624	WT901BLE68-01(48591DE3C19B)	-0.305	-0.505	0.307	3.967	5.432	-74.707	-75.06	3.42	-8.94	-39.494	-46.452	107.310	-0.79153	0.60501	-0.07990	0.03036	31.1	13111	100
2025-3-27 18:24:20.624	WT901BLE68-01(48591DE3C19B)	-0.305	-0.524	0.333	0.427	-2.197	-75.439	-75.03	2.74	-9.15	-39.494	-46.452	107.310	-0.79153	0.60501	-0.07990	0.03036	31.1	13111	100
2025-3-27 18:24:20.624	WT901BLE68-01(48591DE3C19B)	-0.347	-0.524	0.333	0.427	-2.197	-75.439	-75.00	2.05	-9.32	-39.494	-46.452	107.310	-0.79153	0.60501	-0.07990	0.03036	31.1	13111	100
2025-3-27 18:24:20.624	WT901BLE68-01(48591DE3C19B)	-0.347	-0.611	0.374	-2.625	-17.761	-74.402	-74.98	1.37	-9.42	-39.494	-46.452	107.310	-0.79153	0.60501	-0.07990	0.03036	31.1	13111	100
2025-3-27 18:24:20.654	WT901BLE68-01(48591DE3C19B)	-0.389	-0.611	0.374	-2.625	-17.761	-74.402	-74.97	0.68	-9.44	-39.494	-46.452	107.310	-0.79153	0.60501	-0.07990	0.03036	31.1	13111	100
2025-3-27 18:24:20.655	WT901BLE68-01(48591DE3C19B)	-0.389	-0.735	0.433	-2.747	-36.743	-72.083	-74.94	-0.01	-9.38	-39.494	-46.452	107.310	-0.79153	0.60501	-0.07990	0.03036	31.1	13111	100
2025-3-27 18:24:20.655	WT901BLE68-01(48591DE3C19B)	-0.402	-0.735	0.433	-2.747	-36.743	-72.083	-74.92	-0.70	-9.22	-39.494	-46.452	107.310	-0.79153	0.60501	-0.07990	0.03036	31.1	13111	100
2025-3-27 18:24:20.655	WT901BLE68-01(48591DE3C19B)	-0.402	-0.866	0.475	-2.747	-52.063	-71.289	-74.90	-1.40	-8.98	-39.494	-46.452	107.310	-0.79153	0.60501	-0.07990	0.03036	31.1	13111	100
2025-3-27 18:24:20.717	WT901BLE68-01(48591DE3C19B)	-0.406	-0.866	0.475	-2.747	-52.063	-71.289	-74.88	-2.10	-8.67	-39.494	-46.452	107.310	-0.79153	0.60501	-0.07990	0.03036	31.1	13111	100
2025-3-27 18:24:20.717	WT901BLE68-01(48591DE3C19B)	-0.406	-1.020	0.491	-3.418	-59.753	-70.618	-74.86	-2.81	-8.33	-39.494	-46.452	107.310	-0.79153	0.60501	-0.07990	0.03036	31.1	13111	100
2025-3-27 18:24:20.717	WT901BLE68-01(48591DE3C19B)	-0.397	-1.020	0.491	-3.418	-59.753	-70.618	-74.86	-3.52	-7.95	-39.494	-46.452	107.310	-0.79153	0.60501	-0.07990	0.03036	31.1	13111	100
2025-3-27 18:24:20.717	WT901BLE68-01(48591DE3C19B)	-0.397	-1.168	0.503	-2.197	-55.176	-72.083	-74.84	-4.22	-7.60	-39.494	-46.452	107.310	-0.79153	0.60501	-0.07990	0.03036	31.1	13111	100
2025-3-27 18:24:20.746	WT901BLE68-01(48591DE3C19B)	-0.419	-1.168	0.503	-2.197	-55.176	-72.083	-74.83	-4.93	-7.27	-39.494	-46.452	107.310	-0.79153	0.60501	-0.07990	0.03036	31.1	13111	100
2025-3-27 18:24:20.746	WT901BLE68-01(48591DE3C19B)	-0.419	-1.335	0.551	-2.991	-42.114	-71.167	-74.83	-5.59	-7.06	-39.494	-46.452	107.310	-0.79153	0.60501	-0.07990	0.03036	31.1	13111	100
2025-3-27 18:24:20.746	WT901BLE68-01(48591DE3C19B)	-0.433	-1.335	0.551	-2.991	-42.114	-71.167	-74.82	-6.24	-6.86	-39.494	-46.452	107.310	-0.79153	0.60501	-0.07990	0.03036	31.1	13111	100
2025-3-27 18:24:20.746	WT901BLE68-01(48591DE3C19B)	-0.433	-1.526	0.578	-3.235	-24.170	-62.805	-74.81	-6.77	-6.81	-43.316	-41.356	108.388	-0.79153	0.60501	-0.07990	0.03036	31.1	13111	100
2025-3-27 18:24:20.779	WT901BLE68-01(48591DE3C19B)	-0.414	-1.526	0.578	-3.235	-24.170	-62.805	-74.80	-7.29	-6.75	-43.316	-41.356	108.388	-0.79153	0.60501	-0.07990	0.03036	31.1	13111	100
2025-3-27 18:24:20.780	WT901BLE68-01(48591DE3C19B)	-0.414	-1.543	0.538	4.822	0.000	-42.480	-74.69	-7.56	-6.88	-43.316	-41.356	108.388	-0.79153	0.60501	-0.07990	0.03036	31.1	13111	100
2025-3-27 18:24:20.780	WT901BLE68-01(48591DE3C19B)	-0.377	-1.543	0.538	4.822	0.000	-42.480	-74.58	-7.83	-7.01	-43.316	-41.356	108.388	-0.79153	0.60501	-0.07990	0.03036	31.1	13111	100
2025-3-27 18:24:20.780	WT901BLE68-01(48591DE3C19B)	-0.377	-1.278	0.495	6.531	27.649	-15.808	-74.43	-7.76	-7.33	-43.316	-41.356	108.388	-0.79153	0.60501	-0.07990	0.03036	31.1	13111	100
2025-3-27 18:24:20.835	WT901BLE68-01(48591DE3C19B)	-0.392	-1.278	0.495	6.531	27.649	-15.808	-74.28	-7.70	-7.66	-43.316	-41.356	108.388	-0.79153	0.60501	-0.07990	0.03036	31.1	13111	100
2025-3-27 18:24:20.835	WT901BLE68-01(48591DE3C19B)	-0.392	-1.161	0.489	-3.906	41.870	12.878	-74.23	-7.32	-8.05	-43.316	-41.356	108.388	-0.79153	0.60501	-0.07990	0.03036	31.1	13111	100
2025-3-27 18:24:20.835	WT901BLE68-01(48591DE3C19B)	-0.446	-1.161	0.489	-3.906	41.870	12.878	-74.19	-6.94	-8.43	-43.316	-41.356	108.388	-0.79153	0.60501	-0.07990	0.03036	31.1	13111	100
2025-3-27 18:24:20.835	WT901BLE68-01(48591DE3C19B)	-0.446	-1.213	0.505	-12.329	28.809	37.354	-74.25	-6.37	-8.62	-43.316	-41.356	108.388	-0.79153	0.60501	-0.07990	0.03036	31.1	13111	100
2025-3-27 18:24:20.863	WT901BLE68-01(48591DE3C19B)	-0.438	-1.213	0.505	-12.329	28.809	37.354	-74.31	-5.80	-8.81	-43.316	-41.356	108.388	-0.79153	0.60501	-0.07990	0.03036	31.1	13111	100
2025-3-27 18:24:20.864	WT901BLE68-01(48591DE3C19B)	-0.438	-1.156	0.488	-9.644	4.883	63.049	-74.38	-5.04	-8.70	-43.316	-41.356	108.388	-0.79153	0.60501	-0.07990	0.03036	31.1	13111	100
2025-3-27 18:24:20.864	WT901BLE68-01(48591DE3C19B)	-0.439	-1.156	0.488	-9.644	4.883	63.049	-74.44	-4.30	-8.59	-43.316	-41.356	108.388	-0.79153	0.60501	-0.07990	0.03036	31.1	13111	100
2025-3-27 18:24:20.864	WT901BLE68-01(48591DE3C19B)	-0.439	-0.968	0.426	-4.761	-13.855	88.684	-74.48	-3.35	-8.23	-43.316	-41.356	108.388	-0.79153	0.60501	-0.07990	0.03036	31.1	13111	100
2025-3-27 18:24:20.895	WT901BLE68-01(48591DE3C19B)	-0.435	-0.968	0.426	-4.761	-13.855	88.684	-74.50	-2.41	-7.87	-43.316	-41.356	108.388	-0.79153	0.60501	-0.07990	0.03036	31.1	13111	100
2025-3-27 18:24:20.895	WT901BLE68-01(48591DE3C19B)	-0.435	-0.834	0.302	-4.211	-27.771	111.328	-74.51	-1.29	-7.32	-43.316	-41.356	108.388	-0.79153	0.60501	-0.07990	0.03036	31.1	13111	100
2025-3-27 18:24:20.895	WT901BLE68-01(48591DE3C19B)	-0.408	-0.834	0.302	-4.211	-27.771	111.328	-74.53	-0.18	-6.76	-43.316	-41.356	108.388	-0.79153	0.60501	-0.07990	0.03036	31.1	13111	100
2025-3-27 18:24:20.895	WT901BLE68-01(48591DE3C19B)	-0.408	-0.865	0.204	-6.165	-36.621	130.310	-74.55	1.09	-6.06	-43.316	-41.356	108.388	-0.79153	0.60501	-0.07990	0.03036	31.1	13111	100
2025-3-27 18:24:20.954	WT901BLE68-01(48591DE3C19B)	-0.359	-0.865	0.204	-6.165	-36.621	130.310	-74.55	2.36	-5.37	-43.316	-41.356	108.388	-0.79153	0.60501	-0.07990	0.03036	31.1	13111	100
2025-3-27 18:24:20.955	WT901BLE68-01(48591DE3C19B)	-0.359	-1.009	0.124	-4.517	-44.617	144.653	-74.53	3.74	-4.55	-43.316	-41.356	108.388	-0.79153	0.60501	-0.07990	0.03036	31.1	13111	100
2025-3-27 18:24:20.955	WT901BLE68-01(48591DE3C19B)	-0.296	-1.009	0.124	-4.517	-44.617	144.653	-74.49	5.10	-3.74	-43.316	-41.356	108.388	-0.79153	0.60501	-0.07990	0.03036	31.1	13111	100
2025-3-27 18:24:20.955	WT901BLE68-01(48591DE3C19B)	-0.296	-1.123	0.085	1.221	-56.030	153.625	-74.37	6.51	-2.78	-43.316	-41.356	108.388	-0.79153	0.60501	-0.07990	0.03036	31.1	13111	100
2025-3-27 18:24:20.986	WT901BLE68-01(48591DE3C19B)	-0.239	-1.123	0.085	1.221	-56.030	153.625	-74.24	7.91	-1.81	-43.316	-41.356	108.388	-0.79599	0.60107	-0.06454	-0.02902	31.1	13111	100
2025-3-27 18:24:20.986	WT901BLE68-01(48591DE3C19B)	-0.239	-1.184	0.097	8.057	-63.782	158.447	-74.00	9.32	-0.75	-43.316	-41.356	108.388	-0.79599	0.60107	-0.06454	-0.02902	31.1	13111	100
2025-3-27 18:24:20.987	WT901BLE68-01(48591DE3C19B)	-0.188	-1.184	0.097	8.057	-63.782	158.447	-73.75	10.71	0.32	-43.316	-41.356	108.388	-0.79599	0.60107	-0.06454	-0.02902	31.1	13111	100
2025-3-27 18:24:20.987	WT901BLE68-01(48591DE3C19B)	-0.188	-1.203	0.112	14.587	-59.937	157.532	-73.42	12.08	1.37	-43.316	-41.356	108.388	-0.79599	0.60107	-0.06454	-0.02902	31.1	13111	100
2025-3-27 18:24:21.17	WT901BLE68-01(48591DE3C19B)	-0.144	-1.203	0.112	14.587	-59.937	157.532	-73.07	13.44	2.42	-43.316	-41.356	108.388	-0.79599	0.60107	-0.06454	-0.02902	31.1	13111	100
2025-3-27 18:24:21.17	WT901BLE68-01(48591DE3C19B)	-0.144	-1.153	0.116	19.348	-43.762	156.250	-72.69	14.81	3.33	-43.316	-41.356	108.388	-0.79599	0.60107	-0.06454	-0.02902	31.1	13111	100
2025-3-27 18:24:21.17	WT901BLE68-01(48591DE3C19B)	-0.121	-1.153	0.116	19.348	-43.762	156.250	-72.29	16.16	4.25	-43.316	-41.356	108.388	-0.79599	0.60107	-0.06454	-0.02902	31.1	13111	100
2025-3-27 18:24:21.17	WT901BLE68-01(48591DE3C19B)	-0.121	-1.054	0.112	21.973	-18.799	151.550	-71.92	17.52	4.93	-43.316	-41.356	108.388	-0.79599	0.60107	-0.06454	-0.02902	31.1	13111	100
2025-3-27 18:24:21.80	WT901BLE68-01(48591DE3C19B)	-0.113	-1.054	0.112	21.973	-18.799	151.550	-71.54	18.87	5.61	-43.316	-41.356	108.388	-0.79599	0.60107	-0.06454	-0.02902	31.1	13111	100
2025-3-27 18:24:21.80	WT901BLE68-01(48591DE3C19B)	-0.113	-0.913	0.104	21.301	8.728	147.949	-71.24	20.26	6.02	-43.316	-41.356	108.388	-0.79599	0.60107	-0.06454	-0.02902	31.1	13111	100
2025-3-27 18:24:21.80	WT901BLE68-01(48591DE3C19B)	-0.133	-0.913	0.104	21.301	8.728	147.949	-70.94	21.63	6.43	-43.316	-41.356	108.388	-0.79599	0.60107	-0.06454	-0.02902	31.1	13111	100
2025-3-27 18:24:21.80	WT901BLE68-01(48591DE3C19B)	-0.133	-0.773	0.095	18.127	33.447	146.118	-70.75	23.05	6.60	-43.316	-41.356	108.388	-0.79599	0.60107	-0.06454	-0.02902	31.1	13111	100
2025-3-27 18:24:21.104	WT901BLE68-01(48591DE3C19B)	-0.174	-0.773	0.095	18.127	33.447	146.118	-70.56	24.47	6.77	-43.316	-41.356	108.388	-0.79599	0.60107	-0.06454	-0.02902	31.1	13111	100
2025-3-27 18:24:21.104	WT901BLE68-01(48591DE3C19B)	-0.174	-0.664	0.099	10.986	44.434	146.851	-70.48	25.93	6.83	-43.316	-41.356	108.388	-0.79599	0.60107	-0.06454	-0.02902	31.1	13111	100
2025-3-27 18:24:21.104	WT901BLE68-01(48591DE3C19B)	-0.216	-0.664	0.099	10.986	44.434	146.851	-70.41	27.37	6.89	-43.316	-41.356	108.388	-0.79599	0.60107	-0.06454	-0.02902	31.1	13111	100
2025-3-27 18:24:21.104	WT901BLE68-01(48591DE3C19B)	-0.216	-0.616	0.087	1.099	39.368	147.156	-70.40	28.80	7.01	-43.316	-41.356	108.388	-0.79599	0.60107	-0.06454	-0.02902	31.1	13111	100
2025-3-27 18:24:21.135	WT901BLE68-01(48591DE3C19B)	-0.220	-0.616	0.087	1.099	39.368	147.156	-70.39	30.21	7.12	-43.316	-41.356	108.388	-0.79599	0.60107	-0.06454	-0.02902	31.1	13111	100
2025-3-27 18:24:21.135	WT901BLE68-01(48591DE3C19B)	-0.220	-0.665	0.055	-11.414	23.071	144.348	-70.42	31.54	7.40	-43.316	-41.356	108.388	-0.79599	0.60107	-0.06454	-0.02902	31.1	13111	100
2025-3-27 18:24:21.135	WT901BLE68-01(48591DE3C19B)	-0.208	-0.665	0.055	-11.414	23.071	144.348	-70.44	32.87	7.69	-43.316	-41.356	108.388	-0.79599	0.60107	-0.06454	-0.02902	31.1	13111	100
2025-3-27 18:24:21.135	WT901BLE68-01(48591DE3C19B)	-0.208	-0.780	0.047	-19.836	-1.221	138.184	-70.41	34.05	8.22	-43.316	-41.356	108.388	-0.79599	0.60107	-0.06454	-0.02902	31.1	13111	100
2025-3-27 18:24:21.194	WT901BLE68-01(48591DE3C19B)	-0.253	-0.780	0.047	-19.836	-1.221	138.184	-70.36	35.23	8.76	-43.316	-41.356	108.388	-0.79599	0.60107	-0.06454	-0.02902	31.1	13111	100
2025-3-27 18:24:21.194	WT901BLE68-01(48591DE3C19B)	-0.253	-0.997	0.102	-24.780	-31.982	128.723	-70.16	36.21	9.62	-56.252	-47.334	102.606	-0.79599	0.60107	-0.06454	-0.02902	31.1	13111	100
2025-3-27 18:24:21.194	WT901BLE68-01(48591DE3C19B)	-0.305	-0.997	0.102	-24.780	-31.982	128.723	-69.96	37.17	10.50	-56.252	-47.334	102.606	-0.79599	0.60107	-0.06454	-0.02902	31.1	13111	100
2025-3-27 18:24:21.194	WT901BLE68-01(48591DE3C19B)	-0.275	-1.275	0.164	-22.766	-63.904	114.868	-69.52	37.89	11.71	-56.252	-47.334	102.606	-0.79599	0.60107	-0.06454	-0.02902	31.1	13111	100
2025-3-27 18:24:21.224	WT901BLE68-01(48591DE3C19B)	-0.275	-1.550	0.173	-15.320	-87.524	96.863	-68.96	38.47	13.03	-56.252	-47.334	102.606	-0.79599	0.60107	-0.06454	-0.02902	31.1	13111	100
2025-3-27 18:24:21.224	WT901BLE68-01(48591DE3C19B)	-0.182	-1.550	0.173	-15.320	-87.524	96.863	-68.28	38.90	14.46	-56.252	-47.334	102.606	-0.79599	0.60107	-0.06454	-0.02902	31.1	13111	100
2025-3-27 18:24:21.224	WT901BLE68-01(48591DE3C19B)	-0.182	-1.622	0.187	-1.099	-94.055	82.703	-67.52	39.24	15.91	-56.252	-47.334	102.606	-0.79599	0.60107	-0.06454	-0.02902	31.1	13111	100
2025-3-27 18:24:21.224	WT901BLE68-01(48591DE3C19B)	-0.121	-1.622	0.187	-1.099	-94.055	82.703	-66.68	39.48	17.38	-56.252	-47.334	102.606	-0.79599	0.60107	-0.06454	-0.02902	31.1	13111	100
2025-3-27 18:24:21.253	WT901BLE68-01(48591DE3C19B)	-0.121	-1.569	0.232	2.991	-90.088	67.139	-65.86	39.63	18.78	-56.252	-47.334	102.606	-0.79599	0.60107	-0.06454	-0.02902	31.1	13111	100
2025-3-27 18:24:21.254	WT901BLE68-01(48591DE3C19B)	-0.026	-1.569	0.232	2.991	-90.088	67.139	-65.05	39.70	20.13	-56.252	-47.334	102.606	-0.79599	0.60107	-0.06454	-0.02902	31.1	13111	100
2025-3-27 18:24:21.254	WT901BLE68-01(48591DE3C19B)	-0.026	-1.611	0.256	6.470	-74.524	47.607	-64.32	39.69	21.32	-56.252	-47.334	102.606	-0.79599	0.60107	-0.06454	-0.02902	31.1	13111	100
2025-3-27 18:24:21.254	WT901BLE68-01(48591DE3C19B)	0.111	-1.611	0.256	6.470	-74.524	47.607	-63.68	39.62	22.37	-56.252	-47.334	102.606	-0.79599	0.60107	-0.06454	-0.02902	31.1	13111	100
2025-3-27 18:24:21.315	WT901BLE68-01(48591DE3C19B)	0.111	-1.462	0.282	16.357	-44.922	28.870	-63.13	39.51	23.19	-56.252	-47.334	102.606	-0.79599	0.60107	-0.06454	-0.02902	31.1	13111	100
2025-3-27 18:24:21.315	WT901BLE68-01(48591DE3C19B)	0.152	-1.462	0.282	16.357	-44.922	28.870	-62.69	39.38	23.78	-56.252	-47.334	102.606	-0.79599	0.60107	-0.06454	-0.02902	31.1	13111	100
2025-3-27 18:24:21.315	WT901BLE68-01(48591DE3C19B)	0.152	-1.278	0.310	17.151	-7.080	7.813	-62.42	39.22	24.09	-56.252	-47.334	102.606	-0.79599	0.60107	-0.06454	-0.02902	31.1	13111	100
2025-3-27 18:24:21.315	WT901BLE68-01(48591DE3C19B)	0.136	-1.278	0.310	17.151	-7.080	7.813	-62.31	39.06	24.11	-56.252	-47.334	102.606	-0.79599	0.60107	-0.06454	-0.02902	31.1	13111	100
2025-3-27 18:24:21.344	WT901BLE68-01(48591DE3C19B)	0.136	-1.244	0.315	15.808	26.794	-20.325	-62.40	38.85	23.87	-56.252	-47.334	102.606	-0.79599	0.60107	-0.06454	-0.02902	31.1	13111	100
2025-3-27 18:24:21.344	WT901BLE68-01(48591DE3C19B)	0.021	-1.244	0.315	15.808	26.794	-20.325	-62.65	38.58	23.34	-56.252	-47.334	102.606	-0.79599	0.60107	-0.06454	-0.02902	31.1	13111	100
2025-3-27 18:24:21.345	WT901BLE68-01(48591DE3C19B)	0.021	-1.226	0.302	19.531	51.941	-48.645	-63.01	38.25	22.60	-56.252	-47.334	102.606	-0.79599	0.60107	-0.06454	-0.02902	31.1	13111	100
2025-3-27 18:24:21.345	WT901BLE68-01(48591DE3C19B)	-0.106	-1.226	0.302	19.531	51.941	-48.645	-63.48	37.84	21.64	-56.252	-47.334	102.606	-0.79599	0.60107	-0.06454	-0.02902	31.1	13111	100
2025-3-27 18:24:21.379	WT901BLE68-01(48591DE3C19B)	-0.106	-1.138	0.267	24.902	69.031	-72.144	-64.01	37.35	20.54	-56.252	-47.334	102.606	-0.79599	0.60107	-0.06454	-0.02902	31.1	13111	100
2025-3-27 18:24:21.379	WT901BLE68-01(48591DE3C19B)	-0.218	-1.138	0.267	24.902	69.031	-72.144	-64.59	36.80	19.29	-56.252	-47.334	102.606	-0.79599	0.60107	-0.06454	-0.02902	31.1	13111	100
2025-3-27 18:24:21.379	WT901BLE68-01(48591DE3C19B)	-0.218	-1.027	0.254	29.297	67.932	-90.027	-65.14	36.16	18.02	-56.252	-47.334	102.606	-0.76501	0.54639	-0.17816	-0.29047	31.1	13111	100
2025-3-27 18:24:21.379	WT901BLE68-01(48591DE3C19B)	-0.260	-1.027	0.254	29.297	67.932	-90.027	-65.67	35.44	16.73	-56.252	-47.334	102.606	-0.76501	0.54639	-0.17816	-0.29047	31.1	13111	100
2025-3-27 18:24:21.435	WT901BLE68-01(48591DE3C19B)	-0.260	-0.938	0.278	30.090	49.805	-100.891	-66.12	34.62	15.53	-56.252	-47.334	102.606	-0.76501	0.54639	-0.17816	-0.29047	31.1	13111	100
2025-3-27 18:24:21.435	WT901BLE68-01(48591DE3C19B)	-0.243	-0.938	0.278	30.090	49.805	-100.891	-66.49	33.73	14.44	-56.252	-47.334	102.606	-0.76501	0.54639	-0.17816	-0.29047	31.1	13111	100
2025-3-27 18:24:21.435	WT901BLE68-01(48591DE3C19B)	-0.243	-0.898	0.289	28.625	37.292	-107.910	-66.81	32.78	13.42	-56.252	-47.334	102.606	-0.76501	0.54639	-0.17816	-0.29047	31.1	13111	100
2025-3-27 18:24:21.435	WT901BLE68-01(48591DE3C19B)	-0.248	-0.898	0.289	28.625	37.292	-107.910	-67.08	31.78	12.47	-56.252	-47.334	102.606	-0.76501	0.54639	-0.17816	-0.29047	31.1	13111	100
2025-3-27 18:24:21.464	WT901BLE68-01(48591DE3C19B)	-0.248	-0.874	0.269	27.161	26.367	-113.159	-67.31	30.74	11.59	-56.252	-47.334	102.606	-0.76501	0.54639	-0.17816	-0.29047	31.1	13111	100
2025-3-27 18:24:21.464	WT901BLE68-01(48591DE3C19B)	-0.196	-0.874	0.269	27.161	26.367	-113.159	-67.50	29.66	10.77	-56.252	-47.334	102.606	-0.76501	0.54639	-0.17816	-0.29047	31.1	13111	100
2025-3-27 18:24:21.464	WT901BLE68-01(48591DE3C19B)	-0.196	-0.834	0.251	22.156	17.395	-114.807	-67.66	28.57	10.01	-56.252	-47.334	102.606	-0.76501	0.54639	-0.17816	-0.29047	31.1	13111	100
2025-3-27 18:24:21.464	WT901BLE68-01(48591DE3C19B)	-0.140	-0.834	0.251	22.156	17.395	-114.807	-67.82	27.46	9.31	-56.252	-47.334	102.606	-0.76501	0.54639	-0.17816	-0.29047	31.1	13111	100
2025-3-27 18:24:21.495	WT901BLE68-01(48591DE3C19B)	-0.140	-0.813	0.228	15.259	16.724	-119.324	-67.99	26.33	8.62	-56.252	-47.334	102.606	-0.76501	0.54639	-0.17816	-0.29047	31.1	13111	100
2025-3-27 18:24:21.495	WT901BLE68-01(48591DE3C19B)	-0.124	-0.813	0.228	15.259	16.724	-119.324	-68.18	25.19	7.93	-56.252	-47.334	102.606	-0.76501	0.54639	-0.17816	-0.29047	31.1	13111	100
2025-3-27 18:24:21.495	WT901BLE68-01(48591DE3C19B)	-0.124	-0.835	0.194	8.545	25.574	-128.113	-68.40	24.03	7.19	-56.252	-47.334	102.606	-0.76501	0.54639	-0.17816	-0.29047	31.1	13111	100
2025-3-27 18:24:21.495	WT901BLE68-01(48591DE3C19B)	-0.169	-0.835	0.194	8.545	25.574	-128.113	-68.67	22.84	6.41	-56.252	-47.334	102.606	-0.76501	0.54639	-0.17816	-0.29047	31.1	13111	100
2025-3-27 18:24:21.554	WT901BLE68-01(48591DE3C19B)	-0.169	-0.859	0.166	4.639	39.612	-139.526	-68.97	21.63	5.54	-56.252	-47.334	102.606	-0.76501	0.54639	-0.17816	-0.29047	31.1	13111	100
2025-3-27 18:24:21.555	WT901BLE68-01(48591DE3C19B)	-0.213	-0.859	0.166	4.639	39.612	-139.526	-69.30	20.40	4.59	-56.252	-47.334	102.606	-0.76501	0.54639	-0.17816	-0.29047	31.1	13111	100
2025-3-27 18:24:21.555	WT901BLE68-01(48591DE3C19B)	-0.213	-0.841	0.169	1.099	53.467	-151.245	-69.66	19.15	3.49	-56.252	-47.334	102.606	-0.76501	0.54639	-0.17816	-0.29047	31.1	13111	100
2025-3-27 18:24:21.555	WT901BLE68-01(48591DE3C19B)	-0.253	-0.841	0.169	1.099	53.467	-151.245	-70.05	17.87	2.22	-56.252	-47.334	102.606	-0.76501	0.54639	-0.17816	-0.29047	31.1	13111	100
2025-3-27 18:24:21.586	WT901BLE68-01(48591DE3C19B)	-0.253	-0.810	0.203	-0.122	66.589	-161.804	-70.43	16.57	0.89	-56.938	-44.198	98.392	-0.76501	0.54639	-0.17816	-0.29047	31.1	13111	100
2025-3-27 18:24:21.586	WT901BLE68-01(48591DE3C19B)	-0.313	-0.810	0.203	-0.122	66.589	-161.804	-70.81	15.25	-0.50	-56.938	-44.198	98.392	-0.76501	0.54639	-0.17816	-0.29047	31.1	13111	100
2025-3-27 18:24:21.587	WT901BLE68-01(48591DE3C19B)	-0.313	-0.774	0.242	0.610	74.768	-172.241	-71.15	13.89	-1.93	-56.938	-44.198	98.392	-0.76501	0.54639	-0.17816	-0.29047	31.1	13111	100
2025-3-27 18:24:21.587	WT901BLE68-01(48591DE3C19B)	-0.350	-0.774	0.242	0.610	74.768	-172.241	-71.47	12.50	-3.38	-56.938	-44.198	98.392	-0.76501	0.54639	-0.17816	-0.29047	31.1	13111	100
2025-3-27 18:24:21.645	WT901BLE68-01(48591DE3C19B)	-0.350	-0.738	0.253	4.822	75.500	-179.138	-71.74	11.09	-4.80	-56.938	-44.198	98.392	-0.76501	0.54639	-0.17816	-0.29047	31.1	13111	100
2025-3-27 18:24:21.645	WT901BLE68-01(48591DE3C19B)	-0.375	-0.738	0.253	4.822	75.500	-179.138	-71.93	9.65	-6.21	-56.938	-44.198	98.392	-0.76501	0.54639	-0.17816	-0.29047	31.1	13111	100
2025-3-27 18:24:21.645	WT901BLE68-01(48591DE3C19B)	-0.375	-0.688	0.229	8.606	68.726	-182.983	-72.08	8.19	-7.58	-56.938	-44.198	98.392	-0.76501	0.54639	-0.17816	-0.29047	31.1	13111	100
2025-3-27 18:24:21.645	WT901BLE68-01(48591DE3C19B)	-0.379	-0.688	0.229	8.606	68.726	-182.983	-72.16	6.71	-8.89	-56.938	-44.198	98.392	-0.76501	0.54639	-0.17816	-0.29047	31.1	13111	100
2025-3-27 18:24:21.680	WT901BLE68-01(48591DE3C19B)	-0.379	-0.659	0.223	8.911	59.998	-184.143	-72.20	5.23	-10.15	-56.938	-44.198	98.392	-0.76501	0.54639	-0.17816	-0.29047	31.1	13111	100
2025-3-27 18:24:21.680	WT901BLE68-01(48591DE3C19B)	-0.419	-0.659	0.223	8.911	59.998	-184.143	-72.20	3.75	-11.36	-56.938	-44.198	98.392	-0.76501	0.54639	-0.17816	-0.29047	31.1	13111	100
2025-3-27 18:24:21.680	WT901BLE68-01(48591DE3C19B)	-0.419	-0.670	0.254	8.057	50.049	-181.702	-72.17	2.27	-12.45	-56.938	-44.198	98.392	-0.76501	0.54639	-0.17816	-0.29047	31.1	13111	100
2025-3-27 18:24:21.680	WT901BLE68-01(48591DE3C19B)	-0.520	-0.670	0.254	8.057	50.049	-181.702	-72.12	0.81	-13.52	-56.938	-44.198	98.392	-0.76501	0.54639	-0.17816	-0.29047	31.1	13111	100
2025-3-27 18:24:21.705	WT901BLE68-01(48591DE3C19B)	-0.520	-0.733	0.318	7.141	33.875	-173.828	-72.05	-0.60	-14.41	-56.938	-44.198	98.392	-0.76501	0.54639	-0.17816	-0.29047	31.1	13111	100
2025-3-27 18:24:21.705	WT901BLE68-01(48591DE3C19B)	-0.628	-0.733	0.318	7.141	33.875	-173.828	-71.95	-2.01	-15.30	-56.938	-44.198	98.392	-0.76501	0.54639	-0.17816	-0.29047	31.1	13111	100
2025-3-27 18:24:21.705	WT901BLE68-01(48591DE3C19B)	-0.628	-0.871	0.369	5.859	8.667	-160.400	-71.86	-3.34	-15.89	-56.938	-44.198	98.392	-0.76501	0.54639	-0.17816	-0.29047	31.1	13111	100
2025-3-27 18:24:21.705	WT901BLE68-01(48591DE3C19B)	-0.649	-0.871	0.369	5.859	8.667	-160.400	-71.76	-4.66	-16.47	-56.938	-44.198	98.392	-0.76501	0.54639	-0.17816	-0.29047	31.1	13111	100
2025-3-27 18:24:21.764	WT901BLE68-01(48591DE3C19B)	-0.649	-1.006	0.416	7.263	-18.372	-145.142	-71.66	-5.91	-16.74	-56.938	-44.198	98.392	-0.76501	0.54639	-0.17816	-0.29047	31.1	13111	100
2025-3-27 18:24:21.764	WT901BLE68-01(48591DE3C19B)	-0.625	-1.006	0.416	7.263	-18.372	-145.142	-71.55	-7.15	-17.01	-56.938	-44.198	98.392	-0.76501	0.54639	-0.17816	-0.29047	31.1	13111	100
2025-3-27 18:24:21.765	WT901BLE68-01(48591DE3C19B)	-0.625	-1.136	0.439	7.629	-36.865	-125.000	-71.47	-8.25	-17.03	-56.938	-44.198	98.392	-0.76501	0.54639	-0.17816	-0.29047	31.1	13111	100
2025-3-27 18:24:21.765	WT901BLE68-01(48591DE3C19B)	-0.586	-1.136	0.439	7.629	-36.865	-125.000	-71.38	-9.33	-17.06	-56.938	-44.198	98.392	-0.76501	0.54639	-0.17816	-0.29047	31.1	13111	100
2025-3-27 18:24:21.825	WT901BLE68-01(48591DE3C19B)	-0.586	-1.262	0.444	2.075	-40.039	-106.750	-71.37	-10.26	-17.00	-56.938	-44.198	98.392	-0.79178	0.58554	-0.01065	0.17322	31.1	13111	100
2025-3-27 18:24:21.825	WT901BLE68-01(48591DE3C19B)	-0.577	-1.262	0.444	2.075	-40.039	-106.750	-71.36	-11.18	-16.94	-56.938	-44.198	98.392	-0.79178	0.58554	-0.01065	0.17322	31.1	13111	100
2025-3-27 18:24:21.825	WT901BLE68-01(48591DE3C19B)	-0.577	-1.515	0.473	-1.343	-25.574	-83.740	-71.37	-11.83	-16.95	-56.938	-44.198	98.392	-0.79178	0.58554	-0.01065	0.17322	31.1	13111	100
2025-3-27 18:24:21.825	WT901BLE68-01(48591DE3C19B)	-0.574	-1.515	0.473	-1.343	-25.574	-83.740	-71.37	-12.49	-16.95	-56.938	-44.198	98.392	-0.79178	0.58554	-0.01065	0.17322	31.1	13111	100
2025-3-27 18:24:21.826	WT901BLE68-01(48591DE3C19B)	-0.574	-1.645	0.519	1.099	3.479	-62.866	-71.31	-12.85	-17.18	-56.938	-44.198	98.392	-0.79178	0.58554	-0.01065	0.17322	31.1	13111	100
2025-3-27 18:24:21.826	WT901BLE68-01(48591DE3C19B)	-0.561	-1.645	0.519	1.099	3.479	-62.866	-71.25	-13.23	-17.41	-56.938	-44.198	98.392	-0.79178	0.58554	-0.01065	0.17322	31.1	13111	100
2025-3-27 18:24:21.826	WT901BLE68-01(48591DE3C19B)	-0.561	-1.570	0.553	2.136	38.208	-35.828	-71.12	-13.23	-17.89	-56.938	-44.198	98.392	-0.79178	0.58554	-0.01065	0.17322	31.1	13111	100
2025-3-27 18:24:21.826	WT901BLE68-01(48591DE3C19B)	-0.557	-1.570	0.553	2.136	38.208	-35.828	-70.99	-13.23	-18.37	-56.938	-44.198	98.392	-0.79178	0.58554	-0.01065	0.17322	31.1	13111	100
2025-3-27 18:24:21.885	WT901BLE68-01(48591DE3C19B)	-0.557	-1.335	0.542	-2.747	65.369	-7.263	-70.87	-12.88	-19.02	-56.938	-44.198	98.392	-0.79178	0.58554	-0.01065	0.17322	31.1	13111	100
2025-3-27 18:24:21.885	WT901BLE68-01(48591DE3C19B)	-0.571	-1.335	0.542	-2.747	65.369	-7.263	-70.76	-12.53	-19.66	-56.938	-44.198	98.392	-0.79178	0.58554	-0.01065	0.17322	31.1	13111	100
2025-3-27 18:24:21.885	WT901BLE68-01(48591DE3C19B)	-0.571	-1.142	0.488	-13.794	75.867	16.968	-70.75	-11.92	-20.32	-56.938	-44.198	98.392	-0.79178	0.58554	-0.01065	0.17322	31.1	13111	100
2025-3-27 18:24:21.885	WT901BLE68-01(48591DE3C19B)	-0.627	-1.142	0.488	-13.794	75.867	16.968	-70.75	-11.31	-20.98	-56.938	-44.198	98.392	-0.79178	0.58554	-0.01065	0.17322	31.1	13111	100
2025-3-27 18:24:21.914	WT901BLE68-01(48591DE3C19B)	-0.627	-1.038	0.438	-23.926	61.279	37.292	-70.91	-10.56	-21.42	-56.938	-44.198	98.392	-0.79178	0.58554	-0.01065	0.17322	31.1	13111	100
2025-3-27 18:24:21.914	WT901BLE68-01(48591DE3C19B)	-0.691	-1.038	0.438	-23.926	61.279	37.292	-71.06	-9.81	-21.86	-56.938	-44.198	98.392	-0.79178	0.58554	-0.01065	0.17322	31.1	13111	100
2025-3-27 18:24:21.914	WT901BLE68-01(48591DE3C19B)	-0.691	-0.958	0.369	-29.358	26.367	55.847	-71.34	-8.99	-21.90	-56.938	-44.198	98.392	-0.79178	0.58554	-0.01065	0.17322	31.1	13111	100
2025-3-27 18:24:21.914	WT901BLE68-01(48591DE3C19B)	-0.701	-0.958	0.369	-29.358	26.367	55.847	-71.62	-8.18	-21.94	-56.938	-44.198	98.392	-0.79178	0.58554	-0.01065	0.17322	31.1	13111	100
2025-3-27 18:24:21.978	WT901BLE68-01(48591DE3C19B)	-0.701	-0.819	0.264	-29.480	-13.977	75.867	-71.96	-7.31	-21.53	-56.938	-44.198	98.392	-0.79178	0.58554	-0.01065	0.17322	31.1	13111	100
2025-3-27 18:24:21.978	WT901BLE68-01(48591DE3C19B)	-0.664	-0.819	0.264	-29.480	-13.977	75.867	-72.30	-6.43	-21.12	-56.938	-44.198	98.392	-0.79178	0.58554	-0.01065	0.17322	31.1	13111	100
2025-3-27 18:24:21.978	WT901BLE68-01(48591DE3C19B)	-0.664	-0.730	0.121	-33.081	-54.688	96.863	-72.71	-5.47	-20.26	-56.938	-44.198	98.392	-0.79178	0.58554	-0.01065	0.17322	31.1	13111	100
2025-3-27 18:24:21.978	WT901BLE68-01(48591DE3C19B)	-0.611	-0.730	0.121	-33.081	-54.688	96.863	-73.12	-4.49	-19.41	-56.938	-44.198	98.392	-0.79178	0.58554	-0.01065	0.17322	31.1	13111	100
2025-3-27 18:24:22.5	WT901BLE68-01(48591DE3C19B)	-0.611	-0.801	0.026	-34.668	-91.797	117.859	-73.55	-3.43	-18.15	-56.938	-44.198	98.392	-0.79178	0.58554	-0.01065	0.17322	31.1	13111	100
2025-3-27 18:24:22.5	WT901BLE68-01(48591DE3C19B)	-0.537	-0.801	0.026	-34.668	-91.797	117.859	-73.97	-2.36	-16.90	-58.702	-45.276	94.080	-0.79178	0.58554	-0.01065	0.17322	31.1	13111	100
2025-3-27 18:24:22.5	WT901BLE68-01(48591DE3C19B)	-0.537	-0.949	0.015	-30.701	-124.573	139.771	-74.34	-1.16	-15.29	-58.702	-45.276	94.080	-0.79178	0.58554	-0.01065	0.17322	31.1	13111	100
2025-3-27 18:24:22.5	WT901BLE68-01(48591DE3C19B)	-0.435	-0.949	0.015	-30.701	-124.573	139.771	-74.67	0.03	-13.69	-58.702	-45.276	94.080	-0.79178	0.58554	-0.01065	0.17322	31.1	13111	100
2025-3-27 18:24:22.33	WT901BLE68-01(48591DE3C19B)	-0.435	-1.086	0.017	-23.560	-152.161	159.180	-74.90	1.35	-11.80	-58.702	-45.276	94.080	-0.79178	0.58554	-0.01065	0.17322	31.1	13111	100
2025-3-27 18:24:22.34	WT901BLE68-01(48591DE3C19B)	-0.345	-1.086	0.017	-23.560	-152.161	159.180	-75.09	2.65	-9.93	-58.702	-45.276	94.080	-0.79178	0.58554	-0.01065	0.17322	31.1	13111	100
2025-3-27 18:24:22.34	WT901BLE68-01(48591DE3C19B)	-0.345	-1.217	0.048	-14.771	-168.274	173.279	-75.14	4.04	-7.88	-58.702	-45.276	94.080	-0.79178	0.58554	-0.01065	0.17322	31.1	13111	100
2025-3-27 18:24:22.34	WT901BLE68-01(48591DE3C19B)	-0.275	-1.217	0.048	-14.771	-168.274	173.279	-75.14	5.42	-5.84	-58.702	-45.276	94.080	-0.79178	0.58554	-0.01065	0.17322	31.1	13111	100
2025-3-27 18:24:22.64	WT901BLE68-01(48591DE3C19B)	-0.275	-1.313	0.069	-4.211	-166.138	180.786	-74.98	6.85	-3.82	-58.702	-45.276	94.080	-0.79178	0.58554	-0.01065	0.17322	31.1	13111	100
2025-3-27 18:24:22.64	WT901BLE68-01(48591DE3C19B)	-0.248	-1.313	0.069	-4.211	-166.138	180.786	-74.78	8.26	-1.81	-58.702	-45.276	94.080	-0.79178	0.58554	-0.01065	0.17322	31.1	13111	100
2025-3-27 18:24:22.64	WT901BLE68-01(48591DE3C19B)	-0.248	-1.367	0.095	4.578	-150.208	184.631	-74.46	9.73	0.05	-58.702	-45.276	94.080	-0.79178	0.58554	-0.01065	0.17322	31.1	13111	100
2025-3-27 18:24:22.65	WT901BLE68-01(48591DE3C19B)	-0.239	-1.367	0.095	4.578	-150.208	184.631	-74.09	11.17	1.92	-58.702	-45.276	94.080	-0.79178	0.58554	-0.01065	0.17322	31.1	13111	100
2025-3-27 18:24:22.124	WT901BLE68-01(48591DE3C19B)	-0.239	-1.381	0.126	12.939	-127.136	186.890	-73.64	12.66	3.58	-58.702	-45.276	94.080	-0.79178	0.58554	-0.01065	0.17322	31.1	13111	100
2025-3-27 18:24:22.124	WT901BLE68-01(48591DE3C19B)	-0.206	-1.381	0.126	12.939	-127.136	186.890	-73.15	14.13	5.23	-58.702	-45.276	94.080	-0.79178	0.58554	-0.01065	0.17322	31.1	13111	100
2025-3-27 18:24:22.125	WT901BLE68-01(48591DE3C19B)	-0.147	-1.303	0.150	21.729	-95.825	188.293	-72.59	15.68	6.60	-58.702	-45.276	94.080	-0.79178	0.58554	-0.01065	0.17322	31.1	13111	100
2025-3-27 18:24:22.125	WT901BLE68-01(48591DE3C19B)	-0.147	-1.145	0.142	27.466	-55.237	191.895	-72.03	17.28	7.78	-58.702	-45.276	94.080	-0.79178	0.58554	-0.01065	0.17322	31.1	13111	100
2025-3-27 18:24:22.156	WT901BLE68-01(48591DE3C19B)	-0.117	-1.145	0.142	27.466	-55.237	191.895	-71.46	18.93	8.79	-58.702	-45.276	94.080	-0.79178	0.58554	-0.01065	0.17322	31.1	13111	100
2025-3-27 18:24:22.156	WT901BLE68-01(48591DE3C19B)	-0.117	-1.005	0.105	28.137	-12.024	196.533	-70.93	20.65	9.60	-58.702	-45.276	94.080	-0.79178	0.58554	-0.01065	0.17322	31.1	13111	100
2025-3-27 18:24:22.156	WT901BLE68-01(48591DE3C19B)	-0.143	-1.005	0.105	28.137	-12.024	196.533	-70.43	22.44	10.22	-58.702	-45.276	94.080	-0.79178	0.58554	-0.01065	0.17322	31.1	13111	100
2025-3-27 18:24:22.156	WT901BLE68-01(48591DE3C19B)	-0.143	-0.905	0.095	26.184	19.836	201.477	-69.98	24.29	10.71	-58.702	-45.276	94.080	-0.79178	0.58554	-0.01065	0.17322	31.1	13111	100
2025-3-27 18:24:22.215	WT901BLE68-01(48591DE3C19B)	-0.172	-0.905	0.095	26.184	19.836	201.477	-69.59	26.21	11.05	-58.702	-45.276	94.080	-0.79178	0.58554	-0.01065	0.17322	31.1	13111	100
2025-3-27 18:24:22.215	WT901BLE68-01(48591DE3C19B)	-0.172	-0.906	0.071	18.982	37.537	204.285	-69.25	28.15	11.32	-58.702	-45.276	94.080	-0.79178	0.58554	-0.01065	0.17322	31.1	13111	100
2025-3-27 18:24:22.215	WT901BLE68-01(48591DE3C19B)	-0.204	-0.906	0.071	18.982	37.537	204.285	-68.97	30.12	11.51	-58.702	-45.276	94.080	-0.77530	0.56406	-0.16498	-0.23114	31.1	13111	100
2025-3-27 18:24:22.215	WT901BLE68-01(48591DE3C19B)	-0.204	-0.970	0.050	11.230	42.908	204.590	-68.74	32.10	11.68	-58.702	-45.276	94.080	-0.77530	0.56406	-0.16498	-0.23114	31.1	13111	100
2025-3-27 18:24:22.244	WT901BLE68-01(48591DE3C19B)	-0.275	-0.970	0.050	11.230	42.908	204.590	-68.54	34.07	11.83	-58.702	-45.276	94.080	-0.77530	0.56406	-0.16498	-0.23114	31.1	13111	100
2025-3-27 18:24:22.244	WT901BLE68-01(48591DE3C19B)	-0.275	-1.140	0.087	-0.549	27.527	202.637	-68.35	35.99	12.07	-58.702	-45.276	94.080	-0.77530	0.56406	-0.16498	-0.23114	31.1	13111	100
2025-3-27 18:24:22.244	WT901BLE68-01(48591DE3C19B)	-0.344	-1.140	0.087	-0.549	27.527	202.637	-68.15	37.87	12.41	-58.702	-45.276	94.080	-0.77530	0.56406	-0.16498	-0.23114	31.1	13111	100
2025-3-27 18:24:22.244	WT901BLE68-01(48591DE3C19B)	-0.344	-1.434	0.169	-8.972	-9.460	196.472	-67.84	39.64	12.97	-58.702	-45.276	94.080	-0.77530	0.56406	-0.16498	-0.23114	31.1	13111	100
2025-3-27 18:24:22.279	WT901BLE68-01(48591DE3C19B)	-0.292	-1.434	0.169	-8.972	-9.460	196.472	-67.40	41.29	13.76	-58.702	-45.276	94.080	-0.77530	0.56406	-0.16498	-0.23114	31.1	13111	100
2025-3-27 18:24:22.279	WT901BLE68-01(48591DE3C19B)	-0.292	-1.744	0.184	-7.813	-40.833	183.777	-66.80	42.82	14.74	-58.702	-45.276	94.080	-0.77530	0.56406	-0.16498	-0.23114	31.1	13111	100
2025-3-27 18:24:22.279	WT901BLE68-01(48591DE3C19B)	-0.149	-1.744	0.184	-7.813	-40.833	183.777	-66.04	44.20	15.92	-58.702	-45.276	94.080	-0.77530	0.56406	-0.16498	-0.23114	31.1	13111	100
2025-3-27 18:24:22.279	WT901BLE68-01(48591DE3C19B)	-0.149	-1.926	0.136	0.305	-52.734	166.504	-65.18	45.46	17.17	-58.702	-45.276	94.080	-0.77530	0.56406	-0.16498	-0.23114	31.1	13111	100
2025-3-27 18:24:22.305	WT901BLE68-01(48591DE3C19B)	-0.083	-1.926	0.136	0.305	-52.734	166.504	-64.20	46.60	18.48	-58.702	-45.276	94.080	-0.77530	0.56406	-0.16498	-0.23114	31.1	13111	100
2025-3-27 18:24:22.306	WT901BLE68-01(48591DE3C19B)	-0.083	-1.827	0.137	11.719	-54.626	142.090	-63.17	47.59	19.77	-58.702	-45.276	94.080	-0.77530	0.56406	-0.16498	-0.23114	31.1	13111	100
2025-3-27 18:24:22.306	WT901BLE68-01(48591DE3C19B)	-0.095	-1.827	0.137	11.719	-54.626	142.090	-62.09	48.45	21.02	-58.702	-45.276	94.080	-0.77530	0.56406	-0.16498	-0.23114	31.1	13111	100
2025-3-27 18:24:22.306	WT901BLE68-01(48591DE3C19B)	-0.095	-1.678	0.179	10.925	-53.467	107.788	-61.08	49.14	22.18	-58.702	-45.276	94.080	-0.77530	0.56406	-0.16498	-0.23114	31.1	13111	100
2025-3-27 18:24:22.365	WT901BLE68-01(48591DE3C19B)	-0.081	-1.678	0.179	10.925	-53.467	107.788	-60.16	49.66	23.21	-58.702	-45.276	94.080	-0.77530	0.56406	-0.16498	-0.23114	31.1	13111	100
2025-3-27 18:24:22.365	WT901BLE68-01(48591DE3C19B)	-0.081	-1.460	0.245	11.841	-40.649	70.496	-59.39	50.04	24.03	-58.702	-45.276	94.080	-0.77530	0.56406	-0.16498	-0.23114	31.1	13111	100
2025-3-27 18:24:22.365	WT901BLE68-01(48591DE3C19B)	-0.023	-1.460	0.245	11.841	-40.649	70.496	-58.78	50.28	24.62	-58.702	-45.276	94.080	-0.77530	0.56406	-0.16498	-0.23114	31.1	13111	100
2025-3-27 18:24:22.365	WT901BLE68-01(48591DE3C19B)	-0.023	-1.178	0.300	11.292	-16.235	37.476	-58.41	50.43	24.91	-58.702	-45.276	94.080	-0.77530	0.56406	-0.16498	-0.23114	31.1	13111	100
2025-3-27 18:24:22.394	WT901BLE68-01(48591DE3C19B)	0.021	-1.178	0.300	11.292	-16.235	37.476	-58.27	50.51	24.91	-56.742	-43.806	81.144	-0.77530	0.56406	-0.16498	-0.23114	31.1	13111	100
2025-3-27 18:24:22.394	WT901BLE68-01(48591DE3C19B)	0.021	-0.955	0.319	9.094	11.169	4.822	-58.38	50.52	24.58	-56.742	-43.806	81.144	-0.77530	0.56406	-0.16498	-0.23114	31.1	13111	100
2025-3-27 18:24:22.394	WT901BLE68-01(48591DE3C19B)	0.024	-0.955	0.319	9.094	11.169	4.822	-58.74	50.45	23.93	-56.742	-43.806	81.144	-0.77530	0.56406	-0.16498	-0.23114	31.1	13111	100
2025-3-27 18:24:22.395	WT901BLE68-01(48591DE3C19B)	0.024	-0.857	0.246	4.211	38.086	-30.029	-59.37	50.30	22.96	-56.742	-43.806	81.144	-0.77530	0.56406	-0.16498	-0.23114	31.1	13111	100
2025-3-27 18:24:22.424	WT901BLE68-01(48591DE3C19B)	-0.020	-0.857	0.246	4.211	38.086	-30.029	-60.25	50.05	21.69	-56.742	-43.806	81.144	-0.77530	0.56406	-0.16498	-0.23114	31.1	13111	100
2025-3-27 18:24:22.424	WT901BLE68-01(48591DE3C19B)	-0.020	-0.810	0.197	2.319	55.054	-61.218	-61.30	49.70	20.20	-56.742	-43.806	81.144	-0.77530	0.56406	-0.16498	-0.23114	31.1	13111	100
2025-3-27 18:24:22.424	WT901BLE68-01(48591DE3C19B)	-0.085	-0.810	0.197	2.319	55.054	-61.218	-62.51	49.23	18.51	-56.742	-43.806	81.144	-0.77530	0.56406	-0.16498	-0.23114	31.1	13111	100
2025-3-27 18:24:22.425	WT901BLE68-01(48591DE3C19B)	-0.085	-0.785	0.178	0.916	56.946	-87.708	-63.75	48.63	16.77	-56.742	-43.806	81.144	-0.77530	0.56406	-0.16498	-0.23114	31.1	13111	100
2025-3-27 18:24:22.484	WT901BLE68-01(48591DE3C19B)	-0.144	-0.785	0.178	0.916	56.946	-87.708	-65.03	47.89	14.97	-56.742	-43.806	81.144	-0.77530	0.56406	-0.16498	-0.23114	31.1	13111	100
2025-3-27 18:24:22.484	WT901BLE68-01(48591DE3C19B)	-0.144	-0.801	0.171	2.014	48.828	-110.535	-66.24	47.01	13.22	-56.742	-43.806	81.144	-0.77530	0.56406	-0.16498	-0.23114	31.1	13111	100
2025-3-27 18:24:22.484	WT901BLE68-01(48591DE3C19B)	-0.207	-0.801	0.171	2.014	48.828	-110.535	-67.39	45.99	11.52	-56.742	-43.806	81.144	-0.77530	0.56406	-0.16498	-0.23114	31.1	13111	100
2025-3-27 18:24:22.484	WT901BLE68-01(48591DE3C19B)	-0.207	-0.831	0.175	4.395	35.767	-131.653	-68.43	44.84	9.93	-56.742	-43.806	81.144	-0.77530	0.56406	-0.16498	-0.23114	31.1	13111	100
2025-3-27 18:24:22.514	WT901BLE68-01(48591DE3C19B)	-0.250	-0.831	0.175	4.395	35.767	-131.653	-69.37	43.55	8.44	-56.742	-43.806	81.144	-0.77530	0.56406	-0.16498	-0.23114	31.1	13111	100
2025-3-27 18:24:22.514	WT901BLE68-01(48591DE3C19B)	-0.250	-0.867	0.180	6.042	19.470	-150.696	-70.18	42.14	7.09	-56.742	-43.806	81.144	-0.77530	0.56406	-0.16498	-0.23114	31.1	13111	100
2025-3-27 18:24:22.514	WT901BLE68-01(48591DE3C19B)	-0.263	-0.867	0.180	6.042	19.470	-150.696	-70.88	40.62	5.86	-56.742	-43.806	81.144	-0.77530	0.56406	-0.16498	-0.23114	31.1	13111	100
2025-3-27 18:24:22.514	WT901BLE68-01(48591DE3C19B)	-0.263	-0.903	0.188	6.409	2.930	-168.823	-71.47	38.98	4.75	-56.742	-43.806	81.144	-0.77530	0.56406	-0.16498	-0.23114	31.1	13111	100
2025-3-27 18:24:22.545	WT901BLE68-01(48591DE3C19B)	-0.258	-0.903	0.188	6.409	2.930	-168.823	-71.96	37.24	3.76	-56.742	-43.806	81.144	-0.77530	0.56406	-0.16498	-0.23114	31.1	13111	100
2025-3-27 18:24:22.545	WT901BLE68-01(48591DE3C19B)	-0.258	-0.935	0.202	5.310	-6.653	-184.448	-72.39	35.41	2.85	-56.742	-43.806	81.144	-0.77530	0.56406	-0.16498	-0.23114	31.1	13111	100
2025-3-27 18:24:22.545	WT901BLE68-01(48591DE3C19B)	-0.238	-0.935	0.202	5.310	-6.653	-184.448	-72.77	33.51	2.01	-56.742	-43.806	81.144	-0.77530	0.56406	-0.16498	-0.23114	31.1	13111	100
2025-3-27 18:24:22.545	WT901BLE68-01(48591DE3C19B)	-0.238	-0.950	0.198	3.967	0.671	-197.388	-73.14	31.56	1.15	-56.742	-43.806	81.144	-0.77530	0.56406	-0.16498	-0.23114	31.1	13111	100
2025-3-27 18:24:22.605	WT901BLE68-01(48591DE3C19B)	-0.218	-0.950	0.198	3.967	0.671	-197.388	-73.51	29.57	0.27	-56.742	-43.806	81.144	-0.77530	0.56406	-0.16498	-0.23114	31.1	13111	100
2025-3-27 18:24:22.605	WT901BLE68-01(48591DE3C19B)	-0.218	-0.926	0.176	3.357	23.926	-206.909	-73.98	27.56	-0.86	-56.742	-43.806	81.144	-0.77676	0.58289	-0.19461	-0.13751	31.1	13111	100
2025-3-27 18:24:22.605	WT901BLE68-01(48591DE3C19B)	-0.252	-0.926	0.176	3.357	23.926	-206.909	-74.39	25.55	-1.93	-56.742	-43.806	81.144	-0.77676	0.58289	-0.19461	-0.13751	31.1	13111	100
2025-3-27 18:24:22.605	WT901BLE68-01(48591DE3C19B)	-0.252	-0.876	0.182	1.160	46.204	-212.341	-74.89	23.56	-3.22	-56.742	-43.806	81.144	-0.77676	0.58289	-0.19461	-0.13751	31.1	13111	100
2025-3-27 18:24:22.633	WT901BLE68-01(48591DE3C19B)	-0.313	-0.876	0.182	1.160	46.204	-212.341	-75.32	21.57	-4.47	-56.742	-43.806	81.144	-0.77676	0.58289	-0.19461	-0.13751	31.1	13111	100
2025-3-27 18:24:22.633	WT901BLE68-01(48591DE3C19B)	-0.313	-0.841	0.208	-2.502	59.753	-215.637	-75.79	19.59	-5.81	-56.742	-43.806	81.144	-0.77676	0.58289	-0.19461	-0.13751	31.1	13111	100
2025-3-27 18:24:22.634	WT901BLE68-01(48591DE3C19B)	-0.371	-0.841	0.208	-2.502	59.753	-215.637	-76.21	17.62	-7.11	-56.742	-43.806	81.144	-0.77676	0.58289	-0.19461	-0.13751	31.1	13111	100
2025-3-27 18:24:22.634	WT901BLE68-01(48591DE3C19B)	-0.371	-0.826	0.264	-5.066	65.918	-215.515	-76.61	15.67	-8.43	-56.742	-43.806	81.144	-0.77676	0.58289	-0.19461	-0.13751	31.1	13111	100
2025-3-27 18:24:22.664	WT901BLE68-01(48591DE3C19B)	-0.455	-0.826	0.264	-5.066	65.918	-215.515	-76.96	13.73	-9.72	-56.742	-43.806	81.144	-0.77676	0.58289	-0.19461	-0.13751	31.1	13111	100
2025-3-27 18:24:22.664	WT901BLE68-01(48591DE3C19B)	-0.455	-0.826	0.332	-4.578	63.171	-210.632	-77.25	11.84	-10.93	-56.742	-43.806	81.144	-0.77676	0.58289	-0.19461	-0.13751	31.1	13111	100
2025-3-27 18:24:22.664	WT901BLE68-01(48591DE3C19B)	-0.551	-0.826	0.332	-4.578	63.171	-210.632	-77.49	9.96	-12.12	-56.742	-43.806	81.144	-0.77676	0.58289	-0.19461	-0.13751	31.1	13111	100
2025-3-27 18:24:22.664	WT901BLE68-01(48591DE3C19B)	-0.551	-0.836	0.343	-3.296	50.110	-200.562	-77.64	8.17	-13.12	-56.742	-43.806	81.144	-0.77676	0.58289	-0.19461	-0.13751	31.1	13111	100
2025-3-27 18:24:22.725	WT901BLE68-01(48591DE3C19B)	-0.613	-0.836	0.343	-3.296	50.110	-200.562	-77.77	6.39	-14.11	-56.742	-43.806	81.144	-0.77676	0.58289	-0.19461	-0.13751	31.1	13111	100
2025-3-27 18:24:22.725	WT901BLE68-01(48591DE3C19B)	-0.613	-0.856	0.319	-1.526	31.006	-187.195	-77.82	4.72	-14.86	-56.742	-43.806	81.144	-0.77676	0.58289	-0.19461	-0.13751	31.1	13111	100
2025-3-27 18:24:22.725	WT901BLE68-01(48591DE3C19B)	-0.683	-0.856	0.319	-1.526	31.006	-187.195	-77.85	3.07	-15.60	-56.742	-43.806	81.144	-0.77676	0.58289	-0.19461	-0.13751	31.1	13111	100
2025-3-27 18:24:22.725	WT901BLE68-01(48591DE3C19B)	-0.683	-0.905	0.317	1.648	6.653	-169.434	-77.82	1.56	-16.05	-56.742	-43.806	81.144	-0.77676	0.58289	-0.19461	-0.13751	31.1	13111	100
2025-3-27 18:24:22.757	WT901BLE68-01(48591DE3C19B)	-0.719	-0.905	0.317	1.648	6.653	-169.434	-77.78	0.07	-16.48	-56.742	-43.806	81.144	-0.77676	0.58289	-0.19461	-0.13751	31.1	13111	100
2025-3-27 18:24:22.757	WT901BLE68-01(48591DE3C19B)	-0.719	-0.979	0.339	3.662	-18.799	-150.024	-77.71	-1.27	-16.62	-56.742	-43.806	81.144	-0.77676	0.58289	-0.19461	-0.13751	31.1	13111	100
2025-3-27 18:24:22.757	WT901BLE68-01(48591DE3C19B)	-0.708	-0.979	0.339	3.662	-18.799	-150.024	-77.64	-2.60	-16.75	-56.742	-43.806	81.144	-0.77676	0.58289	-0.19461	-0.13751	31.1	13111	100
2025-3-27 18:24:22.757	WT901BLE68-01(48591DE3C19B)	-0.708	-1.092	0.375	4.944	-33.020	-131.470	-77.56	-3.77	-16.70	-56.742	-43.806	81.144	-0.77676	0.58289	-0.19461	-0.13751	31.1	13111	100
2025-3-27 18:24:22.786	WT901BLE68-01(48591DE3C19B)	-0.691	-1.092	0.375	4.944	-33.020	-131.470	-77.49	-4.92	-16.65	-56.742	-43.806	81.144	-0.77676	0.58289	-0.19461	-0.13751	31.1	13111	100
2025-3-27 18:24:22.786	WT901BLE68-01(48591DE3C19B)	-0.691	-1.197	0.402	7.446	-31.555	-115.295	-77.40	-5.92	-16.58	-56.742	-43.806	81.144	-0.77676	0.58289	-0.19461	-0.13751	31.1	13111	100
2025-3-27 18:24:22.787	WT901BLE68-01(48591DE3C19B)	-0.683	-1.197	0.402	7.446	-31.555	-115.295	-77.31	-6.90	-16.51	-50.960	-41.552	80.948	-0.77676	0.58289	-0.19461	-0.13751	31.1	13111	100
2025-3-27 18:24:22.787	WT901BLE68-01(48591DE3C19B)	-0.683	-1.296	0.429	6.836	-16.418	-99.487	-77.21	-7.69	-16.55	-50.960	-41.552	80.948	-0.77676	0.58289	-0.19461	-0.13751	31.1	13111	100
2025-3-27 18:24:22.844	WT901BLE68-01(48591DE3C19B)	-0.658	-1.296	0.429	6.836	-16.418	-99.487	-77.11	-8.48	-16.60	-50.960	-41.552	80.948	-0.77676	0.58289	-0.19461	-0.13751	31.1	13111	100
2025-3-27 18:24:22.845	WT901BLE68-01(48591DE3C19B)	-0.658	-1.347	0.449	8.972	9.338	-83.496	-76.95	-9.06	-16.86	-50.960	-41.552	80.948	-0.77676	0.58289	-0.19461	-0.13751	31.1	13111	100
2025-3-27 18:24:22.845	WT901BLE68-01(48591DE3C19B)	-0.636	-1.347	0.449	8.972	9.338	-83.496	-76.79	-9.63	-17.13	-50.960	-41.552	80.948	-0.77676	0.58289	-0.19461	-0.13751	31.1	13111	100
2025-3-27 18:24:22.845	WT901BLE68-01(48591DE3C19B)	-0.636	-1.271	0.449	7.629	40.222	-63.354	-76.60	-9.93	-17.66	-50.960	-41.552	80.948	-0.77676	0.58289	-0.19461	-0.13751	31.1	13111	100
2025-3-27 18:24:22.878	WT901BLE68-01(48591DE3C19B)	-0.651	-1.271	0.449	7.629	40.222	-63.354	-76.41	-10.23	-18.19	-50.960	-41.552	80.948	-0.77676	0.58289	-0.19461	-0.13751	31.1	13111	100
2025-3-27 18:24:22.878	WT901BLE68-01(48591DE3C19B)	-0.651	-1.191	0.432	0.061	61.096	-40.100	-76.26	-10.26	-18.87	-50.960	-41.552	80.948	-0.77676	0.58289	-0.19461	-0.13751	31.1	13111	100
2025-3-27 18:24:22.878	WT901BLE68-01(48591DE3C19B)	-0.666	-1.191	0.432	0.061	61.096	-40.100	-76.12	-10.28	-19.54	-50.960	-41.552	80.948	-0.77676	0.58289	-0.19461	-0.13751	31.1	13111	100
2025-3-27 18:24:22.879	WT901BLE68-01(48591DE3C19B)	-0.666	-1.129	0.448	-6.775	65.247	-17.761	-76.05	-10.07	-20.20	-50.960	-41.552	80.948	-0.77676	0.58289	-0.19461	-0.13751	31.1	13111	100
2025-3-27 18:24:22.934	WT901BLE68-01(48591DE3C19B)	-0.706	-1.129	0.448	-6.775	65.247	-17.761	-75.98	-9.87	-20.86	-50.960	-41.552	80.948	-0.77676	0.58289	-0.19461	-0.13751	31.1	13111	100
2025-3-27 18:24:22.934	WT901BLE68-01(48591DE3C19B)	-0.706	-1.063	0.454	-12.146	45.959	3.906	-76.00	-9.50	-21.26	-50.960	-41.552	80.948	-0.77676	0.58289	-0.19461	-0.13751	31.1	13111	100
2025-3-27 18:24:22.934	WT901BLE68-01(48591DE3C19B)	-0.739	-1.063	0.454	-12.146	45.959	3.906	-76.04	-9.13	-21.67	-50.960	-41.552	80.948	-0.77676	0.58289	-0.19461	-0.13751	31.1	13111	100
2025-3-27 18:24:22.935	WT901BLE68-01(48591DE3C19B)	-0.739	-0.997	0.407	-16.052	11.841	24.902	-76.17	-8.64	-21.68	-50.960	-41.552	80.948	-0.77676	0.58289	-0.19461	-0.13751	31.1	13111	100
2025-3-27 18:24:22.966	WT901BLE68-01(48591DE3C19B)	-0.757	-0.997	0.407	-16.052	11.841	24.902	-76.30	-8.14	-21.69	-50.960	-41.552	80.948	-0.77676	0.58289	-0.19461	-0.13751	31.1	13111	100
2025-3-27 18:24:22.966	WT901BLE68-01(48591DE3C19B)	-0.757	-0.954	0.315	-18.005	-28.381	47.974	-76.51	-7.52	-21.25	-50.960	-41.552	80.948	-0.77676	0.58289	-0.19461	-0.13751	31.1	13111	100
2025-3-27 18:24:22.967	WT901BLE68-01(48591DE3C19B)	-0.709	-0.954	0.315	-18.005	-28.381	47.974	-76.72	-6.89	-20.81	-50.960	-41.552	80.948	-0.77676	0.58289	-0.19461	-0.13751	31.1	13111	100
2025-3-27 18:24:22.967	WT901BLE68-01(48591DE3C19B)	-0.709	-0.954	0.240	-17.639	-66.345	73.914	-76.98	-6.10	-19.95	-50.960	-41.552	80.948	-0.77676	0.58289	-0.19461	-0.13751	31.1	13111	100
2025-3-27 18:24:22.997	WT901BLE68-01(48591DE3C19B)	-0.563	-0.954	0.240	-17.639	-66.345	73.914	-77.21	-5.31	-19.08	-50.960	-41.552	80.948	-0.77676	0.58289	-0.19461	-0.13751	31.1	13111	100
2025-3-27 18:24:22.997	WT901BLE68-01(48591DE3C19B)	-0.563	-1.003	0.166	-13.733	-86.487	101.135	-77.43	-4.30	-17.98	-50.960	-41.552	80.948	-0.77676	0.58289	-0.19461	-0.13751	31.1	13111	100
2025-3-27 18:24:22.997	WT901BLE68-01(48591DE3C19B)	-0.415	-1.003	0.166	-13.733	-86.487	101.135	-77.61	-3.29	-16.88	-50.960	-41.552	80.948	-0.77676	0.58289	-0.19461	-0.13751	31.1	13111	100
2025-3-27 18:24:22.997	WT901BLE68-01(48591DE3C19B)	-0.415	-1.039	0.099	-7.751	-91.064	125.793	-77.73	-2.06	-15.70	-50.960	-41.552	80.948	-0.76959	0.62341	-0.07181	0.11749	31.1	13111	100
2025-3-27 18:24:23.54	WT901BLE68-01(48591DE3C19B)	-0.294	-1.039	0.099	-7.751	-91.064	125.793	-77.82	-0.84	-14.53	-50.960	-41.552	80.948	-0.76959	0.62341	-0.07181	0.11749	31.1	13111	100
2025-3-27 18:24:23.54	WT901BLE68-01(48591DE3C19B)	-0.294	-1.122	0.057	-2.014	-86.609	145.020	-77.84	0.56	-13.38	-50.960	-41.552	80.948	-0.76959	0.62341	-0.07181	0.11749	31.1	13111	100
2025-3-27 18:24:23.55	WT901BLE68-01(48591DE3C19B)	-0.244	-1.122	0.057	-2.014	-86.609	145.020	-77.82	1.95	-12.24	-50.960	-41.552	80.948	-0.76959	0.62341	-0.07181	0.11749	31.1	13111	100
2025-3-27 18:24:23.55	WT901BLE68-01(48591DE3C19B)	-0.217	-1.172	0.077	5.005	-75.684	157.227	-77.72	3.46	-11.20	-50.960	-41.552	80.948	-0.76959	0.62341	-0.07181	0.11749	31.1	13111	100
2025-3-27 18:24:23.84	WT901BLE68-01(48591DE3C19B)	-0.217	-1.205	0.101	9.033	-63.110	162.842	-77.57	5.00	-10.22	-50.960	-41.552	80.948	-0.76959	0.62341	-0.07181	0.11749	31.1	13111	100
2025-3-27 18:24:23.85	WT901BLE68-01(48591DE3C19B)	-0.215	-1.205	0.101	9.033	-63.110	162.842	-77.39	6.55	-9.29	-50.960	-41.552	80.948	-0.76959	0.62341	-0.07181	0.11749	31.1	13111	100
2025-3-27 18:24:23.85	WT901BLE68-01(48591DE3C19B)	-0.215	-1.194	0.145	14.160	-46.570	166.748	-77.16	8.12	-8.45	-50.960	-41.552	80.948	-0.76959	0.62341	-0.07181	0.11749	31.1	13111	100
2025-3-27 18:24:23.85	WT901BLE68-01(48591DE3C19B)	-0.236	-1.194	0.145	14.160	-46.570	166.748	-76.90	9.72	-7.69	-50.960	-41.552	80.948	-0.76959	0.62341	-0.07181	0.11749	31.1	13111	100
2025-3-27 18:24:23.114	WT901BLE68-01(48591DE3C19B)	-0.236	-1.138	0.173	16.968	-28.015	168.518	-76.62	11.32	-7.01	-50.960	-41.552	80.948	-0.76959	0.62341	-0.07181	0.11749	31.1	13111	100
2025-3-27 18:24:23.114	WT901BLE68-01(48591DE3C19B)	-0.243	-1.138	0.173	16.968	-28.015	168.518	-76.33	12.94	-6.43	-50.960	-41.552	80.948	-0.76959	0.62341	-0.07181	0.11749	31.1	13111	100
2025-3-27 18:24:23.114	WT901BLE68-01(48591DE3C19B)	-0.243	-1.061	0.173	18.555	-4.944	168.396	-76.04	14.56	-5.95	-50.960	-41.552	80.948	-0.76959	0.62341	-0.07181	0.11749	31.1	13111	100
2025-3-27 18:24:23.114	WT901BLE68-01(48591DE3C19B)	-0.260	-1.061	0.173	18.555	-4.944	168.396	-75.75	16.20	-5.58	-50.960	-41.552	80.948	-0.76959	0.62341	-0.07181	0.11749	31.1	13111	100
2025-3-27 18:24:23.175	WT901BLE68-01(48591DE3C19B)	-0.260	-0.973	0.143	17.456	15.442	172.913	-75.49	17.87	-5.30	-50.960	-41.552	80.948	-0.76959	0.62341	-0.07181	0.11749	31.1	13111	100
2025-3-27 18:24:23.175	WT901BLE68-01(48591DE3C19B)	-0.249	-0.973	0.143	17.456	15.442	172.913	-75.25	19.57	-5.11	-50.960	-41.552	80.948	-0.76959	0.62341	-0.07181	0.11749	31.1	13111	100
2025-3-27 18:24:23.175	WT901BLE68-01(48591DE3C19B)	-0.249	-0.879	0.089	13.306	30.396	177.979	-75.05	21.31	-4.99	-50.960	-41.552	80.948	-0.76959	0.62341	-0.07181	0.11749	31.1	13111	100
2025-3-27 18:24:23.175	WT901BLE68-01(48591DE3C19B)	-0.235	-0.879	0.089	13.306	30.396	177.979	-74.89	23.08	-4.94	-50.960	-41.552	80.948	-0.76959	0.62341	-0.07181	0.11749	31.1	13111	100
2025-3-27 18:24:23.203	WT901BLE68-01(48591DE3C19B)	-0.235	-0.791	0.047	5.615	33.508	184.814	-74.78	24.88	-4.88	-48.706	-41.160	72.912	-0.76959	0.62341	-0.07181	0.11749	31.1	13111	100
2025-3-27 18:24:23.204	WT901BLE68-01(48591DE3C19B)	-0.222	-0.791	0.047	5.615	33.508	184.814	-74.70	26.70	-4.83	-48.706	-41.160	72.912	-0.76959	0.62341	-0.07181	0.11749	31.1	13111	100
2025-3-27 18:24:23.204	WT901BLE68-01(48591DE3C19B)	-0.222	-0.779	0.021	-5.920	25.696	191.406	-74.65	28.53	-4.74	-48.706	-41.160	72.912	-0.76959	0.62341	-0.07181	0.11749	31.1	13111	100
2025-3-27 18:24:23.204	WT901BLE68-01(48591DE3C19B)	-0.210	-0.779	0.021	-5.920	25.696	191.406	-74.62	30.38	-4.58	-48.706	-41.160	72.912	-0.76959	0.62341	-0.07181	0.11749	31.1	13111	100
2025-3-27 18:24:23.234	WT901BLE68-01(48591DE3C19B)	-0.210	-0.859	0.008	-18.677	11.414	195.374	-74.62	32.21	-4.33	-48.706	-41.160	72.912	-0.76959	0.62341	-0.07181	0.11749	31.1	13111	100
2025-3-27 18:24:23.234	WT901BLE68-01(48591DE3C19B)	-0.221	-0.859	0.008	-18.677	11.414	195.374	-74.62	34.04	-4.00	-48.706	-41.160	72.912	-0.76959	0.62341	-0.07181	0.11749	31.1	13111	100
2025-3-27 18:24:23.234	WT901BLE68-01(48591DE3C19B)	-0.221	-0.989	0.029	-29.053	-5.554	193.604	-74.61	35.82	-3.58	-48.706	-41.160	72.912	-0.76959	0.62341	-0.07181	0.11749	31.1	13111	100
2025-3-27 18:24:23.234	WT901BLE68-01(48591DE3C19B)	-0.268	-0.989	0.029	-29.053	-5.554	193.604	-74.58	37.56	-3.04	-48.706	-41.160	72.912	-0.76959	0.62341	-0.07181	0.11749	31.1	13111	100
2025-3-27 18:24:23.295	WT901BLE68-01(48591DE3C19B)	-0.268	-1.210	0.087	-38.879	-30.823	185.486	-74.49	39.21	-2.37	-48.706	-41.160	72.912	-0.76959	0.62341	-0.07181	0.11749	31.1	13111	100
2025-3-27 18:24:23.295	WT901BLE68-01(48591DE3C19B)	-0.296	-1.210	0.087	-38.879	-30.823	185.486	-74.32	40.78	-1.53	-48.706	-41.160	72.912	-0.76959	0.62341	-0.07181	0.11749	31.1	13111	100
2025-3-27 18:24:23.295	WT901BLE68-01(48591DE3C19B)	-0.296	-1.460	0.127	-39.734	-59.509	169.189	-74.03	42.22	-0.52	-48.706	-41.160	72.912	-0.76959	0.62341	-0.07181	0.11749	31.1	13111	100
2025-3-27 18:24:23.295	WT901BLE68-01(48591DE3C19B)	-0.271	-1.460	0.127	-39.734	-59.509	169.189	-73.60	43.53	0.66	-48.706	-41.160	72.912	-0.76959	0.62341	-0.07181	0.11749	31.1	13111	100
2025-3-27 18:24:23.323	WT901BLE68-01(48591DE3C19B)	-0.271	-1.610	0.174	-32.593	-80.994	149.414	-73.02	44.70	1.99	-48.706	-41.160	72.912	-0.76959	0.62341	-0.07181	0.11749	31.1	13111	100
2025-3-27 18:24:23.324	WT901BLE68-01(48591DE3C19B)	-0.258	-1.610	0.174	-32.593	-80.994	149.414	-72.27	45.71	3.44	-48.706	-41.160	72.912	-0.76959	0.62341	-0.07181	0.11749	31.1	13111	100
2025-3-27 18:24:23.324	WT901BLE68-01(48591DE3C19B)	-0.258	-1.672	0.238	-24.231	-93.933	123.169	-71.43	46.57	4.96	-48.706	-41.160	72.912	-0.76959	0.62341	-0.07181	0.11749	31.1	13111	100
2025-3-27 18:24:23.324	WT901BLE68-01(48591DE3C19B)	-0.209	-1.672	0.238	-24.231	-93.933	123.169	-70.49	47.26	6.54	-48.706	-41.160	72.912	-0.76959	0.62341	-0.07181	0.11749	31.1	13111	100
2025-3-27 18:24:23.356	WT901BLE68-01(48591DE3C19B)	-0.209	-1.707	0.270	-16.357	-98.694	88.440	-69.52	47.75	8.07	-48.706	-41.160	72.912	-0.76959	0.62341	-0.07181	0.11749	31.1	13111	100
2025-3-27 18:24:23.356	WT901BLE68-01(48591DE3C19B)	-0.139	-1.707	0.270	-16.357	-98.694	88.440	-68.53	48.04	9.56	-48.706	-41.160	72.912	-0.76959	0.62341	-0.07181	0.11749	31.1	13111	100
2025-3-27 18:24:23.356	WT901BLE68-01(48591DE3C19B)	-0.139	-1.621	0.273	-2.441	-90.393	54.016	-67.58	48.18	10.90	-48.706	-41.160	72.912	-0.76959	0.62341	-0.07181	0.11749	31.1	13111	100
2025-3-27 18:24:23.357	WT901BLE68-01(48591DE3C19B)	-0.030	-1.621	0.273	-2.441	-90.393	54.016	-66.69	48.15	12.08	-48.706	-41.160	72.912	-0.76959	0.62341	-0.07181	0.11749	31.1	13111	100
2025-3-27 18:24:23.415	WT901BLE68-01(48591DE3C19B)	-0.030	-1.444	0.250	4.883	-65.613	14.343	-65.98	47.98	12.95	-48.706	-41.160	72.912	-0.76959	0.62341	-0.07181	0.11749	31.1	13111	100
2025-3-27 18:24:23.416	WT901BLE68-01(48591DE3C19B)	0.056	-1.444	0.250	4.883	-65.613	14.343	-65.47	47.66	13.52	-48.706	-41.160	72.912	-0.73932	0.53040	-0.27759	-0.30807	31.1	13111	100
2025-3-27 18:24:23.416	WT901BLE68-01(48591DE3C19B)	0.056	-1.271	0.193	8.606	-23.987	-28.259	-65.25	47.24	13.66	-48.706	-41.160	72.912	-0.73932	0.53040	-0.27759	-0.30807	31.1	13111	100
2025-3-27 18:24:23.416	WT901BLE68-01(48591DE3C19B)	0.058	-1.271	0.193	8.606	-23.987	-28.259	-65.32	46.71	13.39	-48.706	-41.160	72.912	-0.73932	0.53040	-0.27759	-0.30807	31.1	13111	100
2025-3-27 18:24:23.444	WT901BLE68-01(48591DE3C19B)	0.058	-1.103	0.179	8.057	20.203	-70.068	-65.69	46.08	12.69	-48.706	-41.160	72.912	-0.73932	0.53040	-0.27759	-0.30807	31.1	13111	100
2025-3-27 18:24:23.444	WT901BLE68-01(48591DE3C19B)	-0.028	-1.103	0.179	8.057	20.203	-70.068	-66.35	45.34	11.61	-48.706	-41.160	72.912	-0.73932	0.53040	-0.27759	-0.30807	31.1	13111	100
2025-3-27 18:24:23.444	WT901BLE68-01(48591DE3C19B)	-0.028	-0.995	0.184	7.202	52.673	-104.492	-67.19	44.51	10.26	-48.706	-41.160	72.912	-0.73932	0.53040	-0.27759	-0.30807	31.1	13111	100
2025-3-27 18:24:23.444	WT901BLE68-01(48591DE3C19B)	-0.090	-0.995	0.184	7.202	52.673	-104.492	-68.20	43.56	8.65	-48.706	-41.160	72.912	-0.73932	0.53040	-0.27759	-0.30807	31.1	13111	100
2025-3-27 18:24:23.480	WT901BLE68-01(48591DE3C19B)	-0.090	-0.876	0.205	9.399	71.716	-126.343	-69.25	42.52	6.92	-48.706	-41.160	72.912	-0.73932	0.53040	-0.27759	-0.30807	31.1	13111	100
2025-3-27 18:24:23.480	WT901BLE68-01(48591DE3C19B)	-0.125	-0.876	0.205	9.399	71.716	-126.343	-70.35	41.41	5.09	-48.706	-41.160	72.912	-0.73932	0.53040	-0.27759	-0.30807	31.1	13111	100
2025-3-27 18:24:23.480	WT901BLE68-01(48591DE3C19B)	-0.125	-0.762	0.238	10.071	79.834	-138.245	-71.41	40.23	3.25	-48.706	-41.160	72.912	-0.73932	0.53040	-0.27759	-0.30807	31.1	13111	100
2025-3-27 18:24:23.480	WT901BLE68-01(48591DE3C19B)	-0.178	-0.762	0.238	10.071	79.834	-138.245	-72.43	38.98	1.41	-48.706	-41.160	72.912	-0.73932	0.53040	-0.27759	-0.30807	31.1	13111	100
2025-3-27 18:24:23.534	WT901BLE68-01(48591DE3C19B)	-0.178	-0.721	0.262	8.240	77.515	-145.813	-73.39	37.69	-0.36	-48.706	-41.160	72.912	-0.73932	0.53040	-0.27759	-0.30807	31.1	13111	100
2025-3-27 18:24:23.535	WT901BLE68-01(48591DE3C19B)	-0.238	-0.721	0.262	8.240	77.515	-145.813	-74.28	36.34	-2.05	-48.706	-41.160	72.912	-0.73932	0.53040	-0.27759	-0.30807	31.1	13111	100
2025-3-27 18:24:23.535	WT901BLE68-01(48591DE3C19B)	-0.238	-0.756	0.257	3.662	65.857	-153.259	-75.08	34.88	-3.57	-48.706	-41.160	72.912	-0.73932	0.53040	-0.27759	-0.30807	31.1	13111	100
2025-3-27 18:24:23.535	WT901BLE68-01(48591DE3C19B)	-0.269	-0.756	0.257	3.662	65.857	-153.259	-75.80	33.41	-5.03	-48.706	-41.160	72.912	-0.73932	0.53040	-0.27759	-0.30807	31.1	13111	100
2025-3-27 18:24:23.566	WT901BLE68-01(48591DE3C19B)	-0.269	-0.808	0.241	0.671	42.542	-158.508	-76.35	31.83	-6.17	-48.706	-41.160	72.912	-0.73932	0.53040	-0.27759	-0.30807	31.1	13111	100
2025-3-27 18:24:23.566	WT901BLE68-01(48591DE3C19B)	-0.270	-0.808	0.241	0.671	42.542	-158.508	-76.86	30.27	-7.27	-48.706	-41.160	72.912	-0.73932	0.53040	-0.27759	-0.30807	31.1	13111	100
2025-3-27 18:24:23.566	WT901BLE68-01(48591DE3C19B)	-0.270	-0.847	0.231	-3.174	17.090	-165.894	-77.23	28.58	-8.06	-48.706	-41.160	72.912	-0.73932	0.53040	-0.27759	-0.30807	31.1	13111	100
2025-3-27 18:24:23.566	WT901BLE68-01(48591DE3C19B)	-0.235	-0.847	0.231	-3.174	17.090	-165.894	-77.56	26.89	-8.82	-48.706	-41.160	72.912	-0.73932	0.53040	-0.27759	-0.30807	31.1	13111	100
2025-3-27 18:24:23.597	WT901BLE68-01(48591DE3C19B)	-0.235	-0.872	0.218	-6.958	3.967	-174.988	-77.84	25.10	-9.43	-48.706	-41.160	72.912	-0.73932	0.53040	-0.27759	-0.30807	31.1	13111	100
2025-3-27 18:24:23.597	WT901BLE68-01(48591DE3C19B)	-0.222	-0.872	0.218	-6.958	3.967	-174.988	-78.10	23.32	-10.01	-48.706	-41.160	72.912	-0.73932	0.53040	-0.27759	-0.30807	31.1	13111	100
2025-3-27 18:24:23.597	WT901BLE68-01(48591DE3C19B)	-0.222	-0.911	0.210	-8.484	7.080	-184.937	-78.37	21.47	-10.63	-46.648	-42.630	65.954	-0.73932	0.53040	-0.27759	-0.30807	31.1	13111	100
2025-3-27 18:24:23.597	WT901BLE68-01(48591DE3C19B)	-0.239	-0.911	0.210	-8.484	7.080	-184.937	-78.62	19.62	-11.22	-46.648	-42.630	65.954	-0.73932	0.53040	-0.27759	-0.30807	31.1	13111	100
2025-3-27 18:24:23.654	WT901BLE68-01(48591DE3C19B)	-0.239	-0.947	0.212	-8.362	18.250	-195.862	-78.89	17.69	-11.94	-46.648	-42.630	65.954	-0.73932	0.53040	-0.27759	-0.30807	31.1	13111	100
2025-3-27 18:24:23.654	WT901BLE68-01(48591DE3C19B)	-0.271	-0.947	0.212	-8.362	18.250	-195.862	-79.12	15.78	-12.63	-46.648	-42.630	65.954	-0.73932	0.53040	-0.27759	-0.30807	31.1	13111	100
2025-3-27 18:24:23.654	WT901BLE68-01(48591DE3C19B)	-0.271	-0.958	0.226	-6.775	27.832	-203.979	-79.35	13.81	-13.41	-46.648	-42.630	65.954	-0.73932	0.53040	-0.27759	-0.30807	31.1	13111	100
2025-3-27 18:24:23.655	WT901BLE68-01(48591DE3C19B)	-0.301	-0.958	0.226	-6.775	27.832	-203.979	-79.55	11.85	-14.17	-46.648	-42.630	65.954	-0.73932	0.53040	-0.27759	-0.30807	31.1	13111	100
2025-3-27 18:24:23.684	WT901BLE68-01(48591DE3C19B)	-0.301	-0.955	0.259	-6.226	32.349	-208.801	-79.73	9.87	-14.97	-46.648	-42.630	65.954	-0.73932	0.53040	-0.27759	-0.30807	31.1	13111	100
2025-3-27 18:24:23.685	WT901BLE68-01(48591DE3C19B)	-0.354	-0.955	0.259	-6.226	32.349	-208.801	-79.87	7.90	-15.75	-46.648	-42.630	65.954	-0.73932	0.53040	-0.27759	-0.30807	31.1	13111	100
2025-3-27 18:24:23.685	WT901BLE68-01(48591DE3C19B)	-0.354	-0.962	0.301	-5.493	29.236	-209.900	-79.98	5.93	-16.49	-46.648	-42.630	65.954	-0.73932	0.53040	-0.27759	-0.30807	31.1	13111	100
2025-3-27 18:24:23.685	WT901BLE68-01(48591DE3C19B)	-0.398	-0.962	0.301	-5.493	29.236	-209.900	-80.06	3.97	-17.22	-46.648	-42.630	65.954	-0.73932	0.53040	-0.27759	-0.30807	31.1	13111	100
2025-3-27 18:24:23.714	WT901BLE68-01(48591DE3C19B)	-0.398	-0.978	0.342	-4.028	18.982	-205.872	-80.09	2.05	-17.83	-46.648	-42.630	65.954	-0.73932	0.53040	-0.27759	-0.30807	31.1	13111	100
2025-3-27 18:24:23.715	WT901BLE68-01(48591DE3C19B)	-0.439	-0.978	0.342	-4.028	18.982	-205.872	-80.10	0.14	-18.42	-46.648	-42.630	65.954	-0.73932	0.53040	-0.27759	-0.30807	31.1	13111	100
2025-3-27 18:24:23.715	WT901BLE68-01(48591DE3C19B)	-0.439	-1.015	0.381	-2.197	2.930	-195.801	-80.08	-1.68	-18.84	-46.648	-42.630	65.954	-0.73932	0.53040	-0.27759	-0.30807	31.1	13111	100
2025-3-27 18:24:23.715	WT901BLE68-01(48591DE3C19B)	-0.447	-1.015	0.381	-2.197	2.930	-195.801	-80.04	-3.48	-19.25	-46.648	-42.630	65.954	-0.73932	0.53040	-0.27759	-0.30807	31.1	13111	100
2025-3-27 18:24:23.778	WT901BLE68-01(48591DE3C19B)	-0.447	-1.081	0.380	0.854	-14.343	-181.580	-79.97	-5.16	-19.47	-46.648	-42.630	65.954	-0.73932	0.53040	-0.27759	-0.30807	31.1	13111	100
2025-3-27 18:24:23.778	WT901BLE68-01(48591DE3C19B)	-0.402	-1.081	0.380	0.854	-14.343	-181.580	-79.89	-6.83	-19.69	-46.648	-42.630	65.954	-0.73932	0.53040	-0.27759	-0.30807	31.1	13111	100
2025-3-27 18:24:23.778	WT901BLE68-01(48591DE3C19B)	-0.402	-1.148	0.347	2.502	-25.208	-165.283	-79.82	-8.35	-19.78	-46.648	-42.630	65.954	-0.73932	0.53040	-0.27759	-0.30807	31.1	13111	100
2025-3-27 18:24:23.778	WT901BLE68-01(48591DE3C19B)	-0.349	-1.148	0.347	2.502	-25.208	-165.283	-79.73	-9.86	-19.86	-46.648	-42.630	65.954	-0.73932	0.53040	-0.27759	-0.30807	31.1	13111	100
2025-3-27 18:24:23.804	WT901BLE68-01(48591DE3C19B)	-0.349	-1.228	0.303	1.831	-25.269	-149.292	-79.67	-11.21	-19.92	-46.648	-42.630	65.954	-0.73932	0.53040	-0.27759	-0.30807	31.1	13111	100
2025-3-27 18:24:23.804	WT901BLE68-01(48591DE3C19B)	-0.327	-1.228	0.303	1.831	-25.269	-149.292	-79.60	-12.54	-19.98	-46.648	-42.630	65.954	-0.73932	0.53040	-0.27759	-0.30807	31.1	13111	100
2025-3-27 18:24:23.804	WT901BLE68-01(48591DE3C19B)	-0.327	-1.339	0.287	0.671	-15.869	-128.235	-79.54	-13.65	-20.10	-46.648	-42.630	65.954	-0.73932	0.53040	-0.27759	-0.30807	31.1	13111	100
2025-3-27 18:24:23.804	WT901BLE68-01(48591DE3C19B)	-0.326	-1.339	0.287	0.671	-15.869	-128.235	-79.47	-14.76	-20.22	-46.648	-42.630	65.954	-0.73633	0.64139	-0.01404	0.21472	31.1	13111	100
2025-3-27 18:24:23.834	WT901BLE68-01(48591DE3C19B)	-0.326	-1.352	0.313	2.441	2.441	-109.314	-79.34	-15.64	-20.49	-46.648	-42.630	65.954	-0.73633	0.64139	-0.01404	0.21472	31.1	13111	100
2025-3-27 18:24:23.834	WT901BLE68-01(48591DE3C19B)	-0.326	-1.352	0.313	2.441	2.441	-109.314	-79.22	-16.52	-20.78	-46.648	-42.630	65.954	-0.73633	0.64139	-0.01404	0.21472	31.1	13111	100
2025-3-27 18:24:23.834	WT901BLE68-01(48591DE3C19B)	-0.326	-1.275	0.352	0.122	30.396	-85.083	-79.04	-17.11	-21.29	-46.648	-42.630	65.954	-0.73633	0.64139	-0.01404	0.21472	31.1	13111	100
2025-3-27 18:24:23.835	WT901BLE68-01(48591DE3C19B)	-0.363	-1.275	0.352	0.122	30.396	-85.083	-78.87	-17.69	-21.81	-46.648	-42.630	65.954	-0.73633	0.64139	-0.01404	0.21472	31.1	13111	100
2025-3-27 18:24:23.895	WT901BLE68-01(48591DE3C19B)	-0.363	-1.167	0.378	-4.822	56.091	-57.800	-78.67	-17.95	-22.54	-46.648	-42.630	65.954	-0.73633	0.64139	-0.01404	0.21472	31.1	13111	100
2025-3-27 18:24:23.895	WT901BLE68-01(48591DE3C19B)	-0.418	-1.167	0.378	-4.822	56.091	-57.800	-78.46	-18.20	-23.27	-46.648	-42.630	65.954	-0.73633	0.64139	-0.01404	0.21472	31.1	13111	100
2025-3-27 18:24:23.895	WT901BLE68-01(48591DE3C19B)	-0.418	-1.093	0.430	-12.695	63.416	-33.569	-78.33	-18.20	-24.03	-46.648	-42.630	65.954	-0.73633	0.64139	-0.01404	0.21472	31.1	13111	100
2025-3-27 18:24:23.895	WT901BLE68-01(48591DE3C19B)	-0.493	-1.093	0.430	-12.695	63.416	-33.569	-78.20	-18.20	-24.77	-46.648	-42.630	65.954	-0.73633	0.64139	-0.01404	0.21472	31.1	13111	100
2025-3-27 18:24:23.923	WT901BLE68-01(48591DE3C19B)	-0.493	-1.066	0.478	-17.395	46.448	-10.742	-78.18	-18.00	-25.29	-46.648	-42.630	65.954	-0.73633	0.64139	-0.01404	0.21472	31.1	13111	100
2025-3-27 18:24:23.924	WT901BLE68-01(48591DE3C19B)	-0.526	-1.066	0.478	-17.395	46.448	-10.742	-78.16	-17.80	-25.81	-46.648	-42.630	65.954	-0.73633	0.64139	-0.01404	0.21472	31.1	13111	100
2025-3-27 18:24:23.924	WT901BLE68-01(48591DE3C19B)	-0.526	-0.952	0.485	-17.090	22.339	10.376	-78.23	-17.44	-26.03	-46.648	-42.630	65.954	-0.73633	0.64139	-0.01404	0.21472	31.1	13111	100
2025-3-27 18:24:23.924	WT901BLE68-01(48591DE3C19B)	-0.565	-0.952	0.485	-17.090	22.339	10.376	-78.29	-17.08	-26.24	-46.648	-42.630	65.954	-0.73633	0.64139	-0.01404	0.21472	31.1	13111	100
2025-3-27 18:24:23.956	WT901BLE68-01(48591DE3C19B)	-0.565	-0.855	0.412	-16.541	-5.432	32.837	-78.44	-16.56	-26.12	-46.648	-42.630	65.954	-0.73633	0.64139	-0.01404	0.21472	31.1	13111	100
2025-3-27 18:24:23.956	WT901BLE68-01(48591DE3C19B)	-0.569	-0.855	0.412	-16.541	-5.432	32.837	-78.60	-16.02	-25.99	-46.648	-42.630	65.954	-0.73633	0.64139	-0.01404	0.21472	31.1	13111	100
2025-3-27 18:24:23.956	WT901BLE68-01(48591DE3C19B)	-0.528	-0.831	0.313	-13.977	-33.264	54.565	-78.80	-15.33	-25.54	-46.648	-42.630	65.954	-0.73633	0.64139	-0.01404	0.21472	31.1	13111	100
2025-3-27 18:24:23.956	WT901BLE68-01(48591DE3C19B)	-0.528	-0.850	0.224	-10.193	-55.847	77.820	-79.02	-14.55	-24.96	-46.648	-42.630	65.954	-0.73633	0.64139	-0.01404	0.21472	31.1	13111	100
2025-3-27 18:24:24.15	WT901BLE68-01(48591DE3C19B)	-0.467	-0.850	0.224	-10.193	-55.847	77.820	-79.26	-13.66	-24.23	-46.648	-42.630	65.954	-0.73633	0.64139	-0.01404	0.21472	31.1	13111	100
2025-3-27 18:24:24.15	WT901BLE68-01(48591DE3C19B)	-0.467	-0.937	0.169	-7.019	-72.205	99.548	-79.48	-12.69	-23.41	-43.316	-29.792	67.424	-0.73633	0.64139	-0.01404	0.21472	31.1	13111	100
2025-3-27 18:24:24.15	WT901BLE68-01(48591DE3C19B)	-0.385	-0.937	0.169	-7.019	-72.205	99.548	-79.70	-11.62	-22.49	-43.316	-29.792	67.424	-0.73633	0.64139	-0.01404	0.21472	31.1	13111	100
2025-3-27 18:24:24.15	WT901BLE68-01(48591DE3C19B)	-0.385	-1.090	0.148	-0.488	-82.520	119.263	-79.89	-10.48	-21.51	-43.316	-29.792	67.424	-0.73633	0.64139	-0.01404	0.21472	31.1	13111	100
2025-3-27 18:24:24.43	WT901BLE68-01(48591DE3C19B)	-0.289	-1.090	0.148	-0.488	-82.520	119.263	-80.03	-9.24	-20.48	-43.316	-29.792	67.424	-0.73633	0.64139	-0.01404	0.21472	31.1	13111	100
2025-3-27 18:24:24.43	WT901BLE68-01(48591DE3C19B)	-0.289	-1.193	0.127	9.766	-82.520	138.733	-80.11	-7.93	-19.44	-43.316	-29.792	67.424	-0.73633	0.64139	-0.01404	0.21472	31.1	13111	100
2025-3-27 18:24:24.44	WT901BLE68-01(48591DE3C19B)	-0.196	-1.193	0.127	9.766	-82.520	138.733	-80.11	-6.53	-18.40	-43.316	-29.792	67.424	-0.73633	0.64139	-0.01404	0.21472	31.1	13111	100
2025-3-27 18:24:24.44	WT901BLE68-01(48591DE3C19B)	-0.196	-1.199	0.129	19.836	-66.101	155.762	-80.04	-5.05	-17.43	-43.316	-29.792	67.424	-0.73633	0.64139	-0.01404	0.21472	31.1	13111	100
2025-3-27 18:24:24.79	WT901BLE68-01(48591DE3C19B)	-0.141	-1.199	0.129	19.836	-66.101	155.762	-79.89	-3.49	-16.54	-43.316	-29.792	67.424	-0.73633	0.64139	-0.01404	0.21472	31.1	13111	100
2025-3-27 18:24:24.79	WT901BLE68-01(48591DE3C19B)	-0.141	-1.131	0.138	24.658	-40.283	171.326	-79.68	-1.85	-15.77	-43.316	-29.792	67.424	-0.73633	0.64139	-0.01404	0.21472	31.1	13111	100
2025-3-27 18:24:24.79	WT901BLE68-01(48591DE3C19B)	-0.143	-1.131	0.138	24.658	-40.283	171.326	-79.44	-0.13	-15.10	-43.316	-29.792	67.424	-0.73633	0.64139	-0.01404	0.21472	31.1	13111	100
2025-3-27 18:24:24.79	WT901BLE68-01(48591DE3C19B)	-0.143	-1.032	0.167	25.574	-18.799	186.096	-79.17	1.66	-14.53	-43.316	-29.792	67.424	-0.73633	0.64139	-0.01404	0.21472	31.1	13111	100
2025-3-27 18:24:24.135	WT901BLE68-01(48591DE3C19B)	-0.153	-1.032	0.167	25.574	-18.799	186.096	-78.88	3.53	-14.05	-43.316	-29.792	67.424	-0.73633	0.64139	-0.01404	0.21472	31.1	13111	100
2025-3-27 18:24:24.135	WT901BLE68-01(48591DE3C19B)	-0.153	-0.920	0.216	23.560	-3.540	199.158	-78.60	5.46	-13.62	-43.316	-29.792	67.424	-0.73633	0.64139	-0.01404	0.21472	31.1	13111	100
2025-3-27 18:24:24.135	WT901BLE68-01(48591DE3C19B)	-0.176	-0.920	0.216	23.560	-3.540	199.158	-78.31	7.45	-13.25	-43.316	-29.792	67.424	-0.73633	0.64139	-0.01404	0.21472	31.1	13111	100
2025-3-27 18:24:24.135	WT901BLE68-01(48591DE3C19B)	-0.176	-0.870	0.229	19.409	11.108	212.097	-78.04	9.50	-12.93	-43.316	-29.792	67.424	-0.73633	0.64139	-0.01404	0.21472	31.1	13111	100
2025-3-27 18:24:24.166	WT901BLE68-01(48591DE3C19B)	-0.214	-0.870	0.229	19.409	11.108	212.097	-77.78	11.62	-12.66	-43.316	-29.792	67.424	-0.73633	0.64139	-0.01404	0.21472	31.1	13111	100
2025-3-27 18:24:24.166	WT901BLE68-01(48591DE3C19B)	-0.214	-0.823	0.185	16.663	24.292	223.694	-77.54	13.79	-12.43	-43.316	-29.792	67.424	-0.73633	0.64139	-0.01404	0.21472	31.1	13111	100
2025-3-27 18:24:24.166	WT901BLE68-01(48591DE3C19B)	-0.230	-0.823	0.185	16.663	24.292	223.694	-77.31	16.01	-12.24	-43.316	-29.792	67.424	-0.73633	0.64139	-0.01404	0.21472	31.1	13111	100
2025-3-27 18:24:24.166	WT901BLE68-01(48591DE3C19B)	-0.230	-0.785	0.129	10.376	32.166	232.117	-77.11	18.28	-12.08	-43.316	-29.792	67.424	-0.73633	0.64139	-0.01404	0.21472	31.1	13111	100
2025-3-27 18:24:24.197	WT901BLE68-01(48591DE3C19B)	-0.246	-0.785	0.129	10.376	32.166	232.117	-76.95	20.58	-11.93	-43.316	-29.792	67.424	-0.73633	0.64139	-0.01404	0.21472	31.1	13111	100
2025-3-27 18:24:24.197	WT901BLE68-01(48591DE3C19B)	-0.246	-0.848	0.092	0.549	29.785	238.098	-76.82	22.89	-11.76	-43.316	-29.792	67.424	-0.73633	0.64139	-0.01404	0.21472	31.1	13111	100
2025-3-27 18:24:24.197	WT901BLE68-01(48591DE3C19B)	-0.265	-0.848	0.092	0.549	29.785	238.098	-76.72	25.22	-11.56	-43.316	-29.792	67.424	-0.77493	0.58527	-0.23129	-0.05771	31.1	13111	100
2025-3-27 18:24:24.197	WT901BLE68-01(48591DE3C19B)	-0.265	-1.005	0.081	-8.484	14.587	238.892	-76.62	27.52	-11.27	-43.316	-29.792	67.424	-0.77493	0.58527	-0.23129	-0.05771	31.1	13111	100
2025-3-27 18:24:24.254	WT901BLE68-01(48591DE3C19B)	-0.271	-1.005	0.081	-8.484	14.587	238.892	-76.51	29.79	-10.88	-43.316	-29.792	67.424	-0.77493	0.58527	-0.23129	-0.05771	31.1	13111	100
2025-3-27 18:24:24.255	WT901BLE68-01(48591DE3C19B)	-0.271	-1.224	0.091	-13.489	-7.446	231.934	-76.35	31.99	-10.37	-43.316	-29.792	67.424	-0.77493	0.58527	-0.23129	-0.05771	31.1	13111	100
2025-3-27 18:24:24.255	WT901BLE68-01(48591DE3C19B)	-0.265	-1.224	0.091	-13.489	-7.446	231.934	-76.13	34.11	-9.72	-43.316	-29.792	67.424	-0.77493	0.58527	-0.23129	-0.05771	31.1	13111	100
2025-3-27 18:24:24.255	WT901BLE68-01(48591DE3C19B)	-0.265	-1.487	0.092	-14.099	-30.334	215.637	-75.82	36.12	-8.95	-43.316	-29.792	67.424	-0.77493	0.58527	-0.23129	-0.05771	31.1	13111	100
2025-3-27 18:24:24.287	WT901BLE68-01(48591DE3C19B)	-0.254	-1.487	0.092	-14.099	-30.334	215.637	-75.40	37.99	-8.04	-43.316	-29.792	67.424	-0.77493	0.58527	-0.23129	-0.05771	31.1	13111	100
2025-3-27 18:24:24.287	WT901BLE68-01(48591DE3C19B)	-0.254	-1.764	0.088	-9.888	-49.561	191.406	-74.88	39.71	-7.01	-43.316	-29.792	67.424	-0.77493	0.58527	-0.23129	-0.05771	31.1	13111	100
2025-3-27 18:24:24.287	WT901BLE68-01(48591DE3C19B)	-0.229	-1.764	0.088	-9.888	-49.561	191.406	-74.23	41.26	-5.87	-43.316	-29.792	67.424	-0.77493	0.58527	-0.23129	-0.05771	31.1	13111	100
2025-3-27 18:24:24.287	WT901BLE68-01(48591DE3C19B)	-0.229	-1.890	0.111	2.991	-59.082	161.499	-73.48	42.64	-4.69	-43.316	-29.792	67.424	-0.77493	0.58527	-0.23129	-0.05771	31.1	13111	100
2025-3-27 18:24:24.315	WT901BLE68-01(48591DE3C19B)	-0.208	-1.890	0.111	2.991	-59.082	161.499	-72.61	43.84	-3.47	-43.316	-29.792	67.424	-0.77493	0.58527	-0.23129	-0.05771	31.1	13111	100
2025-3-27 18:24:24.315	WT901BLE68-01(48591DE3C19B)	-0.208	-1.813	0.162	10.498	-60.730	121.826	-71.72	44.82	-2.29	-43.316	-29.792	67.424	-0.77493	0.58527	-0.23129	-0.05771	31.1	13111	100
2025-3-27 18:24:24.315	WT901BLE68-01(48591DE3C19B)	-0.173	-1.813	0.162	10.498	-60.730	121.826	-70.81	45.59	-1.16	-43.316	-29.792	67.424	-0.77493	0.58527	-0.23129	-0.05771	31.1	13111	100
2025-3-27 18:24:24.315	WT901BLE68-01(48591DE3C19B)	-0.173	-1.731	0.202	16.479	-49.683	82.092	-69.97	46.18	-0.18	-43.316	-29.792	67.424	-0.77493	0.58527	-0.23129	-0.05771	31.1	13111	100
2025-3-27 18:24:24.377	WT901BLE68-01(48591DE3C19B)	-0.135	-1.731	0.202	16.479	-49.683	82.092	-69.21	46.59	0.64	-43.316	-29.792	67.424	-0.77493	0.58527	-0.23129	-0.05771	31.1	13111	100
2025-3-27 18:24:24.378	WT901BLE68-01(48591DE3C19B)	-0.135	-1.557	0.235	20.203	-24.963	43.274	-68.63	46.85	1.19	-43.316	-29.792	67.424	-0.77493	0.58527	-0.23129	-0.05771	31.1	13111	100
2025-3-27 18:24:24.378	WT901BLE68-01(48591DE3C19B)	-0.083	-1.557	0.235	20.203	-24.963	43.274	-68.21	46.96	1.47	-43.316	-29.792	67.424	-0.77493	0.58527	-0.23129	-0.05771	31.1	13111	100
2025-3-27 18:24:24.378	WT901BLE68-01(48591DE3C19B)	-0.083	-1.410	0.256	23.132	-0.244	9.399	-67.98	46.97	1.48	-43.316	-29.792	67.424	-0.77493	0.58527	-0.23129	-0.05771	31.1	13111	100
2025-3-27 18:24:24.406	WT901BLE68-01(48591DE3C19B)	-0.008	-1.410	0.256	23.132	-0.244	9.399	-67.92	46.85	1.24	-43.316	-29.792	67.424	-0.77493	0.58527	-0.23129	-0.05771	31.1	13111	100
2025-3-27 18:24:24.407	WT901BLE68-01(48591DE3C19B)	-0.008	-1.289	0.235	25.024	23.071	-23.987	-68.04	46.63	0.74	-43.316	-29.792	67.424	-0.77493	0.58527	-0.23129	-0.05771	31.1	13111	100
2025-3-27 18:24:24.407	WT901BLE68-01(48591DE3C19B)	0.001	-1.289	0.235	25.024	23.071	-23.987	-68.31	46.29	0.00	-43.316	-29.792	67.424	-0.77493	0.58527	-0.23129	-0.05771	31.1	13111	100
2025-3-27 18:24:24.407	WT901BLE68-01(48591DE3C19B)	0.001	-1.131	0.215	29.480	44.373	-51.880	-68.71	45.86	-0.94	-42.630	-49.196	61.544	-0.77493	0.58527	-0.23129	-0.05771	31.1	13111	100
2025-3-27 18:24:24.436	WT901BLE68-01(48591DE3C19B)	-0.047	-1.131	0.215	29.480	44.373	-51.880	-69.22	45.33	-2.08	-42.630	-49.196	61.544	-0.77493	0.58527	-0.23129	-0.05771	31.1	13111	100
2025-3-27 18:24:24.436	WT901BLE68-01(48591DE3C19B)	-0.047	-0.936	0.183	32.410	56.152	-72.693	-69.86	44.64	-3.46	-42.630	-49.196	61.544	-0.77493	0.58527	-0.23129	-0.05771	31.1	13111	100
2025-3-27 18:24:24.436	WT901BLE68-01(48591DE3C19B)	-0.054	-0.936	0.183	32.410	56.152	-72.693	-70.46	43.95	-4.80	-42.630	-49.196	61.544	-0.77493	0.58527	-0.23129	-0.05771	31.1	13111	100
2025-3-27 18:24:24.436	WT901BLE68-01(48591DE3C19B)	-0.054	-0.825	0.157	32.471	63.049	-88.440	-71.13	43.11	-6.26	-42.630	-49.196	61.544	-0.77493	0.58527	-0.23129	-0.05771	31.1	13111	100
2025-3-27 18:24:24.495	WT901BLE68-01(48591DE3C19B)	-0.058	-0.825	0.157	32.471	63.049	-88.440	-71.76	42.28	-7.68	-42.630	-49.196	61.544	-0.77493	0.58527	-0.23129	-0.05771	31.1	13111	100
2025-3-27 18:24:24.495	WT901BLE68-01(48591DE3C19B)	-0.058	-0.807	0.160	32.410	69.214	-100.342	-72.43	41.33	-9.19	-42.630	-49.196	61.544	-0.77493	0.58527	-0.23129	-0.05771	31.1	13111	100
2025-3-27 18:24:24.495	WT901BLE68-01(48591DE3C19B)	-0.122	-0.807	0.160	32.410	69.214	-100.342	-73.06	40.38	-10.65	-42.630	-49.196	61.544	-0.77493	0.58527	-0.23129	-0.05771	31.1	13111	100
2025-3-27 18:24:24.495	WT901BLE68-01(48591DE3C19B)	-0.122	-0.863	0.182	31.616	70.251	-110.779	-73.67	39.33	-12.12	-42.630	-49.196	61.544	-0.77493	0.58527	-0.23129	-0.05771	31.1	13111	100
2025-3-27 18:24:24.523	WT901BLE68-01(48591DE3C19B)	-0.194	-0.863	0.182	31.616	70.251	-110.779	-74.24	38.27	-13.54	-42.630	-49.196	61.544	-0.77493	0.58527	-0.23129	-0.05771	31.1	13111	100
2025-3-27 18:24:24.523	WT901BLE68-01(48591DE3C19B)	-0.194	-0.963	0.182	34.485	61.035	-121.765	-74.68	37.08	-14.84	-42.630	-49.196	61.544	-0.77493	0.58527	-0.23129	-0.05771	31.1	13111	100
2025-3-27 18:24:24.523	WT901BLE68-01(48591DE3C19B)	-0.254	-0.963	0.182	34.485	61.035	-121.765	-75.08	35.89	-16.09	-42.630	-49.196	61.544	-0.77493	0.58527	-0.23129	-0.05771	31.1	13111	100
2025-3-27 18:24:24.524	WT901BLE68-01(48591DE3C19B)	-0.254	-0.975	0.197	38.696	43.518	-134.521	-75.29	34.54	-17.14	-42.630	-49.196	61.544	-0.77493	0.58527	-0.23129	-0.05771	31.1	13111	100
2025-3-27 18:24:24.585	WT901BLE68-01(48591DE3C19B)	-0.241	-0.975	0.197	38.696	43.518	-134.521	-75.47	33.20	-18.15	-42.630	-49.196	61.544	-0.77493	0.58527	-0.23129	-0.05771	31.1	13111	100
2025-3-27 18:24:24.585	WT901BLE68-01(48591DE3C19B)	-0.241	-0.955	0.209	39.978	32.654	-149.353	-75.56	31.69	-19.06	-42.630	-49.196	61.544	-0.77493	0.58527	-0.23129	-0.05771	31.1	13111	100
2025-3-27 18:24:24.585	WT901BLE68-01(48591DE3C19B)	-0.219	-0.955	0.209	39.978	32.654	-149.353	-75.61	30.20	-19.93	-42.630	-49.196	61.544	-0.77493	0.58527	-0.23129	-0.05771	31.1	13111	100
2025-3-27 18:24:24.585	WT901BLE68-01(48591DE3C19B)	-0.219	-0.937	0.206	39.124	36.804	-165.344	-75.69	28.57	-20.88	-42.630	-49.196	61.544	-0.77493	0.58527	-0.23129	-0.05771	31.1	13111	100
2025-3-27 18:24:24.617	WT901BLE68-01(48591DE3C19B)	-0.225	-0.937	0.206	39.124	36.804	-165.344	-75.73	26.95	-21.80	-42.630	-49.196	61.544	-0.78101	0.55246	-0.29071	0.01288	31.1	13111	100
2025-3-27 18:24:24.617	WT901BLE68-01(48591DE3C19B)	-0.225	-0.901	0.178	38.208	50.720	-179.504	-75.83	25.25	-22.88	-42.630	-49.196	61.544	-0.78101	0.55246	-0.29071	0.01288	31.1	13111	100
2025-3-27 18:24:24.617	WT901BLE68-01(48591DE3C19B)	-0.267	-0.901	0.178	38.208	50.720	-179.504	-75.90	23.54	-23.93	-42.630	-49.196	61.544	-0.78101	0.55246	-0.29071	0.01288	31.1	13111	100
2025-3-27 18:24:24.617	WT901BLE68-01(48591DE3C19B)	-0.267	-0.835	0.149	35.461	62.500	-190.308	-76.01	21.78	-25.11	-42.630	-49.196	61.544	-0.78101	0.55246	-0.29071	0.01288	31.1	13111	100
2025-3-27 18:24:24.646	WT901BLE68-01(48591DE3C19B)	-0.323	-0.835	0.149	35.461	62.500	-190.308	-76.09	20.03	-26.27	-42.630	-49.196	61.544	-0.78101	0.55246	-0.29071	0.01288	31.1	13111	100
2025-3-27 18:24:24.646	WT901BLE68-01(48591DE3C19B)	-0.323	-0.768	0.154	32.104	67.505	-196.960	-76.18	18.24	-27.47	-42.630	-49.196	61.544	-0.78101	0.55246	-0.29071	0.01288	31.1	13111	100
2025-3-27 18:24:24.646	WT901BLE68-01(48591DE3C19B)	-0.412	-0.768	0.154	32.104	67.505	-196.960	-76.23	16.46	-28.64	-42.630	-49.196	61.544	-0.78101	0.55246	-0.29071	0.01288	31.1	13111	100
2025-3-27 18:24:24.646	WT901BLE68-01(48591DE3C19B)	-0.412	-0.717	0.196	27.954	64.270	-198.608	-76.27	14.68	-29.76	-42.630	-49.196	61.544	-0.78101	0.55246	-0.29071	0.01288	31.1	13111	100
2025-3-27 18:24:24.705	WT901BLE68-01(48591DE3C19B)	-0.508	-0.717	0.196	27.954	64.270	-198.608	-76.27	12.92	-30.85	-42.630	-49.196	61.544	-0.78101	0.55246	-0.29071	0.01288	31.1	13111	100
2025-3-27 18:24:24.705	WT901BLE68-01(48591DE3C19B)	-0.508	-0.691	0.244	24.231	51.086	-194.519	-76.25	11.18	-31.79	-42.630	-49.196	61.544	-0.78101	0.55246	-0.29071	0.01288	31.1	13111	100
2025-3-27 18:24:24.705	WT901BLE68-01(48591DE3C19B)	-0.574	-0.691	0.244	24.231	51.086	-194.519	-76.19	9.46	-32.71	-42.630	-49.196	61.544	-0.78101	0.55246	-0.29071	0.01288	31.1	13111	100
2025-3-27 18:24:24.705	WT901BLE68-01(48591DE3C19B)	-0.574	-0.679	0.252	19.104	30.762	-185.730	-76.12	7.81	-33.39	-42.630	-49.196	61.544	-0.78101	0.55246	-0.29071	0.01288	31.1	13111	100
2025-3-27 18:24:24.733	WT901BLE68-01(48591DE3C19B)	-0.588	-0.679	0.252	19.104	30.762	-185.730	-76.04	6.17	-34.07	-42.630	-49.196	61.544	-0.78101	0.55246	-0.29071	0.01288	31.1	13111	100
2025-3-27 18:24:24.733	WT901BLE68-01(48591DE3C19B)	-0.588	-0.697	0.223	14.709	4.333	-170.654	-75.95	4.64	-34.44	-42.630	-49.196	61.544	-0.78101	0.55246	-0.29071	0.01288	31.1	13111	100
2025-3-27 18:24:24.734	WT901BLE68-01(48591DE3C19B)	-0.593	-0.697	0.223	14.709	4.333	-170.654	-75.84	3.13	-34.81	-42.630	-49.196	61.544	-0.78101	0.55246	-0.29071	0.01288	31.1	13111	100
2025-3-27 18:24:24.734	WT901BLE68-01(48591DE3C19B)	-0.593	-0.722	0.224	11.475	-23.926	-151.855	-75.76	1.74	-34.85	-42.630	-49.196	61.544	-0.78101	0.55246	-0.29071	0.01288	31.1	13111	100
2025-3-27 18:24:24.766	WT901BLE68-01(48591DE3C19B)	-0.609	-0.722	0.224	11.475	-23.926	-151.855	-75.66	0.37	-34.90	-42.630	-49.196	61.544	-0.78101	0.55246	-0.29071	0.01288	31.1	13111	100
2025-3-27 18:24:24.766	WT901BLE68-01(48591DE3C19B)	-0.609	-0.792	0.281	7.751	-42.969	-132.263	-75.61	-0.84	-34.71	-42.630	-49.196	61.544	-0.78101	0.55246	-0.29071	0.01288	31.1	13111	100
2025-3-27 18:24:24.766	WT901BLE68-01(48591DE3C19B)	-0.592	-0.792	0.281	7.751	-42.969	-132.263	-75.56	-2.04	-34.51	-42.630	-49.196	61.544	-0.78101	0.55246	-0.29071	0.01288	31.1	13111	100
2025-3-27 18:24:24.766	WT901BLE68-01(48591DE3C19B)	-0.592	-0.901	0.340	7.141	-51.331	-112.549	-75.51	-3.07	-34.19	-42.630	-49.196	61.544	-0.78101	0.55246	-0.29071	0.01288	31.1	13111	100
2025-3-27 18:24:24.825	WT901BLE68-01(48591DE3C19B)	-0.577	-0.901	0.340	7.141	-51.331	-112.549	-75.48	-4.08	-33.87	-42.630	-49.196	61.544	-0.78101	0.55246	-0.29071	0.01288	31.1	13111	100
2025-3-27 18:24:24.825	WT901BLE68-01(48591DE3C19B)	-0.577	-1.029	0.396	5.310	-45.776	-93.750	-75.45	-4.90	-33.56	-44.100	-23.716	69.286	-0.78101	0.55246	-0.29071	0.01288	31.1	13111	100
2025-3-27 18:24:24.825	WT901BLE68-01(48591DE3C19B)	-0.582	-1.029	0.396	5.310	-45.776	-93.750	-75.44	-5.71	-33.26	-44.100	-23.716	69.286	-0.78101	0.55246	-0.29071	0.01288	31.1	13111	100
2025-3-27 18:24:24.825	WT901BLE68-01(48591DE3C19B)	-0.582	-1.212	0.429	3.967	-29.297	-77.515	-75.42	-6.33	-33.08	-44.100	-23.716	69.286	-0.78101	0.55246	-0.29071	0.01288	31.1	13111	100
2025-3-27 18:24:24.853	WT901BLE68-01(48591DE3C19B)	-0.568	-1.212	0.429	3.967	-29.297	-77.515	-75.39	-6.94	-32.90	-44.100	-23.716	69.286	-0.78101	0.55246	-0.29071	0.01288	31.1	13111	100
2025-3-27 18:24:24.853	WT901BLE68-01(48591DE3C19B)	-0.568	-1.344	0.444	6.104	-0.854	-63.782	-75.32	-7.36	-32.98	-44.100	-23.716	69.286	-0.78101	0.55246	-0.29071	0.01288	31.1	13111	100
2025-3-27 18:24:24.853	WT901BLE68-01(48591DE3C19B)	-0.547	-1.344	0.444	6.104	-0.854	-63.782	-75.25	-7.77	-33.05	-44.100	-23.716	69.286	-0.78101	0.55246	-0.29071	0.01288	31.1	13111	100
2025-3-27 18:24:24.854	WT901BLE68-01(48591DE3C19B)	-0.547	-1.338	0.467	6.592	31.982	-48.767	-75.12	-7.95	-33.41	-44.100	-23.716	69.286	-0.78101	0.55246	-0.29071	0.01288	31.1	13111	100
2025-3-27 18:24:24.884	WT901BLE68-01(48591DE3C19B)	-0.555	-1.338	0.467	6.592	31.982	-48.767	-75.00	-8.14	-33.78	-44.100	-23.716	69.286	-0.78101	0.55246	-0.29071	0.01288	31.1	13111	100
2025-3-27 18:24:24.884	WT901BLE68-01(48591DE3C19B)	-0.555	-1.302	0.478	3.296	62.683	-34.058	-74.87	-8.11	-34.40	-44.100	-23.716	69.286	-0.78101	0.55246	-0.29071	0.01288	31.1	13111	100
2025-3-27 18:24:24.885	WT901BLE68-01(48591DE3C19B)	-0.593	-1.302	0.478	3.296	62.683	-34.058	-74.73	-8.07	-35.02	-44.100	-23.716	69.286	-0.78101	0.55246	-0.29071	0.01288	31.1	13111	100
2025-3-27 18:24:24.885	WT901BLE68-01(48591DE3C19B)	-0.638	-1.201	0.472	-1.770	84.412	-18.555	-74.64	-7.84	-35.82	-44.100	-23.716	69.286	-0.78101	0.55246	-0.29071	0.01288	31.1	13111	100
2025-3-27 18:24:24.945	WT901BLE68-01(48591DE3C19B)	-0.638	-1.085	0.447	-10.193	88.562	-1.953	-74.58	-7.51	-36.61	-44.100	-23.716	69.286	-0.78101	0.55246	-0.29071	0.01288	31.1	13111	100
2025-3-27 18:24:24.945	WT901BLE68-01(48591DE3C19B)	-0.690	-1.085	0.447	-10.193	88.562	-1.953	-74.57	-7.10	-37.39	-44.100	-23.716	69.286	-0.78101	0.55246	-0.29071	0.01288	31.1	13111	100
2025-3-27 18:24:24.945	WT901BLE68-01(48591DE3C19B)	-0.690	-0.948	0.400	-17.395	69.397	17.456	-74.62	-6.62	-38.04	-44.100	-23.716	69.286	-0.78101	0.55246	-0.29071	0.01288	31.1	13111	100
2025-3-27 18:24:24.945	WT901BLE68-01(48591DE3C19B)	-0.734	-0.948	0.400	-17.395	69.397	17.456	-74.72	-6.08	-38.57	-44.100	-23.716	69.286	-0.78101	0.55246	-0.29071	0.01288	31.1	13111	100
2025-3-27 18:24:24.976	WT901BLE68-01(48591DE3C19B)	-0.734	-0.859	0.365	-25.330	28.687	40.161	-74.90	-5.47	-38.87	-44.100	-23.716	69.286	-0.78101	0.55246	-0.29071	0.01288	31.1	13111	100
2025-3-27 18:24:24.977	WT901BLE68-01(48591DE3C19B)	-0.718	-0.859	0.365	-25.330	28.687	40.161	-75.14	-4.81	-38.94	-44.100	-23.716	69.286	-0.78101	0.55246	-0.29071	0.01288	31.1	13111	100
2025-3-27 18:24:24.977	WT901BLE68-01(48591DE3C19B)	-0.718	-0.879	0.299	-30.762	-22.461	66.223	-75.42	-4.09	-38.73	-44.100	-23.716	69.286	-0.78101	0.55246	-0.29071	0.01288	31.1	13111	100
2025-3-27 18:24:24.977	WT901BLE68-01(48591DE3C19B)	-0.601	-0.879	0.299	-30.762	-22.461	66.223	-75.76	-3.30	-38.23	-44.100	-23.716	69.286	-0.78101	0.55246	-0.29071	0.01288	31.1	13111	100
2025-3-27 18:24:25.7	WT901BLE68-01(48591DE3C19B)	-0.601	-0.935	0.208	-30.212	-62.927	92.407	-76.09	-2.44	-37.51	-44.100	-23.716	69.286	-0.78101	0.55246	-0.29071	0.01288	31.1	13111	100
2025-3-27 18:24:25.7	WT901BLE68-01(48591DE3C19B)	-0.453	-0.935	0.208	-30.212	-62.927	92.407	-76.42	-1.49	-36.58	-44.100	-23.716	69.286	-0.78101	0.55246	-0.29071	0.01288	31.1	13111	100
2025-3-27 18:24:25.7	WT901BLE68-01(48591DE3C19B)	-0.453	-1.013	0.159	-25.513	-80.017	114.014	-76.72	-0.47	-35.54	-44.100	-23.716	69.286	-0.74731	0.59253	-0.18729	0.23495	31.1	13111	100
2025-3-27 18:24:25.7	WT901BLE68-01(48591DE3C19B)	-0.381	-1.013	0.159	-25.513	-80.017	114.014	-76.97	0.63	-34.41	-44.100	-23.716	69.286	-0.74731	0.59253	-0.18729	0.23495	31.1	13111	100
2025-3-27 18:24:25.64	WT901BLE68-01(48591DE3C19B)	-0.381	-1.106	0.136	-18.250	-82.886	129.639	-77.17	1.81	-33.26	-44.100	-23.716	69.286	-0.74731	0.59253	-0.18729	0.23495	31.1	13111	100
2025-3-27 18:24:25.64	WT901BLE68-01(48591DE3C19B)	-0.336	-1.106	0.136	-18.250	-82.886	129.639	-77.31	3.04	-32.08	-44.100	-23.716	69.286	-0.74731	0.59253	-0.18729	0.23495	31.1	13111	100
2025-3-27 18:24:25.64	WT901BLE68-01(48591DE3C19B)	-0.336	-1.154	0.142	-10.071	-78.430	137.878	-77.38	4.31	-30.93	-44.100	-23.716	69.286	-0.74731	0.59253	-0.18729	0.23495	31.1	13111	100
2025-3-27 18:24:25.64	WT901BLE68-01(48591DE3C19B)	-0.288	-1.154	0.142	-10.071	-78.430	137.878	-77.39	5.61	-29.79	-44.100	-23.716	69.286	-0.74731	0.59253	-0.18729	0.23495	31.1	13111	100
2025-3-27 18:24:25.94	WT901BLE68-01(48591DE3C19B)	-0.288	-1.157	0.173	-3.540	-66.956	143.066	-77.35	6.94	-28.72	-44.100	-23.716	69.286	-0.74731	0.59253	-0.18729	0.23495	31.1	13111	100
2025-3-27 18:24:25.94	WT901BLE68-01(48591DE3C19B)	-0.271	-1.157	0.173	-3.540	-66.956	143.066	-77.26	8.28	-27.70	-44.100	-23.716	69.286	-0.74731	0.59253	-0.18729	0.23495	31.1	13111	100
2025-3-27 18:24:25.95	WT901BLE68-01(48591DE3C19B)	-0.271	-1.213	0.212	-0.488	-48.828	148.804	-77.15	9.66	-26.76	-44.100	-23.716	69.286	-0.74731	0.59253	-0.18729	0.23495	31.1	13111	100
2025-3-27 18:24:25.95	WT901BLE68-01(48591DE3C19B)	-0.246	-1.213	0.212	-0.488	-48.828	148.804	-77.01	11.07	-25.91	-44.100	-23.716	69.286	-0.74731	0.59253	-0.18729	0.23495	31.1	13111	100
2025-3-27 18:24:25.123	WT901BLE68-01(48591DE3C19B)	-0.246	-1.246	0.193	5.127	-24.841	154.785	-76.85	12.52	-25.16	-44.100	-23.716	69.286	-0.74731	0.59253	-0.18729	0.23495	31.1	13111	100
2025-3-27 18:24:25.123	WT901BLE68-01(48591DE3C19B)	-0.227	-1.246	0.193	5.127	-24.841	154.785	-76.67	14.00	-24.53	-44.100	-23.716	69.286	-0.74731	0.59253	-0.18729	0.23495	31.1	13111	100
2025-3-27 18:24:25.124	WT901BLE68-01(48591DE3C19B)	-0.227	-1.108	0.155	9.766	-1.038	162.476	-76.48	15.54	-24.01	-44.100	-23.716	69.286	-0.74731	0.59253	-0.18729	0.23495	31.1	13111	100
2025-3-27 18:24:25.124	WT901BLE68-01(48591DE3C19B)	-0.219	-1.108	0.155	9.766	-1.038	162.476	-76.29	17.13	-23.59	-44.100	-23.716	69.286	-0.74731	0.59253	-0.18729	0.23495	31.1	13111	100
2025-3-27 18:24:25.187	WT901BLE68-01(48591DE3C19B)	-0.219	-0.963	0.102	6.104	15.747	169.312	-76.12	18.75	-23.25	-44.100	-23.716	69.286	-0.74731	0.59253	-0.18729	0.23495	31.1	13111	100
2025-3-27 18:24:25.187	WT901BLE68-01(48591DE3C19B)	-0.212	-0.963	0.102	6.104	15.747	169.312	-75.99	20.42	-22.97	-44.100	-23.716	69.286	-0.74731	0.59253	-0.18729	0.23495	31.1	13111	100
2025-3-27 18:24:25.187	WT901BLE68-01(48591DE3C19B)	-0.212	-0.865	0.075	-0.183	25.269	173.584	-75.90	22.10	-22.74	-44.100	-23.716	69.286	-0.74731	0.59253	-0.18729	0.23495	31.1	13111	100
2025-3-27 18:24:25.187	WT901BLE68-01(48591DE3C19B)	-0.231	-0.865	0.075	-0.183	25.269	173.584	-75.86	23.81	-22.54	-44.100	-23.716	69.286	-0.74731	0.59253	-0.18729	0.23495	31.1	13111	100
2025-3-27 18:24:25.217	WT901BLE68-01(48591DE3C19B)	-0.231	-0.880	0.071	-10.315	26.001	178.101	-75.86	25.53	-22.35	-44.100	-23.716	69.286	-0.74731	0.59253	-0.18729	0.23495	31.1	13111	100
2025-3-27 18:24:25.217	WT901BLE68-01(48591DE3C19B)	-0.249	-0.880	0.071	-10.315	26.001	178.101	-75.90	27.25	-22.15	-44.100	-23.716	69.286	-0.74731	0.59253	-0.18729	0.23495	31.1	13111	100
2025-3-27 18:24:25.217	WT901BLE68-01(48591DE3C19B)	-0.249	-0.880	0.067	-15.625	17.395	180.542	-75.95	28.97	-21.91	-44.100	-23.716	69.286	-0.74731	0.59253	-0.18729	0.23495	31.1	13111	100
2025-3-27 18:24:25.217	WT901BLE68-01(48591DE3C19B)	-0.238	-0.880	0.067	-15.625	17.395	180.542	-75.99	30.68	-21.61	-41.454	-31.164	72.226	-0.74731	0.59253	-0.18729	0.23495	31.1	13111	100
2025-3-27 18:24:25.246	WT901BLE68-01(48591DE3C19B)	-0.238	-0.819	0.067	-21.118	5.188	180.298	-76.01	32.37	-21.24	-41.454	-31.164	72.226	-0.74731	0.59253	-0.18729	0.23495	31.1	13111	100
2025-3-27 18:24:25.246	WT901BLE68-01(48591DE3C19B)	-0.232	-0.819	0.067	-21.118	5.188	180.298	-76.02	34.02	-20.80	-41.454	-31.164	72.226	-0.74731	0.59253	-0.18729	0.23495	31.1	13111	100
2025-3-27 18:24:25.246	WT901BLE68-01(48591DE3C19B)	-0.232	-0.788	0.073	-26.794	-8.179	177.063	-75.99	35.64	-20.28	-41.454	-31.164	72.226	-0.74731	0.59253	-0.18729	0.23495	31.1	13111	100
2025-3-27 18:24:25.246	WT901BLE68-01(48591DE3C19B)	-0.233	-0.788	0.073	-26.794	-8.179	177.063	-75.94	37.22	-19.68	-41.454	-31.164	72.226	-0.74731	0.59253	-0.18729	0.23495	31.1	13111	100
2025-3-27 18:24:25.305	WT901BLE68-01(48591DE3C19B)	-0.233	-0.802	0.104	-31.311	-21.179	168.518	-75.84	38.73	-19.00	-41.454	-31.164	72.226	-0.74731	0.59253	-0.18729	0.23495	31.1	13111	100
2025-3-27 18:24:25.305	WT901BLE68-01(48591DE3C19B)	-0.239	-0.802	0.104	-31.311	-21.179	168.518	-75.70	40.17	-18.24	-41.454	-31.164	72.226	-0.74731	0.59253	-0.18729	0.23495	31.1	13111	100
2025-3-27 18:24:25.305	WT901BLE68-01(48591DE3C19B)	-0.239	-0.857	0.130	-32.471	-34.058	155.945	-75.50	41.52	-17.40	-41.454	-31.164	72.226	-0.74731	0.59253	-0.18729	0.23495	31.1	13111	100
2025-3-27 18:24:25.305	WT901BLE68-01(48591DE3C19B)	-0.241	-0.857	0.130	-32.471	-34.058	155.945	-75.23	42.79	-16.48	-41.454	-31.164	72.226	-0.74731	0.59253	-0.18729	0.23495	31.1	13111	100
2025-3-27 18:24:25.334	WT901BLE68-01(48591DE3C19B)	-0.241	-0.887	0.158	-31.616	-43.701	137.634	-74.90	43.95	-15.51	-41.454	-31.164	72.226	-0.74731	0.59253	-0.18729	0.23495	31.1	13111	100
2025-3-27 18:24:25.334	WT901BLE68-01(48591DE3C19B)	-0.231	-0.887	0.158	-31.616	-43.701	137.634	-74.52	44.99	-14.49	-41.454	-31.164	72.226	-0.74731	0.59253	-0.18729	0.23495	31.1	13111	100
2025-3-27 18:24:25.334	WT901BLE68-01(48591DE3C19B)	-0.231	-0.943	0.172	-29.419	-45.654	116.699	-74.12	45.92	-13.47	-41.454	-31.164	72.226	-0.74731	0.59253	-0.18729	0.23495	31.1	13111	100
2025-3-27 18:24:25.334	WT901BLE68-01(48591DE3C19B)	-0.250	-0.943	0.172	-29.419	-45.654	116.699	-73.70	46.74	-12.46	-41.454	-31.164	72.226	-0.74731	0.59253	-0.18729	0.23495	31.1	13111	100
2025-3-27 18:24:25.366	WT901BLE68-01(48591DE3C19B)	-0.250	-0.992	0.188	-26.001	-40.771	92.957	-73.30	47.44	-11.52	-41.454	-31.164	72.226	-0.74731	0.59253	-0.18729	0.23495	31.1	13111	100
2025-3-27 18:24:25.366	WT901BLE68-01(48591DE3C19B)	-0.267	-0.992	0.188	-26.001	-40.771	92.957	-72.92	48.02	-10.66	-41.454	-31.164	72.226	-0.74731	0.59253	-0.18729	0.23495	31.1	13111	100
2025-3-27 18:24:25.366	WT901BLE68-01(48591DE3C19B)	-0.267	-0.998	0.210	-21.606	-32.837	68.970	-72.66	48.39	-10.01	-41.454	-31.164	72.226	-0.74731	0.59253	-0.18729	0.23495	31.1	13111	100
2025-3-27 18:24:25.367	WT901BLE68-01(48591DE3C19B)	-0.259	-0.998	0.210	-21.606	-32.837	68.970	-72.38	48.76	-9.35	-41.454	-31.164	72.226	-0.74731	0.59253	-0.18729	0.23495	31.1	13111	100
2025-3-27 18:24:25.425	WT901BLE68-01(48591DE3C19B)	-0.259	-1.006	0.252	-16.968	-20.081	44.617	-72.28	48.93	-8.99	-41.454	-31.164	72.226	-0.74731	0.59253	-0.18729	0.23495	31.1	13111	100
2025-3-27 18:24:25.425	WT901BLE68-01(48591DE3C19B)	-0.260	-1.006	0.252	-16.968	-20.081	44.617	-72.17	49.10	-8.63	-41.454	-31.164	72.226	-0.75137	0.50894	-0.37512	-0.18869	31.1	13111	100
2025-3-27 18:24:25.425	WT901BLE68-01(48591DE3C19B)	-0.260	-1.045	0.268	-11.658	-1.282	20.325	-72.30	49.09	-8.65	-41.454	-31.164	72.226	-0.75137	0.50894	-0.37512	-0.18869	31.1	13111	100
2025-3-27 18:24:25.425	WT901BLE68-01(48591DE3C19B)	-0.276	-1.045	0.268	-11.658	-1.282	20.325	-72.42	49.09	-8.68	-41.454	-31.164	72.226	-0.75137	0.50894	-0.37512	-0.18869	31.1	13111	100
2025-3-27 18:24:25.453	WT901BLE68-01(48591DE3C19B)	-0.276	-1.063	0.242	-5.981	12.817	-4.639	-72.73	48.88	-9.03	-41.454	-31.164	72.226	-0.75137	0.50894	-0.37512	-0.18869	31.1	13111	100
2025-3-27 18:24:25.453	WT901BLE68-01(48591DE3C19B)	-0.293	-1.063	0.242	-5.981	12.817	-4.639	-73.03	48.68	-9.37	-41.454	-31.164	72.226	-0.75137	0.50894	-0.37512	-0.18869	31.1	13111	100
2025-3-27 18:24:25.454	WT901BLE68-01(48591DE3C19B)	-0.293	-1.042	0.220	-0.854	23.621	-28.748	-73.47	48.27	-9.96	-41.454	-31.164	72.226	-0.75137	0.50894	-0.37512	-0.18869	31.1	13111	100
2025-3-27 18:24:25.454	WT901BLE68-01(48591DE3C19B)	-0.348	-1.042	0.220	-0.854	23.621	-28.748	-73.89	47.87	-10.54	-41.454	-31.164	72.226	-0.75137	0.50894	-0.37512	-0.18869	31.1	13111	100
2025-3-27 18:24:25.484	WT901BLE68-01(48591DE3C19B)	-0.348	-1.026	0.220	1.404	29.053	-51.941	-74.40	47.26	-11.27	-41.454	-31.164	72.226	-0.75137	0.50894	-0.37512	-0.18869	31.1	13111	100
2025-3-27 18:24:25.485	WT901BLE68-01(48591DE3C19B)	-0.416	-1.026	0.220	1.404	29.053	-51.941	-74.89	46.66	-11.99	-41.454	-31.164	72.226	-0.75137	0.50894	-0.37512	-0.18869	31.1	13111	100
2025-3-27 18:24:25.485	WT901BLE68-01(48591DE3C19B)	-0.416	-1.054	0.241	2.930	27.405	-75.195	-75.38	45.82	-12.73	-41.454	-31.164	72.226	-0.75137	0.50894	-0.37512	-0.18869	31.1	13111	100
2025-3-27 18:24:25.485	WT901BLE68-01(48591DE3C19B)	-0.481	-1.054	0.241	2.930	27.405	-75.195	-75.86	44.99	-13.46	-41.454	-31.164	72.226	-0.75137	0.50894	-0.37512	-0.18869	31.1	13111	100
2025-3-27 18:24:25.544	WT901BLE68-01(48591DE3C19B)	-0.481	-1.099	0.262	5.188	21.729	-96.802	-76.27	43.95	-14.14	-41.454	-31.164	72.226	-0.75137	0.50894	-0.37512	-0.18869	31.1	13111	100
2025-3-27 18:24:25.545	WT901BLE68-01(48591DE3C19B)	-0.511	-1.099	0.262	5.188	21.729	-96.802	-76.65	42.91	-14.80	-41.454	-31.164	72.226	-0.75137	0.50894	-0.37512	-0.18869	31.1	13111	100
2025-3-27 18:24:25.545	WT901BLE68-01(48591DE3C19B)	-0.511	-1.135	0.242	6.836	13.855	-115.845	-76.96	41.67	-15.39	-41.454	-31.164	72.226	-0.75137	0.50894	-0.37512	-0.18869	31.1	13111	100
2025-3-27 18:24:25.545	WT901BLE68-01(48591DE3C19B)	-0.513	-1.135	0.242	6.836	13.855	-115.845	-77.25	40.44	-15.94	-41.454	-31.164	72.226	-0.75137	0.50894	-0.37512	-0.18869	31.1	13111	100
