time	DeviceName	AccX(g)	AccY(g)	AccZ(g)	AsX(°/s)	AsY(°/s)	AsZ(°/s)	AngleX(°)	AngleY(°)	AngleZ(°)	HX(uT)	HY(uT)	HZ(uT)	Q0()	Q1()	Q2()	Q3()	Temperature(°C)	Version()	Battery level(%)
2025-3-27 18:35:27.993	WT901BLE68-01(48591DE3C19B)	-0.176	-0.934	0.242	3.113	2.319	3.052	-76.35	12.52	17.77	-66.052	-16.268	-0.784	0.71500	-0.60956	-0.11111	0.32370	31.1	13111	100
2025-3-27 18:35:27.993	WT901BLE68-01(48591DE3C19B)	-0.169	-0.934	0.242	3.113	2.319	3.052	-76.33	12.55	17.18	-66.052	-16.268	-0.784	0.71500	-0.60956	-0.11111	0.32370	31.1	13111	100
2025-3-27 18:35:27.993	WT901BLE68-01(48591DE3C19B)	-0.169	-0.930	0.245	2.991	5.310	2.563	-76.31	12.57	16.58	-66.052	-16.268	-0.784	0.76364	-0.62006	-0.00336	0.17966	31.1	13111	100
2025-3-27 18:35:27.993	WT901BLE68-01(48591DE3C19B)	-0.188	-0.930	0.245	2.991	5.310	2.563	-76.29	12.60	15.97	-66.052	-16.268	-0.784	0.76364	-0.62006	-0.00336	0.17966	31.1	13111	100
2025-3-27 18:35:28.14	WT901BLE68-01(48591DE3C19B)	-0.188	-0.952	0.260	3.052	6.104	1.404	-76.28	12.62	15.35	-66.052	-16.268	-0.784	0.76364	-0.62006	-0.00336	0.17966	31.1	13111	100
2025-3-27 18:35:28.14	WT901BLE68-01(48591DE3C19B)	-0.198	-0.952	0.260	3.052	6.104	1.404	-76.26	12.63	14.73	-66.052	-16.268	-0.784	0.76364	-0.62006	-0.00336	0.17966	31.1	13111	100
2025-3-27 18:35:28.14	WT901BLE68-01(48591DE3C19B)	-0.198	-0.972	0.266	3.967	4.028	0.549	-76.24	12.65	14.12	-66.052	-16.268	-0.784	0.76364	-0.62006	-0.00336	0.17966	31.1	13111	100
2025-3-27 18:35:28.14	WT901BLE68-01(48591DE3C19B)	-0.174	-0.972	0.266	3.967	4.028	0.549	-76.21	12.65	13.52	-66.052	-16.268	-0.784	0.76364	-0.62006	-0.00336	0.17966	31.1	13111	100
2025-3-27 18:35:28.45	WT901BLE68-01(48591DE3C19B)	-0.174	-0.996	0.256	4.700	2.808	0.061	-76.18	12.65	12.93	-66.052	-16.268	-0.784	0.76364	-0.62006	-0.00336	0.17966	31.1	13111	100
2025-3-27 18:35:28.45	WT901BLE68-01(48591DE3C19B)	-0.143	-0.996	0.256	4.700	2.808	0.061	-76.15	12.64	12.34	-66.052	-16.268	-0.784	0.76364	-0.62006	-0.00336	0.17966	31.1	13111	100
2025-3-27 18:35:28.45	WT901BLE68-01(48591DE3C19B)	-0.143	-1.012	0.248	6.592	4.333	-0.549	-76.10	12.63	11.74	-66.052	-16.268	-0.784	0.76364	-0.62006	-0.00336	0.17966	31.1	13111	100
2025-3-27 18:35:28.45	WT901BLE68-01(48591DE3C19B)	-0.136	-1.012	0.248	6.592	4.333	-0.549	-76.05	12.62	11.14	-66.052	-16.268	-0.784	0.76364	-0.62006	-0.00336	0.17966	31.1	13111	100
2025-3-27 18:35:28.104	WT901BLE68-01(48591DE3C19B)	-0.136	-1.004	0.251	7.446	7.385	-1.038	-76.00	12.62	10.51	-66.052	-16.268	-0.784	0.76364	-0.62006	-0.00336	0.17966	31.1	13111	100
2025-3-27 18:35:28.104	WT901BLE68-01(48591DE3C19B)	-0.146	-1.004	0.251	7.446	7.385	-1.038	-75.95	12.61	9.89	-66.052	-16.268	-0.784	0.76364	-0.62006	-0.00336	0.17966	31.1	13111	100
2025-3-27 18:35:28.104	WT901BLE68-01(48591DE3C19B)	-0.146	-1.014	0.265	7.202	8.240	-2.014	-75.91	12.60	9.26	-66.052	-16.268	-0.784	0.76364	-0.62006	-0.00336	0.17966	31.1	13111	100
2025-3-27 18:35:28.104	WT901BLE68-01(48591DE3C19B)	-0.146	-1.014	0.265	7.202	8.240	-2.014	-75.87	12.59	8.62	-66.052	-16.268	-0.784	0.76364	-0.62006	-0.00336	0.17966	31.1	13111	100
2025-3-27 18:35:28.137	WT901BLE68-01(48591DE3C19B)	-0.146	-1.015	0.272	8.423	7.141	-3.052	-75.82	12.56	8.00	-66.052	-16.268	-0.784	0.76364	-0.62006	-0.00336	0.17966	31.1	13111	100
2025-3-27 18:35:28.137	WT901BLE68-01(48591DE3C19B)	-0.131	-1.015	0.272	8.423	7.141	-3.052	-75.77	12.54	7.39	-66.052	-16.268	-0.784	0.76364	-0.62006	-0.00336	0.17966	31.1	13111	100
2025-3-27 18:35:28.137	WT901BLE68-01(48591DE3C19B)	-0.131	-0.975	0.267	9.827	4.822	-3.967	-75.70	12.49	6.79	-66.052	-16.268	-0.784	0.76364	-0.62006	-0.00336	0.17966	31.1	13111	100
2025-3-27 18:35:28.137	WT901BLE68-01(48591DE3C19B)	-0.101	-0.975	0.267	9.827	4.822	-3.967	-75.62	12.45	6.20	-66.052	-16.268	-0.784	0.76364	-0.62006	-0.00336	0.17966	31.1	13111	100
2025-3-27 18:35:28.167	WT901BLE68-01(48591DE3C19B)	-0.101	-0.924	0.258	10.681	3.540	-5.249	-75.55	12.39	5.61	-66.052	-16.268	-0.784	0.76364	-0.62006	-0.00336	0.17966	31.1	13111	100
2025-3-27 18:35:28.167	WT901BLE68-01(48591DE3C19B)	-0.078	-0.924	0.258	10.681	3.540	-5.249	-75.47	12.33	5.04	-66.052	-16.268	-0.784	0.76364	-0.62006	-0.00336	0.17966	31.1	13111	100
2025-3-27 18:35:28.167	WT901BLE68-01(48591DE3C19B)	-0.078	-0.917	0.247	11.047	5.066	-6.653	-75.39	12.26	4.44	-66.542	-15.876	-1.274	0.76364	-0.62006	-0.00336	0.17966	31.1	13111	100
2025-3-27 18:35:28.168	WT901BLE68-01(48591DE3C19B)	-0.046	-0.917	0.247	11.047	5.066	-6.653	-75.31	12.19	3.85	-66.542	-15.876	-1.274	0.76364	-0.62006	-0.00336	0.17966	31.1	13111	100
2025-3-27 18:35:28.225	WT901BLE68-01(48591DE3C19B)	-0.046	-0.926	0.246	12.024	9.705	-7.813	-75.24	12.12	3.20	-66.542	-15.876	-1.274	0.76364	-0.62006	-0.00336	0.17966	31.1	13111	100
2025-3-27 18:35:28.225	WT901BLE68-01(48591DE3C19B)	0.010	-0.926	0.246	12.024	9.705	-7.813	-75.16	12.05	2.56	-66.542	-15.876	-1.274	0.76364	-0.62006	-0.00336	0.17966	31.1	13111	100
2025-3-27 18:35:28.225	WT901BLE68-01(48591DE3C19B)	0.010	-0.955	0.241	12.756	20.203	-9.583	-75.11	11.99	1.81	-66.542	-15.876	-1.274	0.76364	-0.62006	-0.00336	0.17966	31.1	13111	100
2025-3-27 18:35:28.225	WT901BLE68-01(48591DE3C19B)	0.037	-0.955	0.241	12.756	20.203	-9.583	-75.06	11.92	1.07	-66.542	-15.876	-1.274	0.76364	-0.62006	-0.00336	0.17966	31.1	13111	100
2025-3-27 18:35:28.254	WT901BLE68-01(48591DE3C19B)	0.037	-1.010	0.227	11.536	34.851	-12.756	-75.05	11.86	0.18	-66.542	-15.876	-1.274	0.76364	-0.62006	-0.00336	0.17966	31.1	13111	100
2025-3-27 18:35:28.254	WT901BLE68-01(48591DE3C19B)	0.002	-1.010	0.227	11.536	34.851	-12.756	-75.05	11.80	-0.71	-66.542	-15.876	-1.274	0.76364	-0.62006	-0.00336	0.17966	31.1	13111	100
2025-3-27 18:35:28.254	WT901BLE68-01(48591DE3C19B)	0.002	-1.091	0.242	8.240	47.241	-18.372	-75.11	11.71	-1.73	-66.542	-15.876	-1.274	0.76364	-0.62006	-0.00336	0.17966	31.1	13111	100
2025-3-27 18:35:28.254	WT901BLE68-01(48591DE3C19B)	-0.094	-1.091	0.242	8.240	47.241	-18.372	-75.18	11.62	-2.75	-66.542	-15.876	-1.274	0.76364	-0.62006	-0.00336	0.17966	31.1	13111	100
2025-3-27 18:35:28.289	WT901BLE68-01(48591DE3C19B)	-0.094	-1.188	0.285	6.653	51.453	-24.597	-75.27	11.49	-3.82	-66.542	-15.876	-1.274	0.76364	-0.62006	-0.00336	0.17966	31.1	13111	100
2025-3-27 18:35:28.289	WT901BLE68-01(48591DE3C19B)	-0.169	-1.188	0.285	6.653	51.453	-24.597	-75.35	11.35	-4.89	-66.542	-15.876	-1.274	0.76364	-0.62006	-0.00336	0.17966	31.1	13111	100
2025-3-27 18:35:28.289	WT901BLE68-01(48591DE3C19B)	-0.169	-1.188	0.332	7.690	46.326	-30.579	-75.41	11.14	-5.92	-66.542	-15.876	-1.274	0.76364	-0.62006	-0.00336	0.17966	31.1	13111	100
2025-3-27 18:35:28.289	WT901BLE68-01(48591DE3C19B)	-0.160	-1.188	0.332	7.690	46.326	-30.579	-75.47	10.93	-6.94	-66.542	-15.876	-1.274	0.76364	-0.62006	-0.00336	0.17966	31.1	13111	100
2025-3-27 18:35:28.347	WT901BLE68-01(48591DE3C19B)	-0.160	-1.095	0.355	6.409	39.124	-35.522	-75.52	10.66	-7.89	-66.542	-15.876	-1.274	0.76364	-0.62006	-0.00336	0.17966	31.1	13111	100
2025-3-27 18:35:28.347	WT901BLE68-01(48591DE3C19B)	-0.133	-1.095	0.355	6.409	39.124	-35.522	-75.56	10.39	-8.85	-66.542	-15.876	-1.274	0.76364	-0.62006	-0.00336	0.17966	31.1	13111	100
2025-3-27 18:35:28.347	WT901BLE68-01(48591DE3C19B)	-0.133	-0.979	0.331	4.333	34.790	-38.635	-75.61	10.07	-9.76	-66.542	-15.876	-1.274	0.76364	-0.62006	-0.00336	0.17966	31.1	13111	100
2025-3-27 18:35:28.347	WT901BLE68-01(48591DE3C19B)	-0.110	-0.979	0.331	4.333	34.790	-38.635	-75.66	9.76	-10.67	-66.542	-15.876	-1.274	0.76364	-0.62006	-0.00336	0.17966	31.1	13111	100
2025-3-27 18:35:28.377	WT901BLE68-01(48591DE3C19B)	-0.110	-0.841	0.292	1.831	28.870	-42.236	-75.72	9.40	-11.53	-66.542	-15.876	-1.274	0.76364	-0.62006	-0.00336	0.17966	31.1	13111	100
2025-3-27 18:35:28.377	WT901BLE68-01(48591DE3C19B)	-0.116	-0.841	0.292	1.831	28.870	-42.236	-75.77	9.04	-12.38	-66.542	-15.876	-1.274	0.76364	-0.62006	-0.00336	0.17966	31.1	13111	100
2025-3-27 18:35:28.377	WT901BLE68-01(48591DE3C19B)	-0.116	-0.743	0.271	-2.930	22.034	-46.143	-75.84	8.62	-13.17	-66.542	-15.876	-1.274	0.76364	-0.62006	-0.00336	0.17966	31.1	13111	100
2025-3-27 18:35:28.377	WT901BLE68-01(48591DE3C19B)	-0.152	-0.743	0.271	-2.930	22.034	-46.143	-75.92	8.21	-13.95	-66.542	-15.876	-1.274	0.78540	-0.60236	0.13086	-0.05548	31.1	13111	100
2025-3-27 18:35:28.406	WT901BLE68-01(48591DE3C19B)	-0.152	-0.711	0.265	-6.714	14.465	-51.147	-76.02	7.73	-14.67	-66.542	-15.876	-1.274	0.78540	-0.60236	0.13086	-0.05548	31.1	13111	100
2025-3-27 18:35:28.407	WT901BLE68-01(48591DE3C19B)	-0.196	-0.711	0.265	-6.714	14.465	-51.147	-76.11	7.26	-15.39	-66.542	-15.876	-1.274	0.78540	-0.60236	0.13086	-0.05548	31.1	13111	100
2025-3-27 18:35:28.407	WT901BLE68-01(48591DE3C19B)	-0.196	-0.721	0.265	-8.606	3.845	-54.810	-76.20	6.72	-16.00	-66.542	-15.876	-1.274	0.78540	-0.60236	0.13086	-0.05548	31.1	13111	100
2025-3-27 18:35:28.407	WT901BLE68-01(48591DE3C19B)	-0.228	-0.721	0.265	-8.606	3.845	-54.810	-76.28	6.19	-16.61	-66.542	-15.876	-1.274	0.78540	-0.60236	0.13086	-0.05548	31.1	13111	100
2025-3-27 18:35:28.465	WT901BLE68-01(48591DE3C19B)	-0.228	-0.737	0.264	-9.277	-6.165	-57.007	-76.34	5.62	-17.13	-66.542	-15.876	-1.274	0.78540	-0.60236	0.13086	-0.05548	31.1	13111	100
2025-3-27 18:35:28.466	WT901BLE68-01(48591DE3C19B)	-0.270	-0.737	0.264	-9.277	-6.165	-57.007	-76.41	5.05	-17.64	-66.542	-15.876	-1.274	0.78540	-0.60236	0.13086	-0.05548	31.1	13111	100
2025-3-27 18:35:28.466	WT901BLE68-01(48591DE3C19B)	-0.270	-0.766	0.273	-11.047	-15.625	-58.411	-76.48	4.45	-18.06	-66.542	-15.876	-1.274	0.78540	-0.60236	0.13086	-0.05548	31.1	13111	100
2025-3-27 18:35:28.466	WT901BLE68-01(48591DE3C19B)	-0.315	-0.766	0.273	-11.047	-15.625	-58.411	-76.54	3.86	-18.47	-66.542	-15.876	-1.274	0.78540	-0.60236	0.13086	-0.05548	31.1	13111	100
2025-3-27 18:35:28.494	WT901BLE68-01(48591DE3C19B)	-0.315	-0.830	0.309	-14.038	-27.588	-59.570	-76.61	3.24	-18.78	-66.542	-15.876	-1.274	0.78540	-0.60236	0.13086	-0.05548	31.1	13111	100
2025-3-27 18:35:28.494	WT901BLE68-01(48591DE3C19B)	-0.350	-0.830	0.309	-14.038	-27.588	-59.570	-76.69	2.62	-19.07	-66.542	-15.876	-1.274	0.78540	-0.60236	0.13086	-0.05548	31.1	13111	100
2025-3-27 18:35:28.494	WT901BLE68-01(48591DE3C19B)	-0.355	-0.924	0.359	-16.541	-41.931	-60.608	-76.77	1.97	-19.23	-66.542	-15.876	-1.274	0.78540	-0.60236	0.13086	-0.05548	31.1	13111	100
2025-3-27 18:35:28.494	WT901BLE68-01(48591DE3C19B)	-0.355	-1.027	0.417	-17.639	-50.720	-61.340	-76.86	1.30	-19.35	-66.542	-15.876	-1.274	0.78540	-0.60236	0.13086	-0.05548	31.1	13111	100
2025-3-27 18:35:28.527	WT901BLE68-01(48591DE3C19B)	-0.349	-1.027	0.417	-17.639	-50.720	-61.340	-76.95	0.63	-19.42	-66.542	-15.876	-1.274	0.78540	-0.60236	0.13086	-0.05548	31.1	13111	100
2025-3-27 18:35:28.527	WT901BLE68-01(48591DE3C19B)	-0.349	-1.114	0.448	-15.564	-51.208	-62.012	-77.03	-0.04	-19.50	-66.542	-15.876	-1.274	0.78540	-0.60236	0.13086	-0.05548	31.1	13111	100
2025-3-27 18:35:28.527	WT901BLE68-01(48591DE3C19B)	-0.331	-1.114	0.448	-15.564	-51.208	-62.012	-77.10	-0.71	-19.56	-66.542	-15.876	-1.274	0.78540	-0.60236	0.13086	-0.05548	31.1	13111	100
2025-3-27 18:35:28.527	WT901BLE68-01(48591DE3C19B)	-0.331	-1.167	0.435	-13.733	-45.532	-62.195	-77.15	-1.37	-19.66	-66.542	-15.876	-1.274	0.78540	-0.60236	0.13086	-0.05548	31.1	13111	100
2025-3-27 18:35:28.645	WT901BLE68-01(48591DE3C19B)	-0.320	-1.167	0.435	-13.733	-45.532	-62.195	-77.20	-2.03	-19.78	-66.542	-15.876	-1.274	0.78540	-0.60236	0.13086	-0.05548	31.1	13111	100
2025-3-27 18:35:28.646	WT901BLE68-01(48591DE3C19B)	-0.320	-1.213	0.416	-12.390	-33.997	-61.279	-77.24	-2.67	-19.96	-66.150	-17.640	-0.490	0.78540	-0.60236	0.13086	-0.05548	31.1	13111	100
2025-3-27 18:35:28.646	WT901BLE68-01(48591DE3C19B)	-0.342	-1.213	0.416	-12.390	-33.997	-61.279	-77.28	-3.28	-20.19	-66.150	-17.640	-0.490	0.78540	-0.60236	0.13086	-0.05548	31.1	13111	100
2025-3-27 18:35:28.646	WT901BLE68-01(48591DE3C19B)	-1.370	-1.301	0.396	-10.498	-18.677	-59.692	-77.29	-3.87	-20.49	-66.150	-17.640	-0.490	0.78540	-0.60236	0.13086	-0.05548	31.1	13111	100
2025-3-27 18:35:28.646	WT901BLE68-01(48591DE3C19B)	-0.373	-5.203	1.586	-10.498	-18.677	-59.692	-77.31	-4.43	-20.86	-66.150	-17.640	-0.490	0.78540	-0.60236	0.13086	-0.05548	31.1	13111	100
2025-3-27 18:35:28.647	WT901BLE68-01(48591DE3C19B)	-0.373	-1.361	0.383	-6.592	-3.235	-55.786	-77.29	-4.94	-21.30	-66.150	-17.640	-0.490	0.78540	-0.60236	0.13086	-0.05548	31.1	13111	100
2025-3-27 18:35:28.647	WT901BLE68-01(48591DE3C19B)	-0.386	-1.361	0.383	-6.592	-3.235	-55.786	-77.25	-5.42	-21.81	-66.150	-17.640	-0.490	0.78540	-0.60236	0.13086	-0.05548	31.1	13111	100
2025-3-27 18:35:28.647	WT901BLE68-01(48591DE3C19B)	-0.386	-1.369	0.374	-7.141	9.155	-47.852	-77.21	-5.84	-22.37	-66.150	-17.640	-0.490	0.78540	-0.60236	0.13086	-0.05548	31.1	13111	100
2025-3-27 18:35:28.647	WT901BLE68-01(48591DE3C19B)	-0.421	-1.369	0.374	-7.141	9.155	-47.852	-77.16	-6.20	-22.98	-66.150	-17.640	-0.490	0.78540	-0.60236	0.13086	-0.05548	31.1	13111	100
2025-3-27 18:35:28.647	WT901BLE68-01(48591DE3C19B)	-0.421	-1.426	0.398	-11.047	12.512	-35.156	-77.14	-6.50	-23.59	-66.150	-17.640	-0.490	0.78540	-0.60236	0.13086	-0.05548	31.1	13111	100
2025-3-27 18:35:28.647	WT901BLE68-01(48591DE3C19B)	-0.511	-1.426	0.398	-11.047	12.512	-35.156	-77.12	-6.72	-24.20	-66.150	-17.640	-0.490	0.78540	-0.60236	0.13086	-0.05548	31.1	13111	100
2025-3-27 18:35:28.648	WT901BLE68-01(48591DE3C19B)	-0.511	-1.485	0.449	-10.254	2.380	-20.874	-77.12	-6.89	-24.74	-66.150	-17.640	-0.490	0.78540	-0.60236	0.13086	-0.05548	31.1	13111	100
2025-3-27 18:35:28.705	WT901BLE68-01(48591DE3C19B)	-0.563	-1.485	0.449	-10.254	2.380	-20.874	-77.11	-7.00	-25.21	-66.150	-17.640	-0.490	0.78540	-0.60236	0.13086	-0.05548	31.1	13111	100
2025-3-27 18:35:28.705	WT901BLE68-01(48591DE3C19B)	-0.563	-1.343	0.471	-5.493	-16.418	-4.639	-77.10	-7.04	-25.57	-66.150	-17.640	-0.490	0.78540	-0.60236	0.13086	-0.05548	31.1	13111	100
2025-3-27 18:35:28.705	WT901BLE68-01(48591DE3C19B)	-0.546	-1.343	0.471	-5.493	-16.418	-4.639	-77.07	-7.03	-25.82	-66.150	-17.640	-0.490	0.78540	-0.60236	0.13086	-0.05548	31.1	13111	100
2025-3-27 18:35:28.705	WT901BLE68-01(48591DE3C19B)	-0.546	-1.138	0.433	-3.784	-37.170	15.198	-77.04	-6.93	-25.94	-66.150	-17.640	-0.490	0.78540	-0.60236	0.13086	-0.05548	31.1	13111	100
2025-3-27 18:35:28.765	WT901BLE68-01(48591DE3C19B)	-0.493	-1.138	0.433	-3.784	-37.170	15.198	-77.03	-6.77	-25.94	-66.150	-17.640	-0.490	0.78540	-0.60236	0.13086	-0.05548	31.1	13111	100
2025-3-27 18:35:28.765	WT901BLE68-01(48591DE3C19B)	-0.493	-0.912	0.341	-0.977	-55.908	40.833	-77.00	-6.50	-25.82	-66.150	-17.640	-0.490	0.78540	-0.60236	0.13086	-0.05548	31.1	13111	100
2025-3-27 18:35:28.765	WT901BLE68-01(48591DE3C19B)	-0.430	-0.912	0.341	-0.977	-55.908	40.833	-76.97	-6.12	-25.58	-66.150	-17.640	-0.490	0.78540	-0.60236	0.13086	-0.05548	31.1	13111	100
2025-3-27 18:35:28.765	WT901BLE68-01(48591DE3C19B)	-0.430	-0.767	0.238	-2.930	-71.838	68.359	-76.95	-5.63	-25.23	-66.150	-17.640	-0.490	0.78540	-0.60236	0.13086	-0.05548	31.1	13111	100
2025-3-27 18:35:28.767	WT901BLE68-01(48591DE3C19B)	-0.356	-0.767	0.238	-2.930	-71.838	68.359	-76.95	-5.02	-24.77	-66.150	-17.640	-0.490	0.78540	-0.60236	0.13086	-0.05548	31.1	13111	100
2025-3-27 18:35:28.767	WT901BLE68-01(48591DE3C19B)	-0.356	-0.797	0.165	-4.883	-85.632	92.285	-76.96	-4.32	-24.22	-66.150	-17.640	-0.490	0.78540	-0.60236	0.13086	-0.05548	31.1	13111	100
2025-3-27 18:35:28.767	WT901BLE68-01(48591DE3C19B)	-0.301	-0.797	0.165	-4.883	-85.632	92.285	-76.97	-3.51	-23.58	-66.150	-17.640	-0.490	0.76294	-0.61362	0.10461	-0.17429	31.1	13111	100
2025-3-27 18:35:28.767	WT901BLE68-01(48591DE3C19B)	-0.301	-0.896	0.142	-0.916	-94.849	111.633	-76.96	-2.62	-22.87	-66.150	-17.640	-0.490	0.76294	-0.61362	0.10461	-0.17429	31.1	13111	100
2025-3-27 18:35:28.826	WT901BLE68-01(48591DE3C19B)	-0.268	-0.896	0.142	-0.916	-94.849	111.633	-76.92	-1.65	-22.10	-66.150	-17.640	-0.490	0.76294	-0.61362	0.10461	-0.17429	31.1	13111	100
2025-3-27 18:35:28.826	WT901BLE68-01(48591DE3C19B)	-0.268	-0.985	0.158	8.118	-93.567	126.221	-76.82	-0.62	-21.32	-66.150	-17.640	-0.490	0.76294	-0.61362	0.10461	-0.17429	31.1	13111	100
2025-3-27 18:35:28.826	WT901BLE68-01(48591DE3C19B)	-0.220	-0.985	0.158	8.118	-93.567	126.221	-76.66	0.48	-20.53	-66.150	-17.640	-0.490	0.76294	-0.61362	0.10461	-0.17429	31.1	13111	100
2025-3-27 18:35:28.826	WT901BLE68-01(48591DE3C19B)	-0.220	-1.058	0.141	17.273	-79.651	135.254	-76.44	1.63	-19.79	-66.150	-17.640	-0.490	0.76294	-0.61362	0.10461	-0.17429	31.1	13111	100
2025-3-27 18:35:28.854	WT901BLE68-01(48591DE3C19B)	-0.175	-1.058	0.141	17.273	-79.651	135.254	-76.16	2.83	-19.11	-66.150	-17.640	-0.490	0.76294	-0.61362	0.10461	-0.17429	31.1	13111	100
2025-3-27 18:35:28.854	WT901BLE68-01(48591DE3C19B)	-0.175	-1.063	0.088	29.175	-57.556	141.968	-75.82	4.08	-18.52	-66.150	-17.640	-0.490	0.76294	-0.61362	0.10461	-0.17429	31.1	13111	100
2025-3-27 18:35:28.855	WT901BLE68-01(48591DE3C19B)	-0.101	-1.063	0.088	29.175	-57.556	141.968	-75.42	5.37	-18.02	-66.150	-17.640	-0.490	0.76294	-0.61362	0.10461	-0.17429	31.1	13111	100
2025-3-27 18:35:28.855	WT901BLE68-01(48591DE3C19B)	-0.101	-0.949	0.059	34.302	-35.645	148.682	-74.99	6.72	-17.61	-66.150	-17.640	-0.490	0.76294	-0.61362	0.10461	-0.17429	31.1	13111	100
2025-3-27 18:35:28.890	WT901BLE68-01(48591DE3C19B)	-0.016	-0.949	0.059	34.302	-35.645	148.682	-74.55	8.11	-17.28	-66.150	-17.640	-0.490	0.76294	-0.61362	0.10461	-0.17429	31.1	13111	100
2025-3-27 18:35:28.890	WT901BLE68-01(48591DE3C19B)	-0.016	-0.828	0.048	34.851	-10.437	151.062	-74.11	9.54	-17.07	-66.150	-17.640	-0.490	0.76294	-0.61362	0.10461	-0.17429	31.1	13111	100
2025-3-27 18:35:28.890	WT901BLE68-01(48591DE3C19B)	0.025	-0.828	0.048	34.851	-10.437	151.062	-73.69	11.00	-16.96	-66.150	-17.640	-0.490	0.76294	-0.61362	0.10461	-0.17429	31.1	13111	100
2025-3-27 18:35:28.890	WT901BLE68-01(48591DE3C19B)	0.025	-0.738	0.041	31.372	18.066	150.757	-73.30	12.49	-16.98	-66.150	-17.640	-0.490	0.76294	-0.61362	0.10461	-0.17429	31.1	13111	100
2025-3-27 18:35:28.947	WT901BLE68-01(48591DE3C19B)	0.005	-0.738	0.041	31.372	18.066	150.757	-72.97	14.00	-17.14	-66.150	-17.640	-0.490	0.76294	-0.61362	0.10461	-0.17429	31.1	13111	100
2025-3-27 18:35:28.947	WT901BLE68-01(48591DE3C19B)	0.005	-0.679	0.035	27.161	38.513	147.400	-72.69	15.52	-17.39	-66.150	-17.640	-0.490	0.76294	-0.61362	0.10461	-0.17429	31.1	13111	100
2025-3-27 18:35:28.947	WT901BLE68-01(48591DE3C19B)	-0.006	-0.679	0.035	27.161	38.513	147.400	-72.47	17.04	-17.74	-66.150	-17.640	-0.490	0.76294	-0.61362	0.10461	-0.17429	31.1	13111	100
2025-3-27 18:35:28.947	WT901BLE68-01(48591DE3C19B)	-0.006	-0.647	0.018	21.973	46.692	142.639	-72.30	18.54	-18.14	-66.150	-17.640	-0.490	0.76294	-0.61362	0.10461	-0.17429	31.1	13111	100
2025-3-27 18:35:28.976	WT901BLE68-01(48591DE3C19B)	-0.024	-0.647	0.018	21.973	46.692	142.639	-72.17	20.03	-18.59	-66.150	-17.640	-0.490	0.76294	-0.61362	0.10461	-0.17429	31.1	13111	100
2025-3-27 18:35:28.977	WT901BLE68-01(48591DE3C19B)	-0.024	-0.667	-0.010	12.634	45.044	136.353	-72.16	21.45	-19.04	-66.150	-17.640	-0.490	0.76294	-0.61362	0.10461	-0.17429	31.1	13111	100
2025-3-27 18:35:28.977	WT901BLE68-01(48591DE3C19B)	-0.073	-0.667	-0.010	12.634	45.044	136.353	-72.15	22.85	-19.50	-66.150	-17.640	-0.490	0.76294	-0.61362	0.10461	-0.17429	31.1	13111	100
2025-3-27 18:35:28.977	WT901BLE68-01(48591DE3C19B)	-0.073	-0.817	-0.043	-1.526	32.227	127.625	-72.26	24.13	-19.85	-68.796	-8.722	-4.410	0.76294	-0.61362	0.10461	-0.17429	31.1	13111	100
2025-3-27 18:35:29.6	WT901BLE68-01(48591DE3C19B)	-0.112	-0.817	-0.043	-1.526	32.227	127.625	-72.37	25.41	-20.21	-68.796	-8.722	-4.410	0.76294	-0.61362	0.10461	-0.17429	31.1	13111	100
2025-3-27 18:35:29.7	WT901BLE68-01(48591DE3C19B)	-0.112	-1.124	-0.028	-19.165	4.211	117.676	-72.56	26.49	-20.31	-68.796	-8.722	-4.410	0.76294	-0.61362	0.10461	-0.17429	31.1	13111	100
2025-3-27 18:35:29.7	WT901BLE68-01(48591DE3C19B)	-0.090	-1.124	-0.028	-19.165	4.211	117.676	-72.75	27.59	-20.42	-68.796	-8.722	-4.410	0.76294	-0.61362	0.10461	-0.17429	31.1	13111	100
2025-3-27 18:35:29.7	WT901BLE68-01(48591DE3C19B)	-0.090	-1.586	-0.011	-29.968	-32.715	103.333	-72.88	28.42	-20.19	-68.796	-8.722	-4.410	0.76294	-0.61362	0.10461	-0.17429	31.1	13111	100
2025-3-27 18:35:29.65	WT901BLE68-01(48591DE3C19B)	0.109	-1.586	-0.011	-29.968	-32.715	103.333	-73.02	29.26	-19.96	-68.796	-8.722	-4.410	0.76294	-0.61362	0.10461	-0.17429	31.1	13111	100
2025-3-27 18:35:29.66	WT901BLE68-01(48591DE3C19B)	0.109	-2.022	-0.005	-19.287	-65.857	86.121	-72.89	29.82	-19.42	-68.796	-8.722	-4.410	0.76294	-0.61362	0.10461	-0.17429	31.1	13111	100
2025-3-27 18:35:29.66	WT901BLE68-01(48591DE3C19B)	0.370	-2.022	-0.005	-19.287	-65.857	86.121	-72.77	30.38	-18.89	-68.796	-8.722	-4.410	0.76294	-0.61362	0.10461	-0.17429	31.1	13111	100
2025-3-27 18:35:29.66	WT901BLE68-01(48591DE3C19B)	0.370	-2.016	0.029	5.737	-80.078	63.721	-72.36	30.67	-18.27	-68.796	-8.722	-4.410	0.76294	-0.61362	0.10461	-0.17429	31.1	13111	100
2025-3-27 18:35:29.94	WT901BLE68-01(48591DE3C19B)	0.557	-2.016	0.029	5.737	-80.078	63.721	-71.95	30.95	-17.66	-68.796	-8.722	-4.410	0.76294	-0.61362	0.10461	-0.17429	31.1	13111	100
2025-3-27 18:35:29.94	WT901BLE68-01(48591DE3C19B)	0.557	-1.827	0.042	14.282	-72.998	38.818	-71.55	31.00	-17.22	-68.796	-8.722	-4.410	0.76294	-0.61362	0.10461	-0.17429	31.1	13111	100
2025-3-27 18:35:29.94	WT901BLE68-01(48591DE3C19B)	0.644	-1.827	0.042	14.282	-72.998	38.818	-71.16	31.04	-16.78	-68.796	-8.722	-4.410	0.76294	-0.61362	0.10461	-0.17429	31.1	13111	100
2025-3-27 18:35:29.94	WT901BLE68-01(48591DE3C19B)	0.644	-1.647	0.017	10.620	-38.818	1.343	-71.08	30.82	-16.87	-68.796	-8.722	-4.410	0.76294	-0.61362	0.10461	-0.17429	31.1	13111	100
2025-3-27 18:35:29.124	WT901BLE68-01(48591DE3C19B)	0.560	-1.647	0.017	10.620	-38.818	1.343	-71.02	30.60	-16.96	-68.796	-8.722	-4.410	0.76294	-0.61362	0.10461	-0.17429	31.1	13111	100
2025-3-27 18:35:29.125	WT901BLE68-01(48591DE3C19B)	0.560	-1.548	-0.009	3.296	25.208	-39.551	-71.46	30.20	-17.90	-68.796	-8.722	-4.410	0.76294	-0.61362	0.10461	-0.17429	31.1	13111	100
2025-3-27 18:35:29.125	WT901BLE68-01(48591DE3C19B)	0.404	-1.548	-0.009	3.296	25.208	-39.551	-71.89	29.78	-18.83	-68.796	-8.722	-4.410	0.76294	-0.61362	0.10461	-0.17429	31.1	13111	100
2025-3-27 18:35:29.125	WT901BLE68-01(48591DE3C19B)	0.404	-1.560	0.029	-1.587	80.750	-80.383	-72.74	29.13	-20.49	-68.796	-8.722	-4.410	0.76294	-0.61362	0.10461	-0.17429	31.1	13111	100
2025-3-27 18:35:29.189	WT901BLE68-01(48591DE3C19B)	0.341	-1.560	0.029	-1.587	80.750	-80.383	-73.55	28.47	-22.13	-68.796	-8.722	-4.410	0.76294	-0.61362	0.10461	-0.17429	31.1	13111	100
2025-3-27 18:35:29.189	WT901BLE68-01(48591DE3C19B)	0.341	-1.618	-0.025	-1.099	109.070	-119.324	-74.53	27.49	-24.17	-68.796	-8.722	-4.410	0.76294	-0.61362	0.10461	-0.17429	31.1	13111	100
2025-3-27 18:35:29.189	WT901BLE68-01(48591DE3C19B)	0.196	-1.618	-0.025	-1.099	109.070	-119.324	-75.45	26.48	-26.15	-68.796	-8.722	-4.410	0.76294	-0.61362	0.10461	-0.17429	31.1	13111	100
2025-3-27 18:35:29.189	WT901BLE68-01(48591DE3C19B)	0.196	-1.509	-0.046	-1.831	113.403	-145.569	-76.39	25.21	-28.21	-68.796	-8.722	-4.410	0.76294	-0.61362	0.10461	-0.17429	31.1	13111	100
2025-3-27 18:35:29.214	WT901BLE68-01(48591DE3C19B)	-0.029	-1.509	-0.046	-1.831	113.403	-145.569	-77.26	23.92	-30.21	-68.796	-8.722	-4.410	0.77151	-0.54736	0.31549	-0.07428	31.1	13111	100
2025-3-27 18:35:29.214	WT901BLE68-01(48591DE3C19B)	-0.029	-1.403	-0.021	-5.249	95.825	-163.818	-78.04	22.40	-32.02	-68.796	-8.722	-4.410	0.77151	-0.54736	0.31549	-0.07428	31.1	13111	100
2025-3-27 18:35:29.214	WT901BLE68-01(48591DE3C19B)	-0.185	-1.403	-0.021	-5.249	95.825	-163.818	-78.76	20.87	-33.78	-68.796	-8.722	-4.410	0.77151	-0.54736	0.31549	-0.07428	31.1	13111	100
2025-3-27 18:35:29.214	WT901BLE68-01(48591DE3C19B)	-0.185	-1.284	0.045	-2.075	59.753	-174.744	-79.26	19.16	-35.13	-68.796	-8.722	-4.410	0.77151	-0.54736	0.31549	-0.07428	31.1	13111	100
2025-3-27 18:35:29.245	WT901BLE68-01(48591DE3C19B)	-0.297	-1.284	0.045	-2.075	59.753	-174.744	-79.71	17.46	-36.45	-68.796	-8.722	-4.410	0.77151	-0.54736	0.31549	-0.07428	31.1	13111	100
2025-3-27 18:35:29.245	WT901BLE68-01(48591DE3C19B)	-0.297	-1.131	0.135	3.784	10.925	-177.185	-79.91	15.65	-37.24	-68.796	-8.722	-4.410	0.77151	-0.54736	0.31549	-0.07428	31.1	13111	100
2025-3-27 18:35:29.245	WT901BLE68-01(48591DE3C19B)	-0.319	-1.131	0.135	3.784	10.925	-177.185	-80.08	13.86	-38.01	-68.796	-8.722	-4.410	0.77151	-0.54736	0.31549	-0.07428	31.1	13111	100
2025-3-27 18:35:29.245	WT901BLE68-01(48591DE3C19B)	-0.319	-0.998	0.196	3.357	-38.452	-176.086	-80.11	12.00	-38.26	-68.796	-8.722	-4.410	0.77151	-0.54736	0.31549	-0.07428	31.1	13111	100
2025-3-27 18:35:29.304	WT901BLE68-01(48591DE3C19B)	-0.219	-0.998	0.196	3.357	-38.452	-176.086	-80.13	10.17	-38.51	-68.796	-8.722	-4.410	0.77151	-0.54736	0.31549	-0.07428	31.1	13111	100
2025-3-27 18:35:29.305	WT901BLE68-01(48591DE3C19B)	-0.219	-0.932	0.207	-6.287	-57.556	-172.852	-80.21	8.34	-38.56	-68.796	-8.722	-4.410	0.77151	-0.54736	0.31549	-0.07428	31.1	13111	100
2025-3-27 18:35:29.305	WT901BLE68-01(48591DE3C19B)	-0.067	-0.932	0.207	-6.287	-57.556	-172.852	-80.28	6.53	-38.59	-68.796	-8.722	-4.410	0.77151	-0.54736	0.31549	-0.07428	31.1	13111	100
2025-3-27 18:35:29.305	WT901BLE68-01(48591DE3C19B)	-0.067	-0.910	0.237	-12.329	-14.038	-163.574	-80.46	4.89	-39.05	-68.796	-8.722	-4.410	0.77151	-0.54736	0.31549	-0.07428	31.1	13111	100
2025-3-27 18:35:29.365	WT901BLE68-01(48591DE3C19B)	-0.061	-0.910	0.237	-12.329	-14.038	-163.574	-80.61	3.26	-39.49	-68.796	-8.722	-4.410	0.77151	-0.54736	0.31549	-0.07428	31.1	13111	100
2025-3-27 18:35:29.366	WT901BLE68-01(48591DE3C19B)	-0.061	-0.927	0.243	-15.503	50.232	-160.339	-80.82	1.76	-40.55	-68.796	-8.722	-4.410	0.77151	-0.54736	0.31549	-0.07428	31.1	13111	100
2025-3-27 18:35:29.366	WT901BLE68-01(48591DE3C19B)	-0.117	-0.927	0.243	-15.503	50.232	-160.339	-81.00	0.27	-41.59	-68.796	-8.722	-4.410	0.77151	-0.54736	0.31549	-0.07428	31.1	13111	100
2025-3-27 18:35:29.366	WT901BLE68-01(48591DE3C19B)	-0.117	-0.989	0.221	-11.108	100.098	-160.095	-81.10	-1.12	-43.12	-68.796	-8.722	-4.410	0.77151	-0.54736	0.31549	-0.07428	31.1	13111	100
2025-3-27 18:35:29.367	WT901BLE68-01(48591DE3C19B)	-0.201	-0.989	0.221	-11.108	100.098	-160.095	-81.16	-2.52	-44.64	-68.796	-8.722	-4.410	0.77151	-0.54736	0.31549	-0.07428	31.1	13111	100
2025-3-27 18:35:29.367	WT901BLE68-01(48591DE3C19B)	-0.201	-1.021	0.190	-2.747	124.939	-156.189	-81.09	-3.83	-46.39	-68.796	-8.722	-4.410	0.77151	-0.54736	0.31549	-0.07428	31.1	13111	100
2025-3-27 18:35:29.367	WT901BLE68-01(48591DE3C19B)	-0.275	-1.021	0.190	-2.747	124.939	-156.189	-80.99	-5.13	-48.13	-68.698	-11.466	-1.176	0.77151	-0.54736	0.31549	-0.07428	31.1	13111	100
2025-3-27 18:35:29.367	WT901BLE68-01(48591DE3C19B)	-0.275	-0.986	0.163	8.179	136.658	-148.193	-80.73	-6.31	-49.98	-68.698	-11.466	-1.176	0.77151	-0.54736	0.31549	-0.07428	31.1	13111	100
2025-3-27 18:35:29.425	WT901BLE68-01(48591DE3C19B)	-0.341	-0.986	0.163	8.179	136.658	-148.193	-80.43	-7.47	-51.82	-68.698	-11.466	-1.176	0.77151	-0.54736	0.31549	-0.07428	31.1	13111	100
2025-3-27 18:35:29.425	WT901BLE68-01(48591DE3C19B)	-0.341	-0.898	0.125	16.785	141.907	-139.893	-80.00	-8.51	-53.71	-68.698	-11.466	-1.176	0.77151	-0.54736	0.31549	-0.07428	31.1	13111	100
2025-3-27 18:35:29.425	WT901BLE68-01(48591DE3C19B)	-0.435	-0.898	0.125	16.785	141.907	-139.893	-79.55	-9.53	-55.60	-68.698	-11.466	-1.176	0.77151	-0.54736	0.31549	-0.07428	31.1	13111	100
2025-3-27 18:35:29.426	WT901BLE68-01(48591DE3C19B)	-0.549	-0.776	0.099	22.705	135.315	-130.127	-79.02	-10.44	-57.40	-68.698	-11.466	-1.176	0.77151	-0.54736	0.31549	-0.07428	31.1	13111	100
2025-3-27 18:35:29.454	WT901BLE68-01(48591DE3C19B)	-0.549	-0.664	0.138	24.353	109.253	-117.188	-78.49	-11.28	-59.07	-68.698	-11.466	-1.176	0.77151	-0.54736	0.31549	-0.07428	31.1	13111	100
2025-3-27 18:35:29.454	WT901BLE68-01(48591DE3C19B)	-0.591	-0.664	0.138	24.353	109.253	-117.188	-77.95	-12.05	-60.60	-68.698	-11.466	-1.176	0.77151	-0.54736	0.31549	-0.07428	31.1	13111	100
2025-3-27 18:35:29.454	WT901BLE68-01(48591DE3C19B)	-0.591	-0.591	0.205	20.935	79.102	-102.966	-77.44	-12.76	-61.96	-68.698	-11.466	-1.176	0.77151	-0.54736	0.31549	-0.07428	31.1	13111	100
2025-3-27 18:35:29.454	WT901BLE68-01(48591DE3C19B)	-0.586	-0.591	0.205	20.935	79.102	-102.966	-76.97	-13.39	-63.17	-68.698	-11.466	-1.176	0.77151	-0.54736	0.31549	-0.07428	31.1	13111	100
2025-3-27 18:35:29.547	WT901BLE68-01(48591DE3C19B)	-0.586	-0.561	0.244	15.747	55.603	-86.243	-76.54	-13.96	-64.24	-68.698	-11.466	-1.176	0.77151	-0.54736	0.31549	-0.07428	31.1	13111	100
2025-3-27 18:35:29.547	WT901BLE68-01(48591DE3C19B)	-0.571	-0.561	0.244	15.747	55.603	-86.243	-76.15	-14.45	-65.18	-68.698	-11.466	-1.176	0.77151	-0.54736	0.31549	-0.07428	31.1	13111	100
2025-3-27 18:35:29.547	WT901BLE68-01(48591DE3C19B)	-0.571	-0.553	0.260	10.010	36.865	-71.106	-75.81	-14.88	-66.01	-68.698	-11.466	-1.176	0.77151	-0.54736	0.31549	-0.07428	31.1	13111	100
2025-3-27 18:35:29.547	WT901BLE68-01(48591DE3C19B)	-0.577	-0.553	0.260	10.010	36.865	-71.106	-75.51	-15.23	-66.73	-68.698	-11.466	-1.176	0.77151	-0.54736	0.31549	-0.07428	31.1	13111	100
2025-3-27 18:35:29.548	WT901BLE68-01(48591DE3C19B)	-0.577	-0.637	0.272	3.052	20.020	-56.763	-75.26	-15.53	-67.35	-68.698	-11.466	-1.176	0.77151	-0.54736	0.31549	-0.07428	31.1	13111	100
2025-3-27 18:35:29.548	WT901BLE68-01(48591DE3C19B)	-0.647	-0.637	0.272	3.052	20.020	-56.763	-75.08	-15.78	-67.87	-68.698	-11.466	-1.176	0.77151	-0.54736	0.31549	-0.07428	31.1	13111	100
2025-3-27 18:35:29.548	WT901BLE68-01(48591DE3C19B)	-0.647	-0.816	0.310	0.000	0.122	-41.382	-74.93	-15.96	-68.27	-68.698	-11.466	-1.176	0.77151	-0.54736	0.31549	-0.07428	31.1	13111	100
2025-3-27 18:35:29.548	WT901BLE68-01(48591DE3C19B)	-0.772	-0.816	0.310	0.000	0.122	-41.382	-74.82	-16.09	-68.56	-68.698	-11.466	-1.176	0.77151	-0.54736	0.31549	-0.07428	31.1	13111	100
2025-3-27 18:35:29.635	WT901BLE68-01(48591DE3C19B)	-0.772	-1.027	0.334	0.916	-20.630	-26.001	-74.74	-16.18	-68.72	-68.698	-11.466	-1.176	0.77151	-0.54736	0.31549	-0.07428	31.1	13111	100
2025-3-27 18:35:29.635	WT901BLE68-01(48591DE3C19B)	-0.841	-1.027	0.334	0.916	-20.630	-26.001	-74.69	-16.22	-68.76	-68.698	-11.466	-1.176	0.77151	-0.54736	0.31549	-0.07428	31.1	13111	100
2025-3-27 18:35:29.635	WT901BLE68-01(48591DE3C19B)	-0.841	-1.283	0.338	1.770	-43.152	-11.841	-74.67	-16.21	-68.67	-68.698	-11.466	-1.176	0.77151	-0.54736	0.31549	-0.07428	31.1	13111	100
2025-3-27 18:35:29.636	WT901BLE68-01(48591DE3C19B)	-0.806	-1.283	0.338	1.770	-43.152	-11.841	-74.69	-16.16	-68.44	-68.698	-11.466	-1.176	0.60281	-0.55945	0.24533	-0.51315	31.1	13111	100
2025-3-27 18:35:29.637	WT901BLE68-01(48591DE3C19B)	-0.806	-1.536	0.349	-2.563	-54.993	7.080	-74.75	-16.05	-68.13	-68.698	-11.466	-1.176	0.60281	-0.55945	0.24533	-0.51315	31.1	13111	100
2025-3-27 18:35:29.637	WT901BLE68-01(48591DE3C19B)	-0.729	-1.536	0.349	-2.563	-54.993	7.080	-74.86	-15.85	-67.74	-68.698	-11.466	-1.176	0.60281	-0.55945	0.24533	-0.51315	31.1	13111	100
2025-3-27 18:35:29.637	WT901BLE68-01(48591DE3C19B)	-0.729	-1.675	0.350	1.282	-47.607	35.034	-74.95	-15.52	-67.34	-68.698	-11.466	-1.176	0.60281	-0.55945	0.24533	-0.51315	31.1	13111	100
2025-3-27 18:35:29.637	WT901BLE68-01(48591DE3C19B)	-0.648	-1.675	0.350	1.282	-47.607	35.034	-75.03	-15.05	-66.95	-68.698	-11.466	-1.176	0.60281	-0.55945	0.24533	-0.51315	31.1	13111	100
2025-3-27 18:35:29.667	WT901BLE68-01(48591DE3C19B)	-0.648	-1.382	0.384	1.404	-38.635	65.002	-75.09	-14.43	-66.56	-68.698	-11.466	-1.176	0.60281	-0.55945	0.24533	-0.51315	31.1	13111	100
2025-3-27 18:35:29.667	WT901BLE68-01(48591DE3C19B)	-0.630	-1.382	0.384	1.404	-38.635	65.002	-75.15	-13.66	-66.18	-68.698	-11.466	-1.176	0.60281	-0.55945	0.24533	-0.51315	31.1	13111	100
2025-3-27 18:35:29.667	WT901BLE68-01(48591DE3C19B)	-0.630	-1.252	0.417	-14.832	-41.382	97.961	-75.29	-12.74	-65.75	-68.698	-11.466	-1.176	0.60281	-0.55945	0.24533	-0.51315	31.1	13111	100
2025-3-27 18:35:29.667	WT901BLE68-01(48591DE3C19B)	-0.634	-1.252	0.417	-14.832	-41.382	97.961	-75.51	-11.67	-65.27	-68.698	-11.466	-1.176	0.60281	-0.55945	0.24533	-0.51315	31.1	13111	100
2025-3-27 18:35:29.695	WT901BLE68-01(48591DE3C19B)	-0.634	-1.255	0.419	-19.836	-56.335	127.014	-75.77	-10.49	-64.69	-68.698	-11.466	-1.176	0.60281	-0.55945	0.24533	-0.51315	31.1	13111	100
2025-3-27 18:35:29.696	WT901BLE68-01(48591DE3C19B)	-0.592	-1.255	0.419	-19.836	-56.335	127.014	-76.04	-9.18	-64.02	-68.698	-11.466	-1.176	0.60281	-0.55945	0.24533	-0.51315	31.1	13111	100
2025-3-27 18:35:29.696	WT901BLE68-01(48591DE3C19B)	-0.592	-1.185	0.391	-19.958	-75.073	153.564	-76.31	-7.78	-63.24	-68.698	-11.466	-1.176	0.60281	-0.55945	0.24533	-0.51315	31.1	13111	100
2025-3-27 18:35:29.696	WT901BLE68-01(48591DE3C19B)	-0.574	-1.185	0.391	-19.958	-75.073	153.564	-76.57	-6.28	-62.35	-68.698	-11.466	-1.176	0.60281	-0.55945	0.24533	-0.51315	31.1	13111	100
2025-3-27 18:35:29.789	WT901BLE68-01(48591DE3C19B)	-0.574	-1.160	0.299	-19.043	-91.797	179.749	-76.81	-4.67	-61.35	-68.698	-11.466	-1.176	0.60281	-0.55945	0.24533	-0.51315	31.1	13111	100
2025-3-27 18:35:29.790	WT901BLE68-01(48591DE3C19B)	-0.529	-1.160	0.299	-19.043	-91.797	179.749	-77.01	-2.97	-60.27	-68.698	-11.466	-1.176	0.60281	-0.55945	0.24533	-0.51315	31.1	13111	100
2025-3-27 18:35:29.790	WT901BLE68-01(48591DE3C19B)	-0.529	-1.212	0.158	-15.503	-109.131	201.355	-77.17	-1.18	-59.08	-68.698	-11.466	-1.176	0.60281	-0.55945	0.24533	-0.51315	31.1	13111	100
2025-3-27 18:35:29.790	WT901BLE68-01(48591DE3C19B)	-0.452	-1.212	0.158	-15.503	-109.131	201.355	-77.27	0.68	-57.79	-68.698	-11.466	-1.176	0.60281	-0.55945	0.24533	-0.51315	31.1	13111	100
2025-3-27 18:35:29.790	WT901BLE68-01(48591DE3C19B)	-0.452	-1.311	0.045	-8.179	-123.901	217.102	-77.28	2.60	-56.42	-68.698	-11.466	-1.176	0.60281	-0.55945	0.24533	-0.51315	31.1	13111	100
2025-3-27 18:35:29.790	WT901BLE68-01(48591DE3C19B)	-0.405	-1.311	0.045	-8.179	-123.901	217.102	-77.22	4.56	-54.96	-68.698	-11.466	-1.176	0.60281	-0.55945	0.24533	-0.51315	31.1	13111	100
2025-3-27 18:35:29.790	WT901BLE68-01(48591DE3C19B)	-0.405	-1.435	0.028	0.732	-138.367	226.929	-77.05	6.54	-53.42	-68.698	-11.466	-1.176	0.60281	-0.55945	0.24533	-0.51315	31.1	13111	100
2025-3-27 18:35:29.790	WT901BLE68-01(48591DE3C19B)	-0.336	-1.435	0.028	0.732	-138.367	226.929	-76.77	8.53	-51.78	-67.816	-13.720	-2.450	0.60281	-0.55945	0.24533	-0.51315	31.1	13111	100
2025-3-27 18:35:29.817	WT901BLE68-01(48591DE3C19B)	-0.336	-1.657	0.042	12.512	-148.987	230.347	-76.38	10.50	-50.08	-67.816	-13.720	-2.450	0.60281	-0.55945	0.24533	-0.51315	31.1	13111	100
2025-3-27 18:35:29.817	WT901BLE68-01(48591DE3C19B)	-0.198	-1.657	0.042	12.512	-148.987	230.347	-75.86	12.44	-48.30	-67.816	-13.720	-2.450	0.60281	-0.55945	0.24533	-0.51315	31.1	13111	100
2025-3-27 18:35:29.817	WT901BLE68-01(48591DE3C19B)	-0.198	-1.694	0.027	36.316	-143.982	229.248	-75.16	14.35	-46.52	-67.816	-13.720	-2.450	0.60281	-0.55945	0.24533	-0.51315	31.1	13111	100
2025-3-27 18:35:29.817	WT901BLE68-01(48591DE3C19B)	-0.053	-1.694	0.027	36.316	-143.982	229.248	-74.29	16.22	-44.73	-67.816	-13.720	-2.450	0.60281	-0.55945	0.24533	-0.51315	31.1	13111	100
2025-3-27 18:35:29.905	WT901BLE68-01(48591DE3C19B)	-0.053	-1.469	0.014	52.917	-118.469	224.854	-73.32	18.06	-43.04	-67.816	-13.720	-2.450	0.60281	-0.55945	0.24533	-0.51315	31.1	13111	100
2025-3-27 18:35:29.905	WT901BLE68-01(48591DE3C19B)	-0.021	-1.469	0.014	52.917	-118.469	224.854	-72.25	19.87	-41.45	-67.816	-13.720	-2.450	0.60281	-0.55945	0.24533	-0.51315	31.1	13111	100
2025-3-27 18:35:29.905	WT901BLE68-01(48591DE3C19B)	-0.021	-1.239	0.006	56.274	-82.520	216.431	-71.17	21.64	-40.00	-67.816	-13.720	-2.450	0.60281	-0.55945	0.24533	-0.51315	31.1	13111	100
2025-3-27 18:35:29.905	WT901BLE68-01(48591DE3C19B)	-0.061	-1.239	0.006	56.274	-82.520	216.431	-70.10	23.40	-38.71	-67.816	-13.720	-2.450	0.60281	-0.55945	0.24533	-0.51315	31.1	13111	100
2025-3-27 18:35:29.906	WT901BLE68-01(48591DE3C19B)	-0.061	-1.065	-0.015	56.641	-52.429	207.336	-69.04	25.13	-37.55	-67.816	-13.720	-2.450	0.60281	-0.55945	0.24533	-0.51315	31.1	13111	100
2025-3-27 18:35:29.906	WT901BLE68-01(48591DE3C19B)	-0.100	-1.065	-0.015	56.641	-52.429	207.336	-68.01	26.84	-36.51	-67.816	-13.720	-2.450	0.60281	-0.55945	0.24533	-0.51315	31.1	13111	100
2025-3-27 18:35:29.906	WT901BLE68-01(48591DE3C19B)	-0.100	-0.922	-0.012	52.856	-29.602	199.890	-67.10	28.54	-35.71	-67.816	-13.720	-2.450	0.60281	-0.55945	0.24533	-0.51315	31.1	13111	100
2025-3-27 18:35:29.906	WT901BLE68-01(48591DE3C19B)	-0.094	-0.922	-0.012	52.856	-29.602	199.890	-66.15	30.21	-34.87	-67.816	-13.720	-2.450	0.60281	-0.55945	0.24533	-0.51315	31.1	13111	100
2025-3-27 18:35:29.937	WT901BLE68-01(48591DE3C19B)	-0.094	-0.928	-0.001	44.434	-11.536	194.092	-65.35	31.89	-34.20	-67.816	-13.720	-2.450	0.60281	-0.55945	0.24533	-0.51315	31.1	13111	100
2025-3-27 18:35:29.937	WT901BLE68-01(48591DE3C19B)	-0.079	-0.928	-0.001	44.434	-11.536	194.092	-64.52	33.54	-33.50	-67.816	-13.720	-2.450	0.60281	-0.55945	0.24533	-0.51315	31.1	13111	100
2025-3-27 18:35:29.937	WT901BLE68-01(48591DE3C19B)	-0.079	-1.012	-0.041	37.354	-8.301	186.096	-63.77	35.12	-32.84	-67.816	-13.720	-2.450	0.60281	-0.55945	0.24533	-0.51315	31.1	13111	100
2025-3-27 18:35:29.937	WT901BLE68-01(48591DE3C19B)	-0.038	-1.012	-0.041	37.354	-8.301	186.096	-62.98	36.68	-32.15	-67.816	-13.720	-2.450	0.60281	-0.55945	0.24533	-0.51315	31.1	13111	100
2025-3-27 18:35:29.994	WT901BLE68-01(48591DE3C19B)	-0.038	-1.082	-0.076	28.076	-21.179	175.476	-62.20	38.07	-31.34	-67.816	-13.720	-2.450	0.60281	-0.55945	0.24533	-0.51315	31.1	13111	100
2025-3-27 18:35:29.994	WT901BLE68-01(48591DE3C19B)	0.030	-1.082	-0.076	28.076	-21.179	175.476	-61.39	39.45	-30.50	-67.816	-13.720	-2.450	0.60281	-0.55945	0.24533	-0.51315	31.1	13111	100
2025-3-27 18:35:29.994	WT901BLE68-01(48591DE3C19B)	0.030	-1.288	-0.108	16.724	-39.307	160.522	-60.59	40.58	-29.51	-67.816	-13.720	-2.450	0.60281	-0.55945	0.24533	-0.51315	31.1	13111	100
2025-3-27 18:35:29.995	WT901BLE68-01(48591DE3C19B)	0.201	-1.288	-0.108	16.724	-39.307	160.522	-59.75	41.69	-28.50	-67.816	-13.720	-2.450	0.60281	-0.55945	0.24533	-0.51315	31.1	13111	100
2025-3-27 18:35:30.24	WT901BLE68-01(48591DE3C19B)	0.201	-1.466	-0.149	13.855	-53.406	141.907	-58.89	42.56	-27.42	-67.816	-13.720	-2.450	0.83130	-0.36761	0.41653	-0.01465	31.1	13111	100
2025-3-27 18:35:30.24	WT901BLE68-01(48591DE3C19B)	0.507	-1.466	-0.149	13.855	-53.406	141.907	-58.01	43.40	-26.32	-67.816	-13.720	-2.450	0.83130	-0.36761	0.41653	-0.01465	31.1	13111	100
2025-3-27 18:35:30.24	WT901BLE68-01(48591DE3C19B)	0.507	-1.527	-0.224	15.442	-52.490	113.220	-57.26	43.98	-25.42	-67.816	-13.720	-2.450	0.83130	-0.36761	0.41653	-0.01465	31.1	13111	100
2025-3-27 18:35:30.24	WT901BLE68-01(48591DE3C19B)	0.724	-1.527	-0.224	15.442	-52.490	113.220	-56.51	44.54	-24.52	-67.816	-13.720	-2.450	0.83130	-0.36761	0.41653	-0.01465	31.1	13111	100
2025-3-27 18:35:30.82	WT901BLE68-01(48591DE3C19B)	0.724	-1.686	-0.228	7.874	-20.020	72.144	-56.32	44.93	-24.32	-67.816	-13.720	-2.450	0.83130	-0.36761	0.41653	-0.01465	31.1	13111	100
2025-3-27 18:35:30.82	WT901BLE68-01(48591DE3C19B)	0.582	-1.686	-0.228	7.874	-20.020	72.144	-56.15	45.30	-24.12	-67.816	-13.720	-2.450	0.83130	-0.36761	0.41653	-0.01465	31.1	13111	100
2025-3-27 18:35:30.82	WT901BLE68-01(48591DE3C19B)	0.582	-1.921	-0.190	-5.432	15.869	24.170	-56.68	45.47	-24.74	-67.816	-13.720	-2.450	0.83130	-0.36761	0.41653	-0.01465	31.1	13111	100
2025-3-27 18:35:30.83	WT901BLE68-01(48591DE3C19B)	0.357	-1.921	-0.190	-5.432	15.869	24.170	-57.23	45.63	-25.35	-67.816	-13.720	-2.450	0.83130	-0.36761	0.41653	-0.01465	31.1	13111	100
2025-3-27 18:35:30.114	WT901BLE68-01(48591DE3C19B)	0.357	-1.915	-0.090	-14.404	38.818	-27.832	-58.34	45.46	-26.64	-67.816	-13.720	-2.450	0.83130	-0.36761	0.41653	-0.01465	31.1	13111	100
2025-3-27 18:35:30.114	WT901BLE68-01(48591DE3C19B)	0.282	-1.915	-0.090	-14.404	38.818	-27.832	-59.44	45.27	-27.92	-67.816	-13.720	-2.450	0.83130	-0.36761	0.41653	-0.01465	31.1	13111	100
2025-3-27 18:35:30.114	WT901BLE68-01(48591DE3C19B)	0.282	-1.706	0.064	-24.536	53.528	-74.280	-60.97	44.74	-29.69	-67.816	-13.720	-2.450	0.83130	-0.36761	0.41653	-0.01465	31.1	13111	100
2025-3-27 18:35:30.114	WT901BLE68-01(48591DE3C19B)	0.311	-1.706	0.064	-24.536	53.528	-74.280	-62.46	44.18	-31.40	-67.816	-13.720	-2.450	0.83130	-0.36761	0.41653	-0.01465	31.1	13111	100
2025-3-27 18:35:30.146	WT901BLE68-01(48591DE3C19B)	0.311	-1.580	0.176	-35.583	60.791	-115.540	-64.23	43.24	-33.41	-67.816	-13.720	-2.450	0.83130	-0.36761	0.41653	-0.01465	31.1	13111	100
2025-3-27 18:35:30.147	WT901BLE68-01(48591DE3C19B)	0.242	-1.580	0.176	-35.583	60.791	-115.540	-65.92	42.27	-35.34	-67.816	-13.720	-2.450	0.83130	-0.36761	0.41653	-0.01465	31.1	13111	100
2025-3-27 18:35:30.147	WT901BLE68-01(48591DE3C19B)	0.242	-1.483	0.149	-39.490	61.584	-149.109	-67.69	40.95	-37.37	-67.816	-13.720	-2.450	0.83130	-0.36761	0.41653	-0.01465	31.1	13111	100
2025-3-27 18:35:30.147	WT901BLE68-01(48591DE3C19B)	0.155	-1.483	0.149	-39.490	61.584	-149.109	-69.35	39.59	-39.30	-67.816	-13.720	-2.450	0.83130	-0.36761	0.41653	-0.01465	31.1	13111	100
2025-3-27 18:35:30.176	WT901BLE68-01(48591DE3C19B)	0.155	-1.360	0.129	-42.175	65.979	-176.941	-71.04	37.96	-41.30	-67.816	-13.720	-2.450	0.83130	-0.36761	0.41653	-0.01465	31.1	13111	100
2025-3-27 18:35:30.177	WT901BLE68-01(48591DE3C19B)	0.051	-1.360	0.129	-42.175	65.979	-176.941	-72.61	36.28	-43.18	-67.816	-13.720	-2.450	0.83130	-0.36761	0.41653	-0.01465	31.1	13111	100
2025-3-27 18:35:30.177	WT901BLE68-01(48591DE3C19B)	0.051	-1.290	0.103	-39.795	77.209	-198.730	-74.17	34.41	-45.16	-69.384	-13.818	-4.704	0.83130	-0.36761	0.41653	-0.01465	31.1	13111	100
2025-3-27 18:35:30.177	WT901BLE68-01(48591DE3C19B)	-0.057	-1.290	0.103	-39.795	77.209	-198.730	-75.61	32.50	-47.03	-69.384	-13.818	-4.704	0.83130	-0.36761	0.41653	-0.01465	31.1	13111	100
2025-3-27 18:35:30.235	WT901BLE68-01(48591DE3C19B)	-0.057	-1.256	0.158	-31.982	96.130	-217.590	-76.99	30.44	-49.06	-69.384	-13.818	-4.704	0.83130	-0.36761	0.41653	-0.01465	31.1	13111	100
2025-3-27 18:35:30.235	WT901BLE68-01(48591DE3C19B)	-0.229	-1.256	0.158	-31.982	96.130	-217.590	-78.26	28.34	-50.98	-69.384	-13.818	-4.704	0.83130	-0.36761	0.41653	-0.01465	31.1	13111	100
2025-3-27 18:35:30.236	WT901BLE68-01(48591DE3C19B)	-0.229	-1.288	0.204	-28.442	93.079	-234.558	-79.37	26.07	-52.81	-69.384	-13.818	-4.704	0.83130	-0.36761	0.41653	-0.01465	31.1	13111	100
2025-3-27 18:35:30.236	WT901BLE68-01(48591DE3C19B)	-0.331	-1.288	0.204	-28.442	93.079	-234.558	-80.38	23.77	-54.54	-69.384	-13.818	-4.704	0.83130	-0.36761	0.41653	-0.01465	31.1	13111	100
2025-3-27 18:35:30.325	WT901BLE68-01(48591DE3C19B)	-0.331	-1.347	0.198	-21.240	64.758	-244.690	-81.10	21.34	-55.91	-69.384	-13.818	-4.704	0.83130	-0.36761	0.41653	-0.01465	31.1	13111	100
2025-3-27 18:35:30.325	WT901BLE68-01(48591DE3C19B)	-0.410	-1.347	0.198	-21.240	64.758	-244.690	-81.75	18.91	-57.22	-69.384	-13.818	-4.704	0.83130	-0.36761	0.41653	-0.01465	31.1	13111	100
2025-3-27 18:35:30.325	WT901BLE68-01(48591DE3C19B)	-0.410	-1.349	0.167	-16.907	18.616	-250.183	-82.14	16.37	-58.00	-69.384	-13.818	-4.704	0.83130	-0.36761	0.41653	-0.01465	31.1	13111	100
2025-3-27 18:35:30.325	WT901BLE68-01(48591DE3C19B)	-0.361	-1.349	0.167	-16.907	18.616	-250.183	-82.49	13.85	-58.75	-69.384	-13.818	-4.704	0.83130	-0.36761	0.41653	-0.01465	31.1	13111	100
2025-3-27 18:35:30.326	WT901BLE68-01(48591DE3C19B)	-0.361	-1.320	0.165	-17.578	-13.672	-251.282	-82.73	11.30	-59.16	-69.384	-13.818	-4.704	0.83130	-0.36761	0.41653	-0.01465	31.1	13111	100
2025-3-27 18:35:30.326	WT901BLE68-01(48591DE3C19B)	-0.281	-1.320	0.165	-17.578	-13.672	-251.282	-82.96	8.76	-59.55	-69.384	-13.818	-4.704	0.83130	-0.36761	0.41653	-0.01465	31.1	13111	100
2025-3-27 18:35:30.327	WT901BLE68-01(48591DE3C19B)	-0.281	-1.282	0.166	-19.836	-13.367	-247.620	-83.19	6.28	-59.91	-69.384	-13.818	-4.704	0.83130	-0.36761	0.41653	-0.01465	31.1	13111	100
2025-3-27 18:35:30.327	WT901BLE68-01(48591DE3C19B)	-0.263	-1.282	0.166	-19.836	-13.367	-247.620	-83.40	3.82	-60.27	-69.384	-13.818	-4.704	0.83130	-0.36761	0.41653	-0.01465	31.1	13111	100
2025-3-27 18:35:30.389	WT901BLE68-01(48591DE3C19B)	-0.263	-1.233	0.144	-21.606	3.540	-243.774	-83.63	1.43	-60.77	-69.384	-13.818	-4.704	0.83130	-0.36761	0.41653	-0.01465	31.1	13111	100
2025-3-27 18:35:30.389	WT901BLE68-01(48591DE3C19B)	-0.265	-1.233	0.144	-21.606	3.540	-243.774	-83.84	-0.94	-61.25	-69.384	-13.818	-4.704	0.83130	-0.36761	0.41653	-0.01465	31.1	13111	100
2025-3-27 18:35:30.389	WT901BLE68-01(48591DE3C19B)	-0.319	-1.165	0.183	-23.926	18.738	-239.502	-84.05	-3.24	-61.88	-69.384	-13.818	-4.704	0.83130	-0.36761	0.41653	-0.01465	31.1	13111	100
2025-3-27 18:35:30.389	WT901BLE68-01(48591DE3C19B)	-0.319	-1.050	0.336	-25.024	27.954	-230.591	-84.23	-5.48	-62.53	-69.384	-13.818	-4.704	0.83130	-0.36761	0.41653	-0.01465	31.1	13111	100
2025-3-27 18:35:30.390	WT901BLE68-01(48591DE3C19B)	-0.408	-1.050	0.336	-25.024	27.954	-230.591	-84.39	-7.66	-63.22	-69.384	-13.818	-4.704	0.83130	-0.36761	0.41653	-0.01465	31.1	13111	100
2025-3-27 18:35:30.390	WT901BLE68-01(48591DE3C19B)	-0.408	-0.965	0.488	-27.527	32.837	-222.778	-84.52	-9.78	-63.92	-69.384	-13.818	-4.704	0.83130	-0.36761	0.41653	-0.01465	31.1	13111	100
2025-3-27 18:35:30.390	WT901BLE68-01(48591DE3C19B)	-0.505	-0.965	0.488	-27.527	32.837	-222.778	-84.63	-11.84	-64.65	-69.384	-13.818	-4.704	0.83130	-0.36761	0.41653	-0.01465	31.1	13111	100
2025-3-27 18:35:30.390	WT901BLE68-01(48591DE3C19B)	-0.505	-0.982	0.534	-23.254	46.387	-210.999	-84.68	-13.83	-65.44	-69.384	-13.818	-4.704	0.57346	-0.61060	0.28650	-0.46487	31.1	13111	100
2025-3-27 18:35:30.417	WT901BLE68-01(48591DE3C19B)	-0.572	-0.982	0.534	-23.254	46.387	-210.999	-84.65	-15.74	-66.30	-69.384	-13.818	-4.704	0.57346	-0.61060	0.28650	-0.46487	31.1	13111	100
2025-3-27 18:35:30.417	WT901BLE68-01(48591DE3C19B)	-0.572	-0.982	0.457	-11.292	65.308	-192.871	-84.50	-17.53	-67.26	-69.384	-13.818	-4.704	0.57346	-0.61060	0.28650	-0.46487	31.1	13111	100
2025-3-27 18:35:30.417	WT901BLE68-01(48591DE3C19B)	-0.522	-0.982	0.457	-11.292	65.308	-192.871	-84.22	-19.20	-68.33	-69.384	-13.818	-4.704	0.57346	-0.61060	0.28650	-0.46487	31.1	13111	100
2025-3-27 18:35:30.417	WT901BLE68-01(48591DE3C19B)	-0.522	-0.904	0.323	-0.916	77.637	-172.791	-83.84	-20.75	-69.47	-69.384	-13.818	-4.704	0.57346	-0.61060	0.28650	-0.46487	31.1	13111	100
2025-3-27 18:35:30.535	WT901BLE68-01(48591DE3C19B)	-0.499	-0.904	0.323	-0.916	77.637	-172.791	-83.35	-22.16	-70.69	-69.384	-13.818	-4.704	0.57346	-0.61060	0.28650	-0.46487	31.1	13111	100
2025-3-27 18:35:30.535	WT901BLE68-01(48591DE3C19B)	-0.499	-0.859	0.244	2.502	77.881	-150.330	-82.83	-23.44	-71.91	-69.384	-13.818	-4.704	0.57346	-0.61060	0.28650	-0.46487	31.1	13111	100
2025-3-27 18:35:30.535	WT901BLE68-01(48591DE3C19B)	-0.564	-0.859	0.244	2.502	77.881	-150.330	-82.25	-24.59	-73.14	-69.384	-13.818	-4.704	0.57346	-0.61060	0.28650	-0.46487	31.1	13111	100
2025-3-27 18:35:30.535	WT901BLE68-01(48591DE3C19B)	-0.564	-0.954	0.253	5.249	68.665	-126.587	-81.67	-25.61	-74.31	-69.384	-13.818	-4.704	0.57346	-0.61060	0.28650	-0.46487	31.1	13111	100
2025-3-27 18:35:30.566	WT901BLE68-01(48591DE3C19B)	-0.644	-0.954	0.253	5.249	68.665	-126.587	-81.09	-26.49	-75.44	-69.384	-13.818	-4.704	0.57346	-0.61060	0.28650	-0.46487	31.1	13111	100
2025-3-27 18:35:30.567	WT901BLE68-01(48591DE3C19B)	-0.644	-1.110	0.269	11.047	59.753	-101.318	-80.50	-27.24	-76.50	-69.384	-13.818	-4.704	0.57346	-0.61060	0.28650	-0.46487	31.1	13111	100
2025-3-27 18:35:30.567	WT901BLE68-01(48591DE3C19B)	-0.705	-1.110	0.269	11.047	59.753	-101.318	-79.89	-27.86	-77.51	-69.384	-13.818	-4.704	0.57346	-0.61060	0.28650	-0.46487	31.1	13111	100
2025-3-27 18:35:30.567	WT901BLE68-01(48591DE3C19B)	-0.705	-1.213	0.275	17.334	58.838	-73.242	-79.27	-28.31	-78.49	-69.384	-13.818	-4.704	0.57346	-0.61060	0.28650	-0.46487	31.1	13111	100
2025-3-27 18:35:30.567	WT901BLE68-01(48591DE3C19B)	-0.755	-1.213	0.275	17.334	58.838	-73.242	-78.62	-28.62	-79.43	-69.384	-13.818	-4.704	0.57346	-0.61060	0.28650	-0.46487	31.1	13111	100
2025-3-27 18:35:30.567	WT901BLE68-01(48591DE3C19B)	-0.755	-1.337	0.285	17.090	64.026	-44.861	-77.98	-28.77	-80.38	-69.384	-13.818	-4.704	0.57346	-0.61060	0.28650	-0.46487	31.1	13111	100
2025-3-27 18:35:30.567	WT901BLE68-01(48591DE3C19B)	-0.764	-1.337	0.285	17.090	64.026	-44.861	-77.35	-28.76	-81.32	-69.384	-13.818	-4.704	0.57346	-0.61060	0.28650	-0.46487	31.1	13111	100
2025-3-27 18:35:30.568	WT901BLE68-01(48591DE3C19B)	-0.764	-1.447	0.292	10.437	68.237	-10.925	-76.77	-28.57	-82.23	-69.384	-13.818	-4.704	0.57346	-0.61060	0.28650	-0.46487	31.1	13111	100
2025-3-27 18:35:30.625	WT901BLE68-01(48591DE3C19B)	-0.703	-1.447	0.292	10.437	68.237	-10.925	-76.24	-28.21	-83.12	-69.384	-13.818	-4.704	0.57346	-0.61060	0.28650	-0.46487	31.1	13111	100
2025-3-27 18:35:30.625	WT901BLE68-01(48591DE3C19B)	-0.703	-1.360	0.314	6.470	78.125	25.696	-75.75	-27.65	-83.99	-69.384	-13.818	-4.704	0.57346	-0.61060	0.28650	-0.46487	31.1	13111	100
2025-3-27 18:35:30.625	WT901BLE68-01(48591DE3C19B)	-0.667	-1.360	0.314	6.470	78.125	25.696	-75.29	-26.89	-84.86	-69.384	-13.818	-4.704	0.57346	-0.61060	0.28650	-0.46487	31.1	13111	100
2025-3-27 18:35:30.625	WT901BLE68-01(48591DE3C19B)	-0.667	-1.240	0.370	-9.094	83.313	64.209	-74.94	-25.95	-85.69	-69.384	-13.818	-4.704	0.57346	-0.61060	0.28650	-0.46487	31.1	13111	100
2025-3-27 18:35:30.626	WT901BLE68-01(48591DE3C19B)	-0.705	-1.240	0.370	-9.094	83.313	64.209	-74.70	-24.81	-86.47	-67.130	-27.636	-1.274	0.57346	-0.61060	0.28650	-0.46487	31.1	13111	100
2025-3-27 18:35:30.627	WT901BLE68-01(48591DE3C19B)	-0.353	-1.177	0.425	-22.339	62.378	101.074	-74.61	-23.53	-87.08	-67.130	-27.636	-1.274	0.57346	-0.61060	0.28650	-0.46487	31.1	13111	100
2025-3-27 18:35:30.627	WT901BLE68-01(48591DE3C19B)	-0.691	-0.588	0.212	-22.339	62.378	101.074	-74.66	-22.10	-87.53	-67.130	-27.636	-1.274	0.57346	-0.61060	0.28650	-0.46487	31.1	13111	100
2025-3-27 18:35:30.627	WT901BLE68-01(48591DE3C19B)	-0.691	-1.073	0.443	-32.166	17.090	134.155	-74.87	-20.59	-87.70	-67.130	-27.636	-1.274	0.57346	-0.61060	0.28650	-0.46487	31.1	13111	100
2025-3-27 18:35:30.689	WT901BLE68-01(48591DE3C19B)	-0.616	-1.073	0.443	-32.166	17.090	134.155	-75.21	-18.98	-87.60	-67.130	-27.636	-1.274	0.57346	-0.61060	0.28650	-0.46487	31.1	13111	100
2025-3-27 18:35:30.690	WT901BLE68-01(48591DE3C19B)	-0.616	-1.040	0.368	-41.138	-28.748	166.138	-75.67	-17.28	-87.24	-67.130	-27.636	-1.274	0.57346	-0.61060	0.28650	-0.46487	31.1	13111	100
2025-3-27 18:35:30.690	WT901BLE68-01(48591DE3C19B)	-0.571	-1.040	0.368	-41.138	-28.748	166.138	-76.23	-15.49	-86.64	-67.130	-27.636	-1.274	0.57346	-0.61060	0.28650	-0.46487	31.1	13111	100
2025-3-27 18:35:30.690	WT901BLE68-01(48591DE3C19B)	-0.571	-1.061	0.236	-47.241	-65.979	197.571	-76.84	-13.58	-85.84	-67.130	-27.636	-1.274	0.57346	-0.61060	0.28650	-0.46487	31.1	13111	100
2025-3-27 18:35:30.744	WT901BLE68-01(48591DE3C19B)	-0.528	-1.061	0.236	-47.241	-65.979	197.571	-77.49	-11.57	-84.85	-67.130	-27.636	-1.274	0.57346	-0.61060	0.28650	-0.46487	31.1	13111	100
2025-3-27 18:35:30.745	WT901BLE68-01(48591DE3C19B)	-0.528	-1.195	0.133	-49.927	-93.384	223.938	-78.15	-9.46	-83.74	-67.130	-27.636	-1.274	0.57346	-0.61060	0.28650	-0.46487	31.1	13111	100
2025-3-27 18:35:30.745	WT901BLE68-01(48591DE3C19B)	-0.475	-1.195	0.133	-49.927	-93.384	223.938	-78.78	-7.26	-82.49	-67.130	-27.636	-1.274	0.57346	-0.61060	0.28650	-0.46487	31.1	13111	100
2025-3-27 18:35:30.745	WT901BLE68-01(48591DE3C19B)	-0.475	-1.375	0.082	-42.847	-112.183	244.080	-79.35	-4.97	-81.16	-67.130	-27.636	-1.274	0.57346	-0.61060	0.28650	-0.46487	31.1	13111	100
2025-3-27 18:35:30.746	WT901BLE68-01(48591DE3C19B)	-0.391	-1.375	0.082	-42.847	-112.183	244.080	-79.84	-2.60	-79.74	-67.130	-27.636	-1.274	0.57346	-0.61060	0.28650	-0.46487	31.1	13111	100
2025-3-27 18:35:30.747	WT901BLE68-01(48591DE3C19B)	-0.391	-1.546	0.096	-29.541	-122.375	257.568	-80.19	-0.18	-78.29	-67.130	-27.636	-1.274	0.57346	-0.61060	0.28650	-0.46487	31.1	13111	100
2025-3-27 18:35:30.747	WT901BLE68-01(48591DE3C19B)	-0.261	-1.546	0.096	-29.541	-122.375	257.568	-80.43	2.27	-76.79	-67.130	-27.636	-1.274	0.57346	-0.61060	0.28650	-0.46487	31.1	13111	100
2025-3-27 18:35:30.747	WT901BLE68-01(48591DE3C19B)	-0.261	-1.665	0.080	-8.789	-120.422	264.465	-80.49	4.76	-75.31	-67.130	-27.636	-1.274	0.57346	-0.61060	0.28650	-0.46487	31.1	13111	100
2025-3-27 18:35:30.776	WT901BLE68-01(48591DE3C19B)	-0.150	-1.665	0.080	-8.789	-120.422	264.465	-80.39	7.25	-73.83	-67.130	-27.636	-1.274	0.57346	-0.61060	0.28650	-0.46487	31.1	13111	100
2025-3-27 18:35:30.776	WT901BLE68-01(48591DE3C19B)	-0.150	-1.568	0.067	11.841	-103.760	265.381	-80.14	9.74	-72.42	-67.130	-27.636	-1.274	0.57346	-0.61060	0.28650	-0.46487	31.1	13111	100
2025-3-27 18:35:30.776	WT901BLE68-01(48591DE3C19B)	-0.159	-1.568	0.067	11.841	-103.760	265.381	-79.74	12.21	-71.08	-67.130	-27.636	-1.274	0.57346	-0.61060	0.28650	-0.46487	31.1	13111	100
2025-3-27 18:35:30.777	WT901BLE68-01(48591DE3C19B)	-0.159	-1.399	0.076	21.790	-81.055	260.925	-79.26	14.66	-69.82	-67.130	-27.636	-1.274	0.57346	-0.61060	0.28650	-0.46487	31.1	13111	100
2025-3-27 18:35:30.835	WT901BLE68-01(48591DE3C19B)	-0.210	-1.399	0.076	21.790	-81.055	260.925	-78.70	17.06	-68.66	-67.130	-27.636	-1.274	0.57346	-0.61060	0.28650	-0.46487	31.1	13111	100
2025-3-27 18:35:30.836	WT901BLE68-01(48591DE3C19B)	-0.210	-1.340	0.079	26.550	-63.904	254.883	-78.10	19.42	-67.66	-67.130	-27.636	-1.274	0.69498	-0.44287	0.45450	-0.33786	31.1	13111	100
2025-3-27 18:35:30.836	WT901BLE68-01(48591DE3C19B)	-0.203	-1.340	0.079	26.550	-63.904	254.883	-77.44	21.75	-66.62	-67.130	-27.636	-1.274	0.69498	-0.44287	0.45450	-0.33786	31.1	13111	100
2025-3-27 18:35:30.836	WT901BLE68-01(48591DE3C19B)	-0.203	-1.281	0.092	32.166	-50.415	250.244	-76.74	24.03	-65.69	-67.130	-27.636	-1.274	0.69498	-0.44287	0.45450	-0.33786	31.1	13111	100
2025-3-27 18:35:30.864	WT901BLE68-01(48591DE3C19B)	-0.208	-1.281	0.092	32.166	-50.415	250.244	-75.98	26.29	-64.72	-67.130	-27.636	-1.274	0.69498	-0.44287	0.45450	-0.33786	31.1	13111	100
2025-3-27 18:35:30.864	WT901BLE68-01(48591DE3C19B)	-0.208	-1.237	0.093	33.691	-39.368	246.704	-75.22	28.52	-63.84	-67.130	-27.636	-1.274	0.69498	-0.44287	0.45450	-0.33786	31.1	13111	100
2025-3-27 18:35:30.864	WT901BLE68-01(48591DE3C19B)	-0.136	-1.237	0.093	33.691	-39.368	246.704	-74.39	30.71	-62.90	-67.130	-27.636	-1.274	0.69498	-0.44287	0.45450	-0.33786	31.1	13111	100
2025-3-27 18:35:30.864	WT901BLE68-01(48591DE3C19B)	-0.136	-1.230	0.050	32.837	-32.532	238.892	-73.58	32.83	-62.02	-67.130	-27.636	-1.274	0.69498	-0.44287	0.45450	-0.33786	31.1	13111	100
2025-3-27 18:35:30.925	WT901BLE68-01(48591DE3C19B)	-0.034	-1.230	0.050	32.837	-32.532	238.892	-72.71	34.91	-61.09	-67.130	-27.636	-1.274	0.69498	-0.44287	0.45450	-0.33786	31.1	13111	100
2025-3-27 18:35:30.925	WT901BLE68-01(48591DE3C19B)	-0.034	-1.236	0.000	30.640	-24.963	223.206	-71.88	36.85	-60.25	-67.130	-27.636	-1.274	0.69498	-0.44287	0.45450	-0.33786	31.1	13111	100
2025-3-27 18:35:30.925	WT901BLE68-01(48591DE3C19B)	-0.017	-1.236	0.000	30.640	-24.963	223.206	-71.02	38.76	-59.36	-67.130	-27.636	-1.274	0.69498	-0.44287	0.45450	-0.33786	31.1	13111	100
2025-3-27 18:35:30.925	WT901BLE68-01(48591DE3C19B)	-0.017	-1.302	-0.019	27.161	-19.714	200.806	-70.22	40.45	-58.58	-67.130	-27.636	-1.274	0.69498	-0.44287	0.45450	-0.33786	31.1	13111	100
2025-3-27 18:35:30.956	WT901BLE68-01(48591DE3C19B)	-0.049	-1.302	-0.019	27.161	-19.714	200.806	-69.40	42.12	-57.75	-67.130	-27.636	-1.274	0.69498	-0.44287	0.45450	-0.33786	31.1	13111	100
2025-3-27 18:35:30.956	WT901BLE68-01(48591DE3C19B)	-0.049	-1.481	-0.003	22.034	-19.348	175.293	-68.66	43.53	-57.01	-67.130	-27.636	-1.274	0.69498	-0.44287	0.45450	-0.33786	31.1	13111	100
2025-3-27 18:35:30.956	WT901BLE68-01(48591DE3C19B)	-0.034	-1.481	-0.003	22.034	-19.348	175.293	-67.88	44.93	-56.23	-67.130	-27.636	-1.274	0.69498	-0.44287	0.45450	-0.33786	31.1	13111	100
2025-3-27 18:35:30.956	WT901BLE68-01(48591DE3C19B)	-0.034	-1.707	-0.007	21.912	-11.536	147.461	-67.25	46.08	-55.67	-67.130	-27.636	-1.274	0.69498	-0.44287	0.45450	-0.33786	31.1	13111	100
2025-3-27 18:35:30.989	WT901BLE68-01(48591DE3C19B)	0.083	-1.707	-0.007	21.912	-11.536	147.461	-66.60	47.22	-55.09	-67.130	-27.636	-1.274	0.69498	-0.44287	0.45450	-0.33786	31.1	13111	100
2025-3-27 18:35:30.989	WT901BLE68-01(48591DE3C19B)	0.083	-1.834	-0.055	26.917	5.066	115.906	-66.18	48.12	-54.89	-67.130	-27.636	-1.274	0.69498	-0.44287	0.45450	-0.33786	31.1	13111	100
2025-3-27 18:35:30.989	WT901BLE68-01(48591DE3C19B)	0.227	-1.834	-0.055	26.917	5.066	115.906	-65.75	49.02	-54.68	-70.560	-26.460	-14.406	0.69498	-0.44287	0.45450	-0.33786	31.1	13111	100
2025-3-27 18:35:30.989	WT901BLE68-01(48591DE3C19B)	0.227	-1.811	-0.057	27.222	17.822	85.327	-65.60	49.67	-54.85	-70.560	-26.460	-14.406	0.69498	-0.44287	0.45450	-0.33786	31.1	13111	100
2025-3-27 18:35:31.45	WT901BLE68-01(48591DE3C19B)	0.326	-1.811	-0.057	27.222	17.822	85.327	-65.46	50.32	-55.01	-70.560	-26.460	-14.406	0.69498	-0.44287	0.45450	-0.33786	31.1	13111	100
2025-3-27 18:35:31.45	WT901BLE68-01(48591DE3C19B)	0.326	-1.748	0.003	15.137	15.381	52.063	-65.58	50.65	-55.36	-70.560	-26.460	-14.406	0.69498	-0.44287	0.45450	-0.33786	31.1	13111	100
2025-3-27 18:35:31.45	WT901BLE68-01(48591DE3C19B)	0.371	-1.748	0.003	15.137	15.381	52.063	-65.71	50.97	-55.72	-70.560	-26.460	-14.406	0.69498	-0.44287	0.45450	-0.33786	31.1	13111	100
2025-3-27 18:35:31.45	WT901BLE68-01(48591DE3C19B)	0.371	-1.654	0.083	12.573	14.771	22.705	-66.02	51.01	-56.26	-70.560	-26.460	-14.406	0.69498	-0.44287	0.45450	-0.33786	31.1	13111	100
2025-3-27 18:35:31.74	WT901BLE68-01(48591DE3C19B)	0.366	-1.654	0.083	12.573	14.771	22.705	-66.32	51.04	-56.80	-70.560	-26.460	-14.406	0.69498	-0.44287	0.45450	-0.33786	31.1	13111	100
2025-3-27 18:35:31.74	WT901BLE68-01(48591DE3C19B)	0.366	-1.478	0.141	6.714	21.362	-4.883	-66.89	50.84	-57.62	-70.560	-26.460	-14.406	0.69498	-0.44287	0.45450	-0.33786	31.1	13111	100
2025-3-27 18:35:31.74	WT901BLE68-01(48591DE3C19B)	0.335	-1.478	0.141	6.714	21.362	-4.883	-67.45	50.63	-58.42	-70.560	-26.460	-14.406	0.69498	-0.44287	0.45450	-0.33786	31.1	13111	100
2025-3-27 18:35:31.74	WT901BLE68-01(48591DE3C19B)	0.335	-1.441	0.199	-2.991	27.710	-32.166	-68.29	50.19	-59.46	-70.560	-26.460	-14.406	0.69498	-0.44287	0.45450	-0.33786	31.1	13111	100
2025-3-27 18:35:31.135	WT901BLE68-01(48591DE3C19B)	0.299	-1.441	0.199	-2.991	27.710	-32.166	-69.09	49.72	-60.49	-70.560	-26.460	-14.406	0.69498	-0.44287	0.45450	-0.33786	31.1	13111	100
2025-3-27 18:35:31.135	WT901BLE68-01(48591DE3C19B)	0.299	-1.425	0.157	-3.723	36.560	-61.768	-70.10	49.01	-61.77	-70.560	-26.460	-14.406	0.69498	-0.44287	0.45450	-0.33786	31.1	13111	100
2025-3-27 18:35:31.136	WT901BLE68-01(48591DE3C19B)	0.176	-1.425	0.157	-3.723	36.560	-61.768	-71.06	48.28	-63.01	-70.560	-26.460	-14.406	0.69498	-0.44287	0.45450	-0.33786	31.1	13111	100
2025-3-27 18:35:31.136	WT901BLE68-01(48591DE3C19B)	0.176	-1.297	0.164	-8.911	33.508	-88.623	-72.09	47.28	-64.28	-70.560	-26.460	-14.406	0.69498	-0.44287	0.45450	-0.33786	31.1	13111	100
2025-3-27 18:35:31.167	WT901BLE68-01(48591DE3C19B)	0.060	-1.297	0.164	-8.911	33.508	-88.623	-73.06	46.27	-65.51	-70.560	-26.460	-14.406	0.69498	-0.44287	0.45450	-0.33786	31.1	13111	100
2025-3-27 18:35:31.167	WT901BLE68-01(48591DE3C19B)	0.060	-1.294	0.147	-12.390	22.644	-115.295	-73.98	44.96	-66.63	-70.560	-26.460	-14.406	0.69498	-0.44287	0.45450	-0.33786	31.1	13111	100
2025-3-27 18:35:31.167	WT901BLE68-01(48591DE3C19B)	0.002	-1.294	0.147	-12.390	22.644	-115.295	-74.83	43.65	-67.70	-70.560	-26.460	-14.406	0.69498	-0.44287	0.45450	-0.33786	31.1	13111	100
2025-3-27 18:35:31.167	WT901BLE68-01(48591DE3C19B)	0.002	-1.289	0.099	-9.644	14.587	-138.367	-75.58	42.11	-68.68	-70.560	-26.460	-14.406	0.69498	-0.44287	0.45450	-0.33786	31.1	13111	100
2025-3-27 18:35:31.196	WT901BLE68-01(48591DE3C19B)	-0.049	-1.289	0.099	-9.644	14.587	-138.367	-76.28	40.56	-69.61	-70.560	-26.460	-14.406	0.69498	-0.44287	0.45450	-0.33786	31.1	13111	100
2025-3-27 18:35:31.196	WT901BLE68-01(48591DE3C19B)	-0.049	-1.253	0.083	-8.179	13.245	-156.067	-76.93	38.84	-70.53	-70.560	-26.460	-14.406	0.69498	-0.44287	0.45450	-0.33786	31.1	13111	100
2025-3-27 18:35:31.196	WT901BLE68-01(48591DE3C19B)	-0.135	-1.253	0.083	-8.179	13.245	-156.067	-77.54	37.12	-71.39	-70.560	-26.460	-14.406	0.69498	-0.44287	0.45450	-0.33786	31.1	13111	100
2025-3-27 18:35:31.196	WT901BLE68-01(48591DE3C19B)	-0.135	-1.188	0.107	-8.484	14.343	-174.744	-78.12	35.23	-72.27	-70.560	-26.460	-14.406	0.70682	-0.35101	0.54196	-0.28876	31.1	13111	100
2025-3-27 18:35:31.226	WT901BLE68-01(48591DE3C19B)	-0.159	-1.188	0.107	-8.484	14.343	-174.744	-78.67	33.35	-73.11	-70.560	-26.460	-14.406	0.70682	-0.35101	0.54196	-0.28876	31.1	13111	100
2025-3-27 18:35:31.227	WT901BLE68-01(48591DE3C19B)	-0.159	-1.101	0.134	-11.108	13.367	-193.481	-79.20	31.30	-73.93	-70.560	-26.460	-14.406	0.70682	-0.35101	0.54196	-0.28876	31.1	13111	100
2025-3-27 18:35:31.227	WT901BLE68-01(48591DE3C19B)	-0.156	-1.101	0.134	-11.108	13.367	-193.481	-79.69	29.25	-74.70	-70.560	-26.460	-14.406	0.70682	-0.35101	0.54196	-0.28876	31.1	13111	100
2025-3-27 18:35:31.227	WT901BLE68-01(48591DE3C19B)	-0.156	-1.021	0.164	-15.137	19.836	-210.083	-80.22	27.06	-75.54	-70.560	-26.460	-14.406	0.70682	-0.35101	0.54196	-0.28876	31.1	13111	100
2025-3-27 18:35:31.290	WT901BLE68-01(48591DE3C19B)	-0.199	-1.021	0.164	-15.137	19.836	-210.083	-80.71	24.89	-76.34	-70.560	-26.460	-14.406	0.70682	-0.35101	0.54196	-0.28876	31.1	13111	100
2025-3-27 18:35:31.290	WT901BLE68-01(48591DE3C19B)	-0.199	-0.997	0.189	-19.104	34.363	-223.877	-81.25	22.61	-77.28	-70.560	-26.460	-14.406	0.70682	-0.35101	0.54196	-0.28876	31.1	13111	100
2025-3-27 18:35:31.290	WT901BLE68-01(48591DE3C19B)	-0.341	-0.997	0.189	-19.104	34.363	-223.877	-81.75	20.34	-78.17	-70.560	-26.460	-14.406	0.70682	-0.35101	0.54196	-0.28876	31.1	13111	100
2025-3-27 18:35:31.290	WT901BLE68-01(48591DE3C19B)	-0.563	-1.028	0.247	-16.541	57.861	-231.445	-82.26	18.04	-79.29	-70.560	-26.460	-14.406	0.70682	-0.35101	0.54196	-0.28876	31.1	13111	100
2025-3-27 18:35:31.314	WT901BLE68-01(48591DE3C19B)	-0.563	-1.063	0.287	-6.226	80.261	-228.333	-82.69	15.78	-80.48	-70.560	-26.460	-14.406	0.70682	-0.35101	0.54196	-0.28876	31.1	13111	100
2025-3-27 18:35:31.314	WT901BLE68-01(48591DE3C19B)	-0.653	-1.063	0.287	-6.226	80.261	-228.333	-83.04	13.57	-81.75	-70.560	-26.460	-14.406	0.70682	-0.35101	0.54196	-0.28876	31.1	13111	100
2025-3-27 18:35:31.314	WT901BLE68-01(48591DE3C19B)	-0.653	-0.988	0.228	4.883	92.529	-219.360	-83.29	11.44	-83.06	-70.560	-26.460	-14.406	0.70682	-0.35101	0.54196	-0.28876	31.1	13111	100
2025-3-27 18:35:31.314	WT901BLE68-01(48591DE3C19B)	-0.535	-0.988	0.228	4.883	92.529	-219.360	-83.44	9.37	-84.39	-70.560	-26.460	-14.406	0.70682	-0.35101	0.54196	-0.28876	31.1	13111	100
2025-3-27 18:35:31.344	WT901BLE68-01(48591DE3C19B)	-0.535	-0.928	0.120	11.108	101.746	-210.876	-83.51	7.37	-85.75	-70.560	-26.460	-14.406	0.70682	-0.35101	0.54196	-0.28876	31.1	13111	100
2025-3-27 18:35:31.344	WT901BLE68-01(48591DE3C19B)	-0.504	-0.928	0.120	11.108	101.746	-210.876	-83.51	5.44	-87.15	-70.560	-26.460	-14.406	0.70682	-0.35101	0.54196	-0.28876	31.1	13111	100
2025-3-27 18:35:31.345	WT901BLE68-01(48591DE3C19B)	-0.504	-0.949	0.034	14.099	96.375	-200.562	-83.46	3.58	-88.50	-70.560	-26.460	-14.406	0.70682	-0.35101	0.54196	-0.28876	31.1	13111	100
2025-3-27 18:35:31.345	WT901BLE68-01(48591DE3C19B)	-0.591	-0.949	0.034	14.099	96.375	-200.562	-83.34	1.79	-89.81	-70.560	-26.460	-14.406	0.70682	-0.35101	0.54196	-0.28876	31.1	13111	100
2025-3-27 18:35:31.405	WT901BLE68-01(48591DE3C19B)	-0.591	-1.006	-0.002	14.893	65.674	-192.139	-83.19	0.03	-90.96	-70.560	-26.460	-14.406	0.70682	-0.35101	0.54196	-0.28876	31.1	13111	100
2025-3-27 18:35:31.405	WT901BLE68-01(48591DE3C19B)	-0.639	-1.006	-0.002	14.893	65.674	-192.139	-83.01	-1.66	-91.95	-70.560	-26.460	-14.406	0.70682	-0.35101	0.54196	-0.28876	31.1	13111	100
2025-3-27 18:35:31.406	WT901BLE68-01(48591DE3C19B)	-0.639	-1.040	0.063	14.893	27.161	-186.768	-82.81	-3.35	-92.75	-70.560	-26.460	-14.406	0.70682	-0.35101	0.54196	-0.28876	31.1	13111	100
2025-3-27 18:35:31.406	WT901BLE68-01(48591DE3C19B)	-0.686	-1.040	0.063	14.893	27.161	-186.768	-82.61	-5.01	-93.36	-70.560	-26.460	-14.406	0.70682	-0.35101	0.54196	-0.28876	31.1	13111	100
2025-3-27 18:35:31.437	WT901BLE68-01(48591DE3C19B)	-0.686	-1.100	0.154	13.855	2.075	-180.237	-82.41	-6.64	-93.85	-60.564	-33.222	-13.328	0.70682	-0.35101	0.54196	-0.28876	31.1	13111	100
2025-3-27 18:35:31.437	WT901BLE68-01(48591DE3C19B)	-0.799	-1.100	0.154	13.855	2.075	-180.237	-82.22	-8.23	-94.22	-60.564	-33.222	-13.328	0.70682	-0.35101	0.54196	-0.28876	31.1	13111	100
2025-3-27 18:35:31.437	WT901BLE68-01(48591DE3C19B)	-0.799	-1.204	0.226	14.709	-5.615	-176.697	-82.02	-9.80	-94.55	-60.564	-33.222	-13.328	0.70682	-0.35101	0.54196	-0.28876	31.1	13111	100
2025-3-27 18:35:31.437	WT901BLE68-01(48591DE3C19B)	-0.927	-1.204	0.226	14.709	-5.615	-176.697	-81.80	-11.34	-94.85	-60.564	-33.222	-13.328	0.70682	-0.35101	0.54196	-0.28876	31.1	13111	100
2025-3-27 18:35:31.494	WT901BLE68-01(48591DE3C19B)	-0.927	-1.298	0.267	15.503	-7.874	-174.500	-81.58	-12.86	-95.15	-60.564	-33.222	-13.328	0.70682	-0.35101	0.54196	-0.28876	31.1	13111	100
2025-3-27 18:35:31.494	WT901BLE68-01(48591DE3C19B)	-0.960	-1.298	0.267	15.503	-7.874	-174.500	-81.34	-14.35	-95.45	-60.564	-33.222	-13.328	0.70682	-0.35101	0.54196	-0.28876	31.1	13111	100
2025-3-27 18:35:31.495	WT901BLE68-01(48591DE3C19B)	-0.960	-1.343	0.285	11.963	-6.592	-165.100	-81.11	-15.79	-95.77	-60.564	-33.222	-13.328	0.70682	-0.35101	0.54196	-0.28876	31.1	13111	100
2025-3-27 18:35:31.495	WT901BLE68-01(48591DE3C19B)	-0.986	-1.343	0.285	11.963	-6.592	-165.100	-80.89	-17.16	-96.10	-60.564	-33.222	-13.328	0.70682	-0.35101	0.54196	-0.28876	31.1	13111	100
2025-3-27 18:35:31.555	WT901BLE68-01(48591DE3C19B)	-0.986	-1.309	0.299	13.428	-4.944	-145.264	-80.65	-18.42	-96.43	-60.564	-33.222	-13.328	0.70682	-0.35101	0.54196	-0.28876	31.1	13111	100
2025-3-27 18:35:31.555	WT901BLE68-01(48591DE3C19B)	-0.937	-1.309	0.299	13.428	-4.944	-145.264	-80.39	-19.58	-96.76	-60.564	-33.222	-13.328	0.70682	-0.35101	0.54196	-0.28876	31.1	13111	100
2025-3-27 18:35:31.555	WT901BLE68-01(48591DE3C19B)	-0.937	-1.196	0.311	6.042	1.709	-114.746	-80.16	-20.57	-97.12	-60.564	-33.222	-13.328	0.70682	-0.35101	0.54196	-0.28876	31.1	13111	100
2025-3-27 18:35:31.555	WT901BLE68-01(48591DE3C19B)	-0.875	-1.196	0.311	6.042	1.709	-114.746	-79.95	-21.39	-97.49	-60.564	-33.222	-13.328	0.70682	-0.35101	0.54196	-0.28876	31.1	13111	100
2025-3-27 18:35:31.556	WT901BLE68-01(48591DE3C19B)	-0.875	-1.116	0.341	-4.150	13.123	-73.242	-79.77	-21.99	-97.90	-60.564	-33.222	-13.328	0.70682	-0.35101	0.54196	-0.28876	31.1	13111	100
2025-3-27 18:35:31.556	WT901BLE68-01(48591DE3C19B)	-0.908	-1.116	0.341	-4.150	13.123	-73.242	-79.63	-22.38	-98.34	-60.564	-33.222	-13.328	0.70682	-0.35101	0.54196	-0.28876	31.1	13111	100
2025-3-27 18:35:31.556	WT901BLE68-01(48591DE3C19B)	-0.908	-1.034	0.390	-8.972	2.930	-26.489	-79.54	-22.54	-98.68	-60.564	-33.222	-13.328	0.70682	-0.35101	0.54196	-0.28876	31.1	13111	100
2025-3-27 18:35:31.556	WT901BLE68-01(48591DE3C19B)	-0.909	-1.034	0.390	-8.972	2.930	-26.489	-79.50	-22.48	-98.94	-60.564	-33.222	-13.328	0.70682	-0.35101	0.54196	-0.28876	31.1	13111	100
2025-3-27 18:35:31.589	WT901BLE68-01(48591DE3C19B)	-0.909	-0.929	0.431	-8.789	-26.367	25.574	-79.53	-22.19	-99.00	-60.564	-33.222	-13.328	0.70682	-0.35101	0.54196	-0.28876	31.1	13111	100
2025-3-27 18:35:31.589	WT901BLE68-01(48591DE3C19B)	-0.803	-0.929	0.431	-8.789	-26.367	25.574	-79.63	-21.68	-98.87	-60.564	-33.222	-13.328	0.70682	-0.35101	0.54196	-0.28876	31.1	13111	100
2025-3-27 18:35:31.589	WT901BLE68-01(48591DE3C19B)	-0.803	-0.911	0.363	-8.362	-42.725	79.712	-79.76	-20.91	-98.61	-60.564	-33.222	-13.328	0.70682	-0.35101	0.54196	-0.28876	31.1	13111	100
2025-3-27 18:35:31.590	WT901BLE68-01(48591DE3C19B)	-0.708	-0.911	0.363	-8.362	-42.725	79.712	-79.93	-19.90	-98.22	-60.564	-33.222	-13.328	0.70682	-0.35101	0.54196	-0.28876	31.1	13111	100
2025-3-27 18:35:31.645	WT901BLE68-01(48591DE3C19B)	-0.708	-0.985	0.257	-4.395	-39.978	130.798	-80.06	-18.63	-97.82	-60.564	-33.222	-13.328	0.70682	-0.35101	0.54196	-0.28876	31.1	13111	100
2025-3-27 18:35:31.645	WT901BLE68-01(48591DE3C19B)	-0.719	-0.985	0.257	-4.395	-39.978	130.798	-80.18	-17.13	-97.39	-60.564	-33.222	-13.328	0.43182	-0.50351	0.40625	-0.62839	31.1	13111	100
2025-3-27 18:35:31.645	WT901BLE68-01(48591DE3C19B)	-0.719	-1.074	0.219	-0.305	-34.546	170.471	-80.26	-15.42	-96.96	-60.564	-33.222	-13.328	0.43182	-0.50351	0.40625	-0.62839	31.1	13111	100
2025-3-27 18:35:31.645	WT901BLE68-01(48591DE3C19B)	-0.708	-1.074	0.219	-0.305	-34.546	170.471	-80.30	-13.54	-96.53	-60.564	-33.222	-13.328	0.43182	-0.50351	0.40625	-0.62839	31.1	13111	100
2025-3-27 18:35:31.673	WT901BLE68-01(48591DE3C19B)	-0.708	-1.176	0.206	1.526	-39.673	198.120	-80.33	-11.52	-96.05	-60.564	-33.222	-13.328	0.43182	-0.50351	0.40625	-0.62839	31.1	13111	100
2025-3-27 18:35:31.674	WT901BLE68-01(48591DE3C19B)	-0.644	-1.176	0.206	1.526	-39.673	198.120	-80.34	-9.39	-95.53	-60.564	-33.222	-13.328	0.43182	-0.50351	0.40625	-0.62839	31.1	13111	100
2025-3-27 18:35:31.674	WT901BLE68-01(48591DE3C19B)	-0.644	-1.277	0.188	4.883	-49.500	218.933	-80.33	-7.19	-94.94	-60.564	-33.222	-13.328	0.43182	-0.50351	0.40625	-0.62839	31.1	13111	100
2025-3-27 18:35:31.674	WT901BLE68-01(48591DE3C19B)	-0.575	-1.277	0.188	4.883	-49.500	218.933	-80.28	-4.89	-94.28	-60.564	-33.222	-13.328	0.43182	-0.50351	0.40625	-0.62839	31.1	13111	100
2025-3-27 18:35:31.705	WT901BLE68-01(48591DE3C19B)	-0.575	-1.349	0.174	9.888	-60.059	233.459	-80.19	-2.56	-93.55	-60.564	-33.222	-13.328	0.43182	-0.50351	0.40625	-0.62839	31.1	13111	100
2025-3-27 18:35:31.705	WT901BLE68-01(48591DE3C19B)	-0.500	-1.349	0.174	9.888	-60.059	233.459	-80.05	-0.18	-92.76	-60.564	-33.222	-13.328	0.43182	-0.50351	0.40625	-0.62839	31.1	13111	100
2025-3-27 18:35:31.705	WT901BLE68-01(48591DE3C19B)	-0.500	-1.388	0.152	15.381	-69.153	242.859	-79.84	2.21	-91.90	-60.564	-33.222	-13.328	0.43182	-0.50351	0.40625	-0.62839	31.1	13111	100
2025-3-27 18:35:31.705	WT901BLE68-01(48591DE3C19B)	-0.430	-1.388	0.152	15.381	-69.153	242.859	-79.58	4.63	-90.98	-60.564	-33.222	-13.328	0.43182	-0.50351	0.40625	-0.62839	31.1	13111	100
2025-3-27 18:35:31.767	WT901BLE68-01(48591DE3C19B)	-0.430	-1.380	0.135	22.217	-74.402	249.695	-79.23	7.04	-90.01	-60.564	-33.222	-13.328	0.43182	-0.50351	0.40625	-0.62839	31.1	13111	100
2025-3-27 18:35:31.767	WT901BLE68-01(48591DE3C19B)	-0.358	-1.380	0.135	22.217	-74.402	249.695	-78.81	9.46	-88.97	-60.564	-33.222	-13.328	0.43182	-0.50351	0.40625	-0.62839	31.1	13111	100
2025-3-27 18:35:31.767	WT901BLE68-01(48591DE3C19B)	-0.358	-1.338	0.118	28.809	-74.707	254.456	-78.28	11.89	-87.91	-60.564	-33.222	-13.328	0.43182	-0.50351	0.40625	-0.62839	31.1	13111	100
2025-3-27 18:35:31.767	WT901BLE68-01(48591DE3C19B)	-0.296	-1.338	0.118	28.809	-74.707	254.456	-77.69	14.30	-86.81	-60.564	-33.222	-13.328	0.43182	-0.50351	0.40625	-0.62839	31.1	13111	100
2025-3-27 18:35:31.796	WT901BLE68-01(48591DE3C19B)	-0.296	-1.275	0.103	33.997	-68.726	257.019	-77.02	16.71	-85.73	-60.564	-33.222	-13.328	0.43182	-0.50351	0.40625	-0.62839	31.1	13111	100
2025-3-27 18:35:31.796	WT901BLE68-01(48591DE3C19B)	-0.258	-1.275	0.103	33.997	-68.726	257.019	-76.29	19.09	-84.60	-60.564	-33.222	-13.328	0.43182	-0.50351	0.40625	-0.62839	31.1	13111	100
2025-3-27 18:35:31.796	WT901BLE68-01(48591DE3C19B)	-0.258	-1.212	0.106	37.109	-59.814	258.362	-75.51	21.47	-83.51	-60.564	-33.222	-13.328	0.43182	-0.50351	0.40625	-0.62839	31.1	13111	100
2025-3-27 18:35:31.797	WT901BLE68-01(48591DE3C19B)	-0.245	-1.212	0.106	37.109	-59.814	258.362	-74.67	23.81	-82.38	-67.130	-40.082	-21.168	0.43182	-0.50351	0.40625	-0.62839	31.1	13111	100
2025-3-27 18:35:31.826	WT901BLE68-01(48591DE3C19B)	-0.245	-1.197	0.134	40.039	-51.941	257.935	-73.77	26.14	-81.27	-67.130	-40.082	-21.168	0.43182	-0.50351	0.40625	-0.62839	31.1	13111	100
2025-3-27 18:35:31.827	WT901BLE68-01(48591DE3C19B)	-0.248	-1.197	0.134	40.039	-51.941	257.935	-72.80	28.43	-80.11	-67.130	-40.082	-21.168	0.43182	-0.50351	0.40625	-0.62839	31.1	13111	100
2025-3-27 18:35:31.827	WT901BLE68-01(48591DE3C19B)	-0.248	-1.251	0.155	43.335	-47.607	254.822	-71.76	30.66	-78.93	-67.130	-40.082	-21.168	0.43182	-0.50351	0.40625	-0.62839	31.1	13111	100
2025-3-27 18:35:31.827	WT901BLE68-01(48591DE3C19B)	-0.207	-1.251	0.155	43.335	-47.607	254.822	-70.64	32.87	-77.68	-67.130	-40.082	-21.168	0.43182	-0.50351	0.40625	-0.62839	31.1	13111	100
2025-3-27 18:35:31.915	WT901BLE68-01(48591DE3C19B)	-0.207	-1.346	0.119	46.692	-43.152	248.108	-69.46	34.97	-76.44	-67.130	-40.082	-21.168	0.43182	-0.50351	0.40625	-0.62839	31.1	13111	100
2025-3-27 18:35:31.915	WT901BLE68-01(48591DE3C19B)	-0.200	-1.346	0.119	46.692	-43.152	248.108	-68.19	37.05	-75.11	-67.130	-40.082	-21.168	0.43182	-0.50351	0.40625	-0.62839	31.1	13111	100
2025-3-27 18:35:31.915	WT901BLE68-01(48591DE3C19B)	-0.200	-1.477	0.102	48.340	-39.612	237.854	-66.86	38.99	-73.78	-67.130	-40.082	-21.168	0.43182	-0.50351	0.40625	-0.62839	31.1	13111	100
2025-3-27 18:35:31.915	WT901BLE68-01(48591DE3C19B)	-0.236	-1.477	0.102	48.340	-39.612	237.854	-65.46	40.90	-72.36	-67.130	-40.082	-21.168	0.43182	-0.50351	0.40625	-0.62839	31.1	13111	100
2025-3-27 18:35:31.916	WT901BLE68-01(48591DE3C19B)	-0.236	-1.709	0.077	45.288	-37.292	222.534	-64.07	42.63	-70.96	-67.130	-40.082	-21.168	0.43182	-0.50351	0.40625	-0.62839	31.1	13111	100
2025-3-27 18:35:31.916	WT901BLE68-01(48591DE3C19B)	-0.149	-1.709	0.077	45.288	-37.292	222.534	-62.58	44.32	-69.46	-67.130	-40.082	-21.168	0.43182	-0.50351	0.40625	-0.62839	31.1	13111	100
2025-3-27 18:35:31.917	WT901BLE68-01(48591DE3C19B)	-0.149	-2.041	0.006	41.565	-27.405	199.585	-61.24	45.82	-68.14	-67.130	-40.082	-21.168	0.43182	-0.50351	0.40625	-0.62839	31.1	13111	100
2025-3-27 18:35:31.917	WT901BLE68-01(48591DE3C19B)	-0.034	-2.041	0.006	41.565	-27.405	199.585	-59.83	47.28	-66.75	-67.130	-40.082	-21.168	0.43182	-0.50351	0.40625	-0.62839	31.1	13111	100
2025-3-27 18:35:31.946	WT901BLE68-01(48591DE3C19B)	-0.034	-2.214	-0.061	42.969	-6.531	176.025	-58.66	48.61	-65.72	-67.130	-40.082	-21.168	0.43182	-0.50351	0.40625	-0.62839	31.1	13111	100
2025-3-27 18:35:31.946	WT901BLE68-01(48591DE3C19B)	0.070	-2.214	-0.061	42.969	-6.531	176.025	-57.44	49.91	-64.63	-67.130	-40.082	-21.168	0.43182	-0.50351	0.40625	-0.62839	31.1	13111	100
2025-3-27 18:35:31.947	WT901BLE68-01(48591DE3C19B)	0.070	-2.120	0.002	32.227	12.390	146.240	-56.66	51.03	-63.98	-67.130	-40.082	-21.168	0.43182	-0.50351	0.40625	-0.62839	31.1	13111	100
2025-3-27 18:35:31.947	WT901BLE68-01(48591DE3C19B)	0.178	-2.120	0.002	32.227	12.390	146.240	-55.84	52.14	-63.30	-67.130	-40.082	-21.168	0.43182	-0.50351	0.40625	-0.62839	31.1	13111	100
2025-3-27 18:35:32.5	WT901BLE68-01(48591DE3C19B)	0.178	-2.046	0.125	21.240	14.709	112.732	-55.38	52.97	-62.94	-67.130	-40.082	-21.168	0.43182	-0.50351	0.40625	-0.62839	31.1	13111	100
2025-3-27 18:35:32.5	WT901BLE68-01(48591DE3C19B)	0.275	-2.046	0.125	21.240	14.709	112.732	-54.90	53.79	-62.55	-67.130	-40.082	-21.168	0.43182	-0.50351	0.40625	-0.62839	31.1	13111	100
2025-3-27 18:35:32.5	WT901BLE68-01(48591DE3C19B)	0.275	-1.698	0.260	13.000	-2.380	79.834	-54.56	54.22	-62.24	-67.130	-40.082	-21.168	0.43182	-0.50351	0.40625	-0.62839	31.1	13111	100
2025-3-27 18:35:32.5	WT901BLE68-01(48591DE3C19B)	0.470	-1.698	0.260	13.000	-2.380	79.834	-54.22	54.65	-61.94	-67.130	-40.082	-21.168	0.43182	-0.50351	0.40625	-0.62839	31.1	13111	100
2025-3-27 18:35:32.37	WT901BLE68-01(48591DE3C19B)	0.470	-1.309	0.219	9.705	-0.549	37.781	-54.27	54.74	-62.07	-67.130	-40.082	-21.168	0.78522	-0.13608	0.55939	-0.22778	31.1	13111	100
2025-3-27 18:35:32.37	WT901BLE68-01(48591DE3C19B)	0.586	-1.309	0.219	9.705	-0.549	37.781	-54.33	54.82	-62.22	-67.130	-40.082	-21.168	0.78522	-0.13608	0.55939	-0.22778	31.1	13111	100
2025-3-27 18:35:32.37	WT901BLE68-01(48591DE3C19B)	0.586	-0.932	0.111	-0.732	27.222	-6.409	-55.18	54.69	-63.20	-67.130	-40.082	-21.168	0.78522	-0.13608	0.55939	-0.22778	31.1	13111	100
2025-3-27 18:35:32.37	WT901BLE68-01(48591DE3C19B)	0.430	-0.932	0.111	-0.732	27.222	-6.409	-56.02	54.54	-64.18	-67.130	-40.082	-21.168	0.78522	-0.13608	0.55939	-0.22778	31.1	13111	100
2025-3-27 18:35:32.67	WT901BLE68-01(48591DE3C19B)	0.430	-0.794	0.052	-19.897	65.308	-54.443	-57.85	54.18	-66.14	-67.130	-40.082	-21.168	0.78522	-0.13608	0.55939	-0.22778	31.1	13111	100
2025-3-27 18:35:32.67	WT901BLE68-01(48591DE3C19B)	0.222	-0.794	0.052	-19.897	65.308	-54.443	-59.64	53.78	-68.05	-67.130	-40.082	-21.168	0.78522	-0.13608	0.55939	-0.22778	31.1	13111	100
2025-3-27 18:35:32.67	WT901BLE68-01(48591DE3C19B)	0.222	-0.899	0.061	-35.767	90.332	-104.370	-62.14	53.02	-70.68	-67.130	-40.082	-21.168	0.78522	-0.13608	0.55939	-0.22778	31.1	13111	100
2025-3-27 18:35:32.67	WT901BLE68-01(48591DE3C19B)	0.066	-0.899	0.061	-35.767	90.332	-104.370	-64.54	52.20	-73.20	-67.130	-40.082	-21.168	0.78522	-0.13608	0.55939	-0.22778	31.1	13111	100
2025-3-27 18:35:32.125	WT901BLE68-01(48591DE3C19B)	0.066	-0.983	0.099	-43.030	74.829	-142.273	-66.89	50.92	-75.62	-67.130	-40.082	-21.168	0.78522	-0.13608	0.55939	-0.22778	31.1	13111	100
2025-3-27 18:35:32.125	WT901BLE68-01(48591DE3C19B)	-0.031	-0.983	0.099	-43.030	74.829	-142.273	-69.08	49.59	-77.88	-67.130	-40.082	-21.168	0.78522	-0.13608	0.55939	-0.22778	31.1	13111	100
2025-3-27 18:35:32.125	WT901BLE68-01(48591DE3C19B)	-0.031	-0.997	0.092	-42.297	43.274	-168.579	-70.87	47.87	-79.68	-67.130	-40.082	-21.168	0.78522	-0.13608	0.55939	-0.22778	31.1	13111	100
2025-3-27 18:35:32.125	WT901BLE68-01(48591DE3C19B)	-0.074	-0.997	0.092	-42.297	43.274	-168.579	-72.52	46.12	-81.34	-67.130	-40.082	-21.168	0.78522	-0.13608	0.55939	-0.22778	31.1	13111	100
2025-3-27 18:35:32.154	WT901BLE68-01(48591DE3C19B)	-0.074	-0.977	0.065	-33.447	18.494	-187.439	-73.77	44.11	-82.62	-67.130	-40.082	-21.168	0.78522	-0.13608	0.55939	-0.22778	31.1	13111	100
2025-3-27 18:35:32.154	WT901BLE68-01(48591DE3C19B)	-0.080	-0.977	0.065	-33.447	18.494	-187.439	-74.92	42.10	-83.80	-67.130	-40.082	-21.168	0.78522	-0.13608	0.55939	-0.22778	31.1	13111	100
2025-3-27 18:35:32.154	WT901BLE68-01(48591DE3C19B)	-0.080	-0.980	0.094	-31.372	-2.136	-197.693	-75.79	39.94	-84.66	-67.130	-40.082	-21.168	0.78522	-0.13608	0.55939	-0.22778	31.1	13111	100
2025-3-27 18:35:32.154	WT901BLE68-01(48591DE3C19B)	-0.075	-0.980	0.094	-31.372	-2.136	-197.693	-76.61	37.79	-85.44	-67.130	-40.082	-21.168	0.78522	-0.13608	0.55939	-0.22778	31.1	13111	100
2025-3-27 18:35:32.188	WT901BLE68-01(48591DE3C19B)	-0.075	-1.044	0.107	-34.241	-15.503	-208.069	-77.31	35.51	-86.03	-67.130	-40.082	-21.168	0.78522	-0.13608	0.55939	-0.22778	31.1	13111	100
2025-3-27 18:35:32.189	WT901BLE68-01(48591DE3C19B)	-0.108	-1.044	0.107	-34.241	-15.503	-208.069	-77.95	33.24	-86.58	-67.130	-40.082	-21.168	0.78522	-0.13608	0.55939	-0.22778	31.1	13111	100
2025-3-27 18:35:32.189	WT901BLE68-01(48591DE3C19B)	-0.146	-1.105	0.115	-35.217	-18.005	-217.102	-78.56	30.90	-87.07	-67.130	-40.082	-21.168	0.78522	-0.13608	0.55939	-0.22778	31.1	13111	100
2025-3-27 18:35:32.189	WT901BLE68-01(48591DE3C19B)	-0.146	-1.137	0.133	-34.302	-9.705	-226.685	-79.16	28.53	-87.57	-67.130	-40.082	-21.168	0.78522	-0.13608	0.55939	-0.22778	31.1	13111	100
2025-3-27 18:35:32.245	WT901BLE68-01(48591DE3C19B)	-0.183	-1.137	0.133	-34.302	-9.705	-226.685	-79.74	26.14	-88.10	-67.130	-40.082	-21.168	0.78522	-0.13608	0.55939	-0.22778	31.1	13111	100
2025-3-27 18:35:32.245	WT901BLE68-01(48591DE3C19B)	-0.183	-1.162	0.162	-34.058	8.423	-235.779	-80.33	23.72	-88.69	-76.538	-43.610	-27.048	0.78522	-0.13608	0.55939	-0.22778	31.1	13111	100
2025-3-27 18:35:32.245	WT901BLE68-01(48591DE3C19B)	-0.249	-1.162	0.162	-34.058	8.423	-235.779	-80.91	21.30	-89.35	-76.538	-43.610	-27.048	0.78522	-0.13608	0.55939	-0.22778	31.1	13111	100
2025-3-27 18:35:32.245	WT901BLE68-01(48591DE3C19B)	-0.249	-1.194	0.197	-33.203	30.640	-244.141	-81.49	18.86	-90.09	-76.538	-43.610	-27.048	0.78522	-0.13608	0.55939	-0.22778	31.1	13111	100
2025-3-27 18:35:32.274	WT901BLE68-01(48591DE3C19B)	-0.379	-1.194	0.197	-33.203	30.640	-244.141	-82.05	16.41	-90.92	-76.538	-43.610	-27.048	0.78522	-0.13608	0.55939	-0.22778	31.1	13111	100
2025-3-27 18:35:32.274	WT901BLE68-01(48591DE3C19B)	-0.379	-1.234	0.243	-31.250	45.288	-250.427	-82.58	13.95	-91.79	-76.538	-43.610	-27.048	0.78522	-0.13608	0.55939	-0.22778	31.1	13111	100
2025-3-27 18:35:32.274	WT901BLE68-01(48591DE3C19B)	-0.522	-1.234	0.243	-31.250	45.288	-250.427	-83.08	11.48	-92.71	-76.538	-43.610	-27.048	0.78522	-0.13608	0.55939	-0.22778	31.1	13111	100
2025-3-27 18:35:32.274	WT901BLE68-01(48591DE3C19B)	-0.522	-1.288	0.285	-27.649	44.861	-251.038	-83.50	9.03	-93.60	-76.538	-43.610	-27.048	0.78522	-0.13608	0.55939	-0.22778	31.1	13111	100
2025-3-27 18:35:32.305	WT901BLE68-01(48591DE3C19B)	-0.649	-1.288	0.285	-27.649	44.861	-251.038	-83.86	6.59	-94.47	-76.538	-43.610	-27.048	0.78522	-0.13608	0.55939	-0.22778	31.1	13111	100
2025-3-27 18:35:32.305	WT901BLE68-01(48591DE3C19B)	-0.649	-1.320	0.310	-23.926	27.039	-247.375	-84.16	4.18	-95.22	-76.538	-43.610	-27.048	0.78522	-0.13608	0.55939	-0.22778	31.1	13111	100
2025-3-27 18:35:32.305	WT901BLE68-01(48591DE3C19B)	-0.683	-1.320	0.310	-23.926	27.039	-247.375	-84.39	1.80	-95.88	-76.538	-43.610	-27.048	0.78522	-0.13608	0.55939	-0.22778	31.1	13111	100
2025-3-27 18:35:32.305	WT901BLE68-01(48591DE3C19B)	-0.683	-1.333	0.311	-20.325	7.751	-238.770	-84.58	-0.52	-96.43	-76.538	-43.610	-27.048	0.78522	-0.13608	0.55939	-0.22778	31.1	13111	100
2025-3-27 18:35:32.368	WT901BLE68-01(48591DE3C19B)	-0.678	-1.333	0.311	-20.325	7.751	-238.770	-84.72	-2.80	-96.88	-76.538	-43.610	-27.048	0.78522	-0.13608	0.55939	-0.22778	31.1	13111	100
2025-3-27 18:35:32.368	WT901BLE68-01(48591DE3C19B)	-0.678	-1.343	0.291	-17.334	-7.019	-225.281	-84.84	-4.99	-97.25	-76.538	-43.610	-27.048	0.78522	-0.13608	0.55939	-0.22778	31.1	13111	100
2025-3-27 18:35:32.368	WT901BLE68-01(48591DE3C19B)	-0.661	-1.343	0.291	-17.334	-7.019	-225.281	-84.94	-7.11	-97.54	-76.538	-43.610	-27.048	0.78522	-0.13608	0.55939	-0.22778	31.1	13111	100
2025-3-27 18:35:32.369	WT901BLE68-01(48591DE3C19B)	-0.661	-1.388	0.291	-18.127	-15.869	-208.374	-85.03	-9.13	-97.79	-76.538	-43.610	-27.048	0.78522	-0.13608	0.55939	-0.22778	31.1	13111	100
2025-3-27 18:35:32.396	WT901BLE68-01(48591DE3C19B)	-0.720	-1.388	0.291	-18.127	-15.869	-208.374	-85.13	-11.06	-97.98	-76.538	-43.610	-27.048	0.78522	-0.13608	0.55939	-0.22778	31.1	13111	100
2025-3-27 18:35:32.396	WT901BLE68-01(48591DE3C19B)	-0.720	-1.465	0.344	-13.184	-11.658	-188.965	-85.20	-12.87	-98.18	-76.538	-43.610	-27.048	0.78522	-0.13608	0.55939	-0.22778	31.1	13111	100
2025-3-27 18:35:32.396	WT901BLE68-01(48591DE3C19B)	-0.841	-1.465	0.344	-13.184	-11.658	-188.965	-85.23	-14.57	-98.41	-76.538	-43.610	-27.048	0.40698	-0.51270	0.44400	-0.61176	31.1	13111	100
2025-3-27 18:35:32.397	WT901BLE68-01(48591DE3C19B)	-0.841	-1.532	0.429	-8.850	1.587	-167.175	-85.22	-16.15	-98.70	-76.538	-43.610	-27.048	0.40698	-0.51270	0.44400	-0.61176	31.1	13111	100
2025-3-27 18:35:32.454	WT901BLE68-01(48591DE3C19B)	-0.940	-1.532	0.429	-8.850	1.587	-167.175	-85.16	-17.60	-99.06	-76.538	-43.610	-27.048	0.40698	-0.51270	0.44400	-0.61176	31.1	13111	100
2025-3-27 18:35:32.454	WT901BLE68-01(48591DE3C19B)	-0.940	-1.576	0.510	-4.028	16.602	-142.029	-85.03	-18.91	-99.49	-76.538	-43.610	-27.048	0.40698	-0.51270	0.44400	-0.61176	31.1	13111	100
2025-3-27 18:35:32.454	WT901BLE68-01(48591DE3C19B)	-0.961	-1.576	0.510	-4.028	16.602	-142.029	-84.85	-20.08	-100.01	-76.538	-43.610	-27.048	0.40698	-0.51270	0.44400	-0.61176	31.1	13111	100
2025-3-27 18:35:32.454	WT901BLE68-01(48591DE3C19B)	-0.961	-1.550	0.519	0.427	35.767	-111.450	-84.59	-21.08	-100.63	-76.538	-43.610	-27.048	0.40698	-0.51270	0.44400	-0.61176	31.1	13111	100
2025-3-27 18:35:32.490	WT901BLE68-01(48591DE3C19B)	-0.892	-1.550	0.519	0.427	35.767	-111.450	-84.28	-21.90	-101.35	-76.538	-43.610	-27.048	0.40698	-0.51270	0.44400	-0.61176	31.1	13111	100
2025-3-27 18:35:32.490	WT901BLE68-01(48591DE3C19B)	-0.892	-1.368	0.455	3.662	65.430	-72.266	-83.88	-22.51	-102.22	-76.538	-43.610	-27.048	0.40698	-0.51270	0.44400	-0.61176	31.1	13111	100
2025-3-27 18:35:32.490	WT901BLE68-01(48591DE3C19B)	-0.856	-1.368	0.455	3.662	65.430	-72.266	-83.39	-22.90	-103.24	-76.538	-43.610	-27.048	0.40698	-0.51270	0.44400	-0.61176	31.1	13111	100
2025-3-27 18:35:32.490	WT901BLE68-01(48591DE3C19B)	-0.856	-1.098	0.406	-1.709	89.478	-30.640	-82.89	-23.05	-104.38	-76.538	-43.610	-27.048	0.40698	-0.51270	0.44400	-0.61176	31.1	13111	100
2025-3-27 18:35:32.514	WT901BLE68-01(48591DE3C19B)	-0.904	-1.098	0.406	-1.709	89.478	-30.640	-82.36	-22.97	-105.62	-76.538	-43.610	-27.048	0.40698	-0.51270	0.44400	-0.61176	31.1	13111	100
2025-3-27 18:35:32.514	WT901BLE68-01(48591DE3C19B)	-0.904	-0.920	0.412	-12.817	86.731	9.827	-81.92	-22.68	-106.82	-76.538	-43.610	-27.048	0.40698	-0.51270	0.44400	-0.61176	31.1	13111	100
2025-3-27 18:35:32.514	WT901BLE68-01(48591DE3C19B)	-0.928	-0.920	0.412	-12.817	86.731	9.827	-81.55	-22.19	-107.97	-76.538	-43.610	-27.048	0.40698	-0.51270	0.44400	-0.61176	31.1	13111	100
2025-3-27 18:35:32.514	WT901BLE68-01(48591DE3C19B)	-0.928	-0.814	0.418	-20.752	49.561	48.828	-81.30	-21.52	-108.91	-76.538	-43.610	-27.048	0.40698	-0.51270	0.44400	-0.61176	31.1	13111	100
2025-3-27 18:35:32.576	WT901BLE68-01(48591DE3C19B)	-0.840	-0.814	0.418	-20.752	49.561	48.828	-81.19	-20.69	-109.61	-76.538	-43.610	-27.048	0.40698	-0.51270	0.44400	-0.61176	31.1	13111	100
2025-3-27 18:35:32.576	WT901BLE68-01(48591DE3C19B)	-0.840	-0.684	0.379	-24.231	4.517	84.656	-81.19	-19.72	-110.05	-76.538	-43.610	-27.048	0.40698	-0.51270	0.44400	-0.61176	31.1	13111	100
2025-3-27 18:35:32.576	WT901BLE68-01(48591DE3C19B)	-0.756	-0.684	0.379	-24.231	4.517	84.656	-81.29	-18.61	-110.23	-76.538	-43.610	-27.048	0.40698	-0.51270	0.44400	-0.61176	31.1	13111	100
2025-3-27 18:35:32.577	WT901BLE68-01(48591DE3C19B)	-0.756	-0.662	0.299	-27.283	-34.119	118.347	-81.46	-17.36	-110.20	-76.538	-43.610	-27.048	0.40698	-0.51270	0.44400	-0.61176	31.1	13111	100
2025-3-27 18:35:32.607	WT901BLE68-01(48591DE3C19B)	-0.750	-0.662	0.299	-27.283	-34.119	118.347	-81.71	-15.99	-109.95	-76.538	-43.610	-27.048	0.40698	-0.51270	0.44400	-0.61176	31.1	13111	100
2025-3-27 18:35:32.607	WT901BLE68-01(48591DE3C19B)	-0.750	-0.776	0.215	-23.682	-66.650	144.165	-81.96	-14.50	-109.53	-76.538	-43.610	-27.048	0.40698	-0.51270	0.44400	-0.61176	31.1	13111	100
2025-3-27 18:35:32.607	WT901BLE68-01(48591DE3C19B)	-0.741	-0.776	0.215	-23.682	-66.650	144.165	-82.23	-12.92	-108.93	-76.538	-43.610	-27.048	0.40698	-0.51270	0.44400	-0.61176	31.1	13111	100
2025-3-27 18:35:32.607	WT901BLE68-01(48591DE3C19B)	-0.741	-0.891	0.151	-13.672	-93.872	162.903	-82.45	-11.27	-108.20	-54.292	-46.844	-28.224	0.40698	-0.51270	0.44400	-0.61176	31.1	13111	100
2025-3-27 18:35:32.637	WT901BLE68-01(48591DE3C19B)	-0.729	-0.891	0.151	-13.672	-93.872	162.903	-82.63	-9.54	-107.33	-54.292	-46.844	-28.224	0.40698	-0.51270	0.44400	-0.61176	31.1	13111	100
2025-3-27 18:35:32.637	WT901BLE68-01(48591DE3C19B)	-0.729	-1.017	0.125	-1.709	-116.943	174.988	-82.74	-7.77	-106.34	-54.292	-46.844	-28.224	0.40698	-0.51270	0.44400	-0.61176	31.1	13111	100
2025-3-27 18:35:32.637	WT901BLE68-01(48591DE3C19B)	-0.701	-1.017	0.125	-1.709	-116.943	174.988	-82.77	-5.97	-105.23	-54.292	-46.844	-28.224	0.40698	-0.51270	0.44400	-0.61176	31.1	13111	100
2025-3-27 18:35:32.637	WT901BLE68-01(48591DE3C19B)	-0.701	-1.201	0.130	13.794	-127.136	181.335	-82.69	-4.15	-104.06	-54.292	-46.844	-28.224	0.40698	-0.51270	0.44400	-0.61176	31.1	13111	100
2025-3-27 18:35:32.694	WT901BLE68-01(48591DE3C19B)	-0.629	-1.201	0.130	13.794	-127.136	181.335	-82.52	-2.31	-102.83	-54.292	-46.844	-28.224	0.40698	-0.51270	0.44400	-0.61176	31.1	13111	100
2025-3-27 18:35:32.695	WT901BLE68-01(48591DE3C19B)	-0.629	-1.357	0.121	32.410	-126.221	186.768	-82.12	-0.44	-101.59	-54.292	-46.844	-28.224	0.40698	-0.51270	0.44400	-0.61176	31.1	13111	100
2025-3-27 18:35:32.695	WT901BLE68-01(48591DE3C19B)	-0.507	-1.357	0.121	32.410	-126.221	186.768	-81.69	1.40	-100.32	-54.292	-46.844	-28.224	0.40698	-0.51270	0.44400	-0.61176	31.1	13111	100
2025-3-27 18:35:32.695	WT901BLE68-01(48591DE3C19B)	-0.507	-1.435	0.103	50.598	-113.281	192.688	-81.05	3.30	-99.15	-54.292	-46.844	-28.224	0.40698	-0.51270	0.44400	-0.61176	31.1	13111	100
2025-3-27 18:35:32.725	WT901BLE68-01(48591DE3C19B)	-0.388	-1.435	0.103	50.598	-113.281	192.688	-80.38	5.17	-97.94	-54.292	-46.844	-28.224	0.40698	-0.51270	0.44400	-0.61176	31.1	13111	100
2025-3-27 18:35:32.725	WT901BLE68-01(48591DE3C19B)	-0.388	-1.401	0.086	64.514	-83.923	201.538	-79.56	7.14	-96.97	-54.292	-46.844	-28.224	0.40698	-0.51270	0.44400	-0.61176	31.1	13111	100
2025-3-27 18:35:32.725	WT901BLE68-01(48591DE3C19B)	-0.351	-1.401	0.086	64.514	-83.923	201.538	-78.72	9.07	-95.95	-54.292	-46.844	-28.224	0.40698	-0.51270	0.44400	-0.61176	31.1	13111	100
2025-3-27 18:35:32.725	WT901BLE68-01(48591DE3C19B)	-0.351	-1.321	0.072	71.777	-49.622	214.233	-77.83	11.17	-95.21	-54.292	-46.844	-28.224	0.40698	-0.51270	0.44400	-0.61176	31.1	13111	100
2025-3-27 18:35:32.754	WT901BLE68-01(48591DE3C19B)	-0.326	-1.321	0.072	71.777	-49.622	214.233	-76.91	13.24	-94.43	-54.292	-46.844	-28.224	0.40698	-0.51270	0.44400	-0.61176	31.1	13111	100
2025-3-27 18:35:32.754	WT901BLE68-01(48591DE3C19B)	-0.326	-1.245	0.095	71.106	-25.391	227.844	-76.01	15.46	-93.81	-54.292	-46.844	-28.224	0.40698	-0.51270	0.44400	-0.61176	31.1	13111	100
2025-3-27 18:35:32.754	WT901BLE68-01(48591DE3C19B)	-0.303	-1.245	0.095	71.106	-25.391	227.844	-75.10	17.66	-93.14	-54.292	-46.844	-28.224	0.40698	-0.51270	0.44400	-0.61176	31.1	13111	100
2025-3-27 18:35:32.754	WT901BLE68-01(48591DE3C19B)	-0.303	-1.210	0.096	67.932	-10.437	242.188	-74.21	20.00	-92.54	-54.292	-46.844	-28.224	0.40698	-0.51270	0.44400	-0.61176	31.1	13111	100
2025-3-27 18:35:32.815	WT901BLE68-01(48591DE3C19B)	-0.239	-1.210	0.096	67.932	-10.437	242.188	-73.28	22.31	-91.88	-54.292	-46.844	-28.224	0.40698	-0.51270	0.44400	-0.61176	31.1	13111	100
2025-3-27 18:35:32.815	WT901BLE68-01(48591DE3C19B)	-0.239	-1.142	0.104	63.721	12.451	255.066	-72.44	24.78	-91.37	-54.292	-46.844	-28.224	0.40698	-0.51270	0.44400	-0.61176	31.1	13111	100
2025-3-27 18:35:32.815	WT901BLE68-01(48591DE3C19B)	-0.224	-1.142	0.104	63.721	12.451	255.066	-71.55	27.23	-90.81	-54.292	-46.844	-28.224	0.40698	-0.51270	0.44400	-0.61176	31.1	13111	100
2025-3-27 18:35:32.815	WT901BLE68-01(48591DE3C19B)	-0.224	-1.156	0.118	55.176	40.405	263.855	-70.84	29.82	-90.46	-54.292	-46.844	-28.224	0.40698	-0.51270	0.44400	-0.61176	31.1	13111	100
2025-3-27 18:35:32.844	WT901BLE68-01(48591DE3C19B)	-0.245	-1.156	0.118	55.176	40.405	263.855	-70.09	32.38	-90.07	-54.292	-46.844	-28.224	0.67255	-0.21951	0.55496	-0.43747	31.1	13111	100
2025-3-27 18:35:32.844	WT901BLE68-01(48591DE3C19B)	-0.245	-1.349	0.143	46.143	52.551	263.000	-69.47	34.96	-89.76	-54.292	-46.844	-28.224	0.67255	-0.21951	0.55496	-0.43747	31.1	13111	100
2025-3-27 18:35:32.844	WT901BLE68-01(48591DE3C19B)	-0.142	-1.349	0.143	46.143	52.551	263.000	-68.81	37.51	-89.41	-54.292	-46.844	-28.224	0.67255	-0.21951	0.55496	-0.43747	31.1	13111	100
2025-3-27 18:35:32.844	WT901BLE68-01(48591DE3C19B)	-0.142	-1.517	0.076	44.312	53.284	250.183	-68.18	39.91	-89.08	-54.292	-46.844	-28.224	0.67255	-0.21951	0.55496	-0.43747	31.1	13111	100
2025-3-27 18:35:32.875	WT901BLE68-01(48591DE3C19B)	-0.001	-1.517	0.076	44.312	53.284	250.183	-67.50	42.30	-88.70	-54.292	-46.844	-28.224	0.67255	-0.21951	0.55496	-0.43747	31.1	13111	100
2025-3-27 18:35:32.875	WT901BLE68-01(48591DE3C19B)	-0.001	-1.571	-0.006	41.382	58.777	231.384	-66.93	44.51	-88.43	-54.292	-46.844	-28.224	0.67255	-0.21951	0.55496	-0.43747	31.1	13111	100
2025-3-27 18:35:32.875	WT901BLE68-01(48591DE3C19B)	0.132	-1.571	-0.006	41.382	58.777	231.384	-66.34	46.69	-88.13	-54.292	-46.844	-28.224	0.67255	-0.21951	0.55496	-0.43747	31.1	13111	100
2025-3-27 18:35:32.875	WT901BLE68-01(48591DE3C19B)	0.132	-1.719	-0.104	29.175	55.908	196.045	-65.97	48.52	-87.97	-54.292	-46.844	-28.224	0.67255	-0.21951	0.55496	-0.43747	31.1	13111	100
2025-3-27 18:35:32.935	WT901BLE68-01(48591DE3C19B)	0.114	-1.719	-0.104	29.175	55.908	196.045	-65.58	50.32	-87.78	-54.292	-46.844	-28.224	0.67255	-0.21951	0.55496	-0.43747	31.1	13111	100
2025-3-27 18:35:32.936	WT901BLE68-01(48591DE3C19B)	0.114	-1.940	-0.091	25.635	53.162	153.748	-65.40	51.71	-87.80	-54.292	-46.844	-28.224	0.67255	-0.21951	0.55496	-0.43747	31.1	13111	100
2025-3-27 18:35:32.936	WT901BLE68-01(48591DE3C19B)	-0.032	-1.940	-0.091	25.635	53.162	153.748	-65.22	53.09	-87.82	-54.292	-46.844	-28.224	0.67255	-0.21951	0.55496	-0.43747	31.1	13111	100
2025-3-27 18:35:32.936	WT901BLE68-01(48591DE3C19B)	-0.032	-1.966	-0.018	19.836	34.912	107.178	-65.14	53.96	-87.89	-54.292	-46.844	-28.224	0.67255	-0.21951	0.55496	-0.43747	31.1	13111	100
2025-3-27 18:35:32.964	WT901BLE68-01(48591DE3C19B)	-0.021	-1.966	-0.018	19.836	34.912	107.178	-65.06	54.83	-87.96	-54.292	-46.844	-28.224	0.67255	-0.21951	0.55496	-0.43747	31.1	13111	100
2025-3-27 18:35:32.964	WT901BLE68-01(48591DE3C19B)	-0.021	-1.939	0.020	20.264	6.897	59.448	-64.90	55.13	-87.93	-54.292	-46.844	-28.224	0.67255	-0.21951	0.55496	-0.43747	31.1	13111	100
2025-3-27 18:35:32.964	WT901BLE68-01(48591DE3C19B)	0.173	-1.939	0.020	20.264	6.897	59.448	-64.74	55.44	-87.91	-54.292	-46.844	-28.224	0.67255	-0.21951	0.55496	-0.43747	31.1	13111	100
2025-3-27 18:35:32.964	WT901BLE68-01(48591DE3C19B)	0.173	-1.668	0.062	11.414	-14.832	17.822	-64.64	55.27	-87.85	-54.292	-46.844	-28.224	0.67255	-0.21951	0.55496	-0.43747	31.1	13111	100
2025-3-27 18:35:32.996	WT901BLE68-01(48591DE3C19B)	0.296	-1.668	0.062	11.414	-14.832	17.822	-64.55	55.09	-87.79	-54.292	-46.844	-28.224	0.67255	-0.21951	0.55496	-0.43747	31.1	13111	100
2025-3-27 18:35:32.996	WT901BLE68-01(48591DE3C19B)	0.296	-1.483	0.121	-6.592	-23.376	-19.836	-64.75	54.54	-87.88	-54.292	-46.844	-28.224	0.67255	-0.21951	0.55496	-0.43747	31.1	13111	100
2025-3-27 18:35:32.997	WT901BLE68-01(48591DE3C19B)	0.278	-1.483	0.121	-6.592	-23.376	-19.836	-64.95	53.98	-87.96	-54.292	-46.844	-28.224	0.67255	-0.21951	0.55496	-0.43747	31.1	13111	100
2025-3-27 18:35:32.997	WT901BLE68-01(48591DE3C19B)	0.278	-1.442	0.102	-16.785	-26.184	-54.260	-65.41	53.10	-88.24	-54.292	-46.844	-28.224	0.67255	-0.21951	0.55496	-0.43747	31.1	13111	100
2025-3-27 18:35:33.55	WT901BLE68-01(48591DE3C19B)	0.200	-1.442	0.102	-16.785	-26.184	-54.260	-65.84	52.21	-88.49	-54.292	-46.844	-28.224	0.67255	-0.21951	0.55496	-0.43747	31.1	13111	100
2025-3-27 18:35:33.55	WT901BLE68-01(48591DE3C19B)	0.200	-1.280	0.124	-25.635	-27.893	-83.069	-66.47	51.05	-88.90	-81.046	-42.924	-27.146	0.67255	-0.21951	0.55496	-0.43747	31.1	13111	100
2025-3-27 18:35:33.55	WT901BLE68-01(48591DE3C19B)	0.111	-1.280	0.124	-25.635	-27.893	-83.069	-67.07	49.90	-89.26	-81.046	-42.924	-27.146	0.67255	-0.21951	0.55496	-0.43747	31.1	13111	100
2025-3-27 18:35:33.55	WT901BLE68-01(48591DE3C19B)	0.111	-1.211	0.142	-36.865	-26.855	-112.244	-67.90	48.49	-89.79	-81.046	-42.924	-27.146	0.67255	-0.21951	0.55496	-0.43747	31.1	13111	100
2025-3-27 18:35:33.91	WT901BLE68-01(48591DE3C19B)	0.062	-1.211	0.142	-36.865	-26.855	-112.244	-68.67	47.07	-90.26	-81.046	-42.924	-27.146	0.67255	-0.21951	0.55496	-0.43747	31.1	13111	100
2025-3-27 18:35:33.91	WT901BLE68-01(48591DE3C19B)	0.062	-1.192	0.149	-41.809	-20.874	-140.137	-69.61	45.42	-90.91	-81.046	-42.924	-27.146	0.67255	-0.21951	0.55496	-0.43747	31.1	13111	100
2025-3-27 18:35:33.91	WT901BLE68-01(48591DE3C19B)	-0.043	-1.192	0.149	-41.809	-20.874	-140.137	-70.49	43.78	-91.51	-81.046	-42.924	-27.146	0.67255	-0.21951	0.55496	-0.43747	31.1	13111	100
2025-3-27 18:35:33.91	WT901BLE68-01(48591DE3C19B)	-0.043	-1.194	0.143	-43.396	-11.841	-163.513	-71.49	41.95	-92.26	-81.046	-42.924	-27.146	0.67255	-0.21951	0.55496	-0.43747	31.1	13111	100
2025-3-27 18:35:33.115	WT901BLE68-01(48591DE3C19B)	-0.124	-1.194	0.143	-43.396	-11.841	-163.513	-72.42	40.12	-92.95	-81.046	-42.924	-27.146	0.67255	-0.21951	0.55496	-0.43747	31.1	13111	100
2025-3-27 18:35:33.115	WT901BLE68-01(48591DE3C19B)	-0.124	-1.198	0.122	-37.903	1.770	-185.730	-73.39	38.12	-93.83	-81.046	-42.924	-27.146	0.67255	-0.21951	0.55496	-0.43747	31.1	13111	100
2025-3-27 18:35:33.115	WT901BLE68-01(48591DE3C19B)	-0.143	-1.198	0.122	-37.903	1.770	-185.730	-74.29	36.13	-94.65	-81.046	-42.924	-27.146	0.67255	-0.21951	0.55496	-0.43747	31.1	13111	100
2025-3-27 18:35:33.115	WT901BLE68-01(48591DE3C19B)	-0.130	-1.158	0.100	-37.720	3.418	-203.064	-75.17	33.98	-95.47	-81.046	-42.924	-27.146	0.67255	-0.21951	0.55496	-0.43747	31.1	13111	100
2025-3-27 18:35:33.175	WT901BLE68-01(48591DE3C19B)	-0.130	-1.164	0.136	-37.537	4.395	-218.140	-76.01	31.77	-96.26	-81.046	-42.924	-27.146	0.67255	-0.21951	0.55496	-0.43747	31.1	13111	100
2025-3-27 18:35:33.175	WT901BLE68-01(48591DE3C19B)	-0.123	-1.164	0.136	-37.537	4.395	-218.140	-76.80	29.49	-97.02	-81.046	-42.924	-27.146	0.67255	-0.21951	0.55496	-0.43747	31.1	13111	100
2025-3-27 18:35:33.175	WT901BLE68-01(48591DE3C19B)	-0.123	-1.187	0.177	-34.668	14.648	-232.727	-77.55	27.16	-97.81	-81.046	-42.924	-27.146	0.67255	-0.21951	0.55496	-0.43747	31.1	13111	100
2025-3-27 18:35:33.175	WT901BLE68-01(48591DE3C19B)	-0.203	-1.187	0.177	-34.668	14.648	-232.727	-78.27	24.78	-98.61	-81.046	-42.924	-27.146	0.67255	-0.21951	0.55496	-0.43747	31.1	13111	100
2025-3-27 18:35:33.205	WT901BLE68-01(48591DE3C19B)	-0.203	-1.207	0.174	-30.640	30.701	-246.582	-78.95	22.36	-99.46	-81.046	-42.924	-27.146	0.67255	-0.21951	0.55496	-0.43747	31.1	13111	100
2025-3-27 18:35:33.205	WT901BLE68-01(48591DE3C19B)	-0.258	-1.207	0.174	-30.640	30.701	-246.582	-79.60	19.89	-100.37	-81.046	-42.924	-27.146	0.67255	-0.21951	0.55496	-0.43747	31.1	13111	100
2025-3-27 18:35:33.205	WT901BLE68-01(48591DE3C19B)	-0.258	-1.257	0.166	-28.137	42.542	-261.169	-80.19	17.37	-101.31	-81.046	-42.924	-27.146	0.67255	-0.21951	0.55496	-0.43747	31.1	13111	100
2025-3-27 18:35:33.205	WT901BLE68-01(48591DE3C19B)	-0.310	-1.257	0.166	-28.137	42.542	-261.169	-80.75	14.80	-102.28	-81.046	-42.924	-27.146	0.67255	-0.21951	0.55496	-0.43747	31.1	13111	100
2025-3-27 18:35:33.235	WT901BLE68-01(48591DE3C19B)	-0.310	-1.282	0.176	-23.621	52.246	-274.841	-81.24	12.18	-103.27	-81.046	-42.924	-27.146	0.67255	-0.21951	0.55496	-0.43747	31.1	13111	100
2025-3-27 18:35:33.235	WT901BLE68-01(48591DE3C19B)	-0.387	-1.282	0.176	-23.621	52.246	-274.841	-81.67	9.51	-104.29	-81.046	-42.924	-27.146	0.67255	-0.21951	0.55496	-0.43747	31.1	13111	100
2025-3-27 18:35:33.235	WT901BLE68-01(48591DE3C19B)	-0.387	-1.271	0.215	-19.897	59.082	-284.241	-82.03	6.82	-105.33	-81.046	-42.924	-27.146	0.48779	-0.36154	0.54813	-0.57513	31.1	13111	100
2025-3-27 18:35:33.235	WT901BLE68-01(48591DE3C19B)	-0.479	-1.271	0.215	-19.897	59.082	-284.241	-82.33	4.10	-106.39	-81.046	-42.924	-27.146	0.48779	-0.36154	0.54813	-0.57513	31.1	13111	100
2025-3-27 18:35:33.294	WT901BLE68-01(48591DE3C19B)	-0.479	-1.261	0.250	-15.930	55.542	-287.659	-82.55	1.38	-107.41	-81.046	-42.924	-27.146	0.48779	-0.36154	0.54813	-0.57513	31.1	13111	100
2025-3-27 18:35:33.294	WT901BLE68-01(48591DE3C19B)	-0.530	-1.261	0.250	-15.930	55.542	-287.659	-82.70	-1.32	-108.42	-81.046	-42.924	-27.146	0.48779	-0.36154	0.54813	-0.57513	31.1	13111	100
2025-3-27 18:35:33.294	WT901BLE68-01(48591DE3C19B)	-0.530	-1.252	0.238	-10.925	45.837	-285.767	-82.78	-4.02	-109.37	-81.046	-42.924	-27.146	0.48779	-0.36154	0.54813	-0.57513	31.1	13111	100
2025-3-27 18:35:33.294	WT901BLE68-01(48591DE3C19B)	-0.571	-1.252	0.238	-10.925	45.837	-285.767	-82.79	-6.69	-110.29	-81.046	-42.924	-27.146	0.48779	-0.36154	0.54813	-0.57513	31.1	13111	100
2025-3-27 18:35:33.325	WT901BLE68-01(48591DE3C19B)	-0.571	-1.232	0.205	-5.737	32.959	-275.208	-82.74	-9.29	-111.14	-81.046	-42.924	-27.146	0.48779	-0.36154	0.54813	-0.57513	31.1	13111	100
2025-3-27 18:35:33.325	WT901BLE68-01(48591DE3C19B)	-0.643	-1.232	0.205	-5.737	32.959	-275.208	-82.64	-11.83	-111.93	-81.046	-42.924	-27.146	0.48779	-0.36154	0.54813	-0.57513	31.1	13111	100
2025-3-27 18:35:33.325	WT901BLE68-01(48591DE3C19B)	-0.643	-1.216	0.179	-0.488	13.245	-259.216	-82.50	-14.28	-112.64	-81.046	-42.924	-27.146	0.48779	-0.36154	0.54813	-0.57513	31.1	13111	100
2025-3-27 18:35:33.325	WT901BLE68-01(48591DE3C19B)	-0.642	-1.216	0.179	-0.488	13.245	-259.216	-82.34	-16.64	-113.25	-81.046	-42.924	-27.146	0.48779	-0.36154	0.54813	-0.57513	31.1	13111	100
2025-3-27 18:35:33.354	WT901BLE68-01(48591DE3C19B)	-0.642	-1.197	0.208	3.052	-1.099	-236.145	-82.15	-18.88	-113.80	-81.046	-42.924	-27.146	0.48779	-0.36154	0.54813	-0.57513	31.1	13111	100
2025-3-27 18:35:33.354	WT901BLE68-01(48591DE3C19B)	-0.629	-1.197	0.208	3.052	-1.099	-236.145	-81.95	-20.99	-114.27	-81.046	-42.924	-27.146	0.48779	-0.36154	0.54813	-0.57513	31.1	13111	100
2025-3-27 18:35:33.354	WT901BLE68-01(48591DE3C19B)	-0.629	-1.179	0.287	5.676	0.183	-206.238	-81.73	-22.94	-114.76	-81.046	-42.924	-27.146	0.48779	-0.36154	0.54813	-0.57513	31.1	13111	100
2025-3-27 18:35:33.354	WT901BLE68-01(48591DE3C19B)	-0.617	-1.179	0.287	5.676	0.183	-206.238	-81.47	-24.72	-115.25	-81.046	-42.924	-27.146	0.48779	-0.36154	0.54813	-0.57513	31.1	13111	100
2025-3-27 18:35:33.415	WT901BLE68-01(48591DE3C19B)	-0.617	-1.192	0.354	7.935	18.982	-174.072	-81.14	-26.32	-115.85	-81.046	-42.924	-27.146	0.48779	-0.36154	0.54813	-0.57513	31.1	13111	100
2025-3-27 18:35:33.415	WT901BLE68-01(48591DE3C19B)	-0.620	-1.192	0.354	7.935	18.982	-174.072	-80.74	-27.73	-116.55	-81.046	-42.924	-27.146	0.48779	-0.36154	0.54813	-0.57513	31.1	13111	100
2025-3-27 18:35:33.415	WT901BLE68-01(48591DE3C19B)	-0.620	-1.216	0.387	11.047	49.316	-140.625	-80.23	-28.94	-117.42	-81.046	-42.924	-27.146	0.48779	-0.36154	0.54813	-0.57513	31.1	13111	100
2025-3-27 18:35:33.415	WT901BLE68-01(48591DE3C19B)	-0.663	-1.216	0.387	11.047	49.316	-140.625	-79.61	-29.95	-118.45	-81.046	-42.924	-27.146	0.48779	-0.36154	0.54813	-0.57513	31.1	13111	100
2025-3-27 18:35:33.475	WT901BLE68-01(48591DE3C19B)	-0.663	-1.247	0.405	15.137	76.904	-108.643	-78.88	-30.76	-119.64	-46.060	-50.470	-30.870	0.48779	-0.36154	0.54813	-0.57513	31.1	13111	100
2025-3-27 18:35:33.475	WT901BLE68-01(48591DE3C19B)	-0.719	-1.247	0.405	15.137	76.904	-108.643	-78.04	-31.37	-120.98	-46.060	-50.470	-30.870	0.48779	-0.36154	0.54813	-0.57513	31.1	13111	100
2025-3-27 18:35:33.475	WT901BLE68-01(48591DE3C19B)	-0.719	-1.258	0.411	15.503	99.304	-77.271	-77.14	-31.77	-122.43	-46.060	-50.470	-30.870	0.48779	-0.36154	0.54813	-0.57513	31.1	13111	100
2025-3-27 18:35:33.475	WT901BLE68-01(48591DE3C19B)	-0.782	-1.258	0.411	15.503	99.304	-77.271	-76.17	-31.98	-123.98	-46.060	-50.470	-30.870	0.48779	-0.36154	0.54813	-0.57513	31.1	13111	100
2025-3-27 18:35:33.476	WT901BLE68-01(48591DE3C19B)	-0.782	-1.259	0.384	11.047	118.652	-43.213	-75.18	-31.98	-125.61	-46.060	-50.470	-30.870	0.48779	-0.36154	0.54813	-0.57513	31.1	13111	100
2025-3-27 18:35:33.476	WT901BLE68-01(48591DE3C19B)	-0.856	-1.259	0.384	11.047	118.652	-43.213	-74.20	-31.76	-127.29	-46.060	-50.470	-30.870	0.48779	-0.36154	0.54813	-0.57513	31.1	13111	100
2025-3-27 18:35:33.477	WT901BLE68-01(48591DE3C19B)	-0.856	-1.203	0.335	5.493	130.554	-9.949	-73.23	-31.34	-128.99	-46.060	-50.470	-30.870	0.48779	-0.36154	0.54813	-0.57513	31.1	13111	100
2025-3-27 18:35:33.477	WT901BLE68-01(48591DE3C19B)	-0.869	-1.203	0.335	5.493	130.554	-9.949	-72.32	-30.73	-130.69	-46.060	-50.470	-30.870	0.48779	-0.36154	0.54813	-0.57513	31.1	13111	100
2025-3-27 18:35:33.535	WT901BLE68-01(48591DE3C19B)	-0.869	-1.015	0.296	-0.061	121.155	23.682	-71.52	-29.95	-132.26	-46.060	-50.470	-30.870	0.48779	-0.36154	0.54813	-0.57513	31.1	13111	100
2025-3-27 18:35:33.536	WT901BLE68-01(48591DE3C19B)	-0.904	-1.015	0.296	-0.061	121.155	23.682	-70.83	-29.00	-133.70	-46.060	-50.470	-30.870	0.48779	-0.36154	0.54813	-0.57513	31.1	13111	100
2025-3-27 18:35:33.536	WT901BLE68-01(48591DE3C19B)	-0.904	-0.813	0.292	-12.085	87.769	58.777	-70.35	-27.94	-134.88	-46.060	-50.470	-30.870	0.48779	-0.36154	0.54813	-0.57513	31.1	13111	100
2025-3-27 18:35:33.536	WT901BLE68-01(48591DE3C19B)	-1.038	-0.813	0.292	-12.085	87.769	58.777	-70.05	-26.76	-135.82	-46.060	-50.470	-30.870	0.48779	-0.36154	0.54813	-0.57513	31.1	13111	100
2025-3-27 18:35:33.564	WT901BLE68-01(48591DE3C19B)	-1.038	-0.843	0.298	-29.114	29.236	97.046	-70.02	-25.50	-136.38	-46.060	-50.470	-30.870	0.48779	-0.36154	0.54813	-0.57513	31.1	13111	100
2025-3-27 18:35:33.564	WT901BLE68-01(48591DE3C19B)	-1.039	-0.843	0.298	-29.114	29.236	97.046	-70.22	-24.16	-136.57	-46.060	-50.470	-30.870	0.48779	-0.36154	0.54813	-0.57513	31.1	13111	100
2025-3-27 18:35:33.565	WT901BLE68-01(48591DE3C19B)	-1.039	-0.978	0.271	-39.185	-42.053	137.939	-70.65	-22.76	-136.33	-46.060	-50.470	-30.870	0.48779	-0.36154	0.54813	-0.57513	31.1	13111	100
2025-3-27 18:35:33.565	WT901BLE68-01(48591DE3C19B)	-0.822	-0.978	0.271	-39.185	-42.053	137.939	-71.26	-21.27	-135.69	-46.060	-50.470	-30.870	0.48779	-0.36154	0.54813	-0.57513	31.1	13111	100
2025-3-27 18:35:33.596	WT901BLE68-01(48591DE3C19B)	-0.822	-1.062	0.196	-41.626	-99.426	177.917	-71.98	-19.68	-134.72	-46.060	-50.470	-30.870	0.48779	-0.36154	0.54813	-0.57513	31.1	13111	100
2025-3-27 18:35:33.596	WT901BLE68-01(48591DE3C19B)	-0.622	-1.062	0.196	-41.626	-99.426	177.917	-72.78	-17.99	-133.43	-46.060	-50.470	-30.870	0.48779	-0.36154	0.54813	-0.57513	31.1	13111	100
2025-3-27 18:35:33.597	WT901BLE68-01(48591DE3C19B)	-0.622	-1.172	0.150	-40.100	-129.395	215.027	-73.64	-16.01	-131.76	-46.060	-50.470	-30.870	0.48779	-0.36154	0.54813	-0.57513	31.1	13111	100
2025-3-27 18:35:33.597	WT901BLE68-01(48591DE3C19B)	-0.554	-1.172	0.150	-40.100	-129.395	215.027	-74.42	-14.02	-130.12	-46.060	-50.470	-30.870	0.48779	-0.36154	0.54813	-0.57513	31.1	13111	100
2025-3-27 18:35:33.655	WT901BLE68-01(48591DE3C19B)	-0.554	-1.357	0.173	-36.255	-145.752	242.432	-75.16	-11.81	-128.28	-46.060	-50.470	-30.870	0.48779	-0.36154	0.54813	-0.57513	31.1	13111	100
2025-3-27 18:35:33.655	WT901BLE68-01(48591DE3C19B)	-0.503	-1.357	0.173	-36.255	-145.752	242.432	-75.83	-9.58	-126.46	-46.060	-50.470	-30.870	0.30820	-0.33459	0.51700	-0.72504	31.1	13111	100
2025-3-27 18:35:33.655	WT901BLE68-01(48591DE3C19B)	-0.503	-1.646	0.229	-28.748	-156.738	259.766	-76.37	-7.21	-124.52	-46.060	-50.470	-30.870	0.30820	-0.33459	0.51700	-0.72504	31.1	13111	100
2025-3-27 18:35:33.655	WT901BLE68-01(48591DE3C19B)	-0.419	-1.646	0.229	-28.748	-156.738	259.766	-76.83	-4.84	-122.58	-46.060	-50.470	-30.870	0.30820	-0.33459	0.51700	-0.72504	31.1	13111	100
2025-3-27 18:35:33.715	WT901BLE68-01(48591DE3C19B)	-0.419	-1.942	0.276	-11.536	-155.212	270.935	-77.04	-2.38	-120.63	-46.060	-50.470	-30.870	0.30820	-0.33459	0.51700	-0.72504	31.1	13111	100
2025-3-27 18:35:33.715	WT901BLE68-01(48591DE3C19B)	-0.288	-1.942	0.276	-11.536	-155.212	270.935	-77.17	0.07	-118.67	-46.060	-50.470	-30.870	0.30820	-0.33459	0.51700	-0.72504	31.1	13111	100
2025-3-27 18:35:33.715	WT901BLE68-01(48591DE3C19B)	-0.288	-2.026	0.238	13.367	-131.775	277.344	-76.99	2.61	-116.91	-46.060	-50.470	-30.870	0.30820	-0.33459	0.51700	-0.72504	31.1	13111	100
2025-3-27 18:35:33.715	WT901BLE68-01(48591DE3C19B)	-0.236	-2.026	0.238	13.367	-131.775	277.344	-76.72	5.11	-115.11	-46.060	-50.470	-30.870	0.30820	-0.33459	0.51700	-0.72504	31.1	13111	100
2025-3-27 18:35:33.717	WT901BLE68-01(48591DE3C19B)	-0.236	-1.856	0.191	34.546	-92.346	279.785	-76.22	7.70	-113.66	-46.060	-50.470	-30.870	0.30820	-0.33459	0.51700	-0.72504	31.1	13111	100
2025-3-27 18:35:33.717	WT901BLE68-01(48591DE3C19B)	-0.262	-1.856	0.191	34.546	-92.346	279.785	-75.65	10.25	-112.18	-46.060	-50.470	-30.870	0.30820	-0.33459	0.51700	-0.72504	31.1	13111	100
2025-3-27 18:35:33.717	WT901BLE68-01(48591DE3C19B)	-0.262	-1.641	0.144	43.518	-56.274	277.100	-74.99	12.82	-111.00	-46.060	-50.470	-30.870	0.30820	-0.33459	0.51700	-0.72504	31.1	13111	100
2025-3-27 18:35:33.717	WT901BLE68-01(48591DE3C19B)	-0.258	-1.641	0.144	43.518	-56.274	277.100	-74.28	15.36	-109.78	-46.060	-50.470	-30.870	0.30820	-0.33459	0.51700	-0.72504	31.1	13111	100
2025-3-27 18:35:33.775	WT901BLE68-01(48591DE3C19B)	-0.258	-1.475	0.120	47.058	-27.649	271.484	-73.55	17.90	-108.80	-46.060	-50.470	-30.870	0.30820	-0.33459	0.51700	-0.72504	31.1	13111	100
2025-3-27 18:35:33.775	WT901BLE68-01(48591DE3C19B)	-0.261	-1.475	0.120	47.058	-27.649	271.484	-72.78	20.40	-107.78	-46.060	-50.470	-30.870	0.30820	-0.33459	0.51700	-0.72504	31.1	13111	100
2025-3-27 18:35:33.775	WT901BLE68-01(48591DE3C19B)	-0.261	-1.344	0.088	48.218	-11.169	267.151	-72.00	22.87	-106.89	-46.060	-50.470	-30.870	0.30820	-0.33459	0.51700	-0.72504	31.1	13111	100
2025-3-27 18:35:33.775	WT901BLE68-01(48591DE3C19B)	-0.263	-1.344	0.088	48.218	-11.169	267.151	-71.17	25.32	-105.93	-46.060	-50.470	-30.870	0.30820	-0.33459	0.51700	-0.72504	31.1	13111	100
2025-3-27 18:35:33.807	WT901BLE68-01(48591DE3C19B)	-0.263	-1.232	0.080	48.157	-9.094	262.451	-70.31	27.70	-104.95	-46.060	-50.470	-30.870	0.30820	-0.33459	0.51700	-0.72504	31.1	13111	100
2025-3-27 18:35:33.807	WT901BLE68-01(48591DE3C19B)	-0.270	-1.232	0.080	48.157	-9.094	262.451	-69.38	30.05	-103.91	-46.060	-50.470	-30.870	0.30820	-0.33459	0.51700	-0.72504	31.1	13111	100
2025-3-27 18:35:33.807	WT901BLE68-01(48591DE3C19B)	-0.270	-1.163	0.062	47.668	-18.677	255.615	-68.35	32.28	-102.73	-46.060	-50.470	-30.870	0.30820	-0.33459	0.51700	-0.72504	31.1	13111	100
2025-3-27 18:35:33.807	WT901BLE68-01(48591DE3C19B)	-0.277	-1.163	0.062	47.668	-18.677	255.615	-67.25	34.46	-101.46	-46.060	-50.470	-30.870	0.30820	-0.33459	0.51700	-0.72504	31.1	13111	100
2025-3-27 18:35:33.926	WT901BLE68-01(48591DE3C19B)	-0.277	-1.152	0.067	46.204	-32.166	245.605	-66.02	36.47	-100.01	-46.060	-50.470	-30.870	0.30820	-0.33459	0.51700	-0.72504	31.1	13111	100
2025-3-27 18:35:33.926	WT901BLE68-01(48591DE3C19B)	-0.304	-1.152	0.067	46.204	-32.166	245.605	-64.69	38.44	-98.47	-73.696	-47.726	-18.522	0.30820	-0.33459	0.51700	-0.72504	31.1	13111	100
2025-3-27 18:35:33.926	WT901BLE68-01(48591DE3C19B)	-0.304	-1.249	0.063	44.312	-49.438	232.849	-63.22	40.18	-96.70	-73.696	-47.726	-18.522	0.30820	-0.33459	0.51700	-0.72504	31.1	13111	100
2025-3-27 18:35:33.926	WT901BLE68-01(48591DE3C19B)	-0.289	-1.249	0.063	44.312	-49.438	232.849	-61.64	41.87	-94.82	-73.696	-47.726	-18.522	0.30820	-0.33459	0.51700	-0.72504	31.1	13111	100
2025-3-27 18:35:33.927	WT901BLE68-01(48591DE3C19B)	-0.289	-1.319	0.049	46.936	-63.049	218.140	-59.89	43.31	-92.78	-73.696	-47.726	-18.522	0.30820	-0.33459	0.51700	-0.72504	31.1	13111	100
2025-3-27 18:35:33.927	WT901BLE68-01(48591DE3C19B)	-0.208	-1.319	0.049	46.936	-63.049	218.140	-58.04	44.70	-90.63	-73.696	-47.726	-18.522	0.30820	-0.33459	0.51700	-0.72504	31.1	13111	100
2025-3-27 18:35:33.927	WT901BLE68-01(48591DE3C19B)	-0.208	-1.385	0.032	48.645	-66.101	201.355	-56.13	45.87	-88.47	-73.696	-47.726	-18.522	0.30820	-0.33459	0.51700	-0.72504	31.1	13111	100
2025-3-27 18:35:33.927	WT901BLE68-01(48591DE3C19B)	-0.079	-1.385	0.032	48.645	-66.101	201.355	-54.14	46.97	-86.22	-73.696	-47.726	-18.522	0.30820	-0.33459	0.51700	-0.72504	31.1	13111	100
2025-3-27 18:35:33.928	WT901BLE68-01(48591DE3C19B)	-0.079	-1.438	0.000	49.683	-54.382	182.495	-52.27	47.93	-84.18	-73.696	-47.726	-18.522	0.30820	-0.33459	0.51700	-0.72504	31.1	13111	100
2025-3-27 18:35:33.928	WT901BLE68-01(48591DE3C19B)	0.118	-1.438	0.000	49.683	-54.382	182.495	-50.33	48.84	-82.06	-73.696	-47.726	-18.522	0.30820	-0.33459	0.51700	-0.72504	31.1	13111	100
2025-3-27 18:35:33.928	WT901BLE68-01(48591DE3C19B)	0.118	-1.447	-0.045	47.607	-29.419	158.386	-48.76	49.67	-80.40	-73.696	-47.726	-18.522	0.30820	-0.33459	0.51700	-0.72504	31.1	13111	100
2025-3-27 18:35:33.928	WT901BLE68-01(48591DE3C19B)	0.376	-1.447	-0.045	47.607	-29.419	158.386	-47.13	50.45	-78.70	-73.696	-47.726	-18.522	0.30820	-0.33459	0.51700	-0.72504	31.1	13111	100
2025-3-27 18:35:33.991	WT901BLE68-01(48591DE3C19B)	0.376	-1.498	-0.130	49.316	13.611	127.502	-46.09	51.27	-77.76	-73.696	-47.726	-18.522	0.30820	-0.33459	0.51700	-0.72504	31.1	13111	100
2025-3-27 18:35:33.991	WT901BLE68-01(48591DE3C19B)	0.669	-1.498	-0.130	49.316	13.611	127.502	-45.02	52.05	-76.81	-73.696	-47.726	-18.522	0.30820	-0.33459	0.51700	-0.72504	31.1	13111	100
2025-3-27 18:35:33.991	WT901BLE68-01(48591DE3C19B)	0.669	-1.488	-0.170	48.645	57.129	90.149	-44.69	52.87	-76.76	-73.696	-47.726	-18.522	0.30820	-0.33459	0.51700	-0.72504	31.1	13111	100
2025-3-27 18:35:33.991	WT901BLE68-01(48591DE3C19B)	0.619	-1.488	-0.170	48.645	57.129	90.149	-44.35	53.65	-76.71	-73.696	-47.726	-18.522	0.30820	-0.33459	0.51700	-0.72504	31.1	13111	100
2025-3-27 18:35:34.16	WT901BLE68-01(48591DE3C19B)	0.619	-1.455	-0.208	16.846	91.553	46.143	-45.12	54.36	-77.62	-73.696	-47.726	-18.522	0.30820	-0.33459	0.51700	-0.72504	31.1	13111	100
2025-3-27 18:35:34.16	WT901BLE68-01(48591DE3C19B)	0.257	-1.455	-0.208	16.846	91.553	46.143	-45.91	55.05	-78.56	-73.696	-47.726	-18.522	0.30820	-0.33459	0.51700	-0.72504	31.1	13111	100
2025-3-27 18:35:34.16	WT901BLE68-01(48591DE3C19B)	0.257	-1.397	-0.063	4.761	122.559	10.925	-47.54	55.67	-80.36	-73.696	-47.726	-18.522	0.30820	-0.33459	0.51700	-0.72504	31.1	13111	100
2025-3-27 18:35:34.17	WT901BLE68-01(48591DE3C19B)	-0.000	-1.397	-0.063	4.761	122.559	10.925	-49.22	56.27	-82.23	-73.696	-47.726	-18.522	0.72882	0.00494	0.56906	-0.38062	31.1	13111	100
2025-3-27 18:35:34.47	WT901BLE68-01(48591DE3C19B)	-0.000	-1.249	0.094	-6.104	136.719	-28.503	-51.60	56.60	-84.79	-73.696	-47.726	-18.522	0.72882	0.00494	0.56906	-0.38062	31.1	13111	100
2025-3-27 18:35:34.47	WT901BLE68-01(48591DE3C19B)	-0.038	-1.249	0.094	-6.104	136.719	-28.503	-54.00	56.88	-87.38	-73.696	-47.726	-18.522	0.72882	0.00494	0.56906	-0.38062	31.1	13111	100
2025-3-27 18:35:34.47	WT901BLE68-01(48591DE3C19B)	0.077	-1.138	0.208	-20.264	114.990	-66.650	-56.61	56.66	-90.05	-73.696	-47.726	-18.522	0.72882	0.00494	0.56906	-0.38062	31.1	13111	100
2025-3-27 18:35:34.47	WT901BLE68-01(48591DE3C19B)	0.077	-1.070	0.139	-26.123	79.163	-104.858	-59.09	56.12	-92.58	-73.696	-47.726	-18.522	0.72882	0.00494	0.56906	-0.38062	31.1	13111	100
2025-3-27 18:35:34.105	WT901BLE68-01(48591DE3C19B)	0.119	-1.070	0.139	-26.123	79.163	-104.858	-61.41	55.27	-94.90	-73.696	-47.726	-18.522	0.72882	0.00494	0.56906	-0.38062	31.1	13111	100
2025-3-27 18:35:34.105	WT901BLE68-01(48591DE3C19B)	0.119	-1.085	0.084	-38.269	46.753	-144.653	-63.58	54.12	-97.00	-73.696	-47.726	-18.522	0.72882	0.00494	0.56906	-0.38062	31.1	13111	100
2025-3-27 18:35:34.105	WT901BLE68-01(48591DE3C19B)	-0.056	-1.085	0.084	-38.269	46.753	-144.653	-65.58	52.69	-98.87	-73.696	-47.726	-18.522	0.72882	0.00494	0.56906	-0.38062	31.1	13111	100
2025-3-27 18:35:34.105	WT901BLE68-01(48591DE3C19B)	-0.056	-1.355	0.065	-53.528	7.385	-189.636	-67.39	50.94	-100.43	-73.696	-47.726	-18.522	0.72882	0.00494	0.56906	-0.38062	31.1	13111	100
2025-3-27 18:35:34.134	WT901BLE68-01(48591DE3C19B)	-0.269	-1.355	0.065	-53.528	7.385	-189.636	-69.01	48.90	-101.68	-73.696	-47.726	-18.522	0.72882	0.00494	0.56906	-0.38062	31.1	13111	100
2025-3-27 18:35:34.134	WT901BLE68-01(48591DE3C19B)	-0.269	-1.605	0.063	-55.969	-20.935	-227.539	-70.41	46.63	-102.71	-73.696	-47.726	-18.522	0.72882	0.00494	0.56906	-0.38062	31.1	13111	100
2025-3-27 18:35:34.134	WT901BLE68-01(48591DE3C19B)	-0.377	-1.605	0.063	-55.969	-20.935	-227.539	-71.64	44.14	-103.50	-73.696	-47.726	-18.522	0.72882	0.00494	0.56906	-0.38062	31.1	13111	100
2025-3-27 18:35:34.134	WT901BLE68-01(48591DE3C19B)	-0.377	-1.650	0.211	-42.603	-22.644	-269.104	-72.75	41.46	-104.27	-73.696	-47.726	-18.522	0.72882	0.00494	0.56906	-0.38062	31.1	13111	100
2025-3-27 18:35:34.165	WT901BLE68-01(48591DE3C19B)	-0.363	-1.650	0.211	-42.603	-22.644	-269.104	-73.73	38.59	-105.00	-73.696	-47.726	-18.522	0.72882	0.00494	0.56906	-0.38062	31.1	13111	100
2025-3-27 18:35:34.165	WT901BLE68-01(48591DE3C19B)	-0.363	-1.565	0.274	-43.518	-16.724	-293.396	-74.68	35.63	-105.72	-73.696	-47.726	-18.522	0.72882	0.00494	0.56906	-0.38062	31.1	13111	100
2025-3-27 18:35:34.165	WT901BLE68-01(48591DE3C19B)	-0.377	-1.565	0.274	-43.518	-16.724	-293.396	-75.58	32.57	-106.43	-73.696	-47.726	-18.522	0.72882	0.00494	0.56906	-0.38062	31.1	13111	100
2025-3-27 18:35:34.166	WT901BLE68-01(48591DE3C19B)	-0.377	-1.565	0.295	-42.053	-7.935	-304.565	-76.43	29.49	-107.13	-73.696	-47.726	-18.522	0.72882	0.00494	0.56906	-0.38062	31.1	13111	100
2025-3-27 18:35:34.225	WT901BLE68-01(48591DE3C19B)	-0.369	-1.565	0.295	-42.053	-7.935	-304.565	-77.22	26.37	-107.81	-73.696	-47.726	-18.522	0.72882	0.00494	0.56906	-0.38062	31.1	13111	100
2025-3-27 18:35:34.225	WT901BLE68-01(48591DE3C19B)	-0.369	-1.602	0.283	-29.907	-11.658	-304.688	-77.88	23.27	-108.42	-73.696	-47.726	-18.522	0.72882	0.00494	0.56906	-0.38062	31.1	13111	100
2025-3-27 18:35:34.225	WT901BLE68-01(48591DE3C19B)	-0.338	-1.602	0.283	-29.907	-11.658	-304.688	-78.41	20.18	-108.96	-73.696	-47.726	-18.522	0.72882	0.00494	0.56906	-0.38062	31.1	13111	100
2025-3-27 18:35:34.225	WT901BLE68-01(48591DE3C19B)	-0.338	-1.609	0.281	-13.184	-20.020	-295.410	-78.80	17.15	-109.41	-73.696	-47.726	-18.522	0.72882	0.00494	0.56906	-0.38062	31.1	13111	100
2025-3-27 18:35:34.254	WT901BLE68-01(48591DE3C19B)	-0.338	-1.609	0.281	-13.184	-20.020	-295.410	-79.06	14.17	-109.78	-66.052	-44.100	-14.112	0.72882	0.00494	0.56906	-0.38062	31.1	13111	100
2025-3-27 18:35:34.254	WT901BLE68-01(48591DE3C19B)	-0.338	-1.575	0.239	3.235	-23.499	-282.654	-79.21	11.27	-110.11	-66.052	-44.100	-14.112	0.72882	0.00494	0.56906	-0.38062	31.1	13111	100
2025-3-27 18:35:34.254	WT901BLE68-01(48591DE3C19B)	-0.348	-1.575	0.239	3.235	-23.499	-282.654	-79.24	8.45	-110.41	-66.052	-44.100	-14.112	0.72882	0.00494	0.56906	-0.38062	31.1	13111	100
2025-3-27 18:35:34.254	WT901BLE68-01(48591DE3C19B)	-0.348	-1.481	0.164	15.930	-18.433	-270.813	-79.21	5.71	-110.71	-66.052	-44.100	-14.112	0.72882	0.00494	0.56906	-0.38062	31.1	13111	100
2025-3-27 18:35:34.290	WT901BLE68-01(48591DE3C19B)	-0.334	-1.481	0.164	15.930	-18.433	-270.813	-79.09	3.05	-111.04	-66.052	-44.100	-14.112	0.72882	0.00494	0.56906	-0.38062	31.1	13111	100
2025-3-27 18:35:34.290	WT901BLE68-01(48591DE3C19B)	-0.334	-1.397	0.110	23.071	-2.075	-255.615	-78.93	0.50	-111.44	-66.052	-44.100	-14.112	0.72882	0.00494	0.56906	-0.38062	31.1	13111	100
2025-3-27 18:35:34.290	WT901BLE68-01(48591DE3C19B)	-0.338	-1.397	0.110	23.071	-2.075	-255.615	-78.72	-1.93	-111.91	-66.052	-44.100	-14.112	0.72882	0.00494	0.56906	-0.38062	31.1	13111	100
2025-3-27 18:35:34.290	WT901BLE68-01(48591DE3C19B)	-0.338	-1.302	0.113	25.269	24.292	-238.586	-78.47	-4.25	-112.50	-66.052	-44.100	-14.112	0.72882	0.00494	0.56906	-0.38062	31.1	13111	100
2025-3-27 18:35:34.345	WT901BLE68-01(48591DE3C19B)	-0.366	-1.302	0.113	25.269	24.292	-238.586	-78.18	-6.44	-113.22	-66.052	-44.100	-14.112	0.72882	0.00494	0.56906	-0.38062	31.1	13111	100
2025-3-27 18:35:34.345	WT901BLE68-01(48591DE3C19B)	-0.366	-1.203	0.157	22.339	51.086	-220.764	-77.87	-8.49	-114.06	-66.052	-44.100	-14.112	0.72882	0.00494	0.56906	-0.38062	31.1	13111	100
2025-3-27 18:35:34.345	WT901BLE68-01(48591DE3C19B)	-0.428	-1.203	0.157	22.339	51.086	-220.764	-77.51	-10.41	-115.03	-66.052	-44.100	-14.112	0.72882	0.00494	0.56906	-0.38062	31.1	13111	100
2025-3-27 18:35:34.345	WT901BLE68-01(48591DE3C19B)	-0.428	-1.114	0.225	18.494	70.129	-201.660	-77.14	-12.19	-116.10	-66.052	-44.100	-14.112	0.72882	0.00494	0.56906	-0.38062	31.1	13111	100
2025-3-27 18:35:34.374	WT901BLE68-01(48591DE3C19B)	-0.468	-1.114	0.225	18.494	70.129	-201.660	-76.72	-13.84	-117.26	-66.052	-44.100	-14.112	0.72882	0.00494	0.56906	-0.38062	31.1	13111	100
2025-3-27 18:35:34.374	WT901BLE68-01(48591DE3C19B)	-0.468	-1.049	0.284	15.930	82.642	-182.861	-76.28	-15.36	-118.48	-66.052	-44.100	-14.112	0.72882	0.00494	0.56906	-0.38062	31.1	13111	100
2025-3-27 18:35:34.374	WT901BLE68-01(48591DE3C19B)	-0.467	-1.049	0.284	15.930	82.642	-182.861	-75.79	-16.75	-119.77	-66.052	-44.100	-14.112	0.72882	0.00494	0.56906	-0.38062	31.1	13111	100
2025-3-27 18:35:34.374	WT901BLE68-01(48591DE3C19B)	-0.467	-1.000	0.298	14.465	91.919	-163.757	-75.28	-18.02	-121.10	-66.052	-44.100	-14.112	0.72882	0.00494	0.56906	-0.38062	31.1	13111	100
