time	DeviceName	AccX(g)	AccY(g)	AccZ(g)	AsX(°/s)	AsY(°/s)	AsZ(°/s)	AngleX(°)	AngleY(°)	AngleZ(°)	HX(uT)	HY(uT)	HZ(uT)	Q0()	Q1()	Q2()	Q3()	Temperature(°C)	Version()	Battery level(%)
2025-3-27 18:36:26.344	WT901BLE68-01(48591DE3C19B)	-0.205	-0.949	0.300	-0.427	-3.113	1.892	-72.55	11.97	-77.79	-82.908	-60.270	23.618	-0.65866	0.40207	-0.44357	0.45566	31.1	13111	100
2025-3-27 18:36:26.344	WT901BLE68-01(48591DE3C19B)	-0.205	-0.943	0.297	0.122	-0.183	2.136	-72.54	11.99	-77.82	-82.908	-60.270	23.618	-0.65866	0.40207	-0.44357	0.45566	31.1	13111	100
2025-3-27 18:36:26.344	WT901BLE68-01(48591DE3C19B)	-0.213	-0.943	0.297	0.122	-0.183	2.136	-72.54	12.00	-77.87	-82.908	-60.270	23.618	-0.65866	0.40207	-0.44357	0.45566	31.1	13111	100
2025-3-27 18:36:26.344	WT901BLE68-01(48591DE3C19B)	-0.213	-0.938	0.296	0.732	2.136	1.343	-72.53	12.02	-77.92	-82.908	-60.270	23.618	-0.65866	0.40207	-0.44357	0.45566	31.1	13111	100
2025-3-27 18:36:26.367	WT901BLE68-01(48591DE3C19B)	-0.218	-0.938	0.296	0.732	2.136	1.343	-72.53	12.04	-77.99	-82.908	-60.270	23.618	-0.65866	0.40207	-0.44357	0.45566	31.1	13111	100
2025-3-27 18:36:26.367	WT901BLE68-01(48591DE3C19B)	-0.218	-0.929	0.298	1.343	2.991	0.000	-72.52	12.05	-78.06	-82.908	-60.270	23.618	-0.65866	0.40207	-0.44357	0.45566	31.1	13111	100
2025-3-27 18:36:26.367	WT901BLE68-01(48591DE3C19B)	-0.217	-0.929	0.298	1.343	2.991	0.000	-72.51	12.06	-78.15	-82.908	-60.270	23.618	-0.66171	0.40314	-0.43646	0.45718	31.1	13111	100
2025-3-27 18:36:26.367	WT901BLE68-01(48591DE3C19B)	-0.217	-0.926	0.297	1.038	2.563	-1.160	-72.50	12.07	-78.22	-82.908	-60.270	23.618	-0.66171	0.40314	-0.43646	0.45718	31.1	13111	100
2025-3-27 18:36:26.427	WT901BLE68-01(48591DE3C19B)	-0.217	-0.926	0.297	1.038	2.563	-1.160	-72.49	12.06	-78.30	-82.908	-60.270	23.618	-0.66171	0.40314	-0.43646	0.45718	31.1	13111	100
2025-3-27 18:36:26.427	WT901BLE68-01(48591DE3C19B)	-0.217	-0.944	0.293	0.732	1.221	-2.380	-72.49	12.05	-78.38	-82.908	-60.270	23.618	-0.66171	0.40314	-0.43646	0.45718	31.1	13111	100
2025-3-27 18:36:26.427	WT901BLE68-01(48591DE3C19B)	-0.211	-0.944	0.293	0.732	1.221	-2.380	-72.48	12.04	-78.44	-82.908	-60.270	23.618	-0.66171	0.40314	-0.43646	0.45718	31.1	13111	100
2025-3-27 18:36:26.427	WT901BLE68-01(48591DE3C19B)	-0.211	-0.960	0.292	0.854	-0.122	-3.296	-72.48	12.00	-78.50	-82.908	-60.270	23.618	-0.66171	0.40314	-0.43646	0.45718	31.1	13111	100
2025-3-27 18:36:26.456	WT901BLE68-01(48591DE3C19B)	-0.203	-0.960	0.292	0.854	-0.122	-3.296	-72.47	11.98	-78.56	-82.908	-60.270	23.618	-0.66171	0.40314	-0.43646	0.45718	31.1	13111	100
2025-3-27 18:36:26.456	WT901BLE68-01(48591DE3C19B)	-0.203	-0.956	0.289	0.854	-1.221	-4.028	-72.46	11.93	-78.61	-82.908	-60.270	23.618	-0.66171	0.40314	-0.43646	0.45718	31.1	13111	100
2025-3-27 18:36:26.456	WT901BLE68-01(48591DE3C19B)	-0.190	-0.956	0.289	0.854	-1.221	-4.028	-72.45	11.89	-78.65	-82.908	-60.270	23.618	-0.66171	0.40314	-0.43646	0.45718	31.1	13111	100
2025-3-27 18:36:26.456	WT901BLE68-01(48591DE3C19B)	-0.190	-0.963	0.268	-0.549	-2.136	-4.395	-72.45	11.84	-78.69	-82.908	-60.270	23.618	-0.66171	0.40314	-0.43646	0.45718	31.1	13111	100
2025-3-27 18:36:26.490	WT901BLE68-01(48591DE3C19B)	-0.175	-0.963	0.268	-0.549	-2.136	-4.395	-72.46	11.79	-78.73	-82.908	-60.270	23.618	-0.66171	0.40314	-0.43646	0.45718	31.1	13111	100
2025-3-27 18:36:26.490	WT901BLE68-01(48591DE3C19B)	-0.175	-0.997	0.232	-2.625	-3.113	-4.395	-72.49	11.74	-78.76	-82.908	-60.270	23.618	-0.66171	0.40314	-0.43646	0.45718	31.1	13111	100
2025-3-27 18:36:26.490	WT901BLE68-01(48591DE3C19B)	-0.146	-0.997	0.232	-2.625	-3.113	-4.395	-72.52	11.69	-78.78	-82.908	-60.270	23.618	-0.66171	0.40314	-0.43646	0.45718	31.1	13111	100
2025-3-27 18:36:26.490	WT901BLE68-01(48591DE3C19B)	-0.146	-1.022	0.211	-5.493	-4.333	-3.235	-72.58	11.65	-78.79	-82.908	-60.270	23.618	-0.66171	0.40314	-0.43646	0.45718	31.1	13111	100
2025-3-27 18:36:26.547	WT901BLE68-01(48591DE3C19B)	-0.099	-1.022	0.211	-5.493	-4.333	-3.235	-72.64	11.60	-78.79	-82.908	-60.270	23.618	-0.66171	0.40314	-0.43646	0.45718	31.1	13111	100
2025-3-27 18:36:26.547	WT901BLE68-01(48591DE3C19B)	-0.099	-1.038	0.221	-7.629	-4.333	-1.465	-72.72	11.56	-78.79	-82.908	-60.270	23.618	-0.66171	0.40314	-0.43646	0.45718	31.1	13111	100
2025-3-27 18:36:26.547	WT901BLE68-01(48591DE3C19B)	-0.042	-1.038	0.221	-7.629	-4.333	-1.465	-72.80	11.52	-78.79	-82.908	-60.270	23.618	-0.66171	0.40314	-0.43646	0.45718	31.1	13111	100
2025-3-27 18:36:26.547	WT901BLE68-01(48591DE3C19B)	-0.042	-1.033	0.229	-7.813	-1.221	0.183	-72.89	11.51	-78.81	-82.908	-60.270	23.618	-0.66171	0.40314	-0.43646	0.45718	31.1	13111	100
2025-3-27 18:36:26.576	WT901BLE68-01(48591DE3C19B)	0.008	-1.033	0.229	-7.813	-1.221	0.183	-72.99	11.49	-78.83	-83.692	-59.878	22.834	-0.66171	0.40314	-0.43646	0.45718	31.1	13111	100
2025-3-27 18:36:26.576	WT901BLE68-01(48591DE3C19B)	0.008	-0.992	0.210	-5.798	8.850	-0.854	-73.08	11.49	-78.95	-83.692	-59.878	22.834	-0.66171	0.40314	-0.43646	0.45718	31.1	13111	100
2025-3-27 18:36:26.576	WT901BLE68-01(48591DE3C19B)	0.029	-0.992	0.210	-5.798	8.850	-0.854	-73.17	11.48	-79.07	-83.692	-59.878	22.834	-0.66171	0.40314	-0.43646	0.45718	31.1	13111	100
2025-3-27 18:36:26.576	WT901BLE68-01(48591DE3C19B)	0.029	-0.964	0.194	-4.333	22.583	-4.761	-73.28	11.46	-79.34	-83.692	-59.878	22.834	-0.66171	0.40314	-0.43646	0.45718	31.1	13111	100
2025-3-27 18:36:26.606	WT901BLE68-01(48591DE3C19B)	0.018	-0.964	0.194	-4.333	22.583	-4.761	-73.39	11.45	-79.60	-83.692	-59.878	22.834	-0.66171	0.40314	-0.43646	0.45718	31.1	13111	100
2025-3-27 18:36:26.606	WT901BLE68-01(48591DE3C19B)	0.018	-0.957	0.189	-2.136	36.621	-10.925	-73.52	11.41	-80.02	-83.692	-59.878	22.834	-0.66171	0.40314	-0.43646	0.45718	31.1	13111	100
2025-3-27 18:36:26.606	WT901BLE68-01(48591DE3C19B)	-0.014	-0.957	0.189	-2.136	36.621	-10.925	-73.64	11.37	-80.43	-83.692	-59.878	22.834	-0.66171	0.40314	-0.43646	0.45718	31.1	13111	100
2025-3-27 18:36:26.606	WT901BLE68-01(48591DE3C19B)	-0.014	-0.950	0.208	1.038	45.288	-17.395	-73.74	11.28	-80.95	-83.692	-59.878	22.834	-0.66171	0.40314	-0.43646	0.45718	31.1	13111	100
2025-3-27 18:36:26.667	WT901BLE68-01(48591DE3C19B)	-0.069	-0.950	0.208	1.038	45.288	-17.395	-73.85	11.20	-81.46	-83.692	-59.878	22.834	-0.66171	0.40314	-0.43646	0.45718	31.1	13111	100
2025-3-27 18:36:26.667	WT901BLE68-01(48591DE3C19B)	-0.069	-0.910	0.235	5.127	45.044	-22.461	-73.92	11.06	-81.98	-83.692	-59.878	22.834	-0.66171	0.40314	-0.43646	0.45718	31.1	13111	100
2025-3-27 18:36:26.667	WT901BLE68-01(48591DE3C19B)	-0.068	-0.910	0.235	5.127	45.044	-22.461	-73.98	10.93	-82.50	-83.692	-59.878	22.834	-0.66171	0.40314	-0.43646	0.45718	31.1	13111	100
2025-3-27 18:36:26.667	WT901BLE68-01(48591DE3C19B)	-0.068	-0.824	0.231	7.324	37.476	-26.428	-74.00	10.73	-82.95	-83.692	-59.878	22.834	-0.66171	0.40314	-0.43646	0.45718	31.1	13111	100
2025-3-27 18:36:26.695	WT901BLE68-01(48591DE3C19B)	-0.011	-0.824	0.231	7.324	37.476	-26.428	-74.03	10.54	-83.40	-83.692	-59.878	22.834	-0.66171	0.40314	-0.43646	0.45718	31.1	13111	100
2025-3-27 18:36:26.695	WT901BLE68-01(48591DE3C19B)	-0.011	-0.772	0.209	3.113	32.227	-29.968	-74.08	10.30	-83.81	-83.692	-59.878	22.834	-0.66171	0.40314	-0.43646	0.45718	31.1	13111	100
2025-3-27 18:36:26.695	WT901BLE68-01(48591DE3C19B)	-0.037	-0.772	0.209	3.113	32.227	-29.968	-74.14	10.06	-84.22	-83.692	-59.878	22.834	-0.66171	0.40314	-0.43646	0.45718	31.1	13111	100
2025-3-27 18:36:26.696	WT901BLE68-01(48591DE3C19B)	-0.037	-0.846	0.223	-6.836	28.931	-35.828	-74.28	9.76	-84.61	-83.692	-59.878	22.834	-0.66171	0.40314	-0.43646	0.45718	31.1	13111	100
2025-3-27 18:36:26.727	WT901BLE68-01(48591DE3C19B)	-0.169	-0.846	0.223	-6.836	28.931	-35.828	-74.42	9.45	-85.00	-83.692	-59.878	22.834	-0.66171	0.40314	-0.43646	0.45718	31.1	13111	100
2025-3-27 18:36:26.728	WT901BLE68-01(48591DE3C19B)	-0.169	-1.068	0.312	-15.869	15.137	-43.945	-74.63	9.04	-85.26	-83.692	-59.878	22.834	-0.66171	0.40314	-0.43646	0.45718	31.1	13111	100
2025-3-27 18:36:26.728	WT901BLE68-01(48591DE3C19B)	-0.281	-1.068	0.312	-15.869	15.137	-43.945	-74.83	8.62	-85.53	-83.692	-59.878	22.834	-0.66171	0.40314	-0.43646	0.45718	31.1	13111	100
2025-3-27 18:36:26.728	WT901BLE68-01(48591DE3C19B)	-0.281	-1.266	0.398	-15.198	-13.245	-51.392	-74.99	8.07	-85.55	-83.692	-59.878	22.834	-0.66171	0.40314	-0.43646	0.45718	31.1	13111	100
2025-3-27 18:36:26.790	WT901BLE68-01(48591DE3C19B)	-0.253	-1.266	0.398	-15.198	-13.245	-51.392	-75.14	7.53	-85.56	-83.692	-59.878	22.834	-0.66171	0.40314	-0.43646	0.45718	31.1	13111	100
2025-3-27 18:36:26.791	WT901BLE68-01(48591DE3C19B)	-0.253	-1.224	0.425	-8.850	-36.804	-55.542	-75.20	6.90	-85.35	-83.692	-59.878	22.834	-0.60629	0.41541	-0.44788	0.50906	31.1	13111	100
2025-3-27 18:36:26.791	WT901BLE68-01(48591DE3C19B)	-0.201	-1.224	0.425	-8.850	-36.804	-55.542	-75.26	6.27	-85.15	-83.692	-59.878	22.834	-0.60629	0.41541	-0.44788	0.50906	31.1	13111	100
2025-3-27 18:36:26.791	WT901BLE68-01(48591DE3C19B)	-0.201	-1.050	0.400	-6.958	-43.701	-57.068	-75.28	5.62	-84.89	-83.692	-59.878	22.834	-0.60629	0.41541	-0.44788	0.50906	31.1	13111	100
2025-3-27 18:36:26.847	WT901BLE68-01(48591DE3C19B)	-0.162	-1.050	0.400	-6.958	-43.701	-57.068	-75.32	4.97	-84.63	-83.692	-59.878	22.834	-0.60629	0.41541	-0.44788	0.50906	31.1	13111	100
2025-3-27 18:36:26.847	WT901BLE68-01(48591DE3C19B)	-0.162	-0.910	0.342	-8.179	-39.490	-59.082	-75.36	4.32	-84.42	-83.692	-59.878	22.834	-0.60629	0.41541	-0.44788	0.50906	31.1	13111	100
2025-3-27 18:36:26.847	WT901BLE68-01(48591DE3C19B)	-0.134	-0.910	0.342	-8.179	-39.490	-59.082	-75.41	3.67	-84.22	-83.692	-59.878	22.834	-0.60629	0.41541	-0.44788	0.50906	31.1	13111	100
2025-3-27 18:36:26.847	WT901BLE68-01(48591DE3C19B)	-0.134	-0.797	0.343	-8.240	-30.823	-59.692	-75.46	3.05	-84.09	-83.692	-59.878	22.834	-0.60629	0.41541	-0.44788	0.50906	31.1	13111	100
2025-3-27 18:36:26.848	WT901BLE68-01(48591DE3C19B)	-0.115	-0.797	0.343	-8.240	-30.823	-59.692	-75.51	2.43	-83.98	-83.692	-59.878	22.834	-0.60629	0.41541	-0.44788	0.50906	31.1	13111	100
2025-3-27 18:36:26.848	WT901BLE68-01(48591DE3C19B)	-0.115	-0.747	0.376	-10.376	-20.569	-60.120	-75.58	1.83	-83.97	-83.692	-59.878	22.834	-0.60629	0.41541	-0.44788	0.50906	31.1	13111	100
2025-3-27 18:36:26.848	WT901BLE68-01(48591DE3C19B)	-0.118	-0.747	0.376	-10.376	-20.569	-60.120	-75.65	1.24	-83.96	-83.692	-59.878	22.834	-0.60629	0.41541	-0.44788	0.50906	31.1	13111	100
2025-3-27 18:36:26.848	WT901BLE68-01(48591DE3C19B)	-0.193	-0.779	0.398	-10.498	-5.798	-59.753	-75.72	0.68	-84.10	-83.692	-59.878	22.834	-0.60629	0.41541	-0.44788	0.50906	31.1	13111	100
2025-3-27 18:36:26.906	WT901BLE68-01(48591DE3C19B)	-0.193	-0.818	0.396	-6.775	7.385	-58.411	-75.76	0.16	-84.30	-83.692	-59.878	22.834	-0.60629	0.41541	-0.44788	0.50906	31.1	13111	100
2025-3-27 18:36:26.906	WT901BLE68-01(48591DE3C19B)	-0.303	-0.818	0.396	-6.775	7.385	-58.411	-75.78	-0.34	-84.57	-83.692	-59.878	22.834	-0.60629	0.41541	-0.44788	0.50906	31.1	13111	100
2025-3-27 18:36:26.906	WT901BLE68-01(48591DE3C19B)	-0.303	-0.852	0.390	-4.883	7.996	-56.519	-75.79	-0.82	-84.84	-83.692	-59.878	22.834	-0.60629	0.41541	-0.44788	0.50906	31.1	13111	100
2025-3-27 18:36:26.906	WT901BLE68-01(48591DE3C19B)	-0.392	-0.852	0.390	-4.883	7.996	-56.519	-75.78	-1.29	-85.11	-83.692	-59.878	22.834	-0.60629	0.41541	-0.44788	0.50906	31.1	13111	100
2025-3-27 18:36:26.938	WT901BLE68-01(48591DE3C19B)	-0.392	-0.926	0.422	-4.211	0.000	-54.016	-75.77	-1.74	-85.34	-83.692	-59.878	22.834	-0.60629	0.41541	-0.44788	0.50906	31.1	13111	100
2025-3-27 18:36:26.938	WT901BLE68-01(48591DE3C19B)	-0.463	-0.926	0.422	-4.211	0.000	-54.016	-75.76	-2.19	-85.53	-83.692	-59.878	22.834	-0.60629	0.41541	-0.44788	0.50906	31.1	13111	100
2025-3-27 18:36:26.938	WT901BLE68-01(48591DE3C19B)	-0.463	-1.032	0.484	-3.784	-15.381	-49.744	-75.73	-2.62	-85.65	-83.692	-59.878	22.834	-0.60629	0.41541	-0.44788	0.50906	31.1	13111	100
2025-3-27 18:36:26.938	WT901BLE68-01(48591DE3C19B)	-0.499	-1.032	0.484	-3.784	-15.381	-49.744	-75.71	-3.04	-85.69	-83.692	-59.878	22.834	-0.60629	0.41541	-0.44788	0.50906	31.1	13111	100
2025-3-27 18:36:26.996	WT901BLE68-01(48591DE3C19B)	-0.499	-1.162	0.529	-2.930	-30.579	-44.189	-75.69	-3.45	-85.65	-83.692	-59.878	22.834	-0.60629	0.41541	-0.44788	0.50906	31.1	13111	100
2025-3-27 18:36:26.996	WT901BLE68-01(48591DE3C19B)	-0.486	-1.162	0.529	-2.930	-30.579	-44.189	-75.67	-3.84	-85.54	-83.692	-59.878	22.834	-0.60629	0.41541	-0.44788	0.50906	31.1	13111	100
2025-3-27 18:36:26.996	WT901BLE68-01(48591DE3C19B)	-0.486	-1.235	0.528	-0.366	-39.612	-37.170	-75.64	-4.21	-85.38	-74.970	-65.366	21.266	-0.60629	0.41541	-0.44788	0.50906	31.1	13111	100
2025-3-27 18:36:26.996	WT901BLE68-01(48591DE3C19B)	-0.441	-1.235	0.528	-0.366	-39.612	-37.170	-75.59	-4.54	-85.17	-74.970	-65.366	21.266	-0.60629	0.41541	-0.44788	0.50906	31.1	13111	100
2025-3-27 18:36:27.25	WT901BLE68-01(48591DE3C19B)	-0.441	-1.249	0.501	0.916	-35.156	-28.381	-75.55	-4.83	-84.97	-74.970	-65.366	21.266	-0.60629	0.41541	-0.44788	0.50906	31.1	13111	100
2025-3-27 18:36:27.26	WT901BLE68-01(48591DE3C19B)	-0.411	-1.249	0.501	0.916	-35.156	-28.381	-75.49	-5.06	-84.78	-74.970	-65.366	21.266	-0.60629	0.41541	-0.44788	0.50906	31.1	13111	100
2025-3-27 18:36:27.26	WT901BLE68-01(48591DE3C19B)	-0.411	-1.256	0.459	0.305	-19.592	-17.700	-75.44	-5.23	-84.66	-74.970	-65.366	21.266	-0.60629	0.41541	-0.44788	0.50906	31.1	13111	100
2025-3-27 18:36:27.26	WT901BLE68-01(48591DE3C19B)	-0.401	-1.256	0.459	0.305	-19.592	-17.700	-75.39	-5.32	-84.59	-74.970	-65.366	21.266	-0.60629	0.41541	-0.44788	0.50906	31.1	13111	100
2025-3-27 18:36:27.56	WT901BLE68-01(48591DE3C19B)	-0.401	-1.300	0.412	-3.052	-0.916	-6.042	-75.35	-5.33	-84.61	-74.970	-65.366	21.266	-0.60629	0.41541	-0.44788	0.50906	31.1	13111	100
2025-3-27 18:36:27.56	WT901BLE68-01(48591DE3C19B)	-0.421	-1.300	0.412	-3.052	-0.916	-6.042	-75.32	-5.26	-84.69	-74.970	-65.366	21.266	-0.60629	0.41541	-0.44788	0.50906	31.1	13111	100
2025-3-27 18:36:27.56	WT901BLE68-01(48591DE3C19B)	-0.421	-1.394	0.340	-10.132	9.583	6.714	-75.33	-5.12	-84.80	-74.970	-65.366	21.266	-0.60629	0.41541	-0.44788	0.50906	31.1	13111	100
2025-3-27 18:36:27.56	WT901BLE68-01(48591DE3C19B)	-0.446	-1.394	0.340	-10.132	9.583	6.714	-75.38	-4.91	-84.94	-74.970	-65.366	21.266	-0.60629	0.41541	-0.44788	0.50906	31.1	13111	100
2025-3-27 18:36:27.146	WT901BLE68-01(48591DE3C19B)	-0.446	-1.472	0.331	-13.367	9.155	20.386	-75.46	-4.63	-85.05	-74.970	-65.366	21.266	-0.60629	0.41541	-0.44788	0.50906	31.1	13111	100
2025-3-27 18:36:27.147	WT901BLE68-01(48591DE3C19B)	-0.440	-1.472	0.331	-13.367	9.155	20.386	-75.55	-4.28	-85.14	-74.970	-65.366	21.266	-0.60629	0.41541	-0.44788	0.50906	31.1	13111	100
2025-3-27 18:36:27.147	WT901BLE68-01(48591DE3C19B)	-0.440	-1.418	0.380	-12.573	-4.150	36.926	-75.66	-3.87	-85.14	-74.970	-65.366	21.266	-0.60629	0.41541	-0.44788	0.50906	31.1	13111	100
2025-3-27 18:36:27.147	WT901BLE68-01(48591DE3C19B)	-0.354	-1.418	0.380	-12.573	-4.150	36.926	-75.76	-3.40	-85.05	-74.970	-65.366	21.266	-0.60629	0.41541	-0.44788	0.50906	31.1	13111	100
2025-3-27 18:36:27.148	WT901BLE68-01(48591DE3C19B)	-0.354	-1.296	0.364	-12.268	-13.000	52.795	-75.87	-2.87	-84.91	-74.970	-65.366	21.266	-0.60629	0.41541	-0.44788	0.50906	31.1	13111	100
2025-3-27 18:36:27.148	WT901BLE68-01(48591DE3C19B)	-0.290	-1.296	0.364	-12.268	-13.000	52.795	-75.98	-2.28	-84.70	-74.970	-65.366	21.266	-0.60629	0.41541	-0.44788	0.50906	31.1	13111	100
2025-3-27 18:36:27.148	WT901BLE68-01(48591DE3C19B)	-0.290	-1.093	0.314	-7.996	-11.230	70.435	-76.06	-1.60	-84.48	-74.970	-65.366	21.266	-0.60629	0.41541	-0.44788	0.50906	31.1	13111	100
2025-3-27 18:36:27.148	WT901BLE68-01(48591DE3C19B)	-0.238	-1.093	0.314	-7.996	-11.230	70.435	-76.12	-0.84	-84.26	-74.970	-65.366	21.266	-0.58261	0.45987	-0.41083	0.52933	31.1	13111	100
2025-3-27 18:36:27.178	WT901BLE68-01(48591DE3C19B)	-0.238	-0.826	0.240	-5.981	-9.216	87.524	-76.16	-0.01	-84.02	-74.970	-65.366	21.266	-0.58261	0.45987	-0.41083	0.52933	31.1	13111	100
2025-3-27 18:36:27.178	WT901BLE68-01(48591DE3C19B)	-0.158	-0.826	0.240	-5.981	-9.216	87.524	-76.20	0.91	-83.78	-74.970	-65.366	21.266	-0.58261	0.45987	-0.41083	0.52933	31.1	13111	100
2025-3-27 18:36:27.178	WT901BLE68-01(48591DE3C19B)	-0.158	-0.633	0.176	-9.949	-6.897	100.647	-76.24	1.89	-83.54	-74.970	-65.366	21.266	-0.58261	0.45987	-0.41083	0.52933	31.1	13111	100
2025-3-27 18:36:27.178	WT901BLE68-01(48591DE3C19B)	-0.115	-0.633	0.176	-9.949	-6.897	100.647	-76.31	2.93	-83.30	-74.970	-65.366	21.266	-0.58261	0.45987	-0.41083	0.52933	31.1	13111	100
2025-3-27 18:36:27.236	WT901BLE68-01(48591DE3C19B)	-0.115	-0.569	0.137	-13.550	-4.150	107.422	-76.38	3.99	-83.06	-74.970	-65.366	21.266	-0.58261	0.45987	-0.41083	0.52933	31.1	13111	100
2025-3-27 18:36:27.237	WT901BLE68-01(48591DE3C19B)	-0.184	-0.569	0.137	-13.550	-4.150	107.422	-76.46	5.09	-82.84	-74.970	-65.366	21.266	-0.58261	0.45987	-0.41083	0.52933	31.1	13111	100
2025-3-27 18:36:27.237	WT901BLE68-01(48591DE3C19B)	-0.184	-0.624	0.113	-16.724	-12.024	109.558	-76.56	6.18	-82.57	-74.970	-65.366	21.266	-0.58261	0.45987	-0.41083	0.52933	31.1	13111	100
2025-3-27 18:36:27.237	WT901BLE68-01(48591DE3C19B)	-0.241	-0.624	0.113	-16.724	-12.024	109.558	-76.66	7.27	-82.27	-74.970	-65.366	21.266	-0.58261	0.45987	-0.41083	0.52933	31.1	13111	100
2025-3-27 18:36:27.265	WT901BLE68-01(48591DE3C19B)	-0.241	-0.797	0.079	-16.235	-30.518	107.117	-76.75	8.32	-81.88	-74.970	-65.366	21.266	-0.58261	0.45987	-0.41083	0.52933	31.1	13111	100
2025-3-27 18:36:27.265	WT901BLE68-01(48591DE3C19B)	-0.261	-0.797	0.079	-16.235	-30.518	107.117	-76.82	9.33	-81.40	-74.970	-65.366	21.266	-0.58261	0.45987	-0.41083	0.52933	31.1	13111	100
2025-3-27 18:36:27.266	WT901BLE68-01(48591DE3C19B)	-0.261	-0.893	0.056	-5.615	-46.814	104.248	-76.81	10.30	-80.84	-74.970	-65.366	21.266	-0.58261	0.45987	-0.41083	0.52933	31.1	13111	100
2025-3-27 18:36:27.266	WT901BLE68-01(48591DE3C19B)	-0.253	-0.893	0.056	-5.615	-46.814	104.248	-76.73	11.24	-80.20	-74.970	-65.366	21.266	-0.58261	0.45987	-0.41083	0.52933	31.1	13111	100
2025-3-27 18:36:27.296	WT901BLE68-01(48591DE3C19B)	-0.253	-0.900	0.039	4.395	-57.800	100.830	-76.59	12.14	-79.51	-74.970	-65.366	21.266	-0.58261	0.45987	-0.41083	0.52933	31.1	13111	100
2025-3-27 18:36:27.296	WT901BLE68-01(48591DE3C19B)	-0.244	-0.900	0.039	4.395	-57.800	100.830	-76.38	13.00	-78.76	-74.970	-65.366	21.266	-0.58261	0.45987	-0.41083	0.52933	31.1	13111	100
2025-3-27 18:36:27.296	WT901BLE68-01(48591DE3C19B)	-0.244	-0.917	0.036	9.583	-67.200	98.938	-76.13	13.84	-77.96	-74.970	-65.366	21.266	-0.58261	0.45987	-0.41083	0.52933	31.1	13111	100
2025-3-27 18:36:27.296	WT901BLE68-01(48591DE3C19B)	-0.191	-0.917	0.036	9.583	-67.200	98.938	-75.84	14.65	-77.12	-74.970	-65.366	21.266	-0.58261	0.45987	-0.41083	0.52933	31.1	13111	100
2025-3-27 18:36:27.356	WT901BLE68-01(48591DE3C19B)	-0.191	-0.973	0.019	13.184	-71.289	100.281	-75.51	15.45	-76.25	-74.970	-65.366	21.266	-0.58261	0.45987	-0.41083	0.52933	31.1	13111	100
2025-3-27 18:36:27.356	WT901BLE68-01(48591DE3C19B)	-0.096	-0.973	0.019	13.184	-71.289	100.281	-75.15	16.24	-75.35	-74.970	-65.366	21.266	-0.58261	0.45987	-0.41083	0.52933	31.1	13111	100
2025-3-27 18:36:27.356	WT901BLE68-01(48591DE3C19B)	-0.096	-0.897	0.010	16.907	-65.186	103.088	-74.77	17.03	-74.47	-74.970	-65.366	21.266	-0.58261	0.45987	-0.41083	0.52933	31.1	13111	100
2025-3-27 18:36:27.357	WT901BLE68-01(48591DE3C19B)	0.006	-0.897	0.010	16.907	-65.186	103.088	-74.38	17.84	-73.61	-74.970	-65.366	21.266	-0.58261	0.45987	-0.41083	0.52933	31.1	13111	100
2025-3-27 18:36:27.390	WT901BLE68-01(48591DE3C19B)	0.006	-0.886	0.025	9.705	-54.016	105.835	-74.08	18.68	-72.86	-89.964	-51.254	7.644	-0.58261	0.45987	-0.41083	0.52933	31.1	13111	100
2025-3-27 18:36:27.390	WT901BLE68-01(48591DE3C19B)	0.033	-0.886	0.025	9.705	-54.016	105.835	-73.77	19.51	-72.10	-89.964	-51.254	7.644	-0.58261	0.45987	-0.41083	0.52933	31.1	13111	100
2025-3-27 18:36:27.390	WT901BLE68-01(48591DE3C19B)	0.033	-1.010	0.013	2.563	-40.161	107.910	-73.58	20.39	-71.48	-89.964	-51.254	7.644	-0.58261	0.45987	-0.41083	0.52933	31.1	13111	100
2025-3-27 18:36:27.390	WT901BLE68-01(48591DE3C19B)	0.064	-1.010	0.013	2.563	-40.161	107.910	-73.37	21.24	-70.85	-89.964	-51.254	7.644	-0.58261	0.45987	-0.41083	0.52933	31.1	13111	100
2025-3-27 18:36:27.418	WT901BLE68-01(48591DE3C19B)	0.064	-1.125	0.003	-5.798	-30.579	106.995	-73.28	22.10	-70.32	-89.964	-51.254	7.644	-0.58261	0.45987	-0.41083	0.52933	31.1	13111	100
2025-3-27 18:36:27.418	WT901BLE68-01(48591DE3C19B)	0.109	-1.125	0.003	-5.798	-30.579	106.995	-73.19	22.96	-69.79	-89.964	-51.254	7.644	-0.58261	0.45987	-0.41083	0.52933	31.1	13111	100
2025-3-27 18:36:27.419	WT901BLE68-01(48591DE3C19B)	0.109	-1.288	0.009	-16.663	-21.118	103.699	-73.24	23.79	-69.37	-89.964	-51.254	7.644	-0.58261	0.45987	-0.41083	0.52933	31.1	13111	100
2025-3-27 18:36:27.419	WT901BLE68-01(48591DE3C19B)	0.095	-1.288	0.009	-16.663	-21.118	103.699	-73.29	24.61	-68.96	-89.964	-51.254	7.644	-0.58261	0.45987	-0.41083	0.52933	31.1	13111	100
2025-3-27 18:36:27.476	WT901BLE68-01(48591DE3C19B)	0.095	-1.556	-0.003	-28.259	-16.174	95.581	-73.49	25.37	-68.63	-89.964	-51.254	7.644	-0.58261	0.45987	-0.41083	0.52933	31.1	13111	100
2025-3-27 18:36:27.476	WT901BLE68-01(48591DE3C19B)	0.092	-1.556	-0.003	-28.259	-16.174	95.581	-73.68	26.11	-68.30	-89.964	-51.254	7.644	-0.58261	0.45987	-0.41083	0.52933	31.1	13111	100
2025-3-27 18:36:27.477	WT901BLE68-01(48591DE3C19B)	0.092	-1.827	-0.001	-29.358	-19.348	79.529	-73.89	26.69	-67.99	-89.964	-51.254	7.644	-0.58261	0.45987	-0.41083	0.52933	31.1	13111	100
2025-3-27 18:36:27.477	WT901BLE68-01(48591DE3C19B)	0.152	-1.827	-0.001	-29.358	-19.348	79.529	-74.10	27.26	-67.69	-89.964	-51.254	7.644	-0.58261	0.45987	-0.41083	0.52933	31.1	13111	100
2025-3-27 18:36:27.505	WT901BLE68-01(48591DE3C19B)	0.152	-1.803	0.060	-16.479	-29.419	56.763	-74.16	27.58	-67.35	-89.964	-51.254	7.644	-0.58261	0.45987	-0.41083	0.52933	31.1	13111	100
2025-3-27 18:36:27.505	WT901BLE68-01(48591DE3C19B)	0.264	-1.803	0.060	-16.479	-29.419	56.763	-74.22	27.89	-67.01	-89.964	-51.254	7.644	-0.58261	0.45987	-0.41083	0.52933	31.1	13111	100
2025-3-27 18:36:27.505	WT901BLE68-01(48591DE3C19B)	0.264	-1.625	0.142	-10.986	-37.842	26.733	-74.22	27.89	-66.67	-89.964	-51.254	7.644	-0.58261	0.45987	-0.41083	0.52933	31.1	13111	100
2025-3-27 18:36:27.506	WT901BLE68-01(48591DE3C19B)	0.333	-1.625	0.142	-10.986	-37.842	26.733	-74.23	27.88	-66.33	-89.964	-51.254	7.644	-0.58261	0.45987	-0.41083	0.52933	31.1	13111	100
2025-3-27 18:36:27.538	WT901BLE68-01(48591DE3C19B)	0.333	-1.488	0.173	-5.920	-27.283	-5.737	-74.28	27.59	-66.21	-89.964	-51.254	7.644	-0.58261	0.45987	-0.41083	0.52933	31.1	13111	100
2025-3-27 18:36:27.539	WT901BLE68-01(48591DE3C19B)	0.312	-1.488	0.173	-5.920	-27.283	-5.737	-74.33	27.28	-66.08	-89.964	-51.254	7.644	-0.58261	0.45987	-0.41083	0.52933	31.1	13111	100
2025-3-27 18:36:27.539	WT901BLE68-01(48591DE3C19B)	0.312	-1.393	0.134	-1.648	0.854	-35.767	-74.51	26.77	-66.35	-89.964	-51.254	7.644	-0.58261	0.45987	-0.41083	0.52933	31.1	13111	100
2025-3-27 18:36:27.539	WT901BLE68-01(48591DE3C19B)	0.268	-1.393	0.134	-1.648	0.854	-35.767	-74.70	26.25	-66.62	-89.964	-51.254	7.644	-0.58261	0.45987	-0.41083	0.52933	31.1	13111	100
2025-3-27 18:36:27.596	WT901BLE68-01(48591DE3C19B)	0.268	-1.338	0.096	5.249	35.461	-63.416	-75.00	25.55	-67.34	-89.964	-51.254	7.644	-0.58261	0.45987	-0.41083	0.52933	31.1	13111	100
2025-3-27 18:36:27.596	WT901BLE68-01(48591DE3C19B)	0.224	-1.338	0.096	5.249	35.461	-63.416	-75.30	24.86	-68.05	-89.964	-51.254	7.644	-0.71130	0.39981	-0.47543	0.32867	31.1	13111	100
2025-3-27 18:36:27.596	WT901BLE68-01(48591DE3C19B)	0.224	-1.326	-0.000	14.099	68.909	-89.233	-75.67	24.00	-69.19	-89.964	-51.254	7.644	-0.71130	0.39981	-0.47543	0.32867	31.1	13111	100
2025-3-27 18:36:27.596	WT901BLE68-01(48591DE3C19B)	0.145	-1.326	-0.000	14.099	68.909	-89.233	-76.02	23.13	-70.31	-89.964	-51.254	7.644	-0.71130	0.39981	-0.47543	0.32867	31.1	13111	100
2025-3-27 18:36:27.625	WT901BLE68-01(48591DE3C19B)	0.145	-1.190	-0.055	26.062	87.219	-106.995	-76.32	22.14	-71.64	-89.964	-51.254	7.644	-0.71130	0.39981	-0.47543	0.32867	31.1	13111	100
2025-3-27 18:36:27.626	WT901BLE68-01(48591DE3C19B)	0.018	-1.190	-0.055	26.062	87.219	-106.995	-76.60	21.14	-72.95	-89.964	-51.254	7.644	-0.71130	0.39981	-0.47543	0.32867	31.1	13111	100
2025-3-27 18:36:27.626	WT901BLE68-01(48591DE3C19B)	0.018	-1.037	-0.022	26.001	86.975	-120.422	-76.85	20.02	-74.27	-89.964	-51.254	7.644	-0.71130	0.39981	-0.47543	0.32867	31.1	13111	100
2025-3-27 18:36:27.626	WT901BLE68-01(48591DE3C19B)	-0.100	-1.037	-0.022	26.001	86.975	-120.422	-77.09	18.90	-75.57	-89.964	-51.254	7.644	-0.71130	0.39981	-0.47543	0.32867	31.1	13111	100
2025-3-27 18:36:27.655	WT901BLE68-01(48591DE3C19B)	-0.100	-0.948	0.054	23.254	69.885	-131.042	-77.26	17.65	-76.70	-89.964	-51.254	7.644	-0.71130	0.39981	-0.47543	0.32867	31.1	13111	100
2025-3-27 18:36:27.655	WT901BLE68-01(48591DE3C19B)	-0.196	-0.948	0.054	23.254	69.885	-131.042	-77.41	16.40	-77.80	-89.964	-51.254	7.644	-0.71130	0.39981	-0.47543	0.32867	31.1	13111	100
2025-3-27 18:36:27.655	WT901BLE68-01(48591DE3C19B)	-0.196	-0.824	0.156	17.151	46.692	-133.179	-77.53	15.10	-78.66	-89.964	-51.254	7.644	-0.71130	0.39981	-0.47543	0.32867	31.1	13111	100
2025-3-27 18:36:27.655	WT901BLE68-01(48591DE3C19B)	-0.245	-0.824	0.156	17.151	46.692	-133.179	-77.61	13.80	-79.51	-89.964	-51.254	7.644	-0.71130	0.39981	-0.47543	0.32867	31.1	13111	100
2025-3-27 18:36:27.716	WT901BLE68-01(48591DE3C19B)	-0.245	-0.756	0.230	6.836	22.095	-129.028	-77.72	12.51	-80.10	-89.964	-51.254	7.644	-0.71130	0.39981	-0.47543	0.32867	31.1	13111	100
2025-3-27 18:36:27.716	WT901BLE68-01(48591DE3C19B)	-0.244	-0.756	0.230	6.836	22.095	-129.028	-77.81	11.23	-80.67	-89.964	-51.254	7.644	-0.71130	0.39981	-0.47543	0.32867	31.1	13111	100
2025-3-27 18:36:27.716	WT901BLE68-01(48591DE3C19B)	-0.244	-0.779	0.241	-2.808	-2.502	-125.977	-77.93	9.95	-81.00	-89.964	-51.254	7.644	-0.71130	0.39981	-0.47543	0.32867	31.1	13111	100
2025-3-27 18:36:27.716	WT901BLE68-01(48591DE3C19B)	-0.233	-0.779	0.241	-2.808	-2.502	-125.977	-78.03	8.68	-81.32	-89.964	-51.254	7.644	-0.71130	0.39981	-0.47543	0.32867	31.1	13111	100
2025-3-27 18:36:27.746	WT901BLE68-01(48591DE3C19B)	-0.233	-0.816	0.230	-8.728	-21.118	-120.667	-78.16	7.43	-81.43	-89.964	-51.254	7.644	-0.71130	0.39981	-0.47543	0.32867	31.1	13111	100
2025-3-27 18:36:27.746	WT901BLE68-01(48591DE3C19B)	-0.251	-0.816	0.230	-8.728	-21.118	-120.667	-78.27	6.20	-81.55	-89.964	-51.254	7.644	-0.71130	0.39981	-0.47543	0.32867	31.1	13111	100
2025-3-27 18:36:27.746	WT901BLE68-01(48591DE3C19B)	-0.251	-0.840	0.225	-10.620	-34.546	-115.051	-78.39	5.00	-81.52	-89.964	-51.254	7.644	-0.71130	0.39981	-0.47543	0.32867	31.1	13111	100
2025-3-27 18:36:27.746	WT901BLE68-01(48591DE3C19B)	-0.228	-0.840	0.225	-10.620	-34.546	-115.051	-78.50	3.83	-81.50	-89.964	-51.254	7.644	-0.71130	0.39981	-0.47543	0.32867	31.1	13111	100
2025-3-27 18:36:27.776	WT901BLE68-01(48591DE3C19B)	-0.228	-0.793	0.208	-10.071	-40.344	-110.352	-78.60	2.69	-81.40	-89.964	-51.254	7.644	-0.71130	0.39981	-0.47543	0.32867	31.1	13111	100
2025-3-27 18:36:27.776	WT901BLE68-01(48591DE3C19B)	-0.188	-0.793	0.208	-10.071	-40.344	-110.352	-78.69	1.57	-81.31	-89.964	-51.254	7.644	-0.71130	0.39981	-0.47543	0.32867	31.1	13111	100
2025-3-27 18:36:27.776	WT901BLE68-01(48591DE3C19B)	-0.188	-0.712	0.221	-10.742	-33.142	-106.750	-78.79	0.51	-81.28	-86.828	-51.450	1.274	-0.71130	0.39981	-0.47543	0.32867	31.1	13111	100
2025-3-27 18:36:27.776	WT901BLE68-01(48591DE3C19B)	-0.167	-0.712	0.221	-10.742	-33.142	-106.750	-78.89	-0.54	-81.25	-86.828	-51.450	1.274	-0.71130	0.39981	-0.47543	0.32867	31.1	13111	100
2025-3-27 18:36:27.836	WT901BLE68-01(48591DE3C19B)	-0.183	-0.673	0.237	-12.695	-14.832	-103.394	-79.01	-1.52	-81.40	-86.828	-51.450	1.274	-0.71130	0.39981	-0.47543	0.32867	31.1	13111	100
2025-3-27 18:36:27.836	WT901BLE68-01(48591DE3C19B)	-0.183	-0.657	0.263	-11.780	6.348	-100.403	-79.11	-2.46	-81.64	-86.828	-51.450	1.274	-0.71130	0.39981	-0.47543	0.32867	31.1	13111	100
2025-3-27 18:36:27.836	WT901BLE68-01(48591DE3C19B)	-0.248	-0.657	0.263	-11.780	6.348	-100.403	-79.18	-3.36	-81.99	-86.828	-51.450	1.274	-0.71130	0.39981	-0.47543	0.32867	31.1	13111	100
2025-3-27 18:36:27.836	WT901BLE68-01(48591DE3C19B)	-0.248	-0.650	0.303	-10.071	18.921	-97.290	-79.24	-4.22	-82.40	-86.828	-51.450	1.274	-0.71130	0.39981	-0.47543	0.32867	31.1	13111	100
2025-3-27 18:36:27.865	WT901BLE68-01(48591DE3C19B)	-0.317	-0.650	0.303	-10.071	18.921	-97.290	-79.28	-5.05	-82.87	-86.828	-51.450	1.274	-0.71130	0.39981	-0.47543	0.32867	31.1	13111	100
2025-3-27 18:36:27.865	WT901BLE68-01(48591DE3C19B)	-0.317	-0.657	0.338	-10.132	17.395	-94.971	-79.29	-5.86	-83.34	-86.828	-51.450	1.274	-0.71130	0.39981	-0.47543	0.32867	31.1	13111	100
2025-3-27 18:36:27.865	WT901BLE68-01(48591DE3C19B)	-0.342	-0.657	0.338	-10.132	17.395	-94.971	-79.30	-6.65	-83.80	-86.828	-51.450	1.274	-0.71130	0.39981	-0.47543	0.32867	31.1	13111	100
2025-3-27 18:36:27.865	WT901BLE68-01(48591DE3C19B)	-0.342	-0.705	0.390	-9.521	11.169	-92.346	-79.30	-7.42	-84.23	-86.828	-51.450	1.274	-0.71130	0.39981	-0.47543	0.32867	31.1	13111	100
2025-3-27 18:36:27.895	WT901BLE68-01(48591DE3C19B)	-0.366	-0.705	0.390	-9.521	11.169	-92.346	-79.28	-8.18	-84.64	-86.828	-51.450	1.274	-0.71130	0.39981	-0.47543	0.32867	31.1	13111	100
2025-3-27 18:36:27.895	WT901BLE68-01(48591DE3C19B)	-0.366	-0.815	0.414	-8.301	7.019	-87.341	-79.26	-8.92	-85.03	-86.828	-51.450	1.274	-0.71130	0.39981	-0.47543	0.32867	31.1	13111	100
2025-3-27 18:36:27.895	WT901BLE68-01(48591DE3C19B)	-0.382	-0.815	0.414	-8.301	7.019	-87.341	-79.21	-9.62	-85.41	-86.828	-51.450	1.274	-0.71130	0.39981	-0.47543	0.32867	31.1	13111	100
2025-3-27 18:36:27.895	WT901BLE68-01(48591DE3C19B)	-0.382	-0.949	0.335	-11.536	9.583	-81.543	-79.18	-10.28	-85.79	-86.828	-51.450	1.274	-0.71130	0.39981	-0.47543	0.32867	31.1	13111	100
2025-3-27 18:36:27.956	WT901BLE68-01(48591DE3C19B)	-0.384	-0.949	0.335	-11.536	9.583	-81.543	-79.16	-10.91	-86.19	-86.828	-51.450	1.274	-0.71130	0.39981	-0.47543	0.32867	31.1	13111	100
2025-3-27 18:36:27.956	WT901BLE68-01(48591DE3C19B)	-0.384	-1.129	0.329	-15.869	22.766	-72.021	-79.14	-11.48	-86.64	-86.828	-51.450	1.274	-0.71130	0.39981	-0.47543	0.32867	31.1	13111	100
2025-3-27 18:36:27.956	WT901BLE68-01(48591DE3C19B)	-0.449	-1.129	0.329	-15.869	22.766	-72.021	-79.14	-11.98	-87.14	-86.828	-51.450	1.274	-0.71130	0.39981	-0.47543	0.32867	31.1	13111	100
2025-3-27 18:36:27.956	WT901BLE68-01(48591DE3C19B)	-0.449	-1.430	0.466	-16.541	37.048	-54.260	-79.12	-12.37	-87.70	-86.828	-51.450	1.274	-0.71130	0.39981	-0.47543	0.32867	31.1	13111	100
2025-3-27 18:36:27.990	WT901BLE68-01(48591DE3C19B)	-0.563	-1.430	0.466	-16.541	37.048	-54.260	-79.11	-12.66	-88.30	-86.828	-51.450	1.274	-0.50085	0.51331	-0.37982	0.58417	31.1	13111	100
2025-3-27 18:36:27.991	WT901BLE68-01(48591DE3C19B)	-0.563	-1.718	0.541	-9.033	45.288	-30.334	-79.04	-12.83	-88.93	-86.828	-51.450	1.274	-0.50085	0.51331	-0.37982	0.58417	31.1	13111	100
2025-3-27 18:36:27.991	WT901BLE68-01(48591DE3C19B)	-0.571	-1.718	0.541	-9.033	45.288	-30.334	-78.94	-12.87	-89.57	-86.828	-51.450	1.274	-0.50085	0.51331	-0.37982	0.58417	31.1	13111	100
2025-3-27 18:36:27.991	WT901BLE68-01(48591DE3C19B)	-0.571	-1.758	0.496	5.310	56.702	2.563	-78.76	-12.74	-90.23	-86.828	-51.450	1.274	-0.50085	0.51331	-0.37982	0.58417	31.1	13111	100
2025-3-27 18:36:28.16	WT901BLE68-01(48591DE3C19B)	-0.523	-1.758	0.496	5.310	56.702	2.563	-78.52	-12.43	-90.91	-86.828	-51.450	1.274	-0.50085	0.51331	-0.37982	0.58417	31.1	13111	100
2025-3-27 18:36:28.16	WT901BLE68-01(48591DE3C19B)	-0.523	-1.377	0.424	16.235	72.388	33.264	-78.22	-11.96	-91.63	-86.828	-51.450	1.274	-0.50085	0.51331	-0.37982	0.58417	31.1	13111	100
2025-3-27 18:36:28.16	WT901BLE68-01(48591DE3C19B)	-0.456	-1.377	0.424	16.235	72.388	33.264	-77.86	-11.32	-92.40	-86.828	-51.450	1.274	-0.50085	0.51331	-0.37982	0.58417	31.1	13111	100
2025-3-27 18:36:28.16	WT901BLE68-01(48591DE3C19B)	-0.456	-1.023	0.378	4.089	84.045	61.584	-77.57	-10.52	-93.18	-86.828	-51.450	1.274	-0.50085	0.51331	-0.37982	0.58417	31.1	13111	100
2025-3-27 18:36:28.75	WT901BLE68-01(48591DE3C19B)	-0.457	-1.023	0.378	4.089	84.045	61.584	-77.35	-9.57	-93.98	-86.828	-51.450	1.274	-0.50085	0.51331	-0.37982	0.58417	31.1	13111	100
2025-3-27 18:36:28.75	WT901BLE68-01(48591DE3C19B)	-0.457	-0.891	0.378	-8.789	88.257	84.534	-77.21	-8.51	-94.78	-86.828	-51.450	1.274	-0.50085	0.51331	-0.37982	0.58417	31.1	13111	100
2025-3-27 18:36:28.75	WT901BLE68-01(48591DE3C19B)	-0.529	-0.891	0.378	-8.789	88.257	84.534	-77.15	-7.34	-95.56	-86.828	-51.450	1.274	-0.50085	0.51331	-0.37982	0.58417	31.1	13111	100
2025-3-27 18:36:28.76	WT901BLE68-01(48591DE3C19B)	-0.529	-0.894	0.348	-14.893	70.496	103.638	-77.14	-6.10	-96.24	-86.828	-51.450	1.274	-0.50085	0.51331	-0.37982	0.58417	31.1	13111	100
2025-3-27 18:36:28.105	WT901BLE68-01(48591DE3C19B)	-0.537	-0.894	0.348	-14.893	70.496	103.638	-77.18	-4.78	-96.81	-86.828	-51.450	1.274	-0.50085	0.51331	-0.37982	0.58417	31.1	13111	100
2025-3-27 18:36:28.105	WT901BLE68-01(48591DE3C19B)	-0.537	-0.827	0.261	-14.160	40.283	114.990	-77.24	-3.45	-97.23	-86.828	-51.450	1.274	-0.50085	0.51331	-0.37982	0.58417	31.1	13111	100
2025-3-27 18:36:28.106	WT901BLE68-01(48591DE3C19B)	-0.543	-0.827	0.261	-14.160	40.283	114.990	-77.32	-2.10	-97.48	-86.828	-51.450	1.274	-0.50085	0.51331	-0.37982	0.58417	31.1	13111	100
2025-3-27 18:36:28.106	WT901BLE68-01(48591DE3C19B)	-0.543	-0.808	0.168	-16.602	7.202	123.047	-77.41	-0.75	-97.58	-86.828	-51.450	1.274	-0.50085	0.51331	-0.37982	0.58417	31.1	13111	100
2025-3-27 18:36:28.165	WT901BLE68-01(48591DE3C19B)	-0.577	-0.808	0.168	-16.602	7.202	123.047	-77.52	0.59	-97.50	-86.828	-51.450	1.274	-0.50085	0.51331	-0.37982	0.58417	31.1	13111	100
2025-3-27 18:36:28.165	WT901BLE68-01(48591DE3C19B)	-0.577	-0.965	0.067	-18.127	-24.231	129.822	-77.63	1.94	-97.26	-86.828	-51.450	1.274	-0.50085	0.51331	-0.37982	0.58417	31.1	13111	100
2025-3-27 18:36:28.165	WT901BLE68-01(48591DE3C19B)	-0.521	-0.965	0.067	-18.127	-24.231	129.822	-77.74	3.28	-96.87	-86.828	-51.450	1.274	-0.50085	0.51331	-0.37982	0.58417	31.1	13111	100
2025-3-27 18:36:28.166	WT901BLE68-01(48591DE3C19B)	-0.521	-1.038	-0.009	-10.010	-57.983	138.855	-77.79	4.64	-96.30	-86.828	-51.450	1.274	-0.50085	0.51331	-0.37982	0.58417	31.1	13111	100
2025-3-27 18:36:28.226	WT901BLE68-01(48591DE3C19B)	-0.388	-1.038	-0.009	-10.010	-57.983	138.855	-77.79	5.99	-95.54	-86.828	-51.450	1.274	-0.50085	0.51331	-0.37982	0.58417	31.1	13111	100
2025-3-27 18:36:28.226	WT901BLE68-01(48591DE3C19B)	-0.388	-1.021	-0.053	-6.348	-89.661	147.461	-77.73	7.34	-94.62	-75.558	-52.430	-9.310	-0.50085	0.51331	-0.37982	0.58417	31.1	13111	100
2025-3-27 18:36:28.226	WT901BLE68-01(48591DE3C19B)	-0.308	-1.021	-0.053	-6.348	-89.661	147.461	-77.62	8.70	-93.52	-75.558	-52.430	-9.310	-0.50085	0.51331	-0.37982	0.58417	31.1	13111	100
2025-3-27 18:36:28.226	WT901BLE68-01(48591DE3C19B)	-0.308	-1.046	-0.034	-5.798	-111.145	153.748	-77.46	10.04	-92.30	-75.558	-52.430	-9.310	-0.50085	0.51331	-0.37982	0.58417	31.1	13111	100
2025-3-27 18:36:28.227	WT901BLE68-01(48591DE3C19B)	-0.286	-1.046	-0.034	-5.798	-111.145	153.748	-77.27	11.38	-90.96	-75.558	-52.430	-9.310	-0.50085	0.51331	-0.37982	0.58417	31.1	13111	100
2025-3-27 18:36:28.227	WT901BLE68-01(48591DE3C19B)	-0.286	-1.192	-0.006	-3.357	-127.136	157.654	-77.01	12.71	-89.52	-75.558	-52.430	-9.310	-0.50085	0.51331	-0.37982	0.58417	31.1	13111	100
2025-3-27 18:36:28.227	WT901BLE68-01(48591DE3C19B)	-0.227	-1.192	-0.006	-3.357	-127.136	157.654	-76.70	14.01	-87.97	-75.558	-52.430	-9.310	-0.50085	0.51331	-0.37982	0.58417	31.1	13111	100
2025-3-27 18:36:28.227	WT901BLE68-01(48591DE3C19B)	-0.227	-1.231	0.021	5.310	-131.897	161.072	-76.31	15.30	-86.40	-75.558	-52.430	-9.310	-0.50085	0.51331	-0.37982	0.58417	31.1	13111	100
2025-3-27 18:36:28.255	WT901BLE68-01(48591DE3C19B)	-0.150	-1.231	0.021	5.310	-131.897	161.072	-75.82	16.58	-84.77	-75.558	-52.430	-9.310	-0.50085	0.51331	-0.37982	0.58417	31.1	13111	100
2025-3-27 18:36:28.255	WT901BLE68-01(48591DE3C19B)	-0.150	-1.215	0.025	12.634	-117.188	164.001	-75.29	17.86	-83.20	-75.558	-52.430	-9.310	-0.50085	0.51331	-0.37982	0.58417	31.1	13111	100
2025-3-27 18:36:28.255	WT901BLE68-01(48591DE3C19B)	-0.109	-1.215	0.025	12.634	-117.188	164.001	-74.71	19.15	-81.68	-75.558	-52.430	-9.310	-0.50085	0.51331	-0.37982	0.58417	31.1	13111	100
2025-3-27 18:36:28.255	WT901BLE68-01(48591DE3C19B)	-0.109	-1.186	0.013	14.099	-88.867	166.992	-74.17	20.51	-80.43	-75.558	-52.430	-9.310	-0.50085	0.51331	-0.37982	0.58417	31.1	13111	100
2025-3-27 18:36:28.316	WT901BLE68-01(48591DE3C19B)	-0.103	-1.186	0.013	14.099	-88.867	166.992	-73.60	21.85	-79.15	-75.558	-52.430	-9.310	-0.50085	0.51331	-0.37982	0.58417	31.1	13111	100
2025-3-27 18:36:28.316	WT901BLE68-01(48591DE3C19B)	-0.103	-1.092	-0.017	14.526	-64.575	171.326	-73.09	23.27	-78.09	-75.558	-52.430	-9.310	-0.50085	0.51331	-0.37982	0.58417	31.1	13111	100
2025-3-27 18:36:28.316	WT901BLE68-01(48591DE3C19B)	-0.105	-1.092	-0.017	14.526	-64.575	171.326	-72.54	24.67	-77.01	-75.558	-52.430	-9.310	-0.50085	0.51331	-0.37982	0.58417	31.1	13111	100
2025-3-27 18:36:28.316	WT901BLE68-01(48591DE3C19B)	-0.105	-1.002	-0.027	6.104	-54.504	174.377	-72.09	26.11	-76.01	-75.558	-52.430	-9.310	-0.50085	0.51331	-0.37982	0.58417	31.1	13111	100
2025-3-27 18:36:28.346	WT901BLE68-01(48591DE3C19B)	-0.094	-1.002	-0.027	6.104	-54.504	174.377	-71.61	27.53	-74.98	-75.558	-52.430	-9.310	-0.50085	0.51331	-0.37982	0.58417	31.1	13111	100
2025-3-27 18:36:28.347	WT901BLE68-01(48591DE3C19B)	-0.094	-1.074	-0.017	-5.066	-56.091	172.913	-71.21	28.91	-73.93	-75.558	-52.430	-9.310	-0.50085	0.51331	-0.37982	0.58417	31.1	13111	100
2025-3-27 18:36:28.347	WT901BLE68-01(48591DE3C19B)	-0.042	-1.074	-0.017	-5.066	-56.091	172.913	-70.78	30.28	-72.86	-75.558	-52.430	-9.310	-0.50085	0.51331	-0.37982	0.58417	31.1	13111	100
2025-3-27 18:36:28.347	WT901BLE68-01(48591DE3C19B)	-0.042	-1.230	0.027	-10.864	-64.392	167.175	-70.35	31.54	-71.70	-75.558	-52.430	-9.310	-0.50085	0.51331	-0.37982	0.58417	31.1	13111	100
2025-3-27 18:36:28.375	WT901BLE68-01(48591DE3C19B)	0.044	-1.230	0.027	-10.864	-64.392	167.175	-69.87	32.79	-70.52	-75.558	-52.430	-9.310	-0.50085	0.51331	-0.37982	0.58417	31.1	13111	100
2025-3-27 18:36:28.375	WT901BLE68-01(48591DE3C19B)	0.044	-1.396	0.046	-14.099	-70.068	155.823	-69.39	33.89	-69.30	-75.558	-52.430	-9.310	-0.50085	0.51331	-0.37982	0.58417	31.1	13111	100
2025-3-27 18:36:28.375	WT901BLE68-01(48591DE3C19B)	0.186	-1.396	0.046	-14.099	-70.068	155.823	-68.88	34.96	-68.06	-75.558	-52.430	-9.310	-0.74692	0.30835	-0.50720	0.29941	31.1	13111	100
2025-3-27 18:36:28.375	WT901BLE68-01(48591DE3C19B)	0.186	-1.596	0.020	-14.465	-61.646	131.470	-68.46	35.82	-67.01	-75.558	-52.430	-9.310	-0.74692	0.30835	-0.50720	0.29941	31.1	13111	100
2025-3-27 18:36:28.437	WT901BLE68-01(48591DE3C19B)	0.342	-1.596	0.020	-14.465	-61.646	131.470	-68.03	36.66	-65.95	-75.558	-52.430	-9.310	-0.74692	0.30835	-0.50720	0.29941	31.1	13111	100
2025-3-27 18:36:28.437	WT901BLE68-01(48591DE3C19B)	0.342	-1.818	-0.062	-7.568	-39.917	94.238	-67.77	37.22	-65.29	-75.558	-52.430	-9.310	-0.74692	0.30835	-0.50720	0.29941	31.1	13111	100
2025-3-27 18:36:28.437	WT901BLE68-01(48591DE3C19B)	0.387	-1.818	-0.062	-7.568	-39.917	94.238	-67.51	37.76	-64.64	-75.558	-52.430	-9.310	-0.74692	0.30835	-0.50720	0.29941	31.1	13111	100
2025-3-27 18:36:28.437	WT901BLE68-01(48591DE3C19B)	0.387	-1.767	-0.077	-2.563	-27.283	51.514	-67.42	37.95	-64.35	-75.558	-52.430	-9.310	-0.74692	0.30835	-0.50720	0.29941	31.1	13111	100
2025-3-27 18:36:28.465	WT901BLE68-01(48591DE3C19B)	0.302	-1.767	-0.077	-2.563	-27.283	51.514	-67.33	38.13	-64.05	-75.558	-52.430	-9.310	-0.74692	0.30835	-0.50720	0.29941	31.1	13111	100
2025-3-27 18:36:28.465	WT901BLE68-01(48591DE3C19B)	0.302	-1.585	0.019	-7.996	-9.338	2.258	-67.58	37.91	-64.20	-75.558	-52.430	-9.310	-0.74692	0.30835	-0.50720	0.29941	31.1	13111	100
2025-3-27 18:36:28.465	WT901BLE68-01(48591DE3C19B)	0.271	-1.585	0.019	-7.996	-9.338	2.258	-67.82	37.70	-64.36	-75.558	-52.430	-9.310	-0.74692	0.30835	-0.50720	0.29941	31.1	13111	100
2025-3-27 18:36:28.465	WT901BLE68-01(48591DE3C19B)	0.271	-1.434	0.121	-9.705	8.240	-40.833	-68.32	37.15	-64.92	-75.558	-52.430	-9.310	-0.74692	0.30835	-0.50720	0.29941	31.1	13111	100
2025-3-27 18:36:28.558	WT901BLE68-01(48591DE3C19B)	0.291	-1.434	0.121	-9.705	8.240	-40.833	-68.81	36.60	-65.46	-75.558	-52.430	-9.310	-0.74692	0.30835	-0.50720	0.29941	31.1	13111	100
2025-3-27 18:36:28.558	WT901BLE68-01(48591DE3C19B)	0.291	-1.298	0.210	-8.972	20.630	-74.280	-69.44	35.77	-66.29	-75.558	-52.430	-9.310	-0.74692	0.30835	-0.50720	0.29941	31.1	13111	100
2025-3-27 18:36:28.558	WT901BLE68-01(48591DE3C19B)	0.284	-1.298	0.210	-8.972	20.630	-74.280	-70.05	34.93	-67.09	-75.558	-52.430	-9.310	-0.74692	0.30835	-0.50720	0.29941	31.1	13111	100
2025-3-27 18:36:28.558	WT901BLE68-01(48591DE3C19B)	0.284	-1.271	0.173	-5.737	32.593	-103.149	-70.75	33.87	-68.14	-75.558	-52.430	-9.310	-0.74692	0.30835	-0.50720	0.29941	31.1	13111	100
2025-3-27 18:36:28.558	WT901BLE68-01(48591DE3C19B)	0.196	-1.271	0.173	-5.737	32.593	-103.149	-71.41	32.79	-69.15	-75.558	-52.430	-9.310	-0.74692	0.30835	-0.50720	0.29941	31.1	13111	100
2025-3-27 18:36:28.558	WT901BLE68-01(48591DE3C19B)	0.196	-1.177	0.137	1.526	39.795	-123.413	-72.04	31.54	-70.29	-75.558	-52.430	-9.310	-0.74692	0.30835	-0.50720	0.29941	31.1	13111	100
2025-3-27 18:36:28.558	WT901BLE68-01(48591DE3C19B)	0.105	-1.177	0.137	1.526	39.795	-123.413	-72.64	30.28	-71.38	-75.558	-52.430	-9.310	-0.74692	0.30835	-0.50720	0.29941	31.1	13111	100
2025-3-27 18:36:28.559	WT901BLE68-01(48591DE3C19B)	0.105	-1.063	0.132	1.892	40.771	-137.695	-73.21	28.89	-72.50	-75.558	-52.430	-9.310	-0.74692	0.30835	-0.50720	0.29941	31.1	13111	100
2025-3-27 18:36:28.590	WT901BLE68-01(48591DE3C19B)	0.029	-1.063	0.132	1.892	40.771	-137.695	-73.75	27.50	-73.59	-75.558	-52.430	-9.310	-0.74692	0.30835	-0.50720	0.29941	31.1	13111	100
2025-3-27 18:36:28.590	WT901BLE68-01(48591DE3C19B)	0.029	-1.060	0.151	-2.319	42.725	-149.963	-74.31	25.99	-74.70	-75.558	-52.430	-9.310	-0.74692	0.30835	-0.50720	0.29941	31.1	13111	100
2025-3-27 18:36:28.590	WT901BLE68-01(48591DE3C19B)	-0.070	-1.060	0.151	-2.319	42.725	-149.963	-74.83	24.49	-75.77	-95.550	-29.498	-14.308	-0.74692	0.30835	-0.50720	0.29941	31.1	13111	100
2025-3-27 18:36:28.590	WT901BLE68-01(48591DE3C19B)	-0.070	-1.134	0.182	-4.456	44.617	-159.302	-75.34	22.91	-76.85	-95.550	-29.498	-14.308	-0.74692	0.30835	-0.50720	0.29941	31.1	13111	100
2025-3-27 18:36:28.646	WT901BLE68-01(48591DE3C19B)	-0.203	-1.134	0.182	-4.456	44.617	-159.302	-75.81	21.33	-77.90	-95.550	-29.498	-14.308	-0.74692	0.30835	-0.50720	0.29941	31.1	13111	100
2025-3-27 18:36:28.646	WT901BLE68-01(48591DE3C19B)	-0.203	-1.181	0.223	-4.395	34.790	-165.588	-76.21	19.68	-78.84	-95.550	-29.498	-14.308	-0.74692	0.30835	-0.50720	0.29941	31.1	13111	100
2025-3-27 18:36:28.646	WT901BLE68-01(48591DE3C19B)	-0.274	-1.181	0.223	-4.395	34.790	-165.588	-76.57	18.03	-79.75	-95.550	-29.498	-14.308	-0.74692	0.30835	-0.50720	0.29941	31.1	13111	100
2025-3-27 18:36:28.646	WT901BLE68-01(48591DE3C19B)	-0.274	-1.163	0.251	-5.554	11.902	-170.410	-76.84	16.30	-80.41	-95.550	-29.498	-14.308	-0.74692	0.30835	-0.50720	0.29941	31.1	13111	100
2025-3-27 18:36:28.675	WT901BLE68-01(48591DE3C19B)	-0.247	-1.163	0.251	-5.554	11.902	-170.410	-77.09	14.59	-81.06	-95.550	-29.498	-14.308	-0.74692	0.30835	-0.50720	0.29941	31.1	13111	100
2025-3-27 18:36:28.676	WT901BLE68-01(48591DE3C19B)	-0.247	-1.068	0.289	-9.155	-4.517	-171.814	-77.30	12.84	-81.54	-95.550	-29.498	-14.308	-0.74692	0.30835	-0.50720	0.29941	31.1	13111	100
2025-3-27 18:36:28.676	WT901BLE68-01(48591DE3C19B)	-0.229	-1.068	0.289	-9.155	-4.517	-171.814	-77.50	11.10	-82.00	-95.550	-29.498	-14.308	-0.74692	0.30835	-0.50720	0.29941	31.1	13111	100
2025-3-27 18:36:28.676	WT901BLE68-01(48591DE3C19B)	-0.229	-0.956	0.301	-13.611	-4.883	-170.227	-77.72	9.39	-82.45	-95.550	-29.498	-14.308	-0.74692	0.30835	-0.50720	0.29941	31.1	13111	100
2025-3-27 18:36:28.706	WT901BLE68-01(48591DE3C19B)	-0.234	-0.956	0.301	-13.611	-4.883	-170.227	-77.92	7.70	-82.88	-95.550	-29.498	-14.308	-0.74692	0.30835	-0.50720	0.29941	31.1	13111	100
2025-3-27 18:36:28.707	WT901BLE68-01(48591DE3C19B)	-0.234	-0.851	0.281	-18.066	1.770	-168.579	-78.15	6.04	-83.37	-95.550	-29.498	-14.308	-0.74692	0.30835	-0.50720	0.29941	31.1	13111	100
2025-3-27 18:36:28.707	WT901BLE68-01(48591DE3C19B)	-0.237	-0.851	0.281	-18.066	1.770	-168.579	-78.37	4.40	-83.85	-95.550	-29.498	-14.308	-0.74692	0.30835	-0.50720	0.29941	31.1	13111	100
2025-3-27 18:36:28.707	WT901BLE68-01(48591DE3C19B)	-0.235	-0.780	0.256	-21.545	8.179	-166.992	-78.60	2.80	-84.38	-95.550	-29.498	-14.308	-0.74692	0.30835	-0.50720	0.29941	31.1	13111	100
2025-3-27 18:36:28.766	WT901BLE68-01(48591DE3C19B)	-0.235	-0.734	0.267	-24.170	9.399	-165.100	-78.83	1.22	-84.91	-95.550	-29.498	-14.308	-0.74692	0.30835	-0.50720	0.29941	31.1	13111	100
2025-3-27 18:36:28.767	WT901BLE68-01(48591DE3C19B)	-0.261	-0.734	0.267	-24.170	9.399	-165.100	-79.06	-0.33	-85.43	-95.550	-29.498	-14.308	-0.74692	0.30835	-0.50720	0.29941	31.1	13111	100
2025-3-27 18:36:28.767	WT901BLE68-01(48591DE3C19B)	-0.261	-0.729	0.315	-26.489	8.667	-161.743	-79.28	-1.86	-85.95	-95.550	-29.498	-14.308	-0.74692	0.30835	-0.50720	0.29941	31.1	13111	100
2025-3-27 18:36:28.767	WT901BLE68-01(48591DE3C19B)	-0.362	-0.729	0.315	-26.489	8.667	-161.743	-79.49	-3.37	-86.45	-95.550	-29.498	-14.308	-0.74692	0.30835	-0.50720	0.29941	31.1	13111	100
2025-3-27 18:36:28.795	WT901BLE68-01(48591DE3C19B)	-0.362	-0.770	0.371	-26.062	3.113	-156.128	-79.68	-4.84	-86.91	-95.550	-29.498	-14.308	-0.53384	0.48975	-0.41446	0.55069	31.1	13111	100
2025-3-27 18:36:28.795	WT901BLE68-01(48591DE3C19B)	-0.486	-0.770	0.371	-26.062	3.113	-156.128	-79.86	-6.27	-87.35	-95.550	-29.498	-14.308	-0.53384	0.48975	-0.41446	0.55069	31.1	13111	100
2025-3-27 18:36:28.795	WT901BLE68-01(48591DE3C19B)	-0.486	-0.841	0.398	-23.743	-14.282	-148.315	-80.02	-7.67	-87.69	-95.550	-29.498	-14.308	-0.53384	0.48975	-0.41446	0.55069	31.1	13111	100
2025-3-27 18:36:28.795	WT901BLE68-01(48591DE3C19B)	-0.492	-0.841	0.398	-23.743	-14.282	-148.315	-80.17	-9.03	-87.93	-95.550	-29.498	-14.308	-0.53384	0.48975	-0.41446	0.55069	31.1	13111	100
2025-3-27 18:36:28.826	WT901BLE68-01(48591DE3C19B)	-0.492	-0.937	0.369	-24.902	-29.846	-140.686	-80.33	-10.35	-88.10	-95.550	-29.498	-14.308	-0.53384	0.48975	-0.41446	0.55069	31.1	13111	100
2025-3-27 18:36:28.827	WT901BLE68-01(48591DE3C19B)	-0.456	-0.937	0.369	-24.902	-29.846	-140.686	-80.50	-11.63	-88.19	-95.550	-29.498	-14.308	-0.53384	0.48975	-0.41446	0.55069	31.1	13111	100
2025-3-27 18:36:28.827	WT901BLE68-01(48591DE3C19B)	-0.456	-1.080	0.354	-22.583	-37.476	-129.639	-80.67	-12.85	-88.23	-95.550	-29.498	-14.308	-0.53384	0.48975	-0.41446	0.55069	31.1	13111	100
2025-3-27 18:36:28.827	WT901BLE68-01(48591DE3C19B)	-0.485	-1.080	0.354	-22.583	-37.476	-129.639	-80.84	-14.02	-88.21	-95.550	-29.498	-14.308	-0.53384	0.48975	-0.41446	0.55069	31.1	13111	100
2025-3-27 18:36:28.891	WT901BLE68-01(48591DE3C19B)	-0.485	-1.244	0.365	-18.616	-40.771	-118.347	-81.00	-15.13	-88.18	-95.550	-29.498	-14.308	-0.53384	0.48975	-0.41446	0.55069	31.1	13111	100
2025-3-27 18:36:28.891	WT901BLE68-01(48591DE3C19B)	-0.500	-1.244	0.365	-18.616	-40.771	-118.347	-81.15	-16.17	-88.10	-95.550	-29.498	-14.308	-0.53384	0.48975	-0.41446	0.55069	31.1	13111	100
2025-3-27 18:36:28.891	WT901BLE68-01(48591DE3C19B)	-0.500	-1.381	0.418	-12.268	-34.912	-105.713	-81.26	-17.14	-88.06	-95.550	-29.498	-14.308	-0.53384	0.48975	-0.41446	0.55069	31.1	13111	100
2025-3-27 18:36:28.891	WT901BLE68-01(48591DE3C19B)	-0.473	-1.381	0.418	-12.268	-34.912	-105.713	-81.34	-18.03	-88.03	-95.550	-29.498	-14.308	-0.53384	0.48975	-0.41446	0.55069	31.1	13111	100
2025-3-27 18:36:28.918	WT901BLE68-01(48591DE3C19B)	-0.473	-1.407	0.477	-4.517	-8.240	-88.501	-81.34	-18.82	-88.12	-95.550	-29.498	-14.308	-0.53384	0.48975	-0.41446	0.55069	31.1	13111	100
2025-3-27 18:36:28.918	WT901BLE68-01(48591DE3C19B)	-0.446	-1.407	0.477	-4.517	-8.240	-88.501	-81.26	-19.50	-88.34	-95.550	-29.498	-14.308	-0.53384	0.48975	-0.41446	0.55069	31.1	13111	100
2025-3-27 18:36:28.918	WT901BLE68-01(48591DE3C19B)	-0.446	-1.272	0.491	3.174	33.813	-62.500	-81.07	-20.02	-88.76	-95.550	-29.498	-14.308	-0.53384	0.48975	-0.41446	0.55069	31.1	13111	100
2025-3-27 18:36:28.919	WT901BLE68-01(48591DE3C19B)	-0.422	-1.272	0.491	3.174	33.813	-62.500	-80.77	-20.36	-89.39	-95.550	-29.498	-14.308	-0.53384	0.48975	-0.41446	0.55069	31.1	13111	100
2025-3-27 18:36:28.948	WT901BLE68-01(48591DE3C19B)	-0.422	-1.052	0.438	4.944	74.585	-29.663	-80.40	-20.52	-90.20	-95.550	-29.498	-14.308	-0.53384	0.48975	-0.41446	0.55069	31.1	13111	100
2025-3-27 18:36:28.948	WT901BLE68-01(48591DE3C19B)	-0.434	-1.052	0.438	4.944	74.585	-29.663	-79.95	-20.47	-91.21	-95.550	-29.498	-14.308	-0.53384	0.48975	-0.41446	0.55069	31.1	13111	100
2025-3-27 18:36:28.948	WT901BLE68-01(48591DE3C19B)	-0.434	-0.859	0.387	2.075	99.243	1.648	-79.48	-20.23	-92.31	-95.550	-29.498	-14.308	-0.53384	0.48975	-0.41446	0.55069	31.1	13111	100
2025-3-27 18:36:28.948	WT901BLE68-01(48591DE3C19B)	-0.510	-0.859	0.387	2.075	99.243	1.648	-79.00	-19.81	-93.50	-95.550	-29.498	-14.308	-0.53384	0.48975	-0.41446	0.55069	31.1	13111	100
2025-3-27 18:36:29.37	WT901BLE68-01(48591DE3C19B)	-0.510	-0.818	0.379	-5.554	91.431	30.396	-78.59	-19.25	-94.61	-95.550	-29.498	-14.308	-0.53384	0.48975	-0.41446	0.55069	31.1	13111	100
2025-3-27 18:36:29.37	WT901BLE68-01(48591DE3C19B)	-0.576	-0.818	0.379	-5.554	91.431	30.396	-78.26	-18.56	-95.65	-76.930	-51.254	-11.858	-0.53384	0.48975	-0.41446	0.55069	31.1	13111	100
2025-3-27 18:36:29.37	WT901BLE68-01(48591DE3C19B)	-0.576	-0.852	0.379	-9.888	58.472	57.129	-78.02	-17.75	-96.49	-76.930	-51.254	-11.858	-0.53384	0.48975	-0.41446	0.55069	31.1	13111	100
2025-3-27 18:36:29.37	WT901BLE68-01(48591DE3C19B)	-0.639	-0.852	0.379	-9.888	58.472	57.129	-77.88	-16.86	-97.12	-76.930	-51.254	-11.858	-0.53384	0.48975	-0.41446	0.55069	31.1	13111	100
2025-3-27 18:36:29.38	WT901BLE68-01(48591DE3C19B)	-0.639	-0.868	0.358	-11.292	16.113	85.388	-77.82	-15.86	-97.50	-76.930	-51.254	-11.858	-0.53384	0.48975	-0.41446	0.55069	31.1	13111	100
2025-3-27 18:36:29.38	WT901BLE68-01(48591DE3C19B)	-0.724	-0.868	0.358	-11.292	16.113	85.388	-77.83	-14.78	-97.64	-76.930	-51.254	-11.858	-0.53384	0.48975	-0.41446	0.55069	31.1	13111	100
2025-3-27 18:36:29.38	WT901BLE68-01(48591DE3C19B)	-0.724	-0.960	0.293	-12.146	-33.630	111.938	-77.92	-13.62	-97.50	-76.930	-51.254	-11.858	-0.53384	0.48975	-0.41446	0.55069	31.1	13111	100
2025-3-27 18:36:29.38	WT901BLE68-01(48591DE3C19B)	-0.666	-0.960	0.293	-12.146	-33.630	111.938	-78.06	-12.38	-97.10	-76.930	-51.254	-11.858	-0.53384	0.48975	-0.41446	0.55069	31.1	13111	100
2025-3-27 18:36:29.68	WT901BLE68-01(48591DE3C19B)	-0.666	-1.123	0.185	-9.827	-78.247	136.169	-78.23	-11.07	-96.45	-76.930	-51.254	-11.858	-0.53384	0.48975	-0.41446	0.55069	31.1	13111	100
2025-3-27 18:36:29.68	WT901BLE68-01(48591DE3C19B)	-0.542	-1.123	0.185	-9.827	-78.247	136.169	-78.43	-9.68	-95.56	-76.930	-51.254	-11.858	-0.53384	0.48975	-0.41446	0.55069	31.1	13111	100
2025-3-27 18:36:29.68	WT901BLE68-01(48591DE3C19B)	-0.542	-1.250	0.110	0.671	-107.361	160.217	-78.57	-8.22	-94.50	-76.930	-51.254	-11.858	-0.53384	0.48975	-0.41446	0.55069	31.1	13111	100
2025-3-27 18:36:29.68	WT901BLE68-01(48591DE3C19B)	-0.418	-1.250	0.110	0.671	-107.361	160.217	-78.67	-6.66	-93.28	-76.930	-51.254	-11.858	-0.53384	0.48975	-0.41446	0.55069	31.1	13111	100
2025-3-27 18:36:29.126	WT901BLE68-01(48591DE3C19B)	-0.418	-1.312	0.093	12.390	-128.113	179.871	-78.70	-5.05	-91.94	-76.930	-51.254	-11.858	-0.53384	0.48975	-0.41446	0.55069	31.1	13111	100
2025-3-27 18:36:29.126	WT901BLE68-01(48591DE3C19B)	-0.287	-1.312	0.093	12.390	-128.113	179.871	-78.64	-3.37	-90.48	-76.930	-51.254	-11.858	-0.53384	0.48975	-0.41446	0.55069	31.1	13111	100
2025-3-27 18:36:29.126	WT901BLE68-01(48591DE3C19B)	-0.287	-1.371	0.102	24.170	-140.930	193.909	-78.49	-1.64	-88.94	-76.930	-51.254	-11.858	-0.53384	0.48975	-0.41446	0.55069	31.1	13111	100
2025-3-27 18:36:29.126	WT901BLE68-01(48591DE3C19B)	-0.144	-1.371	0.102	24.170	-140.930	193.909	-78.24	0.10	-87.31	-76.930	-51.254	-11.858	-0.53384	0.48975	-0.41446	0.55069	31.1	13111	100
2025-3-27 18:36:29.158	WT901BLE68-01(48591DE3C19B)	-0.144	-1.407	0.124	38.391	-133.545	204.163	-77.88	1.89	-85.70	-76.930	-51.254	-11.858	-0.53384	0.48975	-0.41446	0.55069	31.1	13111	100
2025-3-27 18:36:29.158	WT901BLE68-01(48591DE3C19B)	-0.042	-1.407	0.124	38.391	-133.545	204.163	-77.40	3.70	-84.09	-76.930	-51.254	-11.858	-0.53384	0.48975	-0.41446	0.55069	31.1	13111	100
2025-3-27 18:36:29.158	WT901BLE68-01(48591DE3C19B)	-0.042	-1.358	0.128	53.101	-100.769	211.304	-76.82	5.55	-82.63	-76.930	-51.254	-11.858	-0.53384	0.48975	-0.41446	0.55069	31.1	13111	100
2025-3-27 18:36:29.158	WT901BLE68-01(48591DE3C19B)	-0.016	-1.358	0.128	53.101	-100.769	211.304	-76.13	7.44	-81.29	-76.930	-51.254	-11.858	-0.53384	0.48975	-0.41446	0.55069	31.1	13111	100
2025-3-27 18:36:29.189	WT901BLE68-01(48591DE3C19B)	-0.016	-1.211	0.134	61.584	-51.270	217.224	-75.39	9.37	-80.16	-76.930	-51.254	-11.858	-0.53384	0.48975	-0.41446	0.55069	31.1	13111	100
2025-3-27 18:36:29.189	WT901BLE68-01(48591DE3C19B)	-0.061	-1.211	0.134	61.584	-51.270	217.224	-74.62	11.37	-79.23	-76.930	-51.254	-11.858	-0.53384	0.48975	-0.41446	0.55069	31.1	13111	100
2025-3-27 18:36:29.189	WT901BLE68-01(48591DE3C19B)	-0.061	-1.091	0.139	61.646	-2.014	221.741	-73.86	13.41	-78.51	-76.930	-51.254	-11.858	-0.65909	0.40295	-0.44992	0.44797	31.1	13111	100
2025-3-27 18:36:29.189	WT901BLE68-01(48591DE3C19B)	-0.137	-1.091	0.139	61.646	-2.014	221.741	-73.13	15.53	-78.00	-76.930	-51.254	-11.858	-0.65909	0.40295	-0.44992	0.44797	31.1	13111	100
2025-3-27 18:36:29.246	WT901BLE68-01(48591DE3C19B)	-0.137	-1.078	0.154	55.969	34.485	226.135	-72.53	17.77	-77.81	-76.930	-51.254	-11.858	-0.65909	0.40295	-0.44992	0.44797	31.1	13111	100
2025-3-27 18:36:29.247	WT901BLE68-01(48591DE3C19B)	-0.168	-1.078	0.154	55.969	34.485	226.135	-71.92	20.00	-77.59	-76.930	-51.254	-11.858	-0.65909	0.40295	-0.44992	0.44797	31.1	13111	100
2025-3-27 18:36:29.247	WT901BLE68-01(48591DE3C19B)	-0.168	-1.101	0.139	50.598	57.678	229.614	-71.42	22.31	-77.57	-76.930	-51.254	-11.858	-0.65909	0.40295	-0.44992	0.44797	31.1	13111	100
2025-3-27 18:36:29.247	WT901BLE68-01(48591DE3C19B)	-0.179	-1.101	0.139	50.598	57.678	229.614	-70.92	24.60	-77.54	-76.930	-51.254	-11.858	-0.65909	0.40295	-0.44992	0.44797	31.1	13111	100
2025-3-27 18:36:29.275	WT901BLE68-01(48591DE3C19B)	-0.179	-1.087	0.106	43.213	68.298	231.934	-70.52	26.94	-77.58	-76.930	-51.254	-11.858	-0.65909	0.40295	-0.44992	0.44797	31.1	13111	100
2025-3-27 18:36:29.275	WT901BLE68-01(48591DE3C19B)	-0.199	-1.087	0.106	43.213	68.298	231.934	-70.12	29.27	-77.61	-76.930	-51.254	-11.858	-0.65909	0.40295	-0.44992	0.44797	31.1	13111	100
2025-3-27 18:36:29.275	WT901BLE68-01(48591DE3C19B)	-0.199	-1.162	0.056	31.555	67.871	230.347	-69.83	31.56	-77.63	-76.930	-51.254	-11.858	-0.65909	0.40295	-0.44992	0.44797	31.1	13111	100
2025-3-27 18:36:29.276	WT901BLE68-01(48591DE3C19B)	-0.211	-1.162	0.056	31.555	67.871	230.347	-69.54	33.84	-77.63	-76.930	-51.254	-11.858	-0.65909	0.40295	-0.44992	0.44797	31.1	13111	100
2025-3-27 18:36:29.306	WT901BLE68-01(48591DE3C19B)	-0.211	-1.294	0.005	23.743	57.922	224.060	-69.27	36.02	-77.55	-76.930	-51.254	-11.858	-0.65909	0.40295	-0.44992	0.44797	31.1	13111	100
2025-3-27 18:36:29.306	WT901BLE68-01(48591DE3C19B)	-0.219	-1.294	0.005	23.743	57.922	224.060	-68.99	38.18	-77.45	-76.930	-51.254	-11.858	-0.65909	0.40295	-0.44992	0.44797	31.1	13111	100
2025-3-27 18:36:29.306	WT901BLE68-01(48591DE3C19B)	-0.219	-1.415	-0.025	17.944	41.870	213.806	-68.66	40.18	-77.19	-76.930	-51.254	-11.858	-0.65909	0.40295	-0.44992	0.44797	31.1	13111	100
2025-3-27 18:36:29.306	WT901BLE68-01(48591DE3C19B)	-0.228	-1.415	-0.025	17.944	41.870	213.806	-68.32	42.17	-76.91	-76.930	-51.254	-11.858	-0.65909	0.40295	-0.44992	0.44797	31.1	13111	100
2025-3-27 18:36:29.368	WT901BLE68-01(48591DE3C19B)	-0.228	-1.556	-0.016	11.902	21.790	197.754	-67.91	43.92	-76.44	-76.930	-51.254	-11.858	-0.65909	0.40295	-0.44992	0.44797	31.1	13111	100
2025-3-27 18:36:29.368	WT901BLE68-01(48591DE3C19B)	-0.229	-1.556	-0.016	11.902	21.790	197.754	-67.46	45.66	-75.94	-76.930	-51.254	-11.858	-0.65909	0.40295	-0.44992	0.44797	31.1	13111	100
2025-3-27 18:36:29.368	WT901BLE68-01(48591DE3C19B)	-0.229	-1.722	0.007	9.033	-1.038	175.415	-66.88	47.09	-75.24	-76.930	-51.254	-11.858	-0.65909	0.40295	-0.44992	0.44797	31.1	13111	100
2025-3-27 18:36:29.368	WT901BLE68-01(48591DE3C19B)	-0.223	-1.722	0.007	9.033	-1.038	175.415	-66.26	48.51	-74.50	-76.930	-51.254	-11.858	-0.65909	0.40295	-0.44992	0.44797	31.1	13111	100
2025-3-27 18:36:29.398	WT901BLE68-01(48591DE3C19B)	-0.223	-1.869	0.050	10.986	-19.714	145.386	-65.53	49.56	-73.65	-76.930	-51.254	-11.858	-0.65909	0.40295	-0.44992	0.44797	31.1	13111	100
2025-3-27 18:36:29.398	WT901BLE68-01(48591DE3C19B)	-0.210	-1.869	0.050	10.986	-19.714	145.386	-64.77	50.61	-72.76	-76.930	-51.254	-11.858	-0.65909	0.40295	-0.44992	0.44797	31.1	13111	100
2025-3-27 18:36:29.398	WT901BLE68-01(48591DE3C19B)	-0.210	-1.817	0.092	18.982	-35.583	109.375	-63.91	51.25	-71.87	-76.930	-51.254	-11.858	-0.65909	0.40295	-0.44992	0.44797	31.1	13111	100
2025-3-27 18:36:29.398	WT901BLE68-01(48591DE3C19B)	-0.177	-1.817	0.092	18.982	-35.583	109.375	-63.02	51.87	-70.95	-86.828	-22.246	-26.460	-0.65909	0.40295	-0.44992	0.44797	31.1	13111	100
2025-3-27 18:36:29.428	WT901BLE68-01(48591DE3C19B)	-0.177	-1.563	0.143	20.081	-49.805	69.885	-62.17	52.06	-70.10	-86.828	-22.246	-26.460	-0.65909	0.40295	-0.44992	0.44797	31.1	13111	100
2025-3-27 18:36:29.428	WT901BLE68-01(48591DE3C19B)	-0.068	-1.563	0.143	20.081	-49.805	69.885	-61.32	52.25	-69.25	-86.828	-22.246	-26.460	-0.65909	0.40295	-0.44992	0.44797	31.1	13111	100
2025-3-27 18:36:29.428	WT901BLE68-01(48591DE3C19B)	-0.068	-1.311	0.165	15.686	-51.086	30.579	-60.74	52.07	-68.69	-86.828	-22.246	-26.460	-0.65909	0.40295	-0.44992	0.44797	31.1	13111	100
2025-3-27 18:36:29.428	WT901BLE68-01(48591DE3C19B)	0.031	-1.311	0.165	15.686	-51.086	30.579	-60.18	51.89	-68.14	-86.828	-22.246	-26.460	-0.65909	0.40295	-0.44992	0.44797	31.1	13111	100
2025-3-27 18:36:29.490	WT901BLE68-01(48591DE3C19B)	0.031	-1.073	0.188	11.963	-36.804	-5.981	-60.03	51.45	-68.09	-86.828	-22.246	-26.460	-0.65909	0.40295	-0.44992	0.44797	31.1	13111	100
2025-3-27 18:36:29.490	WT901BLE68-01(48591DE3C19B)	0.088	-1.073	0.188	11.963	-36.804	-5.981	-59.90	51.02	-68.03	-86.828	-22.246	-26.460	-0.65909	0.40295	-0.44992	0.44797	31.1	13111	100
2025-3-27 18:36:29.490	WT901BLE68-01(48591DE3C19B)	0.088	-0.928	0.148	5.127	-13.733	-46.082	-60.32	50.36	-68.61	-86.828	-22.246	-26.460	-0.65909	0.40295	-0.44992	0.44797	31.1	13111	100
2025-3-27 18:36:29.490	WT901BLE68-01(48591DE3C19B)	0.100	-0.928	0.148	5.127	-13.733	-46.082	-60.72	49.69	-69.17	-86.828	-22.246	-26.460	-0.65909	0.40295	-0.44992	0.44797	31.1	13111	100
2025-3-27 18:36:29.516	WT901BLE68-01(48591DE3C19B)	0.100	-0.844	0.101	1.709	15.686	-85.876	-61.66	48.80	-70.39	-86.828	-22.246	-26.460	-0.65909	0.40295	-0.44992	0.44797	31.1	13111	100
2025-3-27 18:36:29.516	WT901BLE68-01(48591DE3C19B)	0.026	-0.844	0.101	1.709	15.686	-85.876	-62.54	47.91	-71.56	-86.828	-22.246	-26.460	-0.65909	0.40295	-0.44992	0.44797	31.1	13111	100
2025-3-27 18:36:29.516	WT901BLE68-01(48591DE3C19B)	0.026	-0.771	0.110	-3.418	38.757	-118.896	-63.81	46.81	-73.21	-86.828	-22.246	-26.460	-0.65909	0.40295	-0.44992	0.44797	31.1	13111	100
2025-3-27 18:36:29.516	WT901BLE68-01(48591DE3C19B)	-0.043	-0.771	0.110	-3.418	38.757	-118.896	-65.00	45.70	-74.77	-86.828	-22.246	-26.460	-0.65909	0.40295	-0.44992	0.44797	31.1	13111	100
2025-3-27 18:36:29.548	WT901BLE68-01(48591DE3C19B)	-0.043	-0.787	0.157	-9.277	45.776	-147.278	-66.35	44.34	-76.52	-86.828	-22.246	-26.460	-0.65909	0.40295	-0.44992	0.44797	31.1	13111	100
2025-3-27 18:36:29.548	WT901BLE68-01(48591DE3C19B)	-0.083	-0.787	0.157	-9.277	45.776	-147.278	-67.60	42.96	-78.17	-86.828	-22.246	-26.460	-0.65909	0.40295	-0.44992	0.44797	31.1	13111	100
2025-3-27 18:36:29.548	WT901BLE68-01(48591DE3C19B)	-0.083	-0.855	0.209	-11.292	49.438	-170.593	-68.89	41.35	-79.89	-86.828	-22.246	-26.460	-0.65909	0.40295	-0.44992	0.44797	31.1	13111	100
2025-3-27 18:36:29.548	WT901BLE68-01(48591DE3C19B)	-0.140	-0.855	0.209	-11.292	49.438	-170.593	-70.07	39.73	-81.52	-86.828	-22.246	-26.460	-0.65909	0.40295	-0.44992	0.44797	31.1	13111	100
2025-3-27 18:36:29.607	WT901BLE68-01(48591DE3C19B)	-0.140	-0.919	0.233	-8.240	47.913	-187.378	-71.16	37.94	-83.11	-86.828	-22.246	-26.460	-0.65909	0.40295	-0.44992	0.44797	31.1	13111	100
2025-3-27 18:36:29.607	WT901BLE68-01(48591DE3C19B)	-0.171	-0.919	0.233	-8.240	47.913	-187.378	-72.15	36.13	-84.61	-86.828	-22.246	-26.460	-0.69116	0.24524	-0.56216	0.38214	31.1	13111	100
2025-3-27 18:36:29.607	WT901BLE68-01(48591DE3C19B)	-0.171	-0.955	0.227	-4.150	38.025	-200.195	-72.97	34.17	-85.97	-86.828	-22.246	-26.460	-0.69116	0.24524	-0.56216	0.38214	31.1	13111	100
2025-3-27 18:36:29.607	WT901BLE68-01(48591DE3C19B)	-0.165	-0.955	0.227	-4.150	38.025	-200.195	-73.71	32.21	-87.26	-86.828	-22.246	-26.460	-0.69116	0.24524	-0.56216	0.38214	31.1	13111	100
2025-3-27 18:36:29.635	WT901BLE68-01(48591DE3C19B)	-0.165	-0.968	0.205	-3.296	25.818	-210.876	-74.32	30.11	-88.38	-86.828	-22.246	-26.460	-0.69116	0.24524	-0.56216	0.38214	31.1	13111	100
2025-3-27 18:36:29.635	WT901BLE68-01(48591DE3C19B)	-0.170	-0.968	0.205	-3.296	25.818	-210.876	-74.87	28.02	-89.45	-86.828	-22.246	-26.460	-0.69116	0.24524	-0.56216	0.38214	31.1	13111	100
2025-3-27 18:36:29.635	WT901BLE68-01(48591DE3C19B)	-0.170	-0.983	0.193	-3.601	20.752	-220.764	-75.34	25.82	-90.44	-86.828	-22.246	-26.460	-0.69116	0.24524	-0.56216	0.38214	31.1	13111	100
2025-3-27 18:36:29.635	WT901BLE68-01(48591DE3C19B)	-0.222	-0.983	0.193	-3.601	20.752	-220.764	-75.77	23.64	-91.40	-86.828	-22.246	-26.460	-0.69116	0.24524	-0.56216	0.38214	31.1	13111	100
2025-3-27 18:36:29.666	WT901BLE68-01(48591DE3C19B)	-0.306	-1.009	0.193	-4.456	22.583	-229.248	-76.18	21.38	-92.36	-86.828	-22.246	-26.460	-0.69116	0.24524	-0.56216	0.38214	31.1	13111	100
2025-3-27 18:36:29.666	WT901BLE68-01(48591DE3C19B)	-0.306	-1.030	0.203	-3.784	24.536	-234.680	-76.54	19.11	-93.30	-86.828	-22.246	-26.460	-0.69116	0.24524	-0.56216	0.38214	31.1	13111	100
2025-3-27 18:36:29.666	WT901BLE68-01(48591DE3C19B)	-0.385	-1.030	0.203	-3.784	24.536	-234.680	-76.85	16.84	-94.22	-86.828	-22.246	-26.460	-0.69116	0.24524	-0.56216	0.38214	31.1	13111	100
2025-3-27 18:36:29.666	WT901BLE68-01(48591DE3C19B)	-0.385	-1.046	0.238	-4.761	23.254	-234.924	-77.13	14.57	-95.11	-86.828	-22.246	-26.460	-0.69116	0.24524	-0.56216	0.38214	31.1	13111	100
2025-3-27 18:36:29.758	WT901BLE68-01(48591DE3C19B)	-0.421	-1.046	0.238	-4.761	23.254	-234.924	-77.37	12.32	-95.98	-86.828	-22.246	-26.460	-0.69116	0.24524	-0.56216	0.38214	31.1	13111	100
2025-3-27 18:36:29.758	WT901BLE68-01(48591DE3C19B)	-0.421	-1.025	0.283	-5.493	26.245	-229.614	-77.57	10.11	-96.83	-86.828	-22.246	-26.460	-0.69116	0.24524	-0.56216	0.38214	31.1	13111	100
2025-3-27 18:36:29.758	WT901BLE68-01(48591DE3C19B)	-0.436	-1.025	0.283	-5.493	26.245	-229.614	-77.75	7.94	-97.68	-86.828	-22.246	-26.460	-0.69116	0.24524	-0.56216	0.38214	31.1	13111	100
2025-3-27 18:36:29.758	WT901BLE68-01(48591DE3C19B)	-0.436	-0.987	0.327	-6.409	36.377	-219.910	-77.90	5.86	-98.55	-86.828	-22.246	-26.460	-0.69116	0.24524	-0.56216	0.38214	31.1	13111	100
2025-3-27 18:36:29.759	WT901BLE68-01(48591DE3C19B)	-0.546	-0.987	0.327	-6.409	36.377	-219.910	-78.02	3.85	-99.46	-86.828	-22.246	-26.460	-0.69116	0.24524	-0.56216	0.38214	31.1	13111	100
2025-3-27 18:36:29.759	WT901BLE68-01(48591DE3C19B)	-0.546	-0.969	0.371	-5.554	40.039	-206.787	-78.11	1.91	-100.37	-86.828	-22.246	-26.460	-0.69116	0.24524	-0.56216	0.38214	31.1	13111	100
2025-3-27 18:36:29.759	WT901BLE68-01(48591DE3C19B)	-0.667	-0.969	0.371	-5.554	40.039	-206.787	-78.15	0.07	-101.27	-86.828	-22.246	-26.460	-0.69116	0.24524	-0.56216	0.38214	31.1	13111	100
2025-3-27 18:36:29.759	WT901BLE68-01(48591DE3C19B)	-0.667	-1.026	0.375	-5.188	29.907	-192.383	-78.16	-1.70	-102.11	-86.828	-22.246	-26.460	-0.69116	0.24524	-0.56216	0.38214	31.1	13111	100
2025-3-27 18:36:29.790	WT901BLE68-01(48591DE3C19B)	-0.689	-1.026	0.375	-5.188	29.907	-192.383	-78.15	-3.39	-102.90	-86.828	-22.246	-26.460	-0.69116	0.24524	-0.56216	0.38214	31.1	13111	100
2025-3-27 18:36:29.790	WT901BLE68-01(48591DE3C19B)	-0.689	-1.098	0.387	-2.502	12.146	-174.622	-78.10	-4.99	-103.58	-86.828	-22.246	-26.460	-0.69116	0.24524	-0.56216	0.38214	31.1	13111	100
2025-3-27 18:36:29.790	WT901BLE68-01(48591DE3C19B)	-0.688	-1.098	0.387	-2.502	12.146	-174.622	-78.02	-6.51	-104.16	-74.382	-41.846	-21.854	-0.69116	0.24524	-0.56216	0.38214	31.1	13111	100
2025-3-27 18:36:29.790	WT901BLE68-01(48591DE3C19B)	-0.688	-1.203	0.402	1.587	0.732	-153.809	-77.93	-7.93	-104.68	-74.382	-41.846	-21.854	-0.69116	0.24524	-0.56216	0.38214	31.1	13111	100
2025-3-27 18:36:29.846	WT901BLE68-01(48591DE3C19B)	-0.719	-1.203	0.402	1.587	0.732	-153.809	-77.81	-9.25	-105.12	-74.382	-41.846	-21.854	-0.69116	0.24524	-0.56216	0.38214	31.1	13111	100
2025-3-27 18:36:29.847	WT901BLE68-01(48591DE3C19B)	-0.719	-1.298	0.402	8.606	1.282	-134.827	-77.64	-10.46	-105.55	-74.382	-41.846	-21.854	-0.69116	0.24524	-0.56216	0.38214	31.1	13111	100
2025-3-27 18:36:29.847	WT901BLE68-01(48591DE3C19B)	-0.749	-1.298	0.402	8.606	1.282	-134.827	-77.44	-11.57	-105.97	-74.382	-41.846	-21.854	-0.69116	0.24524	-0.56216	0.38214	31.1	13111	100
2025-3-27 18:36:29.847	WT901BLE68-01(48591DE3C19B)	-0.749	-1.352	0.402	12.878	7.202	-116.333	-77.20	-12.57	-106.41	-74.382	-41.846	-21.854	-0.69116	0.24524	-0.56216	0.38214	31.1	13111	100
2025-3-27 18:36:29.875	WT901BLE68-01(48591DE3C19B)	-0.739	-1.352	0.402	12.878	7.202	-116.333	-76.94	-13.46	-106.86	-74.382	-41.846	-21.854	-0.69116	0.24524	-0.56216	0.38214	31.1	13111	100
2025-3-27 18:36:29.875	WT901BLE68-01(48591DE3C19B)	-0.739	-1.380	0.419	16.357	21.301	-95.215	-76.64	-14.23	-107.36	-74.382	-41.846	-21.854	-0.69116	0.24524	-0.56216	0.38214	31.1	13111	100
2025-3-27 18:36:29.875	WT901BLE68-01(48591DE3C19B)	-0.680	-1.380	0.419	16.357	21.301	-95.215	-76.31	-14.88	-107.92	-74.382	-41.846	-21.854	-0.69116	0.24524	-0.56216	0.38214	31.1	13111	100
2025-3-27 18:36:29.875	WT901BLE68-01(48591DE3C19B)	-0.680	-1.253	0.436	18.921	45.349	-70.190	-75.93	-15.36	-108.58	-74.382	-41.846	-21.854	-0.69116	0.24524	-0.56216	0.38214	31.1	13111	100
2025-3-27 18:36:29.936	WT901BLE68-01(48591DE3C19B)	-0.621	-1.253	0.436	18.921	45.349	-70.190	-75.52	-15.69	-109.32	-74.382	-41.846	-21.854	-0.69116	0.24524	-0.56216	0.38214	31.1	13111	100
2025-3-27 18:36:29.937	WT901BLE68-01(48591DE3C19B)	-0.621	-1.063	0.413	13.428	71.411	-40.405	-75.10	-15.84	-110.17	-74.382	-41.846	-21.854	-0.69116	0.24524	-0.56216	0.38214	31.1	13111	100
2025-3-27 18:36:29.937	WT901BLE68-01(48591DE3C19B)	-0.621	-1.063	0.413	13.428	71.411	-40.405	-74.69	-15.80	-111.11	-74.382	-41.846	-21.854	-0.69116	0.24524	-0.56216	0.38214	31.1	13111	100
2025-3-27 18:36:29.937	WT901BLE68-01(48591DE3C19B)	-0.621	-0.914	0.371	4.395	86.426	-11.719	-74.31	-15.60	-112.08	-74.382	-41.846	-21.854	-0.69116	0.24524	-0.56216	0.38214	31.1	13111	100
2025-3-27 18:36:29.968	WT901BLE68-01(48591DE3C19B)	-0.677	-0.914	0.371	4.395	86.426	-11.719	-73.97	-15.23	-113.09	-74.382	-41.846	-21.854	-0.69116	0.24524	-0.56216	0.38214	31.1	13111	100
2025-3-27 18:36:29.968	WT901BLE68-01(48591DE3C19B)	-0.677	-0.829	0.339	-4.883	77.271	13.367	-73.71	-14.74	-114.02	-74.382	-41.846	-21.854	-0.69116	0.24524	-0.56216	0.38214	31.1	13111	100
2025-3-27 18:36:29.968	WT901BLE68-01(48591DE3C19B)	-0.725	-0.829	0.339	-4.883	77.271	13.367	-73.52	-14.15	-114.86	-74.382	-41.846	-21.854	-0.69116	0.24524	-0.56216	0.38214	31.1	13111	100
2025-3-27 18:36:29.968	WT901BLE68-01(48591DE3C19B)	-0.725	-0.741	0.303	-13.062	44.739	38.879	-73.43	-13.48	-115.50	-74.382	-41.846	-21.854	-0.69116	0.24524	-0.56216	0.38214	31.1	13111	100
2025-3-27 18:36:29.998	WT901BLE68-01(48591DE3C19B)	-0.738	-0.741	0.303	-13.062	44.739	38.879	-73.42	-12.73	-115.96	-74.382	-41.846	-21.854	-0.69116	0.24524	-0.56216	0.38214	31.1	13111	100
2025-3-27 18:36:29.998	WT901BLE68-01(48591DE3C19B)	-0.738	-0.706	0.240	-22.156	-3.113	66.345	-73.52	-11.92	-116.14	-74.382	-41.846	-21.854	-0.69116	0.24524	-0.56216	0.38214	31.1	13111	100
2025-3-27 18:36:29.998	WT901BLE68-01(48591DE3C19B)	-0.703	-0.706	0.240	-22.156	-3.113	66.345	-73.71	-11.05	-116.06	-74.382	-41.846	-21.854	-0.37463	0.37939	-0.46796	0.70468	31.1	13111	100
2025-3-27 18:36:29.998	WT901BLE68-01(48591DE3C19B)	-0.703	-0.760	0.154	-29.053	-51.392	93.018	-73.99	-10.11	-115.72	-74.382	-41.846	-21.854	-0.37463	0.37939	-0.46796	0.70468	31.1	13111	100
2025-3-27 18:36:30.56	WT901BLE68-01(48591DE3C19B)	-0.627	-0.760	0.154	-29.053	-51.392	93.018	-74.33	-9.11	-115.11	-74.382	-41.846	-21.854	-0.37463	0.37939	-0.46796	0.70468	31.1	13111	100
2025-3-27 18:36:30.56	WT901BLE68-01(48591DE3C19B)	-0.627	-0.842	0.084	-28.748	-93.445	118.103	-74.70	-8.04	-114.28	-74.382	-41.846	-21.854	-0.37463	0.37939	-0.46796	0.70468	31.1	13111	100
2025-3-27 18:36:30.56	WT901BLE68-01(48591DE3C19B)	-0.514	-0.842	0.084	-28.748	-93.445	118.103	-75.08	-6.90	-113.22	-74.382	-41.846	-21.854	-0.37463	0.37939	-0.46796	0.70468	31.1	13111	100
2025-3-27 18:36:30.57	WT901BLE68-01(48591DE3C19B)	-0.514	-0.944	0.051	-25.513	-122.375	138.733	-75.43	-5.70	-112.00	-74.382	-41.846	-21.854	-0.37463	0.37939	-0.46796	0.70468	31.1	13111	100
2025-3-27 18:36:30.91	WT901BLE68-01(48591DE3C19B)	-0.422	-0.944	0.051	-25.513	-122.375	138.733	-75.77	-4.44	-110.62	-74.382	-41.846	-21.854	-0.37463	0.37939	-0.46796	0.70468	31.1	13111	100
2025-3-27 18:36:30.91	WT901BLE68-01(48591DE3C19B)	-0.422	-1.128	0.023	-20.630	-138.306	151.550	-76.06	-3.13	-109.15	-74.382	-41.846	-21.854	-0.37463	0.37939	-0.46796	0.70468	31.1	13111	100
2025-3-27 18:36:30.91	WT901BLE68-01(48591DE3C19B)	-0.336	-1.128	0.023	-20.630	-138.306	151.550	-76.31	-1.79	-107.58	-74.382	-41.846	-21.854	-0.37463	0.37939	-0.46796	0.70468	31.1	13111	100
2025-3-27 18:36:30.91	WT901BLE68-01(48591DE3C19B)	-0.336	-1.295	0.016	-6.836	-140.259	158.936	-76.46	-0.42	-106.00	-74.382	-41.846	-21.854	-0.37463	0.37939	-0.46796	0.70468	31.1	13111	100
2025-3-27 18:36:30.116	WT901BLE68-01(48591DE3C19B)	-0.271	-1.295	0.016	-6.836	-140.259	158.936	-76.51	0.97	-104.39	-74.382	-41.846	-21.854	-0.37463	0.37939	-0.46796	0.70468	31.1	13111	100
2025-3-27 18:36:30.116	WT901BLE68-01(48591DE3C19B)	-0.271	-1.294	0.052	9.155	-128.723	164.917	-76.45	2.38	-102.82	-74.382	-41.846	-21.854	-0.37463	0.37939	-0.46796	0.70468	31.1	13111	100
2025-3-27 18:36:30.116	WT901BLE68-01(48591DE3C19B)	-0.243	-1.294	0.052	9.155	-128.723	164.917	-76.28	3.82	-101.28	-74.382	-41.846	-21.854	-0.37463	0.37939	-0.46796	0.70468	31.1	13111	100
2025-3-27 18:36:30.116	WT901BLE68-01(48591DE3C19B)	-0.243	-1.209	0.096	18.494	-109.070	169.495	-76.00	5.33	-99.93	-74.382	-41.846	-21.854	-0.37463	0.37939	-0.46796	0.70468	31.1	13111	100
2025-3-27 18:36:30.178	WT901BLE68-01(48591DE3C19B)	-0.217	-1.209	0.096	18.494	-109.070	169.495	-75.68	6.81	-98.55	-74.382	-41.846	-21.854	-0.37463	0.37939	-0.46796	0.70468	31.1	13111	100
2025-3-27 18:36:30.178	WT901BLE68-01(48591DE3C19B)	-0.217	-1.142	0.126	22.278	-83.740	174.438	-75.32	8.38	-97.40	-74.382	-41.846	-21.854	-0.37463	0.37939	-0.46796	0.70468	31.1	13111	100
2025-3-27 18:36:30.178	WT901BLE68-01(48591DE3C19B)	-0.186	-1.142	0.126	22.278	-83.740	174.438	-74.93	9.93	-96.24	-74.382	-41.846	-21.854	-0.37463	0.37939	-0.46796	0.70468	31.1	13111	100
2025-3-27 18:36:30.178	WT901BLE68-01(48591DE3C19B)	-0.186	-1.149	0.140	22.888	-53.101	181.213	-74.56	11.59	-95.34	-74.382	-41.846	-21.854	-0.37463	0.37939	-0.46796	0.70468	31.1	13111	100
2025-3-27 18:36:30.208	WT901BLE68-01(48591DE3C19B)	-0.159	-1.149	0.140	22.888	-53.101	181.213	-74.15	13.24	-94.44	-74.382	-41.846	-21.854	-0.37463	0.37939	-0.46796	0.70468	31.1	13111	100
2025-3-27 18:36:30.209	WT901BLE68-01(48591DE3C19B)	-0.159	-1.115	0.119	25.513	-20.508	187.805	-73.77	15.01	-93.82	-74.382	-41.846	-21.854	-0.37463	0.37939	-0.46796	0.70468	31.1	13111	100
2025-3-27 18:36:30.209	WT901BLE68-01(48591DE3C19B)	-0.156	-1.115	0.119	25.513	-20.508	187.805	-73.37	16.77	-93.18	-74.382	-41.846	-21.854	-0.37463	0.37939	-0.46796	0.70468	31.1	13111	100
2025-3-27 18:36:30.209	WT901BLE68-01(48591DE3C19B)	-0.156	-1.053	0.092	21.973	4.639	192.932	-73.04	18.63	-92.77	-79.772	-39.102	-24.206	-0.37463	0.37939	-0.46796	0.70468	31.1	13111	100
2025-3-27 18:36:30.238	WT901BLE68-01(48591DE3C19B)	-0.174	-1.053	0.092	21.973	4.639	192.932	-72.71	20.47	-92.33	-79.772	-39.102	-24.206	-0.37463	0.37939	-0.46796	0.70468	31.1	13111	100
2025-3-27 18:36:30.238	WT901BLE68-01(48591DE3C19B)	-0.174	-1.075	0.086	15.259	18.921	194.458	-72.47	22.35	-92.03	-79.772	-39.102	-24.206	-0.37463	0.37939	-0.46796	0.70468	31.1	13111	100
2025-3-27 18:36:30.238	WT901BLE68-01(48591DE3C19B)	-0.213	-1.075	0.086	15.259	18.921	194.458	-72.22	24.22	-91.72	-79.772	-39.102	-24.206	-0.37463	0.37939	-0.46796	0.70468	31.1	13111	100
2025-3-27 18:36:30.238	WT901BLE68-01(48591DE3C19B)	-0.213	-1.198	0.098	7.568	22.034	191.956	-72.06	26.05	-91.44	-79.772	-39.102	-24.206	-0.37463	0.37939	-0.46796	0.70468	31.1	13111	100
2025-3-27 18:36:30.296	WT901BLE68-01(48591DE3C19B)	-0.239	-1.198	0.098	7.568	22.034	191.956	-71.88	27.88	-91.15	-79.772	-39.102	-24.206	-0.37463	0.37939	-0.46796	0.70468	31.1	13111	100
2025-3-27 18:36:30.296	WT901BLE68-01(48591DE3C19B)	-0.239	-1.333	0.099	6.287	18.616	188.599	-71.69	29.65	-90.82	-79.772	-39.102	-24.206	-0.37463	0.37939	-0.46796	0.70468	31.1	13111	100
2025-3-27 18:36:30.296	WT901BLE68-01(48591DE3C19B)	-0.245	-1.333	0.099	6.287	18.616	188.599	-71.49	31.40	-90.49	-79.772	-39.102	-24.206	-0.37463	0.37939	-0.46796	0.70468	31.1	13111	100
2025-3-27 18:36:30.296	WT901BLE68-01(48591DE3C19B)	-0.245	-1.442	0.104	4.944	13.977	182.556	-71.27	33.07	-90.11	-79.772	-39.102	-24.206	-0.37463	0.37939	-0.46796	0.70468	31.1	13111	100
2025-3-27 18:36:30.325	WT901BLE68-01(48591DE3C19B)	-0.261	-1.442	0.104	4.944	13.977	182.556	-71.03	34.73	-89.73	-79.772	-39.102	-24.206	-0.37463	0.37939	-0.46796	0.70468	31.1	13111	100
2025-3-27 18:36:30.326	WT901BLE68-01(48591DE3C19B)	-0.261	-1.626	0.098	2.197	7.263	170.715	-70.78	36.24	-89.29	-79.772	-39.102	-24.206	-0.37463	0.37939	-0.46796	0.70468	31.1	13111	100
2025-3-27 18:36:30.326	WT901BLE68-01(48591DE3C19B)	-0.242	-1.626	0.098	2.197	7.263	170.715	-70.53	37.74	-88.85	-79.772	-39.102	-24.206	-0.37463	0.37939	-0.46796	0.70468	31.1	13111	100
2025-3-27 18:36:30.326	WT901BLE68-01(48591DE3C19B)	-0.242	-1.772	0.068	5.005	-0.122	152.832	-70.21	39.03	-88.37	-79.772	-39.102	-24.206	-0.37463	0.37939	-0.46796	0.70468	31.1	13111	100
2025-3-27 18:36:30.358	WT901BLE68-01(48591DE3C19B)	-0.205	-1.772	0.068	5.005	-0.122	152.832	-69.88	40.31	-87.89	-79.772	-39.102	-24.206	-0.37463	0.37939	-0.46796	0.70468	31.1	13111	100
2025-3-27 18:36:30.358	WT901BLE68-01(48591DE3C19B)	-0.205	-1.709	0.108	10.010	-11.414	130.981	-69.46	41.35	-87.35	-79.772	-39.102	-24.206	-0.37463	0.37939	-0.46796	0.70468	31.1	13111	100
2025-3-27 18:36:30.358	WT901BLE68-01(48591DE3C19B)	-0.182	-1.709	0.108	10.010	-11.414	130.981	-69.02	42.36	-86.79	-79.772	-39.102	-24.206	-0.37463	0.37939	-0.46796	0.70468	31.1	13111	100
2025-3-27 18:36:30.358	WT901BLE68-01(48591DE3C19B)	-0.182	-1.613	0.181	8.606	-23.376	104.492	-68.56	43.08	-86.19	-79.772	-39.102	-24.206	-0.37463	0.37939	-0.46796	0.70468	31.1	13111	100
2025-3-27 18:36:30.416	WT901BLE68-01(48591DE3C19B)	-0.114	-1.613	0.181	8.606	-23.376	104.492	-68.09	43.79	-85.58	-79.772	-39.102	-24.206	-0.37463	0.37939	-0.46796	0.70468	31.1	13111	100
2025-3-27 18:36:30.416	WT901BLE68-01(48591DE3C19B)	-0.114	-1.460	0.222	11.292	-27.161	75.989	-67.65	44.20	-85.07	-79.772	-39.102	-24.206	-0.71011	0.16739	-0.57864	0.36441	31.1	13111	100
2025-3-27 18:36:30.417	WT901BLE68-01(48591DE3C19B)	-0.011	-1.460	0.222	11.292	-27.161	75.989	-67.20	44.62	-84.54	-79.772	-39.102	-24.206	-0.71011	0.16739	-0.57864	0.36441	31.1	13111	100
2025-3-27 18:36:30.417	WT901BLE68-01(48591DE3C19B)	-0.011	-1.218	0.238	11.414	-22.766	49.377	-66.88	44.79	-84.22	-79.772	-39.102	-24.206	-0.71011	0.16739	-0.57864	0.36441	31.1	13111	100
2025-3-27 18:36:30.445	WT901BLE68-01(48591DE3C19B)	0.063	-1.218	0.238	11.414	-22.766	49.377	-66.56	44.96	-83.89	-79.772	-39.102	-24.206	-0.71011	0.16739	-0.57864	0.36441	31.1	13111	100
2025-3-27 18:36:30.446	WT901BLE68-01(48591DE3C19B)	0.063	-1.062	0.252	8.545	-14.404	22.034	-66.46	44.91	-83.81	-79.772	-39.102	-24.206	-0.71011	0.16739	-0.57864	0.36441	31.1	13111	100
2025-3-27 18:36:30.446	WT901BLE68-01(48591DE3C19B)	0.091	-1.062	0.252	8.545	-14.404	22.034	-66.35	44.85	-83.75	-79.772	-39.102	-24.206	-0.71011	0.16739	-0.57864	0.36441	31.1	13111	100
2025-3-27 18:36:30.446	WT901BLE68-01(48591DE3C19B)	0.091	-1.036	0.223	6.287	-1.831	-8.911	-66.49	44.56	-84.01	-79.772	-39.102	-24.206	-0.71011	0.16739	-0.57864	0.36441	31.1	13111	100
2025-3-27 18:36:30.476	WT901BLE68-01(48591DE3C19B)	0.083	-1.036	0.223	6.287	-1.831	-8.911	-66.64	44.25	-84.27	-79.772	-39.102	-24.206	-0.71011	0.16739	-0.57864	0.36441	31.1	13111	100
2025-3-27 18:36:30.476	WT901BLE68-01(48591DE3C19B)	0.083	-1.011	0.181	9.521	12.451	-36.255	-66.97	43.76	-84.86	-79.772	-39.102	-24.206	-0.71011	0.16739	-0.57864	0.36441	31.1	13111	100
2025-3-27 18:36:30.476	WT901BLE68-01(48591DE3C19B)	0.056	-1.011	0.181	9.521	12.451	-36.255	-67.30	43.25	-85.44	-79.772	-39.102	-24.206	-0.71011	0.16739	-0.57864	0.36441	31.1	13111	100
2025-3-27 18:36:30.476	WT901BLE68-01(48591DE3C19B)	0.056	-0.925	0.180	12.024	16.663	-59.753	-67.70	42.55	-86.17	-79.772	-39.102	-24.206	-0.71011	0.16739	-0.57864	0.36441	31.1	13111	100
2025-3-27 18:36:30.536	WT901BLE68-01(48591DE3C19B)	0.071	-0.925	0.180	12.024	16.663	-59.753	-68.09	41.84	-86.89	-79.772	-39.102	-24.206	-0.71011	0.16739	-0.57864	0.36441	31.1	13111	100
2025-3-27 18:36:30.537	WT901BLE68-01(48591DE3C19B)	0.071	-0.926	0.188	11.658	17.822	-81.238	-68.53	40.94	-87.70	-79.772	-39.102	-24.206	-0.71011	0.16739	-0.57864	0.36441	31.1	13111	100
2025-3-27 18:36:30.537	WT901BLE68-01(48591DE3C19B)	0.056	-0.926	0.188	11.658	17.822	-81.238	-68.96	40.03	-88.49	-79.772	-39.102	-24.206	-0.71011	0.16739	-0.57864	0.36441	31.1	13111	100
2025-3-27 18:36:30.537	WT901BLE68-01(48591DE3C19B)	0.056	-0.946	0.192	15.137	27.405	-99.243	-69.44	38.99	-89.46	-79.772	-39.102	-24.206	-0.71011	0.16739	-0.57864	0.36441	31.1	13111	100
2025-3-27 18:36:30.568	WT901BLE68-01(48591DE3C19B)	-0.012	-0.946	0.192	15.137	27.405	-99.243	-69.89	37.95	-90.39	-79.772	-39.102	-24.206	-0.71011	0.16739	-0.57864	0.36441	31.1	13111	100
2025-3-27 18:36:30.568	WT901BLE68-01(48591DE3C19B)	-0.012	-0.958	0.197	17.395	36.621	-115.967	-70.39	36.77	-91.47	-79.772	-39.102	-24.206	-0.71011	0.16739	-0.57864	0.36441	31.1	13111	100
2025-3-27 18:36:30.568	WT901BLE68-01(48591DE3C19B)	-0.051	-0.958	0.197	17.395	36.621	-115.967	-70.86	35.60	-92.52	-79.772	-39.102	-24.206	-0.71011	0.16739	-0.57864	0.36441	31.1	13111	100
2025-3-27 18:36:30.568	WT901BLE68-01(48591DE3C19B)	-0.072	-1.002	0.197	19.775	44.250	-132.813	-71.36	34.29	-93.69	-79.772	-39.102	-24.206	-0.71011	0.16739	-0.57864	0.36441	31.1	13111	100
2025-3-27 18:36:30.598	WT901BLE68-01(48591DE3C19B)	-0.072	-0.990	0.200	22.583	54.626	-148.376	-71.84	32.93	-94.91	-79.772	-39.102	-24.206	-0.71011	0.16739	-0.57864	0.36441	31.1	13111	100
2025-3-27 18:36:30.598	WT901BLE68-01(48591DE3C19B)	-0.098	-0.990	0.200	22.583	54.626	-148.376	-72.31	31.51	-96.17	-79.772	-39.102	-24.206	-0.71011	0.16739	-0.57864	0.36441	31.1	13111	100
2025-3-27 18:36:30.598	WT901BLE68-01(48591DE3C19B)	-0.098	-0.956	0.210	22.888	67.749	-162.720	-72.78	30.05	-97.50	-78.890	-33.320	-23.716	-0.71011	0.16739	-0.57864	0.36441	31.1	13111	100
2025-3-27 18:36:30.598	WT901BLE68-01(48591DE3C19B)	-0.142	-0.956	0.210	22.888	67.749	-162.720	-73.24	28.53	-98.88	-78.890	-33.320	-23.716	-0.71011	0.16739	-0.57864	0.36441	31.1	13111	100
2025-3-27 18:36:30.656	WT901BLE68-01(48591DE3C19B)	-0.142	-0.935	0.211	22.644	81.970	-176.086	-73.70	26.97	-100.32	-78.890	-33.320	-23.716	-0.71011	0.16739	-0.57864	0.36441	31.1	13111	100
2025-3-27 18:36:30.657	WT901BLE68-01(48591DE3C19B)	-0.195	-0.935	0.211	22.644	81.970	-176.086	-74.15	25.37	-101.82	-78.890	-33.320	-23.716	-0.71011	0.16739	-0.57864	0.36441	31.1	13111	100
2025-3-27 18:36:30.657	WT901BLE68-01(48591DE3C19B)	-0.195	-0.892	0.200	23.804	93.140	-188.110	-74.56	23.74	-103.35	-78.890	-33.320	-23.716	-0.71011	0.16739	-0.57864	0.36441	31.1	13111	100
2025-3-27 18:36:30.657	WT901BLE68-01(48591DE3C19B)	-0.237	-0.892	0.200	23.804	93.140	-188.110	-74.95	22.06	-104.92	-78.890	-33.320	-23.716	-0.71011	0.16739	-0.57864	0.36441	31.1	13111	100
2025-3-27 18:36:30.690	WT901BLE68-01(48591DE3C19B)	-0.237	-0.830	0.198	24.414	97.046	-198.120	-75.29	20.34	-106.48	-78.890	-33.320	-23.716	-0.71011	0.16739	-0.57864	0.36441	31.1	13111	100
2025-3-27 18:36:30.690	WT901BLE68-01(48591DE3C19B)	-0.277	-0.830	0.198	24.414	97.046	-198.120	-75.57	18.59	-108.06	-78.890	-33.320	-23.716	-0.71011	0.16739	-0.57864	0.36441	31.1	13111	100
2025-3-27 18:36:30.690	WT901BLE68-01(48591DE3C19B)	-0.277	-0.810	0.213	23.743	94.055	-206.604	-75.81	16.80	-109.59	-78.890	-33.320	-23.716	-0.71011	0.16739	-0.57864	0.36441	31.1	13111	100
2025-3-27 18:36:30.690	WT901BLE68-01(48591DE3C19B)	-0.352	-0.810	0.213	23.743	94.055	-206.604	-75.99	14.98	-111.09	-78.890	-33.320	-23.716	-0.71011	0.16739	-0.57864	0.36441	31.1	13111	100
2025-3-27 18:36:30.716	WT901BLE68-01(48591DE3C19B)	-0.352	-0.831	0.235	25.330	85.327	-211.853	-76.10	13.14	-112.54	-78.890	-33.320	-23.716	-0.71011	0.16739	-0.57864	0.36441	31.1	13111	100
2025-3-27 18:36:30.716	WT901BLE68-01(48591DE3C19B)	-0.469	-0.831	0.235	25.330	85.327	-211.853	-76.15	11.28	-113.93	-78.890	-33.320	-23.716	-0.71011	0.16739	-0.57864	0.36441	31.1	13111	100
2025-3-27 18:36:30.716	WT901BLE68-01(48591DE3C19B)	-0.469	-0.866	0.262	28.870	64.209	-212.524	-76.11	9.40	-115.21	-78.890	-33.320	-23.716	-0.71011	0.16739	-0.57864	0.36441	31.1	13111	100
2025-3-27 18:36:30.716	WT901BLE68-01(48591DE3C19B)	-0.575	-0.866	0.262	28.870	64.209	-212.524	-75.99	7.53	-116.39	-78.890	-33.320	-23.716	-0.71011	0.16739	-0.57864	0.36441	31.1	13111	100
2025-3-27 18:36:30.778	WT901BLE68-01(48591DE3C19B)	-0.575	-0.919	0.271	31.799	33.630	-208.862	-75.81	5.65	-117.41	-78.890	-33.320	-23.716	-0.71011	0.16739	-0.57864	0.36441	31.1	13111	100
2025-3-27 18:36:30.778	WT901BLE68-01(48591DE3C19B)	-0.629	-0.919	0.271	31.799	33.630	-208.862	-75.55	3.78	-118.28	-78.890	-33.320	-23.716	-0.71011	0.16739	-0.57864	0.36441	31.1	13111	100
2025-3-27 18:36:30.778	WT901BLE68-01(48591DE3C19B)	-0.629	-0.968	0.295	31.555	0.916	-199.829	-75.27	1.94	-119.00	-78.890	-33.320	-23.716	-0.71011	0.16739	-0.57864	0.36441	31.1	13111	100
2025-3-27 18:36:30.778	WT901BLE68-01(48591DE3C19B)	-0.627	-0.968	0.295	31.555	0.916	-199.829	-74.96	0.13	-119.56	-78.890	-33.320	-23.716	-0.71011	0.16739	-0.57864	0.36441	31.1	13111	100
2025-3-27 18:36:30.808	WT901BLE68-01(48591DE3C19B)	-0.627	-1.068	0.308	25.635	-25.513	-187.500	-74.67	-1.63	-120.00	-78.890	-33.320	-23.716	-0.71011	0.16739	-0.57864	0.36441	31.1	13111	100
2025-3-27 18:36:30.808	WT901BLE68-01(48591DE3C19B)	-0.611	-1.068	0.308	25.635	-25.513	-187.500	-74.39	-3.36	-120.31	-78.890	-33.320	-23.716	-0.71011	0.16739	-0.57864	0.36441	31.1	13111	100
2025-3-27 18:36:30.809	WT901BLE68-01(48591DE3C19B)	-0.611	-1.197	0.328	20.264	-43.335	-173.218	-74.14	-5.03	-120.52	-78.890	-33.320	-23.716	-0.71011	0.16739	-0.57864	0.36441	31.1	13111	100
2025-3-27 18:36:30.809	WT901BLE68-01(48591DE3C19B)	-0.593	-1.197	0.328	20.264	-43.335	-173.218	-73.93	-6.64	-120.64	-78.890	-33.320	-23.716	-0.36472	0.33740	-0.49860	0.71021	31.1	13111	100
2025-3-27 18:36:30.838	WT901BLE68-01(48591DE3C19B)	-0.593	-1.291	0.365	19.287	-48.096	-158.569	-73.71	-8.17	-120.72	-78.890	-33.320	-23.716	-0.36472	0.33740	-0.49860	0.71021	31.1	13111	100
2025-3-27 18:36:30.838	WT901BLE68-01(48591DE3C19B)	-0.587	-1.291	0.365	19.287	-48.096	-158.569	-73.52	-9.64	-120.77	-78.890	-33.320	-23.716	-0.36472	0.33740	-0.49860	0.71021	31.1	13111	100
2025-3-27 18:36:30.838	WT901BLE68-01(48591DE3C19B)	-0.587	-1.335	0.410	15.564	-41.016	-140.503	-73.33	-10.99	-120.83	-78.890	-33.320	-23.716	-0.36472	0.33740	-0.49860	0.71021	31.1	13111	100
2025-3-27 18:36:30.838	WT901BLE68-01(48591DE3C19B)	-0.564	-1.335	0.410	15.564	-41.016	-140.503	-73.16	-12.24	-120.90	-78.890	-33.320	-23.716	-0.36472	0.33740	-0.49860	0.71021	31.1	13111	100
2025-3-27 18:36:30.896	WT901BLE68-01(48591DE3C19B)	-0.564	-1.344	0.434	14.465	-18.311	-122.925	-72.97	-13.38	-121.06	-78.890	-33.320	-23.716	-0.36472	0.33740	-0.49860	0.71021	31.1	13111	100
2025-3-27 18:36:30.896	WT901BLE68-01(48591DE3C19B)	-0.562	-1.344	0.434	14.465	-18.311	-122.925	-72.77	-14.38	-121.32	-78.890	-33.320	-23.716	-0.36472	0.33740	-0.49860	0.71021	31.1	13111	100
2025-3-27 18:36:30.896	WT901BLE68-01(48591DE3C19B)	-0.562	-1.306	0.433	11.353	15.503	-103.577	-72.54	-15.24	-121.72	-78.890	-33.320	-23.716	-0.36472	0.33740	-0.49860	0.71021	31.1	13111	100
2025-3-27 18:36:30.896	WT901BLE68-01(48591DE3C19B)	-0.612	-1.306	0.433	11.353	15.503	-103.577	-72.28	-15.96	-122.26	-78.890	-33.320	-23.716	-0.36472	0.33740	-0.49860	0.71021	31.1	13111	100
2025-3-27 18:36:30.928	WT901BLE68-01(48591DE3C19B)	-0.612	-1.258	0.392	6.470	45.349	-82.336	-72.01	-16.52	-122.92	-78.890	-33.320	-23.716	-0.36472	0.33740	-0.49860	0.71021	31.1	13111	100
2025-3-27 18:36:30.928	WT901BLE68-01(48591DE3C19B)	-0.663	-1.258	0.392	6.470	45.349	-82.336	-71.73	-16.92	-123.69	-78.890	-33.320	-23.716	-0.36472	0.33740	-0.49860	0.71021	31.1	13111	100
2025-3-27 18:36:30.928	WT901BLE68-01(48591DE3C19B)	-0.663	-1.187	0.351	0.488	61.218	-60.425	-71.46	-17.19	-124.51	-78.890	-33.320	-23.716	-0.36472	0.33740	-0.49860	0.71021	31.1	13111	100
2025-3-27 18:36:30.928	WT901BLE68-01(48591DE3C19B)	-0.725	-1.187	0.351	0.488	61.218	-60.425	-71.20	-17.33	-125.38	-78.890	-33.320	-23.716	-0.36472	0.33740	-0.49860	0.71021	31.1	13111	100
2025-3-27 18:36:30.956	WT901BLE68-01(48591DE3C19B)	-0.725	-1.126	0.328	-5.249	57.068	-36.621	-70.99	-17.35	-126.18	-78.890	-33.320	-23.716	-0.36472	0.33740	-0.49860	0.71021	31.1	13111	100
2025-3-27 18:36:30.956	WT901BLE68-01(48591DE3C19B)	-0.773	-1.126	0.328	-5.249	57.068	-36.621	-70.83	-17.26	-126.94	-78.890	-33.320	-23.716	-0.36472	0.33740	-0.49860	0.71021	31.1	13111	100
2025-3-27 18:36:30.956	WT901BLE68-01(48591DE3C19B)	-0.773	-0.997	0.311	-7.751	35.034	-9.155	-70.73	-17.07	-127.53	-78.890	-33.320	-23.716	-0.36472	0.33740	-0.49860	0.71021	31.1	13111	100
2025-3-27 18:36:30.956	WT901BLE68-01(48591DE3C19B)	-0.770	-0.997	0.311	-7.751	35.034	-9.155	-70.69	-16.78	-127.97	-78.890	-33.320	-23.716	-0.36472	0.33740	-0.49860	0.71021	31.1	13111	100
2025-3-27 18:36:31.16	WT901BLE68-01(48591DE3C19B)	-0.770	-0.813	0.263	-10.742	1.709	22.705	-70.72	-16.40	-128.20	-78.890	-33.320	-23.716	-0.36472	0.33740	-0.49860	0.71021	31.1	13111	100
2025-3-27 18:36:31.17	WT901BLE68-01(48591DE3C19B)	-0.748	-0.813	0.263	-10.742	1.709	22.705	-70.82	-15.91	-128.23	-78.890	-33.320	-23.716	-0.36472	0.33740	-0.49860	0.71021	31.1	13111	100
2025-3-27 18:36:31.17	WT901BLE68-01(48591DE3C19B)	-0.748	-0.720	0.170	-19.165	-41.077	57.007	-71.04	-15.33	-127.99	-78.890	-33.320	-23.716	-0.36472	0.33740	-0.49860	0.71021	31.1	13111	100
2025-3-27 18:36:31.17	WT901BLE68-01(48591DE3C19B)	-0.696	-0.720	0.170	-19.165	-41.077	57.007	-71.35	-14.66	-127.51	-78.890	-33.320	-23.716	-0.36472	0.33740	-0.49860	0.71021	31.1	13111	100
2025-3-27 18:36:31.45	WT901BLE68-01(48591DE3C19B)	-0.696	-0.814	0.085	-27.893	-86.243	90.942	-71.77	-13.89	-126.75	-49.490	-46.844	-18.914	-0.36472	0.33740	-0.49860	0.71021	31.1	13111	100
2025-3-27 18:36:31.45	WT901BLE68-01(48591DE3C19B)	-0.601	-0.814	0.085	-27.893	-86.243	90.942	-72.27	-13.02	-125.75	-49.490	-46.844	-18.914	-0.36472	0.33740	-0.49860	0.71021	31.1	13111	100
2025-3-27 18:36:31.45	WT901BLE68-01(48591DE3C19B)	-0.601	-0.964	0.036	-26.672	-122.742	122.314	-72.80	-12.05	-124.52	-49.490	-46.844	-18.914	-0.36472	0.33740	-0.49860	0.71021	31.1	13111	100
2025-3-27 18:36:31.45	WT901BLE68-01(48591DE3C19B)	-0.496	-0.964	0.036	-26.672	-122.742	122.314	-73.35	-10.97	-123.09	-49.490	-46.844	-18.914	-0.36472	0.33740	-0.49860	0.71021	31.1	13111	100
2025-3-27 18:36:31.76	WT901BLE68-01(48591DE3C19B)	-0.496	-1.076	0.021	-20.630	-146.301	149.963	-73.87	-9.70	-121.35	-49.490	-46.844	-18.914	-0.36472	0.33740	-0.49860	0.71021	31.1	13111	100
2025-3-27 18:36:31.76	WT901BLE68-01(48591DE3C19B)	-0.376	-1.076	0.021	-20.630	-146.301	149.963	-74.34	-8.41	-119.64	-49.490	-46.844	-18.914	-0.36472	0.33740	-0.49860	0.71021	31.1	13111	100
2025-3-27 18:36:31.76	WT901BLE68-01(48591DE3C19B)	-0.376	-1.187	0.027	-10.864	-157.349	171.326	-74.71	-6.95	-117.75	-49.490	-46.844	-18.914	-0.36472	0.33740	-0.49860	0.71021	31.1	13111	100
2025-3-27 18:36:31.76	WT901BLE68-01(48591DE3C19B)	-0.243	-1.187	0.027	-10.864	-157.349	171.326	-75.04	-5.49	-115.87	-49.490	-46.844	-18.914	-0.36472	0.33740	-0.49860	0.71021	31.1	13111	100
2025-3-27 18:36:31.136	WT901BLE68-01(48591DE3C19B)	-0.243	-1.252	0.081	3.723	-148.071	187.927	-75.17	-3.86	-114.04	-49.490	-46.844	-18.914	-0.36472	0.33740	-0.49860	0.71021	31.1	13111	100
2025-3-27 18:36:31.137	WT901BLE68-01(48591DE3C19B)	-0.148	-1.252	0.081	3.723	-148.071	187.927	-75.26	-2.25	-112.20	-49.490	-46.844	-18.914	-0.36472	0.33740	-0.49860	0.71021	31.1	13111	100
2025-3-27 18:36:31.137	WT901BLE68-01(48591DE3C19B)	-0.148	-1.311	0.137	16.968	-119.812	202.087	-75.15	-0.45	-110.60	-49.490	-46.844	-18.914	-0.36472	0.33740	-0.49860	0.71021	31.1	13111	100
2025-3-27 18:36:31.137	WT901BLE68-01(48591DE3C19B)	-0.103	-1.311	0.137	16.968	-119.812	202.087	-75.00	1.32	-109.00	-49.490	-46.844	-18.914	-0.36472	0.33740	-0.49860	0.71021	31.1	13111	100
2025-3-27 18:36:31.168	WT901BLE68-01(48591DE3C19B)	-0.103	-1.300	0.193	30.212	-78.735	213.745	-74.67	3.29	-107.75	-49.490	-46.844	-18.914	-0.36472	0.33740	-0.49860	0.71021	31.1	13111	100
2025-3-27 18:36:31.168	WT901BLE68-01(48591DE3C19B)	-0.092	-1.300	0.193	30.212	-78.735	213.745	-74.31	5.23	-106.48	-49.490	-46.844	-18.914	-0.36472	0.33740	-0.49860	0.71021	31.1	13111	100
2025-3-27 18:36:31.168	WT901BLE68-01(48591DE3C19B)	-0.092	-1.217	0.189	36.865	-30.212	223.083	-73.89	7.36	-105.65	-49.490	-46.844	-18.914	-0.36472	0.33740	-0.49860	0.71021	31.1	13111	100
2025-3-27 18:36:31.168	WT901BLE68-01(48591DE3C19B)	-0.129	-1.217	0.189	36.865	-30.212	223.083	-73.43	9.46	-104.79	-49.490	-46.844	-18.914	-0.36472	0.33740	-0.49860	0.71021	31.1	13111	100
2025-3-27 18:36:31.198	WT901BLE68-01(48591DE3C19B)	-0.129	-1.117	0.158	36.621	14.099	231.506	-73.02	11.75	-104.32	-49.490	-46.844	-18.914	-0.36472	0.33740	-0.49860	0.71021	31.1	13111	100
2025-3-27 18:36:31.198	WT901BLE68-01(48591DE3C19B)	-0.161	-1.117	0.158	36.621	14.099	231.506	-72.58	14.01	-103.83	-49.490	-46.844	-18.914	-0.36472	0.33740	-0.49860	0.71021	31.1	13111	100
2025-3-27 18:36:31.198	WT901BLE68-01(48591DE3C19B)	-0.161	-1.074	0.120	29.236	43.213	238.342	-72.26	16.41	-103.58	-49.490	-46.844	-18.914	-0.56052	0.27032	-0.52988	0.57605	31.1	13111	100
2025-3-27 18:36:31.198	WT901BLE68-01(48591DE3C19B)	-0.181	-1.074	0.120	29.236	43.213	238.342	-71.93	18.79	-103.33	-49.490	-46.844	-18.914	-0.56052	0.27032	-0.52988	0.57605	31.1	13111	100
2025-3-27 18:36:31.256	WT901BLE68-01(48591DE3C19B)	-0.181	-1.090	0.108	19.226	55.054	242.065	-71.73	21.22	-103.16	-49.490	-46.844	-18.914	-0.56052	0.27032	-0.52988	0.57605	31.1	13111	100
2025-3-27 18:36:31.256	WT901BLE68-01(48591DE3C19B)	-0.218	-1.090	0.108	19.226	55.054	242.065	-71.51	23.64	-102.97	-49.490	-46.844	-18.914	-0.56052	0.27032	-0.52988	0.57605	31.1	13111	100
2025-3-27 18:36:31.257	WT901BLE68-01(48591DE3C19B)	-0.218	-1.178	0.103	7.996	50.049	242.371	-71.37	26.03	-102.73	-49.490	-46.844	-18.914	-0.56052	0.27032	-0.52988	0.57605	31.1	13111	100
2025-3-27 18:36:31.257	WT901BLE68-01(48591DE3C19B)	-0.251	-1.178	0.103	7.996	50.049	242.371	-71.22	28.39	-102.48	-49.490	-46.844	-18.914	-0.56052	0.27032	-0.52988	0.57605	31.1	13111	100
2025-3-27 18:36:31.290	WT901BLE68-01(48591DE3C19B)	-0.251	-1.384	0.090	-2.197	34.119	237.427	-71.09	30.65	-102.06	-49.490	-46.844	-18.914	-0.56052	0.27032	-0.52988	0.57605	31.1	13111	100
2025-3-27 18:36:31.290	WT901BLE68-01(48591DE3C19B)	-0.276	-1.384	0.090	-2.197	34.119	237.427	-70.93	32.89	-101.63	-49.490	-46.844	-18.914	-0.56052	0.27032	-0.52988	0.57605	31.1	13111	100
2025-3-27 18:36:31.290	WT901BLE68-01(48591DE3C19B)	-0.276	-1.631	0.103	-3.845	13.733	228.516	-70.66	34.97	-100.99	-49.490	-46.844	-18.914	-0.56052	0.27032	-0.52988	0.57605	31.1	13111	100
2025-3-27 18:36:31.291	WT901BLE68-01(48591DE3C19B)	-0.290	-1.631	0.103	-3.845	13.733	228.516	-70.35	37.03	-100.32	-49.490	-46.844	-18.914	-0.56052	0.27032	-0.52988	0.57605	31.1	13111	100
2025-3-27 18:36:31.347	WT901BLE68-01(48591DE3C19B)	-0.290	-1.809	0.169	1.648	-9.949	212.952	-69.82	38.85	-99.40	-49.490	-46.844	-18.914	-0.56052	0.27032	-0.52988	0.57605	31.1	13111	100
2025-3-27 18:36:31.347	WT901BLE68-01(48591DE3C19B)	-0.278	-1.809	0.169	1.648	-9.949	212.952	-69.24	40.65	-98.45	-49.490	-46.844	-18.914	-0.56052	0.27032	-0.52988	0.57605	31.1	13111	100
2025-3-27 18:36:31.347	WT901BLE68-01(48591DE3C19B)	-0.278	-1.852	0.245	13.550	-35.522	187.988	-68.36	42.10	-97.25	-49.490	-46.844	-18.914	-0.56052	0.27032	-0.52988	0.57605	31.1	13111	100
2025-3-27 18:36:31.347	WT901BLE68-01(48591DE3C19B)	-0.255	-1.852	0.245	13.550	-35.522	187.988	-67.42	43.53	-96.00	-49.490	-46.844	-18.914	-0.56052	0.27032	-0.52988	0.57605	31.1	13111	100
2025-3-27 18:36:31.378	WT901BLE68-01(48591DE3C19B)	-0.255	-1.743	0.283	23.682	-58.228	155.945	-66.24	44.55	-94.58	-49.490	-46.844	-18.914	-0.56052	0.27032	-0.52988	0.57605	31.1	13111	100
2025-3-27 18:36:31.378	WT901BLE68-01(48591DE3C19B)	-0.208	-1.743	0.283	23.682	-58.228	155.945	-65.01	45.54	-93.10	-49.490	-46.844	-18.914	-0.56052	0.27032	-0.52988	0.57605	31.1	13111	100
2025-3-27 18:36:31.378	WT901BLE68-01(48591DE3C19B)	-0.208	-1.691	0.267	28.076	-68.115	121.948	-63.75	46.15	-91.67	-49.490	-46.844	-18.914	-0.56052	0.27032	-0.52988	0.57605	31.1	13111	100
2025-3-27 18:36:31.378	WT901BLE68-01(48591DE3C19B)	-0.103	-1.691	0.267	28.076	-68.115	121.948	-62.46	46.74	-90.20	-49.490	-46.844	-18.914	-0.56052	0.27032	-0.52988	0.57605	31.1	13111	100
2025-3-27 18:36:31.408	WT901BLE68-01(48591DE3C19B)	-0.103	-1.543	0.263	36.255	-63.538	90.393	-61.27	47.04	-88.99	-49.490	-46.844	-18.914	-0.56052	0.27032	-0.52988	0.57605	31.1	13111	100
2025-3-27 18:36:31.409	WT901BLE68-01(48591DE3C19B)	0.079	-1.543	0.263	36.255	-63.538	90.393	-60.06	47.32	-87.76	-49.490	-46.844	-18.914	-0.56052	0.27032	-0.52988	0.57605	31.1	13111	100
2025-3-27 18:36:31.409	WT901BLE68-01(48591DE3C19B)	0.079	-1.330	0.288	41.016	-43.884	60.547	-59.15	47.42	-87.00	-90.650	-38.710	-27.342	-0.56052	0.27032	-0.52988	0.57605	31.1	13111	100
2025-3-27 18:36:31.409	WT901BLE68-01(48591DE3C19B)	0.221	-1.330	0.288	41.016	-43.884	60.547	-58.24	47.50	-86.24	-90.650	-38.710	-27.342	-0.56052	0.27032	-0.52988	0.57605	31.1	13111	100
2025-3-27 18:36:31.466	WT901BLE68-01(48591DE3C19B)	0.221	-1.165	0.312	43.152	-9.155	31.494	-57.80	47.51	-86.14	-90.650	-38.710	-27.342	-0.56052	0.27032	-0.52988	0.57605	31.1	13111	100
2025-3-27 18:36:31.466	WT901BLE68-01(48591DE3C19B)	0.257	-1.165	0.312	43.152	-9.155	31.494	-57.35	47.50	-86.03	-90.650	-38.710	-27.342	-0.56052	0.27032	-0.52988	0.57605	31.1	13111	100
2025-3-27 18:36:31.466	WT901BLE68-01(48591DE3C19B)	0.257	-1.056	0.260	42.480	37.842	3.357	-57.52	47.51	-86.74	-90.650	-38.710	-27.342	-0.56052	0.27032	-0.52988	0.57605	31.1	13111	100
2025-3-27 18:36:31.466	WT901BLE68-01(48591DE3C19B)	0.199	-1.056	0.260	42.480	37.842	3.357	-57.68	47.51	-87.45	-90.650	-38.710	-27.342	-0.56052	0.27032	-0.52988	0.57605	31.1	13111	100
2025-3-27 18:36:31.588	WT901BLE68-01(48591DE3C19B)	0.199	-0.956	0.202	41.504	77.393	-22.766	-58.36	47.48	-88.84	-90.650	-38.710	-27.342	-0.56052	0.27032	-0.52988	0.57605	31.1	13111	100
2025-3-27 18:36:31.588	WT901BLE68-01(48591DE3C19B)	0.134	-0.956	0.202	41.504	77.393	-22.766	-59.04	47.44	-90.23	-90.650	-38.710	-27.342	-0.56052	0.27032	-0.52988	0.57605	31.1	13111	100
2025-3-27 18:36:31.588	WT901BLE68-01(48591DE3C19B)	0.134	-0.927	0.167	38.574	103.455	-49.500	-60.12	47.29	-92.14	-90.650	-38.710	-27.342	-0.56052	0.27032	-0.52988	0.57605	31.1	13111	100
2025-3-27 18:36:31.588	WT901BLE68-01(48591DE3C19B)	0.041	-0.927	0.167	38.574	103.455	-49.500	-61.18	47.10	-94.03	-90.650	-38.710	-27.342	-0.56052	0.27032	-0.52988	0.57605	31.1	13111	100
2025-3-27 18:36:31.589	WT901BLE68-01(48591DE3C19B)	-0.074	-0.936	0.153	37.231	116.760	-73.792	-62.48	46.74	-96.23	-90.650	-38.710	-27.342	-0.56052	0.27032	-0.52988	0.57605	31.1	13111	100
2025-3-27 18:36:31.589	WT901BLE68-01(48591DE3C19B)	-0.074	-0.923	0.164	37.781	115.173	-95.886	-63.78	46.24	-98.46	-90.650	-38.710	-27.342	-0.56052	0.27032	-0.52988	0.57605	31.1	13111	100
2025-3-27 18:36:31.589	WT901BLE68-01(48591DE3C19B)	-0.177	-0.923	0.164	37.781	115.173	-95.886	-65.07	45.61	-100.70	-90.650	-38.710	-27.342	-0.56052	0.27032	-0.52988	0.57605	31.1	13111	100
2025-3-27 18:36:31.589	WT901BLE68-01(48591DE3C19B)	-0.177	-0.873	0.180	37.170	97.412	-116.211	-66.26	44.82	-102.82	-90.650	-38.710	-27.342	-0.56052	0.27032	-0.52988	0.57605	31.1	13111	100
2025-3-27 18:36:31.618	WT901BLE68-01(48591DE3C19B)	-0.241	-0.873	0.180	37.170	97.412	-116.211	-67.34	43.89	-104.82	-90.650	-38.710	-27.342	-0.56052	0.27032	-0.52988	0.57605	31.1	13111	100
2025-3-27 18:36:31.618	WT901BLE68-01(48591DE3C19B)	-0.241	-0.813	0.189	33.875	69.824	-136.108	-68.27	42.80	-106.63	-90.650	-38.710	-27.342	-0.56052	0.27032	-0.52988	0.57605	31.1	13111	100
2025-3-27 18:36:31.618	WT901BLE68-01(48591DE3C19B)	-0.270	-0.813	0.189	33.875	69.824	-136.108	-69.07	41.56	-108.25	-90.650	-38.710	-27.342	-0.56052	0.27032	-0.52988	0.57605	31.1	13111	100
2025-3-27 18:36:31.618	WT901BLE68-01(48591DE3C19B)	-0.270	-0.771	0.194	28.442	39.795	-155.518	-69.74	40.17	-109.68	-90.650	-38.710	-27.342	-0.56052	0.27032	-0.52988	0.57605	31.1	13111	100
2025-3-27 18:36:31.619	WT901BLE68-01(48591DE3C19B)	-0.280	-0.771	0.194	28.442	39.795	-155.518	-70.27	38.65	-110.91	-90.650	-38.710	-27.342	-0.56052	0.27032	-0.52988	0.57605	31.1	13111	100
2025-3-27 18:36:31.619	WT901BLE68-01(48591DE3C19B)	-0.280	-0.750	0.201	22.766	14.771	-173.950	-70.71	37.00	-111.99	-90.650	-38.710	-27.342	-0.56052	0.27032	-0.52988	0.57605	31.1	13111	100
2025-3-27 18:36:31.619	WT901BLE68-01(48591DE3C19B)	-0.313	-0.750	0.201	22.766	14.771	-173.950	-71.07	35.24	-112.91	-90.650	-38.710	-27.342	-0.56052	0.27032	-0.52988	0.57605	31.1	13111	100
2025-3-27 18:36:31.619	WT901BLE68-01(48591DE3C19B)	-0.313	-0.748	0.198	18.494	-2.869	-191.284	-71.36	33.38	-113.74	-90.650	-38.710	-27.342	-0.56061	0.11496	-0.59384	0.56546	31.1	13111	100
2025-3-27 18:36:31.648	WT901BLE68-01(48591DE3C19B)	-0.394	-0.748	0.198	18.494	-2.869	-191.284	-71.59	31.42	-114.47	-90.650	-38.710	-27.342	-0.56061	0.11496	-0.59384	0.56546	31.1	13111	100
2025-3-27 18:36:31.648	WT901BLE68-01(48591DE3C19B)	-0.394	-0.756	0.187	14.771	-20.020	-205.383	-71.77	29.39	-115.11	-90.650	-38.710	-27.342	-0.56061	0.11496	-0.59384	0.56546	31.1	13111	100
2025-3-27 18:36:31.648	WT901BLE68-01(48591DE3C19B)	-0.448	-0.756	0.187	14.771	-20.020	-205.383	-71.91	27.28	-115.66	-90.650	-38.710	-27.342	-0.56061	0.11496	-0.59384	0.56546	31.1	13111	100
2025-3-27 18:36:31.648	WT901BLE68-01(48591DE3C19B)	-0.448	-0.755	0.184	11.292	-36.926	-215.454	-72.00	25.13	-116.13	-90.650	-38.710	-27.342	-0.56061	0.11496	-0.59384	0.56546	31.1	13111	100
2025-3-27 18:36:31.706	WT901BLE68-01(48591DE3C19B)	-0.475	-0.755	0.184	11.292	-36.926	-215.454	-72.06	22.91	-116.52	-90.650	-38.710	-27.342	-0.56061	0.11496	-0.59384	0.56546	31.1	13111	100
2025-3-27 18:36:31.707	WT901BLE68-01(48591DE3C19B)	-0.475	-0.773	0.203	5.127	-49.927	-221.863	-72.12	20.67	-116.84	-90.650	-38.710	-27.342	-0.56061	0.11496	-0.59384	0.56546	31.1	13111	100
2025-3-27 18:36:31.707	WT901BLE68-01(48591DE3C19B)	-0.438	-0.773	0.203	5.127	-49.927	-221.863	-72.17	18.40	-117.11	-90.650	-38.710	-27.342	-0.56061	0.11496	-0.59384	0.56546	31.1	13111	100
2025-3-27 18:36:31.707	WT901BLE68-01(48591DE3C19B)	-0.438	-0.835	0.203	-1.282	-54.199	-225.708	-72.24	16.13	-117.36	-90.650	-38.710	-27.342	-0.56061	0.11496	-0.59384	0.56546	31.1	13111	100
2025-3-27 18:36:31.735	WT901BLE68-01(48591DE3C19B)	-0.344	-0.835	0.203	-1.282	-54.199	-225.708	-72.32	13.85	-117.59	-90.650	-38.710	-27.342	-0.56061	0.11496	-0.59384	0.56546	31.1	13111	100
2025-3-27 18:36:31.735	WT901BLE68-01(48591DE3C19B)	-0.344	-0.887	0.195	-5.432	-42.480	-224.609	-72.43	11.61	-117.87	-90.650	-38.710	-27.342	-0.56061	0.11496	-0.59384	0.56546	31.1	13111	100
2025-3-27 18:36:31.735	WT901BLE68-01(48591DE3C19B)	-0.267	-0.887	0.195	-5.432	-42.480	-224.609	-72.55	9.40	-118.20	-90.650	-38.710	-27.342	-0.56061	0.11496	-0.59384	0.56546	31.1	13111	100
2025-3-27 18:36:31.736	WT901BLE68-01(48591DE3C19B)	-0.267	-0.885	0.240	-8.545	-10.132	-219.971	-72.70	7.28	-118.67	-90.650	-38.710	-27.342	-0.56061	0.11496	-0.59384	0.56546	31.1	13111	100
2025-3-27 18:36:31.766	WT901BLE68-01(48591DE3C19B)	-0.217	-0.885	0.240	-8.545	-10.132	-219.971	-72.86	5.23	-119.28	-90.650	-38.710	-27.342	-0.56061	0.11496	-0.59384	0.56546	31.1	13111	100
2025-3-27 18:36:31.767	WT901BLE68-01(48591DE3C19B)	-0.217	-0.957	0.373	-10.315	36.133	-218.811	-73.02	3.27	-120.10	-90.650	-38.710	-27.342	-0.56061	0.11496	-0.59384	0.56546	31.1	13111	100
2025-3-27 18:36:31.767	WT901BLE68-01(48591DE3C19B)	-0.345	-0.957	0.373	-10.315	36.133	-218.811	-73.17	1.38	-121.12	-90.650	-38.710	-27.342	-0.56061	0.11496	-0.59384	0.56546	31.1	13111	100
2025-3-27 18:36:31.767	WT901BLE68-01(48591DE3C19B)	-0.345	-1.190	0.501	-10.437	64.331	-217.285	-73.28	-0.44	-122.28	-90.650	-38.710	-27.342	-0.56061	0.11496	-0.59384	0.56546	31.1	13111	100
2025-3-27 18:36:31.826	WT901BLE68-01(48591DE3C19B)	-0.584	-1.190	0.501	-10.437	64.331	-217.285	-73.35	-2.22	-123.56	-90.650	-38.710	-27.342	-0.56061	0.11496	-0.59384	0.56546	31.1	13111	100
2025-3-27 18:36:31.826	WT901BLE68-01(48591DE3C19B)	-0.584	-1.553	0.550	-3.784	71.411	-210.571	-73.34	-3.96	-124.87	-60.172	-54.488	-24.304	-0.56061	0.11496	-0.59384	0.56546	31.1	13111	100
2025-3-27 18:36:31.827	WT901BLE68-01(48591DE3C19B)	-0.782	-1.553	0.550	-3.784	71.411	-210.571	-73.26	-5.63	-126.20	-60.172	-54.488	-24.304	-0.56061	0.11496	-0.59384	0.56546	31.1	13111	100
2025-3-27 18:36:31.827	WT901BLE68-01(48591DE3C19B)	-0.782	-1.912	0.465	2.808	64.636	-205.200	-73.11	-7.27	-127.50	-60.172	-54.488	-24.304	-0.56061	0.11496	-0.59384	0.56546	31.1	13111	100
2025-3-27 18:36:31.855	WT901BLE68-01(48591DE3C19B)	-0.863	-1.912	0.465	2.808	64.636	-205.200	-72.90	-8.89	-128.77	-60.172	-54.488	-24.304	-0.56061	0.11496	-0.59384	0.56546	31.1	13111	100
2025-3-27 18:36:31.855	WT901BLE68-01(48591DE3C19B)	-0.863	-2.188	0.304	15.625	57.312	-178.223	-72.61	-10.36	-129.96	-60.172	-54.488	-24.304	-0.56061	0.11496	-0.59384	0.56546	31.1	13111	100
2025-3-27 18:36:31.856	WT901BLE68-01(48591DE3C19B)	-0.872	-2.188	0.304	15.625	57.312	-178.223	-72.25	-11.71	-131.09	-60.172	-54.488	-24.304	-0.56061	0.11496	-0.59384	0.56546	31.1	13111	100
2025-3-27 18:36:31.856	WT901BLE68-01(48591DE3C19B)	-0.872	-1.802	0.220	37.354	51.086	-149.963	-71.78	-12.90	-132.16	-60.172	-54.488	-24.304	-0.56061	0.11496	-0.59384	0.56546	31.1	13111	100
2025-3-27 18:36:31.916	WT901BLE68-01(48591DE3C19B)	-0.783	-1.802	0.220	37.354	51.086	-149.963	-71.20	-13.96	-133.17	-60.172	-54.488	-24.304	-0.56061	0.11496	-0.59384	0.56546	31.1	13111	100
2025-3-27 18:36:31.916	WT901BLE68-01(48591DE3C19B)	-0.783	-1.251	0.303	23.499	47.791	-111.145	-70.70	-14.82	-134.10	-60.172	-54.488	-24.304	-0.56061	0.11496	-0.59384	0.56546	31.1	13111	100
2025-3-27 18:36:31.916	WT901BLE68-01(48591DE3C19B)	-0.744	-1.251	0.303	23.499	47.791	-111.145	-70.27	-15.48	-134.98	-60.172	-54.488	-24.304	-0.56061	0.11496	-0.59384	0.56546	31.1	13111	100
2025-3-27 18:36:31.916	WT901BLE68-01(48591DE3C19B)	-0.744	-0.884	0.452	-1.587	33.569	-72.632	-70.00	-15.97	-135.73	-60.172	-54.488	-24.304	-0.56061	0.11496	-0.59384	0.56546	31.1	13111	100
2025-3-27 18:36:31.977	WT901BLE68-01(48591DE3C19B)	-0.751	-0.884	0.452	-1.587	33.569	-72.632	-69.87	-16.30	-136.36	-60.172	-54.488	-24.304	-0.56061	0.11496	-0.59384	0.56546	31.1	13111	100
2025-3-27 18:36:31.977	WT901BLE68-01(48591DE3C19B)	-0.751	-0.732	0.505	-16.785	-5.859	-41.870	-69.87	-16.54	-136.76	-60.172	-54.488	-24.304	-0.56061	0.11496	-0.59384	0.56546	31.1	13111	100
2025-3-27 18:36:31.977	WT901BLE68-01(48591DE3C19B)	-0.620	-0.732	0.505	-16.785	-5.859	-41.870	-70.00	-16.70	-136.92	-60.172	-54.488	-24.304	-0.56061	0.11496	-0.59384	0.56546	31.1	13111	100
2025-3-27 18:36:31.977	WT901BLE68-01(48591DE3C19B)	-0.620	-0.628	0.470	-21.545	-54.565	-12.939	-70.24	-16.80	-136.81	-60.172	-54.488	-24.304	-0.56061	0.11496	-0.59384	0.56546	31.1	13111	100
2025-3-27 18:36:31.977	WT901BLE68-01(48591DE3C19B)	-0.500	-0.628	0.470	-21.545	-54.565	-12.939	-70.56	-16.84	-136.42	-60.172	-54.488	-24.304	-0.56061	0.11496	-0.59384	0.56546	31.1	13111	100
2025-3-27 18:36:31.978	WT901BLE68-01(48591DE3C19B)	-0.500	-0.555	0.396	-24.109	-77.271	15.625	-70.93	-16.78	-135.87	-60.172	-54.488	-24.304	-0.56061	0.11496	-0.59384	0.56546	31.1	13111	100
2025-3-27 18:36:31.978	WT901BLE68-01(48591DE3C19B)	-0.553	-0.555	0.396	-24.109	-77.271	15.625	-71.35	-16.62	-135.18	-60.172	-54.488	-24.304	-0.56061	0.11496	-0.59384	0.56546	31.1	13111	100
2025-3-27 18:36:31.978	WT901BLE68-01(48591DE3C19B)	-0.553	-0.548	0.299	-23.376	-72.388	41.931	-71.76	-16.18	-134.46	-60.172	-54.488	-24.304	-0.56061	0.11496	-0.59384	0.56546	31.1	13111	100
2025-3-27 18:36:32.7	WT901BLE68-01(48591DE3C19B)	-0.662	-0.548	0.299	-23.376	-72.388	41.931	-72.15	-15.74	-133.75	-60.172	-54.488	-24.304	-0.56061	0.11496	-0.59384	0.56546	31.1	13111	100
2025-3-27 18:36:32.7	WT901BLE68-01(48591DE3C19B)	-0.662	-0.628	0.205	-19.836	-66.711	63.049	-72.50	-15.07	-133.04	-60.172	-54.488	-24.304	-0.56061	0.11496	-0.59384	0.56546	31.1	13111	100
2025-3-27 18:36:32.7	WT901BLE68-01(48591DE3C19B)	-0.694	-0.628	0.205	-19.836	-66.711	63.049	-72.83	-14.40	-132.34	-60.172	-54.488	-24.304	-0.25894	0.32977	-0.49924	0.75821	31.1	13111	100
2025-3-27 18:36:32.7	WT901BLE68-01(48591DE3C19B)	-0.694	-0.729	0.128	-14.893	-76.355	84.351	-73.14	-13.55	-131.50	-60.172	-54.488	-24.304	-0.25894	0.32977	-0.49924	0.75821	31.1	13111	100
2025-3-27 18:36:32.66	WT901BLE68-01(48591DE3C19B)	-0.650	-0.729	0.128	-14.893	-76.355	84.351	-73.43	-12.69	-130.67	-60.172	-54.488	-24.304	-0.25894	0.32977	-0.49924	0.75821	31.1	13111	100
2025-3-27 18:36:32.66	WT901BLE68-01(48591DE3C19B)	-0.650	-0.832	0.081	-8.240	-91.797	102.722	-73.68	-11.70	-129.64	-60.172	-54.488	-24.304	-0.25894	0.32977	-0.49924	0.75821	31.1	13111	100
2025-3-27 18:36:32.66	WT901BLE68-01(48591DE3C19B)	-0.546	-0.832	0.081	-8.240	-91.797	102.722	-73.92	-10.71	-128.63	-60.172	-54.488	-24.304	-0.25894	0.32977	-0.49924	0.75821	31.1	13111	100
2025-3-27 18:36:32.66	WT901BLE68-01(48591DE3C19B)	-0.546	-0.903	0.057	1.526	-107.056	119.324	-74.08	-9.60	-127.42	-60.172	-54.488	-24.304	-0.25894	0.32977	-0.49924	0.75821	31.1	13111	100
2025-3-27 18:36:32.95	WT901BLE68-01(48591DE3C19B)	-0.441	-0.903	0.057	1.526	-107.056	119.324	-74.22	-8.49	-126.21	-60.172	-54.488	-24.304	-0.25894	0.32977	-0.49924	0.75821	31.1	13111	100
2025-3-27 18:36:32.95	WT901BLE68-01(48591DE3C19B)	-0.441	-0.942	0.059	11.169	-122.681	136.353	-74.28	-7.27	-124.80	-60.172	-54.488	-24.304	-0.25894	0.32977	-0.49924	0.75821	31.1	13111	100
2025-3-27 18:36:32.95	WT901BLE68-01(48591DE3C19B)	-0.322	-0.942	0.059	11.169	-122.681	136.353	-74.31	-6.05	-123.39	-60.172	-54.488	-24.304	-0.25894	0.32977	-0.49924	0.75821	31.1	13111	100
2025-3-27 18:36:32.95	WT901BLE68-01(48591DE3C19B)	-0.322	-0.977	0.075	17.578	-130.676	152.283	-74.27	-4.72	-121.85	-60.172	-54.488	-24.304	-0.25894	0.32977	-0.49924	0.75821	31.1	13111	100
2025-3-27 18:36:32.126	WT901BLE68-01(48591DE3C19B)	-0.205	-0.977	0.075	17.578	-130.676	152.283	-74.20	-3.41	-120.30	-60.172	-54.488	-24.304	-0.25894	0.32977	-0.49924	0.75821	31.1	13111	100
2025-3-27 18:36:32.126	WT901BLE68-01(48591DE3C19B)	-0.205	-1.025	0.104	24.597	-121.582	166.077	-74.03	-1.95	-118.79	-60.172	-54.488	-24.304	-0.25894	0.32977	-0.49924	0.75821	31.1	13111	100
2025-3-27 18:36:32.127	WT901BLE68-01(48591DE3C19B)	-0.117	-1.025	0.104	24.597	-121.582	166.077	-73.83	-0.52	-117.27	-60.172	-54.488	-24.304	-0.25894	0.32977	-0.49924	0.75821	31.1	13111	100
2025-3-27 18:36:32.127	WT901BLE68-01(48591DE3C19B)	-0.117	-1.033	0.134	31.677	-94.910	177.734	-73.52	1.07	-115.95	-60.172	-54.488	-24.304	-0.25894	0.32977	-0.49924	0.75821	31.1	13111	100
2025-3-27 18:36:32.189	WT901BLE68-01(48591DE3C19B)	-0.084	-1.033	0.134	31.677	-94.910	177.734	-73.18	2.63	-114.61	-60.172	-54.488	-24.304	-0.25894	0.32977	-0.49924	0.75821	31.1	13111	100
2025-3-27 18:36:32.189	WT901BLE68-01(48591DE3C19B)	-0.084	-1.025	0.168	34.851	-57.556	187.134	-72.80	4.37	-113.59	-60.172	-54.488	-24.304	-0.25894	0.32977	-0.49924	0.75821	31.1	13111	100
2025-3-27 18:36:32.189	WT901BLE68-01(48591DE3C19B)	-0.106	-1.025	0.168	34.851	-57.556	187.134	-72.39	6.07	-112.55	-60.172	-54.488	-24.304	-0.25894	0.32977	-0.49924	0.75821	31.1	13111	100
2025-3-27 18:36:32.189	WT901BLE68-01(48591DE3C19B)	-0.106	-1.046	0.184	35.095	-16.357	193.970	-71.99	7.94	-111.86	-60.172	-54.488	-24.304	-0.25894	0.32977	-0.49924	0.75821	31.1	13111	100
2025-3-27 18:36:32.218	WT901BLE68-01(48591DE3C19B)	-0.160	-1.046	0.184	35.095	-16.357	193.970	-71.56	9.79	-111.16	-60.172	-54.488	-24.304	-0.25894	0.32977	-0.49924	0.75821	31.1	13111	100
2025-3-27 18:36:32.219	WT901BLE68-01(48591DE3C19B)	-0.160	-1.069	0.186	32.471	17.639	199.219	-71.20	11.77	-110.75	-60.172	-54.488	-24.304	-0.25894	0.32977	-0.49924	0.75821	31.1	13111	100
2025-3-27 18:36:32.219	WT901BLE68-01(48591DE3C19B)	-0.211	-1.069	0.186	32.471	17.639	199.219	-70.82	13.73	-110.31	-60.172	-54.488	-24.304	-0.25894	0.32977	-0.49924	0.75821	31.1	13111	100
2025-3-27 18:36:32.219	WT901BLE68-01(48591DE3C19B)	-0.211	-1.119	0.188	26.428	37.964	202.332	-70.54	15.77	-110.06	-75.362	-56.448	-26.166	-0.25894	0.32977	-0.49924	0.75821	31.1	13111	100
2025-3-27 18:36:32.276	WT901BLE68-01(48591DE3C19B)	-0.248	-1.119	0.188	26.428	37.964	202.332	-70.24	17.79	-109.79	-75.362	-56.448	-26.166	-0.25894	0.32977	-0.49924	0.75821	31.1	13111	100
2025-3-27 18:36:32.276	WT901BLE68-01(48591DE3C19B)	-0.248	-1.184	0.173	20.020	48.218	201.660	-70.02	19.82	-109.60	-75.362	-56.448	-26.166	-0.25894	0.32977	-0.49924	0.75821	31.1	13111	100
2025-3-27 18:36:32.276	WT901BLE68-01(48591DE3C19B)	-0.276	-1.184	0.173	20.020	48.218	201.660	-69.80	21.85	-109.41	-75.362	-56.448	-26.166	-0.25894	0.32977	-0.49924	0.75821	31.1	13111	100
2025-3-27 18:36:32.276	WT901BLE68-01(48591DE3C19B)	-0.276	-1.194	0.142	13.489	50.659	197.937	-69.65	23.83	-109.25	-75.362	-56.448	-26.166	-0.25894	0.32977	-0.49924	0.75821	31.1	13111	100
2025-3-27 18:36:32.306	WT901BLE68-01(48591DE3C19B)	-0.305	-1.194	0.142	13.489	50.659	197.937	-69.49	25.80	-109.08	-75.362	-56.448	-26.166	-0.25894	0.32977	-0.49924	0.75821	31.1	13111	100
2025-3-27 18:36:32.306	WT901BLE68-01(48591DE3C19B)	-0.305	-1.211	0.119	3.723	43.640	189.941	-69.41	27.65	-108.85	-75.362	-56.448	-26.166	-0.25894	0.32977	-0.49924	0.75821	31.1	13111	100
2025-3-27 18:36:32.306	WT901BLE68-01(48591DE3C19B)	-0.362	-1.211	0.119	3.723	43.640	189.941	-69.32	29.50	-108.63	-75.362	-56.448	-26.166	-0.25894	0.32977	-0.49924	0.75821	31.1	13111	100
2025-3-27 18:36:32.306	WT901BLE68-01(48591DE3C19B)	-0.362	-1.271	0.134	-3.601	23.254	177.490	-69.21	31.15	-108.23	-75.362	-56.448	-26.166	-0.25894	0.32977	-0.49924	0.75821	31.1	13111	100
2025-3-27 18:36:32.336	WT901BLE68-01(48591DE3C19B)	-0.391	-1.271	0.134	-3.601	23.254	177.490	-69.08	32.79	-107.81	-75.362	-56.448	-26.166	-0.25894	0.32977	-0.49924	0.75821	31.1	13111	100
2025-3-27 18:36:32.336	WT901BLE68-01(48591DE3C19B)	-0.391	-1.398	0.168	-9.033	-6.775	162.781	-68.84	34.17	-107.12	-75.362	-56.448	-26.166	-0.25894	0.32977	-0.49924	0.75821	31.1	13111	100
2025-3-27 18:36:32.336	WT901BLE68-01(48591DE3C19B)	-0.365	-1.398	0.168	-9.033	-6.775	162.781	-68.58	35.55	-106.40	-75.362	-56.448	-26.166	-0.25894	0.32977	-0.49924	0.75821	31.1	13111	100
2025-3-27 18:36:32.336	WT901BLE68-01(48591DE3C19B)	-0.365	-1.507	0.192	-8.667	-35.400	150.269	-68.13	36.69	-105.40	-75.362	-56.448	-26.166	-0.25894	0.32977	-0.49924	0.75821	31.1	13111	100
2025-3-27 18:36:32.365	WT901BLE68-01(48591DE3C19B)	-0.287	-1.507	0.192	-8.667	-35.400	150.269	-67.65	37.82	-104.38	-75.362	-56.448	-26.166	-0.25894	0.32977	-0.49924	0.75821	31.1	13111	100
2025-3-27 18:36:32.365	WT901BLE68-01(48591DE3C19B)	-0.287	-1.506	0.183	-4.272	-54.382	139.038	-67.01	38.76	-103.16	-75.362	-56.448	-26.166	-0.25894	0.32977	-0.49924	0.75821	31.1	13111	100
2025-3-27 18:36:32.366	WT901BLE68-01(48591DE3C19B)	-0.224	-1.506	0.183	-4.272	-54.382	139.038	-66.32	39.68	-101.91	-75.362	-56.448	-26.166	-0.25894	0.32977	-0.49924	0.75821	31.1	13111	100
2025-3-27 18:36:32.366	WT901BLE68-01(48591DE3C19B)	-0.224	-1.430	0.188	-4.272	-62.561	124.451	-65.59	40.41	-100.62	-75.362	-56.448	-26.166	-0.25894	0.32977	-0.49924	0.75821	31.1	13111	100
2025-3-27 18:36:32.427	WT901BLE68-01(48591DE3C19B)	-0.189	-1.430	0.188	-4.272	-62.561	124.451	-64.85	41.12	-99.31	-75.362	-56.448	-26.166	-0.25894	0.32977	-0.49924	0.75821	31.1	13111	100
2025-3-27 18:36:32.427	WT901BLE68-01(48591DE3C19B)	-0.189	-1.468	0.195	-7.202	-62.256	104.980	-64.18	41.64	-98.10	-75.362	-56.448	-26.166	-0.25894	0.32977	-0.49924	0.75821	31.1	13111	100
2025-3-27 18:36:32.427	WT901BLE68-01(48591DE3C19B)	-0.169	-1.468	0.195	-7.202	-62.256	104.980	-63.50	42.14	-96.87	-75.362	-56.448	-26.166	-0.25894	0.32977	-0.49924	0.75821	31.1	13111	100
2025-3-27 18:36:32.427	WT901BLE68-01(48591DE3C19B)	-0.144	-1.500	0.222	-5.249	-56.824	83.313	-62.92	42.46	-95.82	-75.362	-56.448	-26.166	-0.25894	0.32977	-0.49924	0.75821	31.1	13111	100
2025-3-27 18:36:32.455	WT901BLE68-01(48591DE3C19B)	-0.144	-1.395	0.267	-2.563	-46.265	61.829	-62.41	42.70	-94.90	-75.362	-56.448	-26.166	-0.67761	0.09689	-0.56604	0.45926	31.1	13111	100
2025-3-27 18:36:32.455	WT901BLE68-01(48591DE3C19B)	-0.116	-1.395	0.267	-2.563	-46.265	61.829	-61.97	42.86	-94.10	-75.362	-56.448	-26.166	-0.67761	0.09689	-0.56604	0.45926	31.1	13111	100
2025-3-27 18:36:32.455	WT901BLE68-01(48591DE3C19B)	-0.116	-1.266	0.301	-2.686	-29.297	39.001	-61.64	42.95	-93.49	-75.362	-56.448	-26.166	-0.67761	0.09689	-0.56604	0.45926	31.1	13111	100
2025-3-27 18:36:32.455	WT901BLE68-01(48591DE3C19B)	-0.107	-1.266	0.301	-2.686	-29.297	39.001	-61.44	42.97	-93.04	-75.362	-56.448	-26.166	-0.67761	0.09689	-0.56604	0.45926	31.1	13111	100
2025-3-27 18:36:32.490	WT901BLE68-01(48591DE3C19B)	-0.107	-1.127	0.337	-2.197	-7.568	15.686	-61.37	42.93	-92.80	-75.362	-56.448	-26.166	-0.67761	0.09689	-0.56604	0.45926	31.1	13111	100
2025-3-27 18:36:32.491	WT901BLE68-01(48591DE3C19B)	-0.118	-1.127	0.337	-2.197	-7.568	15.686	-61.44	42.85	-92.77	-75.362	-56.448	-26.166	-0.67761	0.09689	-0.56604	0.45926	31.1	13111	100
2025-3-27 18:36:32.491	WT901BLE68-01(48591DE3C19B)	-0.118	-0.996	0.349	-1.099	12.085	-6.958	-61.62	42.71	-92.93	-75.362	-56.448	-26.166	-0.67761	0.09689	-0.56604	0.45926	31.1	13111	100
2025-3-27 18:36:32.491	WT901BLE68-01(48591DE3C19B)	-0.096	-0.996	0.349	-1.099	12.085	-6.958	-61.92	42.52	-93.27	-75.362	-56.448	-26.166	-0.67761	0.09689	-0.56604	0.45926	31.1	13111	100
2025-3-27 18:36:32.546	WT901BLE68-01(48591DE3C19B)	-0.096	-0.876	0.297	1.221	33.325	-28.870	-62.33	42.28	-93.81	-75.362	-56.448	-26.166	-0.67761	0.09689	-0.56604	0.45926	31.1	13111	100
2025-3-27 18:36:32.547	WT901BLE68-01(48591DE3C19B)	-0.097	-0.876	0.297	1.221	33.325	-28.870	-62.85	41.99	-94.53	-75.362	-56.448	-26.166	-0.67761	0.09689	-0.56604	0.45926	31.1	13111	100
2025-3-27 18:36:32.547	WT901BLE68-01(48591DE3C19B)	-0.097	-0.763	0.262	3.113	50.476	-51.025	-63.46	41.64	-95.41	-75.362	-56.448	-26.166	-0.67761	0.09689	-0.56604	0.45926	31.1	13111	100
2025-3-27 18:36:32.547	WT901BLE68-01(48591DE3C19B)	-0.123	-0.763	0.262	3.113	50.476	-51.025	-64.15	41.22	-96.44	-75.362	-56.448	-26.166	-0.67761	0.09689	-0.56604	0.45926	31.1	13111	100
2025-3-27 18:36:32.607	WT901BLE68-01(48591DE3C19B)	-0.123	-0.746	0.267	2.686	58.167	-75.195	-64.90	40.69	-97.57	-75.362	-56.448	-26.166	-0.67761	0.09689	-0.56604	0.45926	31.1	13111	100
2025-3-27 18:36:32.607	WT901BLE68-01(48591DE3C19B)	-0.193	-0.746	0.267	2.686	58.167	-75.195	-65.69	40.07	-98.78	-75.362	-56.448	-26.166	-0.67761	0.09689	-0.56604	0.45926	31.1	13111	100
2025-3-27 18:36:32.607	WT901BLE68-01(48591DE3C19B)	-0.193	-0.804	0.285	4.822	56.030	-97.961	-66.47	39.33	-100.02	-75.362	-56.448	-26.166	-0.67761	0.09689	-0.56604	0.45926	31.1	13111	100
2025-3-27 18:36:32.607	WT901BLE68-01(48591DE3C19B)	-0.256	-0.804	0.285	4.822	56.030	-97.961	-67.23	38.47	-101.27	-75.362	-56.448	-26.166	-0.67761	0.09689	-0.56604	0.45926	31.1	13111	100
2025-3-27 18:36:32.608	WT901BLE68-01(48591DE3C19B)	-0.256	-0.850	0.284	9.705	45.227	-116.577	-67.91	37.50	-102.46	-75.362	-56.448	-26.166	-0.67761	0.09689	-0.56604	0.45926	31.1	13111	100
2025-3-27 18:36:32.608	WT901BLE68-01(48591DE3C19B)	-0.286	-0.850	0.284	9.705	45.227	-116.577	-68.51	36.43	-103.60	-75.362	-56.448	-26.166	-0.67761	0.09689	-0.56604	0.45926	31.1	13111	100
2025-3-27 18:36:32.608	WT901BLE68-01(48591DE3C19B)	-0.286	-0.839	0.284	15.076	30.518	-128.479	-69.02	35.27	-104.66	-75.362	-56.448	-26.166	-0.67761	0.09689	-0.56604	0.45926	31.1	13111	100
2025-3-27 18:36:32.609	WT901BLE68-01(48591DE3C19B)	-0.276	-0.839	0.284	15.076	30.518	-128.479	-69.42	34.04	-105.62	-75.362	-56.448	-26.166	-0.67761	0.09689	-0.56604	0.45926	31.1	13111	100
2025-3-27 18:36:32.667	WT901BLE68-01(48591DE3C19B)	-0.276	-0.809	0.278	17.944	17.578	-135.498	-69.75	32.76	-106.50	-75.362	-56.448	-26.166	-0.67761	0.09689	-0.56604	0.45926	31.1	13111	100
2025-3-27 18:36:32.667	WT901BLE68-01(48591DE3C19B)	-0.239	-0.809	0.278	17.944	17.578	-135.498	-70.00	31.43	-107.30	-91.238	-48.510	-25.186	-0.67761	0.09689	-0.56604	0.45926	31.1	13111	100
2025-3-27 18:36:32.667	WT901BLE68-01(48591DE3C19B)	-0.239	-0.787	0.266	19.226	12.268	-140.137	-70.20	30.08	-108.07	-91.238	-48.510	-25.186	-0.67761	0.09689	-0.56604	0.45926	31.1	13111	100
2025-3-27 18:36:32.667	WT901BLE68-01(48591DE3C19B)	-0.222	-0.787	0.266	19.226	12.268	-140.137	-70.37	28.71	-108.79	-91.238	-48.510	-25.186	-0.67761	0.09689	-0.56604	0.45926	31.1	13111	100
2025-3-27 18:36:32.696	WT901BLE68-01(48591DE3C19B)	-0.222	-0.779	0.249	18.921	13.733	-143.494	-70.52	27.33	-109.52	-91.238	-48.510	-25.186	-0.67761	0.09689	-0.56604	0.45926	31.1	13111	100
2025-3-27 18:36:32.696	WT901BLE68-01(48591DE3C19B)	-0.229	-0.779	0.249	18.921	13.733	-143.494	-70.65	25.94	-110.24	-91.238	-48.510	-25.186	-0.67761	0.09689	-0.56604	0.45926	31.1	13111	100
2025-3-27 18:36:32.696	WT901BLE68-01(48591DE3C19B)	-0.229	-0.787	0.237	17.334	13.123	-146.179	-70.77	24.55	-110.96	-91.238	-48.510	-25.186	-0.67761	0.09689	-0.56604	0.45926	31.1	13111	100
2025-3-27 18:36:32.696	WT901BLE68-01(48591DE3C19B)	-0.223	-0.787	0.237	17.334	13.123	-146.179	-70.89	23.15	-111.66	-91.238	-48.510	-25.186	-0.67761	0.09689	-0.56604	0.45926	31.1	13111	100
2025-3-27 18:36:32.756	WT901BLE68-01(48591DE3C19B)	-0.223	-0.798	0.242	15.381	10.681	-148.438	-70.98	21.75	-112.35	-91.238	-48.510	-25.186	-0.67761	0.09689	-0.56604	0.45926	31.1	13111	100
2025-3-27 18:36:32.756	WT901BLE68-01(48591DE3C19B)	-0.203	-0.798	0.242	15.381	10.681	-148.438	-71.07	20.34	-113.01	-91.238	-48.510	-25.186	-0.67761	0.09689	-0.56604	0.45926	31.1	13111	100
2025-3-27 18:36:32.756	WT901BLE68-01(48591DE3C19B)	-0.203	-0.804	0.261	13.184	16.907	-150.940	-71.16	18.94	-113.70	-91.238	-48.510	-25.186	-0.67761	0.09689	-0.56604	0.45926	31.1	13111	100
2025-3-27 18:36:32.756	WT901BLE68-01(48591DE3C19B)	-0.231	-0.804	0.261	13.184	16.907	-150.940	-71.25	17.54	-114.42	-91.238	-48.510	-25.186	-0.67761	0.09689	-0.56604	0.45926	31.1	13111	100
