time	DeviceName	AccX(g)	AccY(g)	AccZ(g)	AsX(°/s)	AsY(°/s)	AsZ(°/s)	AngleX(°)	AngleY(°)	AngleZ(°)	HX(uT)	HY(uT)	HZ(uT)	Q0()	Q1()	Q2()	Q3()	Temperature(°C)	Version()	Battery level(%)
2025-3-27 18:30:8.799	WT901BLE68-01(48591DE3C19B)	-0.222	-0.934	0.318	0.427	10.925	9.033	-73.12	15.72	-26.51	-63.504	-54.684	88.494	0.79449	-0.55270	0.23480	-0.08963	31.2	13111	100
2025-3-27 18:30:8.799	WT901BLE68-01(48591DE3C19B)	-0.226	-0.934	0.318	0.427	10.925	9.033	-73.13	15.81	-26.64	-63.504	-54.684	88.494	0.79449	-0.55270	0.23480	-0.08963	31.2	13111	100
2025-3-27 18:30:8.799	WT901BLE68-01(48591DE3C19B)	-0.226	-0.936	0.312	1.404	12.939	7.874	-73.14	15.91	-26.78	-63.504	-54.684	88.494	0.79449	-0.55270	0.23480	-0.08963	31.2	13111	100
2025-3-27 18:30:8.800	WT901BLE68-01(48591DE3C19B)	-0.230	-0.936	0.312	1.404	12.939	7.874	-73.14	16.01	-26.93	-63.504	-54.684	88.494	0.79449	-0.55270	0.23480	-0.08963	31.2	13111	100
2025-3-27 18:30:8.866	WT901BLE68-01(48591DE3C19B)	-0.230	-0.938	0.303	2.136	13.123	6.836	-73.14	16.09	-27.08	-63.504	-54.684	88.494	0.79449	-0.55270	0.23480	-0.08963	31.2	13111	100
2025-3-27 18:30:8.866	WT901BLE68-01(48591DE3C19B)	-0.228	-0.938	0.303	2.136	13.123	6.836	-73.14	16.18	-27.22	-63.504	-54.684	88.494	0.79449	-0.55270	0.23480	-0.08963	31.2	13111	100
2025-3-27 18:30:8.866	WT901BLE68-01(48591DE3C19B)	-0.228	-0.934	0.299	2.869	11.047	5.554	-73.13	16.25	-27.36	-63.504	-54.684	88.494	0.79449	-0.55270	0.23480	-0.08963	31.2	13111	100
2025-3-27 18:30:8.866	WT901BLE68-01(48591DE3C19B)	-0.214	-0.934	0.299	2.869	11.047	5.554	-73.12	16.31	-27.49	-63.504	-54.684	88.494	0.79449	-0.55270	0.23480	-0.08963	31.2	13111	100
2025-3-27 18:30:8.920	WT901BLE68-01(48591DE3C19B)	-0.214	-0.930	0.300	2.747	8.667	4.211	-73.11	16.36	-27.60	-63.504	-54.684	88.494	0.79449	-0.55270	0.23480	-0.08963	31.2	13111	100
2025-3-27 18:30:8.920	WT901BLE68-01(48591DE3C19B)	-0.211	-0.930	0.300	2.747	8.667	4.211	-73.09	16.40	-27.71	-63.504	-54.684	88.494	0.79449	-0.55270	0.23480	-0.08963	31.2	13111	100
2025-3-27 18:30:8.920	WT901BLE68-01(48591DE3C19B)	-0.210	-0.943	0.306	2.380	7.813	2.808	-73.08	16.43	-27.82	-63.504	-54.684	88.494	0.79449	-0.55270	0.23480	-0.08963	31.2	13111	100
2025-3-27 18:30:8.920	WT901BLE68-01(48591DE3C19B)	-0.210	-0.963	0.305	2.686	6.653	1.160	-73.07	16.45	-27.93	-63.504	-54.684	88.494	0.79449	-0.55270	0.23480	-0.08963	31.2	13111	100
2025-3-27 18:30:8.920	WT901BLE68-01(48591DE3C19B)	-0.195	-0.963	0.305	2.686	6.653	1.160	-73.05	16.46	-28.03	-63.504	-54.684	88.494	0.79449	-0.55270	0.23480	-0.08963	31.2	13111	100
2025-3-27 18:30:8.920	WT901BLE68-01(48591DE3C19B)	-0.195	-0.960	0.302	3.479	5.859	-0.305	-73.04	16.46	-28.13	-63.504	-54.684	88.494	0.79449	-0.55270	0.23480	-0.08963	31.2	13111	100
2025-3-27 18:30:8.920	WT901BLE68-01(48591DE3C19B)	-0.196	-0.960	0.302	3.479	5.859	-0.305	-73.01	16.45	-28.23	-63.504	-54.684	88.494	0.79449	-0.55270	0.23480	-0.08963	31.2	13111	100
2025-3-27 18:30:8.921	WT901BLE68-01(48591DE3C19B)	-0.196	-0.980	0.299	3.113	4.456	-1.648	-72.99	16.42	-28.32	-63.504	-54.684	88.494	0.79449	-0.55270	0.23480	-0.08963	31.2	13111	100
2025-3-27 18:30:8.978	WT901BLE68-01(48591DE3C19B)	-0.181	-0.980	0.299	3.113	4.456	-1.648	-72.97	16.40	-28.41	-63.504	-54.684	88.494	0.79449	-0.55270	0.23480	-0.08963	31.2	13111	100
2025-3-27 18:30:8.978	WT901BLE68-01(48591DE3C19B)	-0.181	-0.992	0.296	4.639	2.747	-2.502	-72.94	16.36	-28.49	-63.504	-54.684	88.494	0.79227	-0.54205	0.25574	-0.11389	31.2	13111	100
2025-3-27 18:30:8.978	WT901BLE68-01(48591DE3C19B)	-0.165	-0.992	0.296	4.639	2.747	-2.502	-72.90	16.32	-28.57	-63.504	-54.684	88.494	0.79227	-0.54205	0.25574	-0.11389	31.2	13111	100
2025-3-27 18:30:8.978	WT901BLE68-01(48591DE3C19B)	-0.165	-0.974	0.294	5.554	2.563	-3.357	-72.86	16.27	-28.65	-63.504	-54.684	88.494	0.79227	-0.54205	0.25574	-0.11389	31.2	13111	100
2025-3-27 18:30:9.7	WT901BLE68-01(48591DE3C19B)	-0.158	-0.974	0.294	5.554	2.563	-3.357	-72.82	16.22	-28.73	-63.504	-54.684	88.494	0.79227	-0.54205	0.25574	-0.11389	31.2	13111	100
2025-3-27 18:30:9.7	WT901BLE68-01(48591DE3C19B)	-0.158	-0.965	0.296	5.737	2.930	-4.700	-72.77	16.16	-28.81	-63.504	-54.684	88.494	0.79227	-0.54205	0.25574	-0.11389	31.2	13111	100
2025-3-27 18:30:9.7	WT901BLE68-01(48591DE3C19B)	-0.149	-0.965	0.296	5.737	2.930	-4.700	-72.72	16.09	-28.90	-63.504	-54.684	88.494	0.79227	-0.54205	0.25574	-0.11389	31.2	13111	100
2025-3-27 18:30:9.8	WT901BLE68-01(48591DE3C19B)	-0.149	-0.967	0.292	6.287	2.808	-6.042	-72.68	16.01	-28.99	-63.504	-54.684	88.494	0.79227	-0.54205	0.25574	-0.11389	31.2	13111	100
2025-3-27 18:30:9.38	WT901BLE68-01(48591DE3C19B)	-0.137	-0.967	0.292	6.287	2.808	-6.042	-72.64	15.93	-29.08	-63.504	-54.684	88.494	0.79227	-0.54205	0.25574	-0.11389	31.2	13111	100
2025-3-27 18:30:9.39	WT901BLE68-01(48591DE3C19B)	-0.137	-0.952	0.287	7.935	3.906	-7.874	-72.58	15.84	-29.18	-63.504	-54.684	88.494	0.79227	-0.54205	0.25574	-0.11389	31.2	13111	100
2025-3-27 18:30:9.39	WT901BLE68-01(48591DE3C19B)	-0.135	-0.952	0.287	7.935	3.906	-7.874	-72.52	15.74	-29.29	-63.504	-54.684	88.494	0.79227	-0.54205	0.25574	-0.11389	31.2	13111	100
2025-3-27 18:30:9.39	WT901BLE68-01(48591DE3C19B)	-0.135	-0.940	0.282	9.644	6.348	-9.888	-72.46	15.64	-29.42	-63.504	-54.684	88.494	0.79227	-0.54205	0.25574	-0.11389	31.2	13111	100
2025-3-27 18:30:9.98	WT901BLE68-01(48591DE3C19B)	-0.121	-0.940	0.282	9.644	6.348	-9.888	-72.39	15.53	-29.55	-63.504	-54.684	88.494	0.79227	-0.54205	0.25574	-0.11389	31.2	13111	100
2025-3-27 18:30:9.98	WT901BLE68-01(48591DE3C19B)	-0.121	-0.920	0.278	11.475	8.850	-11.780	-72.32	15.41	-29.71	-63.504	-54.684	88.494	0.79227	-0.54205	0.25574	-0.11389	31.2	13111	100
2025-3-27 18:30:9.98	WT901BLE68-01(48591DE3C19B)	-0.102	-0.920	0.278	11.475	8.850	-11.780	-72.25	15.29	-29.88	-63.504	-54.684	88.494	0.79227	-0.54205	0.25574	-0.11389	31.2	13111	100
2025-3-27 18:30:9.98	WT901BLE68-01(48591DE3C19B)	-0.102	-0.896	0.273	12.878	13.611	-13.184	-72.17	15.17	-30.08	-63.504	-54.684	88.494	0.79227	-0.54205	0.25574	-0.11389	31.2	13111	100
2025-3-27 18:30:9.127	WT901BLE68-01(48591DE3C19B)	-0.086	-0.896	0.273	12.878	13.611	-13.184	-72.10	15.05	-30.30	-63.504	-54.684	88.494	0.79227	-0.54205	0.25574	-0.11389	31.2	13111	100
2025-3-27 18:30:9.127	WT901BLE68-01(48591DE3C19B)	-0.086	-0.862	0.269	14.038	20.508	-13.794	-72.03	14.94	-30.56	-63.504	-54.684	88.494	0.79227	-0.54205	0.25574	-0.11389	31.2	13111	100
2025-3-27 18:30:9.127	WT901BLE68-01(48591DE3C19B)	-0.070	-0.862	0.269	14.038	20.508	-13.794	-71.96	14.83	-30.85	-63.504	-54.684	88.494	0.79227	-0.54205	0.25574	-0.11389	31.2	13111	100
2025-3-27 18:30:9.128	WT901BLE68-01(48591DE3C19B)	-0.070	-0.818	0.249	11.902	28.259	-14.771	-71.91	14.73	-31.18	-63.504	-54.684	88.494	0.79227	-0.54205	0.25574	-0.11389	31.2	13111	100
2025-3-27 18:30:9.188	WT901BLE68-01(48591DE3C19B)	-0.100	-0.818	0.249	11.902	28.259	-14.771	-71.88	14.63	-31.55	-63.504	-54.684	88.494	0.79227	-0.54205	0.25574	-0.11389	31.2	13111	100
2025-3-27 18:30:9.188	WT901BLE68-01(48591DE3C19B)	-0.100	-0.843	0.236	5.310	34.119	-17.456	-71.89	14.53	-31.95	-63.504	-54.684	88.494	0.79227	-0.54205	0.25574	-0.11389	31.2	13111	100
2025-3-27 18:30:9.188	WT901BLE68-01(48591DE3C19B)	-0.186	-0.843	0.236	5.310	34.119	-17.456	-71.95	14.44	-32.38	-66.542	-53.116	88.494	0.79227	-0.54205	0.25574	-0.11389	31.2	13111	100
2025-3-27 18:30:9.188	WT901BLE68-01(48591DE3C19B)	-0.186	-0.945	0.275	-1.404	31.616	-22.339	-72.04	14.30	-32.81	-66.542	-53.116	88.494	0.79227	-0.54205	0.25574	-0.11389	31.2	13111	100
2025-3-27 18:30:9.278	WT901BLE68-01(48591DE3C19B)	-0.280	-0.945	0.275	-1.404	31.616	-22.339	-72.15	14.15	-33.22	-66.542	-53.116	88.494	0.79227	-0.54205	0.25574	-0.11389	31.2	13111	100
2025-3-27 18:30:9.279	WT901BLE68-01(48591DE3C19B)	-0.280	-1.059	0.356	-5.188	19.592	-28.503	-72.27	13.95	-33.59	-66.542	-53.116	88.494	0.79227	-0.54205	0.25574	-0.11389	31.2	13111	100
2025-3-27 18:30:9.279	WT901BLE68-01(48591DE3C19B)	-0.312	-1.059	0.356	-5.188	19.592	-28.503	-72.40	13.71	-33.90	-66.542	-53.116	88.494	0.79227	-0.54205	0.25574	-0.11389	31.2	13111	100
2025-3-27 18:30:9.279	WT901BLE68-01(48591DE3C19B)	-0.312	-1.114	0.405	-4.822	4.639	-34.058	-72.50	13.43	-34.13	-66.542	-53.116	88.494	0.79227	-0.54205	0.25574	-0.11389	31.2	13111	100
2025-3-27 18:30:9.279	WT901BLE68-01(48591DE3C19B)	-0.305	-1.114	0.405	-4.822	4.639	-34.058	-72.59	13.10	-34.30	-66.542	-53.116	88.494	0.79227	-0.54205	0.25574	-0.11389	31.2	13111	100
2025-3-27 18:30:9.279	WT901BLE68-01(48591DE3C19B)	-0.305	-1.084	0.405	-3.662	-5.310	-36.865	-72.65	12.74	-34.43	-66.542	-53.116	88.494	0.79227	-0.54205	0.25574	-0.11389	31.2	13111	100
2025-3-27 18:30:9.279	WT901BLE68-01(48591DE3C19B)	-0.278	-1.084	0.405	-3.662	-5.310	-36.865	-72.70	12.37	-34.50	-66.542	-53.116	88.494	0.79227	-0.54205	0.25574	-0.11389	31.2	13111	100
2025-3-27 18:30:9.279	WT901BLE68-01(48591DE3C19B)	-0.278	-1.001	0.380	-1.892	-5.676	-38.269	-72.73	11.99	-34.57	-66.542	-53.116	88.494	0.79227	-0.54205	0.25574	-0.11389	31.2	13111	100
2025-3-27 18:30:9.280	WT901BLE68-01(48591DE3C19B)	-0.256	-1.001	0.380	-1.892	-5.676	-38.269	-72.75	11.61	-34.65	-66.542	-53.116	88.494	0.79227	-0.54205	0.25574	-0.11389	31.2	13111	100
2025-3-27 18:30:9.280	WT901BLE68-01(48591DE3C19B)	-0.256	-0.904	0.354	-1.099	0.488	-39.490	-72.78	11.23	-34.75	-66.542	-53.116	88.494	0.79227	-0.54205	0.25574	-0.11389	31.2	13111	100
2025-3-27 18:30:9.280	WT901BLE68-01(48591DE3C19B)	-0.251	-0.904	0.354	-1.099	0.488	-39.490	-72.80	10.87	-34.88	-66.542	-53.116	88.494	0.79227	-0.54205	0.25574	-0.11389	31.2	13111	100
2025-3-27 18:30:9.280	WT901BLE68-01(48591DE3C19B)	-0.251	-0.826	0.351	-0.854	8.301	-39.429	-72.83	10.51	-35.05	-66.542	-53.116	88.494	0.79227	-0.54205	0.25574	-0.11389	31.2	13111	100
2025-3-27 18:30:9.338	WT901BLE68-01(48591DE3C19B)	-0.271	-0.826	0.351	-0.854	8.301	-39.429	-72.86	10.17	-35.26	-66.542	-53.116	88.494	0.79227	-0.54205	0.25574	-0.11389	31.2	13111	100
2025-3-27 18:30:9.338	WT901BLE68-01(48591DE3C19B)	-0.271	-0.786	0.352	-1.709	12.390	-39.063	-72.89	9.85	-35.47	-66.542	-53.116	88.494	0.79227	-0.54205	0.25574	-0.11389	31.2	13111	100
2025-3-27 18:30:9.338	WT901BLE68-01(48591DE3C19B)	-0.293	-0.786	0.352	-1.709	12.390	-39.063	-72.93	9.54	-35.71	-66.542	-53.116	88.494	0.79227	-0.54205	0.25574	-0.11389	31.2	13111	100
2025-3-27 18:30:9.339	WT901BLE68-01(48591DE3C19B)	-0.293	-0.762	0.346	-1.892	13.062	-38.757	-72.97	9.23	-35.94	-66.542	-53.116	88.494	0.79227	-0.54205	0.25574	-0.11389	31.2	13111	100
2025-3-27 18:30:9.367	WT901BLE68-01(48591DE3C19B)	-0.333	-0.762	0.346	-1.892	13.062	-38.757	-73.00	8.93	-36.18	-66.542	-53.116	88.494	0.79227	-0.54205	0.25574	-0.11389	31.2	13111	100
2025-3-27 18:30:9.367	WT901BLE68-01(48591DE3C19B)	-0.333	-0.753	0.343	-1.648	12.634	-38.147	-73.03	8.64	-36.40	-66.542	-53.116	88.494	0.79227	-0.54205	0.25574	-0.11389	31.2	13111	100
2025-3-27 18:30:9.367	WT901BLE68-01(48591DE3C19B)	-0.367	-0.753	0.343	-1.648	12.634	-38.147	-73.05	8.36	-36.62	-66.542	-53.116	88.494	0.79227	-0.54205	0.25574	-0.11389	31.2	13111	100
2025-3-27 18:30:9.367	WT901BLE68-01(48591DE3C19B)	-0.367	-0.762	0.354	-1.343	8.789	-37.231	-73.06	8.07	-36.79	-66.542	-53.116	88.494	0.77374	-0.54556	0.24109	-0.21320	31.2	13111	100
2025-3-27 18:30:9.398	WT901BLE68-01(48591DE3C19B)	-0.392	-0.762	0.354	-1.343	8.789	-37.231	-73.08	7.80	-36.96	-66.542	-53.116	88.494	0.77374	-0.54556	0.24109	-0.21320	31.2	13111	100
2025-3-27 18:30:9.398	WT901BLE68-01(48591DE3C19B)	-0.392	-0.782	0.385	-1.404	1.587	-34.363	-73.08	7.54	-37.05	-66.542	-53.116	88.494	0.77374	-0.54556	0.24109	-0.21320	31.2	13111	100
2025-3-27 18:30:9.398	WT901BLE68-01(48591DE3C19B)	-0.413	-0.782	0.385	-1.404	1.587	-34.363	-73.07	7.28	-37.13	-66.542	-53.116	88.494	0.77374	-0.54556	0.24109	-0.21320	31.2	13111	100
2025-3-27 18:30:9.398	WT901BLE68-01(48591DE3C19B)	-0.413	-0.813	0.416	-1.221	-6.592	-29.663	-73.05	7.05	-37.12	-66.542	-53.116	88.494	0.77374	-0.54556	0.24109	-0.21320	31.2	13111	100
2025-3-27 18:30:9.457	WT901BLE68-01(48591DE3C19B)	-0.418	-0.813	0.416	-1.221	-6.592	-29.663	-73.04	6.82	-37.10	-66.542	-53.116	88.494	0.77374	-0.54556	0.24109	-0.21320	31.2	13111	100
2025-3-27 18:30:9.457	WT901BLE68-01(48591DE3C19B)	-0.209	-0.837	0.435	-0.793	-11.963	-23.560	-73.00	6.65	-37.01	-66.542	-53.116	88.494	0.77374	-0.54556	0.24109	-0.21320	31.2	13111	100
2025-3-27 18:30:9.457	WT901BLE68-01(48591DE3C19B)	-0.417	-0.418	0.217	-0.793	-11.963	-23.560	-72.97	6.47	-36.93	-66.542	-53.116	88.494	0.77374	-0.54556	0.24109	-0.21320	31.2	13111	100
2025-3-27 18:30:9.457	WT901BLE68-01(48591DE3C19B)	-0.417	-0.861	0.457	0.671	-13.611	-15.625	-72.92	6.37	-36.79	-66.542	-53.116	88.494	0.77374	-0.54556	0.24109	-0.21320	31.2	13111	100
2025-3-27 18:30:9.487	WT901BLE68-01(48591DE3C19B)	-0.415	-0.861	0.457	0.671	-13.611	-15.625	-72.86	6.27	-36.66	-66.542	-53.116	88.494	0.77374	-0.54556	0.24109	-0.21320	31.2	13111	100
2025-3-27 18:30:9.487	WT901BLE68-01(48591DE3C19B)	-0.415	-0.893	0.468	2.563	-12.634	-6.958	-72.78	6.26	-36.51	-66.542	-53.116	88.494	0.77374	-0.54556	0.24109	-0.21320	31.2	13111	100
2025-3-27 18:30:9.487	WT901BLE68-01(48591DE3C19B)	-0.407	-0.893	0.468	2.563	-12.634	-6.958	-72.71	6.25	-36.36	-66.542	-53.116	88.494	0.77374	-0.54556	0.24109	-0.21320	31.2	13111	100
2025-3-27 18:30:9.487	WT901BLE68-01(48591DE3C19B)	-0.407	-0.931	0.458	5.127	-8.545	1.831	-72.60	6.33	-36.23	-66.542	-53.116	88.494	0.77374	-0.54556	0.24109	-0.21320	31.2	13111	100
2025-3-27 18:30:9.547	WT901BLE68-01(48591DE3C19B)	-0.392	-0.931	0.458	5.127	-8.545	1.831	-72.50	6.42	-36.10	-66.542	-53.116	88.494	0.77374	-0.54556	0.24109	-0.21320	31.2	13111	100
2025-3-27 18:30:9.547	WT901BLE68-01(48591DE3C19B)	-0.392	-0.954	0.423	7.690	-1.648	10.010	-72.38	6.60	-36.00	-66.542	-53.116	88.494	0.77374	-0.54556	0.24109	-0.21320	31.2	13111	100
2025-3-27 18:30:9.548	WT901BLE68-01(48591DE3C19B)	-0.388	-0.954	0.423	7.690	-1.648	10.010	-72.26	6.78	-35.90	-66.542	-53.116	88.494	0.77374	-0.54556	0.24109	-0.21320	31.2	13111	100
2025-3-27 18:30:9.548	WT901BLE68-01(48591DE3C19B)	-0.388	-0.968	0.378	7.690	5.127	16.479	-72.15	7.04	-35.86	-66.542	-53.116	88.494	0.77374	-0.54556	0.24109	-0.21320	31.2	13111	100
2025-3-27 18:30:9.576	WT901BLE68-01(48591DE3C19B)	-0.391	-0.968	0.378	7.690	5.127	16.479	-72.04	7.30	-35.81	-64.288	-54.684	88.004	0.77374	-0.54556	0.24109	-0.21320	31.2	13111	100
2025-3-27 18:30:9.576	WT901BLE68-01(48591DE3C19B)	-0.391	-1.021	0.339	4.028	10.986	19.226	-71.98	7.60	-35.80	-64.288	-54.684	88.004	0.77374	-0.54556	0.24109	-0.21320	31.2	13111	100
2025-3-27 18:30:9.577	WT901BLE68-01(48591DE3C19B)	-0.397	-1.021	0.339	4.028	10.986	19.226	-71.92	7.89	-35.80	-64.288	-54.684	88.004	0.77374	-0.54556	0.24109	-0.21320	31.2	13111	100
2025-3-27 18:30:9.577	WT901BLE68-01(48591DE3C19B)	-0.397	-1.131	0.329	-0.610	15.808	18.066	-71.91	8.19	-35.85	-64.288	-54.684	88.004	0.77374	-0.54556	0.24109	-0.21320	31.2	13111	100
2025-3-27 18:30:9.607	WT901BLE68-01(48591DE3C19B)	-0.432	-1.131	0.329	-0.610	15.808	18.066	-71.92	8.49	-35.90	-64.288	-54.684	88.004	0.77374	-0.54556	0.24109	-0.21320	31.2	13111	100
2025-3-27 18:30:9.607	WT901BLE68-01(48591DE3C19B)	-0.432	-1.223	0.331	-5.737	16.479	14.709	-71.98	8.75	-35.96	-64.288	-54.684	88.004	0.77374	-0.54556	0.24109	-0.21320	31.2	13111	100
2025-3-27 18:30:9.607	WT901BLE68-01(48591DE3C19B)	-0.469	-1.223	0.331	-5.737	16.479	14.709	-72.04	9.01	-36.02	-64.288	-54.684	88.004	0.77374	-0.54556	0.24109	-0.21320	31.2	13111	100
2025-3-27 18:30:9.608	WT901BLE68-01(48591DE3C19B)	-0.469	-1.259	0.333	-11.597	12.573	8.423	-72.16	9.19	-36.07	-64.288	-54.684	88.004	0.77374	-0.54556	0.24109	-0.21320	31.2	13111	100
2025-3-27 18:30:9.667	WT901BLE68-01(48591DE3C19B)	-0.496	-1.259	0.333	-11.597	12.573	8.423	-72.29	9.38	-36.12	-64.288	-54.684	88.004	0.77374	-0.54556	0.24109	-0.21320	31.2	13111	100
2025-3-27 18:30:9.668	WT901BLE68-01(48591DE3C19B)	-0.496	-1.269	0.336	-19.409	5.798	-0.244	-72.49	9.45	-36.13	-64.288	-54.684	88.004	0.77374	-0.54556	0.24109	-0.21320	31.2	13111	100
2025-3-27 18:30:9.668	WT901BLE68-01(48591DE3C19B)	-0.529	-1.269	0.336	-19.409	5.798	-0.244	-72.70	9.54	-36.13	-64.288	-54.684	88.004	0.77374	-0.54556	0.24109	-0.21320	31.2	13111	100
2025-3-27 18:30:9.668	WT901BLE68-01(48591DE3C19B)	-0.529	-1.272	0.330	-26.550	-4.089	-8.972	-72.96	9.50	-36.07	-64.288	-54.684	88.004	0.77374	-0.54556	0.24109	-0.21320	31.2	13111	100
2025-3-27 18:30:9.698	WT901BLE68-01(48591DE3C19B)	-0.574	-1.272	0.330	-26.550	-4.089	-8.972	-73.22	9.47	-36.01	-64.288	-54.684	88.004	0.77374	-0.54556	0.24109	-0.21320	31.2	13111	100
2025-3-27 18:30:9.698	WT901BLE68-01(48591DE3C19B)	-0.574	-1.213	0.310	-31.128	-19.958	-15.564	-73.51	9.33	-35.81	-64.288	-54.684	88.004	0.77374	-0.54556	0.24109	-0.21320	31.2	13111	100
2025-3-27 18:30:9.698	WT901BLE68-01(48591DE3C19B)	-0.609	-1.213	0.310	-31.128	-19.958	-15.564	-73.80	9.20	-35.61	-64.288	-54.684	88.004	0.77374	-0.54556	0.24109	-0.21320	31.2	13111	100
2025-3-27 18:30:9.698	WT901BLE68-01(48591DE3C19B)	-0.609	-1.096	0.298	-33.752	-46.509	-14.587	-74.08	9.01	-35.14	-64.288	-54.684	88.004	0.77374	-0.54556	0.24109	-0.21320	31.2	13111	100
2025-3-27 18:30:9.729	WT901BLE68-01(48591DE3C19B)	-0.608	-1.096	0.298	-33.752	-46.509	-14.587	-74.35	8.82	-34.67	-64.288	-54.684	88.004	0.77374	-0.54556	0.24109	-0.21320	31.2	13111	100
2025-3-27 18:30:9.729	WT901BLE68-01(48591DE3C19B)	-0.608	-0.935	0.273	-33.203	-78.735	-2.502	-74.57	8.67	-33.85	-64.288	-54.684	88.004	0.77374	-0.54556	0.24109	-0.21320	31.2	13111	100
2025-3-27 18:30:9.729	WT901BLE68-01(48591DE3C19B)	-0.565	-0.935	0.273	-33.203	-78.735	-2.502	-74.79	8.54	-33.03	-64.288	-54.684	88.004	0.77374	-0.54556	0.24109	-0.21320	31.2	13111	100
2025-3-27 18:30:9.729	WT901BLE68-01(48591DE3C19B)	-0.565	-0.808	0.190	-35.217	-107.605	15.930	-74.98	8.51	-31.88	-64.288	-54.684	88.004	0.77374	-0.54556	0.24109	-0.21320	31.2	13111	100
2025-3-27 18:30:9.788	WT901BLE68-01(48591DE3C19B)	-0.484	-0.808	0.190	-35.217	-107.605	15.930	-75.17	8.49	-30.72	-64.288	-54.684	88.004	0.77374	-0.54556	0.24109	-0.21320	31.2	13111	100
2025-3-27 18:30:9.788	WT901BLE68-01(48591DE3C19B)	-0.484	-0.805	0.071	-39.124	-131.958	37.781	-75.37	8.62	-29.28	-64.288	-54.684	88.004	0.77567	-0.57654	0.20859	-0.14954	31.2	13111	100
2025-3-27 18:30:9.788	WT901BLE68-01(48591DE3C19B)	-0.410	-0.805	0.071	-39.124	-131.958	37.781	-75.55	8.76	-27.83	-64.288	-54.684	88.004	0.77567	-0.57654	0.20859	-0.14954	31.2	13111	100
2025-3-27 18:30:9.788	WT901BLE68-01(48591DE3C19B)	-0.410	-0.942	-0.010	-38.513	-149.719	57.678	-75.71	9.05	-26.17	-64.288	-54.684	88.004	0.77567	-0.57654	0.20859	-0.14954	31.2	13111	100
2025-3-27 18:30:9.849	WT901BLE68-01(48591DE3C19B)	-0.348	-0.942	-0.010	-38.513	-149.719	57.678	-75.85	9.35	-24.52	-64.288	-54.684	88.004	0.77567	-0.57654	0.20859	-0.14954	31.2	13111	100
2025-3-27 18:30:9.849	WT901BLE68-01(48591DE3C19B)	-0.282	-1.042	-0.026	-26.245	-161.011	73.792	-75.84	9.76	-22.72	-64.288	-54.684	88.004	0.77567	-0.57654	0.20859	-0.14954	31.2	13111	100
2025-3-27 18:30:9.849	WT901BLE68-01(48591DE3C19B)	-0.282	-1.063	0.000	-14.832	-160.278	86.975	-75.77	10.24	-20.92	-64.288	-54.684	88.004	0.77567	-0.57654	0.20859	-0.14954	31.2	13111	100
2025-3-27 18:30:9.849	WT901BLE68-01(48591DE3C19B)	-0.220	-1.063	0.000	-14.832	-160.278	86.975	-75.62	10.77	-19.12	-64.288	-54.684	88.004	0.77567	-0.57654	0.20859	-0.14954	31.2	13111	100
2025-3-27 18:30:9.850	WT901BLE68-01(48591DE3C19B)	-0.220	-1.077	0.040	-2.930	-143.494	96.924	-75.42	11.35	-17.39	-64.288	-54.684	88.004	0.77567	-0.57654	0.20859	-0.14954	31.2	13111	100
2025-3-27 18:30:9.850	WT901BLE68-01(48591DE3C19B)	-0.173	-1.077	0.040	-2.930	-143.494	96.924	-75.15	11.98	-15.74	-64.288	-54.684	88.004	0.77567	-0.57654	0.20859	-0.14954	31.2	13111	100
2025-3-27 18:30:9.850	WT901BLE68-01(48591DE3C19B)	-0.173	-1.063	0.072	6.775	-114.746	107.056	-74.85	12.69	-14.23	-64.288	-54.684	88.004	0.77567	-0.57654	0.20859	-0.14954	31.2	13111	100
2025-3-27 18:30:9.850	WT901BLE68-01(48591DE3C19B)	-0.143	-1.063	0.072	6.775	-114.746	107.056	-74.51	13.46	-12.85	-64.288	-54.684	88.004	0.77567	-0.57654	0.20859	-0.14954	31.2	13111	100
2025-3-27 18:30:9.908	WT901BLE68-01(48591DE3C19B)	-0.143	-1.006	0.062	14.771	-79.468	117.981	-74.15	14.32	-11.64	-64.288	-54.684	88.004	0.77567	-0.57654	0.20859	-0.14954	31.2	13111	100
2025-3-27 18:30:9.908	WT901BLE68-01(48591DE3C19B)	-0.111	-1.006	0.062	14.771	-79.468	117.981	-73.77	15.25	-10.59	-64.288	-54.684	88.004	0.77567	-0.57654	0.20859	-0.14954	31.2	13111	100
2025-3-27 18:30:9.908	WT901BLE68-01(48591DE3C19B)	-0.111	-0.885	0.050	16.052	-43.884	129.761	-73.42	16.28	-9.68	-64.288	-54.684	88.004	0.77567	-0.57654	0.20859	-0.14954	31.2	13111	100
2025-3-27 18:30:9.908	WT901BLE68-01(48591DE3C19B)	-0.054	-0.885	0.050	16.052	-43.884	129.761	-73.08	17.40	-8.95	-64.288	-54.684	88.004	0.77567	-0.57654	0.20859	-0.14954	31.2	13111	100
2025-3-27 18:30:9.938	WT901BLE68-01(48591DE3C19B)	-0.054	-0.834	0.043	11.902	-10.742	136.658	-72.81	18.58	-8.36	-64.288	-54.684	88.004	0.77567	-0.57654	0.20859	-0.14954	31.2	13111	100
2025-3-27 18:30:9.938	WT901BLE68-01(48591DE3C19B)	-0.030	-0.834	0.043	11.902	-10.742	136.658	-72.59	19.84	-7.93	-64.288	-54.684	88.004	0.77567	-0.57654	0.20859	-0.14954	31.2	13111	100
2025-3-27 18:30:9.938	WT901BLE68-01(48591DE3C19B)	-0.030	-0.834	0.035	6.531	14.038	140.686	-72.43	21.13	-7.62	-64.288	-54.684	88.004	0.77567	-0.57654	0.20859	-0.14954	31.2	13111	100
2025-3-27 18:30:9.939	WT901BLE68-01(48591DE3C19B)	0.011	-0.834	0.035	6.531	14.038	140.686	-72.34	22.47	-7.43	-64.288	-54.684	88.004	0.77567	-0.57654	0.20859	-0.14954	31.2	13111	100
2025-3-27 18:30:9.967	WT901BLE68-01(48591DE3C19B)	0.011	-0.848	0.026	-0.916	32.288	140.137	-72.32	23.82	-7.34	-64.288	-54.684	88.004	0.77567	-0.57654	0.20859	-0.14954	31.2	13111	100
2025-3-27 18:30:9.967	WT901BLE68-01(48591DE3C19B)	0.017	-0.848	0.026	-0.916	32.288	140.137	-72.37	25.19	-7.36	-64.288	-54.684	88.004	0.77567	-0.57654	0.20859	-0.14954	31.2	13111	100
2025-3-27 18:30:9.967	WT901BLE68-01(48591DE3C19B)	0.017	-0.955	0.019	-10.193	44.434	136.108	-72.51	26.54	-7.46	-60.270	-51.450	89.964	0.77567	-0.57654	0.20859	-0.14954	31.2	13111	100
2025-3-27 18:30:9.967	WT901BLE68-01(48591DE3C19B)	0.003	-0.955	0.019	-10.193	44.434	136.108	-72.73	27.87	-7.64	-60.270	-51.450	89.964	0.77567	-0.57654	0.20859	-0.14954	31.2	13111	100
2025-3-27 18:30:10.28	WT901BLE68-01(48591DE3C19B)	0.003	-1.168	0.018	-19.958	47.546	126.892	-73.03	29.16	-7.87	-60.270	-51.450	89.964	0.77567	-0.57654	0.20859	-0.14954	31.2	13111	100
2025-3-27 18:30:10.28	WT901BLE68-01(48591DE3C19B)	-0.042	-1.168	0.018	-19.958	47.546	126.892	-73.40	30.39	-8.15	-60.270	-51.450	89.964	0.77567	-0.57654	0.20859	-0.14954	31.2	13111	100
2025-3-27 18:30:10.28	WT901BLE68-01(48591DE3C19B)	-0.042	-1.412	0.021	-22.278	46.448	110.901	-73.80	31.53	-8.46	-60.270	-51.450	89.964	0.77567	-0.57654	0.20859	-0.14954	31.2	13111	100
2025-3-27 18:30:10.29	WT901BLE68-01(48591DE3C19B)	-0.082	-1.412	0.021	-22.278	46.448	110.901	-74.24	32.59	-8.82	-60.270	-51.450	89.964	0.77567	-0.57654	0.20859	-0.14954	31.2	13111	100
2025-3-27 18:30:10.56	WT901BLE68-01(48591DE3C19B)	-0.082	-1.624	0.035	-19.165	34.058	85.144	-74.66	33.49	-9.16	-60.270	-51.450	89.964	0.77567	-0.57654	0.20859	-0.14954	31.2	13111	100
2025-3-27 18:30:10.57	WT901BLE68-01(48591DE3C19B)	-0.006	-1.624	0.035	-19.165	34.058	85.144	-75.06	34.24	-9.48	-60.270	-51.450	89.964	0.77567	-0.57654	0.20859	-0.14954	31.2	13111	100
2025-3-27 18:30:10.57	WT901BLE68-01(48591DE3C19B)	-0.006	-1.743	0.050	-8.545	14.160	55.847	-75.37	34.83	-9.74	-60.270	-51.450	89.964	0.77567	-0.57654	0.20859	-0.14954	31.2	13111	100
2025-3-27 18:30:10.57	WT901BLE68-01(48591DE3C19B)	0.084	-1.743	0.050	-8.545	14.160	55.847	-75.58	35.24	-9.94	-60.270	-51.450	89.964	0.77567	-0.57654	0.20859	-0.14954	31.2	13111	100
2025-3-27 18:30:10.88	WT901BLE68-01(48591DE3C19B)	0.084	-1.691	0.087	0.122	-5.371	22.583	-75.72	35.46	-10.07	-60.270	-51.450	89.964	0.77567	-0.57654	0.20859	-0.14954	31.2	13111	100
2025-3-27 18:30:10.88	WT901BLE68-01(48591DE3C19B)	0.142	-1.691	0.087	0.122	-5.371	22.583	-75.78	35.49	-10.15	-60.270	-51.450	89.964	0.77567	-0.57654	0.20859	-0.14954	31.2	13111	100
2025-3-27 18:30:10.88	WT901BLE68-01(48591DE3C19B)	0.142	-1.529	0.123	7.019	-11.536	-6.470	-75.81	35.37	-10.24	-60.270	-51.450	89.964	0.77567	-0.57654	0.20859	-0.14954	31.2	13111	100
2025-3-27 18:30:10.88	WT901BLE68-01(48591DE3C19B)	0.173	-1.529	0.123	7.019	-11.536	-6.470	-75.81	35.10	-10.33	-60.270	-51.450	89.964	0.77567	-0.57654	0.20859	-0.14954	31.2	13111	100
2025-3-27 18:30:10.148	WT901BLE68-01(48591DE3C19B)	0.173	-1.406	0.143	9.766	-3.357	-33.630	-75.85	34.71	-10.52	-60.270	-51.450	89.964	0.77567	-0.57654	0.20859	-0.14954	31.2	13111	100
2025-3-27 18:30:10.148	WT901BLE68-01(48591DE3C19B)	0.154	-1.406	0.143	9.766	-3.357	-33.630	-75.92	34.19	-10.79	-60.270	-51.450	89.964	0.77567	-0.57654	0.20859	-0.14954	31.2	13111	100
2025-3-27 18:30:10.148	WT901BLE68-01(48591DE3C19B)	0.154	-1.342	0.131	13.611	14.160	-58.716	-76.04	33.57	-11.21	-60.270	-51.450	89.964	0.77567	-0.57654	0.20859	-0.14954	31.2	13111	100
2025-3-27 18:30:10.148	WT901BLE68-01(48591DE3C19B)	0.097	-1.342	0.131	13.611	14.160	-58.716	-76.22	32.85	-11.74	-60.270	-51.450	89.964	0.77567	-0.57654	0.20859	-0.14954	31.2	13111	100
2025-3-27 18:30:10.177	WT901BLE68-01(48591DE3C19B)	0.097	-1.260	0.088	20.752	36.133	-81.787	-76.43	32.04	-12.44	-60.270	-51.450	89.964	0.76947	-0.56836	0.27911	0.08298	31.2	13111	100
2025-3-27 18:30:10.177	WT901BLE68-01(48591DE3C19B)	-0.013	-1.260	0.088	20.752	36.133	-81.787	-76.67	31.15	-13.27	-60.270	-51.450	89.964	0.76947	-0.56836	0.27911	0.08298	31.2	13111	100
2025-3-27 18:30:10.177	WT901BLE68-01(48591DE3C19B)	-0.013	-1.119	0.102	23.560	46.631	-99.731	-76.93	30.18	-14.17	-60.270	-51.450	89.964	0.76947	-0.56836	0.27911	0.08298	31.2	13111	100
2025-3-27 18:30:10.177	WT901BLE68-01(48591DE3C19B)	-0.135	-1.119	0.102	23.560	46.631	-99.731	-77.18	29.15	-15.13	-60.270	-51.450	89.964	0.76947	-0.56836	0.27911	0.08298	31.2	13111	100
2025-3-27 18:30:10.208	WT901BLE68-01(48591DE3C19B)	-0.135	-1.029	0.154	23.254	39.917	-112.488	-77.40	28.04	-16.05	-60.270	-51.450	89.964	0.76947	-0.56836	0.27911	0.08298	31.2	13111	100
2025-3-27 18:30:10.208	WT901BLE68-01(48591DE3C19B)	-0.190	-1.029	0.154	23.254	39.917	-112.488	-77.59	26.87	-16.92	-60.270	-51.450	89.964	0.76947	-0.56836	0.27911	0.08298	31.2	13111	100
2025-3-27 18:30:10.208	WT901BLE68-01(48591DE3C19B)	-0.190	-0.950	0.223	24.048	26.978	-119.934	-77.72	25.66	-17.72	-60.270	-51.450	89.964	0.76947	-0.56836	0.27911	0.08298	31.2	13111	100
2025-3-27 18:30:10.209	WT901BLE68-01(48591DE3C19B)	-0.228	-0.950	0.223	24.048	26.978	-119.934	-77.79	24.42	-18.44	-60.270	-51.450	89.964	0.76947	-0.56836	0.27911	0.08298	31.2	13111	100
2025-3-27 18:30:10.267	WT901BLE68-01(48591DE3C19B)	-0.228	-0.865	0.272	21.729	12.085	-119.995	-77.82	23.16	-19.06	-60.270	-51.450	89.964	0.76947	-0.56836	0.27911	0.08298	31.2	13111	100
2025-3-27 18:30:10.268	WT901BLE68-01(48591DE3C19B)	-0.219	-0.865	0.272	21.729	12.085	-119.995	-77.81	21.90	-19.58	-60.270	-51.450	89.964	0.76947	-0.56836	0.27911	0.08298	31.2	13111	100
2025-3-27 18:30:10.268	WT901BLE68-01(48591DE3C19B)	-0.219	-0.838	0.282	15.869	1.038	-116.577	-77.79	20.66	-20.04	-60.270	-51.450	89.964	0.76947	-0.56836	0.27911	0.08298	31.2	13111	100
2025-3-27 18:30:10.268	WT901BLE68-01(48591DE3C19B)	-0.177	-0.838	0.282	15.869	1.038	-116.577	-77.77	19.43	-20.43	-60.270	-51.450	89.964	0.76947	-0.56836	0.27911	0.08298	31.2	13111	100
2025-3-27 18:30:10.297	WT901BLE68-01(48591DE3C19B)	-0.177	-0.852	0.268	11.414	0.244	-110.474	-77.76	18.28	-20.79	-60.270	-51.450	89.964	0.76947	-0.56836	0.27911	0.08298	31.2	13111	100
2025-3-27 18:30:10.297	WT901BLE68-01(48591DE3C19B)	-0.125	-0.852	0.268	11.414	0.244	-110.474	-77.75	17.13	-21.14	-60.270	-51.450	89.964	0.76947	-0.56836	0.27911	0.08298	31.2	13111	100
2025-3-27 18:30:10.297	WT901BLE68-01(48591DE3C19B)	-0.125	-0.818	0.234	10.193	9.705	-106.018	-77.76	16.05	-21.57	-60.270	-51.450	89.964	0.76947	-0.56836	0.27911	0.08298	31.2	13111	100
2025-3-27 18:30:10.297	WT901BLE68-01(48591DE3C19B)	-0.099	-0.818	0.234	10.193	9.705	-106.018	-77.76	14.98	-22.00	-60.270	-51.450	89.964	0.76947	-0.56836	0.27911	0.08298	31.2	13111	100
2025-3-27 18:30:10.388	WT901BLE68-01(48591DE3C19B)	-0.099	-0.785	0.188	7.263	26.428	-104.187	-77.83	13.97	-22.59	-60.270	-51.450	89.964	0.76947	-0.56836	0.27911	0.08298	31.2	13111	100
2025-3-27 18:30:10.388	WT901BLE68-01(48591DE3C19B)	-0.120	-0.785	0.188	7.263	26.428	-104.187	-77.88	12.96	-23.16	-60.270	-51.450	89.964	0.76947	-0.56836	0.27911	0.08298	31.2	13111	100
2025-3-27 18:30:10.388	WT901BLE68-01(48591DE3C19B)	-0.120	-0.789	0.153	5.737	44.434	-105.469	-77.98	11.99	-23.92	-60.270	-51.450	89.964	0.76947	-0.56836	0.27911	0.08298	31.2	13111	100
2025-3-27 18:30:10.389	WT901BLE68-01(48591DE3C19B)	-0.164	-0.789	0.153	5.737	44.434	-105.469	-78.06	11.02	-24.66	-60.270	-51.450	89.964	0.76947	-0.56836	0.27911	0.08298	31.2	13111	100
2025-3-27 18:30:10.389	WT901BLE68-01(48591DE3C19B)	-0.164	-0.798	0.149	6.592	57.800	-108.337	-78.15	10.06	-25.53	-60.270	-51.450	89.964	0.76947	-0.56836	0.27911	0.08298	31.2	13111	100
2025-3-27 18:30:10.389	WT901BLE68-01(48591DE3C19B)	-0.211	-0.798	0.149	6.592	57.800	-108.337	-78.22	9.11	-26.39	-63.504	-47.432	85.456	0.76947	-0.56836	0.27911	0.08298	31.2	13111	100
2025-3-27 18:30:10.389	WT901BLE68-01(48591DE3C19B)	-0.211	-0.787	0.165	10.132	68.237	-111.145	-78.26	8.16	-27.35	-63.504	-47.432	85.456	0.76947	-0.56836	0.27911	0.08298	31.2	13111	100
2025-3-27 18:30:10.389	WT901BLE68-01(48591DE3C19B)	-0.262	-0.787	0.165	10.132	68.237	-111.145	-78.27	7.21	-28.30	-63.504	-47.432	85.456	0.76947	-0.56836	0.27911	0.08298	31.2	13111	100
2025-3-27 18:30:10.447	WT901BLE68-01(48591DE3C19B)	-0.262	-0.740	0.183	14.160	75.806	-114.563	-78.25	6.26	-29.32	-63.504	-47.432	85.456	0.76947	-0.56836	0.27911	0.08298	31.2	13111	100
2025-3-27 18:30:10.448	WT901BLE68-01(48591DE3C19B)	-0.301	-0.740	0.183	14.160	75.806	-114.563	-78.21	5.32	-30.33	-63.504	-47.432	85.456	0.76947	-0.56836	0.27911	0.08298	31.2	13111	100
2025-3-27 18:30:10.448	WT901BLE68-01(48591DE3C19B)	-0.301	-0.688	0.186	16.541	79.956	-116.516	-78.12	4.38	-31.37	-63.504	-47.432	85.456	0.76947	-0.56836	0.27911	0.08298	31.2	13111	100
2025-3-27 18:30:10.448	WT901BLE68-01(48591DE3C19B)	-0.331	-0.688	0.186	16.541	79.956	-116.516	-78.02	3.46	-32.41	-63.504	-47.432	85.456	0.76947	-0.56836	0.27911	0.08298	31.2	13111	100
2025-3-27 18:30:10.449	WT901BLE68-01(48591DE3C19B)	-0.331	-0.659	0.168	17.090	76.782	-117.371	-77.90	2.54	-33.40	-63.504	-47.432	85.456	0.76947	-0.56836	0.27911	0.08298	31.2	13111	100
2025-3-27 18:30:10.449	WT901BLE68-01(48591DE3C19B)	-0.361	-0.659	0.168	17.090	76.782	-117.371	-77.77	1.63	-34.39	-63.504	-47.432	85.456	0.76947	-0.56836	0.27911	0.08298	31.2	13111	100
2025-3-27 18:30:10.449	WT901BLE68-01(48591DE3C19B)	-0.361	-0.640	0.174	15.747	66.650	-117.310	-77.63	0.71	-35.28	-63.504	-47.432	85.456	0.76947	-0.56836	0.27911	0.08298	31.2	13111	100
2025-3-27 18:30:10.450	WT901BLE68-01(48591DE3C19B)	-0.424	-0.640	0.174	15.747	66.650	-117.310	-77.48	-0.19	-36.15	-63.504	-47.432	85.456	0.76947	-0.56836	0.27911	0.08298	31.2	13111	100
2025-3-27 18:30:10.539	WT901BLE68-01(48591DE3C19B)	-0.424	-0.659	0.204	10.254	49.500	-114.380	-77.37	-1.08	-36.84	-63.504	-47.432	85.456	0.76947	-0.56836	0.27911	0.08298	31.2	13111	100
2025-3-27 18:30:10.540	WT901BLE68-01(48591DE3C19B)	-0.495	-0.659	0.204	10.254	49.500	-114.380	-77.25	-1.97	-37.53	-63.504	-47.432	85.456	0.76947	-0.56836	0.27911	0.08298	31.2	13111	100
2025-3-27 18:30:10.540	WT901BLE68-01(48591DE3C19B)	-0.495	-0.797	0.259	-0.305	30.090	-109.802	-77.23	-2.83	-38.01	-63.504	-47.432	85.456	0.76947	-0.56836	0.27911	0.08298	31.2	13111	100
2025-3-27 18:30:10.540	WT901BLE68-01(48591DE3C19B)	-0.551	-0.797	0.259	-0.305	30.090	-109.802	-77.21	-3.69	-38.47	-63.504	-47.432	85.456	0.76947	-0.56836	0.27911	0.08298	31.2	13111	100
2025-3-27 18:30:10.540	WT901BLE68-01(48591DE3C19B)	-0.551	-1.035	0.313	-7.996	18.738	-104.919	-77.27	-4.50	-38.82	-63.504	-47.432	85.456	0.76947	-0.56836	0.27911	0.08298	31.2	13111	100
2025-3-27 18:30:10.540	WT901BLE68-01(48591DE3C19B)	-0.548	-1.035	0.313	-7.996	18.738	-104.919	-77.32	-5.32	-39.16	-63.504	-47.432	85.456	0.76947	-0.56836	0.27911	0.08298	31.2	13111	100
2025-3-27 18:30:10.541	WT901BLE68-01(48591DE3C19B)	-0.548	-1.256	0.326	-13.733	21.606	-100.647	-77.42	-6.08	-39.51	-63.504	-47.432	85.456	0.76947	-0.56836	0.27911	0.08298	31.2	13111	100
2025-3-27 18:30:10.541	WT901BLE68-01(48591DE3C19B)	-0.687	-1.256	0.326	-13.733	21.606	-100.647	-77.52	-6.84	-39.85	-63.504	-47.432	85.456	0.76947	-0.56836	0.27911	0.08298	31.2	13111	100
2025-3-27 18:30:10.569	WT901BLE68-01(48591DE3C19B)	-0.687	-1.433	0.379	-15.564	13.916	-92.896	-77.64	-7.53	-40.11	-63.504	-47.432	85.456	0.76947	-0.56836	0.27911	0.08298	31.2	13111	100
2025-3-27 18:30:10.570	WT901BLE68-01(48591DE3C19B)	-0.879	-1.433	0.379	-15.564	13.916	-92.896	-77.76	-8.22	-40.35	-63.504	-47.432	85.456	0.76947	-0.56836	0.27911	0.08298	31.2	13111	100
2025-3-27 18:30:10.570	WT901BLE68-01(48591DE3C19B)	-0.879	-1.522	0.424	-20.325	-13.916	-76.782	-77.97	-8.81	-40.28	-63.504	-47.432	85.456	0.71094	-0.60944	0.15994	-0.31223	31.2	13111	100
2025-3-27 18:30:10.570	WT901BLE68-01(48591DE3C19B)	-0.874	-1.522	0.424	-20.325	-13.916	-76.782	-78.18	-9.38	-40.20	-63.504	-47.432	85.456	0.71094	-0.60944	0.15994	-0.31223	31.2	13111	100
2025-3-27 18:30:10.628	WT901BLE68-01(48591DE3C19B)	-0.874	-1.426	0.387	-14.465	-40.527	-53.345	-78.39	-9.78	-39.81	-63.504	-47.432	85.456	0.71094	-0.60944	0.15994	-0.31223	31.2	13111	100
2025-3-27 18:30:10.628	WT901BLE68-01(48591DE3C19B)	-0.725	-1.426	0.387	-14.465	-40.527	-53.345	-78.60	-10.17	-39.41	-63.504	-47.432	85.456	0.71094	-0.60944	0.15994	-0.31223	31.2	13111	100
2025-3-27 18:30:10.628	WT901BLE68-01(48591DE3C19B)	-0.725	-1.267	0.313	-15.625	-42.542	-15.381	-78.84	-10.18	-38.91	-63.504	-47.432	85.456	0.71094	-0.60944	0.15994	-0.31223	31.2	13111	100
2025-3-27 18:30:10.628	WT901BLE68-01(48591DE3C19B)	-0.580	-1.267	0.313	-15.625	-42.542	-15.381	-79.08	-10.20	-38.41	-63.504	-47.432	85.456	0.71094	-0.60944	0.15994	-0.31223	31.2	13111	100
2025-3-27 18:30:10.656	WT901BLE68-01(48591DE3C19B)	-0.580	-1.125	0.271	-17.883	-19.043	25.330	-79.31	-9.77	-38.07	-63.504	-47.432	85.456	0.71094	-0.60944	0.15994	-0.31223	31.2	13111	100
2025-3-27 18:30:10.656	WT901BLE68-01(48591DE3C19B)	-0.503	-1.125	0.271	-17.883	-19.043	25.330	-79.54	-9.33	-37.73	-63.504	-47.432	85.456	0.71094	-0.60944	0.15994	-0.31223	31.2	13111	100
2025-3-27 18:30:10.657	WT901BLE68-01(48591DE3C19B)	-0.503	-0.952	0.322	-26.611	1.343	61.646	-79.83	-8.51	-37.53	-63.504	-47.432	85.456	0.71094	-0.60944	0.15994	-0.31223	31.2	13111	100
2025-3-27 18:30:10.657	WT901BLE68-01(48591DE3C19B)	-0.488	-0.952	0.322	-26.611	1.343	61.646	-80.11	-7.70	-37.34	-63.504	-47.432	85.456	0.71094	-0.60944	0.15994	-0.31223	31.2	13111	100
2025-3-27 18:30:10.719	WT901BLE68-01(48591DE3C19B)	-0.488	-0.915	0.368	-34.363	7.996	88.684	-80.45	-6.61	-37.18	-63.504	-47.432	85.456	0.71094	-0.60944	0.15994	-0.31223	31.2	13111	100
2025-3-27 18:30:10.719	WT901BLE68-01(48591DE3C19B)	-0.524	-0.915	0.368	-34.363	7.996	88.684	-80.79	-5.52	-37.03	-63.504	-47.432	85.456	0.71094	-0.60944	0.15994	-0.31223	31.2	13111	100
2025-3-27 18:30:10.719	WT901BLE68-01(48591DE3C19B)	-0.524	-0.914	0.375	-33.691	5.859	111.755	-81.12	-4.22	-36.83	-63.504	-47.432	85.456	0.71094	-0.60944	0.15994	-0.31223	31.2	13111	100
2025-3-27 18:30:10.719	WT901BLE68-01(48591DE3C19B)	-0.576	-0.914	0.375	-33.691	5.859	111.755	-81.44	-2.92	-36.64	-63.504	-47.432	85.456	0.71094	-0.60944	0.15994	-0.31223	31.2	13111	100
2025-3-27 18:30:10.747	WT901BLE68-01(48591DE3C19B)	-0.576	-0.928	0.325	-29.236	0.061	127.319	-81.71	-1.48	-36.38	-63.504	-47.432	85.456	0.71094	-0.60944	0.15994	-0.31223	31.2	13111	100
2025-3-27 18:30:10.747	WT901BLE68-01(48591DE3C19B)	-0.605	-0.928	0.325	-29.236	0.061	127.319	-81.97	-0.05	-36.12	-63.504	-47.432	85.456	0.71094	-0.60944	0.15994	-0.31223	31.2	13111	100
2025-3-27 18:30:10.747	WT901BLE68-01(48591DE3C19B)	-0.648	-1.042	0.218	-22.583	-9.766	139.343	-82.16	1.48	-35.76	-63.504	-47.432	85.456	0.71094	-0.60944	0.15994	-0.31223	31.2	13111	100
2025-3-27 18:30:10.747	WT901BLE68-01(48591DE3C19B)	-0.648	-1.142	0.117	-10.681	-29.419	149.658	-82.27	3.04	-35.30	-63.504	-47.432	85.456	0.71094	-0.60944	0.15994	-0.31223	31.2	13111	100
2025-3-27 18:30:10.777	WT901BLE68-01(48591DE3C19B)	-0.618	-1.142	0.117	-10.681	-29.419	149.658	-82.32	4.63	-34.74	-67.130	-48.902	81.732	0.71094	-0.60944	0.15994	-0.31223	31.2	13111	100
2025-3-27 18:30:10.778	WT901BLE68-01(48591DE3C19B)	-0.618	-1.214	0.009	-1.099	-61.951	157.715	-82.29	6.22	-34.02	-67.130	-48.902	81.732	0.71094	-0.60944	0.15994	-0.31223	31.2	13111	100
2025-3-27 18:30:10.778	WT901BLE68-01(48591DE3C19B)	-0.544	-1.214	0.009	-1.099	-61.951	157.715	-82.18	7.83	-33.13	-67.130	-48.902	81.732	0.71094	-0.60944	0.15994	-0.31223	31.2	13111	100
2025-3-27 18:30:10.778	WT901BLE68-01(48591DE3C19B)	-0.544	-1.335	-0.059	6.836	-97.900	162.842	-81.99	9.43	-32.06	-67.130	-48.902	81.732	0.71094	-0.60944	0.15994	-0.31223	31.2	13111	100
2025-3-27 18:30:10.806	WT901BLE68-01(48591DE3C19B)	-0.510	-1.335	-0.059	6.836	-97.900	162.842	-81.70	11.00	-30.81	-67.130	-48.902	81.732	0.71094	-0.60944	0.15994	-0.31223	31.2	13111	100
2025-3-27 18:30:10.806	WT901BLE68-01(48591DE3C19B)	-0.510	-1.501	-0.060	15.198	-136.169	166.565	-81.30	12.54	-29.36	-67.130	-48.902	81.732	0.71094	-0.60944	0.15994	-0.31223	31.2	13111	100
2025-3-27 18:30:10.806	WT901BLE68-01(48591DE3C19B)	-0.478	-1.501	-0.060	15.198	-136.169	166.565	-80.78	14.05	-27.70	-67.130	-48.902	81.732	0.71094	-0.60944	0.15994	-0.31223	31.2	13111	100
2025-3-27 18:30:10.807	WT901BLE68-01(48591DE3C19B)	-0.478	-1.648	-0.072	23.560	-170.227	170.654	-80.14	15.52	-25.85	-67.130	-48.902	81.732	0.71094	-0.60944	0.15994	-0.31223	31.2	13111	100
2025-3-27 18:30:10.867	WT901BLE68-01(48591DE3C19B)	-0.317	-1.648	-0.072	23.560	-170.227	170.654	-79.36	16.94	-23.81	-67.130	-48.902	81.732	0.71094	-0.60944	0.15994	-0.31223	31.2	13111	100
2025-3-27 18:30:10.867	WT901BLE68-01(48591DE3C19B)	-0.317	-1.638	-0.080	32.471	-185.242	176.331	-78.46	18.33	-21.66	-67.130	-48.902	81.732	0.71094	-0.60944	0.15994	-0.31223	31.2	13111	100
2025-3-27 18:30:10.867	WT901BLE68-01(48591DE3C19B)	-0.161	-1.638	-0.080	32.471	-185.242	176.331	-77.44	19.69	-19.41	-67.130	-48.902	81.732	0.71094	-0.60944	0.15994	-0.31223	31.2	13111	100
2025-3-27 18:30:10.867	WT901BLE68-01(48591DE3C19B)	-0.161	-1.345	-0.025	37.903	-170.288	190.674	-76.35	21.07	-17.19	-67.130	-48.902	81.732	0.71094	-0.60944	0.15994	-0.31223	31.2	13111	100
2025-3-27 18:30:10.897	WT901BLE68-01(48591DE3C19B)	-0.100	-1.345	-0.025	37.903	-170.288	190.674	-75.21	22.49	-15.01	-67.130	-48.902	81.732	0.71094	-0.60944	0.15994	-0.31223	31.2	13111	100
2025-3-27 18:30:10.897	WT901BLE68-01(48591DE3C19B)	-0.100	-1.083	0.044	32.654	-138.489	208.923	-74.08	23.99	-12.92	-67.130	-48.902	81.732	0.71094	-0.60944	0.15994	-0.31223	31.2	13111	100
2025-3-27 18:30:10.897	WT901BLE68-01(48591DE3C19B)	-0.032	-1.083	0.044	32.654	-138.489	208.923	-72.96	25.57	-10.93	-67.130	-48.902	81.732	0.71094	-0.60944	0.15994	-0.31223	31.2	13111	100
2025-3-27 18:30:10.897	WT901BLE68-01(48591DE3C19B)	-0.032	-0.958	0.058	26.611	-99.915	222.839	-71.89	27.22	-9.08	-67.130	-48.902	81.732	0.71094	-0.60944	0.15994	-0.31223	31.2	13111	100
2025-3-27 18:30:10.957	WT901BLE68-01(48591DE3C19B)	0.112	-0.958	0.058	26.611	-99.915	222.839	-70.86	28.95	-7.36	-67.130	-48.902	81.732	0.71094	-0.60944	0.15994	-0.31223	31.2	13111	100
2025-3-27 18:30:10.957	WT901BLE68-01(48591DE3C19B)	0.112	-0.870	0.050	24.170	-48.889	228.882	-69.91	30.76	-5.86	-67.130	-48.902	81.732	0.71094	-0.60944	0.15994	-0.31223	31.2	13111	100
2025-3-27 18:30:10.957	WT901BLE68-01(48591DE3C19B)	0.198	-0.870	0.050	24.170	-48.889	228.882	-69.03	32.64	-4.58	-67.130	-48.902	81.732	0.71094	-0.60944	0.15994	-0.31223	31.2	13111	100
2025-3-27 18:30:10.957	WT901BLE68-01(48591DE3C19B)	0.198	-0.830	0.013	20.874	9.705	229.065	-68.30	34.60	-3.58	-67.130	-48.902	81.732	0.71094	-0.60944	0.15994	-0.31223	31.2	13111	100
2025-3-27 18:30:10.987	WT901BLE68-01(48591DE3C19B)	0.132	-0.830	0.013	20.874	9.705	229.065	-67.73	36.63	-2.87	-67.130	-48.902	81.732	0.71094	-0.60944	0.15994	-0.31223	31.2	13111	100
2025-3-27 18:30:10.987	WT901BLE68-01(48591DE3C19B)	0.132	-0.815	-0.026	14.465	60.852	220.215	-67.34	38.70	-2.45	-67.130	-48.902	81.732	0.78894	-0.51703	0.28693	0.16684	31.2	13111	100
2025-3-27 18:30:10.987	WT901BLE68-01(48591DE3C19B)	-0.001	-0.815	-0.026	14.465	60.852	220.215	-67.16	40.81	-2.35	-67.130	-48.902	81.732	0.78894	-0.51703	0.28693	0.16684	31.2	13111	100
2025-3-27 18:30:10.987	WT901BLE68-01(48591DE3C19B)	-0.001	-0.926	-0.039	-2.869	82.703	205.994	-67.19	42.89	-2.42	-67.130	-48.902	81.732	0.78894	-0.51703	0.28693	0.16684	31.2	13111	100
2025-3-27 18:30:11.17	WT901BLE68-01(48591DE3C19B)	-0.119	-0.926	-0.039	-2.869	82.703	205.994	-67.44	44.92	-2.68	-67.130	-48.902	81.732	0.78894	-0.51703	0.28693	0.16684	31.2	13111	100
2025-3-27 18:30:11.17	WT901BLE68-01(48591DE3C19B)	-0.119	-1.139	-0.035	-16.296	78.125	183.167	-67.80	46.82	-2.99	-67.130	-48.902	81.732	0.78894	-0.51703	0.28693	0.16684	31.2	13111	100
2025-3-27 18:30:11.17	WT901BLE68-01(48591DE3C19B)	-0.131	-1.139	-0.035	-16.296	78.125	183.167	-68.27	48.61	-3.37	-67.130	-48.902	81.732	0.78894	-0.51703	0.28693	0.16684	31.2	13111	100
2025-3-27 18:30:11.17	WT901BLE68-01(48591DE3C19B)	-0.131	-1.387	-0.032	-24.963	46.692	151.489	-68.71	50.18	-3.65	-67.130	-48.902	81.732	0.78894	-0.51703	0.28693	0.16684	31.2	13111	100
2025-3-27 18:30:11.77	WT901BLE68-01(48591DE3C19B)	-0.030	-1.387	-0.032	-24.963	46.692	151.489	-69.12	51.54	-3.82	-67.130	-48.902	81.732	0.78894	-0.51703	0.28693	0.16684	31.2	13111	100
2025-3-27 18:30:11.78	WT901BLE68-01(48591DE3C19B)	-0.030	-1.600	-0.004	-22.705	5.859	112.732	-69.37	52.63	-3.81	-67.130	-48.902	81.732	0.78894	-0.51703	0.28693	0.16684	31.2	13111	100
2025-3-27 18:30:11.78	WT901BLE68-01(48591DE3C19B)	0.081	-1.600	-0.004	-22.705	5.859	112.732	-69.44	53.47	-3.61	-67.130	-48.902	81.732	0.78894	-0.51703	0.28693	0.16684	31.2	13111	100
2025-3-27 18:30:11.78	WT901BLE68-01(48591DE3C19B)	0.081	-1.590	0.062	-13.306	-27.344	71.838	-69.36	54.05	-3.26	-67.130	-48.902	81.732	0.78894	-0.51703	0.28693	0.16684	31.2	13111	100
2025-3-27 18:30:11.109	WT901BLE68-01(48591DE3C19B)	0.138	-1.590	0.062	-13.306	-27.344	71.838	-69.11	54.38	-2.78	-67.130	-48.902	81.732	0.78894	-0.51703	0.28693	0.16684	31.2	13111	100
2025-3-27 18:30:11.109	WT901BLE68-01(48591DE3C19B)	0.138	-1.527	0.112	-12.024	-36.072	25.330	-68.91	54.46	-2.37	-67.130	-48.902	81.732	0.78894	-0.51703	0.28693	0.16684	31.2	13111	100
2025-3-27 18:30:11.109	WT901BLE68-01(48591DE3C19B)	0.038	-1.527	0.112	-12.024	-36.072	25.330	-68.76	54.32	-2.04	-67.130	-48.902	81.732	0.78894	-0.51703	0.28693	0.16684	31.2	13111	100
2025-3-27 18:30:11.109	WT901BLE68-01(48591DE3C19B)	0.038	-1.518	0.140	-8.423	-23.621	-15.930	-68.79	53.99	-1.94	-67.130	-48.902	81.732	0.78894	-0.51703	0.28693	0.16684	31.2	13111	100
2025-3-27 18:30:11.139	WT901BLE68-01(48591DE3C19B)	-0.021	-1.518	0.140	-8.423	-23.621	-15.930	-68.98	53.50	-2.07	-67.130	-48.902	81.732	0.78894	-0.51703	0.28693	0.16684	31.2	13111	100
2025-3-27 18:30:11.140	WT901BLE68-01(48591DE3C19B)	-0.021	-1.422	0.184	-6.042	-11.108	-56.213	-69.32	52.85	-2.40	-67.130	-48.902	81.732	0.78894	-0.51703	0.28693	0.16684	31.2	13111	100
2025-3-27 18:30:11.140	WT901BLE68-01(48591DE3C19B)	0.013	-1.422	0.184	-6.042	-11.108	-56.213	-69.80	52.03	-2.93	-67.130	-48.902	81.732	0.78894	-0.51703	0.28693	0.16684	31.2	13111	100
2025-3-27 18:30:11.140	WT901BLE68-01(48591DE3C19B)	0.013	-1.399	0.176	-8.484	7.385	-92.346	-70.44	51.07	-3.67	-67.130	-48.902	81.732	0.78894	-0.51703	0.28693	0.16684	31.2	13111	100
2025-3-27 18:30:11.198	WT901BLE68-01(48591DE3C19B)	-0.013	-1.399	0.176	-8.484	7.385	-92.346	-71.24	49.97	-4.60	-67.130	-48.902	81.732	0.78894	-0.51703	0.28693	0.16684	31.2	13111	100
2025-3-27 18:30:11.198	WT901BLE68-01(48591DE3C19B)	-0.013	-1.322	0.164	-4.578	33.691	-124.146	-72.16	48.76	-5.75	-62.818	-26.264	80.458	0.78894	-0.51703	0.28693	0.16684	31.2	13111	100
2025-3-27 18:30:11.198	WT901BLE68-01(48591DE3C19B)	-0.103	-1.322	0.164	-4.578	33.691	-124.146	-73.20	47.43	-7.09	-62.818	-26.264	80.458	0.78894	-0.51703	0.28693	0.16684	31.2	13111	100
2025-3-27 18:30:11.198	WT901BLE68-01(48591DE3C19B)	-0.103	-1.163	0.188	-4.456	46.936	-149.597	-74.26	45.99	-8.49	-62.818	-26.264	80.458	0.78894	-0.51703	0.28693	0.16684	31.2	13111	100
2025-3-27 18:30:11.257	WT901BLE68-01(48591DE3C19B)	-0.149	-1.163	0.188	-4.456	46.936	-149.597	-75.32	44.43	-9.95	-62.818	-26.264	80.458	0.78894	-0.51703	0.28693	0.16684	31.2	13111	100
2025-3-27 18:30:11.257	WT901BLE68-01(48591DE3C19B)	-0.149	-1.085	0.225	-5.920	51.147	-171.631	-76.40	42.67	-11.45	-62.818	-26.264	80.458	0.78894	-0.51703	0.28693	0.16684	31.2	13111	100
2025-3-27 18:30:11.257	WT901BLE68-01(48591DE3C19B)	-0.151	-1.085	0.225	-5.920	51.147	-171.631	-77.38	40.90	-12.86	-62.818	-26.264	80.458	0.78894	-0.51703	0.28693	0.16684	31.2	13111	100
2025-3-27 18:30:11.258	WT901BLE68-01(48591DE3C19B)	-0.151	-1.099	0.256	-5.920	61.096	-192.932	-78.38	38.93	-14.36	-62.818	-26.264	80.458	0.78894	-0.51703	0.28693	0.16684	31.2	13111	100
2025-3-27 18:30:11.266	WT901BLE68-01(48591DE3C19B)	-0.160	-1.099	0.256	-5.920	61.096	-192.932	-79.27	36.96	-15.78	-62.818	-26.264	80.458	0.78894	-0.51703	0.28693	0.16684	31.2	13111	100
2025-3-27 18:30:11.266	WT901BLE68-01(48591DE3C19B)	-0.160	-1.167	0.266	-2.075	76.233	-210.327	-80.17	34.84	-17.33	-62.818	-26.264	80.458	0.78894	-0.51703	0.28693	0.16684	31.2	13111	100
2025-3-27 18:30:11.266	WT901BLE68-01(48591DE3C19B)	-0.213	-1.167	0.266	-2.075	76.233	-210.327	-80.97	32.72	-18.79	-62.818	-26.264	80.458	0.78894	-0.51703	0.28693	0.16684	31.2	13111	100
2025-3-27 18:30:11.266	WT901BLE68-01(48591DE3C19B)	-0.213	-1.214	0.251	4.883	83.740	-223.328	-81.68	30.48	-20.29	-62.818	-26.264	80.458	0.78894	-0.51703	0.28693	0.16684	31.2	13111	100
2025-3-27 18:30:11.349	WT901BLE68-01(48591DE3C19B)	-0.253	-1.214	0.251	4.883	83.740	-223.328	-82.29	28.25	-21.72	-62.818	-26.264	80.458	0.78894	-0.51703	0.28693	0.16684	31.2	13111	100
2025-3-27 18:30:11.349	WT901BLE68-01(48591DE3C19B)	-0.253	-1.237	0.250	12.756	89.294	-233.948	-82.78	25.91	-23.16	-62.818	-26.264	80.458	0.78894	-0.51703	0.28693	0.16684	31.2	13111	100
2025-3-27 18:30:11.350	WT901BLE68-01(48591DE3C19B)	-0.349	-1.237	0.250	12.756	89.294	-233.948	-83.20	23.59	-24.55	-62.818	-26.264	80.458	0.78894	-0.51703	0.28693	0.16684	31.2	13111	100
2025-3-27 18:30:11.350	WT901BLE68-01(48591DE3C19B)	-0.349	-1.260	0.259	21.973	98.328	-239.319	-83.49	21.24	-25.99	-62.818	-26.264	80.458	0.78894	-0.51703	0.28693	0.16684	31.2	13111	100
2025-3-27 18:30:11.350	WT901BLE68-01(48591DE3C19B)	-0.442	-1.260	0.259	21.973	98.328	-239.319	-83.71	18.90	-27.39	-62.818	-26.264	80.458	0.78894	-0.51703	0.28693	0.16684	31.2	13111	100
2025-3-27 18:30:11.350	WT901BLE68-01(48591DE3C19B)	-0.442	-1.270	0.233	34.058	103.088	-239.502	-83.77	16.57	-28.81	-62.818	-26.264	80.458	0.78894	-0.51703	0.28693	0.16684	31.2	13111	100
2025-3-27 18:30:11.350	WT901BLE68-01(48591DE3C19B)	-0.489	-1.270	0.233	34.058	103.088	-239.502	-83.76	14.27	-30.20	-62.818	-26.264	80.458	0.78894	-0.51703	0.28693	0.16684	31.2	13111	100
2025-3-27 18:30:11.350	WT901BLE68-01(48591DE3C19B)	-0.489	-1.209	0.178	45.227	97.473	-235.046	-83.57	12.03	-31.51	-62.818	-26.264	80.458	0.78894	-0.51703	0.28693	0.16684	31.2	13111	100
2025-3-27 18:30:11.379	WT901BLE68-01(48591DE3C19B)	-0.477	-1.209	0.178	45.227	97.473	-235.046	-83.34	9.82	-32.80	-62.818	-26.264	80.458	0.78894	-0.51703	0.28693	0.16684	31.2	13111	100
2025-3-27 18:30:11.379	WT901BLE68-01(48591DE3C19B)	-0.477	-1.133	0.116	52.856	83.313	-227.539	-82.97	7.68	-33.94	-62.818	-26.264	80.458	0.78894	-0.51703	0.28693	0.16684	31.2	13111	100
2025-3-27 18:30:11.380	WT901BLE68-01(48591DE3C19B)	-0.441	-1.133	0.116	52.856	83.313	-227.539	-82.56	5.58	-35.08	-62.818	-26.264	80.458	0.72433	-0.61694	0.22949	-0.20477	31.2	13111	100
2025-3-27 18:30:11.380	WT901BLE68-01(48591DE3C19B)	-0.441	-1.054	0.083	56.458	68.542	-218.140	-82.06	3.57	-36.06	-62.818	-26.264	80.458	0.72433	-0.61694	0.22949	-0.20477	31.2	13111	100
2025-3-27 18:30:11.467	WT901BLE68-01(48591DE3C19B)	-0.407	-1.054	0.083	56.458	68.542	-218.140	-81.54	1.59	-37.06	-62.818	-26.264	80.458	0.72433	-0.61694	0.22949	-0.20477	31.2	13111	100
2025-3-27 18:30:11.467	WT901BLE68-01(48591DE3C19B)	-0.407	-0.977	0.083	56.824	60.425	-207.764	-80.99	-0.27	-37.96	-62.818	-26.264	80.458	0.72433	-0.61694	0.22949	-0.20477	31.2	13111	100
2025-3-27 18:30:11.467	WT901BLE68-01(48591DE3C19B)	-0.376	-0.977	0.083	56.824	60.425	-207.764	-80.41	-2.11	-38.88	-62.818	-26.264	80.458	0.72433	-0.61694	0.22949	-0.20477	31.2	13111	100
2025-3-27 18:30:11.467	WT901BLE68-01(48591DE3C19B)	-0.376	-0.889	0.151	57.922	49.927	-196.411	-79.80	-3.84	-39.69	-62.818	-26.264	80.458	0.72433	-0.61694	0.22949	-0.20477	31.2	13111	100
2025-3-27 18:30:11.469	WT901BLE68-01(48591DE3C19B)	-0.318	-0.889	0.151	57.922	49.927	-196.411	-79.18	-5.55	-40.51	-62.818	-26.264	80.458	0.72433	-0.61694	0.22949	-0.20477	31.2	13111	100
2025-3-27 18:30:11.469	WT901BLE68-01(48591DE3C19B)	-0.318	-0.808	0.186	53.894	46.814	-182.495	-78.57	-7.10	-41.29	-62.818	-26.264	80.458	0.72433	-0.61694	0.22949	-0.20477	31.2	13111	100
2025-3-27 18:30:11.469	WT901BLE68-01(48591DE3C19B)	-0.408	-0.808	0.186	53.894	46.814	-182.495	-77.95	-8.64	-42.09	-62.818	-26.264	80.458	0.72433	-0.61694	0.22949	-0.20477	31.2	13111	100
2025-3-27 18:30:11.469	WT901BLE68-01(48591DE3C19B)	-0.408	-0.742	0.141	46.875	63.416	-164.490	-77.35	-9.94	-43.02	-62.818	-26.264	80.458	0.72433	-0.61694	0.22949	-0.20477	31.2	13111	100
2025-3-27 18:30:11.499	WT901BLE68-01(48591DE3C19B)	-0.559	-0.742	0.141	46.875	63.416	-164.490	-76.74	-11.22	-43.97	-62.818	-26.264	80.458	0.72433	-0.61694	0.22949	-0.20477	31.2	13111	100
2025-3-27 18:30:11.500	WT901BLE68-01(48591DE3C19B)	-0.559	-0.668	0.109	47.729	76.965	-150.085	-76.07	-12.31	-45.02	-62.818	-26.264	80.458	0.72433	-0.61694	0.22949	-0.20477	31.2	13111	100
2025-3-27 18:30:11.500	WT901BLE68-01(48591DE3C19B)	-0.623	-0.668	0.109	47.729	76.965	-150.085	-75.40	-13.37	-46.08	-62.818	-26.264	80.458	0.72433	-0.61694	0.22949	-0.20477	31.2	13111	100
2025-3-27 18:30:11.500	WT901BLE68-01(48591DE3C19B)	-0.623	-0.613	0.120	50.537	76.294	-133.789	-74.70	-14.24	-47.09	-62.818	-26.264	80.458	0.72433	-0.61694	0.22949	-0.20477	31.2	13111	100
2025-3-27 18:30:11.564	WT901BLE68-01(48591DE3C19B)	-0.627	-0.613	0.120	50.537	76.294	-133.789	-73.98	-15.10	-48.10	-62.818	-26.264	80.458	0.72433	-0.61694	0.22949	-0.20477	31.2	13111	100
2025-3-27 18:30:11.564	WT901BLE68-01(48591DE3C19B)	-0.627	-0.613	0.071	52.490	70.007	-114.258	-73.27	-15.75	-49.00	-62.818	-26.264	80.458	0.72433	-0.61694	0.22949	-0.20477	31.2	13111	100
2025-3-27 18:30:11.565	WT901BLE68-01(48591DE3C19B)	-0.641	-0.613	0.071	52.490	70.007	-114.258	-72.55	-16.39	-49.91	-62.818	-26.264	80.458	0.72433	-0.61694	0.22949	-0.20477	31.2	13111	100
2025-3-27 18:30:11.565	WT901BLE68-01(48591DE3C19B)	-0.641	-0.648	0.010	50.049	59.082	-93.323	-71.91	-16.83	-50.63	-62.818	-26.264	80.458	0.72433	-0.61694	0.22949	-0.20477	31.2	13111	100
2025-3-27 18:30:11.587	WT901BLE68-01(48591DE3C19B)	-0.750	-0.648	0.010	50.049	59.082	-93.323	-71.27	-17.27	-51.34	-71.442	-34.888	76.930	0.72433	-0.61694	0.22949	-0.20477	31.2	13111	100
2025-3-27 18:30:11.587	WT901BLE68-01(48591DE3C19B)	-0.750	-0.864	-0.020	38.696	47.546	-70.374	-70.81	-17.51	-51.87	-71.442	-34.888	76.930	0.72433	-0.61694	0.22949	-0.20477	31.2	13111	100
2025-3-27 18:30:11.587	WT901BLE68-01(48591DE3C19B)	-0.880	-0.864	-0.020	38.696	47.546	-70.374	-70.36	-17.74	-52.39	-71.442	-34.888	76.930	0.72433	-0.61694	0.22949	-0.20477	31.2	13111	100
2025-3-27 18:30:11.587	WT901BLE68-01(48591DE3C19B)	-0.880	-1.219	-0.014	27.771	35.156	-47.058	-70.09	-17.79	-52.70	-71.442	-34.888	76.930	0.72433	-0.61694	0.22949	-0.20477	31.2	13111	100
2025-3-27 18:30:11.617	WT901BLE68-01(48591DE3C19B)	-0.901	-1.219	-0.014	27.771	35.156	-47.058	-69.82	-17.84	-53.01	-71.442	-34.888	76.930	0.72433	-0.61694	0.22949	-0.20477	31.2	13111	100
2025-3-27 18:30:11.617	WT901BLE68-01(48591DE3C19B)	-0.901	-1.584	0.023	13.428	23.193	-27.039	-69.76	-17.74	-53.14	-71.442	-34.888	76.930	0.72433	-0.61694	0.22949	-0.20477	31.2	13111	100
2025-3-27 18:30:11.617	WT901BLE68-01(48591DE3C19B)	-0.832	-1.584	0.023	13.428	23.193	-27.039	-69.69	-17.65	-53.26	-71.442	-34.888	76.930	0.72433	-0.61694	0.22949	-0.20477	31.2	13111	100
2025-3-27 18:30:11.617	WT901BLE68-01(48591DE3C19B)	-0.832	-1.937	0.082	-6.897	30.762	7.568	-69.85	-17.22	-53.34	-71.442	-34.888	76.930	0.72433	-0.61694	0.22949	-0.20477	31.2	13111	100
2025-3-27 18:30:11.678	WT901BLE68-01(48591DE3C19B)	-0.799	-1.937	0.082	-6.897	30.762	7.568	-69.99	-16.79	-53.43	-71.442	-34.888	76.930	0.72433	-0.61694	0.22949	-0.20477	31.2	13111	100
2025-3-27 18:30:11.678	WT901BLE68-01(48591DE3C19B)	-0.735	-1.840	0.240	-15.564	46.082	38.818	-70.21	-16.03	-53.57	-71.442	-34.888	76.930	0.72433	-0.61694	0.22949	-0.20477	31.2	13111	100
2025-3-27 18:30:11.678	WT901BLE68-01(48591DE3C19B)	-0.735	-1.613	0.376	-42.236	52.368	75.378	-70.57	-15.09	-53.68	-71.442	-34.888	76.930	0.72433	-0.61694	0.22949	-0.20477	31.2	13111	100
2025-3-27 18:30:11.678	WT901BLE68-01(48591DE3C19B)	-0.787	-1.613	0.376	-42.236	52.368	75.378	-71.06	-13.97	-53.78	-71.442	-34.888	76.930	0.72433	-0.61694	0.22949	-0.20477	31.2	13111	100
2025-3-27 18:30:11.707	WT901BLE68-01(48591DE3C19B)	-0.787	-1.502	0.432	-65.613	35.339	107.239	-71.69	-12.74	-53.76	-71.442	-34.888	76.930	0.72433	-0.61694	0.22949	-0.20477	31.2	13111	100
2025-3-27 18:30:11.707	WT901BLE68-01(48591DE3C19B)	-0.779	-1.502	0.432	-65.613	35.339	107.239	-72.44	-11.40	-53.62	-71.442	-34.888	76.930	0.72433	-0.61694	0.22949	-0.20477	31.2	13111	100
2025-3-27 18:30:11.707	WT901BLE68-01(48591DE3C19B)	-0.779	-1.359	0.394	-78.735	-4.150	130.798	-73.30	-10.00	-53.28	-71.442	-34.888	76.930	0.72433	-0.61694	0.22949	-0.20477	31.2	13111	100
2025-3-27 18:30:11.707	WT901BLE68-01(48591DE3C19B)	-0.750	-1.359	0.394	-78.735	-4.150	130.798	-74.22	-8.55	-52.75	-71.442	-34.888	76.930	0.72433	-0.61694	0.22949	-0.20477	31.2	13111	100
2025-3-27 18:30:11.739	WT901BLE68-01(48591DE3C19B)	-0.750	-1.208	0.255	-89.966	-46.875	153.748	-75.22	-7.04	-52.00	-71.442	-34.888	76.930	0.72433	-0.61694	0.22949	-0.20477	31.2	13111	100
2025-3-27 18:30:11.740	WT901BLE68-01(48591DE3C19B)	-0.737	-1.208	0.255	-89.966	-46.875	153.748	-76.26	-5.47	-51.06	-71.442	-34.888	76.930	0.72433	-0.61694	0.22949	-0.20477	31.2	13111	100
2025-3-27 18:30:11.740	WT901BLE68-01(48591DE3C19B)	-0.737	-1.105	0.096	-98.633	-94.910	179.749	-77.34	-3.82	-49.88	-71.442	-34.888	76.930	0.72433	-0.61694	0.22949	-0.20477	31.2	13111	100
2025-3-27 18:30:11.740	WT901BLE68-01(48591DE3C19B)	-0.653	-1.105	0.096	-98.633	-94.910	179.749	-78.43	-2.07	-48.49	-71.442	-34.888	76.930	0.72433	-0.61694	0.22949	-0.20477	31.2	13111	100
2025-3-27 18:30:11.798	WT901BLE68-01(48591DE3C19B)	-0.653	-1.115	-0.004	-103.577	-143.066	207.153	-79.50	-0.23	-46.87	-71.442	-34.888	76.930	0.72433	-0.61694	0.22949	-0.20477	31.2	13111	100
2025-3-27 18:30:11.798	WT901BLE68-01(48591DE3C19B)	-0.488	-1.115	-0.004	-103.577	-143.066	207.153	-80.54	1.73	-45.04	-71.442	-34.888	76.930	0.70844	-0.59259	0.25818	-0.28314	31.2	13111	100
2025-3-27 18:30:11.798	WT901BLE68-01(48591DE3C19B)	-0.488	-1.267	-0.020	-98.694	-172.974	231.995	-81.48	3.81	-43.07	-71.442	-34.888	76.930	0.70844	-0.59259	0.25818	-0.28314	31.2	13111	100
2025-3-27 18:30:11.798	WT901BLE68-01(48591DE3C19B)	-0.369	-1.267	-0.020	-98.694	-172.974	231.995	-82.31	6.00	-40.98	-71.442	-34.888	76.930	0.70844	-0.59259	0.25818	-0.28314	31.2	13111	100
2025-3-27 18:30:11.826	WT901BLE68-01(48591DE3C19B)	-0.369	-1.443	-0.025	-85.144	-186.035	250.000	-82.98	8.28	-38.86	-71.442	-34.888	76.930	0.70844	-0.59259	0.25818	-0.28314	31.2	13111	100
2025-3-27 18:30:11.826	WT901BLE68-01(48591DE3C19B)	-0.287	-1.443	-0.025	-85.144	-186.035	250.000	-83.49	10.64	-36.68	-71.442	-34.888	76.930	0.70844	-0.59259	0.25818	-0.28314	31.2	13111	100
2025-3-27 18:30:11.826	WT901BLE68-01(48591DE3C19B)	-0.287	-1.602	-0.003	-66.345	-190.125	255.371	-83.80	13.02	-34.49	-71.442	-34.888	76.930	0.70844	-0.59259	0.25818	-0.28314	31.2	13111	100
2025-3-27 18:30:11.827	WT901BLE68-01(48591DE3C19B)	-0.253	-1.602	-0.003	-66.345	-190.125	255.371	-83.93	15.41	-32.28	-71.442	-34.888	76.930	0.70844	-0.59259	0.25818	-0.28314	31.2	13111	100
2025-3-27 18:30:11.865	WT901BLE68-01(48591DE3C19B)	-0.253	-1.710	0.073	-44.312	-188.171	252.991	-83.85	17.77	-30.08	-71.442	-34.888	76.930	0.70844	-0.59259	0.25818	-0.28314	31.2	13111	100
2025-3-27 18:30:11.865	WT901BLE68-01(48591DE3C19B)	-0.224	-1.710	0.073	-44.312	-188.171	252.991	-83.58	20.08	-27.87	-71.442	-34.888	76.930	0.70844	-0.59259	0.25818	-0.28314	31.2	13111	100
2025-3-27 18:30:11.865	WT901BLE68-01(48591DE3C19B)	-0.224	-1.706	0.084	-20.264	-174.011	246.277	-83.11	22.34	-25.70	-71.442	-34.888	76.930	0.70844	-0.59259	0.25818	-0.28314	31.2	13111	100
2025-3-27 18:30:11.865	WT901BLE68-01(48591DE3C19B)	-0.177	-1.706	0.084	-20.264	-174.011	246.277	-82.46	24.53	-23.57	-71.442	-34.888	76.930	0.70844	-0.59259	0.25818	-0.28314	31.2	13111	100
2025-3-27 18:30:11.918	WT901BLE68-01(48591DE3C19B)	-0.177	-1.474	0.091	1.099	-146.423	239.746	-81.68	26.67	-21.54	-71.442	-34.888	76.930	0.70844	-0.59259	0.25818	-0.28314	31.2	13111	100
2025-3-27 18:30:11.918	WT901BLE68-01(48591DE3C19B)	-0.123	-1.474	0.091	1.099	-146.423	239.746	-80.76	28.75	-19.62	-71.442	-34.888	76.930	0.70844	-0.59259	0.25818	-0.28314	31.2	13111	100
2025-3-27 18:30:11.918	WT901BLE68-01(48591DE3C19B)	-0.123	-1.258	0.068	10.681	-109.802	234.375	-79.82	30.78	-17.84	-71.442	-34.888	76.930	0.70844	-0.59259	0.25818	-0.28314	31.2	13111	100
2025-3-27 18:30:11.918	WT901BLE68-01(48591DE3C19B)	-0.080	-1.258	0.068	10.681	-109.802	234.375	-78.84	32.78	-16.21	-71.442	-34.888	76.930	0.70844	-0.59259	0.25818	-0.28314	31.2	13111	100
2025-3-27 18:30:11.949	WT901BLE68-01(48591DE3C19B)	-0.080	-1.086	0.042	17.029	-68.176	229.675	-77.89	34.77	-14.76	-71.442	-34.888	76.930	0.70844	-0.59259	0.25818	-0.28314	31.2	13111	100
2025-3-27 18:30:11.949	WT901BLE68-01(48591DE3C19B)	-0.083	-1.086	0.042	17.029	-68.176	229.675	-76.99	36.73	-13.51	-71.442	-34.888	76.930	0.70844	-0.59259	0.25818	-0.28314	31.2	13111	100
2025-3-27 18:30:11.949	WT901BLE68-01(48591DE3C19B)	-0.083	-0.943	0.038	18.921	-32.593	227.722	-76.13	38.70	-12.41	-71.442	-34.888	76.930	0.70844	-0.59259	0.25818	-0.28314	31.2	13111	100
2025-3-27 18:30:11.949	WT901BLE68-01(48591DE3C19B)	-0.100	-0.943	0.038	18.921	-32.593	227.722	-75.34	40.68	-11.48	-71.442	-34.888	76.930	0.70844	-0.59259	0.25818	-0.28314	31.2	13111	100
2025-3-27 18:30:11.980	WT901BLE68-01(48591DE3C19B)	-0.100	-0.895	0.003	17.517	-8.118	226.379	-74.60	42.65	-10.64	-71.442	-34.888	76.930	0.70844	-0.59259	0.25818	-0.28314	31.2	13111	100
2025-3-27 18:30:11.980	WT901BLE68-01(48591DE3C19B)	-0.078	-0.895	0.003	17.517	-8.118	226.379	-73.93	44.64	-9.92	-71.442	-34.888	76.930	0.70844	-0.59259	0.25818	-0.28314	31.2	13111	100
2025-3-27 18:30:11.980	WT901BLE68-01(48591DE3C19B)	-0.078	-0.873	-0.032	17.212	7.751	224.426	-73.28	46.61	-9.26	-62.132	-19.404	73.598	0.70844	-0.59259	0.25818	-0.28314	31.2	13111	100
2025-3-27 18:30:11.980	WT901BLE68-01(48591DE3C19B)	-0.034	-0.873	-0.032	17.212	7.751	224.426	-72.66	48.59	-8.66	-62.132	-19.404	73.598	0.70844	-0.59259	0.25818	-0.28314	31.2	13111	100
2025-3-27 18:30:12.38	WT901BLE68-01(48591DE3C19B)	-0.034	-0.848	-0.051	16.541	18.738	218.384	-72.07	50.53	-8.10	-62.132	-19.404	73.598	0.70844	-0.59259	0.25818	-0.28314	31.2	13111	100
2025-3-27 18:30:12.38	WT901BLE68-01(48591DE3C19B)	-0.030	-0.848	-0.051	16.541	18.738	218.384	-71.51	52.45	-7.59	-62.132	-19.404	73.598	0.70844	-0.59259	0.25818	-0.28314	31.2	13111	100
2025-3-27 18:30:12.38	WT901BLE68-01(48591DE3C19B)	-0.030	-0.888	-0.091	10.803	22.339	207.153	-70.98	54.30	-7.10	-62.132	-19.404	73.598	0.70844	-0.59259	0.25818	-0.28314	31.2	13111	100
2025-3-27 18:30:12.38	WT901BLE68-01(48591DE3C19B)	0.045	-0.888	-0.091	10.803	22.339	207.153	-70.48	56.09	-6.61	-62.132	-19.404	73.598	0.70844	-0.59259	0.25818	-0.28314	31.2	13111	100
2025-3-27 18:30:12.66	WT901BLE68-01(48591DE3C19B)	0.045	-1.065	-0.162	-1.465	7.263	181.396	-69.96	57.72	-6.04	-62.132	-19.404	73.598	0.70844	-0.59259	0.25818	-0.28314	31.2	13111	100
2025-3-27 18:30:12.66	WT901BLE68-01(48591DE3C19B)	0.150	-1.065	-0.162	-1.465	7.263	181.396	-69.41	59.19	-5.37	-62.132	-19.404	73.598	0.70844	-0.59259	0.25818	-0.28314	31.2	13111	100
2025-3-27 18:30:12.66	WT901BLE68-01(48591DE3C19B)	0.150	-1.411	-0.179	-9.094	-7.629	137.024	-68.88	60.41	-4.67	-62.132	-19.404	73.598	0.70844	-0.59259	0.25818	-0.28314	31.2	13111	100
2025-3-27 18:30:12.66	WT901BLE68-01(48591DE3C19B)	0.093	-1.411	-0.179	-9.094	-7.629	137.024	-68.37	61.39	-3.97	-62.132	-19.404	73.598	0.70844	-0.59259	0.25818	-0.28314	31.2	13111	100
2025-3-27 18:30:12.98	WT901BLE68-01(48591DE3C19B)	0.093	-1.816	-0.079	-5.615	-15.015	83.313	-67.94	62.08	-3.38	-62.132	-19.404	73.598	0.70844	-0.59259	0.25818	-0.28314	31.2	13111	100
2025-3-27 18:30:12.98	WT901BLE68-01(48591DE3C19B)	0.020	-1.816	-0.079	-5.615	-15.015	83.313	-67.61	62.51	-2.93	-62.132	-19.404	73.598	0.70844	-0.59259	0.25818	-0.28314	31.2	13111	100
2025-3-27 18:30:12.98	WT901BLE68-01(48591DE3C19B)	0.020	-1.906	0.030	9.155	-23.254	23.376	-67.34	62.64	-2.63	-62.132	-19.404	73.598	0.70844	-0.59259	0.25818	-0.28314	31.2	13111	100
2025-3-27 18:30:12.98	WT901BLE68-01(48591DE3C19B)	-0.067	-1.906	0.030	9.155	-23.254	23.376	-67.15	62.48	-2.49	-62.132	-19.404	73.598	0.70844	-0.59259	0.25818	-0.28314	31.2	13111	100
2025-3-27 18:30:12.164	WT901BLE68-01(48591DE3C19B)	-0.067	-1.630	0.121	0.000	-9.827	-34.119	-67.69	61.84	-3.09	-62.132	-19.404	73.598	0.70844	-0.59259	0.25818	-0.28314	31.2	13111	100
2025-3-27 18:30:12.164	WT901BLE68-01(48591DE3C19B)	-0.118	-1.630	0.121	0.000	-9.827	-34.119	-68.20	61.19	-3.66	-62.132	-19.404	73.598	0.70844	-0.59259	0.25818	-0.28314	31.2	13111	100
2025-3-27 18:30:12.164	WT901BLE68-01(48591DE3C19B)	-0.118	-1.471	0.160	-8.240	6.714	-77.759	-69.30	60.21	-4.82	-62.132	-19.404	73.598	0.70844	-0.59259	0.25818	-0.28314	31.2	13111	100
2025-3-27 18:30:12.164	WT901BLE68-01(48591DE3C19B)	-0.047	-1.471	0.160	-8.240	6.714	-77.759	-70.32	59.21	-5.91	-62.132	-19.404	73.598	0.70844	-0.59259	0.25818	-0.28314	31.2	13111	100
2025-3-27 18:30:12.218	WT901BLE68-01(48591DE3C19B)	-0.047	-1.363	0.217	-11.597	4.333	-114.136	-71.45	57.86	-7.09	-62.132	-19.404	73.598	0.70844	-0.59259	0.25818	-0.28314	31.2	13111	100
2025-3-27 18:30:12.218	WT901BLE68-01(48591DE3C19B)	0.065	-1.363	0.217	-11.597	4.333	-114.136	-72.48	56.51	-8.18	-62.132	-19.404	73.598	0.70844	-0.59259	0.25818	-0.28314	31.2	13111	100
2025-3-27 18:30:12.218	WT901BLE68-01(48591DE3C19B)	0.065	-1.288	0.177	-11.047	10.010	-147.461	-73.62	54.85	-9.44	-62.132	-19.404	73.598	0.70844	-0.59259	0.25818	-0.28314	31.2	13111	100
2025-3-27 18:30:12.218	WT901BLE68-01(48591DE3C19B)	0.046	-1.288	0.177	-11.047	10.010	-147.461	-74.65	53.18	-10.59	-62.132	-19.404	73.598	0.73306	-0.50705	0.40445	0.20459	31.2	13111	100
2025-3-27 18:30:12.219	WT901BLE68-01(48591DE3C19B)	0.046	-1.211	0.101	-16.907	23.682	-174.011	-75.90	51.28	-11.96	-62.132	-19.404	73.598	0.73306	-0.50705	0.40445	0.20459	31.2	13111	100
2025-3-27 18:30:12.219	WT901BLE68-01(48591DE3C19B)	-0.023	-1.211	0.101	-16.907	23.682	-174.011	-77.02	49.38	-13.22	-62.132	-19.404	73.598	0.73306	-0.50705	0.40445	0.20459	31.2	13111	100
2025-3-27 18:30:12.220	WT901BLE68-01(48591DE3C19B)	-0.023	-1.211	0.089	-22.400	38.025	-200.806	-78.30	47.24	-14.65	-62.132	-19.404	73.598	0.73306	-0.50705	0.40445	0.20459	31.2	13111	100
2025-3-27 18:30:12.220	WT901BLE68-01(48591DE3C19B)	-0.131	-1.211	0.089	-22.400	38.025	-200.806	-79.45	45.09	-15.95	-62.132	-19.404	73.598	0.73306	-0.50705	0.40445	0.20459	31.2	13111	100
2025-3-27 18:30:12.308	WT901BLE68-01(48591DE3C19B)	-0.131	-1.264	0.146	-21.057	50.903	-228.333	-80.63	42.70	-17.39	-62.132	-19.404	73.598	0.73306	-0.50705	0.40445	0.20459	31.2	13111	100
2025-3-27 18:30:12.308	WT901BLE68-01(48591DE3C19B)	-0.243	-1.264	0.146	-21.057	50.903	-228.333	-81.69	40.30	-18.69	-62.132	-19.404	73.598	0.73306	-0.50705	0.40445	0.20459	31.2	13111	100
2025-3-27 18:30:12.308	WT901BLE68-01(48591DE3C19B)	-0.243	-1.297	0.179	-12.329	57.922	-252.747	-82.63	37.66	-20.02	-62.132	-19.404	73.598	0.73306	-0.50705	0.40445	0.20459	31.2	13111	100
2025-3-27 18:30:12.308	WT901BLE68-01(48591DE3C19B)	-0.274	-1.297	0.179	-12.329	57.922	-252.747	-83.46	35.04	-21.25	-62.132	-19.404	73.598	0.73306	-0.50705	0.40445	0.20459	31.2	13111	100
2025-3-27 18:30:12.309	WT901BLE68-01(48591DE3C19B)	-0.274	-1.331	0.185	-0.549	64.941	-271.545	-84.13	32.24	-22.51	-62.132	-19.404	73.598	0.73306	-0.50705	0.40445	0.20459	31.2	13111	100
2025-3-27 18:30:12.309	WT901BLE68-01(48591DE3C19B)	-0.271	-1.331	0.185	-0.549	64.941	-271.545	-84.70	29.45	-23.68	-62.132	-19.404	73.598	0.73306	-0.50705	0.40445	0.20459	31.2	13111	100
2025-3-27 18:30:12.309	WT901BLE68-01(48591DE3C19B)	-0.271	-1.372	0.148	13.245	69.458	-283.630	-85.09	26.55	-24.85	-62.132	-19.404	73.598	0.73306	-0.50705	0.40445	0.20459	31.2	13111	100
2025-3-27 18:30:12.309	WT901BLE68-01(48591DE3C19B)	-0.348	-1.372	0.148	13.245	69.458	-283.630	-85.40	23.68	-25.96	-62.132	-19.404	73.598	0.73306	-0.50705	0.40445	0.20459	31.2	13111	100
2025-3-27 18:30:12.339	WT901BLE68-01(48591DE3C19B)	-0.348	-1.383	0.155	25.757	69.946	-293.030	-85.53	20.72	-27.05	-62.132	-19.404	73.598	0.73306	-0.50705	0.40445	0.20459	31.2	13111	100
2025-3-27 18:30:12.339	WT901BLE68-01(48591DE3C19B)	-0.355	-1.383	0.155	25.757	69.946	-293.030	-85.59	17.79	-28.11	-62.132	-19.404	73.598	0.73306	-0.50705	0.40445	0.20459	31.2	13111	100
2025-3-27 18:30:12.339	WT901BLE68-01(48591DE3C19B)	-0.355	-1.426	0.196	33.386	73.242	-300.110	-85.54	14.80	-29.19	-62.132	-19.404	73.598	0.73306	-0.50705	0.40445	0.20459	31.2	13111	100
2025-3-27 18:30:12.340	WT901BLE68-01(48591DE3C19B)	-0.386	-1.426	0.196	33.386	73.242	-300.110	-85.43	11.85	-30.25	-62.132	-19.404	73.598	0.73306	-0.50705	0.40445	0.20459	31.2	13111	100
2025-3-27 18:30:12.398	WT901BLE68-01(48591DE3C19B)	-0.386	-1.474	0.214	41.199	84.961	-299.622	-85.20	8.93	-31.42	-62.132	-19.404	73.598	0.73306	-0.50705	0.40445	0.20459	31.2	13111	100
2025-3-27 18:30:12.398	WT901BLE68-01(48591DE3C19B)	-0.445	-1.474	0.214	41.199	84.961	-299.622	-84.93	6.03	-32.59	-67.620	-19.306	71.834	0.73306	-0.50705	0.40445	0.20459	31.2	13111	100
2025-3-27 18:30:12.398	WT901BLE68-01(48591DE3C19B)	-0.445	-1.459	0.211	49.500	91.614	-292.786	-84.52	3.24	-33.83	-67.620	-19.306	71.834	0.73306	-0.50705	0.40445	0.20459	31.2	13111	100
2025-3-27 18:30:12.398	WT901BLE68-01(48591DE3C19B)	-0.463	-1.459	0.211	49.500	91.614	-292.786	-84.05	0.48	-35.07	-67.620	-19.306	71.834	0.73306	-0.50705	0.40445	0.20459	31.2	13111	100
2025-3-27 18:30:12.426	WT901BLE68-01(48591DE3C19B)	-0.463	-1.359	0.208	55.664	93.628	-279.175	-83.47	-2.11	-36.34	-67.620	-19.306	71.834	0.73306	-0.50705	0.40445	0.20459	31.2	13111	100
2025-3-27 18:30:12.426	WT901BLE68-01(48591DE3C19B)	-0.453	-1.359	0.208	55.664	93.628	-279.175	-82.83	-4.67	-37.64	-67.620	-19.306	71.834	0.73306	-0.50705	0.40445	0.20459	31.2	13111	100
2025-3-27 18:30:12.427	WT901BLE68-01(48591DE3C19B)	-0.453	-1.229	0.166	58.105	98.328	-260.803	-82.12	-7.01	-38.98	-67.620	-19.306	71.834	0.73306	-0.50705	0.40445	0.20459	31.2	13111	100
2025-3-27 18:30:12.427	WT901BLE68-01(48591DE3C19B)	-0.461	-1.229	0.166	58.105	98.328	-260.803	-81.34	-9.31	-40.36	-67.620	-19.306	71.834	0.73306	-0.50705	0.40445	0.20459	31.2	13111	100
2025-3-27 18:30:12.488	WT901BLE68-01(48591DE3C19B)	-0.461	-1.087	0.110	59.265	108.276	-238.892	-80.50	-11.35	-41.83	-67.620	-19.306	71.834	0.73306	-0.50705	0.40445	0.20459	31.2	13111	100
2025-3-27 18:30:12.488	WT901BLE68-01(48591DE3C19B)	-0.501	-1.087	0.110	59.265	108.276	-238.892	-79.60	-13.35	-43.34	-67.620	-19.306	71.834	0.73306	-0.50705	0.40445	0.20459	31.2	13111	100
2025-3-27 18:30:12.488	WT901BLE68-01(48591DE3C19B)	-0.501	-0.919	0.101	59.631	110.962	-213.989	-78.65	-15.06	-44.86	-67.620	-19.306	71.834	0.73306	-0.50705	0.40445	0.20459	31.2	13111	100
2025-3-27 18:30:12.488	WT901BLE68-01(48591DE3C19B)	-0.519	-0.919	0.101	59.631	110.962	-213.989	-77.66	-16.73	-46.41	-67.620	-19.306	71.834	0.73306	-0.50705	0.40445	0.20459	31.2	13111	100
2025-3-27 18:30:12.516	WT901BLE68-01(48591DE3C19B)	-0.519	-0.777	0.112	56.763	107.117	-187.866	-76.68	-18.11	-47.89	-67.620	-19.306	71.834	0.73306	-0.50705	0.40445	0.20459	31.2	13111	100
2025-3-27 18:30:12.517	WT901BLE68-01(48591DE3C19B)	-0.510	-0.777	0.112	56.763	107.117	-187.866	-75.66	-19.45	-49.41	-67.620	-19.306	71.834	0.73306	-0.50705	0.40445	0.20459	31.2	13111	100
2025-3-27 18:30:12.517	WT901BLE68-01(48591DE3C19B)	-0.510	-0.717	0.110	53.040	104.736	-159.546	-74.69	-20.49	-50.85	-67.620	-19.306	71.834	0.73306	-0.50705	0.40445	0.20459	31.2	13111	100
2025-3-27 18:30:12.517	WT901BLE68-01(48591DE3C19B)	-0.482	-0.717	0.110	53.040	104.736	-159.546	-73.68	-21.49	-52.31	-67.620	-19.306	71.834	0.73306	-0.50705	0.40445	0.20459	31.2	13111	100
2025-3-27 18:30:12.549	WT901BLE68-01(48591DE3C19B)	-0.482	-0.725	0.099	49.683	104.553	-132.080	-72.72	-22.20	-53.70	-67.620	-19.306	71.834	0.73306	-0.50705	0.40445	0.20459	31.2	13111	100
2025-3-27 18:30:12.549	WT901BLE68-01(48591DE3C19B)	-0.510	-0.725	0.099	49.683	104.553	-132.080	-71.74	-22.88	-55.10	-67.620	-19.306	71.834	0.73306	-0.50705	0.40445	0.20459	31.2	13111	100
2025-3-27 18:30:12.549	WT901BLE68-01(48591DE3C19B)	-0.510	-0.777	0.101	46.997	97.839	-106.262	-70.85	-23.31	-56.35	-67.620	-19.306	71.834	0.73306	-0.50705	0.40445	0.20459	31.2	13111	100
2025-3-27 18:30:12.549	WT901BLE68-01(48591DE3C19B)	-0.611	-0.777	0.101	46.997	97.839	-106.262	-69.94	-23.72	-57.61	-67.620	-19.306	71.834	0.73306	-0.50705	0.40445	0.20459	31.2	13111	100
2025-3-27 18:30:12.608	WT901BLE68-01(48591DE3C19B)	-0.611	-0.889	0.123	45.227	80.078	-84.412	-69.16	-23.96	-58.60	-67.620	-19.306	71.834	0.73306	-0.50705	0.40445	0.20459	31.2	13111	100
2025-3-27 18:30:12.608	WT901BLE68-01(48591DE3C19B)	-0.724	-0.889	0.123	45.227	80.078	-84.412	-68.38	-24.18	-59.60	-67.620	-19.306	71.834	0.64319	-0.56104	0.12241	-0.50641	31.2	13111	100
2025-3-27 18:30:12.608	WT901BLE68-01(48591DE3C19B)	-0.756	-1.048	0.157	43.213	52.002	-67.261	-67.76	-24.33	-60.23	-67.620	-19.306	71.834	0.64319	-0.56104	0.12241	-0.50641	31.2	13111	100
2025-3-27 18:30:12.608	WT901BLE68-01(48591DE3C19B)	-0.756	-1.246	0.151	40.466	28.259	-53.650	-67.23	-24.45	-60.72	-67.620	-19.306	71.834	0.64319	-0.56104	0.12241	-0.50641	31.2	13111	100
2025-3-27 18:30:12.637	WT901BLE68-01(48591DE3C19B)	-0.750	-1.246	0.151	40.466	28.259	-53.650	-66.77	-24.55	-61.05	-67.620	-19.306	71.834	0.64319	-0.56104	0.12241	-0.50641	31.2	13111	100
2025-3-27 18:30:12.637	WT901BLE68-01(48591DE3C19B)	-0.750	-1.376	0.130	35.461	15.259	-40.710	-66.38	-24.61	-61.29	-67.620	-19.306	71.834	0.64319	-0.56104	0.12241	-0.50641	31.2	13111	100
2025-3-27 18:30:12.637	WT901BLE68-01(48591DE3C19B)	-0.719	-1.376	0.130	35.461	15.259	-40.710	-66.06	-24.64	-61.45	-67.620	-19.306	71.834	0.64319	-0.56104	0.12241	-0.50641	31.2	13111	100
2025-3-27 18:30:12.637	WT901BLE68-01(48591DE3C19B)	-0.719	-1.461	0.146	19.470	9.155	-23.743	-65.84	-24.60	-61.53	-67.620	-19.306	71.834	0.64319	-0.56104	0.12241	-0.50641	31.2	13111	100
2025-3-27 18:30:12.666	WT901BLE68-01(48591DE3C19B)	-0.665	-1.461	0.146	19.470	9.155	-23.743	-65.73	-24.50	-61.55	-67.620	-19.306	71.834	0.64319	-0.56104	0.12241	-0.50641	31.2	13111	100
2025-3-27 18:30:12.666	WT901BLE68-01(48591DE3C19B)	-0.665	-1.526	0.200	-1.526	13.184	-0.977	-65.75	-24.29	-61.53	-67.620	-19.306	71.834	0.64319	-0.56104	0.12241	-0.50641	31.2	13111	100
2025-3-27 18:30:12.666	WT901BLE68-01(48591DE3C19B)	-0.667	-1.526	0.200	-1.526	13.184	-0.977	-65.87	-23.97	-61.49	-67.620	-19.306	71.834	0.64319	-0.56104	0.12241	-0.50641	31.2	13111	100
2025-3-27 18:30:12.666	WT901BLE68-01(48591DE3C19B)	-0.667	-1.521	0.310	-22.888	18.738	28.870	-66.12	-23.51	-61.42	-67.620	-19.306	71.834	0.64319	-0.56104	0.12241	-0.50641	31.2	13111	100
2025-3-27 18:30:12.730	WT901BLE68-01(48591DE3C19B)	-0.690	-1.521	0.310	-22.888	18.738	28.870	-66.47	-22.90	-61.32	-67.620	-19.306	71.834	0.64319	-0.56104	0.12241	-0.50641	31.2	13111	100
2025-3-27 18:30:12.730	WT901BLE68-01(48591DE3C19B)	-0.690	-1.458	0.373	-43.762	10.315	61.401	-66.97	-22.16	-61.12	-67.620	-19.306	71.834	0.64319	-0.56104	0.12241	-0.50641	31.2	13111	100
2025-3-27 18:30:12.730	WT901BLE68-01(48591DE3C19B)	-0.660	-1.458	0.373	-43.762	10.315	61.401	-67.60	-21.30	-60.81	-67.620	-19.306	71.834	0.64319	-0.56104	0.12241	-0.50641	31.2	13111	100
2025-3-27 18:30:12.730	WT901BLE68-01(48591DE3C19B)	-0.660	-1.411	0.350	-60.730	-11.108	92.102	-68.35	-20.33	-60.37	-67.620	-19.306	71.834	0.64319	-0.56104	0.12241	-0.50641	31.2	13111	100
2025-3-27 18:30:12.788	WT901BLE68-01(48591DE3C19B)	-0.665	-1.411	0.350	-60.730	-11.108	92.102	-69.22	-19.26	-59.78	-67.620	-19.306	71.834	0.64319	-0.56104	0.12241	-0.50641	31.2	13111	100
2025-3-27 18:30:12.788	WT901BLE68-01(48591DE3C19B)	-0.665	-1.328	0.252	-70.557	-41.931	122.681	-70.19	-18.10	-59.01	-67.620	-19.306	71.834	0.64319	-0.56104	0.12241	-0.50641	31.2	13111	100
2025-3-27 18:30:12.788	WT901BLE68-01(48591DE3C19B)	-0.677	-1.328	0.252	-70.557	-41.931	122.681	-71.24	-16.84	-58.06	-67.620	-19.306	71.834	0.64319	-0.56104	0.12241	-0.50641	31.2	13111	100
2025-3-27 18:30:12.788	WT901BLE68-01(48591DE3C19B)	-0.677	-1.237	0.146	-76.355	-76.843	153.809	-72.33	-15.47	-56.93	-67.620	-19.306	71.834	0.64319	-0.56104	0.12241	-0.50641	31.2	13111	100
2025-3-27 18:30:12.789	WT901BLE68-01(48591DE3C19B)	-0.625	-1.237	0.146	-76.355	-76.843	153.809	-73.48	-13.99	-55.61	-67.620	-19.306	71.834	0.64319	-0.56104	0.12241	-0.50641	31.2	13111	100
2025-3-27 18:30:12.789	WT901BLE68-01(48591DE3C19B)	-0.625	-1.176	0.077	-79.590	-111.938	187.134	-74.64	-12.39	-54.13	-67.620	-19.306	71.834	0.64319	-0.56104	0.12241	-0.50641	31.2	13111	100
2025-3-27 18:30:12.789	WT901BLE68-01(48591DE3C19B)	-0.521	-1.176	0.077	-79.590	-111.938	187.134	-75.81	-10.65	-52.47	-82.124	-24.402	64.778	0.64319	-0.56104	0.12241	-0.50641	31.2	13111	100
2025-3-27 18:30:12.790	WT901BLE68-01(48591DE3C19B)	-0.521	-1.235	0.025	-82.581	-141.907	220.459	-76.95	-8.76	-50.68	-82.124	-24.402	64.778	0.64319	-0.56104	0.12241	-0.50641	31.2	13111	100
2025-3-27 18:30:12.847	WT901BLE68-01(48591DE3C19B)	-0.412	-1.235	0.025	-82.581	-141.907	220.459	-78.07	-6.71	-48.76	-82.124	-24.402	64.778	0.64319	-0.56104	0.12241	-0.50641	31.2	13111	100
2025-3-27 18:30:12.847	WT901BLE68-01(48591DE3C19B)	-0.412	-1.432	0.014	-77.271	-160.828	250.122	-79.09	-4.52	-46.77	-82.124	-24.402	64.778	0.64319	-0.56104	0.12241	-0.50641	31.2	13111	100
2025-3-27 18:30:12.847	WT901BLE68-01(48591DE3C19B)	-0.309	-1.432	0.014	-77.271	-160.828	250.122	-80.01	-2.19	-44.73	-82.124	-24.402	64.778	0.64319	-0.56104	0.12241	-0.50641	31.2	13111	100
2025-3-27 18:30:12.847	WT901BLE68-01(48591DE3C19B)	-0.309	-1.596	0.017	-61.401	-166.931	272.583	-80.76	0.25	-42.68	-82.124	-24.402	64.778	0.64319	-0.56104	0.12241	-0.50641	31.2	13111	100
2025-3-27 18:30:12.908	WT901BLE68-01(48591DE3C19B)	-0.183	-1.596	0.017	-61.401	-166.931	272.583	-81.33	2.81	-40.62	-82.124	-24.402	64.778	0.64319	-0.56104	0.12241	-0.50641	31.2	13111	100
2025-3-27 18:30:12.908	WT901BLE68-01(48591DE3C19B)	-0.183	-1.683	0.037	-41.260	-159.485	287.598	-81.72	5.43	-38.62	-82.124	-24.402	64.778	0.64319	-0.56104	0.12241	-0.50641	31.2	13111	100
2025-3-27 18:30:12.908	WT901BLE68-01(48591DE3C19B)	-0.131	-1.683	0.037	-41.260	-159.485	287.598	-81.91	8.12	-36.66	-82.124	-24.402	64.778	0.64319	-0.56104	0.12241	-0.50641	31.2	13111	100
2025-3-27 18:30:12.908	WT901BLE68-01(48591DE3C19B)	-0.131	-1.663	0.078	-20.752	-138.123	293.579	-81.93	10.84	-34.82	-82.124	-24.402	64.778	0.64319	-0.56104	0.12241	-0.50641	31.2	13111	100
2025-3-27 18:30:12.908	WT901BLE68-01(48591DE3C19B)	-0.153	-1.663	0.078	-20.752	-138.123	293.579	-81.78	13.58	-33.06	-82.124	-24.402	64.778	0.64319	-0.56104	0.12241	-0.50641	31.2	13111	100
2025-3-27 18:30:12.908	WT901BLE68-01(48591DE3C19B)	-0.153	-1.614	0.106	-7.263	-112.122	290.894	-81.50	16.29	-31.42	-82.124	-24.402	64.778	0.64319	-0.56104	0.12241	-0.50641	31.2	13111	100
2025-3-27 18:30:12.908	WT901BLE68-01(48591DE3C19B)	-0.176	-1.614	0.106	-7.263	-112.122	290.894	-81.12	18.97	-29.88	-82.124	-24.402	64.778	0.64319	-0.56104	0.12241	-0.50641	31.2	13111	100
2025-3-27 18:30:12.908	WT901BLE68-01(48591DE3C19B)	-0.176	-1.559	0.101	3.418	-82.336	283.569	-80.65	21.62	-28.48	-82.124	-24.402	64.778	0.64319	-0.56104	0.12241	-0.50641	31.2	13111	100
2025-3-27 18:30:12.967	WT901BLE68-01(48591DE3C19B)	-0.185	-1.559	0.101	3.418	-82.336	283.569	-80.12	24.21	-27.19	-82.124	-24.402	64.778	0.64319	-0.56104	0.12241	-0.50641	31.2	13111	100
2025-3-27 18:30:12.967	WT901BLE68-01(48591DE3C19B)	-0.185	-1.426	0.105	9.583	-49.255	276.672	-79.57	26.78	-26.04	-82.124	-24.402	64.778	0.64319	-0.56104	0.12241	-0.50641	31.2	13111	100
2025-3-27 18:30:12.967	WT901BLE68-01(48591DE3C19B)	-0.175	-1.426	0.105	9.583	-49.255	276.672	-79.00	29.31	-25.04	-82.124	-24.402	64.778	0.64319	-0.56104	0.12241	-0.50641	31.2	13111	100
2025-3-27 18:30:12.967	WT901BLE68-01(48591DE3C19B)	-0.175	-1.301	0.079	10.986	-18.250	271.423	-78.46	31.82	-24.16	-82.124	-24.402	64.778	0.64319	-0.56104	0.12241	-0.50641	31.2	13111	100
2025-3-27 18:30:12.997	WT901BLE68-01(48591DE3C19B)	-0.161	-1.301	0.079	10.986	-18.250	271.423	-77.95	34.32	-23.43	-82.124	-24.402	64.778	0.64319	-0.56104	0.12241	-0.50641	31.2	13111	100
2025-3-27 18:30:12.997	WT901BLE68-01(48591DE3C19B)	-0.161	-1.164	0.059	9.155	1.099	268.311	-77.48	36.79	-22.77	-82.124	-24.402	64.778	0.64319	-0.56104	0.12241	-0.50641	31.2	13111	100
2025-3-27 18:30:12.997	WT901BLE68-01(48591DE3C19B)	-0.157	-1.164	0.059	9.155	1.099	268.311	-77.03	39.25	-22.19	-82.124	-24.402	64.778	0.64319	-0.56104	0.12241	-0.50641	31.2	13111	100
2025-3-27 18:30:12.997	WT901BLE68-01(48591DE3C19B)	-0.157	-1.103	0.045	2.441	9.216	265.442	-76.60	41.69	-21.61	-82.124	-24.402	64.778	0.76056	-0.51242	0.38898	0.08688	31.2	13111	100
2025-3-27 18:30:13.27	WT901BLE68-01(48591DE3C19B)	-0.172	-1.103	0.045	2.441	9.216	265.442	-76.20	44.11	-21.05	-82.124	-24.402	64.778	0.76056	-0.51242	0.38898	0.08688	31.2	13111	100
2025-3-27 18:30:13.27	WT901BLE68-01(48591DE3C19B)	-0.172	-1.156	0.013	-4.761	8.850	260.925	-75.79	46.49	-20.45	-82.124	-24.402	64.778	0.76056	-0.51242	0.38898	0.08688	31.2	13111	100
2025-3-27 18:30:13.27	WT901BLE68-01(48591DE3C19B)	-0.151	-1.156	0.013	-4.761	8.850	260.925	-75.36	48.82	-19.80	-82.124	-24.402	64.778	0.76056	-0.51242	0.38898	0.08688	31.2	13111	100
2025-3-27 18:30:13.27	WT901BLE68-01(48591DE3C19B)	-0.151	-1.204	0.009	-8.240	2.441	251.282	-74.87	51.09	-19.06	-82.124	-24.402	64.778	0.76056	-0.51242	0.38898	0.08688	31.2	13111	100
2025-3-27 18:30:13.88	WT901BLE68-01(48591DE3C19B)	-0.165	-1.204	0.009	-8.240	2.441	251.282	-74.30	53.28	-18.22	-82.124	-24.402	64.778	0.76056	-0.51242	0.38898	0.08688	31.2	13111	100
2025-3-27 18:30:13.88	WT901BLE68-01(48591DE3C19B)	-0.165	-1.278	-0.003	-11.597	-6.592	236.694	-73.61	55.29	-17.23	-82.124	-24.402	64.778	0.76056	-0.51242	0.38898	0.08688	31.2	13111	100
2025-3-27 18:30:13.88	WT901BLE68-01(48591DE3C19B)	-0.129	-1.278	-0.003	-11.597	-6.592	236.694	-72.83	57.28	-16.13	-82.124	-24.402	64.778	0.76056	-0.51242	0.38898	0.08688	31.2	13111	100
2025-3-27 18:30:13.88	WT901BLE68-01(48591DE3C19B)	-0.129	-1.400	-0.013	-13.428	-18.433	210.815	-71.91	58.96	-14.86	-82.124	-24.402	64.778	0.76056	-0.51242	0.38898	0.08688	31.2	13111	100
2025-3-27 18:30:13.149	WT901BLE68-01(48591DE3C19B)	0.028	-1.400	-0.013	-13.428	-18.433	210.815	-70.86	60.62	-13.48	-82.124	-24.402	64.778	0.76056	-0.51242	0.38898	0.08688	31.2	13111	100
2025-3-27 18:30:13.149	WT901BLE68-01(48591DE3C19B)	0.028	-1.525	-0.053	-9.155	-24.658	175.842	-69.76	61.91	-12.10	-82.124	-24.402	64.778	0.76056	-0.51242	0.38898	0.08688	31.2	13111	100
2025-3-27 18:30:13.149	WT901BLE68-01(48591DE3C19B)	0.222	-1.525	-0.053	-9.155	-24.658	175.842	-68.55	63.17	-10.61	-82.124	-24.402	64.778	0.76056	-0.51242	0.38898	0.08688	31.2	13111	100
2025-3-27 18:30:13.149	WT901BLE68-01(48591DE3C19B)	0.222	-1.588	-0.081	-0.549	-18.433	132.874	-67.61	64.03	-9.51	-82.124	-24.402	64.778	0.76056	-0.51242	0.38898	0.08688	31.2	13111	100
2025-3-27 18:30:13.149	WT901BLE68-01(48591DE3C19B)	0.275	-1.588	-0.081	-0.549	-18.433	132.874	-66.60	64.87	-8.36	-82.124	-24.402	64.778	0.76056	-0.51242	0.38898	0.08688	31.2	13111	100
2025-3-27 18:30:13.149	WT901BLE68-01(48591DE3C19B)	0.275	-1.557	-0.042	-3.479	-12.817	79.529	-66.15	65.24	-7.78	-82.124	-24.402	64.778	0.76056	-0.51242	0.38898	0.08688	31.2	13111	100
2025-3-27 18:30:13.150	WT901BLE68-01(48591DE3C19B)	0.146	-1.557	-0.042	-3.479	-12.817	79.529	-65.70	65.58	-7.20	-82.124	-24.402	64.778	0.76056	-0.51242	0.38898	0.08688	31.2	13111	100
2025-3-27 18:30:13.150	WT901BLE68-01(48591DE3C19B)	0.146	-1.518	0.079	-13.977	-15.747	15.076	-65.86	65.32	-7.19	-82.124	-24.402	64.778	0.76056	-0.51242	0.38898	0.08688	31.2	13111	100
2025-3-27 18:30:13.208	WT901BLE68-01(48591DE3C19B)	-0.087	-1.518	0.079	-13.977	-15.747	15.076	-66.02	65.07	-7.16	-82.124	-24.402	64.778	0.76056	-0.51242	0.38898	0.08688	31.2	13111	100
2025-3-27 18:30:13.208	WT901BLE68-01(48591DE3C19B)	-0.087	-1.584	0.247	-18.127	-17.822	-48.706	-66.71	64.22	-7.68	-40.670	-4.998	67.326	0.76056	-0.51242	0.38898	0.08688	31.2	13111	100
2025-3-27 18:30:13.208	WT901BLE68-01(48591DE3C19B)	-0.173	-1.584	0.247	-18.127	-17.822	-48.706	-67.34	63.37	-8.15	-40.670	-4.998	67.326	0.76056	-0.51242	0.38898	0.08688	31.2	13111	100
2025-3-27 18:30:13.208	WT901BLE68-01(48591DE3C19B)	-0.173	-1.537	0.315	-18.799	-31.555	-103.882	-68.09	61.97	-8.75	-40.670	-4.998	67.326	0.76056	-0.51242	0.38898	0.08688	31.2	13111	100
2025-3-27 18:30:13.237	WT901BLE68-01(48591DE3C19B)	-0.074	-1.537	0.315	-18.799	-31.555	-103.882	-68.76	60.57	-9.27	-40.670	-4.998	67.326	0.76056	-0.51242	0.38898	0.08688	31.2	13111	100
2025-3-27 18:30:13.238	WT901BLE68-01(48591DE3C19B)	-0.074	-1.339	0.250	-15.869	-40.466	-149.353	-69.47	58.73	-9.88	-40.670	-4.998	67.326	0.76056	-0.51242	0.38898	0.08688	31.2	13111	100
2025-3-27 18:30:13.238	WT901BLE68-01(48591DE3C19B)	0.074	-1.339	0.250	-15.869	-40.466	-149.353	-70.09	56.89	-10.42	-40.670	-4.998	67.326	0.76056	-0.51242	0.38898	0.08688	31.2	13111	100
2025-3-27 18:30:13.238	WT901BLE68-01(48591DE3C19B)	0.074	-1.124	0.143	-20.020	-32.776	-182.983	-70.97	54.76	-11.21	-40.670	-4.998	67.326	0.76056	-0.51242	0.38898	0.08688	31.2	13111	100
2025-3-27 18:30:13.266	WT901BLE68-01(48591DE3C19B)	0.176	-1.124	0.143	-20.020	-32.776	-182.983	-71.75	52.64	-11.91	-40.670	-4.998	67.326	0.76056	-0.51242	0.38898	0.08688	31.2	13111	100
2025-3-27 18:30:13.266	WT901BLE68-01(48591DE3C19B)	0.176	-1.097	0.100	-26.367	-11.292	-203.735	-72.84	50.38	-12.95	-40.670	-4.998	67.326	0.76056	-0.51242	0.38898	0.08688	31.2	13111	100
2025-3-27 18:30:13.266	WT901BLE68-01(48591DE3C19B)	0.110	-1.097	0.100	-26.367	-11.292	-203.735	-73.82	48.13	-13.88	-40.670	-4.998	67.326	0.76056	-0.51242	0.38898	0.08688	31.2	13111	100
2025-3-27 18:30:13.266	WT901BLE68-01(48591DE3C19B)	0.110	-1.180	0.158	-25.757	23.865	-220.642	-75.10	45.80	-15.26	-40.670	-4.998	67.326	0.76056	-0.51242	0.38898	0.08688	31.2	13111	100
2025-3-27 18:30:13.328	WT901BLE68-01(48591DE3C19B)	-0.036	-1.180	0.158	-25.757	23.865	-220.642	-76.25	43.47	-16.51	-40.670	-4.998	67.326	0.76056	-0.51242	0.38898	0.08688	31.2	13111	100
2025-3-27 18:30:13.328	WT901BLE68-01(48591DE3C19B)	-0.036	-1.224	0.245	-19.775	58.838	-238.037	-77.55	41.04	-18.16	-40.670	-4.998	67.326	0.76056	-0.51242	0.38898	0.08688	31.2	13111	100
2025-3-27 18:30:13.328	WT901BLE68-01(48591DE3C19B)	-0.191	-1.224	0.245	-19.775	58.838	-238.037	-78.72	38.60	-19.68	-40.670	-4.998	67.326	0.76056	-0.51242	0.38898	0.08688	31.2	13111	100
2025-3-27 18:30:13.328	WT901BLE68-01(48591DE3C19B)	-0.191	-1.273	0.307	-10.925	81.848	-254.883	-79.86	36.04	-21.39	-40.670	-4.998	67.326	0.76056	-0.51242	0.38898	0.08688	31.2	13111	100
2025-3-27 18:30:13.364	WT901BLE68-01(48591DE3C19B)	-0.262	-1.273	0.307	-10.925	81.848	-254.883	-80.86	33.46	-22.99	-40.670	-4.998	67.326	0.76056	-0.51242	0.38898	0.08688	31.2	13111	100
2025-3-27 18:30:13.364	WT901BLE68-01(48591DE3C19B)	-0.262	-1.290	0.338	1.648	94.666	-268.616	-81.72	30.77	-24.66	-40.670	-4.998	67.326	0.76056	-0.51242	0.38898	0.08688	31.2	13111	100
2025-3-27 18:30:13.364	WT901BLE68-01(48591DE3C19B)	-0.286	-1.290	0.338	1.648	94.666	-268.616	-82.45	28.09	-26.24	-40.670	-4.998	67.326	0.76056	-0.51242	0.38898	0.08688	31.2	13111	100
2025-3-27 18:30:13.364	WT901BLE68-01(48591DE3C19B)	-0.286	-1.283	0.329	14.221	111.450	-280.396	-83.04	25.31	-27.93	-40.670	-4.998	67.326	0.76056	-0.51242	0.38898	0.08688	31.2	13111	100
2025-3-27 18:30:13.390	WT901BLE68-01(48591DE3C19B)	-0.352	-1.283	0.329	14.221	111.450	-280.396	-83.52	22.54	-29.56	-40.670	-4.998	67.326	0.76056	-0.51242	0.38898	0.08688	31.2	13111	100
2025-3-27 18:30:13.390	WT901BLE68-01(48591DE3C19B)	-0.352	-1.354	0.274	28.503	127.930	-287.231	-83.83	19.74	-31.31	-40.670	-4.998	67.326	0.76056	-0.51242	0.38898	0.08688	31.2	13111	100
2025-3-27 18:30:13.390	WT901BLE68-01(48591DE3C19B)	-0.410	-1.354	0.274	28.503	127.930	-287.231	-84.05	16.95	-33.02	-40.670	-4.998	67.326	0.73245	-0.60370	0.29309	-0.11420	31.2	13111	100
2025-3-27 18:30:13.390	WT901BLE68-01(48591DE3C19B)	-0.410	-1.410	0.203	45.166	133.850	-288.879	-84.03	14.17	-34.75	-40.670	-4.998	67.326	0.73245	-0.60370	0.29309	-0.11420	31.2	13111	100
2025-3-27 18:30:13.447	WT901BLE68-01(48591DE3C19B)	-0.462	-1.410	0.203	45.166	133.850	-288.879	-83.92	11.41	-36.46	-40.670	-4.998	67.326	0.73245	-0.60370	0.29309	-0.11420	31.2	13111	100
2025-3-27 18:30:13.447	WT901BLE68-01(48591DE3C19B)	-0.462	-1.406	0.159	59.082	131.287	-286.072	-83.60	8.71	-38.13	-40.670	-4.998	67.326	0.73245	-0.60370	0.29309	-0.11420	31.2	13111	100
2025-3-27 18:30:13.448	WT901BLE68-01(48591DE3C19B)	-0.509	-1.406	0.159	59.082	131.287	-286.072	-83.20	6.03	-39.80	-40.670	-4.998	67.326	0.73245	-0.60370	0.29309	-0.11420	31.2	13111	100
2025-3-27 18:30:13.448	WT901BLE68-01(48591DE3C19B)	-0.509	-1.373	0.139	69.519	121.338	-280.212	-82.62	3.44	-41.37	-40.670	-4.998	67.326	0.73245	-0.60370	0.29309	-0.11420	31.2	13111	100
2025-3-27 18:30:13.476	WT901BLE68-01(48591DE3C19B)	-0.550	-1.373	0.139	69.519	121.338	-280.212	-81.98	0.90	-42.96	-40.670	-4.998	67.326	0.73245	-0.60370	0.29309	-0.11420	31.2	13111	100
2025-3-27 18:30:13.476	WT901BLE68-01(48591DE3C19B)	-0.550	-1.300	0.119	76.538	106.445	-269.836	-81.21	-1.53	-44.41	-40.670	-4.998	67.326	0.73245	-0.60370	0.29309	-0.11420	31.2	13111	100
2025-3-27 18:30:13.477	WT901BLE68-01(48591DE3C19B)	-0.579	-1.300	0.119	76.538	106.445	-269.836	-80.38	-3.92	-45.90	-40.670	-4.998	67.326	0.73245	-0.60370	0.29309	-0.11420	31.2	13111	100
2025-3-27 18:30:13.477	WT901BLE68-01(48591DE3C19B)	-0.579	-1.177	0.131	80.505	88.257	-257.019	-79.47	-6.17	-47.21	-40.670	-4.998	67.326	0.73245	-0.60370	0.29309	-0.11420	31.2	13111	100
2025-3-27 18:30:13.569	WT901BLE68-01(48591DE3C19B)	-0.590	-1.177	0.131	80.505	88.257	-257.019	-78.51	-8.38	-48.56	-40.670	-4.998	67.326	0.73245	-0.60370	0.29309	-0.11420	31.2	13111	100
2025-3-27 18:30:13.569	WT901BLE68-01(48591DE3C19B)	-0.575	-1.053	0.176	79.895	67.627	-241.943	-77.55	-10.45	-49.72	-40.670	-4.998	67.326	0.73245	-0.60370	0.29309	-0.11420	31.2	13111	100
2025-3-27 18:30:13.569	WT901BLE68-01(48591DE3C19B)	-0.575	-0.975	0.196	76.416	52.795	-226.135	-76.58	-12.42	-50.82	-40.670	-4.998	67.326	0.73245	-0.60370	0.29309	-0.11420	31.2	13111	100
2025-3-27 18:30:13.569	WT901BLE68-01(48591DE3C19B)	-0.568	-0.975	0.196	76.416	52.795	-226.135	-75.61	-14.29	-51.87	-40.670	-4.998	67.326	0.73245	-0.60370	0.29309	-0.11420	31.2	13111	100
2025-3-27 18:30:13.570	WT901BLE68-01(48591DE3C19B)	-0.568	-0.939	0.200	73.730	46.692	-207.947	-74.63	-16.05	-52.89	-40.670	-4.998	67.326	0.73245	-0.60370	0.29309	-0.11420	31.2	13111	100
2025-3-27 18:30:13.570	WT901BLE68-01(48591DE3C19B)	-0.562	-0.939	0.200	73.730	46.692	-207.947	-73.64	-17.70	-53.90	-40.670	-4.998	67.326	0.73245	-0.60370	0.29309	-0.11420	31.2	13111	100
2025-3-27 18:30:13.570	WT901BLE68-01(48591DE3C19B)	-0.562	-0.929	0.182	71.716	43.945	-188.110	-72.64	-19.23	-54.90	-40.670	-4.998	67.326	0.73245	-0.60370	0.29309	-0.11420	31.2	13111	100
2025-3-27 18:30:13.570	WT901BLE68-01(48591DE3C19B)	-0.599	-0.929	0.182	71.716	43.945	-188.110	-71.64	-20.64	-55.88	-40.670	-4.998	67.326	0.73245	-0.60370	0.29309	-0.11420	31.2	13111	100
2025-3-27 18:30:13.628	WT901BLE68-01(48591DE3C19B)	-0.599	-0.956	0.162	69.397	42.419	-167.419	-70.64	-21.92	-56.85	-40.670	-4.998	67.326	0.73245	-0.60370	0.29309	-0.11420	31.2	13111	100
2025-3-27 18:30:13.628	WT901BLE68-01(48591DE3C19B)	-0.754	-0.956	0.162	69.397	42.419	-167.419	-69.64	-23.09	-57.81	-40.670	-4.998	67.326	0.73245	-0.60370	0.29309	-0.11420	31.2	13111	100
2025-3-27 18:30:13.628	WT901BLE68-01(48591DE3C19B)	-0.754	-1.062	0.178	62.988	27.283	-146.057	-68.69	-24.15	-58.67	-40.670	-4.998	67.326	0.73245	-0.60370	0.29309	-0.11420	31.2	13111	100
2025-3-27 18:30:13.628	WT901BLE68-01(48591DE3C19B)	-0.905	-1.062	0.178	62.988	27.283	-146.057	-67.82	-25.13	-59.43	-82.614	-17.150	61.838	0.73245	-0.60370	0.29309	-0.11420	31.2	13111	100
2025-3-27 18:30:13.629	WT901BLE68-01(48591DE3C19B)	-0.905	-1.272	0.202	54.077	1.709	-123.657	-67.04	-26.02	-60.02	-82.614	-17.150	61.838	0.73245	-0.60370	0.29309	-0.11420	31.2	13111	100
2025-3-27 18:30:13.629	WT901BLE68-01(48591DE3C19B)	-0.923	-1.272	0.202	54.077	1.709	-123.657	-66.39	-26.85	-60.45	-82.614	-17.150	61.838	0.73245	-0.60370	0.29309	-0.11420	31.2	13111	100
2025-3-27 18:30:13.629	WT901BLE68-01(48591DE3C19B)	-0.923	-1.448	0.172	45.227	-17.761	-98.511	-65.85	-27.59	-60.73	-82.614	-17.150	61.838	0.73245	-0.60370	0.29309	-0.11420	31.2	13111	100
2025-3-27 18:30:13.629	WT901BLE68-01(48591DE3C19B)	-0.856	-1.448	0.172	45.227	-17.761	-98.511	-65.42	-28.25	-60.86	-82.614	-17.150	61.838	0.73245	-0.60370	0.29309	-0.11420	31.2	13111	100
2025-3-27 18:30:13.688	WT901BLE68-01(48591DE3C19B)	-0.856	-1.544	0.152	32.227	-20.752	-62.073	-65.10	-28.74	-60.89	-82.614	-17.150	61.838	0.73245	-0.60370	0.29309	-0.11420	31.2	13111	100
2025-3-27 18:30:13.688	WT901BLE68-01(48591DE3C19B)	-0.740	-1.544	0.152	32.227	-20.752	-62.073	-64.90	-29.08	-60.81	-82.614	-17.150	61.838	0.73245	-0.60370	0.29309	-0.11420	31.2	13111	100
2025-3-27 18:30:13.688	WT901BLE68-01(48591DE3C19B)	-0.740	-1.430	0.209	13.916	-4.333	-25.085	-64.80	-29.20	-60.74	-82.614	-17.150	61.838	0.73245	-0.60370	0.29309	-0.11420	31.2	13111	100
2025-3-27 18:30:13.688	WT901BLE68-01(48591DE3C19B)	-0.692	-1.430	0.209	13.916	-4.333	-25.085	-64.78	-29.14	-60.66	-82.614	-17.150	61.838	0.73245	-0.60370	0.29309	-0.11420	31.2	13111	100
2025-3-27 18:30:13.716	WT901BLE68-01(48591DE3C19B)	-0.692	-1.304	0.308	-11.597	20.691	20.020	-64.89	-28.81	-60.61	-82.614	-17.150	61.838	0.73245	-0.60370	0.29309	-0.11420	31.2	13111	100
2025-3-27 18:30:13.717	WT901BLE68-01(48591DE3C19B)	-0.739	-1.304	0.308	-11.597	20.691	20.020	-65.10	-28.22	-60.58	-82.614	-17.150	61.838	0.73245	-0.60370	0.29309	-0.11420	31.2	13111	100
2025-3-27 18:30:13.717	WT901BLE68-01(48591DE3C19B)	-0.739	-1.199	0.367	-33.875	22.949	62.988	-65.46	-27.45	-60.46	-82.614	-17.150	61.838	0.73245	-0.60370	0.29309	-0.11420	31.2	13111	100
2025-3-27 18:30:13.717	WT901BLE68-01(48591DE3C19B)	-0.781	-1.199	0.367	-33.875	22.949	62.988	-65.96	-26.47	-60.27	-82.614	-17.150	61.838	0.73245	-0.60370	0.29309	-0.11420	31.2	13111	100
2025-3-27 18:30:13.777	WT901BLE68-01(48591DE3C19B)	-0.781	-1.145	0.333	-50.415	-0.793	97.778	-66.62	-25.39	-59.90	-82.614	-17.150	61.838	0.73245	-0.60370	0.29309	-0.11420	31.2	13111	100
2025-3-27 18:30:13.777	WT901BLE68-01(48591DE3C19B)	-0.803	-1.145	0.333	-50.415	-0.793	97.778	-67.42	-24.19	-59.35	-82.614	-17.150	61.838	0.73245	-0.60370	0.29309	-0.11420	31.2	13111	100
2025-3-27 18:30:13.778	WT901BLE68-01(48591DE3C19B)	-0.803	-1.091	0.233	-59.937	-36.682	127.441	-68.33	-22.92	-58.59	-82.614	-17.150	61.838	0.73245	-0.60370	0.29309	-0.11420	31.2	13111	100
2025-3-27 18:30:13.778	WT901BLE68-01(48591DE3C19B)	-0.771	-1.091	0.233	-59.937	-36.682	127.441	-69.36	-21.57	-57.62	-82.614	-17.150	61.838	0.73245	-0.60370	0.29309	-0.11420	31.2	13111	100
2025-3-27 18:30:13.807	WT901BLE68-01(48591DE3C19B)	-0.771	-1.093	0.122	-65.857	-75.623	156.921	-70.46	-20.13	-56.44	-82.614	-17.150	61.838	0.73245	-0.60370	0.29309	-0.11420	31.2	13111	100
2025-3-27 18:30:13.807	WT901BLE68-01(48591DE3C19B)	-0.676	-1.093	0.122	-65.857	-75.623	156.921	-71.62	-18.61	-55.06	-82.614	-17.150	61.838	0.73245	-0.60370	0.29309	-0.11420	31.2	13111	100
2025-3-27 18:30:13.807	WT901BLE68-01(48591DE3C19B)	-0.676	-1.113	0.068	-65.552	-107.910	189.514	-72.80	-16.96	-53.51	-82.614	-17.150	61.838	0.73245	-0.60370	0.29309	-0.11420	31.2	13111	100
2025-3-27 18:30:13.807	WT901BLE68-01(48591DE3C19B)	-0.543	-1.113	0.068	-65.552	-107.910	189.514	-73.97	-15.18	-51.81	-82.614	-17.150	61.838	0.73245	-0.60370	0.29309	-0.11420	31.2	13111	100
2025-3-27 18:30:13.839	WT901BLE68-01(48591DE3C19B)	-0.543	-1.195	0.033	-64.819	-131.775	220.398	-75.10	-13.26	-50.01	-82.614	-17.150	61.838	0.68393	-0.58731	0.17291	-0.39664	31.2	13111	100
2025-3-27 18:30:13.840	WT901BLE68-01(48591DE3C19B)	-0.390	-1.195	0.033	-64.819	-131.775	220.398	-76.18	-11.20	-48.11	-82.614	-17.150	61.838	0.68393	-0.58731	0.17291	-0.39664	31.2	13111	100
2025-3-27 18:30:13.840	WT901BLE68-01(48591DE3C19B)	-0.390	-1.332	0.027	-57.617	-142.761	247.253	-77.17	-9.01	-46.19	-82.614	-17.150	61.838	0.68393	-0.58731	0.17291	-0.39664	31.2	13111	100
2025-3-27 18:30:13.840	WT901BLE68-01(48591DE3C19B)	-0.302	-1.332	0.027	-57.617	-142.761	247.253	-78.04	-6.69	-44.24	-82.614	-17.150	61.838	0.68393	-0.58731	0.17291	-0.39664	31.2	13111	100
2025-3-27 18:30:13.898	WT901BLE68-01(48591DE3C19B)	-0.302	-1.456	0.070	-45.898	-146.118	267.944	-78.77	-4.26	-42.31	-82.614	-17.150	61.838	0.68393	-0.58731	0.17291	-0.39664	31.2	13111	100
2025-3-27 18:30:13.898	WT901BLE68-01(48591DE3C19B)	-0.257	-1.456	0.070	-45.898	-146.118	267.944	-79.35	-1.74	-40.39	-82.614	-17.150	61.838	0.68393	-0.58731	0.17291	-0.39664	31.2	13111	100
2025-3-27 18:30:13.898	WT901BLE68-01(48591DE3C19B)	-0.257	-1.624	0.137	-34.241	-141.846	282.410	-79.79	0.85	-38.51	-82.614	-17.150	61.838	0.68393	-0.58731	0.17291	-0.39664	31.2	13111	100
2025-3-27 18:30:13.898	WT901BLE68-01(48591DE3C19B)	-0.195	-1.624	0.137	-34.241	-141.846	282.410	-80.07	3.50	-36.67	-82.614	-17.150	61.838	0.68393	-0.58731	0.17291	-0.39664	31.2	13111	100
2025-3-27 18:30:13.926	WT901BLE68-01(48591DE3C19B)	-0.195	-1.815	0.121	-16.907	-121.155	290.405	-80.19	6.19	-34.94	-82.614	-17.150	61.838	0.68393	-0.58731	0.17291	-0.39664	31.2	13111	100
2025-3-27 18:30:13.927	WT901BLE68-01(48591DE3C19B)	-0.145	-1.815	0.121	-16.907	-121.155	290.405	-80.16	8.91	-33.31	-82.614	-17.150	61.838	0.68393	-0.58731	0.17291	-0.39664	31.2	13111	100
2025-3-27 18:30:13.927	WT901BLE68-01(48591DE3C19B)	-0.145	-1.774	0.099	1.404	-84.900	294.922	-79.99	11.66	-31.84	-82.614	-17.150	61.838	0.68393	-0.58731	0.17291	-0.39664	31.2	13111	100
2025-3-27 18:30:13.927	WT901BLE68-01(48591DE3C19B)	-0.154	-1.774	0.099	1.404	-84.900	294.922	-79.69	14.43	-30.54	-82.614	-17.150	61.838	0.68393	-0.58731	0.17291	-0.39664	31.2	13111	100
2025-3-27 18:30:13.964	WT901BLE68-01(48591DE3C19B)	-0.154	-1.633	0.083	8.667	-46.570	294.250	-79.34	17.20	-29.40	-82.614	-17.150	61.838	0.68393	-0.58731	0.17291	-0.39664	31.2	13111	100
2025-3-27 18:30:13.964	WT901BLE68-01(48591DE3C19B)	-0.188	-1.633	0.083	8.667	-46.570	294.250	-78.96	19.98	-28.44	-82.614	-17.150	61.838	0.68393	-0.58731	0.17291	-0.39664	31.2	13111	100
2025-3-27 18:30:13.964	WT901BLE68-01(48591DE3C19B)	-0.188	-1.507	0.067	9.583	-17.761	287.476	-78.58	22.72	-27.60	-82.614	-17.150	61.838	0.68393	-0.58731	0.17291	-0.39664	31.2	13111	100
2025-3-27 18:30:13.964	WT901BLE68-01(48591DE3C19B)	-0.181	-1.507	0.067	9.583	-17.761	287.476	-78.21	25.43	-26.88	-82.614	-17.150	61.838	0.68393	-0.58731	0.17291	-0.39664	31.2	13111	100
2025-3-27 18:30:14.18	WT901BLE68-01(48591DE3C19B)	-0.181	-1.339	0.065	7.996	0.488	278.503	-77.90	28.08	-26.36	-82.614	-17.150	61.838	0.68393	-0.58731	0.17291	-0.39664	31.2	13111	100
2025-3-27 18:30:14.18	WT901BLE68-01(48591DE3C19B)	-0.201	-1.339	0.065	7.996	0.488	278.503	-77.56	30.70	-25.80	-60.662	0.490	65.366	0.68393	-0.58731	0.17291	-0.39664	31.2	13111	100
2025-3-27 18:30:14.18	WT901BLE68-01(48591DE3C19B)	-0.201	-1.197	0.063	2.808	10.376	268.921	-77.31	33.22	-25.35	-60.662	0.490	65.366	0.68393	-0.58731	0.17291	-0.39664	31.2	13111	100
2025-3-27 18:30:14.18	WT901BLE68-01(48591DE3C19B)	-0.240	-1.197	0.063	2.808	10.376	268.921	-77.03	35.73	-24.87	-60.662	0.490	65.366	0.68393	-0.58731	0.17291	-0.39664	31.2	13111	100
2025-3-27 18:30:14.46	WT901BLE68-01(48591DE3C19B)	-0.240	-1.111	0.048	-2.930	8.484	257.935	-76.77	38.12	-24.36	-60.662	0.490	65.366	0.68393	-0.58731	0.17291	-0.39664	31.2	13111	100
2025-3-27 18:30:14.47	WT901BLE68-01(48591DE3C19B)	-0.253	-1.111	0.048	-2.930	8.484	257.935	-76.47	40.48	-23.82	-60.662	0.490	65.366	0.68393	-0.58731	0.17291	-0.39664	31.2	13111	100
2025-3-27 18:30:14.47	WT901BLE68-01(48591DE3C19B)	-0.253	-1.040	0.029	-6.653	-2.380	246.094	-76.11	42.70	-23.13	-60.662	0.490	65.366	0.68393	-0.58731	0.17291	-0.39664	31.2	13111	100
2025-3-27 18:30:14.47	WT901BLE68-01(48591DE3C19B)	-0.234	-1.040	0.029	-6.653	-2.380	246.094	-75.68	44.90	-22.40	-60.662	0.490	65.366	0.68393	-0.58731	0.17291	-0.39664	31.2	13111	100
2025-3-27 18:30:14.77	WT901BLE68-01(48591DE3C19B)	-0.234	-0.956	0.013	-9.277	-14.954	233.154	-75.15	46.92	-21.48	-60.662	0.490	65.366	0.68393	-0.58731	0.17291	-0.39664	31.2	13111	100
2025-3-27 18:30:14.77	WT901BLE68-01(48591DE3C19B)	-0.170	-0.956	0.013	-9.277	-14.954	233.154	-74.54	48.93	-20.50	-60.662	0.490	65.366	0.68393	-0.58731	0.17291	-0.39664	31.2	13111	100
2025-3-27 18:30:14.77	WT901BLE68-01(48591DE3C19B)	-0.170	-0.907	0.010	-11.902	-25.940	214.539	-73.81	50.70	-19.35	-60.662	0.490	65.366	0.68393	-0.58731	0.17291	-0.39664	31.2	13111	100
2025-3-27 18:30:14.77	WT901BLE68-01(48591DE3C19B)	-0.170	-0.907	0.010	-11.902	-25.940	214.539	-73.00	52.46	-18.12	-60.662	0.490	65.366	0.68393	-0.58731	0.17291	-0.39664	31.2	13111	100
2025-3-27 18:30:14.138	WT901BLE68-01(48591DE3C19B)	-0.170	-0.944	0.037	-16.418	-33.936	191.711	-72.14	53.95	-16.79	-60.662	0.490	65.366	0.68393	-0.58731	0.17291	-0.39664	31.2	13111	100
2025-3-27 18:30:14.138	WT901BLE68-01(48591DE3C19B)	-0.229	-0.944	0.037	-16.418	-33.936	191.711	-71.19	55.43	-15.36	-60.662	0.490	65.366	0.68393	-0.58731	0.17291	-0.39664	31.2	13111	100
2025-3-27 18:30:14.138	WT901BLE68-01(48591DE3C19B)	-0.229	-1.188	0.041	-26.001	-47.546	159.363	-70.20	56.52	-13.81	-60.662	0.490	65.366	0.68393	-0.58731	0.17291	-0.39664	31.2	13111	100
2025-3-27 18:30:14.138	WT901BLE68-01(48591DE3C19B)	-0.223	-1.188	0.041	-26.001	-47.546	159.363	-69.14	57.60	-12.17	-60.662	0.490	65.366	0.68393	-0.58731	0.17291	-0.39664	31.2	13111	100
2025-3-27 18:30:14.169	WT901BLE68-01(48591DE3C19B)	-0.223	-1.560	0.051	-27.832	-64.209	121.460	-67.99	58.24	-10.43	-60.662	0.490	65.366	0.68393	-0.58731	0.17291	-0.39664	31.2	13111	100
2025-3-27 18:30:14.169	WT901BLE68-01(48591DE3C19B)	-0.129	-1.560	0.051	-27.832	-64.209	121.460	-66.80	58.85	-8.63	-60.662	0.490	65.366	0.68393	-0.58731	0.17291	-0.39664	31.2	13111	100
2025-3-27 18:30:14.169	WT901BLE68-01(48591DE3C19B)	-0.129	-1.813	0.083	-18.677	-68.298	85.449	-65.65	59.10	-7.00	-60.662	0.490	65.366	0.68393	-0.58731	0.17291	-0.39664	31.2	13111	100
2025-3-27 18:30:14.170	WT901BLE68-01(48591DE3C19B)	-0.016	-1.813	0.083	-18.677	-68.298	85.449	-64.48	59.31	-5.34	-60.662	0.490	65.366	0.68393	-0.58731	0.17291	-0.39664	31.2	13111	100
2025-3-27 18:30:14.199	WT901BLE68-01(48591DE3C19B)	-0.016	-1.837	0.103	-10.620	-60.059	52.002	-63.61	59.24	-4.11	-60.662	0.490	65.366	0.68393	-0.58731	0.17291	-0.39664	31.2	13111	100
2025-3-27 18:30:14.200	WT901BLE68-01(48591DE3C19B)	0.088	-1.837	0.103	-10.620	-60.059	52.002	-62.74	59.16	-2.89	-60.662	0.490	65.366	0.68393	-0.58731	0.17291	-0.39664	31.2	13111	100
2025-3-27 18:30:14.200	WT901BLE68-01(48591DE3C19B)	0.088	-1.746	0.112	-5.249	-44.495	18.066	-62.31	58.84	-2.25	-60.662	0.490	65.366	0.75089	-0.44257	0.42722	0.24014	31.2	13111	100
2025-3-27 18:30:14.200	WT901BLE68-01(48591DE3C19B)	0.157	-1.746	0.112	-5.249	-44.495	18.066	-61.91	58.51	-1.61	-60.662	0.490	65.366	0.75089	-0.44257	0.42722	0.24014	31.2	13111	100
2025-3-27 18:30:14.265	WT901BLE68-01(48591DE3C19B)	0.157	-1.541	0.131	-3.418	-18.494	-18.616	-62.14	57.97	-1.75	-60.662	0.490	65.366	0.75089	-0.44257	0.42722	0.24014	31.2	13111	100
2025-3-27 18:30:14.265	WT901BLE68-01(48591DE3C19B)	0.122	-1.541	0.131	-3.418	-18.494	-18.616	-62.37	57.43	-1.88	-60.662	0.490	65.366	0.75089	-0.44257	0.42722	0.24014	31.2	13111	100
2025-3-27 18:30:14.265	WT901BLE68-01(48591DE3C19B)	0.122	-1.375	0.191	-10.986	6.226	-51.758	-63.23	56.71	-2.67	-60.662	0.490	65.366	0.75089	-0.44257	0.42722	0.24014	31.2	13111	100
2025-3-27 18:30:14.265	WT901BLE68-01(48591DE3C19B)	0.119	-1.375	0.191	-10.986	6.226	-51.758	-64.04	55.98	-3.42	-60.662	0.490	65.366	0.75089	-0.44257	0.42722	0.24014	31.2	13111	100
2025-3-27 18:30:14.287	WT901BLE68-01(48591DE3C19B)	0.119	-1.312	0.169	-15.198	29.297	-87.646	-65.37	55.02	-4.77	-60.662	0.490	65.366	0.75089	-0.44257	0.42722	0.24014	31.2	13111	100
2025-3-27 18:30:14.287	WT901BLE68-01(48591DE3C19B)	0.050	-1.312	0.169	-15.198	29.297	-87.646	-66.63	54.04	-6.04	-60.662	0.490	65.366	0.75089	-0.44257	0.42722	0.24014	31.2	13111	100
2025-3-27 18:30:14.287	WT901BLE68-01(48591DE3C19B)	0.050	-1.202	0.170	-19.531	48.340	-121.155	-68.26	52.82	-7.74	-60.662	0.490	65.366	0.75089	-0.44257	0.42722	0.24014	31.2	13111	100
2025-3-27 18:30:14.287	WT901BLE68-01(48591DE3C19B)	-0.076	-1.202	0.170	-19.531	48.340	-121.155	-69.77	51.56	-9.33	-60.662	0.490	65.366	0.75089	-0.44257	0.42722	0.24014	31.2	13111	100
2025-3-27 18:30:14.317	WT901BLE68-01(48591DE3C19B)	-0.076	-1.155	0.185	-26.123	47.607	-152.954	-71.36	50.00	-10.97	-60.662	0.490	65.366	0.75089	-0.44257	0.42722	0.24014	31.2	13111	100
2025-3-27 18:30:14.317	WT901BLE68-01(48591DE3C19B)	-0.192	-1.155	0.185	-26.123	47.607	-152.954	-72.82	48.41	-12.49	-60.662	0.490	65.366	0.75089	-0.44257	0.42722	0.24014	31.2	13111	100
2025-3-27 18:30:14.317	WT901BLE68-01(48591DE3C19B)	-0.192	-1.180	0.220	-26.123	38.879	-182.190	-74.15	46.51	-13.89	-60.662	0.490	65.366	0.75089	-0.44257	0.42722	0.24014	31.2	13111	100
2025-3-27 18:30:14.318	WT901BLE68-01(48591DE3C19B)	-0.230	-1.180	0.220	-26.123	38.879	-182.190	-75.37	44.60	-15.17	-60.662	0.490	65.366	0.75089	-0.44257	0.42722	0.24014	31.2	13111	100
2025-3-27 18:30:14.380	WT901BLE68-01(48591DE3C19B)	-0.230	-1.192	0.262	-23.315	23.865	-205.566	-76.37	42.43	-16.24	-60.662	0.490	65.366	0.75089	-0.44257	0.42722	0.24014	31.2	13111	100
2025-3-27 18:30:14.380	WT901BLE68-01(48591DE3C19B)	-0.139	-1.192	0.262	-23.315	23.865	-205.566	-77.27	40.26	-17.23	-60.662	0.490	65.366	0.75089	-0.44257	0.42722	0.24014	31.2	13111	100
2025-3-27 18:30:14.380	WT901BLE68-01(48591DE3C19B)	-0.139	-1.178	0.252	-21.362	17.090	-225.708	-78.06	37.89	-18.11	-60.662	0.490	65.366	0.75089	-0.44257	0.42722	0.24014	31.2	13111	100
2025-3-27 18:30:14.380	WT901BLE68-01(48591DE3C19B)	-0.003	-1.178	0.252	-21.362	17.090	-225.708	-78.77	35.52	-18.92	-60.662	0.490	65.366	0.75089	-0.44257	0.42722	0.24014	31.2	13111	100
2025-3-27 18:30:14.409	WT901BLE68-01(48591DE3C19B)	-0.003	-1.166	0.211	-17.639	38.635	-241.150	-79.54	33.05	-19.97	-60.662	0.490	65.366	0.75089	-0.44257	0.42722	0.24014	31.2	13111	100
2025-3-27 18:30:14.410	WT901BLE68-01(48591DE3C19B)	-0.002	-1.166	0.211	-17.639	38.635	-241.150	-80.23	30.58	-20.95	-60.662	0.490	65.366	0.75089	-0.44257	0.42722	0.24014	31.2	13111	100
2025-3-27 18:30:14.410	WT901BLE68-01(48591DE3C19B)	-0.002	-1.229	0.198	-11.597	88.745	-254.700	-81.08	28.06	-22.46	-60.662	0.490	65.366	0.75089	-0.44257	0.42722	0.24014	31.2	13111	100
2025-3-27 18:30:14.410	WT901BLE68-01(48591DE3C19B)	-0.105	-1.229	0.198	-11.597	88.745	-254.700	-81.83	25.53	-23.90	-38.612	2.548	68.404	0.75089	-0.44257	0.42722	0.24014	31.2	13111	100
2025-3-27 18:30:14.439	WT901BLE68-01(48591DE3C19B)	-0.105	-1.343	0.182	-0.427	138.611	-266.235	-82.62	22.96	-25.83	-38.612	2.548	68.404	0.75089	-0.44257	0.42722	0.24014	31.2	13111	100
2025-3-27 18:30:14.439	WT901BLE68-01(48591DE3C19B)	-0.273	-1.343	0.182	-0.427	138.611	-266.235	-83.29	20.38	-27.68	-38.612	2.548	68.404	0.75089	-0.44257	0.42722	0.24014	31.2	13111	100
2025-3-27 18:30:14.440	WT901BLE68-01(48591DE3C19B)	-0.412	-1.457	0.198	17.822	163.879	-271.790	-83.78	17.78	-29.75	-38.612	2.548	68.404	0.75089	-0.44257	0.42722	0.24014	31.2	13111	100
2025-3-27 18:30:14.440	WT901BLE68-01(48591DE3C19B)	-0.412	-1.530	0.202	41.016	170.532	-273.865	-84.05	15.17	-31.79	-38.612	2.548	68.404	0.75089	-0.44257	0.42722	0.24014	31.2	13111	100
2025-3-27 18:30:14.498	WT901BLE68-01(48591DE3C19B)	-0.308	-1.530	0.202	41.016	170.532	-273.865	-84.11	12.58	-33.84	-38.612	2.548	68.404	0.75089	-0.44257	0.42722	0.24014	31.2	13111	100
2025-3-27 18:30:14.498	WT901BLE68-01(48591DE3C19B)	-0.308	-1.550	0.186	61.707	201.416	-270.142	-84.01	10.04	-36.01	-38.612	2.548	68.404	0.75089	-0.44257	0.42722	0.24014	31.2	13111	100
2025-3-27 18:30:14.498	WT901BLE68-01(48591DE3C19B)	-1.048	-1.550	0.186	61.707	201.416	-270.142	-83.73	7.56	-38.33	-38.612	2.548	68.404	0.75089	-0.44257	0.42722	0.24014	31.2	13111	100
2025-3-27 18:30:14.498	WT901BLE68-01(48591DE3C19B)	-1.048	-1.508	0.206	100.708	152.588	-250.977	-83.14	5.19	-40.39	-38.612	2.548	68.404	0.75089	-0.44257	0.42722	0.24014	31.2	13111	100
2025-3-27 18:30:14.526	WT901BLE68-01(48591DE3C19B)	-0.486	-1.508	0.206	100.708	152.588	-250.977	-82.27	2.94	-42.22	-38.612	2.548	68.404	0.75089	-0.44257	0.42722	0.24014	31.2	13111	100
2025-3-27 18:30:14.526	WT901BLE68-01(48591DE3C19B)	-0.486	-1.359	0.072	106.384	111.023	-271.667	-81.29	0.62	-43.88	-38.612	2.548	68.404	0.75089	-0.44257	0.42722	0.24014	31.2	13111	100
2025-3-27 18:30:14.527	WT901BLE68-01(48591DE3C19B)	-0.235	-1.359	0.072	106.384	111.023	-271.667	-80.22	-1.79	-45.39	-38.612	2.548	68.404	0.75089	-0.44257	0.42722	0.24014	31.2	13111	100
2025-3-27 18:30:14.527	WT901BLE68-01(48591DE3C19B)	-0.235	-1.174	0.066	104.797	145.996	-245.728	-79.10	-3.99	-47.10	-38.612	2.548	68.404	0.75089	-0.44257	0.42722	0.24014	31.2	13111	100
2025-3-27 18:30:14.563	WT901BLE68-01(48591DE3C19B)	-0.600	-1.174	0.066	104.797	145.996	-245.728	-77.92	-5.99	-48.99	-38.612	2.548	68.404	0.75089	-0.44257	0.42722	0.24014	31.2	13111	100
2025-3-27 18:30:14.564	WT901BLE68-01(48591DE3C19B)	-0.600	-1.205	0.036	105.225	158.752	-234.680	-76.67	-7.87	-50.99	-38.612	2.548	68.404	0.75089	-0.44257	0.42722	0.24014	31.2	13111	100
2025-3-27 18:30:14.564	WT901BLE68-01(48591DE3C19B)	-0.507	-1.205	0.036	105.225	158.752	-234.680	-75.35	-9.62	-53.07	-38.612	2.548	68.404	0.75089	-0.44257	0.42722	0.24014	31.2	13111	100
2025-3-27 18:30:14.564	WT901BLE68-01(48591DE3C19B)	-0.507	-1.104	0.107	106.140	146.057	-216.980	-73.98	-11.23	-55.11	-38.612	2.548	68.404	0.75089	-0.44257	0.42722	0.24014	31.2	13111	100
2025-3-27 18:30:14.648	WT901BLE68-01(48591DE3C19B)	-0.431	-1.104	0.107	106.140	146.057	-216.980	-72.58	-12.72	-57.11	-38.612	2.548	68.404	0.75089	-0.44257	0.42722	0.24014	31.2	13111	100
2025-3-27 18:30:14.648	WT901BLE68-01(48591DE3C19B)	-0.431	-1.041	0.105	105.225	160.583	-193.665	-71.11	-14.01	-59.19	-38.612	2.548	68.404	0.66705	-0.55084	0.19873	-0.46042	31.2	13111	100
2025-3-27 18:30:14.648	WT901BLE68-01(48591DE3C19B)	-0.448	-1.041	0.105	105.225	160.583	-193.665	-69.60	-15.11	-61.33	-38.612	2.548	68.404	0.66705	-0.55084	0.19873	-0.46042	31.2	13111	100
2025-3-27 18:30:14.648	WT901BLE68-01(48591DE3C19B)	-0.448	-0.945	0.055	101.868	175.232	-165.649	-68.07	-15.99	-63.52	-38.612	2.548	68.404	0.66705	-0.55084	0.19873	-0.46042	31.2	13111	100
2025-3-27 18:30:14.649	WT901BLE68-01(48591DE3C19B)	-0.535	-0.945	0.055	101.868	175.232	-165.649	-66.52	-16.64	-65.76	-38.612	2.548	68.404	0.66705	-0.55084	0.19873	-0.46042	31.2	13111	100
2025-3-27 18:30:14.649	WT901BLE68-01(48591DE3C19B)	-0.535	-0.899	0.028	94.666	165.955	-139.893	-65.02	-17.14	-67.91	-38.612	2.548	68.404	0.66705	-0.55084	0.19873	-0.46042	31.2	13111	100
2025-3-27 18:30:14.649	WT901BLE68-01(48591DE3C19B)	-0.591	-0.899	0.028	94.666	165.955	-139.893	-63.58	-17.47	-69.96	-38.612	2.548	68.404	0.66705	-0.55084	0.19873	-0.46042	31.2	13111	100
2025-3-27 18:30:14.649	WT901BLE68-01(48591DE3C19B)	-0.591	-0.911	0.018	84.412	135.376	-116.821	-62.25	-17.73	-71.82	-38.612	2.548	68.404	0.66705	-0.55084	0.19873	-0.46042	31.2	13111	100
2025-3-27 18:30:14.708	WT901BLE68-01(48591DE3C19B)	-0.646	-0.911	0.018	84.412	135.376	-116.821	-61.04	-17.91	-73.49	-38.612	2.548	68.404	0.66705	-0.55084	0.19873	-0.46042	31.2	13111	100
2025-3-27 18:30:14.708	WT901BLE68-01(48591DE3C19B)	-0.646	-0.965	0.015	71.594	92.773	-96.313	-59.97	-18.07	-74.90	-38.612	2.548	68.404	0.66705	-0.55084	0.19873	-0.46042	31.2	13111	100
2025-3-27 18:30:14.708	WT901BLE68-01(48591DE3C19B)	-0.696	-0.965	0.015	71.594	92.773	-96.313	-59.04	-18.22	-76.07	-38.612	2.548	68.404	0.66705	-0.55084	0.19873	-0.46042	31.2	13111	100
2025-3-27 18:30:14.708	WT901BLE68-01(48591DE3C19B)	-0.696	-1.078	0.013	57.312	51.453	-78.918	-58.27	-18.37	-77.00	-38.612	2.548	68.404	0.66705	-0.55084	0.19873	-0.46042	31.2	13111	100
2025-3-27 18:30:14.737	WT901BLE68-01(48591DE3C19B)	-0.712	-1.078	0.013	57.312	51.453	-78.918	-57.63	-18.55	-77.70	-38.612	2.548	68.404	0.66705	-0.55084	0.19873	-0.46042	31.2	13111	100
2025-3-27 18:30:14.738	WT901BLE68-01(48591DE3C19B)	-0.712	-1.138	0.005	43.152	14.832	-64.331	-57.15	-18.76	-78.18	-38.612	2.548	68.404	0.66705	-0.55084	0.19873	-0.46042	31.2	13111	100
2025-3-27 18:30:14.738	WT901BLE68-01(48591DE3C19B)	-0.668	-1.138	0.005	43.152	14.832	-64.331	-56.79	-19.00	-78.47	-38.612	2.548	68.404	0.66705	-0.55084	0.19873	-0.46042	31.2	13111	100
2025-3-27 18:30:14.738	WT901BLE68-01(48591DE3C19B)	-0.668	-1.178	0.023	25.391	-6.958	-49.744	-56.58	-19.23	-78.62	-38.612	2.548	68.404	0.66705	-0.55084	0.19873	-0.46042	31.2	13111	100
2025-3-27 18:30:14.769	WT901BLE68-01(48591DE3C19B)	-0.642	-1.178	0.023	25.391	-6.958	-49.744	-56.50	-19.46	-78.63	-38.612	2.548	68.404	0.66705	-0.55084	0.19873	-0.46042	31.2	13111	100
2025-3-27 18:30:14.769	WT901BLE68-01(48591DE3C19B)	-0.642	-1.193	0.084	7.629	-14.832	-35.339	-56.53	-19.64	-78.57	-38.612	2.548	68.404	0.66705	-0.55084	0.19873	-0.46042	31.2	13111	100
2025-3-27 18:30:14.769	WT901BLE68-01(48591DE3C19B)	-0.620	-1.193	0.084	7.629	-14.832	-35.339	-56.67	-19.79	-78.43	-38.612	2.548	68.404	0.66705	-0.55084	0.19873	-0.46042	31.2	13111	100
2025-3-27 18:30:14.769	WT901BLE68-01(48591DE3C19B)	-0.620	-1.210	0.169	-11.536	-18.188	-18.860	-56.94	-19.88	-78.22	-38.612	2.548	68.404	0.66705	-0.55084	0.19873	-0.46042	31.2	13111	100
2025-3-27 18:30:14.828	WT901BLE68-01(48591DE3C19B)	-0.634	-1.210	0.169	-11.536	-18.188	-18.860	-57.30	-19.91	-77.96	-38.612	2.548	68.404	0.66705	-0.55084	0.19873	-0.46042	31.2	13111	100
2025-3-27 18:30:14.828	WT901BLE68-01(48591DE3C19B)	-0.634	-1.112	0.247	-27.344	-24.719	-0.549	-57.78	-19.87	-77.62	-38.612	2.548	68.404	0.66705	-0.55084	0.19873	-0.46042	31.2	13111	100
2025-3-27 18:30:14.828	WT901BLE68-01(48591DE3C19B)	-0.642	-1.112	0.247	-27.344	-24.719	-0.549	-58.35	-19.76	-77.20	-88.886	-12.348	49.000	0.66705	-0.55084	0.19873	-0.46042	31.2	13111	100
2025-3-27 18:30:14.828	WT901BLE68-01(48591DE3C19B)	-0.642	-0.946	0.257	-41.260	-37.476	19.653	-59.02	-19.61	-76.67	-88.886	-12.348	49.000	0.66705	-0.55084	0.19873	-0.46042	31.2	13111	100
2025-3-27 18:30:14.864	WT901BLE68-01(48591DE3C19B)	-0.672	-0.946	0.257	-41.260	-37.476	19.653	-59.78	-19.38	-76.03	-88.886	-12.348	49.000	0.66705	-0.55084	0.19873	-0.46042	31.2	13111	100
2025-3-27 18:30:14.864	WT901BLE68-01(48591DE3C19B)	-0.672	-0.858	0.213	-55.847	-60.608	41.382	-60.66	-19.11	-75.23	-88.886	-12.348	49.000	0.66705	-0.55084	0.19873	-0.46042	31.2	13111	100
2025-3-27 18:30:14.864	WT901BLE68-01(48591DE3C19B)	-0.726	-0.858	0.213	-55.847	-60.608	41.382	-61.65	-18.79	-74.29	-88.886	-12.348	49.000	0.66705	-0.55084	0.19873	-0.46042	31.2	13111	100
2025-3-27 18:30:14.864	WT901BLE68-01(48591DE3C19B)	-0.726	-0.878	0.188	-67.505	-96.130	67.017	-62.76	-18.41	-73.12	-88.886	-12.348	49.000	0.66705	-0.55084	0.19873	-0.46042	31.2	13111	100
2025-3-27 18:30:14.887	WT901BLE68-01(48591DE3C19B)	-0.688	-0.878	0.188	-67.505	-96.130	67.017	-63.97	-17.98	-71.74	-88.886	-12.348	49.000	0.66705	-0.55084	0.19873	-0.46042	31.2	13111	100
2025-3-27 18:30:14.887	WT901BLE68-01(48591DE3C19B)	-0.688	-0.915	0.148	-75.012	-134.949	98.206	-65.28	-17.46	-70.13	-88.886	-12.348	49.000	0.66705	-0.55084	0.19873	-0.46042	31.2	13111	100
2025-3-27 18:30:14.887	WT901BLE68-01(48591DE3C19B)	-0.560	-0.915	0.148	-75.012	-134.949	98.206	-66.67	-16.84	-68.27	-88.886	-12.348	49.000	0.66705	-0.55084	0.19873	-0.46042	31.2	13111	100
2025-3-27 18:30:14.887	WT901BLE68-01(48591DE3C19B)	-0.560	-0.929	0.082	-79.285	-163.147	133.301	-68.10	-16.07	-66.25	-88.886	-12.348	49.000	0.66705	-0.55084	0.19873	-0.46042	31.2	13111	100
2025-3-27 18:30:14.947	WT901BLE68-01(48591DE3C19B)	-0.485	-0.929	0.082	-79.285	-163.147	133.301	-69.57	-15.16	-64.06	-88.886	-12.348	49.000	0.66705	-0.55084	0.19873	-0.46042	31.2	13111	100
2025-3-27 18:30:14.947	WT901BLE68-01(48591DE3C19B)	-0.485	-1.010	0.048	-81.360	-180.115	168.396	-71.07	-13.91	-61.63	-88.886	-12.348	49.000	0.66705	-0.55084	0.19873	-0.46042	31.2	13111	100
2025-3-27 18:30:14.947	WT901BLE68-01(48591DE3C19B)	-0.467	-1.010	0.048	-81.360	-180.115	168.396	-72.50	-12.62	-59.25	-88.886	-12.348	49.000	0.66705	-0.55084	0.19873	-0.46042	31.2	13111	100
2025-3-27 18:30:14.947	WT901BLE68-01(48591DE3C19B)	-0.467	-1.267	0.057	-80.994	-195.618	201.294	-73.89	-11.02	-56.68	-88.886	-12.348	49.000	0.66705	-0.55084	0.19873	-0.46042	31.2	13111	100
2025-3-27 18:30:14.980	WT901BLE68-01(48591DE3C19B)	-0.371	-1.267	0.057	-80.994	-195.618	201.294	-75.21	-9.37	-54.18	-88.886	-12.348	49.000	0.66705	-0.55084	0.19873	-0.46042	31.2	13111	100
2025-3-27 18:30:14.980	WT901BLE68-01(48591DE3C19B)	-0.371	-1.567	0.045	-71.167	-204.102	229.065	-76.35	-7.44	-51.59	-88.886	-12.348	49.000	0.66705	-0.55084	0.19873	-0.46042	31.2	13111	100
2025-3-27 18:30:14.980	WT901BLE68-01(48591DE3C19B)	-0.190	-1.567	0.045	-71.167	-204.102	229.065	-77.39	-5.49	-49.05	-88.886	-12.348	49.000	0.66705	-0.55084	0.19873	-0.46042	31.2	13111	100
2025-3-27 18:30:14.980	WT901BLE68-01(48591DE3C19B)	-0.190	-1.748	0.036	-52.979	-189.270	253.174	-78.15	-3.25	-46.67	-88.886	-12.348	49.000	0.66705	-0.55084	0.19873	-0.46042	31.2	13111	100
2025-3-27 18:30:15.9	WT901BLE68-01(48591DE3C19B)	-0.108	-1.748	0.036	-52.979	-189.270	253.174	-78.80	-1.01	-44.33	-88.886	-12.348	49.000	0.66705	-0.55084	0.19873	-0.46042	31.2	13111	100
2025-3-27 18:30:15.9	WT901BLE68-01(48591DE3C19B)	-0.108	-1.703	0.063	-36.682	-156.006	272.217	-79.19	1.47	-42.31	-88.886	-12.348	49.000	0.66705	-0.55084	0.19873	-0.46042	31.2	13111	100
2025-3-27 18:30:15.9	WT901BLE68-01(48591DE3C19B)	-0.166	-1.703	0.063	-36.682	-156.006	272.217	-79.50	3.94	-40.32	-88.886	-12.348	49.000	0.66705	-0.55084	0.19873	-0.46042	31.2	13111	100
2025-3-27 18:30:15.9	WT901BLE68-01(48591DE3C19B)	-0.166	-1.664	0.094	-32.288	-131.653	282.166	-79.69	6.54	-38.56	-88.886	-12.348	49.000	0.73557	-0.58932	0.25259	-0.21854	31.2	13111	100
2025-3-27 18:30:15.39	WT901BLE68-01(48591DE3C19B)	-0.219	-1.664	0.094	-32.288	-131.653	282.166	-79.80	9.13	-36.80	-88.886	-12.348	49.000	0.73557	-0.58932	0.25259	-0.21854	31.2	13111	100
2025-3-27 18:30:15.40	WT901BLE68-01(48591DE3C19B)	-0.219	-1.669	0.133	-27.649	-118.958	281.067	-79.81	11.71	-35.17	-88.886	-12.348	49.000	0.73557	-0.58932	0.25259	-0.21854	31.2	13111	100
2025-3-27 18:30:15.40	WT901BLE68-01(48591DE3C19B)	-0.250	-1.669	0.133	-27.649	-118.958	281.067	-79.74	14.26	-33.52	-88.886	-12.348	49.000	0.73557	-0.58932	0.25259	-0.21854	31.2	13111	100
2025-3-27 18:30:15.40	WT901BLE68-01(48591DE3C19B)	-0.250	-1.629	0.177	-20.020	-107.300	275.696	-79.55	16.77	-31.98	-88.886	-12.348	49.000	0.73557	-0.58932	0.25259	-0.21854	31.2	13111	100
2025-3-27 18:30:15.98	WT901BLE68-01(48591DE3C19B)	-0.259	-1.629	0.177	-20.020	-107.300	275.696	-79.29	19.24	-30.42	-88.886	-12.348	49.000	0.73557	-0.58932	0.25259	-0.21854	31.2	13111	100
2025-3-27 18:30:15.98	WT901BLE68-01(48591DE3C19B)	-0.259	-1.532	0.176	-11.108	-89.417	269.287	-78.93	21.67	-29.01	-88.886	-12.348	49.000	0.73557	-0.58932	0.25259	-0.21854	31.2	13111	100
2025-3-27 18:30:15.98	WT901BLE68-01(48591DE3C19B)	-0.230	-1.532	0.176	-11.108	-89.417	269.287	-78.50	24.07	-27.56	-88.886	-12.348	49.000	0.73557	-0.58932	0.25259	-0.21854	31.2	13111	100
2025-3-27 18:30:15.98	WT901BLE68-01(48591DE3C19B)	-0.230	-1.397	0.122	-5.188	-66.223	261.658	-78.05	26.41	-26.33	-88.886	-12.348	49.000	0.73557	-0.58932	0.25259	-0.21854	31.2	13111	100
2025-3-27 18:30:15.126	WT901BLE68-01(48591DE3C19B)	-0.210	-1.397	0.122	-5.188	-66.223	261.658	-77.53	28.73	-25.05	-88.886	-12.348	49.000	0.73557	-0.58932	0.25259	-0.21854	31.2	13111	100
2025-3-27 18:30:15.126	WT901BLE68-01(48591DE3C19B)	-0.210	-1.285	0.054	-2.502	-43.762	252.197	-77.05	30.99	-24.00	-88.886	-12.348	49.000	0.73557	-0.58932	0.25259	-0.21854	31.2	13111	100
2025-3-27 18:30:15.126	WT901BLE68-01(48591DE3C19B)	-0.229	-1.285	0.054	-2.502	-43.762	252.197	-76.52	33.22	-22.89	-88.886	-12.348	49.000	0.73557	-0.58932	0.25259	-0.21854	31.2	13111	100
2025-3-27 18:30:15.127	WT901BLE68-01(48591DE3C19B)	-0.229	-1.196	0.019	-2.197	-32.654	240.051	-76.01	35.34	-21.90	-88.886	-12.348	49.000	0.73557	-0.58932	0.25259	-0.21854	31.2	13111	100
2025-3-27 18:30:15.164	WT901BLE68-01(48591DE3C19B)	-0.252	-1.196	0.019	-2.197	-32.654	240.051	-75.45	37.43	-20.84	-88.886	-12.348	49.000	0.73557	-0.58932	0.25259	-0.21854	31.2	13111	100
2025-3-27 18:30:15.164	WT901BLE68-01(48591DE3C19B)	-0.252	-1.152	0.034	-3.418	-33.264	226.257	-74.87	39.37	-19.76	-88.886	-12.348	49.000	0.73557	-0.58932	0.25259	-0.21854	31.2	13111	100
2025-3-27 18:30:15.164	WT901BLE68-01(48591DE3C19B)	-0.261	-1.152	0.034	-3.418	-33.264	226.257	-74.22	41.29	-18.63	-88.886	-12.348	49.000	0.73557	-0.58932	0.25259	-0.21854	31.2	13111	100
2025-3-27 18:30:15.164	WT901BLE68-01(48591DE3C19B)	-0.261	-1.153	0.037	-2.686	-41.809	212.219	-73.45	43.03	-17.36	-88.886	-12.348	49.000	0.73557	-0.58932	0.25259	-0.21854	31.2	13111	100
2025-3-27 18:30:15.218	WT901BLE68-01(48591DE3C19B)	-0.245	-1.153	0.037	-2.686	-41.809	212.219	-72.61	44.75	-16.02	-88.886	-12.348	49.000	0.73557	-0.58932	0.25259	-0.21854	31.2	13111	100
2025-3-27 18:30:15.218	WT901BLE68-01(48591DE3C19B)	-0.245	-1.148	0.042	0.000	-50.049	196.289	-71.64	46.27	-14.56	-88.886	-12.348	49.000	0.73557	-0.58932	0.25259	-0.21854	31.2	13111	100
2025-3-27 18:30:15.218	WT901BLE68-01(48591DE3C19B)	-0.261	-1.148	0.042	0.000	-50.049	196.289	-70.58	47.76	-13.01	-88.886	-12.348	49.000	0.73557	-0.58932	0.25259	-0.21854	31.2	13111	100
2025-3-27 18:30:15.218	WT901BLE68-01(48591DE3C19B)	-0.261	-1.175	0.063	1.709	-58.777	178.467	-69.40	49.02	-11.35	-88.886	-12.348	49.000	0.73557	-0.58932	0.25259	-0.21854	31.2	13111	100
2025-3-27 18:30:15.249	WT901BLE68-01(48591DE3C19B)	-0.265	-1.175	0.063	1.709	-58.777	178.467	-68.14	50.25	-9.60	-18.032	-1.176	64.484	0.73557	-0.58932	0.25259	-0.21854	31.2	13111	100
2025-3-27 18:30:15.249	WT901BLE68-01(48591DE3C19B)	-0.265	-1.239	0.087	5.066	-67.688	158.142	-66.75	51.22	-7.76	-18.032	-1.176	64.484	0.73557	-0.58932	0.25259	-0.21854	31.2	13111	100
2025-3-27 18:30:15.249	WT901BLE68-01(48591DE3C19B)	-0.241	-1.239	0.087	5.066	-67.688	158.142	-65.30	52.17	-5.83	-18.032	-1.176	64.484	0.73557	-0.58932	0.25259	-0.21854	31.2	13111	100
2025-3-27 18:30:15.250	WT901BLE68-01(48591DE3C19B)	-0.241	-1.285	0.100	9.644	-68.420	134.949	-63.84	52.86	-3.98	-18.032	-1.176	64.484	0.73557	-0.58932	0.25259	-0.21854	31.2	13111	100
2025-3-27 18:30:15.308	WT901BLE68-01(48591DE3C19B)	-0.203	-1.285	0.100	9.644	-68.420	134.949	-62.33	53.52	-2.07	-18.032	-1.176	64.484	0.73557	-0.58932	0.25259	-0.21854	31.2	13111	100
