time	DeviceName	AccX(g)	AccY(g)	AccZ(g)	AsX(°/s)	AsY(°/s)	AsZ(°/s)	AngleX(°)	AngleY(°)	AngleZ(°)	HX(uT)	HY(uT)	HZ(uT)	Q0()	Q1()	Q2()	Q3()	Temperature(°C)	Version()	Battery level(%)
2025-3-27 18:39:46.982	WT901BLE68-01(48591DE3C19B)	-0.144	-0.972	0.245	2.747	1.404	4.822	-76.40	11.41	-43.69	-70.756	-53.998	-7.742	-0.77283	0.56500	-0.24951	0.14545	31.0	13111	100
2025-3-27 18:39:46.983	WT901BLE68-01(48591DE3C19B)	-0.144	-0.975	0.245	3.418	-0.244	4.578	-76.37	11.44	-44.04	-70.756	-53.998	-7.742	-0.77283	0.56500	-0.24951	0.14545	31.0	13111	100
2025-3-27 18:39:46.983	WT901BLE68-01(48591DE3C19B)	-0.126	-0.975	0.245	3.418	-0.244	4.578	-76.34	11.46	-44.40	-70.756	-53.998	-7.742	-0.77283	0.56500	-0.24951	0.14545	31.0	13111	100
2025-3-27 18:39:46.983	WT901BLE68-01(48591DE3C19B)	-0.126	-0.966	0.249	4.395	-1.282	4.333	-76.31	11.49	-44.74	-70.756	-53.998	-7.742	-0.77283	0.56500	-0.24951	0.14545	31.0	13111	100
2025-3-27 18:39:46.991	WT901BLE68-01(48591DE3C19B)	-0.128	-0.966	0.249	4.395	-1.282	4.333	-76.26	11.50	-45.08	-70.756	-53.998	-7.742	-0.77283	0.56500	-0.24951	0.14545	31.0	13111	100
2025-3-27 18:39:46.991	WT901BLE68-01(48591DE3C19B)	-0.128	-0.967	0.251	4.211	-0.549	4.089	-76.23	11.52	-45.42	-70.756	-53.998	-7.742	-0.77283	0.56500	-0.24951	0.14545	31.0	13111	100
2025-3-27 18:39:46.991	WT901BLE68-01(48591DE3C19B)	-0.137	-0.967	0.251	4.211	-0.549	4.089	-76.19	11.54	-45.77	-70.756	-53.998	-7.742	-0.77283	0.56500	-0.24951	0.14545	31.0	13111	100
2025-3-27 18:39:46.991	WT901BLE68-01(48591DE3C19B)	-0.119	-0.977	0.250	4.517	-0.854	3.723	-76.15	11.55	-46.11	-70.756	-53.998	-7.742	-0.74463	0.53290	-0.31400	0.25070	31.0	13111	100
2025-3-27 18:39:47.14	WT901BLE68-01(48591DE3C19B)	-0.119	-0.980	0.241	4.883	-1.343	2.808	-76.11	11.56	-46.45	-70.756	-53.998	-7.742	-0.74463	0.53290	-0.31400	0.25070	31.0	13111	100
2025-3-27 18:39:47.14	WT901BLE68-01(48591DE3C19B)	-0.113	-0.980	0.241	4.883	-1.343	2.808	-76.06	11.56	-46.78	-70.756	-53.998	-7.742	-0.74463	0.53290	-0.31400	0.25070	31.0	13111	100
2025-3-27 18:39:47.14	WT901BLE68-01(48591DE3C19B)	-0.113	-0.981	0.232	4.456	-0.732	2.502	-76.03	11.57	-47.11	-70.756	-53.998	-7.742	-0.74463	0.53290	-0.31400	0.25070	31.0	13111	100
2025-3-27 18:39:47.14	WT901BLE68-01(48591DE3C19B)	-0.103	-0.981	0.232	4.456	-0.732	2.502	-75.99	11.57	-47.46	-70.756	-53.998	-7.742	-0.74463	0.53290	-0.31400	0.25070	31.0	13111	100
2025-3-27 18:39:47.72	WT901BLE68-01(48591DE3C19B)	-0.103	-0.985	0.217	4.639	-1.038	2.625	-75.95	11.57	-47.79	-70.756	-53.998	-7.742	-0.74463	0.53290	-0.31400	0.25070	31.0	13111	100
2025-3-27 18:39:47.72	WT901BLE68-01(48591DE3C19B)	-0.079	-0.985	0.217	4.639	-1.038	2.625	-75.92	11.57	-48.11	-70.756	-53.998	-7.742	-0.74463	0.53290	-0.31400	0.25070	31.0	13111	100
2025-3-27 18:39:47.72	WT901BLE68-01(48591DE3C19B)	-0.079	-0.990	0.202	3.540	-1.404	3.113	-75.89	11.57	-48.44	-70.756	-53.998	-7.742	-0.74463	0.53290	-0.31400	0.25070	31.0	13111	100
2025-3-27 18:39:47.72	WT901BLE68-01(48591DE3C19B)	-0.056	-0.990	0.202	3.540	-1.404	3.113	-75.87	11.57	-48.76	-70.756	-53.998	-7.742	-0.74463	0.53290	-0.31400	0.25070	31.0	13111	100
2025-3-27 18:39:47.101	WT901BLE68-01(48591DE3C19B)	-0.056	-0.988	0.192	2.136	-0.671	3.479	-75.86	11.58	-49.08	-70.756	-53.998	-7.742	-0.74463	0.53290	-0.31400	0.25070	31.0	13111	100
2025-3-27 18:39:47.101	WT901BLE68-01(48591DE3C19B)	-0.031	-0.988	0.192	2.136	-0.671	3.479	-75.86	11.59	-49.39	-70.756	-53.998	-7.742	-0.74463	0.53290	-0.31400	0.25070	31.0	13111	100
2025-3-27 18:39:47.101	WT901BLE68-01(48591DE3C19B)	-0.031	-0.978	0.189	0.183	0.610	2.869	-75.87	11.59	-49.71	-70.756	-53.998	-7.742	-0.74463	0.53290	-0.31400	0.25070	31.0	13111	100
2025-3-27 18:39:47.101	WT901BLE68-01(48591DE3C19B)	-0.021	-0.978	0.189	0.183	0.610	2.869	-75.89	11.59	-50.04	-70.756	-53.998	-7.742	-0.74463	0.53290	-0.31400	0.25070	31.0	13111	100
2025-3-27 18:39:47.135	WT901BLE68-01(48591DE3C19B)	-0.021	-0.992	0.190	-2.686	3.296	1.221	-75.93	11.59	-50.38	-70.756	-53.998	-7.742	-0.74463	0.53290	-0.31400	0.25070	31.0	13111	100
2025-3-27 18:39:47.135	WT901BLE68-01(48591DE3C19B)	-0.012	-0.992	0.190	-2.686	3.296	1.221	-75.99	11.57	-50.73	-70.756	-53.998	-7.742	-0.74463	0.53290	-0.31400	0.25070	31.0	13111	100
2025-3-27 18:39:47.135	WT901BLE68-01(48591DE3C19B)	-0.012	-1.021	0.190	-3.296	5.554	-2.014	-76.06	11.55	-51.10	-70.756	-53.998	-7.742	-0.74463	0.53290	-0.31400	0.25070	31.0	13111	100
2025-3-27 18:39:47.135	WT901BLE68-01(48591DE3C19B)	-0.003	-1.021	0.190	-3.296	5.554	-2.014	-76.14	11.51	-51.48	-70.756	-53.998	-7.742	-0.74463	0.53290	-0.31400	0.25070	31.0	13111	100
2025-3-27 18:39:47.192	WT901BLE68-01(48591DE3C19B)	-0.003	-1.024	0.195	-2.625	8.423	-6.165	-76.21	11.45	-51.87	-70.756	-53.998	-7.742	-0.74463	0.53290	-0.31400	0.25070	31.0	13111	100
2025-3-27 18:39:47.192	WT901BLE68-01(48591DE3C19B)	-0.017	-1.024	0.195	-2.625	8.423	-6.165	-76.29	11.37	-52.28	-70.952	-54.488	-7.546	-0.74463	0.53290	-0.31400	0.25070	31.0	13111	100
2025-3-27 18:39:47.192	WT901BLE68-01(48591DE3C19B)	-0.017	-1.021	0.192	-0.854	11.719	-11.536	-76.37	11.27	-52.72	-70.952	-54.488	-7.546	-0.74463	0.53290	-0.31400	0.25070	31.0	13111	100
2025-3-27 18:39:47.192	WT901BLE68-01(48591DE3C19B)	-0.051	-1.021	0.192	-0.854	11.719	-11.536	-76.44	11.14	-53.17	-70.952	-54.488	-7.546	-0.74463	0.53290	-0.31400	0.25070	31.0	13111	100
2025-3-27 18:39:47.221	WT901BLE68-01(48591DE3C19B)	-0.051	-1.014	0.197	0.610	12.878	-17.273	-76.50	10.99	-53.62	-70.952	-54.488	-7.546	-0.74463	0.53290	-0.31400	0.25070	31.0	13111	100
2025-3-27 18:39:47.221	WT901BLE68-01(48591DE3C19B)	-0.078	-1.014	0.197	0.610	12.878	-17.273	-76.56	10.82	-54.10	-70.952	-54.488	-7.546	-0.74463	0.53290	-0.31400	0.25070	31.0	13111	100
2025-3-27 18:39:47.221	WT901BLE68-01(48591DE3C19B)	-0.078	-1.012	0.203	2.869	10.925	-22.644	-76.61	10.61	-54.56	-70.952	-54.488	-7.546	-0.74463	0.53290	-0.31400	0.25070	31.0	13111	100
2025-3-27 18:39:47.221	WT901BLE68-01(48591DE3C19B)	-0.092	-1.012	0.203	2.869	10.925	-22.644	-76.64	10.38	-55.02	-70.952	-54.488	-7.546	-0.74463	0.53290	-0.31400	0.25070	31.0	13111	100
2025-3-27 18:39:47.312	WT901BLE68-01(48591DE3C19B)	-0.092	-0.989	0.207	5.981	7.996	-25.574	-76.65	10.13	-55.46	-70.952	-54.488	-7.546	-0.74463	0.53290	-0.31400	0.25070	31.0	13111	100
2025-3-27 18:39:47.312	WT901BLE68-01(48591DE3C19B)	-0.077	-0.989	0.207	5.981	7.996	-25.574	-76.64	9.87	-55.90	-70.952	-54.488	-7.546	-0.74463	0.53290	-0.31400	0.25070	31.0	13111	100
2025-3-27 18:39:47.312	WT901BLE68-01(48591DE3C19B)	-0.077	-0.950	0.211	7.568	5.981	-25.330	-76.62	9.61	-56.32	-70.952	-54.488	-7.546	-0.74463	0.53290	-0.31400	0.25070	31.0	13111	100
2025-3-27 18:39:47.312	WT901BLE68-01(48591DE3C19B)	-0.048	-0.950	0.211	7.568	5.981	-25.330	-76.59	9.35	-56.72	-70.952	-54.488	-7.546	-0.74463	0.53290	-0.31400	0.25070	31.0	13111	100
2025-3-27 18:39:47.313	WT901BLE68-01(48591DE3C19B)	-0.048	-0.895	0.209	7.629	6.958	-23.499	-76.56	9.10	-57.13	-70.952	-54.488	-7.546	-0.74463	0.53290	-0.31400	0.25070	31.0	13111	100
2025-3-27 18:39:47.313	WT901BLE68-01(48591DE3C19B)	-0.026	-0.895	0.209	7.629	6.958	-23.499	-76.52	8.86	-57.55	-70.952	-54.488	-7.546	-0.74463	0.53290	-0.31400	0.25070	31.0	13111	100
2025-3-27 18:39:47.314	WT901BLE68-01(48591DE3C19B)	-0.026	-0.868	0.214	3.296	11.597	-22.095	-76.51	8.64	-57.97	-70.952	-54.488	-7.546	-0.74463	0.53290	-0.31400	0.25070	31.0	13111	100
2025-3-27 18:39:47.314	WT901BLE68-01(48591DE3C19B)	-0.060	-0.868	0.214	3.296	11.597	-22.095	-76.53	8.43	-58.43	-70.952	-54.488	-7.546	-0.74463	0.53290	-0.31400	0.25070	31.0	13111	100
2025-3-27 18:39:47.344	WT901BLE68-01(48591DE3C19B)	-0.060	-0.933	0.249	-4.395	15.625	-22.766	-76.57	8.21	-58.89	-70.952	-54.488	-7.546	-0.74463	0.53290	-0.31400	0.25070	31.0	13111	100
2025-3-27 18:39:47.344	WT901BLE68-01(48591DE3C19B)	-0.170	-0.933	0.249	-4.395	15.625	-22.766	-76.66	8.00	-59.38	-70.952	-54.488	-7.546	-0.74463	0.53290	-0.31400	0.25070	31.0	13111	100
2025-3-27 18:39:47.345	WT901BLE68-01(48591DE3C19B)	-0.170	-1.077	0.319	-8.484	13.794	-25.513	-76.77	7.78	-59.86	-70.952	-54.488	-7.546	-0.74463	0.53290	-0.31400	0.25070	31.0	13111	100
2025-3-27 18:39:47.345	WT901BLE68-01(48591DE3C19B)	-0.265	-1.077	0.319	-8.484	13.794	-25.513	-76.89	7.54	-60.34	-70.952	-54.488	-7.546	-0.74463	0.53290	-0.31400	0.25070	31.0	13111	100
2025-3-27 18:39:47.374	WT901BLE68-01(48591DE3C19B)	-0.265	-1.178	0.364	-5.432	2.869	-29.541	-76.98	7.27	-60.76	-70.952	-54.488	-7.546	-0.74463	0.53290	-0.31400	0.25070	31.0	13111	100
2025-3-27 18:39:47.374	WT901BLE68-01(48591DE3C19B)	-0.258	-1.178	0.364	-5.432	2.869	-29.541	-77.04	6.98	-61.13	-70.952	-54.488	-7.546	-0.74463	0.53290	-0.31400	0.25070	31.0	13111	100
2025-3-27 18:39:47.375	WT901BLE68-01(48591DE3C19B)	-0.258	-1.137	0.358	-0.427	-8.850	-32.593	-77.07	6.67	-61.46	-70.952	-54.488	-7.546	-0.68887	0.51154	-0.35654	0.36951	31.0	13111	100
2025-3-27 18:39:47.375	WT901BLE68-01(48591DE3C19B)	-0.227	-1.137	0.358	-0.427	-8.850	-32.593	-77.06	6.33	-61.73	-70.952	-54.488	-7.546	-0.68887	0.51154	-0.35654	0.36951	31.0	13111	100
2025-3-27 18:39:47.462	WT901BLE68-01(48591DE3C19B)	-0.227	-1.031	0.324	1.892	-12.634	-33.691	-77.04	5.98	-61.98	-70.952	-54.488	-7.546	-0.68887	0.51154	-0.35654	0.36951	31.0	13111	100
2025-3-27 18:39:47.463	WT901BLE68-01(48591DE3C19B)	-0.229	-1.031	0.324	1.892	-12.634	-33.691	-77.00	5.63	-62.22	-70.952	-54.488	-7.546	-0.68887	0.51154	-0.35654	0.36951	31.0	13111	100
2025-3-27 18:39:47.463	WT901BLE68-01(48591DE3C19B)	-0.229	-0.914	0.292	3.174	-11.841	-31.982	-76.94	5.30	-62.46	-70.952	-54.488	-7.546	-0.68887	0.51154	-0.35654	0.36951	31.0	13111	100
2025-3-27 18:39:47.463	WT901BLE68-01(48591DE3C19B)	-0.247	-0.914	0.292	3.174	-11.841	-31.982	-76.89	4.97	-62.70	-70.952	-54.488	-7.546	-0.68887	0.51154	-0.35654	0.36951	31.0	13111	100
2025-3-27 18:39:47.464	WT901BLE68-01(48591DE3C19B)	-0.247	-0.809	0.302	2.258	-12.939	-29.175	-76.83	4.66	-62.94	-70.952	-54.488	-7.546	-0.68887	0.51154	-0.35654	0.36951	31.0	13111	100
2025-3-27 18:39:47.464	WT901BLE68-01(48591DE3C19B)	-0.232	-0.809	0.302	2.258	-12.939	-29.175	-76.77	4.37	-63.17	-70.952	-54.488	-7.546	-0.68887	0.51154	-0.35654	0.36951	31.0	13111	100
2025-3-27 18:39:47.464	WT901BLE68-01(48591DE3C19B)	-0.232	-0.737	0.324	-2.014	-15.625	-26.550	-76.75	4.10	-63.37	-70.952	-54.488	-7.546	-0.68887	0.51154	-0.35654	0.36951	31.0	13111	100
2025-3-27 18:39:47.464	WT901BLE68-01(48591DE3C19B)	-0.228	-0.737	0.324	-2.014	-15.625	-26.550	-76.72	3.83	-63.57	-70.952	-54.488	-7.546	-0.68887	0.51154	-0.35654	0.36951	31.0	13111	100
2025-3-27 18:39:47.494	WT901BLE68-01(48591DE3C19B)	-0.228	-0.705	0.349	-5.066	-14.771	-24.109	-76.72	3.59	-63.78	-70.952	-54.488	-7.546	-0.68887	0.51154	-0.35654	0.36951	31.0	13111	100
2025-3-27 18:39:47.494	WT901BLE68-01(48591DE3C19B)	-0.255	-0.705	0.349	-5.066	-14.771	-24.109	-76.72	3.36	-63.99	-70.952	-54.488	-7.546	-0.68887	0.51154	-0.35654	0.36951	31.0	13111	100
2025-3-27 18:39:47.494	WT901BLE68-01(48591DE3C19B)	-0.255	-0.697	0.362	-7.385	-12.451	-23.071	-76.73	3.14	-64.23	-70.952	-54.488	-7.546	-0.68887	0.51154	-0.35654	0.36951	31.0	13111	100
2025-3-27 18:39:47.494	WT901BLE68-01(48591DE3C19B)	-0.290	-0.697	0.362	-7.385	-12.451	-23.071	-76.74	2.92	-64.46	-70.952	-54.488	-7.546	-0.68887	0.51154	-0.35654	0.36951	31.0	13111	100
2025-3-27 18:39:47.554	WT901BLE68-01(48591DE3C19B)	-0.290	-0.722	0.365	-8.179	-12.756	-23.438	-76.75	2.70	-64.70	-70.952	-54.488	-7.546	-0.68887	0.51154	-0.35654	0.36951	31.0	13111	100
2025-3-27 18:39:47.555	WT901BLE68-01(48591DE3C19B)	-0.331	-0.722	0.365	-8.179	-12.756	-23.438	-76.76	2.48	-64.93	-70.952	-54.488	-7.546	-0.68887	0.51154	-0.35654	0.36951	31.0	13111	100
2025-3-27 18:39:47.555	WT901BLE68-01(48591DE3C19B)	-0.331	-0.778	0.375	-7.263	-15.320	-24.597	-76.74	2.25	-65.15	-70.952	-54.488	-7.546	-0.68887	0.51154	-0.35654	0.36951	31.0	13111	100
2025-3-27 18:39:47.555	WT901BLE68-01(48591DE3C19B)	-0.367	-0.778	0.375	-7.263	-15.320	-24.597	-76.73	2.02	-65.37	-70.952	-54.488	-7.546	-0.68887	0.51154	-0.35654	0.36951	31.0	13111	100
2025-3-27 18:39:47.591	WT901BLE68-01(48591DE3C19B)	-0.367	-0.849	0.392	-4.700	-18.066	-25.940	-76.69	1.77	-65.58	-70.952	-54.488	-7.546	-0.68887	0.51154	-0.35654	0.36951	31.0	13111	100
2025-3-27 18:39:47.591	WT901BLE68-01(48591DE3C19B)	-0.419	-0.849	0.392	-4.700	-18.066	-25.940	-76.64	1.53	-65.78	-70.952	-54.488	-7.546	-0.68887	0.51154	-0.35654	0.36951	31.0	13111	100
2025-3-27 18:39:47.591	WT901BLE68-01(48591DE3C19B)	-0.419	-0.941	0.426	-1.831	-19.470	-24.536	-76.56	1.31	-65.97	-70.952	-54.488	-7.546	-0.68887	0.51154	-0.35654	0.36951	31.0	13111	100
2025-3-27 18:39:47.591	WT901BLE68-01(48591DE3C19B)	-0.467	-0.941	0.426	-1.831	-19.470	-24.536	-76.49	1.08	-66.15	-66.640	-55.958	-8.526	-0.68887	0.51154	-0.35654	0.36951	31.0	13111	100
2025-3-27 18:39:47.642	WT901BLE68-01(48591DE3C19B)	-0.467	-1.038	0.444	2.563	-20.569	-21.729	-76.36	0.89	-66.32	-66.640	-55.958	-8.526	-0.68887	0.51154	-0.35654	0.36951	31.0	13111	100
2025-3-27 18:39:47.642	WT901BLE68-01(48591DE3C19B)	-0.487	-1.038	0.444	2.563	-20.569	-21.729	-76.23	0.70	-66.50	-66.640	-55.958	-8.526	-0.68887	0.51154	-0.35654	0.36951	31.0	13111	100
2025-3-27 18:39:47.643	WT901BLE68-01(48591DE3C19B)	-0.487	-1.130	0.444	6.531	-16.602	-15.320	-76.07	0.58	-66.70	-66.640	-55.958	-8.526	-0.68887	0.51154	-0.35654	0.36951	31.0	13111	100
2025-3-27 18:39:47.643	WT901BLE68-01(48591DE3C19B)	-0.459	-1.130	0.444	6.531	-16.602	-15.320	-75.90	0.47	-66.90	-66.640	-55.958	-8.526	-0.68887	0.51154	-0.35654	0.36951	31.0	13111	100
2025-3-27 18:39:47.671	WT901BLE68-01(48591DE3C19B)	-0.459	-1.208	0.416	10.132	-6.104	-4.822	-75.71	0.49	-67.16	-66.640	-55.958	-8.526	-0.68887	0.51154	-0.35654	0.36951	31.0	13111	100
2025-3-27 18:39:47.671	WT901BLE68-01(48591DE3C19B)	-0.410	-1.208	0.416	10.132	-6.104	-4.822	-75.51	0.51	-67.43	-66.640	-55.958	-8.526	-0.68887	0.51154	-0.35654	0.36951	31.0	13111	100
2025-3-27 18:39:47.671	WT901BLE68-01(48591DE3C19B)	-0.410	-1.252	0.350	11.475	10.559	7.507	-75.32	0.69	-67.82	-66.640	-55.958	-8.526	-0.68887	0.51154	-0.35654	0.36951	31.0	13111	100
2025-3-27 18:39:47.671	WT901BLE68-01(48591DE3C19B)	-0.372	-1.252	0.350	11.475	10.559	7.507	-75.12	0.87	-68.21	-66.640	-55.958	-8.526	-0.68887	0.51154	-0.35654	0.36951	31.0	13111	100
2025-3-27 18:39:47.702	WT901BLE68-01(48591DE3C19B)	-0.372	-1.280	0.302	10.254	28.931	17.944	-74.95	1.20	-68.74	-66.640	-55.958	-8.526	-0.68887	0.51154	-0.35654	0.36951	31.0	13111	100
2025-3-27 18:39:47.702	WT901BLE68-01(48591DE3C19B)	-0.383	-1.280	0.302	10.254	28.931	17.944	-74.79	1.53	-69.26	-66.640	-55.958	-8.526	-0.68887	0.51154	-0.35654	0.36951	31.0	13111	100
2025-3-27 18:39:47.702	WT901BLE68-01(48591DE3C19B)	-0.383	-1.303	0.298	5.066	44.861	25.024	-74.70	1.98	-69.91	-66.640	-55.958	-8.526	-0.68887	0.51154	-0.35654	0.36951	31.0	13111	100
2025-3-27 18:39:47.702	WT901BLE68-01(48591DE3C19B)	-0.456	-1.303	0.298	5.066	44.861	25.024	-74.61	2.42	-70.55	-66.640	-55.958	-8.526	-0.68887	0.51154	-0.35654	0.36951	31.0	13111	100
2025-3-27 18:39:47.731	WT901BLE68-01(48591DE3C19B)	-0.456	-1.309	0.344	-1.892	48.279	30.579	-74.60	2.92	-71.20	-66.640	-55.958	-8.526	-0.68887	0.51154	-0.35654	0.36951	31.0	13111	100
2025-3-27 18:39:47.731	WT901BLE68-01(48591DE3C19B)	-0.559	-1.309	0.344	-1.892	48.279	30.579	-74.59	3.42	-71.85	-66.640	-55.958	-8.526	-0.68887	0.51154	-0.35654	0.36951	31.0	13111	100
2025-3-27 18:39:47.732	WT901BLE68-01(48591DE3C19B)	-0.559	-1.297	0.400	-10.559	32.349	35.095	-74.67	3.92	-72.32	-66.640	-55.958	-8.526	-0.68887	0.51154	-0.35654	0.36951	31.0	13111	100
2025-3-27 18:39:47.732	WT901BLE68-01(48591DE3C19B)	-0.598	-1.297	0.400	-10.559	32.349	35.095	-74.75	4.42	-72.81	-66.640	-55.958	-8.526	-0.68887	0.51154	-0.35654	0.36951	31.0	13111	100
2025-3-27 18:39:47.792	WT901BLE68-01(48591DE3C19B)	-0.598	-1.207	0.397	-17.090	10.925	38.330	-74.87	4.89	-73.07	-66.640	-55.958	-8.526	-0.68887	0.51154	-0.35654	0.36951	31.0	13111	100
2025-3-27 18:39:47.792	WT901BLE68-01(48591DE3C19B)	-0.596	-1.207	0.397	-17.090	10.925	38.330	-75.00	5.37	-73.33	-66.640	-55.958	-8.526	-0.68887	0.51154	-0.35654	0.36951	31.0	13111	100
2025-3-27 18:39:47.792	WT901BLE68-01(48591DE3C19B)	-0.596	-1.034	0.358	-20.630	-13.733	44.678	-75.13	5.84	-73.34	-66.640	-55.958	-8.526	-0.68887	0.51154	-0.35654	0.36951	31.0	13111	100
2025-3-27 18:39:47.792	WT901BLE68-01(48591DE3C19B)	-0.586	-1.034	0.358	-20.630	-13.733	44.678	-75.26	6.32	-73.36	-66.640	-55.958	-8.526	-0.68887	0.51154	-0.35654	0.36951	31.0	13111	100
2025-3-27 18:39:47.821	WT901BLE68-01(48591DE3C19B)	-0.586	-0.927	0.301	-23.865	-50.659	58.655	-75.37	6.84	-72.98	-66.640	-55.958	-8.526	-0.65674	0.46252	-0.40088	0.44043	31.0	13111	100
2025-3-27 18:39:47.822	WT901BLE68-01(48591DE3C19B)	-0.475	-0.927	0.301	-23.865	-50.659	58.655	-75.48	7.36	-72.60	-66.640	-55.958	-8.526	-0.65674	0.46252	-0.40088	0.44043	31.0	13111	100
2025-3-27 18:39:47.822	WT901BLE68-01(48591DE3C19B)	-0.237	-0.888	0.205	-22.339	-81.299	74.036	-75.52	7.95	-71.89	-66.640	-55.958	-8.526	-0.65674	0.46252	-0.40088	0.44043	31.0	13111	100
2025-3-27 18:39:47.822	WT901BLE68-01(48591DE3C19B)	-0.292	-0.444	0.103	-22.339	-81.299	74.036	-75.55	8.55	-71.18	-66.640	-55.958	-8.526	-0.65674	0.46252	-0.40088	0.44043	31.0	13111	100
2025-3-27 18:39:47.851	WT901BLE68-01(48591DE3C19B)	-0.292	-0.870	0.071	-18.250	-92.712	88.562	-75.51	9.24	-70.31	-66.640	-55.958	-8.526	-0.65674	0.46252	-0.40088	0.44043	31.0	13111	100
2025-3-27 18:39:47.851	WT901BLE68-01(48591DE3C19B)	-0.185	-0.870	0.071	-18.250	-92.712	88.562	-75.47	9.94	-69.43	-66.640	-55.958	-8.526	-0.65674	0.46252	-0.40088	0.44043	31.0	13111	100
2025-3-27 18:39:47.852	WT901BLE68-01(48591DE3C19B)	-0.185	-0.863	-0.029	-12.024	-89.355	98.572	-75.36	10.74	-68.55	-66.640	-55.958	-8.526	-0.65674	0.46252	-0.40088	0.44043	31.0	13111	100
2025-3-27 18:39:47.852	WT901BLE68-01(48591DE3C19B)	-0.148	-0.863	-0.029	-12.024	-89.355	98.572	-75.25	11.53	-67.66	-66.640	-55.958	-8.526	-0.65674	0.46252	-0.40088	0.44043	31.0	13111	100
2025-3-27 18:39:47.912	WT901BLE68-01(48591DE3C19B)	-0.148	-0.899	-0.063	-6.775	-77.515	101.013	-75.11	12.37	-66.87	-66.640	-55.958	-8.526	-0.65674	0.46252	-0.40088	0.44043	31.0	13111	100
2025-3-27 18:39:47.912	WT901BLE68-01(48591DE3C19B)	-0.145	-0.899	-0.063	-6.775	-77.515	101.013	-74.96	13.19	-66.07	-66.640	-55.958	-8.526	-0.65674	0.46252	-0.40088	0.44043	31.0	13111	100
2025-3-27 18:39:47.912	WT901BLE68-01(48591DE3C19B)	-0.145	-0.982	-0.016	-1.099	-65.247	102.295	-74.78	14.05	-65.37	-66.640	-55.958	-8.526	-0.65674	0.46252	-0.40088	0.44043	31.0	13111	100
2025-3-27 18:39:47.913	WT901BLE68-01(48591DE3C19B)	-0.113	-0.982	-0.016	-1.099	-65.247	102.295	-74.59	14.89	-64.66	-66.640	-55.958	-8.526	-0.65674	0.46252	-0.40088	0.44043	31.0	13111	100
2025-3-27 18:39:47.944	WT901BLE68-01(48591DE3C19B)	-0.027	-1.000	0.020	9.033	-52.124	104.004	-74.33	15.78	-64.07	-66.640	-55.958	-8.526	-0.65674	0.46252	-0.40088	0.44043	31.0	13111	100
2025-3-27 18:39:47.944	WT901BLE68-01(48591DE3C19B)	-0.027	-0.933	0.029	14.832	-31.128	105.774	-74.06	16.68	-63.57	-66.640	-55.958	-8.526	-0.65674	0.46252	-0.40088	0.44043	31.0	13111	100
2025-3-27 18:39:47.944	WT901BLE68-01(48591DE3C19B)	0.035	-0.933	0.029	14.832	-31.128	105.774	-73.80	17.62	-63.17	-66.640	-55.958	-8.526	-0.65674	0.46252	-0.40088	0.44043	31.0	13111	100
2025-3-27 18:39:47.944	WT901BLE68-01(48591DE3C19B)	0.035	-0.915	0.004	16.296	-2.380	106.140	-73.56	18.58	-62.91	-66.640	-55.958	-8.526	-0.65674	0.46252	-0.40088	0.44043	31.0	13111	100
2025-3-27 18:39:47.974	WT901BLE68-01(48591DE3C19B)	0.039	-0.915	0.004	16.296	-2.380	106.140	-73.37	19.57	-62.78	-66.640	-55.958	-8.526	-0.65674	0.46252	-0.40088	0.44043	31.0	13111	100
2025-3-27 18:39:47.974	WT901BLE68-01(48591DE3C19B)	0.039	-0.978	-0.019	13.611	23.560	105.347	-73.23	20.57	-62.78	-66.640	-55.958	-8.526	-0.65674	0.46252	-0.40088	0.44043	31.0	13111	100
2025-3-27 18:39:47.975	WT901BLE68-01(48591DE3C19B)	0.058	-0.978	-0.019	13.611	23.560	105.347	-73.17	21.60	-62.91	-81.438	-47.334	-5.194	-0.65674	0.46252	-0.40088	0.44043	31.0	13111	100
2025-3-27 18:39:47.975	WT901BLE68-01(48591DE3C19B)	0.058	-1.079	-0.028	7.874	39.978	102.234	-73.17	22.63	-63.13	-81.438	-47.334	-5.194	-0.65674	0.46252	-0.40088	0.44043	31.0	13111	100
2025-3-27 18:39:48.32	WT901BLE68-01(48591DE3C19B)	0.063	-1.079	-0.028	7.874	39.978	102.234	-73.24	23.65	-63.44	-81.438	-47.334	-5.194	-0.65674	0.46252	-0.40088	0.44043	31.0	13111	100
2025-3-27 18:39:48.33	WT901BLE68-01(48591DE3C19B)	0.063	-1.195	-0.014	1.587	46.875	96.497	-73.37	24.65	-63.79	-81.438	-47.334	-5.194	-0.65674	0.46252	-0.40088	0.44043	31.0	13111	100
2025-3-27 18:39:48.33	WT901BLE68-01(48591DE3C19B)	0.080	-1.195	-0.014	1.587	46.875	96.497	-73.56	25.61	-64.19	-81.438	-47.334	-5.194	-0.65674	0.46252	-0.40088	0.44043	31.0	13111	100
2025-3-27 18:39:48.33	WT901BLE68-01(48591DE3C19B)	0.080	-1.320	0.003	-6.592	41.138	87.952	-73.80	26.51	-64.59	-81.438	-47.334	-5.194	-0.65674	0.46252	-0.40088	0.44043	31.0	13111	100
2025-3-27 18:39:48.61	WT901BLE68-01(48591DE3C19B)	0.122	-1.320	0.003	-6.592	41.138	87.952	-74.07	27.36	-64.97	-81.438	-47.334	-5.194	-0.65674	0.46252	-0.40088	0.44043	31.0	13111	100
2025-3-27 18:39:48.62	WT901BLE68-01(48591DE3C19B)	0.122	-1.376	0.015	-11.963	19.531	78.186	-74.33	28.11	-65.25	-81.438	-47.334	-5.194	-0.65674	0.46252	-0.40088	0.44043	31.0	13111	100
2025-3-27 18:39:48.62	WT901BLE68-01(48591DE3C19B)	0.170	-1.376	0.015	-11.963	19.531	78.186	-74.58	28.78	-65.44	-81.438	-47.334	-5.194	-0.65674	0.46252	-0.40088	0.44043	31.0	13111	100
2025-3-27 18:39:48.62	WT901BLE68-01(48591DE3C19B)	0.170	-1.432	0.031	-18.494	-7.568	60.608	-74.79	29.32	-65.51	-81.438	-47.334	-5.194	-0.65674	0.46252	-0.40088	0.44043	31.0	13111	100
2025-3-27 18:39:48.92	WT901BLE68-01(48591DE3C19B)	0.188	-1.432	0.031	-18.494	-7.568	60.608	-74.99	29.73	-65.46	-81.438	-47.334	-5.194	-0.65674	0.46252	-0.40088	0.44043	31.0	13111	100
2025-3-27 18:39:48.92	WT901BLE68-01(48591DE3C19B)	0.188	-1.633	0.059	-27.039	-24.292	39.307	-75.20	30.02	-65.36	-81.438	-47.334	-5.194	-0.65674	0.46252	-0.40088	0.44043	31.0	13111	100
2025-3-27 18:39:48.92	WT901BLE68-01(48591DE3C19B)	0.209	-1.633	0.059	-27.039	-24.292	39.307	-75.42	30.17	-65.19	-81.438	-47.334	-5.194	-0.65674	0.46252	-0.40088	0.44043	31.0	13111	100
2025-3-27 18:39:48.92	WT901BLE68-01(48591DE3C19B)	0.209	-1.820	0.042	-21.545	-31.372	17.334	-75.60	30.21	-65.02	-81.438	-47.334	-5.194	-0.65674	0.46252	-0.40088	0.44043	31.0	13111	100
2025-3-27 18:39:48.155	WT901BLE68-01(48591DE3C19B)	0.223	-1.820	0.042	-21.545	-31.372	17.334	-75.76	30.14	-64.84	-81.438	-47.334	-5.194	-0.65674	0.46252	-0.40088	0.44043	31.0	13111	100
2025-3-27 18:39:48.155	WT901BLE68-01(48591DE3C19B)	0.223	-1.646	0.078	-13.916	-34.302	-5.554	-75.88	29.94	-64.68	-81.438	-47.334	-5.194	-0.65674	0.46252	-0.40088	0.44043	31.0	13111	100
2025-3-27 18:39:48.155	WT901BLE68-01(48591DE3C19B)	0.295	-1.646	0.078	-13.916	-34.302	-5.554	-75.98	29.63	-64.53	-81.438	-47.334	-5.194	-0.65674	0.46252	-0.40088	0.44043	31.0	13111	100
2025-3-27 18:39:48.155	WT901BLE68-01(48591DE3C19B)	0.295	-1.488	0.140	-15.991	-32.227	-31.555	-76.11	29.20	-64.44	-81.438	-47.334	-5.194	-0.65674	0.46252	-0.40088	0.44043	31.0	13111	100
2025-3-27 18:39:48.195	WT901BLE68-01(48591DE3C19B)	0.333	-1.488	0.140	-15.991	-32.227	-31.555	-76.27	28.64	-64.40	-81.438	-47.334	-5.194	-0.65674	0.46252	-0.40088	0.44043	31.0	13111	100
2025-3-27 18:39:48.195	WT901BLE68-01(48591DE3C19B)	0.333	-1.384	0.188	-11.108	-17.456	-54.810	-76.46	27.98	-64.46	-81.438	-47.334	-5.194	-0.65674	0.46252	-0.40088	0.44043	31.0	13111	100
2025-3-27 18:39:48.195	WT901BLE68-01(48591DE3C19B)	0.264	-1.384	0.188	-11.108	-17.456	-54.810	-76.68	27.23	-64.63	-81.438	-47.334	-5.194	-0.65674	0.46252	-0.40088	0.44043	31.0	13111	100
2025-3-27 18:39:48.195	WT901BLE68-01(48591DE3C19B)	0.264	-1.338	0.200	-5.859	11.414	-76.660	-76.94	26.41	-64.98	-81.438	-47.334	-5.194	-0.71918	0.41479	-0.47620	0.28955	31.0	13111	100
2025-3-27 18:39:48.214	WT901BLE68-01(48591DE3C19B)	0.199	-1.338	0.200	-5.859	11.414	-76.660	-77.26	25.51	-65.51	-81.438	-47.334	-5.194	-0.71918	0.41479	-0.47620	0.28955	31.0	13111	100
2025-3-27 18:39:48.214	WT901BLE68-01(48591DE3C19B)	0.199	-1.293	0.108	8.606	46.509	-98.877	-77.57	24.54	-66.24	-81.438	-47.334	-5.194	-0.71918	0.41479	-0.47620	0.28955	31.0	13111	100
2025-3-27 18:39:48.214	WT901BLE68-01(48591DE3C19B)	0.159	-1.293	0.108	8.606	46.509	-98.877	-77.88	23.51	-67.17	-81.438	-47.334	-5.194	-0.71918	0.41479	-0.47620	0.28955	31.0	13111	100
2025-3-27 18:39:48.214	WT901BLE68-01(48591DE3C19B)	0.159	-1.029	0.070	19.653	72.449	-113.342	-78.17	22.42	-68.24	-81.438	-47.334	-5.194	-0.71918	0.41479	-0.47620	0.28955	31.0	13111	100
2025-3-27 18:39:48.272	WT901BLE68-01(48591DE3C19B)	0.082	-1.029	0.070	19.653	72.449	-113.342	-78.45	21.30	-69.43	-81.438	-47.334	-5.194	-0.71918	0.41479	-0.47620	0.28955	31.0	13111	100
2025-3-27 18:39:48.273	WT901BLE68-01(48591DE3C19B)	0.082	-0.870	0.071	16.968	83.435	-125.061	-78.73	20.13	-70.68	-81.438	-47.334	-5.194	-0.71918	0.41479	-0.47620	0.28955	31.0	13111	100
2025-3-27 18:39:48.273	WT901BLE68-01(48591DE3C19B)	0.000	-0.870	0.071	16.968	83.435	-125.061	-79.01	18.92	-71.97	-81.438	-47.334	-5.194	-0.71918	0.41479	-0.47620	0.28955	31.0	13111	100
2025-3-27 18:39:48.273	WT901BLE68-01(48591DE3C19B)	0.000	-0.914	0.097	10.437	85.754	-137.085	-79.30	17.65	-73.27	-81.438	-47.334	-5.194	-0.71918	0.41479	-0.47620	0.28955	31.0	13111	100
2025-3-27 18:39:48.332	WT901BLE68-01(48591DE3C19B)	-0.154	-0.914	0.097	10.437	85.754	-137.085	-79.60	16.33	-74.56	-81.438	-47.334	-5.194	-0.71918	0.41479	-0.47620	0.28955	31.0	13111	100
2025-3-27 18:39:48.333	WT901BLE68-01(48591DE3C19B)	-0.154	-1.045	0.132	9.705	77.515	-142.029	-79.86	14.98	-75.80	-81.438	-47.334	-5.194	-0.71918	0.41479	-0.47620	0.28955	31.0	13111	100
2025-3-27 18:39:48.333	WT901BLE68-01(48591DE3C19B)	-0.311	-1.045	0.132	9.705	77.515	-142.029	-80.07	13.61	-76.98	-81.438	-47.334	-5.194	-0.71918	0.41479	-0.47620	0.28955	31.0	13111	100
2025-3-27 18:39:48.333	WT901BLE68-01(48591DE3C19B)	-0.311	-1.104	0.185	11.597	49.561	-144.348	-80.21	12.22	-78.00	-81.438	-47.334	-5.194	-0.71918	0.41479	-0.47620	0.28955	31.0	13111	100
2025-3-27 18:39:48.364	WT901BLE68-01(48591DE3C19B)	-0.349	-1.104	0.185	11.597	49.561	-144.348	-80.29	10.81	-78.88	-81.438	-47.334	-5.194	-0.71918	0.41479	-0.47620	0.28955	31.0	13111	100
2025-3-27 18:39:48.364	WT901BLE68-01(48591DE3C19B)	-0.349	-1.081	0.222	9.583	13.611	-146.790	-80.32	9.37	-79.57	-81.438	-47.334	-5.194	-0.71918	0.41479	-0.47620	0.28955	31.0	13111	100
2025-3-27 18:39:48.364	WT901BLE68-01(48591DE3C19B)	-0.332	-1.081	0.222	9.583	13.611	-146.790	-80.30	7.91	-80.08	-81.438	-47.334	-5.194	-0.71918	0.41479	-0.47620	0.28955	31.0	13111	100
2025-3-27 18:39:48.365	WT901BLE68-01(48591DE3C19B)	-0.332	-0.996	0.238	5.859	-10.620	-148.071	-80.28	6.44	-80.48	-81.438	-47.334	-5.194	-0.71918	0.41479	-0.47620	0.28955	31.0	13111	100
2025-3-27 18:39:48.394	WT901BLE68-01(48591DE3C19B)	-0.357	-0.996	0.238	5.859	-10.620	-148.071	-80.25	4.97	-80.76	-81.438	-47.334	-5.194	-0.71918	0.41479	-0.47620	0.28955	31.0	13111	100
2025-3-27 18:39:48.394	WT901BLE68-01(48591DE3C19B)	-0.357	-0.884	0.239	2.136	-28.564	-146.973	-80.22	3.49	-80.94	-81.438	-47.334	-5.194	-0.71918	0.41479	-0.47620	0.28955	31.0	13111	100
2025-3-27 18:39:48.394	WT901BLE68-01(48591DE3C19B)	-0.366	-0.884	0.239	2.136	-28.564	-146.973	-80.19	2.02	-81.05	-81.438	-47.334	-5.194	-0.71918	0.41479	-0.47620	0.28955	31.0	13111	100
2025-3-27 18:39:48.394	WT901BLE68-01(48591DE3C19B)	-0.366	-0.759	0.252	-1.709	-44.556	-143.921	-80.21	0.57	-81.00	-72.030	-48.706	-9.016	-0.71918	0.41479	-0.47620	0.28955	31.0	13111	100
2025-3-27 18:39:48.424	WT901BLE68-01(48591DE3C19B)	-0.309	-0.759	0.252	-1.709	-44.556	-143.921	-80.21	-0.86	-80.95	-72.030	-48.706	-9.016	-0.71918	0.41479	-0.47620	0.28955	31.0	13111	100
2025-3-27 18:39:48.425	WT901BLE68-01(48591DE3C19B)	-0.309	-0.652	0.305	-6.958	-48.157	-137.817	-80.26	-2.22	-80.86	-72.030	-48.706	-9.016	-0.71918	0.41479	-0.47620	0.28955	31.0	13111	100
2025-3-27 18:39:48.425	WT901BLE68-01(48591DE3C19B)	-0.273	-0.652	0.305	-6.958	-48.157	-137.817	-80.30	-3.58	-80.78	-72.030	-48.706	-9.016	-0.71918	0.41479	-0.47620	0.28955	31.0	13111	100
2025-3-27 18:39:48.425	WT901BLE68-01(48591DE3C19B)	-0.273	-0.593	0.360	-10.986	-39.001	-129.944	-80.38	-4.83	-80.78	-72.030	-48.706	-9.016	-0.71918	0.41479	-0.47620	0.28955	31.0	13111	100
2025-3-27 18:39:48.482	WT901BLE68-01(48591DE3C19B)	-0.348	-0.593	0.360	-10.986	-39.001	-129.944	-80.45	-6.07	-80.79	-72.030	-48.706	-9.016	-0.71918	0.41479	-0.47620	0.28955	31.0	13111	100
2025-3-27 18:39:48.482	WT901BLE68-01(48591DE3C19B)	-0.348	-0.591	0.390	-9.705	-30.701	-117.371	-80.49	-7.17	-80.87	-72.030	-48.706	-9.016	-0.71918	0.41479	-0.47620	0.28955	31.0	13111	100
2025-3-27 18:39:48.483	WT901BLE68-01(48591DE3C19B)	-0.537	-0.591	0.390	-9.705	-30.701	-117.371	-80.51	-8.26	-80.96	-72.030	-48.706	-9.016	-0.71918	0.41479	-0.47620	0.28955	31.0	13111	100
2025-3-27 18:39:48.483	WT901BLE68-01(48591DE3C19B)	-0.537	-0.626	0.359	-6.897	-37.170	-100.037	-80.52	-9.17	-80.97	-72.030	-48.706	-9.016	-0.71918	0.41479	-0.47620	0.28955	31.0	13111	100
2025-3-27 18:39:48.514	WT901BLE68-01(48591DE3C19B)	-0.550	-0.626	0.359	-6.897	-37.170	-100.037	-80.51	-10.07	-80.99	-72.030	-48.706	-9.016	-0.71918	0.41479	-0.47620	0.28955	31.0	13111	100
2025-3-27 18:39:48.514	WT901BLE68-01(48591DE3C19B)	-0.550	-0.696	0.242	-10.376	-59.998	-77.393	-80.58	-10.78	-80.76	-72.030	-48.706	-9.016	-0.71918	0.41479	-0.47620	0.28955	31.0	13111	100
2025-3-27 18:39:48.514	WT901BLE68-01(48591DE3C19B)	-0.484	-0.696	0.242	-10.376	-59.998	-77.393	-80.66	-11.47	-80.52	-72.030	-48.706	-9.016	-0.71918	0.41479	-0.47620	0.28955	31.0	13111	100
2025-3-27 18:39:48.514	WT901BLE68-01(48591DE3C19B)	-0.484	-0.771	0.236	-4.211	-77.881	-46.997	-80.71	-11.88	-80.06	-72.030	-48.706	-9.016	-0.71918	0.41479	-0.47620	0.28955	31.0	13111	100
2025-3-27 18:39:48.542	WT901BLE68-01(48591DE3C19B)	-0.438	-0.771	0.236	-4.211	-77.881	-46.997	-80.77	-12.29	-79.61	-72.030	-48.706	-9.016	-0.71918	0.41479	-0.47620	0.28955	31.0	13111	100
2025-3-27 18:39:48.542	WT901BLE68-01(48591DE3C19B)	-0.438	-0.785	0.321	7.263	-60.608	-21.545	-80.69	-12.41	-79.29	-72.030	-48.706	-9.016	-0.71918	0.41479	-0.47620	0.28955	31.0	13111	100
2025-3-27 18:39:48.542	WT901BLE68-01(48591DE3C19B)	-0.463	-0.785	0.321	7.263	-60.608	-21.545	-80.60	-12.54	-78.98	-72.030	-48.706	-9.016	-0.71918	0.41479	-0.47620	0.28955	31.0	13111	100
2025-3-27 18:39:48.542	WT901BLE68-01(48591DE3C19B)	-0.463	-0.833	0.449	11.597	-21.606	-3.662	-80.39	-12.43	-79.03	-72.030	-48.706	-9.016	-0.71918	0.41479	-0.47620	0.28955	31.0	13111	100
2025-3-27 18:39:48.602	WT901BLE68-01(48591DE3C19B)	-0.562	-0.833	0.449	11.597	-21.606	-3.662	-80.17	-12.32	-79.09	-72.030	-48.706	-9.016	-0.71918	0.41479	-0.47620	0.28955	31.0	13111	100
2025-3-27 18:39:48.602	WT901BLE68-01(48591DE3C19B)	-0.562	-0.965	0.542	13.367	13.428	9.827	-79.87	-12.02	-79.48	-72.030	-48.706	-9.016	-0.71918	0.41479	-0.47620	0.28955	31.0	13111	100
2025-3-27 18:39:48.602	WT901BLE68-01(48591DE3C19B)	-0.685	-0.965	0.542	13.367	13.428	9.827	-79.55	-11.72	-79.87	-72.030	-48.706	-9.016	-0.71918	0.41479	-0.47620	0.28955	31.0	13111	100
2025-3-27 18:39:48.602	WT901BLE68-01(48591DE3C19B)	-0.685	-1.115	0.593	14.648	32.959	17.212	-79.19	-11.32	-80.45	-72.030	-48.706	-9.016	-0.71918	0.41479	-0.47620	0.28955	31.0	13111	100
2025-3-27 18:39:48.631	WT901BLE68-01(48591DE3C19B)	-0.714	-1.115	0.593	14.648	32.959	17.212	-78.83	-10.91	-81.02	-72.030	-48.706	-9.016	-0.54572	0.52542	-0.35666	0.54663	31.0	13111	100
2025-3-27 18:39:48.631	WT901BLE68-01(48591DE3C19B)	-0.714	-1.230	0.604	13.855	42.419	23.193	-78.47	-10.43	-81.67	-72.030	-48.706	-9.016	-0.54572	0.52542	-0.35666	0.54663	31.0	13111	100
2025-3-27 18:39:48.631	WT901BLE68-01(48591DE3C19B)	-0.725	-1.230	0.604	13.855	42.419	23.193	-78.11	-9.94	-82.32	-72.030	-48.706	-9.016	-0.54572	0.52542	-0.35666	0.54663	31.0	13111	100
2025-3-27 18:39:48.631	WT901BLE68-01(48591DE3C19B)	-0.725	-1.307	0.559	13.184	50.842	33.447	-77.76	-9.33	-83.02	-72.030	-48.706	-9.016	-0.54572	0.52542	-0.35666	0.54663	31.0	13111	100
2025-3-27 18:39:48.662	WT901BLE68-01(48591DE3C19B)	-0.747	-1.307	0.559	13.184	50.842	33.447	-77.42	-8.73	-83.70	-72.030	-48.706	-9.016	-0.54572	0.52542	-0.35666	0.54663	31.0	13111	100
2025-3-27 18:39:48.662	WT901BLE68-01(48591DE3C19B)	-0.747	-1.311	0.512	11.719	57.190	48.340	-77.10	-7.96	-84.42	-72.030	-48.706	-9.016	-0.54572	0.52542	-0.35666	0.54663	31.0	13111	100
2025-3-27 18:39:48.662	WT901BLE68-01(48591DE3C19B)	-0.803	-1.311	0.512	11.719	57.190	48.340	-76.79	-7.19	-85.12	-72.030	-48.706	-9.016	-0.54572	0.52542	-0.35666	0.54663	31.0	13111	100
2025-3-27 18:39:48.662	WT901BLE68-01(48591DE3C19B)	-0.803	-1.282	0.477	11.292	51.331	64.331	-76.51	-6.28	-85.72	-72.030	-48.706	-9.016	-0.54572	0.52542	-0.35666	0.54663	31.0	13111	100
2025-3-27 18:39:48.722	WT901BLE68-01(48591DE3C19B)	-0.791	-1.282	0.477	11.292	51.331	64.331	-76.25	-5.36	-86.31	-72.030	-48.706	-9.016	-0.54572	0.52542	-0.35666	0.54663	31.0	13111	100
2025-3-27 18:39:48.722	WT901BLE68-01(48591DE3C19B)	-0.791	-1.161	0.412	11.475	26.733	85.083	-76.01	-4.31	-86.60	-72.030	-48.706	-9.016	-0.54572	0.52542	-0.35666	0.54663	31.0	13111	100
2025-3-27 18:39:48.722	WT901BLE68-01(48591DE3C19B)	-0.695	-1.161	0.412	11.475	26.733	85.083	-75.78	-3.25	-86.89	-72.030	-48.706	-9.016	-0.54572	0.52542	-0.35666	0.54663	31.0	13111	100
2025-3-27 18:39:48.723	WT901BLE68-01(48591DE3C19B)	-0.695	-1.000	0.292	7.629	-9.705	109.192	-75.62	-2.06	-86.75	-72.030	-48.706	-9.016	-0.54572	0.52542	-0.35666	0.54663	31.0	13111	100
2025-3-27 18:39:48.754	WT901BLE68-01(48591DE3C19B)	-0.578	-1.000	0.292	7.629	-9.705	109.192	-75.46	-0.87	-86.61	-72.030	-48.706	-9.016	-0.54572	0.52542	-0.35666	0.54663	31.0	13111	100
2025-3-27 18:39:48.754	WT901BLE68-01(48591DE3C19B)	-0.578	-0.940	0.175	-0.305	-47.974	133.362	-75.38	0.46	-86.03	-72.030	-48.706	-9.016	-0.54572	0.52542	-0.35666	0.54663	31.0	13111	100
2025-3-27 18:39:48.754	WT901BLE68-01(48591DE3C19B)	-0.448	-0.940	0.175	-0.305	-47.974	133.362	-75.28	1.77	-85.45	-72.030	-48.706	-9.016	-0.54572	0.52542	-0.35666	0.54663	31.0	13111	100
2025-3-27 18:39:48.754	WT901BLE68-01(48591DE3C19B)	-0.448	-1.098	0.099	-9.033	-79.285	152.832	-75.25	3.20	-84.51	-72.030	-48.706	-9.016	-0.54572	0.52542	-0.35666	0.54663	31.0	13111	100
2025-3-27 18:39:48.790	WT901BLE68-01(48591DE3C19B)	-0.318	-1.098	0.099	-9.033	-79.285	152.832	-75.21	4.61	-83.55	-72.030	-48.706	-9.016	-0.54572	0.52542	-0.35666	0.54663	31.0	13111	100
2025-3-27 18:39:48.790	WT901BLE68-01(48591DE3C19B)	-0.318	-1.292	0.008	-1.892	-94.360	170.776	-75.06	6.14	-82.38	-72.030	-48.706	-9.016	-0.54572	0.52542	-0.35666	0.54663	31.0	13111	100
2025-3-27 18:39:48.791	WT901BLE68-01(48591DE3C19B)	-0.222	-1.292	0.008	-1.892	-94.360	170.776	-74.89	7.66	-81.19	-76.538	-49.196	-7.448	-0.54572	0.52542	-0.35666	0.54663	31.0	13111	100
2025-3-27 18:39:48.791	WT901BLE68-01(48591DE3C19B)	-0.222	-1.329	-0.037	10.193	-97.839	182.739	-74.56	9.26	-79.91	-76.538	-49.196	-7.448	-0.54572	0.52542	-0.35666	0.54663	31.0	13111	100
2025-3-27 18:39:48.842	WT901BLE68-01(48591DE3C19B)	-0.167	-1.329	-0.037	10.193	-97.839	182.739	-74.22	10.84	-78.62	-76.538	-49.196	-7.448	-0.54572	0.52542	-0.35666	0.54663	31.0	13111	100
2025-3-27 18:39:48.842	WT901BLE68-01(48591DE3C19B)	-0.167	-1.357	-0.017	20.508	-96.069	187.561	-73.74	12.44	-77.30	-76.538	-49.196	-7.448	-0.54572	0.52542	-0.35666	0.54663	31.0	13111	100
2025-3-27 18:39:48.843	WT901BLE68-01(48591DE3C19B)	-0.101	-1.357	-0.017	20.508	-96.069	187.561	-73.23	14.01	-75.96	-76.538	-49.196	-7.448	-0.54572	0.52542	-0.35666	0.54663	31.0	13111	100
2025-3-27 18:39:48.843	WT901BLE68-01(48591DE3C19B)	-0.021	-1.412	0.014	33.264	-83.435	187.073	-72.60	15.59	-74.72	-76.538	-49.196	-7.448	-0.54572	0.52542	-0.35666	0.54663	31.0	13111	100
2025-3-27 18:39:48.872	WT901BLE68-01(48591DE3C19B)	-0.021	-1.372	0.038	48.218	-57.983	186.829	-71.89	17.17	-73.58	-76.538	-49.196	-7.448	-0.54572	0.52542	-0.35666	0.54663	31.0	13111	100
2025-3-27 18:39:48.872	WT901BLE68-01(48591DE3C19B)	0.035	-1.372	0.038	48.218	-57.983	186.829	-71.11	18.76	-72.53	-76.538	-49.196	-7.448	-0.54572	0.52542	-0.35666	0.54663	31.0	13111	100
2025-3-27 18:39:48.872	WT901BLE68-01(48591DE3C19B)	0.035	-1.195	0.065	54.749	-20.996	183.899	-70.34	20.36	-71.65	-76.538	-49.196	-7.448	-0.54572	0.52542	-0.35666	0.54663	31.0	13111	100
2025-3-27 18:39:48.872	WT901BLE68-01(48591DE3C19B)	0.032	-1.195	0.065	54.749	-20.996	183.899	-69.58	21.98	-70.93	-76.538	-49.196	-7.448	-0.54572	0.52542	-0.35666	0.54663	31.0	13111	100
2025-3-27 18:39:48.901	WT901BLE68-01(48591DE3C19B)	0.032	-1.113	0.052	48.096	20.203	179.138	-68.90	23.63	-70.39	-76.538	-49.196	-7.448	-0.54572	0.52542	-0.35666	0.54663	31.0	13111	100
2025-3-27 18:39:48.901	WT901BLE68-01(48591DE3C19B)	0.016	-1.113	0.052	48.096	20.203	179.138	-68.33	25.31	-70.06	-76.538	-49.196	-7.448	-0.54572	0.52542	-0.35666	0.54663	31.0	13111	100
2025-3-27 18:39:48.901	WT901BLE68-01(48591DE3C19B)	0.016	-1.124	0.021	39.734	46.326	173.462	-67.86	26.99	-69.85	-76.538	-49.196	-7.448	-0.54572	0.52542	-0.35666	0.54663	31.0	13111	100
2025-3-27 18:39:48.901	WT901BLE68-01(48591DE3C19B)	0.009	-1.124	0.021	39.734	46.326	173.462	-67.48	28.67	-69.78	-76.538	-49.196	-7.448	-0.54572	0.52542	-0.35666	0.54663	31.0	13111	100
2025-3-27 18:39:48.964	WT901BLE68-01(48591DE3C19B)	0.009	-1.129	0.009	28.381	52.185	166.870	-67.18	30.33	-69.74	-76.538	-49.196	-7.448	-0.54572	0.52542	-0.35666	0.54663	31.0	13111	100
2025-3-27 18:39:48.964	WT901BLE68-01(48591DE3C19B)	-0.002	-1.129	0.009	28.381	52.185	166.870	-66.95	31.95	-69.74	-76.538	-49.196	-7.448	-0.54572	0.52542	-0.35666	0.54663	31.0	13111	100
2025-3-27 18:39:48.964	WT901BLE68-01(48591DE3C19B)	-0.002	-1.226	-0.010	14.038	46.143	159.363	-66.79	33.51	-69.71	-76.538	-49.196	-7.448	-0.54572	0.52542	-0.35666	0.54663	31.0	13111	100
2025-3-27 18:39:48.964	WT901BLE68-01(48591DE3C19B)	0.000	-1.226	-0.010	14.038	46.143	159.363	-66.69	35.02	-69.68	-76.538	-49.196	-7.448	-0.54572	0.52542	-0.35666	0.54663	31.0	13111	100
2025-3-27 18:39:48.994	WT901BLE68-01(48591DE3C19B)	0.000	-1.421	-0.057	0.000	33.203	148.132	-66.63	36.44	-69.59	-76.538	-49.196	-7.448	-0.54572	0.52542	-0.35666	0.54663	31.0	13111	100
2025-3-27 18:39:48.994	WT901BLE68-01(48591DE3C19B)	0.029	-1.421	-0.057	0.000	33.203	148.132	-66.62	37.77	-69.46	-76.538	-49.196	-7.448	-0.54572	0.52542	-0.35666	0.54663	31.0	13111	100
2025-3-27 18:39:48.994	WT901BLE68-01(48591DE3C19B)	0.029	-1.616	-0.133	-11.963	22.217	136.658	-66.64	39.01	-69.29	-76.538	-49.196	-7.448	-0.54572	0.52542	-0.35666	0.54663	31.0	13111	100
2025-3-27 18:39:48.994	WT901BLE68-01(48591DE3C19B)	0.115	-1.616	-0.133	-11.963	22.217	136.658	-66.70	40.18	-69.08	-76.538	-49.196	-7.448	-0.75366	0.26022	-0.53165	0.28546	31.0	13111	100
2025-3-27 18:39:49.24	WT901BLE68-01(48591DE3C19B)	0.115	-1.860	-0.150	-18.921	20.691	121.826	-66.82	41.26	-68.92	-76.538	-49.196	-7.448	-0.75366	0.26022	-0.53165	0.28546	31.0	13111	100
2025-3-27 18:39:49.24	WT901BLE68-01(48591DE3C19B)	0.320	-1.860	-0.150	-18.921	20.691	121.826	-66.99	42.27	-68.78	-76.538	-49.196	-7.448	-0.75366	0.26022	-0.53165	0.28546	31.0	13111	100
2025-3-27 18:39:49.24	WT901BLE68-01(48591DE3C19B)	0.320	-1.897	-0.080	-10.559	15.991	95.886	-67.15	43.14	-68.70	-76.538	-49.196	-7.448	-0.75366	0.26022	-0.53165	0.28546	31.0	13111	100
2025-3-27 18:39:49.24	WT901BLE68-01(48591DE3C19B)	0.611	-1.897	-0.080	-10.559	15.991	95.886	-67.31	43.86	-68.65	-76.538	-49.196	-7.448	-0.75366	0.26022	-0.53165	0.28546	31.0	13111	100
2025-3-27 18:39:49.82	WT901BLE68-01(48591DE3C19B)	0.611	-1.732	0.028	-2.014	9.949	56.580	-67.46	44.39	-68.69	-76.538	-49.196	-7.448	-0.75366	0.26022	-0.53165	0.28546	31.0	13111	100
2025-3-27 18:39:49.82	WT901BLE68-01(48591DE3C19B)	0.639	-1.732	0.028	-2.014	9.949	56.580	-67.63	44.71	-68.80	-76.538	-49.196	-7.448	-0.75366	0.26022	-0.53165	0.28546	31.0	13111	100
2025-3-27 18:39:49.82	WT901BLE68-01(48591DE3C19B)	0.639	-1.564	0.094	0.000	16.602	1.099	-67.92	44.78	-69.10	-76.538	-49.196	-7.448	-0.75366	0.26022	-0.53165	0.28546	31.0	13111	100
2025-3-27 18:39:49.82	WT901BLE68-01(48591DE3C19B)	0.348	-1.564	0.094	0.000	16.602	1.099	-68.33	44.59	-69.59	-76.538	-49.196	-7.448	-0.75366	0.26022	-0.53165	0.28546	31.0	13111	100
2025-3-27 18:39:49.111	WT901BLE68-01(48591DE3C19B)	0.348	-1.472	0.136	-5.554	54.932	-47.852	-69.03	44.23	-70.46	-76.538	-49.196	-7.448	-0.75366	0.26022	-0.53165	0.28546	31.0	13111	100
2025-3-27 18:39:49.112	WT901BLE68-01(48591DE3C19B)	0.041	-1.472	0.136	-5.554	54.932	-47.852	-69.99	43.70	-71.67	-76.538	-49.196	-7.448	-0.75366	0.26022	-0.53165	0.28546	31.0	13111	100
2025-3-27 18:39:49.112	WT901BLE68-01(48591DE3C19B)	0.041	-1.372	0.232	-0.977	91.125	-98.511	-71.13	42.98	-73.20	-76.538	-49.196	-7.448	-0.75366	0.26022	-0.53165	0.28546	31.0	13111	100
2025-3-27 18:39:49.112	WT901BLE68-01(48591DE3C19B)	0.045	-1.372	0.232	-0.977	91.125	-98.511	-72.42	42.07	-75.02	-76.538	-49.196	-7.448	-0.75366	0.26022	-0.53165	0.28546	31.0	13111	100
2025-3-27 18:39:49.142	WT901BLE68-01(48591DE3C19B)	0.045	-1.285	0.253	8.850	91.675	-144.348	-73.65	40.91	-76.87	-76.538	-49.196	-7.448	-0.75366	0.26022	-0.53165	0.28546	31.0	13111	100
2025-3-27 18:39:49.142	WT901BLE68-01(48591DE3C19B)	0.144	-1.285	0.253	8.850	91.675	-144.348	-74.79	39.51	-78.72	-76.538	-49.196	-7.448	-0.75366	0.26022	-0.53165	0.28546	31.0	13111	100
2025-3-27 18:39:49.142	WT901BLE68-01(48591DE3C19B)	0.144	-1.158	0.113	28.625	84.900	-176.147	-75.75	37.93	-80.50	-76.538	-49.196	-7.448	-0.75366	0.26022	-0.53165	0.28546	31.0	13111	100
2025-3-27 18:39:49.142	WT901BLE68-01(48591DE3C19B)	0.093	-1.158	0.113	28.625	84.900	-176.147	-76.52	36.18	-82.22	-76.538	-49.196	-7.448	-0.75366	0.26022	-0.53165	0.28546	31.0	13111	100
2025-3-27 18:39:49.202	WT901BLE68-01(48591DE3C19B)	0.093	-0.958	0.023	40.344	79.529	-189.941	-77.14	34.35	-83.84	-76.538	-49.196	-7.448	-0.75366	0.26022	-0.53165	0.28546	31.0	13111	100
2025-3-27 18:39:49.202	WT901BLE68-01(48591DE3C19B)	-0.015	-0.958	0.023	40.344	79.529	-189.941	-77.62	32.44	-85.39	-76.538	-49.196	-7.448	-0.75366	0.26022	-0.53165	0.28546	31.0	13111	100
2025-3-27 18:39:49.202	WT901BLE68-01(48591DE3C19B)	-0.015	-0.895	-0.012	39.124	59.814	-205.872	-77.99	30.44	-86.78	-76.538	-49.196	-7.448	-0.75366	0.26022	-0.53165	0.28546	31.0	13111	100
2025-3-27 18:39:49.202	WT901BLE68-01(48591DE3C19B)	-0.115	-0.895	-0.012	39.124	59.814	-205.872	-78.24	28.34	-88.04	-76.538	-49.196	-7.448	-0.75366	0.26022	-0.53165	0.28546	31.0	13111	100
2025-3-27 18:39:49.231	WT901BLE68-01(48591DE3C19B)	-0.115	-0.995	0.050	36.560	31.311	-216.675	-78.39	26.19	-89.11	-80.262	-34.888	-12.250	-0.75366	0.26022	-0.53165	0.28546	31.0	13111	100
2025-3-27 18:39:49.231	WT901BLE68-01(48591DE3C19B)	-0.241	-0.995	0.050	36.560	31.311	-216.675	-78.45	23.96	-90.01	-80.262	-34.888	-12.250	-0.75366	0.26022	-0.53165	0.28546	31.0	13111	100
2025-3-27 18:39:49.231	WT901BLE68-01(48591DE3C19B)	-0.241	-1.082	0.131	32.593	-1.099	-230.713	-78.43	21.64	-90.73	-80.262	-34.888	-12.250	-0.75366	0.26022	-0.53165	0.28546	31.0	13111	100
2025-3-27 18:39:49.231	WT901BLE68-01(48591DE3C19B)	-0.348	-1.082	0.131	32.593	-1.099	-230.713	-78.33	19.26	-91.29	-80.262	-34.888	-12.250	-0.75366	0.26022	-0.53165	0.28546	31.0	13111	100
2025-3-27 18:39:49.292	WT901BLE68-01(48591DE3C19B)	-0.348	-1.180	0.219	24.719	-35.522	-242.004	-78.20	16.80	-91.66	-80.262	-34.888	-12.250	-0.75366	0.26022	-0.53165	0.28546	31.0	13111	100
2025-3-27 18:39:49.292	WT901BLE68-01(48591DE3C19B)	-0.362	-1.180	0.219	24.719	-35.522	-242.004	-78.05	14.28	-91.88	-80.262	-34.888	-12.250	-0.75366	0.26022	-0.53165	0.28546	31.0	13111	100
2025-3-27 18:39:49.292	WT901BLE68-01(48591DE3C19B)	-0.362	-1.296	0.279	12.878	-62.012	-253.235	-77.92	11.70	-91.99	-80.262	-34.888	-12.250	-0.75366	0.26022	-0.53165	0.28546	31.0	13111	100
2025-3-27 18:39:49.292	WT901BLE68-01(48591DE3C19B)	-0.364	-1.296	0.279	12.878	-62.012	-253.235	-77.82	9.06	-91.98	-80.262	-34.888	-12.250	-0.75366	0.26022	-0.53165	0.28546	31.0	13111	100
2025-3-27 18:39:49.321	WT901BLE68-01(48591DE3C19B)	-0.364	-1.326	0.346	2.991	-62.744	-258.423	-77.76	6.43	-91.98	-80.262	-34.888	-12.250	-0.75366	0.26022	-0.53165	0.28546	31.0	13111	100
2025-3-27 18:39:49.322	WT901BLE68-01(48591DE3C19B)	-0.398	-1.326	0.346	2.991	-62.744	-258.423	-77.75	3.78	-91.98	-80.262	-34.888	-12.250	-0.75366	0.26022	-0.53165	0.28546	31.0	13111	100
2025-3-27 18:39:49.322	WT901BLE68-01(48591DE3C19B)	-0.398	-1.256	0.381	-5.066	-41.931	-254.700	-77.83	1.24	-92.18	-80.262	-34.888	-12.250	-0.75366	0.26022	-0.53165	0.28546	31.0	13111	100
2025-3-27 18:39:49.322	WT901BLE68-01(48591DE3C19B)	-0.419	-1.256	0.381	-5.066	-41.931	-254.700	-77.89	-1.28	-92.38	-80.262	-34.888	-12.250	-0.75366	0.26022	-0.53165	0.28546	31.0	13111	100
2025-3-27 18:39:49.353	WT901BLE68-01(48591DE3C19B)	-0.419	-1.162	0.376	-9.827	-15.930	-243.469	-77.98	-3.61	-92.82	-80.262	-34.888	-12.250	-0.75366	0.26022	-0.53165	0.28546	31.0	13111	100
2025-3-27 18:39:49.353	WT901BLE68-01(48591DE3C19B)	-0.405	-1.162	0.376	-9.827	-15.930	-243.469	-78.04	-5.94	-93.25	-80.262	-34.888	-12.250	-0.75366	0.26022	-0.53165	0.28546	31.0	13111	100
2025-3-27 18:39:49.353	WT901BLE68-01(48591DE3C19B)	-0.405	-1.042	0.351	-9.766	4.883	-228.821	-78.06	-8.05	-93.87	-80.262	-34.888	-12.250	-0.75366	0.26022	-0.53165	0.28546	31.0	13111	100
2025-3-27 18:39:49.353	WT901BLE68-01(48591DE3C19B)	-0.356	-1.042	0.351	-9.766	4.883	-228.821	-78.05	-10.15	-94.48	-80.262	-34.888	-12.250	-0.75366	0.26022	-0.53165	0.28546	31.0	13111	100
2025-3-27 18:39:49.381	WT901BLE68-01(48591DE3C19B)	-0.356	-0.921	0.313	-7.813	16.418	-211.243	-77.99	-12.04	-95.19	-80.262	-34.888	-12.250	-0.75366	0.26022	-0.53165	0.28546	31.0	13111	100
2025-3-27 18:39:49.382	WT901BLE68-01(48591DE3C19B)	-0.362	-0.921	0.313	-7.813	16.418	-211.243	-77.90	-13.91	-95.90	-80.262	-34.888	-12.250	-0.75366	0.26022	-0.53165	0.28546	31.0	13111	100
2025-3-27 18:39:49.382	WT901BLE68-01(48591DE3C19B)	-0.362	-0.837	0.293	-4.150	20.081	-192.017	-77.75	-15.58	-96.62	-80.262	-34.888	-12.250	-0.75366	0.26022	-0.53165	0.28546	31.0	13111	100
2025-3-27 18:39:49.382	WT901BLE68-01(48591DE3C19B)	-0.440	-0.837	0.293	-4.150	20.081	-192.017	-77.57	-17.23	-97.36	-80.262	-34.888	-12.250	-0.75366	0.26022	-0.53165	0.28546	31.0	13111	100
2025-3-27 18:39:49.442	WT901BLE68-01(48591DE3C19B)	-0.440	-0.770	0.267	-1.465	12.390	-171.326	-77.38	-18.68	-97.99	-80.262	-34.888	-12.250	-0.75366	0.26022	-0.53165	0.28546	31.0	13111	100
2025-3-27 18:39:49.443	WT901BLE68-01(48591DE3C19B)	-0.467	-0.770	0.267	-1.465	12.390	-171.326	-77.17	-20.10	-98.62	-80.262	-34.888	-12.250	-0.41913	0.50381	-0.37674	0.65457	31.0	13111	100
2025-3-27 18:39:49.443	WT901BLE68-01(48591DE3C19B)	-0.467	-0.756	0.219	-3.113	-11.047	-147.766	-77.07	-21.35	-98.98	-80.262	-34.888	-12.250	-0.41913	0.50381	-0.37674	0.65457	31.0	13111	100
2025-3-27 18:39:49.443	WT901BLE68-01(48591DE3C19B)	-0.560	-0.756	0.219	-3.113	-11.047	-147.766	-76.95	-22.58	-99.35	-80.262	-34.888	-12.250	-0.41913	0.50381	-0.37674	0.65457	31.0	13111	100
2025-3-27 18:39:49.471	WT901BLE68-01(48591DE3C19B)	-0.560	-0.779	0.264	2.014	-38.513	-113.037	-76.92	-23.52	-99.36	-80.262	-34.888	-12.250	-0.41913	0.50381	-0.37674	0.65457	31.0	13111	100
2025-3-27 18:39:49.471	WT901BLE68-01(48591DE3C19B)	-0.685	-0.779	0.264	2.014	-38.513	-113.037	-76.88	-24.44	-99.38	-80.262	-34.888	-12.250	-0.41913	0.50381	-0.37674	0.65457	31.0	13111	100
2025-3-27 18:39:49.471	WT901BLE68-01(48591DE3C19B)	-0.685	-0.788	0.350	7.813	-52.002	-71.594	-76.88	-24.99	-99.16	-80.262	-34.888	-12.250	-0.41913	0.50381	-0.37674	0.65457	31.0	13111	100
2025-3-27 18:39:49.471	WT901BLE68-01(48591DE3C19B)	-0.693	-0.788	0.350	7.813	-52.002	-71.594	-76.87	-25.53	-98.96	-80.262	-34.888	-12.250	-0.41913	0.50381	-0.37674	0.65457	31.0	13111	100
2025-3-27 18:39:49.532	WT901BLE68-01(48591DE3C19B)	-0.693	-0.828	0.385	8.667	-50.659	-36.377	-76.87	-25.71	-98.71	-80.262	-34.888	-12.250	-0.41913	0.50381	-0.37674	0.65457	31.0	13111	100
2025-3-27 18:39:49.532	WT901BLE68-01(48591DE3C19B)	-0.650	-0.828	0.385	8.667	-50.659	-36.377	-76.85	-25.89	-98.47	-80.262	-34.888	-12.250	-0.41913	0.50381	-0.37674	0.65457	31.0	13111	100
2025-3-27 18:39:49.533	WT901BLE68-01(48591DE3C19B)	-0.650	-0.886	0.456	8.057	-36.133	-8.423	-76.81	-25.76	-98.33	-80.262	-34.888	-12.250	-0.41913	0.50381	-0.37674	0.65457	31.0	13111	100
2025-3-27 18:39:49.533	WT901BLE68-01(48591DE3C19B)	-0.647	-0.886	0.456	8.057	-36.133	-8.423	-76.74	-25.64	-98.20	-80.262	-34.888	-12.250	-0.41913	0.50381	-0.37674	0.65457	31.0	13111	100
2025-3-27 18:39:49.564	WT901BLE68-01(48591DE3C19B)	-0.647	-1.021	0.542	4.211	-15.564	12.817	-76.64	-25.26	-98.25	-80.262	-34.888	-12.250	-0.41913	0.50381	-0.37674	0.65457	31.0	13111	100
2025-3-27 18:39:49.564	WT901BLE68-01(48591DE3C19B)	-0.667	-1.021	0.542	4.211	-15.564	12.817	-76.53	-24.90	-98.29	-80.262	-34.888	-12.250	-0.41913	0.50381	-0.37674	0.65457	31.0	13111	100
2025-3-27 18:39:49.564	WT901BLE68-01(48591DE3C19B)	-0.667	-1.198	0.607	1.648	0.000	30.640	-76.38	-24.32	-98.46	-80.262	-34.888	-12.250	-0.41913	0.50381	-0.37674	0.65457	31.0	13111	100
2025-3-27 18:39:49.564	WT901BLE68-01(48591DE3C19B)	-0.678	-1.198	0.607	1.648	0.000	30.640	-76.25	-23.75	-98.64	-80.262	-34.888	-12.250	-0.41913	0.50381	-0.37674	0.65457	31.0	13111	100
2025-3-27 18:39:49.594	WT901BLE68-01(48591DE3C19B)	-0.678	-1.324	0.618	1.892	10.986	49.377	-76.07	-22.98	-98.87	-80.262	-34.888	-12.250	-0.41913	0.50381	-0.37674	0.65457	31.0	13111	100
2025-3-27 18:39:49.594	WT901BLE68-01(48591DE3C19B)	-0.688	-1.324	0.618	1.892	10.986	49.377	-75.92	-22.21	-99.09	-80.262	-34.888	-12.250	-0.41913	0.50381	-0.37674	0.65457	31.0	13111	100
2025-3-27 18:39:49.594	WT901BLE68-01(48591DE3C19B)	-0.688	-1.464	0.594	-0.916	17.456	69.763	-75.78	-21.23	-99.32	-80.262	-34.888	-12.250	-0.41913	0.50381	-0.37674	0.65457	31.0	13111	100
2025-3-27 18:39:49.594	WT901BLE68-01(48591DE3C19B)	-0.709	-1.464	0.594	-0.916	17.456	69.763	-75.66	-20.26	-99.54	-63.700	-54.782	-10.878	-0.41913	0.50381	-0.37674	0.65457	31.0	13111	100
2025-3-27 18:39:49.624	WT901BLE68-01(48591DE3C19B)	-0.709	-1.612	0.582	0.549	22.461	90.393	-75.53	-19.09	-99.74	-63.700	-54.782	-10.878	-0.41913	0.50381	-0.37674	0.65457	31.0	13111	100
2025-3-27 18:39:49.624	WT901BLE68-01(48591DE3C19B)	-0.748	-1.612	0.582	0.549	22.461	90.393	-75.40	-17.92	-99.93	-63.700	-54.782	-10.878	-0.41913	0.50381	-0.37674	0.65457	31.0	13111	100
2025-3-27 18:39:49.624	WT901BLE68-01(48591DE3C19B)	-0.748	-1.603	0.571	7.996	15.991	114.685	-75.26	-16.54	-99.99	-63.700	-54.782	-10.878	-0.41913	0.50381	-0.37674	0.65457	31.0	13111	100
2025-3-27 18:39:49.624	WT901BLE68-01(48591DE3C19B)	-0.684	-1.603	0.571	7.996	15.991	114.685	-75.11	-15.17	-100.03	-63.700	-54.782	-10.878	-0.41913	0.50381	-0.37674	0.65457	31.0	13111	100
2025-3-27 18:39:49.682	WT901BLE68-01(48591DE3C19B)	-0.684	-1.420	0.511	12.268	-2.136	144.348	-75.00	-13.57	-99.81	-63.700	-54.782	-10.878	-0.41913	0.50381	-0.37674	0.65457	31.0	13111	100
2025-3-27 18:39:49.682	WT901BLE68-01(48591DE3C19B)	-0.585	-1.420	0.511	12.268	-2.136	144.348	-74.87	-11.98	-99.58	-63.700	-54.782	-10.878	-0.41913	0.50381	-0.37674	0.65457	31.0	13111	100
2025-3-27 18:39:49.683	WT901BLE68-01(48591DE3C19B)	-0.585	-1.238	0.353	12.634	-19.226	178.955	-74.79	-10.10	-99.09	-63.700	-54.782	-10.878	-0.41913	0.50381	-0.37674	0.65457	31.0	13111	100
2025-3-27 18:39:49.683	WT901BLE68-01(48591DE3C19B)	-0.507	-1.238	0.353	12.634	-19.226	178.955	-74.70	-8.23	-98.59	-63.700	-54.782	-10.878	-0.41913	0.50381	-0.37674	0.65457	31.0	13111	100
2025-3-27 18:39:49.712	WT901BLE68-01(48591DE3C19B)	-0.507	-1.137	0.204	7.385	-39.001	214.172	-74.67	-6.10	-97.79	-63.700	-54.782	-10.878	-0.41913	0.50381	-0.37674	0.65457	31.0	13111	100
2025-3-27 18:39:49.712	WT901BLE68-01(48591DE3C19B)	-0.455	-1.137	0.204	7.385	-39.001	214.172	-74.62	-3.97	-97.00	-63.700	-54.782	-10.878	-0.41913	0.50381	-0.37674	0.65457	31.0	13111	100
2025-3-27 18:39:49.712	WT901BLE68-01(48591DE3C19B)	-0.455	-1.205	0.117	1.709	-65.491	244.019	-74.62	-1.64	-95.87	-63.700	-54.782	-10.878	-0.41913	0.50381	-0.37674	0.65457	31.0	13111	100
2025-3-27 18:39:49.712	WT901BLE68-01(48591DE3C19B)	-0.395	-1.205	0.117	1.709	-65.491	244.019	-74.58	0.68	-94.74	-63.700	-54.782	-10.878	-0.41913	0.50381	-0.37674	0.65457	31.0	13111	100
2025-3-27 18:39:49.774	WT901BLE68-01(48591DE3C19B)	-0.395	-1.433	0.096	1.221	-97.473	262.878	-74.49	3.08	-93.23	-63.700	-54.782	-10.878	-0.41913	0.50381	-0.37674	0.65457	31.0	13111	100
2025-3-27 18:39:49.774	WT901BLE68-01(48591DE3C19B)	-0.309	-1.433	0.096	1.221	-97.473	262.878	-74.34	5.45	-91.71	-63.700	-54.782	-10.878	-0.41913	0.50381	-0.37674	0.65457	31.0	13111	100
2025-3-27 18:39:49.774	WT901BLE68-01(48591DE3C19B)	-0.309	-1.708	0.082	12.024	-122.559	272.644	-74.00	7.83	-89.90	-63.700	-54.782	-10.878	-0.41913	0.50381	-0.37674	0.65457	31.0	13111	100
2025-3-27 18:39:49.774	WT901BLE68-01(48591DE3C19B)	-0.206	-1.708	0.082	12.024	-122.559	272.644	-73.59	10.17	-88.06	-63.700	-54.782	-10.878	-0.41913	0.50381	-0.37674	0.65457	31.0	13111	100
2025-3-27 18:39:49.803	WT901BLE68-01(48591DE3C19B)	-0.131	-1.862	0.045	34.668	-126.587	272.644	-72.87	12.46	-86.13	-63.700	-54.782	-10.878	-0.41913	0.50381	-0.37674	0.65457	31.0	13111	100
2025-3-27 18:39:49.804	WT901BLE68-01(48591DE3C19B)	-0.131	-1.762	0.027	59.448	-110.474	267.578	-71.98	14.71	-84.25	-63.700	-54.782	-10.878	-0.41913	0.50381	-0.37674	0.65457	31.0	13111	100
2025-3-27 18:39:49.804	WT901BLE68-01(48591DE3C19B)	-0.178	-1.762	0.027	59.448	-110.474	267.578	-70.91	16.90	-82.40	-63.700	-54.782	-10.878	-0.41913	0.50381	-0.37674	0.65457	31.0	13111	100
2025-3-27 18:39:49.804	WT901BLE68-01(48591DE3C19B)	-0.178	-1.540	0.032	67.932	-90.698	257.385	-69.75	19.02	-80.61	-63.700	-54.782	-10.878	-0.68561	0.33688	-0.46829	0.44391	31.0	13111	100
2025-3-27 18:39:49.831	WT901BLE68-01(48591DE3C19B)	-0.235	-1.540	0.032	67.932	-90.698	257.385	-68.52	21.08	-78.87	-63.700	-54.782	-10.878	-0.68561	0.33688	-0.46829	0.44391	31.0	13111	100
2025-3-27 18:39:49.832	WT901BLE68-01(48591DE3C19B)	-0.235	-1.428	0.062	70.129	-77.942	248.718	-67.24	23.07	-77.14	-63.700	-54.782	-10.878	-0.68561	0.33688	-0.46829	0.44391	31.0	13111	100
2025-3-27 18:39:49.832	WT901BLE68-01(48591DE3C19B)	-0.166	-1.428	0.062	70.129	-77.942	248.718	-65.90	25.00	-75.43	-63.700	-54.782	-10.878	-0.68561	0.33688	-0.46829	0.44391	31.0	13111	100
2025-3-27 18:39:49.832	WT901BLE68-01(48591DE3C19B)	-0.166	-1.340	0.104	76.477	-56.946	243.042	-64.51	26.89	-73.76	-63.700	-54.782	-10.878	-0.68561	0.33688	-0.46829	0.44391	31.0	13111	100
2025-3-27 18:39:49.892	WT901BLE68-01(48591DE3C19B)	-0.074	-1.340	0.104	76.477	-56.946	243.042	-63.06	28.75	-72.15	-63.700	-54.782	-10.878	-0.68561	0.33688	-0.46829	0.44391	31.0	13111	100
2025-3-27 18:39:49.892	WT901BLE68-01(48591DE3C19B)	-0.074	-1.298	0.095	77.637	-30.640	237.732	-61.60	30.60	-70.60	-63.700	-54.782	-10.878	-0.68561	0.33688	-0.46829	0.44391	31.0	13111	100
2025-3-27 18:39:49.892	WT901BLE68-01(48591DE3C19B)	0.009	-1.298	0.095	77.637	-30.640	237.732	-60.13	32.44	-69.14	-63.700	-54.782	-10.878	-0.68561	0.33688	-0.46829	0.44391	31.0	13111	100
2025-3-27 18:39:49.892	WT901BLE68-01(48591DE3C19B)	0.009	-1.280	-0.007	76.538	-3.052	229.065	-58.69	34.26	-67.76	-63.700	-54.782	-10.878	-0.68561	0.33688	-0.46829	0.44391	31.0	13111	100
2025-3-27 18:39:49.921	WT901BLE68-01(48591DE3C19B)	0.083	-1.280	-0.007	76.538	-3.052	229.065	-57.28	36.07	-66.48	-63.700	-54.782	-10.878	-0.68561	0.33688	-0.46829	0.44391	31.0	13111	100
2025-3-27 18:39:49.922	WT901BLE68-01(48591DE3C19B)	0.083	-1.229	-0.082	72.571	17.944	217.529	-55.91	37.86	-65.27	-63.700	-54.782	-10.878	-0.68561	0.33688	-0.46829	0.44391	31.0	13111	100
2025-3-27 18:39:49.922	WT901BLE68-01(48591DE3C19B)	0.137	-1.229	-0.082	72.571	17.944	217.529	-54.58	39.62	-64.14	-63.700	-54.782	-10.878	-0.68561	0.33688	-0.46829	0.44391	31.0	13111	100
2025-3-27 18:39:49.922	WT901BLE68-01(48591DE3C19B)	0.137	-1.235	-0.121	63.293	36.194	200.256	-53.34	41.33	-63.11	-63.700	-54.782	-10.878	-0.68561	0.33688	-0.46829	0.44391	31.0	13111	100
2025-3-27 18:39:49.951	WT901BLE68-01(48591DE3C19B)	0.233	-1.235	-0.121	63.293	36.194	200.256	-52.20	42.99	-62.17	-63.700	-54.782	-10.878	-0.68561	0.33688	-0.46829	0.44391	31.0	13111	100
2025-3-27 18:39:49.951	WT901BLE68-01(48591DE3C19B)	0.233	-1.289	-0.109	53.589	55.359	176.208	-51.19	44.59	-61.39	-63.700	-54.782	-10.878	-0.68561	0.33688	-0.46829	0.44391	31.0	13111	100
2025-3-27 18:39:49.951	WT901BLE68-01(48591DE3C19B)	0.283	-1.289	-0.109	53.589	55.359	176.208	-50.34	46.14	-60.77	-63.700	-54.782	-10.878	-0.68561	0.33688	-0.46829	0.44391	31.0	13111	100
2025-3-27 18:39:49.951	WT901BLE68-01(48591DE3C19B)	0.283	-1.327	-0.091	40.161	72.571	147.888	-49.70	47.61	-60.34	-63.700	-54.782	-10.878	-0.68561	0.33688	-0.46829	0.44391	31.0	13111	100
2025-3-27 18:39:50.42	WT901BLE68-01(48591DE3C19B)	0.264	-1.327	-0.091	40.161	72.571	147.888	-49.26	49.02	-60.12	-63.700	-54.782	-10.878	-0.68561	0.33688	-0.46829	0.44391	31.0	13111	100
2025-3-27 18:39:50.42	WT901BLE68-01(48591DE3C19B)	0.264	-1.482	-0.069	23.682	80.078	112.000	-49.08	50.30	-60.13	-63.700	-54.782	-10.878	-0.68561	0.33688	-0.46829	0.44391	31.0	13111	100
2025-3-27 18:39:50.42	WT901BLE68-01(48591DE3C19B)	0.251	-1.482	-0.069	23.682	80.078	112.000	-49.16	51.46	-60.36	-63.700	-54.782	-10.878	-0.68561	0.33688	-0.46829	0.44391	31.0	13111	100
2025-3-27 18:39:50.42	WT901BLE68-01(48591DE3C19B)	0.251	-1.647	-0.031	15.503	85.144	69.641	-49.50	52.47	-60.88	-63.700	-54.782	-10.878	-0.68561	0.33688	-0.46829	0.44391	31.0	13111	100
2025-3-27 18:39:50.43	WT901BLE68-01(48591DE3C19B)	0.207	-1.647	-0.031	15.503	85.144	69.641	-50.10	53.32	-61.68	-86.632	-26.656	-8.918	-0.68561	0.33688	-0.46829	0.44391	31.0	13111	100
2025-3-27 18:39:50.43	WT901BLE68-01(48591DE3C19B)	0.207	-1.642	0.024	12.634	90.088	22.278	-50.99	53.99	-62.79	-86.632	-26.656	-8.918	-0.68561	0.33688	-0.46829	0.44391	31.0	13111	100
2025-3-27 18:39:50.43	WT901BLE68-01(48591DE3C19B)	0.105	-1.642	0.024	12.634	90.088	22.278	-52.15	54.48	-64.23	-86.632	-26.656	-8.918	-0.68561	0.33688	-0.46829	0.44391	31.0	13111	100
2025-3-27 18:39:50.43	WT901BLE68-01(48591DE3C19B)	0.105	-1.549	0.087	5.310	81.848	-26.306	-53.52	54.73	-65.89	-86.632	-26.656	-8.918	-0.68561	0.33688	-0.46829	0.44391	31.0	13111	100
2025-3-27 18:39:50.74	WT901BLE68-01(48591DE3C19B)	0.062	-1.549	0.087	5.310	81.848	-26.306	-55.09	54.73	-67.75	-86.632	-26.656	-8.918	-0.68561	0.33688	-0.46829	0.44391	31.0	13111	100
2025-3-27 18:39:50.74	WT901BLE68-01(48591DE3C19B)	0.062	-1.430	0.164	0.366	57.312	-72.937	-56.71	54.44	-69.64	-86.632	-26.656	-8.918	-0.68561	0.33688	-0.46829	0.44391	31.0	13111	100
2025-3-27 18:39:50.74	WT901BLE68-01(48591DE3C19B)	0.027	-1.430	0.164	0.366	57.312	-72.937	-58.32	53.85	-71.52	-86.632	-26.656	-8.918	-0.68561	0.33688	-0.46829	0.44391	31.0	13111	100
2025-3-27 18:39:50.74	WT901BLE68-01(48591DE3C19B)	0.027	-1.360	0.154	-0.244	37.170	-115.540	-59.90	53.01	-73.37	-86.632	-26.656	-8.918	-0.68561	0.33688	-0.46829	0.44391	31.0	13111	100
2025-3-27 18:39:50.132	WT901BLE68-01(48591DE3C19B)	-0.014	-1.360	0.154	-0.244	37.170	-115.540	-61.41	51.91	-75.16	-86.632	-26.656	-8.918	-0.68561	0.33688	-0.46829	0.44391	31.0	13111	100
2025-3-27 18:39:50.132	WT901BLE68-01(48591DE3C19B)	-0.014	-1.257	0.112	2.014	24.353	-153.076	-62.83	50.59	-76.90	-86.632	-26.656	-8.918	-0.68561	0.33688	-0.46829	0.44391	31.0	13111	100
2025-3-27 18:39:50.133	WT901BLE68-01(48591DE3C19B)	-0.049	-1.257	0.112	2.014	24.353	-153.076	-64.17	49.06	-78.57	-86.632	-26.656	-8.918	-0.68561	0.33688	-0.46829	0.44391	31.0	13111	100
2025-3-27 18:39:50.133	WT901BLE68-01(48591DE3C19B)	-0.049	-1.211	0.064	-1.587	16.846	-185.120	-65.43	47.36	-80.18	-86.632	-26.656	-8.918	-0.68561	0.33688	-0.46829	0.44391	31.0	13111	100
2025-3-27 18:39:50.164	WT901BLE68-01(48591DE3C19B)	-0.088	-1.211	0.064	-1.587	16.846	-185.120	-66.63	45.48	-81.71	-86.632	-26.656	-8.918	-0.68561	0.33688	-0.46829	0.44391	31.0	13111	100
2025-3-27 18:39:50.164	WT901BLE68-01(48591DE3C19B)	-0.088	-1.187	0.070	-4.578	13.184	-213.074	-67.77	43.45	-83.18	-86.632	-26.656	-8.918	-0.68561	0.33688	-0.46829	0.44391	31.0	13111	100
2025-3-27 18:39:50.164	WT901BLE68-01(48591DE3C19B)	-0.149	-1.187	0.070	-4.578	13.184	-213.074	-68.83	41.29	-84.59	-86.632	-26.656	-8.918	-0.68561	0.33688	-0.46829	0.44391	31.0	13111	100
2025-3-27 18:39:50.164	WT901BLE68-01(48591DE3C19B)	-0.149	-1.155	0.111	-8.911	4.517	-238.037	-69.81	38.99	-85.89	-86.632	-26.656	-8.918	-0.68561	0.33688	-0.46829	0.44391	31.0	13111	100
2025-3-27 18:39:50.194	WT901BLE68-01(48591DE3C19B)	-0.256	-1.155	0.111	-8.911	4.517	-238.037	-70.70	36.56	-87.09	-86.632	-26.656	-8.918	-0.68561	0.33688	-0.46829	0.44391	31.0	13111	100
2025-3-27 18:39:50.195	WT901BLE68-01(48591DE3C19B)	-0.256	-1.163	0.168	-16.663	-16.296	-258.118	-71.50	34.00	-88.13	-86.632	-26.656	-8.918	-0.68561	0.33688	-0.46829	0.44391	31.0	13111	100
2025-3-27 18:39:50.195	WT901BLE68-01(48591DE3C19B)	-0.308	-1.163	0.168	-16.663	-16.296	-258.118	-72.20	31.33	-89.01	-86.632	-26.656	-8.918	-0.66113	0.25916	-0.55023	0.43915	31.0	13111	100
2025-3-27 18:39:50.195	WT901BLE68-01(48591DE3C19B)	-0.308	-1.230	0.223	-27.649	-37.109	-274.353	-72.84	28.56	-89.74	-86.632	-26.656	-8.918	-0.66113	0.25916	-0.55023	0.43915	31.0	13111	100
2025-3-27 18:39:50.282	WT901BLE68-01(48591DE3C19B)	-0.299	-1.230	0.223	-27.649	-37.109	-274.353	-73.43	25.70	-90.32	-86.632	-26.656	-8.918	-0.66113	0.25916	-0.55023	0.43915	31.0	13111	100
2025-3-27 18:39:50.282	WT901BLE68-01(48591DE3C19B)	-0.299	-1.292	0.286	-37.720	-47.424	-283.997	-74.01	22.80	-90.82	-86.632	-26.656	-8.918	-0.66113	0.25916	-0.55023	0.43915	31.0	13111	100
2025-3-27 18:39:50.283	WT901BLE68-01(48591DE3C19B)	-0.291	-1.292	0.286	-37.720	-47.424	-283.997	-74.58	19.85	-91.23	-86.632	-26.656	-8.918	-0.66113	0.25916	-0.55023	0.43915	31.0	13111	100
2025-3-27 18:39:50.283	WT901BLE68-01(48591DE3C19B)	-0.291	-1.334	0.335	-46.143	-43.274	-288.452	-75.21	16.89	-91.65	-86.632	-26.656	-8.918	-0.66113	0.25916	-0.55023	0.43915	31.0	13111	100
2025-3-27 18:39:50.292	WT901BLE68-01(48591DE3C19B)	-0.322	-1.334	0.335	-46.143	-43.274	-288.452	-75.80	13.95	-92.04	-86.632	-26.656	-8.918	-0.66113	0.25916	-0.55023	0.43915	31.0	13111	100
2025-3-27 18:39:50.292	WT901BLE68-01(48591DE3C19B)	-0.322	-1.379	0.334	-50.232	-29.663	-287.354	-76.43	11.06	-92.52	-86.632	-26.656	-8.918	-0.66113	0.25916	-0.55023	0.43915	31.0	13111	100
2025-3-27 18:39:50.292	WT901BLE68-01(48591DE3C19B)	-0.356	-1.379	0.334	-50.232	-29.663	-287.354	-77.02	8.20	-92.97	-86.632	-26.656	-8.918	-0.66113	0.25916	-0.55023	0.43915	31.0	13111	100
2025-3-27 18:39:50.292	WT901BLE68-01(48591DE3C19B)	-0.356	-1.354	0.291	-48.645	-14.282	-281.677	-77.58	5.44	-93.52	-86.632	-26.656	-8.918	-0.66113	0.25916	-0.55023	0.43915	31.0	13111	100
2025-3-27 18:39:50.314	WT901BLE68-01(48591DE3C19B)	-0.345	-1.354	0.291	-48.645	-14.282	-281.677	-78.11	2.69	-94.04	-86.632	-26.656	-8.918	-0.66113	0.25916	-0.55023	0.43915	31.0	13111	100
2025-3-27 18:39:50.314	WT901BLE68-01(48591DE3C19B)	-0.345	-1.275	0.258	-47.241	0.793	-273.560	-78.60	0.07	-94.66	-86.632	-26.656	-8.918	-0.66113	0.25916	-0.55023	0.43915	31.0	13111	100
2025-3-27 18:39:50.315	WT901BLE68-01(48591DE3C19B)	-0.323	-1.275	0.258	-47.241	0.793	-273.560	-79.06	-2.54	-95.26	-86.632	-26.656	-8.918	-0.66113	0.25916	-0.55023	0.43915	31.0	13111	100
2025-3-27 18:39:50.315	WT901BLE68-01(48591DE3C19B)	-0.323	-1.219	0.252	-44.312	18.250	-261.230	-79.45	-4.98	-95.99	-86.632	-26.656	-8.918	-0.66113	0.25916	-0.55023	0.43915	31.0	13111	100
2025-3-27 18:39:50.374	WT901BLE68-01(48591DE3C19B)	-0.367	-1.219	0.252	-44.312	18.250	-261.230	-79.82	-7.41	-96.71	-86.632	-26.656	-8.918	-0.66113	0.25916	-0.55023	0.43915	31.0	13111	100
2025-3-27 18:39:50.374	WT901BLE68-01(48591DE3C19B)	-0.367	-1.161	0.292	-36.072	30.273	-246.765	-80.05	-9.66	-97.51	-86.632	-26.656	-8.918	-0.66113	0.25916	-0.55023	0.43915	31.0	13111	100
2025-3-27 18:39:50.374	WT901BLE68-01(48591DE3C19B)	-0.453	-1.161	0.292	-36.072	30.273	-246.765	-80.26	-11.90	-98.31	-86.632	-26.656	-8.918	-0.66113	0.25916	-0.55023	0.43915	31.0	13111	100
2025-3-27 18:39:50.374	WT901BLE68-01(48591DE3C19B)	-0.453	-1.067	0.368	-25.574	32.410	-227.905	-80.33	-13.94	-99.10	-86.632	-26.656	-8.918	-0.66113	0.25916	-0.55023	0.43915	31.0	13111	100
2025-3-27 18:39:50.404	WT901BLE68-01(48591DE3C19B)	-0.488	-1.067	0.368	-25.574	32.410	-227.905	-80.36	-15.96	-99.90	-86.632	-26.656	-8.918	-0.66113	0.25916	-0.55023	0.43915	31.0	13111	100
2025-3-27 18:39:50.404	WT901BLE68-01(48591DE3C19B)	-0.488	-0.983	0.417	-18.799	32.227	-206.970	-80.30	-17.76	-100.68	-86.632	-26.656	-8.918	-0.66113	0.25916	-0.55023	0.43915	31.0	13111	100
2025-3-27 18:39:50.404	WT901BLE68-01(48591DE3C19B)	-0.470	-0.983	0.417	-18.799	32.227	-206.970	-80.22	-19.54	-101.47	-86.632	-26.656	-8.918	-0.66113	0.25916	-0.55023	0.43915	31.0	13111	100
2025-3-27 18:39:50.405	WT901BLE68-01(48591DE3C19B)	-0.470	-0.995	0.428	-14.465	41.687	-185.425	-80.04	-21.09	-102.34	-68.796	-47.726	-14.406	-0.66113	0.25916	-0.55023	0.43915	31.0	13111	100
2025-3-27 18:39:50.434	WT901BLE68-01(48591DE3C19B)	-0.516	-0.995	0.428	-14.465	41.687	-185.425	-79.82	-22.62	-103.23	-68.796	-47.726	-14.406	-0.66113	0.25916	-0.55023	0.43915	31.0	13111	100
2025-3-27 18:39:50.434	WT901BLE68-01(48591DE3C19B)	-0.516	-1.084	0.407	-6.714	57.312	-162.415	-79.45	-23.87	-104.27	-68.796	-47.726	-14.406	-0.66113	0.25916	-0.55023	0.43915	31.0	13111	100
2025-3-27 18:39:50.434	WT901BLE68-01(48591DE3C19B)	-0.688	-1.084	0.407	-6.714	57.312	-162.415	-79.05	-25.11	-105.32	-68.796	-47.726	-14.406	-0.66113	0.25916	-0.55023	0.43915	31.0	13111	100
2025-3-27 18:39:50.434	WT901BLE68-01(48591DE3C19B)	-0.688	-1.184	0.307	-1.343	52.734	-139.709	-78.62	-26.13	-106.30	-68.796	-47.726	-14.406	-0.66113	0.25916	-0.55023	0.43915	31.0	13111	100
2025-3-27 18:39:50.492	WT901BLE68-01(48591DE3C19B)	-0.930	-1.184	0.307	-1.343	52.734	-139.709	-78.16	-27.11	-107.31	-68.796	-47.726	-14.406	-0.66113	0.25916	-0.55023	0.43915	31.0	13111	100
2025-3-27 18:39:50.492	WT901BLE68-01(48591DE3C19B)	-0.930	-1.218	0.266	0.427	12.817	-117.554	-77.89	-27.95	-107.84	-68.796	-47.726	-14.406	-0.66113	0.25916	-0.55023	0.43915	31.0	13111	100
2025-3-27 18:39:50.492	WT901BLE68-01(48591DE3C19B)	-1.091	-1.218	0.266	0.427	12.817	-117.554	-77.61	-28.78	-108.39	-68.796	-47.726	-14.406	-0.66113	0.25916	-0.55023	0.43915	31.0	13111	100
2025-3-27 18:39:50.492	WT901BLE68-01(48591DE3C19B)	-1.091	-1.272	0.398	-5.859	-54.565	-94.299	-77.78	-29.50	-108.14	-68.796	-47.726	-14.406	-0.66113	0.25916	-0.55023	0.43915	31.0	13111	100
2025-3-27 18:39:50.524	WT901BLE68-01(48591DE3C19B)	-1.013	-1.272	0.398	-5.859	-54.565	-94.299	-77.94	-30.22	-107.91	-68.796	-47.726	-14.406	-0.66113	0.25916	-0.55023	0.43915	31.0	13111	100
2025-3-27 18:39:50.524	WT901BLE68-01(48591DE3C19B)	-1.013	-1.370	0.509	-13.611	-109.192	-65.369	-78.52	-30.76	-107.00	-68.796	-47.726	-14.406	-0.66113	0.25916	-0.55023	0.43915	31.0	13111	100
2025-3-27 18:39:50.524	WT901BLE68-01(48591DE3C19B)	-0.779	-1.370	0.509	-13.611	-109.192	-65.369	-79.10	-31.28	-106.08	-68.796	-47.726	-14.406	-0.66113	0.25916	-0.55023	0.43915	31.0	13111	100
2025-3-27 18:39:50.525	WT901BLE68-01(48591DE3C19B)	-0.779	-1.342	0.536	-16.357	-120.911	-26.550	-79.82	-31.43	-104.95	-68.796	-47.726	-14.406	-0.66113	0.25916	-0.55023	0.43915	31.0	13111	100
2025-3-27 18:39:50.554	WT901BLE68-01(48591DE3C19B)	-0.577	-1.342	0.536	-16.357	-120.911	-26.550	-80.54	-31.57	-103.82	-68.796	-47.726	-14.406	-0.66113	0.25916	-0.55023	0.43915	31.0	13111	100
2025-3-27 18:39:50.554	WT901BLE68-01(48591DE3C19B)	-0.577	-1.245	0.562	-15.686	-94.482	15.991	-81.13	-31.25	-102.91	-68.796	-47.726	-14.406	-0.66113	0.25916	-0.55023	0.43915	31.0	13111	100
2025-3-27 18:39:50.554	WT901BLE68-01(48591DE3C19B)	-0.502	-1.245	0.562	-15.686	-94.482	15.991	-81.70	-30.91	-102.02	-68.796	-47.726	-14.406	-0.66113	0.25916	-0.55023	0.43915	31.0	13111	100
2025-3-27 18:39:50.554	WT901BLE68-01(48591DE3C19B)	-0.502	-1.199	0.607	-11.658	-64.270	55.359	-82.07	-30.15	-101.41	-68.796	-47.726	-14.406	-0.66113	0.25916	-0.55023	0.43915	31.0	13111	100
2025-3-27 18:39:50.613	WT901BLE68-01(48591DE3C19B)	-0.444	-1.199	0.607	-11.658	-64.270	55.359	-82.42	-29.39	-100.82	-68.796	-47.726	-14.406	-0.66113	0.25916	-0.55023	0.43915	31.0	13111	100
2025-3-27 18:39:50.613	WT901BLE68-01(48591DE3C19B)	-0.444	-1.157	0.646	-1.038	-43.152	94.116	-82.56	-28.22	-100.42	-68.796	-47.726	-14.406	-0.66113	0.25916	-0.55023	0.43915	31.0	13111	100
2025-3-27 18:39:50.613	WT901BLE68-01(48591DE3C19B)	-0.421	-1.157	0.646	-1.038	-43.152	94.116	-82.68	-27.07	-100.01	-68.796	-47.726	-14.406	-0.66113	0.25916	-0.55023	0.43915	31.0	13111	100
2025-3-27 18:39:50.613	WT901BLE68-01(48591DE3C19B)	-0.421	-1.034	0.625	13.062	-27.100	129.883	-82.60	-25.55	-99.74	-68.796	-47.726	-14.406	-0.66113	0.25916	-0.55023	0.43915	31.0	13111	100
2025-3-27 18:39:50.644	WT901BLE68-01(48591DE3C19B)	-0.411	-1.034	0.625	13.062	-27.100	129.883	-82.50	-24.04	-99.47	-68.796	-47.726	-14.406	-0.37042	0.53625	-0.39084	0.64987	31.0	13111	100
2025-3-27 18:39:50.644	WT901BLE68-01(48591DE3C19B)	-0.411	-0.941	0.538	24.414	-16.724	160.889	-82.24	-22.23	-99.26	-68.796	-47.726	-14.406	-0.37042	0.53625	-0.39084	0.64987	31.0	13111	100
2025-3-27 18:39:50.644	WT901BLE68-01(48591DE3C19B)	-0.452	-0.941	0.538	24.414	-16.724	160.889	-81.99	-20.43	-99.05	-68.796	-47.726	-14.406	-0.37042	0.53625	-0.39084	0.64987	31.0	13111	100
2025-3-27 18:39:50.644	WT901BLE68-01(48591DE3C19B)	-0.452	-1.008	0.411	31.189	-8.118	187.073	-81.64	-18.36	-98.87	-68.796	-47.726	-14.406	-0.37042	0.53625	-0.39084	0.64987	31.0	13111	100
2025-3-27 18:39:50.674	WT901BLE68-01(48591DE3C19B)	-0.518	-1.008	0.411	31.189	-8.118	187.073	-81.29	-16.31	-98.68	-68.796	-47.726	-14.406	-0.37042	0.53625	-0.39084	0.64987	31.0	13111	100
2025-3-27 18:39:50.674	WT901BLE68-01(48591DE3C19B)	-0.538	-1.158	0.301	41.809	-8.972	207.520	-80.85	-14.08	-98.43	-68.796	-47.726	-14.406	-0.37042	0.53625	-0.39084	0.64987	31.0	13111	100
2025-3-27 18:39:50.674	WT901BLE68-01(48591DE3C19B)	-0.538	-1.305	0.246	51.514	-23.132	222.534	-80.38	-11.79	-98.06	-68.796	-47.726	-14.406	-0.37042	0.53625	-0.39084	0.64987	31.0	13111	100
2025-3-27 18:39:50.674	WT901BLE68-01(48591DE3C19B)	-0.510	-1.305	0.246	51.514	-23.132	222.534	-79.88	-9.46	-97.60	-68.796	-47.726	-14.406	-0.37042	0.53625	-0.39084	0.64987	31.0	13111	100
2025-3-27 18:39:50.732	WT901BLE68-01(48591DE3C19B)	-0.510	-1.505	0.235	61.829	-46.570	230.103	-79.33	-7.12	-96.98	-68.796	-47.726	-14.406	-0.37042	0.53625	-0.39084	0.64987	31.0	13111	100
2025-3-27 18:39:50.733	WT901BLE68-01(48591DE3C19B)	-0.390	-1.505	0.235	61.829	-46.570	230.103	-78.73	-4.80	-96.21	-68.796	-47.726	-14.406	-0.37042	0.53625	-0.39084	0.64987	31.0	13111	100
2025-3-27 18:39:50.733	WT901BLE68-01(48591DE3C19B)	-0.390	-1.720	0.258	77.637	-62.988	233.887	-78.04	-2.49	-95.33	-68.796	-47.726	-14.406	-0.37042	0.53625	-0.39084	0.64987	31.0	13111	100
2025-3-27 18:39:50.733	WT901BLE68-01(48591DE3C19B)	-0.187	-1.720	0.258	77.637	-62.988	233.887	-77.24	-0.22	-94.32	-68.796	-47.726	-14.406	-0.37042	0.53625	-0.39084	0.64987	31.0	13111	100
2025-3-27 18:39:50.761	WT901BLE68-01(48591DE3C19B)	-0.187	-1.801	0.212	100.708	-47.791	235.229	-76.31	2.04	-93.36	-68.796	-47.726	-14.406	-0.37042	0.53625	-0.39084	0.64987	31.0	13111	100
2025-3-27 18:39:50.761	WT901BLE68-01(48591DE3C19B)	-0.073	-1.801	0.212	100.708	-47.791	235.229	-75.23	4.29	-92.42	-68.796	-47.726	-14.406	-0.37042	0.53625	-0.39084	0.64987	31.0	13111	100
2025-3-27 18:39:50.761	WT901BLE68-01(48591DE3C19B)	-0.073	-1.671	0.193	116.028	-6.409	238.464	-74.06	6.56	-91.63	-68.796	-47.726	-14.406	-0.37042	0.53625	-0.39084	0.64987	31.0	13111	100
2025-3-27 18:39:50.761	WT901BLE68-01(48591DE3C19B)	-0.053	-1.671	0.193	116.028	-6.409	238.464	-72.82	8.88	-90.98	-68.796	-47.726	-14.406	-0.37042	0.53625	-0.39084	0.64987	31.0	13111	100
2025-3-27 18:39:50.794	WT901BLE68-01(48591DE3C19B)	-0.053	-1.559	0.172	116.150	46.021	243.408	-71.60	11.26	-90.52	-68.796	-47.726	-14.406	-0.37042	0.53625	-0.39084	0.64987	31.0	13111	100
2025-3-27 18:39:50.794	WT901BLE68-01(48591DE3C19B)	-0.087	-1.559	0.172	116.150	46.021	243.408	-70.41	13.71	-90.24	-68.796	-47.726	-14.406	-0.37042	0.53625	-0.39084	0.64987	31.0	13111	100
2025-3-27 18:39:50.794	WT901BLE68-01(48591DE3C19B)	-0.087	-1.438	0.121	110.901	94.910	250.305	-69.29	16.26	-90.14	-68.796	-47.726	-14.406	-0.37042	0.53625	-0.39084	0.64987	31.0	13111	100
2025-3-27 18:39:50.794	WT901BLE68-01(48591DE3C19B)	-0.131	-1.438	0.121	110.901	94.910	250.305	-68.24	18.90	-90.21	-68.796	-47.726	-14.406	-0.37042	0.53625	-0.39084	0.64987	31.0	13111	100
2025-3-27 18:39:50.853	WT901BLE68-01(48591DE3C19B)	-0.131	-1.270	0.095	96.802	127.075	257.385	-67.32	21.62	-90.38	-68.796	-47.726	-14.406	-0.37042	0.53625	-0.39084	0.64987	31.0	13111	100
2025-3-27 18:39:50.853	WT901BLE68-01(48591DE3C19B)	-0.072	-1.270	0.095	96.802	127.075	257.385	-66.51	24.41	-90.65	-77.518	-40.278	-12.348	-0.37042	0.53625	-0.39084	0.64987	31.0	13111	100
2025-3-27 18:39:50.853	WT901BLE68-01(48591DE3C19B)	-0.072	-1.205	0.098	77.759	144.592	257.507	-65.85	27.22	-90.98	-77.518	-40.278	-12.348	-0.37042	0.53625	-0.39084	0.64987	31.0	13111	100
2025-3-27 18:39:50.853	WT901BLE68-01(48591DE3C19B)	-0.046	-1.205	0.098	77.759	144.592	257.507	-65.33	30.06	-91.37	-77.518	-40.278	-12.348	-0.37042	0.53625	-0.39084	0.64987	31.0	13111	100
2025-3-27 18:39:50.881	WT901BLE68-01(48591DE3C19B)	-0.046	-1.236	0.036	56.885	148.193	251.587	-64.94	32.86	-91.79	-77.518	-40.278	-12.348	-0.37042	0.53625	-0.39084	0.64987	31.0	13111	100
2025-3-27 18:39:50.881	WT901BLE68-01(48591DE3C19B)	-0.062	-1.236	0.036	56.885	148.193	251.587	-64.70	35.62	-92.23	-77.518	-40.278	-12.348	-0.37042	0.53625	-0.39084	0.64987	31.0	13111	100
2025-3-27 18:39:50.881	WT901BLE68-01(48591DE3C19B)	-0.062	-1.287	-0.010	38.940	133.118	248.352	-64.52	38.31	-92.60	-77.518	-40.278	-12.348	-0.37042	0.53625	-0.39084	0.64987	31.0	13111	100
2025-3-27 18:39:50.881	WT901BLE68-01(48591DE3C19B)	-0.156	-1.287	-0.010	38.940	133.118	248.352	-64.40	40.95	-92.89	-77.518	-40.278	-12.348	-0.37042	0.53625	-0.39084	0.64987	31.0	13111	100
2025-3-27 18:39:50.912	WT901BLE68-01(48591DE3C19B)	-0.156	-1.433	-0.038	15.564	97.412	239.136	-64.29	43.45	-93.01	-77.518	-40.278	-12.348	-0.37042	0.53625	-0.39084	0.64987	31.0	13111	100
2025-3-27 18:39:50.912	WT901BLE68-01(48591DE3C19B)	-0.128	-1.433	-0.038	15.564	97.412	239.136	-64.16	45.81	-92.93	-77.518	-40.278	-12.348	-0.37042	0.53625	-0.39084	0.64987	31.0	13111	100
2025-3-27 18:39:50.913	WT901BLE68-01(48591DE3C19B)	-0.128	-1.738	-0.057	-4.639	43.213	213.196	-63.93	47.93	-92.56	-77.518	-40.278	-12.348	-0.37042	0.53625	-0.39084	0.64987	31.0	13111	100
2025-3-27 18:39:50.913	WT901BLE68-01(48591DE3C19B)	0.275	-1.738	-0.057	-4.639	43.213	213.196	-63.56	49.80	-91.89	-77.518	-40.278	-12.348	-0.37042	0.53625	-0.39084	0.64987	31.0	13111	100
2025-3-27 18:39:50.974	WT901BLE68-01(48591DE3C19B)	0.275	-2.163	-0.084	-8.179	-30.029	173.645	-62.87	51.31	-90.80	-77.518	-40.278	-12.348	-0.37042	0.53625	-0.39084	0.64987	31.0	13111	100
2025-3-27 18:39:50.974	WT901BLE68-01(48591DE3C19B)	0.759	-2.163	-0.084	-8.179	-30.029	173.645	-61.86	52.45	-89.29	-77.518	-40.278	-12.348	-0.37042	0.53625	-0.39084	0.64987	31.0	13111	100
2025-3-27 18:39:50.974	WT901BLE68-01(48591DE3C19B)	0.759	-2.325	-0.036	15.442	-86.121	130.615	-60.49	53.24	-87.47	-77.518	-40.278	-12.348	-0.37042	0.53625	-0.39084	0.64987	31.0	13111	100
2025-3-27 18:39:50.974	WT901BLE68-01(48591DE3C19B)	0.853	-2.325	-0.036	15.442	-86.121	130.615	-58.77	53.65	-85.39	-77.518	-40.278	-12.348	-0.37042	0.53625	-0.39084	0.64987	31.0	13111	100
2025-3-27 18:39:51.4	WT901BLE68-01(48591DE3C19B)	0.853	-1.998	0.030	24.231	-102.661	70.679	-57.11	53.71	-83.44	-77.518	-40.278	-12.348	-0.37042	0.53625	-0.39084	0.64987	31.0	13111	100
2025-3-27 18:39:51.4	WT901BLE68-01(48591DE3C19B)	0.811	-1.998	0.030	24.231	-102.661	70.679	-55.57	53.44	-81.67	-77.518	-40.278	-12.348	-0.37042	0.53625	-0.39084	0.64987	31.0	13111	100
2025-3-27 18:39:51.5	WT901BLE68-01(48591DE3C19B)	0.811	-1.756	0.089	11.230	-98.633	1.099	-54.42	52.86	-80.30	-77.518	-40.278	-12.348	-0.37042	0.53625	-0.39084	0.64987	31.0	13111	100
2025-3-27 18:39:51.5	WT901BLE68-01(48591DE3C19B)	0.693	-1.756	0.089	11.230	-98.633	1.099	-53.67	51.99	-79.33	-77.518	-40.278	-12.348	-0.74362	0.06268	-0.56006	0.35959	31.0	13111	100
2025-3-27 18:39:51.34	WT901BLE68-01(48591DE3C19B)	0.693	-1.506	0.208	-2.991	-78.125	-60.303	-53.37	50.93	-78.83	-77.518	-40.278	-12.348	-0.74362	0.06268	-0.56006	0.35959	31.0	13111	100
2025-3-27 18:39:51.34	WT901BLE68-01(48591DE3C19B)	0.491	-1.506	0.208	-2.991	-78.125	-60.303	-53.47	49.68	-78.76	-77.518	-40.278	-12.348	-0.74362	0.06268	-0.56006	0.35959	31.0	13111	100
2025-3-27 18:39:51.34	WT901BLE68-01(48591DE3C19B)	0.491	-1.378	0.320	-18.372	-54.749	-114.136	-53.94	48.29	-79.07	-77.518	-40.278	-12.348	-0.74362	0.06268	-0.56006	0.35959	31.0	13111	100
2025-3-27 18:39:51.34	WT901BLE68-01(48591DE3C19B)	0.254	-1.378	0.320	-18.372	-54.749	-114.136	-54.72	46.75	-79.71	-77.518	-40.278	-12.348	-0.74362	0.06268	-0.56006	0.35959	31.0	13111	100
2025-3-27 18:39:51.92	WT901BLE68-01(48591DE3C19B)	0.254	-1.380	0.305	-34.058	-41.626	-158.813	-55.71	45.05	-80.56	-77.518	-40.278	-12.348	-0.74362	0.06268	-0.56006	0.35959	31.0	13111	100
2025-3-27 18:39:51.92	WT901BLE68-01(48591DE3C19B)	0.095	-1.380	0.305	-34.058	-41.626	-158.813	-56.88	43.22	-81.57	-77.518	-40.278	-12.348	-0.74362	0.06268	-0.56006	0.35959	31.0	13111	100
2025-3-27 18:39:51.92	WT901BLE68-01(48591DE3C19B)	0.095	-1.271	0.268	-44.006	-29.480	-195.251	-58.13	41.25	-82.70	-77.518	-40.278	-12.348	-0.74362	0.06268	-0.56006	0.35959	31.0	13111	100
2025-3-27 18:39:51.92	WT901BLE68-01(48591DE3C19B)	-0.070	-1.271	0.268	-44.006	-29.480	-195.251	-59.46	39.17	-83.92	-77.518	-40.278	-12.348	-0.74362	0.06268	-0.56006	0.35959	31.0	13111	100
2025-3-27 18:39:51.121	WT901BLE68-01(48591DE3C19B)	-0.070	-1.198	0.223	-62.439	-20.691	-221.863	-60.86	36.97	-85.17	-77.518	-40.278	-12.348	-0.74362	0.06268	-0.56006	0.35959	31.0	13111	100
2025-3-27 18:39:51.122	WT901BLE68-01(48591DE3C19B)	-0.102	-1.198	0.223	-62.439	-20.691	-221.863	-62.32	34.68	-86.42	-77.518	-40.278	-12.348	-0.74362	0.06268	-0.56006	0.35959	31.0	13111	100
2025-3-27 18:39:51.122	WT901BLE68-01(48591DE3C19B)	-0.102	-1.271	0.250	-70.923	9.033	-249.207	-63.83	32.33	-87.80	-77.518	-40.278	-12.348	-0.74362	0.06268	-0.56006	0.35959	31.0	13111	100
2025-3-27 18:39:51.122	WT901BLE68-01(48591DE3C19B)	-0.082	-1.271	0.250	-70.923	9.033	-249.207	-65.39	29.90	-89.28	-77.518	-40.278	-12.348	-0.74362	0.06268	-0.56006	0.35959	31.0	13111	100
2025-3-27 18:39:51.153	WT901BLE68-01(48591DE3C19B)	-0.082	-1.282	0.227	-77.820	39.673	-266.602	-66.96	27.44	-90.84	-77.518	-40.278	-12.348	-0.74362	0.06268	-0.56006	0.35959	31.0	13111	100
2025-3-27 18:39:51.153	WT901BLE68-01(48591DE3C19B)	-0.211	-1.282	0.227	-77.820	39.673	-266.602	-68.53	24.95	-92.48	-77.518	-40.278	-12.348	-0.74362	0.06268	-0.56006	0.35959	31.0	13111	100
2025-3-27 18:39:51.153	WT901BLE68-01(48591DE3C19B)	-0.211	-1.299	0.233	-85.144	53.223	-277.405	-70.12	22.38	-94.19	-77.518	-40.278	-12.348	-0.74362	0.06268	-0.56006	0.35959	31.0	13111	100
2025-3-27 18:39:51.153	WT901BLE68-01(48591DE3C19B)	-0.315	-1.299	0.233	-85.144	53.223	-277.405	-71.60	19.80	-95.77	-77.518	-40.278	-12.348	-0.74362	0.06268	-0.56006	0.35959	31.0	13111	100
2025-3-27 18:39:51.212	WT901BLE68-01(48591DE3C19B)	-0.315	-1.361	0.325	-87.708	48.950	-283.752	-72.98	17.13	-97.24	-77.518	-40.278	-12.348	-0.74362	0.06268	-0.56006	0.35959	31.0	13111	100
2025-3-27 18:39:51.213	WT901BLE68-01(48591DE3C19B)	-0.329	-1.361	0.325	-87.708	48.950	-283.752	-74.27	14.45	-98.61	-77.518	-40.278	-12.348	-0.74362	0.06268	-0.56006	0.35959	31.0	13111	100
2025-3-27 18:39:51.213	WT901BLE68-01(48591DE3C19B)	-0.329	-1.429	0.480	-77.637	59.448	-281.616	-75.39	11.82	-100.01	-77.518	-40.278	-12.348	-0.74362	0.06268	-0.56006	0.35959	31.0	13111	100
2025-3-27 18:39:51.213	WT901BLE68-01(48591DE3C19B)	-0.412	-1.429	0.480	-77.637	59.448	-281.616	-76.42	9.19	-101.34	-77.518	-40.278	-12.348	-0.74362	0.06268	-0.56006	0.35959	31.0	13111	100
2025-3-27 18:39:51.242	WT901BLE68-01(48591DE3C19B)	-0.412	-1.479	0.544	-53.894	84.473	-267.639	-77.17	6.75	-102.83	-67.326	-41.454	-14.896	-0.74362	0.06268	-0.56006	0.35959	31.0	13111	100
2025-3-27 18:39:51.243	WT901BLE68-01(48591DE3C19B)	-0.539	-1.479	0.544	-53.894	84.473	-267.639	-77.84	4.32	-104.28	-67.326	-41.454	-14.896	-0.74362	0.06268	-0.56006	0.35959	31.0	13111	100
2025-3-27 18:39:51.243	WT901BLE68-01(48591DE3C19B)	-0.539	-1.447	0.396	-20.813	91.248	-246.948	-78.12	2.11	-105.73	-67.326	-41.454	-14.896	-0.74362	0.06268	-0.56006	0.35959	31.0	13111	100
2025-3-27 18:39:51.243	WT901BLE68-01(48591DE3C19B)	-0.448	-1.447	0.396	-20.813	91.248	-246.948	-78.34	-0.07	-107.16	-67.326	-41.454	-14.896	-0.74362	0.06268	-0.56006	0.35959	31.0	13111	100
2025-3-27 18:39:51.302	WT901BLE68-01(48591DE3C19B)	-0.448	-1.278	0.140	8.057	89.111	-228.882	-78.22	-2.07	-108.52	-67.326	-41.454	-14.896	-0.74362	0.06268	-0.56006	0.35959	31.0	13111	100
2025-3-27 18:39:51.302	WT901BLE68-01(48591DE3C19B)	-0.290	-1.278	0.140	8.057	89.111	-228.882	-78.06	-4.05	-109.89	-67.326	-41.454	-14.896	-0.74362	0.06268	-0.56006	0.35959	31.0	13111	100
2025-3-27 18:39:51.302	WT901BLE68-01(48591DE3C19B)	-0.290	-1.085	0.007	24.292	95.825	-208.984	-77.71	-5.80	-111.29	-67.326	-41.454	-14.896	-0.74362	0.06268	-0.56006	0.35959	31.0	13111	100
2025-3-27 18:39:51.303	WT901BLE68-01(48591DE3C19B)	-0.274	-1.085	0.007	24.292	95.825	-208.984	-77.31	-7.53	-112.69	-67.326	-41.454	-14.896	-0.74362	0.06268	-0.56006	0.35959	31.0	13111	100
2025-3-27 18:39:51.331	WT901BLE68-01(48591DE3C19B)	-0.274	-0.987	0.040	30.579	119.690	-192.932	-76.79	-9.03	-114.31	-67.326	-41.454	-14.896	-0.74362	0.06268	-0.56006	0.35959	31.0	13111	100
2025-3-27 18:39:51.331	WT901BLE68-01(48591DE3C19B)	-0.440	-0.987	0.040	30.579	119.690	-192.932	-76.23	-10.50	-115.94	-67.326	-41.454	-14.896	-0.74362	0.06268	-0.56006	0.35959	31.0	13111	100
2025-3-27 18:39:51.332	WT901BLE68-01(48591DE3C19B)	-0.440	-0.951	0.170	37.231	140.442	-177.429	-75.54	-11.73	-117.75	-67.326	-41.454	-14.896	-0.74362	0.06268	-0.56006	0.35959	31.0	13111	100
2025-3-27 18:39:51.332	WT901BLE68-01(48591DE3C19B)	-0.673	-0.951	0.170	37.231	140.442	-177.429	-74.80	-12.94	-119.59	-67.326	-41.454	-14.896	-0.74362	0.06268	-0.56006	0.35959	31.0	13111	100
2025-3-27 18:39:51.362	WT901BLE68-01(48591DE3C19B)	-0.673	-0.879	0.286	43.518	142.517	-161.194	-73.98	-13.94	-121.42	-67.326	-41.454	-14.896	-0.74362	0.06268	-0.56006	0.35959	31.0	13111	100
2025-3-27 18:39:51.362	WT901BLE68-01(48591DE3C19B)	-0.799	-0.879	0.286	43.518	142.517	-161.194	-73.11	-14.89	-123.28	-67.326	-41.454	-14.896	-0.74362	0.06268	-0.56006	0.35959	31.0	13111	100
2025-3-27 18:39:51.363	WT901BLE68-01(48591DE3C19B)	-0.799	-0.876	0.300	48.340	132.813	-146.973	-72.20	-15.69	-125.04	-67.326	-41.454	-14.896	-0.74362	0.06268	-0.56006	0.35959	31.0	13111	100
2025-3-27 18:39:51.363	WT901BLE68-01(48591DE3C19B)	-0.815	-0.876	0.300	48.340	132.813	-146.973	-71.26	-16.45	-126.83	-67.326	-41.454	-14.896	-0.74362	0.06268	-0.56006	0.35959	31.0	13111	100
2025-3-27 18:39:51.453	WT901BLE68-01(48591DE3C19B)	-0.815	-0.976	0.268	52.368	118.530	-131.897	-70.30	-17.07	-128.45	-67.326	-41.454	-14.896	-0.74362	0.06268	-0.56006	0.35959	31.0	13111	100
2025-3-27 18:39:51.453	WT901BLE68-01(48591DE3C19B)	-0.868	-0.976	0.268	52.368	118.530	-131.897	-69.32	-17.66	-130.11	-67.326	-41.454	-14.896	-0.74362	0.06268	-0.56006	0.35959	31.0	13111	100
2025-3-27 18:39:51.453	WT901BLE68-01(48591DE3C19B)	-0.868	-1.042	0.167	55.664	93.201	-117.554	-68.39	-18.15	-131.48	-67.326	-41.454	-14.896	-0.74362	0.06268	-0.56006	0.35959	31.0	13111	100
2025-3-27 18:39:51.453	WT901BLE68-01(48591DE3C19B)	-0.997	-1.042	0.167	55.664	93.201	-117.554	-67.45	-18.62	-132.89	-67.326	-41.454	-14.896	-0.74362	0.06268	-0.56006	0.35959	31.0	13111	100
2025-3-27 18:39:51.454	WT901BLE68-01(48591DE3C19B)	-0.997	-1.042	0.109	51.697	50.354	-103.699	-66.68	-19.09	-133.84	-67.326	-41.454	-14.896	-0.23569	0.33862	-0.44220	0.79633	31.0	13111	100
2025-3-27 18:39:51.454	WT901BLE68-01(48591DE3C19B)	-1.122	-1.042	0.109	51.697	50.354	-103.699	-65.89	-19.54	-134.83	-67.326	-41.454	-14.896	-0.23569	0.33862	-0.44220	0.79633	31.0	13111	100
2025-3-27 18:39:51.454	WT901BLE68-01(48591DE3C19B)	-1.122	-1.116	0.143	40.527	6.775	-86.731	-65.37	-20.00	-135.35	-67.326	-41.454	-14.896	-0.23569	0.33862	-0.44220	0.79633	31.0	13111	100
2025-3-27 18:39:51.454	WT901BLE68-01(48591DE3C19B)	-1.104	-1.116	0.143	40.527	6.775	-86.731	-64.83	-20.43	-135.91	-67.326	-41.454	-14.896	-0.23569	0.33862	-0.44220	0.79633	31.0	13111	100
2025-3-27 18:39:51.491	WT901BLE68-01(48591DE3C19B)	-1.104	-1.205	0.181	24.841	-21.362	-60.364	-64.58	-20.74	-136.10	-67.326	-41.454	-14.896	-0.23569	0.33862	-0.44220	0.79633	31.0	13111	100
2025-3-27 18:39:51.491	WT901BLE68-01(48591DE3C19B)	-0.928	-1.205	0.181	24.841	-21.362	-60.364	-64.31	-21.03	-136.31	-67.326	-41.454	-14.896	-0.23569	0.33862	-0.44220	0.79633	31.0	13111	100
2025-3-27 18:39:51.491	WT901BLE68-01(48591DE3C19B)	-0.928	-1.219	0.202	4.272	-26.245	-24.963	-64.32	-21.03	-136.32	-67.326	-41.454	-14.896	-0.23569	0.33862	-0.44220	0.79633	31.0	13111	100
2025-3-27 18:39:51.491	WT901BLE68-01(48591DE3C19B)	-0.829	-1.219	0.202	4.272	-26.245	-24.963	-64.33	-21.03	-136.33	-67.326	-41.454	-14.896	-0.23569	0.33862	-0.44220	0.79633	31.0	13111	100
2025-3-27 18:39:51.542	WT901BLE68-01(48591DE3C19B)	-0.829	-1.144	0.232	-13.550	-30.334	13.000	-64.59	-20.70	-136.13	-67.326	-41.454	-14.896	-0.23569	0.33862	-0.44220	0.79633	31.0	13111	100
2025-3-27 18:39:51.543	WT901BLE68-01(48591DE3C19B)	-0.853	-1.144	0.232	-13.550	-30.334	13.000	-64.85	-20.39	-135.93	-67.326	-41.454	-14.896	-0.23569	0.33862	-0.44220	0.79633	31.0	13111	100
2025-3-27 18:39:51.543	WT901BLE68-01(48591DE3C19B)	-0.853	-1.068	0.316	-30.212	-66.956	49.866	-65.45	-19.88	-135.22	-67.326	-41.454	-14.896	-0.23569	0.33862	-0.44220	0.79633	31.0	13111	100
2025-3-27 18:39:51.543	WT901BLE68-01(48591DE3C19B)	-0.835	-1.068	0.316	-30.212	-66.956	49.866	-66.02	-19.37	-134.52	-67.326	-41.454	-14.896	-0.23569	0.33862	-0.44220	0.79633	31.0	13111	100
2025-3-27 18:39:51.602	WT901BLE68-01(48591DE3C19B)	-0.835	-1.063	0.357	-38.635	-117.493	87.036	-66.88	-18.72	-133.17	-67.326	-41.454	-14.896	-0.23569	0.33862	-0.44220	0.79633	31.0	13111	100
2025-3-27 18:39:51.603	WT901BLE68-01(48591DE3C19B)	-0.736	-1.063	0.357	-38.635	-117.493	87.036	-67.71	-18.05	-131.84	-67.326	-41.454	-14.896	-0.23569	0.33862	-0.44220	0.79633	31.0	13111	100
2025-3-27 18:39:51.603	WT901BLE68-01(48591DE3C19B)	-0.736	-1.027	0.343	-38.940	-148.376	124.878	-68.65	-17.13	-130.08	-67.326	-41.454	-14.896	-0.23569	0.33862	-0.44220	0.79633	31.0	13111	100
2025-3-27 18:39:51.603	WT901BLE68-01(48591DE3C19B)	-0.708	-1.027	0.343	-38.940	-148.376	124.878	-69.55	-16.18	-128.34	-67.326	-41.454	-14.896	-0.23569	0.33862	-0.44220	0.79633	31.0	13111	100
2025-3-27 18:39:51.604	WT901BLE68-01(48591DE3C19B)	-0.708	-1.070	0.292	-38.757	-162.476	165.344	-70.47	-14.89	-126.33	-67.326	-41.454	-14.896	-0.23569	0.33862	-0.44220	0.79633	31.0	13111	100
2025-3-27 18:39:51.604	WT901BLE68-01(48591DE3C19B)	-0.659	-1.070	0.292	-38.757	-162.476	165.344	-71.35	-13.57	-124.35	-67.326	-41.454	-14.896	-0.23569	0.33862	-0.44220	0.79633	31.0	13111	100
2025-3-27 18:39:51.604	WT901BLE68-01(48591DE3C19B)	-0.659	-1.282	0.168	-33.264	-157.532	198.364	-72.12	-11.91	-122.33	-67.326	-41.454	-14.896	-0.23569	0.33862	-0.44220	0.79633	31.0	13111	100
2025-3-27 18:39:51.604	WT901BLE68-01(48591DE3C19B)	-0.489	-1.282	0.168	-33.264	-157.532	198.364	-72.83	-10.23	-120.33	-67.326	-41.454	-14.896	-0.23569	0.33862	-0.44220	0.79633	31.0	13111	100
2025-3-27 18:39:51.662	WT901BLE68-01(48591DE3C19B)	-0.399	-1.457	0.072	-19.043	-140.930	225.586	-73.33	-8.23	-118.43	-67.326	-41.454	-14.896	-0.23569	0.33862	-0.44220	0.79633	31.0	13111	100
2025-3-27 18:39:51.663	WT901BLE68-01(48591DE3C19B)	-0.399	-1.603	0.082	-5.493	-120.911	246.399	-73.70	-6.12	-116.59	-49.196	-43.806	-13.916	-0.23569	0.33862	-0.44220	0.79633	31.0	13111	100
2025-3-27 18:39:51.663	WT901BLE68-01(48591DE3C19B)	-0.347	-1.603	0.082	-5.493	-120.911	246.399	-73.92	-3.89	-114.82	-49.196	-43.806	-13.916	-0.23569	0.33862	-0.44220	0.79633	31.0	13111	100
2025-3-27 18:39:51.663	WT901BLE68-01(48591DE3C19B)	-0.347	-1.784	0.123	9.644	-104.614	259.949	-74.01	-1.59	-113.12	-49.196	-43.806	-13.916	-0.23569	0.33862	-0.44220	0.79633	31.0	13111	100
2025-3-27 18:39:51.691	WT901BLE68-01(48591DE3C19B)	-0.229	-1.784	0.123	9.644	-104.614	259.949	-73.95	0.77	-111.46	-49.196	-43.806	-13.916	-0.23569	0.33862	-0.44220	0.79633	31.0	13111	100
2025-3-27 18:39:51.691	WT901BLE68-01(48591DE3C19B)	-0.229	-1.802	0.133	29.663	-84.106	269.470	-73.74	3.19	-109.87	-49.196	-43.806	-13.916	-0.23569	0.33862	-0.44220	0.79633	31.0	13111	100
2025-3-27 18:39:51.691	WT901BLE68-01(48591DE3C19B)	-0.149	-1.802	0.133	29.663	-84.106	269.470	-73.37	5.64	-108.34	-49.196	-43.806	-13.916	-0.23569	0.33862	-0.44220	0.79633	31.0	13111	100
2025-3-27 18:39:51.691	WT901BLE68-01(48591DE3C19B)	-0.149	-1.614	0.125	42.480	-56.824	276.245	-72.89	8.12	-106.92	-49.196	-43.806	-13.916	-0.23569	0.33862	-0.44220	0.79633	31.0	13111	100
2025-3-27 18:39:51.722	WT901BLE68-01(48591DE3C19B)	-0.161	-1.614	0.125	42.480	-56.824	276.245	-72.30	10.64	-105.58	-49.196	-43.806	-13.916	-0.23569	0.33862	-0.44220	0.79633	31.0	13111	100
2025-3-27 18:39:51.723	WT901BLE68-01(48591DE3C19B)	-0.161	-1.421	0.113	43.518	-29.480	279.602	-71.67	13.18	-104.33	-49.196	-43.806	-13.916	-0.23569	0.33862	-0.44220	0.79633	31.0	13111	100
2025-3-27 18:39:51.723	WT901BLE68-01(48591DE3C19B)	-0.186	-1.421	0.113	43.518	-29.480	279.602	-71.00	15.75	-103.17	-49.196	-43.806	-13.916	-0.23569	0.33862	-0.44220	0.79633	31.0	13111	100
2025-3-27 18:39:51.723	WT901BLE68-01(48591DE3C19B)	-0.186	-1.279	0.103	40.161	-3.662	281.921	-70.33	18.34	-102.09	-49.196	-43.806	-13.916	-0.23569	0.33862	-0.44220	0.79633	31.0	13111	100
2025-3-27 18:39:51.790	WT901BLE68-01(48591DE3C19B)	-0.198	-1.279	0.103	40.161	-3.662	281.921	-69.67	20.95	-101.09	-49.196	-43.806	-13.916	-0.23569	0.33862	-0.44220	0.79633	31.0	13111	100
2025-3-27 18:39:51.790	WT901BLE68-01(48591DE3C19B)	-0.198	-1.195	0.102	33.875	17.090	283.203	-69.01	23.57	-100.15	-49.196	-43.806	-13.916	-0.23569	0.33862	-0.44220	0.79633	31.0	13111	100
2025-3-27 18:39:51.790	WT901BLE68-01(48591DE3C19B)	-0.210	-1.195	0.102	33.875	17.090	283.203	-68.37	26.21	-99.26	-49.196	-43.806	-13.916	-0.23569	0.33862	-0.44220	0.79633	31.0	13111	100
2025-3-27 18:39:51.790	WT901BLE68-01(48591DE3C19B)	-0.210	-1.162	0.066	26.245	27.588	283.691	-67.74	28.84	-98.37	-49.196	-43.806	-13.916	-0.23569	0.33862	-0.44220	0.79633	31.0	13111	100
2025-3-27 18:39:51.814	WT901BLE68-01(48591DE3C19B)	-0.212	-1.162	0.066	26.245	27.588	283.691	-67.12	31.48	-97.49	-49.196	-43.806	-13.916	-0.23569	0.33862	-0.44220	0.79633	31.0	13111	100
2025-3-27 18:39:51.815	WT901BLE68-01(48591DE3C19B)	-0.212	-1.133	0.030	18.433	28.259	281.494	-66.47	34.07	-96.56	-49.196	-43.806	-13.916	-0.23569	0.33862	-0.44220	0.79633	31.0	13111	100
2025-3-27 18:39:51.815	WT901BLE68-01(48591DE3C19B)	-0.212	-1.133	0.030	18.433	28.259	281.494	-65.80	36.63	-95.57	-49.196	-43.806	-13.916	-0.23569	0.33862	-0.44220	0.79633	31.0	13111	100
2025-3-27 18:39:51.815	WT901BLE68-01(48591DE3C19B)	-0.212	-1.199	-0.001	8.118	19.531	274.048	-65.09	39.12	-94.49	-49.196	-43.806	-13.916	-0.67603	0.13022	-0.56592	0.45349	31.0	13111	100
2025-3-27 18:39:51.871	WT901BLE68-01(48591DE3C19B)	-0.216	-1.199	-0.001	8.118	19.531	274.048	-64.34	41.52	-93.30	-49.196	-43.806	-13.916	-0.67603	0.13022	-0.56592	0.45349	31.0	13111	100
2025-3-27 18:39:51.872	WT901BLE68-01(48591DE3C19B)	-0.216	-1.377	-0.028	1.709	3.357	259.827	-63.48	43.80	-91.97	-49.196	-43.806	-13.916	-0.67603	0.13022	-0.56592	0.45349	31.0	13111	100
2025-3-27 18:39:51.872	WT901BLE68-01(48591DE3C19B)	-0.173	-1.377	-0.028	1.709	3.357	259.827	-62.52	45.95	-90.48	-49.196	-43.806	-13.916	-0.67603	0.13022	-0.56592	0.45349	31.0	13111	100
2025-3-27 18:39:51.872	WT901BLE68-01(48591DE3C19B)	-0.173	-1.562	-0.055	0.732	-15.869	238.098	-61.42	47.92	-88.85	-49.196	-43.806	-13.916	-0.67603	0.13022	-0.56592	0.45349	31.0	13111	100
2025-3-27 18:39:51.902	WT901BLE68-01(48591DE3C19B)	-0.095	-1.562	-0.055	0.732	-15.869	238.098	-60.18	49.72	-87.04	-49.196	-43.806	-13.916	-0.67603	0.13022	-0.56592	0.45349	31.0	13111	100
2025-3-27 18:39:51.902	WT901BLE68-01(48591DE3C19B)	-0.095	-1.761	-0.041	2.747	-30.945	209.534	-58.80	51.31	-85.13	-49.196	-43.806	-13.916	-0.67603	0.13022	-0.56592	0.45349	31.0	13111	100
2025-3-27 18:39:51.902	WT901BLE68-01(48591DE3C19B)	-0.139	-1.761	-0.041	2.747	-30.945	209.534	-57.32	52.71	-83.13	-49.196	-43.806	-13.916	-0.67603	0.13022	-0.56592	0.45349	31.0	13111	100
2025-3-27 18:39:51.902	WT901BLE68-01(48591DE3C19B)	-0.139	-1.854	0.018	8.057	-41.138	175.476	-55.77	53.88	-81.10	-49.196	-43.806	-13.916	-0.67603	0.13022	-0.56592	0.45349	31.0	13111	100
2025-3-27 18:39:51.931	WT901BLE68-01(48591DE3C19B)	-0.182	-1.854	0.018	8.057	-41.138	175.476	-54.17	54.85	-79.06	-49.196	-43.806	-13.916	-0.67603	0.13022	-0.56592	0.45349	31.0	13111	100
2025-3-27 18:39:51.932	WT901BLE68-01(48591DE3C19B)	-0.182	-1.817	0.072	11.353	-54.626	132.141	-52.59	55.56	-77.08	-49.196	-43.806	-13.916	-0.67603	0.13022	-0.56592	0.45349	31.0	13111	100
2025-3-27 18:39:51.932	WT901BLE68-01(48591DE3C19B)	-0.054	-1.817	0.072	11.353	-54.626	132.141	-51.04	56.03	-75.18	-49.196	-43.806	-13.916	-0.67603	0.13022	-0.56592	0.45349	31.0	13111	100
2025-3-27 18:39:51.932	WT901BLE68-01(48591DE3C19B)	-0.054	-1.721	0.117	8.728	-70.313	87.158	-49.61	56.24	-73.41	-49.196	-43.806	-13.916	-0.67603	0.13022	-0.56592	0.45349	31.0	13111	100
2025-3-27 18:39:51.962	WT901BLE68-01(48591DE3C19B)	0.176	-1.721	0.117	8.728	-70.313	87.158	-48.32	56.21	-71.80	-49.196	-43.806	-13.916	-0.67603	0.13022	-0.56592	0.45349	31.0	13111	100
2025-3-27 18:39:51.962	WT901BLE68-01(48591DE3C19B)	0.176	-1.554	0.120	12.573	-62.866	45.898	-47.27	56.02	-70.48	-49.196	-43.806	-13.916	-0.67603	0.13022	-0.56592	0.45349	31.0	13111	100
2025-3-27 18:39:51.962	WT901BLE68-01(48591DE3C19B)	0.416	-1.554	0.120	12.573	-62.866	45.898	-46.47	55.70	-69.50	-49.196	-43.806	-13.916	-0.67603	0.13022	-0.56592	0.45349	31.0	13111	100
2025-3-27 18:39:51.962	WT901BLE68-01(48591DE3C19B)	0.416	-1.302	0.116	11.292	-26.062	7.385	-46.09	55.35	-69.00	-49.196	-43.806	-13.916	-0.67603	0.13022	-0.56592	0.45349	31.0	13111	100
2025-3-27 18:39:52.22	WT901BLE68-01(48591DE3C19B)	0.402	-1.302	0.116	11.292	-26.062	7.385	-46.11	54.99	-68.98	-49.196	-43.806	-13.916	-0.67603	0.13022	-0.56592	0.45349	31.0	13111	100
2025-3-27 18:39:52.23	WT901BLE68-01(48591DE3C19B)	0.402	-1.184	0.175	-3.601	12.634	-31.433	-46.59	54.61	-69.44	-49.196	-43.806	-13.916	-0.67603	0.13022	-0.56592	0.45349	31.0	13111	100
2025-3-27 18:39:52.23	WT901BLE68-01(48591DE3C19B)	0.279	-1.184	0.175	-3.601	12.634	-31.433	-47.51	54.22	-70.35	-49.196	-43.806	-13.916	-0.67603	0.13022	-0.56592	0.45349	31.0	13111	100
2025-3-27 18:39:52.23	WT901BLE68-01(48591DE3C19B)	0.279	-1.237	0.211	-11.780	43.457	-75.928	-48.81	53.74	-71.69	-49.196	-43.806	-13.916	-0.67603	0.13022	-0.56592	0.45349	31.0	13111	100
2025-3-27 18:39:52.82	WT901BLE68-01(48591DE3C19B)	0.133	-1.237	0.211	-11.780	43.457	-75.928	-50.45	53.17	-73.43	-75.558	-50.764	-1.862	-0.67603	0.13022	-0.56592	0.45349	31.0	13111	100
2025-3-27 18:39:52.82	WT901BLE68-01(48591DE3C19B)	0.133	-1.190	0.281	-12.817	62.805	-115.845	-52.30	52.48	-75.43	-75.558	-50.764	-1.862	-0.67603	0.13022	-0.56592	0.45349	31.0	13111	100
2025-3-27 18:39:52.82	WT901BLE68-01(48591DE3C19B)	0.040	-1.190	0.281	-12.817	62.805	-115.845	-54.32	51.64	-77.67	-75.558	-50.764	-1.862	-0.67603	0.13022	-0.56592	0.45349	31.0	13111	100
2025-3-27 18:39:52.83	WT901BLE68-01(48591DE3C19B)	0.040	-1.171	0.311	-13.611	66.956	-151.855	-56.37	50.63	-80.00	-75.558	-50.764	-1.862	-0.67603	0.13022	-0.56592	0.45349	31.0	13111	100
2025-3-27 18:39:52.90	WT901BLE68-01(48591DE3C19B)	-0.001	-1.171	0.311	-13.611	66.956	-151.855	-58.43	49.42	-82.38	-75.558	-50.764	-1.862	-0.67603	0.13022	-0.56592	0.45349	31.0	13111	100
2025-3-27 18:39:52.90	WT901BLE68-01(48591DE3C19B)	-0.001	-1.168	0.277	-11.292	65.125	-183.289	-60.42	48.03	-84.74	-75.558	-50.764	-1.862	-0.67603	0.13022	-0.56592	0.45349	31.0	13111	100
2025-3-27 18:39:52.91	WT901BLE68-01(48591DE3C19B)	-0.072	-1.168	0.277	-11.292	65.125	-183.289	-62.31	46.46	-87.04	-75.558	-50.764	-1.862	-0.67603	0.13022	-0.56592	0.45349	31.0	13111	100
2025-3-27 18:39:52.91	WT901BLE68-01(48591DE3C19B)	-0.072	-1.177	0.249	-6.470	63.538	-209.290	-64.09	44.61	-89.34	-75.558	-50.764	-1.862	-0.67603	0.13022	-0.56592	0.45349	31.0	13111	100
2025-3-27 18:39:52.142	WT901BLE68-01(48591DE3C19B)	-0.144	-1.177	0.249	-6.470	63.538	-209.290	-65.71	42.73	-91.48	-75.558	-50.764	-1.862	-0.67603	0.13022	-0.56592	0.45349	31.0	13111	100
2025-3-27 18:39:52.142	WT901BLE68-01(48591DE3C19B)	-0.144	-1.202	0.226	0.305	57.800	-235.535	-67.14	40.56	-93.54	-75.558	-50.764	-1.862	-0.67603	0.13022	-0.56592	0.45349	31.0	13111	100
2025-3-27 18:39:52.143	WT901BLE68-01(48591DE3C19B)	-0.195	-1.202	0.226	0.305	57.800	-235.535	-68.42	38.36	-95.46	-75.558	-50.764	-1.862	-0.67603	0.13022	-0.56592	0.45349	31.0	13111	100
2025-3-27 18:39:52.143	WT901BLE68-01(48591DE3C19B)	-0.195	-1.199	0.188	3.662	43.823	-258.118	-69.49	35.90	-97.19	-75.558	-50.764	-1.862	-0.67603	0.13022	-0.56592	0.45349	31.0	13111	100
2025-3-27 18:39:52.171	WT901BLE68-01(48591DE3C19B)	-0.221	-1.199	0.188	3.662	43.823	-258.118	-70.43	33.43	-98.81	-75.558	-50.764	-1.862	-0.67603	0.13022	-0.56592	0.45349	31.0	13111	100
2025-3-27 18:39:52.171	WT901BLE68-01(48591DE3C19B)	-0.221	-1.218	0.186	6.897	38.513	-279.114	-71.24	30.75	-100.35	-75.558	-50.764	-1.862	-0.67603	0.13022	-0.56592	0.45349	31.0	13111	100
2025-3-27 18:39:52.171	WT901BLE68-01(48591DE3C19B)	-0.270	-1.218	0.186	6.897	38.513	-279.114	-71.94	28.06	-101.80	-75.558	-50.764	-1.862	-0.67603	0.13022	-0.56592	0.45349	31.0	13111	100
2025-3-27 18:39:52.171	WT901BLE68-01(48591DE3C19B)	-0.270	-1.241	0.223	9.766	44.495	-294.983	-72.56	25.25	-103.29	-75.558	-50.764	-1.862	-0.67603	0.13022	-0.56592	0.45349	31.0	13111	100
2025-3-27 18:39:52.204	WT901BLE68-01(48591DE3C19B)	-0.344	-1.241	0.223	9.766	44.495	-294.983	-73.09	22.46	-104.72	-75.558	-50.764	-1.862	-0.67603	0.13022	-0.56592	0.45349	31.0	13111	100
2025-3-27 18:39:52.204	WT901BLE68-01(48591DE3C19B)	-0.344	-1.264	0.256	13.123	57.800	-305.481	-73.55	19.61	-106.25	-75.558	-50.764	-1.862	-0.67603	0.13022	-0.56592	0.45349	31.0	13111	100
2025-3-27 18:39:52.204	WT901BLE68-01(48591DE3C19B)	-0.415	-1.264	0.256	13.123	57.800	-305.481	-73.92	16.77	-107.73	-75.558	-50.764	-1.862	-0.67603	0.13022	-0.56592	0.45349	31.0	13111	100
2025-3-27 18:39:52.204	WT901BLE68-01(48591DE3C19B)	-0.415	-1.278	0.255	17.517	69.702	-309.509	-74.20	13.94	-109.29	-75.558	-50.764	-1.862	-0.67603	0.13022	-0.56592	0.45349	31.0	13111	100
2025-3-27 18:39:52.262	WT901BLE68-01(48591DE3C19B)	-0.462	-1.278	0.255	17.517	69.702	-309.509	-74.39	11.12	-110.82	-75.558	-50.764	-1.862	-0.67603	0.13022	-0.56592	0.45349	31.0	13111	100
2025-3-27 18:39:52.262	WT901BLE68-01(48591DE3C19B)	-0.462	-1.277	0.228	21.912	77.942	-307.739	-74.48	8.37	-112.41	-75.558	-50.764	-1.862	-0.47833	0.28738	-0.53384	0.63519	31.0	13111	100
2025-3-27 18:39:52.262	WT901BLE68-01(48591DE3C19B)	-0.491	-1.277	0.228	21.912	77.942	-307.739	-74.49	5.64	-113.97	-75.558	-50.764	-1.862	-0.47833	0.28738	-0.53384	0.63519	31.0	13111	100
2025-3-27 18:39:52.262	WT901BLE68-01(48591DE3C19B)	-0.491	-1.280	0.195	26.489	81.604	-300.110	-74.38	3.01	-115.54	-75.558	-50.764	-1.862	-0.47833	0.28738	-0.53384	0.63519	31.0	13111	100
2025-3-27 18:39:52.291	WT901BLE68-01(48591DE3C19B)	-0.548	-1.280	0.195	26.489	81.604	-300.110	-74.20	0.41	-117.10	-75.558	-50.764	-1.862	-0.47833	0.28738	-0.53384	0.63519	31.0	13111	100
2025-3-27 18:39:52.291	WT901BLE68-01(48591DE3C19B)	-0.548	-1.265	0.166	32.349	76.294	-286.255	-73.89	-2.04	-118.59	-75.558	-50.764	-1.862	-0.47833	0.28738	-0.53384	0.63519	31.0	13111	100
2025-3-27 18:39:52.291	WT901BLE68-01(48591DE3C19B)	-0.649	-1.265	0.166	32.349	76.294	-286.255	-73.53	-4.47	-120.09	-75.558	-50.764	-1.862	-0.47833	0.28738	-0.53384	0.63519	31.0	13111	100
2025-3-27 18:39:52.291	WT901BLE68-01(48591DE3C19B)	-0.649	-1.208	0.175	38.025	59.509	-267.151	-73.07	-6.72	-121.38	-75.558	-50.764	-1.862	-0.47833	0.28738	-0.53384	0.63519	31.0	13111	100
2025-3-27 18:39:52.322	WT901BLE68-01(48591DE3C19B)	-0.721	-1.208	0.175	38.025	59.509	-267.151	-72.56	-8.95	-122.71	-75.558	-50.764	-1.862	-0.47833	0.28738	-0.53384	0.63519	31.0	13111	100
2025-3-27 18:39:52.322	WT901BLE68-01(48591DE3C19B)	-0.721	-1.143	0.201	41.931	39.551	-244.202	-72.00	-10.99	-123.80	-75.558	-50.764	-1.862	-0.47833	0.28738	-0.53384	0.63519	31.0	13111	100
2025-3-27 18:39:52.323	WT901BLE68-01(48591DE3C19B)	-0.742	-1.143	0.201	41.931	39.551	-244.202	-71.41	-12.99	-124.93	-75.558	-50.764	-1.862	-0.47833	0.28738	-0.53384	0.63519	31.0	13111	100
2025-3-27 18:39:52.323	WT901BLE68-01(48591DE3C19B)	-0.742	-1.074	0.236	42.847	23.865	-217.896	-70.81	-14.77	-125.85	-75.558	-50.764	-1.862	-0.47833	0.28738	-0.53384	0.63519	31.0	13111	100
2025-3-27 18:39:52.390	WT901BLE68-01(48591DE3C19B)	-0.692	-1.074	0.236	42.847	23.865	-217.896	-70.18	-16.52	-126.81	-75.558	-50.764	-1.862	-0.47833	0.28738	-0.53384	0.63519	31.0	13111	100
2025-3-27 18:39:52.390	WT901BLE68-01(48591DE3C19B)	-0.692	-1.087	0.274	37.537	22.034	-187.378	-69.60	-17.96	-127.68	-75.558	-50.764	-1.862	-0.47833	0.28738	-0.53384	0.63519	31.0	13111	100
2025-3-27 18:39:52.390	WT901BLE68-01(48591DE3C19B)	-0.696	-1.087	0.274	37.537	22.034	-187.378	-68.99	-19.39	-128.58	-75.558	-50.764	-1.862	-0.47833	0.28738	-0.53384	0.63519	31.0	13111	100
2025-3-27 18:39:52.390	WT901BLE68-01(48591DE3C19B)	-0.696	-1.185	0.286	31.921	28.015	-155.029	-68.43	-20.46	-129.45	-75.558	-50.764	-1.862	-0.47833	0.28738	-0.53384	0.63519	31.0	13111	100
2025-3-27 18:39:52.414	WT901BLE68-01(48591DE3C19B)	-0.779	-1.185	0.286	31.921	28.015	-155.029	-67.86	-21.52	-130.34	-75.558	-50.764	-1.862	-0.47833	0.28738	-0.53384	0.63519	31.0	13111	100
2025-3-27 18:39:52.414	WT901BLE68-01(48591DE3C19B)	-0.779	-1.255	0.265	27.100	28.687	-126.709	-67.35	-22.31	-131.14	-75.558	-50.764	-1.862	-0.47833	0.28738	-0.53384	0.63519	31.0	13111	100
2025-3-27 18:39:52.415	WT901BLE68-01(48591DE3C19B)	-0.884	-1.255	0.265	27.100	28.687	-126.709	-66.82	-23.07	-131.96	-75.558	-50.764	-1.862	-0.47833	0.28738	-0.53384	0.63519	31.0	13111	100
2025-3-27 18:39:52.415	WT901BLE68-01(48591DE3C19B)	-0.884	-1.268	0.272	19.226	17.151	-100.708	-66.45	-23.63	-132.58	-35.378	-43.708	-5.880	-0.47833	0.28738	-0.53384	0.63519	31.0	13111	100
2025-3-27 18:39:52.444	WT901BLE68-01(48591DE3C19B)	-0.916	-1.268	0.272	19.226	17.151	-100.708	-66.06	-24.18	-133.21	-35.378	-43.708	-5.880	-0.47833	0.28738	-0.53384	0.63519	31.0	13111	100
2025-3-27 18:39:52.444	WT901BLE68-01(48591DE3C19B)	-0.916	-1.273	0.312	10.376	-1.221	-73.181	-65.88	-24.54	-133.56	-35.378	-43.708	-5.880	-0.47833	0.28738	-0.53384	0.63519	31.0	13111	100
2025-3-27 18:39:52.444	WT901BLE68-01(48591DE3C19B)	-0.874	-1.273	0.312	10.376	-1.221	-73.181	-65.69	-24.90	-133.92	-35.378	-43.708	-5.880	-0.47833	0.28738	-0.53384	0.63519	31.0	13111	100
2025-3-27 18:39:52.444	WT901BLE68-01(48591DE3C19B)	-0.874	-1.238	0.343	0.427	-17.700	-45.715	-65.71	-25.06	-134.00	-35.378	-43.708	-5.880	-0.47833	0.28738	-0.53384	0.63519	31.0	13111	100
2025-3-27 18:39:52.502	WT901BLE68-01(48591DE3C19B)	-0.803	-1.238	0.343	0.427	-17.700	-45.715	-65.73	-25.22	-134.09	-35.378	-43.708	-5.880	-0.47833	0.28738	-0.53384	0.63519	31.0	13111	100
2025-3-27 18:39:52.502	WT901BLE68-01(48591DE3C19B)	-0.803	-1.264	0.358	-9.399	-21.729	-14.832	-65.91	-25.12	-134.00	-35.378	-43.708	-5.880	-0.47833	0.28738	-0.53384	0.63519	31.0	13111	100
2025-3-27 18:39:52.502	WT901BLE68-01(48591DE3C19B)	-0.774	-1.264	0.358	-9.399	-21.729	-14.832	-66.09	-25.02	-133.92	-35.378	-43.708	-5.880	-0.47833	0.28738	-0.53384	0.63519	31.0	13111	100
2025-3-27 18:39:52.502	WT901BLE68-01(48591DE3C19B)	-0.774	-1.253	0.348	-14.465	-19.409	17.822	-66.37	-24.61	-133.71	-35.378	-43.708	-5.880	-0.47833	0.28738	-0.53384	0.63519	31.0	13111	100
2025-3-27 18:39:52.562	WT901BLE68-01(48591DE3C19B)	-0.733	-1.253	0.348	-14.465	-19.409	17.822	-66.65	-24.20	-133.52	-35.378	-43.708	-5.880	-0.47833	0.28738	-0.53384	0.63519	31.0	13111	100
2025-3-27 18:39:52.562	WT901BLE68-01(48591DE3C19B)	-0.733	-1.148	0.319	-15.869	-20.081	52.979	-66.99	-23.47	-133.17	-35.378	-43.708	-5.880	-0.47833	0.28738	-0.53384	0.63519	31.0	13111	100
2025-3-27 18:39:52.562	WT901BLE68-01(48591DE3C19B)	-0.674	-1.148	0.319	-15.869	-20.081	52.979	-67.33	-22.75	-132.82	-35.378	-43.708	-5.880	-0.47833	0.28738	-0.53384	0.63519	31.0	13111	100
2025-3-27 18:39:52.562	WT901BLE68-01(48591DE3C19B)	-0.649	-1.042	0.290	-19.836	-23.682	88.257	-67.76	-21.71	-132.30	-35.378	-43.708	-5.880	-0.47833	0.28738	-0.53384	0.63519	31.0	13111	100
2025-3-27 18:39:52.564	WT901BLE68-01(48591DE3C19B)	-0.649	-1.089	0.262	-23.254	-32.593	124.756	-68.23	-20.53	-131.68	-35.378	-43.708	-5.880	-0.47833	0.28738	-0.53384	0.63519	31.0	13111	100
2025-3-27 18:39:52.564	WT901BLE68-01(48591DE3C19B)	-0.576	-1.089	0.262	-23.254	-32.593	124.756	-68.74	-19.19	-130.96	-35.378	-43.708	-5.880	-0.47833	0.28738	-0.53384	0.63519	31.0	13111	100
2025-3-27 18:39:52.564	WT901BLE68-01(48591DE3C19B)	-0.576	-1.084	0.212	-19.531	-43.518	161.011	-69.25	-17.70	-130.13	-35.378	-43.708	-5.880	-0.47833	0.28738	-0.53384	0.63519	31.0	13111	100
2025-3-27 18:39:52.564	WT901BLE68-01(48591DE3C19B)	-0.483	-1.084	0.212	-19.531	-43.518	161.011	-69.74	-16.07	-129.20	-35.378	-43.708	-5.880	-0.47833	0.28738	-0.53384	0.63519	31.0	13111	100
2025-3-27 18:39:52.622	WT901BLE68-01(48591DE3C19B)	-0.483	-1.061	0.148	-19.470	-52.124	194.336	-70.22	-14.30	-128.18	-35.378	-43.708	-5.880	-0.47833	0.28738	-0.53384	0.63519	31.0	13111	100
2025-3-27 18:39:52.623	WT901BLE68-01(48591DE3C19B)	-0.437	-1.061	0.148	-19.470	-52.124	194.336	-70.70	-12.39	-127.08	-35.378	-43.708	-5.880	-0.47833	0.28738	-0.53384	0.63519	31.0	13111	100
2025-3-27 18:39:52.623	WT901BLE68-01(48591DE3C19B)	-0.437	-1.151	0.106	-20.752	-58.350	220.642	-71.15	-10.37	-125.91	-35.378	-43.708	-5.880	-0.47833	0.28738	-0.53384	0.63519	31.0	13111	100
2025-3-27 18:39:52.623	WT901BLE68-01(48591DE3C19B)	-0.416	-1.151	0.106	-20.752	-58.350	220.642	-71.59	-8.24	-124.69	-35.378	-43.708	-5.880	-0.47833	0.28738	-0.53384	0.63519	31.0	13111	100
2025-3-27 18:39:52.654	WT901BLE68-01(48591DE3C19B)	-0.416	-1.294	0.099	-20.203	-69.885	240.295	-71.99	-6.05	-123.38	-35.378	-43.708	-5.880	-0.35577	0.31589	-0.49646	0.72598	31.0	13111	100
2025-3-27 18:39:52.654	WT901BLE68-01(48591DE3C19B)	-0.369	-1.294	0.099	-20.203	-69.885	240.295	-72.35	-3.79	-122.00	-35.378	-43.708	-5.880	-0.35577	0.31589	-0.49646	0.72598	31.0	13111	100
2025-3-27 18:39:52.654	WT901BLE68-01(48591DE3C19B)	-0.369	-1.476	0.131	-16.602	-84.106	254.578	-72.64	-1.49	-120.52	-35.378	-43.708	-5.880	-0.35577	0.31589	-0.49646	0.72598	31.0	13111	100
2025-3-27 18:39:52.654	WT901BLE68-01(48591DE3C19B)	-0.305	-1.476	0.131	-16.602	-84.106	254.578	-72.87	0.82	-118.95	-35.378	-43.708	-5.880	-0.35577	0.31589	-0.49646	0.72598	31.0	13111	100
2025-3-27 18:39:52.712	WT901BLE68-01(48591DE3C19B)	-0.305	-1.626	0.164	-7.568	-88.928	262.512	-72.98	3.16	-117.35	-35.378	-43.708	-5.880	-0.35577	0.31589	-0.49646	0.72598	31.0	13111	100
2025-3-27 18:39:52.712	WT901BLE68-01(48591DE3C19B)	-0.250	-1.626	0.164	-7.568	-88.928	262.512	-72.99	5.52	-115.70	-35.378	-43.708	-5.880	-0.35577	0.31589	-0.49646	0.72598	31.0	13111	100
2025-3-27 18:39:52.713	WT901BLE68-01(48591DE3C19B)	-0.250	-1.694	0.184	4.944	-77.759	265.930	-72.88	7.87	-114.09	-35.378	-43.708	-5.880	-0.35577	0.31589	-0.49646	0.72598	31.0	13111	100
2025-3-27 18:39:52.713	WT901BLE68-01(48591DE3C19B)	-0.233	-1.694	0.184	4.944	-77.759	265.930	-72.64	10.23	-112.50	-35.378	-43.708	-5.880	-0.35577	0.31589	-0.49646	0.72598	31.0	13111	100
2025-3-27 18:39:52.741	WT901BLE68-01(48591DE3C19B)	-0.233	-1.672	0.181	14.648	-53.833	265.686	-72.32	12.60	-111.01	-35.378	-43.708	-5.880	-0.35577	0.31589	-0.49646	0.72598	31.0	13111	100
2025-3-27 18:39:52.741	WT901BLE68-01(48591DE3C19B)	-0.222	-1.672	0.181	14.648	-53.833	265.686	-71.91	14.97	-109.60	-35.378	-43.708	-5.880	-0.35577	0.31589	-0.49646	0.72598	31.0	13111	100
2025-3-27 18:39:52.741	WT901BLE68-01(48591DE3C19B)	-0.222	-1.601	0.138	21.729	-25.146	260.315	-71.44	17.34	-108.31	-35.378	-43.708	-5.880	-0.35577	0.31589	-0.49646	0.72598	31.0	13111	100
2025-3-27 18:39:52.741	WT901BLE68-01(48591DE3C19B)	-0.213	-1.601	0.138	21.729	-25.146	260.315	-70.94	19.69	-107.13	-35.378	-43.708	-5.880	-0.35577	0.31589	-0.49646	0.72598	31.0	13111	100
2025-3-27 18:39:52.772	WT901BLE68-01(48591DE3C19B)	-0.213	-1.433	0.098	24.109	3.418	253.235	-70.42	22.03	-106.08	-35.378	-43.708	-5.880	-0.35577	0.31589	-0.49646	0.72598	31.0	13111	100
2025-3-27 18:39:52.772	WT901BLE68-01(48591DE3C19B)	-0.205	-1.433	0.098	24.109	3.418	253.235	-69.91	24.36	-105.13	-35.378	-43.708	-5.880	-0.35577	0.31589	-0.49646	0.72598	31.0	13111	100
2025-3-27 18:39:52.772	WT901BLE68-01(48591DE3C19B)	-0.205	-1.264	0.053	20.081	25.208	244.751	-69.42	26.66	-104.28	-35.378	-43.708	-5.880	-0.35577	0.31589	-0.49646	0.72598	31.0	13111	100
2025-3-27 18:39:52.772	WT901BLE68-01(48591DE3C19B)	-0.198	-1.264	0.053	20.081	25.208	244.751	-68.97	28.94	-103.52	-35.378	-43.708	-5.880	-0.35577	0.31589	-0.49646	0.72598	31.0	13111	100
2025-3-27 18:39:52.832	WT901BLE68-01(48591DE3C19B)	-0.198	-1.137	0.022	12.268	37.109	235.840	-68.57	31.17	-102.81	-35.378	-43.708	-5.880	-0.35577	0.31589	-0.49646	0.72598	31.0	13111	100
2025-3-27 18:39:52.833	WT901BLE68-01(48591DE3C19B)	-0.210	-1.137	0.022	12.268	37.109	235.840	-68.20	33.38	-102.15	-35.378	-43.708	-5.880	-0.35577	0.31589	-0.49646	0.72598	31.0	13111	100
2025-3-27 18:39:52.833	WT901BLE68-01(48591DE3C19B)	-0.210	-1.045	0.023	3.845	36.377	226.379	-67.86	35.51	-101.46	-35.378	-43.708	-5.880	-0.35577	0.31589	-0.49646	0.72598	31.0	13111	100
2025-3-27 18:39:52.833	WT901BLE68-01(48591DE3C19B)	-0.236	-1.045	0.023	3.845	36.377	226.379	-67.54	37.59	-100.77	-35.378	-43.708	-5.880	-0.35577	0.31589	-0.49646	0.72598	31.0	13111	100
2025-3-27 18:39:52.862	WT901BLE68-01(48591DE3C19B)	-0.236	-0.990	0.033	-4.272	24.475	216.187	-67.19	39.58	-100.00	-62.132	-55.958	4.900	-0.35577	0.31589	-0.49646	0.72598	31.0	13111	100
2025-3-27 18:39:52.862	WT901BLE68-01(48591DE3C19B)	-0.263	-0.990	0.033	-4.272	24.475	216.187	-66.82	41.49	-99.15	-62.132	-55.958	4.900	-0.35577	0.31589	-0.49646	0.72598	31.0	13111	100
2025-3-27 18:39:52.862	WT901BLE68-01(48591DE3C19B)	-0.263	-0.968	0.053	-10.498	5.127	204.102	-66.37	43.29	-98.17	-62.132	-55.958	4.900	-0.35577	0.31589	-0.49646	0.72598	31.0	13111	100
2025-3-27 18:39:52.862	WT901BLE68-01(48591DE3C19B)	-0.265	-0.968	0.053	-10.498	5.127	204.102	-65.84	44.98	-97.05	-62.132	-55.958	4.900	-0.35577	0.31589	-0.49646	0.72598	31.0	13111	100
2025-3-27 18:39:52.891	WT901BLE68-01(48591DE3C19B)	-0.265	-0.995	0.058	-14.832	-14.038	191.284	-65.21	46.55	-95.81	-62.132	-55.958	4.900	-0.35577	0.31589	-0.49646	0.72598	31.0	13111	100
2025-3-27 18:39:52.891	WT901BLE68-01(48591DE3C19B)	-0.241	-0.995	0.058	-14.832	-14.038	191.284	-64.48	48.02	-94.41	-62.132	-55.958	4.900	-0.35577	0.31589	-0.49646	0.72598	31.0	13111	100
2025-3-27 18:39:52.891	WT901BLE68-01(48591DE3C19B)	-0.241	-1.005	0.055	-15.503	-26.794	175.781	-63.67	49.36	-92.92	-62.132	-55.958	4.900	-0.35577	0.31589	-0.49646	0.72598	31.0	13111	100
2025-3-27 18:39:52.891	WT901BLE68-01(48591DE3C19B)	-0.235	-1.005	0.055	-15.503	-26.794	175.781	-62.75	50.59	-91.34	-62.132	-55.958	4.900	-0.35577	0.31589	-0.49646	0.72598	31.0	13111	100
2025-3-27 18:39:52.953	WT901BLE68-01(48591DE3C19B)	-0.235	-1.010	0.072	-16.663	-36.255	158.569	-61.78	51.70	-89.69	-62.132	-55.958	4.900	-0.35577	0.31589	-0.49646	0.72598	31.0	13111	100
2025-3-27 18:39:52.953	WT901BLE68-01(48591DE3C19B)	-0.248	-1.010	0.072	-16.663	-36.255	158.569	-60.75	52.68	-87.99	-62.132	-55.958	4.900	-0.35577	0.31589	-0.49646	0.72598	31.0	13111	100
2025-3-27 18:39:52.953	WT901BLE68-01(48591DE3C19B)	-0.248	-1.096	0.083	-19.775	-46.631	139.526	-59.68	53.54	-86.23	-62.132	-55.958	4.900	-0.35577	0.31589	-0.49646	0.72598	31.0	13111	100
2025-3-27 18:39:52.953	WT901BLE68-01(48591DE3C19B)	-0.250	-1.096	0.083	-19.775	-46.631	139.526	-58.57	54.26	-84.43	-62.132	-55.958	4.900	-0.35577	0.31589	-0.49646	0.72598	31.0	13111	100
2025-3-27 18:39:52.982	WT901BLE68-01(48591DE3C19B)	-0.250	-1.196	0.121	-20.874	-59.998	118.958	-57.43	54.84	-82.59	-62.132	-55.958	4.900	-0.35577	0.31589	-0.49646	0.72598	31.0	13111	100
2025-3-27 18:39:52.982	WT901BLE68-01(48591DE3C19B)	-0.228	-1.196	0.121	-20.874	-59.998	118.958	-56.24	55.27	-80.71	-62.132	-55.958	4.900	-0.35577	0.31589	-0.49646	0.72598	31.0	13111	100
2025-3-27 18:39:52.982	WT901BLE68-01(48591DE3C19B)	-0.228	-1.334	0.141	-21.362	-69.641	95.459	-55.09	55.55	-78.87	-62.132	-55.958	4.900	-0.35577	0.31589	-0.49646	0.72598	31.0	13111	100
2025-3-27 18:39:52.982	WT901BLE68-01(48591DE3C19B)	-0.189	-1.334	0.141	-21.362	-69.641	95.459	-53.95	55.69	-77.06	-62.132	-55.958	4.900	-0.35577	0.31589	-0.49646	0.72598	31.0	13111	100
2025-3-27 18:39:53.12	WT901BLE68-01(48591DE3C19B)	-0.189	-1.420	0.144	-18.799	-69.580	69.702	-52.93	55.70	-75.39	-62.132	-55.958	4.900	-0.35577	0.31589	-0.49646	0.72598	31.0	13111	100
2025-3-27 18:39:53.13	WT901BLE68-01(48591DE3C19B)	-0.183	-1.420	0.144	-18.799	-69.580	69.702	-52.01	55.60	-73.88	-62.132	-55.958	4.900	-0.35577	0.31589	-0.49646	0.72598	31.0	13111	100
2025-3-27 18:39:53.13	WT901BLE68-01(48591DE3C19B)	-0.183	-1.404	0.165	-18.799	-68.298	42.114	-51.37	55.27	-72.70	-62.132	-55.958	4.900	-0.35577	0.31589	-0.49646	0.72598	31.0	13111	100
2025-3-27 18:39:53.13	WT901BLE68-01(48591DE3C19B)	-0.191	-1.404	0.165	-18.799	-68.298	42.114	-50.76	54.94	-71.55	-62.132	-55.958	4.900	-0.35577	0.31589	-0.49646	0.72598	31.0	13111	100
2025-3-27 18:39:53.72	WT901BLE68-01(48591DE3C19B)	-0.191	-1.341	0.223	-25.452	-72.021	10.681	-50.48	54.34	-70.71	-62.132	-55.958	4.900	-0.35577	0.31589	-0.49646	0.72598	31.0	13111	100
2025-3-27 18:39:53.72	WT901BLE68-01(48591DE3C19B)	-0.194	-1.341	0.223	-25.452	-72.021	10.681	-50.21	53.74	-69.90	-62.132	-55.958	4.900	-0.77295	0.07941	-0.55008	0.30585	31.0	13111	100
2025-3-27 18:39:53.72	WT901BLE68-01(48591DE3C19B)	-0.194	-1.307	0.321	-30.334	-74.524	-21.912	-50.26	52.87	-69.42	-62.132	-55.958	4.900	-0.77295	0.07941	-0.55008	0.30585	31.0	13111	100
2025-3-27 18:39:53.72	WT901BLE68-01(48591DE3C19B)	-0.147	-1.307	0.321	-30.334	-74.524	-21.912	-50.32	52.01	-68.96	-62.132	-55.958	4.900	-0.77295	0.07941	-0.55008	0.30585	31.0	13111	100
2025-3-27 18:39:53.101	WT901BLE68-01(48591DE3C19B)	-0.147	-1.232	0.322	-34.973	-67.200	-53.894	-50.76	50.96	-68.91	-62.132	-55.958	4.900	-0.77295	0.07941	-0.55008	0.30585	31.0	13111	100
2025-3-27 18:39:53.101	WT901BLE68-01(48591DE3C19B)	-0.056	-1.232	0.322	-34.973	-67.200	-53.894	-51.19	49.91	-68.86	-62.132	-55.958	4.900	-0.77295	0.07941	-0.55008	0.30585	31.0	13111	100
2025-3-27 18:39:53.101	WT901BLE68-01(48591DE3C19B)	-0.056	-1.103	0.248	-39.063	-41.931	-85.754	-52.10	48.77	-69.39	-62.132	-55.958	4.900	-0.77295	0.07941	-0.55008	0.30585	31.0	13111	100
2025-3-27 18:39:53.101	WT901BLE68-01(48591DE3C19B)	-0.015	-1.103	0.248	-39.063	-41.931	-85.754	-52.97	47.63	-69.88	-62.132	-55.958	4.900	-0.77295	0.07941	-0.55008	0.30585	31.0	13111	100
2025-3-27 18:39:53.132	WT901BLE68-01(48591DE3C19B)	-0.015	-1.017	0.218	-47.668	-10.132	-120.911	-54.37	46.40	-71.01	-62.132	-55.958	4.900	-0.77295	0.07941	-0.55008	0.30585	31.0	13111	100
2025-3-27 18:39:53.132	WT901BLE68-01(48591DE3C19B)	-0.073	-1.017	0.218	-47.668	-10.132	-120.911	-55.71	45.14	-72.06	-62.132	-55.958	4.900	-0.77295	0.07941	-0.55008	0.30585	31.0	13111	100
2025-3-27 18:39:53.132	WT901BLE68-01(48591DE3C19B)	-0.073	-1.056	0.275	-54.138	15.137	-157.227	-57.43	43.71	-73.62	-62.132	-55.958	4.900	-0.77295	0.07941	-0.55008	0.30585	31.0	13111	100
2025-3-27 18:39:53.132	WT901BLE68-01(48591DE3C19B)	-0.151	-1.056	0.275	-54.138	15.137	-157.227	-59.05	42.26	-75.07	-62.132	-55.958	4.900	-0.77295	0.07941	-0.55008	0.30585	31.0	13111	100
2025-3-27 18:39:53.194	WT901BLE68-01(48591DE3C19B)	-0.151	-1.125	0.328	-53.040	31.494	-188.354	-60.81	40.60	-76.82	-62.132	-55.958	4.900	-0.77295	0.07941	-0.55008	0.30585	31.0	13111	100
2025-3-27 18:39:53.194	WT901BLE68-01(48591DE3C19B)	-0.185	-1.125	0.328	-53.040	31.494	-188.354	-62.46	38.91	-78.45	-62.132	-55.958	4.900	-0.77295	0.07941	-0.55008	0.30585	31.0	13111	100
2025-3-27 18:39:53.194	WT901BLE68-01(48591DE3C19B)	-0.185	-1.121	0.332	-46.997	44.556	-213.440	-64.11	37.03	-80.27	-62.132	-55.958	4.900	-0.77295	0.07941	-0.55008	0.30585	31.0	13111	100
2025-3-27 18:39:53.194	WT901BLE68-01(48591DE3C19B)	-0.206	-1.121	0.332	-46.997	44.556	-213.440	-65.63	35.12	-81.97	-62.132	-55.958	4.900	-0.77295	0.07941	-0.55008	0.30585	31.0	13111	100
2025-3-27 18:39:53.224	WT901BLE68-01(48591DE3C19B)	-0.206	-1.125	0.312	-39.429	55.481	-233.093	-67.09	33.06	-83.78	-62.132	-55.958	4.900	-0.77295	0.07941	-0.55008	0.30585	31.0	13111	100
2025-3-27 18:39:53.225	WT901BLE68-01(48591DE3C19B)	-0.259	-1.125	0.312	-39.429	55.481	-233.093	-68.42	30.97	-85.47	-62.132	-55.958	4.900	-0.77295	0.07941	-0.55008	0.30585	31.0	13111	100
2025-3-27 18:39:53.225	WT901BLE68-01(48591DE3C19B)	-0.259	-1.132	0.287	-31.067	58.777	-246.765	-69.61	28.75	-87.16	-62.132	-55.958	4.900	-0.77295	0.07941	-0.55008	0.30585	31.0	13111	100
2025-3-27 18:39:53.225	WT901BLE68-01(48591DE3C19B)	-0.301	-1.132	0.287	-31.067	58.777	-246.765	-70.70	26.52	-88.76	-76.048	-51.058	9.604	-0.77295	0.07941	-0.55008	0.30585	31.0	13111	100
2025-3-27 18:39:53.254	WT901BLE68-01(48591DE3C19B)	-0.301	-1.142	0.268	-21.545	54.260	-254.761	-71.58	24.19	-90.26	-76.048	-51.058	9.604	-0.77295	0.07941	-0.55008	0.30585	31.0	13111	100
2025-3-27 18:39:53.254	WT901BLE68-01(48591DE3C19B)	-0.332	-1.142	0.268	-21.545	54.260	-254.761	-72.38	21.86	-91.69	-76.048	-51.058	9.604	-0.77295	0.07941	-0.55008	0.30585	31.0	13111	100
2025-3-27 18:39:53.254	WT901BLE68-01(48591DE3C19B)	-0.332	-1.144	0.251	-12.695	46.936	-258.362	-72.99	19.47	-92.99	-76.048	-51.058	9.604	-0.77295	0.07941	-0.55008	0.30585	31.0	13111	100
2025-3-27 18:39:53.255	WT901BLE68-01(48591DE3C19B)	-0.355	-1.144	0.251	-12.695	46.936	-258.362	-73.53	17.09	-94.25	-76.048	-51.058	9.604	-0.77295	0.07941	-0.55008	0.30585	31.0	13111	100
2025-3-27 18:39:53.312	WT901BLE68-01(48591DE3C19B)	-0.355	-1.144	0.232	-4.639	38.269	-258.728	-73.91	14.69	-95.38	-76.048	-51.058	9.604	-0.77295	0.07941	-0.55008	0.30585	31.0	13111	100
2025-3-27 18:39:53.312	WT901BLE68-01(48591DE3C19B)	-0.357	-1.144	0.232	-4.639	38.269	-258.728	-74.23	12.30	-96.48	-76.048	-51.058	9.604	-0.77295	0.07941	-0.55008	0.30585	31.0	13111	100
2025-3-27 18:39:53.313	WT901BLE68-01(48591DE3C19B)	-0.357	-1.119	0.232	2.808	33.875	-255.493	-74.42	9.94	-97.50	-76.048	-51.058	9.604	-0.77295	0.07941	-0.55008	0.30585	31.0	13111	100
2025-3-27 18:39:53.313	WT901BLE68-01(48591DE3C19B)	-0.354	-1.119	0.232	2.808	33.875	-255.493	-74.57	7.60	-98.51	-76.048	-51.058	9.604	-0.77295	0.07941	-0.55008	0.30585	31.0	13111	100
2025-3-27 18:39:53.341	WT901BLE68-01(48591DE3C19B)	-0.354	-1.093	0.237	7.263	37.415	-249.817	-74.63	5.33	-99.51	-76.048	-51.058	9.604	-0.77295	0.07941	-0.55008	0.30585	31.0	13111	100
2025-3-27 18:39:53.342	WT901BLE68-01(48591DE3C19B)	-0.364	-1.093	0.237	7.263	37.415	-249.817	-74.65	3.08	-100.52	-76.048	-51.058	9.604	-0.77295	0.07941	-0.55008	0.30585	31.0	13111	100
2025-3-27 18:39:53.342	WT901BLE68-01(48591DE3C19B)	-0.364	-1.087	0.246	10.620	47.729	-242.432	-74.60	0.94	-101.60	-76.048	-51.058	9.604	-0.77295	0.07941	-0.55008	0.30585	31.0	13111	100
2025-3-27 18:39:53.342	WT901BLE68-01(48591DE3C19B)	-0.390	-1.087	0.246	10.620	47.729	-242.432	-74.51	-1.17	-102.67	-76.048	-51.058	9.604	-0.77295	0.07941	-0.55008	0.30585	31.0	13111	100
