time	DeviceName	AccX(g)	AccY(g)	AccZ(g)	AsX(°/s)	AsY(°/s)	AsZ(°/s)	AngleX(°)	AngleY(°)	AngleZ(°)	HX(uT)	HY(uT)	HZ(uT)	Q0()	Q1()	Q2()	Q3()	Temperature(°C)	Version()	Battery level(%)
2025-3-27 18:43:36.697	WT901BLE68-01(48591DE3C19B)	-0.234	-0.926	0.211	4.333	28.687	2.380	-77.16	17.28	-47.45	-82.320	-43.512	11.760	0.75974	-0.54947	0.31006	-0.15695	30.9	13111	100
2025-3-27 18:43:36.698	WT901BLE68-01(48591DE3C19B)	-0.234	-0.926	0.216	3.174	33.752	1.343	-77.23	17.34	-48.04	-82.320	-43.512	11.760	0.75974	-0.54947	0.31006	-0.15695	30.9	13111	100
2025-3-27 18:43:36.698	WT901BLE68-01(48591DE3C19B)	-0.262	-0.926	0.216	3.174	33.752	1.343	-77.30	17.41	-48.63	-82.320	-43.512	11.760	0.75974	-0.54947	0.31006	-0.15695	30.9	13111	100
2025-3-27 18:43:36.698	WT901BLE68-01(48591DE3C19B)	-0.262	-0.932	0.221	3.235	38.086	0.977	-77.38	17.48	-49.25	-82.320	-43.512	11.760	0.75974	-0.54947	0.31006	-0.15695	30.9	13111	100
2025-3-27 18:43:36.699	WT901BLE68-01(48591DE3C19B)	-0.287	-0.932	0.221	3.235	38.086	0.977	-77.46	17.55	-49.88	-82.320	-43.512	11.760	0.75974	-0.54947	0.31006	-0.15695	30.9	13111	100
2025-3-27 18:43:36.699	WT901BLE68-01(48591DE3C19B)	-0.287	-0.951	0.219	3.235	33.447	-0.122	-77.54	17.61	-50.46	-82.320	-43.512	11.760	0.75974	-0.54947	0.31006	-0.15695	30.9	13111	100
2025-3-27 18:43:36.699	WT901BLE68-01(48591DE3C19B)	-0.277	-0.951	0.219	3.235	33.447	-0.122	-77.61	17.66	-51.03	-82.320	-43.512	11.760	0.75974	-0.54947	0.31006	-0.15695	30.9	13111	100
2025-3-27 18:43:36.699	WT901BLE68-01(48591DE3C19B)	-0.277	-0.959	0.217	4.761	24.841	-1.831	-77.63	17.67	-51.52	-82.320	-43.512	11.760	0.75974	-0.54947	0.31006	-0.15695	30.9	13111	100
2025-3-27 18:43:36.730	WT901BLE68-01(48591DE3C19B)	-0.271	-0.959	0.217	4.761	24.841	-1.831	-77.67	17.69	-52.00	-82.320	-43.512	11.760	0.75974	-0.54947	0.31006	-0.15695	30.9	13111	100
2025-3-27 18:43:36.730	WT901BLE68-01(48591DE3C19B)	-0.261	-0.954	0.216	5.493	16.724	-2.747	-77.66	17.68	-52.41	-82.320	-43.512	11.760	0.75974	-0.54947	0.31006	-0.15695	30.9	13111	100
2025-3-27 18:43:36.730	WT901BLE68-01(48591DE3C19B)	-0.261	-0.947	0.219	5.127	10.376	-3.845	-77.65	17.66	-52.78	-82.320	-43.512	11.760	0.75974	-0.54947	0.31006	-0.15695	30.9	13111	100
2025-3-27 18:43:36.730	WT901BLE68-01(48591DE3C19B)	-0.253	-0.947	0.219	5.127	10.376	-3.845	-77.63	17.63	-53.11	-82.320	-43.512	11.760	0.75974	-0.54947	0.31006	-0.15695	30.9	13111	100
2025-3-27 18:43:36.791	WT901BLE68-01(48591DE3C19B)	-0.253	-0.940	0.224	4.700	7.446	-5.249	-77.62	17.58	-53.43	-82.320	-43.512	11.760	0.75974	-0.54947	0.31006	-0.15695	30.9	13111	100
2025-3-27 18:43:36.791	WT901BLE68-01(48591DE3C19B)	-0.251	-0.940	0.224	4.700	7.446	-5.249	-77.60	17.53	-53.74	-82.320	-43.512	11.760	0.73019	-0.49869	0.38583	-0.26291	30.9	13111	100
2025-3-27 18:43:36.791	WT901BLE68-01(48591DE3C19B)	-0.251	-0.936	0.226	3.723	6.287	-6.226	-77.58	17.47	-54.04	-82.320	-43.512	11.760	0.73019	-0.49869	0.38583	-0.26291	30.9	13111	100
2025-3-27 18:43:36.791	WT901BLE68-01(48591DE3C19B)	-0.254	-0.936	0.226	3.723	6.287	-6.226	-77.56	17.41	-54.33	-82.320	-43.512	11.760	0.73019	-0.49869	0.38583	-0.26291	30.9	13111	100
2025-3-27 18:43:36.819	WT901BLE68-01(48591DE3C19B)	-0.254	-0.938	0.220	2.991	5.066	-6.592	-77.55	17.35	-54.61	-82.320	-43.512	11.760	0.73019	-0.49869	0.38583	-0.26291	30.9	13111	100
2025-3-27 18:43:36.819	WT901BLE68-01(48591DE3C19B)	-0.259	-0.938	0.220	2.991	5.066	-6.592	-77.54	17.28	-54.89	-82.320	-43.512	11.760	0.73019	-0.49869	0.38583	-0.26291	30.9	13111	100
2025-3-27 18:43:36.819	WT901BLE68-01(48591DE3C19B)	-0.259	-0.941	0.216	2.075	2.991	-6.287	-77.53	17.21	-55.16	-82.320	-43.512	11.760	0.73019	-0.49869	0.38583	-0.26291	30.9	13111	100
2025-3-27 18:43:36.819	WT901BLE68-01(48591DE3C19B)	-0.250	-0.941	0.216	2.075	2.991	-6.287	-77.53	17.14	-55.42	-82.320	-43.512	11.760	0.73019	-0.49869	0.38583	-0.26291	30.9	13111	100
2025-3-27 18:43:36.848	WT901BLE68-01(48591DE3C19B)	-0.250	-0.952	0.209	1.831	0.793	-5.676	-77.51	17.07	-55.66	-82.320	-43.512	11.760	0.73019	-0.49869	0.38583	-0.26291	30.9	13111	100
2025-3-27 18:43:36.848	WT901BLE68-01(48591DE3C19B)	-0.223	-0.952	0.209	1.831	0.793	-5.676	-77.50	17.00	-55.88	-82.320	-43.512	11.760	0.73019	-0.49869	0.38583	-0.26291	30.9	13111	100
2025-3-27 18:43:36.848	WT901BLE68-01(48591DE3C19B)	-0.223	-0.943	0.207	1.892	0.061	-5.615	-77.49	16.94	-56.10	-82.320	-43.512	11.760	0.73019	-0.49869	0.38583	-0.26291	30.9	13111	100
2025-3-27 18:43:36.848	WT901BLE68-01(48591DE3C19B)	-0.203	-0.943	0.207	1.892	0.061	-5.615	-77.48	16.86	-56.32	-82.320	-43.512	11.760	0.73019	-0.49869	0.38583	-0.26291	30.9	13111	100
2025-3-27 18:43:36.907	WT901BLE68-01(48591DE3C19B)	-0.203	-0.962	0.208	1.526	2.197	-6.531	-77.46	16.79	-56.55	-82.320	-43.512	11.760	0.73019	-0.49869	0.38583	-0.26291	30.9	13111	100
2025-3-27 18:43:36.907	WT901BLE68-01(48591DE3C19B)	-0.186	-0.962	0.208	1.526	2.197	-6.531	-77.46	16.72	-56.78	-82.320	-43.512	11.760	0.73019	-0.49869	0.38583	-0.26291	30.9	13111	100
2025-3-27 18:43:36.908	WT901BLE68-01(48591DE3C19B)	-0.186	-0.983	0.203	2.747	7.019	-7.690	-77.46	16.64	-57.05	-82.320	-43.512	11.760	0.73019	-0.49869	0.38583	-0.26291	30.9	13111	100
2025-3-27 18:43:36.908	WT901BLE68-01(48591DE3C19B)	-0.166	-0.983	0.203	2.747	7.019	-7.690	-77.46	16.57	-57.33	-82.320	-43.512	11.760	0.73019	-0.49869	0.38583	-0.26291	30.9	13111	100
2025-3-27 18:43:36.940	WT901BLE68-01(48591DE3C19B)	-0.083	-0.962	0.191	3.967	14.038	-9.705	-77.48	16.48	-57.66	-82.320	-43.512	11.760	0.73019	-0.49869	0.38583	-0.26291	30.9	13111	100
2025-3-27 18:43:36.940	WT901BLE68-01(48591DE3C19B)	-0.175	-0.481	0.096	3.967	14.038	-9.705	-77.49	16.40	-58.01	-82.320	-43.512	11.760	0.73019	-0.49869	0.38583	-0.26291	30.9	13111	100
2025-3-27 18:43:36.940	WT901BLE68-01(48591DE3C19B)	-0.175	-0.959	0.186	2.869	19.226	-12.451	-77.51	16.31	-58.40	-82.320	-43.512	11.760	0.73019	-0.49869	0.38583	-0.26291	30.9	13111	100
2025-3-27 18:43:36.940	WT901BLE68-01(48591DE3C19B)	-0.185	-0.959	0.186	2.869	19.226	-12.451	-77.56	16.20	-58.81	-82.320	-43.512	11.760	0.73019	-0.49869	0.38583	-0.26291	30.9	13111	100
2025-3-27 18:43:36.997	WT901BLE68-01(48591DE3C19B)	-0.185	-0.992	0.184	1.770	18.982	-15.564	-77.61	16.09	-59.22	-82.320	-43.512	11.760	0.73019	-0.49869	0.38583	-0.26291	30.9	13111	100
2025-3-27 18:43:36.997	WT901BLE68-01(48591DE3C19B)	-0.180	-0.992	0.184	1.770	18.982	-15.564	-77.66	15.95	-59.63	-79.184	-44.786	9.310	0.73019	-0.49869	0.38583	-0.26291	30.9	13111	100
2025-3-27 18:43:36.997	WT901BLE68-01(48591DE3C19B)	-0.180	-1.003	0.184	2.136	16.418	-18.555	-77.71	15.80	-60.03	-79.184	-44.786	9.310	0.73019	-0.49869	0.38583	-0.26291	30.9	13111	100
2025-3-27 18:43:36.998	WT901BLE68-01(48591DE3C19B)	-0.195	-1.003	0.184	2.136	16.418	-18.555	-77.76	15.63	-60.42	-79.184	-44.786	9.310	0.73019	-0.49869	0.38583	-0.26291	30.9	13111	100
2025-3-27 18:43:37.93	WT901BLE68-01(48591DE3C19B)	-0.195	-1.005	0.191	2.197	12.024	-21.973	-77.79	15.44	-60.78	-79.184	-44.786	9.310	0.73019	-0.49869	0.38583	-0.26291	30.9	13111	100
2025-3-27 18:43:37.93	WT901BLE68-01(48591DE3C19B)	-0.231	-1.005	0.191	2.197	12.024	-21.973	-77.83	15.23	-61.13	-79.184	-44.786	9.310	0.73019	-0.49869	0.38583	-0.26291	30.9	13111	100
2025-3-27 18:43:37.93	WT901BLE68-01(48591DE3C19B)	-0.231	-1.013	0.205	2.075	2.380	-25.452	-77.85	15.00	-61.42	-79.184	-44.786	9.310	0.73019	-0.49869	0.38583	-0.26291	30.9	13111	100
2025-3-27 18:43:37.93	WT901BLE68-01(48591DE3C19B)	-0.257	-1.013	0.205	2.075	2.380	-25.452	-77.85	14.73	-61.67	-79.184	-44.786	9.310	0.73019	-0.49869	0.38583	-0.26291	30.9	13111	100
2025-3-27 18:43:37.94	WT901BLE68-01(48591DE3C19B)	-0.257	-1.037	0.219	3.052	-9.338	-28.931	-77.84	14.45	-61.86	-79.184	-44.786	9.310	0.73019	-0.49869	0.38583	-0.26291	30.9	13111	100
2025-3-27 18:43:37.94	WT901BLE68-01(48591DE3C19B)	-0.251	-1.037	0.219	3.052	-9.338	-28.931	-77.82	14.13	-62.00	-79.184	-44.786	9.310	0.73019	-0.49869	0.38583	-0.26291	30.9	13111	100
2025-3-27 18:43:37.94	WT901BLE68-01(48591DE3C19B)	-0.251	-1.063	0.236	5.554	-18.372	-31.189	-77.76	13.80	-62.09	-79.184	-44.786	9.310	0.73019	-0.49869	0.38583	-0.26291	30.9	13111	100
2025-3-27 18:43:37.94	WT901BLE68-01(48591DE3C19B)	-0.244	-1.063	0.236	5.554	-18.372	-31.189	-77.68	13.45	-62.15	-79.184	-44.786	9.310	0.73019	-0.49869	0.38583	-0.26291	30.9	13111	100
2025-3-27 18:43:37.120	WT901BLE68-01(48591DE3C19B)	-0.244	-1.074	0.248	9.338	-25.269	-31.250	-77.58	13.09	-62.17	-79.184	-44.786	9.310	0.73019	-0.49869	0.38583	-0.26291	30.9	13111	100
2025-3-27 18:43:37.121	WT901BLE68-01(48591DE3C19B)	-0.222	-1.074	0.248	9.338	-25.269	-31.250	-77.45	12.73	-62.15	-79.184	-44.786	9.310	0.73019	-0.49869	0.38583	-0.26291	30.9	13111	100
2025-3-27 18:43:37.121	WT901BLE68-01(48591DE3C19B)	-0.222	-1.068	0.259	13.245	-27.832	-29.968	-77.30	12.37	-62.12	-79.184	-44.786	9.310	0.73019	-0.49869	0.38583	-0.26291	30.9	13111	100
2025-3-27 18:43:37.121	WT901BLE68-01(48591DE3C19B)	-0.187	-1.068	0.259	13.245	-27.832	-29.968	-77.12	12.02	-62.08	-79.184	-44.786	9.310	0.73019	-0.49869	0.38583	-0.26291	30.9	13111	100
2025-3-27 18:43:37.150	WT901BLE68-01(48591DE3C19B)	-0.187	-1.034	0.268	17.944	-23.315	-26.245	-76.93	11.69	-62.06	-79.184	-44.786	9.310	0.73019	-0.49869	0.38583	-0.26291	30.9	13111	100
2025-3-27 18:43:37.151	WT901BLE68-01(48591DE3C19B)	-0.127	-1.034	0.268	17.944	-23.315	-26.245	-76.72	11.38	-62.06	-79.184	-44.786	9.310	0.73019	-0.49869	0.38583	-0.26291	30.9	13111	100
2025-3-27 18:43:37.151	WT901BLE68-01(48591DE3C19B)	-0.127	-0.960	0.267	21.973	-13.123	-20.020	-76.50	11.12	-62.11	-79.184	-44.786	9.310	0.73019	-0.49869	0.38583	-0.26291	30.9	13111	100
2025-3-27 18:43:37.151	WT901BLE68-01(48591DE3C19B)	-0.061	-0.960	0.267	21.973	-13.123	-20.020	-76.27	10.90	-62.19	-79.184	-44.786	9.310	0.73019	-0.49869	0.38583	-0.26291	30.9	13111	100
2025-3-27 18:43:37.208	WT901BLE68-01(48591DE3C19B)	-0.061	-0.882	0.251	24.048	2.502	-12.146	-76.04	10.73	-62.35	-79.184	-44.786	9.310	0.73019	-0.49869	0.38583	-0.26291	30.9	13111	100
2025-3-27 18:43:37.208	WT901BLE68-01(48591DE3C19B)	0.017	-0.882	0.251	24.048	2.502	-12.146	-75.82	10.62	-62.58	-79.184	-44.786	9.310	0.73019	-0.49869	0.38583	-0.26291	30.9	13111	100
2025-3-27 18:43:37.208	WT901BLE68-01(48591DE3C19B)	0.017	-0.779	0.227	24.292	23.010	-4.883	-75.61	10.56	-62.90	-79.184	-44.786	9.310	0.70032	-0.48145	0.38104	-0.36392	30.9	13111	100
2025-3-27 18:43:37.208	WT901BLE68-01(48591DE3C19B)	0.028	-0.779	0.227	24.292	23.010	-4.883	-75.42	10.56	-63.31	-79.184	-44.786	9.310	0.70032	-0.48145	0.38104	-0.36392	30.9	13111	100
2025-3-27 18:43:37.268	WT901BLE68-01(48591DE3C19B)	0.028	-0.767	0.224	16.724	43.640	-1.526	-75.33	10.64	-63.91	-79.184	-44.786	9.310	0.70032	-0.48145	0.38104	-0.36392	30.9	13111	100
2025-3-27 18:43:37.268	WT901BLE68-01(48591DE3C19B)	-0.080	-0.767	0.224	16.724	43.640	-1.526	-75.26	10.72	-64.51	-79.184	-44.786	9.310	0.70032	-0.48145	0.38104	-0.36392	30.9	13111	100
2025-3-27 18:43:37.268	WT901BLE68-01(48591DE3C19B)	-0.080	-0.945	0.269	7.446	52.612	-2.930	-75.28	10.80	-65.20	-79.184	-44.786	9.310	0.70032	-0.48145	0.38104	-0.36392	30.9	13111	100
2025-3-27 18:43:37.268	WT901BLE68-01(48591DE3C19B)	-0.216	-0.945	0.269	7.446	52.612	-2.930	-75.32	10.88	-65.89	-79.184	-44.786	9.310	0.70032	-0.48145	0.38104	-0.36392	30.9	13111	100
2025-3-27 18:43:37.270	WT901BLE68-01(48591DE3C19B)	-0.216	-1.199	0.355	3.967	41.382	-7.202	-75.36	10.89	-66.47	-79.184	-44.786	9.310	0.70032	-0.48145	0.38104	-0.36392	30.9	13111	100
2025-3-27 18:43:37.270	WT901BLE68-01(48591DE3C19B)	-0.277	-1.199	0.355	3.967	41.382	-7.202	-75.40	10.90	-67.06	-79.184	-44.786	9.310	0.70032	-0.48145	0.38104	-0.36392	30.9	13111	100
2025-3-27 18:43:37.270	WT901BLE68-01(48591DE3C19B)	-0.277	-1.286	0.399	8.118	25.513	-12.268	-75.38	10.83	-67.49	-79.184	-44.786	9.310	0.70032	-0.48145	0.38104	-0.36392	30.9	13111	100
2025-3-27 18:43:37.270	WT901BLE68-01(48591DE3C19B)	-0.265	-1.286	0.399	8.118	25.513	-12.268	-75.35	10.76	-67.93	-79.184	-44.786	9.310	0.70032	-0.48145	0.38104	-0.36392	30.9	13111	100
2025-3-27 18:43:37.299	WT901BLE68-01(48591DE3C19B)	-0.265	-1.162	0.401	10.498	12.878	-16.724	-75.27	10.61	-68.26	-79.184	-44.786	9.310	0.70032	-0.48145	0.38104	-0.36392	30.9	13111	100
2025-3-27 18:43:37.299	WT901BLE68-01(48591DE3C19B)	-0.240	-1.162	0.401	10.498	12.878	-16.724	-75.19	10.47	-68.58	-79.184	-44.786	9.310	0.70032	-0.48145	0.38104	-0.36392	30.9	13111	100
2025-3-27 18:43:37.299	WT901BLE68-01(48591DE3C19B)	-0.240	-0.975	0.363	7.568	4.028	-21.057	-75.12	10.27	-68.83	-79.184	-44.786	9.310	0.70032	-0.48145	0.38104	-0.36392	30.9	13111	100
2025-3-27 18:43:37.300	WT901BLE68-01(48591DE3C19B)	-0.222	-0.975	0.363	7.568	4.028	-21.057	-75.05	10.07	-69.08	-79.184	-44.786	9.310	0.70032	-0.48145	0.38104	-0.36392	30.9	13111	100
2025-3-27 18:43:37.358	WT901BLE68-01(48591DE3C19B)	-0.222	-0.836	0.316	3.784	0.671	-25.513	-75.01	9.83	-69.31	-79.184	-44.786	9.310	0.70032	-0.48145	0.38104	-0.36392	30.9	13111	100
2025-3-27 18:43:37.358	WT901BLE68-01(48591DE3C19B)	-0.214	-0.836	0.316	3.784	0.671	-25.513	-74.98	9.58	-69.54	-79.184	-44.786	9.310	0.70032	-0.48145	0.38104	-0.36392	30.9	13111	100
2025-3-27 18:43:37.358	WT901BLE68-01(48591DE3C19B)	-0.214	-0.730	0.293	0.122	-1.099	-30.090	-74.97	9.29	-69.76	-79.184	-44.786	9.310	0.70032	-0.48145	0.38104	-0.36392	30.9	13111	100
2025-3-27 18:43:37.358	WT901BLE68-01(48591DE3C19B)	-0.192	-0.730	0.293	0.122	-1.099	-30.090	-74.95	9.01	-69.99	-79.184	-44.786	9.310	0.70032	-0.48145	0.38104	-0.36392	30.9	13111	100
2025-3-27 18:43:37.391	WT901BLE68-01(48591DE3C19B)	-0.192	-0.682	0.294	-3.296	-1.892	-35.706	-74.98	8.67	-70.22	-79.184	-44.786	9.310	0.70032	-0.48145	0.38104	-0.36392	30.9	13111	100
2025-3-27 18:43:37.391	WT901BLE68-01(48591DE3C19B)	-0.222	-0.682	0.294	-3.296	-1.892	-35.706	-74.99	8.33	-70.46	-79.184	-44.786	9.310	0.70032	-0.48145	0.38104	-0.36392	30.9	13111	100
2025-3-27 18:43:37.391	WT901BLE68-01(48591DE3C19B)	-0.222	-0.684	0.329	-4.150	0.916	-42.480	-75.02	7.94	-70.74	-79.184	-44.786	9.310	0.70032	-0.48145	0.38104	-0.36392	30.9	13111	100
2025-3-27 18:43:37.391	WT901BLE68-01(48591DE3C19B)	-0.354	-0.684	0.329	-4.150	0.916	-42.480	-75.04	7.55	-71.02	-75.656	-50.372	8.232	0.70032	-0.48145	0.38104	-0.36392	30.9	13111	100
2025-3-27 18:43:37.448	WT901BLE68-01(48591DE3C19B)	-0.354	-0.747	0.338	-2.014	0.305	-48.340	-75.04	7.11	-71.32	-75.656	-50.372	8.232	0.70032	-0.48145	0.38104	-0.36392	30.9	13111	100
2025-3-27 18:43:37.449	WT901BLE68-01(48591DE3C19B)	-0.484	-0.747	0.338	-2.014	0.305	-48.340	-75.03	6.68	-71.61	-75.656	-50.372	8.232	0.70032	-0.48145	0.38104	-0.36392	30.9	13111	100
2025-3-27 18:43:37.449	WT901BLE68-01(48591DE3C19B)	-0.484	-0.778	0.305	1.587	-7.446	-50.964	-74.98	6.21	-71.84	-75.656	-50.372	8.232	0.70032	-0.48145	0.38104	-0.36392	30.9	13111	100
2025-3-27 18:43:37.449	WT901BLE68-01(48591DE3C19B)	-0.470	-0.778	0.305	1.587	-7.446	-50.964	-74.92	5.76	-72.07	-75.656	-50.372	8.232	0.70032	-0.48145	0.38104	-0.36392	30.9	13111	100
2025-3-27 18:43:37.477	WT901BLE68-01(48591DE3C19B)	-0.470	-0.775	0.275	1.526	-10.254	-51.208	-74.85	5.31	-72.27	-75.656	-50.372	8.232	0.70032	-0.48145	0.38104	-0.36392	30.9	13111	100
2025-3-27 18:43:37.477	WT901BLE68-01(48591DE3C19B)	-0.477	-0.775	0.275	1.526	-10.254	-51.208	-74.79	4.86	-72.48	-75.656	-50.372	8.232	0.70032	-0.48145	0.38104	-0.36392	30.9	13111	100
2025-3-27 18:43:37.477	WT901BLE68-01(48591DE3C19B)	-0.477	-0.789	0.279	-2.136	-5.371	-49.988	-74.76	4.45	-72.73	-75.656	-50.372	8.232	0.70032	-0.48145	0.38104	-0.36392	30.9	13111	100
2025-3-27 18:43:37.477	WT901BLE68-01(48591DE3C19B)	-0.495	-0.789	0.279	-2.136	-5.371	-49.988	-74.73	4.04	-72.99	-75.656	-50.372	8.232	0.70032	-0.48145	0.38104	-0.36392	30.9	13111	100
2025-3-27 18:43:37.508	WT901BLE68-01(48591DE3C19B)	-0.495	-0.812	0.303	-4.944	-3.113	-46.936	-74.73	3.68	-73.25	-75.656	-50.372	8.232	0.70032	-0.48145	0.38104	-0.36392	30.9	13111	100
2025-3-27 18:43:37.508	WT901BLE68-01(48591DE3C19B)	-0.486	-0.812	0.303	-4.944	-3.113	-46.936	-74.73	3.33	-73.52	-75.656	-50.372	8.232	0.70032	-0.48145	0.38104	-0.36392	30.9	13111	100
2025-3-27 18:43:37.508	WT901BLE68-01(48591DE3C19B)	-0.486	-0.800	0.328	-8.789	-2.258	-40.466	-74.76	3.04	-73.78	-75.656	-50.372	8.232	0.70032	-0.48145	0.38104	-0.36392	30.9	13111	100
2025-3-27 18:43:37.508	WT901BLE68-01(48591DE3C19B)	-0.479	-0.800	0.328	-8.789	-2.258	-40.466	-74.79	2.76	-74.04	-75.656	-50.372	8.232	0.70032	-0.48145	0.38104	-0.36392	30.9	13111	100
2025-3-27 18:43:37.540	WT901BLE68-01(48591DE3C19B)	-0.479	-0.822	0.323	-14.648	2.441	-32.227	-74.87	2.58	-74.33	-75.656	-50.372	8.232	0.70032	-0.48145	0.38104	-0.36392	30.9	13111	100
2025-3-27 18:43:37.540	WT901BLE68-01(48591DE3C19B)	-0.508	-0.822	0.323	-14.648	2.441	-32.227	-74.95	2.39	-74.61	-75.656	-50.372	8.232	0.70032	-0.48145	0.38104	-0.36392	30.9	13111	100
2025-3-27 18:43:37.540	WT901BLE68-01(48591DE3C19B)	-0.508	-0.919	0.301	-20.264	9.033	-25.635	-75.10	2.29	-74.95	-75.656	-50.372	8.232	0.70032	-0.48145	0.38104	-0.36392	30.9	13111	100
2025-3-27 18:43:37.540	WT901BLE68-01(48591DE3C19B)	-0.581	-0.919	0.301	-20.264	9.033	-25.635	-75.24	2.19	-75.28	-75.656	-50.372	8.232	0.70032	-0.48145	0.38104	-0.36392	30.9	13111	100
2025-3-27 18:43:37.597	WT901BLE68-01(48591DE3C19B)	-0.581	-1.061	0.292	-24.963	12.329	-21.301	-75.43	2.15	-75.62	-75.656	-50.372	8.232	0.70032	-0.48145	0.38104	-0.36392	30.9	13111	100
2025-3-27 18:43:37.598	WT901BLE68-01(48591DE3C19B)	-0.658	-1.061	0.292	-24.963	12.329	-21.301	-75.62	2.10	-75.96	-75.656	-50.372	8.232	0.62845	-0.47437	0.38965	-0.47760	30.9	13111	100
2025-3-27 18:43:37.598	WT901BLE68-01(48591DE3C19B)	-0.658	-1.243	0.325	-28.503	5.676	-16.663	-75.85	2.09	-76.23	-75.656	-50.372	8.232	0.62845	-0.47437	0.38965	-0.47760	30.9	13111	100
2025-3-27 18:43:37.598	WT901BLE68-01(48591DE3C19B)	-0.743	-1.243	0.325	-28.503	5.676	-16.663	-76.08	2.08	-76.49	-75.656	-50.372	8.232	0.62845	-0.47437	0.38965	-0.47760	30.9	13111	100
2025-3-27 18:43:37.627	WT901BLE68-01(48591DE3C19B)	-0.743	-1.437	0.384	-26.794	-9.827	-9.705	-76.29	2.10	-76.57	-75.656	-50.372	8.232	0.62845	-0.47437	0.38965	-0.47760	30.9	13111	100
2025-3-27 18:43:37.627	WT901BLE68-01(48591DE3C19B)	-0.759	-1.437	0.384	-26.794	-9.827	-9.705	-76.50	2.11	-76.66	-75.656	-50.372	8.232	0.62845	-0.47437	0.38965	-0.47760	30.9	13111	100
2025-3-27 18:43:37.627	WT901BLE68-01(48591DE3C19B)	-0.759	-1.476	0.395	-19.531	-25.574	0.916	-76.63	2.20	-76.56	-75.656	-50.372	8.232	0.62845	-0.47437	0.38965	-0.47760	30.9	13111	100
2025-3-27 18:43:37.627	WT901BLE68-01(48591DE3C19B)	-0.718	-1.476	0.395	-19.531	-25.574	0.916	-76.76	2.29	-76.47	-75.656	-50.372	8.232	0.62845	-0.47437	0.38965	-0.47760	30.9	13111	100
2025-3-27 18:43:37.658	WT901BLE68-01(48591DE3C19B)	-0.668	-1.379	0.365	-15.930	-40.405	18.250	-76.85	2.50	-76.20	-75.656	-50.372	8.232	0.62845	-0.47437	0.38965	-0.47760	30.9	13111	100
2025-3-27 18:43:37.658	WT901BLE68-01(48591DE3C19B)	-0.668	-1.293	0.290	-14.893	-54.626	44.189	-76.93	2.83	-75.82	-75.656	-50.372	8.232	0.62845	-0.47437	0.38965	-0.47760	30.9	13111	100
2025-3-27 18:43:37.658	WT901BLE68-01(48591DE3C19B)	-0.565	-1.293	0.290	-14.893	-54.626	44.189	-76.99	3.27	-75.35	-75.656	-50.372	8.232	0.62845	-0.47437	0.38965	-0.47760	30.9	13111	100
2025-3-27 18:43:37.658	WT901BLE68-01(48591DE3C19B)	-0.565	-1.116	0.214	-12.695	-67.383	75.745	-77.04	3.85	-74.78	-75.656	-50.372	8.232	0.62845	-0.47437	0.38965	-0.47760	30.9	13111	100
2025-3-27 18:43:37.750	WT901BLE68-01(48591DE3C19B)	-0.447	-1.116	0.214	-12.695	-67.383	75.745	-77.06	4.56	-74.11	-75.656	-50.372	8.232	0.62845	-0.47437	0.38965	-0.47760	30.9	13111	100
2025-3-27 18:43:37.750	WT901BLE68-01(48591DE3C19B)	-0.447	-1.009	0.168	-15.625	-77.332	108.887	-77.08	5.43	-73.36	-75.656	-50.372	8.232	0.62845	-0.47437	0.38965	-0.47760	30.9	13111	100
2025-3-27 18:43:37.750	WT901BLE68-01(48591DE3C19B)	-0.349	-1.009	0.168	-15.625	-77.332	108.887	-77.10	6.43	-72.53	-75.656	-50.372	8.232	0.62845	-0.47437	0.38965	-0.47760	30.9	13111	100
2025-3-27 18:43:37.750	WT901BLE68-01(48591DE3C19B)	-0.349	-1.073	0.136	-16.235	-85.999	135.803	-77.09	7.55	-71.61	-75.656	-50.372	8.232	0.62845	-0.47437	0.38965	-0.47760	30.9	13111	100
2025-3-27 18:43:37.751	WT901BLE68-01(48591DE3C19B)	-0.285	-1.073	0.136	-16.235	-85.999	135.803	-77.06	8.77	-70.63	-75.656	-50.372	8.232	0.62845	-0.47437	0.38965	-0.47760	30.9	13111	100
2025-3-27 18:43:37.751	WT901BLE68-01(48591DE3C19B)	-0.285	-1.236	0.124	-11.536	-87.769	154.846	-76.99	10.08	-69.61	-75.656	-50.372	8.232	0.62845	-0.47437	0.38965	-0.47760	30.9	13111	100
2025-3-27 18:43:37.752	WT901BLE68-01(48591DE3C19B)	-0.246	-1.236	0.124	-11.536	-87.769	154.846	-76.86	11.46	-68.56	-75.656	-50.372	8.232	0.62845	-0.47437	0.38965	-0.47760	30.9	13111	100
2025-3-27 18:43:37.752	WT901BLE68-01(48591DE3C19B)	-0.246	-1.318	0.118	-0.732	-80.933	167.786	-76.66	12.90	-67.52	-75.656	-50.372	8.232	0.62845	-0.47437	0.38965	-0.47760	30.9	13111	100
2025-3-27 18:43:37.780	WT901BLE68-01(48591DE3C19B)	-0.222	-1.318	0.118	-0.732	-80.933	167.786	-76.39	14.39	-66.48	-75.656	-50.372	8.232	0.62845	-0.47437	0.38965	-0.47760	30.9	13111	100
2025-3-27 18:43:37.780	WT901BLE68-01(48591DE3C19B)	-0.222	-1.284	0.109	8.850	-67.200	173.279	-76.06	15.90	-65.49	-75.656	-50.372	8.232	0.62845	-0.47437	0.38965	-0.47760	30.9	13111	100
2025-3-27 18:43:37.780	WT901BLE68-01(48591DE3C19B)	-0.167	-1.284	0.109	8.850	-67.200	173.279	-75.67	17.44	-64.56	-76.244	-42.140	0.882	0.62845	-0.47437	0.38965	-0.47760	30.9	13111	100
2025-3-27 18:43:37.780	WT901BLE68-01(48591DE3C19B)	-0.167	-1.211	0.155	16.907	-51.514	172.180	-75.25	18.97	-63.68	-76.244	-42.140	0.882	0.62845	-0.47437	0.38965	-0.47760	30.9	13111	100
2025-3-27 18:43:37.838	WT901BLE68-01(48591DE3C19B)	-0.161	-1.211	0.155	16.907	-51.514	172.180	-74.78	20.49	-62.87	-76.244	-42.140	0.882	0.62845	-0.47437	0.38965	-0.47760	30.9	13111	100
2025-3-27 18:43:37.839	WT901BLE68-01(48591DE3C19B)	-0.161	-1.049	0.170	23.560	-41.687	168.152	-74.28	21.98	-62.11	-76.244	-42.140	0.882	0.62845	-0.47437	0.38965	-0.47760	30.9	13111	100
2025-3-27 18:43:37.839	WT901BLE68-01(48591DE3C19B)	-0.151	-1.049	0.170	23.560	-41.687	168.152	-73.74	23.46	-61.38	-76.244	-42.140	0.882	0.62845	-0.47437	0.38965	-0.47760	30.9	13111	100
2025-3-27 18:43:37.839	WT901BLE68-01(48591DE3C19B)	-0.151	-0.878	0.074	23.438	-49.622	164.246	-73.16	24.88	-60.60	-76.244	-42.140	0.882	0.62845	-0.47437	0.38965	-0.47760	30.9	13111	100
2025-3-27 18:43:37.867	WT901BLE68-01(48591DE3C19B)	-0.048	-0.878	0.074	23.438	-49.622	164.246	-72.54	26.25	-59.75	-76.244	-42.140	0.882	0.62845	-0.47437	0.38965	-0.47760	30.9	13111	100
2025-3-27 18:43:37.867	WT901BLE68-01(48591DE3C19B)	-0.048	-0.785	-0.008	19.836	-49.805	154.480	-71.93	27.56	-58.91	-76.244	-42.140	0.882	0.62845	-0.47437	0.38965	-0.47760	30.9	13111	100
2025-3-27 18:43:37.867	WT901BLE68-01(48591DE3C19B)	-0.025	-0.785	-0.008	19.836	-49.805	154.480	-71.31	28.80	-58.06	-76.244	-42.140	0.882	0.62845	-0.47437	0.38965	-0.47760	30.9	13111	100
2025-3-27 18:43:37.867	WT901BLE68-01(48591DE3C19B)	-0.025	-0.744	-0.045	13.306	-35.156	143.799	-70.76	30.00	-57.28	-76.244	-42.140	0.882	0.62845	-0.47437	0.38965	-0.47760	30.9	13111	100
2025-3-27 18:43:37.928	WT901BLE68-01(48591DE3C19B)	-0.062	-0.744	-0.045	13.306	-35.156	143.799	-70.27	31.16	-56.60	-76.244	-42.140	0.882	0.62845	-0.47437	0.38965	-0.47760	30.9	13111	100
2025-3-27 18:43:37.928	WT901BLE68-01(48591DE3C19B)	-0.062	-0.781	-0.048	4.639	-27.100	131.592	-69.85	32.26	-55.96	-76.244	-42.140	0.882	0.62845	-0.47437	0.38965	-0.47760	30.9	13111	100
2025-3-27 18:43:37.928	WT901BLE68-01(48591DE3C19B)	-0.053	-0.781	-0.048	4.639	-27.100	131.592	-69.49	33.30	-55.38	-76.244	-42.140	0.882	0.62845	-0.47437	0.38965	-0.47760	30.9	13111	100
2025-3-27 18:43:37.928	WT901BLE68-01(48591DE3C19B)	-0.053	-0.908	-0.044	-1.343	-32.166	118.469	-69.15	34.26	-54.79	-76.244	-42.140	0.882	0.62845	-0.47437	0.38965	-0.47760	30.9	13111	100
2025-3-27 18:43:37.960	WT901BLE68-01(48591DE3C19B)	0.001	-0.908	-0.044	-1.343	-32.166	118.469	-68.83	35.15	-54.18	-76.244	-42.140	0.882	0.62845	-0.47437	0.38965	-0.47760	30.9	13111	100
2025-3-27 18:43:37.960	WT901BLE68-01(48591DE3C19B)	0.001	-1.043	-0.043	-3.479	-41.138	105.286	-68.51	35.94	-53.55	-76.244	-42.140	0.882	0.62845	-0.47437	0.38965	-0.47760	30.9	13111	100
2025-3-27 18:43:37.960	WT901BLE68-01(48591DE3C19B)	0.072	-1.043	-0.043	-3.479	-41.138	105.286	-68.18	36.64	-52.90	-76.244	-42.140	0.882	0.62845	-0.47437	0.38965	-0.47760	30.9	13111	100
2025-3-27 18:43:37.960	WT901BLE68-01(48591DE3C19B)	0.072	-1.242	-0.049	-8.911	-45.654	90.942	-67.86	37.27	-52.24	-76.244	-42.140	0.882	0.62845	-0.47437	0.38965	-0.47760	30.9	13111	100
2025-3-27 18:43:37.990	WT901BLE68-01(48591DE3C19B)	0.216	-1.242	-0.049	-8.911	-45.654	90.942	-67.58	37.80	-51.59	-76.244	-42.140	0.882	0.62845	-0.47437	0.38965	-0.47760	30.9	13111	100
2025-3-27 18:43:37.991	WT901BLE68-01(48591DE3C19B)	0.216	-1.449	-0.068	-10.742	-44.373	72.632	-67.34	38.24	-50.99	-76.244	-42.140	0.882	0.62845	-0.47437	0.38965	-0.47760	30.9	13111	100
2025-3-27 18:43:37.991	WT901BLE68-01(48591DE3C19B)	0.477	-1.449	-0.068	-10.742	-44.373	72.632	-67.14	38.59	-50.44	-76.244	-42.140	0.882	0.62845	-0.47437	0.38965	-0.47760	30.9	13111	100
2025-3-27 18:43:37.991	WT901BLE68-01(48591DE3C19B)	0.477	-1.522	-0.075	-10.559	-36.682	49.866	-67.02	38.84	-50.00	-76.244	-42.140	0.882	0.79022	-0.35468	0.47128	-0.16599	30.9	13111	100
2025-3-27 18:43:38.18	WT901BLE68-01(48591DE3C19B)	0.633	-1.522	-0.075	-10.559	-36.682	49.866	-66.96	38.98	-49.67	-76.244	-42.140	0.882	0.79022	-0.35468	0.47128	-0.16599	30.9	13111	100
2025-3-27 18:43:38.18	WT901BLE68-01(48591DE3C19B)	0.633	-1.636	-0.036	-10.559	-8.972	19.409	-67.06	39.03	-49.58	-76.244	-42.140	0.882	0.79022	-0.35468	0.47128	-0.16599	30.9	13111	100
2025-3-27 18:43:38.18	WT901BLE68-01(48591DE3C19B)	0.571	-1.636	-0.036	-10.559	-8.972	19.409	-67.31	38.98	-49.75	-76.244	-42.140	0.882	0.79022	-0.35468	0.47128	-0.16599	30.9	13111	100
2025-3-27 18:43:38.19	WT901BLE68-01(48591DE3C19B)	0.571	-1.740	0.045	-3.906	32.288	-15.503	-67.75	38.84	-50.23	-76.244	-42.140	0.882	0.79022	-0.35468	0.47128	-0.16599	30.9	13111	100
2025-3-27 18:43:38.78	WT901BLE68-01(48591DE3C19B)	0.320	-1.740	0.045	-3.906	32.288	-15.503	-68.36	38.61	-51.05	-76.244	-42.140	0.882	0.79022	-0.35468	0.47128	-0.16599	30.9	13111	100
2025-3-27 18:43:38.78	WT901BLE68-01(48591DE3C19B)	0.320	-1.706	0.106	-4.150	76.294	-53.040	-69.17	38.27	-52.21	-76.244	-42.140	0.882	0.79022	-0.35468	0.47128	-0.16599	30.9	13111	100
2025-3-27 18:43:38.78	WT901BLE68-01(48591DE3C19B)	0.148	-1.706	0.106	-4.150	76.294	-53.040	-70.17	37.81	-53.70	-76.244	-42.140	0.882	0.79022	-0.35468	0.47128	-0.16599	30.9	13111	100
2025-3-27 18:43:38.79	WT901BLE68-01(48591DE3C19B)	0.148	-1.737	0.160	-4.639	105.469	-98.022	-71.31	37.17	-55.42	-76.244	-42.140	0.882	0.79022	-0.35468	0.47128	-0.16599	30.9	13111	100
2025-3-27 18:43:38.107	WT901BLE68-01(48591DE3C19B)	0.075	-1.737	0.160	-4.639	105.469	-98.022	-72.55	36.35	-57.35	-76.244	-42.140	0.882	0.79022	-0.35468	0.47128	-0.16599	30.9	13111	100
2025-3-27 18:43:38.107	WT901BLE68-01(48591DE3C19B)	0.075	-1.722	0.090	0.427	109.558	-136.475	-73.76	35.32	-59.33	-76.244	-42.140	0.882	0.79022	-0.35468	0.47128	-0.16599	30.9	13111	100
2025-3-27 18:43:38.107	WT901BLE68-01(48591DE3C19B)	-0.019	-1.722	0.090	0.427	109.558	-136.475	-74.92	34.08	-61.33	-76.244	-42.140	0.882	0.79022	-0.35468	0.47128	-0.16599	30.9	13111	100
2025-3-27 18:43:38.107	WT901BLE68-01(48591DE3C19B)	-0.019	-1.565	0.033	5.310	100.037	-164.734	-75.98	32.68	-63.25	-76.244	-42.140	0.882	0.79022	-0.35468	0.47128	-0.16599	30.9	13111	100
2025-3-27 18:43:38.137	WT901BLE68-01(48591DE3C19B)	-0.158	-1.565	0.033	5.310	100.037	-164.734	-76.92	31.11	-65.08	-76.244	-42.140	0.882	0.79022	-0.35468	0.47128	-0.16599	30.9	13111	100
2025-3-27 18:43:38.138	WT901BLE68-01(48591DE3C19B)	-0.158	-1.423	0.041	6.287	83.557	-185.486	-77.70	29.30	-66.70	-76.244	-42.140	0.882	0.79022	-0.35468	0.47128	-0.16599	30.9	13111	100
2025-3-27 18:43:38.138	WT901BLE68-01(48591DE3C19B)	-0.245	-1.423	0.041	6.287	83.557	-185.486	-78.40	27.49	-68.27	-76.244	-42.140	0.882	0.79022	-0.35468	0.47128	-0.16599	30.9	13111	100
2025-3-27 18:43:38.138	WT901BLE68-01(48591DE3C19B)	-0.245	-1.269	0.099	10.742	65.491	-197.327	-78.91	25.53	-69.61	-76.244	-42.140	0.882	0.79022	-0.35468	0.47128	-0.16599	30.9	13111	100
2025-3-27 18:43:38.228	WT901BLE68-01(48591DE3C19B)	-0.267	-1.269	0.099	10.742	65.491	-197.327	-79.36	23.57	-70.90	-76.244	-42.140	0.882	0.79022	-0.35468	0.47128	-0.16599	30.9	13111	100
2025-3-27 18:43:38.229	WT901BLE68-01(48591DE3C19B)	-0.267	-1.090	0.184	10.315	48.767	-202.026	-79.69	21.55	-71.98	-76.244	-42.140	0.882	0.79022	-0.35468	0.47128	-0.16599	30.9	13111	100
2025-3-27 18:43:38.229	WT901BLE68-01(48591DE3C19B)	-0.268	-1.090	0.184	10.315	48.767	-202.026	-79.97	19.54	-73.03	-76.244	-42.140	0.882	0.79022	-0.35468	0.47128	-0.16599	30.9	13111	100
2025-3-27 18:43:38.229	WT901BLE68-01(48591DE3C19B)	-0.268	-1.007	0.219	5.432	32.410	-204.163	-80.20	17.49	-73.89	-76.244	-42.140	0.882	0.79022	-0.35468	0.47128	-0.16599	30.9	13111	100
2025-3-27 18:43:38.229	WT901BLE68-01(48591DE3C19B)	-0.234	-1.007	0.219	5.432	32.410	-204.163	-80.39	15.46	-74.73	-73.794	-34.398	-7.350	0.79022	-0.35468	0.47128	-0.16599	30.9	13111	100
2025-3-27 18:43:38.230	WT901BLE68-01(48591DE3C19B)	-0.234	-0.997	0.213	2.563	23.499	-204.346	-80.55	13.43	-75.47	-73.794	-34.398	-7.350	0.79022	-0.35468	0.47128	-0.16599	30.9	13111	100
2025-3-27 18:43:38.230	WT901BLE68-01(48591DE3C19B)	-0.206	-0.997	0.213	2.563	23.499	-204.346	-80.68	11.40	-76.18	-73.794	-34.398	-7.350	0.79022	-0.35468	0.47128	-0.16599	30.9	13111	100
2025-3-27 18:43:38.230	WT901BLE68-01(48591DE3C19B)	-0.206	-0.997	0.197	1.770	29.175	-203.918	-80.80	9.42	-76.94	-73.794	-34.398	-7.350	0.79022	-0.35468	0.47128	-0.16599	30.9	13111	100
2025-3-27 18:43:38.259	WT901BLE68-01(48591DE3C19B)	-0.191	-0.997	0.197	1.770	29.175	-203.918	-80.90	7.43	-77.70	-73.794	-34.398	-7.350	0.79022	-0.35468	0.47128	-0.16599	30.9	13111	100
2025-3-27 18:43:38.259	WT901BLE68-01(48591DE3C19B)	-0.191	-1.037	0.146	2.014	50.842	-202.881	-80.99	5.51	-78.65	-73.794	-34.398	-7.350	0.79022	-0.35468	0.47128	-0.16599	30.9	13111	100
2025-3-27 18:43:38.260	WT901BLE68-01(48591DE3C19B)	-0.250	-1.037	0.146	2.014	50.842	-202.881	-81.04	3.60	-79.60	-73.794	-34.398	-7.350	0.79022	-0.35468	0.47128	-0.16599	30.9	13111	100
2025-3-27 18:43:38.260	WT901BLE68-01(48591DE3C19B)	-0.250	-1.089	0.078	6.287	78.064	-201.416	-81.04	1.76	-80.80	-73.794	-34.398	-7.350	0.79022	-0.35468	0.47128	-0.16599	30.9	13111	100
2025-3-27 18:43:38.350	WT901BLE68-01(48591DE3C19B)	-0.348	-1.089	0.078	6.287	78.064	-201.416	-81.00	-0.06	-82.00	-73.794	-34.398	-7.350	0.79022	-0.35468	0.47128	-0.16599	30.9	13111	100
2025-3-27 18:43:38.350	WT901BLE68-01(48591DE3C19B)	-0.348	-1.096	0.056	13.489	97.656	-197.083	-80.85	-1.79	-83.38	-73.794	-34.398	-7.350	0.79022	-0.35468	0.47128	-0.16599	30.9	13111	100
2025-3-27 18:43:38.350	WT901BLE68-01(48591DE3C19B)	-0.438	-1.096	0.056	13.489	97.656	-197.083	-80.67	-3.50	-84.76	-73.794	-34.398	-7.350	0.79022	-0.35468	0.47128	-0.16599	30.9	13111	100
2025-3-27 18:43:38.350	WT901BLE68-01(48591DE3C19B)	-0.438	-1.048	0.094	18.982	102.905	-186.829	-80.39	-5.09	-86.18	-73.794	-34.398	-7.350	0.79022	-0.35468	0.47128	-0.16599	30.9	13111	100
2025-3-27 18:43:38.351	WT901BLE68-01(48591DE3C19B)	-0.518	-1.048	0.094	18.982	102.905	-186.829	-80.07	-6.65	-87.60	-73.794	-34.398	-7.350	0.79022	-0.35468	0.47128	-0.16599	30.9	13111	100
2025-3-27 18:43:38.351	WT901BLE68-01(48591DE3C19B)	-0.518	-0.939	0.166	22.278	100.952	-171.204	-79.69	-8.03	-88.99	-73.794	-34.398	-7.350	0.79022	-0.35468	0.47128	-0.16599	30.9	13111	100
2025-3-27 18:43:38.351	WT901BLE68-01(48591DE3C19B)	-0.597	-0.939	0.166	22.278	100.952	-171.204	-79.28	-9.39	-90.39	-73.794	-34.398	-7.350	0.79022	-0.35468	0.47128	-0.16599	30.9	13111	100
2025-3-27 18:43:38.351	WT901BLE68-01(48591DE3C19B)	-0.597	-0.777	0.204	22.644	94.727	-151.917	-78.84	-10.54	-91.70	-73.794	-34.398	-7.350	0.79022	-0.35468	0.47128	-0.16599	30.9	13111	100
2025-3-27 18:43:38.408	WT901BLE68-01(48591DE3C19B)	-0.613	-0.777	0.204	22.644	94.727	-151.917	-78.38	-11.67	-93.03	-73.794	-34.398	-7.350	0.79022	-0.35468	0.47128	-0.16599	30.9	13111	100
2025-3-27 18:43:38.408	WT901BLE68-01(48591DE3C19B)	-0.613	-0.615	0.202	19.775	84.717	-133.057	-77.94	-12.61	-94.24	-73.794	-34.398	-7.350	0.79022	-0.35468	0.47128	-0.16599	30.9	13111	100
2025-3-27 18:43:38.408	WT901BLE68-01(48591DE3C19B)	-0.630	-0.615	0.202	19.775	84.717	-133.057	-77.48	-13.52	-95.46	-73.794	-34.398	-7.350	0.46640	-0.48593	0.39810	-0.62268	30.9	13111	100
2025-3-27 18:43:38.409	WT901BLE68-01(48591DE3C19B)	-0.630	-0.519	0.195	15.076	68.848	-114.380	-77.09	-14.26	-96.50	-73.794	-34.398	-7.350	0.46640	-0.48593	0.39810	-0.62268	30.9	13111	100
2025-3-27 18:43:38.437	WT901BLE68-01(48591DE3C19B)	-0.679	-0.519	0.195	15.076	68.848	-114.380	-76.68	-14.98	-97.56	-73.794	-34.398	-7.350	0.46640	-0.48593	0.39810	-0.62268	30.9	13111	100
2025-3-27 18:43:38.437	WT901BLE68-01(48591DE3C19B)	-0.679	-0.537	0.201	10.254	48.706	-94.116	-76.37	-15.53	-98.39	-73.794	-34.398	-7.350	0.46640	-0.48593	0.39810	-0.62268	30.9	13111	100
2025-3-27 18:43:38.437	WT901BLE68-01(48591DE3C19B)	-0.797	-0.537	0.201	10.254	48.706	-94.116	-76.03	-16.06	-99.23	-73.794	-34.398	-7.350	0.46640	-0.48593	0.39810	-0.62268	30.9	13111	100
2025-3-27 18:43:38.437	WT901BLE68-01(48591DE3C19B)	-0.797	-0.641	0.238	7.019	27.466	-67.505	-75.79	-16.37	-99.82	-73.794	-34.398	-7.350	0.46640	-0.48593	0.39810	-0.62268	30.9	13111	100
2025-3-27 18:43:38.467	WT901BLE68-01(48591DE3C19B)	-0.817	-0.641	0.238	7.019	27.466	-67.505	-75.53	-16.67	-100.42	-73.794	-34.398	-7.350	0.46640	-0.48593	0.39810	-0.62268	30.9	13111	100
2025-3-27 18:43:38.468	WT901BLE68-01(48591DE3C19B)	-0.817	-0.767	0.229	3.662	9.949	-38.391	-75.37	-16.72	-100.79	-73.794	-34.398	-7.350	0.46640	-0.48593	0.39810	-0.62268	30.9	13111	100
2025-3-27 18:43:38.468	WT901BLE68-01(48591DE3C19B)	-0.737	-0.767	0.229	3.662	9.949	-38.391	-75.20	-16.77	-101.17	-73.794	-34.398	-7.350	0.46640	-0.48593	0.39810	-0.62268	30.9	13111	100
2025-3-27 18:43:38.468	WT901BLE68-01(48591DE3C19B)	-0.737	-0.915	0.224	1.282	10.925	-12.268	-75.07	-16.56	-101.50	-73.794	-34.398	-7.350	0.46640	-0.48593	0.39810	-0.62268	30.9	13111	100
2025-3-27 18:43:38.560	WT901BLE68-01(48591DE3C19B)	-0.790	-0.915	0.224	1.282	10.925	-12.268	-74.94	-16.35	-101.83	-73.794	-34.398	-7.350	0.46640	-0.48593	0.39810	-0.62268	30.9	13111	100
2025-3-27 18:43:38.560	WT901BLE68-01(48591DE3C19B)	-0.790	-1.062	0.252	-1.038	15.503	12.390	-74.84	-15.89	-102.13	-73.794	-34.398	-7.350	0.46640	-0.48593	0.39810	-0.62268	30.9	13111	100
2025-3-27 18:43:38.560	WT901BLE68-01(48591DE3C19B)	-0.875	-1.062	0.252	-1.038	15.503	12.390	-74.74	-15.44	-102.44	-73.794	-34.398	-7.350	0.46640	-0.48593	0.39810	-0.62268	30.9	13111	100
2025-3-27 18:43:38.560	WT901BLE68-01(48591DE3C19B)	-0.875	-1.207	0.292	-4.150	7.507	32.288	-74.71	-14.82	-102.60	-73.794	-34.398	-7.350	0.46640	-0.48593	0.39810	-0.62268	30.9	13111	100
2025-3-27 18:43:38.561	WT901BLE68-01(48591DE3C19B)	-0.872	-1.207	0.292	-4.150	7.507	32.288	-74.69	-14.20	-102.77	-73.794	-34.398	-7.350	0.46640	-0.48593	0.39810	-0.62268	30.9	13111	100
2025-3-27 18:43:38.561	WT901BLE68-01(48591DE3C19B)	-0.872	-1.357	0.318	-12.939	-0.549	52.063	-74.79	-13.41	-102.79	-73.794	-34.398	-7.350	0.46640	-0.48593	0.39810	-0.62268	30.9	13111	100
2025-3-27 18:43:38.561	WT901BLE68-01(48591DE3C19B)	-0.859	-1.357	0.318	-12.939	-0.549	52.063	-74.89	-12.64	-102.82	-73.794	-34.398	-7.350	0.46640	-0.48593	0.39810	-0.62268	30.9	13111	100
2025-3-27 18:43:38.561	WT901BLE68-01(48591DE3C19B)	-0.859	-1.490	0.322	-18.921	-5.615	74.158	-75.08	-11.67	-102.72	-73.794	-34.398	-7.350	0.46640	-0.48593	0.39810	-0.62268	30.9	13111	100
2025-3-27 18:43:38.590	WT901BLE68-01(48591DE3C19B)	-0.814	-1.490	0.322	-18.921	-5.615	74.158	-75.26	-10.71	-102.62	-73.794	-34.398	-7.350	0.46640	-0.48593	0.39810	-0.62268	30.9	13111	100
2025-3-27 18:43:38.590	WT901BLE68-01(48591DE3C19B)	-0.789	-1.510	0.313	-25.818	-16.602	98.267	-75.55	-9.55	-102.35	-73.794	-34.398	-7.350	0.46640	-0.48593	0.39810	-0.62268	30.9	13111	100
2025-3-27 18:43:38.590	WT901BLE68-01(48591DE3C19B)	-0.789	-1.491	0.290	-34.546	-38.818	120.667	-75.89	-8.32	-101.95	-52.626	-41.160	-8.232	0.46640	-0.48593	0.39810	-0.62268	30.9	13111	100
2025-3-27 18:43:38.590	WT901BLE68-01(48591DE3C19B)	-0.792	-1.491	0.290	-34.546	-38.818	120.667	-76.28	-7.01	-101.41	-52.626	-41.160	-8.232	0.46640	-0.48593	0.39810	-0.62268	30.9	13111	100
2025-3-27 18:43:38.648	WT901BLE68-01(48591DE3C19B)	-0.792	-1.508	0.266	-39.795	-73.914	142.212	-76.71	-5.65	-100.69	-52.626	-41.160	-8.232	0.46640	-0.48593	0.39810	-0.62268	30.9	13111	100
2025-3-27 18:43:38.648	WT901BLE68-01(48591DE3C19B)	-0.750	-1.508	0.266	-39.795	-73.914	142.212	-77.16	-4.22	-99.77	-52.626	-41.160	-8.232	0.46640	-0.48593	0.39810	-0.62268	30.9	13111	100
2025-3-27 18:43:38.649	WT901BLE68-01(48591DE3C19B)	-0.750	-1.539	0.201	-39.917	-110.352	164.734	-77.60	-2.73	-98.67	-52.626	-41.160	-8.232	0.46640	-0.48593	0.39810	-0.62268	30.9	13111	100
2025-3-27 18:43:38.649	WT901BLE68-01(48591DE3C19B)	-0.647	-1.539	0.201	-39.917	-110.352	164.734	-78.02	-1.16	-97.37	-52.626	-41.160	-8.232	0.46640	-0.48593	0.39810	-0.62268	30.9	13111	100
2025-3-27 18:43:38.677	WT901BLE68-01(48591DE3C19B)	-0.647	-1.491	0.132	-33.264	-137.634	188.538	-78.37	0.48	-95.93	-52.626	-41.160	-8.232	0.46640	-0.48593	0.39810	-0.62268	30.9	13111	100
2025-3-27 18:43:38.677	WT901BLE68-01(48591DE3C19B)	-0.526	-1.491	0.132	-33.264	-137.634	188.538	-78.63	2.21	-94.33	-52.626	-41.160	-8.232	0.46640	-0.48593	0.39810	-0.62268	30.9	13111	100
2025-3-27 18:43:38.677	WT901BLE68-01(48591DE3C19B)	-0.526	-1.425	0.073	-28.076	-155.945	212.769	-78.82	4.04	-92.62	-52.626	-41.160	-8.232	0.46640	-0.48593	0.39810	-0.62268	30.9	13111	100
2025-3-27 18:43:38.677	WT901BLE68-01(48591DE3C19B)	-0.389	-1.425	0.073	-28.076	-155.945	212.769	-78.92	5.96	-90.80	-52.626	-41.160	-8.232	0.46640	-0.48593	0.39810	-0.62268	30.9	13111	100
2025-3-27 18:43:38.708	WT901BLE68-01(48591DE3C19B)	-0.389	-1.436	0.024	-18.616	-162.781	233.398	-78.90	7.96	-88.92	-52.626	-41.160	-8.232	0.46640	-0.48593	0.39810	-0.62268	30.9	13111	100
2025-3-27 18:43:38.708	WT901BLE68-01(48591DE3C19B)	-0.276	-1.436	0.024	-18.616	-162.781	233.398	-78.77	10.04	-86.97	-52.626	-41.160	-8.232	0.46640	-0.48593	0.39810	-0.62268	30.9	13111	100
2025-3-27 18:43:38.708	WT901BLE68-01(48591DE3C19B)	-0.276	-1.457	-0.000	-5.188	-157.654	248.230	-78.50	12.16	-85.02	-52.626	-41.160	-8.232	0.46640	-0.48593	0.39810	-0.62268	30.9	13111	100
2025-3-27 18:43:38.708	WT901BLE68-01(48591DE3C19B)	-0.202	-1.457	-0.000	-5.188	-157.654	248.230	-78.09	14.33	-83.05	-52.626	-41.160	-8.232	0.46640	-0.48593	0.39810	-0.62268	30.9	13111	100
2025-3-27 18:43:38.769	WT901BLE68-01(48591DE3C19B)	-0.202	-1.508	0.000	8.545	-143.066	255.005	-77.55	16.52	-81.11	-52.626	-41.160	-8.232	0.46640	-0.48593	0.39810	-0.62268	30.9	13111	100
2025-3-27 18:43:38.770	WT901BLE68-01(48591DE3C19B)	-0.166	-1.508	0.000	8.545	-143.066	255.005	-76.89	18.72	-79.19	-52.626	-41.160	-8.232	0.46640	-0.48593	0.39810	-0.62268	30.9	13111	100
2025-3-27 18:43:38.770	WT901BLE68-01(48591DE3C19B)	-0.166	-1.588	-0.010	22.339	-121.582	252.686	-76.12	20.88	-77.35	-52.626	-41.160	-8.232	0.46640	-0.48593	0.39810	-0.62268	30.9	13111	100
2025-3-27 18:43:38.770	WT901BLE68-01(48591DE3C19B)	-0.119	-1.588	-0.010	22.339	-121.582	252.686	-75.23	23.02	-75.56	-52.626	-41.160	-8.232	0.46640	-0.48593	0.39810	-0.62268	30.9	13111	100
2025-3-27 18:43:38.800	WT901BLE68-01(48591DE3C19B)	-0.119	-1.528	-0.021	38.391	-92.285	244.934	-74.27	25.10	-73.88	-52.626	-41.160	-8.232	0.46640	-0.48593	0.39810	-0.62268	30.9	13111	100
2025-3-27 18:43:38.800	WT901BLE68-01(48591DE3C19B)	-0.118	-1.528	-0.021	38.391	-92.285	244.934	-73.21	27.15	-72.31	-52.626	-41.160	-8.232	0.46640	-0.48593	0.39810	-0.62268	30.9	13111	100
2025-3-27 18:43:38.800	WT901BLE68-01(48591DE3C19B)	-0.118	-1.390	-0.024	45.044	-59.265	233.887	-72.14	29.15	-70.87	-52.626	-41.160	-8.232	0.46640	-0.48593	0.39810	-0.62268	30.9	13111	100
2025-3-27 18:43:38.800	WT901BLE68-01(48591DE3C19B)	-0.152	-1.390	-0.024	45.044	-59.265	233.887	-71.07	31.11	-69.57	-52.626	-41.160	-8.232	0.73737	-0.32983	0.49976	-0.31241	30.9	13111	100
2025-3-27 18:43:38.830	WT901BLE68-01(48591DE3C19B)	-0.152	-1.300	-0.021	44.800	-29.297	219.299	-70.03	33.01	-68.39	-52.626	-41.160	-8.232	0.73737	-0.32983	0.49976	-0.31241	30.9	13111	100
2025-3-27 18:43:38.830	WT901BLE68-01(48591DE3C19B)	-0.197	-1.300	-0.021	44.800	-29.297	219.299	-69.04	34.86	-67.36	-52.626	-41.160	-8.232	0.73737	-0.32983	0.49976	-0.31241	30.9	13111	100
2025-3-27 18:43:38.830	WT901BLE68-01(48591DE3C19B)	-0.197	-1.319	-0.022	40.649	-8.850	207.703	-68.10	36.67	-66.42	-52.626	-41.160	-8.232	0.73737	-0.32983	0.49976	-0.31241	30.9	13111	100
2025-3-27 18:43:38.830	WT901BLE68-01(48591DE3C19B)	-0.158	-1.319	-0.022	40.649	-8.850	207.703	-67.22	38.44	-65.57	-52.626	-41.160	-8.232	0.73737	-0.32983	0.49976	-0.31241	30.9	13111	100
2025-3-27 18:43:38.890	WT901BLE68-01(48591DE3C19B)	-0.158	-1.246	-0.043	41.504	6.409	197.510	-66.36	40.17	-64.78	-52.626	-41.160	-8.232	0.73737	-0.32983	0.49976	-0.31241	30.9	13111	100
2025-3-27 18:43:38.890	WT901BLE68-01(48591DE3C19B)	-0.058	-1.246	-0.043	41.504	6.409	197.510	-65.52	41.86	-64.06	-52.626	-41.160	-8.232	0.73737	-0.32983	0.49976	-0.31241	30.9	13111	100
2025-3-27 18:43:38.891	WT901BLE68-01(48591DE3C19B)	-0.058	-1.092	-0.053	38.330	19.775	187.134	-64.73	43.52	-63.41	-52.626	-41.160	-8.232	0.73737	-0.32983	0.49976	-0.31241	30.9	13111	100
2025-3-27 18:43:38.891	WT901BLE68-01(48591DE3C19B)	0.006	-1.092	-0.053	38.330	19.775	187.134	-63.99	45.14	-62.84	-52.626	-41.160	-8.232	0.73737	-0.32983	0.49976	-0.31241	30.9	13111	100
2025-3-27 18:43:38.918	WT901BLE68-01(48591DE3C19B)	0.006	-1.002	-0.096	28.564	32.349	177.551	-63.35	46.72	-62.33	-52.626	-41.160	-8.232	0.73737	-0.32983	0.49976	-0.31241	30.9	13111	100
2025-3-27 18:43:38.918	WT901BLE68-01(48591DE3C19B)	0.119	-1.002	-0.096	28.564	32.349	177.551	-62.80	48.28	-61.90	-52.626	-41.160	-8.232	0.73737	-0.32983	0.49976	-0.31241	30.9	13111	100
2025-3-27 18:43:38.918	WT901BLE68-01(48591DE3C19B)	0.119	-0.991	-0.165	16.724	41.138	165.161	-62.36	49.79	-61.55	-52.626	-41.160	-8.232	0.73737	-0.32983	0.49976	-0.31241	30.9	13111	100
2025-3-27 18:43:38.918	WT901BLE68-01(48591DE3C19B)	0.256	-0.991	-0.165	16.724	41.138	165.161	-62.06	51.25	-61.29	-52.626	-41.160	-8.232	0.73737	-0.32983	0.49976	-0.31241	30.9	13111	100
2025-3-27 18:43:38.947	WT901BLE68-01(48591DE3C19B)	0.256	-0.973	-0.167	1.343	50.598	150.513	-61.91	52.66	-61.13	-52.626	-41.160	-8.232	0.73737	-0.32983	0.49976	-0.31241	30.9	13111	100
2025-3-27 18:43:38.947	WT901BLE68-01(48591DE3C19B)	0.296	-0.973	-0.167	1.343	50.598	150.513	-61.94	54.00	-61.11	-52.626	-41.160	-8.232	0.73737	-0.32983	0.49976	-0.31241	30.9	13111	100
2025-3-27 18:43:38.948	WT901BLE68-01(48591DE3C19B)	0.296	-1.088	-0.037	-17.578	49.744	130.981	-62.14	55.24	-61.17	-52.626	-41.160	-8.232	0.73737	-0.32983	0.49976	-0.31241	30.9	13111	100
2025-3-27 18:43:38.948	WT901BLE68-01(48591DE3C19B)	0.322	-1.088	-0.037	-17.578	49.744	130.981	-62.50	56.39	-61.33	-52.626	-41.160	-8.232	0.73737	-0.32983	0.49976	-0.31241	30.9	13111	100
2025-3-27 18:43:39.8	WT901BLE68-01(48591DE3C19B)	0.322	-1.317	0.047	-24.475	36.560	104.797	-62.92	57.38	-61.51	-52.626	-41.160	-8.232	0.73737	-0.32983	0.49976	-0.31241	30.9	13111	100
2025-3-27 18:43:39.8	WT901BLE68-01(48591DE3C19B)	0.438	-1.317	0.047	-24.475	36.560	104.797	-63.40	58.20	-61.73	-52.626	-41.160	-8.232	0.73737	-0.32983	0.49976	-0.31241	30.9	13111	100
2025-3-27 18:43:39.8	WT901BLE68-01(48591DE3C19B)	0.438	-1.483	0.058	-17.517	33.203	68.848	-63.96	58.85	-62.08	-52.626	-41.160	-8.232	0.73737	-0.32983	0.49976	-0.31241	30.9	13111	100
2025-3-27 18:43:39.8	WT901BLE68-01(48591DE3C19B)	0.429	-1.483	0.058	-17.517	33.203	68.848	-64.61	59.31	-62.59	-52.626	-41.160	-8.232	0.73737	-0.32983	0.49976	-0.31241	30.9	13111	100
2025-3-27 18:43:39.39	WT901BLE68-01(48591DE3C19B)	0.429	-1.577	0.018	-13.977	48.706	18.921	-65.56	59.57	-63.46	-71.834	-26.264	-9.898	0.73737	-0.32983	0.49976	-0.31241	30.9	13111	100
2025-3-27 18:43:39.39	WT901BLE68-01(48591DE3C19B)	0.137	-1.577	0.018	-13.977	48.706	18.921	-66.79	59.62	-64.69	-71.834	-26.264	-9.898	0.73737	-0.32983	0.49976	-0.31241	30.9	13111	100
2025-3-27 18:43:39.39	WT901BLE68-01(48591DE3C19B)	0.137	-1.665	0.016	-16.235	68.054	-42.236	-68.37	59.41	-66.31	-71.834	-26.264	-9.898	0.73737	-0.32983	0.49976	-0.31241	30.9	13111	100
2025-3-27 18:43:39.39	WT901BLE68-01(48591DE3C19B)	-0.071	-1.665	0.016	-16.235	68.054	-42.236	-70.25	58.93	-68.29	-71.834	-26.264	-9.898	0.73737	-0.32983	0.49976	-0.31241	30.9	13111	100
2025-3-27 18:43:39.67	WT901BLE68-01(48591DE3C19B)	-0.071	-1.626	0.080	-10.376	68.054	-109.131	-72.33	57.78	-70.58	-71.834	-26.264	-9.898	0.73737	-0.32983	0.49976	-0.31241	30.9	13111	100
2025-3-27 18:43:39.67	WT901BLE68-01(48591DE3C19B)	-0.163	-1.626	0.080	-10.376	68.054	-109.131	-74.24	56.60	-72.71	-71.834	-26.264	-9.898	0.73737	-0.32983	0.49976	-0.31241	30.9	13111	100
2025-3-27 18:43:39.67	WT901BLE68-01(48591DE3C19B)	-0.163	-1.533	0.115	-10.132	34.790	-166.077	-75.73	54.77	-74.38	-71.834	-26.264	-9.898	0.73737	-0.32983	0.49976	-0.31241	30.9	13111	100
2025-3-27 18:43:39.67	WT901BLE68-01(48591DE3C19B)	-0.224	-1.533	0.115	-10.132	34.790	-166.077	-77.06	52.94	-75.89	-71.834	-26.264	-9.898	0.73737	-0.32983	0.49976	-0.31241	30.9	13111	100
2025-3-27 18:43:39.128	WT901BLE68-01(48591DE3C19B)	-0.224	-1.489	0.030	-1.831	7.507	-212.341	-77.95	50.59	-77.00	-71.834	-26.264	-9.898	0.73737	-0.32983	0.49976	-0.31241	30.9	13111	100
2025-3-27 18:43:39.128	WT901BLE68-01(48591DE3C19B)	-0.277	-1.489	0.030	-1.831	7.507	-212.341	-78.72	48.25	-77.99	-71.834	-26.264	-9.898	0.73737	-0.32983	0.49976	-0.31241	30.9	13111	100
2025-3-27 18:43:39.128	WT901BLE68-01(48591DE3C19B)	-0.277	-1.397	0.015	6.042	-9.155	-251.892	-79.23	45.51	-78.77	-71.834	-26.264	-9.898	0.73737	-0.32983	0.49976	-0.31241	30.9	13111	100
2025-3-27 18:43:39.129	WT901BLE68-01(48591DE3C19B)	-0.321	-1.397	0.015	6.042	-9.155	-251.892	-79.66	42.78	-79.46	-71.834	-26.264	-9.898	0.73737	-0.32983	0.49976	-0.31241	30.9	13111	100
2025-3-27 18:43:39.160	WT901BLE68-01(48591DE3C19B)	-0.321	-1.380	0.046	5.066	-41.321	-288.025	-79.83	39.66	-79.78	-71.834	-26.264	-9.898	0.73737	-0.32983	0.49976	-0.31241	30.9	13111	100
2025-3-27 18:43:39.160	WT901BLE68-01(48591DE3C19B)	-0.280	-1.380	0.046	5.066	-41.321	-288.025	-79.96	36.56	-80.06	-71.834	-26.264	-9.898	0.73737	-0.32983	0.49976	-0.31241	30.9	13111	100
2025-3-27 18:43:39.160	WT901BLE68-01(48591DE3C19B)	-0.280	-1.422	0.100	-3.357	-75.439	-314.270	-79.95	33.16	-79.97	-71.834	-26.264	-9.898	0.73737	-0.32983	0.49976	-0.31241	30.9	13111	100
2025-3-27 18:43:39.160	WT901BLE68-01(48591DE3C19B)	-0.285	-1.422	0.100	-3.357	-75.439	-314.270	-79.95	29.79	-79.89	-71.834	-26.264	-9.898	0.73737	-0.32983	0.49976	-0.31241	30.9	13111	100
2025-3-27 18:43:39.190	WT901BLE68-01(48591DE3C19B)	-0.285	-1.500	0.165	-12.756	-95.886	-329.407	-79.96	26.26	-79.61	-71.834	-26.264	-9.898	0.73737	-0.32983	0.49976	-0.31241	30.9	13111	100
2025-3-27 18:43:39.190	WT901BLE68-01(48591DE3C19B)	-0.345	-1.500	0.165	-12.756	-95.886	-329.407	-79.99	22.75	-79.33	-71.834	-26.264	-9.898	0.73737	-0.32983	0.49976	-0.31241	30.9	13111	100
2025-3-27 18:43:39.190	WT901BLE68-01(48591DE3C19B)	-0.345	-1.546	0.216	-23.010	-101.440	-333.679	-80.11	19.22	-79.01	-71.834	-26.264	-9.898	0.65057	-0.40823	0.50223	-0.39719	30.9	13111	100
2025-3-27 18:43:39.190	WT901BLE68-01(48591DE3C19B)	-0.356	-1.546	0.216	-23.010	-101.440	-333.679	-80.26	15.71	-78.69	-71.834	-26.264	-9.898	0.65057	-0.40823	0.50223	-0.39719	30.9	13111	100
2025-3-27 18:43:39.248	WT901BLE68-01(48591DE3C19B)	-0.356	-1.574	0.261	-34.241	-85.266	-331.299	-80.56	12.28	-78.52	-71.834	-26.264	-9.898	0.65057	-0.40823	0.50223	-0.39719	30.9	13111	100
2025-3-27 18:43:39.248	WT901BLE68-01(48591DE3C19B)	-0.285	-1.574	0.261	-34.241	-85.266	-331.299	-80.88	8.87	-78.34	-71.834	-26.264	-9.898	0.65057	-0.40823	0.50223	-0.39719	30.9	13111	100
2025-3-27 18:43:39.249	WT901BLE68-01(48591DE3C19B)	-0.285	-1.602	0.310	-40.344	-47.668	-320.313	-81.30	5.64	-78.49	-71.834	-26.264	-9.898	0.65057	-0.40823	0.50223	-0.39719	30.9	13111	100
2025-3-27 18:43:39.249	WT901BLE68-01(48591DE3C19B)	-0.244	-1.602	0.310	-40.344	-47.668	-320.313	-81.72	2.44	-78.62	-71.834	-26.264	-9.898	0.65057	-0.40823	0.50223	-0.39719	30.9	13111	100
2025-3-27 18:43:39.276	WT901BLE68-01(48591DE3C19B)	-0.244	-1.583	0.338	-37.598	5.432	-300.720	-82.10	-0.47	-79.22	-71.834	-26.264	-9.898	0.65057	-0.40823	0.50223	-0.39719	30.9	13111	100
2025-3-27 18:43:39.276	WT901BLE68-01(48591DE3C19B)	-0.308	-1.583	0.338	-37.598	5.432	-300.720	-82.45	-3.38	-79.80	-71.834	-26.264	-9.898	0.65057	-0.40823	0.50223	-0.39719	30.9	13111	100
2025-3-27 18:43:39.276	WT901BLE68-01(48591DE3C19B)	-0.308	-1.530	0.292	-28.320	53.345	-277.771	-82.64	-5.98	-80.82	-71.834	-26.264	-9.898	0.65057	-0.40823	0.50223	-0.39719	30.9	13111	100
2025-3-27 18:43:39.276	WT901BLE68-01(48591DE3C19B)	-0.365	-1.530	0.292	-28.320	53.345	-277.771	-82.79	-8.56	-81.82	-71.834	-26.264	-9.898	0.65057	-0.40823	0.50223	-0.39719	30.9	13111	100
2025-3-27 18:43:39.307	WT901BLE68-01(48591DE3C19B)	-0.365	-1.387	0.207	-17.395	86.304	-254.639	-82.74	-10.87	-83.13	-71.834	-26.264	-9.898	0.65057	-0.40823	0.50223	-0.39719	30.9	13111	100
2025-3-27 18:43:39.307	WT901BLE68-01(48591DE3C19B)	-0.378	-1.387	0.207	-17.395	86.304	-254.639	-82.64	-13.15	-84.44	-71.834	-26.264	-9.898	0.65057	-0.40823	0.50223	-0.39719	30.9	13111	100
2025-3-27 18:43:39.307	WT901BLE68-01(48591DE3C19B)	-0.378	-1.209	0.157	-10.254	110.107	-229.126	-82.36	-15.13	-85.97	-71.834	-26.264	-9.898	0.65057	-0.40823	0.50223	-0.39719	30.9	13111	100
2025-3-27 18:43:39.308	WT901BLE68-01(48591DE3C19B)	-0.439	-1.209	0.157	-10.254	110.107	-229.126	-82.04	-17.09	-87.53	-71.834	-26.264	-9.898	0.65057	-0.40823	0.50223	-0.39719	30.9	13111	100
2025-3-27 18:43:39.370	WT901BLE68-01(48591DE3C19B)	-0.439	-1.061	0.172	-6.226	119.568	-203.003	-81.61	-18.75	-89.16	-71.834	-26.264	-9.898	0.65057	-0.40823	0.50223	-0.39719	30.9	13111	100
2025-3-27 18:43:39.370	WT901BLE68-01(48591DE3C19B)	-0.524	-1.061	0.172	-6.226	119.568	-203.003	-81.12	-20.39	-90.82	-71.834	-26.264	-9.898	0.65057	-0.40823	0.50223	-0.39719	30.9	13111	100
2025-3-27 18:43:39.370	WT901BLE68-01(48591DE3C19B)	-0.524	-0.922	0.220	-3.540	110.168	-178.772	-80.61	-21.76	-92.36	-71.834	-26.264	-9.898	0.65057	-0.40823	0.50223	-0.39719	30.9	13111	100
2025-3-27 18:43:39.370	WT901BLE68-01(48591DE3C19B)	-0.550	-0.922	0.220	-3.540	110.168	-178.772	-80.05	-23.12	-93.93	-71.834	-26.264	-9.898	0.65057	-0.40823	0.50223	-0.39719	30.9	13111	100
2025-3-27 18:43:39.488	WT901BLE68-01(48591DE3C19B)	-0.550	-0.804	0.252	-3.052	91.736	-156.677	-79.55	-24.26	-95.28	-71.834	-26.264	-9.898	0.65057	-0.40823	0.50223	-0.39719	30.9	13111	100
2025-3-27 18:43:39.489	WT901BLE68-01(48591DE3C19B)	-0.565	-0.804	0.252	-3.052	91.736	-156.677	-79.01	-25.38	-96.66	-71.834	-26.264	-9.898	0.65057	-0.40823	0.50223	-0.39719	30.9	13111	100
2025-3-27 18:43:39.489	WT901BLE68-01(48591DE3C19B)	-0.565	-0.735	0.252	-2.502	72.083	-133.484	-78.55	-26.28	-97.80	-71.834	-26.264	-9.898	0.65057	-0.40823	0.50223	-0.39719	30.9	13111	100
2025-3-27 18:43:39.489	WT901BLE68-01(48591DE3C19B)	-0.584	-0.735	0.252	-2.502	72.083	-133.484	-78.06	-27.17	-98.95	-62.132	-35.868	-8.820	0.65057	-0.40823	0.50223	-0.39719	30.9	13111	100
2025-3-27 18:43:39.490	WT901BLE68-01(48591DE3C19B)	-0.584	-0.700	0.247	-2.014	47.546	-111.633	-77.69	-27.88	-99.81	-62.132	-35.868	-8.820	0.65057	-0.40823	0.50223	-0.39719	30.9	13111	100
2025-3-27 18:43:39.490	WT901BLE68-01(48591DE3C19B)	-0.555	-0.700	0.247	-2.014	47.546	-111.633	-77.31	-28.56	-100.67	-62.132	-35.868	-8.820	0.65057	-0.40823	0.50223	-0.39719	30.9	13111	100
2025-3-27 18:43:39.490	WT901BLE68-01(48591DE3C19B)	-0.555	-0.693	0.256	-1.404	20.081	-93.201	-77.06	-29.12	-101.21	-62.132	-35.868	-8.820	0.65057	-0.40823	0.50223	-0.39719	30.9	13111	100
2025-3-27 18:43:39.490	WT901BLE68-01(48591DE3C19B)	-0.523	-0.693	0.256	-1.404	20.081	-93.201	-76.82	-29.67	-101.75	-62.132	-35.868	-8.820	0.65057	-0.40823	0.50223	-0.39719	30.9	13111	100
2025-3-27 18:43:39.490	WT901BLE68-01(48591DE3C19B)	-0.523	-0.703	0.238	-0.671	-9.644	-78.308	-76.73	-30.14	-101.93	-62.132	-35.868	-8.820	0.65057	-0.40823	0.50223	-0.39719	30.9	13111	100
2025-3-27 18:43:39.490	WT901BLE68-01(48591DE3C19B)	-0.546	-0.703	0.238	-0.671	-9.644	-78.308	-76.64	-30.59	-102.11	-62.132	-35.868	-8.820	0.65057	-0.40823	0.50223	-0.39719	30.9	13111	100
2025-3-27 18:43:39.491	WT901BLE68-01(48591DE3C19B)	-0.546	-0.813	0.268	-1.892	-39.734	-63.904	-76.76	-30.97	-101.93	-62.132	-35.868	-8.820	0.65057	-0.40823	0.50223	-0.39719	30.9	13111	100
2025-3-27 18:43:39.491	WT901BLE68-01(48591DE3C19B)	-0.592	-0.813	0.268	-1.892	-39.734	-63.904	-76.86	-31.35	-101.74	-62.132	-35.868	-8.820	0.65057	-0.40823	0.50223	-0.39719	30.9	13111	100
2025-3-27 18:43:39.520	WT901BLE68-01(48591DE3C19B)	-0.604	-1.005	0.320	-0.916	-59.937	-48.584	-77.10	-31.62	-101.29	-62.132	-35.868	-8.820	0.65057	-0.40823	0.50223	-0.39719	30.9	13111	100
2025-3-27 18:43:39.521	WT901BLE68-01(48591DE3C19B)	-0.604	-1.152	0.370	1.404	-62.134	-34.363	-77.34	-31.82	-100.81	-62.132	-35.868	-8.820	0.65057	-0.40823	0.50223	-0.39719	30.9	13111	100
2025-3-27 18:43:39.521	WT901BLE68-01(48591DE3C19B)	-0.563	-1.152	0.370	1.404	-62.134	-34.363	-77.58	-31.95	-100.31	-62.132	-35.868	-8.820	0.65057	-0.40823	0.50223	-0.39719	30.9	13111	100
2025-3-27 18:43:39.521	WT901BLE68-01(48591DE3C19B)	-0.563	-1.293	0.431	0.916	-47.791	-14.648	-77.79	-31.97	-99.85	-62.132	-35.868	-8.820	0.65057	-0.40823	0.50223	-0.39719	30.9	13111	100
2025-3-27 18:43:39.550	WT901BLE68-01(48591DE3C19B)	-0.487	-1.293	0.431	0.916	-47.791	-14.648	-77.98	-31.88	-99.46	-62.132	-35.868	-8.820	0.65057	-0.40823	0.50223	-0.39719	30.9	13111	100
2025-3-27 18:43:39.550	WT901BLE68-01(48591DE3C19B)	-0.487	-1.430	0.475	-3.052	-21.667	13.184	-78.11	-31.64	-99.19	-62.132	-35.868	-8.820	0.65057	-0.40823	0.50223	-0.39719	30.9	13111	100
2025-3-27 18:43:39.550	WT901BLE68-01(48591DE3C19B)	-0.469	-1.430	0.475	-3.052	-21.667	13.184	-78.20	-31.23	-99.03	-62.132	-35.868	-8.820	0.65057	-0.40823	0.50223	-0.39719	30.9	13111	100
2025-3-27 18:43:39.550	WT901BLE68-01(48591DE3C19B)	-0.469	-1.521	0.539	0.305	4.944	50.293	-78.22	-30.62	-98.98	-62.132	-35.868	-8.820	0.65057	-0.40823	0.50223	-0.39719	30.9	13111	100
2025-3-27 18:43:39.608	WT901BLE68-01(48591DE3C19B)	-0.483	-1.521	0.539	0.305	4.944	50.293	-78.17	-29.82	-99.04	-62.132	-35.868	-8.820	0.65057	-0.40823	0.50223	-0.39719	30.9	13111	100
2025-3-27 18:43:39.608	WT901BLE68-01(48591DE3C19B)	-0.483	-1.358	0.563	5.249	18.433	89.539	-78.07	-28.82	-99.12	-62.132	-35.868	-8.820	0.65057	-0.40823	0.50223	-0.39719	30.9	13111	100
2025-3-27 18:43:39.608	WT901BLE68-01(48591DE3C19B)	-0.519	-1.358	0.563	5.249	18.433	89.539	-77.94	-27.62	-99.23	-62.132	-35.868	-8.820	0.65057	-0.40823	0.50223	-0.39719	30.9	13111	100
2025-3-27 18:43:39.608	WT901BLE68-01(48591DE3C19B)	-0.519	-1.170	0.506	2.869	10.193	125.916	-77.86	-26.26	-99.25	-62.132	-35.868	-8.820	0.65057	-0.40823	0.50223	-0.39719	30.9	13111	100
2025-3-27 18:43:39.637	WT901BLE68-01(48591DE3C19B)	-0.570	-1.170	0.506	2.869	10.193	125.916	-77.82	-24.74	-99.18	-62.132	-35.868	-8.820	0.39017	-0.52463	0.35907	-0.66592	30.9	13111	100
2025-3-27 18:43:39.637	WT901BLE68-01(48591DE3C19B)	-0.570	-1.174	0.399	0.305	-15.076	161.255	-77.87	-23.09	-98.94	-62.132	-35.868	-8.820	0.39017	-0.52463	0.35907	-0.66592	30.9	13111	100
2025-3-27 18:43:39.637	WT901BLE68-01(48591DE3C19B)	-0.567	-1.174	0.399	0.305	-15.076	161.255	-77.98	-21.29	-98.54	-62.132	-35.868	-8.820	0.39017	-0.52463	0.35907	-0.66592	30.9	13111	100
2025-3-27 18:43:39.637	WT901BLE68-01(48591DE3C19B)	-0.567	-1.214	0.255	4.089	-44.617	197.327	-78.12	-19.36	-97.95	-62.132	-35.868	-8.820	0.39017	-0.52463	0.35907	-0.66592	30.9	13111	100
2025-3-27 18:43:39.667	WT901BLE68-01(48591DE3C19B)	-0.519	-1.214	0.255	4.089	-44.617	197.327	-78.28	-17.29	-97.18	-62.132	-35.868	-8.820	0.39017	-0.52463	0.35907	-0.66592	30.9	13111	100
2025-3-27 18:43:39.668	WT901BLE68-01(48591DE3C19B)	-0.519	-1.323	0.124	6.653	-72.083	230.042	-78.44	-15.10	-96.25	-62.132	-35.868	-8.820	0.39017	-0.52463	0.35907	-0.66592	30.9	13111	100
2025-3-27 18:43:39.668	WT901BLE68-01(48591DE3C19B)	-0.492	-1.323	0.124	6.653	-72.083	230.042	-78.60	-12.78	-95.16	-62.132	-35.868	-8.820	0.39017	-0.52463	0.35907	-0.66592	30.9	13111	100
2025-3-27 18:43:39.668	WT901BLE68-01(48591DE3C19B)	-0.492	-1.474	0.046	13.062	-103.333	256.470	-78.73	-10.37	-93.91	-62.132	-35.868	-8.820	0.39017	-0.52463	0.35907	-0.66592	30.9	13111	100
2025-3-27 18:43:39.728	WT901BLE68-01(48591DE3C19B)	-0.419	-1.474	0.046	13.062	-103.333	256.470	-78.80	-7.88	-92.48	-62.132	-35.868	-8.820	0.39017	-0.52463	0.35907	-0.66592	30.9	13111	100
2025-3-27 18:43:39.728	WT901BLE68-01(48591DE3C19B)	-0.419	-1.608	0.004	17.639	-140.442	273.682	-78.81	-5.36	-90.86	-62.132	-35.868	-8.820	0.39017	-0.52463	0.35907	-0.66592	30.9	13111	100
2025-3-27 18:43:39.728	WT901BLE68-01(48591DE3C19B)	-0.259	-1.608	0.004	17.639	-140.442	273.682	-78.76	-2.80	-89.04	-62.132	-35.868	-8.820	0.39017	-0.52463	0.35907	-0.66592	30.9	13111	100
2025-3-27 18:43:39.729	WT901BLE68-01(48591DE3C19B)	-0.259	-1.771	0.033	29.663	-168.152	283.813	-78.56	-0.24	-87.09	-62.132	-35.868	-8.820	0.39017	-0.52463	0.35907	-0.66592	30.9	13111	100
2025-3-27 18:43:39.759	WT901BLE68-01(48591DE3C19B)	-0.072	-1.771	0.033	29.663	-168.152	283.813	-78.23	2.30	-84.97	-62.132	-35.868	-8.820	0.39017	-0.52463	0.35907	-0.66592	30.9	13111	100
2025-3-27 18:43:39.760	WT901BLE68-01(48591DE3C19B)	-0.072	-1.822	0.068	52.551	-161.926	284.363	-77.70	4.82	-82.87	-62.132	-35.868	-8.820	0.39017	-0.52463	0.35907	-0.66592	30.9	13111	100
2025-3-27 18:43:39.760	WT901BLE68-01(48591DE3C19B)	-0.014	-1.822	0.068	52.551	-161.926	284.363	-76.96	7.29	-80.77	-62.132	-35.868	-8.820	0.39017	-0.52463	0.35907	-0.66592	30.9	13111	100
2025-3-27 18:43:39.760	WT901BLE68-01(48591DE3C19B)	-0.014	-1.696	0.108	73.364	-129.333	279.785	-76.06	9.73	-78.79	-62.132	-35.868	-8.820	0.39017	-0.52463	0.35907	-0.66592	30.9	13111	100
2025-3-27 18:43:39.819	WT901BLE68-01(48591DE3C19B)	-0.055	-1.696	0.108	73.364	-129.333	279.785	-75.00	12.13	-76.94	-62.132	-35.868	-8.820	0.39017	-0.52463	0.35907	-0.66592	30.9	13111	100
2025-3-27 18:43:39.819	WT901BLE68-01(48591DE3C19B)	-0.055	-1.535	0.104	81.909	-82.520	272.400	-73.87	14.51	-75.27	-62.132	-35.868	-8.820	0.39017	-0.52463	0.35907	-0.66592	30.9	13111	100
2025-3-27 18:43:39.819	WT901BLE68-01(48591DE3C19B)	-0.107	-1.535	0.104	81.909	-82.520	272.400	-72.68	16.86	-73.78	-76.636	-33.810	-6.174	0.39017	-0.52463	0.35907	-0.66592	30.9	13111	100
2025-3-27 18:43:39.819	WT901BLE68-01(48591DE3C19B)	-0.107	-1.419	0.088	84.595	-28.809	263.184	-71.50	19.20	-72.51	-76.636	-33.810	-6.174	0.39017	-0.52463	0.35907	-0.66592	30.9	13111	100
2025-3-27 18:43:39.847	WT901BLE68-01(48591DE3C19B)	-0.157	-1.419	0.088	84.595	-28.809	263.184	-70.33	21.54	-71.47	-76.636	-33.810	-6.174	0.39017	-0.52463	0.35907	-0.66592	30.9	13111	100
2025-3-27 18:43:39.847	WT901BLE68-01(48591DE3C19B)	-0.157	-1.320	0.051	81.970	20.142	255.981	-69.22	23.90	-70.62	-76.636	-33.810	-6.174	0.39017	-0.52463	0.35907	-0.66592	30.9	13111	100
2025-3-27 18:43:39.847	WT901BLE68-01(48591DE3C19B)	-0.157	-1.320	0.051	81.970	20.142	255.981	-68.18	26.28	-69.98	-76.636	-33.810	-6.174	0.39017	-0.52463	0.35907	-0.66592	30.9	13111	100
2025-3-27 18:43:39.848	WT901BLE68-01(48591DE3C19B)	-0.157	-1.263	-0.006	73.792	51.880	250.671	-67.22	28.67	-69.46	-76.636	-33.810	-6.174	0.39017	-0.52463	0.35907	-0.66592	30.9	13111	100
2025-3-27 18:43:39.877	WT901BLE68-01(48591DE3C19B)	-0.168	-1.263	-0.006	73.792	51.880	250.671	-66.34	31.08	-69.06	-76.636	-33.810	-6.174	0.39017	-0.52463	0.35907	-0.66592	30.9	13111	100
2025-3-27 18:43:39.877	WT901BLE68-01(48591DE3C19B)	-0.168	-1.261	-0.049	61.462	59.753	245.789	-65.52	33.46	-68.67	-76.636	-33.810	-6.174	0.39017	-0.52463	0.35907	-0.66592	30.9	13111	100
2025-3-27 18:43:39.877	WT901BLE68-01(48591DE3C19B)	-0.226	-1.261	-0.049	61.462	59.753	245.789	-64.75	35.82	-68.29	-76.636	-33.810	-6.174	0.39017	-0.52463	0.35907	-0.66592	30.9	13111	100
2025-3-27 18:43:39.877	WT901BLE68-01(48591DE3C19B)	-0.226	-1.331	-0.110	47.668	42.358	241.821	-63.96	38.10	-67.76	-76.636	-33.810	-6.174	0.39017	-0.52463	0.35907	-0.66592	30.9	13111	100
2025-3-27 18:43:39.938	WT901BLE68-01(48591DE3C19B)	-0.288	-1.331	-0.110	47.668	42.358	241.821	-63.14	40.30	-67.10	-76.636	-33.810	-6.174	0.39017	-0.52463	0.35907	-0.66592	30.9	13111	100
2025-3-27 18:43:39.938	WT901BLE68-01(48591DE3C19B)	-0.288	-1.448	-0.150	36.499	9.033	235.046	-62.20	42.39	-66.20	-76.636	-33.810	-6.174	0.39017	-0.52463	0.35907	-0.66592	30.9	13111	100
2025-3-27 18:43:39.938	WT901BLE68-01(48591DE3C19B)	-0.265	-1.448	-0.150	36.499	9.033	235.046	-61.12	44.34	-65.04	-76.636	-33.810	-6.174	0.39017	-0.52463	0.35907	-0.66592	30.9	13111	100
2025-3-27 18:43:39.938	WT901BLE68-01(48591DE3C19B)	-0.265	-1.614	-0.135	29.175	-35.889	223.511	-59.83	46.11	-63.57	-76.636	-33.810	-6.174	0.39017	-0.52463	0.35907	-0.66592	30.9	13111	100
2025-3-27 18:43:39.997	WT901BLE68-01(48591DE3C19B)	-0.080	-1.614	-0.135	29.175	-35.889	223.511	-58.30	47.68	-61.75	-76.636	-33.810	-6.174	0.39017	-0.52463	0.35907	-0.66592	30.9	13111	100
2025-3-27 18:43:39.997	WT901BLE68-01(48591DE3C19B)	-0.080	-1.795	-0.120	30.518	-75.012	201.965	-56.54	49.00	-59.67	-76.636	-33.810	-6.174	0.39017	-0.52463	0.35907	-0.66592	30.9	13111	100
2025-3-27 18:43:39.997	WT901BLE68-01(48591DE3C19B)	0.331	-1.795	-0.120	30.518	-75.012	201.965	-54.55	50.08	-57.33	-76.636	-33.810	-6.174	0.39017	-0.52463	0.35907	-0.66592	30.9	13111	100
2025-3-27 18:43:39.997	WT901BLE68-01(48591DE3C19B)	0.331	-1.879	-0.188	44.434	-77.332	168.762	-52.50	50.94	-55.04	-76.636	-33.810	-6.174	0.39017	-0.52463	0.35907	-0.66592	30.9	13111	100
2025-3-27 18:43:39.998	WT901BLE68-01(48591DE3C19B)	0.610	-1.879	-0.188	44.434	-77.332	168.762	-50.45	51.61	-52.84	-76.636	-33.810	-6.174	0.39017	-0.52463	0.35907	-0.66592	30.9	13111	100
2025-3-27 18:43:39.998	WT901BLE68-01(48591DE3C19B)	0.610	-1.790	-0.155	49.072	-36.438	133.362	-48.99	52.22	-51.47	-76.636	-33.810	-6.174	0.39017	-0.52463	0.35907	-0.66592	30.9	13111	100
2025-3-27 18:43:39.998	WT901BLE68-01(48591DE3C19B)	0.537	-1.790	-0.155	49.072	-36.438	133.362	-47.52	52.78	-50.07	-76.636	-33.810	-6.174	0.81833	-0.15292	0.52277	-0.18314	30.9	13111	100
2025-3-27 18:43:39.998	WT901BLE68-01(48591DE3C19B)	0.537	-1.668	-0.098	22.339	21.301	89.844	-47.24	53.40	-49.84	-76.636	-33.810	-6.174	0.81833	-0.15292	0.52277	-0.18314	30.9	13111	100
2025-3-27 18:43:40.58	WT901BLE68-01(48591DE3C19B)	0.266	-1.668	-0.098	22.339	21.301	89.844	-46.96	54.01	-49.63	-76.636	-33.810	-6.174	0.81833	-0.15292	0.52277	-0.18314	30.9	13111	100
2025-3-27 18:43:40.58	WT901BLE68-01(48591DE3C19B)	0.266	-1.604	0.034	-0.122	67.688	43.274	-47.82	54.57	-50.53	-76.636	-33.810	-6.174	0.81833	-0.15292	0.52277	-0.18314	30.9	13111	100
2025-3-27 18:43:40.58	WT901BLE68-01(48591DE3C19B)	0.050	-1.604	0.034	-0.122	67.688	43.274	-48.70	55.13	-51.47	-76.636	-33.810	-6.174	0.81833	-0.15292	0.52277	-0.18314	30.9	13111	100
2025-3-27 18:43:40.58	WT901BLE68-01(48591DE3C19B)	0.050	-1.396	0.216	-11.963	83.252	0.000	-50.30	55.45	-53.12	-76.636	-33.810	-6.174	0.81833	-0.15292	0.52277	-0.18314	30.9	13111	100
2025-3-27 18:43:40.91	WT901BLE68-01(48591DE3C19B)	-0.017	-1.396	0.216	-11.963	83.252	0.000	-51.90	55.73	-54.81	-76.636	-33.810	-6.174	0.81833	-0.15292	0.52277	-0.18314	30.9	13111	100
2025-3-27 18:43:40.91	WT901BLE68-01(48591DE3C19B)	-0.017	-1.238	0.251	-24.902	77.881	-41.687	-53.93	55.62	-56.86	-76.636	-33.810	-6.174	0.81833	-0.15292	0.52277	-0.18314	30.9	13111	100
2025-3-27 18:43:40.91	WT901BLE68-01(48591DE3C19B)	-0.024	-1.238	0.251	-24.902	77.881	-41.687	-55.94	55.47	-58.89	-76.636	-33.810	-6.174	0.81833	-0.15292	0.52277	-0.18314	30.9	13111	100
2025-3-27 18:43:40.91	WT901BLE68-01(48591DE3C19B)	-0.024	-1.125	0.192	-29.968	66.223	-80.322	-58.10	54.89	-61.07	-76.636	-33.810	-6.174	0.81833	-0.15292	0.52277	-0.18314	30.9	13111	100
2025-3-27 18:43:40.119	WT901BLE68-01(48591DE3C19B)	-0.078	-1.125	0.192	-29.968	66.223	-80.322	-60.18	54.27	-63.18	-76.636	-33.810	-6.174	0.81833	-0.15292	0.52277	-0.18314	30.9	13111	100
2025-3-27 18:43:40.119	WT901BLE68-01(48591DE3C19B)	-0.078	-1.015	0.125	-31.982	46.204	-113.098	-62.16	53.23	-65.16	-76.636	-33.810	-6.174	0.81833	-0.15292	0.52277	-0.18314	30.9	13111	100
2025-3-27 18:43:40.119	WT901BLE68-01(48591DE3C19B)	-0.098	-1.015	0.125	-31.982	46.204	-113.098	-64.01	52.17	-67.02	-76.636	-33.810	-6.174	0.81833	-0.15292	0.52277	-0.18314	30.9	13111	100
2025-3-27 18:43:40.119	WT901BLE68-01(48591DE3C19B)	-0.098	-0.964	0.082	-32.043	26.794	-144.897	-65.70	50.70	-68.71	-76.636	-33.810	-6.174	0.81833	-0.15292	0.52277	-0.18314	30.9	13111	100
2025-3-27 18:43:40.180	WT901BLE68-01(48591DE3C19B)	-0.080	-0.964	0.082	-32.043	26.794	-144.897	-67.26	49.22	-70.27	-76.636	-33.810	-6.174	0.81833	-0.15292	0.52277	-0.18314	30.9	13111	100
2025-3-27 18:43:40.180	WT901BLE68-01(48591DE3C19B)	-0.080	-0.950	0.053	-30.640	16.602	-176.636	-68.71	47.39	-71.75	-76.636	-33.810	-6.174	0.81833	-0.15292	0.52277	-0.18314	30.9	13111	100
2025-3-27 18:43:40.180	WT901BLE68-01(48591DE3C19B)	-0.096	-0.950	0.053	-30.640	16.602	-176.636	-70.05	45.55	-73.10	-76.636	-33.810	-6.174	0.81833	-0.15292	0.52277	-0.18314	30.9	13111	100
2025-3-27 18:43:40.180	WT901BLE68-01(48591DE3C19B)	-0.096	-0.967	0.035	-30.090	10.620	-205.627	-71.30	43.41	-74.40	-76.636	-33.810	-6.174	0.81833	-0.15292	0.52277	-0.18314	30.9	13111	100
2025-3-27 18:43:40.210	WT901BLE68-01(48591DE3C19B)	-0.160	-0.967	0.035	-30.090	10.620	-205.627	-72.44	41.27	-75.59	-76.636	-33.810	-6.174	0.81833	-0.15292	0.52277	-0.18314	30.9	13111	100
2025-3-27 18:43:40.210	WT901BLE68-01(48591DE3C19B)	-0.160	-1.013	0.045	-29.541	2.686	-235.168	-73.48	38.82	-76.68	-76.636	-33.810	-6.174	0.81833	-0.15292	0.52277	-0.18314	30.9	13111	100
2025-3-27 18:43:40.210	WT901BLE68-01(48591DE3C19B)	-0.330	-1.013	0.045	-29.541	2.686	-235.168	-74.42	36.38	-77.69	-76.636	-33.810	-6.174	0.81833	-0.15292	0.52277	-0.18314	30.9	13111	100
2025-3-27 18:43:40.210	WT901BLE68-01(48591DE3C19B)	-0.330	-1.066	0.084	-29.175	-10.864	-261.780	-75.23	33.65	-78.53	-78.008	-24.010	-4.704	0.81833	-0.15292	0.52277	-0.18314	30.9	13111	100
2025-3-27 18:43:40.239	WT901BLE68-01(48591DE3C19B)	-0.417	-1.066	0.084	-29.175	-10.864	-261.780	-75.97	30.93	-79.30	-78.008	-24.010	-4.704	0.81833	-0.15292	0.52277	-0.18314	30.9	13111	100
2025-3-27 18:43:40.240	WT901BLE68-01(48591DE3C19B)	-0.417	-1.106	0.160	-32.715	-31.799	-287.231	-76.59	27.94	-79.84	-78.008	-24.010	-4.704	0.81833	-0.15292	0.52277	-0.18314	30.9	13111	100
2025-3-27 18:43:40.240	WT901BLE68-01(48591DE3C19B)	-0.295	-1.106	0.160	-32.715	-31.799	-287.231	-77.16	24.97	-80.33	-78.008	-24.010	-4.704	0.81833	-0.15292	0.52277	-0.18314	30.9	13111	100
2025-3-27 18:43:40.240	WT901BLE68-01(48591DE3C19B)	-0.295	-1.168	0.247	-37.964	-47.485	-307.190	-77.69	21.79	-80.65	-78.008	-24.010	-4.704	0.81833	-0.15292	0.52277	-0.18314	30.9	13111	100
2025-3-27 18:43:40.298	WT901BLE68-01(48591DE3C19B)	-0.177	-1.168	0.247	-37.964	-47.485	-307.190	-78.18	18.63	-80.94	-78.008	-24.010	-4.704	0.81833	-0.15292	0.52277	-0.18314	30.9	13111	100
2025-3-27 18:43:40.298	WT901BLE68-01(48591DE3C19B)	-0.177	-1.252	0.302	-45.105	-49.133	-317.810	-78.72	15.38	-81.19	-78.008	-24.010	-4.704	0.81833	-0.15292	0.52277	-0.18314	30.9	13111	100
2025-3-27 18:43:40.298	WT901BLE68-01(48591DE3C19B)	-0.139	-1.252	0.302	-45.105	-49.133	-317.810	-79.23	12.15	-81.41	-78.008	-24.010	-4.704	0.81833	-0.15292	0.52277	-0.18314	30.9	13111	100
2025-3-27 18:43:40.298	WT901BLE68-01(48591DE3C19B)	-0.139	-1.348	0.315	-51.453	-32.593	-322.266	-79.80	8.92	-81.77	-78.008	-24.010	-4.704	0.81833	-0.15292	0.52277	-0.18314	30.9	13111	100
2025-3-27 18:43:40.330	WT901BLE68-01(48591DE3C19B)	-0.181	-1.348	0.315	-51.453	-32.593	-322.266	-80.36	5.70	-82.10	-78.008	-24.010	-4.704	0.81833	-0.15292	0.52277	-0.18314	30.9	13111	100
2025-3-27 18:43:40.330	WT901BLE68-01(48591DE3C19B)	-0.181	-1.416	0.318	-55.054	0.427	-321.228	-80.94	2.55	-82.71	-78.008	-24.010	-4.704	0.81833	-0.15292	0.52277	-0.18314	30.9	13111	100
2025-3-27 18:43:40.330	WT901BLE68-01(48591DE3C19B)	-0.264	-1.416	0.318	-55.054	0.427	-321.228	-81.49	-0.57	-83.29	-78.008	-24.010	-4.704	0.81833	-0.15292	0.52277	-0.18314	30.9	13111	100
2025-3-27 18:43:40.330	WT901BLE68-01(48591DE3C19B)	-0.264	-1.431	0.343	-54.932	38.574	-313.843	-81.99	-3.55	-84.21	-78.008	-24.010	-4.704	0.81833	-0.15292	0.52277	-0.18314	30.9	13111	100
2025-3-27 18:43:40.358	WT901BLE68-01(48591DE3C19B)	-0.356	-1.431	0.343	-54.932	38.574	-313.843	-82.45	-6.53	-85.10	-78.008	-24.010	-4.704	0.81833	-0.15292	0.52277	-0.18314	30.9	13111	100
2025-3-27 18:43:40.358	WT901BLE68-01(48591DE3C19B)	-0.356	-1.394	0.380	-51.270	66.895	-299.622	-82.78	-9.31	-86.24	-78.008	-24.010	-4.704	0.81833	-0.15292	0.52277	-0.18314	30.9	13111	100
2025-3-27 18:43:40.359	WT901BLE68-01(48591DE3C19B)	-0.389	-1.394	0.380	-51.270	66.895	-299.622	-83.06	-12.08	-87.37	-78.008	-24.010	-4.704	0.81833	-0.15292	0.52277	-0.18314	30.9	13111	100
2025-3-27 18:43:40.359	WT901BLE68-01(48591DE3C19B)	-0.389	-1.358	0.393	-45.776	85.999	-281.921	-83.19	-14.64	-88.68	-78.008	-24.010	-4.704	0.81833	-0.15292	0.52277	-0.18314	30.9	13111	100
2025-3-27 18:43:40.448	WT901BLE68-01(48591DE3C19B)	-0.441	-1.358	0.393	-45.776	85.999	-281.921	-83.25	-17.18	-89.99	-78.008	-24.010	-4.704	0.81833	-0.15292	0.52277	-0.18314	30.9	13111	100
2025-3-27 18:43:40.449	WT901BLE68-01(48591DE3C19B)	-0.441	-1.340	0.407	-36.438	85.144	-256.531	-83.18	-19.45	-91.27	-78.008	-24.010	-4.704	0.81833	-0.15292	0.52277	-0.18314	30.9	13111	100
2025-3-27 18:43:40.449	WT901BLE68-01(48591DE3C19B)	-0.524	-1.340	0.407	-36.438	85.144	-256.531	-83.06	-21.70	-92.58	-78.008	-24.010	-4.704	0.81833	-0.15292	0.52277	-0.18314	30.9	13111	100
2025-3-27 18:43:40.449	WT901BLE68-01(48591DE3C19B)	-0.524	-1.308	0.407	-26.550	62.195	-228.699	-82.89	-23.69	-93.63	-78.008	-24.010	-4.704	0.81833	-0.15292	0.52277	-0.18314	30.9	13111	100
2025-3-27 18:43:40.450	WT901BLE68-01(48591DE3C19B)	-0.526	-1.308	0.407	-26.550	62.195	-228.699	-82.67	-25.66	-94.70	-78.008	-24.010	-4.704	0.38205	-0.56088	0.35754	-0.64148	30.9	13111	100
2025-3-27 18:43:40.450	WT901BLE68-01(48591DE3C19B)	-0.551	-1.278	0.361	-22.095	30.518	-200.623	-82.55	-27.37	-95.40	-78.008	-24.010	-4.704	0.38205	-0.56088	0.35754	-0.64148	30.9	13111	100
2025-3-27 18:43:40.450	WT901BLE68-01(48591DE3C19B)	-0.551	-1.296	0.343	-13.245	8.545	-162.720	-82.42	-28.89	-95.97	-78.008	-24.010	-4.704	0.38205	-0.56088	0.35754	-0.64148	30.9	13111	100
2025-3-27 18:43:40.450	WT901BLE68-01(48591DE3C19B)	-0.675	-1.296	0.343	-13.245	8.545	-162.720	-82.32	-30.23	-96.40	-78.008	-24.010	-4.704	0.38205	-0.56088	0.35754	-0.64148	30.9	13111	100
2025-3-27 18:43:40.508	WT901BLE68-01(48591DE3C19B)	-0.675	-1.258	0.368	-0.122	19.714	-122.437	-82.11	-31.35	-96.87	-78.008	-24.010	-4.704	0.38205	-0.56088	0.35754	-0.64148	30.9	13111	100
2025-3-27 18:43:40.508	WT901BLE68-01(48591DE3C19B)	-0.758	-1.258	0.368	-0.122	19.714	-122.437	-81.81	-32.25	-97.39	-78.008	-24.010	-4.704	0.38205	-0.56088	0.35754	-0.64148	30.9	13111	100
2025-3-27 18:43:40.508	WT901BLE68-01(48591DE3C19B)	-0.758	-1.101	0.382	9.644	58.594	-88.074	-81.34	-32.94	-98.12	-78.008	-24.010	-4.704	0.38205	-0.56088	0.35754	-0.64148	30.9	13111	100
2025-3-27 18:43:40.508	WT901BLE68-01(48591DE3C19B)	-0.783	-1.101	0.382	9.644	58.594	-88.074	-80.70	-33.41	-99.06	-78.008	-24.010	-4.704	0.38205	-0.56088	0.35754	-0.64148	30.9	13111	100
2025-3-27 18:43:40.536	WT901BLE68-01(48591DE3C19B)	-0.783	-0.929	0.396	9.277	85.632	-47.852	-79.98	-33.65	-100.14	-78.008	-24.010	-4.704	0.38205	-0.56088	0.35754	-0.64148	30.9	13111	100
2025-3-27 18:43:40.536	WT901BLE68-01(48591DE3C19B)	-0.727	-0.929	0.396	9.277	85.632	-47.852	-79.19	-33.64	-101.35	-78.008	-24.010	-4.704	0.38205	-0.56088	0.35754	-0.64148	30.9	13111	100
2025-3-27 18:43:40.536	WT901BLE68-01(48591DE3C19B)	-0.727	-0.873	0.444	3.052	90.515	-5.859	-78.45	-33.40	-102.54	-78.008	-24.010	-4.704	0.38205	-0.56088	0.35754	-0.64148	30.9	13111	100
2025-3-27 18:43:40.536	WT901BLE68-01(48591DE3C19B)	-0.699	-0.873	0.444	3.052	90.515	-5.859	-77.75	-32.94	-103.71	-78.008	-24.010	-4.704	0.38205	-0.56088	0.35754	-0.64148	30.9	13111	100
2025-3-27 18:43:40.570	WT901BLE68-01(48591DE3C19B)	-0.699	-0.951	0.490	-4.578	80.627	32.349	-77.16	-32.29	-104.77	-78.008	-24.010	-4.704	0.38205	-0.56088	0.35754	-0.64148	30.9	13111	100
2025-3-27 18:43:40.570	WT901BLE68-01(48591DE3C19B)	-0.739	-0.951	0.490	-4.578	80.627	32.349	-76.68	-31.46	-105.70	-78.008	-24.010	-4.704	0.38205	-0.56088	0.35754	-0.64148	30.9	13111	100
2025-3-27 18:43:40.570	WT901BLE68-01(48591DE3C19B)	-0.739	-1.104	0.485	-8.972	56.030	66.711	-76.34	-30.49	-106.45	-78.008	-24.010	-4.704	0.38205	-0.56088	0.35754	-0.64148	30.9	13111	100
2025-3-27 18:43:40.570	WT901BLE68-01(48591DE3C19B)	-0.769	-1.104	0.485	-8.972	56.030	66.711	-76.12	-29.39	-107.00	-78.008	-24.010	-4.704	0.38205	-0.56088	0.35754	-0.64148	30.9	13111	100
2025-3-27 18:43:40.599	WT901BLE68-01(48591DE3C19B)	-0.769	-1.189	0.485	-8.057	17.212	99.670	-76.03	-28.17	-107.29	-78.008	-24.010	-4.704	0.38205	-0.56088	0.35754	-0.64148	30.9	13111	100
2025-3-27 18:43:40.600	WT901BLE68-01(48591DE3C19B)	-0.727	-1.189	0.485	-8.057	17.212	99.670	-76.06	-26.85	-107.31	-78.008	-24.010	-4.704	0.38205	-0.56088	0.35754	-0.64148	30.9	13111	100
2025-3-27 18:43:40.600	WT901BLE68-01(48591DE3C19B)	-0.727	-1.217	0.482	-6.897	-17.151	132.263	-76.19	-25.41	-107.11	-61.838	-40.866	-7.742	0.38205	-0.56088	0.35754	-0.64148	30.9	13111	100
2025-3-27 18:43:40.600	WT901BLE68-01(48591DE3C19B)	-0.638	-1.217	0.482	-6.897	-17.151	132.263	-76.39	-23.87	-106.69	-61.838	-40.866	-7.742	0.38205	-0.56088	0.35754	-0.64148	30.9	13111	100
2025-3-27 18:43:40.657	WT901BLE68-01(48591DE3C19B)	-0.638	-1.346	0.397	-5.554	-36.499	164.978	-76.62	-22.19	-106.14	-61.838	-40.866	-7.742	0.38205	-0.56088	0.35754	-0.64148	30.9	13111	100
2025-3-27 18:43:40.657	WT901BLE68-01(48591DE3C19B)	-0.486	-1.346	0.397	-5.554	-36.499	164.978	-76.88	-20.39	-105.46	-61.838	-40.866	-7.742	0.38205	-0.56088	0.35754	-0.64148	30.9	13111	100
2025-3-27 18:43:40.657	WT901BLE68-01(48591DE3C19B)	-0.486	-1.450	0.255	-0.366	-43.457	199.524	-77.12	-18.44	-104.72	-61.838	-40.866	-7.742	0.38205	-0.56088	0.35754	-0.64148	30.9	13111	100
2025-3-27 18:43:40.657	WT901BLE68-01(48591DE3C19B)	-0.333	-1.450	0.255	-0.366	-43.457	199.524	-77.33	-16.34	-103.91	-61.838	-40.866	-7.742	0.38205	-0.56088	0.35754	-0.64148	30.9	13111	100
2025-3-27 18:43:40.691	WT901BLE68-01(48591DE3C19B)	-0.333	-1.507	0.147	5.127	-41.016	233.765	-77.49	-14.08	-103.07	-61.838	-40.866	-7.742	0.38205	-0.56088	0.35754	-0.64148	30.9	13111	100
2025-3-27 18:43:40.691	WT901BLE68-01(48591DE3C19B)	-0.261	-1.507	0.147	5.127	-41.016	233.765	-77.60	-11.67	-102.22	-61.838	-40.866	-7.742	0.38205	-0.56088	0.35754	-0.64148	30.9	13111	100
2025-3-27 18:43:40.691	WT901BLE68-01(48591DE3C19B)	-0.261	-1.617	0.088	7.507	-35.828	262.817	-77.67	-9.14	-101.36	-61.838	-40.866	-7.742	0.38205	-0.56088	0.35754	-0.64148	30.9	13111	100
2025-3-27 18:43:40.691	WT901BLE68-01(48591DE3C19B)	-0.205	-1.617	0.088	7.507	-35.828	262.817	-77.71	-6.48	-100.50	-61.838	-40.866	-7.742	0.38205	-0.56088	0.35754	-0.64148	30.9	13111	100
2025-3-27 18:43:40.718	WT901BLE68-01(48591DE3C19B)	-0.205	-1.766	0.040	12.024	-32.349	283.447	-77.68	-3.73	-99.62	-61.838	-40.866	-7.742	0.38205	-0.56088	0.35754	-0.64148	30.9	13111	100
2025-3-27 18:43:40.719	WT901BLE68-01(48591DE3C19B)	-0.167	-1.766	0.040	12.024	-32.349	283.447	-77.60	-0.91	-98.74	-61.838	-40.866	-7.742	0.38205	-0.56088	0.35754	-0.64148	30.9	13111	100
2025-3-27 18:43:40.719	WT901BLE68-01(48591DE3C19B)	-0.167	-1.778	0.051	20.569	-28.137	298.950	-77.44	1.96	-97.85	-61.838	-40.866	-7.742	0.38205	-0.56088	0.35754	-0.64148	30.9	13111	100
2025-3-27 18:43:40.719	WT901BLE68-01(48591DE3C19B)	-0.148	-1.778	0.051	20.569	-28.137	298.950	-77.20	4.88	-96.95	-61.838	-40.866	-7.742	0.38205	-0.56088	0.35754	-0.64148	30.9	13111	100
2025-3-27 18:43:40.779	WT901BLE68-01(48591DE3C19B)	-0.148	-1.680	0.075	25.208	-20.508	305.054	-76.89	7.82	-96.06	-61.838	-40.866	-7.742	0.38205	-0.56088	0.35754	-0.64148	30.9	13111	100
2025-3-27 18:43:40.779	WT901BLE68-01(48591DE3C19B)	-0.176	-1.680	0.075	25.208	-20.508	305.054	-76.53	10.77	-95.17	-61.838	-40.866	-7.742	0.38205	-0.56088	0.35754	-0.64148	30.9	13111	100
2025-3-27 18:43:40.779	WT901BLE68-01(48591DE3C19B)	-0.176	-1.528	0.106	23.804	-13.062	302.063	-76.13	13.68	-94.31	-61.838	-40.866	-7.742	0.38205	-0.56088	0.35754	-0.64148	30.9	13111	100
2025-3-27 18:43:40.779	WT901BLE68-01(48591DE3C19B)	-0.213	-1.528	0.106	23.804	-13.062	302.063	-75.71	16.56	-93.46	-61.838	-40.866	-7.742	0.38205	-0.56088	0.35754	-0.64148	30.9	13111	100
2025-3-27 18:43:40.838	WT901BLE68-01(48591DE3C19B)	-0.213	-1.381	0.131	20.203	-9.399	290.955	-75.26	19.36	-92.60	-61.838	-40.866	-7.742	0.38205	-0.56088	0.35754	-0.64148	30.9	13111	100
2025-3-27 18:43:40.838	WT901BLE68-01(48591DE3C19B)	-0.235	-1.381	0.131	20.203	-9.399	290.955	-74.80	22.09	-91.74	-61.838	-40.866	-7.742	0.38205	-0.56088	0.35754	-0.64148	30.9	13111	100
2025-3-27 18:43:40.838	WT901BLE68-01(48591DE3C19B)	-0.235	-1.240	0.150	17.944	-5.981	276.978	-74.31	24.74	-90.89	-61.838	-40.866	-7.742	0.38205	-0.56088	0.35754	-0.64148	30.9	13111	100
2025-3-27 18:43:40.839	WT901BLE68-01(48591DE3C19B)	-0.249	-1.240	0.150	17.944	-5.981	276.978	-73.80	27.30	-90.03	-61.838	-40.866	-7.742	0.64948	-0.27896	0.54608	-0.44949	30.9	13111	100
2025-3-27 18:43:40.840	WT901BLE68-01(48591DE3C19B)	-0.249	-1.141	0.140	15.442	0.427	262.024	-73.28	29.77	-89.20	-61.838	-40.866	-7.742	0.64948	-0.27896	0.54608	-0.44949	30.9	13111	100
2025-3-27 18:43:40.840	WT901BLE68-01(48591DE3C19B)	-0.233	-1.141	0.140	15.442	0.427	262.024	-72.75	32.16	-88.38	-61.838	-40.866	-7.742	0.64948	-0.27896	0.54608	-0.44949	30.9	13111	100
2025-3-27 18:43:40.840	WT901BLE68-01(48591DE3C19B)	-0.233	-1.120	0.075	11.902	7.935	248.108	-72.22	34.48	-87.58	-61.838	-40.866	-7.742	0.64948	-0.27896	0.54608	-0.44949	30.9	13111	100
2025-3-27 18:43:40.840	WT901BLE68-01(48591DE3C19B)	-0.177	-1.120	0.075	11.902	7.935	248.108	-71.70	36.72	-86.81	-61.838	-40.866	-7.742	0.64948	-0.27896	0.54608	-0.44949	30.9	13111	100
2025-3-27 18:43:40.898	WT901BLE68-01(48591DE3C19B)	-0.177	-1.042	-0.005	11.047	11.841	234.924	-71.16	38.89	-86.05	-61.838	-40.866	-7.742	0.64948	-0.27896	0.54608	-0.44949	30.9	13111	100
2025-3-27 18:43:40.898	WT901BLE68-01(48591DE3C19B)	-0.103	-1.042	-0.005	11.047	11.841	234.924	-70.62	40.98	-85.30	-61.838	-40.866	-7.742	0.64948	-0.27896	0.54608	-0.44949	30.9	13111	100
2025-3-27 18:43:40.898	WT901BLE68-01(48591DE3C19B)	-0.103	-0.963	-0.035	6.531	10.620	220.703	-70.07	42.99	-84.52	-61.838	-40.866	-7.742	0.64948	-0.27896	0.54608	-0.44949	30.9	13111	100
2025-3-27 18:43:40.898	WT901BLE68-01(48591DE3C19B)	-0.080	-0.963	-0.035	6.531	10.620	220.703	-69.51	44.91	-83.72	-61.838	-40.866	-7.742	0.64948	-0.27896	0.54608	-0.44949	30.9	13111	100
2025-3-27 18:43:40.927	WT901BLE68-01(48591DE3C19B)	-0.080	-1.030	-0.061	-2.502	3.967	204.529	-68.98	46.63	-82.86	-61.838	-40.866	-7.742	0.64948	-0.27896	0.54608	-0.44949	30.9	13111	100
2025-3-27 18:43:40.927	WT901BLE68-01(48591DE3C19B)	-0.108	-1.030	-0.061	-2.502	3.967	204.529	-68.41	48.34	-81.96	-61.838	-40.866	-7.742	0.64948	-0.27896	0.54608	-0.44949	30.9	13111	100
2025-3-27 18:43:40.927	WT901BLE68-01(48591DE3C19B)	-0.108	-1.147	-0.064	-7.141	-8.911	185.669	-67.78	49.81	-80.94	-61.838	-40.866	-7.742	0.64948	-0.27896	0.54608	-0.44949	30.9	13111	100
2025-3-27 18:43:40.927	WT901BLE68-01(48591DE3C19B)	-0.083	-1.147	-0.064	-7.141	-8.911	185.669	-67.09	51.26	-79.87	-61.838	-40.866	-7.742	0.64948	-0.27896	0.54608	-0.44949	30.9	13111	100
2025-3-27 18:43:40.958	WT901BLE68-01(48591DE3C19B)	-0.083	-1.300	-0.049	-12.878	-27.710	160.522	-66.32	52.39	-78.62	-61.838	-40.866	-7.742	0.64948	-0.27896	0.54608	-0.44949	30.9	13111	100
2025-3-27 18:43:40.958	WT901BLE68-01(48591DE3C19B)	0.098	-1.300	-0.049	-12.878	-27.710	160.522	-65.50	53.50	-77.33	-61.838	-40.866	-7.742	0.64948	-0.27896	0.54608	-0.44949	30.9	13111	100
2025-3-27 18:43:40.958	WT901BLE68-01(48591DE3C19B)	0.098	-1.500	-0.054	-15.503	-40.466	131.348	-64.67	54.27	-76.00	-61.838	-40.866	-7.742	0.64948	-0.27896	0.54608	-0.44949	30.9	13111	100
2025-3-27 18:43:40.958	WT901BLE68-01(48591DE3C19B)	0.348	-1.500	-0.054	-15.503	-40.466	131.348	-63.80	55.02	-74.65	-61.838	-40.866	-7.742	0.64948	-0.27896	0.54608	-0.44949	30.9	13111	100
2025-3-27 18:43:41.19	WT901BLE68-01(48591DE3C19B)	0.348	-1.697	-0.071	-7.874	-31.433	94.910	-63.18	55.46	-73.69	-61.838	-40.866	-7.742	0.64948	-0.27896	0.54608	-0.44949	30.9	13111	100
2025-3-27 18:43:41.19	WT901BLE68-01(48591DE3C19B)	0.498	-1.697	-0.071	-7.874	-31.433	94.910	-62.55	55.89	-72.73	-61.838	-40.866	-7.742	0.64948	-0.27896	0.54608	-0.44949	30.9	13111	100
2025-3-27 18:43:41.19	WT901BLE68-01(48591DE3C19B)	0.498	-1.798	0.001	2.441	-8.911	56.458	-62.37	56.06	-72.43	-61.838	-40.866	-7.742	0.64948	-0.27896	0.54608	-0.44949	30.9	13111	100
2025-3-27 18:43:41.19	WT901BLE68-01(48591DE3C19B)	0.404	-1.798	0.001	2.441	-8.911	56.458	-62.20	56.22	-72.15	-61.838	-40.866	-7.742	0.64948	-0.27896	0.54608	-0.44949	30.9	13111	100
2025-3-27 18:43:41.50	WT901BLE68-01(48591DE3C19B)	0.404	-1.867	0.074	1.648	8.362	4.272	-62.63	55.99	-72.57	-78.792	-17.542	-2.548	0.64948	-0.27896	0.54608	-0.44949	30.9	13111	100
2025-3-27 18:43:41.50	WT901BLE68-01(48591DE3C19B)	0.106	-1.867	0.074	1.648	8.362	4.272	-63.05	55.76	-72.99	-78.792	-17.542	-2.548	0.64948	-0.27896	0.54608	-0.44949	30.9	13111	100
2025-3-27 18:43:41.50	WT901BLE68-01(48591DE3C19B)	0.106	-1.840	0.192	1.953	25.757	-50.049	-64.02	55.12	-74.09	-78.792	-17.542	-2.548	0.64948	-0.27896	0.54608	-0.44949	30.9	13111	100
2025-3-27 18:43:41.50	WT901BLE68-01(48591DE3C19B)	-0.005	-1.840	0.192	1.953	25.757	-50.049	-64.95	54.47	-75.15	-78.792	-17.542	-2.548	0.64948	-0.27896	0.54608	-0.44949	30.9	13111	100
2025-3-27 18:43:41.79	WT901BLE68-01(48591DE3C19B)	-0.005	-1.623	0.213	13.611	50.842	-106.995	-66.33	53.39	-76.94	-78.792	-17.542	-2.548	0.64948	-0.27896	0.54608	-0.44949	30.9	13111	100
2025-3-27 18:43:41.80	WT901BLE68-01(48591DE3C19B)	0.023	-1.623	0.213	13.611	50.842	-106.995	-67.61	52.31	-78.63	-78.792	-17.542	-2.548	0.64948	-0.27896	0.54608	-0.44949	30.9	13111	100
2025-3-27 18:43:41.80	WT901BLE68-01(48591DE3C19B)	0.023	-1.328	0.176	11.780	59.998	-153.015	-69.13	50.81	-80.62	-78.792	-17.542	-2.548	0.64948	-0.27896	0.54608	-0.44949	30.9	13111	100
2025-3-27 18:43:41.80	WT901BLE68-01(48591DE3C19B)	-0.023	-1.328	0.176	11.780	59.998	-153.015	-70.50	49.28	-82.49	-78.792	-17.542	-2.548	0.64948	-0.27896	0.54608	-0.44949	30.9	13111	100
2025-3-27 18:43:41.137	WT901BLE68-01(48591DE3C19B)	-0.023	-1.215	0.131	8.057	63.599	-188.965	-71.94	47.41	-84.44	-78.792	-17.542	-2.548	0.64948	-0.27896	0.54608	-0.44949	30.9	13111	100
2025-3-27 18:43:41.138	WT901BLE68-01(48591DE3C19B)	-0.102	-1.215	0.131	8.057	63.599	-188.965	-73.23	45.52	-86.25	-78.792	-17.542	-2.548	0.64948	-0.27896	0.54608	-0.44949	30.9	13111	100
2025-3-27 18:43:41.138	WT901BLE68-01(48591DE3C19B)	-0.102	-1.169	0.077	13.184	59.631	-215.271	-74.37	43.36	-87.98	-78.792	-17.542	-2.548	0.64948	-0.27896	0.54608	-0.44949	30.9	13111	100
2025-3-27 18:43:41.138	WT901BLE68-01(48591DE3C19B)	-0.192	-1.169	0.077	13.184	59.631	-215.271	-75.37	41.19	-89.59	-78.792	-17.542	-2.548	0.64948	-0.27896	0.54608	-0.44949	30.9	13111	100
2025-3-27 18:43:41.166	WT901BLE68-01(48591DE3C19B)	-0.192	-1.138	0.115	19.226	40.222	-232.483	-76.06	38.80	-90.90	-78.792	-17.542	-2.548	0.64948	-0.27896	0.54608	-0.44949	30.9	13111	100
2025-3-27 18:43:41.166	WT901BLE68-01(48591DE3C19B)	-0.234	-1.138	0.115	19.226	40.222	-232.483	-76.67	36.42	-92.12	-78.792	-17.542	-2.548	0.64948	-0.27896	0.54608	-0.44949	30.9	13111	100
2025-3-27 18:43:41.166	WT901BLE68-01(48591DE3C19B)	-0.234	-1.118	0.147	12.390	3.174	-249.207	-77.03	33.80	-92.88	-78.792	-17.542	-2.548	0.64948	-0.27896	0.54608	-0.44949	30.9	13111	100
2025-3-27 18:43:41.166	WT901BLE68-01(48591DE3C19B)	-0.224	-1.118	0.147	12.390	3.174	-249.207	-77.34	31.20	-93.59	-78.792	-17.542	-2.548	0.64948	-0.27896	0.54608	-0.44949	30.9	13111	100
2025-3-27 18:43:41.228	WT901BLE68-01(48591DE3C19B)	-0.224	-1.159	0.169	2.808	-30.151	-263.672	-77.52	28.41	-93.93	-78.792	-17.542	-2.548	0.64948	-0.27896	0.54608	-0.44949	30.9	13111	100
2025-3-27 18:43:41.229	WT901BLE68-01(48591DE3C19B)	-0.245	-1.159	0.169	2.808	-30.151	-263.672	-77.68	25.63	-94.25	-78.792	-17.542	-2.548	0.64948	-0.27896	0.54608	-0.44949	30.9	13111	100
2025-3-27 18:43:41.229	WT901BLE68-01(48591DE3C19B)	-0.245	-1.214	0.202	-7.751	-46.814	-276.245	-77.85	22.71	-94.40	-78.792	-17.542	-2.548	0.64948	-0.27896	0.54608	-0.44949	30.9	13111	100
2025-3-27 18:43:41.229	WT901BLE68-01(48591DE3C19B)	-0.297	-1.214	0.202	-7.751	-46.814	-276.245	-78.02	19.82	-94.54	-78.792	-17.542	-2.548	0.64948	-0.27896	0.54608	-0.44949	30.9	13111	100
2025-3-27 18:43:41.257	WT901BLE68-01(48591DE3C19B)	-0.297	-1.311	0.255	-16.846	-40.771	-286.682	-78.28	16.86	-94.74	-78.792	-17.542	-2.548	0.64948	-0.27896	0.54608	-0.44949	30.9	13111	100
2025-3-27 18:43:41.257	WT901BLE68-01(48591DE3C19B)	-0.344	-1.311	0.255	-16.846	-40.771	-286.682	-78.53	13.92	-94.93	-78.792	-17.542	-2.548	0.57602	-0.35553	0.52637	-0.51443	30.9	13111	100
2025-3-27 18:43:41.257	WT901BLE68-01(48591DE3C19B)	-0.344	-1.399	0.306	-20.264	-13.306	-291.321	-78.85	11.01	-95.39	-78.792	-17.542	-2.548	0.57602	-0.35553	0.52637	-0.51443	30.9	13111	100
2025-3-27 18:43:41.257	WT901BLE68-01(48591DE3C19B)	-0.363	-1.399	0.306	-20.264	-13.306	-291.321	-79.15	8.12	-95.82	-78.792	-17.542	-2.548	0.57602	-0.35553	0.52637	-0.51443	30.9	13111	100
2025-3-27 18:43:41.291	WT901BLE68-01(48591DE3C19B)	-0.363	-1.408	0.315	-16.541	28.198	-288.879	-79.42	5.35	-96.65	-78.792	-17.542	-2.548	0.57602	-0.35553	0.52637	-0.51443	30.9	13111	100
2025-3-27 18:43:41.291	WT901BLE68-01(48591DE3C19B)	-0.374	-1.408	0.315	-16.541	28.198	-288.879	-79.65	2.59	-97.45	-78.792	-17.542	-2.548	0.57602	-0.35553	0.52637	-0.51443	30.9	13111	100
2025-3-27 18:43:41.291	WT901BLE68-01(48591DE3C19B)	-0.374	-1.352	0.283	-7.568	65.552	-277.832	-79.76	0.03	-98.59	-78.792	-17.542	-2.548	0.57602	-0.35553	0.52637	-0.51443	30.9	13111	100
2025-3-27 18:43:41.291	WT901BLE68-01(48591DE3C19B)	-0.425	-1.352	0.283	-7.568	65.552	-277.832	-79.82	-2.51	-99.72	-78.792	-17.542	-2.548	0.57602	-0.35553	0.52637	-0.51443	30.9	13111	100
2025-3-27 18:43:41.348	WT901BLE68-01(48591DE3C19B)	-0.425	-1.281	0.220	2.808	81.055	-263.428	-79.71	-4.87	-100.98	-78.792	-17.542	-2.548	0.57602	-0.35553	0.52637	-0.51443	30.9	13111	100
2025-3-27 18:43:41.349	WT901BLE68-01(48591DE3C19B)	-0.467	-1.281	0.220	2.808	81.055	-263.428	-79.55	-7.20	-102.24	-78.792	-17.542	-2.548	0.57602	-0.35553	0.52637	-0.51443	30.9	13111	100
2025-3-27 18:43:41.349	WT901BLE68-01(48591DE3C19B)	-0.467	-1.184	0.182	11.841	69.458	-247.803	-79.28	-9.38	-103.36	-78.792	-17.542	-2.548	0.57602	-0.35553	0.52637	-0.51443	30.9	13111	100
2025-3-27 18:43:41.349	WT901BLE68-01(48591DE3C19B)	-0.487	-1.184	0.182	11.841	69.458	-247.803	-78.96	-11.54	-104.51	-78.792	-17.542	-2.548	0.57602	-0.35553	0.52637	-0.51443	30.9	13111	100
2025-3-27 18:43:41.380	WT901BLE68-01(48591DE3C19B)	-0.518	-1.082	0.188	14.343	40.588	-229.797	-78.65	-13.56	-105.34	-78.792	-17.542	-2.548	0.57602	-0.35553	0.52637	-0.51443	30.9	13111	100
2025-3-27 18:43:41.380	WT901BLE68-01(48591DE3C19B)	-0.518	-1.046	0.230	12.512	8.728	-211.670	-78.35	-15.49	-106.02	-78.792	-17.542	-2.548	0.57602	-0.35553	0.52637	-0.51443	30.9	13111	100
2025-3-27 18:43:41.380	WT901BLE68-01(48591DE3C19B)	-0.557	-1.046	0.230	12.512	8.728	-211.670	-78.10	-17.35	-106.53	-78.792	-17.542	-2.548	0.57602	-0.35553	0.52637	-0.51443	30.9	13111	100
2025-3-27 18:43:41.380	WT901BLE68-01(48591DE3C19B)	-0.557	-1.056	0.271	11.780	-10.376	-191.223	-77.87	-19.11	-106.93	-78.792	-17.542	-2.548	0.57602	-0.35553	0.52637	-0.51443	30.9	13111	100
2025-3-27 18:43:41.411	WT901BLE68-01(48591DE3C19B)	-0.600	-1.056	0.271	11.780	-10.376	-191.223	-77.65	-20.78	-107.23	-78.792	-17.542	-2.548	0.57602	-0.35553	0.52637	-0.51443	30.9	13111	100
2025-3-27 18:43:41.411	WT901BLE68-01(48591DE3C19B)	-0.600	-1.084	0.308	12.573	-18.188	-169.128	-77.45	-22.33	-107.47	-78.792	-17.542	-2.548	0.57602	-0.35553	0.52637	-0.51443	30.9	13111	100
2025-3-27 18:43:41.411	WT901BLE68-01(48591DE3C19B)	-0.607	-1.084	0.308	12.573	-18.188	-169.128	-77.26	-23.76	-107.67	-65.366	-42.630	-5.390	0.57602	-0.35553	0.52637	-0.51443	30.9	13111	100
2025-3-27 18:43:41.411	WT901BLE68-01(48591DE3C19B)	-0.607	-1.120	0.322	12.512	-23.071	-146.912	-77.07	-25.09	-107.83	-65.366	-42.630	-5.390	0.57602	-0.35553	0.52637	-0.51443	30.9	13111	100
2025-3-27 18:43:41.468	WT901BLE68-01(48591DE3C19B)	-0.571	-1.120	0.322	12.512	-23.071	-146.912	-76.90	-26.30	-107.94	-65.366	-42.630	-5.390	0.57602	-0.35553	0.52637	-0.51443	30.9	13111	100
2025-3-27 18:43:41.468	WT901BLE68-01(48591DE3C19B)	-0.571	-1.104	0.323	11.902	-22.888	-125.366	-76.74	-27.39	-108.03	-65.366	-42.630	-5.390	0.57602	-0.35553	0.52637	-0.51443	30.9	13111	100
2025-3-27 18:43:41.468	WT901BLE68-01(48591DE3C19B)	-0.557	-1.104	0.323	11.902	-22.888	-125.366	-76.59	-28.37	-108.11	-65.366	-42.630	-5.390	0.57602	-0.35553	0.52637	-0.51443	30.9	13111	100
2025-3-27 18:43:41.469	WT901BLE68-01(48591DE3C19B)	-0.557	-1.108	0.344	6.897	-14.404	-103.943	-76.45	-29.22	-108.22	-65.366	-42.630	-5.390	0.57602	-0.35553	0.52637	-0.51443	30.9	13111	100
2025-3-27 18:43:41.497	WT901BLE68-01(48591DE3C19B)	-0.595	-1.108	0.344	6.897	-14.404	-103.943	-76.31	-29.97	-108.35	-65.366	-42.630	-5.390	0.57602	-0.35553	0.52637	-0.51443	30.9	13111	100
2025-3-27 18:43:41.497	WT901BLE68-01(48591DE3C19B)	-0.595	-1.189	0.379	2.319	-3.845	-80.139	-76.18	-30.57	-108.52	-65.366	-42.630	-5.390	0.57602	-0.35553	0.52637	-0.51443	30.9	13111	100
2025-3-27 18:43:41.497	WT901BLE68-01(48591DE3C19B)	-0.602	-1.189	0.379	2.319	-3.845	-80.139	-76.05	-31.04	-108.73	-65.366	-42.630	-5.390	0.57602	-0.35553	0.52637	-0.51443	30.9	13111	100
2025-3-27 18:43:41.497	WT901BLE68-01(48591DE3C19B)	-0.602	-1.221	0.397	-1.526	8.423	-51.147	-75.92	-31.35	-108.96	-65.366	-42.630	-5.390	0.57602	-0.35553	0.52637	-0.51443	30.9	13111	100
2025-3-27 18:43:41.528	WT901BLE68-01(48591DE3C19B)	-0.559	-1.221	0.397	-1.526	8.423	-51.147	-75.79	-31.51	-109.23	-65.366	-42.630	-5.390	0.57602	-0.35553	0.52637	-0.51443	30.9	13111	100
2025-3-27 18:43:41.528	WT901BLE68-01(48591DE3C19B)	-0.559	-1.224	0.396	-8.057	24.231	-15.015	-75.67	-31.47	-109.54	-65.366	-42.630	-5.390	0.57602	-0.35553	0.52637	-0.51443	30.9	13111	100
2025-3-27 18:43:41.528	WT901BLE68-01(48591DE3C19B)	-0.551	-1.224	0.396	-8.057	24.231	-15.015	-75.56	-31.23	-109.90	-65.366	-42.630	-5.390	0.57602	-0.35553	0.52637	-0.51443	30.9	13111	100
2025-3-27 18:43:41.528	WT901BLE68-01(48591DE3C19B)	-0.551	-1.239	0.400	-12.512	36.621	26.978	-75.48	-30.78	-110.25	-65.366	-42.630	-5.390	0.57602	-0.35553	0.52637	-0.51443	30.9	13111	100
2025-3-27 18:43:41.590	WT901BLE68-01(48591DE3C19B)	-0.567	-1.239	0.400	-12.512	36.621	26.978	-75.41	-30.12	-110.62	-65.366	-42.630	-5.390	0.57602	-0.35553	0.52637	-0.51443	30.9	13111	100
2025-3-27 18:43:41.590	WT901BLE68-01(48591DE3C19B)	-0.567	-1.216	0.452	-10.376	36.743	69.946	-75.37	-29.25	-110.91	-65.366	-42.630	-5.390	0.57602	-0.35553	0.52637	-0.51443	30.9	13111	100
2025-3-27 18:43:41.590	WT901BLE68-01(48591DE3C19B)	-0.536	-1.216	0.452	-10.376	36.743	69.946	-75.35	-28.18	-111.15	-65.366	-42.630	-5.390	0.57602	-0.35553	0.52637	-0.51443	30.9	13111	100
2025-3-27 18:43:41.590	WT901BLE68-01(48591DE3C19B)	-0.536	-1.084	0.464	-7.019	31.799	109.497	-75.36	-26.93	-111.30	-65.366	-42.630	-5.390	0.57602	-0.35553	0.52637	-0.51443	30.9	13111	100
2025-3-27 18:43:41.621	WT901BLE68-01(48591DE3C19B)	-0.526	-1.084	0.464	-7.019	31.799	109.497	-75.37	-25.50	-111.37	-65.366	-42.630	-5.390	0.57602	-0.35553	0.52637	-0.51443	30.9	13111	100
2025-3-27 18:43:41.621	WT901BLE68-01(48591DE3C19B)	-0.526	-0.990	0.422	-6.836	23.987	146.118	-75.43	-23.91	-111.36	-65.366	-42.630	-5.390	0.57602	-0.35553	0.52637	-0.51443	30.9	13111	100
2025-3-27 18:43:41.621	WT901BLE68-01(48591DE3C19B)	-0.546	-0.990	0.422	-6.836	23.987	146.118	-75.51	-22.16	-111.26	-65.366	-42.630	-5.390	0.57602	-0.35553	0.52637	-0.51443	30.9	13111	100
2025-3-27 18:43:41.621	WT901BLE68-01(48591DE3C19B)	-0.546	-1.033	0.366	-7.751	6.775	179.016	-75.64	-20.29	-111.03	-65.366	-42.630	-5.390	0.35690	-0.45224	0.42322	-0.69919	30.9	13111	100
2025-3-27 18:43:41.678	WT901BLE68-01(48591DE3C19B)	-0.510	-1.033	0.366	-7.751	6.775	179.016	-75.81	-18.29	-110.68	-65.366	-42.630	-5.390	0.35690	-0.45224	0.42322	-0.69919	30.9	13111	100
2025-3-27 18:43:41.678	WT901BLE68-01(48591DE3C19B)	-0.510	-1.134	0.286	-8.179	-11.719	207.642	-76.00	-16.18	-110.21	-65.366	-42.630	-5.390	0.35690	-0.45224	0.42322	-0.69919	30.9	13111	100
2025-3-27 18:43:41.678	WT901BLE68-01(48591DE3C19B)	-0.448	-1.134	0.286	-8.179	-11.719	207.642	-76.21	-13.96	-109.62	-65.366	-42.630	-5.390	0.35690	-0.45224	0.42322	-0.69919	30.9	13111	100
2025-3-27 18:43:41.678	WT901BLE68-01(48591DE3C19B)	-0.448	-1.242	0.198	-7.019	-24.658	233.215	-76.40	-11.65	-108.95	-65.366	-42.630	-5.390	0.35690	-0.45224	0.42322	-0.69919	30.9	13111	100
2025-3-27 18:43:41.707	WT901BLE68-01(48591DE3C19B)	-0.403	-1.242	0.198	-7.019	-24.658	233.215	-76.59	-9.24	-108.19	-65.366	-42.630	-5.390	0.35690	-0.45224	0.42322	-0.69919	30.9	13111	100
2025-3-27 18:43:41.708	WT901BLE68-01(48591DE3C19B)	-0.403	-1.348	0.156	-5.554	-39.063	251.648	-76.75	-6.77	-107.34	-65.366	-42.630	-5.390	0.35690	-0.45224	0.42322	-0.69919	30.9	13111	100
2025-3-27 18:43:41.708	WT901BLE68-01(48591DE3C19B)	-0.343	-1.348	0.156	-5.554	-39.063	251.648	-76.88	-4.25	-106.40	-65.366	-42.630	-5.390	0.35690	-0.45224	0.42322	-0.69919	30.9	13111	100
2025-3-27 18:43:41.708	WT901BLE68-01(48591DE3C19B)	-0.343	-1.465	0.182	-3.052	-57.129	264.343	-76.97	-1.70	-105.36	-65.366	-42.630	-5.390	0.35690	-0.45224	0.42322	-0.69919	30.9	13111	100
2025-3-27 18:43:41.738	WT901BLE68-01(48591DE3C19B)	-0.238	-1.465	0.182	-3.052	-57.129	264.343	-77.01	0.87	-104.22	-65.366	-42.630	-5.390	0.35690	-0.45224	0.42322	-0.69919	30.9	13111	100
2025-3-27 18:43:41.738	WT901BLE68-01(48591DE3C19B)	-0.238	-1.510	0.189	6.287	-61.707	272.705	-76.95	3.46	-103.05	-65.366	-42.630	-5.390	0.35690	-0.45224	0.42322	-0.69919	30.9	13111	100
2025-3-27 18:43:41.738	WT901BLE68-01(48591DE3C19B)	-0.180	-1.510	0.189	6.287	-61.707	272.705	-76.79	6.05	-101.83	-65.366	-42.630	-5.390	0.35690	-0.45224	0.42322	-0.69919	30.9	13111	100
2025-3-27 18:43:41.738	WT901BLE68-01(48591DE3C19B)	-0.180	-1.403	0.180	14.954	-51.575	276.062	-76.54	8.65	-100.65	-65.366	-42.630	-5.390	0.35690	-0.45224	0.42322	-0.69919	30.9	13111	100
2025-3-27 18:43:41.767	WT901BLE68-01(48591DE3C19B)	-0.192	-1.403	0.180	14.954	-51.575	276.062	-76.21	11.25	-99.49	-65.366	-42.630	-5.390	0.35690	-0.45224	0.42322	-0.69919	30.9	13111	100
2025-3-27 18:43:41.767	WT901BLE68-01(48591DE3C19B)	-0.192	-1.288	0.146	17.761	-37.231	274.475	-75.82	13.83	-98.37	-65.366	-42.630	-5.390	0.35690	-0.45224	0.42322	-0.69919	30.9	13111	100
2025-3-27 18:43:41.767	WT901BLE68-01(48591DE3C19B)	-0.207	-1.288	0.146	17.761	-37.231	274.475	-75.38	16.39	-97.31	-65.366	-42.630	-5.390	0.35690	-0.45224	0.42322	-0.69919	30.9	13111	100
2025-3-27 18:43:41.767	WT901BLE68-01(48591DE3C19B)	-0.207	-1.188	0.101	18.066	-23.010	268.555	-74.92	18.92	-96.28	-65.366	-42.630	-5.390	0.35690	-0.45224	0.42322	-0.69919	30.9	13111	100
2025-3-27 18:43:41.828	WT901BLE68-01(48591DE3C19B)	-0.190	-1.188	0.101	18.066	-23.010	268.555	-74.44	21.41	-95.31	-65.366	-42.630	-5.390	0.35690	-0.45224	0.42322	-0.69919	30.9	13111	100
2025-3-27 18:43:41.829	WT901BLE68-01(48591DE3C19B)	-0.190	-1.104	0.080	16.785	-6.226	261.414	-73.95	23.86	-94.39	-65.366	-42.630	-5.390	0.35690	-0.45224	0.42322	-0.69919	30.9	13111	100
2025-3-27 18:43:41.829	WT901BLE68-01(48591DE3C19B)	-0.198	-1.104	0.080	16.785	-6.226	261.414	-73.46	26.28	-93.55	-65.366	-42.630	-5.390	0.35690	-0.45224	0.42322	-0.69919	30.9	13111	100
2025-3-27 18:43:41.829	WT901BLE68-01(48591DE3C19B)	-0.198	-1.099	0.049	13.977	6.104	254.822	-72.98	28.66	-92.74	-65.366	-42.630	-5.390	0.35690	-0.45224	0.42322	-0.69919	30.9	13111	100
2025-3-27 18:43:41.857	WT901BLE68-01(48591DE3C19B)	-0.190	-1.099	0.049	13.977	6.104	254.822	-72.50	31.01	-91.97	-78.596	-33.516	-2.548	0.35690	-0.45224	0.42322	-0.69919	30.9	13111	100
2025-3-27 18:43:41.857	WT901BLE68-01(48591DE3C19B)	-0.190	-1.084	0.010	12.939	10.193	246.704	-72.04	33.27	-91.23	-78.596	-33.516	-2.548	0.35690	-0.45224	0.42322	-0.69919	30.9	13111	100
2025-3-27 18:43:41.857	WT901BLE68-01(48591DE3C19B)	-0.188	-1.084	0.010	12.939	10.193	246.704	-71.53	35.52	-90.46	-78.596	-33.516	-2.548	0.35690	-0.45224	0.42322	-0.69919	30.9	13111	100
2025-3-27 18:43:41.857	WT901BLE68-01(48591DE3C19B)	-0.188	-1.110	-0.012	9.521	8.362	236.816	-71.03	37.64	-89.66	-78.596	-33.516	-2.548	0.35690	-0.45224	0.42322	-0.69919	30.9	13111	100
2025-3-27 18:43:41.890	WT901BLE68-01(48591DE3C19B)	-0.221	-1.110	-0.012	9.521	8.362	236.816	-70.48	39.75	-88.82	-78.596	-33.516	-2.548	0.35690	-0.45224	0.42322	-0.69919	30.9	13111	100
2025-3-27 18:43:41.890	WT901BLE68-01(48591DE3C19B)	-0.221	-1.237	-0.006	3.662	-0.610	223.511	-69.90	41.68	-87.88	-78.596	-33.516	-2.548	0.35690	-0.45224	0.42322	-0.69919	30.9	13111	100
2025-3-27 18:43:41.890	WT901BLE68-01(48591DE3C19B)	-0.255	-1.237	-0.006	3.662	-0.610	223.511	-69.27	43.59	-86.89	-78.596	-33.516	-2.548	0.35690	-0.45224	0.42322	-0.69919	30.9	13111	100
2025-3-27 18:43:41.890	WT901BLE68-01(48591DE3C19B)	-0.255	-1.428	0.010	0.854	-16.907	205.750	-68.52	45.26	-85.73	-78.596	-33.516	-2.548	0.35690	-0.45224	0.42322	-0.69919	30.9	13111	100
2025-3-27 18:43:41.949	WT901BLE68-01(48591DE3C19B)	-0.255	-1.428	0.010	0.854	-16.907	205.750	-67.71	46.91	-84.50	-78.596	-33.516	-2.548	0.35690	-0.45224	0.42322	-0.69919	30.9	13111	100
2025-3-27 18:43:41.949	WT901BLE68-01(48591DE3C19B)	-0.255	-1.590	0.029	0.061	-32.410	185.242	-66.77	48.28	-83.11	-78.596	-33.516	-2.548	0.35690	-0.45224	0.42322	-0.69919	30.9	13111	100
2025-3-27 18:43:41.949	WT901BLE68-01(48591DE3C19B)	-0.154	-1.590	0.029	0.061	-32.410	185.242	-65.78	49.63	-81.66	-78.596	-33.516	-2.548	0.35690	-0.45224	0.42322	-0.69919	30.9	13111	100
2025-3-27 18:43:41.949	WT901BLE68-01(48591DE3C19B)	-0.154	-1.786	0.040	-0.732	-40.833	159.302	-64.75	50.69	-80.20	-78.596	-33.516	-2.548	0.35690	-0.45224	0.42322	-0.69919	30.9	13111	100
2025-3-27 18:43:42.9	WT901BLE68-01(48591DE3C19B)	0.049	-1.786	0.040	-0.732	-40.833	159.302	-63.67	51.72	-78.68	-78.596	-33.516	-2.548	0.35690	-0.45224	0.42322	-0.69919	30.9	13111	100
2025-3-27 18:43:42.9	WT901BLE68-01(48591DE3C19B)	0.049	-1.811	0.038	7.568	-33.203	128.784	-62.72	52.48	-77.45	-78.596	-33.516	-2.548	0.35690	-0.45224	0.42322	-0.69919	30.9	13111	100
2025-3-27 18:43:42.9	WT901BLE68-01(48591DE3C19B)	0.264	-1.811	0.038	7.568	-33.203	128.784	-61.73	53.22	-76.19	-78.596	-33.516	-2.548	0.35690	-0.45224	0.42322	-0.69919	30.9	13111	100
2025-3-27 18:43:42.9	WT901BLE68-01(48591DE3C19B)	0.264	-1.669	0.039	9.033	-13.428	90.698	-61.19	53.70	-75.50	-78.596	-33.516	-2.548	0.35690	-0.45224	0.42322	-0.69919	30.9	13111	100
2025-3-27 18:43:42.10	WT901BLE68-01(48591DE3C19B)	0.319	-1.669	0.039	9.033	-13.428	90.698	-60.63	54.17	-74.80	-78.596	-33.516	-2.548	0.35690	-0.45224	0.42322	-0.69919	30.9	13111	100
2025-3-27 18:43:42.10	WT901BLE68-01(48591DE3C19B)	0.319	-1.575	0.110	9.766	17.944	54.504	-60.69	54.46	-74.87	-78.596	-33.516	-2.548	0.35690	-0.45224	0.42322	-0.69919	30.9	13111	100
2025-3-27 18:43:42.10	WT901BLE68-01(48591DE3C19B)	0.127	-1.575	0.110	9.766	17.944	54.504	-60.75	54.74	-74.94	-78.596	-33.516	-2.548	0.35690	-0.45224	0.42322	-0.69919	30.9	13111	100
2025-3-27 18:43:42.10	WT901BLE68-01(48591DE3C19B)	0.127	-1.438	0.182	-4.456	34.363	12.695	-61.44	54.73	-75.61	-78.596	-33.516	-2.548	0.35690	-0.45224	0.42322	-0.69919	30.9	13111	100
2025-3-27 18:43:42.68	WT901BLE68-01(48591DE3C19B)	-0.003	-1.438	0.182	-4.456	34.363	12.695	-62.13	54.72	-76.28	-78.596	-33.516	-2.548	0.35690	-0.45224	0.42322	-0.69919	30.9	13111	100
2025-3-27 18:43:42.68	WT901BLE68-01(48591DE3C19B)	-0.003	-1.353	0.293	-7.568	41.870	-26.489	-63.17	54.38	-77.37	-78.596	-33.516	-2.548	0.74103	-0.12036	0.59503	-0.28674	30.9	13111	100
2025-3-27 18:43:42.68	WT901BLE68-01(48591DE3C19B)	-0.024	-1.353	0.293	-7.568	41.870	-26.489	-64.19	54.04	-78.43	-78.596	-33.516	-2.548	0.74103	-0.12036	0.59503	-0.28674	30.9	13111	100
2025-3-27 18:43:42.68	WT901BLE68-01(48591DE3C19B)	-0.024	-1.267	0.279	-5.188	55.298	-60.791	-65.51	53.43	-79.91	-78.596	-33.516	-2.548	0.74103	-0.12036	0.59503	-0.28674	30.9	13111	100
2025-3-27 18:43:42.97	WT901BLE68-01(48591DE3C19B)	-0.002	-1.267	0.279	-5.188	55.298	-60.791	-66.76	52.80	-81.33	-78.596	-33.516	-2.548	0.74103	-0.12036	0.59503	-0.28674	30.9	13111	100
2025-3-27 18:43:42.97	WT901BLE68-01(48591DE3C19B)	-0.002	-1.131	0.184	-0.488	61.035	-92.346	-68.14	51.89	-82.99	-78.596	-33.516	-2.548	0.74103	-0.12036	0.59503	-0.28674	30.9	13111	100
2025-3-27 18:43:42.97	WT901BLE68-01(48591DE3C19B)	0.022	-1.131	0.184	-0.488	61.035	-92.346	-69.43	50.96	-84.56	-78.596	-33.516	-2.548	0.74103	-0.12036	0.59503	-0.28674	30.9	13111	100
2025-3-27 18:43:42.97	WT901BLE68-01(48591DE3C19B)	0.022	-0.966	0.094	1.282	52.002	-119.812	-70.64	49.72	-86.07	-78.596	-33.516	-2.548	0.74103	-0.12036	0.59503	-0.28674	30.9	13111	100
2025-3-27 18:43:42.128	WT901BLE68-01(48591DE3C19B)	0.011	-0.966	0.094	1.282	52.002	-119.812	-71.77	48.48	-87.50	-78.596	-33.516	-2.548	0.74103	-0.12036	0.59503	-0.28674	30.9	13111	100
2025-3-27 18:43:42.128	WT901BLE68-01(48591DE3C19B)	0.011	-0.930	0.049	-1.160	35.217	-143.982	-72.73	46.94	-88.72	-78.596	-33.516	-2.548	0.74103	-0.12036	0.59503	-0.28674	30.9	13111	100
2025-3-27 18:43:42.128	WT901BLE68-01(48591DE3C19B)	-0.093	-0.930	0.049	-1.160	35.217	-143.982	-73.62	45.40	-89.86	-78.596	-33.516	-2.548	0.74103	-0.12036	0.59503	-0.28674	30.9	13111	100
2025-3-27 18:43:42.128	WT901BLE68-01(48591DE3C19B)	-0.093	-1.009	0.081	0.793	15.015	-165.344	-74.30	43.59	-90.75	-78.596	-33.516	-2.548	0.74103	-0.12036	0.59503	-0.28674	30.9	13111	100
2025-3-27 18:43:42.190	WT901BLE68-01(48591DE3C19B)	-0.249	-1.009	0.081	0.793	15.015	-165.344	-74.90	41.79	-91.58	-78.596	-33.516	-2.548	0.74103	-0.12036	0.59503	-0.28674	30.9	13111	100
2025-3-27 18:43:42.190	WT901BLE68-01(48591DE3C19B)	-0.249	-1.066	0.145	5.249	-11.841	-187.622	-75.23	39.72	-92.09	-78.596	-33.516	-2.548	0.74103	-0.12036	0.59503	-0.28674	30.9	13111	100
2025-3-27 18:43:42.190	WT901BLE68-01(48591DE3C19B)	-0.315	-1.066	0.145	5.249	-11.841	-187.622	-75.53	37.67	-92.57	-78.596	-33.516	-2.548	0.74103	-0.12036	0.59503	-0.28674	30.9	13111	100
2025-3-27 18:43:42.190	WT901BLE68-01(48591DE3C19B)	-0.315	-1.074	0.204	5.554	-40.466	-209.839	-75.63	35.34	-92.75	-78.596	-33.516	-2.548	0.74103	-0.12036	0.59503	-0.28674	30.9	13111	100
2025-3-27 18:43:42.221	WT901BLE68-01(48591DE3C19B)	-0.292	-1.074	0.204	5.554	-40.466	-209.839	-75.71	33.04	-92.92	-78.596	-33.516	-2.548	0.74103	-0.12036	0.59503	-0.28674	30.9	13111	100
2025-3-27 18:43:42.221	WT901BLE68-01(48591DE3C19B)	-0.292	-1.083	0.247	0.916	-51.636	-229.492	-75.78	30.54	-93.00	-78.596	-33.516	-2.548	0.74103	-0.12036	0.59503	-0.28674	30.9	13111	100
2025-3-27 18:43:42.221	WT901BLE68-01(48591DE3C19B)	-0.295	-1.083	0.247	0.916	-51.636	-229.492	-75.86	28.05	-93.08	-78.596	-33.516	-2.548	0.74103	-0.12036	0.59503	-0.28674	30.9	13111	100
2025-3-27 18:43:42.221	WT901BLE68-01(48591DE3C19B)	-0.295	-1.130	0.269	-5.798	-40.527	-245.239	-76.05	25.47	-93.31	-78.008	-26.558	-0.392	0.74103	-0.12036	0.59503	-0.28674	30.9	13111	100
2025-3-27 18:43:42.250	WT901BLE68-01(48591DE3C19B)	-0.310	-1.130	0.269	-5.798	-40.527	-245.239	-76.23	22.90	-93.53	-78.008	-26.558	-0.392	0.74103	-0.12036	0.59503	-0.28674	30.9	13111	100
2025-3-27 18:43:42.250	WT901BLE68-01(48591DE3C19B)	-0.310	-1.211	0.271	-10.803	-15.564	-256.165	-76.54	20.30	-94.02	-78.008	-26.558	-0.392	0.74103	-0.12036	0.59503	-0.28674	30.9	13111	100
2025-3-27 18:43:42.251	WT901BLE68-01(48591DE3C19B)	-0.328	-1.211	0.271	-10.803	-15.564	-256.165	-76.82	17.72	-94.48	-78.008	-26.558	-0.392	0.74103	-0.12036	0.59503	-0.28674	30.9	13111	100
2025-3-27 18:43:42.251	WT901BLE68-01(48591DE3C19B)	-0.328	-1.275	0.268	-12.024	16.724	-263.855	-77.18	15.14	-95.27	-78.008	-26.558	-0.392	0.74103	-0.12036	0.59503	-0.28674	30.9	13111	100
2025-3-27 18:43:42.308	WT901BLE68-01(48591DE3C19B)	-0.360	-1.275	0.268	-12.024	16.724	-263.855	-77.50	12.59	-96.03	-78.008	-26.558	-0.392	0.74103	-0.12036	0.59503	-0.28674	30.9	13111	100
2025-3-27 18:43:42.308	WT901BLE68-01(48591DE3C19B)	-0.384	-1.321	0.244	-10.071	44.495	-267.334	-77.82	10.07	-97.04	-78.008	-26.558	-0.392	0.74103	-0.12036	0.59503	-0.28674	30.9	13111	100
2025-3-27 18:43:42.308	WT901BLE68-01(48591DE3C19B)	-0.384	-1.338	0.221	-5.737	65.552	-266.663	-78.07	7.60	-98.14	-78.008	-26.558	-0.392	0.74103	-0.12036	0.59503	-0.28674	30.9	13111	100
2025-3-27 18:43:42.309	WT901BLE68-01(48591DE3C19B)	-0.409	-1.338	0.221	-5.737	65.552	-266.663	-78.28	5.15	-99.31	-78.008	-26.558	-0.392	0.74103	-0.12036	0.59503	-0.28674	30.9	13111	100
2025-3-27 18:43:42.337	WT901BLE68-01(48591DE3C19B)	-0.409	-1.334	0.200	-0.732	81.665	-260.132	-78.41	2.78	-100.54	-78.008	-26.558	-0.392	0.74103	-0.12036	0.59503	-0.28674	30.9	13111	100
2025-3-27 18:43:42.337	WT901BLE68-01(48591DE3C19B)	-0.461	-1.334	0.200	-0.732	81.665	-260.132	-78.46	0.46	-101.83	-78.008	-26.558	-0.392	0.74103	-0.12036	0.59503	-0.28674	30.9	13111	100
2025-3-27 18:43:42.337	WT901BLE68-01(48591DE3C19B)	-0.461	-1.312	0.181	6.165	90.454	-246.826	-78.44	-1.76	-103.15	-78.008	-26.558	-0.392	0.74103	-0.12036	0.59503	-0.28674	30.9	13111	100
2025-3-27 18:43:42.338	WT901BLE68-01(48591DE3C19B)	-0.519	-1.312	0.181	6.165	90.454	-246.826	-78.33	-3.89	-104.49	-78.008	-26.558	-0.392	0.74103	-0.12036	0.59503	-0.28674	30.9	13111	100
2025-3-27 18:43:42.368	WT901BLE68-01(48591DE3C19B)	-0.519	-1.215	0.170	13.245	88.257	-230.896	-78.13	-5.93	-105.80	-78.008	-26.558	-0.392	0.74103	-0.12036	0.59503	-0.28674	30.9	13111	100
2025-3-27 18:43:42.368	WT901BLE68-01(48591DE3C19B)	-0.560	-1.215	0.170	13.245	88.257	-230.896	-77.87	-7.87	-107.10	-78.008	-26.558	-0.392	0.74103	-0.12036	0.59503	-0.28674	30.9	13111	100
2025-3-27 18:43:42.368	WT901BLE68-01(48591DE3C19B)	-0.560	-1.103	0.167	16.052	75.256	-211.548	-77.55	-9.71	-108.33	-78.008	-26.558	-0.392	0.74103	-0.12036	0.59503	-0.28674	30.9	13111	100
2025-3-27 18:43:42.368	WT901BLE68-01(48591DE3C19B)	-0.578	-1.103	0.167	16.052	75.256	-211.548	-77.21	-11.44	-109.47	-78.008	-26.558	-0.392	0.74103	-0.12036	0.59503	-0.28674	30.9	13111	100
2025-3-27 18:43:42.428	WT901BLE68-01(48591DE3C19B)	-0.578	-0.989	0.180	16.724	56.396	-188.843	-76.84	-13.07	-110.52	-78.008	-26.558	-0.392	0.74103	-0.12036	0.59503	-0.28674	30.9	13111	100
2025-3-27 18:43:42.429	WT901BLE68-01(48591DE3C19B)	-0.579	-0.989	0.180	16.724	56.396	-188.843	-76.48	-14.58	-111.46	-78.008	-26.558	-0.392	0.74103	-0.12036	0.59503	-0.28674	30.9	13111	100
2025-3-27 18:43:42.429	WT901BLE68-01(48591DE3C19B)	-0.579	-0.890	0.206	14.038	35.156	-163.879	-76.14	-15.97	-112.28	-78.008	-26.558	-0.392	0.74103	-0.12036	0.59503	-0.28674	30.9	13111	100
2025-3-27 18:43:42.429	WT901BLE68-01(48591DE3C19B)	-0.563	-0.890	0.206	14.038	35.156	-163.879	-75.83	-17.26	-112.98	-78.008	-26.558	-0.392	0.74103	-0.12036	0.59503	-0.28674	30.9	13111	100
2025-3-27 18:43:42.457	WT901BLE68-01(48591DE3C19B)	-0.563	-0.834	0.224	8.911	16.357	-139.099	-75.56	-18.43	-113.56	-78.008	-26.558	-0.392	0.34528	-0.43719	0.43655	-0.70636	30.9	13111	100
2025-3-27 18:43:42.457	WT901BLE68-01(48591DE3C19B)	-0.538	-0.834	0.224	8.911	16.357	-139.099	-75.35	-19.49	-114.02	-78.008	-26.558	-0.392	0.34528	-0.43719	0.43655	-0.70636	30.9	13111	100
2025-3-27 18:43:42.457	WT901BLE68-01(48591DE3C19B)	-0.538	-0.840	0.258	3.418	2.747	-115.112	-75.18	-20.44	-114.40	-78.008	-26.558	-0.392	0.34528	-0.43719	0.43655	-0.70636	30.9	13111	100
2025-3-27 18:43:42.458	WT901BLE68-01(48591DE3C19B)	-0.537	-0.840	0.258	3.418	2.747	-115.112	-75.07	-21.28	-114.69	-78.008	-26.558	-0.392	0.34528	-0.43719	0.43655	-0.70636	30.9	13111	100
2025-3-27 18:43:42.490	WT901BLE68-01(48591DE3C19B)	-0.537	-0.905	0.315	-0.244	-6.531	-93.140	-74.99	-22.02	-114.90	-78.008	-26.558	-0.392	0.34528	-0.43719	0.43655	-0.70636	30.9	13111	100
2025-3-27 18:43:42.490	WT901BLE68-01(48591DE3C19B)	-0.549	-0.905	0.315	-0.244	-6.531	-93.140	-74.95	-22.65	-115.05	-78.008	-26.558	-0.392	0.34528	-0.43719	0.43655	-0.70636	30.9	13111	100
2025-3-27 18:43:42.490	WT901BLE68-01(48591DE3C19B)	-0.549	-1.009	0.352	-2.563	-11.902	-73.853	-74.94	-23.20	-115.15	-78.008	-26.558	-0.392	0.34528	-0.43719	0.43655	-0.70636	30.9	13111	100
2025-3-27 18:43:42.490	WT901BLE68-01(48591DE3C19B)	-0.561	-1.009	0.352	-2.563	-11.902	-73.853	-74.95	-23.65	-115.20	-78.008	-26.558	-0.392	0.34528	-0.43719	0.43655	-0.70636	30.9	13111	100
2025-3-27 18:43:42.577	WT901BLE68-01(48591DE3C19B)	-0.561	-1.095	0.375	-2.441	-10.254	-56.763	-74.97	-24.02	-115.25	-78.008	-26.558	-0.392	0.34528	-0.43719	0.43655	-0.70636	30.9	13111	100
2025-3-27 18:43:42.577	WT901BLE68-01(48591DE3C19B)	-0.579	-1.095	0.375	-2.441	-10.254	-56.763	-74.98	-24.31	-115.29	-78.008	-26.558	-0.392	0.34528	-0.43719	0.43655	-0.70636	30.9	13111	100
2025-3-27 18:43:42.577	WT901BLE68-01(48591DE3C19B)	-0.579	-1.154	0.390	-3.174	-5.066	-40.100	-74.99	-24.50	-115.32	-78.008	-26.558	-0.392	0.34528	-0.43719	0.43655	-0.70636	30.9	13111	100
2025-3-27 18:43:42.577	WT901BLE68-01(48591DE3C19B)	-0.585	-1.154	0.390	-3.174	-5.066	-40.100	-74.99	-24.60	-115.38	-78.008	-26.558	-0.392	0.34528	-0.43719	0.43655	-0.70636	30.9	13111	100
2025-3-27 18:43:42.579	WT901BLE68-01(48591DE3C19B)	-0.585	-1.169	0.398	-4.089	1.404	-20.935	-75.00	-24.61	-115.44	-78.008	-26.558	-0.392	0.34528	-0.43719	0.43655	-0.70636	30.9	13111	100
2025-3-27 18:43:42.579	WT901BLE68-01(48591DE3C19B)	-0.573	-1.169	0.398	-4.089	1.404	-20.935	-75.00	-24.52	-115.51	-78.008	-26.558	-0.392	0.34528	-0.43719	0.43655	-0.70636	30.9	13111	100
2025-3-27 18:43:42.579	WT901BLE68-01(48591DE3C19B)	-0.573	-1.149	0.398	-5.066	5.981	1.770	-75.01	-24.31	-115.58	-78.008	-26.558	-0.392	0.34528	-0.43719	0.43655	-0.70636	30.9	13111	100
2025-3-27 18:43:42.579	WT901BLE68-01(48591DE3C19B)	-0.562	-1.149	0.398	-5.066	5.981	1.770	-75.03	-23.98	-115.64	-78.008	-26.558	-0.392	0.34528	-0.43719	0.43655	-0.70636	30.9	13111	100
2025-3-27 18:43:42.610	WT901BLE68-01(48591DE3C19B)	-0.562	-1.166	0.384	-9.644	1.343	28.442	-75.09	-23.54	-115.64	-78.008	-26.558	-0.392	0.34528	-0.43719	0.43655	-0.70636	30.9	13111	100
2025-3-27 18:43:42.610	WT901BLE68-01(48591DE3C19B)	-0.628	-1.166	0.384	-9.644	1.343	28.442	-75.20	-22.98	-115.58	-78.008	-26.558	-0.392	0.34528	-0.43719	0.43655	-0.70636	30.9	13111	100
2025-3-27 18:43:42.611	WT901BLE68-01(48591DE3C19B)	-0.628	-1.168	0.381	-10.498	-20.325	57.617	-75.37	-22.30	-115.37	-78.008	-26.558	-0.392	0.34528	-0.43719	0.43655	-0.70636	30.9	13111	100
2025-3-27 18:43:42.611	WT901BLE68-01(48591DE3C19B)	-0.676	-1.168	0.381	-10.498	-20.325	57.617	-75.59	-21.52	-115.01	-78.008	-26.558	-0.392	0.34528	-0.43719	0.43655	-0.70636	30.9	13111	100
2025-3-27 18:43:42.668	WT901BLE68-01(48591DE3C19B)	-0.676	-1.156	0.361	-14.709	-56.580	86.731	-75.90	-20.64	-114.43	-78.008	-26.558	-0.392	0.34528	-0.43719	0.43655	-0.70636	30.9	13111	100
2025-3-27 18:43:42.668	WT901BLE68-01(48591DE3C19B)	-0.648	-1.156	0.361	-14.709	-56.580	86.731	-76.31	-19.67	-113.65	-60.760	-46.354	-3.038	0.34528	-0.43719	0.43655	-0.70636	30.9	13111	100
2025-3-27 18:43:42.668	WT901BLE68-01(48591DE3C19B)	-0.648	-1.228	0.300	-14.404	-93.567	117.981	-76.76	-18.58	-112.64	-60.760	-46.354	-3.038	0.34528	-0.43719	0.43655	-0.70636	30.9	13111	100
2025-3-27 18:43:42.668	WT901BLE68-01(48591DE3C19B)	-0.501	-1.228	0.300	-14.404	-93.567	117.981	-77.25	-17.38	-111.43	-60.760	-46.354	-3.038	0.34528	-0.43719	0.43655	-0.70636	30.9	13111	100
2025-3-27 18:43:42.697	WT901BLE68-01(48591DE3C19B)	-0.501	-1.232	0.223	-6.836	-116.028	151.489	-77.72	-16.04	-110.08	-60.760	-46.354	-3.038	0.34528	-0.43719	0.43655	-0.70636	30.9	13111	100
2025-3-27 18:43:42.697	WT901BLE68-01(48591DE3C19B)	-0.313	-1.232	0.223	-6.836	-116.028	151.489	-78.16	-14.56	-108.60	-60.760	-46.354	-3.038	0.34528	-0.43719	0.43655	-0.70636	30.9	13111	100
2025-3-27 18:43:42.697	WT901BLE68-01(48591DE3C19B)	-0.313	-1.268	0.151	0.549	-114.075	184.448	-78.52	-12.92	-107.11	-60.760	-46.354	-3.038	0.34528	-0.43719	0.43655	-0.70636	30.9	13111	100
2025-3-27 18:43:42.697	WT901BLE68-01(48591DE3C19B)	-0.192	-1.268	0.151	0.549	-114.075	184.448	-78.82	-11.12	-105.62	-60.760	-46.354	-3.038	0.34528	-0.43719	0.43655	-0.70636	30.9	13111	100
2025-3-27 18:43:42.758	WT901BLE68-01(48591DE3C19B)	-0.192	-1.346	0.129	10.986	-90.149	212.524	-78.99	-9.17	-104.22	-60.760	-46.354	-3.038	0.34528	-0.43719	0.43655	-0.70636	30.9	13111	100
2025-3-27 18:43:42.758	WT901BLE68-01(48591DE3C19B)	-0.144	-1.346	0.129	10.986	-90.149	212.524	-79.06	-7.09	-102.93	-60.760	-46.354	-3.038	0.34528	-0.43719	0.43655	-0.70636	30.9	13111	100
2025-3-27 18:43:42.758	WT901BLE68-01(48591DE3C19B)	-0.144	-1.415	0.144	19.775	-56.763	232.361	-79.02	-4.89	-101.78	-60.760	-46.354	-3.038	0.34528	-0.43719	0.43655	-0.70636	30.9	13111	100
2025-3-27 18:43:42.758	WT901BLE68-01(48591DE3C19B)	-0.127	-1.415	0.144	19.775	-56.763	232.361	-78.89	-2.59	-100.77	-60.760	-46.354	-3.038	0.34528	-0.43719	0.43655	-0.70636	30.9	13111	100
2025-3-27 18:43:42.789	WT901BLE68-01(48591DE3C19B)	-0.127	-1.474	0.153	24.963	-22.217	244.568	-78.66	-0.12	-100.06	-60.760	-46.354	-3.038	0.34528	-0.43719	0.43655	-0.70636	30.9	13111	100
2025-3-27 18:43:42.790	WT901BLE68-01(48591DE3C19B)	-0.170	-1.474	0.153	24.963	-22.217	244.568	-78.40	2.31	-99.35	-60.760	-46.354	-3.038	0.34528	-0.43719	0.43655	-0.70636	30.9	13111	100
2025-3-27 18:43:42.790	WT901BLE68-01(48591DE3C19B)	-0.170	-1.493	0.140	28.076	6.775	253.052	-78.11	4.87	-98.89	-60.760	-46.354	-3.038	0.34528	-0.43719	0.43655	-0.70636	30.9	13111	100
2025-3-27 18:43:42.790	WT901BLE68-01(48591DE3C19B)	-0.234	-1.493	0.140	28.076	6.775	253.052	-77.80	7.40	-98.42	-60.760	-46.354	-3.038	0.34528	-0.43719	0.43655	-0.70636	30.9	13111	100
2025-3-27 18:43:42.821	WT901BLE68-01(48591DE3C19B)	-0.234	-1.481	0.124	27.344	24.536	255.615	-77.50	9.98	-98.09	-60.760	-46.354	-3.038	0.34528	-0.43719	0.43655	-0.70636	30.9	13111	100
2025-3-27 18:43:42.821	WT901BLE68-01(48591DE3C19B)	-0.281	-1.481	0.124	27.344	24.536	255.615	-77.19	12.52	-97.75	-60.760	-46.354	-3.038	0.34528	-0.43719	0.43655	-0.70636	30.9	13111	100
2025-3-27 18:43:42.821	WT901BLE68-01(48591DE3C19B)	-0.281	-1.459	0.100	24.841	33.997	253.906	-76.92	15.07	-97.48	-60.760	-46.354	-3.038	0.34528	-0.43719	0.43655	-0.70636	30.9	13111	100
2025-3-27 18:43:42.821	WT901BLE68-01(48591DE3C19B)	-0.300	-1.459	0.100	24.841	33.997	253.906	-76.63	17.59	-97.20	-60.760	-46.354	-3.038	0.34528	-0.43719	0.43655	-0.70636	30.9	13111	100
2025-3-27 18:43:42.878	WT901BLE68-01(48591DE3C19B)	-0.300	-1.384	0.088	22.156	35.706	250.366	-76.37	20.06	-96.93	-60.760	-46.354	-3.038	0.34528	-0.43719	0.43655	-0.70636	30.9	13111	100
2025-3-27 18:43:42.878	WT901BLE68-01(48591DE3C19B)	-0.320	-1.384	0.088	22.156	35.706	250.366	-76.09	22.52	-96.65	-60.760	-46.354	-3.038	0.60806	-0.28030	0.55707	-0.49118	30.9	13111	100
2025-3-27 18:43:42.878	WT901BLE68-01(48591DE3C19B)	-0.320	-1.315	0.073	17.761	29.358	244.324	-75.82	24.89	-96.30	-60.760	-46.354	-3.038	0.60806	-0.28030	0.55707	-0.49118	30.9	13111	100
2025-3-27 18:43:42.878	WT901BLE68-01(48591DE3C19B)	-0.347	-1.315	0.073	17.761	29.358	244.324	-75.54	27.25	-95.92	-60.760	-46.354	-3.038	0.60806	-0.28030	0.55707	-0.49118	30.9	13111	100
2025-3-27 18:43:42.907	WT901BLE68-01(48591DE3C19B)	-0.347	-1.262	0.050	14.404	15.869	236.145	-75.21	29.47	-95.41	-60.760	-46.354	-3.038	0.60806	-0.28030	0.55707	-0.49118	30.9	13111	100
2025-3-27 18:43:42.907	WT901BLE68-01(48591DE3C19B)	-0.350	-1.262	0.050	14.404	15.869	236.145	-74.85	31.68	-94.86	-60.760	-46.354	-3.038	0.60806	-0.28030	0.55707	-0.49118	30.9	13111	100
2025-3-27 18:43:42.908	WT901BLE68-01(48591DE3C19B)	-0.350	-1.214	0.030	12.085	-1.770	228.516	-74.39	33.77	-94.11	-60.760	-46.354	-3.038	0.60806	-0.28030	0.55707	-0.49118	30.9	13111	100
2025-3-27 18:43:42.908	WT901BLE68-01(48591DE3C19B)	-0.333	-1.214	0.030	12.085	-1.770	228.516	-73.89	35.83	-93.33	-60.760	-46.354	-3.038	0.60806	-0.28030	0.55707	-0.49118	30.9	13111	100
2025-3-27 18:43:42.938	WT901BLE68-01(48591DE3C19B)	-0.333	-1.174	0.013	11.047	-14.893	220.642	-73.29	37.76	-92.37	-60.760	-46.354	-3.038	0.60806	-0.28030	0.55707	-0.49118	30.9	13111	100
2025-3-27 18:43:42.938	WT901BLE68-01(48591DE3C19B)	-0.300	-1.174	0.013	11.047	-14.893	220.642	-72.64	39.68	-91.37	-60.760	-46.354	-3.038	0.60806	-0.28030	0.55707	-0.49118	30.9	13111	100
2025-3-27 18:43:42.938	WT901BLE68-01(48591DE3C19B)	-0.300	-1.128	0.000	10.925	-23.376	212.952	-71.87	41.47	-90.24	-60.760	-46.354	-3.038	0.60806	-0.28030	0.55707	-0.49118	30.9	13111	100
2025-3-27 18:43:42.938	WT901BLE68-01(48591DE3C19B)	-0.279	-1.128	0.000	10.925	-23.376	212.952	-71.05	43.25	-89.04	-60.760	-46.354	-3.038	0.60806	-0.28030	0.55707	-0.49118	30.9	13111	100
2025-3-27 18:43:42.999	WT901BLE68-01(48591DE3C19B)	-0.279	-1.084	-0.006	10.315	-28.259	203.735	-70.15	44.90	-87.77	-60.760	-46.354	-3.038	0.60806	-0.28030	0.55707	-0.49118	30.9	13111	100
2025-3-27 18:43:42.999	WT901BLE68-01(48591DE3C19B)	-0.262	-1.084	-0.006	10.315	-28.259	203.735	-69.19	46.52	-86.42	-60.760	-46.354	-3.038	0.60806	-0.28030	0.55707	-0.49118	30.9	13111	100
2025-3-27 18:43:42.999	WT901BLE68-01(48591DE3C19B)	-0.262	-1.047	-0.007	9.521	-29.968	193.237	-68.18	48.02	-85.04	-60.760	-46.354	-3.038	0.60806	-0.28030	0.55707	-0.49118	30.9	13111	100
2025-3-27 18:43:42.999	WT901BLE68-01(48591DE3C19B)	-0.252	-1.047	-0.007	9.521	-29.968	193.237	-67.09	49.49	-83.58	-60.760	-46.354	-3.038	0.60806	-0.28030	0.55707	-0.49118	30.9	13111	100
2025-3-27 18:43:43.28	WT901BLE68-01(48591DE3C19B)	-0.252	-1.011	-0.004	7.996	-27.405	180.847	-66.03	50.83	-82.16	-60.760	-46.354	-3.038	0.60806	-0.28030	0.55707	-0.49118	30.9	13111	100
2025-3-27 18:43:43.28	WT901BLE68-01(48591DE3C19B)	-0.248	-1.011	-0.004	7.996	-27.405	180.847	-64.89	52.15	-80.66	-60.760	-46.354	-3.038	0.60806	-0.28030	0.55707	-0.49118	30.9	13111	100
2025-3-27 18:43:43.28	WT901BLE68-01(48591DE3C19B)	-0.248	-0.980	0.010	5.493	-23.071	166.138	-63.83	53.33	-79.25	-60.760	-46.354	-3.038	0.60806	-0.28030	0.55707	-0.49118	30.9	13111	100
2025-3-27 18:43:43.28	WT901BLE68-01(48591DE3C19B)	-0.242	-0.980	0.010	5.493	-23.071	166.138	-62.70	54.49	-77.78	-77.126	-26.656	6.566	0.60806	-0.28030	0.55707	-0.49118	30.9	13111	100
2025-3-27 18:43:43.58	WT901BLE68-01(48591DE3C19B)	-0.242	-0.940	0.028	3.174	-17.944	149.597	-61.70	55.50	-76.45	-77.126	-26.656	6.566	0.60806	-0.28030	0.55707	-0.49118	30.9	13111	100
2025-3-27 18:43:43.58	WT901BLE68-01(48591DE3C19B)	-0.236	-0.940	0.028	3.174	-17.944	149.597	-60.63	56.49	-75.06	-77.126	-26.656	6.566	0.60806	-0.28030	0.55707	-0.49118	30.9	13111	100
2025-3-27 18:43:43.58	WT901BLE68-01(48591DE3C19B)	-0.236	-0.892	0.043	0.183	-12.085	131.836	-59.75	57.35	-73.87	-77.126	-26.656	6.566	0.60806	-0.28030	0.55707	-0.49118	30.9	13111	100
2025-3-27 18:43:43.58	WT901BLE68-01(48591DE3C19B)	-0.226	-0.892	0.043	0.183	-12.085	131.836	-58.83	58.18	-72.63	-77.126	-26.656	6.566	0.60806	-0.28030	0.55707	-0.49118	30.9	13111	100
2025-3-27 18:43:43.119	WT901BLE68-01(48591DE3C19B)	-0.226	-0.846	0.058	-3.113	-6.714	113.403	-58.11	58.88	-71.62	-77.126	-26.656	6.566	0.60806	-0.28030	0.55707	-0.49118	30.9	13111	100
2025-3-27 18:43:43.119	WT901BLE68-01(48591DE3C19B)	-0.226	-0.846	0.058	-3.113	-6.714	113.403	-57.37	59.57	-70.58	-77.126	-26.656	6.566	0.60806	-0.28030	0.55707	-0.49118	30.9	13111	100
