time	DeviceName	AccX(g)	AccY(g)	AccZ(g)	AsX(°/s)	AsY(°/s)	AsZ(°/s)	AngleX(°)	AngleY(°)	AngleZ(°)	HX(uT)	HY(uT)	HZ(uT)	Q0()	Q1()	Q2()	Q3()	Temperature(°C)	Version()	Battery level(%)
2025-3-27 18:20:32.329	WT901BLE68-01(48591DE3C19B)	-0.190	-0.946	0.273	1.709	0.793	-0.854	-73.38	12.15	-28.73	-62.426	-56.350	86.436	-0.79211	0.54181	-0.24435	0.13843	30.9	13111	100
2025-3-27 18:20:32.329	WT901BLE68-01(48591DE3C19B)	-0.186	-0.946	0.273	1.709	0.793	-0.854	-73.37	12.13	-28.78	-62.426	-56.350	86.436	-0.79211	0.54181	-0.24435	0.13843	30.9	13111	100
2025-3-27 18:20:32.329	WT901BLE68-01(48591DE3C19B)	-0.186	-0.939	0.271	1.282	0.305	-0.610	-73.36	12.11	-28.83	-62.426	-56.350	86.436	-0.79211	0.54181	-0.24435	0.13843	30.9	13111	100
2025-3-27 18:20:32.329	WT901BLE68-01(48591DE3C19B)	-0.189	-0.939	0.271	1.282	0.305	-0.610	-73.34	12.10	-28.87	-62.426	-56.350	86.436	-0.79211	0.54181	-0.24435	0.13843	30.9	13111	100
2025-3-27 18:20:32.329	WT901BLE68-01(48591DE3C19B)	-0.189	-0.938	0.270	0.549	0.305	-0.183	-73.34	12.09	-28.91	-62.426	-56.350	86.436	-0.79211	0.54181	-0.24435	0.13843	30.9	13111	100
2025-3-27 18:20:32.329	WT901BLE68-01(48591DE3C19B)	-0.189	-0.938	0.270	0.549	0.305	-0.183	-73.33	12.08	-28.95	-62.426	-56.350	86.436	-0.79211	0.54181	-0.24435	0.13843	30.9	13111	100
2025-3-27 18:20:32.329	WT901BLE68-01(48591DE3C19B)	-0.189	-0.944	0.272	-0.061	-0.671	0.183	-73.33	12.07	-28.98	-62.426	-56.350	86.436	-0.79211	0.54181	-0.24435	0.13843	30.9	13111	100
2025-3-27 18:20:32.330	WT901BLE68-01(48591DE3C19B)	-0.188	-0.944	0.272	-0.061	-0.671	0.183	-73.33	12.06	-29.00	-62.426	-56.350	86.436	-0.79211	0.54181	-0.24435	0.13843	30.9	13111	100
2025-3-27 18:20:32.358	WT901BLE68-01(48591DE3C19B)	-0.188	-0.950	0.273	-0.488	-1.038	0.854	-73.34	12.06	-29.03	-62.426	-56.350	86.436	-0.79211	0.54181	-0.24435	0.13843	30.9	13111	100
2025-3-27 18:20:32.358	WT901BLE68-01(48591DE3C19B)	-0.195	-0.950	0.273	-0.488	-1.038	0.854	-73.34	12.06	-29.05	-62.426	-56.350	86.436	-0.79211	0.54181	-0.24435	0.13843	30.9	13111	100
2025-3-27 18:20:32.359	WT901BLE68-01(48591DE3C19B)	-0.197	-0.944	0.276	-0.488	-1.648	1.221	-73.35	12.06	-29.06	-62.426	-56.350	86.436	-0.79211	0.54181	-0.24435	0.13843	30.9	13111	100
2025-3-27 18:20:32.359	WT901BLE68-01(48591DE3C19B)	-0.197	-0.935	0.279	-1.343	-3.479	0.854	-73.35	12.06	-29.07	-62.426	-56.350	86.436	-0.79211	0.54181	-0.24435	0.13843	30.9	13111	100
2025-3-27 18:20:32.450	WT901BLE68-01(48591DE3C19B)	-0.187	-0.935	0.279	-1.343	-3.479	0.854	-73.36	12.05	-29.06	-62.426	-56.350	86.436	-0.79211	0.54181	-0.24435	0.13843	30.9	13111	100
2025-3-27 18:20:32.450	WT901BLE68-01(48591DE3C19B)	-0.187	-0.929	0.281	-1.648	-5.188	0.122	-73.37	12.03	-29.05	-62.426	-56.350	86.436	-0.79211	0.54181	-0.24435	0.13843	30.9	13111	100
2025-3-27 18:20:32.450	WT901BLE68-01(48591DE3C19B)	-0.195	-0.929	0.281	-1.648	-5.188	0.122	-73.38	12.01	-29.04	-62.426	-56.350	86.436	-0.79211	0.54181	-0.24435	0.13843	30.9	13111	100
2025-3-27 18:20:32.450	WT901BLE68-01(48591DE3C19B)	-0.195	-0.924	0.282	-1.770	-5.554	-0.916	-73.38	11.99	-29.02	-62.426	-56.350	86.436	-0.79211	0.54181	-0.24435	0.13843	30.9	13111	100
2025-3-27 18:20:32.451	WT901BLE68-01(48591DE3C19B)	-0.198	-0.924	0.282	-1.770	-5.554	-0.916	-73.39	11.96	-29.00	-62.426	-56.350	86.436	-0.79211	0.54181	-0.24435	0.13843	30.9	13111	100
2025-3-27 18:20:32.451	WT901BLE68-01(48591DE3C19B)	-0.198	-0.921	0.282	-1.465	-6.836	-1.831	-73.39	11.92	-28.98	-62.426	-56.350	86.436	-0.78757	0.55460	-0.22931	0.13943	30.9	13111	100
2025-3-27 18:20:32.452	WT901BLE68-01(48591DE3C19B)	-0.196	-0.921	0.282	-1.465	-6.836	-1.831	-73.40	11.88	-28.95	-62.426	-56.350	86.436	-0.78757	0.55460	-0.22931	0.13943	30.9	13111	100
2025-3-27 18:20:32.452	WT901BLE68-01(48591DE3C19B)	-0.196	-0.926	0.280	-1.282	-7.080	-2.319	-73.40	11.83	-28.92	-62.426	-56.350	86.436	-0.78757	0.55460	-0.22931	0.13943	30.9	13111	100
2025-3-27 18:20:32.481	WT901BLE68-01(48591DE3C19B)	-0.198	-0.926	0.280	-1.282	-7.080	-2.319	-73.40	11.79	-28.89	-62.426	-56.350	86.436	-0.78757	0.55460	-0.22931	0.13943	30.9	13111	100
2025-3-27 18:20:32.481	WT901BLE68-01(48591DE3C19B)	-0.198	-0.936	0.277	-0.610	-6.592	-2.563	-73.39	11.74	-28.86	-62.426	-56.350	86.436	-0.78757	0.55460	-0.22931	0.13943	30.9	13111	100
2025-3-27 18:20:32.482	WT901BLE68-01(48591DE3C19B)	-0.195	-0.936	0.277	-0.610	-6.592	-2.563	-73.39	11.69	-28.84	-62.426	-56.350	86.436	-0.78757	0.55460	-0.22931	0.13943	30.9	13111	100
2025-3-27 18:20:32.482	WT901BLE68-01(48591DE3C19B)	-0.195	-0.935	0.276	-0.427	-5.676	-2.686	-73.38	11.65	-28.82	-62.426	-56.350	86.436	-0.78757	0.55460	-0.22931	0.13943	30.9	13111	100
2025-3-27 18:20:32.512	WT901BLE68-01(48591DE3C19B)	-0.205	-0.935	0.276	-0.427	-5.676	-2.686	-73.38	11.61	-28.80	-62.426	-56.350	86.436	-0.78757	0.55460	-0.22931	0.13943	30.9	13111	100
2025-3-27 18:20:32.514	WT901BLE68-01(48591DE3C19B)	-0.205	-0.946	0.276	-0.549	-5.310	-2.686	-73.37	11.56	-28.79	-62.426	-56.350	86.436	-0.78757	0.55460	-0.22931	0.13943	30.9	13111	100
2025-3-27 18:20:32.514	WT901BLE68-01(48591DE3C19B)	-0.213	-0.946	0.276	-0.549	-5.310	-2.686	-73.37	11.52	-28.77	-62.426	-56.350	86.436	-0.78757	0.55460	-0.22931	0.13943	30.9	13111	100
2025-3-27 18:20:32.514	WT901BLE68-01(48591DE3C19B)	-0.213	-0.944	0.277	-0.122	-6.409	-2.563	-73.37	11.48	-28.76	-62.426	-56.350	86.436	-0.78757	0.55460	-0.22931	0.13943	30.9	13111	100
2025-3-27 18:20:32.602	WT901BLE68-01(48591DE3C19B)	-0.202	-0.944	0.277	-0.122	-6.409	-2.563	-73.36	11.44	-28.73	-62.426	-56.350	86.436	-0.78757	0.55460	-0.22931	0.13943	30.9	13111	100
2025-3-27 18:20:32.602	WT901BLE68-01(48591DE3C19B)	-0.202	-0.938	0.281	-0.366	-7.385	-2.930	-73.34	11.39	-28.70	-62.426	-56.350	86.436	-0.78757	0.55460	-0.22931	0.13943	30.9	13111	100
2025-3-27 18:20:32.602	WT901BLE68-01(48591DE3C19B)	-0.203	-0.938	0.281	-0.366	-7.385	-2.930	-73.34	11.34	-28.67	-62.426	-56.350	86.436	-0.78757	0.55460	-0.22931	0.13943	30.9	13111	100
2025-3-27 18:20:32.602	WT901BLE68-01(48591DE3C19B)	-0.203	-0.944	0.282	-0.366	-7.690	-3.113	-73.33	11.29	-28.64	-62.426	-56.350	86.436	-0.78757	0.55460	-0.22931	0.13943	30.9	13111	100
2025-3-27 18:20:32.720	WT901BLE68-01(48591DE3C19B)	-0.210	-0.944	0.282	-0.366	-7.690	-3.113	-73.32	11.24	-28.60	-62.426	-56.350	86.436	-0.78757	0.55460	-0.22931	0.13943	30.9	13111	100
2025-3-27 18:20:32.721	WT901BLE68-01(48591DE3C19B)	-0.210	-0.945	0.279	0.183	-8.728	-3.601	-73.31	11.19	-28.56	-62.426	-56.350	86.436	-0.78757	0.55460	-0.22931	0.13943	30.9	13111	100
2025-3-27 18:20:32.721	WT901BLE68-01(48591DE3C19B)	-0.195	-0.945	0.279	0.183	-8.728	-3.601	-73.30	11.13	-28.52	-62.426	-56.350	86.436	-0.78757	0.55460	-0.22931	0.13943	30.9	13111	100
2025-3-27 18:20:32.721	WT901BLE68-01(48591DE3C19B)	-0.195	-0.947	0.276	0.793	-9.521	-4.272	-73.27	11.07	-28.47	-62.426	-56.350	86.436	-0.78757	0.55460	-0.22931	0.13943	30.9	13111	100
2025-3-27 18:20:32.723	WT901BLE68-01(48591DE3C19B)	-0.183	-0.947	0.276	0.793	-9.521	-4.272	-73.25	11.01	-28.42	-62.426	-56.350	86.436	-0.78757	0.55460	-0.22931	0.13943	30.9	13111	100
2025-3-27 18:20:32.723	WT901BLE68-01(48591DE3C19B)	-0.183	-0.956	0.274	1.892	-7.446	-4.639	-73.23	10.94	-28.37	-62.426	-56.350	86.436	-0.78757	0.55460	-0.22931	0.13943	30.9	13111	100
2025-3-27 18:20:32.723	WT901BLE68-01(48591DE3C19B)	-0.176	-0.956	0.274	1.892	-7.446	-4.639	-73.20	10.88	-28.34	-60.956	-56.840	86.632	-0.78757	0.55460	-0.22931	0.13943	30.9	13111	100
2025-3-27 18:20:32.723	WT901BLE68-01(48591DE3C19B)	-0.176	-0.964	0.277	3.174	-4.578	-4.639	-73.17	10.82	-28.33	-60.956	-56.840	86.632	-0.78757	0.55460	-0.22931	0.13943	30.9	13111	100
2025-3-27 18:20:32.752	WT901BLE68-01(48591DE3C19B)	-0.171	-0.964	0.277	3.174	-4.578	-4.639	-73.14	10.77	-28.33	-60.956	-56.840	86.632	-0.78757	0.55460	-0.22931	0.13943	30.9	13111	100
2025-3-27 18:20:32.752	WT901BLE68-01(48591DE3C19B)	-0.171	-0.977	0.284	3.723	-2.136	-4.028	-73.10	10.72	-28.34	-60.956	-56.840	86.632	-0.78757	0.55460	-0.22931	0.13943	30.9	13111	100
2025-3-27 18:20:32.752	WT901BLE68-01(48591DE3C19B)	-0.168	-0.977	0.284	3.723	-2.136	-4.028	-73.06	10.67	-28.36	-60.956	-56.840	86.632	-0.78757	0.55460	-0.22931	0.13943	30.9	13111	100
2025-3-27 18:20:32.752	WT901BLE68-01(48591DE3C19B)	-0.168	-1.012	0.296	3.357	-0.977	-3.052	-73.03	10.63	-28.39	-60.956	-56.840	86.632	-0.78757	0.55460	-0.22931	0.13943	30.9	13111	100
2025-3-27 18:20:32.753	WT901BLE68-01(48591DE3C19B)	-0.167	-1.012	0.296	3.357	-0.977	-3.052	-73.00	10.60	-28.42	-60.956	-56.840	86.632	-0.78757	0.55460	-0.22931	0.13943	30.9	13111	100
2025-3-27 18:20:32.753	WT901BLE68-01(48591DE3C19B)	-0.167	-1.056	0.307	3.967	-2.930	-1.587	-72.97	10.57	-28.44	-60.956	-56.840	86.632	-0.78757	0.55460	-0.22931	0.13943	30.9	13111	100
2025-3-27 18:20:32.753	WT901BLE68-01(48591DE3C19B)	-0.142	-1.056	0.307	3.967	-2.930	-1.587	-72.93	10.55	-28.45	-60.956	-56.840	86.632	-0.78757	0.55460	-0.22931	0.13943	30.9	13111	100
2025-3-27 18:20:32.753	WT901BLE68-01(48591DE3C19B)	-0.142	-1.046	0.315	6.470	-4.700	0.122	-72.87	10.53	-28.45	-60.956	-56.840	86.632	-0.78757	0.55460	-0.22931	0.13943	30.9	13111	100
2025-3-27 18:20:32.754	WT901BLE68-01(48591DE3C19B)	-0.107	-1.046	0.315	6.470	-4.700	0.122	-72.81	10.51	-28.44	-60.956	-56.840	86.632	-0.78757	0.55460	-0.22931	0.13943	30.9	13111	100
2025-3-27 18:20:32.754	WT901BLE68-01(48591DE3C19B)	-0.107	-0.997	0.311	8.911	-4.028	1.831	-72.73	10.50	-28.43	-60.956	-56.840	86.632	-0.78757	0.55460	-0.22931	0.13943	30.9	13111	100
2025-3-27 18:20:32.754	WT901BLE68-01(48591DE3C19B)	-0.078	-0.997	0.311	8.911	-4.028	1.831	-72.64	10.50	-28.43	-60.956	-56.840	86.632	-0.78757	0.55460	-0.22931	0.13943	30.9	13111	100
2025-3-27 18:20:32.754	WT901BLE68-01(48591DE3C19B)	-0.078	-0.956	0.308	11.169	0.122	3.967	-72.54	10.51	-28.44	-60.956	-56.840	86.632	-0.78757	0.55460	-0.22931	0.13943	30.9	13111	100
2025-3-27 18:20:32.812	WT901BLE68-01(48591DE3C19B)	-0.063	-0.956	0.308	11.169	0.122	3.967	-72.43	10.54	-28.48	-60.956	-56.840	86.632	-0.78757	0.55460	-0.22931	0.13943	30.9	13111	100
2025-3-27 18:20:32.812	WT901BLE68-01(48591DE3C19B)	-0.063	-0.935	0.316	14.343	6.165	6.775	-72.31	10.59	-28.54	-60.956	-56.840	86.632	-0.78757	0.55460	-0.22931	0.13943	30.9	13111	100
2025-3-27 18:20:32.813	WT901BLE68-01(48591DE3C19B)	-0.047	-0.935	0.316	14.343	6.165	6.775	-72.18	10.65	-28.62	-60.956	-56.840	86.632	-0.78757	0.55460	-0.22931	0.13943	30.9	13111	100
2025-3-27 18:20:32.813	WT901BLE68-01(48591DE3C19B)	-0.047	-0.896	0.322	18.127	13.367	10.620	-72.03	10.74	-28.74	-60.956	-56.840	86.632	-0.78757	0.55460	-0.22931	0.13943	30.9	13111	100
2025-3-27 18:20:32.842	WT901BLE68-01(48591DE3C19B)	-0.033	-0.896	0.322	18.127	13.367	10.620	-71.88	10.86	-28.89	-60.956	-56.840	86.632	-0.78757	0.55460	-0.22931	0.13943	30.9	13111	100
2025-3-27 18:20:32.842	WT901BLE68-01(48591DE3C19B)	-0.033	-0.851	0.314	21.118	24.109	14.709	-71.71	11.05	-29.13	-60.956	-56.840	86.632	-0.78757	0.55460	-0.22931	0.13943	30.9	13111	100
2025-3-27 18:20:32.842	WT901BLE68-01(48591DE3C19B)	-0.026	-0.851	0.314	21.118	24.109	14.709	-71.54	11.23	-29.37	-60.956	-56.840	86.632	-0.78757	0.55460	-0.22931	0.13943	30.9	13111	100
2025-3-27 18:20:32.842	WT901BLE68-01(48591DE3C19B)	-0.026	-0.823	0.273	20.569	36.316	17.761	-71.39	11.48	-29.72	-60.956	-56.840	86.632	-0.79593	0.54031	-0.22745	0.15082	30.9	13111	100
2025-3-27 18:20:32.878	WT901BLE68-01(48591DE3C19B)	-0.059	-0.823	0.273	20.569	36.316	17.761	-71.26	11.73	-30.08	-60.956	-56.840	86.632	-0.79593	0.54031	-0.22745	0.15082	30.9	13111	100
2025-3-27 18:20:32.878	WT901BLE68-01(48591DE3C19B)	-0.059	-0.891	0.240	14.587	46.692	17.517	-71.20	12.00	-30.52	-60.956	-56.840	86.632	-0.79593	0.54031	-0.22745	0.15082	30.9	13111	100
2025-3-27 18:20:32.878	WT901BLE68-01(48591DE3C19B)	-0.177	-0.891	0.240	14.587	46.692	17.517	-71.15	12.28	-30.97	-60.956	-56.840	86.632	-0.79593	0.54031	-0.22745	0.15082	30.9	13111	100
2025-3-27 18:20:32.878	WT901BLE68-01(48591DE3C19B)	-0.177	-1.076	0.266	6.653	46.814	11.230	-71.19	12.49	-31.44	-60.956	-56.840	86.632	-0.79593	0.54031	-0.22745	0.15082	30.9	13111	100
2025-3-27 18:20:32.930	WT901BLE68-01(48591DE3C19B)	-0.299	-1.076	0.266	6.653	46.814	11.230	-71.22	12.71	-31.90	-60.956	-56.840	86.632	-0.79593	0.54031	-0.22745	0.15082	30.9	13111	100
2025-3-27 18:20:32.930	WT901BLE68-01(48591DE3C19B)	-0.299	-1.271	0.353	4.089	30.334	0.977	-71.26	12.78	-32.23	-60.956	-56.840	86.632	-0.79593	0.54031	-0.22745	0.15082	30.9	13111	100
2025-3-27 18:20:32.930	WT901BLE68-01(48591DE3C19B)	-0.312	-1.271	0.353	4.089	30.334	0.977	-71.30	12.85	-32.55	-60.956	-56.840	86.632	-0.79593	0.54031	-0.22745	0.15082	30.9	13111	100
2025-3-27 18:20:32.930	WT901BLE68-01(48591DE3C19B)	-0.312	-1.301	0.423	7.324	9.460	-11.292	-71.27	12.75	-32.71	-60.956	-56.840	86.632	-0.79593	0.54031	-0.22745	0.15082	30.9	13111	100
2025-3-27 18:20:32.959	WT901BLE68-01(48591DE3C19B)	-0.280	-1.301	0.423	7.324	9.460	-11.292	-71.24	12.65	-32.87	-60.956	-56.840	86.632	-0.79593	0.54031	-0.22745	0.15082	30.9	13111	100
2025-3-27 18:20:32.959	WT901BLE68-01(48591DE3C19B)	-0.280	-1.102	0.455	10.681	-1.648	-20.935	-71.15	12.43	-32.95	-60.956	-56.840	86.632	-0.79593	0.54031	-0.22745	0.15082	30.9	13111	100
2025-3-27 18:20:32.959	WT901BLE68-01(48591DE3C19B)	-0.234	-1.102	0.455	10.681	-1.648	-20.935	-71.07	12.21	-33.02	-60.956	-56.840	86.632	-0.79593	0.54031	-0.22745	0.15082	30.9	13111	100
2025-3-27 18:20:32.959	WT901BLE68-01(48591DE3C19B)	-0.234	-0.866	0.419	8.301	0.183	-27.344	-71.00	11.94	-33.15	-60.956	-56.840	86.632	-0.79593	0.54031	-0.22745	0.15082	30.9	13111	100
2025-3-27 18:20:32.989	WT901BLE68-01(48591DE3C19B)	-0.210	-0.866	0.419	8.301	0.183	-27.344	-70.94	11.67	-33.26	-60.956	-56.840	86.632	-0.79593	0.54031	-0.22745	0.15082	30.9	13111	100
2025-3-27 18:20:32.989	WT901BLE68-01(48591DE3C19B)	-0.210	-0.705	0.355	6.470	8.240	-29.358	-70.91	11.41	-33.46	-60.956	-56.840	86.632	-0.79593	0.54031	-0.22745	0.15082	30.9	13111	100
2025-3-27 18:20:32.989	WT901BLE68-01(48591DE3C19B)	-0.202	-0.705	0.355	6.470	8.240	-29.358	-70.87	11.16	-33.66	-60.956	-56.840	86.632	-0.79593	0.54031	-0.22745	0.15082	30.9	13111	100
2025-3-27 18:20:32.989	WT901BLE68-01(48591DE3C19B)	-0.202	-0.585	0.310	3.418	14.832	-32.227	-70.88	10.90	-33.93	-60.956	-56.840	86.632	-0.79593	0.54031	-0.22745	0.15082	30.9	13111	100
2025-3-27 18:20:33.50	WT901BLE68-01(48591DE3C19B)	-0.187	-0.585	0.310	3.418	14.832	-32.227	-70.88	10.65	-34.19	-60.956	-56.840	86.632	-0.79593	0.54031	-0.22745	0.15082	30.9	13111	100
2025-3-27 18:20:33.50	WT901BLE68-01(48591DE3C19B)	-0.187	-0.556	0.298	-1.465	19.775	-33.813	-70.93	10.41	-34.51	-60.956	-56.840	86.632	-0.79593	0.54031	-0.22745	0.15082	30.9	13111	100
2025-3-27 18:20:33.50	WT901BLE68-01(48591DE3C19B)	-0.238	-0.556	0.298	-1.465	19.775	-33.813	-70.98	10.17	-34.83	-60.956	-56.840	86.632	-0.79593	0.54031	-0.22745	0.15082	30.9	13111	100
2025-3-27 18:20:33.50	WT901BLE68-01(48591DE3C19B)	-0.238	-0.588	0.307	-5.493	22.217	-33.325	-71.07	9.94	-35.16	-60.956	-56.840	86.632	-0.79593	0.54031	-0.22745	0.15082	30.9	13111	100
2025-3-27 18:20:33.79	WT901BLE68-01(48591DE3C19B)	-0.318	-0.588	0.307	-5.493	22.217	-33.325	-71.16	9.72	-35.49	-64.190	-53.802	86.828	-0.79593	0.54031	-0.22745	0.15082	30.9	13111	100
2025-3-27 18:20:33.79	WT901BLE68-01(48591DE3C19B)	-0.318	-0.660	0.326	-7.813	18.066	-33.630	-71.26	9.49	-35.77	-64.190	-53.802	86.828	-0.79593	0.54031	-0.22745	0.15082	30.9	13111	100
2025-3-27 18:20:33.79	WT901BLE68-01(48591DE3C19B)	-0.406	-0.660	0.326	-7.813	18.066	-33.630	-71.36	9.26	-36.05	-64.190	-53.802	86.828	-0.79593	0.54031	-0.22745	0.15082	30.9	13111	100
2025-3-27 18:20:33.79	WT901BLE68-01(48591DE3C19B)	-0.406	-0.771	0.357	-8.972	4.456	-31.494	-71.44	9.01	-36.18	-64.190	-53.802	86.828	-0.79593	0.54031	-0.22745	0.15082	30.9	13111	100
2025-3-27 18:20:33.140	WT901BLE68-01(48591DE3C19B)	-0.477	-0.771	0.357	-8.972	4.456	-31.494	-71.52	8.78	-36.30	-64.190	-53.802	86.828	-0.79593	0.54031	-0.22745	0.15082	30.9	13111	100
2025-3-27 18:20:33.140	WT901BLE68-01(48591DE3C19B)	-0.477	-0.868	0.399	-7.385	-12.024	-28.931	-71.56	8.53	-36.25	-64.190	-53.802	86.828	-0.79593	0.54031	-0.22745	0.15082	30.9	13111	100
2025-3-27 18:20:33.140	WT901BLE68-01(48591DE3C19B)	-0.495	-0.868	0.399	-7.385	-12.024	-28.931	-71.60	8.28	-36.19	-64.190	-53.802	86.828	-0.79593	0.54031	-0.22745	0.15082	30.9	13111	100
2025-3-27 18:20:33.140	WT901BLE68-01(48591DE3C19B)	-0.495	-0.929	0.441	-4.089	-23.254	-26.001	-71.60	8.03	-36.02	-64.190	-53.802	86.828	-0.79593	0.54031	-0.22745	0.15082	30.9	13111	100
2025-3-27 18:20:33.177	WT901BLE68-01(48591DE3C19B)	-0.463	-0.929	0.441	-4.089	-23.254	-26.001	-71.59	7.79	-35.83	-64.190	-53.802	86.828	-0.79593	0.54031	-0.22745	0.15082	30.9	13111	100
2025-3-27 18:20:33.177	WT901BLE68-01(48591DE3C19B)	-0.463	-0.946	0.472	-1.648	-25.146	-20.874	-71.55	7.60	-35.61	-64.190	-53.802	86.828	-0.79593	0.54031	-0.22745	0.15082	30.9	13111	100
2025-3-27 18:20:33.177	WT901BLE68-01(48591DE3C19B)	-0.448	-0.946	0.472	-1.648	-25.146	-20.874	-71.52	7.40	-35.39	-64.190	-53.802	86.828	-0.79593	0.54031	-0.22745	0.15082	30.9	13111	100
2025-3-27 18:20:33.177	WT901BLE68-01(48591DE3C19B)	-0.448	-0.973	0.476	-1.709	-18.738	-15.747	-71.49	7.28	-35.21	-64.190	-53.802	86.828	-0.79593	0.54031	-0.22745	0.15082	30.9	13111	100
2025-3-27 18:20:33.202	WT901BLE68-01(48591DE3C19B)	-0.432	-0.973	0.476	-1.709	-18.738	-15.747	-71.46	7.16	-35.04	-64.190	-53.802	86.828	-0.79593	0.54031	-0.22745	0.15082	30.9	13111	100
2025-3-27 18:20:33.202	WT901BLE68-01(48591DE3C19B)	-0.432	-1.040	0.463	-2.563	-7.019	-12.878	-71.45	7.11	-34.96	-64.190	-53.802	86.828	-0.79593	0.54031	-0.22745	0.15082	30.9	13111	100
2025-3-27 18:20:33.202	WT901BLE68-01(48591DE3C19B)	-0.408	-1.040	0.463	-2.563	-7.019	-12.878	-71.44	7.05	-34.89	-64.190	-53.802	86.828	-0.79593	0.54031	-0.22745	0.15082	30.9	13111	100
2025-3-27 18:20:33.202	WT901BLE68-01(48591DE3C19B)	-0.408	-1.121	0.431	-4.028	7.019	-11.719	-71.47	7.05	-34.94	-64.190	-53.802	86.828	-0.79593	0.54031	-0.22745	0.15082	30.9	13111	100
2025-3-27 18:20:33.260	WT901BLE68-01(48591DE3C19B)	-0.396	-1.121	0.431	-4.028	7.019	-11.719	-71.49	7.05	-35.00	-64.190	-53.802	86.828	-0.79593	0.54031	-0.22745	0.15082	30.9	13111	100
2025-3-27 18:20:33.260	WT901BLE68-01(48591DE3C19B)	-0.396	-1.189	0.389	-7.324	21.912	-12.634	-71.58	7.08	-35.20	-64.190	-53.802	86.828	-0.78226	0.54120	-0.22488	0.21094	30.9	13111	100
2025-3-27 18:20:33.260	WT901BLE68-01(48591DE3C19B)	-0.435	-1.189	0.389	-7.324	21.912	-12.634	-71.66	7.11	-35.40	-64.190	-53.802	86.828	-0.78226	0.54120	-0.22488	0.21094	30.9	13111	100
2025-3-27 18:20:33.260	WT901BLE68-01(48591DE3C19B)	-0.435	-1.229	0.363	-12.451	32.898	-15.930	-71.81	7.14	-35.72	-64.190	-53.802	86.828	-0.78226	0.54120	-0.22488	0.21094	30.9	13111	100
2025-3-27 18:20:33.289	WT901BLE68-01(48591DE3C19B)	-0.471	-1.229	0.363	-12.451	32.898	-15.930	-71.97	7.17	-36.04	-64.190	-53.802	86.828	-0.78226	0.54120	-0.22488	0.21094	30.9	13111	100
2025-3-27 18:20:33.289	WT901BLE68-01(48591DE3C19B)	-0.532	-1.288	0.362	-20.813	38.025	-22.644	-72.21	7.15	-36.42	-64.190	-53.802	86.828	-0.78226	0.54120	-0.22488	0.21094	30.9	13111	100
2025-3-27 18:20:33.289	WT901BLE68-01(48591DE3C19B)	-0.532	-1.337	0.372	-29.053	33.447	-28.931	-72.51	7.09	-36.79	-64.190	-53.802	86.828	-0.78226	0.54120	-0.22488	0.21094	30.9	13111	100
2025-3-27 18:20:33.289	WT901BLE68-01(48591DE3C19B)	-0.591	-1.337	0.372	-29.053	33.447	-28.931	-72.84	6.99	-37.14	-64.190	-53.802	86.828	-0.78226	0.54120	-0.22488	0.21094	30.9	13111	100
2025-3-27 18:20:33.319	WT901BLE68-01(48591DE3C19B)	-0.591	-1.333	0.415	-35.583	17.944	-34.302	-73.20	6.84	-37.42	-64.190	-53.802	86.828	-0.78226	0.54120	-0.22488	0.21094	30.9	13111	100
2025-3-27 18:20:33.319	WT901BLE68-01(48591DE3C19B)	-0.641	-1.333	0.415	-35.583	17.944	-34.302	-73.58	6.65	-37.63	-64.190	-53.802	86.828	-0.78226	0.54120	-0.22488	0.21094	30.9	13111	100
2025-3-27 18:20:33.319	WT901BLE68-01(48591DE3C19B)	-0.641	-1.222	0.445	-37.354	-7.324	-32.410	-73.95	6.43	-37.71	-64.190	-53.802	86.828	-0.78226	0.54120	-0.22488	0.21094	30.9	13111	100
2025-3-27 18:20:33.320	WT901BLE68-01(48591DE3C19B)	-0.616	-1.222	0.445	-37.354	-7.324	-32.410	-74.32	6.19	-37.66	-64.190	-53.802	86.828	-0.78226	0.54120	-0.22488	0.21094	30.9	13111	100
2025-3-27 18:20:33.380	WT901BLE68-01(48591DE3C19B)	-0.616	-0.995	0.410	-37.415	-42.542	-17.456	-74.66	5.98	-37.42	-64.190	-53.802	86.828	-0.78226	0.54120	-0.22488	0.21094	30.9	13111	100
2025-3-27 18:20:33.380	WT901BLE68-01(48591DE3C19B)	-0.519	-0.995	0.410	-37.415	-42.542	-17.456	-74.98	5.81	-36.98	-64.190	-53.802	86.828	-0.78226	0.54120	-0.22488	0.21094	30.9	13111	100
2025-3-27 18:20:33.380	WT901BLE68-01(48591DE3C19B)	-0.519	-0.783	0.315	-37.170	-76.782	8.057	-75.28	5.71	-36.34	-64.190	-53.802	86.828	-0.78226	0.54120	-0.22488	0.21094	30.9	13111	100
2025-3-27 18:20:33.380	WT901BLE68-01(48591DE3C19B)	-0.380	-0.783	0.315	-37.170	-76.782	8.057	-75.56	5.71	-35.50	-64.190	-53.802	86.828	-0.78226	0.54120	-0.22488	0.21094	30.9	13111	100
2025-3-27 18:20:33.412	WT901BLE68-01(48591DE3C19B)	-0.380	-0.680	0.164	-41.199	-103.149	30.029	-75.84	5.79	-34.50	-64.190	-53.802	86.828	-0.78226	0.54120	-0.22488	0.21094	30.9	13111	100
2025-3-27 18:20:33.412	WT901BLE68-01(48591DE3C19B)	-0.225	-0.680	0.164	-41.199	-103.149	30.029	-76.12	5.95	-33.35	-64.190	-53.802	86.828	-0.78226	0.54120	-0.22488	0.21094	30.9	13111	100
2025-3-27 18:20:33.412	WT901BLE68-01(48591DE3C19B)	-0.225	-0.737	0.027	-44.189	-121.826	47.852	-76.41	6.17	-32.10	-64.190	-53.802	86.828	-0.78226	0.54120	-0.22488	0.21094	30.9	13111	100
2025-3-27 18:20:33.412	WT901BLE68-01(48591DE3C19B)	-0.146	-0.737	0.027	-44.189	-121.826	47.852	-76.69	6.47	-30.74	-64.190	-53.802	86.828	-0.78226	0.54120	-0.22488	0.21094	30.9	13111	100
2025-3-27 18:20:33.442	WT901BLE68-01(48591DE3C19B)	-0.146	-0.823	-0.036	-39.795	-130.981	57.251	-76.94	6.80	-29.33	-64.190	-53.802	86.828	-0.78226	0.54120	-0.22488	0.21094	30.9	13111	100
2025-3-27 18:20:33.442	WT901BLE68-01(48591DE3C19B)	-0.104	-0.823	-0.036	-39.795	-130.981	57.251	-77.16	7.15	-27.88	-64.190	-53.802	86.828	-0.78226	0.54120	-0.22488	0.21094	30.9	13111	100
2025-3-27 18:20:33.442	WT901BLE68-01(48591DE3C19B)	-0.104	-0.897	-0.026	-30.945	-128.845	60.791	-77.34	7.53	-26.45	-61.348	-58.016	85.554	-0.78226	0.54120	-0.22488	0.21094	30.9	13111	100
2025-3-27 18:20:33.442	WT901BLE68-01(48591DE3C19B)	-0.113	-0.897	-0.026	-30.945	-128.845	60.791	-77.46	7.92	-25.03	-61.348	-58.016	85.554	-0.78226	0.54120	-0.22488	0.21094	30.9	13111	100
2025-3-27 18:20:33.500	WT901BLE68-01(48591DE3C19B)	-0.113	-0.922	0.028	-18.921	-120.422	60.303	-77.53	8.31	-23.68	-61.348	-58.016	85.554	-0.78226	0.54120	-0.22488	0.21094	30.9	13111	100
2025-3-27 18:20:33.501	WT901BLE68-01(48591DE3C19B)	-0.114	-0.922	0.028	-18.921	-120.422	60.303	-77.54	8.69	-22.37	-61.348	-58.016	85.554	-0.78226	0.54120	-0.22488	0.21094	30.9	13111	100
2025-3-27 18:20:33.501	WT901BLE68-01(48591DE3C19B)	-0.114	-0.989	0.083	-10.193	-106.934	56.274	-77.50	9.06	-21.14	-61.348	-58.016	85.554	-0.78226	0.54120	-0.22488	0.21094	30.9	13111	100
2025-3-27 18:20:33.501	WT901BLE68-01(48591DE3C19B)	-0.097	-0.989	0.083	-10.193	-106.934	56.274	-77.44	9.43	-19.99	-61.348	-58.016	85.554	-0.78226	0.54120	-0.22488	0.21094	30.9	13111	100
2025-3-27 18:20:33.529	WT901BLE68-01(48591DE3C19B)	-0.097	-0.971	0.113	4.883	-88.440	54.993	-77.31	9.79	-18.95	-61.348	-58.016	85.554	-0.78226	0.54120	-0.22488	0.21094	30.9	13111	100
2025-3-27 18:20:33.529	WT901BLE68-01(48591DE3C19B)	-0.042	-0.971	0.113	4.883	-88.440	54.993	-77.11	10.16	-18.00	-61.348	-58.016	85.554	-0.78226	0.54120	-0.22488	0.21094	30.9	13111	100
2025-3-27 18:20:33.530	WT901BLE68-01(48591DE3C19B)	-0.042	-0.849	0.103	10.742	-62.195	55.542	-76.90	10.55	-17.19	-61.348	-58.016	85.554	-0.78226	0.54120	-0.22488	0.21094	30.9	13111	100
2025-3-27 18:20:33.532	WT901BLE68-01(48591DE3C19B)	-0.038	-0.849	0.103	10.742	-62.195	55.542	-76.68	10.96	-16.51	-61.348	-58.016	85.554	-0.78226	0.54120	-0.22488	0.21094	30.9	13111	100
2025-3-27 18:20:33.560	WT901BLE68-01(48591DE3C19B)	-0.038	-0.806	0.055	8.850	-40.649	58.167	-76.50	11.40	-15.94	-61.348	-58.016	85.554	-0.78226	0.54120	-0.22488	0.21094	30.9	13111	100
2025-3-27 18:20:33.560	WT901BLE68-01(48591DE3C19B)	-0.013	-0.806	0.055	8.850	-40.649	58.167	-76.33	11.87	-15.48	-61.348	-58.016	85.554	-0.78226	0.54120	-0.22488	0.21094	30.9	13111	100
2025-3-27 18:20:33.560	WT901BLE68-01(48591DE3C19B)	-0.013	-0.839	0.004	4.761	-31.677	58.533	-76.21	12.34	-15.07	-61.348	-58.016	85.554	-0.78226	0.54120	-0.22488	0.21094	30.9	13111	100
2025-3-27 18:20:33.560	WT901BLE68-01(48591DE3C19B)	0.056	-0.839	0.004	4.761	-31.677	58.533	-76.10	12.82	-14.70	-61.348	-58.016	85.554	-0.78226	0.54120	-0.22488	0.21094	30.9	13111	100
2025-3-27 18:20:33.623	WT901BLE68-01(48591DE3C19B)	0.056	-0.883	-0.015	0.183	-28.137	56.335	-76.03	13.28	-14.36	-61.348	-58.016	85.554	-0.78226	0.54120	-0.22488	0.21094	30.9	13111	100
2025-3-27 18:20:33.623	WT901BLE68-01(48591DE3C19B)	0.079	-0.883	-0.015	0.183	-28.137	56.335	-75.99	13.73	-14.04	-61.348	-58.016	85.554	-0.78226	0.54120	-0.22488	0.21094	30.9	13111	100
2025-3-27 18:20:33.623	WT901BLE68-01(48591DE3C19B)	0.079	-0.957	-0.003	-6.714	-27.954	53.101	-75.99	14.16	-13.74	-61.348	-58.016	85.554	-0.78226	0.54120	-0.22488	0.21094	30.9	13111	100
2025-3-27 18:20:33.623	WT901BLE68-01(48591DE3C19B)	0.062	-0.957	-0.003	-6.714	-27.954	53.101	-76.02	14.56	-13.44	-61.348	-58.016	85.554	-0.78226	0.54120	-0.22488	0.21094	30.9	13111	100
2025-3-27 18:20:33.652	WT901BLE68-01(48591DE3C19B)	0.062	-1.097	0.015	-9.827	-29.053	47.424	-76.07	14.92	-13.15	-61.348	-58.016	85.554	-0.78226	0.54120	-0.22488	0.21094	30.9	13111	100
2025-3-27 18:20:33.652	WT901BLE68-01(48591DE3C19B)	0.080	-1.097	0.015	-9.827	-29.053	47.424	-76.14	15.25	-12.87	-61.348	-58.016	85.554	-0.78226	0.54120	-0.22488	0.21094	30.9	13111	100
2025-3-27 18:20:33.652	WT901BLE68-01(48591DE3C19B)	0.080	-1.253	0.037	-9.033	-27.100	39.734	-76.21	15.55	-12.61	-61.348	-58.016	85.554	-0.78226	0.54120	-0.22488	0.21094	30.9	13111	100
2025-3-27 18:20:33.652	WT901BLE68-01(48591DE3C19B)	0.097	-1.253	0.037	-9.033	-27.100	39.734	-76.28	15.79	-12.38	-61.348	-58.016	85.554	-0.78336	0.59671	-0.17361	-0.00186	30.9	13111	100
2025-3-27 18:20:33.681	WT901BLE68-01(48591DE3C19B)	0.097	-1.386	0.037	-4.272	-20.691	30.579	-76.34	16.00	-12.19	-61.348	-58.016	85.554	-0.78336	0.59671	-0.17361	-0.00186	30.9	13111	100
2025-3-27 18:20:33.682	WT901BLE68-01(48591DE3C19B)	0.112	-1.386	0.037	-4.272	-20.691	30.579	-76.39	16.17	-12.05	-61.348	-58.016	85.554	-0.78336	0.59671	-0.17361	-0.00186	30.9	13111	100
2025-3-27 18:20:33.682	WT901BLE68-01(48591DE3C19B)	0.112	-1.445	0.048	2.502	-12.817	21.240	-76.42	16.30	-11.97	-61.348	-58.016	85.554	-0.78336	0.59671	-0.17361	-0.00186	30.9	13111	100
2025-3-27 18:20:33.682	WT901BLE68-01(48591DE3C19B)	0.136	-1.445	0.048	2.502	-12.817	21.240	-76.43	16.39	-11.94	-61.348	-58.016	85.554	-0.78336	0.59671	-0.17361	-0.00186	30.9	13111	100
2025-3-27 18:20:33.740	WT901BLE68-01(48591DE3C19B)	0.136	-1.450	0.077	9.766	-6.958	12.817	-76.42	16.44	-11.95	-61.348	-58.016	85.554	-0.78336	0.59671	-0.17361	-0.00186	30.9	13111	100
2025-3-27 18:20:33.740	WT901BLE68-01(48591DE3C19B)	0.188	-1.450	0.077	9.766	-6.958	12.817	-76.39	16.46	-12.00	-61.348	-58.016	85.554	-0.78336	0.59671	-0.17361	-0.00186	30.9	13111	100
2025-3-27 18:20:33.740	WT901BLE68-01(48591DE3C19B)	0.188	-1.406	0.103	17.273	2.502	5.005	-76.33	16.45	-12.11	-61.348	-58.016	85.554	-0.78336	0.59671	-0.17361	-0.00186	30.9	13111	100
2025-3-27 18:20:33.740	WT901BLE68-01(48591DE3C19B)	0.245	-1.406	0.103	17.273	2.502	5.005	-76.25	16.40	-12.28	-61.348	-58.016	85.554	-0.78336	0.59671	-0.17361	-0.00186	30.9	13111	100
2025-3-27 18:20:33.768	WT901BLE68-01(48591DE3C19B)	0.245	-1.430	0.102	24.170	20.020	-2.991	-76.16	16.31	-12.65	-61.348	-58.016	85.554	-0.78336	0.59671	-0.17361	-0.00186	30.9	13111	100
2025-3-27 18:20:33.768	WT901BLE68-01(48591DE3C19B)	0.267	-1.430	0.102	24.170	20.020	-2.991	-76.07	16.23	-13.01	-61.348	-58.016	85.554	-0.78336	0.59671	-0.17361	-0.00186	30.9	13111	100
2025-3-27 18:20:33.769	WT901BLE68-01(48591DE3C19B)	0.267	-1.438	0.063	33.875	47.485	-11.169	-75.96	16.13	-13.68	-61.348	-58.016	85.554	-0.78336	0.59671	-0.17361	-0.00186	30.9	13111	100
2025-3-27 18:20:33.769	WT901BLE68-01(48591DE3C19B)	0.215	-1.438	0.063	33.875	47.485	-11.169	-75.86	16.02	-14.34	-61.348	-58.016	85.554	-0.78336	0.59671	-0.17361	-0.00186	30.9	13111	100
2025-3-27 18:20:33.800	WT901BLE68-01(48591DE3C19B)	0.215	-1.321	0.043	41.260	73.242	-19.592	-75.76	15.90	-15.28	-61.348	-58.016	85.554	-0.78336	0.59671	-0.17361	-0.00186	30.9	13111	100
2025-3-27 18:20:33.801	WT901BLE68-01(48591DE3C19B)	0.143	-1.321	0.043	41.260	73.242	-19.592	-75.66	15.77	-16.22	-61.348	-58.016	85.554	-0.78336	0.59671	-0.17361	-0.00186	30.9	13111	100
2025-3-27 18:20:33.801	WT901BLE68-01(48591DE3C19B)	0.143	-1.159	0.049	40.039	87.341	-28.381	-75.62	15.60	-17.31	-61.348	-58.016	85.554	-0.78336	0.59671	-0.17361	-0.00186	30.9	13111	100
2025-3-27 18:20:33.801	WT901BLE68-01(48591DE3C19B)	0.083	-1.159	0.049	40.039	87.341	-28.381	-75.56	15.42	-18.40	-61.348	-58.016	85.554	-0.78336	0.59671	-0.17361	-0.00186	30.9	13111	100
2025-3-27 18:20:33.860	WT901BLE68-01(48591DE3C19B)	0.083	-0.959	0.109	34.973	92.102	-32.776	-75.57	15.22	-19.54	-61.348	-58.016	85.554	-0.78336	0.59671	-0.17361	-0.00186	30.9	13111	100
2025-3-27 18:20:33.860	WT901BLE68-01(48591DE3C19B)	0.017	-0.959	0.109	34.973	92.102	-32.776	-75.58	15.02	-20.67	-61.348	-58.016	85.554	-0.78336	0.59671	-0.17361	-0.00186	30.9	13111	100
2025-3-27 18:20:33.861	WT901BLE68-01(48591DE3C19B)	0.017	-0.835	0.187	24.475	85.266	-34.912	-75.66	14.78	-21.74	-61.348	-58.016	85.554	-0.78336	0.59671	-0.17361	-0.00186	30.9	13111	100
2025-3-27 18:20:33.861	WT901BLE68-01(48591DE3C19B)	-0.036	-0.835	0.187	24.475	85.266	-34.912	-75.73	14.54	-22.79	-61.348	-58.016	85.554	-0.78336	0.59671	-0.17361	-0.00186	30.9	13111	100
2025-3-27 18:20:33.888	WT901BLE68-01(48591DE3C19B)	-0.036	-0.817	0.255	15.259	71.289	-34.607	-75.86	14.27	-23.70	-63.602	-48.608	86.926	-0.78336	0.59671	-0.17361	-0.00186	30.9	13111	100
2025-3-27 18:20:33.889	WT901BLE68-01(48591DE3C19B)	-0.055	-0.817	0.255	15.259	71.289	-34.607	-75.96	14.01	-24.61	-63.602	-48.608	86.926	-0.78336	0.59671	-0.17361	-0.00186	30.9	13111	100
2025-3-27 18:20:33.889	WT901BLE68-01(48591DE3C19B)	-0.055	-0.821	0.290	9.216	53.589	-32.898	-76.07	13.72	-25.33	-63.602	-48.608	86.926	-0.78336	0.59671	-0.17361	-0.00186	30.9	13111	100
2025-3-27 18:20:33.889	WT901BLE68-01(48591DE3C19B)	-0.064	-0.821	0.290	9.216	53.589	-32.898	-76.17	13.43	-26.04	-63.602	-48.608	86.926	-0.78336	0.59671	-0.17361	-0.00186	30.9	13111	100
2025-3-27 18:20:33.920	WT901BLE68-01(48591DE3C19B)	-0.064	-0.826	0.288	4.395	36.865	-32.898	-76.28	13.11	-26.58	-63.602	-48.608	86.926	-0.78336	0.59671	-0.17361	-0.00186	30.9	13111	100
2025-3-27 18:20:33.920	WT901BLE68-01(48591DE3C19B)	-0.081	-0.826	0.288	4.395	36.865	-32.898	-76.37	12.79	-27.12	-63.602	-48.608	86.926	-0.78336	0.59671	-0.17361	-0.00186	30.9	13111	100
2025-3-27 18:20:33.920	WT901BLE68-01(48591DE3C19B)	-0.081	-0.832	0.244	3.052	27.283	-37.903	-76.44	12.40	-27.58	-63.602	-48.608	86.926	-0.78336	0.59671	-0.17361	-0.00186	30.9	13111	100
2025-3-27 18:20:33.920	WT901BLE68-01(48591DE3C19B)	-0.101	-0.832	0.244	3.052	27.283	-37.903	-76.51	12.02	-28.02	-63.602	-48.608	86.926	-0.78336	0.59671	-0.17361	-0.00186	30.9	13111	100
2025-3-27 18:20:33.980	WT901BLE68-01(48591DE3C19B)	-0.101	-0.856	0.202	1.343	23.926	-45.593	-76.60	11.57	-28.45	-63.602	-48.608	86.926	-0.78336	0.59671	-0.17361	-0.00186	30.9	13111	100
2025-3-27 18:20:33.980	WT901BLE68-01(48591DE3C19B)	-0.122	-0.856	0.202	1.343	23.926	-45.593	-76.67	11.11	-28.87	-63.602	-48.608	86.926	-0.78336	0.59671	-0.17361	-0.00186	30.9	13111	100
2025-3-27 18:20:33.980	WT901BLE68-01(48591DE3C19B)	-0.122	-0.912	0.187	1.709	24.719	-52.917	-76.74	10.60	-29.31	-63.602	-48.608	86.926	-0.78336	0.59671	-0.17361	-0.00186	30.9	13111	100
2025-3-27 18:20:33.980	WT901BLE68-01(48591DE3C19B)	-0.132	-0.912	0.187	1.709	24.719	-52.917	-76.81	10.09	-29.75	-63.602	-48.608	86.926	-0.78336	0.59671	-0.17361	-0.00186	30.9	13111	100
2025-3-27 18:20:34.11	WT901BLE68-01(48591DE3C19B)	-0.132	-0.897	0.188	5.554	28.442	-59.021	-76.83	9.54	-30.23	-63.602	-48.608	86.926	-0.78336	0.59671	-0.17361	-0.00186	30.9	13111	100
2025-3-27 18:20:34.11	WT901BLE68-01(48591DE3C19B)	-0.149	-0.897	0.188	5.554	28.442	-59.021	-76.85	8.99	-30.71	-63.602	-48.608	86.926	-0.78336	0.59671	-0.17361	-0.00186	30.9	13111	100
2025-3-27 18:20:34.12	WT901BLE68-01(48591DE3C19B)	-0.149	-0.782	0.219	8.179	34.851	-62.134	-76.86	8.43	-31.26	-63.602	-48.608	86.926	-0.78336	0.59671	-0.17361	-0.00186	30.9	13111	100
2025-3-27 18:20:34.12	WT901BLE68-01(48591DE3C19B)	-0.174	-0.782	0.219	8.179	34.851	-62.134	-76.85	7.88	-31.79	-63.602	-48.608	86.926	-0.78336	0.59671	-0.17361	-0.00186	30.9	13111	100
2025-3-27 18:20:34.41	WT901BLE68-01(48591DE3C19B)	-0.174	-0.670	0.244	7.935	42.053	-62.622	-76.85	7.35	-32.40	-63.602	-48.608	86.926	-0.78336	0.59671	-0.17361	-0.00186	30.9	13111	100
2025-3-27 18:20:34.41	WT901BLE68-01(48591DE3C19B)	-0.221	-0.670	0.244	7.935	42.053	-62.622	-76.84	6.83	-33.00	-63.602	-48.608	86.926	-0.78336	0.59671	-0.17361	-0.00186	30.9	13111	100
2025-3-27 18:20:34.41	WT901BLE68-01(48591DE3C19B)	-0.221	-0.579	0.267	5.554	44.556	-61.035	-76.85	6.33	-33.61	-63.602	-48.608	86.926	-0.75870	0.58148	-0.22086	0.19330	30.9	13111	100
2025-3-27 18:20:34.41	WT901BLE68-01(48591DE3C19B)	-0.272	-0.579	0.267	5.554	44.556	-61.035	-76.84	5.85	-34.22	-63.602	-48.608	86.926	-0.75870	0.58148	-0.22086	0.19330	30.9	13111	100
2025-3-27 18:20:34.100	WT901BLE68-01(48591DE3C19B)	-0.272	-0.564	0.285	0.488	37.781	-58.838	-76.87	5.38	-34.76	-63.602	-48.608	86.926	-0.75870	0.58148	-0.22086	0.19330	30.9	13111	100
2025-3-27 18:20:34.100	WT901BLE68-01(48591DE3C19B)	-0.310	-0.564	0.285	0.488	37.781	-58.838	-76.89	4.92	-35.28	-63.602	-48.608	86.926	-0.75870	0.58148	-0.22086	0.19330	30.9	13111	100
2025-3-27 18:20:34.100	WT901BLE68-01(48591DE3C19B)	-0.310	-0.628	0.303	-3.113	24.109	-54.993	-76.93	4.48	-35.66	-63.602	-48.608	86.926	-0.75870	0.58148	-0.22086	0.19330	30.9	13111	100
2025-3-27 18:20:34.101	WT901BLE68-01(48591DE3C19B)	-0.355	-0.628	0.303	-3.113	24.109	-54.993	-76.95	4.04	-36.04	-63.602	-48.608	86.926	-0.75870	0.58148	-0.22086	0.19330	30.9	13111	100
2025-3-27 18:20:34.128	WT901BLE68-01(48591DE3C19B)	-0.355	-0.757	0.338	-5.676	6.714	-49.927	-76.99	3.63	-36.23	-63.602	-48.608	86.926	-0.75870	0.58148	-0.22086	0.19330	30.9	13111	100
2025-3-27 18:20:34.129	WT901BLE68-01(48591DE3C19B)	-0.404	-0.757	0.338	-5.676	6.714	-49.927	-77.01	3.22	-36.41	-63.602	-48.608	86.926	-0.75870	0.58148	-0.22086	0.19330	30.9	13111	100
2025-3-27 18:20:34.129	WT901BLE68-01(48591DE3C19B)	-0.404	-0.950	0.369	-6.042	-11.169	-46.082	-77.04	2.82	-36.40	-63.602	-48.608	86.926	-0.75870	0.58148	-0.22086	0.19330	30.9	13111	100
2025-3-27 18:20:34.129	WT901BLE68-01(48591DE3C19B)	-0.412	-0.950	0.369	-6.042	-11.169	-46.082	-77.06	2.43	-36.39	-63.602	-48.608	86.926	-0.75870	0.58148	-0.22086	0.19330	30.9	13111	100
2025-3-27 18:20:34.159	WT901BLE68-01(48591DE3C19B)	-0.412	-1.154	0.355	-3.113	-24.658	-44.434	-77.05	2.03	-36.25	-63.602	-48.608	86.926	-0.75870	0.58148	-0.22086	0.19330	30.9	13111	100
2025-3-27 18:20:34.159	WT901BLE68-01(48591DE3C19B)	-0.361	-1.154	0.355	-3.113	-24.658	-44.434	-77.04	1.64	-36.10	-63.602	-48.608	86.926	-0.75870	0.58148	-0.22086	0.19330	30.9	13111	100
2025-3-27 18:20:34.159	WT901BLE68-01(48591DE3C19B)	-0.361	-1.284	0.325	3.418	-24.231	-41.992	-76.97	1.26	-35.95	-63.602	-48.608	86.926	-0.75870	0.58148	-0.22086	0.19330	30.9	13111	100
2025-3-27 18:20:34.160	WT901BLE68-01(48591DE3C19B)	-0.283	-1.284	0.325	3.418	-24.231	-41.992	-76.90	0.90	-35.80	-63.602	-48.608	86.926	-0.75870	0.58148	-0.22086	0.19330	30.9	13111	100
2025-3-27 18:20:34.221	WT901BLE68-01(48591DE3C19B)	-0.283	-1.266	0.314	7.385	-5.432	-37.354	-76.81	0.62	-35.83	-63.602	-48.608	86.926	-0.75870	0.58148	-0.22086	0.19330	30.9	13111	100
2025-3-27 18:20:34.221	WT901BLE68-01(48591DE3C19B)	-0.256	-1.266	0.314	7.385	-5.432	-37.354	-76.71	0.33	-35.85	-63.602	-48.608	86.926	-0.75870	0.58148	-0.22086	0.19330	30.9	13111	100
2025-3-27 18:20:34.222	WT901BLE68-01(48591DE3C19B)	-0.231	-1.175	0.315	7.874	26.550	-27.588	-76.61	0.21	-36.16	-63.602	-48.608	86.926	-0.75870	0.58148	-0.22086	0.19330	30.9	13111	100
2025-3-27 18:20:34.222	WT901BLE68-01(48591DE3C19B)	-0.231	-0.989	0.319	5.127	67.505	-17.090	-76.54	0.19	-36.67	-63.602	-48.608	86.926	-0.75870	0.58148	-0.22086	0.19330	30.9	13111	100
2025-3-27 18:20:34.251	WT901BLE68-01(48591DE3C19B)	-0.242	-0.989	0.319	5.127	67.505	-17.090	-76.46	0.27	-37.35	-63.602	-48.608	86.926	-0.75870	0.58148	-0.22086	0.19330	30.9	13111	100
2025-3-27 18:20:34.251	WT901BLE68-01(48591DE3C19B)	-0.242	-0.878	0.343	-2.380	95.764	-8.606	-76.44	0.42	-38.16	-63.602	-48.608	86.926	-0.75870	0.58148	-0.22086	0.19330	30.9	13111	100
2025-3-27 18:20:34.251	WT901BLE68-01(48591DE3C19B)	-0.311	-0.878	0.343	-2.380	95.764	-8.606	-76.45	0.65	-39.10	-63.602	-48.608	86.926	-0.75870	0.58148	-0.22086	0.19330	30.9	13111	100
2025-3-27 18:20:34.251	WT901BLE68-01(48591DE3C19B)	-0.311	-0.890	0.357	-12.085	102.844	-2.502	-76.51	0.91	-40.06	-67.620	-47.040	82.810	-0.75870	0.58148	-0.22086	0.19330	30.9	13111	100
2025-3-27 18:20:34.281	WT901BLE68-01(48591DE3C19B)	-0.427	-0.890	0.357	-12.085	102.844	-2.502	-76.63	1.21	-41.04	-67.620	-47.040	82.810	-0.75870	0.58148	-0.22086	0.19330	30.9	13111	100
2025-3-27 18:20:34.281	WT901BLE68-01(48591DE3C19B)	-0.427	-1.008	0.323	-20.935	91.553	5.371	-76.79	1.53	-41.96	-67.620	-47.040	82.810	-0.75870	0.58148	-0.22086	0.19330	30.9	13111	100
2025-3-27 18:20:34.281	WT901BLE68-01(48591DE3C19B)	-0.563	-1.008	0.323	-20.935	91.553	5.371	-77.00	1.87	-42.81	-67.620	-47.040	82.810	-0.75870	0.58148	-0.22086	0.19330	30.9	13111	100
2025-3-27 18:20:34.281	WT901BLE68-01(48591DE3C19B)	-0.563	-1.105	0.287	-22.400	63.293	9.460	-77.21	2.21	-43.52	-67.620	-47.040	82.810	-0.75870	0.58148	-0.22086	0.19330	30.9	13111	100
2025-3-27 18:20:34.340	WT901BLE68-01(48591DE3C19B)	-0.597	-1.105	0.287	-22.400	63.293	9.460	-77.44	2.54	-44.07	-67.620	-47.040	82.810	-0.75870	0.58148	-0.22086	0.19330	30.9	13111	100
2025-3-27 18:20:34.340	WT901BLE68-01(48591DE3C19B)	-0.597	-1.137	0.264	-21.118	25.085	14.343	-77.65	2.85	-44.42	-67.620	-47.040	82.810	-0.75870	0.58148	-0.22086	0.19330	30.9	13111	100
2025-3-27 18:20:34.340	WT901BLE68-01(48591DE3C19B)	-0.553	-1.137	0.264	-21.118	25.085	14.343	-77.85	3.14	-44.59	-67.620	-47.040	82.810	-0.75870	0.58148	-0.22086	0.19330	30.9	13111	100
2025-3-27 18:20:34.340	WT901BLE68-01(48591DE3C19B)	-0.553	-1.138	0.208	-18.188	-8.179	24.353	-78.04	3.45	-44.57	-67.620	-47.040	82.810	-0.75870	0.58148	-0.22086	0.19330	30.9	13111	100
2025-3-27 18:20:34.368	WT901BLE68-01(48591DE3C19B)	-0.465	-1.138	0.208	-18.188	-8.179	24.353	-78.20	3.78	-44.38	-67.620	-47.040	82.810	-0.75870	0.58148	-0.22086	0.19330	30.9	13111	100
2025-3-27 18:20:34.369	WT901BLE68-01(48591DE3C19B)	-0.465	-1.055	0.150	-15.991	-39.429	39.429	-78.34	4.15	-44.03	-67.620	-47.040	82.810	-0.75870	0.58148	-0.22086	0.19330	30.9	13111	100
2025-3-27 18:20:34.369	WT901BLE68-01(48591DE3C19B)	-0.350	-1.055	0.150	-15.991	-39.429	39.429	-78.45	4.56	-43.50	-67.620	-47.040	82.810	-0.75870	0.58148	-0.22086	0.19330	30.9	13111	100
2025-3-27 18:20:34.369	WT901BLE68-01(48591DE3C19B)	-0.350	-1.020	0.091	-20.508	-65.369	54.077	-78.58	5.02	-42.84	-67.620	-47.040	82.810	-0.75870	0.58148	-0.22086	0.19330	30.9	13111	100
2025-3-27 18:20:34.400	WT901BLE68-01(48591DE3C19B)	-0.253	-1.020	0.091	-20.508	-65.369	54.077	-78.71	5.52	-42.04	-67.620	-47.040	82.810	-0.75870	0.58148	-0.22086	0.19330	30.9	13111	100
2025-3-27 18:20:34.400	WT901BLE68-01(48591DE3C19B)	-0.253	-1.038	0.050	-22.827	-84.534	67.993	-78.84	6.06	-41.13	-67.620	-47.040	82.810	-0.75870	0.58148	-0.22086	0.19330	30.9	13111	100
2025-3-27 18:20:34.400	WT901BLE68-01(48591DE3C19B)	-0.149	-1.038	0.050	-22.827	-84.534	67.993	-78.97	6.65	-40.13	-67.620	-47.040	82.810	-0.75870	0.58148	-0.22086	0.19330	30.9	13111	100
2025-3-27 18:20:34.400	WT901BLE68-01(48591DE3C19B)	-0.149	-1.086	0.021	-27.161	-94.299	80.139	-79.10	7.28	-39.08	-67.620	-47.040	82.810	-0.75870	0.58148	-0.22086	0.19330	30.9	13111	100
2025-3-27 18:20:34.490	WT901BLE68-01(48591DE3C19B)	-0.047	-1.086	0.021	-27.161	-94.299	80.139	-79.24	7.96	-37.97	-67.620	-47.040	82.810	-0.75870	0.58148	-0.22086	0.19330	30.9	13111	100
2025-3-27 18:20:34.490	WT901BLE68-01(48591DE3C19B)	-0.047	-1.164	0.010	-26.855	-97.046	90.454	-79.36	8.67	-36.85	-67.620	-47.040	82.810	-0.75870	0.58148	-0.22086	0.19330	30.9	13111	100
2025-3-27 18:20:34.490	WT901BLE68-01(48591DE3C19B)	0.090	-1.164	0.010	-26.855	-97.046	90.454	-79.46	9.43	-35.72	-67.620	-47.040	82.810	-0.75870	0.58148	-0.22086	0.19330	30.9	13111	100
2025-3-27 18:20:34.490	WT901BLE68-01(48591DE3C19B)	0.090	-1.069	0.040	-21.667	-98.389	97.961	-79.53	10.20	-34.58	-67.620	-47.040	82.810	-0.75870	0.58148	-0.22086	0.19330	30.9	13111	100
2025-3-27 18:20:34.491	WT901BLE68-01(48591DE3C19B)	0.198	-1.069	0.040	-21.667	-98.389	97.961	-79.56	11.00	-33.44	-67.620	-47.040	82.810	-0.75024	0.58875	-0.25375	0.16132	30.9	13111	100
2025-3-27 18:20:34.491	WT901BLE68-01(48591DE3C19B)	0.198	-0.890	0.082	-17.700	-85.266	101.135	-79.56	11.80	-32.37	-67.620	-47.040	82.810	-0.75024	0.58875	-0.25375	0.16132	30.9	13111	100
2025-3-27 18:20:34.492	WT901BLE68-01(48591DE3C19B)	0.235	-0.890	0.082	-17.700	-85.266	101.135	-79.55	12.63	-31.37	-67.620	-47.040	82.810	-0.75024	0.58875	-0.25375	0.16132	30.9	13111	100
2025-3-27 18:20:34.492	WT901BLE68-01(48591DE3C19B)	0.235	-0.786	0.085	-15.808	-54.626	97.351	-79.54	13.44	-30.54	-67.620	-47.040	82.810	-0.75024	0.58875	-0.25375	0.16132	30.9	13111	100
2025-3-27 18:20:34.549	WT901BLE68-01(48591DE3C19B)	0.169	-0.786	0.085	-15.808	-54.626	97.351	-79.55	14.25	-29.87	-67.620	-47.040	82.810	-0.75024	0.58875	-0.25375	0.16132	30.9	13111	100
2025-3-27 18:20:34.550	WT901BLE68-01(48591DE3C19B)	0.169	-0.687	0.091	-15.930	-24.658	89.722	-79.60	15.03	-29.37	-67.620	-47.040	82.810	-0.75024	0.58875	-0.25375	0.16132	30.9	13111	100
2025-3-27 18:20:34.550	WT901BLE68-01(48591DE3C19B)	-0.001	-0.687	0.091	-15.930	-24.658	89.722	-79.68	15.80	-29.03	-67.620	-47.040	82.810	-0.75024	0.58875	-0.25375	0.16132	30.9	13111	100
2025-3-27 18:20:34.550	WT901BLE68-01(48591DE3C19B)	-0.001	-0.634	0.071	-18.860	-26.672	78.552	-79.77	16.50	-28.69	-67.620	-47.040	82.810	-0.75024	0.58875	-0.25375	0.16132	30.9	13111	100
2025-3-27 18:20:34.579	WT901BLE68-01(48591DE3C19B)	-0.084	-0.634	0.071	-18.860	-26.672	78.552	-79.88	17.13	-28.36	-67.620	-47.040	82.810	-0.75024	0.58875	-0.25375	0.16132	30.9	13111	100
2025-3-27 18:20:34.579	WT901BLE68-01(48591DE3C19B)	-0.084	-0.607	0.083	-19.531	-51.880	65.979	-79.94	17.68	-27.92	-67.620	-47.040	82.810	-0.75024	0.58875	-0.25375	0.16132	30.9	13111	100
2025-3-27 18:20:34.579	WT901BLE68-01(48591DE3C19B)	-0.052	-0.607	0.083	-19.531	-51.880	65.979	-79.97	18.15	-27.35	-67.620	-47.040	82.810	-0.75024	0.58875	-0.25375	0.16132	30.9	13111	100
2025-3-27 18:20:34.579	WT901BLE68-01(48591DE3C19B)	-0.052	-0.629	0.114	-22.766	-70.923	55.542	-79.97	18.54	-26.70	-67.620	-47.040	82.810	-0.75024	0.58875	-0.25375	0.16132	30.9	13111	100
2025-3-27 18:20:34.611	WT901BLE68-01(48591DE3C19B)	-0.025	-0.629	0.114	-22.766	-70.923	55.542	-79.97	18.87	-25.96	-67.620	-47.040	82.810	-0.75024	0.58875	-0.25375	0.16132	30.9	13111	100
2025-3-27 18:20:34.612	WT901BLE68-01(48591DE3C19B)	-0.025	-0.736	0.128	-23.682	-81.055	43.884	-79.94	19.14	-25.18	-67.620	-47.040	82.810	-0.75024	0.58875	-0.25375	0.16132	30.9	13111	100
2025-3-27 18:20:34.612	WT901BLE68-01(48591DE3C19B)	0.054	-0.736	0.128	-23.682	-81.055	43.884	-79.91	19.33	-24.36	-67.620	-47.040	82.810	-0.75024	0.58875	-0.25375	0.16132	30.9	13111	100
2025-3-27 18:20:34.612	WT901BLE68-01(48591DE3C19B)	0.054	-0.830	0.113	-23.315	-84.106	28.687	-79.87	19.45	-23.54	-67.620	-47.040	82.810	-0.75024	0.58875	-0.25375	0.16132	30.9	13111	100
2025-3-27 18:20:34.676	WT901BLE68-01(48591DE3C19B)	0.168	-0.830	0.113	-23.315	-84.106	28.687	-79.82	19.48	-22.73	-67.620	-47.040	82.810	-0.75024	0.58875	-0.25375	0.16132	30.9	13111	100
2025-3-27 18:20:34.676	WT901BLE68-01(48591DE3C19B)	0.168	-0.951	0.109	-25.940	-70.129	10.803	-79.82	19.43	-22.01	-66.836	-39.690	80.850	-0.75024	0.58875	-0.25375	0.16132	30.9	13111	100
2025-3-27 18:20:34.676	WT901BLE68-01(48591DE3C19B)	0.192	-0.951	0.109	-25.940	-70.129	10.803	-79.87	19.30	-21.38	-66.836	-39.690	80.850	-0.75024	0.58875	-0.25375	0.16132	30.9	13111	100
2025-3-27 18:20:34.676	WT901BLE68-01(48591DE3C19B)	0.192	-1.146	0.123	-25.269	-31.433	-6.226	-79.99	19.11	-20.98	-66.836	-39.690	80.850	-0.75024	0.58875	-0.25375	0.16132	30.9	13111	100
2025-3-27 18:20:34.700	WT901BLE68-01(48591DE3C19B)	0.146	-1.146	0.123	-25.269	-31.433	-6.226	-80.18	18.87	-20.80	-66.836	-39.690	80.850	-0.75024	0.58875	-0.25375	0.16132	30.9	13111	100
2025-3-27 18:20:34.701	WT901BLE68-01(48591DE3C19B)	0.146	-1.340	0.160	-15.442	11.597	-20.081	-80.43	18.57	-21.09	-66.836	-39.690	80.850	-0.75024	0.58875	-0.25375	0.16132	30.9	13111	100
2025-3-27 18:20:34.701	WT901BLE68-01(48591DE3C19B)	0.142	-1.340	0.160	-15.442	11.597	-20.081	-80.67	18.26	-21.38	-66.836	-39.690	80.850	-0.75024	0.58875	-0.25375	0.16132	30.9	13111	100
2025-3-27 18:20:34.701	WT901BLE68-01(48591DE3C19B)	0.142	-1.383	0.191	-1.465	52.734	-28.870	-80.91	17.94	-22.11	-66.836	-39.690	80.850	-0.75024	0.58875	-0.25375	0.16132	30.9	13111	100
2025-3-27 18:20:34.729	WT901BLE68-01(48591DE3C19B)	0.069	-1.383	0.191	-1.465	52.734	-28.870	-81.14	17.61	-22.84	-66.836	-39.690	80.850	-0.75024	0.58875	-0.25375	0.16132	30.9	13111	100
2025-3-27 18:20:34.729	WT901BLE68-01(48591DE3C19B)	0.069	-1.394	0.189	5.371	85.022	-34.851	-81.40	17.27	-23.89	-66.836	-39.690	80.850	-0.75024	0.58875	-0.25375	0.16132	30.9	13111	100
2025-3-27 18:20:34.729	WT901BLE68-01(48591DE3C19B)	-0.046	-1.394	0.189	5.371	85.022	-34.851	-81.64	16.93	-24.94	-66.836	-39.690	80.850	-0.75024	0.58875	-0.25375	0.16132	30.9	13111	100
2025-3-27 18:20:34.729	WT901BLE68-01(48591DE3C19B)	-0.046	-1.526	0.143	13.916	96.558	-37.842	-81.84	16.57	-26.10	-66.836	-39.690	80.850	-0.75024	0.58875	-0.25375	0.16132	30.9	13111	100
2025-3-27 18:20:34.789	WT901BLE68-01(48591DE3C19B)	-0.095	-1.526	0.143	13.916	96.558	-37.842	-82.02	16.22	-27.26	-66.836	-39.690	80.850	-0.75024	0.58875	-0.25375	0.16132	30.9	13111	100
2025-3-27 18:20:34.789	WT901BLE68-01(48591DE3C19B)	-0.095	-1.640	0.107	25.757	93.201	-39.063	-82.06	15.86	-28.36	-66.836	-39.690	80.850	-0.75024	0.58875	-0.25375	0.16132	30.9	13111	100
2025-3-27 18:20:34.790	WT901BLE68-01(48591DE3C19B)	-0.105	-1.640	0.107	25.757	93.201	-39.063	-82.11	15.50	-29.47	-66.836	-39.690	80.850	-0.75024	0.58875	-0.25375	0.16132	30.9	13111	100
2025-3-27 18:20:34.790	WT901BLE68-01(48591DE3C19B)	-0.105	-1.674	0.101	35.217	85.938	-39.001	-82.02	15.14	-30.48	-66.836	-39.690	80.850	-0.75024	0.58875	-0.25375	0.16132	30.9	13111	100
2025-3-27 18:20:34.821	WT901BLE68-01(48591DE3C19B)	-0.116	-1.674	0.101	35.217	85.938	-39.001	-81.94	14.79	-31.49	-66.836	-39.690	80.850	-0.75024	0.58875	-0.25375	0.16132	30.9	13111	100
2025-3-27 18:20:34.821	WT901BLE68-01(48591DE3C19B)	-0.116	-1.604	0.082	44.434	79.224	-39.734	-81.74	14.43	-32.42	-66.836	-39.690	80.850	-0.75024	0.58875	-0.25375	0.16132	30.9	13111	100
2025-3-27 18:20:34.821	WT901BLE68-01(48591DE3C19B)	-0.151	-1.604	0.082	44.434	79.224	-39.734	-81.54	14.07	-33.35	-66.836	-39.690	80.850	-0.75024	0.58875	-0.25375	0.16132	30.9	13111	100
2025-3-27 18:20:34.822	WT901BLE68-01(48591DE3C19B)	-0.151	-1.320	0.111	46.997	67.566	-42.542	-81.28	13.67	-34.16	-66.836	-39.690	80.850	-0.75024	0.58875	-0.25375	0.16132	30.9	13111	100
2025-3-27 18:20:34.851	WT901BLE68-01(48591DE3C19B)	-0.166	-1.320	0.111	46.997	67.566	-42.542	-81.01	13.29	-34.96	-66.836	-39.690	80.850	-0.75024	0.58875	-0.25375	0.16132	30.9	13111	100
2025-3-27 18:20:34.851	WT901BLE68-01(48591DE3C19B)	-0.166	-1.042	0.184	39.917	51.514	-47.607	-80.78	12.84	-35.61	-66.836	-39.690	80.850	-0.75024	0.58875	-0.25375	0.16132	30.9	13111	100
2025-3-27 18:20:34.851	WT901BLE68-01(48591DE3C19B)	-0.126	-1.042	0.184	39.917	51.514	-47.607	-80.54	12.40	-36.25	-66.836	-39.690	80.850	-0.74255	0.58435	-0.27777	0.17291	30.9	13111	100
2025-3-27 18:20:34.851	WT901BLE68-01(48591DE3C19B)	-0.126	-0.804	0.287	35.034	35.217	-51.086	-80.30	11.90	-36.74	-66.836	-39.690	80.850	-0.74255	0.58435	-0.27777	0.17291	30.9	13111	100
2025-3-27 18:20:34.910	WT901BLE68-01(48591DE3C19B)	-0.112	-0.804	0.287	35.034	35.217	-51.086	-80.06	11.41	-37.22	-66.836	-39.690	80.850	-0.74255	0.58435	-0.27777	0.17291	30.9	13111	100
2025-3-27 18:20:34.910	WT901BLE68-01(48591DE3C19B)	-0.112	-0.625	0.334	25.574	33.020	-48.889	-79.90	10.94	-37.68	-66.836	-39.690	80.850	-0.74255	0.58435	-0.27777	0.17291	30.9	13111	100
2025-3-27 18:20:34.910	WT901BLE68-01(48591DE3C19B)	-0.214	-0.625	0.334	25.574	33.020	-48.889	-79.73	10.48	-38.13	-66.836	-39.690	80.850	-0.74255	0.58435	-0.27777	0.17291	30.9	13111	100
2025-3-27 18:20:34.910	WT901BLE68-01(48591DE3C19B)	-0.214	-0.638	0.292	16.174	36.499	-44.128	-79.65	10.08	-38.61	-66.836	-39.690	80.850	-0.74255	0.58435	-0.27777	0.17291	30.9	13111	100
2025-3-27 18:20:34.939	WT901BLE68-01(48591DE3C19B)	-0.253	-0.638	0.292	16.174	36.499	-44.128	-79.55	9.69	-39.09	-66.836	-39.690	80.850	-0.74255	0.58435	-0.27777	0.17291	30.9	13111	100
2025-3-27 18:20:34.939	WT901BLE68-01(48591DE3C19B)	-0.253	-0.725	0.222	14.221	33.020	-41.321	-79.47	9.32	-39.52	-66.836	-39.690	80.850	-0.74255	0.58435	-0.27777	0.17291	30.9	13111	100
2025-3-27 18:20:34.939	WT901BLE68-01(48591DE3C19B)	-0.215	-0.725	0.222	14.221	33.020	-41.321	-79.38	8.97	-39.95	-66.836	-39.690	80.850	-0.74255	0.58435	-0.27777	0.17291	30.9	13111	100
2025-3-27 18:20:34.939	WT901BLE68-01(48591DE3C19B)	-0.215	-0.717	0.166	16.846	29.907	-37.964	-79.26	8.65	-40.34	-66.836	-39.690	80.850	-0.74255	0.58435	-0.27777	0.17291	30.9	13111	100
2025-3-27 18:20:35.0	WT901BLE68-01(48591DE3C19B)	-0.179	-0.717	0.166	16.846	29.907	-37.964	-79.13	8.33	-40.73	-66.836	-39.690	80.850	-0.74255	0.58435	-0.27777	0.17291	30.9	13111	100
2025-3-27 18:20:35.0	WT901BLE68-01(48591DE3C19B)	-0.179	-0.711	0.118	16.968	28.992	-34.607	-79.01	8.06	-41.09	-66.836	-39.690	80.850	-0.74255	0.58435	-0.27777	0.17291	30.9	13111	100
2025-3-27 18:20:35.0	WT901BLE68-01(48591DE3C19B)	-0.175	-0.711	0.118	16.968	28.992	-34.607	-78.88	7.78	-41.46	-66.836	-39.690	80.850	-0.74255	0.58435	-0.27777	0.17291	30.9	13111	100
2025-3-27 18:20:35.1	WT901BLE68-01(48591DE3C19B)	-0.175	-0.777	0.087	15.137	29.724	-31.555	-78.77	7.55	-41.82	-66.836	-39.690	80.850	-0.74255	0.58435	-0.27777	0.17291	30.9	13111	100
2025-3-27 18:20:35.31	WT901BLE68-01(48591DE3C19B)	-0.204	-0.777	0.087	15.137	29.724	-31.555	-78.67	7.31	-42.19	-66.836	-39.690	80.850	-0.74255	0.58435	-0.27777	0.17291	30.9	13111	100
2025-3-27 18:20:35.31	WT901BLE68-01(48591DE3C19B)	-0.204	-0.873	0.099	16.174	31.555	-28.870	-78.56	7.11	-42.56	-66.836	-39.690	80.850	-0.74255	0.58435	-0.27777	0.17291	30.9	13111	100
2025-3-27 18:20:35.31	WT901BLE68-01(48591DE3C19B)	-0.212	-0.873	0.099	16.174	31.555	-28.870	-78.45	6.92	-42.93	-66.836	-39.690	80.850	-0.74255	0.58435	-0.27777	0.17291	30.9	13111	100
2025-3-27 18:20:35.31	WT901BLE68-01(48591DE3C19B)	-0.212	-0.884	0.138	22.583	31.189	-25.024	-78.27	6.76	-43.28	-66.836	-39.690	80.850	-0.74255	0.58435	-0.27777	0.17291	30.9	13111	100
2025-3-27 18:20:35.61	WT901BLE68-01(48591DE3C19B)	-0.206	-0.884	0.138	22.583	31.189	-25.024	-78.10	6.60	-43.63	-66.836	-39.690	80.850	-0.74255	0.58435	-0.27777	0.17291	30.9	13111	100
2025-3-27 18:20:35.61	WT901BLE68-01(48591DE3C19B)	-0.206	-0.770	0.172	25.513	36.743	-19.775	-77.90	6.51	-44.03	-66.836	-39.690	80.850	-0.74255	0.58435	-0.27777	0.17291	30.9	13111	100
2025-3-27 18:20:35.61	WT901BLE68-01(48591DE3C19B)	-0.203	-0.770	0.172	25.513	36.743	-19.775	-77.71	6.43	-44.42	-66.836	-39.690	80.850	-0.74255	0.58435	-0.27777	0.17291	30.9	13111	100
2025-3-27 18:20:35.61	WT901BLE68-01(48591DE3C19B)	-0.203	-0.664	0.170	22.156	44.250	-13.733	-77.55	6.43	-44.87	-75.166	-34.202	75.950	-0.74255	0.58435	-0.27777	0.17291	30.9	13111	100
2025-3-27 18:20:35.92	WT901BLE68-01(48591DE3C19B)	-0.191	-0.664	0.170	22.156	44.250	-13.733	-77.39	6.43	-45.32	-75.166	-34.202	75.950	-0.74255	0.58435	-0.27777	0.17291	30.9	13111	100
2025-3-27 18:20:35.92	WT901BLE68-01(48591DE3C19B)	-0.191	-0.598	0.173	17.395	46.570	-8.850	-77.28	6.48	-45.79	-75.166	-34.202	75.950	-0.74255	0.58435	-0.27777	0.17291	30.9	13111	100
2025-3-27 18:20:35.92	WT901BLE68-01(48591DE3C19B)	-0.187	-0.598	0.173	17.395	46.570	-8.850	-77.16	6.54	-46.24	-75.166	-34.202	75.950	-0.74255	0.58435	-0.27777	0.17291	30.9	13111	100
2025-3-27 18:20:35.92	WT901BLE68-01(48591DE3C19B)	-0.187	-0.566	0.215	11.963	41.077	-6.226	-77.10	6.61	-46.64	-75.166	-34.202	75.950	-0.74255	0.58435	-0.27777	0.17291	30.9	13111	100
2025-3-27 18:20:35.149	WT901BLE68-01(48591DE3C19B)	-0.226	-0.566	0.215	11.963	41.077	-6.226	-77.03	6.68	-47.03	-75.166	-34.202	75.950	-0.74255	0.58435	-0.27777	0.17291	30.9	13111	100
2025-3-27 18:20:35.149	WT901BLE68-01(48591DE3C19B)	-0.318	-0.607	0.285	7.019	31.555	-7.446	-76.99	6.72	-47.34	-75.166	-34.202	75.950	-0.74255	0.58435	-0.27777	0.17291	30.9	13111	100
2025-3-27 18:20:35.149	WT901BLE68-01(48591DE3C19B)	-0.318	-0.761	0.361	5.676	17.029	-11.108	-76.95	6.74	-47.58	-75.166	-34.202	75.950	-0.74255	0.58435	-0.27777	0.17291	30.9	13111	100
2025-3-27 18:20:35.150	WT901BLE68-01(48591DE3C19B)	-0.349	-0.761	0.361	5.676	17.029	-11.108	-76.89	6.72	-47.75	-75.166	-34.202	75.950	-0.74255	0.58435	-0.27777	0.17291	30.9	13111	100
2025-3-27 18:20:35.179	WT901BLE68-01(48591DE3C19B)	-0.349	-0.941	0.380	10.315	-2.930	-13.550	-76.81	6.67	-47.82	-75.166	-34.202	75.950	-0.74255	0.58435	-0.27777	0.17291	30.9	13111	100
2025-3-27 18:20:35.179	WT901BLE68-01(48591DE3C19B)	-0.331	-0.941	0.380	10.315	-2.930	-13.550	-76.68	6.60	-47.80	-75.166	-34.202	75.950	-0.74255	0.58435	-0.27777	0.17291	30.9	13111	100
2025-3-27 18:20:35.179	WT901BLE68-01(48591DE3C19B)	-0.331	-1.069	0.318	15.564	-12.756	-15.991	-76.52	6.49	-47.74	-75.166	-34.202	75.950	-0.74255	0.58435	-0.27777	0.17291	30.9	13111	100
2025-3-27 18:20:35.179	WT901BLE68-01(48591DE3C19B)	-0.296	-1.069	0.318	15.564	-12.756	-15.991	-76.33	6.37	-47.63	-75.166	-34.202	75.950	-0.74255	0.58435	-0.27777	0.17291	30.9	13111	100
2025-3-27 18:20:35.209	WT901BLE68-01(48591DE3C19B)	-0.296	-1.227	0.264	17.456	-11.902	-18.799	-76.14	6.23	-47.53	-75.166	-34.202	75.950	-0.74255	0.58435	-0.27777	0.17291	30.9	13111	100
2025-3-27 18:20:35.210	WT901BLE68-01(48591DE3C19B)	-0.266	-1.227	0.264	17.456	-11.902	-18.799	-75.94	6.09	-47.44	-75.166	-34.202	75.950	-0.74255	0.58435	-0.27777	0.17291	30.9	13111	100
2025-3-27 18:20:35.210	WT901BLE68-01(48591DE3C19B)	-0.266	-1.416	0.235	17.822	-2.808	-21.179	-75.76	5.93	-47.40	-75.166	-34.202	75.950	-0.74255	0.58435	-0.27777	0.17291	30.9	13111	100
2025-3-27 18:20:35.210	WT901BLE68-01(48591DE3C19B)	-0.280	-1.416	0.235	17.822	-2.808	-21.179	-75.57	5.77	-47.41	-75.166	-34.202	75.950	-0.74255	0.58435	-0.27777	0.17291	30.9	13111	100
2025-3-27 18:20:35.276	WT901BLE68-01(48591DE3C19B)	-0.280	-1.481	0.258	17.944	11.597	-21.057	-75.41	5.63	-47.48	-75.166	-34.202	75.950	-0.74255	0.58435	-0.27777	0.17291	30.9	13111	100
2025-3-27 18:20:35.276	WT901BLE68-01(48591DE3C19B)	-0.302	-1.481	0.258	17.944	11.597	-21.057	-75.25	5.50	-47.63	-75.166	-34.202	75.950	-0.74255	0.58435	-0.27777	0.17291	30.9	13111	100
2025-3-27 18:20:35.276	WT901BLE68-01(48591DE3C19B)	-0.302	-1.384	0.313	14.221	26.245	-20.447	-75.12	5.41	-47.85	-75.166	-34.202	75.950	-0.74255	0.58435	-0.27777	0.17291	30.9	13111	100
2025-3-27 18:20:35.276	WT901BLE68-01(48591DE3C19B)	-0.344	-1.384	0.313	14.221	26.245	-20.447	-75.02	5.32	-48.14	-75.166	-34.202	75.950	-0.74255	0.58435	-0.27777	0.17291	30.9	13111	100
2025-3-27 18:20:35.302	WT901BLE68-01(48591DE3C19B)	-0.344	-1.250	0.354	2.625	34.790	-18.005	-74.98	5.26	-48.46	-75.166	-34.202	75.950	-0.73419	0.53946	-0.28275	0.29980	30.9	13111	100
2025-3-27 18:20:35.302	WT901BLE68-01(48591DE3C19B)	-0.369	-1.250	0.354	2.625	34.790	-18.005	-75.00	5.22	-48.82	-75.166	-34.202	75.950	-0.73419	0.53946	-0.28275	0.29980	30.9	13111	100
2025-3-27 18:20:35.302	WT901BLE68-01(48591DE3C19B)	-0.369	-1.153	0.376	-8.545	32.471	-15.442	-75.07	5.20	-49.17	-75.166	-34.202	75.950	-0.73419	0.53946	-0.28275	0.29980	30.9	13111	100
2025-3-27 18:20:35.302	WT901BLE68-01(48591DE3C19B)	-0.352	-1.153	0.376	-8.545	32.471	-15.442	-75.20	5.19	-49.50	-75.166	-34.202	75.950	-0.73419	0.53946	-0.28275	0.29980	30.9	13111	100
2025-3-27 18:20:35.331	WT901BLE68-01(48591DE3C19B)	-0.352	-1.054	0.387	-20.691	30.334	-12.085	-75.37	5.19	-49.81	-75.166	-34.202	75.950	-0.73419	0.53946	-0.28275	0.29980	30.9	13111	100
2025-3-27 18:20:35.332	WT901BLE68-01(48591DE3C19B)	-0.396	-1.054	0.387	-20.691	30.334	-12.085	-75.61	5.20	-50.11	-75.166	-34.202	75.950	-0.73419	0.53946	-0.28275	0.29980	30.9	13111	100
2025-3-27 18:20:35.332	WT901BLE68-01(48591DE3C19B)	-0.396	-1.011	0.380	-30.884	25.085	-7.202	-75.88	5.23	-50.38	-75.166	-34.202	75.950	-0.73419	0.53946	-0.28275	0.29980	30.9	13111	100
2025-3-27 18:20:35.332	WT901BLE68-01(48591DE3C19B)	-0.475	-1.011	0.380	-30.884	25.085	-7.202	-76.21	5.29	-50.61	-75.166	-34.202	75.950	-0.73419	0.53946	-0.28275	0.29980	30.9	13111	100
2025-3-27 18:20:35.390	WT901BLE68-01(48591DE3C19B)	-0.475	-0.959	0.358	-35.400	5.005	-2.197	-76.54	5.34	-50.74	-75.166	-34.202	75.950	-0.73419	0.53946	-0.28275	0.29980	30.9	13111	100
2025-3-27 18:20:35.390	WT901BLE68-01(48591DE3C19B)	-0.487	-0.959	0.358	-35.400	5.005	-2.197	-76.88	5.41	-50.76	-75.166	-34.202	75.950	-0.73419	0.53946	-0.28275	0.29980	30.9	13111	100
2025-3-27 18:20:35.390	WT901BLE68-01(48591DE3C19B)	-0.487	-0.836	0.338	-32.288	-26.367	3.723	-77.18	5.46	-50.63	-75.166	-34.202	75.950	-0.73419	0.53946	-0.28275	0.29980	30.9	13111	100
2025-3-27 18:20:35.390	WT901BLE68-01(48591DE3C19B)	-0.428	-0.836	0.338	-32.288	-26.367	3.723	-77.46	5.52	-50.33	-75.166	-34.202	75.950	-0.73419	0.53946	-0.28275	0.29980	30.9	13111	100
2025-3-27 18:20:35.421	WT901BLE68-01(48591DE3C19B)	-0.428	-0.740	0.286	-28.076	-53.955	15.625	-77.69	5.61	-49.88	-75.166	-34.202	75.950	-0.73419	0.53946	-0.28275	0.29980	30.9	13111	100
2025-3-27 18:20:35.421	WT901BLE68-01(48591DE3C19B)	-0.337	-0.740	0.286	-28.076	-53.955	15.625	-77.88	5.73	-49.29	-75.166	-34.202	75.950	-0.73419	0.53946	-0.28275	0.29980	30.9	13111	100
2025-3-27 18:20:35.422	WT901BLE68-01(48591DE3C19B)	-0.337	-0.703	0.176	-21.667	-67.200	29.785	-78.04	5.92	-48.62	-75.166	-34.202	75.950	-0.73419	0.53946	-0.28275	0.29980	30.9	13111	100
2025-3-27 18:20:35.422	WT901BLE68-01(48591DE3C19B)	-0.240	-0.703	0.176	-21.667	-67.200	29.785	-78.15	6.16	-47.87	-75.166	-34.202	75.950	-0.73419	0.53946	-0.28275	0.29980	30.9	13111	100
2025-3-27 18:20:35.451	WT901BLE68-01(48591DE3C19B)	-0.240	-0.689	0.069	-15.259	-67.871	39.673	-78.22	6.46	-47.11	-75.166	-34.202	75.950	-0.73419	0.53946	-0.28275	0.29980	30.9	13111	100
2025-3-27 18:20:35.452	WT901BLE68-01(48591DE3C19B)	-0.117	-0.689	0.069	-15.259	-67.871	39.673	-78.26	6.80	-46.34	-75.166	-34.202	75.950	-0.73419	0.53946	-0.28275	0.29980	30.9	13111	100
2025-3-27 18:20:35.452	WT901BLE68-01(48591DE3C19B)	-0.117	-0.750	0.019	-9.338	-63.232	47.607	-78.27	7.17	-45.59	-78.008	-30.674	72.226	-0.73419	0.53946	-0.28275	0.29980	30.9	13111	100
2025-3-27 18:20:35.452	WT901BLE68-01(48591DE3C19B)	-0.044	-0.750	0.019	-9.338	-63.232	47.607	-78.26	7.59	-44.85	-78.008	-30.674	72.226	-0.73419	0.53946	-0.28275	0.29980	30.9	13111	100
2025-3-27 18:20:35.510	WT901BLE68-01(48591DE3C19B)	-0.044	-0.840	0.015	-3.296	-48.706	53.650	-78.22	8.03	-44.19	-78.008	-30.674	72.226	-0.73419	0.53946	-0.28275	0.29980	30.9	13111	100
2025-3-27 18:20:35.510	WT901BLE68-01(48591DE3C19B)	-0.047	-0.840	0.015	-3.296	-48.706	53.650	-78.17	8.51	-43.59	-78.008	-30.674	72.226	-0.73419	0.53946	-0.28275	0.29980	30.9	13111	100
2025-3-27 18:20:35.510	WT901BLE68-01(48591DE3C19B)	-0.047	-0.902	0.031	2.075	-28.320	56.580	-78.10	9.01	-43.10	-78.008	-30.674	72.226	-0.73419	0.53946	-0.28275	0.29980	30.9	13111	100
2025-3-27 18:20:35.510	WT901BLE68-01(48591DE3C19B)	-0.079	-0.902	0.031	2.075	-28.320	56.580	-78.02	9.55	-42.70	-78.008	-30.674	72.226	-0.73419	0.53946	-0.28275	0.29980	30.9	13111	100
2025-3-27 18:20:35.539	WT901BLE68-01(48591DE3C19B)	-0.079	-0.922	0.049	4.272	-9.827	57.312	-77.95	10.09	-42.41	-78.008	-30.674	72.226	-0.73419	0.53946	-0.28275	0.29980	30.9	13111	100
2025-3-27 18:20:35.539	WT901BLE68-01(48591DE3C19B)	-0.086	-0.922	0.049	4.272	-9.827	57.312	-77.89	10.64	-42.20	-78.008	-30.674	72.226	-0.73419	0.53946	-0.28275	0.29980	30.9	13111	100
2025-3-27 18:20:35.539	WT901BLE68-01(48591DE3C19B)	-0.086	-0.933	0.083	3.113	9.521	55.725	-77.85	11.20	-42.09	-78.008	-30.674	72.226	-0.73419	0.53946	-0.28275	0.29980	30.9	13111	100
2025-3-27 18:20:35.540	WT901BLE68-01(48591DE3C19B)	-0.062	-0.933	0.083	3.113	9.521	55.725	-77.84	11.77	-42.09	-78.008	-30.674	72.226	-0.73419	0.53946	-0.28275	0.29980	30.9	13111	100
2025-3-27 18:20:35.575	WT901BLE68-01(48591DE3C19B)	-0.062	-0.928	0.117	2.747	24.475	54.443	-77.85	12.33	-42.15	-78.008	-30.674	72.226	-0.73419	0.53946	-0.28275	0.29980	30.9	13111	100
2025-3-27 18:20:35.576	WT901BLE68-01(48591DE3C19B)	-0.025	-0.928	0.117	2.747	24.475	54.443	-77.88	12.90	-42.31	-78.008	-30.674	72.226	-0.73419	0.53946	-0.28275	0.29980	30.9	13111	100
2025-3-27 18:20:35.576	WT901BLE68-01(48591DE3C19B)	-0.025	-0.877	0.130	-0.122	38.147	54.871	-77.94	13.48	-42.53	-78.008	-30.674	72.226	-0.73419	0.53946	-0.28275	0.29980	30.9	13111	100
2025-3-27 18:20:35.576	WT901BLE68-01(48591DE3C19B)	-0.097	-0.877	0.130	-0.122	38.147	54.871	-78.03	14.06	-42.81	-78.008	-30.674	72.226	-0.73419	0.53946	-0.28275	0.29980	30.9	13111	100
2025-3-27 18:20:35.632	WT901BLE68-01(48591DE3C19B)	-0.097	-0.812	0.117	-7.324	44.800	55.054	-78.21	14.66	-43.18	-78.008	-30.674	72.226	-0.73419	0.53946	-0.28275	0.29980	30.9	13111	100
2025-3-27 18:20:35.632	WT901BLE68-01(48591DE3C19B)	-0.155	-0.812	0.117	-7.324	44.800	55.054	-78.40	15.25	-43.53	-78.008	-30.674	72.226	-0.73419	0.53946	-0.28275	0.29980	30.9	13111	100
2025-3-27 18:20:35.632	WT901BLE68-01(48591DE3C19B)	-0.155	-0.764	0.091	-17.212	34.485	50.537	-78.66	15.77	-43.80	-78.008	-30.674	72.226	-0.73419	0.53946	-0.28275	0.29980	30.9	13111	100
2025-3-27 18:20:35.632	WT901BLE68-01(48591DE3C19B)	-0.113	-0.764	0.091	-17.212	34.485	50.537	-78.92	16.29	-44.07	-78.008	-30.674	72.226	-0.73419	0.53946	-0.28275	0.29980	30.9	13111	100
2025-3-27 18:20:35.661	WT901BLE68-01(48591DE3C19B)	-0.113	-0.737	0.092	-27.283	15.198	44.067	-79.23	16.70	-44.16	-78.008	-30.674	72.226	-0.73419	0.53946	-0.28275	0.29980	30.9	13111	100
2025-3-27 18:20:35.662	WT901BLE68-01(48591DE3C19B)	-0.143	-0.737	0.092	-27.283	15.198	44.067	-79.55	17.12	-44.25	-78.008	-30.674	72.226	-0.73419	0.53946	-0.28275	0.29980	30.9	13111	100
2025-3-27 18:20:35.662	WT901BLE68-01(48591DE3C19B)	-0.143	-0.787	0.109	-36.499	-7.996	37.842	-79.89	17.42	-44.12	-78.008	-30.674	72.226	-0.73419	0.53946	-0.28275	0.29980	30.9	13111	100
2025-3-27 18:20:35.662	WT901BLE68-01(48591DE3C19B)	-0.189	-0.787	0.109	-36.499	-7.996	37.842	-80.22	17.73	-43.99	-78.008	-30.674	72.226	-0.73779	0.54605	-0.34772	0.19095	30.9	13111	100
2025-3-27 18:20:35.692	WT901BLE68-01(48591DE3C19B)	-0.189	-0.908	0.117	-39.429	-38.025	31.372	-80.49	17.92	-43.57	-78.008	-30.674	72.226	-0.73779	0.54605	-0.34772	0.19095	30.9	13111	100
2025-3-27 18:20:35.692	WT901BLE68-01(48591DE3C19B)	-0.161	-0.908	0.117	-39.429	-38.025	31.372	-80.76	18.12	-43.15	-78.008	-30.674	72.226	-0.73779	0.54605	-0.34772	0.19095	30.9	13111	100
2025-3-27 18:20:35.692	WT901BLE68-01(48591DE3C19B)	-0.161	-1.021	0.127	-34.729	-67.139	23.743	-80.89	18.19	-42.44	-78.008	-30.674	72.226	-0.73779	0.54605	-0.34772	0.19095	30.9	13111	100
2025-3-27 18:20:35.692	WT901BLE68-01(48591DE3C19B)	-0.110	-1.021	0.127	-34.729	-67.139	23.743	-81.01	18.27	-41.74	-78.008	-30.674	72.226	-0.73779	0.54605	-0.34772	0.19095	30.9	13111	100
2025-3-27 18:20:35.780	WT901BLE68-01(48591DE3C19B)	-0.110	-1.111	0.108	-29.175	-83.862	16.418	-81.04	18.25	-40.87	-78.008	-30.674	72.226	-0.73779	0.54605	-0.34772	0.19095	30.9	13111	100
2025-3-27 18:20:35.780	WT901BLE68-01(48591DE3C19B)	-0.070	-1.111	0.108	-29.175	-83.862	16.418	-81.06	18.22	-40.02	-78.008	-30.674	72.226	-0.73779	0.54605	-0.34772	0.19095	30.9	13111	100
2025-3-27 18:20:35.780	WT901BLE68-01(48591DE3C19B)	-0.070	-1.194	0.081	-22.705	-89.172	7.324	-81.01	18.10	-39.13	-78.008	-30.674	72.226	-0.73779	0.54605	-0.34772	0.19095	30.9	13111	100
2025-3-27 18:20:35.780	WT901BLE68-01(48591DE3C19B)	-0.008	-1.194	0.081	-22.705	-89.172	7.324	-80.97	17.97	-38.24	-78.008	-30.674	72.226	-0.73779	0.54605	-0.34772	0.19095	30.9	13111	100
2025-3-27 18:20:35.781	WT901BLE68-01(48591DE3C19B)	-0.008	-1.265	0.074	-15.076	-84.412	-3.052	-80.88	17.74	-37.44	-78.008	-30.674	72.226	-0.73779	0.54605	-0.34772	0.19095	30.9	13111	100
2025-3-27 18:20:35.781	WT901BLE68-01(48591DE3C19B)	0.001	-1.265	0.074	-15.076	-84.412	-3.052	-80.79	17.51	-36.63	-78.008	-30.674	72.226	-0.73779	0.54605	-0.34772	0.19095	30.9	13111	100
2025-3-27 18:20:35.781	WT901BLE68-01(48591DE3C19B)	0.001	-1.332	0.088	-8.301	-68.115	-11.292	-80.71	17.22	-36.01	-78.008	-30.674	72.226	-0.73779	0.54605	-0.34772	0.19095	30.9	13111	100
2025-3-27 18:20:35.781	WT901BLE68-01(48591DE3C19B)	-0.036	-1.332	0.088	-8.301	-68.115	-11.292	-80.62	16.92	-35.40	-78.008	-30.674	72.226	-0.73779	0.54605	-0.34772	0.19095	30.9	13111	100
2025-3-27 18:20:35.811	WT901BLE68-01(48591DE3C19B)	-0.036	-1.390	0.107	-1.770	-48.584	-19.714	-80.54	16.58	-35.01	-78.008	-30.674	72.226	-0.73779	0.54605	-0.34772	0.19095	30.9	13111	100
2025-3-27 18:20:35.812	WT901BLE68-01(48591DE3C19B)	-0.050	-1.390	0.107	-1.770	-48.584	-19.714	-80.46	16.23	-34.62	-78.008	-30.674	72.226	-0.73779	0.54605	-0.34772	0.19095	30.9	13111	100
2025-3-27 18:20:35.812	WT901BLE68-01(48591DE3C19B)	-0.050	-1.437	0.114	3.906	-29.053	-26.794	-80.39	15.85	-34.45	-78.008	-30.674	72.226	-0.73779	0.54605	-0.34772	0.19095	30.9	13111	100
2025-3-27 18:20:35.812	WT901BLE68-01(48591DE3C19B)	-0.059	-1.437	0.114	3.906	-29.053	-26.794	-80.32	15.47	-34.27	-78.008	-30.674	72.226	-0.73779	0.54605	-0.34772	0.19095	30.9	13111	100
2025-3-27 18:20:35.900	WT901BLE68-01(48591DE3C19B)	-0.059	-1.473	0.125	8.545	-7.751	-32.410	-80.26	15.07	-34.33	-78.008	-30.674	72.226	-0.73779	0.54605	-0.34772	0.19095	30.9	13111	100
2025-3-27 18:20:35.900	WT901BLE68-01(48591DE3C19B)	-0.087	-1.473	0.125	8.545	-7.751	-32.410	-80.21	14.67	-34.38	-78.008	-30.674	72.226	-0.73779	0.54605	-0.34772	0.19095	30.9	13111	100
2025-3-27 18:20:35.900	WT901BLE68-01(48591DE3C19B)	-0.087	-1.481	0.146	12.390	10.681	-37.292	-80.16	14.25	-34.63	-78.008	-30.674	72.226	-0.73779	0.54605	-0.34772	0.19095	30.9	13111	100
2025-3-27 18:20:35.901	WT901BLE68-01(48591DE3C19B)	-0.122	-1.481	0.146	12.390	10.681	-37.292	-80.12	13.84	-34.88	-78.008	-30.674	72.226	-0.73779	0.54605	-0.34772	0.19095	30.9	13111	100
2025-3-27 18:20:35.902	WT901BLE68-01(48591DE3C19B)	-0.122	-1.446	0.163	14.526	25.269	-41.870	-80.08	13.42	-35.28	-74.088	-23.324	71.050	-0.73779	0.54605	-0.34772	0.19095	30.9	13111	100
2025-3-27 18:20:35.902	WT901BLE68-01(48591DE3C19B)	-0.157	-1.446	0.163	14.526	25.269	-41.870	-80.05	12.99	-35.68	-74.088	-23.324	71.050	-0.73779	0.54605	-0.34772	0.19095	30.9	13111	100
2025-3-27 18:20:35.902	WT901BLE68-01(48591DE3C19B)	-0.157	-1.286	0.179	16.846	34.546	-44.250	-80.01	12.57	-36.18	-74.088	-23.324	71.050	-0.73779	0.54605	-0.34772	0.19095	30.9	13111	100
2025-3-27 18:20:35.902	WT901BLE68-01(48591DE3C19B)	-0.172	-1.286	0.179	16.846	34.546	-44.250	-79.96	12.15	-36.67	-74.088	-23.324	71.050	-0.73779	0.54605	-0.34772	0.19095	30.9	13111	100
2025-3-27 18:20:35.959	WT901BLE68-01(48591DE3C19B)	-0.172	-1.041	0.198	14.709	37.720	-42.542	-79.94	11.75	-37.18	-74.088	-23.324	71.050	-0.73779	0.54605	-0.34772	0.19095	30.9	13111	100
2025-3-27 18:20:35.959	WT901BLE68-01(48591DE3C19B)	-0.152	-1.041	0.198	14.709	37.720	-42.542	-79.91	11.36	-37.69	-74.088	-23.324	71.050	-0.73779	0.54605	-0.34772	0.19095	30.9	13111	100
2025-3-27 18:20:35.960	WT901BLE68-01(48591DE3C19B)	-0.152	-0.823	0.226	10.254	36.011	-36.560	-79.91	11.03	-38.18	-74.088	-23.324	71.050	-0.73779	0.54605	-0.34772	0.19095	30.9	13111	100
2025-3-27 18:20:35.960	WT901BLE68-01(48591DE3C19B)	-0.163	-0.823	0.226	10.254	36.011	-36.560	-79.90	10.70	-38.66	-74.088	-23.324	71.050	-0.73779	0.54605	-0.34772	0.19095	30.9	13111	100
2025-3-27 18:20:35.990	WT901BLE68-01(48591DE3C19B)	-0.163	-0.680	0.226	4.517	32.959	-27.161	-79.94	10.46	-39.08	-74.088	-23.324	71.050	-0.73779	0.54605	-0.34772	0.19095	30.9	13111	100
2025-3-27 18:20:35.990	WT901BLE68-01(48591DE3C19B)	-0.181	-0.680	0.226	4.517	32.959	-27.161	-79.97	10.23	-39.51	-74.088	-23.324	71.050	-0.73779	0.54605	-0.34772	0.19095	30.9	13111	100
2025-3-27 18:20:35.990	WT901BLE68-01(48591DE3C19B)	-0.181	-0.630	0.233	-1.587	23.010	-17.029	-80.04	10.09	-39.81	-74.088	-23.324	71.050	-0.73779	0.54605	-0.34772	0.19095	30.9	13111	100
2025-3-27 18:20:35.990	WT901BLE68-01(48591DE3C19B)	-0.170	-0.630	0.233	-1.587	23.010	-17.029	-80.10	9.94	-40.12	-74.088	-23.324	71.050	-0.73779	0.54605	-0.34772	0.19095	30.9	13111	100
2025-3-27 18:20:36.18	WT901BLE68-01(48591DE3C19B)	-0.170	-0.683	0.244	-5.859	6.897	-8.179	-80.17	9.86	-40.24	-74.088	-23.324	71.050	-0.73779	0.54605	-0.34772	0.19095	30.9	13111	100
2025-3-27 18:20:36.18	WT901BLE68-01(48591DE3C19B)	-0.134	-0.683	0.244	-5.859	6.897	-8.179	-80.23	9.78	-40.37	-74.088	-23.324	71.050	-0.73779	0.54605	-0.34772	0.19095	30.9	13111	100
2025-3-27 18:20:36.18	WT901BLE68-01(48591DE3C19B)	-0.134	-0.792	0.231	-4.639	-4.883	-1.099	-80.26	9.76	-40.36	-74.088	-23.324	71.050	-0.73779	0.54605	-0.34772	0.19095	30.9	13111	100
2025-3-27 18:20:36.18	WT901BLE68-01(48591DE3C19B)	-0.086	-0.792	0.231	-4.639	-4.883	-1.099	-80.28	9.73	-40.36	-74.088	-23.324	71.050	-0.73779	0.54605	-0.34772	0.19095	30.9	13111	100
2025-3-27 18:20:36.79	WT901BLE68-01(48591DE3C19B)	-0.039	-0.882	0.194	0.427	-6.226	0.977	-80.24	9.72	-40.34	-74.088	-23.324	71.050	-0.73779	0.54605	-0.34772	0.19095	30.9	13111	100
2025-3-27 18:20:36.80	WT901BLE68-01(48591DE3C19B)	-0.039	-0.882	0.178	7.751	4.883	-1.587	-80.19	9.70	-40.38	-74.088	-23.324	71.050	-0.73779	0.54605	-0.34772	0.19095	30.9	13111	100
2025-3-27 18:20:36.80	WT901BLE68-01(48591DE3C19B)	-0.059	-0.882	0.178	7.751	4.883	-1.587	-80.11	9.68	-40.48	-74.088	-23.324	71.050	-0.73779	0.54605	-0.34772	0.19095	30.9	13111	100
2025-3-27 18:20:36.80	WT901BLE68-01(48591DE3C19B)	-0.059	-0.828	0.203	11.597	22.583	-7.751	-80.02	9.64	-40.67	-74.088	-23.324	71.050	-0.73779	0.54605	-0.34772	0.19095	30.9	13111	100
2025-3-27 18:20:36.109	WT901BLE68-01(48591DE3C19B)	-0.104	-0.828	0.203	11.597	22.583	-7.751	-79.93	9.59	-40.96	-74.088	-23.324	71.050	-0.73413	0.57663	-0.28439	0.21805	30.9	13111	100
2025-3-27 18:20:36.109	WT901BLE68-01(48591DE3C19B)	-0.104	-0.810	0.254	12.817	35.828	-14.465	-79.85	9.51	-41.31	-74.088	-23.324	71.050	-0.73413	0.57663	-0.28439	0.21805	30.9	13111	100
2025-3-27 18:20:36.109	WT901BLE68-01(48591DE3C19B)	-0.137	-0.810	0.254	12.817	35.828	-14.465	-79.77	9.42	-41.74	-74.088	-23.324	71.050	-0.73413	0.57663	-0.28439	0.21805	30.9	13111	100
2025-3-27 18:20:36.109	WT901BLE68-01(48591DE3C19B)	-0.137	-0.784	0.284	15.015	42.419	-18.433	-79.68	9.31	-42.20	-74.088	-23.324	71.050	-0.73413	0.57663	-0.28439	0.21805	30.9	13111	100
2025-3-27 18:20:36.139	WT901BLE68-01(48591DE3C19B)	-0.152	-0.784	0.284	15.015	42.419	-18.433	-79.58	9.18	-42.69	-74.088	-23.324	71.050	-0.73413	0.57663	-0.28439	0.21805	30.9	13111	100
2025-3-27 18:20:36.139	WT901BLE68-01(48591DE3C19B)	-0.152	-0.718	0.278	17.090	46.387	-20.386	-79.47	9.06	-43.21	-74.088	-23.324	71.050	-0.73413	0.57663	-0.28439	0.21805	30.9	13111	100
2025-3-27 18:20:36.139	WT901BLE68-01(48591DE3C19B)	-0.209	-0.718	0.278	17.090	46.387	-20.386	-79.35	8.94	-43.74	-74.088	-23.324	71.050	-0.73413	0.57663	-0.28439	0.21805	30.9	13111	100
2025-3-27 18:20:36.139	WT901BLE68-01(48591DE3C19B)	-0.209	-0.672	0.252	16.418	43.884	-20.508	-79.23	8.81	-44.26	-74.088	-23.324	71.050	-0.73413	0.57663	-0.28439	0.21805	30.9	13111	100
2025-3-27 18:20:36.200	WT901BLE68-01(48591DE3C19B)	-0.269	-0.672	0.252	16.418	43.884	-20.508	-79.11	8.69	-44.77	-74.088	-23.324	71.050	-0.73413	0.57663	-0.28439	0.21805	30.9	13111	100
2025-3-27 18:20:36.201	WT901BLE68-01(48591DE3C19B)	-0.269	-0.683	0.235	14.221	30.090	-19.653	-78.98	8.57	-45.20	-74.088	-23.324	71.050	-0.73413	0.57663	-0.28439	0.21805	30.9	13111	100
2025-3-27 18:20:36.201	WT901BLE68-01(48591DE3C19B)	-0.289	-0.683	0.235	14.221	30.090	-19.653	-78.85	8.44	-45.57	-74.088	-23.324	71.050	-0.73413	0.57663	-0.28439	0.21805	30.9	13111	100
2025-3-27 18:20:36.201	WT901BLE68-01(48591DE3C19B)	-0.289	-0.753	0.246	12.695	16.418	-17.456	-78.72	8.32	-45.85	-74.088	-23.324	71.050	-0.73413	0.57663	-0.28439	0.21805	30.9	13111	100
2025-3-27 18:20:36.231	WT901BLE68-01(48591DE3C19B)	-0.294	-0.753	0.246	12.695	16.418	-17.456	-78.59	8.21	-46.07	-74.088	-23.324	71.050	-0.73413	0.57663	-0.28439	0.21805	30.9	13111	100
2025-3-27 18:20:36.231	WT901BLE68-01(48591DE3C19B)	-0.294	-0.852	0.262	15.259	7.385	-14.832	-78.44	8.10	-46.24	-74.088	-23.324	71.050	-0.73413	0.57663	-0.28439	0.21805	30.9	13111	100
2025-3-27 18:20:36.232	WT901BLE68-01(48591DE3C19B)	-0.293	-0.852	0.262	15.259	7.385	-14.832	-78.27	8.00	-46.36	-74.088	-23.324	71.050	-0.73413	0.57663	-0.28439	0.21805	30.9	13111	100
2025-3-27 18:20:36.232	WT901BLE68-01(48591DE3C19B)	-0.293	-0.939	0.258	17.700	2.991	-12.878	-78.08	7.92	-46.46	-74.088	-23.324	71.050	-0.73413	0.57663	-0.28439	0.21805	30.9	13111	100
2025-3-27 18:20:36.261	WT901BLE68-01(48591DE3C19B)	-0.290	-0.939	0.258	17.700	2.991	-12.878	-77.88	7.83	-46.53	-74.088	-23.324	71.050	-0.73413	0.57663	-0.28439	0.21805	30.9	13111	100
2025-3-27 18:20:36.261	WT901BLE68-01(48591DE3C19B)	-0.290	-1.053	0.239	19.287	3.845	-13.000	-77.68	7.76	-46.60	-74.088	-23.324	71.050	-0.73413	0.57663	-0.28439	0.21805	30.9	13111	100
2025-3-27 18:20:36.261	WT901BLE68-01(48591DE3C19B)	-0.293	-1.053	0.239	19.287	3.845	-13.000	-77.48	7.67	-46.68	-78.302	-19.110	66.444	-0.73413	0.57663	-0.28439	0.21805	30.9	13111	100
2025-3-27 18:20:36.261	WT901BLE68-01(48591DE3C19B)	-0.293	-1.185	0.241	20.508	10.864	-15.076	-77.27	7.60	-46.80	-78.302	-19.110	66.444	-0.73413	0.57663	-0.28439	0.21805	30.9	13111	100
2025-3-27 18:20:36.319	WT901BLE68-01(48591DE3C19B)	-0.291	-1.185	0.241	20.508	10.864	-15.076	-77.07	7.51	-46.94	-78.302	-19.110	66.444	-0.73413	0.57663	-0.28439	0.21805	30.9	13111	100
2025-3-27 18:20:36.319	WT901BLE68-01(48591DE3C19B)	-0.291	-1.324	0.238	20.874	23.010	-17.334	-76.88	7.44	-47.16	-78.302	-19.110	66.444	-0.73413	0.57663	-0.28439	0.21805	30.9	13111	100
2025-3-27 18:20:36.319	WT901BLE68-01(48591DE3C19B)	-0.291	-1.324	0.238	20.874	23.010	-17.334	-76.70	7.36	-47.43	-78.302	-19.110	66.444	-0.73413	0.57663	-0.28439	0.21805	30.9	13111	100
2025-3-27 18:20:36.319	WT901BLE68-01(48591DE3C19B)	-0.291	-1.391	0.218	21.179	40.283	-17.029	-76.53	7.31	-47.79	-78.302	-19.110	66.444	-0.73413	0.57663	-0.28439	0.21805	30.9	13111	100
2025-3-27 18:20:36.349	WT901BLE68-01(48591DE3C19B)	-0.294	-1.391	0.218	21.179	40.283	-17.029	-76.38	7.27	-48.24	-78.302	-19.110	66.444	-0.73413	0.57663	-0.28439	0.21805	30.9	13111	100
2025-3-27 18:20:36.349	WT901BLE68-01(48591DE3C19B)	-0.294	-1.349	0.194	19.470	57.983	-13.428	-76.25	7.28	-48.75	-78.302	-19.110	66.444	-0.73413	0.57663	-0.28439	0.21805	30.9	13111	100
2025-3-27 18:20:36.349	WT901BLE68-01(48591DE3C19B)	-0.281	-1.349	0.194	19.470	57.983	-13.428	-76.14	7.32	-49.36	-78.302	-19.110	66.444	-0.73413	0.57663	-0.28439	0.21805	30.9	13111	100
2025-3-27 18:20:36.350	WT901BLE68-01(48591DE3C19B)	-0.281	-1.220	0.215	14.099	74.280	-10.742	-76.07	7.40	-50.03	-78.302	-19.110	66.444	-0.73413	0.57663	-0.28439	0.21805	30.9	13111	100
2025-3-27 18:20:36.379	WT901BLE68-01(48591DE3C19B)	-0.289	-1.220	0.215	14.099	74.280	-10.742	-76.05	7.50	-50.77	-78.302	-19.110	66.444	-0.73413	0.57663	-0.28439	0.21805	30.9	13111	100
2025-3-27 18:20:36.379	WT901BLE68-01(48591DE3C19B)	-0.289	-1.098	0.243	3.540	85.815	-10.254	-76.08	7.63	-51.58	-78.302	-19.110	66.444	-0.73413	0.57663	-0.28439	0.21805	30.9	13111	100
2025-3-27 18:20:36.379	WT901BLE68-01(48591DE3C19B)	-0.341	-1.098	0.243	3.540	85.815	-10.254	-76.17	7.77	-52.43	-78.302	-19.110	66.444	-0.73413	0.57663	-0.28439	0.21805	30.9	13111	100
2025-3-27 18:20:36.379	WT901BLE68-01(48591DE3C19B)	-0.341	-1.043	0.271	-5.981	80.017	-12.451	-76.32	7.89	-53.26	-78.302	-19.110	66.444	-0.73413	0.57663	-0.28439	0.21805	30.9	13111	100
2025-3-27 18:20:36.442	WT901BLE68-01(48591DE3C19B)	-0.402	-1.043	0.271	-5.981	80.017	-12.451	-76.50	7.99	-54.05	-78.302	-19.110	66.444	-0.73413	0.57663	-0.28439	0.21805	30.9	13111	100
2025-3-27 18:20:36.442	WT901BLE68-01(48591DE3C19B)	-0.402	-0.955	0.316	-11.597	57.129	-13.611	-76.70	8.06	-54.73	-78.302	-19.110	66.444	-0.73413	0.57663	-0.28439	0.21805	30.9	13111	100
2025-3-27 18:20:36.442	WT901BLE68-01(48591DE3C19B)	-0.432	-0.955	0.316	-11.597	57.129	-13.611	-76.90	8.10	-55.30	-78.302	-19.110	66.444	-0.73413	0.57663	-0.28439	0.21805	30.9	13111	100
2025-3-27 18:20:36.442	WT901BLE68-01(48591DE3C19B)	-0.432	-0.849	0.297	-16.663	25.208	-12.024	-77.10	8.11	-55.71	-78.302	-19.110	66.444	-0.73413	0.57663	-0.28439	0.21805	30.9	13111	100
2025-3-27 18:20:36.475	WT901BLE68-01(48591DE3C19B)	-0.406	-0.849	0.297	-16.663	25.208	-12.024	-77.30	8.10	-55.95	-78.302	-19.110	66.444	-0.73413	0.57663	-0.28439	0.21805	30.9	13111	100
2025-3-27 18:20:36.475	WT901BLE68-01(48591DE3C19B)	-0.406	-0.751	0.234	-19.775	-11.719	-7.263	-77.49	8.07	-56.01	-78.302	-19.110	66.444	-0.73413	0.57663	-0.28439	0.21805	30.9	13111	100
2025-3-27 18:20:36.475	WT901BLE68-01(48591DE3C19B)	-0.367	-0.751	0.234	-19.775	-11.719	-7.263	-77.66	8.04	-55.88	-78.302	-19.110	66.444	-0.73413	0.57663	-0.28439	0.21805	30.9	13111	100
2025-3-27 18:20:36.475	WT901BLE68-01(48591DE3C19B)	-0.367	-0.669	0.178	-22.827	-48.889	2.747	-77.83	8.02	-55.56	-78.302	-19.110	66.444	-0.70755	0.53021	-0.33917	0.32108	30.9	13111	100
2025-3-27 18:20:36.502	WT901BLE68-01(48591DE3C19B)	-0.297	-0.669	0.178	-22.827	-48.889	2.747	-77.98	8.01	-55.04	-78.302	-19.110	66.444	-0.70755	0.53021	-0.33917	0.32108	30.9	13111	100
2025-3-27 18:20:36.502	WT901BLE68-01(48591DE3C19B)	-0.297	-0.660	0.137	-27.405	-78.430	11.902	-78.12	8.03	-54.37	-78.302	-19.110	66.444	-0.70755	0.53021	-0.33917	0.32108	30.9	13111	100
2025-3-27 18:20:36.502	WT901BLE68-01(48591DE3C19B)	-0.229	-0.660	0.137	-27.405	-78.430	11.902	-78.27	8.06	-53.55	-78.302	-19.110	66.444	-0.70755	0.53021	-0.33917	0.32108	30.9	13111	100
2025-3-27 18:20:36.502	WT901BLE68-01(48591DE3C19B)	-0.229	-0.778	0.129	-30.701	-93.445	19.104	-78.43	8.11	-52.65	-78.302	-19.110	66.444	-0.70755	0.53021	-0.33917	0.32108	30.9	13111	100
2025-3-27 18:20:36.560	WT901BLE68-01(48591DE3C19B)	-0.195	-0.778	0.129	-30.701	-93.445	19.104	-78.59	8.18	-51.67	-78.302	-19.110	66.444	-0.70755	0.53021	-0.33917	0.32108	30.9	13111	100
2025-3-27 18:20:36.560	WT901BLE68-01(48591DE3C19B)	-0.195	-0.877	0.138	-24.048	-98.022	24.109	-78.67	8.29	-50.64	-78.302	-19.110	66.444	-0.70755	0.53021	-0.33917	0.32108	30.9	13111	100
2025-3-27 18:20:36.560	WT901BLE68-01(48591DE3C19B)	-0.142	-0.877	0.138	-24.048	-98.022	24.109	-78.76	8.40	-49.62	-78.302	-19.110	66.444	-0.70755	0.53021	-0.33917	0.32108	30.9	13111	100
2025-3-27 18:20:36.560	WT901BLE68-01(48591DE3C19B)	-0.142	-0.860	0.139	-15.686	-92.773	25.452	-78.76	8.53	-48.65	-78.302	-19.110	66.444	-0.70755	0.53021	-0.33917	0.32108	30.9	13111	100
2025-3-27 18:20:36.588	WT901BLE68-01(48591DE3C19B)	-0.101	-0.860	0.139	-15.686	-92.773	25.452	-78.77	8.65	-47.69	-78.302	-19.110	66.444	-0.70755	0.53021	-0.33917	0.32108	30.9	13111	100
2025-3-27 18:20:36.589	WT901BLE68-01(48591DE3C19B)	-0.101	-0.829	0.138	-9.766	-75.562	26.001	-78.74	8.80	-46.90	-78.302	-19.110	66.444	-0.70755	0.53021	-0.33917	0.32108	30.9	13111	100
2025-3-27 18:20:36.589	WT901BLE68-01(48591DE3C19B)	-0.096	-0.829	0.138	-9.766	-75.562	26.001	-78.71	8.95	-46.11	-78.302	-19.110	66.444	-0.70755	0.53021	-0.33917	0.32108	30.9	13111	100
2025-3-27 18:20:36.589	WT901BLE68-01(48591DE3C19B)	-0.096	-0.807	0.113	-4.456	-53.772	26.184	-78.66	9.13	-45.54	-78.302	-19.110	66.444	-0.70755	0.53021	-0.33917	0.32108	30.9	13111	100
2025-3-27 18:20:36.652	WT901BLE68-01(48591DE3C19B)	-0.096	-0.807	0.113	-4.456	-53.772	26.184	-78.61	9.31	-44.98	-78.302	-19.110	66.444	-0.70755	0.53021	-0.33917	0.32108	30.9	13111	100
2025-3-27 18:20:36.652	WT901BLE68-01(48591DE3C19B)	-0.096	-0.746	0.082	-1.953	-33.813	27.588	-78.57	9.54	-44.62	-78.302	-19.110	66.444	-0.70755	0.53021	-0.33917	0.32108	30.9	13111	100
2025-3-27 18:20:36.652	WT901BLE68-01(48591DE3C19B)	-0.091	-0.746	0.082	-1.953	-33.813	27.588	-78.54	9.76	-44.25	-78.302	-19.110	66.444	-0.70755	0.53021	-0.33917	0.32108	30.9	13111	100
2025-3-27 18:20:36.652	WT901BLE68-01(48591DE3C19B)	-0.091	-0.668	0.059	-2.991	-16.479	29.663	-78.54	10.04	-44.06	-78.302	-19.110	66.444	-0.70755	0.53021	-0.33917	0.32108	30.9	13111	100
2025-3-27 18:20:36.681	WT901BLE68-01(48591DE3C19B)	-0.108	-0.668	0.059	-2.991	-16.479	29.663	-78.54	10.31	-43.86	-78.302	-19.110	66.444	-0.70755	0.53021	-0.33917	0.32108	30.9	13111	100
2025-3-27 18:20:36.681	WT901BLE68-01(48591DE3C19B)	-0.108	-0.646	0.056	-7.996	-5.737	31.189	-78.61	10.61	-43.77	-78.302	-19.110	66.444	-0.70755	0.53021	-0.33917	0.32108	30.9	13111	100
2025-3-27 18:20:36.681	WT901BLE68-01(48591DE3C19B)	-0.134	-0.646	0.056	-7.996	-5.737	31.189	-78.68	10.91	-43.68	-78.302	-19.110	66.444	-0.70755	0.53021	-0.33917	0.32108	30.9	13111	100
2025-3-27 18:20:36.681	WT901BLE68-01(48591DE3C19B)	-0.134	-0.716	0.069	-13.306	-5.310	32.959	-78.80	11.22	-43.59	-78.302	-19.110	66.444	-0.70755	0.53021	-0.33917	0.32108	30.9	13111	100
2025-3-27 18:20:36.740	WT901BLE68-01(48591DE3C19B)	-0.142	-0.716	0.069	-13.306	-5.310	32.959	-78.93	11.54	-43.50	-76.734	-13.426	65.268	-0.70755	0.53021	-0.33917	0.32108	30.9	13111	100
2025-3-27 18:20:36.740	WT901BLE68-01(48591DE3C19B)	-0.142	-0.849	0.082	-16.968	-12.939	34.546	-79.08	11.85	-43.34	-76.734	-13.426	65.268	-0.70755	0.53021	-0.33917	0.32108	30.9	13111	100
2025-3-27 18:20:36.740	WT901BLE68-01(48591DE3C19B)	-0.123	-0.849	0.082	-16.968	-12.939	34.546	-79.23	12.16	-43.17	-76.734	-13.426	65.268	-0.70755	0.53021	-0.33917	0.32108	30.9	13111	100
2025-3-27 18:20:36.740	WT901BLE68-01(48591DE3C19B)	-0.123	-0.995	0.091	-18.555	-23.499	33.264	-79.37	12.43	-42.91	-76.734	-13.426	65.268	-0.70755	0.53021	-0.33917	0.32108	30.9	13111	100
2025-3-27 18:20:36.741	WT901BLE68-01(48591DE3C19B)	-0.102	-0.995	0.091	-18.555	-23.499	33.264	-79.51	12.71	-42.64	-76.734	-13.426	65.268	-0.70755	0.53021	-0.33917	0.32108	30.9	13111	100
2025-3-27 18:20:36.741	WT901BLE68-01(48591DE3C19B)	-0.102	-1.179	0.100	-18.921	-31.067	30.334	-79.64	12.93	-42.31	-76.734	-13.426	65.268	-0.70755	0.53021	-0.33917	0.32108	30.9	13111	100
2025-3-27 18:20:36.741	WT901BLE68-01(48591DE3C19B)	-0.071	-1.179	0.100	-18.921	-31.067	30.334	-79.77	13.15	-41.98	-76.734	-13.426	65.268	-0.70755	0.53021	-0.33917	0.32108	30.9	13111	100
2025-3-27 18:20:36.741	WT901BLE68-01(48591DE3C19B)	-0.071	-1.370	0.098	-15.869	-33.020	25.635	-79.87	13.31	-41.64	-76.734	-13.426	65.268	-0.70755	0.53021	-0.33917	0.32108	30.9	13111	100
2025-3-27 18:20:36.800	WT901BLE68-01(48591DE3C19B)	-0.024	-1.370	0.098	-15.869	-33.020	25.635	-79.96	13.47	-41.30	-76.734	-13.426	65.268	-0.70755	0.53021	-0.33917	0.32108	30.9	13111	100
2025-3-27 18:20:36.800	WT901BLE68-01(48591DE3C19B)	-0.024	-1.494	0.112	-10.071	-27.893	20.996	-80.02	13.59	-41.03	-76.734	-13.426	65.268	-0.70755	0.53021	-0.33917	0.32108	30.9	13111	100
2025-3-27 18:20:36.801	WT901BLE68-01(48591DE3C19B)	-0.002	-1.494	0.112	-10.071	-27.893	20.996	-80.07	13.71	-40.76	-76.734	-13.426	65.268	-0.70755	0.53021	-0.33917	0.32108	30.9	13111	100
2025-3-27 18:20:36.801	WT901BLE68-01(48591DE3C19B)	-0.002	-1.512	0.158	-4.822	-17.700	16.846	-80.10	13.79	-40.61	-76.734	-13.426	65.268	-0.70755	0.53021	-0.33917	0.32108	30.9	13111	100
2025-3-27 18:20:36.828	WT901BLE68-01(48591DE3C19B)	0.001	-1.512	0.158	-4.822	-17.700	16.846	-80.13	13.87	-40.45	-76.734	-13.426	65.268	-0.70755	0.53021	-0.33917	0.32108	30.9	13111	100
2025-3-27 18:20:36.829	WT901BLE68-01(48591DE3C19B)	0.001	-1.542	0.210	0.427	-5.249	11.536	-80.14	13.92	-40.42	-76.734	-13.426	65.268	-0.70755	0.53021	-0.33917	0.32108	30.9	13111	100
2025-3-27 18:20:36.829	WT901BLE68-01(48591DE3C19B)	0.029	-1.542	0.210	0.427	-5.249	11.536	-80.15	13.96	-40.41	-76.734	-13.426	65.268	-0.70755	0.53021	-0.33917	0.32108	30.9	13111	100
2025-3-27 18:20:36.829	WT901BLE68-01(48591DE3C19B)	0.029	-1.521	0.231	8.850	6.958	6.042	-80.10	13.97	-40.52	-76.734	-13.426	65.268	-0.70755	0.53021	-0.33917	0.32108	30.9	13111	100
2025-3-27 18:20:36.861	WT901BLE68-01(48591DE3C19B)	0.053	-1.521	0.231	8.850	6.958	6.042	-80.05	13.97	-40.63	-76.734	-13.426	65.268	-0.70755	0.53021	-0.33917	0.32108	30.9	13111	100
2025-3-27 18:20:36.862	WT901BLE68-01(48591DE3C19B)	0.053	-1.453	0.229	16.663	20.935	0.305	-79.96	13.94	-40.90	-76.734	-13.426	65.268	-0.70755	0.53021	-0.33917	0.32108	30.9	13111	100
2025-3-27 18:20:36.862	WT901BLE68-01(48591DE3C19B)	0.043	-1.453	0.229	16.663	20.935	0.305	-79.87	13.91	-41.16	-76.734	-13.426	65.268	-0.70755	0.53021	-0.33917	0.32108	30.9	13111	100
2025-3-27 18:20:36.862	WT901BLE68-01(48591DE3C19B)	0.043	-1.414	0.218	24.353	37.781	-6.775	-79.74	13.83	-41.61	-76.734	-13.426	65.268	-0.70755	0.53021	-0.33917	0.32108	30.9	13111	100
2025-3-27 18:20:36.920	WT901BLE68-01(48591DE3C19B)	-0.018	-1.414	0.218	24.353	37.781	-6.775	-79.62	13.76	-42.04	-76.734	-13.426	65.268	-0.70755	0.53021	-0.33917	0.32108	30.9	13111	100
2025-3-27 18:20:36.920	WT901BLE68-01(48591DE3C19B)	-0.018	-1.376	0.186	34.302	51.941	-15.747	-79.43	13.62	-42.65	-76.734	-13.426	65.268	-0.73904	0.55780	-0.31570	0.20712	30.9	13111	100
2025-3-27 18:20:36.920	WT901BLE68-01(48591DE3C19B)	-0.054	-1.376	0.186	34.302	51.941	-15.747	-79.24	13.49	-43.24	-76.734	-13.426	65.268	-0.73904	0.55780	-0.31570	0.20712	30.9	13111	100
2025-3-27 18:20:36.920	WT901BLE68-01(48591DE3C19B)	-0.054	-1.180	0.164	45.776	58.105	-21.606	-78.95	13.32	-43.91	-76.734	-13.426	65.268	-0.73904	0.55780	-0.31570	0.20712	30.9	13111	100
2025-3-27 18:20:36.948	WT901BLE68-01(48591DE3C19B)	-0.039	-1.180	0.164	45.776	58.105	-21.606	-78.66	13.14	-44.58	-76.734	-13.426	65.268	-0.73904	0.55780	-0.31570	0.20712	30.9	13111	100
2025-3-27 18:20:36.949	WT901BLE68-01(48591DE3C19B)	-0.039	-0.916	0.160	49.744	63.232	-22.949	-78.35	12.97	-45.29	-76.734	-13.426	65.268	-0.73904	0.55780	-0.31570	0.20712	30.9	13111	100
2025-3-27 18:20:36.949	WT901BLE68-01(48591DE3C19B)	-0.029	-0.916	0.160	49.744	63.232	-22.949	-78.03	12.81	-46.00	-76.734	-13.426	65.268	-0.73904	0.55780	-0.31570	0.20712	30.9	13111	100
2025-3-27 18:20:36.949	WT901BLE68-01(48591DE3C19B)	-0.029	-0.688	0.183	45.959	70.068	-21.667	-77.76	12.68	-46.77	-76.734	-13.426	65.268	-0.73904	0.55780	-0.31570	0.20712	30.9	13111	100
2025-3-27 18:20:36.979	WT901BLE68-01(48591DE3C19B)	-0.100	-0.688	0.183	45.959	70.068	-21.667	-77.49	12.55	-47.55	-76.734	-13.426	65.268	-0.73904	0.55780	-0.31570	0.20712	30.9	13111	100
2025-3-27 18:20:36.979	WT901BLE68-01(48591DE3C19B)	-0.184	-0.629	0.245	35.217	72.327	-17.578	-77.33	12.47	-48.33	-76.734	-13.426	65.268	-0.73904	0.55780	-0.31570	0.20712	30.9	13111	100
2025-3-27 18:20:36.979	WT901BLE68-01(48591DE3C19B)	-0.184	-0.750	0.296	23.682	55.969	-13.855	-77.20	12.40	-49.02	-76.734	-13.426	65.268	-0.73904	0.55780	-0.31570	0.20712	30.9	13111	100
2025-3-27 18:20:36.979	WT901BLE68-01(48591DE3C19B)	-0.177	-0.750	0.296	23.682	55.969	-13.855	-77.10	12.33	-49.62	-76.734	-13.426	65.268	-0.73904	0.55780	-0.31570	0.20712	30.9	13111	100
2025-3-27 18:20:37.42	WT901BLE68-01(48591DE3C19B)	-0.177	-0.850	0.317	19.348	31.799	-8.118	-76.99	12.27	-50.09	-76.734	-13.426	65.268	-0.73904	0.55780	-0.31570	0.20712	30.9	13111	100
2025-3-27 18:20:37.42	WT901BLE68-01(48591DE3C19B)	-0.138	-0.850	0.317	19.348	31.799	-8.118	-76.88	12.22	-50.44	-76.734	-13.426	65.268	-0.73904	0.55780	-0.31570	0.20712	30.9	13111	100
2025-3-27 18:20:37.42	WT901BLE68-01(48591DE3C19B)	-0.138	-0.837	0.298	16.907	16.296	-4.883	-76.75	12.17	-50.70	-76.734	-13.426	65.268	-0.73904	0.55780	-0.31570	0.20712	30.9	13111	100
2025-3-27 18:20:37.42	WT901BLE68-01(48591DE3C19B)	-0.135	-0.837	0.298	16.907	16.296	-4.883	-76.61	12.12	-50.88	-76.734	-13.426	65.268	-0.73904	0.55780	-0.31570	0.20712	30.9	13111	100
2025-3-27 18:20:37.75	WT901BLE68-01(48591DE3C19B)	-0.135	-0.793	0.268	13.550	10.864	-5.493	-76.49	12.06	-51.03	-76.734	-13.426	65.268	-0.73904	0.55780	-0.31570	0.20712	30.9	13111	100
2025-3-27 18:20:37.75	WT901BLE68-01(48591DE3C19B)	-0.154	-0.793	0.268	13.550	10.864	-5.493	-76.37	12.00	-51.16	-76.734	-13.426	65.268	-0.73904	0.55780	-0.31570	0.20712	30.9	13111	100
2025-3-27 18:20:37.75	WT901BLE68-01(48591DE3C19B)	-0.154	-0.746	0.243	10.925	7.202	-9.033	-76.27	11.91	-51.27	-76.734	-13.426	65.268	-0.73904	0.55780	-0.31570	0.20712	30.9	13111	100
2025-3-27 18:20:37.75	WT901BLE68-01(48591DE3C19B)	-0.149	-0.746	0.243	10.925	7.202	-9.033	-76.17	11.81	-51.37	-77.910	-6.664	62.230	-0.73904	0.55780	-0.31570	0.20712	30.9	13111	100
2025-3-27 18:20:37.101	WT901BLE68-01(48591DE3C19B)	-0.149	-0.687	0.250	9.460	3.540	-12.756	-76.07	11.69	-51.45	-77.910	-6.664	62.230	-0.73904	0.55780	-0.31570	0.20712	30.9	13111	100
2025-3-27 18:20:37.102	WT901BLE68-01(48591DE3C19B)	-0.137	-0.687	0.250	9.460	3.540	-12.756	-75.98	11.55	-51.51	-77.910	-6.664	62.230	-0.73904	0.55780	-0.31570	0.20712	30.9	13111	100
2025-3-27 18:20:37.102	WT901BLE68-01(48591DE3C19B)	-0.137	-0.627	0.262	9.705	3.052	-15.747	-75.88	11.40	-51.59	-77.910	-6.664	62.230	-0.73904	0.55780	-0.31570	0.20712	30.9	13111	100
2025-3-27 18:20:37.102	WT901BLE68-01(48591DE3C19B)	-0.161	-0.627	0.262	9.705	3.052	-15.747	-75.78	11.23	-51.66	-77.910	-6.664	62.230	-0.73904	0.55780	-0.31570	0.20712	30.9	13111	100
2025-3-27 18:20:37.159	WT901BLE68-01(48591DE3C19B)	-0.161	-0.583	0.253	11.169	5.554	-18.372	-75.68	11.06	-51.75	-77.910	-6.664	62.230	-0.73904	0.55780	-0.31570	0.20712	30.9	13111	100
2025-3-27 18:20:37.159	WT901BLE68-01(48591DE3C19B)	-0.189	-0.583	0.253	11.169	5.554	-18.372	-75.57	10.88	-51.85	-77.910	-6.664	62.230	-0.73904	0.55780	-0.31570	0.20712	30.9	13111	100
2025-3-27 18:20:37.159	WT901BLE68-01(48591DE3C19B)	-0.189	-0.568	0.229	13.306	7.568	-21.545	-75.45	10.70	-51.97	-77.910	-6.664	62.230	-0.73904	0.55780	-0.31570	0.20712	30.9	13111	100
2025-3-27 18:20:37.159	WT901BLE68-01(48591DE3C19B)	-0.208	-0.568	0.229	13.306	7.568	-21.545	-75.32	10.50	-52.10	-77.910	-6.664	62.230	-0.73904	0.55780	-0.31570	0.20712	30.9	13111	100
2025-3-27 18:20:37.189	WT901BLE68-01(48591DE3C19B)	-0.208	-0.585	0.231	17.212	9.521	-25.146	-75.16	10.30	-52.24	-77.910	-6.664	62.230	-0.73904	0.55780	-0.31570	0.20712	30.9	13111	100
2025-3-27 18:20:37.189	WT901BLE68-01(48591DE3C19B)	-0.235	-0.585	0.231	17.212	9.521	-25.146	-75.00	10.09	-52.39	-77.910	-6.664	62.230	-0.73904	0.55780	-0.31570	0.20712	30.9	13111	100
2025-3-27 18:20:37.189	WT901BLE68-01(48591DE3C19B)	-0.235	-0.607	0.214	22.888	10.925	-27.893	-74.81	9.87	-52.56	-77.910	-6.664	62.230	-0.73904	0.55780	-0.31570	0.20712	30.9	13111	100
2025-3-27 18:20:37.189	WT901BLE68-01(48591DE3C19B)	-0.280	-0.607	0.214	22.888	10.925	-27.893	-74.59	9.65	-52.74	-77.910	-6.664	62.230	-0.73904	0.55780	-0.31570	0.20712	30.9	13111	100
2025-3-27 18:20:37.218	WT901BLE68-01(48591DE3C19B)	-0.280	-0.653	0.161	22.888	10.925	-30.090	-74.37	9.42	-52.92	-77.910	-6.664	62.230	-0.73904	0.55780	-0.31570	0.20712	30.9	13111	100
2025-3-27 18:20:37.219	WT901BLE68-01(48591DE3C19B)	-0.386	-0.653	0.161	22.888	10.925	-30.090	-74.15	9.19	-53.10	-77.910	-6.664	62.230	-0.73904	0.55780	-0.31570	0.20712	30.9	13111	100
2025-3-27 18:20:37.219	WT901BLE68-01(48591DE3C19B)	-0.386	-0.774	0.216	19.714	-0.793	-30.212	-73.95	8.95	-53.22	-77.910	-6.664	62.230	-0.73904	0.55780	-0.31570	0.20712	30.9	13111	100
2025-3-27 18:20:37.219	WT901BLE68-01(48591DE3C19B)	-0.523	-0.774	0.216	19.714	-0.793	-30.212	-73.75	8.71	-53.28	-77.910	-6.664	62.230	-0.73904	0.55780	-0.31570	0.20712	30.9	13111	100
2025-3-27 18:20:37.309	WT901BLE68-01(48591DE3C19B)	-0.523	-0.958	0.342	15.869	-26.611	-28.076	-73.56	8.44	-53.21	-77.910	-6.664	62.230	-0.73904	0.55780	-0.31570	0.20712	30.9	13111	100
2025-3-27 18:20:37.310	WT901BLE68-01(48591DE3C19B)	-0.511	-0.958	0.342	15.869	-26.611	-28.076	-73.37	8.16	-53.02	-77.910	-6.664	62.230	-0.73904	0.55780	-0.31570	0.20712	30.9	13111	100
2025-3-27 18:20:37.310	WT901BLE68-01(48591DE3C19B)	-0.511	-1.135	0.358	13.611	-46.387	-28.687	-73.18	7.86	-52.73	-77.910	-6.664	62.230	-0.73904	0.55780	-0.31570	0.20712	30.9	13111	100
2025-3-27 18:20:37.310	WT901BLE68-01(48591DE3C19B)	-0.393	-1.135	0.358	13.611	-46.387	-28.687	-72.99	7.52	-52.35	-77.910	-6.664	62.230	-0.73904	0.55780	-0.31570	0.20712	30.9	13111	100
2025-3-27 18:20:37.310	WT901BLE68-01(48591DE3C19B)	-0.393	-1.232	0.322	11.658	-46.021	-25.879	-72.82	7.21	-51.97	-77.910	-6.664	62.230	-0.73831	0.51028	-0.30502	0.31839	30.9	13111	100
2025-3-27 18:20:37.310	WT901BLE68-01(48591DE3C19B)	-0.341	-1.232	0.322	11.658	-46.021	-25.879	-72.65	6.90	-51.59	-77.910	-6.664	62.230	-0.73831	0.51028	-0.30502	0.31839	30.9	13111	100
2025-3-27 18:20:37.311	WT901BLE68-01(48591DE3C19B)	-0.341	-1.318	0.307	2.136	-31.921	-20.630	-72.55	6.64	-51.28	-77.910	-6.664	62.230	-0.73831	0.51028	-0.30502	0.31839	30.9	13111	100
2025-3-27 18:20:37.311	WT901BLE68-01(48591DE3C19B)	-0.357	-1.318	0.307	2.136	-31.921	-20.630	-72.51	6.42	-51.03	-77.910	-6.664	62.230	-0.73831	0.51028	-0.30502	0.31839	30.9	13111	100
2025-3-27 18:20:37.376	WT901BLE68-01(48591DE3C19B)	-0.357	-1.374	0.348	-1.404	-12.939	-17.883	-72.50	6.24	-50.87	-77.910	-6.664	62.230	-0.73831	0.51028	-0.30502	0.31839	30.9	13111	100
2025-3-27 18:20:37.377	WT901BLE68-01(48591DE3C19B)	-0.358	-1.374	0.348	-1.404	-12.939	-17.883	-72.52	6.10	-50.79	-77.910	-6.664	62.230	-0.73831	0.51028	-0.30502	0.31839	30.9	13111	100
2025-3-27 18:20:37.377	WT901BLE68-01(48591DE3C19B)	-0.358	-1.279	0.396	-8.362	7.446	-13.062	-72.58	6.02	-50.81	-77.910	-6.664	62.230	-0.73831	0.51028	-0.30502	0.31839	30.9	13111	100
2025-3-27 18:20:37.377	WT901BLE68-01(48591DE3C19B)	-0.375	-1.279	0.396	-8.362	7.446	-13.062	-72.68	5.98	-50.91	-77.910	-6.664	62.230	-0.73831	0.51028	-0.30502	0.31839	30.9	13111	100
2025-3-27 18:20:37.400	WT901BLE68-01(48591DE3C19B)	-0.375	-1.169	0.418	-17.700	23.499	-5.676	-72.83	6.00	-51.09	-77.910	-6.664	62.230	-0.73831	0.51028	-0.30502	0.31839	30.9	13111	100
2025-3-27 18:20:37.400	WT901BLE68-01(48591DE3C19B)	-0.392	-1.169	0.418	-17.700	23.499	-5.676	-73.04	6.08	-51.32	-77.910	-6.664	62.230	-0.73831	0.51028	-0.30502	0.31839	30.9	13111	100
2025-3-27 18:20:37.400	WT901BLE68-01(48591DE3C19B)	-0.392	-1.054	0.412	-24.658	34.180	-2.686	-73.28	6.19	-51.61	-77.910	-6.664	62.230	-0.73831	0.51028	-0.30502	0.31839	30.9	13111	100
2025-3-27 18:20:37.400	WT901BLE68-01(48591DE3C19B)	-0.432	-1.054	0.412	-24.658	34.180	-2.686	-73.56	6.32	-51.94	-77.910	-6.664	62.230	-0.73831	0.51028	-0.30502	0.31839	30.9	13111	100
2025-3-27 18:20:37.428	WT901BLE68-01(48591DE3C19B)	-0.432	-0.983	0.367	-30.518	35.461	-2.319	-73.87	6.47	-52.27	-77.910	-6.664	62.230	-0.73831	0.51028	-0.30502	0.31839	30.9	13111	100
2025-3-27 18:20:37.429	WT901BLE68-01(48591DE3C19B)	-0.491	-0.983	0.367	-30.518	35.461	-2.319	-74.21	6.61	-52.61	-77.910	-6.664	62.230	-0.73831	0.51028	-0.30502	0.31839	30.9	13111	100
2025-3-27 18:20:37.429	WT901BLE68-01(48591DE3C19B)	-0.491	-0.931	0.331	-30.640	23.560	-1.892	-74.53	6.73	-52.89	-77.910	-6.664	62.230	-0.73831	0.51028	-0.30502	0.31839	30.9	13111	100
2025-3-27 18:20:37.429	WT901BLE68-01(48591DE3C19B)	-0.520	-0.931	0.331	-30.640	23.560	-1.892	-74.85	6.86	-53.11	-77.910	-6.664	62.230	-0.73831	0.51028	-0.30502	0.31839	30.9	13111	100
2025-3-27 18:20:37.489	WT901BLE68-01(48591DE3C19B)	-0.520	-0.868	0.292	-28.503	3.052	0.244	-75.12	6.94	-53.12	-77.910	-6.664	62.230	-0.73831	0.51028	-0.30502	0.31839	30.9	13111	100
2025-3-27 18:20:37.489	WT901BLE68-01(48591DE3C19B)	-0.512	-0.868	0.292	-28.503	3.052	0.244	-75.39	7.04	-53.13	-77.910	-6.664	62.230	-0.73831	0.51028	-0.30502	0.31839	30.9	13111	100
2025-3-27 18:20:37.489	WT901BLE68-01(48591DE3C19B)	-0.512	-0.845	0.214	-27.954	-16.418	5.371	-75.63	7.14	-52.94	-77.910	-6.664	62.230	-0.73831	0.51028	-0.30502	0.31839	30.9	13111	100
2025-3-27 18:20:37.490	WT901BLE68-01(48591DE3C19B)	-0.502	-0.845	0.214	-27.954	-16.418	5.371	-75.87	7.24	-52.75	-77.910	-6.664	62.230	-0.73831	0.51028	-0.30502	0.31839	30.9	13111	100
2025-3-27 18:20:37.519	WT901BLE68-01(48591DE3C19B)	-0.502	-0.865	0.143	-26.672	-35.828	14.954	-76.07	7.39	-52.34	-79.478	-6.468	61.348	-0.73831	0.51028	-0.30502	0.31839	30.9	13111	100
2025-3-27 18:20:37.519	WT901BLE68-01(48591DE3C19B)	-0.446	-0.865	0.143	-26.672	-35.828	14.954	-76.28	7.55	-51.93	-79.478	-6.468	61.348	-0.73831	0.51028	-0.30502	0.31839	30.9	13111	100
2025-3-27 18:20:37.519	WT901BLE68-01(48591DE3C19B)	-0.446	-0.863	0.091	-24.048	-58.411	27.588	-76.42	7.78	-51.27	-79.478	-6.468	61.348	-0.73831	0.51028	-0.30502	0.31839	30.9	13111	100
2025-3-27 18:20:37.519	WT901BLE68-01(48591DE3C19B)	-0.353	-0.863	0.091	-24.048	-58.411	27.588	-76.57	8.01	-50.61	-79.478	-6.468	61.348	-0.73831	0.51028	-0.30502	0.31839	30.9	13111	100
2025-3-27 18:20:37.549	WT901BLE68-01(48591DE3C19B)	-0.353	-0.824	0.082	-22.156	-78.918	45.532	-76.66	8.37	-49.71	-79.478	-6.468	61.348	-0.73831	0.51028	-0.30502	0.31839	30.9	13111	100
2025-3-27 18:20:37.549	WT901BLE68-01(48591DE3C19B)	-0.260	-0.824	0.082	-22.156	-78.918	45.532	-76.76	8.72	-48.82	-79.478	-6.468	61.348	-0.73831	0.51028	-0.30502	0.31839	30.9	13111	100
2025-3-27 18:20:37.549	WT901BLE68-01(48591DE3C19B)	-0.260	-0.851	0.083	-22.827	-91.492	61.646	-76.83	9.20	-47.76	-79.478	-6.468	61.348	-0.73831	0.51028	-0.30502	0.31839	30.9	13111	100
2025-3-27 18:20:37.549	WT901BLE68-01(48591DE3C19B)	-0.157	-0.851	0.083	-22.827	-91.492	61.646	-76.89	9.68	-46.72	-79.478	-6.468	61.348	-0.73831	0.51028	-0.30502	0.31839	30.9	13111	100
2025-3-27 18:20:37.610	WT901BLE68-01(48591DE3C19B)	-0.157	-0.903	0.084	-19.104	-91.553	75.195	-76.90	10.27	-45.64	-79.478	-6.468	61.348	-0.73831	0.51028	-0.30502	0.31839	30.9	13111	100
2025-3-27 18:20:37.610	WT901BLE68-01(48591DE3C19B)	-0.061	-0.903	0.084	-19.104	-91.553	75.195	-76.91	10.86	-44.57	-79.478	-6.468	61.348	-0.73831	0.51028	-0.30502	0.31839	30.9	13111	100
2025-3-27 18:20:37.610	WT901BLE68-01(48591DE3C19B)	-0.061	-0.909	0.081	-14.160	-78.064	85.022	-76.88	11.56	-43.62	-79.478	-6.468	61.348	-0.73831	0.51028	-0.30502	0.31839	30.9	13111	100
2025-3-27 18:20:37.610	WT901BLE68-01(48591DE3C19B)	0.000	-0.909	0.081	-14.160	-78.064	85.022	-76.84	12.25	-42.66	-79.478	-6.468	61.348	-0.73831	0.51028	-0.30502	0.31839	30.9	13111	100
2025-3-27 18:20:37.638	WT901BLE68-01(48591DE3C19B)	0.000	-0.869	0.078	-9.155	-54.016	91.370	-76.78	13.04	-41.93	-79.478	-6.468	61.348	-0.73831	0.51028	-0.30502	0.31839	30.9	13111	100
2025-3-27 18:20:37.639	WT901BLE68-01(48591DE3C19B)	0.008	-0.869	0.078	-9.155	-54.016	91.370	-76.73	13.82	-41.22	-79.478	-6.468	61.348	-0.73831	0.51028	-0.30502	0.31839	30.9	13111	100
2025-3-27 18:20:37.639	WT901BLE68-01(48591DE3C19B)	0.008	-0.792	0.069	-7.202	-24.231	93.933	-76.71	14.67	-40.78	-79.478	-6.468	61.348	-0.73831	0.51028	-0.30502	0.31839	30.9	13111	100
2025-3-27 18:20:37.639	WT901BLE68-01(48591DE3C19B)	-0.025	-0.792	0.069	-7.202	-24.231	93.933	-76.70	15.52	-40.35	-79.478	-6.468	61.348	-0.73831	0.51028	-0.30502	0.31839	30.9	13111	100
2025-3-27 18:20:37.675	WT901BLE68-01(48591DE3C19B)	-0.025	-0.716	0.072	-7.507	5.493	92.590	-76.76	16.41	-40.23	-79.478	-6.468	61.348	-0.73831	0.51028	-0.30502	0.31839	30.9	13111	100
2025-3-27 18:20:37.675	WT901BLE68-01(48591DE3C19B)	-0.097	-0.716	0.072	-7.507	5.493	92.590	-76.82	17.29	-40.11	-79.478	-6.468	61.348	-0.73831	0.51028	-0.30502	0.31839	30.9	13111	100
2025-3-27 18:20:37.676	WT901BLE68-01(48591DE3C19B)	-0.097	-0.673	0.106	-9.888	26.001	89.905	-76.96	18.18	-40.19	-79.478	-6.468	61.348	-0.73831	0.51028	-0.30502	0.31839	30.9	13111	100
2025-3-27 18:20:37.676	WT901BLE68-01(48591DE3C19B)	-0.122	-0.673	0.106	-9.888	26.001	89.905	-77.11	19.07	-40.29	-79.478	-6.468	61.348	-0.73831	0.51028	-0.30502	0.31839	30.9	13111	100
2025-3-27 18:20:37.730	WT901BLE68-01(48591DE3C19B)	-0.122	-0.699	0.144	-13.550	30.090	83.801	-77.32	19.90	-40.44	-79.478	-6.468	61.348	-0.73831	0.51028	-0.30502	0.31839	30.9	13111	100
2025-3-27 18:20:37.730	WT901BLE68-01(48591DE3C19B)	-0.164	-0.699	0.144	-13.550	30.090	83.801	-77.53	20.72	-40.59	-79.478	-6.468	61.348	-0.75812	0.52832	-0.34775	0.15839	30.9	13111	100
2025-3-27 18:20:37.730	WT901BLE68-01(48591DE3C19B)	-0.164	-0.790	0.166	-17.212	23.315	78.491	-77.74	21.47	-40.69	-79.478	-6.468	61.348	-0.75812	0.52832	-0.34775	0.15839	30.9	13111	100
2025-3-27 18:20:37.730	WT901BLE68-01(48591DE3C19B)	-0.231	-0.790	0.166	-17.212	23.315	78.491	-77.96	22.22	-40.79	-79.478	-6.468	61.348	-0.75812	0.52832	-0.34775	0.15839	30.9	13111	100
2025-3-27 18:20:37.759	WT901BLE68-01(48591DE3C19B)	-0.231	-0.903	0.169	-19.348	7.446	71.350	-78.14	22.86	-40.73	-79.478	-6.468	61.348	-0.75812	0.52832	-0.34775	0.15839	30.9	13111	100
2025-3-27 18:20:37.759	WT901BLE68-01(48591DE3C19B)	-0.240	-0.903	0.169	-19.348	7.446	71.350	-78.32	23.51	-40.68	-79.478	-6.468	61.348	-0.75812	0.52832	-0.34775	0.15839	30.9	13111	100
2025-3-27 18:20:37.759	WT901BLE68-01(48591DE3C19B)	-0.240	-1.052	0.182	-21.118	-18.372	62.683	-78.41	24.01	-40.37	-79.478	-6.468	61.348	-0.75812	0.52832	-0.34775	0.15839	30.9	13111	100
2025-3-27 18:20:37.759	WT901BLE68-01(48591DE3C19B)	-0.166	-1.052	0.182	-21.118	-18.372	62.683	-78.50	24.51	-40.06	-79.478	-6.468	61.348	-0.75812	0.52832	-0.34775	0.15839	30.9	13111	100
2025-3-27 18:20:37.789	WT901BLE68-01(48591DE3C19B)	-0.166	-1.205	0.188	-21.545	-43.457	52.246	-78.49	24.85	-39.51	-79.478	-6.468	61.348	-0.75812	0.52832	-0.34775	0.15839	30.9	13111	100
2025-3-27 18:20:37.790	WT901BLE68-01(48591DE3C19B)	-0.105	-1.205	0.188	-21.545	-43.457	52.246	-78.48	25.19	-38.96	-79.478	-6.468	61.348	-0.75812	0.52832	-0.34775	0.15839	30.9	13111	100
2025-3-27 18:20:37.790	WT901BLE68-01(48591DE3C19B)	-0.105	-1.382	0.170	-19.958	-58.777	40.771	-78.38	25.38	-38.27	-79.478	-6.468	61.348	-0.75812	0.52832	-0.34775	0.15839	30.9	13111	100
2025-3-27 18:20:37.790	WT901BLE68-01(48591DE3C19B)	-0.068	-1.382	0.170	-19.958	-58.777	40.771	-78.29	25.57	-37.57	-79.478	-6.468	61.348	-0.75812	0.52832	-0.34775	0.15839	30.9	13111	100
2025-3-27 18:20:37.851	WT901BLE68-01(48591DE3C19B)	-0.068	-1.551	0.169	-15.015	-63.232	27.710	-78.15	25.60	-36.86	-79.478	-6.468	61.348	-0.75812	0.52832	-0.34775	0.15839	30.9	13111	100
2025-3-27 18:20:37.851	WT901BLE68-01(48591DE3C19B)	-0.041	-1.551	0.169	-15.015	-63.232	27.710	-78.00	25.64	-36.16	-79.478	-6.468	61.348	-0.75812	0.52832	-0.34775	0.15839	30.9	13111	100
2025-3-27 18:20:37.851	WT901BLE68-01(48591DE3C19B)	-0.041	-1.591	0.215	-5.981	-60.242	12.939	-77.80	25.53	-35.53	-79.478	-6.468	61.348	-0.75812	0.52832	-0.34775	0.15839	30.9	13111	100
2025-3-27 18:20:37.852	WT901BLE68-01(48591DE3C19B)	-0.029	-1.591	0.215	-5.981	-60.242	12.939	-77.60	25.41	-34.90	-79.478	-6.468	61.348	-0.75812	0.52832	-0.34775	0.15839	30.9	13111	100
2025-3-27 18:20:37.881	WT901BLE68-01(48591DE3C19B)	-0.029	-1.532	0.280	2.563	-49.133	-3.235	-77.39	25.16	-34.43	-79.478	-6.468	61.348	-0.75812	0.52832	-0.34775	0.15839	30.9	13111	100
2025-3-27 18:20:37.881	WT901BLE68-01(48591DE3C19B)	-0.036	-1.532	0.280	2.563	-49.133	-3.235	-77.18	24.90	-33.97	-79.478	-6.468	61.348	-0.75812	0.52832	-0.34775	0.15839	30.9	13111	100
2025-3-27 18:20:37.881	WT901BLE68-01(48591DE3C19B)	-0.036	-1.471	0.307	10.498	-29.724	-19.348	-77.00	24.53	-33.76	-79.478	-6.468	61.348	-0.75812	0.52832	-0.34775	0.15839	30.9	13111	100
2025-3-27 18:20:37.881	WT901BLE68-01(48591DE3C19B)	-0.036	-1.471	0.307	10.498	-29.724	-19.348	-76.82	24.15	-33.54	-59.878	5.194	66.542	-0.75812	0.52832	-0.34775	0.15839	30.9	13111	100
2025-3-27 18:20:37.911	WT901BLE68-01(48591DE3C19B)	-0.039	-1.414	0.287	19.958	-6.653	-33.936	-76.66	23.69	-33.61	-59.878	5.194	66.542	-0.75812	0.52832	-0.34775	0.15839	30.9	13111	100
2025-3-27 18:20:37.911	WT901BLE68-01(48591DE3C19B)	-0.039	-1.352	0.216	28.564	18.677	-48.096	-76.51	23.19	-33.83	-59.878	5.194	66.542	-0.75812	0.52832	-0.34775	0.15839	30.9	13111	100
2025-3-27 18:20:37.912	WT901BLE68-01(48591DE3C19B)	-0.058	-1.352	0.216	28.564	18.677	-48.096	-76.39	22.65	-34.21	-59.878	5.194	66.542	-0.75812	0.52832	-0.34775	0.15839	30.9	13111	100
2025-3-27 18:20:37.912	WT901BLE68-01(48591DE3C19B)	-0.058	-1.244	0.115	36.255	40.527	-59.448	-76.27	22.09	-34.71	-59.878	5.194	66.542	-0.75812	0.52832	-0.34775	0.15839	30.9	13111	100
2025-3-27 18:20:37.977	WT901BLE68-01(48591DE3C19B)	-0.088	-1.244	0.115	36.255	40.527	-59.448	-76.16	21.50	-35.33	-59.878	5.194	66.542	-0.75812	0.52832	-0.34775	0.15839	30.9	13111	100
2025-3-27 18:20:37.977	WT901BLE68-01(48591DE3C19B)	-0.088	-1.047	0.100	38.879	52.368	-64.758	-76.05	20.90	-36.02	-59.878	5.194	66.542	-0.75812	0.52832	-0.34775	0.15839	30.9	13111	100
2025-3-27 18:20:37.977	WT901BLE68-01(48591DE3C19B)	-0.136	-1.047	0.100	38.879	52.368	-64.758	-75.95	20.30	-36.77	-59.878	5.194	66.542	-0.75812	0.52832	-0.34775	0.15839	30.9	13111	100
2025-3-27 18:20:37.977	WT901BLE68-01(48591DE3C19B)	-0.136	-0.914	0.151	33.020	54.565	-66.895	-75.88	19.70	-37.53	-59.878	5.194	66.542	-0.75812	0.52832	-0.34775	0.15839	30.9	13111	100
2025-3-27 18:20:38.0	WT901BLE68-01(48591DE3C19B)	-0.173	-0.914	0.151	33.020	54.565	-66.895	-75.84	19.09	-38.29	-59.878	5.194	66.542	-0.75812	0.52832	-0.34775	0.15839	30.9	13111	100
2025-3-27 18:20:38.0	WT901BLE68-01(48591DE3C19B)	-0.173	-0.881	0.215	25.696	49.377	-66.101	-75.81	18.49	-39.03	-59.878	5.194	66.542	-0.75812	0.52832	-0.34775	0.15839	30.9	13111	100
2025-3-27 18:20:38.0	WT901BLE68-01(48591DE3C19B)	-0.212	-0.881	0.215	25.696	49.377	-66.101	-75.80	17.89	-39.73	-59.878	5.194	66.542	-0.75812	0.52832	-0.34775	0.15839	30.9	13111	100
2025-3-27 18:20:38.0	WT901BLE68-01(48591DE3C19B)	-0.212	-0.868	0.290	21.179	40.161	-59.570	-75.78	17.32	-40.36	-59.878	5.194	66.542	-0.75812	0.52832	-0.34775	0.15839	30.9	13111	100
2025-3-27 18:20:38.29	WT901BLE68-01(48591DE3C19B)	-0.222	-0.868	0.290	21.179	40.161	-59.570	-75.76	16.78	-40.95	-59.878	5.194	66.542	-0.75812	0.52832	-0.34775	0.15839	30.9	13111	100
2025-3-27 18:20:38.29	WT901BLE68-01(48591DE3C19B)	-0.222	-0.865	0.326	16.968	26.489	-52.063	-75.73	16.26	-41.44	-59.878	5.194	66.542	-0.75812	0.52832	-0.34775	0.15839	30.9	13111	100
2025-3-27 18:20:38.29	WT901BLE68-01(48591DE3C19B)	-0.187	-0.865	0.326	16.968	26.489	-52.063	-75.69	15.77	-41.85	-59.878	5.194	66.542	-0.75812	0.52832	-0.34775	0.15839	30.9	13111	100
2025-3-27 18:20:38.30	WT901BLE68-01(48591DE3C19B)	-0.187	-0.864	0.297	13.550	14.771	-46.143	-75.64	15.29	-42.20	-59.878	5.194	66.542	-0.75812	0.52832	-0.34775	0.15839	30.9	13111	100
2025-3-27 18:20:38.90	WT901BLE68-01(48591DE3C19B)	-0.149	-0.864	0.297	13.550	14.771	-46.143	-75.58	14.84	-42.48	-59.878	5.194	66.542	-0.75812	0.52832	-0.34775	0.15839	30.9	13111	100
2025-3-27 18:20:38.90	WT901BLE68-01(48591DE3C19B)	-0.149	-0.861	0.240	12.024	14.648	-43.274	-75.53	14.41	-42.75	-59.878	5.194	66.542	-0.75812	0.52832	-0.34775	0.15839	30.9	13111	100
2025-3-27 18:20:38.90	WT901BLE68-01(48591DE3C19B)	-0.135	-0.861	0.240	12.024	14.648	-43.274	-75.48	13.99	-43.01	-59.878	5.194	66.542	-0.75812	0.52832	-0.34775	0.15839	30.9	13111	100
2025-3-27 18:20:38.90	WT901BLE68-01(48591DE3C19B)	-0.135	-0.825	0.188	13.489	22.156	-43.701	-75.43	13.58	-43.32	-59.878	5.194	66.542	-0.75812	0.52832	-0.34775	0.15839	30.9	13111	100
2025-3-27 18:20:38.118	WT901BLE68-01(48591DE3C19B)	-0.146	-0.825	0.188	13.489	22.156	-43.701	-75.38	13.19	-43.65	-59.878	5.194	66.542	-0.75534	0.52994	-0.30972	0.22931	30.9	13111	100
2025-3-27 18:20:38.119	WT901BLE68-01(48591DE3C19B)	-0.146	-0.757	0.178	15.381	29.358	-47.363	-75.32	12.79	-44.03	-59.878	5.194	66.542	-0.75534	0.52994	-0.30972	0.22931	30.9	13111	100
2025-3-27 18:20:38.119	WT901BLE68-01(48591DE3C19B)	-0.159	-0.757	0.178	15.381	29.358	-47.363	-75.27	12.38	-44.45	-59.878	5.194	66.542	-0.75534	0.52994	-0.30972	0.22931	30.9	13111	100
2025-3-27 18:20:38.119	WT901BLE68-01(48591DE3C19B)	-0.159	-0.683	0.197	17.639	34.912	-52.063	-75.20	11.96	-44.90	-59.878	5.194	66.542	-0.75534	0.52994	-0.30972	0.22931	30.9	13111	100
2025-3-27 18:20:38.149	WT901BLE68-01(48591DE3C19B)	-0.170	-0.683	0.197	17.639	34.912	-52.063	-75.13	11.54	-45.38	-59.878	5.194	66.542	-0.75534	0.52994	-0.30972	0.22931	30.9	13111	100
2025-3-27 18:20:38.149	WT901BLE68-01(48591DE3C19B)	-0.170	-0.603	0.215	20.813	41.992	-56.213	-75.05	11.10	-45.90	-59.878	5.194	66.542	-0.75534	0.52994	-0.30972	0.22931	30.9	13111	100
2025-3-27 18:20:38.149	WT901BLE68-01(48591DE3C19B)	-0.220	-0.603	0.215	20.813	41.992	-56.213	-74.95	10.66	-46.45	-59.878	5.194	66.542	-0.75534	0.52994	-0.30972	0.22931	30.9	13111	100
2025-3-27 18:20:38.150	WT901BLE68-01(48591DE3C19B)	-0.220	-0.532	0.202	23.804	46.265	-59.021	-74.83	10.22	-47.03	-59.878	5.194	66.542	-0.75534	0.52994	-0.30972	0.22931	30.9	13111	100
2025-3-27 18:20:38.210	WT901BLE68-01(48591DE3C19B)	-0.272	-0.532	0.202	23.804	46.265	-59.021	-74.70	9.78	-47.63	-59.878	5.194	66.542	-0.75534	0.52994	-0.30972	0.22931	30.9	13111	100
2025-3-27 18:20:38.210	WT901BLE68-01(48591DE3C19B)	-0.272	-0.486	0.182	25.208	42.603	-59.692	-74.55	9.34	-48.21	-59.878	5.194	66.542	-0.75534	0.52994	-0.30972	0.22931	30.9	13111	100
2025-3-27 18:20:38.210	WT901BLE68-01(48591DE3C19B)	-0.308	-0.486	0.182	25.208	42.603	-59.692	-74.39	8.90	-48.77	-59.878	5.194	66.542	-0.75534	0.52994	-0.30972	0.22931	30.9	13111	100
2025-3-27 18:20:38.210	WT901BLE68-01(48591DE3C19B)	-0.308	-0.474	0.171	24.719	31.006	-58.472	-74.22	8.47	-49.27	-59.878	5.194	66.542	-0.75534	0.52994	-0.30972	0.22931	30.9	13111	100
2025-3-27 18:20:38.239	WT901BLE68-01(48591DE3C19B)	-0.349	-0.474	0.171	24.719	31.006	-58.472	-74.04	8.04	-49.71	-59.878	5.194	66.542	-0.75534	0.52994	-0.30972	0.22931	30.9	13111	100
2025-3-27 18:20:38.239	WT901BLE68-01(48591DE3C19B)	-0.349	-0.537	0.198	22.461	13.916	-54.871	-73.85	7.61	-50.05	-59.878	5.194	66.542	-0.75534	0.52994	-0.30972	0.22931	30.9	13111	100
2025-3-27 18:20:38.239	WT901BLE68-01(48591DE3C19B)	-0.366	-0.537	0.198	22.461	13.916	-54.871	-73.66	7.19	-50.32	-59.878	5.194	66.542	-0.75534	0.52994	-0.30972	0.22931	30.9	13111	100
2025-3-27 18:20:38.239	WT901BLE68-01(48591DE3C19B)	-0.366	-0.648	0.261	23.987	-2.258	-50.598	-73.45	6.77	-50.49	-59.878	5.194	66.542	-0.75534	0.52994	-0.30972	0.22931	30.9	13111	100
2025-3-27 18:20:38.274	WT901BLE68-01(48591DE3C19B)	-0.356	-0.648	0.261	23.987	-2.258	-50.598	-73.22	6.37	-50.59	-59.878	5.194	66.542	-0.75534	0.52994	-0.30972	0.22931	30.9	13111	100
2025-3-27 18:20:38.275	WT901BLE68-01(48591DE3C19B)	-0.356	-0.762	0.312	25.330	-13.306	-47.729	-72.98	5.96	-50.63	-59.878	5.194	66.542	-0.75534	0.52994	-0.30972	0.22931	30.9	13111	100
2025-3-27 18:20:38.275	WT901BLE68-01(48591DE3C19B)	-0.336	-0.762	0.312	25.330	-13.306	-47.729	-72.73	5.56	-50.61	-59.878	5.194	66.542	-0.75534	0.52994	-0.30972	0.22931	30.9	13111	100
2025-3-27 18:20:38.275	WT901BLE68-01(48591DE3C19B)	-0.336	-0.916	0.340	25.085	-14.648	-45.288	-72.47	5.17	-50.59	-59.878	5.194	66.542	-0.75534	0.52994	-0.30972	0.22931	30.9	13111	100
2025-3-27 18:20:38.330	WT901BLE68-01(48591DE3C19B)	-0.314	-0.916	0.340	25.085	-14.648	-45.288	-72.21	4.79	-50.55	-59.878	5.194	66.542	-0.75534	0.52994	-0.30972	0.22931	30.9	13111	100
2025-3-27 18:20:38.330	WT901BLE68-01(48591DE3C19B)	-0.314	-1.089	0.328	25.269	-5.066	-43.579	-71.97	4.43	-50.57	-71.344	2.450	60.760	-0.75534	0.52994	-0.30972	0.22931	30.9	13111	100
2025-3-27 18:20:38.330	WT901BLE68-01(48591DE3C19B)	-0.302	-1.089	0.328	25.269	-5.066	-43.579	-71.72	4.10	-50.64	-71.344	2.450	60.760	-0.75534	0.52994	-0.30972	0.22931	30.9	13111	100
2025-3-27 18:20:38.330	WT901BLE68-01(48591DE3C19B)	-0.302	-1.227	0.326	23.071	10.986	-43.640	-71.49	3.78	-50.78	-71.344	2.450	60.760	-0.75534	0.52994	-0.30972	0.22931	30.9	13111	100
2025-3-27 18:20:38.359	WT901BLE68-01(48591DE3C19B)	-0.325	-1.227	0.326	23.071	10.986	-43.640	-71.28	3.50	-51.00	-71.344	2.450	60.760	-0.75534	0.52994	-0.30972	0.22931	30.9	13111	100
2025-3-27 18:20:38.360	WT901BLE68-01(48591DE3C19B)	-0.325	-1.435	0.344	14.526	31.128	-40.710	-71.12	3.25	-51.32	-71.344	2.450	60.760	-0.75534	0.52994	-0.30972	0.22931	30.9	13111	100
2025-3-27 18:20:38.360	WT901BLE68-01(48591DE3C19B)	-0.363	-1.435	0.344	14.526	31.128	-40.710	-71.02	3.05	-51.72	-71.344	2.450	60.760	-0.75534	0.52994	-0.30972	0.22931	30.9	13111	100
2025-3-27 18:20:38.360	WT901BLE68-01(48591DE3C19B)	-0.363	-1.562	0.362	12.451	50.720	-40.466	-70.92	2.88	-52.22	-71.344	2.450	60.760	-0.75534	0.52994	-0.30972	0.22931	30.9	13111	100
2025-3-27 18:20:38.389	WT901BLE68-01(48591DE3C19B)	-0.406	-1.562	0.362	12.451	50.720	-40.466	-70.85	2.74	-52.81	-71.344	2.450	60.760	-0.75534	0.52994	-0.30972	0.22931	30.9	13111	100
2025-3-27 18:20:38.389	WT901BLE68-01(48591DE3C19B)	-0.406	-1.483	0.364	7.202	59.937	-37.537	-70.83	2.66	-53.47	-71.344	2.450	60.760	-0.75534	0.52994	-0.30972	0.22931	30.9	13111	100
2025-3-27 18:20:38.389	WT901BLE68-01(48591DE3C19B)	-0.424	-1.483	0.364	7.202	59.937	-37.537	-70.82	2.58	-54.14	-71.344	2.450	60.760	-0.75534	0.52994	-0.30972	0.22931	30.9	13111	100
2025-3-27 18:20:38.389	WT901BLE68-01(48591DE3C19B)	-0.424	-1.332	0.373	-4.700	59.937	-33.081	-70.92	2.54	-54.78	-71.344	2.450	60.760	-0.75534	0.52994	-0.30972	0.22931	30.9	13111	100
2025-3-27 18:20:38.449	WT901BLE68-01(48591DE3C19B)	-0.456	-1.332	0.373	-4.700	59.937	-33.081	-71.03	2.50	-55.42	-71.344	2.450	60.760	-0.75534	0.52994	-0.30972	0.22931	30.9	13111	100
2025-3-27 18:20:38.449	WT901BLE68-01(48591DE3C19B)	-0.456	-1.230	0.376	-18.066	49.438	-27.344	-71.25	2.49	-55.94	-71.344	2.450	60.760	-0.75534	0.52994	-0.30972	0.22931	30.9	13111	100
2025-3-27 18:20:38.449	WT901BLE68-01(48591DE3C19B)	-0.507	-1.230	0.376	-18.066	49.438	-27.344	-71.48	2.47	-56.45	-71.344	2.450	60.760	-0.75534	0.52994	-0.30972	0.22931	30.9	13111	100
2025-3-27 18:20:38.449	WT901BLE68-01(48591DE3C19B)	-0.507	-1.139	0.368	-27.283	23.315	-19.348	-71.78	2.44	-56.69	-71.344	2.450	60.760	-0.75534	0.52994	-0.30972	0.22931	30.9	13111	100
2025-3-27 18:20:38.479	WT901BLE68-01(48591DE3C19B)	-0.505	-1.139	0.368	-27.283	23.315	-19.348	-72.09	2.42	-56.93	-71.344	2.450	60.760	-0.75534	0.52994	-0.30972	0.22931	30.9	13111	100
2025-3-27 18:20:38.479	WT901BLE68-01(48591DE3C19B)	-0.505	-0.972	0.334	-31.433	-12.878	-6.104	-72.41	2.42	-56.78	-71.344	2.450	60.760	-0.75534	0.52994	-0.30972	0.22931	30.9	13111	100
2025-3-27 18:20:38.479	WT901BLE68-01(48591DE3C19B)	-0.455	-0.972	0.334	-31.433	-12.878	-6.104	-72.73	2.42	-56.63	-71.344	2.450	60.760	-0.75534	0.52994	-0.30972	0.22931	30.9	13111	100
2025-3-27 18:20:38.479	WT901BLE68-01(48591DE3C19B)	-0.455	-0.788	0.280	-35.889	-48.828	10.315	-73.08	2.48	-56.09	-71.344	2.450	60.760	-0.75534	0.52994	-0.30972	0.22931	30.9	13111	100
2025-3-27 18:20:38.511	WT901BLE68-01(48591DE3C19B)	-0.388	-0.788	0.280	-35.889	-48.828	10.315	-73.42	2.55	-55.55	-71.344	2.450	60.760	-0.75534	0.52994	-0.30972	0.22931	30.9	13111	100
2025-3-27 18:20:38.512	WT901BLE68-01(48591DE3C19B)	-0.388	-0.725	0.246	-41.199	-71.838	25.818	-73.80	2.70	-54.75	-71.344	2.450	60.760	-0.75534	0.52994	-0.30972	0.22931	30.9	13111	100
2025-3-27 18:20:38.512	WT901BLE68-01(48591DE3C19B)	-0.329	-0.725	0.246	-41.199	-71.838	25.818	-74.17	2.86	-53.95	-71.344	2.450	60.760	-0.71750	0.52817	-0.29123	0.34830	30.9	13111	100
2025-3-27 18:20:38.512	WT901BLE68-01(48591DE3C19B)	-0.329	-0.807	0.195	-43.213	-80.688	40.161	-74.56	3.14	-53.03	-71.344	2.450	60.760	-0.71750	0.52817	-0.29123	0.34830	30.9	13111	100
2025-3-27 18:20:38.576	WT901BLE68-01(48591DE3C19B)	-0.285	-0.807	0.195	-43.213	-80.688	40.161	-74.93	3.43	-52.12	-71.344	2.450	60.760	-0.71750	0.52817	-0.29123	0.34830	30.9	13111	100
2025-3-27 18:20:38.576	WT901BLE68-01(48591DE3C19B)	-0.285	-0.875	0.166	-37.170	-82.703	53.833	-75.24	3.84	-51.15	-71.344	2.450	60.760	-0.71750	0.52817	-0.29123	0.34830	30.9	13111	100
2025-3-27 18:20:38.576	WT901BLE68-01(48591DE3C19B)	-0.236	-0.875	0.166	-37.170	-82.703	53.833	-75.54	4.25	-50.19	-71.344	2.450	60.760	-0.71750	0.52817	-0.29123	0.34830	30.9	13111	100
2025-3-27 18:20:38.576	WT901BLE68-01(48591DE3C19B)	-0.236	-0.940	0.153	-30.273	-79.468	64.758	-75.77	4.78	-49.24	-71.344	2.450	60.760	-0.71750	0.52817	-0.29123	0.34830	30.9	13111	100
2025-3-27 18:20:38.600	WT901BLE68-01(48591DE3C19B)	-0.174	-0.940	0.153	-30.273	-79.468	64.758	-75.99	5.30	-48.28	-71.344	2.450	60.760	-0.71750	0.52817	-0.29123	0.34830	30.9	13111	100
2025-3-27 18:20:38.600	WT901BLE68-01(48591DE3C19B)	-0.174	-0.922	0.153	-20.081	-67.261	74.646	-76.11	5.94	-47.43	-71.344	2.450	60.760	-0.71750	0.52817	-0.29123	0.34830	30.9	13111	100
2025-3-27 18:20:38.600	WT901BLE68-01(48591DE3C19B)	-0.125	-0.922	0.153	-20.081	-67.261	74.646	-76.22	6.58	-46.59	-71.344	2.450	60.760	-0.71750	0.52817	-0.29123	0.34830	30.9	13111	100
2025-3-27 18:20:38.600	WT901BLE68-01(48591DE3C19B)	-0.125	-0.846	0.164	-12.329	-48.157	83.984	-76.27	7.34	-45.91	-71.344	2.450	60.760	-0.71750	0.52817	-0.29123	0.34830	30.9	13111	100
2025-3-27 18:20:38.631	WT901BLE68-01(48591DE3C19B)	-0.096	-0.846	0.164	-12.329	-48.157	83.984	-76.30	8.10	-45.23	-71.344	2.450	60.760	-0.71750	0.52817	-0.29123	0.34830	30.9	13111	100
2025-3-27 18:20:38.631	WT901BLE68-01(48591DE3C19B)	-0.096	-0.806	0.164	-8.118	-25.146	91.187	-76.32	8.96	-44.76	-71.344	2.450	60.760	-0.71750	0.52817	-0.29123	0.34830	30.9	13111	100
2025-3-27 18:20:38.631	WT901BLE68-01(48591DE3C19B)	-0.087	-0.806	0.164	-8.118	-25.146	91.187	-76.33	9.83	-44.29	-71.344	2.450	60.760	-0.71750	0.52817	-0.29123	0.34830	30.9	13111	100
2025-3-27 18:20:38.631	WT901BLE68-01(48591DE3C19B)	-0.087	-0.779	0.156	-5.676	-5.127	96.497	-76.34	10.77	-44.00	-71.344	2.450	60.760	-0.71750	0.52817	-0.29123	0.34830	30.9	13111	100
2025-3-27 18:20:38.690	WT901BLE68-01(48591DE3C19B)	-0.091	-0.779	0.156	-5.676	-5.127	96.497	-76.35	11.71	-43.71	-71.344	2.450	60.760	-0.71750	0.52817	-0.29123	0.34830	30.9	13111	100
2025-3-27 18:20:38.690	WT901BLE68-01(48591DE3C19B)	-0.091	-0.764	0.149	-5.005	10.925	100.769	-76.38	12.72	-43.57	-71.344	2.450	60.760	-0.71750	0.52817	-0.29123	0.34830	30.9	13111	100
2025-3-27 18:20:38.690	WT901BLE68-01(48591DE3C19B)	-0.117	-0.764	0.149	-5.005	10.925	100.769	-76.40	13.72	-43.43	-71.344	2.450	60.760	-0.71750	0.52817	-0.29123	0.34830	30.9	13111	100
2025-3-27 18:20:38.690	WT901BLE68-01(48591DE3C19B)	-0.117	-0.778	0.146	-5.981	23.010	103.760	-76.46	14.77	-43.40	-71.344	2.450	60.760	-0.71750	0.52817	-0.29123	0.34830	30.9	13111	100
2025-3-27 18:20:38.719	WT901BLE68-01(48591DE3C19B)	-0.155	-0.778	0.146	-5.981	23.010	103.760	-76.53	15.81	-43.37	-60.074	7.056	64.876	-0.71750	0.52817	-0.29123	0.34830	30.9	13111	100
2025-3-27 18:20:38.719	WT901BLE68-01(48591DE3C19B)	-0.155	-0.774	0.134	-7.385	27.771	105.347	-76.62	16.87	-43.39	-60.074	7.056	64.876	-0.71750	0.52817	-0.29123	0.34830	30.9	13111	100
2025-3-27 18:20:38.719	WT901BLE68-01(48591DE3C19B)	-0.169	-0.774	0.134	-7.385	27.771	105.347	-76.71	17.92	-43.40	-60.074	7.056	64.876	-0.71750	0.52817	-0.29123	0.34830	30.9	13111	100
2025-3-27 18:20:38.719	WT901BLE68-01(48591DE3C19B)	-0.169	-0.761	0.116	-10.498	25.635	106.812	-76.82	18.98	-43.39	-60.074	7.056	64.876	-0.71750	0.52817	-0.29123	0.34830	30.9	13111	100
2025-3-27 18:20:38.749	WT901BLE68-01(48591DE3C19B)	-0.199	-0.761	0.116	-10.498	25.635	106.812	-76.94	20.03	-43.37	-60.074	7.056	64.876	-0.71750	0.52817	-0.29123	0.34830	30.9	13111	100
2025-3-27 18:20:38.749	WT901BLE68-01(48591DE3C19B)	-0.199	-0.780	0.110	-14.221	17.029	107.117	-77.06	21.06	-43.27	-60.074	7.056	64.876	-0.71750	0.52817	-0.29123	0.34830	30.9	13111	100
2025-3-27 18:20:38.749	WT901BLE68-01(48591DE3C19B)	-0.220	-0.780	0.110	-14.221	17.029	107.117	-77.19	22.08	-43.17	-60.074	7.056	64.876	-0.71750	0.52817	-0.29123	0.34830	30.9	13111	100
2025-3-27 18:20:38.750	WT901BLE68-01(48591DE3C19B)	-0.220	-0.847	0.104	-17.456	1.770	105.957	-77.29	23.05	-42.90	-60.074	7.056	64.876	-0.71750	0.52817	-0.29123	0.34830	30.9	13111	100
