time	DeviceName	AccX(g)	AccY(g)	AccZ(g)	AsX(°/s)	AsY(°/s)	AsZ(°/s)	AngleX(°)	AngleY(°)	AngleZ(°)	HX(uT)	HY(uT)	HZ(uT)	Q0()	Q1()	Q2()	Q3()	Temperature(°C)	Version()	Battery level(%)
2025-3-27 18:37:2.39	WT901BLE68-01(48591DE3C19B)	-0.100	-0.965	0.253	-7.568	-8.057	-4.089	-75.76	9.25	-22.33	-54.194	-60.172	85.848	0.78625	-0.58875	0.16867	-0.08133	31.0	13111	100
2025-3-27 18:37:2.39	WT901BLE68-01(48591DE3C19B)	-0.100	-0.973	0.253	-6.897	-3.357	-3.601	-75.83	9.19	-22.37	-54.194	-60.172	85.848	0.78625	-0.58875	0.16867	-0.08133	31.0	13111	100
2025-3-27 18:37:2.39	WT901BLE68-01(48591DE3C19B)	-0.095	-0.973	0.253	-6.897	-3.357	-3.601	-75.89	9.13	-22.41	-54.194	-60.172	85.848	0.78625	-0.58875	0.16867	-0.08133	31.0	13111	100
2025-3-27 18:37:2.39	WT901BLE68-01(48591DE3C19B)	-0.095	-0.979	0.250	-6.226	2.502	-2.686	-75.96	9.10	-22.50	-54.194	-60.172	85.848	0.78625	-0.58875	0.16867	-0.08133	31.0	13111	100
2025-3-27 18:37:2.69	WT901BLE68-01(48591DE3C19B)	-0.085	-0.979	0.250	-6.226	2.502	-2.686	-76.03	9.06	-22.60	-54.194	-60.172	85.848	0.78625	-0.58875	0.16867	-0.08133	31.0	13111	100
2025-3-27 18:37:2.69	WT901BLE68-01(48591DE3C19B)	-0.085	-0.986	0.249	-5.859	6.836	-2.686	-76.10	9.03	-22.74	-54.194	-60.172	85.848	0.78625	-0.58875	0.16867	-0.08133	31.0	13111	100
2025-3-27 18:37:2.69	WT901BLE68-01(48591DE3C19B)	-0.083	-0.986	0.249	-5.859	6.836	-2.686	-76.17	9.00	-22.87	-54.194	-60.172	85.848	0.78625	-0.58875	0.16867	-0.08133	31.0	13111	100
2025-3-27 18:37:2.69	WT901BLE68-01(48591DE3C19B)	-0.088	-1.000	0.252	-5.615	10.254	-3.479	-76.25	8.97	-23.04	-54.194	-60.172	85.848	0.78625	-0.58875	0.16867	-0.08133	31.0	13111	100
2025-3-27 18:37:2.96	WT901BLE68-01(48591DE3C19B)	-0.088	-1.021	0.254	-4.517	12.451	-4.700	-76.32	8.94	-23.23	-54.194	-60.172	85.848	0.78625	-0.58875	0.16867	-0.08133	31.0	13111	100
2025-3-27 18:37:2.96	WT901BLE68-01(48591DE3C19B)	-0.066	-1.021	0.254	-4.517	12.451	-4.700	-76.38	8.90	-23.42	-54.194	-60.172	85.848	0.78625	-0.58875	0.16867	-0.08133	31.0	13111	100
2025-3-27 18:37:2.97	WT901BLE68-01(48591DE3C19B)	-0.066	-1.026	0.249	-2.258	14.221	-5.920	-76.44	8.86	-23.63	-54.194	-60.172	85.848	0.77621	-0.59131	0.18616	-0.11441	31.0	13111	100
2025-3-27 18:37:2.97	WT901BLE68-01(48591DE3C19B)	-0.042	-1.026	0.249	-2.258	14.221	-5.920	-76.48	8.82	-23.85	-54.194	-60.172	85.848	0.77621	-0.59131	0.18616	-0.11441	31.0	13111	100
2025-3-27 18:37:2.157	WT901BLE68-01(48591DE3C19B)	-0.042	-1.020	0.233	-0.366	18.127	-6.653	-76.52	8.77	-24.08	-54.194	-60.172	85.848	0.77621	-0.59131	0.18616	-0.11441	31.0	13111	100
2025-3-27 18:37:2.157	WT901BLE68-01(48591DE3C19B)	-0.030	-1.020	0.233	-0.366	18.127	-6.653	-76.55	8.72	-24.34	-54.194	-60.172	85.848	0.77621	-0.59131	0.18616	-0.11441	31.0	13111	100
2025-3-27 18:37:2.157	WT901BLE68-01(48591DE3C19B)	-0.030	-1.011	0.226	1.099	21.240	-7.446	-76.58	8.68	-24.61	-54.194	-60.172	85.848	0.77621	-0.59131	0.18616	-0.11441	31.0	13111	100
2025-3-27 18:37:2.157	WT901BLE68-01(48591DE3C19B)	-0.020	-1.011	0.226	1.099	21.240	-7.446	-76.61	8.63	-24.90	-54.194	-60.172	85.848	0.77621	-0.59131	0.18616	-0.11441	31.0	13111	100
2025-3-27 18:37:2.192	WT901BLE68-01(48591DE3C19B)	-0.020	-0.996	0.225	2.747	22.888	-8.484	-76.62	8.57	-25.19	-54.194	-60.172	85.848	0.77621	-0.59131	0.18616	-0.11441	31.0	13111	100
2025-3-27 18:37:2.192	WT901BLE68-01(48591DE3C19B)	-0.024	-0.996	0.225	2.747	22.888	-8.484	-76.64	8.51	-25.50	-54.194	-60.172	85.848	0.77621	-0.59131	0.18616	-0.11441	31.0	13111	100
2025-3-27 18:37:2.192	WT901BLE68-01(48591DE3C19B)	-0.024	-0.979	0.224	3.967	24.048	-9.094	-76.64	8.45	-25.81	-54.194	-60.172	85.848	0.77621	-0.59131	0.18616	-0.11441	31.0	13111	100
2025-3-27 18:37:2.192	WT901BLE68-01(48591DE3C19B)	-0.016	-0.979	0.224	3.967	24.048	-9.094	-76.64	8.39	-26.13	-54.194	-60.172	85.848	0.77621	-0.59131	0.18616	-0.11441	31.0	13111	100
2025-3-27 18:37:2.217	WT901BLE68-01(48591DE3C19B)	-0.016	-0.961	0.208	6.470	25.085	-9.094	-76.63	8.33	-26.45	-54.194	-60.172	85.848	0.77621	-0.59131	0.18616	-0.11441	31.0	13111	100
2025-3-27 18:37:2.217	WT901BLE68-01(48591DE3C19B)	0.011	-0.961	0.208	6.470	25.085	-9.094	-76.61	8.27	-26.77	-54.194	-60.172	85.848	0.77621	-0.59131	0.18616	-0.11441	31.0	13111	100
2025-3-27 18:37:2.217	WT901BLE68-01(48591DE3C19B)	0.011	-0.934	0.185	8.423	28.992	-8.728	-76.58	8.21	-27.12	-54.194	-60.172	85.848	0.77621	-0.59131	0.18616	-0.11441	31.0	13111	100
2025-3-27 18:37:2.217	WT901BLE68-01(48591DE3C19B)	0.049	-0.934	0.185	8.423	28.992	-8.728	-76.54	8.16	-27.48	-54.194	-60.172	85.848	0.77621	-0.59131	0.18616	-0.11441	31.0	13111	100
2025-3-27 18:37:2.277	WT901BLE68-01(48591DE3C19B)	0.049	-0.915	0.169	9.827	36.865	-8.362	-76.51	8.11	-27.88	-54.194	-60.172	85.848	0.77621	-0.59131	0.18616	-0.11441	31.0	13111	100
2025-3-27 18:37:2.278	WT901BLE68-01(48591DE3C19B)	0.069	-0.915	0.169	9.827	36.865	-8.362	-76.48	8.08	-28.32	-54.194	-60.172	85.848	0.77621	-0.59131	0.18616	-0.11441	31.0	13111	100
2025-3-27 18:37:2.278	WT901BLE68-01(48591DE3C19B)	0.034	-0.909	0.157	9.705	49.194	-9.827	-76.45	8.05	-28.81	-54.194	-60.172	85.848	0.77621	-0.59131	0.18616	-0.11441	31.0	13111	100
2025-3-27 18:37:2.278	WT901BLE68-01(48591DE3C19B)	0.050	-0.455	0.079	9.705	49.194	-9.827	-76.44	8.03	-29.37	-54.194	-60.172	85.848	0.77621	-0.59131	0.18616	-0.11441	31.0	13111	100
2025-3-27 18:37:2.308	WT901BLE68-01(48591DE3C19B)	0.050	-0.914	0.155	7.080	61.218	-11.353	-76.44	8.01	-29.99	-56.644	-60.956	85.946	0.77621	-0.59131	0.18616	-0.11441	31.0	13111	100
2025-3-27 18:37:2.308	WT901BLE68-01(48591DE3C19B)	-0.001	-0.914	0.155	7.080	61.218	-11.353	-76.48	7.99	-30.67	-56.644	-60.956	85.946	0.77621	-0.59131	0.18616	-0.11441	31.0	13111	100
2025-3-27 18:37:2.308	WT901BLE68-01(48591DE3C19B)	-0.001	-1.002	0.178	1.343	68.726	-14.832	-76.54	7.97	-31.38	-56.644	-60.956	85.946	0.77621	-0.59131	0.18616	-0.11441	31.0	13111	100
2025-3-27 18:37:2.308	WT901BLE68-01(48591DE3C19B)	-0.091	-1.002	0.178	1.343	68.726	-14.832	-76.64	7.94	-32.14	-56.644	-60.956	85.946	0.77621	-0.59131	0.18616	-0.11441	31.0	13111	100
2025-3-27 18:37:2.337	WT901BLE68-01(48591DE3C19B)	-0.091	-1.128	0.223	-1.404	68.970	-19.531	-76.76	7.88	-32.89	-56.644	-60.956	85.946	0.77621	-0.59131	0.18616	-0.11441	31.0	13111	100
2025-3-27 18:37:2.337	WT901BLE68-01(48591DE3C19B)	-0.188	-1.128	0.223	-1.404	68.970	-19.531	-76.88	7.81	-33.64	-56.644	-60.956	85.946	0.77621	-0.59131	0.18616	-0.11441	31.0	13111	100
2025-3-27 18:37:2.338	WT901BLE68-01(48591DE3C19B)	-0.188	-1.177	0.269	0.732	59.082	-23.315	-76.99	7.70	-34.35	-56.644	-60.956	85.946	0.77621	-0.59131	0.18616	-0.11441	31.0	13111	100
2025-3-27 18:37:2.338	WT901BLE68-01(48591DE3C19B)	-0.227	-1.177	0.269	0.732	59.082	-23.315	-77.07	7.58	-35.00	-56.644	-60.956	85.946	0.77621	-0.59131	0.18616	-0.11441	31.0	13111	100
2025-3-27 18:37:2.397	WT901BLE68-01(48591DE3C19B)	-0.227	-1.091	0.294	2.563	41.687	-26.428	-77.14	7.42	-35.57	-56.644	-60.956	85.946	0.77621	-0.59131	0.18616	-0.11441	31.0	13111	100
2025-3-27 18:37:2.397	WT901BLE68-01(48591DE3C19B)	-0.235	-1.091	0.294	2.563	41.687	-26.428	-77.18	7.23	-36.05	-56.644	-60.956	85.946	0.77621	-0.59131	0.18616	-0.11441	31.0	13111	100
2025-3-27 18:37:2.397	WT901BLE68-01(48591DE3C19B)	-0.235	-0.967	0.294	1.343	25.330	-27.039	-77.21	7.03	-36.44	-56.644	-60.956	85.946	0.77621	-0.59131	0.18616	-0.11441	31.0	13111	100
2025-3-27 18:37:2.397	WT901BLE68-01(48591DE3C19B)	-0.257	-0.967	0.294	1.343	25.330	-27.039	-77.23	6.82	-36.75	-56.644	-60.956	85.946	0.77621	-0.59131	0.18616	-0.11441	31.0	13111	100
2025-3-27 18:37:2.428	WT901BLE68-01(48591DE3C19B)	-0.257	-0.875	0.292	-1.099	9.949	-25.879	-77.26	6.59	-36.98	-56.644	-60.956	85.946	0.77621	-0.59131	0.18616	-0.11441	31.0	13111	100
2025-3-27 18:37:2.428	WT901BLE68-01(48591DE3C19B)	-0.278	-0.875	0.292	-1.099	9.949	-25.879	-77.28	6.37	-37.13	-56.644	-60.956	85.946	0.77621	-0.59131	0.18616	-0.11441	31.0	13111	100
2025-3-27 18:37:2.428	WT901BLE68-01(48591DE3C19B)	-0.278	-0.825	0.311	-3.296	-6.470	-23.376	-77.30	6.14	-37.19	-56.644	-60.956	85.946	0.77621	-0.59131	0.18616	-0.11441	31.0	13111	100
2025-3-27 18:37:2.428	WT901BLE68-01(48591DE3C19B)	-0.264	-0.825	0.311	-3.296	-6.470	-23.376	-77.32	5.92	-37.17	-56.644	-60.956	85.946	0.77621	-0.59131	0.18616	-0.11441	31.0	13111	100
2025-3-27 18:37:2.458	WT901BLE68-01(48591DE3C19B)	-0.264	-0.807	0.328	-5.066	-17.456	-21.729	-77.34	5.69	-37.09	-56.644	-60.956	85.946	0.77621	-0.59131	0.18616	-0.11441	31.0	13111	100
2025-3-27 18:37:2.458	WT901BLE68-01(48591DE3C19B)	-0.238	-0.807	0.328	-5.066	-17.456	-21.729	-77.35	5.47	-36.95	-56.644	-60.956	85.946	0.77621	-0.59131	0.18616	-0.11441	31.0	13111	100
2025-3-27 18:37:2.458	WT901BLE68-01(48591DE3C19B)	-0.238	-0.806	0.343	-6.104	-17.822	-22.095	-77.38	5.25	-36.81	-56.644	-60.956	85.946	0.77621	-0.59131	0.18616	-0.11441	31.0	13111	100
2025-3-27 18:37:2.458	WT901BLE68-01(48591DE3C19B)	-0.249	-0.806	0.343	-6.104	-17.822	-22.095	-77.40	5.03	-36.67	-56.644	-60.956	85.946	0.77621	-0.59131	0.18616	-0.11441	31.0	13111	100
2025-3-27 18:37:2.517	WT901BLE68-01(48591DE3C19B)	-0.249	-0.832	0.364	-6.592	-12.756	-24.231	-77.43	4.82	-36.56	-56.644	-60.956	85.946	0.77621	-0.59131	0.18616	-0.11441	31.0	13111	100
2025-3-27 18:37:2.518	WT901BLE68-01(48591DE3C19B)	-0.288	-0.832	0.364	-6.592	-12.756	-24.231	-77.46	4.60	-36.47	-56.644	-60.956	85.946	0.74814	-0.58392	0.22531	-0.22006	31.0	13111	100
2025-3-27 18:37:2.518	WT901BLE68-01(48591DE3C19B)	-0.288	-0.889	0.389	-5.981	-7.935	-28.137	-77.48	4.37	-36.41	-56.644	-60.956	85.946	0.74814	-0.58392	0.22531	-0.22006	31.0	13111	100
2025-3-27 18:37:2.518	WT901BLE68-01(48591DE3C19B)	-0.322	-0.889	0.389	-5.981	-7.935	-28.137	-77.50	4.13	-36.37	-56.644	-60.956	85.946	0.74814	-0.58392	0.22531	-0.22006	31.0	13111	100
2025-3-27 18:37:2.547	WT901BLE68-01(48591DE3C19B)	-0.322	-0.925	0.413	-3.174	-5.127	-31.067	-77.51	3.88	-36.35	-56.644	-60.956	85.946	0.74814	-0.58392	0.22531	-0.22006	31.0	13111	100
2025-3-27 18:37:2.547	WT901BLE68-01(48591DE3C19B)	-0.355	-0.925	0.413	-3.174	-5.127	-31.067	-77.50	3.63	-36.35	-56.644	-60.956	85.946	0.74814	-0.58392	0.22531	-0.22006	31.0	13111	100
2025-3-27 18:37:2.547	WT901BLE68-01(48591DE3C19B)	-0.355	-0.939	0.434	-0.183	-4.333	-31.982	-77.47	3.37	-36.35	-56.644	-60.956	85.946	0.74814	-0.58392	0.22531	-0.22006	31.0	13111	100
2025-3-27 18:37:2.547	WT901BLE68-01(48591DE3C19B)	-0.372	-0.939	0.434	-0.183	-4.333	-31.982	-77.43	3.12	-36.35	-56.644	-60.956	85.946	0.74814	-0.58392	0.22531	-0.22006	31.0	13111	100
2025-3-27 18:37:2.577	WT901BLE68-01(48591DE3C19B)	-0.372	-0.979	0.440	1.831	-4.456	-31.433	-77.36	2.88	-36.34	-56.644	-60.956	85.946	0.74814	-0.58392	0.22531	-0.22006	31.0	13111	100
2025-3-27 18:37:2.577	WT901BLE68-01(48591DE3C19B)	-0.366	-0.979	0.440	1.831	-4.456	-31.433	-77.29	2.64	-36.34	-56.644	-60.956	85.946	0.74814	-0.58392	0.22531	-0.22006	31.0	13111	100
2025-3-27 18:37:2.577	WT901BLE68-01(48591DE3C19B)	-0.366	-1.008	0.412	4.517	-2.930	-29.480	-77.20	2.43	-36.34	-56.644	-60.956	85.946	0.74814	-0.58392	0.22531	-0.22006	31.0	13111	100
2025-3-27 18:37:2.577	WT901BLE68-01(48591DE3C19B)	-0.352	-1.008	0.412	4.517	-2.930	-29.480	-77.11	2.22	-36.34	-56.644	-60.956	85.946	0.74814	-0.58392	0.22531	-0.22006	31.0	13111	100
2025-3-27 18:37:2.637	WT901BLE68-01(48591DE3C19B)	-0.352	-1.027	0.358	4.211	1.282	-26.184	-77.03	2.07	-36.36	-56.644	-60.956	85.946	0.74814	-0.58392	0.22531	-0.22006	31.0	13111	100
2025-3-27 18:37:2.637	WT901BLE68-01(48591DE3C19B)	-0.340	-1.027	0.358	4.211	1.282	-26.184	-76.94	1.90	-36.39	-56.644	-60.956	85.946	0.74814	-0.58392	0.22531	-0.22006	31.0	13111	100
2025-3-27 18:37:2.637	WT901BLE68-01(48591DE3C19B)	-0.340	-1.077	0.297	1.526	7.935	-22.705	-76.89	1.79	-36.47	-56.644	-60.956	85.946	0.74814	-0.58392	0.22531	-0.22006	31.0	13111	100
2025-3-27 18:37:2.637	WT901BLE68-01(48591DE3C19B)	-0.334	-1.077	0.297	1.526	7.935	-22.705	-76.85	1.68	-36.55	-56.644	-60.956	85.946	0.74814	-0.58392	0.22531	-0.22006	31.0	13111	100
2025-3-27 18:37:2.668	WT901BLE68-01(48591DE3C19B)	-0.334	-1.131	0.255	-3.540	14.160	-19.592	-76.86	1.61	-36.68	-56.644	-60.956	85.946	0.74814	-0.58392	0.22531	-0.22006	31.0	13111	100
2025-3-27 18:37:2.668	WT901BLE68-01(48591DE3C19B)	-0.333	-1.131	0.255	-3.540	14.160	-19.592	-76.88	1.55	-36.81	-56.644	-60.956	85.946	0.74814	-0.58392	0.22531	-0.22006	31.0	13111	100
2025-3-27 18:37:2.668	WT901BLE68-01(48591DE3C19B)	-0.333	-1.192	0.245	-11.841	19.653	-15.625	-76.98	1.53	-36.98	-56.644	-60.956	85.946	0.74814	-0.58392	0.22531	-0.22006	31.0	13111	100
2025-3-27 18:37:2.668	WT901BLE68-01(48591DE3C19B)	-0.337	-1.192	0.245	-11.841	19.653	-15.625	-77.09	1.52	-37.14	-56.644	-60.956	85.946	0.74814	-0.58392	0.22531	-0.22006	31.0	13111	100
2025-3-27 18:37:2.696	WT901BLE68-01(48591DE3C19B)	-0.337	-1.305	0.264	-20.325	22.278	-11.780	-77.28	1.54	-37.33	-56.644	-60.956	85.946	0.74814	-0.58392	0.22531	-0.22006	31.0	13111	100
2025-3-27 18:37:2.696	WT901BLE68-01(48591DE3C19B)	-0.320	-1.305	0.264	-20.325	22.278	-11.780	-77.48	1.56	-37.51	-56.644	-60.956	85.946	0.74814	-0.58392	0.22531	-0.22006	31.0	13111	100
2025-3-27 18:37:2.696	WT901BLE68-01(48591DE3C19B)	-0.320	-1.362	0.287	-23.682	24.353	-9.338	-77.71	1.60	-37.71	-58.310	-61.250	85.848	0.74814	-0.58392	0.22531	-0.22006	31.0	13111	100
2025-3-27 18:37:2.697	WT901BLE68-01(48591DE3C19B)	-0.336	-1.362	0.287	-23.682	24.353	-9.338	-77.94	1.65	-37.91	-58.310	-61.250	85.848	0.74814	-0.58392	0.22531	-0.22006	31.0	13111	100
2025-3-27 18:37:2.757	WT901BLE68-01(48591DE3C19B)	-0.336	-1.304	0.327	-25.391	25.818	-5.432	-78.19	1.73	-38.12	-58.310	-61.250	85.848	0.74814	-0.58392	0.22531	-0.22006	31.0	13111	100
2025-3-27 18:37:2.757	WT901BLE68-01(48591DE3C19B)	-0.395	-1.304	0.327	-25.391	25.818	-5.432	-78.44	1.81	-38.32	-58.310	-61.250	85.848	0.74814	-0.58392	0.22531	-0.22006	31.0	13111	100
2025-3-27 18:37:2.757	WT901BLE68-01(48591DE3C19B)	-0.395	-1.195	0.349	-26.428	19.531	1.282	-78.70	1.94	-38.45	-58.310	-61.250	85.848	0.74814	-0.58392	0.22531	-0.22006	31.0	13111	100
2025-3-27 18:37:2.757	WT901BLE68-01(48591DE3C19B)	-0.406	-1.195	0.349	-26.428	19.531	1.282	-78.95	2.08	-38.58	-58.310	-61.250	85.848	0.74814	-0.58392	0.22531	-0.22006	31.0	13111	100
2025-3-27 18:37:2.791	WT901BLE68-01(48591DE3C19B)	-0.406	-1.067	0.321	-25.452	1.526	11.108	-79.19	2.27	-38.51	-58.310	-61.250	85.848	0.74814	-0.58392	0.22531	-0.22006	31.0	13111	100
2025-3-27 18:37:2.791	WT901BLE68-01(48591DE3C19B)	-0.342	-1.067	0.321	-25.452	1.526	11.108	-79.42	2.47	-38.45	-58.310	-61.250	85.848	0.74814	-0.58392	0.22531	-0.22006	31.0	13111	100
2025-3-27 18:37:2.791	WT901BLE68-01(48591DE3C19B)	-0.342	-0.910	0.240	-23.071	-19.409	25.269	-79.62	2.77	-38.15	-58.310	-61.250	85.848	0.74814	-0.58392	0.22531	-0.22006	31.0	13111	100
2025-3-27 18:37:2.791	WT901BLE68-01(48591DE3C19B)	-0.277	-0.910	0.240	-23.071	-19.409	25.269	-79.82	3.07	-37.86	-58.310	-61.250	85.848	0.74814	-0.58392	0.22531	-0.22006	31.0	13111	100
2025-3-27 18:37:2.817	WT901BLE68-01(48591DE3C19B)	-0.277	-0.804	0.121	-23.560	-37.659	40.222	-80.01	3.48	-37.36	-58.310	-61.250	85.848	0.74814	-0.58392	0.22531	-0.22006	31.0	13111	100
2025-3-27 18:37:2.817	WT901BLE68-01(48591DE3C19B)	-0.223	-0.804	0.121	-23.560	-37.659	40.222	-80.19	3.89	-36.86	-58.310	-61.250	85.848	0.74814	-0.58392	0.22531	-0.22006	31.0	13111	100
2025-3-27 18:37:2.817	WT901BLE68-01(48591DE3C19B)	-0.223	-0.811	0.016	-23.315	-51.453	52.551	-80.36	4.41	-36.22	-58.310	-61.250	85.848	0.74814	-0.58392	0.22531	-0.22006	31.0	13111	100
2025-3-27 18:37:2.817	WT901BLE68-01(48591DE3C19B)	-0.208	-0.811	0.016	-23.315	-51.453	52.551	-80.54	4.91	-35.57	-58.310	-61.250	85.848	0.74814	-0.58392	0.22531	-0.22006	31.0	13111	100
2025-3-27 18:37:2.878	WT901BLE68-01(48591DE3C19B)	-0.208	-0.827	-0.032	-19.714	-62.622	63.416	-80.66	5.50	-34.80	-58.310	-61.250	85.848	0.74814	-0.58392	0.22531	-0.22006	31.0	13111	100
2025-3-27 18:37:2.878	WT901BLE68-01(48591DE3C19B)	-0.213	-0.827	-0.032	-19.714	-62.622	63.416	-80.78	6.09	-34.04	-58.310	-61.250	85.848	0.74814	-0.58392	0.22531	-0.22006	31.0	13111	100
2025-3-27 18:37:2.878	WT901BLE68-01(48591DE3C19B)	-0.213	-0.905	-0.047	-17.273	-70.251	71.045	-80.86	6.74	-33.18	-58.310	-61.250	85.848	0.74814	-0.58392	0.22531	-0.22006	31.0	13111	100
2025-3-27 18:37:2.878	WT901BLE68-01(48591DE3C19B)	-0.209	-0.905	-0.047	-17.273	-70.251	71.045	-80.95	7.39	-32.34	-58.310	-61.250	85.848	0.74814	-0.58392	0.22531	-0.22006	31.0	13111	100
2025-3-27 18:37:2.907	WT901BLE68-01(48591DE3C19B)	-0.209	-0.968	-0.032	-10.803	-75.439	76.355	-80.95	8.07	-31.44	-58.310	-61.250	85.848	0.74814	-0.58392	0.22531	-0.22006	31.0	13111	100
2025-3-27 18:37:2.907	WT901BLE68-01(48591DE3C19B)	-0.204	-0.968	-0.032	-10.803	-75.439	76.355	-80.95	8.75	-30.55	-58.310	-61.250	85.848	0.74814	-0.58392	0.22531	-0.22006	31.0	13111	100
2025-3-27 18:37:2.907	WT901BLE68-01(48591DE3C19B)	-0.204	-1.007	0.011	-5.005	-76.843	79.773	-80.88	9.45	-29.64	-58.310	-61.250	85.848	0.74814	-0.58392	0.22531	-0.22006	31.0	13111	100
2025-3-27 18:37:2.907	WT901BLE68-01(48591DE3C19B)	-0.174	-1.007	0.011	-5.005	-76.843	79.773	-80.80	10.14	-28.73	-58.310	-61.250	85.848	0.74899	-0.60867	0.22537	-0.13272	31.0	13111	100
2025-3-27 18:37:2.967	WT901BLE68-01(48591DE3C19B)	-0.174	-1.047	0.057	0.916	-73.792	81.055	-80.66	10.84	-27.86	-58.310	-61.250	85.848	0.74899	-0.60867	0.22537	-0.13272	31.0	13111	100
2025-3-27 18:37:2.967	WT901BLE68-01(48591DE3C19B)	-0.075	-1.047	0.057	0.916	-73.792	81.055	-80.51	11.54	-26.99	-58.310	-61.250	85.848	0.74899	-0.60867	0.22537	-0.13272	31.0	13111	100
2025-3-27 18:37:2.967	WT901BLE68-01(48591DE3C19B)	-0.075	-1.032	0.059	8.301	-58.960	79.834	-80.30	12.23	-26.28	-58.310	-61.250	85.848	0.74899	-0.60867	0.22537	-0.13272	31.0	13111	100
2025-3-27 18:37:2.968	WT901BLE68-01(48591DE3C19B)	-0.026	-1.032	0.059	8.301	-58.960	79.834	-80.09	12.91	-25.57	-58.310	-61.250	85.848	0.74899	-0.60867	0.22537	-0.13272	31.0	13111	100
2025-3-27 18:37:2.996	WT901BLE68-01(48591DE3C19B)	-0.026	-0.913	0.024	13.367	-28.870	78.003	-79.89	13.62	-25.17	-58.310	-61.250	85.848	0.74899	-0.60867	0.22537	-0.13272	31.0	13111	100
2025-3-27 18:37:2.997	WT901BLE68-01(48591DE3C19B)	-0.019	-0.913	0.024	13.367	-28.870	78.003	-79.69	14.32	-24.77	-58.310	-61.250	85.848	0.74899	-0.60867	0.22537	-0.13272	31.0	13111	100
2025-3-27 18:37:2.997	WT901BLE68-01(48591DE3C19B)	-0.019	-0.794	-0.003	11.353	0.916	75.378	-79.59	15.03	-24.69	-58.310	-61.250	85.848	0.74899	-0.60867	0.22537	-0.13272	31.0	13111	100
2025-3-27 18:37:2.997	WT901BLE68-01(48591DE3C19B)	0.015	-0.794	-0.003	11.353	0.916	75.378	-79.49	15.74	-24.60	-58.310	-61.250	85.848	0.74899	-0.60867	0.22537	-0.13272	31.0	13111	100
2025-3-27 18:37:3.27	WT901BLE68-01(48591DE3C19B)	0.023	-0.735	-0.035	6.409	19.409	70.007	-79.49	16.41	-24.72	-58.310	-61.250	85.848	0.74899	-0.60867	0.22537	-0.13272	31.0	13111	100
2025-3-27 18:37:3.28	WT901BLE68-01(48591DE3C19B)	0.023	-0.685	-0.049	-0.610	24.414	64.636	-79.55	17.07	-24.88	-58.310	-61.250	85.848	0.74899	-0.60867	0.22537	-0.13272	31.0	13111	100
2025-3-27 18:37:3.28	WT901BLE68-01(48591DE3C19B)	-0.019	-0.685	-0.049	-0.610	24.414	64.636	-79.65	17.68	-25.07	-58.310	-61.250	85.848	0.74899	-0.60867	0.22537	-0.13272	31.0	13111	100
2025-3-27 18:37:3.28	WT901BLE68-01(48591DE3C19B)	-0.019	-0.714	-0.029	-10.986	17.761	58.289	-79.80	18.26	-25.23	-58.310	-61.250	85.848	0.74899	-0.60867	0.22537	-0.13272	31.0	13111	100
2025-3-27 18:37:3.90	WT901BLE68-01(48591DE3C19B)	-0.087	-0.714	-0.029	-10.986	17.761	58.289	-79.99	18.79	-25.37	-58.310	-61.250	85.848	0.74899	-0.60867	0.22537	-0.13272	31.0	13111	100
2025-3-27 18:37:3.90	WT901BLE68-01(48591DE3C19B)	-0.087	-0.872	-0.002	-20.508	1.221	51.086	-80.21	19.27	-25.43	-58.310	-61.250	85.848	0.74899	-0.60867	0.22537	-0.13272	31.0	13111	100
2025-3-27 18:37:3.90	WT901BLE68-01(48591DE3C19B)	-0.125	-0.872	-0.002	-20.508	1.221	51.086	-80.45	19.70	-25.42	-58.310	-61.250	85.848	0.74899	-0.60867	0.22537	-0.13272	31.0	13111	100
2025-3-27 18:37:3.91	WT901BLE68-01(48591DE3C19B)	-0.125	-1.084	0.041	-27.893	-17.334	44.189	-80.70	20.07	-25.32	-58.310	-61.250	85.848	0.74899	-0.60867	0.22537	-0.13272	31.0	13111	100
2025-3-27 18:37:3.117	WT901BLE68-01(48591DE3C19B)	-0.127	-1.084	0.041	-27.893	-17.334	44.189	-80.95	20.40	-25.14	-68.012	-56.546	87.514	0.74899	-0.60867	0.22537	-0.13272	31.0	13111	100
2025-3-27 18:37:3.117	WT901BLE68-01(48591DE3C19B)	-0.127	-1.313	0.043	-27.588	-39.307	35.217	-81.15	20.66	-24.85	-68.012	-56.546	87.514	0.74899	-0.60867	0.22537	-0.13272	31.0	13111	100
2025-3-27 18:37:3.117	WT901BLE68-01(48591DE3C19B)	-0.033	-1.313	0.043	-27.588	-39.307	35.217	-81.32	20.86	-24.45	-68.012	-56.546	87.514	0.74899	-0.60867	0.22537	-0.13272	31.0	13111	100
2025-3-27 18:37:3.117	WT901BLE68-01(48591DE3C19B)	-0.033	-1.456	0.042	-23.438	-62.683	26.428	-81.41	21.01	-23.94	-68.012	-56.546	87.514	0.74899	-0.60867	0.22537	-0.13272	31.0	13111	100
2025-3-27 18:37:3.148	WT901BLE68-01(48591DE3C19B)	0.079	-1.456	0.042	-23.438	-62.683	26.428	-81.45	21.08	-23.32	-68.012	-56.546	87.514	0.74899	-0.60867	0.22537	-0.13272	31.0	13111	100
2025-3-27 18:37:3.148	WT901BLE68-01(48591DE3C19B)	0.079	-1.529	0.057	-17.273	-74.219	19.348	-81.44	21.11	-22.65	-68.012	-56.546	87.514	0.74899	-0.60867	0.22537	-0.13272	31.0	13111	100
2025-3-27 18:37:3.148	WT901BLE68-01(48591DE3C19B)	0.168	-1.529	0.057	-17.273	-74.219	19.348	-81.38	21.09	-21.93	-68.012	-56.546	87.514	0.74899	-0.60867	0.22537	-0.13272	31.0	13111	100
2025-3-27 18:37:3.148	WT901BLE68-01(48591DE3C19B)	0.168	-1.598	0.077	-14.282	-70.251	9.399	-81.31	21.02	-21.25	-68.012	-56.546	87.514	0.74899	-0.60867	0.22537	-0.13272	31.0	13111	100
2025-3-27 18:37:3.207	WT901BLE68-01(48591DE3C19B)	0.250	-1.598	0.077	-14.282	-70.251	9.399	-81.24	20.90	-20.60	-68.012	-56.546	87.514	0.74899	-0.60867	0.22537	-0.13272	31.0	13111	100
2025-3-27 18:37:3.207	WT901BLE68-01(48591DE3C19B)	0.250	-1.724	0.082	-6.409	-53.284	-2.258	-81.18	20.73	-20.06	-68.012	-56.546	87.514	0.74899	-0.60867	0.22537	-0.13272	31.0	13111	100
2025-3-27 18:37:3.207	WT901BLE68-01(48591DE3C19B)	0.317	-1.724	0.082	-6.409	-53.284	-2.258	-81.11	20.50	-19.63	-68.012	-56.546	87.514	0.74899	-0.60867	0.22537	-0.13272	31.0	13111	100
2025-3-27 18:37:3.207	WT901BLE68-01(48591DE3C19B)	0.317	-1.786	0.062	5.371	-19.653	-17.639	-81.05	20.22	-19.39	-68.012	-56.546	87.514	0.74899	-0.60867	0.22537	-0.13272	31.0	13111	100
2025-3-27 18:37:3.237	WT901BLE68-01(48591DE3C19B)	0.286	-1.786	0.062	5.371	-19.653	-17.639	-81.00	19.89	-19.34	-68.012	-56.546	87.514	0.74899	-0.60867	0.22537	-0.13272	31.0	13111	100
2025-3-27 18:37:3.237	WT901BLE68-01(48591DE3C19B)	0.286	-1.780	0.005	17.578	25.635	-36.621	-80.99	19.50	-19.55	-68.012	-56.546	87.514	0.74899	-0.60867	0.22537	-0.13272	31.0	13111	100
2025-3-27 18:37:3.237	WT901BLE68-01(48591DE3C19B)	0.167	-1.780	0.005	17.578	25.635	-36.621	-80.99	19.04	-20.01	-68.012	-56.546	87.514	0.74899	-0.60867	0.22537	-0.13272	31.0	13111	100
2025-3-27 18:37:3.237	WT901BLE68-01(48591DE3C19B)	0.167	-1.646	-0.014	28.259	61.401	-55.786	-81.00	18.52	-20.67	-68.012	-56.546	87.514	0.74899	-0.60867	0.22537	-0.13272	31.0	13111	100
2025-3-27 18:37:3.268	WT901BLE68-01(48591DE3C19B)	0.067	-1.646	-0.014	28.259	61.401	-55.786	-81.01	17.94	-21.52	-68.012	-56.546	87.514	0.74899	-0.60867	0.22537	-0.13272	31.0	13111	100
2025-3-27 18:37:3.269	WT901BLE68-01(48591DE3C19B)	0.067	-1.349	0.008	36.377	77.759	-71.289	-81.01	17.30	-22.46	-68.012	-56.546	87.514	0.74899	-0.60867	0.22537	-0.13272	31.0	13111	100
2025-3-27 18:37:3.269	WT901BLE68-01(48591DE3C19B)	0.022	-1.349	0.008	36.377	77.759	-71.289	-80.99	16.59	-23.49	-68.012	-56.546	87.514	0.74899	-0.60867	0.22537	-0.13272	31.0	13111	100
2025-3-27 18:37:3.269	WT901BLE68-01(48591DE3C19B)	0.022	-1.000	0.047	34.546	83.801	-77.087	-80.96	15.88	-24.54	-68.012	-56.546	87.514	0.74899	-0.60867	0.22537	-0.13272	31.0	13111	100
2025-3-27 18:37:3.327	WT901BLE68-01(48591DE3C19B)	-0.009	-1.000	0.047	34.546	83.801	-77.087	-80.94	15.13	-25.62	-68.012	-56.546	87.514	0.74899	-0.60867	0.22537	-0.13272	31.0	13111	100
2025-3-27 18:37:3.327	WT901BLE68-01(48591DE3C19B)	-0.009	-0.793	0.107	26.367	81.665	-74.524	-80.95	14.41	-26.68	-68.012	-56.546	87.514	0.75238	-0.60434	0.24194	-0.10028	31.0	13111	100
2025-3-27 18:37:3.327	WT901BLE68-01(48591DE3C19B)	-0.018	-0.793	0.107	26.367	81.665	-74.524	-80.97	13.70	-27.71	-68.012	-56.546	87.514	0.75238	-0.60434	0.24194	-0.10028	31.0	13111	100
2025-3-27 18:37:3.327	WT901BLE68-01(48591DE3C19B)	-0.018	-0.778	0.153	18.616	69.336	-74.463	-81.00	12.99	-28.67	-68.012	-56.546	87.514	0.75238	-0.60434	0.24194	-0.10028	31.0	13111	100
2025-3-27 18:37:3.356	WT901BLE68-01(48591DE3C19B)	-0.017	-0.778	0.153	18.616	69.336	-74.463	-81.05	12.27	-29.56	-68.012	-56.546	87.514	0.75238	-0.60434	0.24194	-0.10028	31.0	13111	100
2025-3-27 18:37:3.356	WT901BLE68-01(48591DE3C19B)	-0.017	-0.871	0.153	10.315	52.917	-72.754	-81.10	11.55	-30.36	-68.012	-56.546	87.514	0.75238	-0.60434	0.24194	-0.10028	31.0	13111	100
2025-3-27 18:37:3.356	WT901BLE68-01(48591DE3C19B)	-0.074	-0.871	0.153	10.315	52.917	-72.754	-81.16	10.84	-31.07	-68.012	-56.546	87.514	0.75238	-0.60434	0.24194	-0.10028	31.0	13111	100
2025-3-27 18:37:3.356	WT901BLE68-01(48591DE3C19B)	-0.074	-0.942	0.148	8.728	37.781	-70.801	-81.19	10.12	-31.70	-68.012	-56.546	87.514	0.75238	-0.60434	0.24194	-0.10028	31.0	13111	100
2025-3-27 18:37:3.386	WT901BLE68-01(48591DE3C19B)	-0.154	-0.942	0.148	8.728	37.781	-70.801	-81.22	9.42	-32.23	-68.012	-56.546	87.514	0.75238	-0.60434	0.24194	-0.10028	31.0	13111	100
2025-3-27 18:37:3.387	WT901BLE68-01(48591DE3C19B)	-0.154	-0.930	0.149	7.202	23.193	-74.036	-81.23	8.69	-32.70	-68.012	-56.546	87.514	0.75238	-0.60434	0.24194	-0.10028	31.0	13111	100
2025-3-27 18:37:3.387	WT901BLE68-01(48591DE3C19B)	-0.196	-0.930	0.149	7.202	23.193	-74.036	-81.24	7.94	-33.09	-68.012	-56.546	87.514	0.75238	-0.60434	0.24194	-0.10028	31.0	13111	100
2025-3-27 18:37:3.387	WT901BLE68-01(48591DE3C19B)	-0.196	-0.896	0.149	4.944	12.634	-80.811	-81.24	7.16	-33.43	-68.012	-56.546	87.514	0.75238	-0.60434	0.24194	-0.10028	31.0	13111	100
2025-3-27 18:37:3.447	WT901BLE68-01(48591DE3C19B)	-0.208	-0.896	0.149	4.944	12.634	-80.811	-81.23	6.36	-33.71	-68.012	-56.546	87.514	0.75238	-0.60434	0.24194	-0.10028	31.0	13111	100
2025-3-27 18:37:3.447	WT901BLE68-01(48591DE3C19B)	-0.208	-0.820	0.174	3.296	8.240	-86.975	-81.23	5.53	-33.98	-68.012	-56.546	87.514	0.75238	-0.60434	0.24194	-0.10028	31.0	13111	100
2025-3-27 18:37:3.447	WT901BLE68-01(48591DE3C19B)	-0.204	-0.820	0.174	3.296	8.240	-86.975	-81.23	4.67	-34.22	-68.012	-56.546	87.514	0.75238	-0.60434	0.24194	-0.10028	31.0	13111	100
2025-3-27 18:37:3.447	WT901BLE68-01(48591DE3C19B)	-0.204	-0.725	0.217	1.709	8.423	-90.637	-81.23	3.81	-34.46	-68.012	-56.546	87.514	0.75238	-0.60434	0.24194	-0.10028	31.0	13111	100
2025-3-27 18:37:3.478	WT901BLE68-01(48591DE3C19B)	-0.214	-0.725	0.217	1.709	8.423	-90.637	-81.23	2.94	-34.70	-68.012	-56.546	87.514	0.75238	-0.60434	0.24194	-0.10028	31.0	13111	100
2025-3-27 18:37:3.478	WT901BLE68-01(48591DE3C19B)	-0.214	-0.632	0.249	-0.549	12.085	-92.896	-81.23	2.07	-34.96	-68.012	-56.546	87.514	0.75238	-0.60434	0.24194	-0.10028	31.0	13111	100
2025-3-27 18:37:3.478	WT901BLE68-01(48591DE3C19B)	-0.243	-0.632	0.249	-0.549	12.085	-92.896	-81.24	1.20	-35.23	-68.012	-56.546	87.514	0.75238	-0.60434	0.24194	-0.10028	31.0	13111	100
2025-3-27 18:37:3.478	WT901BLE68-01(48591DE3C19B)	-0.243	-0.567	0.266	-2.747	27.100	-93.933	-81.26	0.36	-35.65	-68.012	-56.546	87.514	0.75238	-0.60434	0.24194	-0.10028	31.0	13111	100
2025-3-27 18:37:3.507	WT901BLE68-01(48591DE3C19B)	-0.301	-0.567	0.266	-2.747	27.100	-93.933	-81.27	-0.47	-36.07	-68.012	-56.546	87.514	0.75238	-0.60434	0.24194	-0.10028	31.0	13111	100
2025-3-27 18:37:3.507	WT901BLE68-01(48591DE3C19B)	-0.301	-0.552	0.283	-4.395	54.382	-92.346	-81.28	-1.23	-36.75	-68.012	-56.546	87.514	0.75238	-0.60434	0.24194	-0.10028	31.0	13111	100
2025-3-27 18:37:3.507	WT901BLE68-01(48591DE3C19B)	-0.372	-0.552	0.283	-4.395	54.382	-92.346	-81.28	-1.98	-37.42	-63.798	-52.136	82.908	0.75238	-0.60434	0.24194	-0.10028	31.0	13111	100
2025-3-27 18:37:3.507	WT901BLE68-01(48591DE3C19B)	-0.372	-0.603	0.281	-4.028	78.003	-85.205	-81.25	-2.61	-38.30	-63.798	-52.136	82.908	0.75238	-0.60434	0.24194	-0.10028	31.0	13111	100
2025-3-27 18:37:3.567	WT901BLE68-01(48591DE3C19B)	-0.422	-0.603	0.281	-4.028	78.003	-85.205	-81.21	-3.22	-39.18	-63.798	-52.136	82.908	0.75238	-0.60434	0.24194	-0.10028	31.0	13111	100
2025-3-27 18:37:3.568	WT901BLE68-01(48591DE3C19B)	-0.422	-0.626	0.244	-2.991	79.834	-74.158	-81.15	-3.72	-40.05	-63.798	-52.136	82.908	0.75238	-0.60434	0.24194	-0.10028	31.0	13111	100
2025-3-27 18:37:3.568	WT901BLE68-01(48591DE3C19B)	-0.460	-0.626	0.244	-2.991	79.834	-74.158	-81.07	-4.20	-40.90	-63.798	-52.136	82.908	0.75238	-0.60434	0.24194	-0.10028	31.0	13111	100
2025-3-27 18:37:3.568	WT901BLE68-01(48591DE3C19B)	-0.460	-0.672	0.215	-2.991	69.397	-59.387	-81.01	-4.53	-41.63	-63.798	-52.136	82.908	0.75238	-0.60434	0.24194	-0.10028	31.0	13111	100
2025-3-27 18:37:3.597	WT901BLE68-01(48591DE3C19B)	-0.555	-0.672	0.215	-2.991	69.397	-59.387	-80.95	-4.85	-42.34	-63.798	-52.136	82.908	0.75238	-0.60434	0.24194	-0.10028	31.0	13111	100
2025-3-27 18:37:3.597	WT901BLE68-01(48591DE3C19B)	-0.555	-0.755	0.204	-0.977	57.678	-44.739	-80.88	-5.04	-42.89	-63.798	-52.136	82.908	0.75238	-0.60434	0.24194	-0.10028	31.0	13111	100
2025-3-27 18:37:3.597	WT901BLE68-01(48591DE3C19B)	-0.668	-0.755	0.204	-0.977	57.678	-44.739	-80.82	-5.21	-43.44	-63.798	-52.136	82.908	0.75238	-0.60434	0.24194	-0.10028	31.0	13111	100
2025-3-27 18:37:3.597	WT901BLE68-01(48591DE3C19B)	-0.668	-0.858	0.213	0.305	42.114	-32.959	-80.76	-5.28	-43.80	-63.798	-52.136	82.908	0.75238	-0.60434	0.24194	-0.10028	31.0	13111	100
2025-3-27 18:37:3.627	WT901BLE68-01(48591DE3C19B)	-0.733	-0.858	0.213	0.305	42.114	-32.959	-80.71	-5.34	-44.15	-63.798	-52.136	82.908	0.75238	-0.60434	0.24194	-0.10028	31.0	13111	100
2025-3-27 18:37:3.628	WT901BLE68-01(48591DE3C19B)	-0.733	-0.995	0.248	0.488	24.231	-25.024	-80.68	-5.36	-44.30	-63.798	-52.136	82.908	0.75238	-0.60434	0.24194	-0.10028	31.0	13111	100
2025-3-27 18:37:3.628	WT901BLE68-01(48591DE3C19B)	-0.753	-0.995	0.248	0.488	24.231	-25.024	-80.66	-5.36	-44.45	-63.798	-52.136	82.908	0.75238	-0.60434	0.24194	-0.10028	31.0	13111	100
2025-3-27 18:37:3.628	WT901BLE68-01(48591DE3C19B)	-0.753	-1.122	0.259	0.427	7.446	-18.311	-80.66	-5.31	-44.41	-63.798	-52.136	82.908	0.75238	-0.60434	0.24194	-0.10028	31.0	13111	100
2025-3-27 18:37:3.689	WT901BLE68-01(48591DE3C19B)	-0.728	-1.122	0.259	0.427	7.446	-18.311	-80.66	-5.27	-44.37	-63.798	-52.136	82.908	0.75238	-0.60434	0.24194	-0.10028	31.0	13111	100
2025-3-27 18:37:3.690	WT901BLE68-01(48591DE3C19B)	-0.728	-1.169	0.243	-1.038	-9.705	-9.216	-80.70	-5.17	-44.14	-63.798	-52.136	82.908	0.75238	-0.60434	0.24194	-0.10028	31.0	13111	100
2025-3-27 18:37:3.690	WT901BLE68-01(48591DE3C19B)	-0.678	-1.169	0.243	-1.038	-9.705	-9.216	-80.73	-5.06	-43.92	-63.798	-52.136	82.908	0.75238	-0.60434	0.24194	-0.10028	31.0	13111	100
2025-3-27 18:37:3.690	WT901BLE68-01(48591DE3C19B)	-0.678	-1.167	0.249	-6.348	-20.264	2.747	-80.83	-4.86	-43.57	-63.798	-52.136	82.908	0.75238	-0.60434	0.24194	-0.10028	31.0	13111	100
2025-3-27 18:37:3.717	WT901BLE68-01(48591DE3C19B)	-0.692	-1.167	0.249	-6.348	-20.264	2.747	-80.94	-4.65	-43.23	-63.798	-52.136	82.908	0.75238	-0.60434	0.24194	-0.10028	31.0	13111	100
2025-3-27 18:37:3.717	WT901BLE68-01(48591DE3C19B)	-0.692	-1.182	0.272	-13.306	-34.302	16.846	-81.11	-4.33	-42.73	-63.798	-52.136	82.908	0.75238	-0.60434	0.24194	-0.10028	31.0	13111	100
2025-3-27 18:37:3.717	WT901BLE68-01(48591DE3C19B)	-0.714	-1.182	0.272	-13.306	-34.302	16.846	-81.29	-4.02	-42.23	-63.798	-52.136	82.908	0.75238	-0.60434	0.24194	-0.10028	31.0	13111	100
2025-3-27 18:37:3.717	WT901BLE68-01(48591DE3C19B)	-0.714	-1.177	0.304	-15.381	-60.852	33.386	-81.50	-3.58	-41.46	-63.798	-52.136	82.908	0.70093	-0.61853	0.20877	-0.28705	31.0	13111	100
2025-3-27 18:37:3.746	WT901BLE68-01(48591DE3C19B)	-0.674	-1.177	0.304	-15.381	-60.852	33.386	-81.69	-3.14	-40.68	-63.798	-52.136	82.908	0.70093	-0.61853	0.20877	-0.28705	31.0	13111	100
2025-3-27 18:37:3.747	WT901BLE68-01(48591DE3C19B)	-0.674	-1.152	0.277	-15.259	-90.637	53.406	-81.90	-2.54	-39.59	-63.798	-52.136	82.908	0.70093	-0.61853	0.20877	-0.28705	31.0	13111	100
2025-3-27 18:37:3.747	WT901BLE68-01(48591DE3C19B)	-0.600	-1.152	0.277	-15.259	-90.637	53.406	-82.09	-1.94	-38.51	-63.798	-52.136	82.908	0.70093	-0.61853	0.20877	-0.28705	31.0	13111	100
2025-3-27 18:37:3.747	WT901BLE68-01(48591DE3C19B)	-0.600	-1.145	0.171	-12.329	-115.356	77.332	-82.25	-1.14	-37.17	-63.798	-52.136	82.908	0.70093	-0.61853	0.20877	-0.28705	31.0	13111	100
2025-3-27 18:37:3.807	WT901BLE68-01(48591DE3C19B)	-0.527	-1.145	0.171	-12.329	-115.356	77.332	-82.39	-0.35	-35.83	-63.798	-52.136	82.908	0.70093	-0.61853	0.20877	-0.28705	31.0	13111	100
2025-3-27 18:37:3.807	WT901BLE68-01(48591DE3C19B)	-0.527	-1.191	0.066	-7.690	-133.362	102.905	-82.46	0.66	-34.29	-63.798	-52.136	82.908	0.70093	-0.61853	0.20877	-0.28705	31.0	13111	100
2025-3-27 18:37:3.807	WT901BLE68-01(48591DE3C19B)	-0.419	-1.191	0.066	-7.690	-133.362	102.905	-82.50	1.67	-32.77	-63.798	-52.136	82.908	0.70093	-0.61853	0.20877	-0.28705	31.0	13111	100
2025-3-27 18:37:3.807	WT901BLE68-01(48591DE3C19B)	-0.419	-1.368	-0.015	0.244	-135.742	126.648	-82.44	2.90	-31.20	-63.798	-52.136	82.908	0.70093	-0.61853	0.20877	-0.28705	31.0	13111	100
2025-3-27 18:37:3.836	WT901BLE68-01(48591DE3C19B)	-0.286	-1.368	-0.015	0.244	-135.742	126.648	-82.35	4.11	-29.64	-63.798	-52.136	82.908	0.70093	-0.61853	0.20877	-0.28705	31.0	13111	100
2025-3-27 18:37:3.836	WT901BLE68-01(48591DE3C19B)	-0.286	-1.447	-0.052	17.090	-123.901	146.606	-82.07	5.52	-28.18	-63.798	-52.136	82.908	0.70093	-0.61853	0.20877	-0.28705	31.0	13111	100
2025-3-27 18:37:3.837	WT901BLE68-01(48591DE3C19B)	-0.182	-1.447	-0.052	17.090	-123.901	146.606	-81.75	6.89	-26.73	-63.798	-52.136	82.908	0.70093	-0.61853	0.20877	-0.28705	31.0	13111	100
2025-3-27 18:37:3.837	WT901BLE68-01(48591DE3C19B)	-0.182	-1.364	-0.027	29.724	-102.051	164.917	-81.30	8.46	-25.47	-63.798	-52.136	82.908	0.70093	-0.61853	0.20877	-0.28705	31.0	13111	100
2025-3-27 18:37:3.868	WT901BLE68-01(48591DE3C19B)	-0.135	-1.364	-0.027	29.724	-102.051	164.917	-80.83	10.00	-24.20	-63.798	-52.136	82.908	0.70093	-0.61853	0.20877	-0.28705	31.0	13111	100
2025-3-27 18:37:3.868	WT901BLE68-01(48591DE3C19B)	-0.135	-1.330	0.018	32.043	-74.219	176.208	-80.34	11.66	-23.19	-63.798	-52.136	82.908	0.70093	-0.61853	0.20877	-0.28705	31.0	13111	100
2025-3-27 18:37:3.868	WT901BLE68-01(48591DE3C19B)	-0.068	-1.330	0.018	32.043	-74.219	176.208	-79.83	13.30	-22.18	-63.798	-52.136	82.908	0.70093	-0.61853	0.20877	-0.28705	31.0	13111	100
2025-3-27 18:37:3.868	WT901BLE68-01(48591DE3C19B)	-0.068	-1.343	0.068	34.119	-41.992	183.350	-79.34	15.05	-21.46	-63.798	-52.136	82.908	0.70093	-0.61853	0.20877	-0.28705	31.0	13111	100
2025-3-27 18:37:3.928	WT901BLE68-01(48591DE3C19B)	0.014	-1.343	0.068	34.119	-41.992	183.350	-78.82	16.76	-20.73	-63.798	-52.136	82.908	0.70093	-0.61853	0.20877	-0.28705	31.0	13111	100
2025-3-27 18:37:3.928	WT901BLE68-01(48591DE3C19B)	0.014	-1.270	0.072	36.316	-4.639	188.110	-78.38	18.57	-20.37	-64.680	-43.512	83.104	0.70093	-0.61853	0.20877	-0.28705	31.0	13111	100
2025-3-27 18:37:3.928	WT901BLE68-01(48591DE3C19B)	0.089	-1.270	0.072	36.316	-4.639	188.110	-77.92	20.37	-20.00	-64.680	-43.512	83.104	0.70093	-0.61853	0.20877	-0.28705	31.0	13111	100
2025-3-27 18:37:3.928	WT901BLE68-01(48591DE3C19B)	0.103	-1.092	0.034	34.973	28.076	187.378	-77.59	22.20	-19.96	-64.680	-43.512	83.104	0.70093	-0.61853	0.20877	-0.28705	31.0	13111	100
2025-3-27 18:37:3.956	WT901BLE68-01(48591DE3C19B)	0.103	-0.910	0.014	27.954	50.659	182.800	-77.33	24.02	-20.04	-64.680	-43.512	83.104	0.70093	-0.61853	0.20877	-0.28705	31.0	13111	100
2025-3-27 18:37:3.956	WT901BLE68-01(48591DE3C19B)	-0.067	-0.910	0.014	27.954	50.659	182.800	-77.17	25.82	-20.25	-64.680	-43.512	83.104	0.70093	-0.61853	0.20877	-0.28705	31.0	13111	100
2025-3-27 18:37:3.957	WT901BLE68-01(48591DE3C19B)	-0.067	-0.828	-0.023	15.869	39.307	176.392	-77.05	27.56	-20.41	-64.680	-43.512	83.104	0.70093	-0.61853	0.20877	-0.28705	31.0	13111	100
2025-3-27 18:37:3.957	WT901BLE68-01(48591DE3C19B)	-0.275	-0.828	-0.023	15.869	39.307	176.392	-76.98	29.26	-20.52	-64.680	-43.512	83.104	0.70093	-0.61853	0.20877	-0.28705	31.0	13111	100
2025-3-27 18:37:4.17	WT901BLE68-01(48591DE3C19B)	-0.275	-0.807	-0.054	12.024	-4.700	167.236	-76.80	30.84	-20.39	-64.680	-43.512	83.104	0.70093	-0.61853	0.20877	-0.28705	31.0	13111	100
2025-3-27 18:37:4.17	WT901BLE68-01(48591DE3C19B)	-0.302	-0.807	-0.054	12.024	-4.700	167.236	-76.51	32.33	-20.01	-64.680	-43.512	83.104	0.70093	-0.61853	0.20877	-0.28705	31.0	13111	100
2025-3-27 18:37:4.17	WT901BLE68-01(48591DE3C19B)	-0.302	-0.792	-0.052	3.723	-47.180	161.316	-76.12	33.73	-19.37	-64.680	-43.512	83.104	0.70093	-0.61853	0.20877	-0.28705	31.0	13111	100
2025-3-27 18:37:4.17	WT901BLE68-01(48591DE3C19B)	-0.192	-0.792	-0.052	3.723	-47.180	161.316	-75.62	35.05	-18.48	-64.680	-43.512	83.104	0.70093	-0.61853	0.20877	-0.28705	31.0	13111	100
2025-3-27 18:37:4.46	WT901BLE68-01(48591DE3C19B)	-0.192	-0.933	-0.046	-6.836	-80.444	150.696	-75.03	36.26	-17.39	-64.680	-43.512	83.104	0.70093	-0.61853	0.20877	-0.28705	31.0	13111	100
2025-3-27 18:37:4.47	WT901BLE68-01(48591DE3C19B)	0.058	-0.933	-0.046	-6.836	-80.444	150.696	-74.36	37.36	-16.08	-64.680	-43.512	83.104	0.70093	-0.61853	0.20877	-0.28705	31.0	13111	100
2025-3-27 18:37:4.47	WT901BLE68-01(48591DE3C19B)	0.058	-1.053	-0.080	-8.728	-113.708	132.080	-73.55	38.31	-14.58	-64.680	-43.512	83.104	0.70093	-0.61853	0.20877	-0.28705	31.0	13111	100
2025-3-27 18:37:4.47	WT901BLE68-01(48591DE3C19B)	0.236	-1.053	-0.080	-8.728	-113.708	132.080	-72.63	39.09	-12.89	-64.680	-43.512	83.104	0.70093	-0.61853	0.20877	-0.28705	31.0	13111	100
2025-3-27 18:37:4.78	WT901BLE68-01(48591DE3C19B)	0.236	-1.155	-0.085	-13.245	-117.004	111.694	-71.71	39.74	-11.20	-64.680	-43.512	83.104	0.70093	-0.61853	0.20877	-0.28705	31.0	13111	100
2025-3-27 18:37:4.78	WT901BLE68-01(48591DE3C19B)	0.270	-1.155	-0.085	-13.245	-117.004	111.694	-70.81	40.25	-9.52	-64.680	-43.512	83.104	0.70093	-0.61853	0.20877	-0.28705	31.0	13111	100
2025-3-27 18:37:4.78	WT901BLE68-01(48591DE3C19B)	0.270	-1.349	-0.074	-20.508	-99.243	83.435	-70.05	40.63	-8.01	-64.680	-43.512	83.104	0.70093	-0.61853	0.20877	-0.28705	31.0	13111	100
2025-3-27 18:37:4.78	WT901BLE68-01(48591DE3C19B)	0.348	-1.349	-0.074	-20.508	-99.243	83.435	-69.44	40.88	-6.68	-64.680	-43.512	83.104	0.70093	-0.61853	0.20877	-0.28705	31.0	13111	100
2025-3-27 18:37:4.107	WT901BLE68-01(48591DE3C19B)	0.348	-1.500	-0.063	-21.179	-71.533	47.729	-69.01	41.00	-5.60	-64.680	-43.512	83.104	0.70093	-0.61853	0.20877	-0.28705	31.0	13111	100
2025-3-27 18:37:4.107	WT901BLE68-01(48591DE3C19B)	0.443	-1.500	-0.063	-21.179	-71.533	47.729	-68.74	40.98	-4.80	-64.680	-43.512	83.104	0.70093	-0.61853	0.20877	-0.28705	31.0	13111	100
2025-3-27 18:37:4.107	WT901BLE68-01(48591DE3C19B)	0.443	-1.559	0.029	-22.461	-24.780	11.169	-68.74	40.88	-4.37	-64.680	-43.512	83.104	0.78033	-0.51761	0.30820	0.16751	31.0	13111	100
2025-3-27 18:37:4.107	WT901BLE68-01(48591DE3C19B)	0.420	-1.559	0.029	-22.461	-24.780	11.169	-68.99	40.68	-4.32	-64.680	-43.512	83.104	0.78033	-0.51761	0.30820	0.16751	31.0	13111	100
2025-3-27 18:37:4.167	WT901BLE68-01(48591DE3C19B)	0.420	-1.562	0.056	-23.071	8.301	-29.236	-69.44	40.35	-4.58	-64.680	-43.512	83.104	0.78033	-0.51761	0.30820	0.16751	31.0	13111	100
2025-3-27 18:37:4.167	WT901BLE68-01(48591DE3C19B)	0.333	-1.562	0.056	-23.071	8.301	-29.236	-70.08	39.87	-5.12	-64.680	-43.512	83.104	0.78033	-0.51761	0.30820	0.16751	31.0	13111	100
2025-3-27 18:37:4.167	WT901BLE68-01(48591DE3C19B)	0.333	-1.539	0.056	-22.705	33.264	-69.458	-70.85	39.25	-5.89	-64.680	-43.512	83.104	0.78033	-0.51761	0.30820	0.16751	31.0	13111	100
2025-3-27 18:37:4.167	WT901BLE68-01(48591DE3C19B)	0.252	-1.539	0.056	-22.705	33.264	-69.458	-71.74	38.47	-6.87	-64.680	-43.512	83.104	0.78033	-0.51761	0.30820	0.16751	31.0	13111	100
2025-3-27 18:37:4.196	WT901BLE68-01(48591DE3C19B)	0.252	-1.673	0.003	-24.475	65.369	-112.183	-72.78	37.52	-8.09	-64.680	-43.512	83.104	0.78033	-0.51761	0.30820	0.16751	31.0	13111	100
2025-3-27 18:37:4.197	WT901BLE68-01(48591DE3C19B)	0.133	-1.673	0.003	-24.475	65.369	-112.183	-73.94	36.40	-9.54	-64.680	-43.512	83.104	0.78033	-0.51761	0.30820	0.16751	31.0	13111	100
2025-3-27 18:37:4.197	WT901BLE68-01(48591DE3C19B)	0.133	-1.659	-0.042	-19.287	91.980	-148.560	-75.14	35.13	-11.15	-64.680	-43.512	83.104	0.78033	-0.51761	0.30820	0.16751	31.0	13111	100
2025-3-27 18:37:4.197	WT901BLE68-01(48591DE3C19B)	0.021	-1.659	-0.042	-19.287	91.980	-148.560	-76.36	33.70	-12.89	-64.680	-43.512	83.104	0.78033	-0.51761	0.30820	0.16751	31.0	13111	100
2025-3-27 18:37:4.227	WT901BLE68-01(48591DE3C19B)	0.021	-1.571	0.015	-19.836	101.013	-175.049	-77.55	32.12	-14.66	-64.680	-43.512	83.104	0.78033	-0.51761	0.30820	0.16751	31.0	13111	100
2025-3-27 18:37:4.228	WT901BLE68-01(48591DE3C19B)	-0.085	-1.571	0.015	-19.836	101.013	-175.049	-78.71	30.42	-16.42	-64.680	-43.512	83.104	0.78033	-0.51761	0.30820	0.16751	31.0	13111	100
2025-3-27 18:37:4.228	WT901BLE68-01(48591DE3C19B)	-0.085	-1.534	0.078	-16.418	96.802	-192.322	-79.75	28.60	-18.10	-64.680	-43.512	83.104	0.78033	-0.51761	0.30820	0.16751	31.0	13111	100
2025-3-27 18:37:4.228	WT901BLE68-01(48591DE3C19B)	-0.152	-1.534	0.078	-16.418	96.802	-192.322	-80.68	26.70	-19.70	-64.680	-43.512	83.104	0.78033	-0.51761	0.30820	0.16751	31.0	13111	100
2025-3-27 18:37:4.290	WT901BLE68-01(48591DE3C19B)	-0.152	-1.425	0.150	-11.475	77.820	-199.402	-81.47	24.73	-21.13	-64.680	-43.512	83.104	0.78033	-0.51761	0.30820	0.16751	31.0	13111	100
2025-3-27 18:37:4.290	WT901BLE68-01(48591DE3C19B)	-0.172	-1.425	0.150	-11.475	77.820	-199.402	-82.12	22.71	-22.41	-64.680	-43.512	83.104	0.78033	-0.51761	0.30820	0.16751	31.0	13111	100
2025-3-27 18:37:4.290	WT901BLE68-01(48591DE3C19B)	-0.172	-1.325	0.214	-11.841	49.927	-198.303	-82.66	20.70	-23.49	-64.680	-43.512	83.104	0.78033	-0.51761	0.30820	0.16751	31.0	13111	100
2025-3-27 18:37:4.290	WT901BLE68-01(48591DE3C19B)	-0.199	-1.325	0.214	-11.841	49.927	-198.303	-83.09	18.67	-24.39	-64.680	-43.512	83.104	0.78033	-0.51761	0.30820	0.16751	31.0	13111	100
2025-3-27 18:37:4.317	WT901BLE68-01(48591DE3C19B)	-0.199	-1.302	0.250	-15.625	17.822	-193.726	-83.45	16.66	-25.08	-64.680	-43.512	83.104	0.78033	-0.51761	0.30820	0.16751	31.0	13111	100
2025-3-27 18:37:4.317	WT901BLE68-01(48591DE3C19B)	-0.205	-1.302	0.250	-15.625	17.822	-193.726	-83.74	14.67	-25.58	-64.680	-43.512	83.104	0.78033	-0.51761	0.30820	0.16751	31.0	13111	100
2025-3-27 18:37:4.317	WT901BLE68-01(48591DE3C19B)	-0.205	-1.283	0.241	-18.188	-7.324	-191.040	-84.00	12.69	-25.94	-64.680	-43.512	83.104	0.78033	-0.51761	0.30820	0.16751	31.0	13111	100
2025-3-27 18:37:4.317	WT901BLE68-01(48591DE3C19B)	-0.190	-1.283	0.241	-18.188	-7.324	-191.040	-84.22	10.72	-26.15	-65.954	-34.692	80.262	0.78033	-0.51761	0.30820	0.16751	31.0	13111	100
2025-3-27 18:37:4.346	WT901BLE68-01(48591DE3C19B)	-0.190	-1.225	0.219	-21.423	-13.123	-185.181	-84.44	8.80	-26.32	-65.954	-34.692	80.262	0.78033	-0.51761	0.30820	0.16751	31.0	13111	100
2025-3-27 18:37:4.347	WT901BLE68-01(48591DE3C19B)	-0.198	-1.225	0.219	-21.423	-13.123	-185.181	-84.66	6.92	-26.44	-65.954	-34.692	80.262	0.78033	-0.51761	0.30820	0.16751	31.0	13111	100
2025-3-27 18:37:4.347	WT901BLE68-01(48591DE3C19B)	-0.198	-1.167	0.187	-22.949	-2.014	-182.495	-84.88	5.06	-26.61	-65.954	-34.692	80.262	0.78033	-0.51761	0.30820	0.16751	31.0	13111	100
2025-3-27 18:37:4.347	WT901BLE68-01(48591DE3C19B)	-0.221	-1.167	0.187	-22.949	-2.014	-182.495	-85.11	3.25	-26.83	-65.954	-34.692	80.262	0.78033	-0.51761	0.30820	0.16751	31.0	13111	100
2025-3-27 18:37:4.437	WT901BLE68-01(48591DE3C19B)	-0.221	-1.077	0.164	-22.034	17.273	-183.899	-85.34	1.44	-27.13	-65.954	-34.692	80.262	0.78033	-0.51761	0.30820	0.16751	31.0	13111	100
2025-3-27 18:37:4.437	WT901BLE68-01(48591DE3C19B)	-0.292	-1.077	0.164	-22.034	17.273	-183.899	-85.54	-0.35	-27.52	-65.954	-34.692	80.262	0.78033	-0.51761	0.30820	0.16751	31.0	13111	100
2025-3-27 18:37:4.437	WT901BLE68-01(48591DE3C19B)	-0.292	-0.998	0.184	-19.714	33.691	-183.167	-85.72	-2.11	-27.97	-65.954	-34.692	80.262	0.78033	-0.51761	0.30820	0.16751	31.0	13111	100
2025-3-27 18:37:4.438	WT901BLE68-01(48591DE3C19B)	-0.371	-0.998	0.184	-19.714	33.691	-183.167	-85.87	-3.86	-28.50	-65.954	-34.692	80.262	0.78033	-0.51761	0.30820	0.16751	31.0	13111	100
2025-3-27 18:37:4.438	WT901BLE68-01(48591DE3C19B)	-0.371	-0.954	0.242	-14.526	44.922	-177.307	-85.94	-5.52	-29.13	-65.954	-34.692	80.262	0.78033	-0.51761	0.30820	0.16751	31.0	13111	100
2025-3-27 18:37:4.438	WT901BLE68-01(48591DE3C19B)	-0.435	-0.954	0.242	-14.526	44.922	-177.307	-85.99	-7.17	-29.75	-65.954	-34.692	80.262	0.78033	-0.51761	0.30820	0.16751	31.0	13111	100
2025-3-27 18:37:4.438	WT901BLE68-01(48591DE3C19B)	-0.435	-0.894	0.300	-5.737	52.856	-166.626	-85.92	-8.68	-30.44	-65.954	-34.692	80.262	0.78033	-0.51761	0.30820	0.16751	31.0	13111	100
2025-3-27 18:37:4.438	WT901BLE68-01(48591DE3C19B)	-0.497	-0.894	0.300	-5.737	52.856	-166.626	-85.83	-10.18	-31.13	-65.954	-34.692	80.262	0.78033	-0.51761	0.30820	0.16751	31.0	13111	100
2025-3-27 18:37:4.497	WT901BLE68-01(48591DE3C19B)	-0.497	-0.781	0.328	4.150	57.922	-150.818	-85.62	-11.50	-31.86	-65.954	-34.692	80.262	0.78033	-0.51761	0.30820	0.16751	31.0	13111	100
2025-3-27 18:37:4.497	WT901BLE68-01(48591DE3C19B)	-0.592	-0.781	0.328	4.150	57.922	-150.818	-85.38	-12.80	-32.59	-65.954	-34.692	80.262	0.78033	-0.51761	0.30820	0.16751	31.0	13111	100
2025-3-27 18:37:4.497	WT901BLE68-01(48591DE3C19B)	-0.592	-0.673	0.304	6.042	52.063	-134.705	-85.12	-13.93	-33.24	-65.954	-34.692	80.262	0.78033	-0.51761	0.30820	0.16751	31.0	13111	100
2025-3-27 18:37:4.497	WT901BLE68-01(48591DE3C19B)	-0.599	-0.673	0.304	6.042	52.063	-134.705	-84.85	-15.03	-33.90	-65.954	-34.692	80.262	0.78033	-0.51761	0.30820	0.16751	31.0	13111	100
2025-3-27 18:37:4.528	WT901BLE68-01(48591DE3C19B)	-0.599	-0.667	0.292	5.798	40.222	-117.737	-84.61	-15.95	-34.41	-65.954	-34.692	80.262	0.78033	-0.51761	0.30820	0.16751	31.0	13111	100
2025-3-27 18:37:4.528	WT901BLE68-01(48591DE3C19B)	-0.610	-0.667	0.292	5.798	40.222	-117.737	-84.35	-16.86	-34.93	-65.954	-34.692	80.262	0.78033	-0.51761	0.30820	0.16751	31.0	13111	100
2025-3-27 18:37:4.528	WT901BLE68-01(48591DE3C19B)	-0.610	-0.698	0.336	8.728	31.311	-98.022	-84.09	-17.56	-35.32	-65.954	-34.692	80.262	0.78033	-0.51761	0.30820	0.16751	31.0	13111	100
2025-3-27 18:37:4.528	WT901BLE68-01(48591DE3C19B)	-0.683	-0.698	0.336	8.728	31.311	-98.022	-83.84	-18.25	-35.72	-65.954	-34.692	80.262	0.66647	-0.66327	0.08893	-0.32843	31.0	13111	100
2025-3-27 18:37:4.556	WT901BLE68-01(48591DE3C19B)	-0.683	-0.727	0.362	13.611	26.917	-77.271	-83.54	-18.72	-36.04	-65.954	-34.692	80.262	0.66647	-0.66327	0.08893	-0.32843	31.0	13111	100
2025-3-27 18:37:4.557	WT901BLE68-01(48591DE3C19B)	-0.820	-0.727	0.362	13.611	26.917	-77.271	-83.25	-19.18	-36.35	-65.954	-34.692	80.262	0.66647	-0.66327	0.08893	-0.32843	31.0	13111	100
2025-3-27 18:37:4.557	WT901BLE68-01(48591DE3C19B)	-0.820	-0.810	0.351	16.663	22.278	-55.542	-82.95	-19.42	-36.58	-65.954	-34.692	80.262	0.66647	-0.66327	0.08893	-0.32843	31.0	13111	100
2025-3-27 18:37:4.557	WT901BLE68-01(48591DE3C19B)	-0.922	-0.810	0.351	16.663	22.278	-55.542	-82.66	-19.64	-36.80	-65.954	-34.692	80.262	0.66647	-0.66327	0.08893	-0.32843	31.0	13111	100
2025-3-27 18:37:4.617	WT901BLE68-01(48591DE3C19B)	-0.922	-0.932	0.321	23.438	24.597	-31.311	-82.30	-19.62	-37.01	-65.954	-34.692	80.262	0.66647	-0.66327	0.08893	-0.32843	31.0	13111	100
2025-3-27 18:37:4.617	WT901BLE68-01(48591DE3C19B)	-0.993	-0.932	0.321	23.438	24.597	-31.311	-81.96	-19.58	-37.20	-65.954	-34.692	80.262	0.66647	-0.66327	0.08893	-0.32843	31.0	13111	100
2025-3-27 18:37:4.617	WT901BLE68-01(48591DE3C19B)	-0.993	-1.036	0.289	30.334	37.231	-6.104	-81.53	-19.27	-37.48	-65.954	-34.692	80.262	0.66647	-0.66327	0.08893	-0.32843	31.0	13111	100
2025-3-27 18:37:4.617	WT901BLE68-01(48591DE3C19B)	-1.016	-1.036	0.289	30.334	37.231	-6.104	-81.11	-18.95	-37.75	-65.954	-34.692	80.262	0.66647	-0.66327	0.08893	-0.32843	31.0	13111	100
2025-3-27 18:37:4.646	WT901BLE68-01(48591DE3C19B)	-1.016	-1.125	0.233	29.175	47.668	21.484	-80.69	-18.35	-38.08	-65.954	-34.692	80.262	0.66647	-0.66327	0.08893	-0.32843	31.0	13111	100
2025-3-27 18:37:4.647	WT901BLE68-01(48591DE3C19B)	-0.989	-1.125	0.233	29.175	47.668	21.484	-80.29	-17.74	-38.39	-65.954	-34.692	80.262	0.66647	-0.66327	0.08893	-0.32843	31.0	13111	100
2025-3-27 18:37:4.647	WT901BLE68-01(48591DE3C19B)	-0.989	-1.225	0.236	23.743	56.458	49.805	-79.94	-16.83	-38.74	-65.954	-34.692	80.262	0.66647	-0.66327	0.08893	-0.32843	31.0	13111	100
2025-3-27 18:37:4.647	WT901BLE68-01(48591DE3C19B)	-0.985	-1.225	0.236	23.743	56.458	49.805	-79.61	-15.93	-39.08	-65.954	-34.692	80.262	0.66647	-0.66327	0.08893	-0.32843	31.0	13111	100
2025-3-27 18:37:4.677	WT901BLE68-01(48591DE3C19B)	-0.985	-1.309	0.296	13.245	57.373	78.918	-79.40	-14.75	-39.38	-65.954	-34.692	80.262	0.66647	-0.66327	0.08893	-0.32843	31.0	13111	100
2025-3-27 18:37:4.678	WT901BLE68-01(48591DE3C19B)	-0.994	-1.309	0.296	13.245	57.373	78.918	-79.20	-13.57	-39.67	-65.954	-34.692	80.262	0.66647	-0.66327	0.08893	-0.32843	31.0	13111	100
2025-3-27 18:37:4.678	WT901BLE68-01(48591DE3C19B)	-0.994	-1.355	0.325	6.958	46.021	107.117	-79.12	-12.15	-39.79	-65.954	-34.692	80.262	0.66647	-0.66327	0.08893	-0.32843	31.0	13111	100
2025-3-27 18:37:4.678	WT901BLE68-01(48591DE3C19B)	-0.953	-1.355	0.325	6.958	46.021	107.117	-79.04	-10.73	-39.91	-65.954	-34.692	80.262	0.66647	-0.66327	0.08893	-0.32843	31.0	13111	100
2025-3-27 18:37:4.737	WT901BLE68-01(48591DE3C19B)	-0.953	-1.333	0.300	-0.549	20.569	136.353	-79.08	-9.08	-39.73	-65.954	-34.692	80.262	0.66647	-0.66327	0.08893	-0.32843	31.0	13111	100
2025-3-27 18:37:4.737	WT901BLE68-01(48591DE3C19B)	-0.910	-1.333	0.300	-0.549	20.569	136.353	-79.12	-7.44	-39.55	-67.130	-36.260	77.518	0.66647	-0.66327	0.08893	-0.32843	31.0	13111	100
2025-3-27 18:37:4.737	WT901BLE68-01(48591DE3C19B)	-0.910	-1.402	0.196	-11.353	-12.695	167.175	-79.32	-5.58	-39.00	-67.130	-36.260	77.518	0.66647	-0.66327	0.08893	-0.32843	31.0	13111	100
2025-3-27 18:37:4.737	WT901BLE68-01(48591DE3C19B)	-0.843	-1.402	0.196	-11.353	-12.695	167.175	-79.49	-3.72	-38.46	-67.130	-36.260	77.518	0.66647	-0.66327	0.08893	-0.32843	31.0	13111	100
2025-3-27 18:37:4.767	WT901BLE68-01(48591DE3C19B)	-0.843	-1.505	0.088	-20.813	-46.448	198.059	-79.76	-1.64	-37.56	-67.130	-36.260	77.518	0.66647	-0.66327	0.08893	-0.32843	31.0	13111	100
2025-3-27 18:37:4.767	WT901BLE68-01(48591DE3C19B)	-0.732	-1.505	0.088	-20.813	-46.448	198.059	-80.00	0.43	-36.67	-67.130	-36.260	77.518	0.66647	-0.66327	0.08893	-0.32843	31.0	13111	100
2025-3-27 18:37:4.767	WT901BLE68-01(48591DE3C19B)	-0.732	-1.631	0.041	-26.611	-76.355	228.149	-80.25	2.73	-35.46	-67.130	-36.260	77.518	0.66647	-0.66327	0.08893	-0.32843	31.0	13111	100
2025-3-27 18:37:4.767	WT901BLE68-01(48591DE3C19B)	-0.599	-1.631	0.041	-26.611	-76.355	228.149	-80.46	5.02	-34.27	-67.130	-36.260	77.518	0.66647	-0.66327	0.08893	-0.32843	31.0	13111	100
2025-3-27 18:37:4.796	WT901BLE68-01(48591DE3C19B)	-0.599	-1.731	0.026	-23.926	-102.600	254.456	-80.56	7.50	-32.79	-67.130	-36.260	77.518	0.66647	-0.66327	0.08893	-0.32843	31.0	13111	100
2025-3-27 18:37:4.797	WT901BLE68-01(48591DE3C19B)	-0.456	-1.731	0.026	-23.926	-102.600	254.456	-80.60	9.97	-31.33	-67.130	-36.260	77.518	0.66647	-0.66327	0.08893	-0.32843	31.0	13111	100
2025-3-27 18:37:4.797	WT901BLE68-01(48591DE3C19B)	-0.456	-1.755	0.023	-13.367	-119.507	273.499	-80.42	12.57	-29.66	-67.130	-36.260	77.518	0.66647	-0.66327	0.08893	-0.32843	31.0	13111	100
2025-3-27 18:37:4.797	WT901BLE68-01(48591DE3C19B)	-0.364	-1.755	0.023	-13.367	-119.507	273.499	-80.17	15.14	-27.99	-67.130	-36.260	77.518	0.66647	-0.66327	0.08893	-0.32843	31.0	13111	100
2025-3-27 18:37:4.857	WT901BLE68-01(48591DE3C19B)	-0.364	-1.690	0.028	-0.061	-125.305	285.522	-79.69	17.78	-26.21	-67.130	-36.260	77.518	0.66647	-0.66327	0.08893	-0.32843	31.0	13111	100
2025-3-27 18:37:4.857	WT901BLE68-01(48591DE3C19B)	-0.304	-1.690	0.028	-0.061	-125.305	285.522	-79.11	20.39	-24.40	-67.130	-36.260	77.518	0.66647	-0.66327	0.08893	-0.32843	31.0	13111	100
2025-3-27 18:37:4.857	WT901BLE68-01(48591DE3C19B)	-0.304	-1.628	0.042	11.047	-119.751	289.368	-78.35	22.99	-22.59	-67.130	-36.260	77.518	0.66647	-0.66327	0.08893	-0.32843	31.0	13111	100
2025-3-27 18:37:4.857	WT901BLE68-01(48591DE3C19B)	-0.263	-1.628	0.042	11.047	-119.751	289.368	-77.49	25.56	-20.73	-67.130	-36.260	77.518	0.66647	-0.66327	0.08893	-0.32843	31.0	13111	100
2025-3-27 18:37:4.889	WT901BLE68-01(48591DE3C19B)	-0.239	-1.606	0.048	19.592	-100.708	287.537	-76.54	28.10	-19.00	-67.130	-36.260	77.518	0.66647	-0.66327	0.08893	-0.32843	31.0	13111	100
2025-3-27 18:37:4.889	WT901BLE68-01(48591DE3C19B)	-0.239	-1.527	0.048	27.344	-74.463	282.593	-75.51	30.60	-17.35	-67.130	-36.260	77.518	0.66647	-0.66327	0.08893	-0.32843	31.0	13111	100
2025-3-27 18:37:4.890	WT901BLE68-01(48591DE3C19B)	-0.208	-1.527	0.048	27.344	-74.463	282.593	-74.43	33.07	-15.78	-67.130	-36.260	77.518	0.66647	-0.66327	0.08893	-0.32843	31.0	13111	100
2025-3-27 18:37:4.890	WT901BLE68-01(48591DE3C19B)	-0.208	-1.371	0.063	31.128	-53.162	274.902	-73.30	35.48	-14.25	-67.130	-36.260	77.518	0.66647	-0.66327	0.08893	-0.32843	31.0	13111	100
2025-3-27 18:37:4.917	WT901BLE68-01(48591DE3C19B)	-0.144	-1.371	0.063	31.128	-53.162	274.902	-72.13	37.84	-12.77	-67.130	-36.260	77.518	0.66647	-0.66327	0.08893	-0.32843	31.0	13111	100
2025-3-27 18:37:4.917	WT901BLE68-01(48591DE3C19B)	-0.144	-1.285	0.099	30.762	-39.368	265.686	-70.91	40.14	-11.29	-67.130	-36.260	77.518	0.66647	-0.66327	0.08893	-0.32843	31.0	13111	100
2025-3-27 18:37:4.917	WT901BLE68-01(48591DE3C19B)	-0.096	-1.285	0.099	30.762	-39.368	265.686	-69.65	42.37	-9.82	-67.130	-36.260	77.518	0.77972	-0.50024	0.34579	0.14871	31.0	13111	100
2025-3-27 18:37:4.917	WT901BLE68-01(48591DE3C19B)	-0.096	-1.221	0.078	32.532	-28.687	255.798	-68.33	44.54	-8.33	-67.130	-36.260	77.518	0.77972	-0.50024	0.34579	0.14871	31.0	13111	100
2025-3-27 18:37:4.977	WT901BLE68-01(48591DE3C19B)	-0.014	-1.221	0.078	32.532	-28.687	255.798	-66.95	46.64	-6.82	-67.130	-36.260	77.518	0.77972	-0.50024	0.34579	0.14871	31.0	13111	100
2025-3-27 18:37:4.977	WT901BLE68-01(48591DE3C19B)	-0.014	-1.173	0.018	31.982	-22.339	240.723	-65.51	48.64	-5.27	-67.130	-36.260	77.518	0.77972	-0.50024	0.34579	0.14871	31.0	13111	100
2025-3-27 18:37:4.977	WT901BLE68-01(48591DE3C19B)	0.093	-1.173	0.018	31.982	-22.339	240.723	-64.01	50.54	-3.69	-67.130	-36.260	77.518	0.77972	-0.50024	0.34579	0.14871	31.0	13111	100
2025-3-27 18:37:4.977	WT901BLE68-01(48591DE3C19B)	0.093	-1.169	-0.084	28.931	-20.813	219.177	-62.46	52.31	-2.08	-67.130	-36.260	77.518	0.77972	-0.50024	0.34579	0.14871	31.0	13111	100
2025-3-27 18:37:5.7	WT901BLE68-01(48591DE3C19B)	0.204	-1.169	-0.084	28.931	-20.813	219.177	-60.88	53.94	-0.42	-67.130	-36.260	77.518	0.77972	-0.50024	0.34579	0.14871	31.0	13111	100
2025-3-27 18:37:5.7	WT901BLE68-01(48591DE3C19B)	0.204	-1.193	-0.177	25.879	-16.541	192.139	-59.32	55.43	1.20	-67.130	-36.260	77.518	0.77972	-0.50024	0.34579	0.14871	31.0	13111	100
2025-3-27 18:37:5.7	WT901BLE68-01(48591DE3C19B)	0.325	-1.193	-0.177	25.879	-16.541	192.139	-57.79	56.77	2.77	-67.130	-36.260	77.518	0.77972	-0.50024	0.34579	0.14871	31.0	13111	100
2025-3-27 18:37:5.7	WT901BLE68-01(48591DE3C19B)	0.325	-1.237	-0.222	20.935	-3.479	162.598	-56.40	57.99	4.20	-67.130	-36.260	77.518	0.77972	-0.50024	0.34579	0.14871	31.0	13111	100
2025-3-27 18:37:5.36	WT901BLE68-01(48591DE3C19B)	0.390	-1.237	-0.222	20.935	-3.479	162.598	-55.18	59.09	5.44	-67.130	-36.260	77.518	0.77972	-0.50024	0.34579	0.14871	31.0	13111	100
2025-3-27 18:37:5.37	WT901BLE68-01(48591DE3C19B)	0.390	-1.294	-0.166	16.052	15.381	123.169	-54.25	60.06	6.38	-67.130	-36.260	77.518	0.77972	-0.50024	0.34579	0.14871	31.0	13111	100
2025-3-27 18:37:5.37	WT901BLE68-01(48591DE3C19B)	0.305	-1.294	-0.166	16.052	15.381	123.169	-53.65	60.91	6.95	-67.130	-36.260	77.518	0.77972	-0.50024	0.34579	0.14871	31.0	13111	100
2025-3-27 18:37:5.37	WT901BLE68-01(48591DE3C19B)	0.305	-1.410	-0.064	8.484	31.860	79.224	-53.43	61.63	7.14	-67.130	-36.260	77.518	0.77972	-0.50024	0.34579	0.14871	31.0	13111	100
2025-3-27 18:37:5.98	WT901BLE68-01(48591DE3C19B)	0.148	-1.410	-0.064	8.484	31.860	79.224	-53.62	62.20	6.90	-67.130	-36.260	77.518	0.77972	-0.50024	0.34579	0.14871	31.0	13111	100
2025-3-27 18:37:5.98	WT901BLE68-01(48591DE3C19B)	0.148	-1.533	0.010	2.930	39.917	24.841	-54.21	62.58	6.23	-67.130	-36.260	77.518	0.77972	-0.50024	0.34579	0.14871	31.0	13111	100
2025-3-27 18:37:5.98	WT901BLE68-01(48591DE3C19B)	0.086	-1.533	0.010	2.930	39.917	24.841	-55.21	62.75	5.14	-67.130	-36.260	77.518	0.77972	-0.50024	0.34579	0.14871	31.0	13111	100
2025-3-27 18:37:5.98	WT901BLE68-01(48591DE3C19B)	0.086	-1.556	0.089	-3.296	43.457	-32.532	-56.58	62.68	3.67	-67.130	-36.260	77.518	0.77972	-0.50024	0.34579	0.14871	31.0	13111	100
2025-3-27 18:37:5.127	WT901BLE68-01(48591DE3C19B)	0.042	-1.556	0.089	-3.296	43.457	-32.532	-58.27	62.36	1.85	-67.130	-36.260	77.518	0.77972	-0.50024	0.34579	0.14871	31.0	13111	100
2025-3-27 18:37:5.127	WT901BLE68-01(48591DE3C19B)	0.042	-1.515	0.151	-10.986	39.856	-84.656	-60.16	61.78	-0.15	-67.130	-36.260	77.518	0.77972	-0.50024	0.34579	0.14871	31.0	13111	100
2025-3-27 18:37:5.127	WT901BLE68-01(48591DE3C19B)	0.006	-1.515	0.151	-10.986	39.856	-84.656	-62.18	60.94	-2.29	-67.130	-36.260	77.518	0.77972	-0.50024	0.34579	0.14871	31.0	13111	100
2025-3-27 18:37:5.127	WT901BLE68-01(48591DE3C19B)	0.006	-1.465	0.179	-16.724	31.311	-126.831	-64.19	59.85	-4.40	-51.940	-9.898	69.482	0.77972	-0.50024	0.34579	0.14871	31.0	13111	100
2025-3-27 18:37:5.156	WT901BLE68-01(48591DE3C19B)	-0.047	-1.465	0.179	-16.724	31.311	-126.831	-66.15	58.54	-6.44	-51.940	-9.898	69.482	0.77972	-0.50024	0.34579	0.14871	31.0	13111	100
2025-3-27 18:37:5.157	WT901BLE68-01(48591DE3C19B)	-0.047	-1.413	0.128	-18.127	23.743	-163.940	-67.99	57.00	-8.39	-51.940	-9.898	69.482	0.77972	-0.50024	0.34579	0.14871	31.0	13111	100
2025-3-27 18:37:5.157	WT901BLE68-01(48591DE3C19B)	-0.048	-1.413	0.128	-18.127	23.743	-163.940	-69.70	55.26	-10.21	-51.940	-9.898	69.482	0.77972	-0.50024	0.34579	0.14871	31.0	13111	100
2025-3-27 18:37:5.157	WT901BLE68-01(48591DE3C19B)	-0.048	-1.331	0.092	-19.043	23.926	-197.754	-71.32	53.35	-11.95	-51.940	-9.898	69.482	0.77972	-0.50024	0.34579	0.14871	31.0	13111	100
2025-3-27 18:37:5.217	WT901BLE68-01(48591DE3C19B)	-0.042	-1.331	0.092	-19.043	23.926	-197.754	-72.84	51.26	-13.60	-51.940	-9.898	69.482	0.77972	-0.50024	0.34579	0.14871	31.0	13111	100
2025-3-27 18:37:5.217	WT901BLE68-01(48591DE3C19B)	-0.042	-1.351	0.071	-23.254	39.368	-227.661	-74.34	49.04	-15.27	-51.940	-9.898	69.482	0.77972	-0.50024	0.34579	0.14871	31.0	13111	100
2025-3-27 18:37:5.217	WT901BLE68-01(48591DE3C19B)	-0.079	-1.351	0.071	-23.254	39.368	-227.661	-75.82	46.68	-16.94	-51.940	-9.898	69.482	0.77972	-0.50024	0.34579	0.14871	31.0	13111	100
2025-3-27 18:37:5.217	WT901BLE68-01(48591DE3C19B)	-0.079	-1.461	0.065	-26.062	53.406	-255.310	-77.25	44.19	-18.58	-51.940	-9.898	69.482	0.77972	-0.50024	0.34579	0.14871	31.0	13111	100
2025-3-27 18:37:5.246	WT901BLE68-01(48591DE3C19B)	-0.086	-1.461	0.065	-26.062	53.406	-255.310	-78.62	41.57	-20.20	-51.940	-9.898	69.482	0.77972	-0.50024	0.34579	0.14871	31.0	13111	100
2025-3-27 18:37:5.247	WT901BLE68-01(48591DE3C19B)	-0.086	-1.563	0.100	-23.071	75.623	-280.029	-79.93	38.84	-21.84	-51.940	-9.898	69.482	0.77972	-0.50024	0.34579	0.14871	31.0	13111	100
2025-3-27 18:37:5.247	WT901BLE68-01(48591DE3C19B)	-0.125	-1.563	0.100	-23.071	75.623	-280.029	-81.17	35.99	-23.49	-51.940	-9.898	69.482	0.77972	-0.50024	0.34579	0.14871	31.0	13111	100
2025-3-27 18:37:5.247	WT901BLE68-01(48591DE3C19B)	-0.125	-1.659	0.111	-16.296	106.934	-298.462	-82.34	33.07	-25.21	-51.940	-9.898	69.482	0.77972	-0.50024	0.34579	0.14871	31.0	13111	100
2025-3-27 18:37:5.278	WT901BLE68-01(48591DE3C19B)	-0.174	-1.659	0.111	-16.296	106.934	-298.462	-83.44	30.07	-27.00	-51.940	-9.898	69.482	0.77972	-0.50024	0.34579	0.14871	31.0	13111	100
2025-3-27 18:37:5.278	WT901BLE68-01(48591DE3C19B)	-0.174	-1.745	0.054	-7.690	140.320	-312.317	-84.44	27.01	-28.86	-51.940	-9.898	69.482	0.77972	-0.50024	0.34579	0.14871	31.0	13111	100
2025-3-27 18:37:5.278	WT901BLE68-01(48591DE3C19B)	-0.230	-1.745	0.054	-7.690	140.320	-312.317	-85.35	23.89	-30.79	-51.940	-9.898	69.482	0.77972	-0.50024	0.34579	0.14871	31.0	13111	100
2025-3-27 18:37:5.278	WT901BLE68-01(48591DE3C19B)	-0.230	-1.797	0.012	2.808	169.067	-318.787	-86.12	20.74	-32.78	-51.940	-9.898	69.482	0.77972	-0.50024	0.34579	0.14871	31.0	13111	100
2025-3-27 18:37:5.337	WT901BLE68-01(48591DE3C19B)	-0.374	-1.797	0.012	2.808	169.067	-318.787	-86.76	17.57	-34.84	-51.940	-9.898	69.482	0.77972	-0.50024	0.34579	0.14871	31.0	13111	100
2025-3-27 18:37:5.337	WT901BLE68-01(48591DE3C19B)	-0.374	-1.806	0.012	14.832	169.800	-320.557	-87.21	14.40	-36.82	-51.940	-9.898	69.482	0.70886	-0.62054	0.30222	-0.14478	31.0	13111	100
2025-3-27 18:37:5.337	WT901BLE68-01(48591DE3C19B)	-0.516	-1.806	0.012	14.832	169.800	-320.557	-87.49	11.23	-38.74	-51.940	-9.898	69.482	0.70886	-0.62054	0.30222	-0.14478	31.0	13111	100
2025-3-27 18:37:5.337	WT901BLE68-01(48591DE3C19B)	-0.516	-1.675	0.067	28.442	136.169	-316.772	-87.47	8.11	-40.29	-51.940	-9.898	69.482	0.70886	-0.62054	0.30222	-0.14478	31.0	13111	100
2025-3-27 18:37:5.367	WT901BLE68-01(48591DE3C19B)	-0.623	-1.675	0.067	28.442	136.169	-316.772	-87.36	5.02	-41.82	-51.940	-9.898	69.482	0.70886	-0.62054	0.30222	-0.14478	31.0	13111	100
2025-3-27 18:37:5.367	WT901BLE68-01(48591DE3C19B)	-0.623	-1.514	0.116	36.743	83.618	-311.340	-87.06	1.98	-42.82	-51.940	-9.898	69.482	0.70886	-0.62054	0.30222	-0.14478	31.0	13111	100
2025-3-27 18:37:5.367	WT901BLE68-01(48591DE3C19B)	-0.684	-1.514	0.116	36.743	83.618	-311.340	-86.70	-1.02	-43.84	-51.940	-9.898	69.482	0.70886	-0.62054	0.30222	-0.14478	31.0	13111	100
2025-3-27 18:37:5.367	WT901BLE68-01(48591DE3C19B)	-0.684	-1.422	0.134	37.598	28.992	-301.880	-86.31	-3.93	-44.31	-51.940	-9.898	69.482	0.70886	-0.62054	0.30222	-0.14478	31.0	13111	100
2025-3-27 18:37:5.396	WT901BLE68-01(48591DE3C19B)	-0.663	-1.422	0.134	37.598	28.992	-301.880	-85.89	-6.81	-44.80	-51.940	-9.898	69.482	0.70886	-0.62054	0.30222	-0.14478	31.0	13111	100
2025-3-27 18:37:5.396	WT901BLE68-01(48591DE3C19B)	-0.663	-1.369	0.122	38.025	-3.967	-286.865	-85.50	-9.54	-44.98	-51.940	-9.898	69.482	0.70886	-0.62054	0.30222	-0.14478	31.0	13111	100
2025-3-27 18:37:5.397	WT901BLE68-01(48591DE3C19B)	-0.638	-1.369	0.122	38.025	-3.967	-286.865	-85.09	-12.24	-45.16	-51.940	-9.898	69.482	0.70886	-0.62054	0.30222	-0.14478	31.0	13111	100
2025-3-27 18:37:5.397	WT901BLE68-01(48591DE3C19B)	-0.638	-1.302	0.100	35.767	-22.461	-268.982	-84.74	-14.77	-45.16	-51.940	-9.898	69.482	0.70886	-0.62054	0.30222	-0.14478	31.0	13111	100
2025-3-27 18:37:5.457	WT901BLE68-01(48591DE3C19B)	-0.589	-1.302	0.100	35.767	-22.461	-268.982	-84.39	-17.27	-45.18	-51.940	-9.898	69.482	0.70886	-0.62054	0.30222	-0.14478	31.0	13111	100
2025-3-27 18:37:5.457	WT901BLE68-01(48591DE3C19B)	-0.589	-1.270	0.088	31.921	-31.982	-250.732	-84.12	-19.58	-45.08	-51.940	-9.898	69.482	0.70886	-0.62054	0.30222	-0.14478	31.0	13111	100
2025-3-27 18:37:5.457	WT901BLE68-01(48591DE3C19B)	-0.567	-1.270	0.088	31.921	-31.982	-250.732	-83.84	-21.87	-44.99	-51.940	-9.898	69.482	0.70886	-0.62054	0.30222	-0.14478	31.0	13111	100
2025-3-27 18:37:5.457	WT901BLE68-01(48591DE3C19B)	-0.567	-1.245	0.091	28.503	-36.987	-231.262	-83.63	-23.96	-44.84	-51.940	-9.898	69.482	0.70886	-0.62054	0.30222	-0.14478	31.0	13111	100
2025-3-27 18:37:5.489	WT901BLE68-01(48591DE3C19B)	-0.524	-1.245	0.091	28.503	-36.987	-231.262	-83.42	-26.04	-44.69	-51.940	-9.898	69.482	0.70886	-0.62054	0.30222	-0.14478	31.0	13111	100
2025-3-27 18:37:5.489	WT901BLE68-01(48591DE3C19B)	-0.524	-1.209	0.108	24.536	-32.288	-210.510	-83.25	-27.89	-44.56	-51.940	-9.898	69.482	0.70886	-0.62054	0.30222	-0.14478	31.0	13111	100
2025-3-27 18:37:5.489	WT901BLE68-01(48591DE3C19B)	-0.518	-1.209	0.108	24.536	-32.288	-210.510	-83.08	-29.74	-44.44	-51.940	-9.898	69.482	0.70886	-0.62054	0.30222	-0.14478	31.0	13111	100
2025-3-27 18:37:5.489	WT901BLE68-01(48591DE3C19B)	-0.518	-1.221	0.159	21.362	-20.447	-188.171	-82.89	-31.33	-44.42	-51.940	-9.898	69.482	0.70886	-0.62054	0.30222	-0.14478	31.0	13111	100
2025-3-27 18:37:5.517	WT901BLE68-01(48591DE3C19B)	-0.600	-1.221	0.159	21.362	-20.447	-188.171	-82.69	-32.92	-44.41	-51.940	-9.898	69.482	0.70886	-0.62054	0.30222	-0.14478	31.0	13111	100
2025-3-27 18:37:5.518	WT901BLE68-01(48591DE3C19B)	-0.600	-1.261	0.222	21.851	-9.338	-162.476	-82.44	-34.23	-44.50	-51.940	-9.898	69.482	0.70886	-0.62054	0.30222	-0.14478	31.0	13111	100
2025-3-27 18:37:5.518	WT901BLE68-01(48591DE3C19B)	-0.677	-1.261	0.222	21.851	-9.338	-162.476	-82.17	-35.52	-44.59	-72.030	-31.458	72.128	0.70886	-0.62054	0.30222	-0.14478	31.0	13111	100
2025-3-27 18:37:5.518	WT901BLE68-01(48591DE3C19B)	-0.677	-1.287	0.225	21.790	-6.653	-136.475	-81.91	-36.55	-44.69	-72.030	-31.458	72.128	0.70886	-0.62054	0.30222	-0.14478	31.0	13111	100
2025-3-27 18:37:5.577	WT901BLE68-01(48591DE3C19B)	-0.708	-1.287	0.225	21.790	-6.653	-136.475	-81.63	-37.57	-44.78	-72.030	-31.458	72.128	0.70886	-0.62054	0.30222	-0.14478	31.0	13111	100
2025-3-27 18:37:5.577	WT901BLE68-01(48591DE3C19B)	-0.708	-1.295	0.199	18.921	-3.845	-110.474	-81.40	-38.32	-44.87	-72.030	-31.458	72.128	0.70886	-0.62054	0.30222	-0.14478	31.0	13111	100
2025-3-27 18:37:5.577	WT901BLE68-01(48591DE3C19B)	-0.682	-1.295	0.199	18.921	-3.845	-110.474	-81.16	-39.07	-44.96	-72.030	-31.458	72.128	0.70886	-0.62054	0.30222	-0.14478	31.0	13111	100
2025-3-27 18:37:5.577	WT901BLE68-01(48591DE3C19B)	-0.682	-1.253	0.205	14.648	16.968	-78.796	-80.83	-39.46	-45.25	-72.030	-31.458	72.128	0.70886	-0.62054	0.30222	-0.14478	31.0	13111	100
2025-3-27 18:37:5.606	WT901BLE68-01(48591DE3C19B)	-0.626	-1.253	0.205	14.648	16.968	-78.796	-80.50	-39.84	-45.54	-72.030	-31.458	72.128	0.70886	-0.62054	0.30222	-0.14478	31.0	13111	100
2025-3-27 18:37:5.606	WT901BLE68-01(48591DE3C19B)	-0.626	-1.130	0.230	6.897	58.472	-42.175	-79.95	-39.79	-46.29	-72.030	-31.458	72.128	0.70886	-0.62054	0.30222	-0.14478	31.0	13111	100
2025-3-27 18:37:5.606	WT901BLE68-01(48591DE3C19B)	-0.622	-1.130	0.230	6.897	58.472	-42.175	-79.41	-39.74	-47.04	-72.030	-31.458	72.128	0.70886	-0.62054	0.30222	-0.14478	31.0	13111	100
2025-3-27 18:37:5.606	WT901BLE68-01(48591DE3C19B)	-0.622	-1.033	0.270	-5.310	91.187	0.977	-78.80	-39.19	-48.08	-72.030	-31.458	72.128	0.70886	-0.62054	0.30222	-0.14478	31.0	13111	100
2025-3-27 18:37:5.638	WT901BLE68-01(48591DE3C19B)	-0.687	-1.033	0.270	-5.310	91.187	0.977	-78.21	-38.63	-49.11	-72.030	-31.458	72.128	0.70886	-0.62054	0.30222	-0.14478	31.0	13111	100
2025-3-27 18:37:5.638	WT901BLE68-01(48591DE3C19B)	-0.687	-0.962	0.339	-11.230	87.830	44.373	-77.79	-37.66	-49.97	-72.030	-31.458	72.128	0.70886	-0.62054	0.30222	-0.14478	31.0	13111	100
2025-3-27 18:37:5.638	WT901BLE68-01(48591DE3C19B)	-0.708	-0.962	0.339	-11.230	87.830	44.373	-77.41	-36.67	-50.80	-72.030	-31.458	72.128	0.70886	-0.62054	0.30222	-0.14478	31.0	13111	100
2025-3-27 18:37:5.638	WT901BLE68-01(48591DE3C19B)	-0.708	-0.811	0.353	-16.479	54.138	85.815	-77.40	-35.36	-51.09	-72.030	-31.458	72.128	0.70886	-0.62054	0.30222	-0.14478	31.0	13111	100
2025-3-27 18:37:5.759	WT901BLE68-01(48591DE3C19B)	-0.708	-0.811	0.353	-16.479	54.138	85.815	-77.40	-34.04	-51.38	-72.030	-31.458	72.128	0.70886	-0.62054	0.30222	-0.14478	31.0	13111	100
2025-3-27 18:37:5.759	WT901BLE68-01(48591DE3C19B)	-0.708	-0.696	0.279	-22.461	9.460	125.854	-77.80	-32.44	-51.04	-72.030	-31.458	72.128	0.70886	-0.62054	0.30222	-0.14478	31.0	13111	100
2025-3-27 18:37:5.759	WT901BLE68-01(48591DE3C19B)	-0.770	-0.696	0.279	-22.461	9.460	125.854	-78.18	-30.83	-50.72	-72.030	-31.458	72.128	0.70886	-0.62054	0.30222	-0.14478	31.0	13111	100
2025-3-27 18:37:5.759	WT901BLE68-01(48591DE3C19B)	-0.770	-0.709	0.159	-29.846	-38.940	166.199	-78.94	-28.93	-49.78	-72.030	-31.458	72.128	0.70886	-0.62054	0.30222	-0.14478	31.0	13111	100
2025-3-27 18:37:5.760	WT901BLE68-01(48591DE3C19B)	-0.728	-0.709	0.159	-29.846	-38.940	166.199	-79.65	-27.02	-48.89	-72.030	-31.458	72.128	0.70886	-0.62054	0.30222	-0.14478	31.0	13111	100
2025-3-27 18:37:5.760	WT901BLE68-01(48591DE3C19B)	-0.728	-0.952	0.046	-37.720	-83.618	202.820	-80.63	-24.82	-47.48	-72.030	-31.458	72.128	0.70886	-0.62054	0.30222	-0.14478	31.0	13111	100
2025-3-27 18:37:5.760	WT901BLE68-01(48591DE3C19B)	-0.579	-0.952	0.046	-37.720	-83.618	202.820	-81.54	-22.62	-46.15	-72.030	-31.458	72.128	0.70886	-0.62054	0.30222	-0.14478	31.0	13111	100
2025-3-27 18:37:5.760	WT901BLE68-01(48591DE3C19B)	-0.579	-1.285	0.003	-33.508	-111.267	234.009	-82.46	-20.14	-44.54	-72.030	-31.458	72.128	0.64154	-0.65033	0.12421	-0.38724	31.0	13111	100
2025-3-27 18:37:5.761	WT901BLE68-01(48591DE3C19B)	-0.452	-1.285	0.003	-33.508	-111.267	234.009	-83.29	-17.66	-43.01	-72.030	-31.458	72.128	0.64154	-0.65033	0.12421	-0.38724	31.0	13111	100
2025-3-27 18:37:5.761	WT901BLE68-01(48591DE3C19B)	-0.452	-1.607	0.018	-21.545	-129.333	260.986	-83.97	-14.94	-41.33	-72.030	-31.458	72.128	0.64154	-0.65033	0.12421	-0.38724	31.0	13111	100
2025-3-27 18:37:5.761	WT901BLE68-01(48591DE3C19B)	-0.316	-1.607	0.018	-21.545	-129.333	260.986	-84.56	-12.22	-39.71	-72.030	-31.458	72.128	0.64154	-0.65033	0.12421	-0.38724	31.0	13111	100
2025-3-27 18:37:5.761	WT901BLE68-01(48591DE3C19B)	-0.195	-1.863	0.033	-3.540	-133.118	278.931	-84.90	-9.34	-38.10	-72.030	-31.458	72.128	0.64154	-0.65033	0.12421	-0.38724	31.0	13111	100
2025-3-27 18:37:5.848	WT901BLE68-01(48591DE3C19B)	-0.195	-1.965	0.074	15.076	-118.042	292.480	-85.04	-6.42	-36.59	-72.030	-31.458	72.128	0.64154	-0.65033	0.12421	-0.38724	31.0	13111	100
2025-3-27 18:37:5.848	WT901BLE68-01(48591DE3C19B)	-0.194	-1.965	0.074	15.076	-118.042	292.480	-85.01	-3.46	-35.18	-72.030	-31.458	72.128	0.64154	-0.65033	0.12421	-0.38724	31.0	13111	100
2025-3-27 18:37:5.848	WT901BLE68-01(48591DE3C19B)	-0.194	-1.980	0.158	25.513	-94.543	302.673	-84.85	-0.46	-33.90	-72.030	-31.458	72.128	0.64154	-0.65033	0.12421	-0.38724	31.0	13111	100
2025-3-27 18:37:5.848	WT901BLE68-01(48591DE3C19B)	-0.195	-1.980	0.158	25.513	-94.543	302.673	-84.57	2.56	-32.73	-72.030	-31.458	72.128	0.64154	-0.65033	0.12421	-0.38724	31.0	13111	100
2025-3-27 18:37:5.849	WT901BLE68-01(48591DE3C19B)	-0.195	-1.964	0.179	34.973	-71.045	307.129	-84.19	5.58	-31.67	-72.030	-31.458	72.128	0.64154	-0.65033	0.12421	-0.38724	31.0	13111	100
2025-3-27 18:37:5.850	WT901BLE68-01(48591DE3C19B)	-0.128	-1.964	0.179	34.973	-71.045	307.129	-83.72	8.61	-30.70	-72.030	-31.458	72.128	0.64154	-0.65033	0.12421	-0.38724	31.0	13111	100
2025-3-27 18:37:5.850	WT901BLE68-01(48591DE3C19B)	-0.128	-1.809	0.162	42.969	-42.969	309.448	-83.17	11.62	-29.84	-72.030	-31.458	72.128	0.64154	-0.65033	0.12421	-0.38724	31.0	13111	100
2025-3-27 18:37:5.850	WT901BLE68-01(48591DE3C19B)	-0.109	-1.809	0.162	42.969	-42.969	309.448	-82.57	14.64	-29.10	-72.030	-31.458	72.128	0.64154	-0.65033	0.12421	-0.38724	31.0	13111	100
2025-3-27 18:37:5.910	WT901BLE68-01(48591DE3C19B)	-0.109	-1.586	0.121	41.748	-7.751	308.289	-81.97	17.64	-28.49	-72.030	-31.458	72.128	0.64154	-0.65033	0.12421	-0.38724	31.0	13111	100
2025-3-27 18:37:5.910	WT901BLE68-01(48591DE3C19B)	-0.172	-1.586	0.121	41.748	-7.751	308.289	-81.41	20.63	-28.03	-72.030	-31.458	72.128	0.64154	-0.65033	0.12421	-0.38724	31.0	13111	100
2025-3-27 18:37:5.910	WT901BLE68-01(48591DE3C19B)	-0.172	-1.453	0.107	34.241	22.888	302.490	-80.90	23.59	-27.71	-72.030	-31.458	72.128	0.64154	-0.65033	0.12421	-0.38724	31.0	13111	100
2025-3-27 18:37:5.910	WT901BLE68-01(48591DE3C19B)	-0.247	-1.453	0.107	34.241	22.888	302.490	-80.48	26.52	-27.52	-72.030	-31.458	72.128	0.64154	-0.65033	0.12421	-0.38724	31.0	13111	100
2025-3-27 18:37:5.940	WT901BLE68-01(48591DE3C19B)	-0.247	-1.415	0.078	25.635	38.452	295.593	-80.13	29.42	-27.39	-72.030	-31.458	72.128	0.64154	-0.65033	0.12421	-0.38724	31.0	13111	100
2025-3-27 18:37:5.940	WT901BLE68-01(48591DE3C19B)	-0.249	-1.415	0.078	25.635	38.452	295.593	-79.85	32.27	-27.34	-72.030	-31.458	72.128	0.64154	-0.65033	0.12421	-0.38724	31.0	13111	100
2025-3-27 18:37:5.940	WT901BLE68-01(48591DE3C19B)	-0.249	-1.394	0.021	19.165	40.100	287.231	-79.60	35.07	-27.30	-72.030	-31.458	72.128	0.64154	-0.65033	0.12421	-0.38724	31.0	13111	100
2025-3-27 18:37:5.940	WT901BLE68-01(48591DE3C19B)	-0.239	-1.394	0.021	19.165	40.100	287.231	-79.38	37.81	-27.25	-64.778	-8.526	68.796	0.64154	-0.65033	0.12421	-0.38724	31.0	13111	100
2025-3-27 18:37:5.970	WT901BLE68-01(48591DE3C19B)	-0.239	-1.341	-0.040	13.611	32.776	277.649	-79.16	40.48	-27.15	-64.778	-8.526	68.796	0.64154	-0.65033	0.12421	-0.38724	31.0	13111	100
2025-3-27 18:37:5.970	WT901BLE68-01(48591DE3C19B)	-0.249	-1.341	-0.040	13.611	32.776	277.649	-78.93	43.08	-27.00	-64.778	-8.526	68.796	0.64154	-0.65033	0.12421	-0.38724	31.0	13111	100
2025-3-27 18:37:5.970	WT901BLE68-01(48591DE3C19B)	-0.249	-1.337	-0.059	6.409	16.052	267.456	-78.64	45.60	-26.72	-64.778	-8.526	68.796	0.64154	-0.65033	0.12421	-0.38724	31.0	13111	100
2025-3-27 18:37:5.970	WT901BLE68-01(48591DE3C19B)	-0.238	-1.337	-0.059	6.409	16.052	267.456	-78.28	48.05	-26.30	-64.778	-8.526	68.796	0.64154	-0.65033	0.12421	-0.38724	31.0	13111	100
2025-3-27 18:37:6.28	WT901BLE68-01(48591DE3C19B)	-0.238	-1.458	-0.054	0.122	-7.629	255.188	-77.79	50.39	-25.68	-64.778	-8.526	68.796	0.64154	-0.65033	0.12421	-0.38724	31.0	13111	100
2025-3-27 18:37:6.28	WT901BLE68-01(48591DE3C19B)	-0.153	-1.458	-0.054	0.122	-7.629	255.188	-77.14	52.62	-24.83	-64.778	-8.526	68.796	0.64154	-0.65033	0.12421	-0.38724	31.0	13111	100
2025-3-27 18:37:6.28	WT901BLE68-01(48591DE3C19B)	-0.153	-1.594	-0.067	-0.732	-29.297	237.915	-76.29	54.73	-23.75	-64.778	-8.526	68.796	0.64154	-0.65033	0.12421	-0.38724	31.0	13111	100
2025-3-27 18:37:6.28	WT901BLE68-01(48591DE3C19B)	-0.023	-1.594	-0.067	-0.732	-29.297	237.915	-75.21	56.71	-22.40	-64.778	-8.526	68.796	0.64154	-0.65033	0.12421	-0.38724	31.0	13111	100
2025-3-27 18:37:6.57	WT901BLE68-01(48591DE3C19B)	-0.023	-1.684	-0.098	0.488	-46.875	213.928	-73.89	58.51	-20.81	-64.778	-8.526	68.796	0.64154	-0.65033	0.12421	-0.38724	31.0	13111	100
2025-3-27 18:37:6.57	WT901BLE68-01(48591DE3C19B)	0.175	-1.684	-0.098	0.488	-46.875	213.928	-72.34	60.14	-18.96	-64.778	-8.526	68.796	0.64154	-0.65033	0.12421	-0.38724	31.0	13111	100
2025-3-27 18:37:6.57	WT901BLE68-01(48591DE3C19B)	0.175	-1.708	-0.105	1.709	-55.054	182.556	-70.62	61.57	-16.97	-64.778	-8.526	68.796	0.64154	-0.65033	0.12421	-0.38724	31.0	13111	100
2025-3-27 18:37:6.57	WT901BLE68-01(48591DE3C19B)	0.366	-1.708	-0.105	1.709	-55.054	182.556	-68.76	62.79	-14.84	-64.778	-8.526	68.796	0.64154	-0.65033	0.12421	-0.38724	31.0	13111	100
2025-3-27 18:37:6.89	WT901BLE68-01(48591DE3C19B)	0.366	-1.778	-0.049	5.981	-44.861	140.015	-66.99	63.79	-12.84	-64.778	-8.526	68.796	0.64154	-0.65033	0.12421	-0.38724	31.0	13111	100
2025-3-27 18:37:6.90	WT901BLE68-01(48591DE3C19B)	0.346	-1.778	-0.049	5.981	-44.861	140.015	-65.34	64.57	-11.01	-64.778	-8.526	68.796	0.64154	-0.65033	0.12421	-0.38724	31.0	13111	100
2025-3-27 18:37:6.90	WT901BLE68-01(48591DE3C19B)	0.346	-1.710	0.030	1.526	-34.241	88.745	-63.97	65.11	-9.48	-64.778	-8.526	68.796	0.64154	-0.65033	0.12421	-0.38724	31.0	13111	100
2025-3-27 18:37:6.90	WT901BLE68-01(48591DE3C19B)	0.242	-1.710	0.030	1.526	-34.241	88.745	-62.94	65.43	-8.29	-64.778	-8.526	68.796	0.64154	-0.65033	0.12421	-0.38724	31.0	13111	100
2025-3-27 18:37:6.149	WT901BLE68-01(48591DE3C19B)	0.242	-1.598	0.166	-9.827	-24.963	29.785	-62.32	65.48	-7.50	-64.778	-8.526	68.796	0.64154	-0.65033	0.12421	-0.38724	31.0	13111	100
2025-3-27 18:37:6.149	WT901BLE68-01(48591DE3C19B)	0.238	-1.598	0.166	-9.827	-24.963	29.785	-62.15	65.30	-7.14	-64.778	-8.526	68.796	0.73734	-0.40546	0.48718	0.23343	31.0	13111	100
2025-3-27 18:37:6.149	WT901BLE68-01(48591DE3C19B)	0.238	-1.465	0.160	-11.169	5.066	-23.132	-62.53	64.95	-7.38	-64.778	-8.526	68.796	0.73734	-0.40546	0.48718	0.23343	31.0	13111	100
2025-3-27 18:37:6.149	WT901BLE68-01(48591DE3C19B)	0.209	-1.465	0.160	-11.169	5.066	-23.132	-63.45	64.42	-8.21	-64.778	-8.526	68.796	0.73734	-0.40546	0.48718	0.23343	31.0	13111	100
2025-3-27 18:37:6.177	WT901BLE68-01(48591DE3C19B)	0.209	-1.188	0.138	-16.113	43.213	-70.618	-64.89	63.76	-9.60	-64.778	-8.526	68.796	0.73734	-0.40546	0.48718	0.23343	31.0	13111	100
2025-3-27 18:37:6.177	WT901BLE68-01(48591DE3C19B)	0.140	-1.188	0.138	-16.113	43.213	-70.618	-66.81	62.94	-11.51	-64.778	-8.526	68.796	0.73734	-0.40546	0.48718	0.23343	31.0	13111	100
2025-3-27 18:37:6.177	WT901BLE68-01(48591DE3C19B)	0.140	-1.074	0.136	-28.137	57.190	-116.760	-68.94	61.91	-13.62	-64.778	-8.526	68.796	0.73734	-0.40546	0.48718	0.23343	31.0	13111	100
2025-3-27 18:37:6.177	WT901BLE68-01(48591DE3C19B)	0.016	-1.074	0.136	-28.137	57.190	-116.760	-71.23	60.65	-15.86	-64.778	-8.526	68.796	0.73734	-0.40546	0.48718	0.23343	31.0	13111	100
2025-3-27 18:37:6.208	WT901BLE68-01(48591DE3C19B)	0.016	-1.154	0.167	-36.377	50.171	-161.194	-73.41	59.13	-17.96	-64.778	-8.526	68.796	0.73734	-0.40546	0.48718	0.23343	31.0	13111	100
2025-3-27 18:37:6.208	WT901BLE68-01(48591DE3C19B)	-0.119	-1.154	0.167	-36.377	50.171	-161.194	-75.44	57.37	-19.90	-64.778	-8.526	68.796	0.73734	-0.40546	0.48718	0.23343	31.0	13111	100
2025-3-27 18:37:6.208	WT901BLE68-01(48591DE3C19B)	-0.119	-1.295	0.187	-30.884	34.302	-202.271	-77.20	55.37	-21.57	-64.778	-8.526	68.796	0.73734	-0.40546	0.48718	0.23343	31.0	13111	100
2025-3-27 18:37:6.208	WT901BLE68-01(48591DE3C19B)	-0.159	-1.295	0.187	-30.884	34.302	-202.271	-78.68	53.14	-23.00	-64.778	-8.526	68.796	0.73734	-0.40546	0.48718	0.23343	31.0	13111	100
2025-3-27 18:37:6.268	WT901BLE68-01(48591DE3C19B)	-0.159	-1.389	0.232	-9.460	34.058	-234.070	-79.92	50.75	-24.30	-64.778	-8.526	68.796	0.73734	-0.40546	0.48718	0.23343	31.0	13111	100
2025-3-27 18:37:6.268	WT901BLE68-01(48591DE3C19B)	-0.189	-1.389	0.232	-9.460	34.058	-234.070	-80.93	48.21	-25.50	-64.778	-8.526	68.796	0.73734	-0.40546	0.48718	0.23343	31.0	13111	100
2025-3-27 18:37:6.268	WT901BLE68-01(48591DE3C19B)	-0.189	-1.301	0.215	1.831	31.006	-258.240	-81.76	45.55	-26.59	-64.778	-8.526	68.796	0.73734	-0.40546	0.48718	0.23343	31.0	13111	100
2025-3-27 18:37:6.268	WT901BLE68-01(48591DE3C19B)	-0.163	-1.301	0.215	1.831	31.006	-258.240	-82.42	42.78	-27.58	-64.778	-8.526	68.796	0.73734	-0.40546	0.48718	0.23343	31.0	13111	100
2025-3-27 18:37:6.299	WT901BLE68-01(48591DE3C19B)	-0.163	-1.265	0.149	6.836	34.363	-279.480	-83.00	39.82	-28.56	-64.778	-8.526	68.796	0.73734	-0.40546	0.48718	0.23343	31.0	13111	100
2025-3-27 18:37:6.299	WT901BLE68-01(48591DE3C19B)	-0.138	-1.265	0.149	6.836	34.363	-279.480	-83.47	36.87	-29.47	-64.778	-8.526	68.796	0.73734	-0.40546	0.48718	0.23343	31.0	13111	100
2025-3-27 18:37:6.299	WT901BLE68-01(48591DE3C19B)	-0.138	-1.265	0.104	14.221	46.082	-295.410	-83.90	33.79	-30.47	-64.778	-8.526	68.796	0.73734	-0.40546	0.48718	0.23343	31.0	13111	100
2025-3-27 18:37:6.299	WT901BLE68-01(48591DE3C19B)	-0.143	-1.265	0.104	14.221	46.082	-295.410	-84.25	30.73	-31.42	-64.778	-8.526	68.796	0.73734	-0.40546	0.48718	0.23343	31.0	13111	100
2025-3-27 18:37:6.330	WT901BLE68-01(48591DE3C19B)	-0.143	-1.267	0.081	22.827	61.646	-307.861	-84.55	27.57	-32.50	-64.778	-8.526	68.796	0.73734	-0.40546	0.48718	0.23343	31.0	13111	100
2025-3-27 18:37:6.330	WT901BLE68-01(48591DE3C19B)	-0.198	-1.267	0.081	22.827	61.646	-307.861	-84.77	24.43	-33.55	-64.778	-8.526	68.796	0.73734	-0.40546	0.48718	0.23343	31.0	13111	100
2025-3-27 18:37:6.330	WT901BLE68-01(48591DE3C19B)	-0.198	-1.278	0.091	31.860	74.341	-316.528	-84.88	21.24	-34.69	-60.172	-4.116	69.874	0.73734	-0.40546	0.48718	0.23343	31.0	13111	100
2025-3-27 18:37:6.330	WT901BLE68-01(48591DE3C19B)	-0.307	-1.278	0.091	31.860	74.341	-316.528	-84.93	18.06	-35.81	-60.172	-4.116	69.874	0.73734	-0.40546	0.48718	0.23343	31.0	13111	100
2025-3-27 18:37:6.390	WT901BLE68-01(48591DE3C19B)	-0.307	-1.301	0.130	40.955	78.979	-321.777	-84.84	14.86	-36.96	-60.172	-4.116	69.874	0.73734	-0.40546	0.48718	0.23343	31.0	13111	100
2025-3-27 18:37:6.390	WT901BLE68-01(48591DE3C19B)	-0.480	-1.301	0.130	40.955	78.979	-321.777	-84.69	11.68	-38.10	-60.172	-4.116	69.874	0.73734	-0.40546	0.48718	0.23343	31.0	13111	100
2025-3-27 18:37:6.390	WT901BLE68-01(48591DE3C19B)	-0.480	-1.353	0.177	48.401	71.228	-322.815	-84.39	8.53	-39.15	-60.172	-4.116	69.874	0.73734	-0.40546	0.48718	0.23343	31.0	13111	100
2025-3-27 18:37:6.390	WT901BLE68-01(48591DE3C19B)	-0.597	-1.353	0.177	48.401	71.228	-322.815	-84.03	5.40	-40.22	-60.172	-4.116	69.874	0.73734	-0.40546	0.48718	0.23343	31.0	13111	100
2025-3-27 18:37:6.417	WT901BLE68-01(48591DE3C19B)	-0.597	-1.393	0.182	55.603	61.462	-318.909	-83.54	2.33	-41.19	-60.172	-4.116	69.874	0.73734	-0.40546	0.48718	0.23343	31.0	13111	100
2025-3-27 18:37:6.417	WT901BLE68-01(48591DE3C19B)	-0.621	-1.393	0.182	55.603	61.462	-318.909	-83.00	-0.69	-42.19	-60.172	-4.116	69.874	0.73734	-0.40546	0.48718	0.23343	31.0	13111	100
2025-3-27 18:37:6.417	WT901BLE68-01(48591DE3C19B)	-0.621	-1.376	0.145	60.913	56.824	-305.847	-82.36	-3.56	-43.15	-60.172	-4.116	69.874	0.73734	-0.40546	0.48718	0.23343	31.0	13111	100
2025-3-27 18:37:6.417	WT901BLE68-01(48591DE3C19B)	-0.633	-1.376	0.145	60.913	56.824	-305.847	-81.68	-6.39	-44.15	-60.172	-4.116	69.874	0.73734	-0.40546	0.48718	0.23343	31.0	13111	100
2025-3-27 18:37:6.447	WT901BLE68-01(48591DE3C19B)	-0.633	-1.327	0.123	61.523	51.880	-284.180	-80.95	-8.98	-45.09	-60.172	-4.116	69.874	0.73734	-0.40546	0.48718	0.23343	31.0	13111	100
2025-3-27 18:37:6.448	WT901BLE68-01(48591DE3C19B)	-0.613	-1.327	0.123	61.523	51.880	-284.180	-80.18	-11.54	-46.08	-60.172	-4.116	69.874	0.73734	-0.40546	0.48718	0.23343	31.0	13111	100
2025-3-27 18:37:6.448	WT901BLE68-01(48591DE3C19B)	-0.613	-1.273	0.138	57.251	43.823	-261.597	-79.44	-13.86	-46.98	-60.172	-4.116	69.874	0.73734	-0.40546	0.48718	0.23343	31.0	13111	100
2025-3-27 18:37:6.448	WT901BLE68-01(48591DE3C19B)	-0.573	-1.273	0.138	57.251	43.823	-261.597	-78.65	-16.14	-47.92	-60.172	-4.116	69.874	0.73734	-0.40546	0.48718	0.23343	31.0	13111	100
2025-3-27 18:37:6.510	WT901BLE68-01(48591DE3C19B)	-0.573	-1.255	0.178	48.584	37.476	-236.328	-77.94	-18.17	-48.78	-60.172	-4.116	69.874	0.73734	-0.40546	0.48718	0.23343	31.0	13111	100
2025-3-27 18:37:6.510	WT901BLE68-01(48591DE3C19B)	-0.533	-1.255	0.178	48.584	37.476	-236.328	-77.20	-20.17	-49.67	-60.172	-4.116	69.874	0.73734	-0.40546	0.48718	0.23343	31.0	13111	100
2025-3-27 18:37:6.510	WT901BLE68-01(48591DE3C19B)	-0.533	-1.359	0.188	34.607	30.762	-214.050	-76.60	-21.95	-50.47	-60.172	-4.116	69.874	0.73734	-0.40546	0.48718	0.23343	31.0	13111	100
2025-3-27 18:37:6.511	WT901BLE68-01(48591DE3C19B)	-0.481	-1.359	0.188	34.607	30.762	-214.050	-75.98	-23.70	-51.30	-60.172	-4.116	69.874	0.73734	-0.40546	0.48718	0.23343	31.0	13111	100
2025-3-27 18:37:6.539	WT901BLE68-01(48591DE3C19B)	-0.481	-1.654	0.189	21.423	25.391	-192.444	-75.50	-25.25	-52.04	-60.172	-4.116	69.874	0.73734	-0.40546	0.48718	0.23343	31.0	13111	100
2025-3-27 18:37:6.539	WT901BLE68-01(48591DE3C19B)	-0.589	-1.654	0.189	21.423	25.391	-192.444	-74.99	-26.78	-52.79	-60.172	-4.116	69.874	0.73734	-0.40546	0.48718	0.23343	31.0	13111	100
2025-3-27 18:37:6.539	WT901BLE68-01(48591DE3C19B)	-0.589	-1.949	0.248	14.832	39.612	-160.400	-74.50	-27.96	-53.64	-60.172	-4.116	69.874	0.73734	-0.40546	0.48718	0.23343	31.0	13111	100
2025-3-27 18:37:6.540	WT901BLE68-01(48591DE3C19B)	-0.843	-1.949	0.248	14.832	39.612	-160.400	-73.99	-29.12	-54.49	-60.172	-4.116	69.874	0.61618	-0.60757	0.08746	-0.49338	31.0	13111	100
2025-3-27 18:37:6.569	WT901BLE68-01(48591DE3C19B)	-0.843	-2.000	0.196	27.710	86.487	-122.620	-73.14	-29.78	-55.76	-60.172	-4.116	69.874	0.61618	-0.60757	0.08746	-0.49338	31.0	13111	100
2025-3-27 18:37:6.570	WT901BLE68-01(48591DE3C19B)	-0.935	-2.000	0.196	27.710	86.487	-122.620	-72.27	-30.41	-57.05	-60.172	-4.116	69.874	0.61618	-0.60757	0.08746	-0.49338	31.0	13111	100
2025-3-27 18:37:6.570	WT901BLE68-01(48591DE3C19B)	-0.935	-1.538	0.141	28.259	137.695	-90.027	-71.16	-30.55	-58.78	-60.172	-4.116	69.874	0.61618	-0.60757	0.08746	-0.49338	31.0	13111	100
2025-3-27 18:37:6.570	WT901BLE68-01(48591DE3C19B)	-0.886	-1.538	0.141	28.259	137.695	-90.027	-70.07	-30.65	-60.51	-60.172	-4.116	69.874	0.61618	-0.60757	0.08746	-0.49338	31.0	13111	100
2025-3-27 18:37:6.628	WT901BLE68-01(48591DE3C19B)	-0.886	-1.150	0.163	9.155	170.349	-46.204	-69.08	-30.20	-62.40	-60.172	-4.116	69.874	0.61618	-0.60757	0.08746	-0.49338	31.0	13111	100
2025-3-27 18:37:6.628	WT901BLE68-01(48591DE3C19B)	-0.872	-1.150	0.163	9.155	170.349	-46.204	-68.13	-29.71	-64.27	-60.172	-4.116	69.874	0.61618	-0.60757	0.08746	-0.49338	31.0	13111	100
2025-3-27 18:37:6.628	WT901BLE68-01(48591DE3C19B)	-0.872	-0.926	0.259	-9.521	164.734	-1.526	-67.53	-28.81	-65.86	-60.172	-4.116	69.874	0.61618	-0.60757	0.08746	-0.49338	31.0	13111	100
2025-3-27 18:37:6.628	WT901BLE68-01(48591DE3C19B)	-0.922	-0.926	0.259	-9.521	164.734	-1.526	-66.96	-27.89	-67.41	-60.172	-4.116	69.874	0.61618	-0.60757	0.08746	-0.49338	31.0	13111	100
2025-3-27 18:37:6.656	WT901BLE68-01(48591DE3C19B)	-0.922	-0.761	0.257	-23.376	118.408	36.682	-66.87	-26.79	-68.29	-60.172	-4.116	69.874	0.61618	-0.60757	0.08746	-0.49338	31.0	13111	100
2025-3-27 18:37:6.657	WT901BLE68-01(48591DE3C19B)	-0.948	-0.761	0.257	-23.376	118.408	36.682	-66.80	-25.69	-69.15	-60.172	-4.116	69.874	0.61618	-0.60757	0.08746	-0.49338	31.0	13111	100
2025-3-27 18:37:6.657	WT901BLE68-01(48591DE3C19B)	-0.948	-0.676	0.133	-36.926	50.659	70.190	-67.24	-24.55	-69.16	-60.172	-4.116	69.874	0.61618	-0.60757	0.08746	-0.49338	31.0	13111	100
2025-3-27 18:37:6.657	WT901BLE68-01(48591DE3C19B)	-0.954	-0.676	0.133	-36.926	50.659	70.190	-67.68	-23.40	-69.19	-60.172	-4.116	69.874	0.61618	-0.60757	0.08746	-0.49338	31.0	13111	100
2025-3-27 18:37:6.690	WT901BLE68-01(48591DE3C19B)	-0.954	-0.701	-0.021	-50.537	-25.085	106.018	-68.61	-22.20	-68.31	-60.172	-4.116	69.874	0.61618	-0.60757	0.08746	-0.49338	31.0	13111	100
2025-3-27 18:37:6.690	WT901BLE68-01(48591DE3C19B)	-0.808	-0.701	-0.021	-50.537	-25.085	106.018	-69.52	-20.99	-67.46	-60.172	-4.116	69.874	0.61618	-0.60757	0.08746	-0.49338	31.0	13111	100
2025-3-27 18:37:6.690	WT901BLE68-01(48591DE3C19B)	-0.808	-0.835	-0.130	-59.753	-87.097	139.343	-70.74	-19.68	-65.90	-60.172	-4.116	69.874	0.61618	-0.60757	0.08746	-0.49338	31.0	13111	100
2025-3-27 18:37:6.690	WT901BLE68-01(48591DE3C19B)	-0.604	-0.835	-0.130	-59.753	-87.097	139.343	-71.92	-18.33	-64.37	-60.172	-4.116	69.874	0.61618	-0.60757	0.08746	-0.49338	31.0	13111	100
2025-3-27 18:37:6.747	WT901BLE68-01(48591DE3C19B)	-0.514	-0.936	-0.139	-59.326	-120.850	171.326	-73.18	-16.76	-62.47	-60.172	-4.116	69.874	0.61618	-0.60757	0.08746	-0.49338	31.0	13111	100
2025-3-27 18:37:6.747	WT901BLE68-01(48591DE3C19B)	-0.514	-1.029	-0.091	-59.937	-138.611	197.571	-74.40	-15.06	-60.50	-60.172	-4.116	69.874	0.61618	-0.60757	0.08746	-0.49338	31.0	13111	100
2025-3-27 18:37:6.747	WT901BLE68-01(48591DE3C19B)	-0.491	-1.029	-0.091	-59.937	-138.611	197.571	-75.59	-13.23	-58.46	-60.172	-4.116	69.874	0.61618	-0.60757	0.08746	-0.49338	31.0	13111	100
2025-3-27 18:37:6.747	WT901BLE68-01(48591DE3C19B)	-0.491	-1.179	-0.008	-57.678	-152.771	216.248	-76.69	-11.30	-56.41	-60.172	-4.116	69.874	0.61618	-0.60757	0.08746	-0.49338	31.0	13111	100
2025-3-27 18:37:6.777	WT901BLE68-01(48591DE3C19B)	-0.431	-1.179	-0.008	-57.678	-152.771	216.248	-77.72	-9.28	-54.32	-85.456	-17.150	60.270	0.61618	-0.60757	0.08746	-0.49338	31.0	13111	100
2025-3-27 18:37:6.778	WT901BLE68-01(48591DE3C19B)	-0.431	-1.316	0.051	-50.842	-160.400	232.422	-78.62	-7.17	-52.25	-85.456	-17.150	60.270	0.61618	-0.60757	0.08746	-0.49338	31.0	13111	100
2025-3-27 18:37:6.778	WT901BLE68-01(48591DE3C19B)	-0.361	-1.316	0.051	-50.842	-160.400	232.422	-79.41	-4.99	-50.17	-85.456	-17.150	60.270	0.61618	-0.60757	0.08746	-0.49338	31.0	13111	100
2025-3-27 18:37:6.778	WT901BLE68-01(48591DE3C19B)	-0.361	-1.426	0.080	-40.894	-154.541	245.361	-80.06	-2.72	-48.16	-85.456	-17.150	60.270	0.61618	-0.60757	0.08746	-0.49338	31.0	13111	100
2025-3-27 18:37:6.807	WT901BLE68-01(48591DE3C19B)	-0.314	-1.426	0.080	-40.894	-154.541	245.361	-80.57	-0.39	-46.22	-85.456	-17.150	60.270	0.61618	-0.60757	0.08746	-0.49338	31.0	13111	100
2025-3-27 18:37:6.807	WT901BLE68-01(48591DE3C19B)	-0.314	-1.476	0.069	-30.212	-138.000	255.493	-80.94	1.99	-44.37	-85.456	-17.150	60.270	0.61618	-0.60757	0.08746	-0.49338	31.0	13111	100
2025-3-27 18:37:6.807	WT901BLE68-01(48591DE3C19B)	-0.275	-1.476	0.069	-30.212	-138.000	255.493	-81.18	4.43	-42.63	-85.456	-17.150	60.270	0.61618	-0.60757	0.08746	-0.49338	31.0	13111	100
2025-3-27 18:37:6.807	WT901BLE68-01(48591DE3C19B)	-0.275	-1.452	0.031	-21.057	-114.136	261.536	-81.30	6.90	-41.01	-85.456	-17.150	60.270	0.61618	-0.60757	0.08746	-0.49338	31.0	13111	100
2025-3-27 18:37:6.868	WT901BLE68-01(48591DE3C19B)	-0.245	-1.452	0.031	-21.057	-114.136	261.536	-81.33	9.39	-39.51	-85.456	-17.150	60.270	0.61618	-0.60757	0.08746	-0.49338	31.0	13111	100
2025-3-27 18:37:6.868	WT901BLE68-01(48591DE3C19B)	-0.245	-1.388	0.000	-15.747	-90.149	265.015	-81.29	11.90	-38.12	-85.456	-17.150	60.270	0.61618	-0.60757	0.08746	-0.49338	31.0	13111	100
2025-3-27 18:37:6.868	WT901BLE68-01(48591DE3C19B)	-0.244	-1.388	0.000	-15.747	-90.149	265.015	-81.18	14.43	-36.84	-85.456	-17.150	60.270	0.61618	-0.60757	0.08746	-0.49338	31.0	13111	100
2025-3-27 18:37:6.868	WT901BLE68-01(48591DE3C19B)	-0.244	-1.314	0.028	-11.841	-73.059	265.869	-81.02	16.94	-35.64	-85.456	-17.150	60.270	0.61618	-0.60757	0.08746	-0.49338	31.0	13111	100
2025-3-27 18:37:6.897	WT901BLE68-01(48591DE3C19B)	-0.222	-1.314	0.028	-11.841	-73.059	265.869	-80.82	19.45	-34.50	-85.456	-17.150	60.270	0.61618	-0.60757	0.08746	-0.49338	31.0	13111	100
2025-3-27 18:37:6.897	WT901BLE68-01(48591DE3C19B)	-0.222	-1.271	0.063	-6.409	-61.890	263.855	-80.54	21.93	-33.40	-85.456	-17.150	60.270	0.61618	-0.60757	0.08746	-0.49338	31.0	13111	100
2025-3-27 18:37:6.897	WT901BLE68-01(48591DE3C19B)	-0.191	-1.271	0.063	-6.409	-61.890	263.855	-80.21	24.40	-32.34	-85.456	-17.150	60.270	0.61618	-0.60757	0.08746	-0.49338	31.0	13111	100
2025-3-27 18:37:6.898	WT901BLE68-01(48591DE3C19B)	-0.191	-1.235	0.046	-0.366	-47.852	259.155	-79.83	26.82	-31.32	-85.456	-17.150	60.270	0.61618	-0.60757	0.08746	-0.49338	31.0	13111	100
2025-3-27 18:37:6.928	WT901BLE68-01(48591DE3C19B)	-0.185	-1.235	0.046	-0.366	-47.852	259.155	-79.39	29.21	-30.34	-85.456	-17.150	60.270	0.61618	-0.60757	0.08746	-0.49338	31.0	13111	100
2025-3-27 18:37:6.928	WT901BLE68-01(48591DE3C19B)	-0.185	-1.266	0.019	1.465	-32.043	251.709	-78.95	31.55	-29.42	-85.456	-17.150	60.270	0.61618	-0.60757	0.08746	-0.49338	31.0	13111	100
2025-3-27 18:37:6.928	WT901BLE68-01(48591DE3C19B)	-0.237	-1.266	0.019	1.465	-32.043	251.709	-78.50	33.85	-28.56	-85.456	-17.150	60.270	0.61618	-0.60757	0.08746	-0.49338	31.0	13111	100
2025-3-27 18:37:6.928	WT901BLE68-01(48591DE3C19B)	-0.237	-1.402	0.002	-0.854	-21.240	238.586	-78.05	36.07	-27.73	-85.456	-17.150	60.270	0.61618	-0.60757	0.08746	-0.49338	31.0	13111	100
2025-3-27 18:37:6.989	WT901BLE68-01(48591DE3C19B)	-0.317	-1.402	0.002	-0.854	-21.240	238.586	-77.61	38.22	-26.95	-85.456	-17.150	60.270	0.61618	-0.60757	0.08746	-0.49338	31.0	13111	100
2025-3-27 18:37:6.989	WT901BLE68-01(48591DE3C19B)	-0.317	-1.657	0.025	-5.554	-22.583	221.497	-77.16	40.26	-26.14	-85.456	-17.150	60.270	0.76346	-0.50946	0.39447	0.04309	31.0	13111	100
2025-3-27 18:37:6.989	WT901BLE68-01(48591DE3C19B)	-0.374	-1.657	0.025	-5.554	-22.583	221.497	-76.69	42.20	-25.29	-85.456	-17.150	60.270	0.76346	-0.50946	0.39447	0.04309	31.0	13111	100
2025-3-27 18:37:6.989	WT901BLE68-01(48591DE3C19B)	-0.374	-2.042	0.068	-6.592	-32.227	206.665	-76.15	44.04	-24.36	-85.456	-17.150	60.270	0.76346	-0.50946	0.39447	0.04309	31.0	13111	100
2025-3-27 18:37:7.17	WT901BLE68-01(48591DE3C19B)	-0.324	-2.042	0.068	-6.592	-32.227	206.665	-75.53	45.79	-23.32	-85.456	-17.150	60.270	0.76346	-0.50946	0.39447	0.04309	31.0	13111	100
2025-3-27 18:37:7.17	WT901BLE68-01(48591DE3C19B)	-0.324	-2.265	0.063	0.427	-43.152	194.275	-74.76	47.42	-22.18	-85.456	-17.150	60.270	0.76346	-0.50946	0.39447	0.04309	31.0	13111	100
2025-3-27 18:37:7.17	WT901BLE68-01(48591DE3C19B)	-0.146	-2.265	0.063	0.427	-43.152	194.275	-73.85	48.97	-20.90	-85.456	-17.150	60.270	0.76346	-0.50946	0.39447	0.04309	31.0	13111	100
2025-3-27 18:37:7.17	WT901BLE68-01(48591DE3C19B)	-0.146	-2.199	0.026	1.892	-47.058	179.077	-72.86	50.41	-19.55	-85.456	-17.150	60.270	0.76346	-0.50946	0.39447	0.04309	31.0	13111	100
2025-3-27 18:37:7.47	WT901BLE68-01(48591DE3C19B)	0.033	-2.199	0.026	1.892	-47.058	179.077	-71.78	51.74	-18.13	-85.456	-17.150	60.270	0.76346	-0.50946	0.39447	0.04309	31.0	13111	100
2025-3-27 18:37:7.47	WT901BLE68-01(48591DE3C19B)	0.033	-2.082	0.038	-3.174	-42.603	162.476	-70.72	52.97	-16.70	-85.456	-17.150	60.270	0.76346	-0.50946	0.39447	0.04309	31.0	13111	100
2025-3-27 18:37:7.48	WT901BLE68-01(48591DE3C19B)	0.238	-2.082	0.038	-3.174	-42.603	162.476	-69.68	54.10	-15.28	-85.456	-17.150	60.270	0.76346	-0.50946	0.39447	0.04309	31.0	13111	100
2025-3-27 18:37:7.48	WT901BLE68-01(48591DE3C19B)	0.238	-1.882	0.122	-4.028	-39.124	138.916	-68.64	55.10	-13.88	-85.456	-17.150	60.270	0.76346	-0.50946	0.39447	0.04309	31.0	13111	100
2025-3-27 18:37:7.109	WT901BLE68-01(48591DE3C19B)	0.387	-1.882	0.122	-4.028	-39.124	138.916	-67.64	55.96	-12.53	-85.456	-17.150	60.270	0.76346	-0.50946	0.39447	0.04309	31.0	13111	100
2025-3-27 18:37:7.109	WT901BLE68-01(48591DE3C19B)	0.387	-1.640	0.158	0.732	-35.767	110.535	-66.67	56.68	-11.24	-85.456	-17.150	60.270	0.76346	-0.50946	0.39447	0.04309	31.0	13111	100
2025-3-27 18:37:7.110	WT901BLE68-01(48591DE3C19B)	0.304	-1.640	0.158	0.732	-35.767	110.535	-65.73	57.25	-10.05	-85.456	-17.150	60.270	0.76346	-0.50946	0.39447	0.04309	31.0	13111	100
2025-3-27 18:37:7.110	WT901BLE68-01(48591DE3C19B)	0.304	-1.407	0.106	3.601	-20.508	74.768	-64.98	57.67	-9.09	-85.456	-17.150	60.270	0.76346	-0.50946	0.39447	0.04309	31.0	13111	100
2025-3-27 18:37:7.139	WT901BLE68-01(48591DE3C19B)	0.235	-1.407	0.106	3.601	-20.508	74.768	-64.43	57.95	-8.39	-85.456	-17.150	60.270	0.76346	-0.50946	0.39447	0.04309	31.0	13111	100
2025-3-27 18:37:7.139	WT901BLE68-01(48591DE3C19B)	0.235	-1.202	0.038	-3.418	3.418	23.193	-64.26	58.03	-8.09	-85.456	-17.150	60.270	0.76346	-0.50946	0.39447	0.04309	31.0	13111	100
2025-3-27 18:37:7.140	WT901BLE68-01(48591DE3C19B)	0.252	-1.202	0.038	-3.418	3.418	23.193	-64.48	57.94	-8.20	-85.456	-17.150	60.270	0.76346	-0.50946	0.39447	0.04309	31.0	13111	100
2025-3-27 18:37:7.140	WT901BLE68-01(48591DE3C19B)	0.252	-1.003	0.122	-16.174	19.653	-28.564	-65.04	57.63	-8.65	-22.638	0.784	65.464	0.76346	-0.50946	0.39447	0.04309	31.0	13111	100
2025-3-27 18:37:7.170	WT901BLE68-01(48591DE3C19B)	0.250	-1.003	0.122	-16.174	19.653	-28.564	-65.93	57.12	-9.42	-22.638	0.784	65.464	0.76346	-0.50946	0.39447	0.04309	31.0	13111	100
2025-3-27 18:37:7.170	WT901BLE68-01(48591DE3C19B)	0.250	-0.906	0.243	-20.630	15.198	-74.219	-66.92	56.39	-10.28	-22.638	0.784	65.464	0.76346	-0.50946	0.39447	0.04309	31.0	13111	100
2025-3-27 18:37:7.170	WT901BLE68-01(48591DE3C19B)	0.260	-0.906	0.243	-20.630	15.198	-74.219	-67.98	55.43	-11.21	-22.638	0.784	65.464	0.76346	-0.50946	0.39447	0.04309	31.0	13111	100
2025-3-27 18:37:7.170	WT901BLE68-01(48591DE3C19B)	0.260	-0.910	0.314	-19.409	10.132	-114.319	-69.09	54.07	-12.26	-22.638	0.784	65.464	0.76346	-0.50946	0.39447	0.04309	31.0	13111	100
2025-3-27 18:37:7.228	WT901BLE68-01(48591DE3C19B)	0.163	-0.910	0.314	-19.409	10.132	-114.319	-70.11	52.70	-13.22	-22.638	0.784	65.464	0.76346	-0.50946	0.39447	0.04309	31.0	13111	100
2025-3-27 18:37:7.228	WT901BLE68-01(48591DE3C19B)	0.163	-0.991	0.324	-14.038	19.836	-149.475	-71.26	51.03	-14.44	-22.638	0.784	65.464	0.76346	-0.50946	0.39447	0.04309	31.0	13111	100
2025-3-27 18:37:7.228	WT901BLE68-01(48591DE3C19B)	0.060	-0.991	0.324	-14.038	19.836	-149.475	-72.31	49.35	-15.56	-22.638	0.784	65.464	0.76346	-0.50946	0.39447	0.04309	31.0	13111	100
2025-3-27 18:37:7.228	WT901BLE68-01(48591DE3C19B)	0.060	-1.030	0.274	-5.005	33.386	-178.772	-73.41	47.43	-16.91	-22.638	0.784	65.464	0.76346	-0.50946	0.39447	0.04309	31.0	13111	100
2025-3-27 18:37:7.256	WT901BLE68-01(48591DE3C19B)	-0.009	-1.030	0.274	-5.005	33.386	-178.772	-74.39	45.51	-18.16	-22.638	0.784	65.464	0.76346	-0.50946	0.39447	0.04309	31.0	13111	100
2025-3-27 18:37:7.257	WT901BLE68-01(48591DE3C19B)	-0.009	-1.026	0.230	6.714	51.025	-202.087	-75.38	43.40	-19.64	-22.638	0.784	65.464	0.76346	-0.50946	0.39447	0.04309	31.0	13111	100
2025-3-27 18:37:7.257	WT901BLE68-01(48591DE3C19B)	-0.088	-1.026	0.230	6.714	51.025	-202.087	-76.27	41.29	-21.02	-22.638	0.784	65.464	0.76346	-0.50946	0.39447	0.04309	31.0	13111	100
2025-3-27 18:37:7.257	WT901BLE68-01(48591DE3C19B)	-0.088	-0.999	0.186	10.986	57.861	-222.351	-77.10	39.00	-22.46	-22.638	0.784	65.464	0.76346	-0.50946	0.39447	0.04309	31.0	13111	100
2025-3-27 18:37:7.320	WT901BLE68-01(48591DE3C19B)	-0.131	-0.999	0.186	10.986	57.861	-222.351	-77.83	36.72	-23.81	-22.638	0.784	65.464	0.76346	-0.50946	0.39447	0.04309	31.0	13111	100
2025-3-27 18:37:7.320	WT901BLE68-01(48591DE3C19B)	-0.131	-1.017	0.144	14.038	55.725	-241.699	-78.45	34.24	-25.11	-22.638	0.784	65.464	0.76346	-0.50946	0.39447	0.04309	31.0	13111	100
2025-3-27 18:37:7.320	WT901BLE68-01(48591DE3C19B)	-0.142	-1.017	0.144	14.038	55.725	-241.699	-78.99	31.78	-26.34	-22.638	0.784	65.464	0.76346	-0.50946	0.39447	0.04309	31.0	13111	100
2025-3-27 18:37:7.320	WT901BLE68-01(48591DE3C19B)	-0.142	-1.051	0.097	16.113	55.298	-261.719	-79.45	29.13	-27.55	-22.638	0.784	65.464	0.76346	-0.50946	0.39447	0.04309	31.0	13111	100
2025-3-27 18:37:7.349	WT901BLE68-01(48591DE3C19B)	-0.174	-1.051	0.097	16.113	55.298	-261.719	-79.84	26.49	-28.72	-22.638	0.784	65.464	0.76346	-0.50946	0.39447	0.04309	31.0	13111	100
2025-3-27 18:37:7.349	WT901BLE68-01(48591DE3C19B)	-0.174	-1.117	0.079	17.395	55.542	-280.762	-80.16	23.68	-29.87	-22.638	0.784	65.464	0.76346	-0.50946	0.39447	0.04309	31.0	13111	100
2025-3-27 18:37:7.349	WT901BLE68-01(48591DE3C19B)	-0.269	-1.117	0.079	17.395	55.542	-280.762	-80.42	20.89	-30.99	-22.638	0.784	65.464	0.76346	-0.50946	0.39447	0.04309	31.0	13111	100
2025-3-27 18:37:7.349	WT901BLE68-01(48591DE3C19B)	-0.269	-1.200	0.120	20.874	55.969	-296.326	-80.59	17.96	-32.11	-22.638	0.784	65.464	0.75009	-0.58383	0.28510	-0.12296	31.0	13111	100
2025-3-27 18:37:7.379	WT901BLE68-01(48591DE3C19B)	-0.389	-1.200	0.120	20.874	55.969	-296.326	-80.70	15.06	-33.20	-22.638	0.784	65.464	0.75009	-0.58383	0.28510	-0.12296	31.0	13111	100
2025-3-27 18:37:7.380	WT901BLE68-01(48591DE3C19B)	-0.389	-1.267	0.181	25.024	58.105	-308.594	-80.72	12.06	-34.32	-22.638	0.784	65.464	0.75009	-0.58383	0.28510	-0.12296	31.0	13111	100
2025-3-27 18:37:7.380	WT901BLE68-01(48591DE3C19B)	-0.489	-1.267	0.181	25.024	58.105	-308.594	-80.68	9.09	-35.43	-22.638	0.784	65.464	0.75009	-0.58383	0.28510	-0.12296	31.0	13111	100
2025-3-27 18:37:7.380	WT901BLE68-01(48591DE3C19B)	-0.489	-1.321	0.220	29.968	59.082	-314.880	-80.54	6.08	-36.55	-22.638	0.784	65.464	0.75009	-0.58383	0.28510	-0.12296	31.0	13111	100
2025-3-27 18:37:7.438	WT901BLE68-01(48591DE3C19B)	-0.540	-1.321	0.220	29.968	59.082	-314.880	-80.34	3.10	-37.67	-22.638	0.784	65.464	0.75009	-0.58383	0.28510	-0.12296	31.0	13111	100
2025-3-27 18:37:7.438	WT901BLE68-01(48591DE3C19B)	-0.540	-1.322	0.199	36.011	57.983	-314.087	-80.02	0.16	-38.78	-22.638	0.784	65.464	0.75009	-0.58383	0.28510	-0.12296	31.0	13111	100
2025-3-27 18:37:7.438	WT901BLE68-01(48591DE3C19B)	-0.580	-1.322	0.199	36.011	57.983	-314.087	-79.65	-2.74	-39.92	-22.638	0.784	65.464	0.75009	-0.58383	0.28510	-0.12296	31.0	13111	100
2025-3-27 18:37:7.438	WT901BLE68-01(48591DE3C19B)	-0.580	-1.290	0.164	39.063	47.546	-301.453	-79.19	-5.50	-40.95	-22.638	0.784	65.464	0.75009	-0.58383	0.28510	-0.12296	31.0	13111	100
2025-3-27 18:37:7.497	WT901BLE68-01(48591DE3C19B)	-0.582	-1.290	0.164	39.063	47.546	-301.453	-78.70	-8.24	-42.00	-22.638	0.784	65.464	0.75009	-0.58383	0.28510	-0.12296	31.0	13111	100
2025-3-27 18:37:7.497	WT901BLE68-01(48591DE3C19B)	-0.582	-1.260	0.160	39.185	29.358	-286.133	-78.18	-10.83	-42.87	-22.638	0.784	65.464	0.75009	-0.58383	0.28510	-0.12296	31.0	13111	100
2025-3-27 18:37:7.498	WT901BLE68-01(48591DE3C19B)	-0.532	-1.260	0.160	39.185	29.358	-286.133	-77.62	-13.39	-43.78	-22.638	0.784	65.464	0.75009	-0.58383	0.28510	-0.12296	31.0	13111	100
2025-3-27 18:37:7.498	WT901BLE68-01(48591DE3C19B)	-0.532	-1.250	0.171	34.241	19.165	-266.418	-77.11	-15.76	-44.57	-22.638	0.784	65.464	0.75009	-0.58383	0.28510	-0.12296	31.0	13111	100
2025-3-27 18:37:7.499	WT901BLE68-01(48591DE3C19B)	-0.506	-1.250	0.171	34.241	19.165	-266.418	-76.56	-18.10	-45.39	-22.638	0.784	65.464	0.75009	-0.58383	0.28510	-0.12296	31.0	13111	100
2025-3-27 18:37:7.499	WT901BLE68-01(48591DE3C19B)	-0.506	-1.285	0.187	28.259	23.804	-239.685	-76.04	-20.15	-46.22	-22.638	0.784	65.464	0.75009	-0.58383	0.28510	-0.12296	31.0	13111	100
2025-3-27 18:37:7.499	WT901BLE68-01(48591DE3C19B)	-0.567	-1.285	0.187	28.259	23.804	-239.685	-75.48	-22.18	-47.08	-22.638	0.784	65.464	0.75009	-0.58383	0.28510	-0.12296	31.0	13111	100
2025-3-27 18:37:7.499	WT901BLE68-01(48591DE3C19B)	-0.567	-1.396	0.270	22.644	23.499	-208.740	-74.98	-23.89	-47.88	-22.638	0.784	65.464	0.75009	-0.58383	0.28510	-0.12296	31.0	13111	100
2025-3-27 18:37:7.558	WT901BLE68-01(48591DE3C19B)	-0.640	-1.396	0.270	22.644	23.499	-208.740	-74.44	-25.58	-48.71	-22.638	0.784	65.464	0.75009	-0.58383	0.28510	-0.12296	31.0	13111	100
2025-3-27 18:37:7.558	WT901BLE68-01(48591DE3C19B)	-0.640	-1.527	0.371	16.724	12.573	-175.354	-74.03	-26.97	-49.35	-22.638	0.784	65.464	0.75009	-0.58383	0.28510	-0.12296	31.0	13111	100
2025-3-27 18:37:7.558	WT901BLE68-01(48591DE3C19B)	-0.593	-1.527	0.371	16.724	12.573	-175.354	-73.59	-28.34	-50.00	-22.638	0.784	65.464	0.75009	-0.58383	0.28510	-0.12296	31.0	13111	100
2025-3-27 18:37:7.558	WT901BLE68-01(48591DE3C19B)	-0.593	-1.573	0.361	10.925	23.438	-139.832	-73.20	-29.33	-50.67	-22.638	0.784	65.464	0.75009	-0.58383	0.28510	-0.12296	31.0	13111	100
2025-3-27 18:37:7.618	WT901BLE68-01(48591DE3C19B)	-0.642	-1.573	0.361	10.925	23.438	-139.832	-72.78	-30.31	-51.37	-79.576	-9.016	63.406	0.75009	-0.58383	0.28510	-0.12296	31.0	13111	100
2025-3-27 18:37:7.618	WT901BLE68-01(48591DE3C19B)	-0.642	-1.549	0.304	5.737	50.110	-99.243	-72.32	-30.81	-52.22	-79.576	-9.016	63.406	0.75009	-0.58383	0.28510	-0.12296	31.0	13111	100
2025-3-27 18:37:7.618	WT901BLE68-01(48591DE3C19B)	-0.688	-1.549	0.304	5.737	50.110	-99.243	-71.86	-31.30	-53.08	-79.576	-9.016	63.406	0.75009	-0.58383	0.28510	-0.12296	31.0	13111	100
2025-3-27 18:37:7.618	WT901BLE68-01(48591DE3C19B)	-0.688	-1.470	0.277	-0.488	73.364	-58.105	-71.40	-31.32	-54.05	-79.576	-9.016	63.406	0.75009	-0.58383	0.28510	-0.12296	31.0	13111	100
2025-3-27 18:37:7.619	WT901BLE68-01(48591DE3C19B)	-0.653	-1.470	0.277	-0.488	73.364	-58.105	-70.94	-31.33	-55.01	-79.576	-9.016	63.406	0.75009	-0.58383	0.28510	-0.12296	31.0	13111	100
2025-3-27 18:37:7.619	WT901BLE68-01(48591DE3C19B)	-0.653	-1.306	0.349	-8.240	88.379	-15.320	-70.57	-30.89	-55.97	-79.576	-9.016	63.406	0.75009	-0.58383	0.28510	-0.12296	31.0	13111	100
2025-3-27 18:37:7.619	WT901BLE68-01(48591DE3C19B)	-0.643	-1.306	0.349	-8.240	88.379	-15.320	-70.21	-30.43	-56.92	-79.576	-9.016	63.406	0.75009	-0.58383	0.28510	-0.12296	31.0	13111	100
2025-3-27 18:37:7.620	WT901BLE68-01(48591DE3C19B)	-0.752	-1.228	0.432	-18.799	94.116	27.039	-70.02	-29.56	-57.76	-79.576	-9.016	63.406	0.75009	-0.58383	0.28510	-0.12296	31.0	13111	100
2025-3-27 18:37:7.677	WT901BLE68-01(48591DE3C19B)	-0.752	-1.125	0.396	-22.644	98.328	65.369	-69.89	-28.50	-58.52	-79.576	-9.016	63.406	0.75009	-0.58383	0.28510	-0.12296	31.0	13111	100
2025-3-27 18:37:7.678	WT901BLE68-01(48591DE3C19B)	-0.879	-1.125	0.396	-22.644	98.328	65.369	-69.82	-27.26	-59.23	-79.576	-9.016	63.406	0.75009	-0.58383	0.28510	-0.12296	31.0	13111	100
2025-3-27 18:37:7.678	WT901BLE68-01(48591DE3C19B)	-0.879	-1.016	0.273	-31.189	85.266	103.088	-69.88	-25.86	-59.78	-79.576	-9.016	63.406	0.75009	-0.58383	0.28510	-0.12296	31.0	13111	100
2025-3-27 18:37:7.678	WT901BLE68-01(48591DE3C19B)	-0.892	-1.016	0.273	-31.189	85.266	103.088	-70.05	-24.31	-60.18	-79.576	-9.016	63.406	0.75009	-0.58383	0.28510	-0.12296	31.0	13111	100
2025-3-27 18:37:7.708	WT901BLE68-01(48591DE3C19B)	-0.892	-0.992	0.139	-41.565	50.598	140.747	-70.39	-22.64	-60.34	-79.576	-9.016	63.406	0.75009	-0.58383	0.28510	-0.12296	31.0	13111	100
2025-3-27 18:37:7.708	WT901BLE68-01(48591DE3C19B)	-0.796	-0.992	0.139	-41.565	50.598	140.747	-70.87	-20.86	-60.25	-79.576	-9.016	63.406	0.75009	-0.58383	0.28510	-0.12296	31.0	13111	100
2025-3-27 18:37:7.708	WT901BLE68-01(48591DE3C19B)	-0.796	-0.954	0.044	-51.086	8.118	176.025	-71.49	-18.98	-59.91	-79.576	-9.016	63.406	0.75009	-0.58383	0.28510	-0.12296	31.0	13111	100
2025-3-27 18:37:7.709	WT901BLE68-01(48591DE3C19B)	-0.717	-0.954	0.044	-51.086	8.118	176.025	-72.22	-17.01	-59.33	-79.576	-9.016	63.406	0.75009	-0.58383	0.28510	-0.12296	31.0	13111	100
2025-3-27 18:37:7.737	WT901BLE68-01(48591DE3C19B)	-0.717	-0.958	-0.004	-61.890	-34.912	210.266	-73.05	-14.94	-58.51	-79.576	-9.016	63.406	0.75009	-0.58383	0.28510	-0.12296	31.0	13111	100
2025-3-27 18:37:7.737	WT901BLE68-01(48591DE3C19B)	-0.625	-0.958	-0.004	-61.890	-34.912	210.266	-73.97	-12.76	-57.46	-79.576	-9.016	63.406	0.75009	-0.58383	0.28510	-0.12296	31.0	13111	100
2025-3-27 18:37:7.737	WT901BLE68-01(48591DE3C19B)	-0.625	-1.046	-0.012	-69.946	-78.979	238.037	-74.92	-10.50	-56.22	-79.576	-9.016	63.406	0.75009	-0.58383	0.28510	-0.12296	31.0	13111	100
2025-3-27 18:37:7.737	WT901BLE68-01(48591DE3C19B)	-0.514	-1.046	-0.012	-69.946	-78.979	238.037	-75.89	-8.16	-54.77	-79.576	-9.016	63.406	0.75009	-0.58383	0.28510	-0.12296	31.0	13111	100
2025-3-27 18:37:7.797	WT901BLE68-01(48591DE3C19B)	-0.514	-1.186	0.028	-69.519	-114.746	258.606	-76.83	-5.75	-53.18	-79.576	-9.016	63.406	0.75009	-0.58383	0.28510	-0.12296	31.0	13111	100
2025-3-27 18:37:7.797	WT901BLE68-01(48591DE3C19B)	-0.451	-1.186	0.028	-69.519	-114.746	258.606	-77.70	-3.28	-51.44	-79.576	-9.016	63.406	0.69711	-0.57541	0.25668	-0.34192	31.0	13111	100
2025-3-27 18:37:7.797	WT901BLE68-01(48591DE3C19B)	-0.451	-1.303	0.084	-60.303	-139.465	272.766	-78.45	-0.75	-49.62	-79.576	-9.016	63.406	0.69711	-0.57541	0.25668	-0.34192	31.0	13111	100
2025-3-27 18:37:7.798	WT901BLE68-01(48591DE3C19B)	-0.403	-1.303	0.084	-60.303	-139.465	272.766	-79.07	1.81	-47.70	-79.576	-9.016	63.406	0.69711	-0.57541	0.25668	-0.34192	31.0	13111	100
2025-3-27 18:37:7.827	WT901BLE68-01(48591DE3C19B)	-0.403	-1.390	0.151	-45.776	-152.222	279.724	-79.52	4.40	-45.74	-79.576	-9.016	63.406	0.69711	-0.57541	0.25668	-0.34192	31.0	13111	100
2025-3-27 18:37:7.827	WT901BLE68-01(48591DE3C19B)	-0.364	-1.390	0.151	-45.776	-152.222	279.724	-79.80	7.00	-43.74	-79.576	-9.016	63.406	0.69711	-0.57541	0.25668	-0.34192	31.0	13111	100
2025-3-27 18:37:7.827	WT901BLE68-01(48591DE3C19B)	-0.364	-1.447	0.189	-29.175	-144.958	281.250	-79.91	9.60	-41.77	-79.576	-9.016	63.406	0.69711	-0.57541	0.25668	-0.34192	31.0	13111	100
2025-3-27 18:37:7.827	WT901BLE68-01(48591DE3C19B)	-0.339	-1.447	0.189	-29.175	-144.958	281.250	-79.86	12.19	-39.83	-79.576	-9.016	63.406	0.69711	-0.57541	0.25668	-0.34192	31.0	13111	100
2025-3-27 18:37:7.857	WT901BLE68-01(48591DE3C19B)	-0.339	-1.491	0.176	-14.160	-118.103	276.794	-79.67	14.76	-38.01	-79.576	-9.016	63.406	0.69711	-0.57541	0.25668	-0.34192	31.0	13111	100
2025-3-27 18:37:7.857	WT901BLE68-01(48591DE3C19B)	-0.347	-1.491	0.176	-14.160	-118.103	276.794	-79.35	17.30	-36.31	-79.576	-9.016	63.406	0.69711	-0.57541	0.25668	-0.34192	31.0	13111	100
2025-3-27 18:37:7.857	WT901BLE68-01(48591DE3C19B)	-0.347	-1.493	0.136	-1.953	-85.388	268.250	-78.96	19.80	-34.75	-79.576	-9.016	63.406	0.69711	-0.57541	0.25668	-0.34192	31.0	13111	100
2025-3-27 18:37:7.858	WT901BLE68-01(48591DE3C19B)	-0.357	-1.493	0.136	-1.953	-85.388	268.250	-78.49	22.25	-33.33	-79.576	-9.016	63.406	0.69711	-0.57541	0.25668	-0.34192	31.0	13111	100
2025-3-27 18:37:7.948	WT901BLE68-01(48591DE3C19B)	-0.357	-1.458	0.121	5.676	-58.838	257.202	-77.96	24.65	-32.01	-79.576	-9.016	63.406	0.69711	-0.57541	0.25668	-0.34192	31.0	13111	100
2025-3-27 18:37:7.948	WT901BLE68-01(48591DE3C19B)	-0.349	-1.458	0.121	5.676	-58.838	257.202	-77.41	27.00	-30.80	-79.576	-9.016	63.406	0.69711	-0.57541	0.25668	-0.34192	31.0	13111	100
2025-3-27 18:37:7.948	WT901BLE68-01(48591DE3C19B)	-0.349	-1.424	0.107	10.681	-38.818	246.216	-76.82	29.28	-29.67	-79.576	-9.016	63.406	0.69711	-0.57541	0.25668	-0.34192	31.0	13111	100
2025-3-27 18:37:7.948	WT901BLE68-01(48591DE3C19B)	-0.321	-1.424	0.107	10.681	-38.818	246.216	-76.21	31.51	-28.60	-79.576	-9.016	63.406	0.69711	-0.57541	0.25668	-0.34192	31.0	13111	100
2025-3-27 18:37:7.949	WT901BLE68-01(48591DE3C19B)	-0.321	-1.365	0.063	15.259	-24.231	236.206	-75.57	33.68	-27.58	-79.576	-9.016	63.406	0.69711	-0.57541	0.25668	-0.34192	31.0	13111	100
2025-3-27 18:37:7.949	WT901BLE68-01(48591DE3C19B)	-0.304	-1.365	0.063	15.259	-24.231	236.206	-74.90	35.79	-26.60	-79.576	-9.016	63.406	0.69711	-0.57541	0.25668	-0.34192	31.0	13111	100
2025-3-27 18:37:7.949	WT901BLE68-01(48591DE3C19B)	-0.304	-1.284	0.022	18.616	-14.221	228.638	-74.21	37.86	-25.64	-79.576	-9.016	63.406	0.69711	-0.57541	0.25668	-0.34192	31.0	13111	100
2025-3-27 18:37:7.950	WT901BLE68-01(48591DE3C19B)	-0.291	-1.284	0.022	18.616	-14.221	228.638	-73.48	39.89	-24.68	-79.576	-9.016	63.406	0.69711	-0.57541	0.25668	-0.34192	31.0	13111	100
2025-3-27 18:37:7.979	WT901BLE68-01(48591DE3C19B)	-0.291	-1.234	-0.002	16.846	-10.071	220.093	-72.73	41.85	-23.70	-79.576	-9.016	63.406	0.69711	-0.57541	0.25668	-0.34192	31.0	13111	100
2025-3-27 18:37:7.979	WT901BLE68-01(48591DE3C19B)	-0.279	-1.234	-0.002	16.846	-10.071	220.093	-71.96	43.75	-22.70	-79.576	-9.016	63.406	0.69711	-0.57541	0.25668	-0.34192	31.0	13111	100
2025-3-27 18:37:7.979	WT901BLE68-01(48591DE3C19B)	-0.279	-1.271	0.007	15.442	-5.676	210.144	-71.16	45.59	-21.68	-26.068	4.900	64.680	0.69711	-0.57541	0.25668	-0.34192	31.0	13111	100
2025-3-27 18:37:7.980	WT901BLE68-01(48591DE3C19B)	-0.262	-1.271	0.007	15.442	-5.676	210.144	-70.35	47.37	-20.63	-26.068	4.900	64.680	0.69711	-0.57541	0.25668	-0.34192	31.0	13111	100
2025-3-27 18:37:8.38	WT901BLE68-01(48591DE3C19B)	-0.262	-1.273	0.024	15.930	6.775	199.158	-69.54	49.10	-19.62	-26.068	4.900	64.680	0.69711	-0.57541	0.25668	-0.34192	31.0	13111	100
2025-3-27 18:37:8.38	WT901BLE68-01(48591DE3C19B)	-0.262	-1.273	0.024	15.930	6.775	199.158	-68.75	50.77	-18.65	-26.068	4.900	64.680	0.69711	-0.57541	0.25668	-0.34192	31.0	13111	100
2025-3-27 18:37:8.38	WT901BLE68-01(48591DE3C19B)	-0.262	-1.226	0.024	13.367	15.747	187.561	-67.98	52.39	-17.72	-26.068	4.900	64.680	0.69711	-0.57541	0.25668	-0.34192	31.0	13111	100
2025-3-27 18:37:8.38	WT901BLE68-01(48591DE3C19B)	-0.237	-1.226	0.024	13.367	15.747	187.561	-67.24	53.96	-16.81	-26.068	4.900	64.680	0.69711	-0.57541	0.25668	-0.34192	31.0	13111	100
2025-3-27 18:37:8.68	WT901BLE68-01(48591DE3C19B)	-0.237	-1.219	0.044	6.836	23.987	172.363	-66.57	55.45	-15.95	-26.068	4.900	64.680	0.69711	-0.57541	0.25668	-0.34192	31.0	13111	100
2025-3-27 18:37:8.68	WT901BLE68-01(48591DE3C19B)	-0.253	-1.219	0.044	6.836	23.987	172.363	-65.97	56.87	-15.14	-26.068	4.900	64.680	0.69711	-0.57541	0.25668	-0.34192	31.0	13111	100
2025-3-27 18:37:8.68	WT901BLE68-01(48591DE3C19B)	-0.253	-1.208	0.081	2.625	35.217	155.457	-65.46	58.23	-14.44	-26.068	4.900	64.680	0.69711	-0.57541	0.25668	-0.34192	31.0	13111	100
2025-3-27 18:37:8.68	WT901BLE68-01(48591DE3C19B)	-0.273	-1.208	0.081	2.625	35.217	155.457	-65.07	59.52	-13.85	-26.068	4.900	64.680	0.69711	-0.57541	0.25668	-0.34192	31.0	13111	100
2025-3-27 18:37:8.97	WT901BLE68-01(48591DE3C19B)	-0.273	-1.183	0.103	-2.197	41.443	136.841	-64.78	60.73	-13.35	-26.068	4.900	64.680	0.69711	-0.57541	0.25668	-0.34192	31.0	13111	100
2025-3-27 18:37:8.97	WT901BLE68-01(48591DE3C19B)	-0.270	-1.183	0.103	-2.197	41.443	136.841	-64.61	61.86	-12.97	-26.068	4.900	64.680	0.69711	-0.57541	0.25668	-0.34192	31.0	13111	100
2025-3-27 18:37:8.97	WT901BLE68-01(48591DE3C19B)	-0.270	-1.135	0.138	-5.859	41.016	115.540	-64.51	62.89	-12.65	-26.068	4.900	64.680	0.69711	-0.57541	0.25668	-0.34192	31.0	13111	100
2025-3-27 18:37:8.97	WT901BLE68-01(48591DE3C19B)	-0.287	-1.135	0.138	-5.859	41.016	115.540	-64.51	63.81	-12.41	-26.068	4.900	64.680	0.69711	-0.57541	0.25668	-0.34192	31.0	13111	100
2025-3-27 18:37:8.158	WT901BLE68-01(48591DE3C19B)	-0.287	-1.067	0.200	-8.057	31.860	90.759	-64.56	64.47	-12.21	-26.068	4.900	64.680	0.69711	-0.57541	0.25668	-0.34192	31.0	13111	100
2025-3-27 18:37:8.158	WT901BLE68-01(48591DE3C19B)	-0.332	-1.067	0.200	-8.057	31.860	90.759	-64.59	65.13	-12.00	-26.068	4.900	64.680	0.69711	-0.57541	0.25668	-0.34192	31.0	13111	100
2025-3-27 18:37:8.158	WT901BLE68-01(48591DE3C19B)	-0.332	-1.012	0.254	-7.751	11.108	62.683	-64.46	65.44	-11.62	-26.068	4.900	64.680	0.69711	-0.57541	0.25668	-0.34192	31.0	13111	100
2025-3-27 18:37:8.158	WT901BLE68-01(48591DE3C19B)	-0.360	-1.012	0.254	-7.751	11.108	62.683	-64.32	65.75	-11.22	-26.068	4.900	64.680	0.69711	-0.57541	0.25668	-0.34192	31.0	13111	100
2025-3-27 18:37:8.218	WT901BLE68-01(48591DE3C19B)	-0.360	-0.952	0.308	-4.822	-17.883	33.569	-63.83	65.67	-10.48	-26.068	4.900	64.680	0.73636	-0.40030	0.49890	0.22034	31.0	13111	100
2025-3-27 18:37:8.218	WT901BLE68-01(48591DE3C19B)	-0.347	-0.952	0.308	-4.822	-17.883	33.569	-63.34	65.60	-9.73	-26.068	4.900	64.680	0.73636	-0.40030	0.49890	0.22034	31.0	13111	100
2025-3-27 18:37:8.218	WT901BLE68-01(48591DE3C19B)	-0.347	-0.912	0.311	-1.770	-40.100	6.287	-62.65	65.18	-8.80	-26.068	4.900	64.680	0.73636	-0.40030	0.49890	0.22034	31.0	13111	100
2025-3-27 18:37:8.218	WT901BLE68-01(48591DE3C19B)	-0.276	-0.912	0.311	-1.770	-40.100	6.287	-61.98	64.76	-7.89	-26.068	4.900	64.680	0.73636	-0.40030	0.49890	0.22034	31.0	13111	100
2025-3-27 18:37:8.219	WT901BLE68-01(48591DE3C19B)	-0.276	-0.895	0.238	-3.052	-45.471	-19.470	-61.50	64.09	-7.17	-26.068	4.900	64.680	0.73636	-0.40030	0.49890	0.22034	31.0	13111	100
2025-3-27 18:37:8.219	WT901BLE68-01(48591DE3C19B)	-0.168	-0.895	0.238	-3.052	-45.471	-19.470	-61.05	63.42	-6.48	-26.068	4.900	64.680	0.73636	-0.40030	0.49890	0.22034	31.0	13111	100
2025-3-27 18:37:8.219	WT901BLE68-01(48591DE3C19B)	-0.168	-0.890	0.136	-6.287	-32.471	-48.462	-61.14	62.56	-6.37	-26.068	4.900	64.680	0.73636	-0.40030	0.49890	0.22034	31.0	13111	100
2025-3-27 18:37:8.220	WT901BLE68-01(48591DE3C19B)	-0.164	-0.890	0.136	-6.287	-32.471	-48.462	-61.25	61.70	-6.27	-26.068	4.900	64.680	0.73636	-0.40030	0.49890	0.22034	31.0	13111	100
2025-3-27 18:37:8.277	WT901BLE68-01(48591DE3C19B)	-0.164	-0.896	0.147	-11.169	-22.644	-80.811	-61.83	60.61	-6.65	-26.068	4.900	64.680	0.73636	-0.40030	0.49890	0.22034	31.0	13111	100
2025-3-27 18:37:8.278	WT901BLE68-01(48591DE3C19B)	-0.205	-0.896	0.147	-11.169	-22.644	-80.811	-62.37	59.52	-7.00	-26.068	4.900	64.680	0.73636	-0.40030	0.49890	0.22034	31.0	13111	100
2025-3-27 18:37:8.278	WT901BLE68-01(48591DE3C19B)	-0.205	-0.948	0.188	-18.250	-24.170	-112.610	-63.17	58.15	-7.56	-26.068	4.900	64.680	0.73636	-0.40030	0.49890	0.22034	31.0	13111	100
2025-3-27 18:37:8.278	WT901BLE68-01(48591DE3C19B)	-0.237	-0.948	0.188	-18.250	-24.170	-112.610	-63.90	56.78	-8.06	-26.068	4.900	64.680	0.73636	-0.40030	0.49890	0.22034	31.0	13111	100
2025-3-27 18:37:8.307	WT901BLE68-01(48591DE3C19B)	-0.237	-0.962	0.247	-24.231	-31.921	-139.832	-64.71	55.13	-8.60	-26.068	4.900	64.680	0.73636	-0.40030	0.49890	0.22034	31.0	13111	100
2025-3-27 18:37:8.307	WT901BLE68-01(48591DE3C19B)	-0.246	-0.962	0.247	-24.231	-31.921	-139.832	-65.45	53.49	-9.07	-26.068	4.900	64.680	0.73636	-0.40030	0.49890	0.22034	31.0	13111	100
2025-3-27 18:37:8.307	WT901BLE68-01(48591DE3C19B)	-0.246	-0.938	0.330	-32.776	-42.542	-162.231	-66.20	51.60	-9.47	-26.068	4.900	64.680	0.73636	-0.40030	0.49890	0.22034	31.0	13111	100
2025-3-27 18:37:8.307	WT901BLE68-01(48591DE3C19B)	-0.272	-0.938	0.330	-32.776	-42.542	-162.231	-66.89	49.73	-9.81	-26.068	4.900	64.680	0.73636	-0.40030	0.49890	0.22034	31.0	13111	100
2025-3-27 18:37:8.339	WT901BLE68-01(48591DE3C19B)	-0.272	-0.946	0.403	-40.100	-50.842	-179.871	-67.59	47.66	-10.09	-26.068	4.900	64.680	0.73636	-0.40030	0.49890	0.22034	31.0	13111	100
2025-3-27 18:37:8.340	WT901BLE68-01(48591DE3C19B)	-0.296	-0.946	0.403	-40.100	-50.842	-179.871	-68.24	45.62	-10.31	-26.068	4.900	64.680	0.73636	-0.40030	0.49890	0.22034	31.0	13111	100
2025-3-27 18:37:8.340	WT901BLE68-01(48591DE3C19B)	-0.296	-0.943	0.420	-45.349	-57.129	-194.092	-68.88	43.42	-10.49	-26.068	4.900	64.680	0.73636	-0.40030	0.49890	0.22034	31.0	13111	100
2025-3-27 18:37:8.340	WT901BLE68-01(48591DE3C19B)	-0.297	-0.943	0.420	-45.349	-57.129	-194.092	-69.48	41.24	-10.62	-26.068	4.900	64.680	0.73636	-0.40030	0.49890	0.22034	31.0	13111	100
2025-3-27 18:37:8.397	WT901BLE68-01(48591DE3C19B)	-0.297	-0.940	0.391	-50.232	-63.354	-207.336	-70.09	38.92	-10.70	-26.068	4.900	64.680	0.73636	-0.40030	0.49890	0.22034	31.0	13111	100
2025-3-27 18:37:8.398	WT901BLE68-01(48591DE3C19B)	-0.286	-0.940	0.391	-50.232	-63.354	-207.336	-70.67	36.63	-10.75	-8.036	-12.936	68.502	0.73636	-0.40030	0.49890	0.22034	31.0	13111	100
2025-3-27 18:37:8.398	WT901BLE68-01(48591DE3C19B)	-0.286	-0.967	0.358	-54.504	-70.435	-218.262	-71.24	34.22	-10.74	-8.036	-12.936	68.502	0.73636	-0.40030	0.49890	0.22034	31.0	13111	100
2025-3-27 18:37:8.398	WT901BLE68-01(48591DE3C19B)	-0.288	-0.967	0.358	-54.504	-70.435	-218.262	-71.79	31.82	-10.70	-8.036	-12.936	68.502	0.73636	-0.40030	0.49890	0.22034	31.0	13111	100
2025-3-27 18:37:8.427	WT901BLE68-01(48591DE3C19B)	-0.288	-1.011	0.360	-55.298	-76.599	-226.196	-72.31	29.34	-10.61	-8.036	-12.936	68.502	0.73636	-0.40030	0.49890	0.22034	31.0	13111	100
2025-3-27 18:37:8.427	WT901BLE68-01(48591DE3C19B)	-0.296	-1.011	0.360	-55.298	-76.599	-226.196	-72.83	26.88	-10.50	-8.036	-12.936	68.502	0.73636	-0.40030	0.49890	0.22034	31.0	13111	100
2025-3-27 18:37:8.427	WT901BLE68-01(48591DE3C19B)	-0.296	-1.064	0.377	-52.673	-79.285	-230.347	-73.30	24.38	-10.35	-8.036	-12.936	68.502	0.73636	-0.40030	0.49890	0.22034	31.0	13111	100
2025-3-27 18:37:8.427	WT901BLE68-01(48591DE3C19B)	-0.263	-1.064	0.377	-52.673	-79.285	-230.347	-73.76	21.91	-10.21	-8.036	-12.936	68.502	0.73636	-0.40030	0.49890	0.22034	31.0	13111	100
2025-3-27 18:37:8.458	WT901BLE68-01(48591DE3C19B)	-0.263	-1.083	0.387	-45.959	-71.411	-230.408	-74.19	19.46	-10.13	-8.036	-12.936	68.502	0.73636	-0.40030	0.49890	0.22034	31.0	13111	100
2025-3-27 18:37:8.458	WT901BLE68-01(48591DE3C19B)	-0.217	-1.083	0.387	-45.959	-71.411	-230.408	-74.60	17.03	-10.04	-8.036	-12.936	68.502	0.73636	-0.40030	0.49890	0.22034	31.0	13111	100
2025-3-27 18:37:8.458	WT901BLE68-01(48591DE3C19B)	-0.217	-1.089	0.341	-39.429	-50.354	-229.492	-75.01	14.68	-10.16	-8.036	-12.936	68.502	0.73636	-0.40030	0.49890	0.22034	31.0	13111	100
2025-3-27 18:37:8.458	WT901BLE68-01(48591DE3C19B)	-0.168	-1.089	0.341	-39.429	-50.354	-229.492	-75.40	12.34	-10.26	-8.036	-12.936	68.502	0.73636	-0.40030	0.49890	0.22034	31.0	13111	100
2025-3-27 18:37:8.548	WT901BLE68-01(48591DE3C19B)	-0.168	-1.098	0.270	-33.936	-17.761	-228.882	-75.79	10.09	-10.68	-8.036	-12.936	68.502	0.73636	-0.40030	0.49890	0.22034	31.0	13111	100
2025-3-27 18:37:8.548	WT901BLE68-01(48591DE3C19B)	-0.143	-1.098	0.270	-33.936	-17.761	-228.882	-76.17	7.86	-11.09	-8.036	-12.936	68.502	0.73636	-0.40030	0.49890	0.22034	31.0	13111	100
2025-3-27 18:37:8.548	WT901BLE68-01(48591DE3C19B)	-0.143	-1.125	0.232	-28.198	22.034	-227.600	-76.52	5.73	-11.87	-8.036	-12.936	68.502	0.73636	-0.40030	0.49890	0.22034	31.0	13111	100
2025-3-27 18:37:8.548	WT901BLE68-01(48591DE3C19B)	-0.180	-1.125	0.232	-28.198	22.034	-227.600	-76.84	3.61	-12.65	-8.036	-12.936	68.502	0.73636	-0.40030	0.49890	0.22034	31.0	13111	100
2025-3-27 18:37:8.549	WT901BLE68-01(48591DE3C19B)	-0.180	-1.175	0.247	-20.874	59.937	-223.755	-77.07	1.63	-13.77	-8.036	-12.936	68.502	0.73636	-0.40030	0.49890	0.22034	31.0	13111	100
