time	DeviceName	AccX(g)	AccY(g)	AccZ(g)	AsX(°/s)	AsY(°/s)	AsZ(°/s)	AngleX(°)	AngleY(°)	AngleZ(°)	HX(uT)	HY(uT)	HZ(uT)	Q0()	Q1()	Q2()	Q3()	Temperature(°C)	Version()	Battery level(%)
2025-3-27 18:41:15.244	WT901BLE68-01(48591DE3C19B)	-0.248	-0.930	0.297	4.395	12.390	31.555	-75.08	10.60	-95.28	-68.208	-17.934	0.098	-0.57281	0.39005	-0.47635	0.54102	31.0	13111	100
2025-3-27 18:41:15.244	WT901BLE68-01(48591DE3C19B)	-0.248	-0.925	0.289	5.249	15.015	31.372	-75.03	10.97	-95.34	-68.208	-17.934	0.098	-0.57281	0.39005	-0.47635	0.54102	31.0	13111	100
2025-3-27 18:41:15.245	WT901BLE68-01(48591DE3C19B)	-0.266	-0.925	0.289	5.249	15.015	31.372	-74.97	11.34	-95.41	-68.208	-17.934	0.098	-0.57281	0.39005	-0.47635	0.54102	31.0	13111	100
2025-3-27 18:41:15.245	WT901BLE68-01(48591DE3C19B)	-0.266	-0.941	0.286	5.432	13.977	31.250	-74.92	11.71	-95.46	-68.208	-17.934	0.098	-0.57281	0.39005	-0.47635	0.54102	31.0	13111	100
2025-3-27 18:41:15.274	WT901BLE68-01(48591DE3C19B)	-0.276	-0.941	0.286	5.432	13.977	31.250	-74.86	12.07	-95.52	-68.208	-17.934	0.098	-0.57281	0.39005	-0.47635	0.54102	31.0	13111	100
2025-3-27 18:41:15.274	WT901BLE68-01(48591DE3C19B)	-0.276	-0.961	0.289	6.042	9.216	31.921	-74.79	12.43	-95.54	-68.208	-17.934	0.098	-0.57281	0.39005	-0.47635	0.54102	31.0	13111	100
2025-3-27 18:41:15.274	WT901BLE68-01(48591DE3C19B)	-0.281	-0.961	0.289	6.042	9.216	31.921	-74.72	12.78	-95.55	-68.208	-17.934	0.098	-0.57281	0.39005	-0.47635	0.54102	31.0	13111	100
2025-3-27 18:41:15.274	WT901BLE68-01(48591DE3C19B)	-0.140	-0.963	0.290	5.676	2.808	33.752	-74.65	13.13	-95.52	-68.208	-17.934	0.098	-0.57281	0.39005	-0.47635	0.54102	31.0	13111	100
2025-3-27 18:41:15.305	WT901BLE68-01(48591DE3C19B)	-0.282	-0.481	0.145	5.676	2.808	33.752	-74.56	13.47	-95.45	-68.208	-17.934	0.098	-0.57281	0.39005	-0.47635	0.54102	31.0	13111	100
2025-3-27 18:41:15.305	WT901BLE68-01(48591DE3C19B)	-0.282	-0.973	0.293	4.822	-3.662	36.011	-74.48	13.83	-95.35	-68.208	-17.934	0.098	-0.57281	0.39005	-0.47635	0.54102	31.0	13111	100
2025-3-27 18:41:15.305	WT901BLE68-01(48591DE3C19B)	-0.259	-0.973	0.293	4.822	-3.662	36.011	-74.39	14.17	-95.21	-68.208	-17.934	0.098	-0.57281	0.39005	-0.47635	0.54102	31.0	13111	100
2025-3-27 18:41:15.305	WT901BLE68-01(48591DE3C19B)	-0.259	-0.987	0.290	4.333	-8.545	37.292	-74.30	14.51	-95.05	-68.208	-17.934	0.098	-0.57281	0.39005	-0.47635	0.54102	31.0	13111	100
2025-3-27 18:41:15.365	WT901BLE68-01(48591DE3C19B)	-0.233	-0.987	0.290	4.333	-8.545	37.292	-74.20	14.85	-94.87	-68.208	-17.934	0.098	-0.57281	0.39005	-0.47635	0.54102	31.0	13111	100
2025-3-27 18:41:15.365	WT901BLE68-01(48591DE3C19B)	-0.233	-0.979	0.284	5.371	-8.667	37.415	-74.09	15.19	-94.68	-68.208	-17.934	0.098	-0.57281	0.39005	-0.47635	0.54102	31.0	13111	100
2025-3-27 18:41:15.365	WT901BLE68-01(48591DE3C19B)	-0.204	-0.979	0.284	5.371	-8.667	37.415	-73.98	15.53	-94.49	-68.208	-17.934	0.098	-0.57281	0.39005	-0.47635	0.54102	31.0	13111	100
2025-3-27 18:41:15.365	WT901BLE68-01(48591DE3C19B)	-0.204	-0.958	0.271	5.798	-7.080	36.438	-73.87	15.85	-94.31	-68.208	-17.934	0.098	-0.57281	0.39005	-0.47635	0.54102	31.0	13111	100
2025-3-27 18:41:15.396	WT901BLE68-01(48591DE3C19B)	-0.184	-0.958	0.271	5.798	-7.080	36.438	-73.76	16.18	-94.14	-68.208	-17.934	0.098	-0.60117	0.32227	-0.51172	0.52231	31.0	13111	100
2025-3-27 18:41:15.397	WT901BLE68-01(48591DE3C19B)	-0.184	-0.948	0.262	6.287	-5.249	33.997	-73.65	16.48	-93.98	-68.208	-17.934	0.098	-0.60117	0.32227	-0.51172	0.52231	31.0	13111	100
2025-3-27 18:41:15.397	WT901BLE68-01(48591DE3C19B)	-0.141	-0.948	0.262	6.287	-5.249	33.997	-73.55	16.78	-93.84	-68.208	-17.934	0.098	-0.60117	0.32227	-0.51172	0.52231	31.0	13111	100
2025-3-27 18:41:15.397	WT901BLE68-01(48591DE3C19B)	-0.141	-0.920	0.250	5.859	-2.808	29.419	-73.45	17.05	-93.71	-68.208	-17.934	0.098	-0.60117	0.32227	-0.51172	0.52231	31.0	13111	100
2025-3-27 18:41:15.426	WT901BLE68-01(48591DE3C19B)	-0.103	-0.920	0.250	5.859	-2.808	29.419	-73.36	17.30	-93.61	-68.208	-17.934	0.098	-0.60117	0.32227	-0.51172	0.52231	31.0	13111	100
2025-3-27 18:41:15.427	WT901BLE68-01(48591DE3C19B)	-0.103	-0.928	0.243	4.333	2.747	23.010	-73.29	17.52	-93.54	-68.208	-17.934	0.098	-0.60117	0.32227	-0.51172	0.52231	31.0	13111	100
2025-3-27 18:41:15.427	WT901BLE68-01(48591DE3C19B)	-0.078	-0.928	0.243	4.333	2.747	23.010	-73.23	17.72	-93.50	-68.208	-17.934	0.098	-0.60117	0.32227	-0.51172	0.52231	31.0	13111	100
2025-3-27 18:41:15.427	WT901BLE68-01(48591DE3C19B)	-0.078	-0.982	0.236	3.845	10.559	15.442	-73.20	17.88	-93.52	-68.208	-17.934	0.098	-0.60117	0.32227	-0.51172	0.52231	31.0	13111	100
2025-3-27 18:41:15.515	WT901BLE68-01(48591DE3C19B)	-0.023	-0.982	0.236	3.845	10.559	15.442	-73.19	18.01	-93.59	-68.208	-17.934	0.098	-0.60117	0.32227	-0.51172	0.52231	31.0	13111	100
2025-3-27 18:41:15.515	WT901BLE68-01(48591DE3C19B)	-0.023	-1.061	0.206	5.127	20.996	7.568	-73.20	18.12	-93.72	-68.208	-17.934	0.098	-0.60117	0.32227	-0.51172	0.52231	31.0	13111	100
2025-3-27 18:41:15.515	WT901BLE68-01(48591DE3C19B)	0.038	-1.061	0.206	5.127	20.996	7.568	-73.22	18.20	-93.92	-68.208	-17.934	0.098	-0.60117	0.32227	-0.51172	0.52231	31.0	13111	100
2025-3-27 18:41:15.515	WT901BLE68-01(48591DE3C19B)	0.038	-1.076	0.171	8.606	37.231	1.099	-73.26	18.25	-94.30	-68.208	-17.934	0.098	-0.60117	0.32227	-0.51172	0.52231	31.0	13111	100
2025-3-27 18:41:15.516	WT901BLE68-01(48591DE3C19B)	0.099	-1.076	0.171	8.606	37.231	1.099	-73.31	18.30	-94.67	-68.208	-17.934	0.098	-0.60117	0.32227	-0.51172	0.52231	31.0	13111	100
2025-3-27 18:41:15.516	WT901BLE68-01(48591DE3C19B)	0.099	-1.066	0.139	9.766	56.030	-6.104	-73.42	18.33	-95.25	-68.208	-17.934	0.098	-0.60117	0.32227	-0.51172	0.52231	31.0	13111	100
2025-3-27 18:41:15.516	WT901BLE68-01(48591DE3C19B)	0.123	-1.066	0.139	9.766	56.030	-6.104	-73.53	18.35	-95.83	-68.208	-17.934	0.098	-0.60117	0.32227	-0.51172	0.52231	31.0	13111	100
2025-3-27 18:41:15.516	WT901BLE68-01(48591DE3C19B)	0.123	-1.038	0.136	11.230	73.669	-13.184	-73.69	18.34	-96.61	-68.208	-17.934	0.098	-0.60117	0.32227	-0.51172	0.52231	31.0	13111	100
2025-3-27 18:41:15.547	WT901BLE68-01(48591DE3C19B)	0.111	-1.038	0.136	11.230	73.669	-13.184	-73.85	18.33	-97.38	-68.208	-17.934	0.098	-0.60117	0.32227	-0.51172	0.52231	31.0	13111	100
2025-3-27 18:41:15.547	WT901BLE68-01(48591DE3C19B)	0.111	-0.994	0.142	12.695	84.717	-21.912	-74.04	18.25	-98.28	-68.208	-17.934	0.098	-0.60117	0.32227	-0.51172	0.52231	31.0	13111	100
2025-3-27 18:41:15.547	WT901BLE68-01(48591DE3C19B)	0.084	-0.994	0.142	12.695	84.717	-21.912	-74.22	18.17	-99.18	-68.208	-17.934	0.098	-0.60117	0.32227	-0.51172	0.52231	31.0	13111	100
2025-3-27 18:41:15.547	WT901BLE68-01(48591DE3C19B)	0.084	-0.916	0.151	14.771	89.294	-31.006	-74.41	18.00	-100.14	-68.208	-17.934	0.098	-0.60117	0.32227	-0.51172	0.52231	31.0	13111	100
2025-3-27 18:41:15.604	WT901BLE68-01(48591DE3C19B)	0.035	-0.916	0.151	14.771	89.294	-31.006	-74.59	17.83	-101.10	-68.208	-17.934	0.098	-0.60117	0.32227	-0.51172	0.52231	31.0	13111	100
2025-3-27 18:41:15.604	WT901BLE68-01(48591DE3C19B)	0.035	-0.853	0.144	14.404	90.332	-42.053	-74.78	17.55	-102.08	-62.132	-16.464	-1.764	-0.60117	0.32227	-0.51172	0.52231	31.0	13111	100
2025-3-27 18:41:15.604	WT901BLE68-01(48591DE3C19B)	-0.018	-0.853	0.144	14.404	90.332	-42.053	-74.97	17.28	-103.06	-62.132	-16.464	-1.764	-0.60117	0.32227	-0.51172	0.52231	31.0	13111	100
2025-3-27 18:41:15.605	WT901BLE68-01(48591DE3C19B)	-0.018	-0.854	0.110	13.245	87.646	-55.420	-75.16	16.86	-104.05	-62.132	-16.464	-1.764	-0.60117	0.32227	-0.51172	0.52231	31.0	13111	100
2025-3-27 18:41:15.665	WT901BLE68-01(48591DE3C19B)	-0.101	-0.854	0.110	13.245	87.646	-55.420	-75.34	16.44	-105.02	-62.132	-16.464	-1.764	-0.60117	0.32227	-0.51172	0.52231	31.0	13111	100
2025-3-27 18:41:15.665	WT901BLE68-01(48591DE3C19B)	-0.101	-0.914	0.098	9.155	78.064	-67.566	-75.54	15.89	-105.91	-62.132	-16.464	-1.764	-0.60117	0.32227	-0.51172	0.52231	31.0	13111	100
2025-3-27 18:41:15.666	WT901BLE68-01(48591DE3C19B)	-0.202	-0.914	0.098	9.155	78.064	-67.566	-75.73	15.33	-106.80	-62.132	-16.464	-1.764	-0.60117	0.32227	-0.51172	0.52231	31.0	13111	100
2025-3-27 18:41:15.666	WT901BLE68-01(48591DE3C19B)	-0.202	-1.018	0.133	5.127	52.124	-80.811	-75.89	14.60	-107.46	-62.132	-16.464	-1.764	-0.60117	0.32227	-0.51172	0.52231	31.0	13111	100
2025-3-27 18:41:15.667	WT901BLE68-01(48591DE3C19B)	-0.300	-1.018	0.133	5.127	52.124	-80.811	-76.04	13.87	-108.10	-62.132	-16.464	-1.764	-0.60117	0.32227	-0.51172	0.52231	31.0	13111	100
2025-3-27 18:41:15.667	WT901BLE68-01(48591DE3C19B)	-0.300	-1.145	0.223	0.183	12.939	-92.957	-76.14	12.94	-108.37	-62.132	-16.464	-1.764	-0.60117	0.32227	-0.51172	0.52231	31.0	13111	100
2025-3-27 18:41:15.667	WT901BLE68-01(48591DE3C19B)	-0.398	-1.145	0.223	0.183	12.939	-92.957	-76.23	12.02	-108.64	-62.132	-16.464	-1.764	-0.60117	0.32227	-0.51172	0.52231	31.0	13111	100
2025-3-27 18:41:15.667	WT901BLE68-01(48591DE3C19B)	-0.398	-1.246	0.317	-1.709	-33.508	-100.708	-76.26	10.93	-108.47	-62.132	-16.464	-1.764	-0.60117	0.32227	-0.51172	0.52231	31.0	13111	100
2025-3-27 18:41:15.725	WT901BLE68-01(48591DE3C19B)	-0.377	-1.246	0.317	-1.709	-33.508	-100.708	-76.28	9.86	-108.30	-62.132	-16.464	-1.764	-0.60117	0.32227	-0.51172	0.52231	31.0	13111	100
2025-3-27 18:41:15.725	WT901BLE68-01(48591DE3C19B)	-0.377	-1.224	0.371	-1.648	-67.627	-103.394	-76.24	8.69	-107.80	-62.132	-16.464	-1.764	-0.60117	0.32227	-0.51172	0.52231	31.0	13111	100
2025-3-27 18:41:15.725	WT901BLE68-01(48591DE3C19B)	-0.249	-1.224	0.371	-1.648	-67.627	-103.394	-76.21	7.54	-107.31	-62.132	-16.464	-1.764	-0.60117	0.32227	-0.51172	0.52231	31.0	13111	100
2025-3-27 18:41:15.725	WT901BLE68-01(48591DE3C19B)	-0.249	-1.083	0.361	-3.845	-71.472	-100.586	-76.21	6.41	-106.79	-62.132	-16.464	-1.764	-0.60117	0.32227	-0.51172	0.52231	31.0	13111	100
2025-3-27 18:41:15.754	WT901BLE68-01(48591DE3C19B)	-0.146	-1.083	0.361	-3.845	-71.472	-100.586	-76.21	5.29	-106.26	-62.132	-16.464	-1.764	-0.60117	0.32227	-0.51172	0.52231	31.0	13111	100
2025-3-27 18:41:15.755	WT901BLE68-01(48591DE3C19B)	-0.146	-0.937	0.326	-8.728	-51.941	-95.398	-76.28	4.27	-105.91	-62.132	-16.464	-1.764	-0.60117	0.32227	-0.51172	0.52231	31.0	13111	100
2025-3-27 18:41:15.755	WT901BLE68-01(48591DE3C19B)	-0.103	-0.937	0.326	-8.728	-51.941	-95.398	-76.34	3.27	-105.57	-62.132	-16.464	-1.764	-0.60117	0.32227	-0.51172	0.52231	31.0	13111	100
2025-3-27 18:41:15.755	WT901BLE68-01(48591DE3C19B)	-0.103	-0.846	0.309	-12.268	-24.475	-92.163	-76.46	2.36	-105.49	-62.132	-16.464	-1.764	-0.60117	0.32227	-0.51172	0.52231	31.0	13111	100
2025-3-27 18:41:15.784	WT901BLE68-01(48591DE3C19B)	-0.114	-0.846	0.309	-12.268	-24.475	-92.163	-76.59	1.45	-105.40	-62.132	-16.464	-1.764	-0.60117	0.32227	-0.51172	0.52231	31.0	13111	100
2025-3-27 18:41:15.784	WT901BLE68-01(48591DE3C19B)	-0.114	-0.821	0.327	-13.611	0.244	-88.684	-76.71	0.64	-105.55	-62.132	-16.464	-1.764	-0.60117	0.32227	-0.51172	0.52231	31.0	13111	100
2025-3-27 18:41:15.785	WT901BLE68-01(48591DE3C19B)	-0.168	-0.821	0.327	-13.611	0.244	-88.684	-76.84	-0.16	-105.69	-62.132	-16.464	-1.764	-0.47244	0.37616	-0.49460	0.62494	31.0	13111	100
2025-3-27 18:41:15.785	WT901BLE68-01(48591DE3C19B)	-0.168	-0.822	0.363	-11.536	15.503	-82.275	-76.94	-0.86	-105.96	-62.132	-16.464	-1.764	-0.47244	0.37616	-0.49460	0.62494	31.0	13111	100
2025-3-27 18:41:15.845	WT901BLE68-01(48591DE3C19B)	-0.251	-0.822	0.363	-11.536	15.503	-82.275	-77.03	-1.56	-106.24	-62.132	-16.464	-1.764	-0.47244	0.37616	-0.49460	0.62494	31.0	13111	100
2025-3-27 18:41:15.845	WT901BLE68-01(48591DE3C19B)	-0.251	-0.839	0.364	-9.644	21.790	-74.585	-77.09	-2.16	-106.56	-62.132	-16.464	-1.764	-0.47244	0.37616	-0.49460	0.62494	31.0	13111	100
2025-3-27 18:41:15.845	WT901BLE68-01(48591DE3C19B)	-0.338	-0.839	0.364	-9.644	21.790	-74.585	-77.14	-2.76	-106.87	-62.132	-16.464	-1.764	-0.47244	0.37616	-0.49460	0.62494	31.0	13111	100
2025-3-27 18:41:15.845	WT901BLE68-01(48591DE3C19B)	-0.338	-0.881	0.360	-6.287	23.804	-66.956	-77.16	-3.27	-107.19	-62.132	-16.464	-1.764	-0.47244	0.37616	-0.49460	0.62494	31.0	13111	100
2025-3-27 18:41:15.965	WT901BLE68-01(48591DE3C19B)	-0.419	-0.881	0.360	-6.287	23.804	-66.956	-77.17	-3.77	-107.51	-62.132	-16.464	-1.764	-0.47244	0.37616	-0.49460	0.62494	31.0	13111	100
2025-3-27 18:41:15.965	WT901BLE68-01(48591DE3C19B)	-0.419	-0.911	0.367	-2.563	19.958	-58.044	-77.14	-4.19	-107.76	-62.132	-16.464	-1.764	-0.47244	0.37616	-0.49460	0.62494	31.0	13111	100
2025-3-27 18:41:15.965	WT901BLE68-01(48591DE3C19B)	-0.499	-0.911	0.367	-2.563	19.958	-58.044	-77.11	-4.60	-108.02	-62.132	-16.464	-1.764	-0.47244	0.37616	-0.49460	0.62494	31.0	13111	100
2025-3-27 18:41:15.965	WT901BLE68-01(48591DE3C19B)	-0.499	-0.925	0.388	-0.122	8.423	-49.561	-77.07	-4.94	-108.15	-62.132	-16.464	-1.764	-0.47244	0.37616	-0.49460	0.62494	31.0	13111	100
2025-3-27 18:41:15.966	WT901BLE68-01(48591DE3C19B)	-0.555	-0.925	0.388	-0.122	8.423	-49.561	-77.03	-5.27	-108.28	-62.132	-16.464	-1.764	-0.47244	0.37616	-0.49460	0.62494	31.0	13111	100
2025-3-27 18:41:15.966	WT901BLE68-01(48591DE3C19B)	-0.555	-0.971	0.412	0.916	-9.033	-41.748	-76.99	-5.55	-108.23	-62.132	-16.464	-1.764	-0.47244	0.37616	-0.49460	0.62494	31.0	13111	100
2025-3-27 18:41:15.967	WT901BLE68-01(48591DE3C19B)	-0.541	-0.971	0.412	0.916	-9.033	-41.748	-76.94	-5.83	-108.17	-62.132	-16.464	-1.764	-0.47244	0.37616	-0.49460	0.62494	31.0	13111	100
2025-3-27 18:41:15.967	WT901BLE68-01(48591DE3C19B)	-0.498	-1.024	0.400	1.221	-29.541	-34.668	-76.92	-6.08	-107.90	-62.132	-16.464	-1.764	-0.47244	0.37616	-0.49460	0.62494	31.0	13111	100
2025-3-27 18:41:15.995	WT901BLE68-01(48591DE3C19B)	-0.498	-1.078	0.398	0.305	-47.791	-23.010	-76.92	-6.28	-107.53	-62.132	-16.464	-1.764	-0.47244	0.37616	-0.49460	0.62494	31.0	13111	100
2025-3-27 18:41:15.995	WT901BLE68-01(48591DE3C19B)	-0.492	-1.078	0.398	0.305	-47.791	-23.010	-76.93	-6.45	-107.07	-62.132	-16.464	-1.764	-0.47244	0.37616	-0.49460	0.62494	31.0	13111	100
2025-3-27 18:41:15.995	WT901BLE68-01(48591DE3C19B)	-0.492	-1.148	0.423	1.770	-42.664	-7.019	-76.94	-6.53	-106.61	-62.132	-16.464	-1.764	-0.47244	0.37616	-0.49460	0.62494	31.0	13111	100
2025-3-27 18:41:15.995	WT901BLE68-01(48591DE3C19B)	-0.520	-1.148	0.423	1.770	-42.664	-7.019	-76.93	-6.53	-106.16	-62.132	-16.464	-1.764	-0.47244	0.37616	-0.49460	0.62494	31.0	13111	100
2025-3-27 18:41:15.995	WT901BLE68-01(48591DE3C19B)	-0.520	-1.155	0.432	6.042	-12.329	10.803	-76.89	-6.41	-105.84	-62.132	-16.464	-1.764	-0.47244	0.37616	-0.49460	0.62494	31.0	13111	100
2025-3-27 18:41:15.995	WT901BLE68-01(48591DE3C19B)	-0.640	-1.155	0.432	6.042	-12.329	10.803	-76.82	-6.16	-105.64	-62.132	-16.464	-1.764	-0.47244	0.37616	-0.49460	0.62494	31.0	13111	100
2025-3-27 18:41:15.995	WT901BLE68-01(48591DE3C19B)	-0.640	-1.114	0.414	6.165	13.000	24.231	-76.73	-5.82	-105.57	-62.132	-16.464	-1.764	-0.47244	0.37616	-0.49460	0.62494	31.0	13111	100
2025-3-27 18:41:15.996	WT901BLE68-01(48591DE3C19B)	-0.646	-1.114	0.414	6.165	13.000	24.231	-76.63	-5.39	-105.60	-64.876	-18.130	0.196	-0.47244	0.37616	-0.49460	0.62494	31.0	13111	100
2025-3-27 18:41:16.54	WT901BLE68-01(48591DE3C19B)	-0.646	-1.065	0.372	1.160	20.752	38.391	-76.56	-4.88	-105.64	-64.876	-18.130	0.196	-0.47244	0.37616	-0.49460	0.62494	31.0	13111	100
2025-3-27 18:41:16.54	WT901BLE68-01(48591DE3C19B)	-0.589	-1.065	0.372	1.160	20.752	38.391	-76.51	-4.28	-105.72	-64.876	-18.130	0.196	-0.47244	0.37616	-0.49460	0.62494	31.0	13111	100
2025-3-27 18:41:16.54	WT901BLE68-01(48591DE3C19B)	-0.589	-1.121	0.345	-5.432	26.367	49.561	-76.49	-3.63	-105.80	-64.876	-18.130	0.196	-0.47244	0.37616	-0.49460	0.62494	31.0	13111	100
2025-3-27 18:41:16.54	WT901BLE68-01(48591DE3C19B)	-0.645	-1.121	0.345	-5.432	26.367	49.561	-76.51	-2.92	-105.90	-64.876	-18.130	0.196	-0.47244	0.37616	-0.49460	0.62494	31.0	13111	100
2025-3-27 18:41:16.83	WT901BLE68-01(48591DE3C19B)	-0.645	-1.221	0.379	-8.972	20.569	55.542	-76.56	-2.19	-105.96	-64.876	-18.130	0.196	-0.47244	0.37616	-0.49460	0.62494	31.0	13111	100
2025-3-27 18:41:16.83	WT901BLE68-01(48591DE3C19B)	-0.741	-1.221	0.379	-8.972	20.569	55.542	-76.62	-1.44	-105.99	-64.876	-18.130	0.196	-0.47244	0.37616	-0.49460	0.62494	31.0	13111	100
2025-3-27 18:41:16.84	WT901BLE68-01(48591DE3C19B)	-0.741	-1.418	0.398	-10.254	-1.831	57.739	-76.70	-0.71	-105.90	-64.876	-18.130	0.196	-0.47244	0.37616	-0.49460	0.62494	31.0	13111	100
2025-3-27 18:41:16.84	WT901BLE68-01(48591DE3C19B)	-0.717	-1.418	0.398	-10.254	-1.831	57.739	-76.78	0.00	-105.70	-64.876	-18.130	0.196	-0.47244	0.37616	-0.49460	0.62494	31.0	13111	100
2025-3-27 18:41:16.114	WT901BLE68-01(48591DE3C19B)	-0.717	-1.424	0.337	-0.549	-25.818	65.002	-76.82	0.71	-105.39	-64.876	-18.130	0.196	-0.47244	0.37616	-0.49460	0.62494	31.0	13111	100
2025-3-27 18:41:16.114	WT901BLE68-01(48591DE3C19B)	-0.611	-1.424	0.337	-0.549	-25.818	65.002	-76.80	1.43	-104.94	-64.876	-18.130	0.196	-0.47244	0.37616	-0.49460	0.62494	31.0	13111	100
2025-3-27 18:41:16.114	WT901BLE68-01(48591DE3C19B)	-0.611	-1.180	0.247	2.136	-37.476	80.505	-76.76	2.21	-104.43	-64.876	-18.130	0.196	-0.47244	0.37616	-0.49460	0.62494	31.0	13111	100
2025-3-27 18:41:16.114	WT901BLE68-01(48591DE3C19B)	-0.520	-1.180	0.247	2.136	-37.476	80.505	-76.71	3.05	-103.84	-64.876	-18.130	0.196	-0.47244	0.37616	-0.49460	0.62494	31.0	13111	100
2025-3-27 18:41:16.174	WT901BLE68-01(48591DE3C19B)	-0.520	-0.981	0.158	-3.540	-39.551	102.173	-76.67	3.98	-103.22	-64.876	-18.130	0.196	-0.47244	0.37616	-0.49460	0.62494	31.0	13111	100
2025-3-27 18:41:16.174	WT901BLE68-01(48591DE3C19B)	-0.450	-0.981	0.158	-3.540	-39.551	102.173	-76.65	5.01	-102.56	-64.876	-18.130	0.196	-0.47244	0.37616	-0.49460	0.62494	31.0	13111	100
2025-3-27 18:41:16.174	WT901BLE68-01(48591DE3C19B)	-0.450	-0.870	0.120	-10.254	-43.823	126.709	-76.65	6.15	-101.85	-64.876	-18.130	0.196	-0.47244	0.37616	-0.49460	0.62494	31.0	13111	100
2025-3-27 18:41:16.174	WT901BLE68-01(48591DE3C19B)	-0.409	-0.870	0.120	-10.254	-43.823	126.709	-76.66	7.40	-101.11	-64.876	-18.130	0.196	-0.47244	0.37616	-0.49460	0.62494	31.0	13111	100
2025-3-27 18:41:16.203	WT901BLE68-01(48591DE3C19B)	-0.409	-0.971	0.159	-18.433	-56.152	148.987	-76.69	8.73	-100.27	-64.876	-18.130	0.196	-0.54236	0.34891	-0.51468	0.56491	31.0	13111	100
2025-3-27 18:41:16.203	WT901BLE68-01(48591DE3C19B)	-0.338	-0.971	0.159	-18.433	-56.152	148.987	-76.73	10.15	-99.35	-64.876	-18.130	0.196	-0.54236	0.34891	-0.51468	0.56491	31.0	13111	100
2025-3-27 18:41:16.203	WT901BLE68-01(48591DE3C19B)	-0.338	-1.271	0.088	-16.541	-72.998	166.565	-76.72	11.62	-98.33	-64.876	-18.130	0.196	-0.54236	0.34891	-0.51468	0.56491	31.0	13111	100
2025-3-27 18:41:16.204	WT901BLE68-01(48591DE3C19B)	-0.234	-1.271	0.088	-16.541	-72.998	166.565	-76.65	13.15	-97.20	-64.876	-18.130	0.196	-0.54236	0.34891	-0.51468	0.56491	31.0	13111	100
2025-3-27 18:41:16.265	WT901BLE68-01(48591DE3C19B)	-0.234	-1.297	0.036	-0.671	-78.430	178.711	-76.46	14.71	-96.03	-64.876	-18.130	0.196	-0.54236	0.34891	-0.51468	0.56491	31.0	13111	100
2025-3-27 18:41:16.266	WT901BLE68-01(48591DE3C19B)	-0.203	-1.297	0.036	-0.671	-78.430	178.711	-76.17	16.29	-94.80	-64.876	-18.130	0.196	-0.54236	0.34891	-0.51468	0.56491	31.0	13111	100
2025-3-27 18:41:16.266	WT901BLE68-01(48591DE3C19B)	-0.203	-1.202	0.017	7.141	-69.519	184.265	-75.81	17.89	-93.60	-64.876	-18.130	0.196	-0.54236	0.34891	-0.51468	0.56491	31.0	13111	100
2025-3-27 18:41:16.266	WT901BLE68-01(48591DE3C19B)	-0.220	-1.202	0.017	7.141	-69.519	184.265	-75.39	19.51	-92.42	-64.876	-18.130	0.196	-0.54236	0.34891	-0.51468	0.56491	31.0	13111	100
2025-3-27 18:41:16.297	WT901BLE68-01(48591DE3C19B)	-0.220	-1.132	0.019	13.733	-57.983	182.129	-74.93	21.11	-91.29	-64.876	-18.130	0.196	-0.54236	0.34891	-0.51468	0.56491	31.0	13111	100
2025-3-27 18:41:16.297	WT901BLE68-01(48591DE3C19B)	-0.169	-1.132	0.019	13.733	-57.983	182.129	-74.43	22.69	-90.19	-64.876	-18.130	0.196	-0.54236	0.34891	-0.51468	0.56491	31.0	13111	100
2025-3-27 18:41:16.297	WT901BLE68-01(48591DE3C19B)	-0.169	-1.087	0.034	17.395	-48.401	179.260	-73.89	24.25	-89.14	-64.876	-18.130	0.196	-0.54236	0.34891	-0.51468	0.56491	31.0	13111	100
2025-3-27 18:41:16.297	WT901BLE68-01(48591DE3C19B)	-0.145	-1.087	0.034	17.395	-48.401	179.260	-73.33	25.78	-88.12	-64.876	-18.130	0.196	-0.54236	0.34891	-0.51468	0.56491	31.0	13111	100
2025-3-27 18:41:16.324	WT901BLE68-01(48591DE3C19B)	-0.145	-1.063	0.034	19.470	-34.180	175.720	-72.77	27.30	-87.15	-64.876	-18.130	0.196	-0.54236	0.34891	-0.51468	0.56491	31.0	13111	100
2025-3-27 18:41:16.324	WT901BLE68-01(48591DE3C19B)	-0.122	-1.063	0.034	19.470	-34.180	175.720	-72.21	28.80	-86.25	-64.876	-18.130	0.196	-0.54236	0.34891	-0.51468	0.56491	31.0	13111	100
2025-3-27 18:41:16.324	WT901BLE68-01(48591DE3C19B)	-0.122	-1.001	-0.005	20.081	-28.259	172.241	-71.63	30.27	-85.37	-64.876	-18.130	0.196	-0.54236	0.34891	-0.51468	0.56491	31.0	13111	100
2025-3-27 18:41:16.325	WT901BLE68-01(48591DE3C19B)	-0.061	-1.001	-0.005	20.081	-28.259	172.241	-71.04	31.72	-84.50	-64.876	-18.130	0.196	-0.54236	0.34891	-0.51468	0.56491	31.0	13111	100
2025-3-27 18:41:16.355	WT901BLE68-01(48591DE3C19B)	-0.061	-0.944	-0.029	13.977	-29.480	168.945	-70.46	33.12	-83.61	-64.876	-18.130	0.196	-0.54236	0.34891	-0.51468	0.56491	31.0	13111	100
2025-3-27 18:41:16.355	WT901BLE68-01(48591DE3C19B)	-0.080	-0.944	-0.029	13.977	-29.480	168.945	-69.87	34.50	-82.69	-64.876	-18.130	0.196	-0.54236	0.34891	-0.51468	0.56491	31.0	13111	100
2025-3-27 18:41:16.355	WT901BLE68-01(48591DE3C19B)	-0.080	-1.016	-0.049	-0.610	-42.175	164.490	-69.29	35.80	-81.68	-64.876	-18.130	0.196	-0.54236	0.34891	-0.51468	0.56491	31.0	13111	100
2025-3-27 18:41:16.355	WT901BLE68-01(48591DE3C19B)	-0.066	-1.016	-0.049	-0.610	-42.175	164.490	-68.72	37.05	-80.60	-64.876	-18.130	0.196	-0.54236	0.34891	-0.51468	0.56491	31.0	13111	100
2025-3-27 18:41:16.414	WT901BLE68-01(48591DE3C19B)	-0.066	-1.158	-0.036	-11.230	-59.265	155.457	-68.13	38.21	-79.40	-64.876	-18.130	0.196	-0.54236	0.34891	-0.51468	0.56491	31.0	13111	100
2025-3-27 18:41:16.414	WT901BLE68-01(48591DE3C19B)	0.052	-1.158	-0.036	-11.230	-59.265	155.457	-67.51	39.27	-78.11	-62.720	-7.840	-6.370	-0.54236	0.34891	-0.51468	0.56491	31.0	13111	100
2025-3-27 18:41:16.414	WT901BLE68-01(48591DE3C19B)	0.052	-1.304	-0.024	-21.423	-75.989	137.207	-66.88	40.08	-76.68	-62.720	-7.840	-6.370	-0.54236	0.34891	-0.51468	0.56491	31.0	13111	100
2025-3-27 18:41:16.414	WT901BLE68-01(48591DE3C19B)	0.196	-1.304	-0.024	-21.423	-75.989	137.207	-66.24	40.87	-75.24	-62.720	-7.840	-6.370	-0.54236	0.34891	-0.51468	0.56491	31.0	13111	100
2025-3-27 18:41:16.444	WT901BLE68-01(48591DE3C19B)	0.196	-1.575	-0.071	-30.212	-77.637	111.145	-65.75	41.39	-73.91	-62.720	-7.840	-6.370	-0.54236	0.34891	-0.51468	0.56491	31.0	13111	100
2025-3-27 18:41:16.444	WT901BLE68-01(48591DE3C19B)	0.386	-1.575	-0.071	-30.212	-77.637	111.145	-65.25	41.89	-72.58	-62.720	-7.840	-6.370	-0.54236	0.34891	-0.51468	0.56491	31.0	13111	100
2025-3-27 18:41:16.444	WT901BLE68-01(48591DE3C19B)	0.386	-1.819	-0.114	-31.006	-62.439	74.158	-65.01	42.10	-71.63	-62.720	-7.840	-6.370	-0.54236	0.34891	-0.51468	0.56491	31.0	13111	100
2025-3-27 18:41:16.444	WT901BLE68-01(48591DE3C19B)	0.472	-1.819	-0.114	-31.006	-62.439	74.158	-64.78	42.30	-70.70	-62.720	-7.840	-6.370	-0.54236	0.34891	-0.51468	0.56491	31.0	13111	100
2025-3-27 18:41:16.474	WT901BLE68-01(48591DE3C19B)	0.472	-1.877	-0.050	-27.588	-38.208	26.611	-64.91	42.17	-70.34	-62.720	-7.840	-6.370	-0.54236	0.34891	-0.51468	0.56491	31.0	13111	100
2025-3-27 18:41:16.474	WT901BLE68-01(48591DE3C19B)	0.385	-1.877	-0.050	-27.588	-38.208	26.611	-65.04	42.02	-69.98	-62.720	-7.840	-6.370	-0.54236	0.34891	-0.51468	0.56491	31.0	13111	100
2025-3-27 18:41:16.474	WT901BLE68-01(48591DE3C19B)	0.385	-1.708	0.106	-27.344	-15.442	-24.902	-65.54	41.51	-70.20	-62.720	-7.840	-6.370	-0.54236	0.34891	-0.51468	0.56491	31.0	13111	100
2025-3-27 18:41:16.474	WT901BLE68-01(48591DE3C19B)	0.265	-1.708	0.106	-27.344	-15.442	-24.902	-66.04	40.98	-70.41	-62.720	-7.840	-6.370	-0.54236	0.34891	-0.51468	0.56491	31.0	13111	100
2025-3-27 18:41:16.535	WT901BLE68-01(48591DE3C19B)	0.265	-1.620	0.192	-29.297	5.371	-77.454	-66.88	40.06	-71.13	-62.720	-7.840	-6.370	-0.54236	0.34891	-0.51468	0.56491	31.0	13111	100
2025-3-27 18:41:16.535	WT901BLE68-01(48591DE3C19B)	0.191	-1.620	0.192	-29.297	5.371	-77.454	-67.69	39.13	-71.81	-62.720	-7.840	-6.370	-0.54236	0.34891	-0.51468	0.56491	31.0	13111	100
2025-3-27 18:41:16.535	WT901BLE68-01(48591DE3C19B)	0.191	-1.589	0.155	-25.513	30.090	-121.704	-68.73	37.89	-72.96	-62.720	-7.840	-6.370	-0.54236	0.34891	-0.51468	0.56491	31.0	13111	100
2025-3-27 18:41:16.535	WT901BLE68-01(48591DE3C19B)	0.097	-1.589	0.155	-25.513	30.090	-121.704	-69.71	36.63	-74.06	-62.720	-7.840	-6.370	-0.54236	0.34891	-0.51468	0.56491	31.0	13111	100
2025-3-27 18:41:16.565	WT901BLE68-01(48591DE3C19B)	0.097	-1.535	0.043	-15.686	55.908	-157.837	-70.81	35.11	-75.55	-62.720	-7.840	-6.370	-0.54236	0.34891	-0.51468	0.56491	31.0	13111	100
2025-3-27 18:41:16.566	WT901BLE68-01(48591DE3C19B)	-0.012	-1.535	0.043	-15.686	55.908	-157.837	-71.83	33.57	-76.96	-62.720	-7.840	-6.370	-0.54236	0.34891	-0.51468	0.56491	31.0	13111	100
2025-3-27 18:41:16.566	WT901BLE68-01(48591DE3C19B)	-0.012	-1.385	-0.014	-3.662	71.228	-184.204	-72.81	31.83	-78.57	-62.720	-7.840	-6.370	-0.54236	0.34891	-0.51468	0.56491	31.0	13111	100
2025-3-27 18:41:16.566	WT901BLE68-01(48591DE3C19B)	-0.103	-1.385	-0.014	-3.662	71.228	-184.204	-73.71	30.08	-80.12	-62.720	-7.840	-6.370	-0.68600	0.31375	-0.53104	0.38583	31.0	13111	100
2025-3-27 18:41:16.596	WT901BLE68-01(48591DE3C19B)	-0.103	-1.235	-0.011	1.160	72.571	-202.271	-74.51	28.14	-81.66	-62.720	-7.840	-6.370	-0.68600	0.31375	-0.53104	0.38583	31.0	13111	100
2025-3-27 18:41:16.596	WT901BLE68-01(48591DE3C19B)	-0.142	-1.235	-0.011	1.160	72.571	-202.271	-75.24	26.21	-83.13	-62.720	-7.840	-6.370	-0.68600	0.31375	-0.53104	0.38583	31.0	13111	100
2025-3-27 18:41:16.596	WT901BLE68-01(48591DE3C19B)	-0.142	-1.111	0.045	1.465	68.665	-213.196	-75.89	24.16	-84.53	-62.720	-7.840	-6.370	-0.68600	0.31375	-0.53104	0.38583	31.0	13111	100
2025-3-27 18:41:16.597	WT901BLE68-01(48591DE3C19B)	-0.203	-1.111	0.045	1.465	68.665	-213.196	-76.46	22.12	-85.88	-62.720	-7.840	-6.370	-0.68600	0.31375	-0.53104	0.38583	31.0	13111	100
2025-3-27 18:41:16.654	WT901BLE68-01(48591DE3C19B)	-0.203	-1.016	0.135	-1.465	65.674	-219.604	-77.00	20.01	-87.15	-62.720	-7.840	-6.370	-0.68600	0.31375	-0.53104	0.38583	31.0	13111	100
2025-3-27 18:41:16.654	WT901BLE68-01(48591DE3C19B)	-0.273	-1.016	0.135	-1.465	65.674	-219.604	-77.47	17.90	-88.39	-62.720	-7.840	-6.370	-0.68600	0.31375	-0.53104	0.38583	31.0	13111	100
2025-3-27 18:41:16.654	WT901BLE68-01(48591DE3C19B)	-0.273	-0.981	0.221	-8.057	57.007	-223.755	-77.93	15.74	-89.49	-62.720	-7.840	-6.370	-0.68600	0.31375	-0.53104	0.38583	31.0	13111	100
2025-3-27 18:41:16.654	WT901BLE68-01(48591DE3C19B)	-0.305	-0.981	0.221	-8.057	57.007	-223.755	-78.33	13.60	-90.56	-62.720	-7.840	-6.370	-0.68600	0.31375	-0.53104	0.38583	31.0	13111	100
2025-3-27 18:41:16.714	WT901BLE68-01(48591DE3C19B)	-0.305	-1.002	0.285	-13.733	48.401	-226.318	-78.71	11.43	-91.52	-62.720	-7.840	-6.370	-0.68600	0.31375	-0.53104	0.38583	31.0	13111	100
2025-3-27 18:41:16.714	WT901BLE68-01(48591DE3C19B)	-0.340	-1.002	0.285	-13.733	48.401	-226.318	-79.05	9.27	-92.45	-62.720	-7.840	-6.370	-0.68600	0.31375	-0.53104	0.38583	31.0	13111	100
2025-3-27 18:41:16.714	WT901BLE68-01(48591DE3C19B)	-0.340	-1.021	0.319	-16.235	40.710	-225.159	-79.35	7.12	-93.27	-62.720	-7.840	-6.370	-0.68600	0.31375	-0.53104	0.38583	31.0	13111	100
2025-3-27 18:41:16.714	WT901BLE68-01(48591DE3C19B)	-0.364	-1.021	0.319	-16.235	40.710	-225.159	-79.62	4.99	-94.08	-62.720	-7.840	-6.370	-0.68600	0.31375	-0.53104	0.38583	31.0	13111	100
2025-3-27 18:41:16.715	WT901BLE68-01(48591DE3C19B)	-0.364	-1.038	0.311	-15.808	35.828	-221.313	-79.84	2.90	-94.81	-62.720	-7.840	-6.370	-0.68600	0.31375	-0.53104	0.38583	31.0	13111	100
2025-3-27 18:41:16.715	WT901BLE68-01(48591DE3C19B)	-0.350	-1.038	0.311	-15.808	35.828	-221.313	-80.03	0.83	-95.53	-62.720	-7.840	-6.370	-0.68600	0.31375	-0.53104	0.38583	31.0	13111	100
2025-3-27 18:41:16.715	WT901BLE68-01(48591DE3C19B)	-0.350	-1.037	0.278	-11.963	36.316	-213.623	-80.15	-1.15	-96.23	-62.720	-7.840	-6.370	-0.68600	0.31375	-0.53104	0.38583	31.0	13111	100
2025-3-27 18:41:16.715	WT901BLE68-01(48591DE3C19B)	-0.354	-1.037	0.278	-11.963	36.316	-213.623	-80.24	-3.11	-96.92	-62.720	-7.840	-6.370	-0.68600	0.31375	-0.53104	0.38583	31.0	13111	100
2025-3-27 18:41:16.775	WT901BLE68-01(48591DE3C19B)	-0.354	-1.003	0.236	-7.080	35.400	-203.430	-80.27	-4.96	-97.58	-62.720	-7.840	-6.370	-0.68600	0.31375	-0.53104	0.38583	31.0	13111	100
2025-3-27 18:41:16.775	WT901BLE68-01(48591DE3C19B)	-0.340	-1.003	0.236	-7.080	35.400	-203.430	-80.27	-6.80	-98.23	-62.720	-7.840	-6.370	-0.68600	0.31375	-0.53104	0.38583	31.0	13111	100
2025-3-27 18:41:16.775	WT901BLE68-01(48591DE3C19B)	-0.340	-0.936	0.219	-2.747	34.363	-190.979	-80.21	-8.50	-98.86	-62.720	-7.840	-6.370	-0.68600	0.31375	-0.53104	0.38583	31.0	13111	100
2025-3-27 18:41:16.775	WT901BLE68-01(48591DE3C19B)	-0.303	-0.936	0.219	-2.747	34.363	-190.979	-80.12	-10.18	-99.49	-62.720	-7.840	-6.370	-0.68600	0.31375	-0.53104	0.38583	31.0	13111	100
2025-3-27 18:41:16.865	WT901BLE68-01(48591DE3C19B)	-0.303	-0.854	0.197	-1.221	38.208	-178.162	-80.01	-11.72	-100.13	-70.364	-11.662	0.686	-0.68600	0.31375	-0.53104	0.38583	31.0	13111	100
2025-3-27 18:41:16.865	WT901BLE68-01(48591DE3C19B)	-0.291	-0.854	0.197	-1.221	38.208	-178.162	-79.88	-13.25	-100.78	-70.364	-11.662	0.686	-0.68600	0.31375	-0.53104	0.38583	31.0	13111	100
2025-3-27 18:41:16.865	WT901BLE68-01(48591DE3C19B)	-0.291	-0.801	0.164	-0.977	40.833	-163.696	-79.72	-14.62	-101.44	-70.364	-11.662	0.686	-0.68600	0.31375	-0.53104	0.38583	31.0	13111	100
2025-3-27 18:41:16.865	WT901BLE68-01(48591DE3C19B)	-0.415	-0.801	0.164	-0.977	40.833	-163.696	-79.55	-15.97	-102.10	-70.364	-11.662	0.686	-0.68600	0.31375	-0.53104	0.38583	31.0	13111	100
2025-3-27 18:41:16.866	WT901BLE68-01(48591DE3C19B)	-0.415	-0.833	0.224	2.686	38.025	-143.677	-79.34	-17.12	-102.69	-70.364	-11.662	0.686	-0.68600	0.31375	-0.53104	0.38583	31.0	13111	100
2025-3-27 18:41:16.866	WT901BLE68-01(48591DE3C19B)	-0.555	-0.833	0.224	2.686	38.025	-143.677	-79.13	-18.25	-103.29	-70.364	-11.662	0.686	-0.68600	0.31375	-0.53104	0.38583	31.0	13111	100
2025-3-27 18:41:16.867	WT901BLE68-01(48591DE3C19B)	-0.555	-0.918	0.310	9.094	40.833	-122.253	-78.84	-19.16	-103.88	-70.364	-11.662	0.686	-0.68600	0.31375	-0.53104	0.38583	31.0	13111	100
2025-3-27 18:41:16.867	WT901BLE68-01(48591DE3C19B)	-0.612	-0.918	0.310	9.094	40.833	-122.253	-78.54	-20.05	-104.49	-70.364	-11.662	0.686	-0.68600	0.31375	-0.53104	0.38583	31.0	13111	100
2025-3-27 18:41:16.925	WT901BLE68-01(48591DE3C19B)	-0.616	-0.958	0.367	14.954	50.964	-98.572	-78.14	-20.67	-105.15	-70.364	-11.662	0.686	-0.68600	0.31375	-0.53104	0.38583	31.0	13111	100
2025-3-27 18:41:16.925	WT901BLE68-01(48591DE3C19B)	-0.616	-0.995	0.375	14.221	65.613	-73.242	-77.72	-21.14	-105.87	-70.364	-11.662	0.686	-0.68600	0.31375	-0.53104	0.38583	31.0	13111	100
2025-3-27 18:41:16.925	WT901BLE68-01(48591DE3C19B)	-0.640	-0.995	0.375	14.221	65.613	-73.242	-77.29	-21.45	-106.64	-70.364	-11.662	0.686	-0.68600	0.31375	-0.53104	0.38583	31.0	13111	100
2025-3-27 18:41:16.925	WT901BLE68-01(48591DE3C19B)	-0.640	-1.028	0.395	10.925	74.463	-47.913	-76.85	-21.62	-107.44	-70.364	-11.662	0.686	-0.68600	0.31375	-0.53104	0.38583	31.0	13111	100
2025-3-27 18:41:16.926	WT901BLE68-01(48591DE3C19B)	-0.684	-1.028	0.395	10.925	74.463	-47.913	-76.43	-21.65	-108.25	-70.364	-11.662	0.686	-0.68600	0.31375	-0.53104	0.38583	31.0	13111	100
2025-3-27 18:41:16.926	WT901BLE68-01(48591DE3C19B)	-0.684	-1.060	0.422	5.371	70.496	-25.452	-76.06	-21.56	-109.01	-70.364	-11.662	0.686	-0.68600	0.31375	-0.53104	0.38583	31.0	13111	100
2025-3-27 18:41:16.926	WT901BLE68-01(48591DE3C19B)	-0.782	-1.060	0.422	5.371	70.496	-25.452	-75.73	-21.36	-109.71	-70.364	-11.662	0.686	-0.68600	0.31375	-0.53104	0.38583	31.0	13111	100
2025-3-27 18:41:16.926	WT901BLE68-01(48591DE3C19B)	-0.782	-1.147	0.465	-1.709	59.387	-3.845	-75.47	-21.07	-110.34	-70.364	-11.662	0.686	-0.68600	0.31375	-0.53104	0.38583	31.0	13111	100
2025-3-27 18:41:16.956	WT901BLE68-01(48591DE3C19B)	-0.852	-1.147	0.465	-1.709	59.387	-3.845	-75.28	-20.67	-110.86	-70.364	-11.662	0.686	-0.68600	0.31375	-0.53104	0.38583	31.0	13111	100
2025-3-27 18:41:16.956	WT901BLE68-01(48591DE3C19B)	-0.852	-1.263	0.462	-7.141	47.302	18.738	-75.16	-20.18	-111.30	-70.364	-11.662	0.686	-0.68600	0.31375	-0.53104	0.38583	31.0	13111	100
2025-3-27 18:41:16.956	WT901BLE68-01(48591DE3C19B)	-0.806	-1.263	0.462	-7.141	47.302	18.738	-75.10	-19.60	-111.64	-70.364	-11.662	0.686	-0.68600	0.31375	-0.53104	0.38583	31.0	13111	100
2025-3-27 18:41:16.956	WT901BLE68-01(48591DE3C19B)	-0.806	-1.269	0.414	-10.010	37.354	45.532	-75.09	-18.90	-111.90	-70.364	-11.662	0.686	-0.68600	0.31375	-0.53104	0.38583	31.0	13111	100
2025-3-27 18:41:17.15	WT901BLE68-01(48591DE3C19B)	-0.729	-1.269	0.414	-10.010	37.354	45.532	-75.12	-18.09	-112.06	-70.364	-11.662	0.686	-0.68600	0.31375	-0.53104	0.38583	31.0	13111	100
2025-3-27 18:41:17.15	WT901BLE68-01(48591DE3C19B)	-0.729	-1.237	0.351	-16.541	31.494	73.914	-75.22	-17.15	-112.15	-70.364	-11.662	0.686	-0.36160	0.43478	-0.43478	0.70074	31.0	13111	100
2025-3-27 18:41:17.16	WT901BLE68-01(48591DE3C19B)	-0.735	-1.237	0.351	-16.541	31.494	73.914	-75.37	-16.09	-112.18	-70.364	-11.662	0.686	-0.36160	0.43478	-0.43478	0.70074	31.0	13111	100
2025-3-27 18:41:17.16	WT901BLE68-01(48591DE3C19B)	-0.735	-1.244	0.311	-21.606	18.127	102.417	-75.56	-14.91	-112.10	-70.364	-11.662	0.686	-0.36160	0.43478	-0.43478	0.70074	31.0	13111	100
2025-3-27 18:41:17.44	WT901BLE68-01(48591DE3C19B)	-0.717	-1.244	0.311	-21.606	18.127	102.417	-75.82	-13.62	-111.93	-70.364	-11.662	0.686	-0.36160	0.43478	-0.43478	0.70074	31.0	13111	100
2025-3-27 18:41:17.44	WT901BLE68-01(48591DE3C19B)	-0.717	-1.114	0.288	-21.545	-2.075	130.188	-76.10	-12.23	-111.64	-70.364	-11.662	0.686	-0.36160	0.43478	-0.43478	0.70074	31.0	13111	100
2025-3-27 18:41:17.44	WT901BLE68-01(48591DE3C19B)	-0.639	-1.114	0.288	-21.545	-2.075	130.188	-76.39	-10.72	-111.21	-70.364	-11.662	0.686	-0.36160	0.43478	-0.43478	0.70074	31.0	13111	100
2025-3-27 18:41:17.45	WT901BLE68-01(48591DE3C19B)	-0.639	-1.017	0.219	-26.550	-23.865	156.738	-76.72	-9.12	-110.66	-70.364	-11.662	0.686	-0.36160	0.43478	-0.43478	0.70074	31.0	13111	100
2025-3-27 18:41:17.73	WT901BLE68-01(48591DE3C19B)	-0.585	-1.017	0.219	-26.550	-23.865	156.738	-77.08	-7.43	-109.99	-70.364	-11.662	0.686	-0.36160	0.43478	-0.43478	0.70074	31.0	13111	100
2025-3-27 18:41:17.74	WT901BLE68-01(48591DE3C19B)	-0.585	-1.045	0.132	-31.433	-45.837	181.213	-77.46	-5.64	-109.20	-70.364	-11.662	0.686	-0.36160	0.43478	-0.43478	0.70074	31.0	13111	100
2025-3-27 18:41:17.74	WT901BLE68-01(48591DE3C19B)	-0.556	-1.045	0.132	-31.433	-45.837	181.213	-77.85	-3.77	-108.29	-70.364	-11.662	0.686	-0.36160	0.43478	-0.43478	0.70074	31.0	13111	100
2025-3-27 18:41:17.74	WT901BLE68-01(48591DE3C19B)	-0.556	-1.125	0.077	-33.630	-72.632	200.928	-78.23	-1.83	-107.25	-70.364	-11.662	0.686	-0.36160	0.43478	-0.43478	0.70074	31.0	13111	100
2025-3-27 18:41:17.135	WT901BLE68-01(48591DE3C19B)	-0.475	-1.125	0.077	-33.630	-72.632	200.928	-78.59	0.16	-106.07	-70.364	-11.662	0.686	-0.36160	0.43478	-0.43478	0.70074	31.0	13111	100
2025-3-27 18:41:17.135	WT901BLE68-01(48591DE3C19B)	-0.475	-1.278	0.042	-33.630	-97.900	216.919	-78.91	2.21	-104.77	-70.364	-11.662	0.686	-0.36160	0.43478	-0.43478	0.70074	31.0	13111	100
2025-3-27 18:41:17.135	WT901BLE68-01(48591DE3C19B)	-0.382	-1.278	0.042	-33.630	-97.900	216.919	-79.18	4.30	-103.34	-70.364	-11.662	0.686	-0.36160	0.43478	-0.43478	0.70074	31.0	13111	100
2025-3-27 18:41:17.135	WT901BLE68-01(48591DE3C19B)	-0.382	-1.493	0.027	-27.405	-112.183	229.980	-79.36	6.43	-101.84	-70.364	-11.662	0.686	-0.36160	0.43478	-0.43478	0.70074	31.0	13111	100
2025-3-27 18:41:17.167	WT901BLE68-01(48591DE3C19B)	-0.288	-1.493	0.027	-27.405	-112.183	229.980	-79.45	8.59	-100.26	-70.364	-11.662	0.686	-0.36160	0.43478	-0.43478	0.70074	31.0	13111	100
2025-3-27 18:41:17.167	WT901BLE68-01(48591DE3C19B)	-0.288	-1.557	-0.009	-10.925	-114.014	239.685	-79.39	10.78	-98.67	-70.364	-11.662	0.686	-0.36160	0.43478	-0.43478	0.70074	31.0	13111	100
2025-3-27 18:41:17.167	WT901BLE68-01(48591DE3C19B)	-0.224	-1.557	-0.009	-10.925	-114.014	239.685	-79.20	12.99	-97.04	-70.364	-11.662	0.686	-0.36160	0.43478	-0.43478	0.70074	31.0	13111	100
2025-3-27 18:41:17.167	WT901BLE68-01(48591DE3C19B)	-0.224	-1.436	-0.022	2.014	-104.004	244.629	-78.89	15.19	-95.45	-70.364	-11.662	0.686	-0.36160	0.43478	-0.43478	0.70074	31.0	13111	100
2025-3-27 18:41:17.196	WT901BLE68-01(48591DE3C19B)	-0.193	-1.436	-0.022	2.014	-104.004	244.629	-78.46	17.41	-93.88	-70.364	-11.662	0.686	-0.36160	0.43478	-0.43478	0.70074	31.0	13111	100
2025-3-27 18:41:17.196	WT901BLE68-01(48591DE3C19B)	-0.193	-1.357	-0.024	8.301	-85.815	245.911	-77.98	19.62	-92.38	-70.364	-11.662	0.686	-0.36160	0.43478	-0.43478	0.70074	31.0	13111	100
2025-3-27 18:41:17.196	WT901BLE68-01(48591DE3C19B)	-0.177	-1.357	-0.024	8.301	-85.815	245.911	-77.43	21.82	-90.93	-65.660	-12.054	-2.548	-0.36160	0.43478	-0.43478	0.70074	31.0	13111	100
2025-3-27 18:41:17.196	WT901BLE68-01(48591DE3C19B)	-0.177	-1.345	-0.026	12.573	-61.462	244.568	-76.85	24.01	-89.58	-65.660	-12.054	-2.548	-0.36160	0.43478	-0.43478	0.70074	31.0	13111	100
2025-3-27 18:41:17.255	WT901BLE68-01(48591DE3C19B)	-0.158	-1.345	-0.026	12.573	-61.462	244.568	-76.25	26.19	-88.33	-65.660	-12.054	-2.548	-0.36160	0.43478	-0.43478	0.70074	31.0	13111	100
2025-3-27 18:41:17.255	WT901BLE68-01(48591DE3C19B)	-0.158	-1.354	-0.047	14.038	-36.316	244.324	-75.64	28.37	-87.17	-65.660	-12.054	-2.548	-0.36160	0.43478	-0.43478	0.70074	31.0	13111	100
2025-3-27 18:41:17.255	WT901BLE68-01(48591DE3C19B)	-0.096	-1.354	-0.047	14.038	-36.316	244.324	-75.04	30.56	-86.12	-65.660	-12.054	-2.548	-0.36160	0.43478	-0.43478	0.70074	31.0	13111	100
2025-3-27 18:41:17.255	WT901BLE68-01(48591DE3C19B)	-0.096	-1.284	-0.068	14.587	-11.658	242.493	-74.45	32.74	-85.16	-65.660	-12.054	-2.548	-0.36160	0.43478	-0.43478	0.70074	31.0	13111	100
2025-3-27 18:41:17.285	WT901BLE68-01(48591DE3C19B)	-0.088	-1.284	-0.068	14.587	-11.658	242.493	-73.90	34.92	-84.30	-65.660	-12.054	-2.548	-0.36160	0.43478	-0.43478	0.70074	31.0	13111	100
2025-3-27 18:41:17.285	WT901BLE68-01(48591DE3C19B)	-0.088	-1.186	-0.031	9.460	5.310	238.281	-73.38	37.08	-83.52	-65.660	-12.054	-2.548	-0.36160	0.43478	-0.43478	0.70074	31.0	13111	100
2025-3-27 18:41:17.285	WT901BLE68-01(48591DE3C19B)	-0.106	-1.186	-0.031	9.460	5.310	238.281	-72.92	39.22	-82.80	-65.660	-12.054	-2.548	-0.36160	0.43478	-0.43478	0.70074	31.0	13111	100
2025-3-27 18:41:17.285	WT901BLE68-01(48591DE3C19B)	-0.106	-1.129	0.010	4.272	2.380	229.675	-72.43	41.30	-82.05	-65.660	-12.054	-2.548	-0.36160	0.43478	-0.43478	0.70074	31.0	13111	100
2025-3-27 18:41:17.315	WT901BLE68-01(48591DE3C19B)	-0.118	-1.129	0.010	4.272	2.380	229.675	-71.92	43.31	-81.26	-65.660	-12.054	-2.548	-0.36160	0.43478	-0.43478	0.70074	31.0	13111	100
2025-3-27 18:41:17.315	WT901BLE68-01(48591DE3C19B)	-0.118	-1.110	0.036	-1.221	-7.507	216.064	-71.36	45.23	-80.39	-65.660	-12.054	-2.548	-0.36160	0.43478	-0.43478	0.70074	31.0	13111	100
2025-3-27 18:41:17.315	WT901BLE68-01(48591DE3C19B)	-0.097	-1.110	0.036	-1.221	-7.507	216.064	-70.75	47.04	-79.43	-65.660	-12.054	-2.548	-0.36160	0.43478	-0.43478	0.70074	31.0	13111	100
2025-3-27 18:41:17.315	WT901BLE68-01(48591DE3C19B)	-0.097	-1.201	0.081	-6.958	-22.278	195.190	-70.05	48.60	-78.32	-65.660	-12.054	-2.548	-0.36160	0.43478	-0.43478	0.70074	31.0	13111	100
2025-3-27 18:41:17.374	WT901BLE68-01(48591DE3C19B)	-0.063	-1.201	0.081	-6.958	-22.278	195.190	-69.30	50.13	-77.15	-65.660	-12.054	-2.548	-0.36160	0.43478	-0.43478	0.70074	31.0	13111	100
2025-3-27 18:41:17.374	WT901BLE68-01(48591DE3C19B)	-0.063	-1.425	0.102	-10.864	-48.035	166.077	-68.35	51.27	-75.71	-65.660	-12.054	-2.548	-0.36160	0.43478	-0.43478	0.70074	31.0	13111	100
2025-3-27 18:41:17.375	WT901BLE68-01(48591DE3C19B)	0.088	-1.425	0.102	-10.864	-48.035	166.077	-67.33	52.39	-74.22	-65.660	-12.054	-2.548	-0.36160	0.43478	-0.43478	0.70074	31.0	13111	100
2025-3-27 18:41:17.375	WT901BLE68-01(48591DE3C19B)	0.088	-1.681	0.067	-5.493	-70.129	129.456	-66.13	53.06	-72.57	-65.660	-12.054	-2.548	-0.36160	0.43478	-0.43478	0.70074	31.0	13111	100
2025-3-27 18:41:17.403	WT901BLE68-01(48591DE3C19B)	0.283	-1.681	0.067	-5.493	-70.129	129.456	-64.89	53.71	-70.89	-65.660	-12.054	-2.548	-0.75388	0.16885	-0.58810	0.23917	31.0	13111	100
2025-3-27 18:41:17.403	WT901BLE68-01(48591DE3C19B)	0.283	-1.844	0.054	3.906	-69.763	92.468	-63.75	53.98	-69.46	-65.660	-12.054	-2.548	-0.75388	0.16885	-0.58810	0.23917	31.0	13111	100
2025-3-27 18:41:17.404	WT901BLE68-01(48591DE3C19B)	0.407	-1.844	0.054	3.906	-69.763	92.468	-62.61	54.23	-68.02	-65.660	-12.054	-2.548	-0.75388	0.16885	-0.58810	0.23917	31.0	13111	100
2025-3-27 18:41:17.404	WT901BLE68-01(48591DE3C19B)	0.407	-1.797	0.078	8.545	-54.810	51.636	-61.86	54.17	-67.13	-65.660	-12.054	-2.548	-0.75388	0.16885	-0.58810	0.23917	31.0	13111	100
2025-3-27 18:41:17.465	WT901BLE68-01(48591DE3C19B)	0.387	-1.797	0.078	8.545	-54.810	51.636	-61.13	54.09	-66.26	-65.660	-12.054	-2.548	-0.75388	0.16885	-0.58810	0.23917	31.0	13111	100
2025-3-27 18:41:17.465	WT901BLE68-01(48591DE3C19B)	0.387	-1.696	0.153	-0.793	-31.128	4.761	-61.10	53.71	-66.13	-65.660	-12.054	-2.548	-0.75388	0.16885	-0.58810	0.23917	31.0	13111	100
2025-3-27 18:41:17.465	WT901BLE68-01(48591DE3C19B)	0.250	-1.696	0.153	-0.793	-31.128	4.761	-61.07	53.33	-66.01	-65.660	-12.054	-2.548	-0.75388	0.16885	-0.58810	0.23917	31.0	13111	100
2025-3-27 18:41:17.465	WT901BLE68-01(48591DE3C19B)	0.250	-1.664	0.267	-5.066	-7.202	-42.358	-61.66	52.65	-66.60	-65.660	-12.054	-2.548	-0.75388	0.16885	-0.58810	0.23917	31.0	13111	100
2025-3-27 18:41:17.495	WT901BLE68-01(48591DE3C19B)	0.165	-1.664	0.267	-5.066	-7.202	-42.358	-62.23	51.95	-67.18	-65.660	-12.054	-2.548	-0.75388	0.16885	-0.58810	0.23917	31.0	13111	100
2025-3-27 18:41:17.495	WT901BLE68-01(48591DE3C19B)	0.165	-1.515	0.255	-2.014	21.362	-93.262	-63.33	50.94	-68.49	-65.660	-12.054	-2.548	-0.75388	0.16885	-0.58810	0.23917	31.0	13111	100
2025-3-27 18:41:17.495	WT901BLE68-01(48591DE3C19B)	0.089	-1.515	0.255	-2.014	21.362	-93.262	-64.37	49.92	-69.75	-65.660	-12.054	-2.548	-0.75388	0.16885	-0.58810	0.23917	31.0	13111	100
2025-3-27 18:41:17.496	WT901BLE68-01(48591DE3C19B)	0.089	-1.318	0.209	-5.737	48.035	-141.357	-65.88	48.57	-71.60	-65.660	-12.054	-2.548	-0.75388	0.16885	-0.58810	0.23917	31.0	13111	100
2025-3-27 18:41:17.525	WT901BLE68-01(48591DE3C19B)	-0.020	-1.318	0.209	-5.737	48.035	-141.357	-67.28	47.18	-73.35	-65.660	-12.054	-2.548	-0.75388	0.16885	-0.58810	0.23917	31.0	13111	100
2025-3-27 18:41:17.525	WT901BLE68-01(48591DE3C19B)	-0.020	-1.231	0.158	-13.550	71.228	-186.768	-69.03	45.44	-75.53	-65.660	-12.054	-2.548	-0.75388	0.16885	-0.58810	0.23917	31.0	13111	100
2025-3-27 18:41:17.525	WT901BLE68-01(48591DE3C19B)	-0.134	-1.231	0.158	-13.550	71.228	-186.768	-70.64	43.67	-77.56	-65.660	-12.054	-2.548	-0.75388	0.16885	-0.58810	0.23917	31.0	13111	100
2025-3-27 18:41:17.525	WT901BLE68-01(48591DE3C19B)	-0.134	-1.176	0.118	-14.160	79.956	-223.633	-72.27	41.55	-79.72	-65.660	-12.054	-2.548	-0.75388	0.16885	-0.58810	0.23917	31.0	13111	100
2025-3-27 18:41:17.585	WT901BLE68-01(48591DE3C19B)	-0.214	-1.176	0.118	-14.160	79.956	-223.633	-73.75	39.41	-81.71	-65.660	-12.054	-2.548	-0.75388	0.16885	-0.58810	0.23917	31.0	13111	100
2025-3-27 18:41:17.585	WT901BLE68-01(48591DE3C19B)	-0.214	-1.095	0.153	-9.766	78.674	-248.474	-75.06	37.00	-83.63	-65.660	-12.054	-2.548	-0.75388	0.16885	-0.58810	0.23917	31.0	13111	100
2025-3-27 18:41:17.585	WT901BLE68-01(48591DE3C19B)	-0.246	-1.095	0.153	-9.766	78.674	-248.474	-76.23	34.58	-85.42	-65.660	-12.054	-2.548	-0.75388	0.16885	-0.58810	0.23917	31.0	13111	100
2025-3-27 18:41:17.585	WT901BLE68-01(48591DE3C19B)	-0.246	-1.050	0.179	-10.010	66.589	-270.020	-77.23	31.92	-87.00	-65.660	-12.054	-2.548	-0.75388	0.16885	-0.58810	0.23917	31.0	13111	100
2025-3-27 18:41:17.614	WT901BLE68-01(48591DE3C19B)	-0.278	-1.050	0.179	-10.010	66.589	-270.020	-78.10	29.26	-88.48	-64.974	-13.230	-3.430	-0.75388	0.16885	-0.58810	0.23917	31.0	13111	100
2025-3-27 18:41:17.614	WT901BLE68-01(48591DE3C19B)	-0.278	-1.109	0.206	-13.489	43.762	-284.912	-78.80	26.41	-89.65	-64.974	-13.230	-3.430	-0.75388	0.16885	-0.58810	0.23917	31.0	13111	100
2025-3-27 18:41:17.614	WT901BLE68-01(48591DE3C19B)	-0.330	-1.109	0.206	-13.489	43.762	-284.912	-79.41	23.57	-90.75	-64.974	-13.230	-3.430	-0.75388	0.16885	-0.58810	0.23917	31.0	13111	100
2025-3-27 18:41:17.614	WT901BLE68-01(48591DE3C19B)	-0.330	-1.236	0.225	-15.137	13.123	-295.898	-79.85	20.58	-91.48	-64.974	-13.230	-3.430	-0.75388	0.16885	-0.58810	0.23917	31.0	13111	100
2025-3-27 18:41:17.645	WT901BLE68-01(48591DE3C19B)	-0.371	-1.236	0.225	-15.137	13.123	-295.898	-80.24	17.62	-92.18	-64.974	-13.230	-3.430	-0.75388	0.16885	-0.58810	0.23917	31.0	13111	100
2025-3-27 18:41:17.645	WT901BLE68-01(48591DE3C19B)	-0.371	-1.326	0.258	-15.076	-15.564	-299.438	-80.50	14.58	-92.55	-64.974	-13.230	-3.430	-0.75388	0.16885	-0.58810	0.23917	31.0	13111	100
2025-3-27 18:41:17.645	WT901BLE68-01(48591DE3C19B)	-0.427	-1.326	0.258	-15.076	-15.564	-299.438	-80.74	11.58	-92.89	-64.974	-13.230	-3.430	-0.75388	0.16885	-0.58810	0.23917	31.0	13111	100
2025-3-27 18:41:17.645	WT901BLE68-01(48591DE3C19B)	-0.427	-1.398	0.272	-16.052	-33.691	-295.532	-80.93	8.60	-93.04	-64.974	-13.230	-3.430	-0.75388	0.16885	-0.58810	0.23917	31.0	13111	100
2025-3-27 18:41:17.705	WT901BLE68-01(48591DE3C19B)	-0.445	-1.398	0.272	-16.052	-33.691	-295.532	-81.10	5.65	-93.17	-64.974	-13.230	-3.430	-0.75388	0.16885	-0.58810	0.23917	31.0	13111	100
2025-3-27 18:41:17.705	WT901BLE68-01(48591DE3C19B)	-0.445	-1.402	0.253	-12.756	-35.217	-284.607	-81.23	2.82	-93.26	-64.974	-13.230	-3.430	-0.75388	0.16885	-0.58810	0.23917	31.0	13111	100
2025-3-27 18:41:17.705	WT901BLE68-01(48591DE3C19B)	-0.427	-1.402	0.253	-12.756	-35.217	-284.607	-81.36	0.02	-93.35	-64.974	-13.230	-3.430	-0.75388	0.16885	-0.58810	0.23917	31.0	13111	100
2025-3-27 18:41:17.705	WT901BLE68-01(48591DE3C19B)	-0.427	-1.300	0.208	-9.644	-22.400	-268.005	-81.45	-2.58	-93.52	-64.974	-13.230	-3.430	-0.75388	0.16885	-0.58810	0.23917	31.0	13111	100
2025-3-27 18:41:17.734	WT901BLE68-01(48591DE3C19B)	-0.392	-1.300	0.208	-9.644	-22.400	-268.005	-81.53	-5.16	-93.69	-64.974	-13.230	-3.430	-0.75388	0.16885	-0.58810	0.23917	31.0	13111	100
2025-3-27 18:41:17.734	WT901BLE68-01(48591DE3C19B)	-0.392	-1.168	0.181	-9.216	-5.676	-248.596	-81.58	-7.51	-93.99	-64.974	-13.230	-3.430	-0.75388	0.16885	-0.58810	0.23917	31.0	13111	100
2025-3-27 18:41:17.734	WT901BLE68-01(48591DE3C19B)	-0.391	-1.168	0.181	-9.216	-5.676	-248.596	-81.63	-9.84	-94.29	-64.974	-13.230	-3.430	-0.75388	0.16885	-0.58810	0.23917	31.0	13111	100
2025-3-27 18:41:17.734	WT901BLE68-01(48591DE3C19B)	-0.391	-1.060	0.228	-10.315	4.211	-225.342	-81.66	-11.91	-94.65	-64.974	-13.230	-3.430	-0.75388	0.16885	-0.58810	0.23917	31.0	13111	100
2025-3-27 18:41:17.795	WT901BLE68-01(48591DE3C19B)	-0.444	-1.060	0.228	-10.315	4.211	-225.342	-81.67	-13.97	-95.02	-64.974	-13.230	-3.430	-0.75388	0.16885	-0.58810	0.23917	31.0	13111	100
2025-3-27 18:41:17.795	WT901BLE68-01(48591DE3C19B)	-0.444	-0.967	0.348	-10.071	4.700	-203.369	-81.68	-15.80	-95.35	-64.974	-13.230	-3.430	-0.75388	0.16885	-0.58810	0.23917	31.0	13111	100
2025-3-27 18:41:17.795	WT901BLE68-01(48591DE3C19B)	-0.522	-0.967	0.348	-10.071	4.700	-203.369	-81.66	-17.61	-95.69	-64.974	-13.230	-3.430	-0.75388	0.16885	-0.58810	0.23917	31.0	13111	100
2025-3-27 18:41:17.796	WT901BLE68-01(48591DE3C19B)	-0.557	-0.930	0.477	-10.681	6.226	-177.917	-81.64	-19.14	-96.02	-64.974	-13.230	-3.430	-0.75388	0.16885	-0.58810	0.23917	31.0	13111	100
2025-3-27 18:41:17.855	WT901BLE68-01(48591DE3C19B)	-0.557	-0.938	0.512	-8.301	14.893	-151.123	-81.59	-20.53	-96.37	-64.974	-13.230	-3.430	-0.75388	0.16885	-0.58810	0.23917	31.0	13111	100
2025-3-27 18:41:17.855	WT901BLE68-01(48591DE3C19B)	-0.566	-0.938	0.512	-8.301	14.893	-151.123	-81.50	-21.77	-96.76	-64.974	-13.230	-3.430	-0.75388	0.16885	-0.58810	0.23917	31.0	13111	100
2025-3-27 18:41:17.855	WT901BLE68-01(48591DE3C19B)	-0.566	-0.929	0.468	-3.052	32.959	-121.948	-81.33	-22.84	-97.23	-64.974	-13.230	-3.430	-0.75388	0.16885	-0.58810	0.23917	31.0	13111	100
2025-3-27 18:41:17.855	WT901BLE68-01(48591DE3C19B)	-0.618	-0.929	0.468	-3.052	32.959	-121.948	-81.10	-23.73	-97.78	-64.974	-13.230	-3.430	-0.75388	0.16885	-0.58810	0.23917	31.0	13111	100
2025-3-27 18:41:17.857	WT901BLE68-01(48591DE3C19B)	-0.618	-0.945	0.411	0.244	49.866	-94.666	-80.80	-24.47	-98.42	-64.974	-13.230	-3.430	-0.37952	0.53543	-0.37326	0.65561	31.0	13111	100
2025-3-27 18:41:17.857	WT901BLE68-01(48591DE3C19B)	-0.732	-0.945	0.411	0.244	49.866	-94.666	-80.45	-25.04	-99.12	-64.974	-13.230	-3.430	-0.37952	0.53543	-0.37326	0.65561	31.0	13111	100
2025-3-27 18:41:17.857	WT901BLE68-01(48591DE3C19B)	-0.732	-1.079	0.379	1.587	56.641	-70.190	-80.08	-25.48	-99.85	-64.974	-13.230	-3.430	-0.37952	0.53543	-0.37326	0.65561	31.0	13111	100
2025-3-27 18:41:17.857	WT901BLE68-01(48591DE3C19B)	-0.833	-1.079	0.379	1.587	56.641	-70.190	-79.69	-25.78	-100.60	-64.974	-13.230	-3.430	-0.37952	0.53543	-0.37326	0.65561	31.0	13111	100
2025-3-27 18:41:17.886	WT901BLE68-01(48591DE3C19B)	-0.833	-1.240	0.389	5.737	56.458	-45.898	-79.29	-25.95	-101.33	-64.974	-13.230	-3.430	-0.37952	0.53543	-0.37326	0.65561	31.0	13111	100
2025-3-27 18:41:17.886	WT901BLE68-01(48591DE3C19B)	-0.879	-1.240	0.389	5.737	56.458	-45.898	-78.89	-25.99	-102.02	-64.974	-13.230	-3.430	-0.37952	0.53543	-0.37326	0.65561	31.0	13111	100
2025-3-27 18:41:17.887	WT901BLE68-01(48591DE3C19B)	-0.879	-1.290	0.411	9.888	57.800	-16.846	-78.48	-25.88	-102.70	-64.974	-13.230	-3.430	-0.37952	0.53543	-0.37326	0.65561	31.0	13111	100
2025-3-27 18:41:17.887	WT901BLE68-01(48591DE3C19B)	-0.833	-1.290	0.411	9.888	57.800	-16.846	-78.06	-25.61	-103.34	-64.974	-13.230	-3.430	-0.37952	0.53543	-0.37326	0.65561	31.0	13111	100
2025-3-27 18:41:17.945	WT901BLE68-01(48591DE3C19B)	-0.833	-1.218	0.400	8.179	62.622	15.503	-77.67	-25.19	-103.97	-64.974	-13.230	-3.430	-0.37952	0.53543	-0.37326	0.65561	31.0	13111	100
2025-3-27 18:41:17.945	WT901BLE68-01(48591DE3C19B)	-0.787	-1.218	0.400	8.179	62.622	15.503	-77.30	-24.59	-104.58	-64.974	-13.230	-3.430	-0.37952	0.53543	-0.37326	0.65561	31.0	13111	100
2025-3-27 18:41:17.945	WT901BLE68-01(48591DE3C19B)	-0.787	-1.174	0.377	-0.610	66.833	50.476	-76.99	-23.81	-105.17	-64.974	-13.230	-3.430	-0.37952	0.53543	-0.37326	0.65561	31.0	13111	100
2025-3-27 18:41:17.945	WT901BLE68-01(48591DE3C19B)	-0.800	-1.174	0.377	-0.610	66.833	50.476	-76.76	-22.86	-105.73	-64.974	-13.230	-3.430	-0.37952	0.53543	-0.37326	0.65561	31.0	13111	100
2025-3-27 18:41:18.5	WT901BLE68-01(48591DE3C19B)	-0.800	-1.134	0.386	-4.089	58.167	82.520	-76.57	-21.77	-106.19	-64.974	-13.230	-3.430	-0.37952	0.53543	-0.37326	0.65561	31.0	13111	100
2025-3-27 18:41:18.5	WT901BLE68-01(48591DE3C19B)	-0.793	-1.134	0.386	-4.089	58.167	82.520	-76.46	-20.53	-106.56	-64.974	-13.230	-3.430	-0.37952	0.53543	-0.37326	0.65561	31.0	13111	100
2025-3-27 18:41:18.5	WT901BLE68-01(48591DE3C19B)	-0.793	-1.001	0.381	-8.240	32.471	112.976	-76.43	-19.18	-106.76	-64.974	-13.230	-3.430	-0.37952	0.53543	-0.37326	0.65561	31.0	13111	100
2025-3-27 18:41:18.5	WT901BLE68-01(48591DE3C19B)	-0.761	-1.001	0.381	-8.240	32.471	112.976	-76.48	-17.72	-106.79	-64.974	-13.230	-3.430	-0.37952	0.53543	-0.37326	0.65561	31.0	13111	100
2025-3-27 18:41:18.6	WT901BLE68-01(48591DE3C19B)	-0.761	-1.009	0.325	-15.442	1.221	142.151	-76.62	-16.16	-106.64	-64.974	-13.230	-3.430	-0.37952	0.53543	-0.37326	0.65561	31.0	13111	100
2025-3-27 18:41:18.6	WT901BLE68-01(48591DE3C19B)	-0.745	-1.009	0.325	-15.442	1.221	142.151	-76.83	-14.50	-106.30	-64.974	-13.230	-3.430	-0.37952	0.53543	-0.37326	0.65561	31.0	13111	100
2025-3-27 18:41:18.6	WT901BLE68-01(48591DE3C19B)	-0.745	-1.132	0.221	-17.822	-28.442	170.227	-77.09	-12.74	-105.79	-64.974	-13.230	-3.430	-0.37952	0.53543	-0.37326	0.65561	31.0	13111	100
2025-3-27 18:41:18.6	WT901BLE68-01(48591DE3C19B)	-0.681	-1.132	0.221	-17.822	-28.442	170.227	-77.38	-10.88	-105.12	-64.974	-13.230	-3.430	-0.37952	0.53543	-0.37326	0.65561	31.0	13111	100
2025-3-27 18:41:18.65	WT901BLE68-01(48591DE3C19B)	-0.681	-1.239	0.127	-16.541	-55.908	195.679	-77.67	-8.94	-104.30	-64.974	-13.230	-3.430	-0.37952	0.53543	-0.37326	0.65561	31.0	13111	100
2025-3-27 18:41:18.65	WT901BLE68-01(48591DE3C19B)	-0.597	-1.239	0.127	-16.541	-55.908	195.679	-77.95	-6.91	-103.34	-68.698	-26.754	-2.940	-0.37952	0.53543	-0.37326	0.65561	31.0	13111	100
2025-3-27 18:41:18.65	WT901BLE68-01(48591DE3C19B)	-0.597	-1.374	0.076	-14.099	-79.651	217.957	-78.20	-4.81	-102.24	-68.698	-26.754	-2.940	-0.37952	0.53543	-0.37326	0.65561	31.0	13111	100
2025-3-27 18:41:18.66	WT901BLE68-01(48591DE3C19B)	-0.516	-1.374	0.076	-14.099	-79.651	217.957	-78.41	-2.64	-101.02	-68.698	-26.754	-2.940	-0.37952	0.53543	-0.37326	0.65561	31.0	13111	100
2025-3-27 18:41:18.95	WT901BLE68-01(48591DE3C19B)	-0.516	-1.536	0.048	-7.751	-100.159	235.535	-78.55	-0.41	-99.70	-68.698	-26.754	-2.940	-0.37952	0.53543	-0.37326	0.65561	31.0	13111	100
2025-3-27 18:41:18.95	WT901BLE68-01(48591DE3C19B)	-0.411	-1.536	0.048	-7.751	-100.159	235.535	-78.61	1.86	-98.26	-68.698	-26.754	-2.940	-0.37952	0.53543	-0.37326	0.65561	31.0	13111	100
2025-3-27 18:41:18.96	WT901BLE68-01(48591DE3C19B)	-0.411	-1.599	0.047	4.395	-113.770	249.023	-78.56	4.16	-96.75	-68.698	-26.754	-2.940	-0.37952	0.53543	-0.37326	0.65561	31.0	13111	100
2025-3-27 18:41:18.96	WT901BLE68-01(48591DE3C19B)	-0.304	-1.599	0.047	4.395	-113.770	249.023	-78.38	6.50	-95.15	-68.698	-26.754	-2.940	-0.37952	0.53543	-0.37326	0.65561	31.0	13111	100
2025-3-27 18:41:18.125	WT901BLE68-01(48591DE3C19B)	-0.304	-1.540	0.060	17.334	-114.441	258.423	-78.06	8.85	-93.52	-68.698	-26.754	-2.940	-0.37952	0.53543	-0.37326	0.65561	31.0	13111	100
2025-3-27 18:41:18.125	WT901BLE68-01(48591DE3C19B)	-0.272	-1.540	0.060	17.334	-114.441	258.423	-77.62	11.21	-91.87	-68.698	-26.754	-2.940	-0.37952	0.53543	-0.37326	0.65561	31.0	13111	100
2025-3-27 18:41:18.125	WT901BLE68-01(48591DE3C19B)	-0.272	-1.479	0.071	25.146	-107.483	265.198	-77.07	13.58	-90.22	-68.698	-26.754	-2.940	-0.37952	0.53543	-0.37326	0.65561	31.0	13111	100
2025-3-27 18:41:18.125	WT901BLE68-01(48591DE3C19B)	-0.255	-1.479	0.071	25.146	-107.483	265.198	-76.43	15.95	-88.56	-68.698	-26.754	-2.940	-0.37952	0.53543	-0.37326	0.65561	31.0	13111	100
2025-3-27 18:41:18.185	WT901BLE68-01(48591DE3C19B)	-0.255	-1.453	0.074	33.325	-97.595	270.081	-75.67	18.32	-86.91	-68.698	-26.754	-2.940	-0.37952	0.53543	-0.37326	0.65561	31.0	13111	100
2025-3-27 18:41:18.185	WT901BLE68-01(48591DE3C19B)	-0.208	-1.453	0.074	33.325	-97.595	270.081	-74.82	20.68	-85.26	-68.698	-26.754	-2.940	-0.37952	0.53543	-0.37326	0.65561	31.0	13111	100
2025-3-27 18:41:18.185	WT901BLE68-01(48591DE3C19B)	-0.208	-1.426	0.083	40.588	-80.505	273.132	-73.88	23.04	-83.63	-68.698	-26.754	-2.940	-0.37952	0.53543	-0.37326	0.65561	31.0	13111	100
2025-3-27 18:41:18.185	WT901BLE68-01(48591DE3C19B)	-0.173	-1.426	0.083	40.588	-80.505	273.132	-72.86	25.39	-82.03	-68.698	-26.754	-2.940	-0.37952	0.53543	-0.37326	0.65561	31.0	13111	100
2025-3-27 18:41:18.245	WT901BLE68-01(48591DE3C19B)	-0.173	-1.451	0.047	44.739	-54.199	274.048	-71.78	27.73	-80.50	-68.698	-26.754	-2.940	-0.69717	0.30249	-0.51740	0.39322	31.0	13111	100
2025-3-27 18:41:18.245	WT901BLE68-01(48591DE3C19B)	-0.151	-1.451	0.047	44.739	-54.199	274.048	-70.67	30.09	-79.04	-68.698	-26.754	-2.940	-0.69717	0.30249	-0.51740	0.39322	31.0	13111	100
2025-3-27 18:41:18.245	WT901BLE68-01(48591DE3C19B)	-0.151	-1.440	0.001	45.776	-29.968	273.315	-69.53	32.43	-77.63	-68.698	-26.754	-2.940	-0.69717	0.30249	-0.51740	0.39322	31.0	13111	100
2025-3-27 18:41:18.245	WT901BLE68-01(48591DE3C19B)	-0.136	-1.440	0.001	45.776	-29.968	273.315	-68.38	34.77	-76.28	-68.698	-26.754	-2.940	-0.69717	0.30249	-0.51740	0.39322	31.0	13111	100
2025-3-27 18:41:18.246	WT901BLE68-01(48591DE3C19B)	-0.136	-1.458	-0.008	39.551	-10.986	268.372	-67.23	37.08	-74.96	-68.698	-26.754	-2.940	-0.69717	0.30249	-0.51740	0.39322	31.0	13111	100
2025-3-27 18:41:18.246	WT901BLE68-01(48591DE3C19B)	-0.178	-1.458	-0.008	39.551	-10.986	268.372	-66.09	39.38	-73.67	-68.698	-26.754	-2.940	-0.69717	0.30249	-0.51740	0.39322	31.0	13111	100
2025-3-27 18:41:18.247	WT901BLE68-01(48591DE3C19B)	-0.178	-1.569	0.014	31.738	-4.395	258.911	-65.03	41.57	-72.43	-68.698	-26.754	-2.940	-0.69717	0.30249	-0.51740	0.39322	31.0	13111	100
2025-3-27 18:41:18.247	WT901BLE68-01(48591DE3C19B)	-0.169	-1.569	0.014	31.738	-4.395	258.911	-63.87	43.73	-71.10	-68.698	-26.754	-2.940	-0.69717	0.30249	-0.51740	0.39322	31.0	13111	100
2025-3-27 18:41:18.304	WT901BLE68-01(48591DE3C19B)	-0.169	-1.559	0.049	31.433	-10.925	246.887	-62.60	45.73	-69.66	-68.698	-26.754	-2.940	-0.69717	0.30249	-0.51740	0.39322	31.0	13111	100
2025-3-27 18:41:18.305	WT901BLE68-01(48591DE3C19B)	-0.114	-1.559	0.049	31.433	-10.925	246.887	-61.22	47.68	-68.12	-68.698	-26.754	-2.940	-0.69717	0.30249	-0.51740	0.39322	31.0	13111	100
2025-3-27 18:41:18.305	WT901BLE68-01(48591DE3C19B)	-0.114	-1.436	0.102	28.748	-21.912	229.370	-59.74	49.39	-66.45	-68.698	-26.754	-2.940	-0.69717	0.30249	-0.51740	0.39322	31.0	13111	100
2025-3-27 18:41:18.305	WT901BLE68-01(48591DE3C19B)	0.001	-1.436	0.102	28.748	-21.912	229.370	-58.13	51.05	-64.66	-68.698	-26.754	-2.940	-0.69717	0.30249	-0.51740	0.39322	31.0	13111	100
2025-3-27 18:41:18.334	WT901BLE68-01(48591DE3C19B)	0.001	-1.444	0.105	20.874	-26.794	201.965	-56.62	52.42	-62.92	-68.698	-26.754	-2.940	-0.69717	0.30249	-0.51740	0.39322	31.0	13111	100
2025-3-27 18:41:18.334	WT901BLE68-01(48591DE3C19B)	0.103	-1.444	0.105	20.874	-26.794	201.965	-54.99	53.75	-61.08	-68.698	-26.754	-2.940	-0.69717	0.30249	-0.51740	0.39322	31.0	13111	100
2025-3-27 18:41:18.334	WT901BLE68-01(48591DE3C19B)	0.103	-1.455	0.076	18.860	-18.127	168.884	-53.66	54.82	-59.60	-68.698	-26.754	-2.940	-0.69717	0.30249	-0.51740	0.39322	31.0	13111	100
2025-3-27 18:41:18.334	WT901BLE68-01(48591DE3C19B)	0.173	-1.455	0.076	18.860	-18.127	168.884	-52.25	55.85	-58.05	-68.698	-26.754	-2.940	-0.69717	0.30249	-0.51740	0.39322	31.0	13111	100
2025-3-27 18:41:18.367	WT901BLE68-01(48591DE3C19B)	0.173	-1.442	0.052	12.695	-7.263	124.512	-51.37	56.59	-57.08	-68.698	-26.754	-2.940	-0.69717	0.30249	-0.51740	0.39322	31.0	13111	100
2025-3-27 18:41:18.367	WT901BLE68-01(48591DE3C19B)	0.162	-1.442	0.052	12.695	-7.263	124.512	-50.47	57.29	-56.08	-68.698	-26.754	-2.940	-0.69717	0.30249	-0.51740	0.39322	31.0	13111	100
2025-3-27 18:41:18.367	WT901BLE68-01(48591DE3C19B)	0.162	-1.450	0.083	1.770	-1.831	76.172	-50.20	57.66	-55.72	-68.698	-26.754	-2.940	-0.69717	0.30249	-0.51740	0.39322	31.0	13111	100
2025-3-27 18:41:18.367	WT901BLE68-01(48591DE3C19B)	0.072	-1.450	0.083	1.770	-1.831	76.172	-49.93	58.01	-55.35	-68.698	-26.754	-2.940	-0.69717	0.30249	-0.51740	0.39322	31.0	13111	100
2025-3-27 18:41:18.425	WT901BLE68-01(48591DE3C19B)	0.072	-1.409	0.185	-7.935	-3.113	23.987	-50.27	57.96	-55.60	-68.698	-26.754	-2.940	-0.69717	0.30249	-0.51740	0.39322	31.0	13111	100
2025-3-27 18:41:18.425	WT901BLE68-01(48591DE3C19B)	0.103	-1.409	0.185	-7.935	-3.113	23.987	-50.61	57.90	-55.84	-79.968	-21.462	-12.054	-0.69717	0.30249	-0.51740	0.39322	31.0	13111	100
2025-3-27 18:41:18.425	WT901BLE68-01(48591DE3C19B)	0.103	-1.359	0.255	-11.414	-6.653	-24.719	-51.43	57.44	-56.61	-79.968	-21.462	-12.054	-0.69717	0.30249	-0.51740	0.39322	31.0	13111	100
2025-3-27 18:41:18.425	WT901BLE68-01(48591DE3C19B)	0.179	-1.359	0.255	-11.414	-6.653	-24.719	-52.21	56.98	-57.35	-79.968	-21.462	-12.054	-0.69717	0.30249	-0.51740	0.39322	31.0	13111	100
2025-3-27 18:41:18.453	WT901BLE68-01(48591DE3C19B)	0.179	-1.250	0.174	-10.315	7.202	-69.153	-53.52	56.23	-58.74	-79.968	-21.462	-12.054	-0.69717	0.30249	-0.51740	0.39322	31.0	13111	100
2025-3-27 18:41:18.454	WT901BLE68-01(48591DE3C19B)	0.173	-1.250	0.174	-10.315	7.202	-69.153	-54.77	55.47	-60.08	-79.968	-21.462	-12.054	-0.69717	0.30249	-0.51740	0.39322	31.0	13111	100
2025-3-27 18:41:18.454	WT901BLE68-01(48591DE3C19B)	0.173	-1.108	0.101	-13.245	25.757	-107.300	-56.51	54.48	-61.98	-79.968	-21.462	-12.054	-0.69717	0.30249	-0.51740	0.39322	31.0	13111	100
2025-3-27 18:41:18.454	WT901BLE68-01(48591DE3C19B)	0.133	-1.108	0.101	-13.245	25.757	-107.300	-58.14	53.46	-63.79	-79.968	-21.462	-12.054	-0.69717	0.30249	-0.51740	0.39322	31.0	13111	100
2025-3-27 18:41:18.484	WT901BLE68-01(48591DE3C19B)	0.133	-1.042	0.073	-19.470	40.710	-141.479	-60.13	52.20	-65.98	-79.968	-21.462	-12.054	-0.69717	0.30249	-0.51740	0.39322	31.0	13111	100
2025-3-27 18:41:18.484	WT901BLE68-01(48591DE3C19B)	0.062	-1.042	0.073	-19.470	40.710	-141.479	-61.97	50.90	-68.03	-79.968	-21.462	-12.054	-0.69717	0.30249	-0.51740	0.39322	31.0	13111	100
2025-3-27 18:41:18.484	WT901BLE68-01(48591DE3C19B)	0.062	-1.030	0.087	-23.804	57.251	-170.471	-64.05	49.38	-70.38	-79.968	-21.462	-12.054	-0.69717	0.30249	-0.51740	0.39322	31.0	13111	100
2025-3-27 18:41:18.485	WT901BLE68-01(48591DE3C19B)	-0.041	-1.030	0.087	-23.804	57.251	-170.471	-65.97	47.82	-72.56	-79.968	-21.462	-12.054	-0.69717	0.30249	-0.51740	0.39322	31.0	13111	100
2025-3-27 18:41:18.545	WT901BLE68-01(48591DE3C19B)	-0.041	-0.997	0.131	-23.987	70.740	-195.801	-67.96	46.04	-74.91	-79.968	-21.462	-12.054	-0.69717	0.30249	-0.51740	0.39322	31.0	13111	100
2025-3-27 18:41:18.545	WT901BLE68-01(48591DE3C19B)	-0.134	-0.997	0.131	-23.987	70.740	-195.801	-69.77	44.21	-77.09	-79.968	-21.462	-12.054	-0.69717	0.30249	-0.51740	0.39322	31.0	13111	100
2025-3-27 18:41:18.545	WT901BLE68-01(48591DE3C19B)	-0.134	-0.992	0.174	-24.902	76.538	-218.506	-71.55	42.17	-79.28	-79.968	-21.462	-12.054	-0.69717	0.30249	-0.51740	0.39322	31.0	13111	100
2025-3-27 18:41:18.545	WT901BLE68-01(48591DE3C19B)	-0.207	-0.992	0.174	-24.902	76.538	-218.506	-73.15	40.09	-81.32	-79.968	-21.462	-12.054	-0.69717	0.30249	-0.51740	0.39322	31.0	13111	100
2025-3-27 18:41:18.576	WT901BLE68-01(48591DE3C19B)	-0.207	-1.033	0.225	-24.170	75.378	-239.014	-74.64	37.79	-83.26	-79.968	-21.462	-12.054	-0.69717	0.30249	-0.51740	0.39322	31.0	13111	100
2025-3-27 18:41:18.576	WT901BLE68-01(48591DE3C19B)	-0.255	-1.033	0.225	-24.170	75.378	-239.014	-75.96	35.47	-85.06	-79.968	-21.462	-12.054	-0.69717	0.30249	-0.51740	0.39322	31.0	13111	100
2025-3-27 18:41:18.576	WT901BLE68-01(48591DE3C19B)	-0.255	-1.112	0.236	-23.743	67.932	-258.911	-77.12	32.93	-86.71	-79.968	-21.462	-12.054	-0.69717	0.30249	-0.51740	0.39322	31.0	13111	100
2025-3-27 18:41:18.577	WT901BLE68-01(48591DE3C19B)	-0.294	-1.112	0.236	-23.743	67.932	-258.911	-78.17	30.38	-88.25	-79.968	-21.462	-12.054	-0.69717	0.30249	-0.51740	0.39322	31.0	13111	100
2025-3-27 18:41:18.606	WT901BLE68-01(48591DE3C19B)	-0.294	-1.211	0.229	-19.836	64.270	-275.940	-79.06	27.66	-89.69	-79.968	-21.462	-12.054	-0.69717	0.30249	-0.51740	0.39322	31.0	13111	100
2025-3-27 18:41:18.606	WT901BLE68-01(48591DE3C19B)	-0.401	-1.211	0.229	-19.836	64.270	-275.940	-79.84	24.94	-91.04	-79.968	-21.462	-12.054	-0.69717	0.30249	-0.51740	0.39322	31.0	13111	100
2025-3-27 18:41:18.606	WT901BLE68-01(48591DE3C19B)	-0.401	-1.298	0.211	-14.526	58.044	-286.499	-80.47	22.13	-92.27	-79.968	-21.462	-12.054	-0.60849	0.33365	-0.55853	0.45422	31.0	13111	100
2025-3-27 18:41:18.606	WT901BLE68-01(48591DE3C19B)	-0.478	-1.298	0.211	-14.526	58.044	-286.499	-81.02	19.31	-93.44	-79.968	-21.462	-12.054	-0.60849	0.33365	-0.55853	0.45422	31.0	13111	100
2025-3-27 18:41:18.665	WT901BLE68-01(48591DE3C19B)	-0.478	-1.346	0.182	-6.409	45.410	-291.809	-81.38	16.45	-94.44	-79.968	-21.462	-12.054	-0.60849	0.33365	-0.55853	0.45422	31.0	13111	100
2025-3-27 18:41:18.665	WT901BLE68-01(48591DE3C19B)	-0.445	-1.346	0.182	-6.409	45.410	-291.809	-81.68	13.61	-95.41	-79.968	-21.462	-12.054	-0.60849	0.33365	-0.55853	0.45422	31.0	13111	100
2025-3-27 18:41:18.665	WT901BLE68-01(48591DE3C19B)	-0.445	-1.298	0.168	1.587	31.128	-292.419	-81.82	10.76	-96.20	-79.968	-21.462	-12.054	-0.60849	0.33365	-0.55853	0.45422	31.0	13111	100
2025-3-27 18:41:18.665	WT901BLE68-01(48591DE3C19B)	-0.425	-1.298	0.168	1.587	31.128	-292.419	-81.91	7.92	-96.98	-79.968	-21.462	-12.054	-0.60849	0.33365	-0.55853	0.45422	31.0	13111	100
2025-3-27 18:41:18.696	WT901BLE68-01(48591DE3C19B)	-0.425	-1.233	0.174	0.549	21.362	-287.354	-81.97	5.15	-97.64	-79.968	-21.462	-12.054	-0.60849	0.33365	-0.55853	0.45422	31.0	13111	100
2025-3-27 18:41:18.696	WT901BLE68-01(48591DE3C19B)	-0.476	-1.233	0.174	0.549	21.362	-287.354	-82.01	2.40	-98.29	-79.968	-21.462	-12.054	-0.60849	0.33365	-0.55853	0.45422	31.0	13111	100
2025-3-27 18:41:18.696	WT901BLE68-01(48591DE3C19B)	-0.476	-1.228	0.212	-1.892	20.874	-278.992	-82.03	-0.25	-98.92	-79.968	-21.462	-12.054	-0.60849	0.33365	-0.55853	0.45422	31.0	13111	100
2025-3-27 18:41:18.696	WT901BLE68-01(48591DE3C19B)	-0.641	-1.228	0.212	-1.892	20.874	-278.992	-82.02	-2.89	-99.55	-79.968	-21.462	-12.054	-0.60849	0.33365	-0.55853	0.45422	31.0	13111	100
2025-3-27 18:41:18.725	WT901BLE68-01(48591DE3C19B)	-0.773	-1.231	0.292	-2.014	11.597	-267.944	-82.00	-5.41	-100.07	-79.968	-21.462	-12.054	-0.60849	0.33365	-0.55853	0.45422	31.0	13111	100
2025-3-27 18:41:18.725	WT901BLE68-01(48591DE3C19B)	-0.773	-1.262	0.377	-1.282	-4.395	-251.343	-81.95	-7.82	-100.51	-79.968	-21.462	-12.054	-0.60849	0.33365	-0.55853	0.45422	31.0	13111	100
2025-3-27 18:41:18.725	WT901BLE68-01(48591DE3C19B)	-0.774	-1.262	0.377	-1.282	-4.395	-251.343	-81.89	-10.15	-100.86	-79.968	-21.462	-12.054	-0.60849	0.33365	-0.55853	0.45422	31.0	13111	100
2025-3-27 18:41:18.725	WT901BLE68-01(48591DE3C19B)	-0.774	-1.257	0.385	0.916	-11.841	-226.807	-81.82	-12.34	-101.16	-79.968	-21.462	-12.054	-0.60849	0.33365	-0.55853	0.45422	31.0	13111	100
2025-3-27 18:41:18.815	WT901BLE68-01(48591DE3C19B)	-0.708	-1.257	0.385	0.916	-11.841	-226.807	-81.73	-14.40	-101.42	-79.968	-21.462	-12.054	-0.60849	0.33365	-0.55853	0.45422	31.0	13111	100
2025-3-27 18:41:18.815	WT901BLE68-01(48591DE3C19B)	-0.708	-1.246	0.330	1.038	-7.935	-196.411	-81.62	-16.29	-101.69	-79.968	-21.462	-12.054	-0.60849	0.33365	-0.55853	0.45422	31.0	13111	100
2025-3-27 18:41:18.815	WT901BLE68-01(48591DE3C19B)	-0.688	-1.246	0.330	1.038	-7.935	-196.411	-81.51	-18.00	-101.96	-79.968	-21.462	-12.054	-0.60849	0.33365	-0.55853	0.45422	31.0	13111	100
2025-3-27 18:41:18.815	WT901BLE68-01(48591DE3C19B)	-0.688	-1.262	0.299	1.221	0.427	-167.236	-81.38	-19.56	-102.26	-79.968	-21.462	-12.054	-0.60849	0.33365	-0.55853	0.45422	31.0	13111	100
2025-3-27 18:41:18.816	WT901BLE68-01(48591DE3C19B)	-0.730	-1.262	0.299	1.221	0.427	-167.236	-81.23	-20.95	-102.58	-79.968	-21.462	-12.054	-0.60849	0.33365	-0.55853	0.45422	31.0	13111	100
2025-3-27 18:41:18.817	WT901BLE68-01(48591DE3C19B)	-0.730	-1.320	0.337	1.282	8.118	-138.245	-81.06	-22.19	-102.94	-79.968	-21.462	-12.054	-0.60849	0.33365	-0.55853	0.45422	31.0	13111	100
2025-3-27 18:41:18.817	WT901BLE68-01(48591DE3C19B)	-0.810	-1.320	0.337	1.282	8.118	-138.245	-80.88	-23.26	-103.32	-79.968	-21.462	-12.054	-0.60849	0.33365	-0.55853	0.45422	31.0	13111	100
2025-3-27 18:41:18.817	WT901BLE68-01(48591DE3C19B)	-0.810	-1.393	0.400	2.625	15.259	-104.736	-80.68	-24.16	-103.72	-68.992	-35.966	-10.584	-0.60849	0.33365	-0.55853	0.45422	31.0	13111	100
2025-3-27 18:41:18.846	WT901BLE68-01(48591DE3C19B)	-0.845	-1.393	0.400	2.625	15.259	-104.736	-80.46	-24.88	-104.13	-68.992	-35.966	-10.584	-0.60849	0.33365	-0.55853	0.45422	31.0	13111	100
2025-3-27 18:41:18.846	WT901BLE68-01(48591DE3C19B)	-0.845	-1.361	0.439	1.160	28.748	-67.993	-80.22	-25.39	-104.58	-68.992	-35.966	-10.584	-0.60849	0.33365	-0.55853	0.45422	31.0	13111	100
2025-3-27 18:41:18.846	WT901BLE68-01(48591DE3C19B)	-0.831	-1.361	0.439	1.160	28.748	-67.993	-79.97	-25.71	-105.10	-68.992	-35.966	-10.584	-0.60849	0.33365	-0.55853	0.45422	31.0	13111	100
2025-3-27 18:41:18.846	WT901BLE68-01(48591DE3C19B)	-0.831	-1.277	0.439	-5.493	42.114	-27.771	-79.73	-25.82	-105.64	-68.992	-35.966	-10.584	-0.60849	0.33365	-0.55853	0.45422	31.0	13111	100
2025-3-27 18:41:18.904	WT901BLE68-01(48591DE3C19B)	-0.796	-1.277	0.439	-5.493	42.114	-27.771	-79.50	-25.71	-106.22	-68.992	-35.966	-10.584	-0.60849	0.33365	-0.55853	0.45422	31.0	13111	100
2025-3-27 18:41:18.904	WT901BLE68-01(48591DE3C19B)	-0.796	-1.206	0.440	-14.160	46.265	13.977	-79.33	-25.39	-106.79	-68.992	-35.966	-10.584	-0.60849	0.33365	-0.55853	0.45422	31.0	13111	100
2025-3-27 18:41:18.904	WT901BLE68-01(48591DE3C19B)	-0.803	-1.206	0.440	-14.160	46.265	13.977	-79.21	-24.86	-107.34	-68.992	-35.966	-10.584	-0.60849	0.33365	-0.55853	0.45422	31.0	13111	100
2025-3-27 18:41:18.904	WT901BLE68-01(48591DE3C19B)	-0.803	-1.129	0.445	-18.860	35.889	52.429	-79.16	-24.16	-107.79	-68.992	-35.966	-10.584	-0.60849	0.33365	-0.55853	0.45422	31.0	13111	100
2025-3-27 18:41:18.967	WT901BLE68-01(48591DE3C19B)	-0.809	-1.129	0.445	-18.860	35.889	52.429	-79.17	-23.27	-108.15	-68.992	-35.966	-10.584	-0.60849	0.33365	-0.55853	0.45422	31.0	13111	100
2025-3-27 18:41:18.967	WT901BLE68-01(48591DE3C19B)	-0.809	-1.030	0.430	-20.569	14.282	85.571	-79.24	-22.25	-108.36	-68.992	-35.966	-10.584	-0.60849	0.33365	-0.55853	0.45422	31.0	13111	100
2025-3-27 18:41:18.967	WT901BLE68-01(48591DE3C19B)	-0.802	-1.030	0.430	-20.569	14.282	85.571	-79.38	-21.09	-108.44	-68.992	-35.966	-10.584	-0.60849	0.33365	-0.55853	0.45422	31.0	13111	100
2025-3-27 18:41:18.967	WT901BLE68-01(48591DE3C19B)	-0.802	-1.003	0.383	-18.250	-12.817	116.394	-79.56	-19.81	-108.34	-68.992	-35.966	-10.584	-0.60849	0.33365	-0.55853	0.45422	31.0	13111	100
2025-3-27 18:41:18.996	WT901BLE68-01(48591DE3C19B)	-0.704	-1.003	0.383	-18.250	-12.817	116.394	-79.77	-18.40	-108.09	-68.992	-35.966	-10.584	-0.60849	0.33365	-0.55853	0.45422	31.0	13111	100
2025-3-27 18:41:18.996	WT901BLE68-01(48591DE3C19B)	-0.704	-0.949	0.268	-9.705	-30.701	145.508	-79.96	-16.88	-107.74	-68.992	-35.966	-10.584	-0.60849	0.33365	-0.55853	0.45422	31.0	13111	100
2025-3-27 18:41:18.996	WT901BLE68-01(48591DE3C19B)	-0.571	-0.949	0.268	-9.705	-30.701	145.508	-80.13	-15.22	-107.28	-68.992	-35.966	-10.584	-0.60849	0.33365	-0.55853	0.45422	31.0	13111	100
2025-3-27 18:41:18.996	WT901BLE68-01(48591DE3C19B)	-0.571	-0.956	0.127	-4.517	-36.438	173.523	-80.27	-13.45	-106.77	-68.992	-35.966	-10.584	-0.60849	0.33365	-0.55853	0.45422	31.0	13111	100
2025-3-27 18:41:19.27	WT901BLE68-01(48591DE3C19B)	-0.491	-0.956	0.127	-4.517	-36.438	173.523	-80.38	-11.55	-106.22	-68.992	-35.966	-10.584	-0.60849	0.33365	-0.55853	0.45422	31.0	13111	100
2025-3-27 18:41:19.27	WT901BLE68-01(48591DE3C19B)	-0.491	-1.083	0.046	1.221	-38.391	197.754	-80.45	-9.54	-105.64	-68.992	-35.966	-10.584	-0.41696	0.43948	-0.47433	0.63867	31.0	13111	100
2025-3-27 18:41:19.27	WT901BLE68-01(48591DE3C19B)	-0.455	-1.083	0.046	1.221	-38.391	197.754	-80.47	-7.43	-105.03	-68.992	-35.966	-10.584	-0.41696	0.43948	-0.47433	0.63867	31.0	13111	100
2025-3-27 18:41:19.27	WT901BLE68-01(48591DE3C19B)	-0.455	-1.244	0.031	6.348	-41.626	214.722	-80.47	-5.25	-104.39	-68.992	-35.966	-10.584	-0.41696	0.43948	-0.47433	0.63867	31.0	13111	100
2025-3-27 18:41:19.56	WT901BLE68-01(48591DE3C19B)	-0.453	-1.244	0.031	6.348	-41.626	214.722	-80.41	-3.01	-103.72	-68.992	-35.966	-10.584	-0.41696	0.43948	-0.47433	0.63867	31.0	13111	100
2025-3-27 18:41:19.56	WT901BLE68-01(48591DE3C19B)	-0.453	-1.429	0.049	11.658	-49.988	224.670	-80.32	-0.75	-102.99	-68.992	-35.966	-10.584	-0.41696	0.43948	-0.47433	0.63867	31.0	13111	100
2025-3-27 18:41:19.56	WT901BLE68-01(48591DE3C19B)	-0.436	-1.429	0.049	11.658	-49.988	224.670	-80.18	1.54	-102.21	-68.992	-35.966	-10.584	-0.41696	0.43948	-0.47433	0.63867	31.0	13111	100
2025-3-27 18:41:19.56	WT901BLE68-01(48591DE3C19B)	-0.436	-1.525	0.076	20.752	-60.059	230.164	-79.96	3.82	-101.35	-68.992	-35.966	-10.584	-0.41696	0.43948	-0.47433	0.63867	31.0	13111	100
2025-3-27 18:41:19.115	WT901BLE68-01(48591DE3C19B)	-0.384	-1.525	0.076	20.752	-60.059	230.164	-79.66	6.10	-100.44	-68.992	-35.966	-10.584	-0.41696	0.43948	-0.47433	0.63867	31.0	13111	100
2025-3-27 18:41:19.115	WT901BLE68-01(48591DE3C19B)	-0.384	-1.519	0.111	27.588	-61.035	234.558	-79.29	8.37	-99.50	-68.992	-35.966	-10.584	-0.41696	0.43948	-0.47433	0.63867	31.0	13111	100
2025-3-27 18:41:19.115	WT901BLE68-01(48591DE3C19B)	-0.339	-1.519	0.111	27.588	-61.035	234.558	-78.85	10.63	-98.53	-68.992	-35.966	-10.584	-0.41696	0.43948	-0.47433	0.63867	31.0	13111	100
2025-3-27 18:41:19.115	WT901BLE68-01(48591DE3C19B)	-0.339	-1.490	0.104	29.480	-50.598	240.173	-78.38	12.91	-97.58	-68.992	-35.966	-10.584	-0.41696	0.43948	-0.47433	0.63867	31.0	13111	100
2025-3-27 18:41:19.176	WT901BLE68-01(48591DE3C19B)	-0.286	-1.490	0.104	29.480	-50.598	240.173	-77.86	15.21	-96.65	-68.992	-35.966	-10.584	-0.41696	0.43948	-0.47433	0.63867	31.0	13111	100
2025-3-27 18:41:19.177	WT901BLE68-01(48591DE3C19B)	-0.286	-1.382	0.080	30.518	-33.936	245.667	-77.32	17.51	-95.78	-68.992	-35.966	-10.584	-0.41696	0.43948	-0.47433	0.63867	31.0	13111	100
2025-3-27 18:41:19.177	WT901BLE68-01(48591DE3C19B)	-0.238	-1.382	0.080	30.518	-33.936	245.667	-76.76	19.84	-94.95	-68.992	-35.966	-10.584	-0.41696	0.43948	-0.47433	0.63867	31.0	13111	100
2025-3-27 18:41:19.177	WT901BLE68-01(48591DE3C19B)	-0.238	-1.255	0.049	25.513	-17.944	251.953	-76.21	22.18	-94.16	-68.992	-35.966	-10.584	-0.41696	0.43948	-0.47433	0.63867	31.0	13111	100
2025-3-27 18:41:19.177	WT901BLE68-01(48591DE3C19B)	-0.193	-1.255	0.049	25.513	-17.944	251.953	-75.67	24.55	-93.42	-68.992	-35.966	-10.584	-0.41696	0.43948	-0.47433	0.63867	31.0	13111	100
2025-3-27 18:41:19.177	WT901BLE68-01(48591DE3C19B)	-0.193	-1.168	0.037	18.005	-2.747	255.798	-75.16	26.94	-92.72	-68.992	-35.966	-10.584	-0.41696	0.43948	-0.47433	0.63867	31.0	13111	100
2025-3-27 18:41:19.177	WT901BLE68-01(48591DE3C19B)	-0.229	-1.168	0.037	18.005	-2.747	255.798	-74.69	29.34	-92.06	-68.992	-35.966	-10.584	-0.41696	0.43948	-0.47433	0.63867	31.0	13111	100
2025-3-27 18:41:19.178	WT901BLE68-01(48591DE3C19B)	-0.229	-1.150	0.030	10.010	4.456	258.362	-74.30	31.76	-91.44	-68.992	-35.966	-10.584	-0.41696	0.43948	-0.47433	0.63867	31.0	13111	100
2025-3-27 18:41:19.235	WT901BLE68-01(48591DE3C19B)	-0.213	-1.150	0.030	10.010	4.456	258.362	-73.86	34.17	-90.79	-68.992	-35.966	-10.584	-0.41696	0.43948	-0.47433	0.63867	31.0	13111	100
2025-3-27 18:41:19.235	WT901BLE68-01(48591DE3C19B)	-0.213	-1.213	0.041	5.249	2.136	258.789	-73.42	36.55	-90.07	-75.950	-37.044	-21.658	-0.41696	0.43948	-0.47433	0.63867	31.0	13111	100
2025-3-27 18:41:19.235	WT901BLE68-01(48591DE3C19B)	-0.195	-1.213	0.041	5.249	2.136	258.789	-72.92	38.90	-89.31	-75.950	-37.044	-21.658	-0.41696	0.43948	-0.47433	0.63867	31.0	13111	100
2025-3-27 18:41:19.235	WT901BLE68-01(48591DE3C19B)	-0.195	-1.301	0.085	5.493	-0.793	254.333	-72.35	41.19	-88.48	-75.950	-37.044	-21.658	-0.41696	0.43948	-0.47433	0.63867	31.0	13111	100
2025-3-27 18:41:19.265	WT901BLE68-01(48591DE3C19B)	-0.228	-1.301	0.085	5.493	-0.793	254.333	-71.72	43.45	-87.59	-75.950	-37.044	-21.658	-0.41696	0.43948	-0.47433	0.63867	31.0	13111	100
2025-3-27 18:41:19.265	WT901BLE68-01(48591DE3C19B)	-0.228	-1.444	0.139	8.118	-11.536	243.469	-70.92	45.55	-86.55	-75.950	-37.044	-21.658	-0.41696	0.43948	-0.47433	0.63867	31.0	13111	100
2025-3-27 18:41:19.265	WT901BLE68-01(48591DE3C19B)	-0.249	-1.444	0.139	8.118	-11.536	243.469	-70.04	47.63	-85.43	-75.950	-37.044	-21.658	-0.41696	0.43948	-0.47433	0.63867	31.0	13111	100
2025-3-27 18:41:19.265	WT901BLE68-01(48591DE3C19B)	-0.249	-1.637	0.180	12.756	-29.785	224.670	-68.90	49.43	-84.06	-75.950	-37.044	-21.658	-0.41696	0.43948	-0.47433	0.63867	31.0	13111	100
2025-3-27 18:41:19.294	WT901BLE68-01(48591DE3C19B)	-0.195	-1.637	0.180	12.756	-29.785	224.670	-67.66	51.21	-82.59	-75.950	-37.044	-21.658	-0.41696	0.43948	-0.47433	0.63867	31.0	13111	100
2025-3-27 18:41:19.294	WT901BLE68-01(48591DE3C19B)	-0.195	-1.766	0.175	22.461	-45.410	196.777	-66.15	52.64	-80.95	-75.950	-37.044	-21.658	-0.41696	0.43948	-0.47433	0.63867	31.0	13111	100
2025-3-27 18:41:19.294	WT901BLE68-01(48591DE3C19B)	-0.115	-1.766	0.175	22.461	-45.410	196.777	-64.54	54.02	-79.21	-75.950	-37.044	-21.658	-0.41696	0.43948	-0.47433	0.63867	31.0	13111	100
2025-3-27 18:41:19.294	WT901BLE68-01(48591DE3C19B)	-0.115	-1.746	0.167	30.334	-51.025	161.316	-62.90	55.02	-77.53	-75.950	-37.044	-21.658	-0.41696	0.43948	-0.47433	0.63867	31.0	13111	100
2025-3-27 18:41:19.355	WT901BLE68-01(48591DE3C19B)	-0.042	-1.746	0.167	30.334	-51.025	161.316	-61.17	55.98	-75.77	-75.950	-37.044	-21.658	-0.41696	0.43948	-0.47433	0.63867	31.0	13111	100
2025-3-27 18:41:19.355	WT901BLE68-01(48591DE3C19B)	-0.042	-1.651	0.212	34.058	-51.697	118.408	-59.63	56.52	-74.31	-75.950	-37.044	-21.658	-0.41696	0.43948	-0.47433	0.63867	31.0	13111	100
2025-3-27 18:41:19.355	WT901BLE68-01(48591DE3C19B)	0.031	-1.651	0.212	34.058	-51.697	118.408	-58.06	57.04	-72.81	-75.950	-37.044	-21.658	-0.41696	0.43948	-0.47433	0.63867	31.0	13111	100
2025-3-27 18:41:19.355	WT901BLE68-01(48591DE3C19B)	0.031	-1.467	0.292	36.438	-49.438	71.533	-56.86	57.15	-71.77	-75.950	-37.044	-21.658	-0.41696	0.43948	-0.47433	0.63867	31.0	13111	100
2025-3-27 18:41:19.386	WT901BLE68-01(48591DE3C19B)	0.112	-1.467	0.292	36.438	-49.438	71.533	-55.65	57.24	-70.74	-75.950	-37.044	-21.658	-0.41696	0.43948	-0.47433	0.63867	31.0	13111	100
2025-3-27 18:41:19.387	WT901BLE68-01(48591DE3C19B)	0.112	-1.238	0.372	38.574	-29.541	28.015	-55.06	57.07	-70.46	-75.950	-37.044	-21.658	-0.41696	0.43948	-0.47433	0.63867	31.0	13111	100
2025-3-27 18:41:19.387	WT901BLE68-01(48591DE3C19B)	0.124	-1.238	0.372	38.574	-29.541	28.015	-54.47	56.89	-70.18	-75.950	-37.044	-21.658	-0.41696	0.43948	-0.47433	0.63867	31.0	13111	100
2025-3-27 18:41:19.387	WT901BLE68-01(48591DE3C19B)	0.124	-1.106	0.376	33.997	5.981	-14.832	-54.75	56.57	-70.89	-75.950	-37.044	-21.658	-0.41696	0.43948	-0.47433	0.63867	31.0	13111	100
2025-3-27 18:41:19.417	WT901BLE68-01(48591DE3C19B)	0.108	-1.106	0.376	33.997	5.981	-14.832	-55.01	56.23	-71.58	-75.950	-37.044	-21.658	-0.41696	0.43948	-0.47433	0.63867	31.0	13111	100
2025-3-27 18:41:19.417	WT901BLE68-01(48591DE3C19B)	0.108	-1.050	0.225	29.968	52.246	-55.603	-56.20	55.82	-73.34	-75.950	-37.044	-21.658	-0.41696	0.43948	-0.47433	0.63867	31.0	13111	100
2025-3-27 18:41:19.417	WT901BLE68-01(48591DE3C19B)	0.058	-1.050	0.225	29.968	52.246	-55.603	-57.35	55.38	-75.07	-75.950	-37.044	-21.658	-0.74762	0.08969	-0.58478	0.30157	31.0	13111	100
2025-3-27 18:41:19.417	WT901BLE68-01(48591DE3C19B)	0.058	-0.970	0.056	23.315	98.633	-93.628	-59.36	54.84	-77.78	-75.950	-37.044	-21.658	-0.74762	0.08969	-0.58478	0.30157	31.0	13111	100
2025-3-27 18:41:19.475	WT901BLE68-01(48591DE3C19B)	-0.029	-0.970	0.056	23.315	98.633	-93.628	-61.30	54.24	-80.41	-75.950	-37.044	-21.658	-0.74762	0.08969	-0.58478	0.30157	31.0	13111	100
2025-3-27 18:41:19.475	WT901BLE68-01(48591DE3C19B)	-0.029	-0.978	-0.015	13.367	120.667	-125.549	-63.70	53.42	-83.52	-75.950	-37.044	-21.658	-0.74762	0.08969	-0.58478	0.30157	31.0	13111	100
2025-3-27 18:41:19.475	WT901BLE68-01(48591DE3C19B)	-0.160	-0.978	-0.015	13.367	120.667	-125.549	-65.98	52.52	-86.50	-75.950	-37.044	-21.658	-0.74762	0.08969	-0.58478	0.30157	31.0	13111	100
2025-3-27 18:41:19.475	WT901BLE68-01(48591DE3C19B)	-0.160	-0.990	0.066	4.883	109.985	-149.536	-68.18	51.31	-89.33	-75.950	-37.044	-21.658	-0.74762	0.08969	-0.58478	0.30157	31.0	13111	100
2025-3-27 18:41:19.504	WT901BLE68-01(48591DE3C19B)	-0.313	-0.990	0.066	4.883	109.985	-149.536	-70.22	50.03	-92.00	-75.950	-37.044	-21.658	-0.74762	0.08969	-0.58478	0.30157	31.0	13111	100
2025-3-27 18:41:19.504	WT901BLE68-01(48591DE3C19B)	-0.313	-1.026	0.247	2.014	65.735	-171.875	-71.72	48.37	-93.99	-75.950	-37.044	-21.658	-0.74762	0.08969	-0.58478	0.30157	31.0	13111	100
2025-3-27 18:41:19.504	WT901BLE68-01(48591DE3C19B)	-0.437	-1.026	0.247	2.014	65.735	-171.875	-73.08	46.69	-95.84	-75.950	-37.044	-21.658	-0.74762	0.08969	-0.58478	0.30157	31.0	13111	100
2025-3-27 18:41:19.504	WT901BLE68-01(48591DE3C19B)	-0.437	-1.015	0.396	4.883	-2.441	-186.584	-73.66	44.67	-96.72	-75.950	-37.044	-21.658	-0.74762	0.08969	-0.58478	0.30157	31.0	13111	100
2025-3-27 18:41:19.565	WT901BLE68-01(48591DE3C19B)	-0.417	-1.015	0.396	4.883	-2.441	-186.584	-74.17	42.67	-97.53	-75.950	-37.044	-21.658	-0.74762	0.08969	-0.58478	0.30157	31.0	13111	100
2025-3-27 18:41:19.565	WT901BLE68-01(48591DE3C19B)	-0.417	-0.954	0.382	4.944	-67.139	-198.303	-74.10	40.39	-97.53	-75.950	-37.044	-21.658	-0.74762	0.08969	-0.58478	0.30157	31.0	13111	100
2025-3-27 18:41:19.565	WT901BLE68-01(48591DE3C19B)	-0.333	-0.954	0.382	4.944	-67.139	-198.303	-74.03	38.13	-97.53	-75.950	-37.044	-21.658	-0.74762	0.08969	-0.58478	0.30157	31.0	13111	100
2025-3-27 18:41:19.565	WT901BLE68-01(48591DE3C19B)	-0.333	-0.905	0.295	-1.221	-105.530	-208.618	-73.76	35.69	-97.11	-75.950	-37.044	-21.658	-0.74762	0.08969	-0.58478	0.30157	31.0	13111	100
2025-3-27 18:41:19.594	WT901BLE68-01(48591DE3C19B)	-0.248	-0.905	0.295	-1.221	-105.530	-208.618	-73.53	33.27	-96.72	-75.950	-37.044	-21.658	-0.74762	0.08969	-0.58478	0.30157	31.0	13111	100
2025-3-27 18:41:19.595	WT901BLE68-01(48591DE3C19B)	-0.248	-0.874	0.208	-10.254	-110.474	-221.008	-73.41	30.72	-96.34	-75.950	-37.044	-21.658	-0.74762	0.08969	-0.58478	0.30157	31.0	13111	100
2025-3-27 18:41:19.595	WT901BLE68-01(48591DE3C19B)	-0.169	-0.874	0.208	-10.254	-110.474	-221.008	-73.31	28.20	-95.99	-75.950	-37.044	-21.658	-0.74762	0.08969	-0.58478	0.30157	31.0	13111	100
2025-3-27 18:41:19.595	WT901BLE68-01(48591DE3C19B)	-0.169	-0.893	0.148	-20.081	-92.651	-237.000	-73.44	25.58	-95.88	-75.950	-37.044	-21.658	-0.74762	0.08969	-0.58478	0.30157	31.0	13111	100
2025-3-27 18:41:19.625	WT901BLE68-01(48591DE3C19B)	-0.074	-0.893	0.148	-20.081	-92.651	-237.000	-73.58	22.98	-95.77	-75.950	-37.044	-21.658	-0.74762	0.08969	-0.58478	0.30157	31.0	13111	100
2025-3-27 18:41:19.626	WT901BLE68-01(48591DE3C19B)	-0.074	-0.941	0.133	-26.428	-52.612	-256.104	-73.96	20.32	-96.11	-75.950	-37.044	-21.658	-0.74762	0.08969	-0.58478	0.30157	31.0	13111	100
2025-3-27 18:41:19.626	WT901BLE68-01(48591DE3C19B)	-0.097	-0.941	0.133	-26.428	-52.612	-256.104	-74.32	17.68	-96.43	-75.950	-37.044	-21.658	-0.74762	0.08969	-0.58478	0.30157	31.0	13111	100
2025-3-27 18:41:19.626	WT901BLE68-01(48591DE3C19B)	-0.219	-1.003	0.168	-28.870	-9.888	-271.301	-74.82	15.01	-97.19	-80.262	-47.236	-23.618	-0.74762	0.08969	-0.58478	0.30157	31.0	13111	100
2025-3-27 18:41:19.656	WT901BLE68-01(48591DE3C19B)	-0.219	-1.094	0.246	-26.611	19.958	-280.701	-75.30	12.34	-98.07	-80.262	-47.236	-23.618	-0.74762	0.08969	-0.58478	0.30157	31.0	13111	100
2025-3-27 18:41:19.656	WT901BLE68-01(48591DE3C19B)	-0.413	-1.094	0.246	-26.611	19.958	-280.701	-75.76	9.67	-99.08	-80.262	-47.236	-23.618	-0.74762	0.08969	-0.58478	0.30157	31.0	13111	100
2025-3-27 18:41:19.656	WT901BLE68-01(48591DE3C19B)	-0.413	-1.175	0.339	-18.799	31.677	-281.555	-76.13	7.03	-100.11	-80.262	-47.236	-23.618	-0.74762	0.08969	-0.58478	0.30157	31.0	13111	100
2025-3-27 18:41:19.657	WT901BLE68-01(48591DE3C19B)	-0.591	-1.175	0.339	-18.799	31.677	-281.555	-76.42	4.41	-101.19	-80.262	-47.236	-23.618	-0.74762	0.08969	-0.58478	0.30157	31.0	13111	100
2025-3-27 18:41:19.715	WT901BLE68-01(48591DE3C19B)	-0.591	-1.194	0.397	-9.094	26.672	-274.963	-76.61	1.83	-102.21	-80.262	-47.236	-23.618	-0.74762	0.08969	-0.58478	0.30157	31.0	13111	100
2025-3-27 18:41:19.715	WT901BLE68-01(48591DE3C19B)	-0.651	-1.194	0.397	-9.094	26.672	-274.963	-76.69	-0.69	-103.20	-80.262	-47.236	-23.618	-0.74762	0.08969	-0.58478	0.30157	31.0	13111	100
2025-3-27 18:41:19.715	WT901BLE68-01(48591DE3C19B)	-0.651	-1.158	0.415	-3.113	14.282	-261.780	-76.71	-3.15	-104.11	-80.262	-47.236	-23.618	-0.74762	0.08969	-0.58478	0.30157	31.0	13111	100
2025-3-27 18:41:19.715	WT901BLE68-01(48591DE3C19B)	-0.647	-1.158	0.415	-3.113	14.282	-261.780	-76.65	-5.54	-104.96	-80.262	-47.236	-23.618	-0.74762	0.08969	-0.58478	0.30157	31.0	13111	100
2025-3-27 18:41:19.744	WT901BLE68-01(48591DE3C19B)	-0.647	-1.146	0.381	-3.357	2.930	-244.934	-76.57	-7.84	-105.74	-80.262	-47.236	-23.618	-0.74762	0.08969	-0.58478	0.30157	31.0	13111	100
2025-3-27 18:41:19.744	WT901BLE68-01(48591DE3C19B)	-0.631	-1.146	0.381	-3.357	2.930	-244.934	-76.47	-10.04	-106.46	-80.262	-47.236	-23.618	-0.74762	0.08969	-0.58478	0.30157	31.0	13111	100
2025-3-27 18:41:19.744	WT901BLE68-01(48591DE3C19B)	-0.631	-1.198	0.341	-5.432	-7.751	-225.403	-76.37	-12.15	-107.12	-80.262	-47.236	-23.618	-0.74762	0.08969	-0.58478	0.30157	31.0	13111	100
2025-3-27 18:41:19.744	WT901BLE68-01(48591DE3C19B)	-0.650	-1.198	0.341	-5.432	-7.751	-225.403	-76.27	-14.16	-107.71	-80.262	-47.236	-23.618	-0.74762	0.08969	-0.58478	0.30157	31.0	13111	100
2025-3-27 18:41:19.776	WT901BLE68-01(48591DE3C19B)	-0.650	-1.300	0.337	-7.324	-16.174	-205.017	-76.17	-16.06	-108.25	-80.262	-47.236	-23.618	-0.74762	0.08969	-0.58478	0.30157	31.0	13111	100
2025-3-27 18:41:19.776	WT901BLE68-01(48591DE3C19B)	-0.708	-1.300	0.337	-7.324	-16.174	-205.017	-76.09	-17.86	-108.73	-80.262	-47.236	-23.618	-0.74762	0.08969	-0.58478	0.30157	31.0	13111	100
2025-3-27 18:41:19.776	WT901BLE68-01(48591DE3C19B)	-0.708	-1.363	0.397	-7.996	-18.921	-182.678	-76.01	-19.55	-109.17	-80.262	-47.236	-23.618	-0.74762	0.08969	-0.58478	0.30157	31.0	13111	100
2025-3-27 18:41:19.776	WT901BLE68-01(48591DE3C19B)	-0.799	-1.363	0.397	-7.996	-18.921	-182.678	-75.93	-21.12	-109.59	-80.262	-47.236	-23.618	-0.74762	0.08969	-0.58478	0.30157	31.0	13111	100
2025-3-27 18:41:19.835	WT901BLE68-01(48591DE3C19B)	-0.799	-1.404	0.479	-8.484	-16.052	-155.396	-75.86	-22.54	-109.99	-80.262	-47.236	-23.618	-0.74762	0.08969	-0.58478	0.30157	31.0	13111	100
2025-3-27 18:41:19.835	WT901BLE68-01(48591DE3C19B)	-0.833	-1.404	0.479	-8.484	-16.052	-155.396	-75.77	-23.81	-110.39	-80.262	-47.236	-23.618	-0.33670	0.47665	-0.40042	0.70639	31.0	13111	100
2025-3-27 18:41:19.835	WT901BLE68-01(48591DE3C19B)	-0.833	-1.404	0.530	-11.230	-9.705	-123.779	-75.69	-24.92	-110.79	-80.262	-47.236	-23.618	-0.33670	0.47665	-0.40042	0.70639	31.0	13111	100
2025-3-27 18:41:19.835	WT901BLE68-01(48591DE3C19B)	-0.829	-1.404	0.530	-11.230	-9.705	-123.779	-75.62	-25.86	-111.19	-80.262	-47.236	-23.618	-0.33670	0.47665	-0.40042	0.70639	31.0	13111	100
2025-3-27 18:41:19.865	WT901BLE68-01(48591DE3C19B)	-0.829	-1.396	0.539	-13.489	2.441	-83.557	-75.54	-26.58	-111.61	-80.262	-47.236	-23.618	-0.33670	0.47665	-0.40042	0.70639	31.0	13111	100
2025-3-27 18:41:19.865	WT901BLE68-01(48591DE3C19B)	-0.796	-1.396	0.539	-13.489	2.441	-83.557	-75.46	-27.09	-112.06	-80.262	-47.236	-23.618	-0.33670	0.47665	-0.40042	0.70639	31.0	13111	100
2025-3-27 18:41:19.865	WT901BLE68-01(48591DE3C19B)	-0.796	-1.270	0.502	-15.381	12.451	-37.842	-75.38	-27.36	-112.49	-80.262	-47.236	-23.618	-0.33670	0.47665	-0.40042	0.70639	31.0	13111	100
2025-3-27 18:41:19.865	WT901BLE68-01(48591DE3C19B)	-0.730	-1.270	0.502	-15.381	12.451	-37.842	-75.32	-27.39	-112.92	-80.262	-47.236	-23.618	-0.33670	0.47665	-0.40042	0.70639	31.0	13111	100
2025-3-27 18:41:19.895	WT901BLE68-01(48591DE3C19B)	-0.730	-1.098	0.469	-21.423	13.000	7.385	-75.31	-27.21	-113.30	-80.262	-47.236	-23.618	-0.33670	0.47665	-0.40042	0.70639	31.0	13111	100
2025-3-27 18:41:19.895	WT901BLE68-01(48591DE3C19B)	-0.660	-1.098	0.469	-21.423	13.000	7.385	-75.35	-26.81	-113.62	-80.262	-47.236	-23.618	-0.33670	0.47665	-0.40042	0.70639	31.0	13111	100
2025-3-27 18:41:19.895	WT901BLE68-01(48591DE3C19B)	-0.660	-1.017	0.484	-26.794	5.920	51.819	-75.47	-26.20	-113.85	-80.262	-47.236	-23.618	-0.33670	0.47665	-0.40042	0.70639	31.0	13111	100
2025-3-27 18:41:19.895	WT901BLE68-01(48591DE3C19B)	-0.619	-1.017	0.484	-26.794	5.920	51.819	-75.65	-25.39	-113.97	-80.262	-47.236	-23.618	-0.33670	0.47665	-0.40042	0.70639	31.0	13111	100
2025-3-27 18:41:19.955	WT901BLE68-01(48591DE3C19B)	-0.619	-0.981	0.501	-27.344	-5.432	91.614	-75.87	-24.41	-113.99	-80.262	-47.236	-23.618	-0.33670	0.47665	-0.40042	0.70639	31.0	13111	100
2025-3-27 18:41:19.955	WT901BLE68-01(48591DE3C19B)	-0.596	-0.981	0.501	-27.344	-5.432	91.614	-76.14	-23.25	-113.90	-80.262	-47.236	-23.618	-0.33670	0.47665	-0.40042	0.70639	31.0	13111	100
2025-3-27 18:41:19.955	WT901BLE68-01(48591DE3C19B)	-0.596	-0.957	0.500	-20.996	-21.729	125.366	-76.40	-21.96	-113.70	-80.262	-47.236	-23.618	-0.33670	0.47665	-0.40042	0.70639	31.0	13111	100
2025-3-27 18:41:19.955	WT901BLE68-01(48591DE3C19B)	-0.590	-0.957	0.500	-20.996	-21.729	125.366	-76.68	-20.52	-113.37	-80.262	-47.236	-23.618	-0.33670	0.47665	-0.40042	0.70639	31.0	13111	100
2025-3-27 18:41:19.986	WT901BLE68-01(48591DE3C19B)	-0.590	-0.960	0.431	-13.794	-33.936	153.259	-76.93	-18.97	-112.96	-80.262	-47.236	-23.618	-0.33670	0.47665	-0.40042	0.70639	31.0	13111	100
2025-3-27 18:41:19.986	WT901BLE68-01(48591DE3C19B)	-0.607	-0.960	0.431	-13.794	-33.936	153.259	-77.15	-17.31	-112.46	-80.262	-47.236	-23.618	-0.33670	0.47665	-0.40042	0.70639	31.0	13111	100
2025-3-27 18:41:19.987	WT901BLE68-01(48591DE3C19B)	-0.607	-1.027	0.322	-7.629	-38.147	176.941	-77.34	-15.55	-111.93	-80.262	-47.236	-23.618	-0.33670	0.47665	-0.40042	0.70639	31.0	13111	100
2025-3-27 18:41:19.987	WT901BLE68-01(48591DE3C19B)	-0.615	-1.027	0.322	-7.629	-38.147	176.941	-77.49	-13.67	-111.36	-80.262	-47.236	-23.618	-0.33670	0.47665	-0.40042	0.70639	31.0	13111	100
2025-3-27 18:41:20.17	WT901BLE68-01(48591DE3C19B)	-0.615	-1.120	0.235	0.671	-41.992	196.716	-77.58	-11.72	-110.75	-80.262	-47.236	-23.618	-0.33670	0.47665	-0.40042	0.70639	31.0	13111	100
2025-3-27 18:41:20.17	WT901BLE68-01(48591DE3C19B)	-0.556	-1.120	0.235	0.671	-41.992	196.716	-77.62	-9.68	-110.10	-80.262	-47.236	-23.618	-0.33670	0.47665	-0.40042	0.70639	31.0	13111	100
2025-3-27 18:41:20.17	WT901BLE68-01(48591DE3C19B)	-0.556	-1.196	0.204	9.827	-52.429	212.830	-77.60	-7.58	-109.39	-64.288	-54.488	-26.264	-0.33670	0.47665	-0.40042	0.70639	31.0	13111	100
2025-3-27 18:41:20.17	WT901BLE68-01(48591DE3C19B)	-0.457	-1.196	0.204	9.827	-52.429	212.830	-77.53	-5.43	-108.60	-64.288	-54.488	-26.264	-0.33670	0.47665	-0.40042	0.70639	31.0	13111	100
2025-3-27 18:41:20.74	WT901BLE68-01(48591DE3C19B)	-0.457	-1.267	0.213	19.226	-62.927	224.426	-77.38	-3.25	-107.74	-64.288	-54.488	-26.264	-0.33670	0.47665	-0.40042	0.70639	31.0	13111	100
2025-3-27 18:41:20.75	WT901BLE68-01(48591DE3C19B)	-0.376	-1.267	0.213	19.226	-62.927	224.426	-77.17	-1.04	-106.81	-64.288	-54.488	-26.264	-0.33670	0.47665	-0.40042	0.70639	31.0	13111	100
2025-3-27 18:41:20.75	WT901BLE68-01(48591DE3C19B)	-0.376	-1.314	0.219	28.687	-67.993	233.826	-76.87	1.19	-105.82	-64.288	-54.488	-26.264	-0.33670	0.47665	-0.40042	0.70639	31.0	13111	100
2025-3-27 18:41:20.75	WT901BLE68-01(48591DE3C19B)	-0.286	-1.314	0.219	28.687	-67.993	233.826	-76.50	3.43	-104.78	-64.288	-54.488	-26.264	-0.33670	0.47665	-0.40042	0.70639	31.0	13111	100
2025-3-27 18:41:20.103	WT901BLE68-01(48591DE3C19B)	-0.286	-1.287	0.198	38.391	-64.270	240.234	-76.03	5.69	-103.72	-64.288	-54.488	-26.264	-0.33670	0.47665	-0.40042	0.70639	31.0	13111	100
2025-3-27 18:41:20.104	WT901BLE68-01(48591DE3C19B)	-0.223	-1.287	0.198	38.391	-64.270	240.234	-75.49	7.95	-102.65	-64.288	-54.488	-26.264	-0.33670	0.47665	-0.40042	0.70639	31.0	13111	100
2025-3-27 18:41:20.104	WT901BLE68-01(48591DE3C19B)	-0.223	-1.208	0.185	44.250	-48.279	244.263	-74.86	10.26	-101.68	-64.288	-54.488	-26.264	-0.33670	0.47665	-0.40042	0.70639	31.0	13111	100
2025-3-27 18:41:20.104	WT901BLE68-01(48591DE3C19B)	-0.207	-1.208	0.185	44.250	-48.279	244.263	-74.20	12.54	-100.68	-64.288	-54.488	-26.264	-0.33670	0.47665	-0.40042	0.70639	31.0	13111	100
2025-3-27 18:41:20.135	WT901BLE68-01(48591DE3C19B)	-0.207	-1.149	0.171	45.410	-24.231	245.789	-73.53	14.87	-99.87	-64.288	-54.488	-26.264	-0.33670	0.47665	-0.40042	0.70639	31.0	13111	100
2025-3-27 18:41:20.135	WT901BLE68-01(48591DE3C19B)	-0.221	-1.149	0.171	45.410	-24.231	245.789	-72.83	17.17	-99.02	-64.288	-54.488	-26.264	-0.33670	0.47665	-0.40042	0.70639	31.0	13111	100
2025-3-27 18:41:20.135	WT901BLE68-01(48591DE3C19B)	-0.221	-1.143	0.181	44.922	0.671	246.765	-72.17	19.53	-98.38	-64.288	-54.488	-26.264	-0.33670	0.47665	-0.40042	0.70639	31.0	13111	100
2025-3-27 18:41:20.135	WT901BLE68-01(48591DE3C19B)	-0.230	-1.143	0.181	44.922	0.671	246.765	-71.48	21.86	-97.70	-64.288	-54.488	-26.264	-0.33670	0.47665	-0.40042	0.70639	31.0	13111	100
2025-3-27 18:41:20.196	WT901BLE68-01(48591DE3C19B)	-0.230	-1.182	0.169	42.786	21.057	247.437	-70.85	24.24	-97.17	-64.288	-54.488	-26.264	-0.33670	0.47665	-0.40042	0.70639	31.0	13111	100
2025-3-27 18:41:20.196	WT901BLE68-01(48591DE3C19B)	-0.236	-1.182	0.169	42.786	21.057	247.437	-70.19	26.60	-96.61	-64.288	-54.488	-26.264	-0.33670	0.47665	-0.40042	0.70639	31.0	13111	100
2025-3-27 18:41:20.196	WT901BLE68-01(48591DE3C19B)	-0.236	-1.239	0.132	38.452	36.499	248.718	-69.61	28.99	-96.17	-64.288	-54.488	-26.264	-0.33670	0.47665	-0.40042	0.70639	31.0	13111	100
2025-3-27 18:41:20.197	WT901BLE68-01(48591DE3C19B)	-0.239	-1.239	0.132	38.452	36.499	248.718	-68.99	31.37	-95.69	-64.288	-54.488	-26.264	-0.33670	0.47665	-0.40042	0.70639	31.0	13111	100
2025-3-27 18:41:20.255	WT901BLE68-01(48591DE3C19B)	-0.239	-1.250	0.077	31.433	45.044	253.784	-68.46	33.80	-95.23	-64.288	-54.488	-26.264	-0.33670	0.47665	-0.40042	0.70639	31.0	13111	100
2025-3-27 18:41:20.255	WT901BLE68-01(48591DE3C19B)	-0.211	-1.250	0.077	31.433	45.044	253.784	-67.89	36.21	-94.74	-64.288	-54.488	-26.264	-0.33670	0.47665	-0.40042	0.70639	31.0	13111	100
2025-3-27 18:41:20.255	WT901BLE68-01(48591DE3C19B)	-0.211	-1.353	0.043	18.433	43.396	254.944	-67.40	38.61	-94.17	-64.288	-54.488	-26.264	-0.33670	0.47665	-0.40042	0.70639	31.0	13111	100
2025-3-27 18:41:20.255	WT901BLE68-01(48591DE3C19B)	-0.137	-1.353	0.043	18.433	43.396	254.944	-66.86	40.98	-93.57	-64.288	-54.488	-26.264	-0.67581	0.14041	-0.57611	0.43765	31.0	13111	100
2025-3-27 18:41:20.256	WT901BLE68-01(48591DE3C19B)	-0.137	-1.595	0.004	4.639	34.485	246.826	-66.37	43.23	-92.85	-64.288	-54.488	-26.264	-0.67581	0.14041	-0.57611	0.43765	31.0	13111	100
2025-3-27 18:41:20.256	WT901BLE68-01(48591DE3C19B)	-0.049	-1.595	0.004	4.639	34.485	246.826	-65.83	45.44	-92.07	-64.288	-54.488	-26.264	-0.67581	0.14041	-0.57611	0.43765	31.0	13111	100
2025-3-27 18:41:20.257	WT901BLE68-01(48591DE3C19B)	-0.049	-1.819	-0.032	-1.404	25.513	230.408	-65.29	47.46	-91.22	-64.288	-54.488	-26.264	-0.67581	0.14041	-0.57611	0.43765	31.0	13111	100
2025-3-27 18:41:20.257	WT901BLE68-01(48591DE3C19B)	0.036	-1.819	-0.032	-1.404	25.513	230.408	-64.68	49.44	-90.32	-64.288	-54.488	-26.264	-0.67581	0.14041	-0.57611	0.43765	31.0	13111	100
2025-3-27 18:41:20.315	WT901BLE68-01(48591DE3C19B)	0.036	-1.897	-0.037	-0.916	15.442	203.247	-64.04	51.12	-89.39	-64.288	-54.488	-26.264	-0.67581	0.14041	-0.57611	0.43765	31.0	13111	100
2025-3-27 18:41:20.315	WT901BLE68-01(48591DE3C19B)	0.005	-1.897	-0.037	-0.916	15.442	203.247	-63.34	52.77	-88.41	-64.288	-54.488	-26.264	-0.67581	0.14041	-0.57611	0.43765	31.0	13111	100
2025-3-27 18:41:20.315	WT901BLE68-01(48591DE3C19B)	0.005	-1.899	0.045	-0.488	4.089	161.255	-62.70	53.99	-87.52	-64.288	-54.488	-26.264	-0.67581	0.14041	-0.57611	0.43765	31.0	13111	100
2025-3-27 18:41:20.315	WT901BLE68-01(48591DE3C19B)	-0.183	-1.899	0.045	-0.488	4.089	161.255	-62.02	55.18	-86.58	-64.288	-54.488	-26.264	-0.67581	0.14041	-0.57611	0.43765	31.0	13111	100
2025-3-27 18:41:20.344	WT901BLE68-01(48591DE3C19B)	-0.183	-1.837	0.152	-8.118	-8.362	110.107	-61.56	55.85	-85.84	-64.288	-54.488	-26.264	-0.67581	0.14041	-0.57611	0.43765	31.0	13111	100
2025-3-27 18:41:20.344	WT901BLE68-01(48591DE3C19B)	-0.290	-1.837	0.152	-8.118	-8.362	110.107	-61.08	56.52	-85.08	-64.288	-54.488	-26.264	-0.67581	0.14041	-0.57611	0.43765	31.0	13111	100
2025-3-27 18:41:20.345	WT901BLE68-01(48591DE3C19B)	-0.290	-1.695	0.229	-9.644	-25.085	51.880	-60.80	56.60	-84.56	-64.288	-54.488	-26.264	-0.67581	0.14041	-0.57611	0.43765	31.0	13111	100
2025-3-27 18:41:20.345	WT901BLE68-01(48591DE3C19B)	-0.181	-1.695	0.229	-9.644	-25.085	51.880	-60.52	56.67	-84.03	-64.288	-54.488	-26.264	-0.67581	0.14041	-0.57611	0.43765	31.0	13111	100
2025-3-27 18:41:20.404	WT901BLE68-01(48591DE3C19B)	-0.181	-1.438	0.252	-7.751	-28.625	5.798	-60.51	56.33	-83.86	-64.288	-54.488	-26.264	-0.67581	0.14041	-0.57611	0.43765	31.0	13111	100
2025-3-27 18:41:20.404	WT901BLE68-01(48591DE3C19B)	-0.084	-1.438	0.252	-7.751	-28.625	5.798	-60.51	55.99	-83.69	-64.288	-54.488	-26.264	-0.67581	0.14041	-0.57611	0.43765	31.0	13111	100
2025-3-27 18:41:20.404	WT901BLE68-01(48591DE3C19B)	-0.084	-1.249	0.248	-10.315	-24.597	-35.522	-60.87	55.31	-83.95	-64.288	-54.488	-26.264	-0.67581	0.14041	-0.57611	0.43765	31.0	13111	100
2025-3-27 18:41:20.405	WT901BLE68-01(48591DE3C19B)	0.070	-1.249	0.248	-10.315	-24.597	-35.522	-61.22	54.64	-84.18	-64.288	-54.488	-26.264	-0.67581	0.14041	-0.57611	0.43765	31.0	13111	100
2025-3-27 18:41:20.434	WT901BLE68-01(48591DE3C19B)	0.070	-1.169	0.157	-8.972	-2.747	-75.867	-62.06	53.71	-85.06	-64.288	-54.488	-26.264	-0.67581	0.14041	-0.57611	0.43765	31.0	13111	100
2025-3-27 18:41:20.434	WT901BLE68-01(48591DE3C19B)	0.138	-1.169	0.157	-8.972	-2.747	-75.867	-62.86	52.77	-85.88	-64.288	-54.488	-26.264	-0.67581	0.14041	-0.57611	0.43765	31.0	13111	100
2025-3-27 18:41:20.434	WT901BLE68-01(48591DE3C19B)	0.138	-1.029	0.112	-3.845	27.100	-104.858	-64.08	51.70	-87.30	-64.288	-54.488	-26.264	-0.67581	0.14041	-0.57611	0.43765	31.0	13111	100
2025-3-27 18:41:20.434	WT901BLE68-01(48591DE3C19B)	0.066	-1.029	0.112	-3.845	27.100	-104.858	-65.21	50.61	-88.65	-87.612	-34.202	-24.696	-0.67581	0.14041	-0.57611	0.43765	31.0	13111	100
2025-3-27 18:41:20.466	WT901BLE68-01(48591DE3C19B)	0.066	-0.947	0.085	-5.005	44.556	-132.935	-66.61	49.33	-90.35	-87.612	-34.202	-24.696	-0.67581	0.14041	-0.57611	0.43765	31.0	13111	100
2025-3-27 18:41:20.467	WT901BLE68-01(48591DE3C19B)	0.005	-0.947	0.085	-5.005	44.556	-132.935	-67.91	48.03	-91.94	-87.612	-34.202	-24.696	-0.67581	0.14041	-0.57611	0.43765	31.0	13111	100
2025-3-27 18:41:20.467	WT901BLE68-01(48591DE3C19B)	0.005	-0.974	0.083	-4.883	53.101	-159.485	-69.30	46.49	-93.70	-87.612	-34.202	-24.696	-0.67581	0.14041	-0.57611	0.43765	31.0	13111	100
2025-3-27 18:41:20.467	WT901BLE68-01(48591DE3C19B)	-0.072	-0.974	0.083	-4.883	53.101	-159.485	-70.57	44.93	-95.36	-87.612	-34.202	-24.696	-0.67581	0.14041	-0.57611	0.43765	31.0	13111	100
2025-3-27 18:41:20.525	WT901BLE68-01(48591DE3C19B)	-0.072	-0.995	0.105	-0.244	61.707	-182.800	-71.84	43.16	-97.12	-87.612	-34.202	-24.696	-0.67581	0.14041	-0.57611	0.43765	31.0	13111	100
2025-3-27 18:41:20.525	WT901BLE68-01(48591DE3C19B)	-0.164	-0.995	0.105	-0.244	61.707	-182.800	-73.00	41.37	-98.77	-87.612	-34.202	-24.696	-0.67581	0.14041	-0.57611	0.43765	31.0	13111	100
2025-3-27 18:41:20.525	WT901BLE68-01(48591DE3C19B)	-0.164	-0.979	0.129	3.967	62.805	-204.956	-74.06	39.38	-100.43	-87.612	-34.202	-24.696	-0.67581	0.14041	-0.57611	0.43765	31.0	13111	100
2025-3-27 18:41:20.525	WT901BLE68-01(48591DE3C19B)	-0.230	-0.979	0.129	3.967	62.805	-204.956	-75.03	37.36	-101.98	-87.612	-34.202	-24.696	-0.67581	0.14041	-0.57611	0.43765	31.0	13111	100
2025-3-27 18:41:20.554	WT901BLE68-01(48591DE3C19B)	-0.230	-0.955	0.148	6.287	52.246	-226.501	-75.82	35.12	-103.39	-87.612	-34.202	-24.696	-0.67581	0.14041	-0.57611	0.43765	31.0	13111	100
2025-3-27 18:41:20.554	WT901BLE68-01(48591DE3C19B)	-0.281	-0.955	0.148	6.287	52.246	-226.501	-76.53	32.88	-104.71	-87.612	-34.202	-24.696	-0.67581	0.14041	-0.57611	0.43765	31.0	13111	100
2025-3-27 18:41:20.554	WT901BLE68-01(48591DE3C19B)	-0.281	-0.956	0.174	5.676	33.752	-247.437	-77.08	30.40	-105.82	-87.612	-34.202	-24.696	-0.67581	0.14041	-0.57611	0.43765	31.0	13111	100
2025-3-27 18:41:20.554	WT901BLE68-01(48591DE3C19B)	-0.306	-0.956	0.174	5.676	33.752	-247.437	-77.55	27.93	-106.87	-87.612	-34.202	-24.696	-0.67581	0.14041	-0.57611	0.43765	31.0	13111	100
2025-3-27 18:41:20.586	WT901BLE68-01(48591DE3C19B)	-0.346	-0.975	0.210	2.197	14.709	-266.357	-77.93	25.25	-107.71	-87.612	-34.202	-24.696	-0.67581	0.14041	-0.57611	0.43765	31.0	13111	100
2025-3-27 18:41:20.586	WT901BLE68-01(48591DE3C19B)	-0.346	-1.025	0.247	-2.869	1.709	-281.433	-78.24	22.50	-108.46	-87.612	-34.202	-24.696	-0.67581	0.14041	-0.57611	0.43765	31.0	13111	100
2025-3-27 18:41:20.587	WT901BLE68-01(48591DE3C19B)	-0.369	-1.025	0.247	-2.869	1.709	-281.433	-78.52	19.68	-109.13	-87.612	-34.202	-24.696	-0.67581	0.14041	-0.57611	0.43765	31.0	13111	100
2025-3-27 18:41:20.587	WT901BLE68-01(48591DE3C19B)	-0.369	-1.077	0.258	-8.972	-0.305	-291.748	-78.79	16.83	-109.78	-87.612	-34.202	-24.696	-0.67581	0.14041	-0.57611	0.43765	31.0	13111	100
2025-3-27 18:41:20.645	WT901BLE68-01(48591DE3C19B)	-0.442	-1.077	0.258	-8.972	-0.305	-291.748	-79.04	13.95	-110.41	-87.612	-34.202	-24.696	-0.67581	0.14041	-0.57611	0.43765	31.0	13111	100
2025-3-27 18:41:20.645	WT901BLE68-01(48591DE3C19B)	-0.442	-1.116	0.304	-5.188	-1.160	-297.058	-79.24	11.05	-111.02	-87.612	-34.202	-24.696	-0.47684	0.30548	-0.56146	0.60330	31.0	13111	100
2025-3-27 18:41:20.645	WT901BLE68-01(48591DE3C19B)	-0.490	-1.116	0.304	-5.188	-1.160	-297.058	-79.38	8.16	-111.62	-87.612	-34.202	-24.696	-0.47684	0.30548	-0.56146	0.60330	31.0	13111	100
2025-3-27 18:41:20.645	WT901BLE68-01(48591DE3C19B)	-0.490	-1.096	0.286	-12.878	-14.221	-299.072	-79.52	5.26	-112.15	-87.612	-34.202	-24.696	-0.47684	0.30548	-0.56146	0.60330	31.0	13111	100
2025-3-27 18:41:20.704	WT901BLE68-01(48591DE3C19B)	-0.447	-1.096	0.286	-12.878	-14.221	-299.072	-79.66	2.36	-112.62	-87.612	-34.202	-24.696	-0.47684	0.30548	-0.56146	0.60330	31.0	13111	100
2025-3-27 18:41:20.705	WT901BLE68-01(48591DE3C19B)	-0.447	-1.113	0.310	-11.658	-19.897	-292.908	-79.77	-0.48	-113.05	-87.612	-34.202	-24.696	-0.47684	0.30548	-0.56146	0.60330	31.0	13111	100
2025-3-27 18:41:20.705	WT901BLE68-01(48591DE3C19B)	-0.559	-1.113	0.310	-11.658	-19.897	-292.908	-79.85	-3.29	-113.45	-87.612	-34.202	-24.696	-0.47684	0.30548	-0.56146	0.60330	31.0	13111	100
2025-3-27 18:41:20.705	WT901BLE68-01(48591DE3C19B)	-0.559	-1.119	0.286	-11.963	-29.053	-280.334	-79.93	-6.03	-113.80	-87.612	-34.202	-24.696	-0.47684	0.30548	-0.56146	0.60330	31.0	13111	100
2025-3-27 18:41:20.706	WT901BLE68-01(48591DE3C19B)	-0.528	-1.119	0.286	-11.963	-29.053	-280.334	-79.98	-8.68	-114.09	-87.612	-34.202	-24.696	-0.47684	0.30548	-0.56146	0.60330	31.0	13111	100
2025-3-27 18:41:20.706	WT901BLE68-01(48591DE3C19B)	-0.528	-1.104	0.281	-11.230	-39.307	-261.292	-80.04	-11.24	-114.32	-87.612	-34.202	-24.696	-0.47684	0.30548	-0.56146	0.60330	31.0	13111	100
2025-3-27 18:41:20.706	WT901BLE68-01(48591DE3C19B)	-0.525	-1.104	0.281	-11.230	-39.307	-261.292	-80.08	-13.69	-114.49	-87.612	-34.202	-24.696	-0.47684	0.30548	-0.56146	0.60330	31.0	13111	100
2025-3-27 18:41:20.706	WT901BLE68-01(48591DE3C19B)	-0.525	-1.100	0.333	-6.714	-44.189	-232.117	-80.12	-15.99	-114.63	-87.612	-34.202	-24.696	-0.47684	0.30548	-0.56146	0.60330	31.0	13111	100
2025-3-27 18:41:20.765	WT901BLE68-01(48591DE3C19B)	-0.520	-1.100	0.333	-6.714	-44.189	-232.117	-80.14	-18.14	-114.71	-87.612	-34.202	-24.696	-0.47684	0.30548	-0.56146	0.60330	31.0	13111	100
2025-3-27 18:41:20.765	WT901BLE68-01(48591DE3C19B)	-0.520	-1.072	0.375	-0.977	-41.748	-197.876	-80.13	-20.10	-114.78	-87.612	-34.202	-24.696	-0.47684	0.30548	-0.56146	0.60330	31.0	13111	100
2025-3-27 18:41:20.765	WT901BLE68-01(48591DE3C19B)	-0.444	-1.072	0.375	-0.977	-41.748	-197.876	-80.09	-21.88	-114.85	-87.612	-34.202	-24.696	-0.47684	0.30548	-0.56146	0.60330	31.0	13111	100
2025-3-27 18:41:20.765	WT901BLE68-01(48591DE3C19B)	-0.444	-1.014	0.389	2.747	-25.085	-162.292	-80.00	-23.46	-114.98	-87.612	-34.202	-24.696	-0.47684	0.30548	-0.56146	0.60330	31.0	13111	100
2025-3-27 18:41:20.796	WT901BLE68-01(48591DE3C19B)	-0.354	-1.014	0.389	2.747	-25.085	-162.292	-79.87	-24.84	-115.18	-87.612	-34.202	-24.696	-0.47684	0.30548	-0.56146	0.60330	31.0	13111	100
2025-3-27 18:41:20.796	WT901BLE68-01(48591DE3C19B)	-0.354	-0.990	0.395	4.333	9.888	-127.319	-79.65	-26.02	-115.54	-87.612	-34.202	-24.696	-0.47684	0.30548	-0.56146	0.60330	31.0	13111	100
2025-3-27 18:41:20.796	WT901BLE68-01(48591DE3C19B)	-0.357	-0.990	0.395	4.333	9.888	-127.319	-79.34	-26.98	-116.08	-87.612	-34.202	-24.696	-0.47684	0.30548	-0.56146	0.60330	31.0	13111	100
2025-3-27 18:41:20.796	WT901BLE68-01(48591DE3C19B)	-0.357	-1.033	0.423	6.104	55.664	-94.421	-78.90	-27.74	-116.84	-87.612	-34.202	-24.696	-0.47684	0.30548	-0.56146	0.60330	31.0	13111	100
2025-3-27 18:41:20.827	WT901BLE68-01(48591DE3C19B)	-0.450	-1.033	0.423	6.104	55.664	-94.421	-78.35	-28.28	-117.84	-87.612	-34.202	-24.696	-0.47684	0.30548	-0.56146	0.60330	31.0	13111	100
2025-3-27 18:41:20.827	WT901BLE68-01(48591DE3C19B)	-0.450	-1.129	0.463	6.653	93.445	-65.002	-77.70	-28.64	-119.02	-87.612	-34.202	-24.696	-0.47684	0.30548	-0.56146	0.60330	31.0	13111	100
2025-3-27 18:41:20.827	WT901BLE68-01(48591DE3C19B)	-0.550	-1.129	0.463	6.653	93.445	-65.002	-76.95	-28.79	-120.38	-54.978	-56.644	-29.302	-0.47684	0.30548	-0.56146	0.60330	31.0	13111	100
2025-3-27 18:41:20.827	WT901BLE68-01(48591DE3C19B)	-0.550	-1.226	0.496	5.798	113.342	-36.926	-76.18	-28.77	-121.82	-54.978	-56.644	-29.302	-0.47684	0.30548	-0.56146	0.60330	31.0	13111	100
2025-3-27 18:41:20.884	WT901BLE68-01(48591DE3C19B)	-0.606	-1.226	0.496	5.798	113.342	-36.926	-75.38	-28.57	-123.33	-54.978	-56.644	-29.302	-0.47684	0.30548	-0.56146	0.60330	31.0	13111	100
2025-3-27 18:41:20.885	WT901BLE68-01(48591DE3C19B)	-0.606	-1.310	0.505	4.456	122.864	-10.742	-74.59	-28.22	-124.85	-54.978	-56.644	-29.302	-0.47684	0.30548	-0.56146	0.60330	31.0	13111	100
2025-3-27 18:41:20.885	WT901BLE68-01(48591DE3C19B)	-0.667	-1.310	0.505	4.456	122.864	-10.742	-73.82	-27.71	-126.36	-54.978	-56.644	-29.302	-0.47684	0.30548	-0.56146	0.60330	31.0	13111	100
2025-3-27 18:41:20.885	WT901BLE68-01(48591DE3C19B)	-0.667	-1.331	0.478	2.869	118.835	14.221	-73.10	-27.07	-127.80	-54.978	-56.644	-29.302	-0.47684	0.30548	-0.56146	0.60330	31.0	13111	100
2025-3-27 18:41:20.914	WT901BLE68-01(48591DE3C19B)	-0.715	-1.331	0.478	2.869	118.835	14.221	-72.45	-26.31	-129.17	-54.978	-56.644	-29.302	-0.47684	0.30548	-0.56146	0.60330	31.0	13111	100
2025-3-27 18:41:20.914	WT901BLE68-01(48591DE3C19B)	-0.715	-1.291	0.457	0.671	95.703	39.490	-71.91	-25.45	-130.35	-54.978	-56.644	-29.302	-0.47684	0.30548	-0.56146	0.60330	31.0	13111	100
2025-3-27 18:41:20.914	WT901BLE68-01(48591DE3C19B)	-0.728	-1.291	0.457	0.671	95.703	39.490	-71.48	-24.50	-131.35	-54.978	-56.644	-29.302	-0.47684	0.30548	-0.56146	0.60330	31.0	13111	100
2025-3-27 18:41:20.914	WT901BLE68-01(48591DE3C19B)	-0.728	-1.191	0.435	-3.418	58.105	65.308	-71.17	-23.48	-132.11	-54.978	-56.644	-29.302	-0.47684	0.30548	-0.56146	0.60330	31.0	13111	100
2025-3-27 18:41:20.944	WT901BLE68-01(48591DE3C19B)	-0.720	-1.191	0.435	-3.418	58.105	65.308	-71.00	-22.41	-132.62	-54.978	-56.644	-29.302	-0.47684	0.30548	-0.56146	0.60330	31.0	13111	100
2025-3-27 18:41:20.945	WT901BLE68-01(48591DE3C19B)	-0.720	-1.131	0.409	-10.986	11.169	92.590	-70.99	-21.29	-132.84	-54.978	-56.644	-29.302	-0.47684	0.30548	-0.56146	0.60330	31.0	13111	100
2025-3-27 18:41:20.945	WT901BLE68-01(48591DE3C19B)	-0.687	-1.131	0.409	-10.986	11.169	92.590	-71.10	-20.11	-132.78	-54.978	-56.644	-29.302	-0.47684	0.30548	-0.56146	0.60330	31.0	13111	100
2025-3-27 18:41:20.945	WT901BLE68-01(48591DE3C19B)	-0.687	-1.176	0.368	-15.808	-38.025	120.422	-71.34	-18.89	-132.43	-54.978	-56.644	-29.302	-0.47684	0.30548	-0.56146	0.60330	31.0	13111	100
2025-3-27 18:41:21.7	WT901BLE68-01(48591DE3C19B)	-0.586	-1.176	0.368	-15.808	-38.025	120.422	-71.68	-17.62	-131.81	-54.978	-56.644	-29.302	-0.47684	0.30548	-0.56146	0.60330	31.0	13111	100
2025-3-27 18:41:21.7	WT901BLE68-01(48591DE3C19B)	-0.586	-1.212	0.314	-14.038	-77.087	150.146	-72.06	-16.27	-130.96	-54.978	-56.644	-29.302	-0.47684	0.30548	-0.56146	0.60330	31.0	13111	100
2025-3-27 18:41:21.7	WT901BLE68-01(48591DE3C19B)	-0.451	-1.212	0.314	-14.038	-77.087	150.146	-72.47	-14.83	-129.88	-54.978	-56.644	-29.302	-0.47684	0.30548	-0.56146	0.60330	31.0	13111	100
2025-3-27 18:41:21.7	WT901BLE68-01(48591DE3C19B)	-0.451	-1.230	0.232	-9.888	-100.403	180.237	-72.87	-13.29	-128.66	-54.978	-56.644	-29.302	-0.47684	0.30548	-0.56146	0.60330	31.0	13111	100
2025-3-27 18:41:21.36	WT901BLE68-01(48591DE3C19B)	-0.320	-1.230	0.232	-9.888	-100.403	180.237	-73.24	-11.65	-127.29	-54.978	-56.644	-29.302	-0.47684	0.30548	-0.56146	0.60330	31.0	13111	100
2025-3-27 18:41:21.37	WT901BLE68-01(48591DE3C19B)	-0.320	-1.287	0.165	-4.517	-106.018	206.238	-73.56	-9.88	-125.86	-54.978	-56.644	-29.302	-0.47684	0.30548	-0.56146	0.60330	31.0	13111	100
2025-3-27 18:41:21.37	WT901BLE68-01(48591DE3C19B)	-0.246	-1.287	0.165	-4.517	-106.018	206.238	-73.83	-8.01	-124.38	-54.978	-56.644	-29.302	-0.47684	0.30548	-0.56146	0.60330	31.0	13111	100
2025-3-27 18:41:21.37	WT901BLE68-01(48591DE3C19B)	-0.246	-1.337	0.128	1.282	-101.013	224.976	-73.99	-5.96	-122.89	-54.978	-56.644	-29.302	-0.36304	0.32108	-0.50989	0.71063	31.0	13111	100
2025-3-27 18:41:21.67	WT901BLE68-01(48591DE3C19B)	-0.211	-1.337	0.128	1.282	-101.013	224.976	-74.10	-3.92	-121.40	-54.978	-56.644	-29.302	-0.36304	0.32108	-0.50989	0.71063	31.0	13111	100
2025-3-27 18:41:21.67	WT901BLE68-01(48591DE3C19B)	-0.211	-1.452	0.157	4.639	-96.985	236.511	-74.13	-1.77	-119.92	-54.978	-56.644	-29.302	-0.36304	0.32108	-0.50989	0.71063	31.0	13111	100
2025-3-27 18:41:21.67	WT901BLE68-01(48591DE3C19B)	-0.200	-1.452	0.157	4.639	-96.985	236.511	-74.11	0.35	-118.42	-54.978	-56.644	-29.302	-0.36304	0.32108	-0.50989	0.71063	31.0	13111	100
2025-3-27 18:41:21.67	WT901BLE68-01(48591DE3C19B)	-0.200	-1.577	0.184	15.076	-89.844	244.812	-73.94	2.55	-116.96	-54.978	-56.644	-29.302	-0.36304	0.32108	-0.50989	0.71063	31.0	13111	100
2025-3-27 18:41:21.124	WT901BLE68-01(48591DE3C19B)	-0.246	-1.577	0.184	15.076	-89.844	244.812	-73.71	4.73	-115.48	-54.978	-56.644	-29.302	-0.36304	0.32108	-0.50989	0.71063	31.0	13111	100
2025-3-27 18:41:21.124	WT901BLE68-01(48591DE3C19B)	-0.246	-1.533	0.218	27.832	-77.759	250.061	-73.31	6.97	-114.09	-54.978	-56.644	-29.302	-0.36304	0.32108	-0.50989	0.71063	31.0	13111	100
2025-3-27 18:41:21.124	WT901BLE68-01(48591DE3C19B)	-0.296	-1.533	0.218	27.832	-77.759	250.061	-72.86	9.17	-112.66	-54.978	-56.644	-29.302	-0.36304	0.32108	-0.50989	0.71063	31.0	13111	100
2025-3-27 18:41:21.124	WT901BLE68-01(48591DE3C19B)	-0.296	-1.483	0.221	33.508	-63.843	250.732	-72.32	11.40	-111.34	-54.978	-56.644	-29.302	-0.36304	0.32108	-0.50989	0.71063	31.0	13111	100
2025-3-27 18:41:21.153	WT901BLE68-01(48591DE3C19B)	-0.320	-1.483	0.221	33.508	-63.843	250.732	-71.72	13.60	-109.99	-54.978	-56.644	-29.302	-0.36304	0.32108	-0.50989	0.71063	31.0	13111	100
2025-3-27 18:41:21.154	WT901BLE68-01(48591DE3C19B)	-0.320	-1.476	0.196	37.964	-47.363	247.986	-71.08	15.79	-108.77	-54.978	-56.644	-29.302	-0.36304	0.32108	-0.50989	0.71063	31.0	13111	100
2025-3-27 18:41:21.154	WT901BLE68-01(48591DE3C19B)	-0.338	-1.476	0.196	37.964	-47.363	247.986	-70.37	17.96	-107.51	-54.978	-56.644	-29.302	-0.36304	0.32108	-0.50989	0.71063	31.0	13111	100
2025-3-27 18:41:21.154	WT901BLE68-01(48591DE3C19B)	-0.338	-1.436	0.168	42.664	-34.180	244.629	-69.61	20.11	-106.35	-54.978	-56.644	-29.302	-0.36304	0.32108	-0.50989	0.71063	31.0	13111	100
2025-3-27 18:41:21.186	WT901BLE68-01(48591DE3C19B)	-0.313	-1.436	0.168	42.664	-34.180	244.629	-68.81	22.24	-105.14	-54.978	-56.644	-29.302	-0.36304	0.32108	-0.50989	0.71063	31.0	13111	100
2025-3-27 18:41:21.187	WT901BLE68-01(48591DE3C19B)	-0.313	-1.330	0.126	44.922	-25.513	241.699	-67.96	24.33	-103.98	-54.978	-56.644	-29.302	-0.36304	0.32108	-0.50989	0.71063	31.0	13111	100
2025-3-27 18:41:21.187	WT901BLE68-01(48591DE3C19B)	-0.290	-1.330	0.126	44.922	-25.513	241.699	-67.06	26.40	-102.77	-54.978	-56.644	-29.302	-0.36304	0.32108	-0.50989	0.71063	31.0	13111	100
2025-3-27 18:41:21.187	WT901BLE68-01(48591DE3C19B)	-0.290	-1.219	0.083	44.067	-21.545	239.197	-66.13	28.43	-101.55	-54.978	-56.644	-29.302	-0.36304	0.32108	-0.50989	0.71063	31.0	13111	100
2025-3-27 18:41:21.245	WT901BLE68-01(48591DE3C19B)	-0.253	-1.219	0.083	44.067	-21.545	239.197	-65.13	30.43	-100.27	-54.978	-56.644	-29.302	-0.36304	0.32108	-0.50989	0.71063	31.0	13111	100
2025-3-27 18:41:21.245	WT901BLE68-01(48591DE3C19B)	-0.253	-1.146	0.041	41.687	-17.029	235.718	-64.13	32.39	-98.99	-81.046	-49.392	-17.542	-0.36304	0.32108	-0.50989	0.71063	31.0	13111	100
2025-3-27 18:41:21.245	WT901BLE68-01(48591DE3C19B)	-0.241	-1.146	0.041	41.687	-17.029	235.718	-63.07	34.32	-97.64	-81.046	-49.392	-17.542	-0.36304	0.32108	-0.50989	0.71063	31.0	13111	100
2025-3-27 18:41:21.245	WT901BLE68-01(48591DE3C19B)	-0.241	-1.088	0.017	38.757	-11.230	229.858	-62.02	36.18	-96.32	-81.046	-49.392	-17.542	-0.36304	0.32108	-0.50989	0.71063	31.0	13111	100
2025-3-27 18:41:21.274	WT901BLE68-01(48591DE3C19B)	-0.237	-1.088	0.017	38.757	-11.230	229.858	-60.90	38.02	-94.93	-81.046	-49.392	-17.542	-0.36304	0.32108	-0.50989	0.71063	31.0	13111	100
2025-3-27 18:41:21.274	WT901BLE68-01(48591DE3C19B)	-0.237	-1.021	0.018	35.156	-6.104	221.619	-59.80	39.78	-93.57	-81.046	-49.392	-17.542	-0.36304	0.32108	-0.50989	0.71063	31.0	13111	100
2025-3-27 18:41:21.274	WT901BLE68-01(48591DE3C19B)	-0.235	-1.021	0.018	35.156	-6.104	221.619	-58.63	41.50	-92.14	-81.046	-49.392	-17.542	-0.36304	0.32108	-0.50989	0.71063	31.0	13111	100
2025-3-27 18:41:21.274	WT901BLE68-01(48591DE3C19B)	-0.235	-0.964	0.036	29.175	-3.784	210.510	-57.52	43.12	-90.73	-81.046	-49.392	-17.542	-0.36304	0.32108	-0.50989	0.71063	31.0	13111	100
2025-3-27 18:41:21.305	WT901BLE68-01(48591DE3C19B)	-0.223	-0.964	0.036	29.175	-3.784	210.510	-56.32	44.70	-89.25	-81.046	-49.392	-17.542	-0.36304	0.32108	-0.50989	0.71063	31.0	13111	100
2025-3-27 18:41:21.305	WT901BLE68-01(48591DE3C19B)	-0.223	-0.938	0.075	24.353	-5.493	196.594	-55.16	46.13	-87.78	-81.046	-49.392	-17.542	-0.36304	0.32108	-0.50989	0.71063	31.0	13111	100
2025-3-27 18:41:21.305	WT901BLE68-01(48591DE3C19B)	-0.219	-0.938	0.075	24.353	-5.493	196.594	-53.92	47.52	-86.24	-81.046	-49.392	-17.542	-0.36304	0.32108	-0.50989	0.71063	31.0	13111	100
2025-3-27 18:41:21.305	WT901BLE68-01(48591DE3C19B)	-0.219	-0.928	0.110	20.813	-3.723	180.115	-52.77	48.77	-84.79	-81.046	-49.392	-17.542	-0.36304	0.32108	-0.50989	0.71063	31.0	13111	100
2025-3-27 18:41:21.365	WT901BLE68-01(48591DE3C19B)	-0.221	-0.928	0.110	20.813	-3.723	180.115	-51.54	49.99	-83.27	-81.046	-49.392	-17.542	-0.36304	0.32108	-0.50989	0.71063	31.0	13111	100
2025-3-27 18:41:21.365	WT901BLE68-01(48591DE3C19B)	-0.221	-0.943	0.134	18.250	1.038	160.889	-50.45	51.06	-81.94	-81.046	-49.392	-17.542	-0.36304	0.32108	-0.50989	0.71063	31.0	13111	100
2025-3-27 18:41:21.365	WT901BLE68-01(48591DE3C19B)	-0.218	-0.943	0.134	18.250	1.038	160.889	-49.31	52.11	-80.54	-81.046	-49.392	-17.542	-0.36304	0.32108	-0.50989	0.71063	31.0	13111	100
2025-3-27 18:41:21.365	WT901BLE68-01(48591DE3C19B)	-0.218	-0.942	0.145	17.090	7.385	140.686	-48.35	53.04	-79.39	-81.046	-49.392	-17.542	-0.36304	0.32108	-0.50989	0.71063	31.0	13111	100
2025-3-27 18:41:21.396	WT901BLE68-01(48591DE3C19B)	-0.215	-0.942	0.145	17.090	7.385	140.686	-47.35	53.94	-78.19	-81.046	-49.392	-17.542	-0.36304	0.32108	-0.50989	0.71063	31.0	13111	100
2025-3-27 18:41:21.396	WT901BLE68-01(48591DE3C19B)	-0.215	-0.930	0.138	13.306	13.672	117.676	-46.62	54.70	-77.29	-81.046	-49.392	-17.542	-0.36304	0.32108	-0.50989	0.71063	31.0	13111	100
2025-3-27 18:41:21.396	WT901BLE68-01(48591DE3C19B)	-0.210	-0.930	0.138	13.306	13.672	117.676	-45.86	55.45	-76.37	-81.046	-49.392	-17.542	-0.36304	0.32108	-0.50989	0.71063	31.0	13111	100
2025-3-27 18:41:21.396	WT901BLE68-01(48591DE3C19B)	-0.210	-0.946	0.137	8.362	20.020	93.018	-45.43	56.06	-75.81	-81.046	-49.392	-17.542	-0.36304	0.32108	-0.50989	0.71063	31.0	13111	100
2025-3-27 18:41:21.427	WT901BLE68-01(48591DE3C19B)	-0.204	-0.946	0.137	8.362	20.020	93.018	-45.00	56.67	-75.23	-81.046	-49.392	-17.542	-0.36304	0.32108	-0.50989	0.71063	31.0	13111	100
2025-3-27 18:41:21.427	WT901BLE68-01(48591DE3C19B)	-0.204	-0.968	0.150	3.174	24.780	67.810	-44.92	57.12	-75.04	-81.046	-49.392	-17.542	-0.36304	0.32108	-0.50989	0.71063	31.0	13111	100
2025-3-27 18:41:21.427	WT901BLE68-01(48591DE3C19B)	-0.200	-0.968	0.150	3.174	24.780	67.810	-44.85	57.57	-74.83	-81.046	-49.392	-17.542	-0.75500	-0.00494	-0.55667	0.34634	31.0	13111	100
2025-3-27 18:41:21.427	WT901BLE68-01(48591DE3C19B)	-0.200	-1.001	0.155	-3.052	24.536	40.100	-45.14	57.83	-75.00	-81.046	-49.392	-17.542	-0.75500	-0.00494	-0.55667	0.34634	31.0	13111	100
2025-3-27 18:41:21.484	WT901BLE68-01(48591DE3C19B)	-0.211	-1.001	0.155	-3.052	24.536	40.100	-45.43	58.07	-75.16	-81.046	-49.392	-17.542	-0.75500	-0.00494	-0.55667	0.34634	31.0	13111	100
2025-3-27 18:41:21.484	WT901BLE68-01(48591DE3C19B)	-0.211	-1.040	0.170	-10.498	17.944	8.667	-46.07	58.05	-75.65	-81.046	-49.392	-17.542	-0.75500	-0.00494	-0.55667	0.34634	31.0	13111	100
2025-3-27 18:41:21.485	WT901BLE68-01(48591DE3C19B)	-0.247	-1.040	0.170	-10.498	17.944	8.667	-46.70	58.02	-76.15	-81.046	-49.392	-17.542	-0.75500	-0.00494	-0.55667	0.34634	31.0	13111	100
2025-3-27 18:41:21.485	WT901BLE68-01(48591DE3C19B)	-0.282	-1.033	0.214	-16.174	5.859	-25.208	-47.61	57.66	-76.89	-81.046	-49.392	-17.542	-0.75500	-0.00494	-0.55667	0.34634	31.0	13111	100
2025-3-27 18:41:21.514	WT901BLE68-01(48591DE3C19B)	-0.282	-1.001	0.303	-21.667	-9.644	-59.509	-48.60	57.12	-77.72	-81.046	-49.392	-17.542	-0.75500	-0.00494	-0.55667	0.34634	31.0	13111	100
2025-3-27 18:41:21.514	WT901BLE68-01(48591DE3C19B)	-0.230	-1.001	0.303	-21.667	-9.644	-59.509	-49.66	56.39	-78.61	-81.046	-49.392	-17.542	-0.75500	-0.00494	-0.55667	0.34634	31.0	13111	100
2025-3-27 18:41:21.514	WT901BLE68-01(48591DE3C19B)	-0.230	-0.993	0.292	-29.602	-15.442	-92.468	-50.83	55.51	-79.60	-81.046	-49.392	-17.542	-0.75500	-0.00494	-0.55667	0.34634	31.0	13111	100
2025-3-27 18:41:21.514	WT901BLE68-01(48591DE3C19B)	-0.149	-0.993	0.292	-29.602	-15.442	-92.468	-52.09	54.48	-80.67	-81.046	-49.392	-17.542	-0.75500	-0.00494	-0.55667	0.34634	31.0	13111	100
2025-3-27 18:41:21.544	WT901BLE68-01(48591DE3C19B)	-0.149	-0.967	0.197	-35.034	1.526	-126.709	-53.53	53.36	-81.95	-81.046	-49.392	-17.542	-0.75500	-0.00494	-0.55667	0.34634	31.0	13111	100
2025-3-27 18:41:21.544	WT901BLE68-01(48591DE3C19B)	-0.181	-0.967	0.197	-35.034	1.526	-126.709	-55.12	52.13	-83.42	-81.046	-49.392	-17.542	-0.75500	-0.00494	-0.55667	0.34634	31.0	13111	100
2025-3-27 18:41:21.544	WT901BLE68-01(48591DE3C19B)	-0.181	-0.986	0.187	-43.884	12.939	-162.415	-56.84	50.76	-85.02	-81.046	-49.392	-17.542	-0.75500	-0.00494	-0.55667	0.34634	31.0	13111	100
2025-3-27 18:41:21.544	WT901BLE68-01(48591DE3C19B)	-0.270	-0.986	0.187	-43.884	12.939	-162.415	-58.65	49.26	-86.72	-81.046	-49.392	-17.542	-0.75500	-0.00494	-0.55667	0.34634	31.0	13111	100
2025-3-27 18:41:21.607	WT901BLE68-01(48591DE3C19B)	-0.270	-1.156	0.263	-51.575	14.343	-198.364	-60.47	47.57	-88.42	-81.046	-49.392	-17.542	-0.75500	-0.00494	-0.55667	0.34634	31.0	13111	100
2025-3-27 18:41:21.607	WT901BLE68-01(48591DE3C19B)	-0.375	-1.156	0.263	-51.575	14.343	-198.364	-62.29	45.71	-90.13	-81.046	-49.392	-17.542	-0.75500	-0.00494	-0.55667	0.34634	31.0	13111	100
2025-3-27 18:41:21.607	WT901BLE68-01(48591DE3C19B)	-0.375	-1.292	0.371	-52.124	11.414	-226.868	-64.01	43.69	-91.75	-81.046	-49.392	-17.542	-0.75500	-0.00494	-0.55667	0.34634	31.0	13111	100
2025-3-27 18:41:21.607	WT901BLE68-01(48591DE3C19B)	-0.431	-1.292	0.371	-52.124	11.414	-226.868	-65.62	41.52	-93.30	-81.046	-49.392	-17.542	-0.75500	-0.00494	-0.55667	0.34634	31.0	13111	100
2025-3-27 18:41:21.636	WT901BLE68-01(48591DE3C19B)	-0.431	-1.375	0.412	-49.011	9.827	-246.338	-67.11	39.24	-94.75	-81.046	-49.392	-17.542	-0.75500	-0.00494	-0.55667	0.34634	31.0	13111	100
2025-3-27 18:41:21.636	WT901BLE68-01(48591DE3C19B)	-0.447	-1.375	0.412	-49.011	9.827	-246.338	-68.47	36.85	-96.11	-81.046	-49.392	-17.542	-0.75500	-0.00494	-0.55667	0.34634	31.0	13111	100
2025-3-27 18:41:21.636	WT901BLE68-01(48591DE3C19B)	-0.447	-1.372	0.383	-43.457	10.681	-257.935	-69.71	34.41	-97.39	-81.046	-49.392	-17.542	-0.75500	-0.00494	-0.55667	0.34634	31.0	13111	100
2025-3-27 18:41:21.636	WT901BLE68-01(48591DE3C19B)	-0.453	-1.372	0.383	-43.457	10.681	-257.935	-70.82	31.91	-98.60	-82.222	-38.220	-9.702	-0.75500	-0.00494	-0.55667	0.34634	31.0	13111	100
