time	DeviceName	AccX(g)	AccY(g)	AccZ(g)	AsX(°/s)	AsY(°/s)	AsZ(°/s)	AngleX(°)	AngleY(°)	AngleZ(°)	HX(uT)	HY(uT)	HZ(uT)	Q0()	Q1()	Q2()	Q3()	Temperature(°C)	Version()	Battery level(%)
2025-3-27 18:23:37.96	WT901BLE68-01(48591DE3C19B)	-0.243	-0.922	0.307	3.601	3.723	0.610	-73.27	11.80	-91.54	-72.422	-70.658	11.074	0.61871	-0.39938	0.47061	-0.48587	31.1	13111	100
2025-3-27 18:23:37.96	WT901BLE68-01(48591DE3C19B)	-0.249	-0.922	0.307	3.601	3.723	0.610	-73.23	11.82	-91.63	-72.422	-70.658	11.074	0.61871	-0.39938	0.47061	-0.48587	31.1	13111	100
2025-3-27 18:23:37.96	WT901BLE68-01(48591DE3C19B)	-0.249	-0.934	0.303	2.869	0.854	0.061	-73.19	11.83	-91.71	-72.422	-70.658	11.074	0.61871	-0.39938	0.47061	-0.48587	31.1	13111	100
2025-3-27 18:23:37.96	WT901BLE68-01(48591DE3C19B)	-0.252	-0.934	0.303	2.869	0.854	0.061	-73.15	11.83	-91.79	-72.422	-70.658	11.074	0.61871	-0.39938	0.47061	-0.48587	31.1	13111	100
2025-3-27 18:23:37.125	WT901BLE68-01(48591DE3C19B)	-0.126	-0.941	0.302	2.075	-0.732	0.366	-73.12	11.83	-91.85	-72.422	-70.658	11.074	0.61871	-0.39938	0.47061	-0.48587	31.1	13111	100
2025-3-27 18:23:37.125	WT901BLE68-01(48591DE3C19B)	-0.265	-0.471	0.151	2.075	-0.732	0.366	-73.09	11.84	-91.90	-72.422	-70.658	11.074	0.61871	-0.39938	0.47061	-0.48587	31.1	13111	100
2025-3-27 18:23:37.126	WT901BLE68-01(48591DE3C19B)	-0.265	-0.937	0.303	1.343	-3.052	0.671	-73.06	11.84	-91.93	-72.422	-70.658	11.074	0.61871	-0.39938	0.47061	-0.48587	31.1	13111	100
2025-3-27 18:23:37.126	WT901BLE68-01(48591DE3C19B)	-0.260	-0.937	0.303	1.343	-3.052	0.671	-73.03	11.85	-91.96	-72.422	-70.658	11.074	0.61871	-0.39938	0.47061	-0.48587	31.1	13111	100
2025-3-27 18:23:37.156	WT901BLE68-01(48591DE3C19B)	-0.260	-0.944	0.313	0.061	-7.141	1.099	-73.00	11.85	-91.97	-72.422	-70.658	11.074	0.61871	-0.39938	0.47061	-0.48587	31.1	13111	100
2025-3-27 18:23:37.156	WT901BLE68-01(48591DE3C19B)	-0.247	-0.944	0.313	0.061	-7.141	1.099	-72.98	11.84	-91.96	-72.422	-70.658	11.074	0.61871	-0.39938	0.47061	-0.48587	31.1	13111	100
2025-3-27 18:23:37.156	WT901BLE68-01(48591DE3C19B)	-0.247	-0.942	0.311	-0.305	-9.033	2.930	-72.95	11.85	-91.93	-72.422	-70.658	11.074	0.61871	-0.39938	0.47061	-0.48587	31.1	13111	100
2025-3-27 18:23:37.156	WT901BLE68-01(48591DE3C19B)	-0.238	-0.942	0.311	-0.305	-9.033	2.930	-72.93	11.86	-91.90	-72.422	-70.658	11.074	0.61871	-0.39938	0.47061	-0.48587	31.1	13111	100
2025-3-27 18:23:37.246	WT901BLE68-01(48591DE3C19B)	-0.238	-0.919	0.310	-1.099	-9.827	3.540	-72.91	11.88	-91.85	-72.422	-70.658	11.074	0.61871	-0.39938	0.47061	-0.48587	31.1	13111	100
2025-3-27 18:23:37.247	WT901BLE68-01(48591DE3C19B)	-0.239	-0.919	0.310	-1.099	-9.827	3.540	-72.89	11.89	-91.80	-72.422	-70.658	11.074	0.61871	-0.39938	0.47061	-0.48587	31.1	13111	100
2025-3-27 18:23:37.247	WT901BLE68-01(48591DE3C19B)	-0.239	-0.927	0.309	-1.892	-10.315	2.991	-72.88	11.90	-91.75	-72.422	-70.658	11.074	0.61871	-0.39938	0.47061	-0.48587	31.1	13111	100
2025-3-27 18:23:37.247	WT901BLE68-01(48591DE3C19B)	-0.225	-0.927	0.309	-1.892	-10.315	2.991	-72.87	11.90	-91.70	-72.422	-70.658	11.074	0.61871	-0.39938	0.47061	-0.48587	31.1	13111	100
2025-3-27 18:23:37.248	WT901BLE68-01(48591DE3C19B)	-0.225	-0.920	0.303	-1.160	-12.207	3.174	-72.84	11.91	-91.64	-72.422	-70.658	11.074	0.60208	-0.35175	0.48151	-0.53085	31.1	13111	100
2025-3-27 18:23:37.248	WT901BLE68-01(48591DE3C19B)	-0.221	-0.920	0.303	-1.160	-12.207	3.174	-72.82	11.91	-91.57	-72.422	-70.658	11.074	0.60208	-0.35175	0.48151	-0.53085	31.1	13111	100
2025-3-27 18:23:37.248	WT901BLE68-01(48591DE3C19B)	-0.221	-0.898	0.296	-1.343	-13.245	3.357	-72.80	11.91	-91.49	-72.422	-70.658	11.074	0.60208	-0.35175	0.48151	-0.53085	31.1	13111	100
2025-3-27 18:23:37.248	WT901BLE68-01(48591DE3C19B)	-0.209	-0.898	0.296	-1.343	-13.245	3.357	-72.78	11.91	-91.41	-72.422	-70.658	11.074	0.60208	-0.35175	0.48151	-0.53085	31.1	13111	100
2025-3-27 18:23:37.277	WT901BLE68-01(48591DE3C19B)	-0.209	-0.904	0.296	-2.136	-14.954	1.709	-72.76	11.89	-91.32	-72.422	-70.658	11.074	0.60208	-0.35175	0.48151	-0.53085	31.1	13111	100
2025-3-27 18:23:37.277	WT901BLE68-01(48591DE3C19B)	-0.188	-0.904	0.296	-2.136	-14.954	1.709	-72.75	11.87	-91.23	-72.422	-70.658	11.074	0.60208	-0.35175	0.48151	-0.53085	31.1	13111	100
2025-3-27 18:23:37.277	WT901BLE68-01(48591DE3C19B)	-0.188	-0.926	0.308	-2.014	-16.846	-0.732	-72.72	11.82	-91.13	-72.422	-70.658	11.074	0.60208	-0.35175	0.48151	-0.53085	31.1	13111	100
2025-3-27 18:23:37.277	WT901BLE68-01(48591DE3C19B)	-0.160	-0.926	0.308	-2.014	-16.846	-0.732	-72.70	11.77	-91.03	-72.422	-70.658	11.074	0.60208	-0.35175	0.48151	-0.53085	31.1	13111	100
2025-3-27 18:23:37.336	WT901BLE68-01(48591DE3C19B)	-0.160	-0.947	0.328	-0.488	-16.785	-3.479	-72.67	11.69	-90.94	-72.422	-70.658	11.074	0.60208	-0.35175	0.48151	-0.53085	31.1	13111	100
2025-3-27 18:23:37.336	WT901BLE68-01(48591DE3C19B)	-0.123	-0.947	0.328	-0.488	-16.785	-3.479	-72.64	11.61	-90.85	-72.422	-70.658	11.074	0.60208	-0.35175	0.48151	-0.53085	31.1	13111	100
2025-3-27 18:23:37.336	WT901BLE68-01(48591DE3C19B)	-0.123	-0.970	0.333	3.174	-12.573	-5.920	-72.58	11.52	-90.80	-72.422	-70.658	11.074	0.60208	-0.35175	0.48151	-0.53085	31.1	13111	100
2025-3-27 18:23:37.336	WT901BLE68-01(48591DE3C19B)	-0.077	-0.970	0.333	3.174	-12.573	-5.920	-72.52	11.42	-90.76	-72.422	-70.658	11.074	0.60208	-0.35175	0.48151	-0.53085	31.1	13111	100
2025-3-27 18:23:37.369	WT901BLE68-01(48591DE3C19B)	-0.077	-0.964	0.299	8.972	-2.258	-7.996	-72.43	11.33	-90.82	-72.422	-70.658	11.074	0.60208	-0.35175	0.48151	-0.53085	31.1	13111	100
2025-3-27 18:23:37.369	WT901BLE68-01(48591DE3C19B)	-0.065	-0.964	0.299	8.972	-2.258	-7.996	-72.33	11.24	-90.88	-72.422	-70.658	11.074	0.60208	-0.35175	0.48151	-0.53085	31.1	13111	100
2025-3-27 18:23:37.369	WT901BLE68-01(48591DE3C19B)	-0.065	-0.931	0.271	13.550	10.193	-9.766	-72.22	11.17	-91.06	-72.422	-70.658	11.074	0.60208	-0.35175	0.48151	-0.53085	31.1	13111	100
2025-3-27 18:23:37.369	WT901BLE68-01(48591DE3C19B)	-0.079	-0.931	0.271	13.550	10.193	-9.766	-72.11	11.10	-91.24	-72.422	-70.658	11.074	0.60208	-0.35175	0.48151	-0.53085	31.1	13111	100
2025-3-27 18:23:37.398	WT901BLE68-01(48591DE3C19B)	-0.079	-0.904	0.264	15.686	19.958	-10.620	-72.00	11.04	-91.51	-72.422	-70.658	11.074	0.60208	-0.35175	0.48151	-0.53085	31.1	13111	100
2025-3-27 18:23:37.398	WT901BLE68-01(48591DE3C19B)	-0.081	-0.904	0.264	15.686	19.958	-10.620	-71.89	10.99	-91.79	-72.422	-70.658	11.074	0.60208	-0.35175	0.48151	-0.53085	31.1	13111	100
2025-3-27 18:23:37.398	WT901BLE68-01(48591DE3C19B)	-0.081	-0.877	0.261	15.808	26.306	-10.437	-71.79	10.95	-92.11	-72.422	-70.658	11.074	0.60208	-0.35175	0.48151	-0.53085	31.1	13111	100
2025-3-27 18:23:37.398	WT901BLE68-01(48591DE3C19B)	-0.073	-0.877	0.261	15.808	26.306	-10.437	-71.69	10.91	-92.44	-72.422	-70.658	11.074	0.60208	-0.35175	0.48151	-0.53085	31.1	13111	100
2025-3-27 18:23:37.456	WT901BLE68-01(48591DE3C19B)	-0.073	-0.866	0.245	12.878	31.799	-9.888	-71.64	10.90	-92.81	-72.422	-70.658	11.074	0.60208	-0.35175	0.48151	-0.53085	31.1	13111	100
2025-3-27 18:23:37.456	WT901BLE68-01(48591DE3C19B)	-0.084	-0.866	0.245	12.878	31.799	-9.888	-71.58	10.88	-93.19	-72.618	-70.952	12.250	0.60208	-0.35175	0.48151	-0.53085	31.1	13111	100
2025-3-27 18:23:37.456	WT901BLE68-01(48591DE3C19B)	-0.084	-0.913	0.231	8.057	35.828	-10.498	-71.58	10.87	-93.59	-72.618	-70.952	12.250	0.60208	-0.35175	0.48151	-0.53085	31.1	13111	100
2025-3-27 18:23:37.456	WT901BLE68-01(48591DE3C19B)	-0.125	-0.913	0.231	8.057	35.828	-10.498	-71.58	10.86	-93.99	-72.618	-70.952	12.250	0.60208	-0.35175	0.48151	-0.53085	31.1	13111	100
2025-3-27 18:23:37.486	WT901BLE68-01(48591DE3C19B)	-0.125	-0.991	0.235	2.991	35.645	-12.024	-71.64	10.83	-94.39	-72.618	-70.952	12.250	0.60208	-0.35175	0.48151	-0.53085	31.1	13111	100
2025-3-27 18:23:37.486	WT901BLE68-01(48591DE3C19B)	-0.185	-0.991	0.235	2.991	35.645	-12.024	-71.70	10.81	-94.80	-72.618	-70.952	12.250	0.60208	-0.35175	0.48151	-0.53085	31.1	13111	100
2025-3-27 18:23:37.486	WT901BLE68-01(48591DE3C19B)	-0.185	-1.104	0.263	-2.380	28.809	-14.648	-71.80	10.73	-95.13	-72.618	-70.952	12.250	0.60208	-0.35175	0.48151	-0.53085	31.1	13111	100
2025-3-27 18:23:37.486	WT901BLE68-01(48591DE3C19B)	-0.231	-1.104	0.263	-2.380	28.809	-14.648	-71.89	10.67	-95.47	-72.618	-70.952	12.250	0.60208	-0.35175	0.48151	-0.53085	31.1	13111	100
2025-3-27 18:23:37.515	WT901BLE68-01(48591DE3C19B)	-0.231	-1.200	0.303	-3.235	19.409	-18.311	-71.99	10.54	-95.72	-72.618	-70.952	12.250	0.60208	-0.35175	0.48151	-0.53085	31.1	13111	100
2025-3-27 18:23:37.516	WT901BLE68-01(48591DE3C19B)	-0.241	-1.200	0.303	-3.235	19.409	-18.311	-72.08	10.40	-95.97	-72.618	-70.952	12.250	0.60208	-0.35175	0.48151	-0.53085	31.1	13111	100
2025-3-27 18:23:37.516	WT901BLE68-01(48591DE3C19B)	-0.241	-1.166	0.324	0.854	9.705	-20.813	-72.12	10.22	-96.13	-72.618	-70.952	12.250	0.60208	-0.35175	0.48151	-0.53085	31.1	13111	100
2025-3-27 18:23:37.516	WT901BLE68-01(48591DE3C19B)	-0.208	-1.166	0.324	0.854	9.705	-20.813	-72.15	10.05	-96.30	-72.618	-70.952	12.250	0.60208	-0.35175	0.48151	-0.53085	31.1	13111	100
2025-3-27 18:23:37.575	WT901BLE68-01(48591DE3C19B)	-0.208	-1.022	0.317	1.038	3.723	-21.851	-72.17	9.84	-96.41	-72.618	-70.952	12.250	0.60208	-0.35175	0.48151	-0.53085	31.1	13111	100
2025-3-27 18:23:37.575	WT901BLE68-01(48591DE3C19B)	-0.167	-1.022	0.317	1.038	3.723	-21.851	-72.20	9.65	-96.52	-72.618	-70.952	12.250	0.60208	-0.35175	0.48151	-0.53085	31.1	13111	100
2025-3-27 18:23:37.575	WT901BLE68-01(48591DE3C19B)	-0.167	-0.905	0.291	-1.160	8.789	-22.827	-72.25	9.45	-96.68	-72.618	-70.952	12.250	0.60208	-0.35175	0.48151	-0.53085	31.1	13111	100
2025-3-27 18:23:37.576	WT901BLE68-01(48591DE3C19B)	-0.153	-0.905	0.291	-1.160	8.789	-22.827	-72.30	9.26	-96.85	-72.618	-70.952	12.250	0.60208	-0.35175	0.48151	-0.53085	31.1	13111	100
2025-3-27 18:23:37.608	WT901BLE68-01(48591DE3C19B)	-0.153	-0.806	0.273	-2.991	18.250	-24.658	-72.37	9.09	-97.11	-72.618	-70.952	12.250	0.60208	-0.35175	0.48151	-0.53085	31.1	13111	100
2025-3-27 18:23:37.608	WT901BLE68-01(48591DE3C19B)	-0.170	-0.806	0.273	-2.991	18.250	-24.658	-72.45	8.90	-97.37	-72.618	-70.952	12.250	0.60208	-0.35175	0.48151	-0.53085	31.1	13111	100
2025-3-27 18:23:37.608	WT901BLE68-01(48591DE3C19B)	-0.170	-0.741	0.279	-6.287	25.757	-27.222	-72.57	8.73	-97.72	-72.618	-70.952	12.250	0.60208	-0.35175	0.48151	-0.53085	31.1	13111	100
2025-3-27 18:23:37.608	WT901BLE68-01(48591DE3C19B)	-0.215	-0.741	0.279	-6.287	25.757	-27.222	-72.69	8.55	-98.06	-72.618	-70.952	12.250	0.60208	-0.35175	0.48151	-0.53085	31.1	13111	100
2025-3-27 18:23:37.637	WT901BLE68-01(48591DE3C19B)	-0.215	-0.741	0.286	-8.423	27.527	-30.823	-72.82	8.35	-98.44	-72.618	-70.952	12.250	0.60208	-0.35175	0.48151	-0.53085	31.1	13111	100
2025-3-27 18:23:37.638	WT901BLE68-01(48591DE3C19B)	-0.264	-0.741	0.286	-8.423	27.527	-30.823	-72.95	8.15	-98.82	-72.618	-70.952	12.250	0.60208	-0.35175	0.48151	-0.53085	31.1	13111	100
2025-3-27 18:23:37.638	WT901BLE68-01(48591DE3C19B)	-0.309	-0.741	0.299	-7.874	22.461	-34.485	-73.07	7.91	-99.16	-72.618	-70.952	12.250	0.54950	-0.34308	0.48834	-0.58459	31.1	13111	100
2025-3-27 18:23:37.638	WT901BLE68-01(48591DE3C19B)	-0.309	-0.756	0.311	-8.545	12.390	-38.940	-73.18	7.63	-99.45	-72.618	-70.952	12.250	0.54950	-0.34308	0.48834	-0.58459	31.1	13111	100
2025-3-27 18:23:37.696	WT901BLE68-01(48591DE3C19B)	-0.354	-0.756	0.311	-8.545	12.390	-38.940	-73.28	7.33	-99.72	-72.618	-70.952	12.250	0.54950	-0.34308	0.48834	-0.58459	31.1	13111	100
2025-3-27 18:23:37.696	WT901BLE68-01(48591DE3C19B)	-0.354	-0.806	0.347	-8.850	-1.892	-43.213	-73.37	6.99	-99.92	-72.618	-70.952	12.250	0.54950	-0.34308	0.48834	-0.58459	31.1	13111	100
2025-3-27 18:23:37.696	WT901BLE68-01(48591DE3C19B)	-0.384	-0.806	0.347	-8.850	-1.892	-43.213	-73.45	6.61	-100.07	-72.618	-70.952	12.250	0.54950	-0.34308	0.48834	-0.58459	31.1	13111	100
2025-3-27 18:23:37.696	WT901BLE68-01(48591DE3C19B)	-0.384	-0.856	0.387	-8.362	-18.127	-46.021	-73.52	6.21	-100.15	-72.618	-70.952	12.250	0.54950	-0.34308	0.48834	-0.58459	31.1	13111	100
2025-3-27 18:23:37.724	WT901BLE68-01(48591DE3C19B)	-0.392	-0.856	0.387	-8.362	-18.127	-46.021	-73.57	5.77	-100.16	-72.618	-70.952	12.250	0.54950	-0.34308	0.48834	-0.58459	31.1	13111	100
2025-3-27 18:23:37.725	WT901BLE68-01(48591DE3C19B)	-0.392	-0.883	0.431	-7.324	-30.640	-46.997	-73.61	5.32	-100.12	-72.618	-70.952	12.250	0.54950	-0.34308	0.48834	-0.58459	31.1	13111	100
2025-3-27 18:23:37.725	WT901BLE68-01(48591DE3C19B)	-0.403	-0.883	0.431	-7.324	-30.640	-46.997	-73.63	4.85	-100.04	-72.618	-70.952	12.250	0.54950	-0.34308	0.48834	-0.58459	31.1	13111	100
2025-3-27 18:23:37.725	WT901BLE68-01(48591DE3C19B)	-0.403	-0.925	0.459	-5.981	-36.987	-46.265	-73.64	4.38	-99.93	-72.618	-70.952	12.250	0.54950	-0.34308	0.48834	-0.58459	31.1	13111	100
2025-3-27 18:23:37.755	WT901BLE68-01(48591DE3C19B)	-0.377	-0.925	0.459	-5.981	-36.987	-46.265	-73.64	3.91	-99.79	-72.618	-70.952	12.250	0.54950	-0.34308	0.48834	-0.58459	31.1	13111	100
2025-3-27 18:23:37.755	WT901BLE68-01(48591DE3C19B)	-0.377	-0.934	0.479	-3.479	-38.086	-43.152	-73.62	3.46	-99.66	-72.618	-70.952	12.250	0.54950	-0.34308	0.48834	-0.58459	31.1	13111	100
2025-3-27 18:23:37.755	WT901BLE68-01(48591DE3C19B)	-0.374	-0.934	0.479	-3.479	-38.086	-43.152	-73.59	3.03	-99.51	-72.618	-70.952	12.250	0.54950	-0.34308	0.48834	-0.58459	31.1	13111	100
2025-3-27 18:23:37.755	WT901BLE68-01(48591DE3C19B)	-0.374	-0.935	0.476	-1.892	-32.959	-37.170	-73.55	2.63	-99.40	-72.618	-70.952	12.250	0.54950	-0.34308	0.48834	-0.58459	31.1	13111	100
2025-3-27 18:23:37.936	WT901BLE68-01(48591DE3C19B)	-0.357	-0.935	0.476	-1.892	-32.959	-37.170	-73.50	2.27	-99.31	-72.618	-70.952	12.250	0.54950	-0.34308	0.48834	-0.58459	31.1	13111	100
2025-3-27 18:23:37.936	WT901BLE68-01(48591DE3C19B)	-0.357	-0.980	0.454	-1.953	-25.085	-32.410	-73.45	1.94	-99.24	-72.618	-70.952	12.250	0.54950	-0.34308	0.48834	-0.58459	31.1	13111	100
2025-3-27 18:23:37.937	WT901BLE68-01(48591DE3C19B)	-0.343	-0.980	0.454	-1.953	-25.085	-32.410	-73.40	1.65	-99.22	-72.618	-70.952	12.250	0.54950	-0.34308	0.48834	-0.58459	31.1	13111	100
2025-3-27 18:23:37.937	WT901BLE68-01(48591DE3C19B)	-0.343	-1.063	0.414	-2.563	-14.954	-28.809	-73.36	1.40	-99.23	-72.618	-70.952	12.250	0.54950	-0.34308	0.48834	-0.58459	31.1	13111	100
2025-3-27 18:23:37.937	WT901BLE68-01(48591DE3C19B)	-0.356	-1.063	0.414	-2.563	-14.954	-28.809	-73.32	1.17	-99.29	-63.602	-73.010	10.584	0.54950	-0.34308	0.48834	-0.58459	31.1	13111	100
2025-3-27 18:23:37.937	WT901BLE68-01(48591DE3C19B)	-0.356	-1.164	0.407	-2.258	-6.409	-25.146	-73.29	0.98	-99.37	-63.602	-73.010	10.584	0.54950	-0.34308	0.48834	-0.58459	31.1	13111	100
2025-3-27 18:23:37.937	WT901BLE68-01(48591DE3C19B)	-0.373	-1.164	0.407	-2.258	-6.409	-25.146	-73.26	0.81	-99.49	-63.602	-73.010	10.584	0.54950	-0.34308	0.48834	-0.58459	31.1	13111	100
2025-3-27 18:23:37.938	WT901BLE68-01(48591DE3C19B)	-0.373	-1.253	0.412	-3.174	1.221	-21.484	-73.24	0.68	-99.63	-63.602	-73.010	10.584	0.54950	-0.34308	0.48834	-0.58459	31.1	13111	100
2025-3-27 18:23:37.938	WT901BLE68-01(48591DE3C19B)	-0.373	-1.253	0.412	-3.174	1.221	-21.484	-73.23	0.58	-99.79	-63.602	-73.010	10.584	0.54950	-0.34308	0.48834	-0.58459	31.1	13111	100
2025-3-27 18:23:37.938	WT901BLE68-01(48591DE3C19B)	-0.373	-1.330	0.406	-5.432	10.925	-18.738	-73.23	0.49	-100.00	-63.602	-73.010	10.584	0.54950	-0.34308	0.48834	-0.58459	31.1	13111	100
2025-3-27 18:23:37.938	WT901BLE68-01(48591DE3C19B)	-0.388	-1.330	0.406	-5.432	10.925	-18.738	-73.25	0.44	-100.23	-63.602	-73.010	10.584	0.54950	-0.34308	0.48834	-0.58459	31.1	13111	100
2025-3-27 18:23:37.938	WT901BLE68-01(48591DE3C19B)	-0.388	-1.397	0.414	-9.155	22.766	-16.296	-73.30	0.42	-100.51	-63.602	-73.010	10.584	0.54950	-0.34308	0.48834	-0.58459	31.1	13111	100
2025-3-27 18:23:37.939	WT901BLE68-01(48591DE3C19B)	-0.432	-1.397	0.414	-9.155	22.766	-16.296	-73.36	0.42	-100.84	-63.602	-73.010	10.584	0.54950	-0.34308	0.48834	-0.58459	31.1	13111	100
2025-3-27 18:23:37.939	WT901BLE68-01(48591DE3C19B)	-0.432	-1.450	0.431	-12.451	31.128	-13.367	-73.44	0.46	-101.20	-63.602	-73.010	10.584	0.54950	-0.34308	0.48834	-0.58459	31.1	13111	100
2025-3-27 18:23:37.939	WT901BLE68-01(48591DE3C19B)	-0.478	-1.450	0.431	-12.451	31.128	-13.367	-73.55	0.51	-101.59	-63.602	-73.010	10.584	0.54950	-0.34308	0.48834	-0.58459	31.1	13111	100
2025-3-27 18:23:37.939	WT901BLE68-01(48591DE3C19B)	-0.478	-1.406	0.436	-15.625	27.405	-8.362	-73.67	0.58	-101.94	-63.602	-73.010	10.584	0.54950	-0.34308	0.48834	-0.58459	31.1	13111	100
2025-3-27 18:23:37.969	WT901BLE68-01(48591DE3C19B)	-0.502	-1.406	0.436	-15.625	27.405	-8.362	-73.81	0.67	-102.28	-63.602	-73.010	10.584	0.54950	-0.34308	0.48834	-0.58459	31.1	13111	100
2025-3-27 18:23:37.969	WT901BLE68-01(48591DE3C19B)	-0.502	-1.280	0.430	-17.883	14.648	-0.977	-73.95	0.78	-102.54	-63.602	-73.010	10.584	0.54950	-0.34308	0.48834	-0.58459	31.1	13111	100
2025-3-27 18:23:37.969	WT901BLE68-01(48591DE3C19B)	-0.536	-1.280	0.430	-17.883	14.648	-0.977	-74.11	0.91	-102.72	-63.602	-73.010	10.584	0.54950	-0.34308	0.48834	-0.58459	31.1	13111	100
2025-3-27 18:23:37.970	WT901BLE68-01(48591DE3C19B)	-0.536	-1.064	0.411	-15.869	0.488	12.878	-74.26	1.08	-102.83	-63.602	-73.010	10.584	0.54950	-0.34308	0.48834	-0.58459	31.1	13111	100
2025-3-27 18:23:38.25	WT901BLE68-01(48591DE3C19B)	-0.513	-1.064	0.411	-15.869	0.488	12.878	-74.39	1.31	-102.85	-63.602	-73.010	10.584	0.54950	-0.34308	0.48834	-0.58459	31.1	13111	100
2025-3-27 18:23:38.26	WT901BLE68-01(48591DE3C19B)	-0.513	-0.806	0.341	-14.282	-18.127	32.959	-74.50	1.61	-102.76	-63.602	-73.010	10.584	0.54950	-0.34308	0.48834	-0.58459	31.1	13111	100
2025-3-27 18:23:38.26	WT901BLE68-01(48591DE3C19B)	-0.436	-0.806	0.341	-14.282	-18.127	32.959	-74.61	1.98	-102.56	-63.602	-73.010	10.584	0.54950	-0.34308	0.48834	-0.58459	31.1	13111	100
2025-3-27 18:23:38.26	WT901BLE68-01(48591DE3C19B)	-0.436	-0.615	0.241	-18.005	-40.283	56.458	-74.72	2.44	-102.24	-63.602	-73.010	10.584	0.54950	-0.34308	0.48834	-0.58459	31.1	13111	100
2025-3-27 18:23:38.55	WT901BLE68-01(48591DE3C19B)	-0.370	-0.615	0.241	-18.005	-40.283	56.458	-74.83	2.99	-101.78	-63.602	-73.010	10.584	0.54950	-0.34308	0.48834	-0.58459	31.1	13111	100
2025-3-27 18:23:38.55	WT901BLE68-01(48591DE3C19B)	-0.370	-0.616	0.173	-25.208	-57.068	74.951	-74.97	3.60	-101.22	-63.602	-73.010	10.584	0.51804	-0.36667	0.48596	-0.60077	31.1	13111	100
2025-3-27 18:23:38.55	WT901BLE68-01(48591DE3C19B)	-0.333	-0.616	0.173	-25.208	-57.068	74.951	-75.13	4.29	-100.56	-63.602	-73.010	10.584	0.51804	-0.36667	0.48596	-0.60077	31.1	13111	100
2025-3-27 18:23:38.55	WT901BLE68-01(48591DE3C19B)	-0.333	-0.763	0.125	-25.024	-68.176	89.233	-75.28	5.03	-99.83	-63.602	-73.010	10.584	0.51804	-0.36667	0.48596	-0.60077	31.1	13111	100
2025-3-27 18:23:38.87	WT901BLE68-01(48591DE3C19B)	-0.290	-0.763	0.125	-25.024	-68.176	89.233	-75.41	5.82	-99.03	-63.602	-73.010	10.584	0.51804	-0.36667	0.48596	-0.60077	31.1	13111	100
2025-3-27 18:23:38.88	WT901BLE68-01(48591DE3C19B)	-0.290	-0.812	0.113	-18.677	-76.233	98.694	-75.50	6.65	-98.16	-63.602	-73.010	10.584	0.51804	-0.36667	0.48596	-0.60077	31.1	13111	100
2025-3-27 18:23:38.88	WT901BLE68-01(48591DE3C19B)	-0.268	-0.812	0.113	-18.677	-76.233	98.694	-75.54	7.50	-97.23	-63.602	-73.010	10.584	0.51804	-0.36667	0.48596	-0.60077	31.1	13111	100
2025-3-27 18:23:38.88	WT901BLE68-01(48591DE3C19B)	-0.268	-0.858	0.141	-13.916	-81.909	102.905	-75.55	8.37	-96.26	-63.602	-73.010	10.584	0.51804	-0.36667	0.48596	-0.60077	31.1	13111	100
2025-3-27 18:23:38.118	WT901BLE68-01(48591DE3C19B)	-0.244	-0.858	0.141	-13.916	-81.909	102.905	-75.51	9.23	-95.25	-63.602	-73.010	10.584	0.51804	-0.36667	0.48596	-0.60077	31.1	13111	100
2025-3-27 18:23:38.118	WT901BLE68-01(48591DE3C19B)	-0.244	-0.964	0.136	-6.653	-81.909	102.234	-75.39	10.09	-94.23	-63.602	-73.010	10.584	0.51804	-0.36667	0.48596	-0.60077	31.1	13111	100
2025-3-27 18:23:38.118	WT901BLE68-01(48591DE3C19B)	-0.180	-0.964	0.136	-6.653	-81.909	102.234	-75.26	10.93	-93.20	-63.602	-73.010	10.584	0.51804	-0.36667	0.48596	-0.60077	31.1	13111	100
2025-3-27 18:23:38.118	WT901BLE68-01(48591DE3C19B)	-0.180	-0.941	0.113	5.066	-72.876	101.013	-75.03	11.77	-92.26	-63.602	-73.010	10.584	0.51804	-0.36667	0.48596	-0.60077	31.1	13111	100
2025-3-27 18:23:38.175	WT901BLE68-01(48591DE3C19B)	-0.112	-0.941	0.113	5.066	-72.876	101.013	-74.78	12.60	-91.30	-63.602	-73.010	10.584	0.51804	-0.36667	0.48596	-0.60077	31.1	13111	100
2025-3-27 18:23:38.176	WT901BLE68-01(48591DE3C19B)	-0.112	-0.831	0.081	10.681	-54.565	100.098	-74.51	13.44	-90.52	-63.602	-73.010	10.584	0.51804	-0.36667	0.48596	-0.60077	31.1	13111	100
2025-3-27 18:23:38.176	WT901BLE68-01(48591DE3C19B)	-0.088	-0.831	0.081	10.681	-54.565	100.098	-74.23	14.28	-89.73	-63.602	-73.010	10.584	0.51804	-0.36667	0.48596	-0.60077	31.1	13111	100
2025-3-27 18:23:38.176	WT901BLE68-01(48591DE3C19B)	-0.088	-0.767	0.074	10.864	-31.494	96.863	-74.00	15.13	-89.17	-63.602	-73.010	10.584	0.51804	-0.36667	0.48596	-0.60077	31.1	13111	100
2025-3-27 18:23:38.208	WT901BLE68-01(48591DE3C19B)	-0.092	-0.767	0.074	10.864	-31.494	96.863	-73.77	15.98	-88.60	-63.602	-73.010	10.584	0.51804	-0.36667	0.48596	-0.60077	31.1	13111	100
2025-3-27 18:23:38.208	WT901BLE68-01(48591DE3C19B)	-0.092	-0.824	0.077	7.568	-11.902	93.323	-73.62	16.83	-88.23	-63.602	-73.010	10.584	0.51804	-0.36667	0.48596	-0.60077	31.1	13111	100
2025-3-27 18:23:38.208	WT901BLE68-01(48591DE3C19B)	-0.066	-0.824	0.077	7.568	-11.902	93.323	-73.47	17.67	-87.85	-63.602	-73.010	10.584	0.51804	-0.36667	0.48596	-0.60077	31.1	13111	100
2025-3-27 18:23:38.208	WT901BLE68-01(48591DE3C19B)	-0.066	-0.849	0.078	8.789	2.686	88.989	-73.35	18.50	-87.64	-63.602	-73.010	10.584	0.51804	-0.36667	0.48596	-0.60077	31.1	13111	100
2025-3-27 18:23:38.236	WT901BLE68-01(48591DE3C19B)	-0.062	-0.849	0.078	8.789	2.686	88.989	-73.23	19.32	-87.41	-63.602	-73.010	10.584	0.51804	-0.36667	0.48596	-0.60077	31.1	13111	100
2025-3-27 18:23:38.236	WT901BLE68-01(48591DE3C19B)	-0.062	-0.845	0.095	4.700	12.451	84.839	-73.19	20.12	-87.30	-63.602	-73.010	10.584	0.51804	-0.36667	0.48596	-0.60077	31.1	13111	100
2025-3-27 18:23:38.236	WT901BLE68-01(48591DE3C19B)	-0.092	-0.845	0.095	4.700	12.451	84.839	-73.15	20.91	-87.18	-82.516	-58.702	9.016	0.51804	-0.36667	0.48596	-0.60077	31.1	13111	100
2025-3-27 18:23:38.237	WT901BLE68-01(48591DE3C19B)	-0.092	-0.995	0.085	-3.113	14.648	78.796	-73.20	21.64	-87.11	-82.516	-58.702	9.016	0.51804	-0.36667	0.48596	-0.60077	31.1	13111	100
2025-3-27 18:23:38.296	WT901BLE68-01(48591DE3C19B)	-0.058	-0.995	0.085	-3.113	14.648	78.796	-73.26	22.37	-87.03	-82.516	-58.702	9.016	0.51804	-0.36667	0.48596	-0.60077	31.1	13111	100
2025-3-27 18:23:38.296	WT901BLE68-01(48591DE3C19B)	-0.058	-1.190	0.064	-7.874	12.268	72.205	-73.36	23.01	-86.96	-82.516	-58.702	9.016	0.51804	-0.36667	0.48596	-0.60077	31.1	13111	100
2025-3-27 18:23:38.296	WT901BLE68-01(48591DE3C19B)	0.004	-1.190	0.064	-7.874	12.268	72.205	-73.46	23.65	-86.87	-82.516	-58.702	9.016	0.51804	-0.36667	0.48596	-0.60077	31.1	13111	100
2025-3-27 18:23:38.296	WT901BLE68-01(48591DE3C19B)	0.004	-1.363	0.043	-10.864	11.597	63.782	-73.61	24.19	-86.82	-82.516	-58.702	9.016	0.51804	-0.36667	0.48596	-0.60077	31.1	13111	100
2025-3-27 18:23:38.326	WT901BLE68-01(48591DE3C19B)	0.001	-1.363	0.043	-10.864	11.597	63.782	-73.75	24.73	-86.76	-82.516	-58.702	9.016	0.51804	-0.36667	0.48596	-0.60077	31.1	13111	100
2025-3-27 18:23:38.326	WT901BLE68-01(48591DE3C19B)	0.001	-1.492	0.058	-12.573	10.864	53.040	-73.93	25.15	-86.73	-82.516	-58.702	9.016	0.51804	-0.36667	0.48596	-0.60077	31.1	13111	100
2025-3-27 18:23:38.326	WT901BLE68-01(48591DE3C19B)	-0.065	-1.492	0.058	-12.573	10.864	53.040	-74.11	25.57	-86.70	-82.516	-58.702	9.016	0.51804	-0.36667	0.48596	-0.60077	31.1	13111	100
2025-3-27 18:23:38.326	WT901BLE68-01(48591DE3C19B)	-0.065	-1.568	0.111	-16.846	0.793	42.480	-74.30	25.85	-86.60	-82.516	-58.702	9.016	0.51804	-0.36667	0.48596	-0.60077	31.1	13111	100
2025-3-27 18:23:38.355	WT901BLE68-01(48591DE3C19B)	-0.103	-1.568	0.111	-16.846	0.793	42.480	-74.49	26.13	-86.50	-82.516	-58.702	9.016	0.51804	-0.36667	0.48596	-0.60077	31.1	13111	100
2025-3-27 18:23:38.355	WT901BLE68-01(48591DE3C19B)	-0.103	-1.685	0.162	-15.808	-12.939	29.968	-74.61	26.26	-86.29	-82.516	-58.702	9.016	0.51804	-0.36667	0.48596	-0.60077	31.1	13111	100
2025-3-27 18:23:38.355	WT901BLE68-01(48591DE3C19B)	0.035	-1.685	0.162	-15.808	-12.939	29.968	-74.74	26.38	-86.09	-82.516	-58.702	9.016	0.51804	-0.36667	0.48596	-0.60077	31.1	13111	100
2025-3-27 18:23:38.355	WT901BLE68-01(48591DE3C19B)	0.035	-1.677	0.194	-4.883	-21.545	16.357	-74.73	26.35	-85.83	-82.516	-58.702	9.016	0.51804	-0.36667	0.48596	-0.60077	31.1	13111	100
2025-3-27 18:23:38.418	WT901BLE68-01(48591DE3C19B)	0.150	-1.677	0.194	-4.883	-21.545	16.357	-74.73	26.31	-85.58	-82.516	-58.702	9.016	0.51804	-0.36667	0.48596	-0.60077	31.1	13111	100
2025-3-27 18:23:38.418	WT901BLE68-01(48591DE3C19B)	0.150	-1.476	0.174	5.432	-10.864	8.362	-74.68	26.21	-85.47	-82.516	-58.702	9.016	0.51804	-0.36667	0.48596	-0.60077	31.1	13111	100
2025-3-27 18:23:38.418	WT901BLE68-01(48591DE3C19B)	0.231	-1.476	0.174	5.432	-10.864	8.362	-74.63	26.12	-85.36	-82.516	-58.702	9.016	0.51804	-0.36667	0.48596	-0.60077	31.1	13111	100
2025-3-27 18:23:38.418	WT901BLE68-01(48591DE3C19B)	0.231	-1.375	0.122	7.874	12.573	-4.639	-74.69	25.96	-85.54	-82.516	-58.702	9.016	0.51804	-0.36667	0.48596	-0.60077	31.1	13111	100
2025-3-27 18:23:38.448	WT901BLE68-01(48591DE3C19B)	0.252	-1.375	0.122	7.874	12.573	-4.639	-74.74	25.79	-85.72	-82.516	-58.702	9.016	0.51804	-0.36667	0.48596	-0.60077	31.1	13111	100
2025-3-27 18:23:38.448	WT901BLE68-01(48591DE3C19B)	0.252	-1.393	0.079	10.742	46.326	-24.414	-74.95	25.52	-86.31	-82.516	-58.702	9.016	0.51804	-0.36667	0.48596	-0.60077	31.1	13111	100
2025-3-27 18:23:38.448	WT901BLE68-01(48591DE3C19B)	0.137	-1.393	0.079	10.742	46.326	-24.414	-75.15	25.24	-86.91	-82.516	-58.702	9.016	0.51804	-0.36667	0.48596	-0.60077	31.1	13111	100
2025-3-27 18:23:38.448	WT901BLE68-01(48591DE3C19B)	0.137	-1.443	0.045	15.625	78.125	-46.997	-75.47	24.81	-87.89	-82.516	-58.702	9.016	0.64734	-0.31241	0.53711	-0.44131	31.1	13111	100
2025-3-27 18:23:38.506	WT901BLE68-01(48591DE3C19B)	-0.023	-1.443	0.045	15.625	78.125	-46.997	-75.77	24.38	-88.86	-82.516	-58.702	9.016	0.64734	-0.31241	0.53711	-0.44131	31.1	13111	100
2025-3-27 18:23:38.506	WT901BLE68-01(48591DE3C19B)	-0.023	-1.302	0.082	25.940	88.623	-64.392	-76.03	23.82	-89.98	-82.516	-58.702	9.016	0.64734	-0.31241	0.53711	-0.44131	31.1	13111	100
2025-3-27 18:23:38.506	WT901BLE68-01(48591DE3C19B)	-0.096	-1.302	0.082	25.940	88.623	-64.392	-76.27	23.25	-91.09	-82.516	-58.702	9.016	0.64734	-0.31241	0.53711	-0.44131	31.1	13111	100
2025-3-27 18:23:38.506	WT901BLE68-01(48591DE3C19B)	-0.096	-1.017	0.139	30.518	79.224	-75.500	-76.42	22.55	-92.11	-82.516	-58.702	9.016	0.64734	-0.31241	0.53711	-0.44131	31.1	13111	100
2025-3-27 18:23:38.535	WT901BLE68-01(48591DE3C19B)	-0.049	-1.017	0.139	30.518	79.224	-75.500	-76.56	21.86	-93.12	-82.516	-58.702	9.016	0.64734	-0.31241	0.53711	-0.44131	31.1	13111	100
2025-3-27 18:23:38.535	WT901BLE68-01(48591DE3C19B)	-0.049	-0.794	0.189	25.879	69.336	-77.209	-76.68	21.14	-94.02	-82.516	-58.702	9.016	0.64734	-0.31241	0.53711	-0.44131	31.1	13111	100
2025-3-27 18:23:38.536	WT901BLE68-01(48591DE3C19B)	-0.043	-0.794	0.189	25.879	69.336	-77.209	-76.79	20.41	-94.91	-82.516	-58.702	9.016	0.64734	-0.31241	0.53711	-0.44131	31.1	13111	100
2025-3-27 18:23:38.536	WT901BLE68-01(48591DE3C19B)	-0.043	-0.755	0.227	20.264	64.575	-76.294	-76.92	19.69	-95.74	-82.516	-58.702	9.016	0.64734	-0.31241	0.53711	-0.44131	31.1	13111	100
2025-3-27 18:23:38.568	WT901BLE68-01(48591DE3C19B)	-0.072	-0.755	0.227	20.264	64.575	-76.294	-77.03	18.98	-96.56	-82.516	-58.702	9.016	0.64734	-0.31241	0.53711	-0.44131	31.1	13111	100
2025-3-27 18:23:38.568	WT901BLE68-01(48591DE3C19B)	-0.041	-0.813	0.188	16.174	54.993	-78.735	-77.14	18.23	-97.29	-82.516	-58.702	9.016	0.64734	-0.31241	0.53711	-0.44131	31.1	13111	100
2025-3-27 18:23:38.568	WT901BLE68-01(48591DE3C19B)	-0.041	-0.848	0.151	15.747	41.992	-81.360	-77.21	17.45	-97.94	-82.516	-58.702	9.016	0.64734	-0.31241	0.53711	-0.44131	31.1	13111	100
2025-3-27 18:23:38.568	WT901BLE68-01(48591DE3C19B)	-0.042	-0.848	0.151	15.747	41.992	-81.360	-77.26	16.65	-98.53	-82.516	-58.702	9.016	0.64734	-0.31241	0.53711	-0.44131	31.1	13111	100
2025-3-27 18:23:38.625	WT901BLE68-01(48591DE3C19B)	-0.042	-0.836	0.140	13.855	40.466	-87.585	-77.30	15.82	-99.10	-82.516	-58.702	9.016	0.64734	-0.31241	0.53711	-0.44131	31.1	13111	100
2025-3-27 18:23:38.625	WT901BLE68-01(48591DE3C19B)	-0.119	-0.836	0.140	13.855	40.466	-87.585	-77.35	14.97	-99.67	-82.516	-58.702	9.016	0.64734	-0.31241	0.53711	-0.44131	31.1	13111	100
2025-3-27 18:23:38.625	WT901BLE68-01(48591DE3C19B)	-0.119	-0.820	0.143	12.329	47.974	-98.877	-77.40	14.07	-100.29	-82.516	-58.702	9.016	0.64734	-0.31241	0.53711	-0.44131	31.1	13111	100
2025-3-27 18:23:38.625	WT901BLE68-01(48591DE3C19B)	-0.231	-0.820	0.143	12.329	47.974	-98.877	-77.46	13.15	-100.95	-82.516	-58.702	9.016	0.64734	-0.31241	0.53711	-0.44131	31.1	13111	100
2025-3-27 18:23:38.655	WT901BLE68-01(48591DE3C19B)	-0.231	-0.802	0.162	11.719	48.706	-111.389	-77.52	12.16	-101.62	-74.774	-56.056	3.430	0.64734	-0.31241	0.53711	-0.44131	31.1	13111	100
2025-3-27 18:23:38.655	WT901BLE68-01(48591DE3C19B)	-0.287	-0.802	0.162	11.719	48.706	-111.389	-77.57	11.13	-102.31	-74.774	-56.056	3.430	0.64734	-0.31241	0.53711	-0.44131	31.1	13111	100
2025-3-27 18:23:38.655	WT901BLE68-01(48591DE3C19B)	-0.287	-0.752	0.198	11.780	40.161	-120.300	-77.60	10.06	-102.96	-74.774	-56.056	3.430	0.64734	-0.31241	0.53711	-0.44131	31.1	13111	100
2025-3-27 18:23:38.655	WT901BLE68-01(48591DE3C19B)	-0.292	-0.752	0.198	11.780	40.161	-120.300	-77.60	8.95	-103.57	-74.774	-56.056	3.430	0.64734	-0.31241	0.53711	-0.44131	31.1	13111	100
2025-3-27 18:23:38.685	WT901BLE68-01(48591DE3C19B)	-0.292	-0.702	0.250	12.024	34.058	-124.512	-77.59	7.83	-104.16	-74.774	-56.056	3.430	0.64734	-0.31241	0.53711	-0.44131	31.1	13111	100
2025-3-27 18:23:38.685	WT901BLE68-01(48591DE3C19B)	-0.324	-0.702	0.250	12.024	34.058	-124.512	-77.55	6.70	-104.72	-74.774	-56.056	3.430	0.64734	-0.31241	0.53711	-0.44131	31.1	13111	100
2025-3-27 18:23:38.685	WT901BLE68-01(48591DE3C19B)	-0.324	-0.657	0.272	12.451	31.128	-125.488	-77.50	5.57	-105.27	-74.774	-56.056	3.430	0.64734	-0.31241	0.53711	-0.44131	31.1	13111	100
2025-3-27 18:23:38.685	WT901BLE68-01(48591DE3C19B)	-0.385	-0.657	0.272	12.451	31.128	-125.488	-77.43	4.45	-105.81	-74.774	-56.056	3.430	0.64734	-0.31241	0.53711	-0.44131	31.1	13111	100
2025-3-27 18:23:38.744	WT901BLE68-01(48591DE3C19B)	-0.385	-0.629	0.271	11.047	22.705	-125.305	-77.34	3.33	-106.31	-74.774	-56.056	3.430	0.64734	-0.31241	0.53711	-0.44131	31.1	13111	100
2025-3-27 18:23:38.744	WT901BLE68-01(48591DE3C19B)	-0.430	-0.629	0.271	11.047	22.705	-125.305	-77.25	2.23	-106.79	-74.774	-56.056	3.430	0.64734	-0.31241	0.53711	-0.44131	31.1	13111	100
2025-3-27 18:23:38.745	WT901BLE68-01(48591DE3C19B)	-0.430	-0.649	0.287	8.057	7.080	-123.047	-77.16	1.14	-107.19	-74.774	-56.056	3.430	0.64734	-0.31241	0.53711	-0.44131	31.1	13111	100
2025-3-27 18:23:38.745	WT901BLE68-01(48591DE3C19B)	-0.506	-0.649	0.287	8.057	7.080	-123.047	-77.07	0.05	-107.53	-74.774	-56.056	3.430	0.64734	-0.31241	0.53711	-0.44131	31.1	13111	100
2025-3-27 18:23:38.774	WT901BLE68-01(48591DE3C19B)	-0.506	-0.792	0.349	3.845	-13.550	-114.502	-76.99	-0.99	-107.76	-74.774	-56.056	3.430	0.64734	-0.31241	0.53711	-0.44131	31.1	13111	100
2025-3-27 18:23:38.774	WT901BLE68-01(48591DE3C19B)	-0.555	-0.792	0.349	3.845	-13.550	-114.502	-76.92	-2.01	-107.91	-74.774	-56.056	3.430	0.64734	-0.31241	0.53711	-0.44131	31.1	13111	100
2025-3-27 18:23:38.775	WT901BLE68-01(48591DE3C19B)	-0.555	-0.979	0.393	5.188	-29.297	-100.769	-76.84	-2.97	-107.97	-74.774	-56.056	3.430	0.64734	-0.31241	0.53711	-0.44131	31.1	13111	100
2025-3-27 18:23:38.775	WT901BLE68-01(48591DE3C19B)	-0.538	-0.979	0.393	5.188	-29.297	-100.769	-76.75	-3.87	-107.96	-74.774	-56.056	3.430	0.64734	-0.31241	0.53711	-0.44131	31.1	13111	100
2025-3-27 18:23:38.806	WT901BLE68-01(48591DE3C19B)	-0.538	-1.132	0.375	7.874	-31.372	-83.557	-76.65	-4.67	-107.92	-74.774	-56.056	3.430	0.64734	-0.31241	0.53711	-0.44131	31.1	13111	100
2025-3-27 18:23:38.806	WT901BLE68-01(48591DE3C19B)	-0.482	-1.132	0.375	7.874	-31.372	-83.557	-76.54	-5.40	-107.85	-74.774	-56.056	3.430	0.64734	-0.31241	0.53711	-0.44131	31.1	13111	100
2025-3-27 18:23:38.806	WT901BLE68-01(48591DE3C19B)	-0.482	-1.233	0.342	9.094	-12.085	-66.467	-76.42	-6.01	-107.87	-74.774	-56.056	3.430	0.64734	-0.31241	0.53711	-0.44131	31.1	13111	100
2025-3-27 18:23:38.807	WT901BLE68-01(48591DE3C19B)	-0.511	-1.233	0.342	9.094	-12.085	-66.467	-76.29	-6.51	-107.96	-74.774	-56.056	3.430	0.64734	-0.31241	0.53711	-0.44131	31.1	13111	100
2025-3-27 18:23:38.869	WT901BLE68-01(48591DE3C19B)	-0.511	-1.382	0.356	7.568	19.470	-49.072	-76.15	-6.90	-108.17	-74.774	-56.056	3.430	0.64734	-0.31241	0.53711	-0.44131	31.1	13111	100
2025-3-27 18:23:38.869	WT901BLE68-01(48591DE3C19B)	-0.581	-1.382	0.356	7.568	19.470	-49.072	-76.01	-7.16	-108.52	-74.774	-56.056	3.430	0.42679	-0.39859	0.46970	-0.66202	31.1	13111	100
2025-3-27 18:23:38.869	WT901BLE68-01(48591DE3C19B)	-0.581	-1.423	0.418	14.038	53.772	-33.691	-75.82	-7.29	-109.01	-74.774	-56.056	3.430	0.42679	-0.39859	0.46970	-0.66202	31.1	13111	100
2025-3-27 18:23:38.869	WT901BLE68-01(48591DE3C19B)	-0.607	-1.423	0.418	14.038	53.772	-33.691	-75.58	-7.32	-109.64	-74.774	-56.056	3.430	0.42679	-0.39859	0.46970	-0.66202	31.1	13111	100
2025-3-27 18:23:38.895	WT901BLE68-01(48591DE3C19B)	-0.607	-1.305	0.448	16.113	82.336	-13.306	-75.32	-7.20	-110.39	-74.774	-56.056	3.430	0.42679	-0.39859	0.46970	-0.66202	31.1	13111	100
2025-3-27 18:23:38.895	WT901BLE68-01(48591DE3C19B)	-0.590	-1.305	0.448	16.113	82.336	-13.306	-75.03	-6.95	-111.25	-74.774	-56.056	3.430	0.42679	-0.39859	0.46970	-0.66202	31.1	13111	100
2025-3-27 18:23:38.895	WT901BLE68-01(48591DE3C19B)	-0.590	-1.128	0.400	13.062	105.530	9.338	-74.76	-6.55	-112.19	-74.774	-56.056	3.430	0.42679	-0.39859	0.46970	-0.66202	31.1	13111	100
2025-3-27 18:23:38.895	WT901BLE68-01(48591DE3C19B)	-0.584	-1.128	0.400	13.062	105.530	9.338	-74.50	-6.02	-113.21	-74.774	-56.056	3.430	0.42679	-0.39859	0.46970	-0.66202	31.1	13111	100
2025-3-27 18:23:38.925	WT901BLE68-01(48591DE3C19B)	-0.584	-1.018	0.304	4.333	119.507	28.931	-74.30	-5.36	-114.27	-74.774	-56.056	3.430	0.42679	-0.39859	0.46970	-0.66202	31.1	13111	100
2025-3-27 18:23:38.925	WT901BLE68-01(48591DE3C19B)	-0.670	-1.018	0.304	4.333	119.507	28.931	-74.14	-4.58	-115.37	-74.774	-56.056	3.430	0.42679	-0.39859	0.46970	-0.66202	31.1	13111	100
2025-3-27 18:23:38.925	WT901BLE68-01(48591DE3C19B)	-0.670	-1.000	0.216	-4.700	112.244	44.678	-74.06	-3.75	-116.40	-74.774	-56.056	3.430	0.42679	-0.39859	0.46970	-0.66202	31.1	13111	100
2025-3-27 18:23:38.925	WT901BLE68-01(48591DE3C19B)	-0.761	-1.000	0.216	-4.700	112.244	44.678	-74.04	-2.84	-117.37	-74.774	-56.056	3.430	0.42679	-0.39859	0.46970	-0.66202	31.1	13111	100
2025-3-27 18:23:38.985	WT901BLE68-01(48591DE3C19B)	-0.761	-0.920	0.171	-11.047	77.454	57.739	-74.08	-1.92	-118.15	-74.774	-56.056	3.430	0.42679	-0.39859	0.46970	-0.66202	31.1	13111	100
2025-3-27 18:23:38.985	WT901BLE68-01(48591DE3C19B)	-0.759	-0.920	0.171	-11.047	77.454	57.739	-74.17	-0.98	-118.75	-74.774	-56.056	3.430	0.42679	-0.39859	0.46970	-0.66202	31.1	13111	100
2025-3-27 18:23:38.985	WT901BLE68-01(48591DE3C19B)	-0.759	-0.813	0.132	-20.325	26.978	71.106	-74.32	-0.05	-119.09	-74.774	-56.056	3.430	0.42679	-0.39859	0.46970	-0.66202	31.1	13111	100
2025-3-27 18:23:38.986	WT901BLE68-01(48591DE3C19B)	-0.702	-0.813	0.132	-20.325	26.978	71.106	-74.52	0.87	-119.18	-74.774	-56.056	3.430	0.42679	-0.39859	0.46970	-0.66202	31.1	13111	100
2025-3-27 18:23:39.16	WT901BLE68-01(48591DE3C19B)	-0.702	-0.795	0.080	-30.090	-23.621	86.060	-74.77	1.81	-119.01	-74.774	-56.056	3.430	0.42679	-0.39859	0.46970	-0.66202	31.1	13111	100
2025-3-27 18:23:39.16	WT901BLE68-01(48591DE3C19B)	-0.648	-0.795	0.080	-30.090	-23.621	86.060	-75.05	2.75	-118.59	-74.774	-56.056	3.430	0.42679	-0.39859	0.46970	-0.66202	31.1	13111	100
2025-3-27 18:23:39.16	WT901BLE68-01(48591DE3C19B)	-0.648	-0.845	0.036	-35.828	-70.984	101.563	-75.34	3.71	-117.91	-74.774	-56.056	3.430	0.42679	-0.39859	0.46970	-0.66202	31.1	13111	100
2025-3-27 18:23:39.16	WT901BLE68-01(48591DE3C19B)	-0.584	-0.845	0.036	-35.828	-70.984	101.563	-75.64	4.69	-116.99	-74.774	-56.056	3.430	0.42679	-0.39859	0.46970	-0.66202	31.1	13111	100
2025-3-27 18:23:39.44	WT901BLE68-01(48591DE3C19B)	-0.584	-0.922	0.006	-38.086	-113.281	114.929	-75.90	5.69	-115.60	-74.774	-56.056	3.430	0.42679	-0.39859	0.46970	-0.66202	31.1	13111	100
2025-3-27 18:23:39.45	WT901BLE68-01(48591DE3C19B)	-0.508	-0.922	0.006	-38.086	-113.281	114.929	-76.16	6.69	-114.21	-74.774	-56.056	3.430	0.42679	-0.39859	0.46970	-0.66202	31.1	13111	100
2025-3-27 18:23:39.45	WT901BLE68-01(48591DE3C19B)	-0.508	-1.010	-0.023	-36.072	-145.630	125.793	-76.34	7.71	-112.45	-60.760	-58.310	2.842	0.42679	-0.39859	0.46970	-0.66202	31.1	13111	100
2025-3-27 18:23:39.45	WT901BLE68-01(48591DE3C19B)	-0.426	-1.010	-0.023	-36.072	-145.630	125.793	-76.49	8.73	-110.68	-60.760	-58.310	2.842	0.42679	-0.39859	0.46970	-0.66202	31.1	13111	100
2025-3-27 18:23:39.106	WT901BLE68-01(48591DE3C19B)	-0.426	-1.024	-0.033	-29.846	-165.710	135.559	-76.53	9.79	-108.67	-60.760	-58.310	2.842	0.42679	-0.39859	0.46970	-0.66202	31.1	13111	100
2025-3-27 18:23:39.106	WT901BLE68-01(48591DE3C19B)	-0.347	-1.024	-0.033	-29.846	-165.710	135.559	-76.53	10.84	-106.64	-60.760	-58.310	2.842	0.42679	-0.39859	0.46970	-0.66202	31.1	13111	100
2025-3-27 18:23:39.106	WT901BLE68-01(48591DE3C19B)	-0.347	-0.990	-0.032	-23.621	-169.861	144.104	-76.42	11.94	-104.55	-60.760	-58.310	2.842	0.42679	-0.39859	0.46970	-0.66202	31.1	13111	100
2025-3-27 18:23:39.106	WT901BLE68-01(48591DE3C19B)	-0.285	-0.990	-0.032	-23.621	-169.861	144.104	-76.27	13.03	-102.45	-60.760	-58.310	2.842	0.42679	-0.39859	0.46970	-0.66202	31.1	13111	100
2025-3-27 18:23:39.134	WT901BLE68-01(48591DE3C19B)	-0.285	-0.986	-0.012	-16.724	-159.973	152.222	-76.04	14.21	-100.41	-60.760	-58.310	2.842	0.42679	-0.39859	0.46970	-0.66202	31.1	13111	100
2025-3-27 18:23:39.135	WT901BLE68-01(48591DE3C19B)	-0.235	-0.986	-0.012	-16.724	-159.973	152.222	-75.77	15.35	-98.37	-60.760	-58.310	2.842	0.42679	-0.39859	0.46970	-0.66202	31.1	13111	100
2025-3-27 18:23:39.135	WT901BLE68-01(48591DE3C19B)	-0.235	-0.976	0.003	-8.972	-142.212	159.180	-75.42	16.59	-96.48	-60.760	-58.310	2.842	0.42679	-0.39859	0.46970	-0.66202	31.1	13111	100
2025-3-27 18:23:39.135	WT901BLE68-01(48591DE3C19B)	-0.175	-0.976	0.003	-8.972	-142.212	159.180	-75.03	17.80	-94.57	-60.760	-58.310	2.842	0.42679	-0.39859	0.46970	-0.66202	31.1	13111	100
2025-3-27 18:23:39.168	WT901BLE68-01(48591DE3C19B)	-0.175	-0.977	-0.001	-2.441	-115.845	165.161	-74.61	19.12	-92.91	-60.760	-58.310	2.842	0.42679	-0.39859	0.46970	-0.66202	31.1	13111	100
2025-3-27 18:23:39.168	WT901BLE68-01(48591DE3C19B)	-0.139	-0.977	-0.001	-2.441	-115.845	165.161	-74.15	20.41	-91.22	-60.760	-58.310	2.842	0.42679	-0.39859	0.46970	-0.66202	31.1	13111	100
2025-3-27 18:23:39.168	WT901BLE68-01(48591DE3C19B)	-0.139	-0.932	0.005	1.953	-83.435	172.241	-73.72	21.82	-89.84	-60.760	-58.310	2.842	0.42679	-0.39859	0.46970	-0.66202	31.1	13111	100
2025-3-27 18:23:39.168	WT901BLE68-01(48591DE3C19B)	-0.115	-0.932	0.005	1.953	-83.435	172.241	-73.26	23.22	-88.43	-60.760	-58.310	2.842	0.42679	-0.39859	0.46970	-0.66202	31.1	13111	100
2025-3-27 18:23:39.227	WT901BLE68-01(48591DE3C19B)	-0.115	-0.923	0.011	0.977	-53.040	176.941	-72.88	24.72	-87.31	-60.760	-58.310	2.842	0.42679	-0.39859	0.46970	-0.66202	31.1	13111	100
2025-3-27 18:23:39.228	WT901BLE68-01(48591DE3C19B)	-0.112	-0.923	0.011	0.977	-53.040	176.941	-72.48	26.20	-86.17	-60.760	-58.310	2.842	0.42679	-0.39859	0.46970	-0.66202	31.1	13111	100
2025-3-27 18:23:39.228	WT901BLE68-01(48591DE3C19B)	-0.112	-1.016	0.029	-4.089	-28.748	178.101	-72.21	27.75	-85.28	-60.760	-58.310	2.842	0.42679	-0.39859	0.46970	-0.66202	31.1	13111	100
2025-3-27 18:23:39.228	WT901BLE68-01(48591DE3C19B)	-0.125	-1.016	0.029	-4.089	-28.748	178.101	-71.91	29.28	-84.36	-60.760	-58.310	2.842	0.42679	-0.39859	0.46970	-0.66202	31.1	13111	100
2025-3-27 18:23:39.257	WT901BLE68-01(48591DE3C19B)	-0.125	-1.191	0.052	-10.315	-18.066	173.035	-71.70	30.77	-83.57	-60.760	-58.310	2.842	0.42679	-0.39859	0.46970	-0.66202	31.1	13111	100
2025-3-27 18:23:39.257	WT901BLE68-01(48591DE3C19B)	-0.131	-1.191	0.052	-10.315	-18.066	173.035	-71.48	32.25	-82.77	-60.760	-58.310	2.842	0.42679	-0.39859	0.46970	-0.66202	31.1	13111	100
2025-3-27 18:23:39.257	WT901BLE68-01(48591DE3C19B)	-0.131	-1.423	0.074	-13.855	-15.747	165.161	-71.29	33.65	-82.01	-60.760	-58.310	2.842	0.42679	-0.39859	0.46970	-0.66202	31.1	13111	100
2025-3-27 18:23:39.257	WT901BLE68-01(48591DE3C19B)	-0.152	-1.423	0.074	-13.855	-15.747	165.161	-71.08	35.02	-81.24	-60.760	-58.310	2.842	0.70282	-0.26132	0.54675	-0.37241	31.1	13111	100
2025-3-27 18:23:39.287	WT901BLE68-01(48591DE3C19B)	-0.152	-1.617	0.063	-13.062	-15.076	153.564	-70.88	36.28	-80.52	-60.760	-58.310	2.842	0.70282	-0.26132	0.54675	-0.37241	31.1	13111	100
2025-3-27 18:23:39.288	WT901BLE68-01(48591DE3C19B)	-0.177	-1.617	0.063	-13.062	-15.076	153.564	-70.65	37.53	-79.78	-60.760	-58.310	2.842	0.70282	-0.26132	0.54675	-0.37241	31.1	13111	100
2025-3-27 18:23:39.288	WT901BLE68-01(48591DE3C19B)	-0.177	-1.750	0.070	-10.925	-16.235	134.705	-70.42	38.58	-79.10	-60.760	-58.310	2.842	0.70282	-0.26132	0.54675	-0.37241	31.1	13111	100
2025-3-27 18:23:39.288	WT901BLE68-01(48591DE3C19B)	-0.192	-1.750	0.070	-10.925	-16.235	134.705	-70.18	39.62	-78.41	-60.760	-58.310	2.842	0.70282	-0.26132	0.54675	-0.37241	31.1	13111	100
2025-3-27 18:23:39.345	WT901BLE68-01(48591DE3C19B)	-0.192	-1.769	0.082	-8.057	-26.062	108.643	-69.88	40.37	-77.70	-60.760	-58.310	2.842	0.70282	-0.26132	0.54675	-0.37241	31.1	13111	100
2025-3-27 18:23:39.346	WT901BLE68-01(48591DE3C19B)	-0.106	-1.769	0.082	-8.057	-26.062	108.643	-69.58	41.12	-76.99	-60.760	-58.310	2.842	0.70282	-0.26132	0.54675	-0.37241	31.1	13111	100
2025-3-27 18:23:39.346	WT901BLE68-01(48591DE3C19B)	-0.106	-1.764	0.112	-5.554	-38.818	75.684	-69.23	41.51	-76.26	-60.760	-58.310	2.842	0.70282	-0.26132	0.54675	-0.37241	31.1	13111	100
2025-3-27 18:23:39.346	WT901BLE68-01(48591DE3C19B)	0.069	-1.764	0.112	-5.554	-38.818	75.684	-68.88	41.89	-75.53	-60.760	-58.310	2.842	0.70282	-0.26132	0.54675	-0.37241	31.1	13111	100
2025-3-27 18:23:39.375	WT901BLE68-01(48591DE3C19B)	0.069	-1.591	0.152	0.916	-44.434	41.931	-68.53	41.91	-74.90	-60.760	-58.310	2.842	0.70282	-0.26132	0.54675	-0.37241	31.1	13111	100
2025-3-27 18:23:39.375	WT901BLE68-01(48591DE3C19B)	0.196	-1.591	0.152	0.916	-44.434	41.931	-68.17	41.94	-74.27	-60.760	-58.310	2.842	0.70282	-0.26132	0.54675	-0.37241	31.1	13111	100
2025-3-27 18:23:39.375	WT901BLE68-01(48591DE3C19B)	0.196	-1.365	0.188	2.380	-32.837	9.094	-68.01	41.69	-73.95	-60.760	-58.310	2.842	0.70282	-0.26132	0.54675	-0.37241	31.1	13111	100
2025-3-27 18:23:39.375	WT901BLE68-01(48591DE3C19B)	0.176	-1.365	0.188	2.380	-32.837	9.094	-67.86	41.45	-73.64	-60.760	-58.310	2.842	0.70282	-0.26132	0.54675	-0.37241	31.1	13111	100
2025-3-27 18:23:39.407	WT901BLE68-01(48591DE3C19B)	0.176	-1.257	0.202	0.854	-11.658	-26.245	-68.00	40.95	-73.77	-60.760	-58.310	2.842	0.70282	-0.26132	0.54675	-0.37241	31.1	13111	100
2025-3-27 18:23:39.407	WT901BLE68-01(48591DE3C19B)	0.134	-1.257	0.202	0.854	-11.658	-26.245	-68.14	40.44	-73.89	-60.760	-58.310	2.842	0.70282	-0.26132	0.54675	-0.37241	31.1	13111	100
2025-3-27 18:23:39.407	WT901BLE68-01(48591DE3C19B)	0.134	-1.189	0.161	2.869	15.076	-64.087	-68.59	39.68	-74.52	-60.760	-58.310	2.842	0.70282	-0.26132	0.54675	-0.37241	31.1	13111	100
2025-3-27 18:23:39.407	WT901BLE68-01(48591DE3C19B)	0.081	-1.189	0.161	2.869	15.076	-64.087	-69.01	38.92	-75.12	-60.760	-58.310	2.842	0.70282	-0.26132	0.54675	-0.37241	31.1	13111	100
2025-3-27 18:23:39.465	WT901BLE68-01(48591DE3C19B)	0.081	-1.042	0.166	4.578	34.973	-92.773	-69.62	37.96	-76.08	-60.760	-58.310	2.842	0.70282	-0.26132	0.54675	-0.37241	31.1	13111	100
2025-3-27 18:23:39.466	WT901BLE68-01(48591DE3C19B)	0.034	-1.042	0.166	4.578	34.973	-92.773	-70.20	37.00	-77.01	-91.728	-33.222	7.938	0.70282	-0.26132	0.54675	-0.37241	31.1	13111	100
2025-3-27 18:23:39.466	WT901BLE68-01(48591DE3C19B)	0.034	-0.944	0.191	5.066	42.419	-111.206	-70.83	35.88	-78.06	-91.728	-33.222	7.938	0.70282	-0.26132	0.54675	-0.37241	31.1	13111	100
2025-3-27 18:23:39.466	WT901BLE68-01(48591DE3C19B)	0.038	-0.944	0.191	5.066	42.419	-111.206	-71.43	34.76	-79.09	-91.728	-33.222	7.938	0.70282	-0.26132	0.54675	-0.37241	31.1	13111	100
2025-3-27 18:23:39.495	WT901BLE68-01(48591DE3C19B)	0.038	-0.926	0.225	7.996	48.035	-124.390	-72.02	33.53	-80.19	-91.728	-33.222	7.938	0.70282	-0.26132	0.54675	-0.37241	31.1	13111	100
2025-3-27 18:23:39.495	WT901BLE68-01(48591DE3C19B)	-0.010	-0.926	0.225	7.996	48.035	-124.390	-72.56	32.29	-81.25	-91.728	-33.222	7.938	0.70282	-0.26132	0.54675	-0.37241	31.1	13111	100
2025-3-27 18:23:39.495	WT901BLE68-01(48591DE3C19B)	-0.084	-0.955	0.256	10.925	50.354	-133.057	-73.06	30.99	-82.35	-91.728	-33.222	7.938	0.70282	-0.26132	0.54675	-0.37241	31.1	13111	100
2025-3-27 18:23:39.495	WT901BLE68-01(48591DE3C19B)	-0.084	-1.028	0.234	14.099	44.312	-140.686	-73.50	29.63	-83.38	-91.728	-33.222	7.938	0.70282	-0.26132	0.54675	-0.37241	31.1	13111	100
2025-3-27 18:23:39.525	WT901BLE68-01(48591DE3C19B)	-0.120	-1.028	0.234	14.099	44.312	-140.686	-73.87	28.23	-84.36	-91.728	-33.222	7.938	0.70282	-0.26132	0.54675	-0.37241	31.1	13111	100
2025-3-27 18:23:39.525	WT901BLE68-01(48591DE3C19B)	-0.120	-1.018	0.205	19.531	36.316	-147.888	-74.16	26.80	-85.29	-91.728	-33.222	7.938	0.70282	-0.26132	0.54675	-0.37241	31.1	13111	100
2025-3-27 18:23:39.526	WT901BLE68-01(48591DE3C19B)	-0.116	-1.018	0.205	19.531	36.316	-147.888	-74.38	25.33	-86.16	-91.728	-33.222	7.938	0.70282	-0.26132	0.54675	-0.37241	31.1	13111	100
2025-3-27 18:23:39.526	WT901BLE68-01(48591DE3C19B)	-0.116	-0.960	0.183	21.057	38.513	-156.189	-74.58	23.83	-87.03	-91.728	-33.222	7.938	0.70282	-0.26132	0.54675	-0.37241	31.1	13111	100
2025-3-27 18:23:39.586	WT901BLE68-01(48591DE3C19B)	-0.134	-0.960	0.183	21.057	38.513	-156.189	-74.73	22.30	-87.91	-91.728	-33.222	7.938	0.70282	-0.26132	0.54675	-0.37241	31.1	13111	100
2025-3-27 18:23:39.586	WT901BLE68-01(48591DE3C19B)	-0.134	-0.920	0.164	21.362	51.147	-165.344	-74.89	20.75	-88.85	-91.728	-33.222	7.938	0.70282	-0.26132	0.54675	-0.37241	31.1	13111	100
2025-3-27 18:23:39.586	WT901BLE68-01(48591DE3C19B)	-0.177	-0.920	0.164	21.362	51.147	-165.344	-75.05	19.19	-89.85	-91.728	-33.222	7.938	0.70282	-0.26132	0.54675	-0.37241	31.1	13111	100
2025-3-27 18:23:39.587	WT901BLE68-01(48591DE3C19B)	-0.177	-0.874	0.142	22.156	67.383	-174.988	-75.20	17.61	-90.92	-91.728	-33.222	7.938	0.70282	-0.26132	0.54675	-0.37241	31.1	13111	100
2025-3-27 18:23:39.617	WT901BLE68-01(48591DE3C19B)	-0.233	-0.874	0.142	22.156	67.383	-174.988	-75.34	16.01	-92.06	-91.728	-33.222	7.938	0.70282	-0.26132	0.54675	-0.37241	31.1	13111	100
2025-3-27 18:23:39.618	WT901BLE68-01(48591DE3C19B)	-0.233	-0.816	0.136	21.301	78.735	-183.350	-75.47	14.40	-93.26	-91.728	-33.222	7.938	0.70282	-0.26132	0.54675	-0.37241	31.1	13111	100
2025-3-27 18:23:39.618	WT901BLE68-01(48591DE3C19B)	-0.278	-0.816	0.136	21.301	78.735	-183.350	-75.57	12.78	-94.50	-91.728	-33.222	7.938	0.70282	-0.26132	0.54675	-0.37241	31.1	13111	100
2025-3-27 18:23:39.618	WT901BLE68-01(48591DE3C19B)	-0.278	-0.771	0.173	18.494	84.045	-188.721	-75.67	11.15	-95.76	-91.728	-33.222	7.938	0.70282	-0.26132	0.54675	-0.37241	31.1	13111	100
2025-3-27 18:23:39.647	WT901BLE68-01(48591DE3C19B)	-0.339	-0.771	0.173	18.494	84.045	-188.721	-75.75	9.51	-97.04	-91.728	-33.222	7.938	0.70282	-0.26132	0.54675	-0.37241	31.1	13111	100
2025-3-27 18:23:39.647	WT901BLE68-01(48591DE3C19B)	-0.339	-0.761	0.257	17.090	87.341	-191.833	-75.79	7.88	-98.33	-91.728	-33.222	7.938	0.70282	-0.26132	0.54675	-0.37241	31.1	13111	100
2025-3-27 18:23:39.647	WT901BLE68-01(48591DE3C19B)	-0.467	-0.761	0.257	17.090	87.341	-191.833	-75.80	6.25	-99.62	-91.728	-33.222	7.938	0.53397	-0.36292	0.49634	-0.58026	31.1	13111	100
2025-3-27 18:23:39.648	WT901BLE68-01(48591DE3C19B)	-0.467	-0.777	0.315	17.456	83.862	-190.491	-75.77	4.64	-100.90	-91.728	-33.222	7.938	0.53397	-0.36292	0.49634	-0.58026	31.1	13111	100
2025-3-27 18:23:39.706	WT901BLE68-01(48591DE3C19B)	-0.580	-0.777	0.315	17.456	83.862	-190.491	-75.69	3.06	-102.15	-91.728	-33.222	7.938	0.53397	-0.36292	0.49634	-0.58026	31.1	13111	100
2025-3-27 18:23:39.706	WT901BLE68-01(48591DE3C19B)	-0.580	-0.766	0.330	19.043	69.214	-184.265	-75.56	1.51	-103.33	-91.728	-33.222	7.938	0.53397	-0.36292	0.49634	-0.58026	31.1	13111	100
2025-3-27 18:23:39.706	WT901BLE68-01(48591DE3C19B)	-0.618	-0.766	0.330	19.043	69.214	-184.265	-75.39	0.00	-104.43	-91.728	-33.222	7.938	0.53397	-0.36292	0.49634	-0.58026	31.1	13111	100
2025-3-27 18:23:39.706	WT901BLE68-01(48591DE3C19B)	-0.618	-0.819	0.315	15.015	47.485	-172.974	-75.21	-1.46	-105.42	-91.728	-33.222	7.938	0.53397	-0.36292	0.49634	-0.58026	31.1	13111	100
2025-3-27 18:23:39.734	WT901BLE68-01(48591DE3C19B)	-0.601	-0.819	0.315	15.015	47.485	-172.974	-75.03	-2.87	-106.31	-91.728	-33.222	7.938	0.53397	-0.36292	0.49634	-0.58026	31.1	13111	100
2025-3-27 18:23:39.734	WT901BLE68-01(48591DE3C19B)	-0.601	-0.969	0.293	11.658	24.902	-158.875	-74.84	-4.22	-107.08	-91.728	-33.222	7.938	0.53397	-0.36292	0.49634	-0.58026	31.1	13111	100
2025-3-27 18:23:39.735	WT901BLE68-01(48591DE3C19B)	-0.609	-0.969	0.293	11.658	24.902	-158.875	-74.66	-5.52	-107.73	-91.728	-33.222	7.938	0.53397	-0.36292	0.49634	-0.58026	31.1	13111	100
2025-3-27 18:23:39.735	WT901BLE68-01(48591DE3C19B)	-0.609	-1.117	0.274	12.512	11.169	-141.968	-74.48	-6.74	-108.30	-91.728	-33.222	7.938	0.53397	-0.36292	0.49634	-0.58026	31.1	13111	100
2025-3-27 18:23:39.767	WT901BLE68-01(48591DE3C19B)	-0.659	-1.117	0.274	12.512	11.169	-141.968	-74.30	-7.89	-108.78	-91.728	-33.222	7.938	0.53397	-0.36292	0.49634	-0.58026	31.1	13111	100
2025-3-27 18:23:39.767	WT901BLE68-01(48591DE3C19B)	-0.659	-1.220	0.258	11.719	7.385	-129.578	-74.11	-8.97	-109.23	-91.728	-33.222	7.938	0.53397	-0.36292	0.49634	-0.58026	31.1	13111	100
2025-3-27 18:23:39.767	WT901BLE68-01(48591DE3C19B)	-0.771	-1.220	0.258	11.719	7.385	-129.578	-73.93	-9.99	-109.65	-91.728	-33.222	7.938	0.53397	-0.36292	0.49634	-0.58026	31.1	13111	100
2025-3-27 18:23:39.767	WT901BLE68-01(48591DE3C19B)	-0.771	-1.277	0.313	9.888	10.193	-115.845	-73.76	-10.93	-110.07	-91.728	-33.222	7.938	0.53397	-0.36292	0.49634	-0.58026	31.1	13111	100
2025-3-27 18:23:39.827	WT901BLE68-01(48591DE3C19B)	-0.858	-1.277	0.313	9.888	10.193	-115.845	-73.59	-11.79	-110.48	-91.728	-33.222	7.938	0.53397	-0.36292	0.49634	-0.58026	31.1	13111	100
2025-3-27 18:23:39.828	WT901BLE68-01(48591DE3C19B)	-0.858	-1.196	0.406	9.583	13.428	-102.112	-73.41	-12.57	-110.90	-91.728	-33.222	7.938	0.53397	-0.36292	0.49634	-0.58026	31.1	13111	100
2025-3-27 18:23:39.828	WT901BLE68-01(48591DE3C19B)	-0.824	-1.196	0.406	9.583	13.428	-102.112	-73.22	-13.27	-111.34	-91.728	-33.222	7.938	0.53397	-0.36292	0.49634	-0.58026	31.1	13111	100
2025-3-27 18:23:39.828	WT901BLE68-01(48591DE3C19B)	-0.824	-1.086	0.448	2.136	16.357	-80.750	-73.07	-13.85	-111.76	-91.728	-33.222	7.938	0.53397	-0.36292	0.49634	-0.58026	31.1	13111	100
2025-3-27 18:23:39.856	WT901BLE68-01(48591DE3C19B)	-0.800	-1.086	0.448	2.136	16.357	-80.750	-72.94	-14.32	-112.19	-91.728	-33.222	7.938	0.53397	-0.36292	0.49634	-0.58026	31.1	13111	100
2025-3-27 18:23:39.857	WT901BLE68-01(48591DE3C19B)	-0.800	-1.066	0.396	-5.066	18.616	-52.490	-72.86	-14.64	-112.60	-91.728	-33.222	7.938	0.53397	-0.36292	0.49634	-0.58026	31.1	13111	100
2025-3-27 18:23:39.857	WT901BLE68-01(48591DE3C19B)	-0.812	-1.066	0.396	-5.066	18.616	-52.490	-72.80	-14.83	-112.99	-91.728	-33.222	7.938	0.53397	-0.36292	0.49634	-0.58026	31.1	13111	100
2025-3-27 18:23:39.857	WT901BLE68-01(48591DE3C19B)	-0.812	-1.147	0.312	-12.695	13.184	-23.254	-72.80	-14.88	-113.31	-58.996	-57.036	3.626	0.53397	-0.36292	0.49634	-0.58026	31.1	13111	100
2025-3-27 18:23:39.916	WT901BLE68-01(48591DE3C19B)	-0.816	-1.147	0.312	-12.695	13.184	-23.254	-72.85	-14.79	-113.57	-58.996	-57.036	3.626	0.53397	-0.36292	0.49634	-0.58026	31.1	13111	100
2025-3-27 18:23:39.916	WT901BLE68-01(48591DE3C19B)	-0.816	-1.239	0.262	-14.587	-0.916	7.202	-72.94	-14.58	-113.71	-58.996	-57.036	3.626	0.53397	-0.36292	0.49634	-0.58026	31.1	13111	100
2025-3-27 18:23:39.916	WT901BLE68-01(48591DE3C19B)	-0.778	-1.239	0.262	-14.587	-0.916	7.202	-73.08	-14.24	-113.73	-58.996	-57.036	3.626	0.53397	-0.36292	0.49634	-0.58026	31.1	13111	100
2025-3-27 18:23:39.916	WT901BLE68-01(48591DE3C19B)	-0.778	-1.168	0.243	-12.756	-16.663	40.588	-73.24	-13.77	-113.62	-58.996	-57.036	3.626	0.53397	-0.36292	0.49634	-0.58026	31.1	13111	100
2025-3-27 18:23:39.947	WT901BLE68-01(48591DE3C19B)	-0.675	-1.168	0.243	-12.756	-16.663	40.588	-73.42	-13.16	-113.38	-58.996	-57.036	3.626	0.53397	-0.36292	0.49634	-0.58026	31.1	13111	100
2025-3-27 18:23:39.947	WT901BLE68-01(48591DE3C19B)	-0.675	-1.073	0.206	-16.113	-27.344	75.745	-73.65	-12.40	-113.03	-58.996	-57.036	3.626	0.53397	-0.36292	0.49634	-0.58026	31.1	13111	100
2025-3-27 18:23:39.947	WT901BLE68-01(48591DE3C19B)	-0.583	-1.073	0.206	-16.113	-27.344	75.745	-73.90	-11.50	-112.58	-58.996	-57.036	3.626	0.53397	-0.36292	0.49634	-0.58026	31.1	13111	100
2025-3-27 18:23:39.947	WT901BLE68-01(48591DE3C19B)	-0.583	-1.057	0.150	-20.142	-35.645	111.023	-74.19	-10.44	-112.04	-58.996	-57.036	3.626	0.53397	-0.36292	0.49634	-0.58026	31.1	13111	100
2025-3-27 18:23:39.977	WT901BLE68-01(48591DE3C19B)	-0.536	-1.057	0.150	-20.142	-35.645	111.023	-74.50	-9.22	-111.41	-58.996	-57.036	3.626	0.53397	-0.36292	0.49634	-0.58026	31.1	13111	100
2025-3-27 18:23:39.977	WT901BLE68-01(48591DE3C19B)	-0.536	-1.097	0.107	-22.888	-45.410	142.456	-74.87	-7.73	-110.59	-58.996	-57.036	3.626	0.53397	-0.36292	0.49634	-0.58026	31.1	13111	100
2025-3-27 18:23:39.978	WT901BLE68-01(48591DE3C19B)	-0.501	-1.097	0.107	-22.888	-45.410	142.456	-75.21	-6.25	-109.78	-58.996	-57.036	3.626	0.53397	-0.36292	0.49634	-0.58026	31.1	13111	100
2025-3-27 18:23:39.978	WT901BLE68-01(48591DE3C19B)	-0.501	-1.185	0.079	-24.902	-60.120	166.626	-75.57	-4.59	-108.76	-58.996	-57.036	3.626	0.53397	-0.36292	0.49634	-0.58026	31.1	13111	100
2025-3-27 18:23:40.37	WT901BLE68-01(48591DE3C19B)	-0.431	-1.185	0.079	-24.902	-60.120	166.626	-75.91	-2.92	-107.74	-58.996	-57.036	3.626	0.53397	-0.36292	0.49634	-0.58026	31.1	13111	100
2025-3-27 18:23:40.37	WT901BLE68-01(48591DE3C19B)	-0.431	-1.313	0.037	-24.048	-74.585	184.998	-76.22	-1.13	-106.55	-58.996	-57.036	3.626	0.53397	-0.36292	0.49634	-0.58026	31.1	13111	100
2025-3-27 18:23:40.37	WT901BLE68-01(48591DE3C19B)	-0.351	-1.313	0.037	-24.048	-74.585	184.998	-76.50	0.65	-105.34	-58.996	-57.036	3.626	0.53397	-0.36292	0.49634	-0.58026	31.1	13111	100
2025-3-27 18:23:40.38	WT901BLE68-01(48591DE3C19B)	-0.351	-1.356	0.010	-17.090	-82.825	199.707	-76.68	2.54	-104.03	-58.996	-57.036	3.626	0.53397	-0.36292	0.49634	-0.58026	31.1	13111	100
2025-3-27 18:23:40.68	WT901BLE68-01(48591DE3C19B)	-0.301	-1.356	0.010	-17.090	-82.825	199.707	-76.82	4.42	-102.72	-58.996	-57.036	3.626	0.53397	-0.36292	0.49634	-0.58026	31.1	13111	100
2025-3-27 18:23:40.68	WT901BLE68-01(48591DE3C19B)	-0.301	-1.315	0.021	-11.108	-84.351	209.412	-76.85	6.37	-101.37	-58.996	-57.036	3.626	0.53397	-0.36292	0.49634	-0.58026	31.1	13111	100
2025-3-27 18:23:40.68	WT901BLE68-01(48591DE3C19B)	-0.299	-1.315	0.021	-11.108	-84.351	209.412	-76.84	8.30	-100.01	-58.996	-57.036	3.626	0.53397	-0.36292	0.49634	-0.58026	31.1	13111	100
2025-3-27 18:23:40.68	WT901BLE68-01(48591DE3C19B)	-0.299	-1.354	0.090	-6.592	-78.430	214.111	-76.76	10.28	-98.70	-58.996	-57.036	3.626	0.55771	-0.34680	0.51657	-0.54929	31.1	13111	100
2025-3-27 18:23:40.98	WT901BLE68-01(48591DE3C19B)	-0.264	-1.354	0.090	-6.592	-78.430	214.111	-76.62	12.23	-97.38	-58.996	-57.036	3.626	0.55771	-0.34680	0.51657	-0.54929	31.1	13111	100
2025-3-27 18:23:40.98	WT901BLE68-01(48591DE3C19B)	-0.264	-1.365	0.075	4.822	-67.200	218.323	-76.35	14.23	-96.15	-58.996	-57.036	3.626	0.55771	-0.34680	0.51657	-0.54929	31.1	13111	100
2025-3-27 18:23:40.98	WT901BLE68-01(48591DE3C19B)	-0.190	-1.365	0.075	4.822	-67.200	218.323	-76.04	16.21	-94.91	-58.996	-57.036	3.626	0.55771	-0.34680	0.51657	-0.54929	31.1	13111	100
2025-3-27 18:23:40.98	WT901BLE68-01(48591DE3C19B)	-0.190	-1.184	0.050	12.695	-45.654	222.717	-75.66	18.25	-93.86	-58.996	-57.036	3.626	0.55771	-0.34680	0.51657	-0.54929	31.1	13111	100
2025-3-27 18:23:40.155	WT901BLE68-01(48591DE3C19B)	-0.156	-1.184	0.050	12.695	-45.654	222.717	-75.25	20.28	-92.78	-58.996	-57.036	3.626	0.55771	-0.34680	0.51657	-0.54929	31.1	13111	100
2025-3-27 18:23:40.155	WT901BLE68-01(48591DE3C19B)	-0.156	-1.048	0.017	10.986	-17.151	225.647	-74.90	22.38	-91.97	-58.996	-57.036	3.626	0.55771	-0.34680	0.51657	-0.54929	31.1	13111	100
2025-3-27 18:23:40.155	WT901BLE68-01(48591DE3C19B)	-0.182	-1.048	0.017	10.986	-17.151	225.647	-74.54	24.47	-91.13	-58.996	-57.036	3.626	0.55771	-0.34680	0.51657	-0.54929	31.1	13111	100
2025-3-27 18:23:40.155	WT901BLE68-01(48591DE3C19B)	-0.182	-1.067	-0.007	4.456	3.052	227.539	-74.28	26.60	-90.48	-58.996	-57.036	3.626	0.55771	-0.34680	0.51657	-0.54929	31.1	13111	100
2025-3-27 18:23:40.217	WT901BLE68-01(48591DE3C19B)	-0.203	-1.067	-0.007	4.456	3.052	227.539	-74.01	28.72	-89.81	-58.996	-57.036	3.626	0.55771	-0.34680	0.51657	-0.54929	31.1	13111	100
2025-3-27 18:23:40.217	WT901BLE68-01(48591DE3C19B)	-0.203	-1.123	-0.026	-2.991	6.958	229.126	-73.80	30.84	-89.16	-58.996	-57.036	3.626	0.55771	-0.34680	0.51657	-0.54929	31.1	13111	100
2025-3-27 18:23:40.218	WT901BLE68-01(48591DE3C19B)	-0.194	-1.123	-0.026	-2.991	6.958	229.126	-73.56	32.95	-88.49	-58.996	-57.036	3.626	0.55771	-0.34680	0.51657	-0.54929	31.1	13111	100
2025-3-27 18:23:40.218	WT901BLE68-01(48591DE3C19B)	-0.194	-1.184	-0.008	-11.719	3.296	227.539	-73.36	35.02	-87.76	-58.996	-57.036	3.626	0.55771	-0.34680	0.51657	-0.54929	31.1	13111	100
2025-3-27 18:23:40.218	WT901BLE68-01(48591DE3C19B)	-0.236	-1.184	-0.008	-11.719	3.296	227.539	-73.11	37.07	-87.01	-58.996	-57.036	3.626	0.55771	-0.34680	0.51657	-0.54929	31.1	13111	100
2025-3-27 18:23:40.218	WT901BLE68-01(48591DE3C19B)	-0.236	-1.340	0.019	-21.240	-9.277	219.971	-72.86	38.99	-86.11	-58.996	-57.036	3.626	0.55771	-0.34680	0.51657	-0.54929	31.1	13111	100
2025-3-27 18:23:40.218	WT901BLE68-01(48591DE3C19B)	-0.230	-1.340	0.019	-21.240	-9.277	219.971	-72.56	40.90	-85.18	-58.996	-57.036	3.626	0.55771	-0.34680	0.51657	-0.54929	31.1	13111	100
2025-3-27 18:23:40.218	WT901BLE68-01(48591DE3C19B)	-0.230	-1.562	0.035	-25.757	-29.663	205.994	-72.13	42.60	-84.02	-58.996	-57.036	3.626	0.55771	-0.34680	0.51657	-0.54929	31.1	13111	100
2025-3-27 18:23:40.275	WT901BLE68-01(48591DE3C19B)	-0.146	-1.562	0.035	-25.757	-29.663	205.994	-71.64	44.28	-82.81	-58.996	-57.036	3.626	0.55771	-0.34680	0.51657	-0.54929	31.1	13111	100
2025-3-27 18:23:40.275	WT901BLE68-01(48591DE3C19B)	-0.146	-1.733	0.045	-20.813	-45.654	185.059	-70.97	45.69	-81.44	-86.436	-31.752	5.684	0.55771	-0.34680	0.51657	-0.54929	31.1	13111	100
2025-3-27 18:23:40.276	WT901BLE68-01(48591DE3C19B)	-0.021	-1.733	0.045	-20.813	-45.654	185.059	-70.23	47.07	-80.01	-86.436	-31.752	5.684	0.55771	-0.34680	0.51657	-0.54929	31.1	13111	100
2025-3-27 18:23:40.276	WT901BLE68-01(48591DE3C19B)	-0.021	-1.786	0.033	-9.033	-46.753	155.762	-69.42	48.15	-78.68	-86.436	-31.752	5.684	0.55771	-0.34680	0.51657	-0.54929	31.1	13111	100
2025-3-27 18:23:40.305	WT901BLE68-01(48591DE3C19B)	0.015	-1.786	0.033	-9.033	-46.753	155.762	-68.55	49.21	-77.30	-86.436	-31.752	5.684	0.55771	-0.34680	0.51657	-0.54929	31.1	13111	100
2025-3-27 18:23:40.305	WT901BLE68-01(48591DE3C19B)	0.015	-1.723	0.038	-4.944	-37.842	120.117	-67.87	49.95	-76.21	-86.436	-31.752	5.684	0.55771	-0.34680	0.51657	-0.54929	31.1	13111	100
2025-3-27 18:23:40.305	WT901BLE68-01(48591DE3C19B)	-0.012	-1.723	0.038	-4.944	-37.842	120.117	-67.15	50.67	-75.10	-86.436	-31.752	5.684	0.55771	-0.34680	0.51657	-0.54929	31.1	13111	100
2025-3-27 18:23:40.305	WT901BLE68-01(48591DE3C19B)	-0.012	-1.599	0.101	-5.005	-31.982	76.233	-66.69	51.00	-74.33	-86.436	-31.752	5.684	0.55771	-0.34680	0.51657	-0.54929	31.1	13111	100
2025-3-27 18:23:40.335	WT901BLE68-01(48591DE3C19B)	0.091	-1.599	0.101	-5.005	-31.982	76.233	-66.23	51.32	-73.56	-86.436	-31.752	5.684	0.55771	-0.34680	0.51657	-0.54929	31.1	13111	100
2025-3-27 18:23:40.335	WT901BLE68-01(48591DE3C19B)	0.091	-1.392	0.206	-5.371	-31.372	28.503	-66.01	51.20	-73.10	-86.436	-31.752	5.684	0.55771	-0.34680	0.51657	-0.54929	31.1	13111	100
2025-3-27 18:23:40.335	WT901BLE68-01(48591DE3C19B)	0.218	-1.392	0.206	-5.371	-31.372	28.503	-65.79	51.07	-72.65	-86.436	-31.752	5.684	0.55771	-0.34680	0.51657	-0.54929	31.1	13111	100
2025-3-27 18:23:40.335	WT901BLE68-01(48591DE3C19B)	0.218	-1.191	0.249	-2.502	-21.179	-12.207	-65.86	50.61	-72.61	-86.436	-31.752	5.684	0.55771	-0.34680	0.51657	-0.54929	31.1	13111	100
2025-3-27 18:23:40.396	WT901BLE68-01(48591DE3C19B)	0.265	-1.191	0.249	-2.502	-21.179	-12.207	-65.93	50.14	-72.58	-86.436	-31.752	5.684	0.55771	-0.34680	0.51657	-0.54929	31.1	13111	100
2025-3-27 18:23:40.396	WT901BLE68-01(48591DE3C19B)	0.265	-1.034	0.213	1.953	10.498	-51.941	-66.48	49.44	-73.23	-86.436	-31.752	5.684	0.55771	-0.34680	0.51657	-0.54929	31.1	13111	100
2025-3-27 18:23:40.396	WT901BLE68-01(48591DE3C19B)	0.235	-1.034	0.213	1.953	10.498	-51.941	-67.01	48.74	-73.87	-86.436	-31.752	5.684	0.55771	-0.34680	0.51657	-0.54929	31.1	13111	100
2025-3-27 18:23:40.396	WT901BLE68-01(48591DE3C19B)	0.235	-0.948	0.156	2.380	42.908	-87.830	-67.98	47.81	-75.13	-86.436	-31.752	5.684	0.55771	-0.34680	0.51657	-0.54929	31.1	13111	100
2025-3-27 18:23:40.427	WT901BLE68-01(48591DE3C19B)	0.179	-0.948	0.156	2.380	42.908	-87.830	-68.91	46.87	-76.34	-86.436	-31.752	5.684	0.55771	-0.34680	0.51657	-0.54929	31.1	13111	100
2025-3-27 18:23:40.427	WT901BLE68-01(48591DE3C19B)	0.061	-0.939	0.119	2.075	62.439	-118.896	-70.09	45.70	-77.92	-86.436	-31.752	5.684	0.55771	-0.34680	0.51657	-0.54929	31.1	13111	100
2025-3-27 18:23:40.427	WT901BLE68-01(48591DE3C19B)	0.061	-0.956	0.121	0.854	70.618	-146.301	-71.27	44.40	-79.54	-86.436	-31.752	5.684	0.55771	-0.34680	0.51657	-0.54929	31.1	13111	100
2025-3-27 18:23:40.427	WT901BLE68-01(48591DE3C19B)	-0.111	-0.956	0.121	0.854	70.618	-146.301	-72.45	42.96	-81.18	-86.436	-31.752	5.684	0.55771	-0.34680	0.51657	-0.54929	31.1	13111	100
2025-3-27 18:23:40.455	WT901BLE68-01(48591DE3C19B)	-0.111	-1.019	0.132	0.183	61.096	-170.105	-73.54	41.37	-82.73	-86.436	-31.752	5.684	0.55771	-0.34680	0.51657	-0.54929	31.1	13111	100
2025-3-27 18:23:40.455	WT901BLE68-01(48591DE3C19B)	-0.243	-1.019	0.132	0.183	61.096	-170.105	-74.52	39.66	-84.17	-86.436	-31.752	5.684	0.55771	-0.34680	0.51657	-0.54929	31.1	13111	100
2025-3-27 18:23:40.455	WT901BLE68-01(48591DE3C19B)	-0.243	-1.097	0.194	4.456	38.940	-186.218	-75.33	37.84	-85.43	-86.436	-31.752	5.684	0.68033	-0.25525	0.57944	-0.36899	31.1	13111	100
2025-3-27 18:23:40.455	WT901BLE68-01(48591DE3C19B)	-0.253	-1.097	0.194	4.456	38.940	-186.218	-75.97	35.91	-86.51	-86.436	-31.752	5.684	0.68033	-0.25525	0.57944	-0.36899	31.1	13111	100
2025-3-27 18:23:40.516	WT901BLE68-01(48591DE3C19B)	-0.253	-1.103	0.241	4.639	18.616	-199.707	-76.49	33.91	-87.43	-86.436	-31.752	5.684	0.68033	-0.25525	0.57944	-0.36899	31.1	13111	100
2025-3-27 18:23:40.516	WT901BLE68-01(48591DE3C19B)	-0.209	-1.103	0.241	4.639	18.616	-199.707	-76.90	31.83	-88.21	-86.436	-31.752	5.684	0.68033	-0.25525	0.57944	-0.36899	31.1	13111	100
2025-3-27 18:23:40.516	WT901BLE68-01(48591DE3C19B)	-0.209	-1.087	0.263	2.563	18.494	-210.266	-77.28	29.71	-88.97	-86.436	-31.752	5.684	0.68033	-0.25525	0.57944	-0.36899	31.1	13111	100
2025-3-27 18:23:40.516	WT901BLE68-01(48591DE3C19B)	-0.208	-1.087	0.263	2.563	18.494	-210.266	-77.62	27.55	-89.70	-86.436	-31.752	5.684	0.68033	-0.25525	0.57944	-0.36899	31.1	13111	100
2025-3-27 18:23:40.545	WT901BLE68-01(48591DE3C19B)	-0.208	-1.046	0.248	2.869	33.630	-217.773	-77.96	25.39	-90.49	-86.436	-31.752	5.684	0.68033	-0.25525	0.57944	-0.36899	31.1	13111	100
2025-3-27 18:23:40.546	WT901BLE68-01(48591DE3C19B)	-0.230	-1.046	0.248	2.869	33.630	-217.773	-78.31	23.21	-91.35	-86.436	-31.752	5.684	0.68033	-0.25525	0.57944	-0.36899	31.1	13111	100
2025-3-27 18:23:40.546	WT901BLE68-01(48591DE3C19B)	-0.230	-0.984	0.213	3.723	46.814	-224.792	-78.62	21.03	-92.24	-86.436	-31.752	5.684	0.68033	-0.25525	0.57944	-0.36899	31.1	13111	100
2025-3-27 18:23:40.546	WT901BLE68-01(48591DE3C19B)	-0.256	-0.984	0.213	3.723	46.814	-224.792	-78.91	18.84	-93.19	-86.436	-31.752	5.684	0.68033	-0.25525	0.57944	-0.36899	31.1	13111	100
2025-3-27 18:23:40.574	WT901BLE68-01(48591DE3C19B)	-0.256	-0.937	0.180	5.798	54.932	-230.225	-79.17	16.64	-94.15	-86.436	-31.752	5.684	0.68033	-0.25525	0.57944	-0.36899	31.1	13111	100
2025-3-27 18:23:40.574	WT901BLE68-01(48591DE3C19B)	-0.330	-0.937	0.180	5.798	54.932	-230.225	-79.38	14.44	-95.14	-86.436	-31.752	5.684	0.68033	-0.25525	0.57944	-0.36899	31.1	13111	100
2025-3-27 18:23:40.574	WT901BLE68-01(48591DE3C19B)	-0.330	-0.920	0.162	8.423	60.669	-232.666	-79.54	12.24	-96.14	-86.436	-31.752	5.684	0.68033	-0.25525	0.57944	-0.36899	31.1	13111	100
2025-3-27 18:23:40.575	WT901BLE68-01(48591DE3C19B)	-0.466	-0.920	0.162	8.423	60.669	-232.666	-79.66	10.05	-97.15	-86.436	-31.752	5.684	0.68033	-0.25525	0.57944	-0.36899	31.1	13111	100
2025-3-27 18:23:40.637	WT901BLE68-01(48591DE3C19B)	-0.466	-0.958	0.179	11.719	60.608	-229.797	-79.72	7.90	-98.15	-86.436	-31.752	5.684	0.68033	-0.25525	0.57944	-0.36899	31.1	13111	100
2025-3-27 18:23:40.638	WT901BLE68-01(48591DE3C19B)	-0.608	-0.958	0.179	11.719	60.608	-229.797	-79.72	5.78	-99.12	-86.436	-31.752	5.684	0.68033	-0.25525	0.57944	-0.36899	31.1	13111	100
2025-3-27 18:23:40.638	WT901BLE68-01(48591DE3C19B)	-0.608	-1.009	0.207	16.663	47.974	-221.497	-79.66	3.71	-100.03	-86.436	-31.752	5.684	0.68033	-0.25525	0.57944	-0.36899	31.1	13111	100
2025-3-27 18:23:40.638	WT901BLE68-01(48591DE3C19B)	-0.726	-1.009	0.207	16.663	47.974	-221.497	-79.54	1.70	-100.87	-86.436	-31.752	5.684	0.68033	-0.25525	0.57944	-0.36899	31.1	13111	100
2025-3-27 18:23:40.668	WT901BLE68-01(48591DE3C19B)	-0.726	-1.041	0.219	21.667	24.963	-208.313	-79.37	-0.24	-101.59	-86.436	-31.752	5.684	0.68033	-0.25525	0.57944	-0.36899	31.1	13111	100
2025-3-27 18:23:40.668	WT901BLE68-01(48591DE3C19B)	-0.797	-1.041	0.219	21.667	24.963	-208.313	-79.14	-2.12	-102.18	-86.436	-31.752	5.684	0.68033	-0.25525	0.57944	-0.36899	31.1	13111	100
2025-3-27 18:23:40.668	WT901BLE68-01(48591DE3C19B)	-0.797	-1.039	0.220	26.611	1.099	-188.782	-78.88	-3.90	-102.65	-86.436	-31.752	5.684	0.68033	-0.25525	0.57944	-0.36899	31.1	13111	100
2025-3-27 18:23:40.668	WT901BLE68-01(48591DE3C19B)	-0.779	-1.039	0.220	26.611	1.099	-188.782	-78.60	-5.58	-103.00	-73.402	-46.550	2.254	0.68033	-0.25525	0.57944	-0.36899	31.1	13111	100
2025-3-27 18:23:40.697	WT901BLE68-01(48591DE3C19B)	-0.779	-0.999	0.210	27.771	-15.869	-164.917	-78.31	-7.15	-103.25	-73.402	-46.550	2.254	0.68033	-0.25525	0.57944	-0.36899	31.1	13111	100
2025-3-27 18:23:40.698	WT901BLE68-01(48591DE3C19B)	-0.679	-0.999	0.210	27.771	-15.869	-164.917	-78.01	-8.59	-103.41	-73.402	-46.550	2.254	0.68033	-0.25525	0.57944	-0.36899	31.1	13111	100
2025-3-27 18:23:40.698	WT901BLE68-01(48591DE3C19B)	-0.679	-0.968	0.232	24.231	-19.897	-139.282	-77.74	-9.90	-103.53	-73.402	-46.550	2.254	0.68033	-0.25525	0.57944	-0.36899	31.1	13111	100
2025-3-27 18:23:40.698	WT901BLE68-01(48591DE3C19B)	-0.599	-0.968	0.232	24.231	-19.897	-139.282	-77.49	-11.08	-103.61	-73.402	-46.550	2.254	0.68033	-0.25525	0.57944	-0.36899	31.1	13111	100
2025-3-27 18:23:40.755	WT901BLE68-01(48591DE3C19B)	-0.599	-1.035	0.268	19.043	-1.160	-113.281	-77.25	-12.10	-103.78	-73.402	-46.550	2.254	0.68033	-0.25525	0.57944	-0.36899	31.1	13111	100
2025-3-27 18:23:40.755	WT901BLE68-01(48591DE3C19B)	-0.628	-1.035	0.268	19.043	-1.160	-113.281	-77.02	-12.96	-104.01	-73.402	-46.550	2.254	0.68033	-0.25525	0.57944	-0.36899	31.1	13111	100
2025-3-27 18:23:40.755	WT901BLE68-01(48591DE3C19B)	-0.628	-1.143	0.319	17.883	30.273	-90.698	-76.75	-13.68	-104.38	-73.402	-46.550	2.254	0.68033	-0.25525	0.57944	-0.36899	31.1	13111	100
2025-3-27 18:23:40.756	WT901BLE68-01(48591DE3C19B)	-0.702	-1.143	0.319	17.883	30.273	-90.698	-76.45	-14.24	-104.89	-73.402	-46.550	2.254	0.68033	-0.25525	0.57944	-0.36899	31.1	13111	100
2025-3-27 18:23:40.786	WT901BLE68-01(48591DE3C19B)	-0.702	-1.218	0.338	17.456	59.631	-68.115	-76.12	-14.66	-105.52	-73.402	-46.550	2.254	0.68033	-0.25525	0.57944	-0.36899	31.1	13111	100
2025-3-27 18:23:40.786	WT901BLE68-01(48591DE3C19B)	-0.698	-1.218	0.338	17.456	59.631	-68.115	-75.76	-14.91	-106.28	-73.402	-46.550	2.254	0.68033	-0.25525	0.57944	-0.36899	31.1	13111	100
2025-3-27 18:23:40.786	WT901BLE68-01(48591DE3C19B)	-0.698	-1.279	0.291	15.015	85.510	-45.959	-75.38	-15.03	-107.15	-73.402	-46.550	2.254	0.68033	-0.25525	0.57944	-0.36899	31.1	13111	100
2025-3-27 18:23:40.787	WT901BLE68-01(48591DE3C19B)	-0.732	-1.279	0.291	15.015	85.510	-45.959	-74.99	-15.00	-108.11	-73.402	-46.550	2.254	0.68033	-0.25525	0.57944	-0.36899	31.1	13111	100
2025-3-27 18:23:40.814	WT901BLE68-01(48591DE3C19B)	-0.732	-1.322	0.243	12.085	107.056	-24.292	-74.60	-14.84	-109.14	-73.402	-46.550	2.254	0.68033	-0.25525	0.57944	-0.36899	31.1	13111	100
2025-3-27 18:23:40.814	WT901BLE68-01(48591DE3C19B)	-0.834	-1.322	0.243	12.085	107.056	-24.292	-74.22	-14.53	-110.25	-73.402	-46.550	2.254	0.68033	-0.25525	0.57944	-0.36899	31.1	13111	100
2025-3-27 18:23:40.815	WT901BLE68-01(48591DE3C19B)	-0.834	-1.318	0.202	7.690	107.422	-4.517	-73.88	-14.12	-111.31	-73.402	-46.550	2.254	0.68033	-0.25525	0.57944	-0.36899	31.1	13111	100
2025-3-27 18:23:40.815	WT901BLE68-01(48591DE3C19B)	-0.896	-1.318	0.202	7.690	107.422	-4.517	-73.58	-13.62	-112.34	-73.402	-46.550	2.254	0.68033	-0.25525	0.57944	-0.36899	31.1	13111	100
2025-3-27 18:23:40.906	WT901BLE68-01(48591DE3C19B)	-0.896	-1.186	0.187	2.136	83.130	14.771	-73.36	-13.05	-113.21	-73.402	-46.550	2.254	0.68033	-0.25525	0.57944	-0.36899	31.1	13111	100
2025-3-27 18:23:40.906	WT901BLE68-01(48591DE3C19B)	-0.895	-1.186	0.187	2.136	83.130	14.771	-73.22	-12.42	-113.93	-73.402	-46.550	2.254	0.68033	-0.25525	0.57944	-0.36899	31.1	13111	100
2025-3-27 18:23:40.906	WT901BLE68-01(48591DE3C19B)	-0.895	-1.041	0.155	-8.301	44.128	38.208	-73.18	-11.73	-114.42	-73.402	-46.550	2.254	0.68033	-0.25525	0.57944	-0.36899	31.1	13111	100
2025-3-27 18:23:40.906	WT901BLE68-01(48591DE3C19B)	-0.831	-1.041	0.155	-8.301	44.128	38.208	-73.25	-10.99	-114.68	-73.402	-46.550	2.254	0.68033	-0.25525	0.57944	-0.36899	31.1	13111	100
2025-3-27 18:23:40.907	WT901BLE68-01(48591DE3C19B)	-0.831	-0.908	0.097	-19.043	-2.075	67.932	-73.53	-10.10	-114.41	-73.402	-46.550	2.254	0.38788	-0.38217	0.46301	-0.69928	31.1	13111	100
2025-3-27 18:23:40.907	WT901BLE68-01(48591DE3C19B)	-0.695	-0.908	0.097	-19.043	-2.075	67.932	-73.81	-9.20	-114.15	-73.402	-46.550	2.254	0.38788	-0.38217	0.46301	-0.69928	31.1	13111	100
2025-3-27 18:23:40.907	WT901BLE68-01(48591DE3C19B)	-0.695	-0.846	0.038	-31.250	-48.279	100.159	-74.28	-8.12	-113.35	-73.402	-46.550	2.254	0.38788	-0.38217	0.46301	-0.69928	31.1	13111	100
2025-3-27 18:23:40.907	WT901BLE68-01(48591DE3C19B)	-0.568	-0.846	0.038	-31.250	-48.279	100.159	-74.75	-7.04	-112.56	-73.402	-46.550	2.254	0.38788	-0.38217	0.46301	-0.69928	31.1	13111	100
2025-3-27 18:23:40.937	WT901BLE68-01(48591DE3C19B)	-0.568	-0.958	-0.003	-41.748	-83.557	130.371	-75.34	-5.76	-111.35	-73.402	-46.550	2.254	0.38788	-0.38217	0.46301	-0.69928	31.1	13111	100
2025-3-27 18:23:40.937	WT901BLE68-01(48591DE3C19B)	-0.540	-0.958	-0.003	-41.748	-83.557	130.371	-75.92	-4.48	-110.15	-73.402	-46.550	2.254	0.38788	-0.38217	0.46301	-0.69928	31.1	13111	100
2025-3-27 18:23:40.937	WT901BLE68-01(48591DE3C19B)	-0.540	-1.178	0.010	-44.434	-112.854	155.396	-76.52	-3.03	-108.61	-73.402	-46.550	2.254	0.38788	-0.38217	0.46301	-0.69928	31.1	13111	100
2025-3-27 18:23:40.937	WT901BLE68-01(48591DE3C19B)	-0.511	-1.178	0.010	-44.434	-112.854	155.396	-77.08	-1.57	-107.08	-73.402	-46.550	2.254	0.38788	-0.38217	0.46301	-0.69928	31.1	13111	100
2025-3-27 18:23:40.996	WT901BLE68-01(48591DE3C19B)	-0.511	-1.382	0.087	-39.124	-137.329	175.354	-77.55	0.01	-105.29	-73.402	-46.550	2.254	0.38788	-0.38217	0.46301	-0.69928	31.1	13111	100
2025-3-27 18:23:40.996	WT901BLE68-01(48591DE3C19B)	-0.380	-1.382	0.087	-39.124	-137.329	175.354	-77.97	1.60	-103.51	-73.402	-46.550	2.254	0.38788	-0.38217	0.46301	-0.69928	31.1	13111	100
2025-3-27 18:23:40.996	WT901BLE68-01(48591DE3C19B)	-0.380	-1.510	0.078	-25.452	-143.616	191.772	-78.20	3.33	-101.65	-73.402	-46.550	2.254	0.38788	-0.38217	0.46301	-0.69928	31.1	13111	100
2025-3-27 18:23:40.996	WT901BLE68-01(48591DE3C19B)	-0.258	-1.510	0.078	-25.452	-143.616	191.772	-78.37	5.05	-99.80	-73.402	-46.550	2.254	0.38788	-0.38217	0.46301	-0.69928	31.1	13111	100
2025-3-27 18:23:41.27	WT901BLE68-01(48591DE3C19B)	-0.258	-1.442	0.055	-10.071	-126.709	207.397	-78.34	6.93	-98.08	-73.402	-46.550	2.254	0.38788	-0.38217	0.46301	-0.69928	31.1	13111	100
2025-3-27 18:23:41.27	WT901BLE68-01(48591DE3C19B)	-0.225	-1.442	0.055	-10.071	-126.709	207.397	-78.26	8.79	-96.36	-73.402	-46.550	2.254	0.38788	-0.38217	0.46301	-0.69928	31.1	13111	100
2025-3-27 18:23:41.27	WT901BLE68-01(48591DE3C19B)	-0.225	-1.296	0.040	-1.709	-98.389	219.971	-78.09	10.82	-94.89	-73.402	-46.550	2.254	0.38788	-0.38217	0.46301	-0.69928	31.1	13111	100
2025-3-27 18:23:41.27	WT901BLE68-01(48591DE3C19B)	-0.202	-1.296	0.040	-1.709	-98.389	219.971	-77.85	12.82	-93.41	-73.402	-46.550	2.254	0.38788	-0.38217	0.46301	-0.69928	31.1	13111	100
2025-3-27 18:23:41.57	WT901BLE68-01(48591DE3C19B)	-0.202	-1.135	0.053	1.709	-67.932	226.318	-77.61	14.91	-92.21	-73.402	-46.550	2.254	0.38788	-0.38217	0.46301	-0.69928	31.1	13111	100
2025-3-27 18:23:41.57	WT901BLE68-01(48591DE3C19B)	-0.192	-1.135	0.053	1.709	-67.932	226.318	-77.31	16.99	-90.99	-73.402	-46.550	2.254	0.38788	-0.38217	0.46301	-0.69928	31.1	13111	100
2025-3-27 18:23:41.57	WT901BLE68-01(48591DE3C19B)	-0.192	-1.035	0.073	0.366	-41.931	234.985	-77.06	19.19	-90.00	-79.674	-42.434	4.410	0.38788	-0.38217	0.46301	-0.69928	31.1	13111	100
2025-3-27 18:23:41.57	WT901BLE68-01(48591DE3C19B)	-0.183	-1.035	0.073	0.366	-41.931	234.985	-76.77	21.36	-88.99	-79.674	-42.434	4.410	0.38788	-0.38217	0.46301	-0.69928	31.1	13111	100
2025-3-27 18:23:41.115	WT901BLE68-01(48591DE3C19B)	-0.183	-1.000	0.038	-2.014	-22.583	244.019	-76.52	23.65	-88.15	-79.674	-42.434	4.410	0.38788	-0.38217	0.46301	-0.69928	31.1	13111	100
2025-3-27 18:23:41.116	WT901BLE68-01(48591DE3C19B)	-0.162	-1.000	0.038	-2.014	-22.583	244.019	-76.23	25.92	-87.28	-79.674	-42.434	4.410	0.38788	-0.38217	0.46301	-0.69928	31.1	13111	100
2025-3-27 18:23:41.116	WT901BLE68-01(48591DE3C19B)	-0.162	-0.969	-0.001	-6.897	-11.719	252.991	-76.00	28.28	-86.48	-79.674	-42.434	4.410	0.38788	-0.38217	0.46301	-0.69928	31.1	13111	100
2025-3-27 18:23:41.116	WT901BLE68-01(48591DE3C19B)	-0.153	-0.969	-0.001	-6.897	-11.719	252.991	-75.73	30.62	-85.66	-79.674	-42.434	4.410	0.38788	-0.38217	0.46301	-0.69928	31.1	13111	100
2025-3-27 18:23:41.145	WT901BLE68-01(48591DE3C19B)	-0.153	-1.038	-0.039	-15.747	-5.554	256.714	-75.54	32.99	-84.87	-79.674	-42.434	4.410	0.38788	-0.38217	0.46301	-0.69928	31.1	13111	100
2025-3-27 18:23:41.145	WT901BLE68-01(48591DE3C19B)	-0.192	-1.038	-0.039	-15.747	-5.554	256.714	-75.31	35.34	-84.06	-79.674	-42.434	4.410	0.38788	-0.38217	0.46301	-0.69928	31.1	13111	100
2025-3-27 18:23:41.145	WT901BLE68-01(48591DE3C19B)	-0.192	-1.233	-0.034	-22.339	-7.690	253.723	-75.09	37.63	-83.19	-79.674	-42.434	4.410	0.38788	-0.38217	0.46301	-0.69928	31.1	13111	100
2025-3-27 18:23:41.145	WT901BLE68-01(48591DE3C19B)	-0.245	-1.233	-0.034	-22.339	-7.690	253.723	-74.82	39.91	-82.30	-79.674	-42.434	4.410	0.38788	-0.38217	0.46301	-0.69928	31.1	13111	100
2025-3-27 18:23:41.174	WT901BLE68-01(48591DE3C19B)	-0.245	-1.454	-0.017	-24.048	-16.235	239.563	-74.49	42.01	-81.32	-79.674	-42.434	4.410	0.38788	-0.38217	0.46301	-0.69928	31.1	13111	100
2025-3-27 18:23:41.174	WT901BLE68-01(48591DE3C19B)	-0.190	-1.454	-0.017	-24.048	-16.235	239.563	-74.09	44.10	-80.28	-79.674	-42.434	4.410	0.38788	-0.38217	0.46301	-0.69928	31.1	13111	100
2025-3-27 18:23:41.174	WT901BLE68-01(48591DE3C19B)	-0.190	-1.655	-0.023	-23.865	-36.438	212.952	-73.52	45.85	-79.04	-79.674	-42.434	4.410	0.38788	-0.38217	0.46301	-0.69928	31.1	13111	100
2025-3-27 18:23:41.174	WT901BLE68-01(48591DE3C19B)	-0.115	-1.655	-0.023	-23.865	-36.438	212.952	-72.88	47.58	-77.73	-79.674	-42.434	4.410	0.38788	-0.38217	0.46301	-0.69928	31.1	13111	100
2025-3-27 18:23:41.237	WT901BLE68-01(48591DE3C19B)	-0.115	-1.877	-0.015	-21.362	-53.894	175.964	-72.08	48.87	-76.28	-79.674	-42.434	4.410	0.38788	-0.38217	0.46301	-0.69928	31.1	13111	100
2025-3-27 18:23:41.237	WT901BLE68-01(48591DE3C19B)	-0.060	-1.877	-0.015	-21.362	-53.894	175.964	-71.22	50.15	-74.78	-79.674	-42.434	4.410	0.38788	-0.38217	0.46301	-0.69928	31.1	13111	100
2025-3-27 18:23:41.237	WT901BLE68-01(48591DE3C19B)	-0.060	-1.851	0.033	-10.925	-66.467	130.310	-70.25	50.93	-73.27	-79.674	-42.434	4.410	0.38788	-0.38217	0.46301	-0.69928	31.1	13111	100
2025-3-27 18:23:41.237	WT901BLE68-01(48591DE3C19B)	0.064	-1.851	0.033	-10.925	-66.467	130.310	-69.22	51.68	-71.73	-79.674	-42.434	4.410	0.38788	-0.38217	0.46301	-0.69928	31.1	13111	100
2025-3-27 18:23:41.267	WT901BLE68-01(48591DE3C19B)	0.064	-1.728	0.113	-6.104	-71.655	81.421	-68.29	51.93	-70.37	-79.674	-42.434	4.410	0.38788	-0.38217	0.46301	-0.69928	31.1	13111	100
2025-3-27 18:23:41.268	WT901BLE68-01(48591DE3C19B)	0.214	-1.728	0.113	-6.104	-71.655	81.421	-67.34	52.16	-69.00	-79.674	-42.434	4.410	0.38788	-0.38217	0.46301	-0.69928	31.1	13111	100
2025-3-27 18:23:41.268	WT901BLE68-01(48591DE3C19B)	0.214	-1.573	0.183	-0.549	-57.434	30.212	-66.76	51.97	-68.17	-79.674	-42.434	4.410	0.38788	-0.38217	0.46301	-0.69928	31.1	13111	100
2025-3-27 18:23:41.268	WT901BLE68-01(48591DE3C19B)	0.312	-1.573	0.183	-0.549	-57.434	30.212	-66.19	51.75	-67.36	-79.674	-42.434	4.410	0.75937	-0.20605	0.57669	-0.21964	31.1	13111	100
2025-3-27 18:23:41.295	WT901BLE68-01(48591DE3C19B)	0.312	-1.400	0.210	5.798	-27.710	-17.151	-66.15	51.22	-67.30	-79.674	-42.434	4.410	0.75937	-0.20605	0.57669	-0.21964	31.1	13111	100
2025-3-27 18:23:41.295	WT901BLE68-01(48591DE3C19B)	0.295	-1.400	0.210	5.798	-27.710	-17.151	-66.12	50.69	-67.24	-79.674	-42.434	4.410	0.75937	-0.20605	0.57669	-0.21964	31.1	13111	100
2025-3-27 18:23:41.295	WT901BLE68-01(48591DE3C19B)	0.295	-1.267	0.207	8.484	11.047	-64.819	-66.70	49.87	-68.03	-79.674	-42.434	4.410	0.75937	-0.20605	0.57669	-0.21964	31.1	13111	100
2025-3-27 18:23:41.295	WT901BLE68-01(48591DE3C19B)	0.191	-1.267	0.207	8.484	11.047	-64.819	-67.25	49.04	-68.79	-79.674	-42.434	4.410	0.75937	-0.20605	0.57669	-0.21964	31.1	13111	100
2025-3-27 18:23:41.356	WT901BLE68-01(48591DE3C19B)	0.191	-1.167	0.219	10.925	45.776	-107.849	-68.29	47.94	-70.24	-79.674	-42.434	4.410	0.75937	-0.20605	0.57669	-0.21964	31.1	13111	100
2025-3-27 18:23:41.356	WT901BLE68-01(48591DE3C19B)	0.076	-1.167	0.219	10.925	45.776	-107.849	-69.25	46.82	-71.63	-79.674	-42.434	4.410	0.75937	-0.20605	0.57669	-0.21964	31.1	13111	100
2025-3-27 18:23:41.356	WT901BLE68-01(48591DE3C19B)	0.014	-1.082	0.216	14.099	64.026	-142.151	-70.41	45.44	-73.36	-79.674	-42.434	4.410	0.75937	-0.20605	0.57669	-0.21964	31.1	13111	100
2025-3-27 18:23:41.356	WT901BLE68-01(48591DE3C19B)	0.014	-1.021	0.186	17.273	67.444	-166.992	-71.51	43.92	-75.08	-79.674	-42.434	4.410	0.75937	-0.20605	0.57669	-0.21964	31.1	13111	100
2025-3-27 18:23:41.386	WT901BLE68-01(48591DE3C19B)	-0.053	-1.021	0.186	17.273	67.444	-166.992	-72.54	42.29	-76.78	-79.674	-42.434	4.410	0.75937	-0.20605	0.57669	-0.21964	31.1	13111	100
2025-3-27 18:23:41.386	WT901BLE68-01(48591DE3C19B)	-0.053	-0.995	0.173	23.315	71.045	-181.519	-73.48	40.57	-78.44	-79.674	-42.434	4.410	0.75937	-0.20605	0.57669	-0.21964	31.1	13111	100
2025-3-27 18:23:41.386	WT901BLE68-01(48591DE3C19B)	-0.161	-0.995	0.173	23.315	71.045	-181.519	-74.32	38.79	-80.06	-79.674	-42.434	4.410	0.75937	-0.20605	0.57669	-0.21964	31.1	13111	100
2025-3-27 18:23:41.386	WT901BLE68-01(48591DE3C19B)	-0.161	-0.961	0.183	28.320	68.237	-192.627	-75.04	36.94	-81.61	-79.674	-42.434	4.410	0.75937	-0.20605	0.57669	-0.21964	31.1	13111	100
2025-3-27 18:23:41.447	WT901BLE68-01(48591DE3C19B)	-0.234	-0.961	0.183	28.320	68.237	-192.627	-75.66	35.04	-83.08	-79.674	-42.434	4.410	0.75937	-0.20605	0.57669	-0.21964	31.1	13111	100
2025-3-27 18:23:41.447	WT901BLE68-01(48591DE3C19B)	-0.234	-0.970	0.194	27.710	57.678	-203.857	-76.17	33.07	-84.44	-79.674	-42.434	4.410	0.75937	-0.20605	0.57669	-0.21964	31.1	13111	100
2025-3-27 18:23:41.447	WT901BLE68-01(48591DE3C19B)	-0.240	-0.970	0.194	27.710	57.678	-203.857	-76.59	31.04	-85.70	-79.674	-42.434	4.410	0.75937	-0.20605	0.57669	-0.21964	31.1	13111	100
2025-3-27 18:23:41.448	WT901BLE68-01(48591DE3C19B)	-0.240	-1.023	0.206	26.855	46.692	-215.759	-76.93	28.96	-86.86	-79.674	-42.434	4.410	0.75937	-0.20605	0.57669	-0.21964	31.1	13111	100
2025-3-27 18:23:41.477	WT901BLE68-01(48591DE3C19B)	-0.257	-1.023	0.206	26.855	46.692	-215.759	-77.18	26.82	-87.95	-79.674	-42.434	4.410	0.75937	-0.20605	0.57669	-0.21964	31.1	13111	100
2025-3-27 18:23:41.477	WT901BLE68-01(48591DE3C19B)	-0.257	-1.045	0.232	26.306	39.917	-226.318	-77.38	24.63	-88.97	-79.674	-42.434	4.410	0.75937	-0.20605	0.57669	-0.21964	31.1	13111	100
2025-3-27 18:23:41.477	WT901BLE68-01(48591DE3C19B)	-0.293	-1.045	0.232	26.306	39.917	-226.318	-77.53	22.40	-89.93	-79.674	-42.434	4.410	0.75937	-0.20605	0.57669	-0.21964	31.1	13111	100
2025-3-27 18:23:41.478	WT901BLE68-01(48591DE3C19B)	-0.293	-1.070	0.253	26.855	40.222	-233.887	-77.62	20.15	-90.88	-85.260	-30.870	4.214	0.75937	-0.20605	0.57669	-0.21964	31.1	13111	100
2025-3-27 18:23:41.507	WT901BLE68-01(48591DE3C19B)	-0.399	-1.070	0.253	26.855	40.222	-233.887	-77.68	17.88	-91.82	-85.260	-30.870	4.214	0.75937	-0.20605	0.57669	-0.21964	31.1	13111	100
2025-3-27 18:23:41.508	WT901BLE68-01(48591DE3C19B)	-0.399	-1.103	0.253	31.067	45.166	-234.863	-77.67	15.63	-92.78	-85.260	-30.870	4.214	0.75937	-0.20605	0.57669	-0.21964	31.1	13111	100
2025-3-27 18:23:41.508	WT901BLE68-01(48591DE3C19B)	-0.498	-1.103	0.253	31.067	45.166	-234.863	-77.62	13.40	-93.74	-85.260	-30.870	4.214	0.75937	-0.20605	0.57669	-0.21964	31.1	13111	100
2025-3-27 18:23:41.508	WT901BLE68-01(48591DE3C19B)	-0.498	-1.092	0.218	37.842	49.744	-231.506	-77.50	11.22	-94.72	-85.260	-30.870	4.214	0.75937	-0.20605	0.57669	-0.21964	31.1	13111	100
2025-3-27 18:23:41.569	WT901BLE68-01(48591DE3C19B)	-0.532	-1.092	0.218	37.842	49.744	-231.506	-77.31	9.07	-95.71	-85.260	-30.870	4.214	0.75937	-0.20605	0.57669	-0.21964	31.1	13111	100
2025-3-27 18:23:41.569	WT901BLE68-01(48591DE3C19B)	-0.532	-1.011	0.173	42.114	53.101	-221.619	-77.06	7.01	-96.70	-85.260	-30.870	4.214	0.75937	-0.20605	0.57669	-0.21964	31.1	13111	100
2025-3-27 18:23:41.569	WT901BLE68-01(48591DE3C19B)	-0.539	-1.011	0.173	42.114	53.101	-221.619	-76.77	5.03	-97.70	-85.260	-30.870	4.214	0.75937	-0.20605	0.57669	-0.21964	31.1	13111	100
2025-3-27 18:23:41.569	WT901BLE68-01(48591DE3C19B)	-0.539	-0.936	0.128	42.603	56.335	-204.956	-76.44	3.15	-98.70	-85.260	-30.870	4.214	0.75937	-0.20605	0.57669	-0.21964	31.1	13111	100
2025-3-27 18:23:41.595	WT901BLE68-01(48591DE3C19B)	-0.595	-0.936	0.128	42.603	56.335	-204.956	-76.07	1.38	-99.70	-85.260	-30.870	4.214	0.75937	-0.20605	0.57669	-0.21964	31.1	13111	100
2025-3-27 18:23:41.595	WT901BLE68-01(48591DE3C19B)	-0.595	-0.886	0.123	40.649	53.772	-186.096	-75.70	-0.27	-100.67	-85.260	-30.870	4.214	0.75937	-0.20605	0.57669	-0.21964	31.1	13111	100
2025-3-27 18:23:41.596	WT901BLE68-01(48591DE3C19B)	-0.700	-0.886	0.123	40.649	53.772	-186.096	-75.31	-1.81	-101.61	-85.260	-30.870	4.214	0.75937	-0.20605	0.57669	-0.21964	31.1	13111	100
2025-3-27 18:23:41.596	WT901BLE68-01(48591DE3C19B)	-0.700	-0.865	0.206	37.964	41.809	-164.734	-74.92	-3.24	-102.48	-85.260	-30.870	4.214	0.75937	-0.20605	0.57669	-0.21964	31.1	13111	100
2025-3-27 18:23:41.625	WT901BLE68-01(48591DE3C19B)	-0.782	-0.865	0.206	37.964	41.809	-164.734	-74.51	-4.56	-103.27	-85.260	-30.870	4.214	0.75937	-0.20605	0.57669	-0.21964	31.1	13111	100
2025-3-27 18:23:41.625	WT901BLE68-01(48591DE3C19B)	-0.782	-0.907	0.325	32.837	25.757	-143.494	-74.14	-5.78	-103.97	-85.260	-30.870	4.214	0.75937	-0.20605	0.57669	-0.21964	31.1	13111	100
2025-3-27 18:23:41.625	WT901BLE68-01(48591DE3C19B)	-0.821	-0.907	0.325	32.837	25.757	-143.494	-73.77	-6.89	-104.57	-85.260	-30.870	4.214	0.75937	-0.20605	0.57669	-0.21964	31.1	13111	100
2025-3-27 18:23:41.625	WT901BLE68-01(48591DE3C19B)	-0.821	-1.009	0.391	29.724	15.137	-119.141	-73.42	-7.89	-105.11	-85.260	-30.870	4.214	0.75937	-0.20605	0.57669	-0.21964	31.1	13111	100
2025-3-27 18:23:41.687	WT901BLE68-01(48591DE3C19B)	-0.818	-1.009	0.391	29.724	15.137	-119.141	-73.08	-8.77	-105.58	-85.260	-30.870	4.214	0.75937	-0.20605	0.57669	-0.21964	31.1	13111	100
2025-3-27 18:23:41.687	WT901BLE68-01(48591DE3C19B)	-0.818	-1.110	0.366	28.931	12.817	-95.215	-72.73	-9.53	-106.01	-85.260	-30.870	4.214	0.75937	-0.20605	0.57669	-0.21964	31.1	13111	100
2025-3-27 18:23:41.687	WT901BLE68-01(48591DE3C19B)	-0.819	-1.110	0.366	28.931	12.817	-95.215	-72.40	-10.16	-106.41	-85.260	-30.870	4.214	0.75937	-0.20605	0.57669	-0.21964	31.1	13111	100
2025-3-27 18:23:41.687	WT901BLE68-01(48591DE3C19B)	-0.819	-1.177	0.298	26.001	14.465	-74.036	-72.07	-10.68	-106.80	-85.260	-30.870	4.214	0.75937	-0.20605	0.57669	-0.21964	31.1	13111	100
2025-3-27 18:23:41.746	WT901BLE68-01(48591DE3C19B)	-0.870	-1.177	0.298	26.001	14.465	-74.036	-71.76	-11.09	-107.17	-85.260	-30.870	4.214	0.43164	-0.40915	0.42172	-0.68433	31.1	13111	100
2025-3-27 18:23:41.746	WT901BLE68-01(48591DE3C19B)	-0.870	-1.292	0.277	20.996	18.921	-53.223	-71.48	-11.39	-107.52	-85.260	-30.870	4.214	0.43164	-0.40915	0.42172	-0.68433	31.1	13111	100
2025-3-27 18:23:41.746	WT901BLE68-01(48591DE3C19B)	-0.886	-1.292	0.277	20.996	18.921	-53.223	-71.22	-11.59	-107.87	-85.260	-30.870	4.214	0.43164	-0.40915	0.42172	-0.68433	31.1	13111	100
2025-3-27 18:23:41.746	WT901BLE68-01(48591DE3C19B)	-0.886	-1.300	0.294	18.677	24.170	-35.156	-70.98	-11.68	-108.21	-85.260	-30.870	4.214	0.43164	-0.40915	0.42172	-0.68433	31.1	13111	100
2025-3-27 18:23:41.747	WT901BLE68-01(48591DE3C19B)	-0.821	-1.300	0.294	18.677	24.170	-35.156	-70.76	-11.67	-108.55	-85.260	-30.870	4.214	0.43164	-0.40915	0.42172	-0.68433	31.1	13111	100
2025-3-27 18:23:41.747	WT901BLE68-01(48591DE3C19B)	-0.821	-1.193	0.304	11.841	31.311	-12.390	-70.57	-11.55	-108.89	-85.260	-30.870	4.214	0.43164	-0.40915	0.42172	-0.68433	31.1	13111	100
2025-3-27 18:23:41.747	WT901BLE68-01(48591DE3C19B)	-0.760	-1.193	0.304	11.841	31.311	-12.390	-70.41	-11.30	-109.22	-85.260	-30.870	4.214	0.43164	-0.40915	0.42172	-0.68433	31.1	13111	100
2025-3-27 18:23:41.747	WT901BLE68-01(48591DE3C19B)	-0.760	-1.047	0.275	1.099	37.598	11.902	-70.32	-10.94	-109.54	-85.260	-30.870	4.214	0.43164	-0.40915	0.42172	-0.68433	31.1	13111	100
2025-3-27 18:23:41.806	WT901BLE68-01(48591DE3C19B)	-0.733	-1.047	0.275	1.099	37.598	11.902	-70.28	-10.44	-109.85	-85.260	-30.870	4.214	0.43164	-0.40915	0.42172	-0.68433	31.1	13111	100
2025-3-27 18:23:41.806	WT901BLE68-01(48591DE3C19B)	-0.733	-0.936	0.246	-11.475	33.203	33.264	-70.31	-9.85	-110.10	-85.260	-30.870	4.214	0.43164	-0.40915	0.42172	-0.68433	31.1	13111	100
2025-3-27 18:23:41.806	WT901BLE68-01(48591DE3C19B)	-0.745	-0.936	0.246	-11.475	33.203	33.264	-70.42	-9.18	-110.31	-85.260	-30.870	4.214	0.43164	-0.40915	0.42172	-0.68433	31.1	13111	100
2025-3-27 18:23:41.806	WT901BLE68-01(48591DE3C19B)	-0.745	-0.872	0.216	-22.400	16.052	51.453	-70.60	-8.45	-110.41	-85.260	-30.870	4.214	0.43164	-0.40915	0.42172	-0.68433	31.1	13111	100
2025-3-27 18:23:41.837	WT901BLE68-01(48591DE3C19B)	-0.744	-0.872	0.216	-22.400	16.052	51.453	-70.86	-7.66	-110.40	-85.260	-30.870	4.214	0.43164	-0.40915	0.42172	-0.68433	31.1	13111	100
2025-3-27 18:23:41.837	WT901BLE68-01(48591DE3C19B)	-0.744	-0.837	0.164	-31.189	-7.019	69.336	-71.22	-6.78	-110.12	-85.260	-30.870	4.214	0.43164	-0.40915	0.42172	-0.68433	31.1	13111	100
2025-3-27 18:23:41.837	WT901BLE68-01(48591DE3C19B)	-0.729	-0.837	0.164	-31.189	-7.019	69.336	-71.59	-5.90	-109.85	-85.260	-30.870	4.214	0.43164	-0.40915	0.42172	-0.68433	31.1	13111	100
2025-3-27 18:23:41.837	WT901BLE68-01(48591DE3C19B)	-0.729	-0.855	0.097	-39.795	-35.828	90.454	-72.06	-4.91	-109.24	-85.260	-30.870	4.214	0.43164	-0.40915	0.42172	-0.68433	31.1	13111	100
2025-3-27 18:23:41.865	WT901BLE68-01(48591DE3C19B)	-0.658	-0.855	0.097	-39.795	-35.828	90.454	-72.53	-3.92	-108.64	-85.260	-30.870	4.214	0.43164	-0.40915	0.42172	-0.68433	31.1	13111	100
2025-3-27 18:23:41.865	WT901BLE68-01(48591DE3C19B)	-0.658	-0.963	0.041	-44.922	-62.927	113.525	-73.05	-2.79	-107.72	-85.260	-30.870	4.214	0.43164	-0.40915	0.42172	-0.68433	31.1	13111	100
2025-3-27 18:23:41.865	WT901BLE68-01(48591DE3C19B)	-0.540	-0.963	0.041	-44.922	-62.927	113.525	-73.56	-1.66	-106.79	-68.600	-51.744	0.784	0.43164	-0.40915	0.42172	-0.68433	31.1	13111	100
2025-3-27 18:23:41.865	WT901BLE68-01(48591DE3C19B)	-0.540	-1.052	-0.010	-43.152	-79.407	136.475	-74.05	-0.36	-105.64	-68.600	-51.744	0.784	0.43164	-0.40915	0.42172	-0.68433	31.1	13111	100
2025-3-27 18:23:41.926	WT901BLE68-01(48591DE3C19B)	-0.438	-1.052	-0.010	-43.152	-79.407	136.475	-74.51	0.94	-104.49	-68.600	-51.744	0.784	0.43164	-0.40915	0.42172	-0.68433	31.1	13111	100
2025-3-27 18:23:41.926	WT901BLE68-01(48591DE3C19B)	-0.438	-1.109	-0.052	-41.809	-88.440	156.616	-74.94	2.40	-103.20	-68.600	-51.744	0.784	0.43164	-0.40915	0.42172	-0.68433	31.1	13111	100
2025-3-27 18:23:41.926	WT901BLE68-01(48591DE3C19B)	-0.359	-1.109	-0.052	-41.809	-88.440	156.616	-75.35	3.86	-101.91	-68.600	-51.744	0.784	0.43164	-0.40915	0.42172	-0.68433	31.1	13111	100
2025-3-27 18:23:41.926	WT901BLE68-01(48591DE3C19B)	-0.359	-1.212	-0.036	-40.466	-90.332	170.471	-75.70	5.44	-100.57	-68.600	-51.744	0.784	0.43164	-0.40915	0.42172	-0.68433	31.1	13111	100
2025-3-27 18:23:41.957	WT901BLE68-01(48591DE3C19B)	-0.323	-1.212	-0.036	-40.466	-90.332	170.471	-76.03	7.00	-99.24	-68.600	-51.744	0.784	0.43164	-0.40915	0.42172	-0.68433	31.1	13111	100
2025-3-27 18:23:41.957	WT901BLE68-01(48591DE3C19B)	-0.323	-1.336	0.020	-35.217	-84.473	182.617	-76.26	8.69	-97.94	-68.600	-51.744	0.784	0.43164	-0.40915	0.42172	-0.68433	31.1	13111	100
2025-3-27 18:23:41.957	WT901BLE68-01(48591DE3C19B)	-0.286	-1.336	0.020	-35.217	-84.473	182.617	-76.46	10.37	-96.64	-68.600	-51.744	0.784	0.43164	-0.40915	0.42172	-0.68433	31.1	13111	100
2025-3-27 18:23:41.957	WT901BLE68-01(48591DE3C19B)	-0.286	-1.401	0.039	-26.733	-70.984	194.031	-76.56	12.16	-95.45	-68.600	-51.744	0.784	0.43164	-0.40915	0.42172	-0.68433	31.1	13111	100
2025-3-27 18:23:41.988	WT901BLE68-01(48591DE3C19B)	-0.232	-1.401	0.039	-26.733	-70.984	194.031	-76.63	13.95	-94.27	-68.600	-51.744	0.784	0.43164	-0.40915	0.42172	-0.68433	31.1	13111	100
2025-3-27 18:23:41.988	WT901BLE68-01(48591DE3C19B)	-0.232	-1.364	0.013	-19.836	-47.546	203.308	-76.64	15.85	-93.30	-68.600	-51.744	0.784	0.43164	-0.40915	0.42172	-0.68433	31.1	13111	100
2025-3-27 18:23:41.988	WT901BLE68-01(48591DE3C19B)	-0.207	-1.364	0.013	-19.836	-47.546	203.308	-76.62	17.74	-92.32	-68.600	-51.744	0.784	0.43164	-0.40915	0.42172	-0.68433	31.1	13111	100
2025-3-27 18:23:41.988	WT901BLE68-01(48591DE3C19B)	-0.207	-1.269	-0.002	-18.188	-18.127	212.952	-76.64	19.77	-91.61	-68.600	-51.744	0.784	0.43164	-0.40915	0.42172	-0.68433	31.1	13111	100
2025-3-27 18:23:42.47	WT901BLE68-01(48591DE3C19B)	-0.211	-1.269	-0.002	-18.188	-18.127	212.952	-76.64	21.79	-90.90	-68.600	-51.744	0.784	0.43164	-0.40915	0.42172	-0.68433	31.1	13111	100
2025-3-27 18:23:42.47	WT901BLE68-01(48591DE3C19B)	-0.211	-1.141	0.002	-20.996	6.165	222.046	-76.72	23.93	-90.42	-68.600	-51.744	0.784	0.43164	-0.40915	0.42172	-0.68433	31.1	13111	100
2025-3-27 18:23:42.47	WT901BLE68-01(48591DE3C19B)	-0.200	-1.141	0.002	-20.996	6.165	222.046	-76.79	26.05	-89.93	-68.600	-51.744	0.784	0.43164	-0.40915	0.42172	-0.68433	31.1	13111	100
2025-3-27 18:23:42.47	WT901BLE68-01(48591DE3C19B)	-0.200	-1.023	0.042	-25.818	19.775	231.506	-76.95	28.28	-89.58	-68.600	-51.744	0.784	0.43164	-0.40915	0.42172	-0.68433	31.1	13111	100
2025-3-27 18:23:42.77	WT901BLE68-01(48591DE3C19B)	-0.248	-1.023	0.042	-25.818	19.775	231.506	-77.10	30.50	-89.23	-68.600	-51.744	0.784	0.43164	-0.40915	0.42172	-0.68433	31.1	13111	100
2025-3-27 18:23:42.78	WT901BLE68-01(48591DE3C19B)	-0.248	-0.939	0.072	-33.020	19.409	238.892	-77.29	32.78	-88.86	-68.600	-51.744	0.784	0.43164	-0.40915	0.42172	-0.68433	31.1	13111	100
2025-3-27 18:23:42.78	WT901BLE68-01(48591DE3C19B)	-0.227	-0.939	0.072	-33.020	19.409	238.892	-77.47	35.05	-88.49	-68.600	-51.744	0.784	0.43164	-0.40915	0.42172	-0.68433	31.1	13111	100
2025-3-27 18:23:42.78	WT901BLE68-01(48591DE3C19B)	-0.227	-0.967	0.077	-40.344	4.456	239.136	-77.60	37.27	-87.94	-68.600	-51.744	0.784	0.67340	-0.24982	0.59479	-0.36087	31.1	13111	100
2025-3-27 18:23:42.107	WT901BLE68-01(48591DE3C19B)	-0.187	-0.967	0.077	-40.344	4.456	239.136	-77.71	39.47	-87.39	-68.600	-51.744	0.784	0.67340	-0.24982	0.59479	-0.36087	31.1	13111	100
2025-3-27 18:23:42.107	WT901BLE68-01(48591DE3C19B)	-0.187	-1.056	0.099	-43.640	-16.968	231.018	-77.65	41.54	-86.58	-68.600	-51.744	0.784	0.67340	-0.24982	0.59479	-0.36087	31.1	13111	100
2025-3-27 18:23:42.108	WT901BLE68-01(48591DE3C19B)	-0.227	-1.056	0.099	-43.640	-16.968	231.018	-77.56	43.60	-85.74	-68.600	-51.744	0.784	0.67340	-0.24982	0.59479	-0.36087	31.1	13111	100
2025-3-27 18:23:42.108	WT901BLE68-01(48591DE3C19B)	-0.227	-1.143	0.113	-47.729	-50.476	213.562	-77.18	45.39	-84.47	-68.600	-51.744	0.784	0.67340	-0.24982	0.59479	-0.36087	31.1	13111	100
2025-3-27 18:23:42.165	WT901BLE68-01(48591DE3C19B)	-0.296	-1.143	0.113	-47.729	-50.476	213.562	-76.73	47.17	-83.14	-68.600	-51.744	0.784	0.67340	-0.24982	0.59479	-0.36087	31.1	13111	100
2025-3-27 18:23:42.165	WT901BLE68-01(48591DE3C19B)	-0.296	-1.330	0.062	-49.377	-110.291	185.669	-75.65	48.51	-80.99	-68.600	-51.744	0.784	0.67340	-0.24982	0.59479	-0.36087	31.1	13111	100
2025-3-27 18:23:42.165	WT901BLE68-01(48591DE3C19B)	-0.120	-1.330	0.062	-49.377	-110.291	185.669	-74.48	49.81	-78.76	-68.600	-51.744	0.784	0.67340	-0.24982	0.59479	-0.36087	31.1	13111	100
2025-3-27 18:23:42.166	WT901BLE68-01(48591DE3C19B)	-0.120	-1.542	0.068	-41.382	-150.146	143.799	-72.83	50.56	-76.02	-68.600	-51.744	0.784	0.67340	-0.24982	0.59479	-0.36087	31.1	13111	100
2025-3-27 18:23:42.194	WT901BLE68-01(48591DE3C19B)	0.066	-1.542	0.068	-41.382	-150.146	143.799	-71.11	51.25	-73.23	-68.600	-51.744	0.784	0.67340	-0.24982	0.59479	-0.36087	31.1	13111	100
2025-3-27 18:23:42.194	WT901BLE68-01(48591DE3C19B)	0.066	-1.624	0.110	-30.334	-156.372	98.877	-69.35	51.42	-70.54	-68.600	-51.744	0.784	0.67340	-0.24982	0.59479	-0.36087	31.1	13111	100
2025-3-27 18:23:42.194	WT901BLE68-01(48591DE3C19B)	0.120	-1.624	0.110	-30.334	-156.372	98.877	-67.59	51.54	-67.86	-68.600	-51.744	0.784	0.67340	-0.24982	0.59479	-0.36087	31.1	13111	100
2025-3-27 18:23:42.194	WT901BLE68-01(48591DE3C19B)	0.120	-1.593	0.207	-28.748	-148.071	48.035	-66.18	51.17	-65.63	-68.600	-51.744	0.784	0.67340	-0.24982	0.59479	-0.36087	31.1	13111	100
2025-3-27 18:23:42.225	WT901BLE68-01(48591DE3C19B)	0.104	-1.593	0.207	-28.748	-148.071	48.035	-64.81	50.76	-63.45	-68.600	-51.744	0.784	0.67340	-0.24982	0.59479	-0.36087	31.1	13111	100
2025-3-27 18:23:42.225	WT901BLE68-01(48591DE3C19B)	0.104	-1.609	0.328	-28.259	-131.958	-2.075	-63.93	49.94	-61.89	-68.600	-51.744	0.784	0.67340	-0.24982	0.59479	-0.36087	31.1	13111	100
2025-3-27 18:23:42.225	WT901BLE68-01(48591DE3C19B)	0.171	-1.609	0.328	-28.259	-131.958	-2.075	-63.10	49.10	-60.38	-68.600	-51.744	0.784	0.67340	-0.24982	0.59479	-0.36087	31.1	13111	100
2025-3-27 18:23:42.226	WT901BLE68-01(48591DE3C19B)	0.171	-1.479	0.439	-20.020	-97.595	-46.326	-62.81	48.02	-59.67	-68.600	-51.744	0.784	0.67340	-0.24982	0.59479	-0.36087	31.1	13111	100
2025-3-27 18:23:42.286	WT901BLE68-01(48591DE3C19B)	0.244	-1.479	0.439	-20.020	-97.595	-46.326	-62.55	46.93	-58.99	-68.600	-51.744	0.784	0.67340	-0.24982	0.59479	-0.36087	31.1	13111	100
2025-3-27 18:23:42.286	WT901BLE68-01(48591DE3C19B)	0.239	-1.333	0.444	-14.526	-33.691	-85.266	-63.02	45.79	-59.40	-68.600	-51.744	0.784	0.67340	-0.24982	0.59479	-0.36087	31.1	13111	100
2025-3-27 18:23:42.287	WT901BLE68-01(48591DE3C19B)	0.239	-1.283	0.346	-8.423	45.654	-118.530	-63.86	44.67	-60.40	-68.600	-51.744	0.784	0.67340	-0.24982	0.59479	-0.36087	31.1	13111	100
2025-3-27 18:23:42.287	WT901BLE68-01(48591DE3C19B)	0.148	-1.283	0.346	-8.423	45.654	-118.530	-65.04	43.57	-61.93	-68.600	-51.744	0.784	0.67340	-0.24982	0.59479	-0.36087	31.1	13111	100
2025-3-27 18:23:42.315	WT901BLE68-01(48591DE3C19B)	0.148	-1.215	0.241	0.977	109.253	-146.179	-66.42	42.44	-63.86	-89.082	-12.054	5.978	0.67340	-0.24982	0.59479	-0.36087	31.1	13111	100
2025-3-27 18:23:42.315	WT901BLE68-01(48591DE3C19B)	0.068	-1.215	0.241	0.977	109.253	-146.179	-67.98	41.28	-66.18	-89.082	-12.054	5.978	0.67340	-0.24982	0.59479	-0.36087	31.1	13111	100
2025-3-27 18:23:42.315	WT901BLE68-01(48591DE3C19B)	0.068	-1.209	0.158	10.132	148.926	-167.114	-69.59	40.05	-68.70	-89.082	-12.054	5.978	0.67340	-0.24982	0.59479	-0.36087	31.1	13111	100
2025-3-27 18:23:42.315	WT901BLE68-01(48591DE3C19B)	-0.021	-1.209	0.158	10.132	148.926	-167.114	-71.21	38.74	-71.39	-89.082	-12.054	5.978	0.67340	-0.24982	0.59479	-0.36087	31.1	13111	100
2025-3-27 18:23:42.345	WT901BLE68-01(48591DE3C19B)	-0.021	-1.231	0.092	21.606	166.748	-182.129	-72.75	37.34	-74.12	-89.082	-12.054	5.978	0.67340	-0.24982	0.59479	-0.36087	31.1	13111	100
2025-3-27 18:23:42.345	WT901BLE68-01(48591DE3C19B)	-0.142	-1.231	0.092	21.606	166.748	-182.129	-74.19	35.84	-76.87	-89.082	-12.054	5.978	0.67340	-0.24982	0.59479	-0.36087	31.1	13111	100
2025-3-27 18:23:42.345	WT901BLE68-01(48591DE3C19B)	-0.142	-1.269	0.074	34.729	165.527	-190.796	-75.44	34.27	-79.51	-89.082	-12.054	5.978	0.67340	-0.24982	0.59479	-0.36087	31.1	13111	100
2025-3-27 18:23:42.346	WT901BLE68-01(48591DE3C19B)	-0.266	-1.269	0.074	34.729	165.527	-190.796	-76.52	32.61	-82.06	-89.082	-12.054	5.978	0.67340	-0.24982	0.59479	-0.36087	31.1	13111	100
2025-3-27 18:23:42.406	WT901BLE68-01(48591DE3C19B)	-0.266	-1.295	0.072	46.326	151.733	-200.073	-77.39	30.88	-84.45	-89.082	-12.054	5.978	0.67340	-0.24982	0.59479	-0.36087	31.1	13111	100
2025-3-27 18:23:42.406	WT901BLE68-01(48591DE3C19B)	-0.362	-1.295	0.072	46.326	151.733	-200.073	-78.07	29.08	-86.69	-89.082	-12.054	5.978	0.67340	-0.24982	0.59479	-0.36087	31.1	13111	100
2025-3-27 18:23:42.406	WT901BLE68-01(48591DE3C19B)	-0.362	-1.292	0.096	56.091	127.686	-207.886	-78.55	27.21	-88.74	-89.082	-12.054	5.978	0.67340	-0.24982	0.59479	-0.36087	31.1	13111	100
2025-3-27 18:23:42.406	WT901BLE68-01(48591DE3C19B)	-0.426	-1.292	0.096	56.091	127.686	-207.886	-78.84	25.29	-90.61	-89.082	-12.054	5.978	0.67340	-0.24982	0.59479	-0.36087	31.1	13111	100
2025-3-27 18:23:42.435	WT901BLE68-01(48591DE3C19B)	-0.426	-1.245	0.130	61.768	101.501	-215.332	-78.98	23.32	-92.30	-89.082	-12.054	5.978	0.67340	-0.24982	0.59479	-0.36087	31.1	13111	100
2025-3-27 18:23:42.436	WT901BLE68-01(48591DE3C19B)	-0.448	-1.245	0.130	61.768	101.501	-215.332	-78.96	21.31	-93.82	-89.082	-12.054	5.978	0.67340	-0.24982	0.59479	-0.36087	31.1	13111	100
2025-3-27 18:23:42.436	WT901BLE68-01(48591DE3C19B)	-0.448	-1.170	0.155	63.354	79.773	-218.506	-78.85	19.28	-95.21	-89.082	-12.054	5.978	0.67340	-0.24982	0.59479	-0.36087	31.1	13111	100
2025-3-27 18:23:42.436	WT901BLE68-01(48591DE3C19B)	-0.441	-1.170	0.155	63.354	79.773	-218.506	-78.65	17.24	-96.47	-89.082	-12.054	5.978	0.67340	-0.24982	0.59479	-0.36087	31.1	13111	100
2025-3-27 18:23:42.467	WT901BLE68-01(48591DE3C19B)	-0.441	-1.077	0.155	62.927	59.387	-220.093	-78.37	15.19	-97.62	-89.082	-12.054	5.978	0.67340	-0.24982	0.59479	-0.36087	31.1	13111	100
2025-3-27 18:23:42.468	WT901BLE68-01(48591DE3C19B)	-0.391	-1.077	0.155	62.927	59.387	-220.093	-78.03	13.14	-98.66	-89.082	-12.054	5.978	0.67340	-0.24982	0.59479	-0.36087	31.1	13111	100
2025-3-27 18:23:42.468	WT901BLE68-01(48591DE3C19B)	-0.391	-0.974	0.144	59.998	41.626	-221.008	-77.65	11.09	-99.62	-89.082	-12.054	5.978	0.67340	-0.24982	0.59479	-0.36087	31.1	13111	100
2025-3-27 18:23:42.468	WT901BLE68-01(48591DE3C19B)	-0.350	-0.974	0.144	59.998	41.626	-221.008	-77.24	9.04	-100.49	-89.082	-12.054	5.978	0.67340	-0.24982	0.59479	-0.36087	31.1	13111	100
2025-3-27 18:23:42.526	WT901BLE68-01(48591DE3C19B)	-0.350	-0.898	0.139	54.749	30.151	-221.069	-76.83	7.00	-101.32	-89.082	-12.054	5.978	0.67340	-0.24982	0.59479	-0.36087	31.1	13111	100
2025-3-27 18:23:42.526	WT901BLE68-01(48591DE3C19B)	-0.351	-0.898	0.139	54.749	30.151	-221.069	-76.40	4.97	-102.10	-89.082	-12.054	5.978	0.51437	-0.36191	0.50189	-0.59366	31.1	13111	100
2025-3-27 18:23:42.526	WT901BLE68-01(48591DE3C19B)	-0.351	-0.854	0.150	50.415	24.048	-219.055	-75.98	2.96	-102.85	-89.082	-12.054	5.978	0.51437	-0.36191	0.50189	-0.59366	31.1	13111	100
2025-3-27 18:23:42.526	WT901BLE68-01(48591DE3C19B)	-0.425	-0.854	0.150	50.415	24.048	-219.055	-75.54	0.98	-103.58	-89.082	-12.054	5.978	0.51437	-0.36191	0.50189	-0.59366	31.1	13111	100
2025-3-27 18:23:42.554	WT901BLE68-01(48591DE3C19B)	-0.425	-0.829	0.171	48.401	21.729	-213.013	-75.09	-0.96	-104.32	-89.082	-12.054	5.978	0.51437	-0.36191	0.50189	-0.59366	31.1	13111	100
2025-3-27 18:23:42.555	WT901BLE68-01(48591DE3C19B)	-0.497	-0.829	0.171	48.401	21.729	-213.013	-74.63	-2.84	-105.04	-89.082	-12.054	5.978	0.51437	-0.36191	0.50189	-0.59366	31.1	13111	100
2025-3-27 18:23:42.555	WT901BLE68-01(48591DE3C19B)	-0.497	-0.785	0.191	48.645	20.386	-201.660	-74.15	-4.65	-105.76	-89.082	-12.054	5.978	0.51437	-0.36191	0.50189	-0.59366	31.1	13111	100
2025-3-27 18:23:42.555	WT901BLE68-01(48591DE3C19B)	-0.535	-0.785	0.191	48.645	20.386	-201.660	-73.64	-6.39	-106.47	-89.082	-12.054	5.978	0.51437	-0.36191	0.50189	-0.59366	31.1	13111	100
2025-3-27 18:23:42.585	WT901BLE68-01(48591DE3C19B)	-0.535	-0.740	0.188	45.898	20.081	-184.082	-73.13	-8.01	-107.18	-89.082	-12.054	5.978	0.51437	-0.36191	0.50189	-0.59366	31.1	13111	100
2025-3-27 18:23:42.586	WT901BLE68-01(48591DE3C19B)	-0.523	-0.740	0.188	45.898	20.081	-184.082	-72.60	-9.54	-107.87	-89.082	-12.054	5.978	0.51437	-0.36191	0.50189	-0.59366	31.1	13111	100
2025-3-27 18:23:42.586	WT901BLE68-01(48591DE3C19B)	-0.523	-0.743	0.168	42.175	14.160	-162.598	-72.10	-10.94	-108.53	-89.082	-12.054	5.978	0.51437	-0.36191	0.50189	-0.59366	31.1	13111	100
2025-3-27 18:23:42.586	WT901BLE68-01(48591DE3C19B)	-0.490	-0.743	0.168	42.175	14.160	-162.598	-71.60	-12.24	-109.14	-89.082	-12.054	5.978	0.51437	-0.36191	0.50189	-0.59366	31.1	13111	100
2025-3-27 18:23:42.647	WT901BLE68-01(48591DE3C19B)	-0.490	-0.835	0.156	35.583	4.395	-141.296	-71.14	-13.43	-109.68	-89.082	-12.054	5.978	0.51437	-0.36191	0.50189	-0.59366	31.1	13111	100
2025-3-27 18:23:42.647	WT901BLE68-01(48591DE3C19B)	-0.479	-0.835	0.156	35.583	4.395	-141.296	-70.72	-14.52	-110.15	-89.082	-12.054	5.978	0.51437	-0.36191	0.50189	-0.59366	31.1	13111	100
2025-3-27 18:23:42.647	WT901BLE68-01(48591DE3C19B)	-0.479	-1.020	0.202	31.555	-1.953	-123.169	-70.33	-15.52	-110.57	-89.082	-12.054	5.978	0.51437	-0.36191	0.50189	-0.59366	31.1	13111	100
2025-3-27 18:23:42.647	WT901BLE68-01(48591DE3C19B)	-0.567	-1.020	0.202	31.555	-1.953	-123.169	-69.97	-16.45	-110.94	-89.082	-12.054	5.978	0.51437	-0.36191	0.50189	-0.59366	31.1	13111	100
2025-3-27 18:23:42.677	WT901BLE68-01(48591DE3C19B)	-0.567	-1.167	0.335	31.921	-10.986	-105.286	-69.62	-17.30	-111.24	-89.082	-12.054	5.978	0.51437	-0.36191	0.50189	-0.59366	31.1	13111	100
2025-3-27 18:23:42.677	WT901BLE68-01(48591DE3C19B)	-0.599	-1.167	0.335	31.921	-10.986	-105.286	-69.29	-18.07	-111.48	-89.082	-12.054	5.978	0.51437	-0.36191	0.50189	-0.59366	31.1	13111	100
2025-3-27 18:23:42.678	WT901BLE68-01(48591DE3C19B)	-0.599	-1.243	0.412	25.391	-13.428	-92.224	-68.98	-18.78	-111.69	-89.082	-12.054	5.978	0.51437	-0.36191	0.50189	-0.59366	31.1	13111	100
2025-3-27 18:23:42.678	WT901BLE68-01(48591DE3C19B)	-0.608	-1.243	0.412	25.391	-13.428	-92.224	-68.71	-19.43	-111.88	-63.700	-53.704	-1.176	0.51437	-0.36191	0.50189	-0.59366	31.1	13111	100
2025-3-27 18:23:42.707	WT901BLE68-01(48591DE3C19B)	-0.608	-1.262	0.430	23.438	4.578	-75.317	-68.42	-19.97	-112.14	-63.700	-53.704	-1.176	0.51437	-0.36191	0.50189	-0.59366	31.1	13111	100
2025-3-27 18:23:42.707	WT901BLE68-01(48591DE3C19B)	-0.583	-1.262	0.430	23.438	4.578	-75.317	-68.12	-20.39	-112.46	-63.700	-53.704	-1.176	0.51437	-0.36191	0.50189	-0.59366	31.1	13111	100
2025-3-27 18:23:42.707	WT901BLE68-01(48591DE3C19B)	-0.583	-1.208	0.412	15.198	27.588	-60.669	-67.82	-20.69	-112.88	-63.700	-53.704	-1.176	0.51437	-0.36191	0.50189	-0.59366	31.1	13111	100
2025-3-27 18:23:42.707	WT901BLE68-01(48591DE3C19B)	-0.575	-1.208	0.412	15.198	27.588	-60.669	-67.53	-20.87	-113.38	-63.700	-53.704	-1.176	0.51437	-0.36191	0.50189	-0.59366	31.1	13111	100
2025-3-27 18:23:42.765	WT901BLE68-01(48591DE3C19B)	-0.575	-1.204	0.405	6.714	43.579	-40.833	-67.29	-20.82	-113.97	-63.700	-53.704	-1.176	0.51437	-0.36191	0.50189	-0.59366	31.1	13111	100
2025-3-27 18:23:42.765	WT901BLE68-01(48591DE3C19B)	-0.613	-1.204	0.405	6.714	43.579	-40.833	-67.05	-20.76	-114.57	-63.700	-53.704	-1.176	0.51437	-0.36191	0.50189	-0.59366	31.1	13111	100
2025-3-27 18:23:42.765	WT901BLE68-01(48591DE3C19B)	-0.613	-1.142	0.417	-0.916	44.983	-16.968	-66.92	-20.47	-115.08	-63.700	-53.704	-1.176	0.51437	-0.36191	0.50189	-0.59366	31.1	13111	100
2025-3-27 18:23:42.765	WT901BLE68-01(48591DE3C19B)	-0.667	-1.142	0.417	-0.916	44.983	-16.968	-66.79	-20.18	-115.59	-63.700	-53.704	-1.176	0.51437	-0.36191	0.50189	-0.59366	31.1	13111	100
2025-3-27 18:23:42.794	WT901BLE68-01(48591DE3C19B)	-0.667	-1.100	0.412	-12.268	29.480	8.545	-66.85	-19.72	-115.85	-63.700	-53.704	-1.176	0.51437	-0.36191	0.50189	-0.59366	31.1	13111	100
2025-3-27 18:23:42.794	WT901BLE68-01(48591DE3C19B)	-0.709	-1.100	0.412	-12.268	29.480	8.545	-66.92	-19.26	-116.11	-63.700	-53.704	-1.176	0.51437	-0.36191	0.50189	-0.59366	31.1	13111	100
2025-3-27 18:23:42.794	WT901BLE68-01(48591DE3C19B)	-0.709	-1.111	0.373	-19.958	-4.211	38.757	-67.20	-18.65	-115.93	-63.700	-53.704	-1.176	0.51437	-0.36191	0.50189	-0.59366	31.1	13111	100
2025-3-27 18:23:42.794	WT901BLE68-01(48591DE3C19B)	-0.698	-1.111	0.373	-19.958	-4.211	38.757	-67.48	-18.05	-115.76	-63.700	-53.704	-1.176	0.51437	-0.36191	0.50189	-0.59366	31.1	13111	100
2025-3-27 18:23:42.857	WT901BLE68-01(48591DE3C19B)	-0.698	-1.052	0.303	-24.780	-43.396	72.144	-67.96	-17.28	-115.08	-63.700	-53.704	-1.176	0.51437	-0.36191	0.50189	-0.59366	31.1	13111	100
2025-3-27 18:23:42.857	WT901BLE68-01(48591DE3C19B)	-0.615	-1.052	0.303	-24.780	-43.396	72.144	-68.42	-16.51	-114.42	-63.700	-53.704	-1.176	0.51437	-0.36191	0.50189	-0.59366	31.1	13111	100
2025-3-27 18:23:42.857	WT901BLE68-01(48591DE3C19B)	-0.615	-1.029	0.209	-29.846	-78.613	109.802	-69.04	-15.51	-113.29	-63.700	-53.704	-1.176	0.51437	-0.36191	0.50189	-0.59366	31.1	13111	100
2025-3-27 18:23:42.857	WT901BLE68-01(48591DE3C19B)	-0.516	-1.029	0.209	-29.846	-78.613	109.802	-69.65	-14.51	-112.17	-63.700	-53.704	-1.176	0.51437	-0.36191	0.50189	-0.59366	31.1	13111	100
2025-3-27 18:23:42.888	WT901BLE68-01(48591DE3C19B)	-0.516	-1.079	0.133	-32.043	-105.835	148.865	-70.35	-13.22	-110.67	-63.700	-53.704	-1.176	0.51437	-0.36191	0.50189	-0.59366	31.1	13111	100
2025-3-27 18:23:42.888	WT901BLE68-01(48591DE3C19B)	-0.405	-1.079	0.133	-32.043	-105.835	148.865	-71.02	-11.93	-109.18	-63.700	-53.704	-1.176	0.51437	-0.36191	0.50189	-0.59366	31.1	13111	100
2025-3-27 18:23:42.888	WT901BLE68-01(48591DE3C19B)	-0.405	-1.167	0.073	-31.982	-122.375	184.937	-71.70	-10.34	-107.42	-63.700	-53.704	-1.176	0.51437	-0.36191	0.50189	-0.59366	31.1	13111	100
2025-3-27 18:23:42.888	WT901BLE68-01(48591DE3C19B)	-0.293	-1.167	0.073	-31.982	-122.375	184.937	-72.33	-8.75	-105.69	-63.700	-53.704	-1.176	0.45871	-0.40405	0.43445	-0.66141	31.1	13111	100
2025-3-27 18:23:42.917	WT901BLE68-01(48591DE3C19B)	-0.293	-1.330	0.073	-29.602	-125.854	215.332	-72.90	-6.87	-103.85	-63.700	-53.704	-1.176	0.45871	-0.40405	0.43445	-0.66141	31.1	13111	100
2025-3-27 18:23:42.917	WT901BLE68-01(48591DE3C19B)	-0.180	-1.330	0.073	-29.602	-125.854	215.332	-73.42	-5.00	-102.02	-63.700	-53.704	-1.176	0.45871	-0.40405	0.43445	-0.66141	31.1	13111	100
2025-3-27 18:23:42.917	WT901BLE68-01(48591DE3C19B)	-0.180	-1.548	0.099	-20.081	-114.685	241.394	-73.78	-2.86	-100.25	-63.700	-53.704	-1.176	0.45871	-0.40405	0.43445	-0.66141	31.1	13111	100
2025-3-27 18:23:42.917	WT901BLE68-01(48591DE3C19B)	-0.069	-1.548	0.099	-20.081	-114.685	241.394	-74.07	-0.72	-98.49	-63.700	-53.704	-1.176	0.45871	-0.40405	0.43445	-0.66141	31.1	13111	100
2025-3-27 18:23:42.975	WT901BLE68-01(48591DE3C19B)	-0.069	-1.629	0.120	-3.235	-84.656	265.076	-74.13	1.70	-96.97	-63.700	-53.704	-1.176	0.45871	-0.40405	0.43445	-0.66141	31.1	13111	100
2025-3-27 18:23:42.975	WT901BLE68-01(48591DE3C19B)	-0.013	-1.629	0.120	-3.235	-84.656	265.076	-74.13	4.09	-95.44	-63.700	-53.704	-1.176	0.45871	-0.40405	0.43445	-0.66141	31.1	13111	100
2025-3-27 18:23:42.975	WT901BLE68-01(48591DE3C19B)	-0.013	-1.515	0.131	9.399	-37.781	284.424	-73.98	6.78	-94.31	-63.700	-53.704	-1.176	0.45871	-0.40405	0.43445	-0.66141	31.1	13111	100
2025-3-27 18:23:42.975	WT901BLE68-01(48591DE3C19B)	-0.065	-1.515	0.131	9.399	-37.781	284.424	-73.77	9.44	-93.17	-63.700	-53.704	-1.176	0.45871	-0.40405	0.43445	-0.66141	31.1	13111	100
2025-3-27 18:23:43.5	WT901BLE68-01(48591DE3C19B)	-0.065	-1.368	0.134	9.583	10.742	294.739	-73.59	12.30	-92.46	-63.700	-53.704	-1.176	0.45871	-0.40405	0.43445	-0.66141	31.1	13111	100
2025-3-27 18:23:43.5	WT901BLE68-01(48591DE3C19B)	-0.154	-1.368	0.134	9.583	10.742	294.739	-73.37	15.14	-91.73	-63.700	-53.704	-1.176	0.45871	-0.40405	0.43445	-0.66141	31.1	13111	100
2025-3-27 18:23:43.5	WT901BLE68-01(48591DE3C19B)	-0.154	-1.275	0.138	2.502	45.837	296.265	-73.28	18.07	-91.33	-63.700	-53.704	-1.176	0.45871	-0.40405	0.43445	-0.66141	31.1	13111	100
2025-3-27 18:23:43.5	WT901BLE68-01(48591DE3C19B)	-0.187	-1.275	0.138	2.502	45.837	296.265	-73.18	20.98	-90.93	-63.700	-53.704	-1.176	0.45871	-0.40405	0.43445	-0.66141	31.1	13111	100
2025-3-27 18:23:43.35	WT901BLE68-01(48591DE3C19B)	-0.187	-1.199	0.146	-7.813	65.308	293.457	-73.23	23.91	-90.74	-63.700	-53.704	-1.176	0.45871	-0.40405	0.43445	-0.66141	31.1	13111	100
2025-3-27 18:23:43.35	WT901BLE68-01(48591DE3C19B)	-0.206	-1.199	0.146	-7.813	65.308	293.457	-73.27	26.81	-90.54	-63.700	-53.704	-1.176	0.45871	-0.40405	0.43445	-0.66141	31.1	13111	100
2025-3-27 18:23:43.35	WT901BLE68-01(48591DE3C19B)	-0.206	-1.143	0.140	-19.470	74.280	285.583	-73.48	29.65	-90.47	-63.700	-53.704	-1.176	0.45871	-0.40405	0.43445	-0.66141	31.1	13111	100
2025-3-27 18:23:43.35	WT901BLE68-01(48591DE3C19B)	-0.214	-1.143	0.140	-19.470	74.280	285.583	-73.69	32.48	-90.41	-63.700	-53.704	-1.176	0.45871	-0.40405	0.43445	-0.66141	31.1	13111	100
2025-3-27 18:23:43.96	WT901BLE68-01(48591DE3C19B)	-0.214	-1.073	0.106	-28.381	72.571	273.193	-74.00	35.16	-90.39	-63.700	-53.704	-1.176	0.45871	-0.40405	0.43445	-0.66141	31.1	13111	100
2025-3-27 18:23:43.96	WT901BLE68-01(48591DE3C19B)	-0.232	-1.073	0.106	-28.381	72.571	273.193	-74.32	37.83	-90.38	-63.700	-53.704	-1.176	0.45871	-0.40405	0.43445	-0.66141	31.1	13111	100
2025-3-27 18:23:43.96	WT901BLE68-01(48591DE3C19B)	-0.232	-0.975	0.075	-37.720	64.575	257.629	-74.72	40.31	-90.36	-63.700	-53.704	-1.176	0.45871	-0.40405	0.43445	-0.66141	31.1	13111	100
2025-3-27 18:23:43.96	WT901BLE68-01(48591DE3C19B)	-0.262	-0.975	0.075	-37.720	64.575	257.629	-75.13	42.79	-90.37	-63.700	-53.704	-1.176	0.45871	-0.40405	0.43445	-0.66141	31.1	13111	100
2025-3-27 18:23:43.124	WT901BLE68-01(48591DE3C19B)	-0.262	-0.937	0.059	-46.936	46.692	237.976	-75.53	45.01	-90.23	-76.244	-28.910	-5.194	0.45871	-0.40405	0.43445	-0.66141	31.1	13111	100
2025-3-27 18:23:43.124	WT901BLE68-01(48591DE3C19B)	-0.287	-0.937	0.059	-46.936	46.692	237.976	-75.94	47.22	-90.10	-76.244	-28.910	-5.194	0.45871	-0.40405	0.43445	-0.66141	31.1	13111	100
2025-3-27 18:23:43.125	WT901BLE68-01(48591DE3C19B)	-0.287	-0.919	0.056	-49.744	19.714	214.111	-76.16	49.14	-89.69	-76.244	-28.910	-5.194	0.45871	-0.40405	0.43445	-0.66141	31.1	13111	100
2025-3-27 18:23:43.125	WT901BLE68-01(48591DE3C19B)	-0.287	-0.919	0.056	-49.744	19.714	214.111	-76.37	51.04	-89.28	-76.244	-28.910	-5.194	0.45871	-0.40405	0.43445	-0.66141	31.1	13111	100
2025-3-27 18:23:43.155	WT901BLE68-01(48591DE3C19B)	-0.287	-0.893	0.058	-48.889	-9.705	188.293	-76.26	52.62	-88.49	-76.244	-28.910	-5.194	0.45871	-0.40405	0.43445	-0.66141	31.1	13111	100
2025-3-27 18:23:43.155	WT901BLE68-01(48591DE3C19B)	-0.288	-0.893	0.058	-48.889	-9.705	188.293	-76.12	54.19	-87.68	-76.244	-28.910	-5.194	0.45871	-0.40405	0.43445	-0.66141	31.1	13111	100
2025-3-27 18:23:43.155	WT901BLE68-01(48591DE3C19B)	-0.288	-0.920	0.058	-45.410	-28.931	161.194	-75.73	55.44	-86.63	-76.244	-28.910	-5.194	0.45871	-0.40405	0.43445	-0.66141	31.1	13111	100
2025-3-27 18:23:43.155	WT901BLE68-01(48591DE3C19B)	-0.358	-0.920	0.058	-45.410	-28.931	161.194	-75.29	56.69	-85.53	-76.244	-28.910	-5.194	0.45871	-0.40405	0.43445	-0.66141	31.1	13111	100
2025-3-27 18:23:43.216	WT901BLE68-01(48591DE3C19B)	-0.358	-0.909	0.067	-38.269	-41.504	131.592	-74.66	57.61	-84.30	-76.244	-28.910	-5.194	0.45871	-0.40405	0.43445	-0.66141	31.1	13111	100
2025-3-27 18:23:43.216	WT901BLE68-01(48591DE3C19B)	-0.339	-0.909	0.067	-38.269	-41.504	131.592	-73.98	58.51	-83.03	-76.244	-28.910	-5.194	0.45871	-0.40405	0.43445	-0.66141	31.1	13111	100
2025-3-27 18:23:43.216	WT901BLE68-01(48591DE3C19B)	-0.300	-0.871	0.069	-33.264	-59.265	99.792	-73.07	59.06	-81.57	-76.244	-28.910	-5.194	0.45871	-0.40405	0.43445	-0.66141	31.1	13111	100
2025-3-27 18:23:43.216	WT901BLE68-01(48591DE3C19B)	-0.300	-0.819	0.100	-31.677	-72.388	73.364	-72.08	59.45	-80.02	-76.244	-28.910	-5.194	0.45871	-0.40405	0.43445	-0.66141	31.1	13111	100
2025-3-27 18:23:43.275	WT901BLE68-01(48591DE3C19B)	-0.285	-0.819	0.100	-31.677	-72.388	73.364	-71.03	59.67	-78.42	-76.244	-28.910	-5.194	0.45871	-0.40405	0.43445	-0.66141	31.1	13111	100
2025-3-27 18:23:43.275	WT901BLE68-01(48591DE3C19B)	-0.285	-0.756	0.144	-31.433	-77.515	52.490	-69.98	59.78	-76.83	-76.244	-28.910	-5.194	0.45871	-0.40405	0.43445	-0.66141	31.1	13111	100
2025-3-27 18:23:43.275	WT901BLE68-01(48591DE3C19B)	-0.315	-0.756	0.144	-31.433	-77.515	52.490	-68.96	59.76	-75.26	-76.244	-28.910	-5.194	0.45871	-0.40405	0.43445	-0.66141	31.1	13111	100
2025-3-27 18:23:43.275	WT901BLE68-01(48591DE3C19B)	-0.315	-0.746	0.196	-34.607	-79.285	34.424	-67.99	59.65	-73.76	-76.244	-28.910	-5.194	0.45871	-0.40405	0.43445	-0.66141	31.1	13111	100
2025-3-27 18:23:43.276	WT901BLE68-01(48591DE3C19B)	-0.358	-0.746	0.196	-34.607	-79.285	34.424	-67.10	59.44	-72.32	-76.244	-28.910	-5.194	0.45871	-0.40405	0.43445	-0.66141	31.1	13111	100
2025-3-27 18:23:43.276	WT901BLE68-01(48591DE3C19B)	-0.358	-0.875	0.234	-37.109	-77.148	15.686	-66.32	59.14	-70.99	-76.244	-28.910	-5.194	0.45871	-0.40405	0.43445	-0.66141	31.1	13111	100
2025-3-27 18:23:43.276	WT901BLE68-01(48591DE3C19B)	-0.406	-0.875	0.234	-37.109	-77.148	15.686	-65.65	58.75	-69.79	-76.244	-28.910	-5.194	0.45871	-0.40405	0.43445	-0.66141	31.1	13111	100
2025-3-27 18:23:43.276	WT901BLE68-01(48591DE3C19B)	-0.406	-1.008	0.267	-34.485	-69.092	-4.700	-65.12	58.29	-68.76	-76.244	-28.910	-5.194	0.45871	-0.40405	0.43445	-0.66141	31.1	13111	100
2025-3-27 18:23:43.335	WT901BLE68-01(48591DE3C19B)	-0.430	-1.008	0.267	-34.485	-69.092	-4.700	-64.73	57.75	-67.90	-76.244	-28.910	-5.194	0.45871	-0.40405	0.43445	-0.66141	31.1	13111	100
2025-3-27 18:23:43.336	WT901BLE68-01(48591DE3C19B)	-0.430	-1.137	0.310	-30.457	-43.152	-30.090	-64.59	57.16	-67.38	-76.244	-28.910	-5.194	0.75964	-0.16879	0.59531	-0.19986	31.1	13111	100
2025-3-27 18:23:43.336	WT901BLE68-01(48591DE3C19B)	-0.465	-1.137	0.310	-30.457	-43.152	-30.090	-64.71	56.50	-67.19	-76.244	-28.910	-5.194	0.75964	-0.16879	0.59531	-0.19986	31.1	13111	100
2025-3-27 18:23:43.336	WT901BLE68-01(48591DE3C19B)	-0.465	-1.233	0.358	-24.536	2.136	-55.176	-65.19	55.83	-67.45	-76.244	-28.910	-5.194	0.75964	-0.16879	0.59531	-0.19986	31.1	13111	100
2025-3-27 18:23:43.364	WT901BLE68-01(48591DE3C19B)	-0.483	-1.233	0.358	-24.536	2.136	-55.176	-65.98	55.15	-68.15	-76.244	-28.910	-5.194	0.75964	-0.16879	0.59531	-0.19986	31.1	13111	100
2025-3-27 18:23:43.364	WT901BLE68-01(48591DE3C19B)	-0.483	-1.253	0.376	-16.418	53.955	-73.059	-67.08	54.48	-69.28	-76.244	-28.910	-5.194	0.75964	-0.16879	0.59531	-0.19986	31.1	13111	100
2025-3-27 18:23:43.364	WT901BLE68-01(48591DE3C19B)	-0.476	-1.253	0.376	-16.418	53.955	-73.059	-68.46	53.82	-70.83	-76.244	-28.910	-5.194	0.75964	-0.16879	0.59531	-0.19986	31.1	13111	100
2025-3-27 18:23:43.365	WT901BLE68-01(48591DE3C19B)	-0.476	-1.170	0.356	-5.676	104.858	-83.801	-70.07	53.18	-72.75	-76.244	-28.910	-5.194	0.75964	-0.16879	0.59531	-0.19986	31.1	13111	100
2025-3-27 18:23:43.395	WT901BLE68-01(48591DE3C19B)	-0.450	-1.170	0.356	-5.676	104.858	-83.801	-71.89	52.54	-75.03	-76.244	-28.910	-5.194	0.75964	-0.16879	0.59531	-0.19986	31.1	13111	100
2025-3-27 18:23:43.395	WT901BLE68-01(48591DE3C19B)	-0.450	-1.088	0.259	6.226	155.334	-91.553	-73.91	51.90	-77.63	-76.244	-28.910	-5.194	0.75964	-0.16879	0.59531	-0.19986	31.1	13111	100
2025-3-27 18:23:43.395	WT901BLE68-01(48591DE3C19B)	-0.513	-1.088	0.259	6.226	155.334	-91.553	-76.08	51.24	-80.55	-76.244	-28.910	-5.194	0.75964	-0.16879	0.59531	-0.19986	31.1	13111	100
2025-3-27 18:23:43.395	WT901BLE68-01(48591DE3C19B)	-0.513	-0.966	0.192	18.738	195.374	-99.548	-78.34	50.52	-83.70	-76.244	-28.910	-5.194	0.75964	-0.16879	0.59531	-0.19986	31.1	13111	100
2025-3-27 18:23:43.457	WT901BLE68-01(48591DE3C19B)	-0.598	-0.966	0.192	18.738	195.374	-99.548	-80.67	49.72	-87.05	-76.244	-28.910	-5.194	0.75964	-0.16879	0.59531	-0.19986	31.1	13111	100
2025-3-27 18:23:43.457	WT901BLE68-01(48591DE3C19B)	-0.598	-0.847	0.165	29.175	214.050	-105.347	-82.93	48.83	-90.43	-76.244	-28.910	-5.194	0.75964	-0.16879	0.59531	-0.19986	31.1	13111	100
2025-3-27 18:23:43.457	WT901BLE68-01(48591DE3C19B)	-0.686	-0.847	0.165	29.175	214.050	-105.347	-85.11	47.86	-93.82	-76.244	-28.910	-5.194	0.75964	-0.16879	0.59531	-0.19986	31.1	13111	100
2025-3-27 18:23:43.457	WT901BLE68-01(48591DE3C19B)	-0.686	-0.785	0.142	37.231	215.393	-106.018	-87.12	46.81	-97.09	-76.244	-28.910	-5.194	0.75964	-0.16879	0.59531	-0.19986	31.1	13111	100
2025-3-27 18:23:43.516	WT901BLE68-01(48591DE3C19B)	-0.768	-0.785	0.142	37.231	215.393	-106.018	-88.96	45.70	-100.23	-76.244	-28.910	-5.194	0.75964	-0.16879	0.59531	-0.19986	31.1	13111	100
2025-3-27 18:23:43.516	WT901BLE68-01(48591DE3C19B)	-0.768	-0.757	0.102	44.556	200.684	-106.812	-90.55	44.54	-103.16	-76.244	-28.910	-5.194	0.75964	-0.16879	0.59531	-0.19986	31.1	13111	100
2025-3-27 18:23:43.516	WT901BLE68-01(48591DE3C19B)	-0.844	-0.757	0.102	44.556	200.684	-106.812	-91.92	43.35	-105.86	-76.244	-28.910	-5.194	0.75964	-0.16879	0.59531	-0.19986	31.1	13111	100
2025-3-27 18:23:43.516	WT901BLE68-01(48591DE3C19B)	-0.844	-0.747	0.058	49.438	164.001	-102.722	-92.99	42.15	-108.24	-66.248	-20.874	-6.272	0.75964	-0.16879	0.59531	-0.19986	31.1	13111	100
2025-3-27 18:23:43.517	WT901BLE68-01(48591DE3C19B)	-0.908	-0.747	0.058	49.438	164.001	-102.722	-93.80	40.98	-110.29	-66.248	-20.874	-6.272	0.75964	-0.16879	0.59531	-0.19986	31.1	13111	100
2025-3-27 18:23:43.517	WT901BLE68-01(48591DE3C19B)	-0.908	-0.744	0.036	54.016	106.628	-96.008	-94.28	39.86	-111.91	-66.248	-20.874	-6.272	0.75964	-0.16879	0.59531	-0.19986	31.1	13111	100
2025-3-27 18:23:43.517	WT901BLE68-01(48591DE3C19B)	-0.943	-0.744	0.036	54.016	106.628	-96.008	-94.46	38.81	-113.14	-66.248	-20.874	-6.272	0.75964	-0.16879	0.59531	-0.19986	31.1	13111	100
2025-3-27 18:23:43.517	WT901BLE68-01(48591DE3C19B)	-0.943	-0.756	0.033	57.495	34.729	-88.623	-94.32	37.83	-113.90	-66.248	-20.874	-6.272	0.75964	-0.16879	0.59531	-0.19986	31.1	13111	100
