time	DeviceName	AccX(g)	AccY(g)	AccZ(g)	AsX(°/s)	AsY(°/s)	AsZ(°/s)	AngleX(°)	AngleY(°)	AngleZ(°)	HX(uT)	HY(uT)	HZ(uT)	Q0()	Q1()	Q2()	Q3()	Temperature(°C)	Version()	Battery level(%)
2025-3-27 18:50:10.458	WT901BLE68-01(48591DE3C19B)	-0.109	-0.994	0.209	1.343	-3.052	6.714	-77.92	8.08	-15.83	-51.352	-24.500	85.554	0.76999	-0.62881	0.10281	-0.03250	30.7	13111	100
2025-3-27 18:50:10.458	WT901BLE68-01(48591DE3C19B)	-0.109	-0.986	0.208	1.587	-3.174	7.019	-77.89	8.12	-15.88	-51.352	-24.500	85.554	0.77444	-0.61337	0.14117	-0.06299	30.7	13111	100
2025-3-27 18:50:10.458	WT901BLE68-01(48591DE3C19B)	-0.100	-0.986	0.208	1.587	-3.174	7.019	-77.87	8.17	-15.92	-51.352	-24.500	85.554	0.77444	-0.61337	0.14117	-0.06299	30.7	13111	100
2025-3-27 18:50:10.458	WT901BLE68-01(48591DE3C19B)	-0.100	-0.970	0.209	1.282	-0.977	7.690	-77.85	8.23	-15.97	-51.352	-24.500	85.554	0.77444	-0.61337	0.14117	-0.06299	30.7	13111	100
2025-3-27 18:50:10.487	WT901BLE68-01(48591DE3C19B)	-0.101	-0.970	0.209	1.282	-0.977	7.690	-77.83	8.29	-16.04	-51.352	-24.500	85.554	0.77444	-0.61337	0.14117	-0.06299	30.7	13111	100
2025-3-27 18:50:10.487	WT901BLE68-01(48591DE3C19B)	-0.101	-0.965	0.214	0.427	0.610	8.057	-77.82	8.36	-16.12	-51.352	-24.500	85.554	0.77444	-0.61337	0.14117	-0.06299	30.7	13111	100
2025-3-27 18:50:10.488	WT901BLE68-01(48591DE3C19B)	-0.100	-0.965	0.214	0.427	0.610	8.057	-77.82	8.42	-16.19	-51.352	-24.500	85.554	0.77444	-0.61337	0.14117	-0.06299	30.7	13111	100
2025-3-27 18:50:10.488	WT901BLE68-01(48591DE3C19B)	-0.100	-0.983	0.219	-0.488	1.526	8.362	-77.82	8.49	-16.28	-51.352	-24.500	85.554	0.77444	-0.61337	0.14117	-0.06299	30.7	13111	100
2025-3-27 18:50:10.518	WT901BLE68-01(48591DE3C19B)	-0.098	-0.983	0.219	-0.488	1.526	8.362	-77.82	8.56	-16.36	-51.352	-24.500	85.554	0.77444	-0.61337	0.14117	-0.06299	30.7	13111	100
2025-3-27 18:50:10.518	WT901BLE68-01(48591DE3C19B)	-0.098	-0.997	0.221	-0.427	1.770	8.667	-77.83	8.62	-16.45	-51.352	-24.500	85.554	0.77444	-0.61337	0.14117	-0.06299	30.7	13111	100
2025-3-27 18:50:10.518	WT901BLE68-01(48591DE3C19B)	-0.093	-0.997	0.221	-0.427	1.770	8.667	-77.83	8.70	-16.54	-51.352	-24.500	85.554	0.77444	-0.61337	0.14117	-0.06299	30.7	13111	100
2025-3-27 18:50:10.518	WT901BLE68-01(48591DE3C19B)	-0.093	-0.998	0.225	-0.183	1.099	8.362	-77.83	8.77	-16.63	-51.352	-24.500	85.554	0.77444	-0.61337	0.14117	-0.06299	30.7	13111	100
2025-3-27 18:50:10.579	WT901BLE68-01(48591DE3C19B)	-0.089	-0.998	0.225	-0.183	1.099	8.362	-77.84	8.83	-16.71	-51.352	-24.500	85.554	0.77444	-0.61337	0.14117	-0.06299	30.7	13111	100
2025-3-27 18:50:10.579	WT901BLE68-01(48591DE3C19B)	-0.089	-1.003	0.226	0.000	0.549	7.202	-77.84	8.89	-16.79	-51.352	-24.500	85.554	0.77444	-0.61337	0.14117	-0.06299	30.7	13111	100
2025-3-27 18:50:10.580	WT901BLE68-01(48591DE3C19B)	-0.087	-1.003	0.226	0.000	0.549	7.202	-77.83	8.94	-16.87	-51.352	-24.500	85.554	0.77444	-0.61337	0.14117	-0.06299	30.7	13111	100
2025-3-27 18:50:10.580	WT901BLE68-01(48591DE3C19B)	-0.087	-0.998	0.230	0.549	-0.610	5.737	-77.83	8.99	-16.94	-51.352	-24.500	85.554	0.77444	-0.61337	0.14117	-0.06299	30.7	13111	100
2025-3-27 18:50:10.638	WT901BLE68-01(48591DE3C19B)	-0.080	-0.998	0.230	0.549	-0.610	5.737	-77.82	9.02	-17.01	-51.352	-24.500	85.554	0.77444	-0.61337	0.14117	-0.06299	30.7	13111	100
2025-3-27 18:50:10.639	WT901BLE68-01(48591DE3C19B)	-0.080	-0.994	0.235	1.221	-1.343	3.723	-77.81	9.04	-17.08	-51.352	-24.500	85.554	0.77444	-0.61337	0.14117	-0.06299	30.7	13111	100
2025-3-27 18:50:10.639	WT901BLE68-01(48591DE3C19B)	-0.076	-0.994	0.235	1.221	-1.343	3.723	-77.79	9.05	-17.14	-51.352	-24.500	85.554	0.77444	-0.61337	0.14117	-0.06299	30.7	13111	100
2025-3-27 18:50:10.639	WT901BLE68-01(48591DE3C19B)	-0.076	-1.004	0.234	1.892	-1.221	1.587	-77.78	9.05	-17.22	-52.332	-24.010	85.358	0.77444	-0.61337	0.14117	-0.06299	30.7	13111	100
2025-3-27 18:50:10.640	WT901BLE68-01(48591DE3C19B)	-0.069	-1.004	0.234	1.892	-1.221	1.587	-77.76	9.04	-17.29	-52.332	-24.010	85.358	0.77444	-0.61337	0.14117	-0.06299	30.7	13111	100
2025-3-27 18:50:10.640	WT901BLE68-01(48591DE3C19B)	-0.069	-1.009	0.234	3.174	-0.732	0.061	-77.73	9.03	-17.36	-52.332	-24.010	85.358	0.77444	-0.61337	0.14117	-0.06299	30.7	13111	100
2025-3-27 18:50:10.640	WT901BLE68-01(48591DE3C19B)	-0.052	-1.009	0.234	3.174	-0.732	0.061	-77.70	9.00	-17.44	-52.332	-24.010	85.358	0.77444	-0.61337	0.14117	-0.06299	30.7	13111	100
2025-3-27 18:50:10.640	WT901BLE68-01(48591DE3C19B)	-0.052	-1.011	0.232	4.517	0.488	-1.404	-77.65	8.96	-17.53	-52.332	-24.010	85.358	0.77444	-0.61337	0.14117	-0.06299	30.7	13111	100
2025-3-27 18:50:10.699	WT901BLE68-01(48591DE3C19B)	-0.030	-1.011	0.232	4.517	0.488	-1.404	-77.61	8.93	-17.63	-52.332	-24.010	85.358	0.77444	-0.61337	0.14117	-0.06299	30.7	13111	100
2025-3-27 18:50:10.699	WT901BLE68-01(48591DE3C19B)	-0.030	-0.999	0.233	5.737	2.380	-2.869	-77.56	8.88	-17.73	-52.332	-24.010	85.358	0.77444	-0.61337	0.14117	-0.06299	30.7	13111	100
2025-3-27 18:50:10.699	WT901BLE68-01(48591DE3C19B)	-0.021	-0.999	0.233	5.737	2.380	-2.869	-77.51	8.83	-17.85	-52.332	-24.010	85.358	0.77444	-0.61337	0.14117	-0.06299	30.7	13111	100
2025-3-27 18:50:10.699	WT901BLE68-01(48591DE3C19B)	-0.021	-0.979	0.240	6.287	4.395	-4.578	-77.46	8.77	-17.98	-52.332	-24.010	85.358	0.77444	-0.61337	0.14117	-0.06299	30.7	13111	100
2025-3-27 18:50:10.728	WT901BLE68-01(48591DE3C19B)	-0.011	-0.979	0.240	6.287	4.395	-4.578	-77.40	8.71	-18.12	-52.332	-24.010	85.358	0.77444	-0.61337	0.14117	-0.06299	30.7	13111	100
2025-3-27 18:50:10.728	WT901BLE68-01(48591DE3C19B)	-0.011	-0.988	0.238	5.859	5.066	-6.653	-77.35	8.63	-18.26	-52.332	-24.010	85.358	0.77444	-0.61337	0.14117	-0.06299	30.7	13111	100
2025-3-27 18:50:10.728	WT901BLE68-01(48591DE3C19B)	-0.008	-0.988	0.238	5.859	5.066	-6.653	-77.31	8.54	-18.42	-52.332	-24.010	85.358	0.77444	-0.61337	0.14117	-0.06299	30.7	13111	100
2025-3-27 18:50:10.728	WT901BLE68-01(48591DE3C19B)	-0.008	-1.005	0.231	6.104	4.517	-8.484	-77.26	8.44	-18.57	-52.332	-24.010	85.358	0.77444	-0.61337	0.14117	-0.06299	30.7	13111	100
2025-3-27 18:50:10.758	WT901BLE68-01(48591DE3C19B)	-0.004	-1.005	0.231	6.104	4.517	-8.484	-77.21	8.34	-18.72	-52.332	-24.010	85.358	0.77444	-0.61337	0.14117	-0.06299	30.7	13111	100
2025-3-27 18:50:10.759	WT901BLE68-01(48591DE3C19B)	-0.004	-1.013	0.229	5.920	2.258	-10.498	-77.16	8.22	-18.86	-52.332	-24.010	85.358	0.77444	-0.61337	0.14117	-0.06299	30.7	13111	100
2025-3-27 18:50:10.759	WT901BLE68-01(48591DE3C19B)	-0.004	-1.013	0.229	5.920	2.258	-10.498	-77.11	8.09	-18.99	-52.332	-24.010	85.358	0.77444	-0.61337	0.14117	-0.06299	30.7	13111	100
2025-3-27 18:50:10.759	WT901BLE68-01(48591DE3C19B)	-0.004	-1.025	0.238	5.554	-1.709	-13.184	-77.06	7.93	-19.11	-52.332	-24.010	85.358	0.77444	-0.61337	0.14117	-0.06299	30.7	13111	100
2025-3-27 18:50:10.818	WT901BLE68-01(48591DE3C19B)	0.002	-1.025	0.238	5.554	-1.709	-13.184	-77.01	7.77	-19.20	-52.332	-24.010	85.358	0.77444	-0.61337	0.14117	-0.06299	30.7	13111	100
2025-3-27 18:50:10.819	WT901BLE68-01(48591DE3C19B)	0.002	-1.015	0.250	5.737	-5.798	-16.113	-76.96	7.58	-19.29	-52.332	-24.010	85.358	0.77444	-0.61337	0.14117	-0.06299	30.7	13111	100
2025-3-27 18:50:10.819	WT901BLE68-01(48591DE3C19B)	0.012	-1.015	0.250	5.737	-5.798	-16.113	-76.90	7.37	-19.35	-52.332	-24.010	85.358	0.77444	-0.61337	0.14117	-0.06299	30.7	13111	100
2025-3-27 18:50:10.819	WT901BLE68-01(48591DE3C19B)	0.012	-0.985	0.262	5.798	-5.432	-19.104	-76.84	7.14	-19.43	-52.332	-24.010	85.358	0.77444	-0.61337	0.14117	-0.06299	30.7	13111	100
2025-3-27 18:50:10.848	WT901BLE68-01(48591DE3C19B)	0.021	-0.985	0.262	5.798	-5.432	-19.104	-76.79	6.90	-19.51	-52.332	-24.010	85.358	0.77731	-0.60297	0.15155	-0.09561	30.7	13111	100
2025-3-27 18:50:10.848	WT901BLE68-01(48591DE3C19B)	0.021	-0.949	0.275	5.798	-2.380	-22.034	-76.73	6.65	-19.62	-52.332	-24.010	85.358	0.77731	-0.60297	0.15155	-0.09561	30.7	13111	100
2025-3-27 18:50:10.848	WT901BLE68-01(48591DE3C19B)	0.021	-0.949	0.275	5.798	-2.380	-22.034	-76.68	6.39	-19.73	-52.332	-24.010	85.358	0.77731	-0.60297	0.15155	-0.09561	30.7	13111	100
2025-3-27 18:50:10.848	WT901BLE68-01(48591DE3C19B)	0.021	-0.898	0.295	5.310	0.854	-23.743	-76.64	6.13	-19.88	-52.332	-24.010	85.358	0.77731	-0.60297	0.15155	-0.09561	30.7	13111	100
2025-3-27 18:50:10.908	WT901BLE68-01(48591DE3C19B)	-0.005	-0.898	0.295	5.310	0.854	-23.743	-76.59	5.87	-20.03	-52.332	-24.010	85.358	0.77731	-0.60297	0.15155	-0.09561	30.7	13111	100
2025-3-27 18:50:10.908	WT901BLE68-01(48591DE3C19B)	-0.005	-0.864	0.323	3.601	2.747	-25.513	-76.55	5.60	-20.20	-52.332	-24.010	85.358	0.77731	-0.60297	0.15155	-0.09561	30.7	13111	100
2025-3-27 18:50:10.908	WT901BLE68-01(48591DE3C19B)	-0.062	-0.864	0.323	3.601	2.747	-25.513	-76.51	5.32	-20.37	-52.332	-24.010	85.358	0.77731	-0.60297	0.15155	-0.09561	30.7	13111	100
2025-3-27 18:50:10.908	WT901BLE68-01(48591DE3C19B)	-0.062	-0.888	0.346	2.319	0.854	-27.588	-76.49	5.03	-20.52	-52.332	-24.010	85.358	0.77731	-0.60297	0.15155	-0.09561	30.7	13111	100
2025-3-27 18:50:10.938	WT901BLE68-01(48591DE3C19B)	-0.111	-0.888	0.346	2.319	0.854	-27.588	-76.45	4.74	-20.68	-52.332	-24.010	85.358	0.77731	-0.60297	0.15155	-0.09561	30.7	13111	100
2025-3-27 18:50:10.939	WT901BLE68-01(48591DE3C19B)	-0.111	-0.942	0.352	3.784	-4.272	-29.663	-76.40	4.42	-20.79	-52.332	-24.010	85.358	0.77731	-0.60297	0.15155	-0.09561	30.7	13111	100
2025-3-27 18:50:10.939	WT901BLE68-01(48591DE3C19B)	-0.152	-0.942	0.352	3.784	-4.272	-29.663	-76.34	4.10	-20.90	-52.332	-24.010	85.358	0.77731	-0.60297	0.15155	-0.09561	30.7	13111	100
2025-3-27 18:50:10.939	WT901BLE68-01(48591DE3C19B)	-0.152	-0.989	0.347	6.958	-8.484	-31.067	-76.25	3.77	-20.96	-52.332	-24.010	85.358	0.77731	-0.60297	0.15155	-0.09561	30.7	13111	100
2025-3-27 18:50:10.968	WT901BLE68-01(48591DE3C19B)	-0.212	-0.989	0.347	6.958	-8.484	-31.067	-76.16	3.44	-21.03	-52.332	-24.010	85.358	0.77731	-0.60297	0.15155	-0.09561	30.7	13111	100
2025-3-27 18:50:10.968	WT901BLE68-01(48591DE3C19B)	-0.212	-1.000	0.338	10.681	-11.230	-31.677	-76.03	3.10	-21.07	-52.332	-24.010	85.358	0.77731	-0.60297	0.15155	-0.09561	30.7	13111	100
2025-3-27 18:50:10.968	WT901BLE68-01(48591DE3C19B)	-0.256	-1.000	0.338	10.681	-11.230	-31.677	-75.89	2.78	-21.11	-52.332	-24.010	85.358	0.77731	-0.60297	0.15155	-0.09561	30.7	13111	100
2025-3-27 18:50:10.968	WT901BLE68-01(48591DE3C19B)	-0.256	-0.970	0.339	12.390	-13.245	-31.860	-75.74	2.46	-21.13	-52.332	-24.010	85.358	0.77731	-0.60297	0.15155	-0.09561	30.7	13111	100
2025-3-27 18:50:11.29	WT901BLE68-01(48591DE3C19B)	-0.258	-0.970	0.339	12.390	-13.245	-31.860	-75.59	2.14	-21.14	-52.332	-24.010	85.358	0.77731	-0.60297	0.15155	-0.09561	30.7	13111	100
2025-3-27 18:50:11.29	WT901BLE68-01(48591DE3C19B)	-0.258	-0.926	0.354	12.817	-10.986	-30.640	-75.44	1.84	-21.18	-52.332	-24.010	85.358	0.77731	-0.60297	0.15155	-0.09561	30.7	13111	100
2025-3-27 18:50:11.29	WT901BLE68-01(48591DE3C19B)	-0.271	-0.926	0.354	12.817	-10.986	-30.640	-75.28	1.55	-21.21	-52.332	-24.010	85.358	0.77731	-0.60297	0.15155	-0.09561	30.7	13111	100
2025-3-27 18:50:11.29	WT901BLE68-01(48591DE3C19B)	-0.271	-0.873	0.378	13.245	-6.775	-25.940	-75.12	1.32	-21.27	-52.332	-24.010	85.358	0.77731	-0.60297	0.15155	-0.09561	30.7	13111	100
2025-3-27 18:50:11.58	WT901BLE68-01(48591DE3C19B)	-0.278	-0.873	0.378	13.245	-6.775	-25.940	-74.95	1.10	-21.32	-51.744	-21.462	85.554	0.77731	-0.60297	0.15155	-0.09561	30.7	13111	100
2025-3-27 18:50:11.59	WT901BLE68-01(48591DE3C19B)	-0.278	-0.806	0.364	12.695	0.671	-21.484	-74.80	0.95	-21.45	-51.744	-21.462	85.554	0.77731	-0.60297	0.15155	-0.09561	30.7	13111	100
2025-3-27 18:50:11.59	WT901BLE68-01(48591DE3C19B)	-0.275	-0.806	0.364	12.695	0.671	-21.484	-74.64	0.80	-21.56	-51.744	-21.462	85.554	0.77731	-0.60297	0.15155	-0.09561	30.7	13111	100
2025-3-27 18:50:11.59	WT901BLE68-01(48591DE3C19B)	-0.138	-0.761	0.326	11.230	7.385	-15.869	-74.49	0.73	-21.72	-51.744	-21.462	85.554	0.77731	-0.60297	0.15155	-0.09561	30.7	13111	100
2025-3-27 18:50:11.87	WT901BLE68-01(48591DE3C19B)	-0.296	-0.380	0.163	11.230	7.385	-15.869	-74.35	0.66	-21.88	-51.744	-21.462	85.554	0.77731	-0.60297	0.15155	-0.09561	30.7	13111	100
2025-3-27 18:50:11.88	WT901BLE68-01(48591DE3C19B)	-0.296	-0.741	0.302	10.681	14.893	-9.827	-74.21	0.68	-22.10	-51.744	-21.462	85.554	0.77731	-0.60297	0.15155	-0.09561	30.7	13111	100
2025-3-27 18:50:11.88	WT901BLE68-01(48591DE3C19B)	-0.358	-0.741	0.302	10.681	14.893	-9.827	-74.07	0.69	-22.31	-51.744	-21.462	85.554	0.77731	-0.60297	0.15155	-0.09561	30.7	13111	100
2025-3-27 18:50:11.88	WT901BLE68-01(48591DE3C19B)	-0.358	-0.746	0.288	9.766	19.470	-4.517	-73.94	0.78	-22.54	-51.744	-21.462	85.554	0.77731	-0.60297	0.15155	-0.09561	30.7	13111	100
2025-3-27 18:50:11.148	WT901BLE68-01(48591DE3C19B)	-0.434	-0.746	0.288	9.766	19.470	-4.517	-73.81	0.87	-22.78	-51.744	-21.462	85.554	0.77731	-0.60297	0.15155	-0.09561	30.7	13111	100
2025-3-27 18:50:11.149	WT901BLE68-01(48591DE3C19B)	-0.434	-0.798	0.299	7.629	13.672	1.221	-73.71	1.02	-22.93	-51.744	-21.462	85.554	0.77731	-0.60297	0.15155	-0.09561	30.7	13111	100
2025-3-27 18:50:11.149	WT901BLE68-01(48591DE3C19B)	-0.511	-0.798	0.299	7.629	13.672	1.221	-73.60	1.16	-23.08	-51.744	-21.462	85.554	0.77731	-0.60297	0.15155	-0.09561	30.7	13111	100
2025-3-27 18:50:11.149	WT901BLE68-01(48591DE3C19B)	-0.511	-0.885	0.317	6.775	1.709	5.798	-73.51	1.32	-23.10	-51.744	-21.462	85.554	0.77731	-0.60297	0.15155	-0.09561	30.7	13111	100
2025-3-27 18:50:11.178	WT901BLE68-01(48591DE3C19B)	-0.553	-0.885	0.317	6.775	1.709	5.798	-73.42	1.49	-23.12	-51.744	-21.462	85.554	0.77731	-0.60297	0.15155	-0.09561	30.7	13111	100
2025-3-27 18:50:11.178	WT901BLE68-01(48591DE3C19B)	-0.553	-0.954	0.321	6.226	-9.949	9.583	-73.33	1.67	-23.01	-51.744	-21.462	85.554	0.77731	-0.60297	0.15155	-0.09561	30.7	13111	100
2025-3-27 18:50:11.178	WT901BLE68-01(48591DE3C19B)	-0.570	-0.954	0.321	6.226	-9.949	9.583	-73.24	1.85	-22.88	-51.744	-21.462	85.554	0.77731	-0.60297	0.15155	-0.09561	30.7	13111	100
2025-3-27 18:50:11.178	WT901BLE68-01(48591DE3C19B)	-0.570	-1.019	0.316	3.784	-15.686	14.587	-73.17	2.07	-22.70	-51.744	-21.462	85.554	0.77731	-0.60297	0.15155	-0.09561	30.7	13111	100
2025-3-27 18:50:11.208	WT901BLE68-01(48591DE3C19B)	-0.570	-1.019	0.316	3.784	-15.686	14.587	-73.11	2.29	-22.51	-51.744	-21.462	85.554	0.77731	-0.60297	0.15155	-0.09561	30.7	13111	100
2025-3-27 18:50:11.208	WT901BLE68-01(48591DE3C19B)	-0.570	-1.098	0.312	0.977	-14.038	20.691	-73.08	2.57	-22.32	-51.744	-21.462	85.554	0.77731	-0.60297	0.15155	-0.09561	30.7	13111	100
2025-3-27 18:50:11.208	WT901BLE68-01(48591DE3C19B)	-0.578	-1.098	0.312	0.977	-14.038	20.691	-73.05	2.85	-22.12	-51.744	-21.462	85.554	0.77731	-0.60297	0.15155	-0.09561	30.7	13111	100
2025-3-27 18:50:11.208	WT901BLE68-01(48591DE3C19B)	-0.578	-1.148	0.314	-1.282	-7.568	28.687	-73.05	3.23	-21.97	-51.744	-21.462	85.554	0.77731	-0.60297	0.15155	-0.09561	30.7	13111	100
2025-3-27 18:50:11.268	WT901BLE68-01(48591DE3C19B)	-0.569	-1.148	0.314	-1.282	-7.568	28.687	-73.04	3.60	-21.81	-51.744	-21.462	85.554	0.77731	-0.60297	0.15155	-0.09561	30.7	13111	100
2025-3-27 18:50:11.269	WT901BLE68-01(48591DE3C19B)	-0.569	-1.171	0.309	-3.723	2.197	39.001	-73.07	4.11	-21.73	-51.744	-21.462	85.554	0.79272	-0.57861	0.14191	-0.12872	30.7	13111	100
2025-3-27 18:50:11.269	WT901BLE68-01(48591DE3C19B)	-0.552	-1.171	0.309	-3.723	2.197	39.001	-73.10	4.61	-21.64	-51.744	-21.462	85.554	0.79272	-0.57861	0.14191	-0.12872	30.7	13111	100
2025-3-27 18:50:11.269	WT901BLE68-01(48591DE3C19B)	-0.562	-1.171	0.294	-7.813	13.611	51.086	-73.17	5.25	-21.62	-51.744	-21.462	85.554	0.79272	-0.57861	0.14191	-0.12872	30.7	13111	100
2025-3-27 18:50:11.297	WT901BLE68-01(48591DE3C19B)	-0.562	-1.211	0.292	-14.709	21.362	61.890	-73.28	5.95	-21.63	-51.744	-21.462	85.554	0.79272	-0.57861	0.14191	-0.12872	30.7	13111	100
2025-3-27 18:50:11.297	WT901BLE68-01(48591DE3C19B)	-0.599	-1.211	0.292	-14.709	21.362	61.890	-73.43	6.72	-21.67	-51.744	-21.462	85.554	0.79272	-0.57861	0.14191	-0.12872	30.7	13111	100
2025-3-27 18:50:11.297	WT901BLE68-01(48591DE3C19B)	-0.599	-1.325	0.296	-22.217	20.081	70.435	-73.62	7.51	-21.68	-51.744	-21.462	85.554	0.79272	-0.57861	0.14191	-0.12872	30.7	13111	100
2025-3-27 18:50:11.297	WT901BLE68-01(48591DE3C19B)	-0.655	-1.325	0.296	-22.217	20.081	70.435	-73.84	8.34	-21.69	-51.744	-21.462	85.554	0.79272	-0.57861	0.14191	-0.12872	30.7	13111	100
2025-3-27 18:50:11.328	WT901BLE68-01(48591DE3C19B)	-0.655	-1.516	0.316	-26.611	10.681	76.904	-74.09	9.18	-21.64	-51.744	-21.462	85.554	0.79272	-0.57861	0.14191	-0.12872	30.7	13111	100
2025-3-27 18:50:11.329	WT901BLE68-01(48591DE3C19B)	-0.665	-1.516	0.316	-26.611	10.681	76.904	-74.33	10.04	-21.54	-51.744	-21.462	85.554	0.79272	-0.57861	0.14191	-0.12872	30.7	13111	100
2025-3-27 18:50:11.329	WT901BLE68-01(48591DE3C19B)	-0.665	-1.616	0.284	-21.362	2.686	83.679	-74.55	10.91	-21.41	-51.744	-21.462	85.554	0.79272	-0.57861	0.14191	-0.12872	30.7	13111	100
2025-3-27 18:50:11.329	WT901BLE68-01(48591DE3C19B)	-0.583	-1.616	0.284	-21.362	2.686	83.679	-74.73	11.80	-21.23	-51.744	-21.462	85.554	0.79272	-0.57861	0.14191	-0.12872	30.7	13111	100
2025-3-27 18:50:11.390	WT901BLE68-01(48591DE3C19B)	-0.583	-1.457	0.191	-16.602	-3.662	94.604	-74.88	12.73	-21.00	-51.744	-21.462	85.554	0.79272	-0.57861	0.14191	-0.12872	30.7	13111	100
2025-3-27 18:50:11.390	WT901BLE68-01(48591DE3C19B)	-0.497	-1.457	0.191	-16.602	-3.662	94.604	-74.99	13.69	-20.74	-51.744	-21.462	85.554	0.79272	-0.57861	0.14191	-0.12872	30.7	13111	100
2025-3-27 18:50:11.390	WT901BLE68-01(48591DE3C19B)	-0.497	-1.203	0.109	-20.508	-8.911	111.816	-75.11	14.73	-20.42	-51.744	-21.462	85.554	0.79272	-0.57861	0.14191	-0.12872	30.7	13111	100
2025-3-27 18:50:11.390	WT901BLE68-01(48591DE3C19B)	-0.434	-1.203	0.109	-20.508	-8.911	111.816	-75.23	15.83	-20.07	-51.744	-21.462	85.554	0.79272	-0.57861	0.14191	-0.12872	30.7	13111	100
2025-3-27 18:50:11.420	WT901BLE68-01(48591DE3C19B)	-0.434	-0.990	0.074	-28.503	-19.287	133.911	-75.36	17.02	-19.64	-51.744	-21.462	85.554	0.79272	-0.57861	0.14191	-0.12872	30.7	13111	100
2025-3-27 18:50:11.420	WT901BLE68-01(48591DE3C19B)	-0.377	-0.990	0.074	-28.503	-19.287	133.911	-75.50	18.30	-19.12	-51.744	-21.462	85.554	0.79272	-0.57861	0.14191	-0.12872	30.7	13111	100
2025-3-27 18:50:11.420	WT901BLE68-01(48591DE3C19B)	-0.377	-0.874	0.055	-38.330	-37.537	152.222	-75.65	19.64	-18.50	-51.744	-21.462	85.554	0.79272	-0.57861	0.14191	-0.12872	30.7	13111	100
2025-3-27 18:50:11.420	WT901BLE68-01(48591DE3C19B)	-0.306	-0.874	0.055	-38.330	-37.537	152.222	-75.78	21.04	-17.75	-54.194	-23.520	78.988	0.79272	-0.57861	0.14191	-0.12872	30.7	13111	100
2025-3-27 18:50:11.450	WT901BLE68-01(48591DE3C19B)	-0.306	-0.924	0.053	-44.861	-56.458	165.955	-75.89	22.48	-16.90	-54.194	-23.520	78.988	0.79272	-0.57861	0.14191	-0.12872	30.7	13111	100
2025-3-27 18:50:11.450	WT901BLE68-01(48591DE3C19B)	-0.261	-0.924	0.053	-44.861	-56.458	165.955	-75.96	23.94	-15.92	-54.194	-23.520	78.988	0.79272	-0.57861	0.14191	-0.12872	30.7	13111	100
2025-3-27 18:50:11.450	WT901BLE68-01(48591DE3C19B)	-0.261	-1.002	0.036	-42.419	-69.824	173.706	-75.96	25.43	-14.86	-54.194	-23.520	78.988	0.79272	-0.57861	0.14191	-0.12872	30.7	13111	100
2025-3-27 18:50:11.450	WT901BLE68-01(48591DE3C19B)	-0.241	-1.002	0.036	-42.419	-69.824	173.706	-75.89	26.92	-13.71	-54.194	-23.520	78.988	0.79272	-0.57861	0.14191	-0.12872	30.7	13111	100
2025-3-27 18:50:11.508	WT901BLE68-01(48591DE3C19B)	-0.241	-0.987	0.047	-36.316	-77.332	175.476	-75.73	28.39	-12.51	-54.194	-23.520	78.988	0.79272	-0.57861	0.14191	-0.12872	30.7	13111	100
2025-3-27 18:50:11.508	WT901BLE68-01(48591DE3C19B)	-0.210	-0.987	0.047	-36.316	-77.332	175.476	-75.49	29.85	-11.25	-54.194	-23.520	78.988	0.79272	-0.57861	0.14191	-0.12872	30.7	13111	100
2025-3-27 18:50:11.508	WT901BLE68-01(48591DE3C19B)	-0.210	-0.975	0.063	-32.349	-74.036	171.570	-75.21	31.28	-10.00	-54.194	-23.520	78.988	0.79272	-0.57861	0.14191	-0.12872	30.7	13111	100
2025-3-27 18:50:11.508	WT901BLE68-01(48591DE3C19B)	-0.186	-0.975	0.063	-32.349	-74.036	171.570	-74.88	32.68	-8.75	-54.194	-23.520	78.988	0.79272	-0.57861	0.14191	-0.12872	30.7	13111	100
2025-3-27 18:50:11.539	WT901BLE68-01(48591DE3C19B)	-0.186	-1.015	0.066	-27.466	-59.021	164.124	-74.54	34.04	-7.59	-54.194	-23.520	78.988	0.79272	-0.57861	0.14191	-0.12872	30.7	13111	100
2025-3-27 18:50:11.539	WT901BLE68-01(48591DE3C19B)	-0.171	-1.015	0.066	-27.466	-59.021	164.124	-74.20	35.37	-6.50	-54.194	-23.520	78.988	0.79272	-0.57861	0.14191	-0.12872	30.7	13111	100
2025-3-27 18:50:11.539	WT901BLE68-01(48591DE3C19B)	-0.171	-0.983	0.044	-19.226	-41.443	155.090	-73.86	36.66	-5.52	-54.194	-23.520	78.988	0.79272	-0.57861	0.14191	-0.12872	30.7	13111	100
2025-3-27 18:50:11.539	WT901BLE68-01(48591DE3C19B)	-0.149	-0.983	0.044	-19.226	-41.443	155.090	-73.53	37.92	-4.64	-54.194	-23.520	78.988	0.79272	-0.57861	0.14191	-0.12872	30.7	13111	100
2025-3-27 18:50:11.568	WT901BLE68-01(48591DE3C19B)	-0.149	-0.926	0.023	-17.395	-26.855	144.836	-73.22	39.14	-3.85	-54.194	-23.520	78.988	0.79272	-0.57861	0.14191	-0.12872	30.7	13111	100
2025-3-27 18:50:11.568	WT901BLE68-01(48591DE3C19B)	-0.137	-0.926	0.023	-17.395	-26.855	144.836	-72.95	40.32	-3.15	-54.194	-23.520	78.988	0.79272	-0.57861	0.14191	-0.12872	30.7	13111	100
2025-3-27 18:50:11.568	WT901BLE68-01(48591DE3C19B)	-0.137	-0.950	0.008	-18.188	-18.311	132.202	-72.72	41.43	-2.52	-54.194	-23.520	78.988	0.79272	-0.57861	0.14191	-0.12872	30.7	13111	100
2025-3-27 18:50:11.568	WT901BLE68-01(48591DE3C19B)	-0.141	-0.950	0.008	-18.188	-18.311	132.202	-72.54	42.50	-1.97	-54.194	-23.520	78.988	0.79272	-0.57861	0.14191	-0.12872	30.7	13111	100
2025-3-27 18:50:11.659	WT901BLE68-01(48591DE3C19B)	-0.141	-1.024	0.002	-20.813	-16.113	118.530	-72.38	43.49	-1.44	-54.194	-23.520	78.988	0.79272	-0.57861	0.14191	-0.12872	30.7	13111	100
2025-3-27 18:50:11.659	WT901BLE68-01(48591DE3C19B)	-0.140	-1.024	0.002	-20.813	-16.113	118.530	-72.25	44.41	-0.96	-54.194	-23.520	78.988	0.79272	-0.57861	0.14191	-0.12872	30.7	13111	100
2025-3-27 18:50:11.659	WT901BLE68-01(48591DE3C19B)	-0.140	-1.136	0.010	-24.841	-19.531	105.042	-72.15	45.25	-0.48	-54.194	-23.520	78.988	0.79272	-0.57861	0.14191	-0.12872	30.7	13111	100
2025-3-27 18:50:11.659	WT901BLE68-01(48591DE3C19B)	-0.109	-1.136	0.010	-24.841	-19.531	105.042	-72.05	46.02	0.00	-54.194	-23.520	78.988	0.79272	-0.57861	0.14191	-0.12872	30.7	13111	100
2025-3-27 18:50:11.660	WT901BLE68-01(48591DE3C19B)	-0.109	-1.329	0.019	-29.236	-24.048	88.684	-71.98	46.69	0.47	-54.194	-23.520	78.988	0.74185	-0.54086	0.31839	0.23593	30.7	13111	100
2025-3-27 18:50:11.660	WT901BLE68-01(48591DE3C19B)	-0.043	-1.329	0.019	-29.236	-24.048	88.684	-71.93	47.27	0.94	-54.194	-23.520	78.988	0.74185	-0.54086	0.31839	0.23593	30.7	13111	100
2025-3-27 18:50:11.660	WT901BLE68-01(48591DE3C19B)	-0.043	-1.487	0.035	-29.907	-30.762	65.125	-71.89	47.73	1.40	-54.194	-23.520	78.988	0.74185	-0.54086	0.31839	0.23593	30.7	13111	100
2025-3-27 18:50:11.660	WT901BLE68-01(48591DE3C19B)	0.056	-1.487	0.035	-29.907	-30.762	65.125	-71.86	48.05	1.85	-54.194	-23.520	78.988	0.74185	-0.54086	0.31839	0.23593	30.7	13111	100
2025-3-27 18:50:11.690	WT901BLE68-01(48591DE3C19B)	0.056	-1.526	0.041	-27.466	-38.879	31.921	-71.83	48.20	2.26	-54.194	-23.520	78.988	0.74185	-0.54086	0.31839	0.23593	30.7	13111	100
2025-3-27 18:50:11.690	WT901BLE68-01(48591DE3C19B)	0.167	-1.526	0.041	-27.466	-38.879	31.921	-71.81	48.18	2.66	-54.194	-23.520	78.988	0.74185	-0.54086	0.31839	0.23593	30.7	13111	100
2025-3-27 18:50:11.690	WT901BLE68-01(48591DE3C19B)	0.167	-1.451	0.079	-23.865	-41.443	-8.850	-71.83	47.95	2.97	-54.194	-23.520	78.988	0.74185	-0.54086	0.31839	0.23593	30.7	13111	100
2025-3-27 18:50:11.691	WT901BLE68-01(48591DE3C19B)	0.227	-1.451	0.079	-23.865	-41.443	-8.850	-71.90	47.52	3.19	-54.194	-23.520	78.988	0.74185	-0.54086	0.31839	0.23593	30.7	13111	100
2025-3-27 18:50:11.749	WT901BLE68-01(48591DE3C19B)	0.227	-1.355	0.161	-20.996	-21.851	-51.147	-72.14	46.92	3.17	-54.194	-23.520	78.988	0.74185	-0.54086	0.31839	0.23593	30.7	13111	100
2025-3-27 18:50:11.749	WT901BLE68-01(48591DE3C19B)	0.183	-1.355	0.161	-20.996	-21.851	-51.147	-72.52	46.14	2.92	-54.194	-23.520	78.988	0.74185	-0.54086	0.31839	0.23593	30.7	13111	100
2025-3-27 18:50:11.749	WT901BLE68-01(48591DE3C19B)	0.183	-1.317	0.224	-22.217	7.813	-93.262	-73.10	45.20	2.39	-54.194	-23.520	78.988	0.74185	-0.54086	0.31839	0.23593	30.7	13111	100
2025-3-27 18:50:11.749	WT901BLE68-01(48591DE3C19B)	0.064	-1.317	0.224	-22.217	7.813	-93.262	-73.87	44.10	1.60	-54.194	-23.520	78.988	0.74185	-0.54086	0.31839	0.23593	30.7	13111	100
2025-3-27 18:50:11.778	WT901BLE68-01(48591DE3C19B)	0.064	-1.337	0.267	-17.273	33.508	-134.338	-74.87	42.68	0.37	-54.194	-23.520	78.988	0.74185	-0.54086	0.31839	0.23593	30.7	13111	100
2025-3-27 18:50:11.778	WT901BLE68-01(48591DE3C19B)	-0.038	-1.337	0.267	-17.273	33.508	-134.338	-75.81	41.24	-0.80	-54.194	-23.520	78.988	0.74185	-0.54086	0.31839	0.23593	30.7	13111	100
2025-3-27 18:50:11.778	WT901BLE68-01(48591DE3C19B)	-0.038	-1.317	0.328	-0.549	44.617	-172.058	-76.67	39.45	-2.16	-54.194	-23.520	78.988	0.74185	-0.54086	0.31839	0.23593	30.7	13111	100
2025-3-27 18:50:11.778	WT901BLE68-01(48591DE3C19B)	-0.093	-1.317	0.328	-0.549	44.617	-172.058	-77.45	37.67	-3.44	-54.194	-23.520	78.988	0.74185	-0.54086	0.31839	0.23593	30.7	13111	100
2025-3-27 18:50:11.810	WT901BLE68-01(48591DE3C19B)	-0.093	-1.295	0.239	20.142	51.819	-206.482	-78.05	35.56	-4.84	-54.194	-23.520	78.988	0.74185	-0.54086	0.31839	0.23593	30.7	13111	100
2025-3-27 18:50:11.810	WT901BLE68-01(48591DE3C19B)	-0.102	-1.295	0.239	20.142	51.819	-206.482	-78.57	33.45	-6.17	-54.194	-23.520	78.988	0.74185	-0.54086	0.31839	0.23593	30.7	13111	100
2025-3-27 18:50:11.810	WT901BLE68-01(48591DE3C19B)	-0.102	-1.245	0.078	36.804	53.040	-229.797	-78.90	31.13	-7.50	-54.194	-23.520	78.988	0.74185	-0.54086	0.31839	0.23593	30.7	13111	100
2025-3-27 18:50:11.810	WT901BLE68-01(48591DE3C19B)	-0.161	-1.245	0.078	36.804	53.040	-229.797	-79.15	28.81	-8.78	-54.194	-23.520	78.988	0.74185	-0.54086	0.31839	0.23593	30.7	13111	100
2025-3-27 18:50:11.869	WT901BLE68-01(48591DE3C19B)	-0.161	-1.150	0.002	46.387	43.762	-242.126	-79.21	26.37	-9.94	-54.194	-23.520	78.988	0.74185	-0.54086	0.31839	0.23593	30.7	13111	100
2025-3-27 18:50:11.869	WT901BLE68-01(48591DE3C19B)	-0.201	-1.150	0.002	46.387	43.762	-242.126	-79.22	23.95	-11.06	-46.354	-30.184	73.108	0.74185	-0.54086	0.31839	0.23593	30.7	13111	100
2025-3-27 18:50:11.869	WT901BLE68-01(48591DE3C19B)	-0.201	-1.108	0.005	44.983	25.513	-254.761	-79.13	21.39	-11.99	-46.354	-30.184	73.108	0.74185	-0.54086	0.31839	0.23593	30.7	13111	100
2025-3-27 18:50:11.869	WT901BLE68-01(48591DE3C19B)	-0.210	-1.108	0.005	44.983	25.513	-254.761	-79.01	18.85	-12.90	-46.354	-30.184	73.108	0.74185	-0.54086	0.31839	0.23593	30.7	13111	100
2025-3-27 18:50:11.897	WT901BLE68-01(48591DE3C19B)	-0.210	-1.148	0.115	38.818	12.329	-261.780	-78.87	16.23	-13.67	-46.354	-30.184	73.108	0.74185	-0.54086	0.31839	0.23593	30.7	13111	100
2025-3-27 18:50:11.898	WT901BLE68-01(48591DE3C19B)	-0.256	-1.148	0.115	38.818	12.329	-261.780	-78.70	13.64	-14.43	-46.354	-30.184	73.108	0.74185	-0.54086	0.31839	0.23593	30.7	13111	100
2025-3-27 18:50:11.898	WT901BLE68-01(48591DE3C19B)	-0.256	-1.253	0.237	29.846	7.507	-265.381	-78.57	11.02	-15.14	-46.354	-30.184	73.108	0.74185	-0.54086	0.31839	0.23593	30.7	13111	100
2025-3-27 18:50:11.898	WT901BLE68-01(48591DE3C19B)	-0.283	-1.253	0.237	29.846	7.507	-265.381	-78.41	8.42	-15.85	-46.354	-30.184	73.108	0.74185	-0.54086	0.31839	0.23593	30.7	13111	100
2025-3-27 18:50:11.928	WT901BLE68-01(48591DE3C19B)	-0.283	-1.363	0.323	23.987	9.033	-266.968	-78.28	5.83	-16.57	-46.354	-30.184	73.108	0.74185	-0.54086	0.31839	0.23593	30.7	13111	100
2025-3-27 18:50:11.928	WT901BLE68-01(48591DE3C19B)	-0.336	-1.363	0.323	23.987	9.033	-266.968	-78.11	3.26	-17.30	-46.354	-30.184	73.108	0.74185	-0.54086	0.31839	0.23593	30.7	13111	100
2025-3-27 18:50:11.929	WT901BLE68-01(48591DE3C19B)	-0.336	-1.372	0.363	19.165	16.052	-264.221	-77.96	0.75	-18.08	-46.354	-30.184	73.108	0.74185	-0.54086	0.31839	0.23593	30.7	13111	100
2025-3-27 18:50:11.929	WT901BLE68-01(48591DE3C19B)	-0.447	-1.372	0.363	19.165	16.052	-264.221	-77.78	-1.74	-18.87	-46.354	-30.184	73.108	0.74185	-0.54086	0.31839	0.23593	30.7	13111	100
2025-3-27 18:50:11.988	WT901BLE68-01(48591DE3C19B)	-0.447	-1.322	0.369	13.672	20.325	-255.127	-77.61	-4.11	-19.68	-46.354	-30.184	73.108	0.74185	-0.54086	0.31839	0.23593	30.7	13111	100
2025-3-27 18:50:11.988	WT901BLE68-01(48591DE3C19B)	-0.555	-1.322	0.369	13.672	20.325	-255.127	-77.41	-6.46	-20.49	-46.354	-30.184	73.108	0.74185	-0.54086	0.31839	0.23593	30.7	13111	100
2025-3-27 18:50:11.988	WT901BLE68-01(48591DE3C19B)	-0.555	-1.235	0.366	11.292	16.541	-237.427	-77.21	-8.62	-21.24	-46.354	-30.184	73.108	0.74185	-0.54086	0.31839	0.23593	30.7	13111	100
2025-3-27 18:50:11.988	WT901BLE68-01(48591DE3C19B)	-0.592	-1.235	0.366	11.292	16.541	-237.427	-76.98	-10.77	-21.98	-46.354	-30.184	73.108	0.74185	-0.54086	0.31839	0.23593	30.7	13111	100
2025-3-27 18:50:12.20	WT901BLE68-01(48591DE3C19B)	-0.592	-1.068	0.373	9.460	5.371	-210.938	-76.77	-12.65	-22.57	-46.354	-30.184	73.108	0.74185	-0.54086	0.31839	0.23593	30.7	13111	100
2025-3-27 18:50:12.20	WT901BLE68-01(48591DE3C19B)	-0.486	-1.068	0.373	9.460	5.371	-210.938	-76.54	-14.52	-23.16	-46.354	-30.184	73.108	0.74185	-0.54086	0.31839	0.23593	30.7	13111	100
2025-3-27 18:50:12.20	WT901BLE68-01(48591DE3C19B)	-0.486	-0.884	0.349	3.967	-3.357	-181.885	-76.38	-16.10	-23.60	-46.354	-30.184	73.108	0.74185	-0.54086	0.31839	0.23593	30.7	13111	100
2025-3-27 18:50:12.20	WT901BLE68-01(48591DE3C19B)	-0.409	-0.884	0.349	3.967	-3.357	-181.885	-76.21	-17.67	-24.04	-46.354	-30.184	73.108	0.74185	-0.54086	0.31839	0.23593	30.7	13111	100
2025-3-27 18:50:12.50	WT901BLE68-01(48591DE3C19B)	-0.409	-0.775	0.327	1.770	-13.184	-149.719	-76.11	-18.94	-24.31	-46.354	-30.184	73.108	0.74185	-0.54086	0.31839	0.23593	30.7	13111	100
2025-3-27 18:50:12.50	WT901BLE68-01(48591DE3C19B)	-0.431	-0.775	0.327	1.770	-13.184	-149.719	-75.99	-20.20	-24.58	-46.354	-30.184	73.108	0.74185	-0.54086	0.31839	0.23593	30.7	13111	100
2025-3-27 18:50:12.51	WT901BLE68-01(48591DE3C19B)	-0.431	-0.717	0.291	1.526	-26.672	-121.338	-75.95	-21.21	-24.64	-46.354	-30.184	73.108	0.73276	-0.62180	-0.01266	-0.27594	30.7	13111	100
2025-3-27 18:50:12.51	WT901BLE68-01(48591DE3C19B)	-0.472	-0.717	0.291	1.526	-26.672	-121.338	-75.90	-22.20	-24.70	-46.354	-30.184	73.108	0.73276	-0.62180	-0.01266	-0.27594	30.7	13111	100
2025-3-27 18:50:12.108	WT901BLE68-01(48591DE3C19B)	-0.472	-0.698	0.266	0.488	-37.170	-97.717	-75.93	-22.98	-24.58	-46.354	-30.184	73.108	0.73276	-0.62180	-0.01266	-0.27594	30.7	13111	100
2025-3-27 18:50:12.108	WT901BLE68-01(48591DE3C19B)	-0.425	-0.698	0.266	0.488	-37.170	-97.717	-75.95	-23.76	-24.46	-46.354	-30.184	73.108	0.73276	-0.62180	-0.01266	-0.27594	30.7	13111	100
2025-3-27 18:50:12.108	WT901BLE68-01(48591DE3C19B)	-0.425	-0.716	0.251	0.916	-28.198	-75.623	-75.96	-24.29	-24.38	-46.354	-30.184	73.108	0.73276	-0.62180	-0.01266	-0.27594	30.7	13111	100
2025-3-27 18:50:12.108	WT901BLE68-01(48591DE3C19B)	-0.445	-0.716	0.251	0.916	-28.198	-75.623	-75.98	-24.81	-24.29	-46.354	-30.184	73.108	0.73276	-0.62180	-0.01266	-0.27594	30.7	13111	100
2025-3-27 18:50:12.139	WT901BLE68-01(48591DE3C19B)	-0.445	-0.727	0.250	4.639	-5.432	-52.002	-75.87	-25.04	-24.38	-46.354	-30.184	73.108	0.73276	-0.62180	-0.01266	-0.27594	30.7	13111	100
2025-3-27 18:50:12.139	WT901BLE68-01(48591DE3C19B)	-0.532	-0.727	0.250	4.639	-5.432	-52.002	-75.77	-25.27	-24.47	-46.354	-30.184	73.108	0.73276	-0.62180	-0.01266	-0.27594	30.7	13111	100
2025-3-27 18:50:12.139	WT901BLE68-01(48591DE3C19B)	-0.532	-0.771	0.260	4.333	9.155	-33.386	-75.62	-25.29	-24.66	-46.354	-30.184	73.108	0.73276	-0.62180	-0.01266	-0.27594	30.7	13111	100
2025-3-27 18:50:12.139	WT901BLE68-01(48591DE3C19B)	-0.600	-0.771	0.260	4.333	9.155	-33.386	-75.49	-25.29	-24.85	-46.354	-30.184	73.108	0.73276	-0.62180	-0.01266	-0.27594	30.7	13111	100
2025-3-27 18:50:12.167	WT901BLE68-01(48591DE3C19B)	-0.600	-0.876	0.293	2.197	10.681	-18.066	-75.38	-25.14	-25.01	-46.354	-30.184	73.108	0.73276	-0.62180	-0.01266	-0.27594	30.7	13111	100
2025-3-27 18:50:12.167	WT901BLE68-01(48591DE3C19B)	-0.675	-0.876	0.293	2.197	10.681	-18.066	-75.27	-24.98	-25.16	-46.354	-30.184	73.108	0.73276	-0.62180	-0.01266	-0.27594	30.7	13111	100
2025-3-27 18:50:12.167	WT901BLE68-01(48591DE3C19B)	-0.675	-1.012	0.339	-2.502	5.798	-3.235	-75.26	-24.69	-25.22	-46.354	-30.184	73.108	0.73276	-0.62180	-0.01266	-0.27594	30.7	13111	100
2025-3-27 18:50:12.167	WT901BLE68-01(48591DE3C19B)	-0.702	-1.012	0.339	-2.502	5.798	-3.235	-75.25	-24.40	-25.28	-46.354	-30.184	73.108	0.73276	-0.62180	-0.01266	-0.27594	30.7	13111	100
2025-3-27 18:50:12.229	WT901BLE68-01(48591DE3C19B)	-0.653	-1.129	0.374	-4.395	0.977	15.076	-75.29	-23.95	-25.24	-46.354	-30.184	73.108	0.73276	-0.62180	-0.01266	-0.27594	30.7	13111	100
2025-3-27 18:50:12.229	WT901BLE68-01(48591DE3C19B)	-0.653	-1.126	0.382	-5.615	0.610	40.527	-75.36	-23.37	-25.15	-46.354	-30.184	73.108	0.73276	-0.62180	-0.01266	-0.27594	30.7	13111	100
2025-3-27 18:50:12.229	WT901BLE68-01(48591DE3C19B)	-0.592	-1.126	0.382	-5.615	0.610	40.527	-75.44	-22.68	-25.03	-46.354	-30.184	73.108	0.73276	-0.62180	-0.01266	-0.27594	30.7	13111	100
2025-3-27 18:50:12.229	WT901BLE68-01(48591DE3C19B)	-0.592	-1.097	0.348	-13.977	3.174	68.176	-75.57	-21.85	-24.89	-46.354	-30.184	73.108	0.73276	-0.62180	-0.01266	-0.27594	30.7	13111	100
2025-3-27 18:50:12.258	WT901BLE68-01(48591DE3C19B)	-0.565	-1.097	0.348	-13.977	3.174	68.176	-75.75	-20.89	-24.73	-53.018	-17.640	77.812	0.73276	-0.62180	-0.01266	-0.27594	30.7	13111	100
2025-3-27 18:50:12.258	WT901BLE68-01(48591DE3C19B)	-0.565	-1.216	0.354	-23.132	-2.014	96.130	-75.99	-19.81	-24.52	-53.018	-17.640	77.812	0.73276	-0.62180	-0.01266	-0.27594	30.7	13111	100
2025-3-27 18:50:12.258	WT901BLE68-01(48591DE3C19B)	-0.595	-1.216	0.354	-23.132	-2.014	96.130	-76.29	-18.61	-24.25	-53.018	-17.640	77.812	0.73276	-0.62180	-0.01266	-0.27594	30.7	13111	100
2025-3-27 18:50:12.258	WT901BLE68-01(48591DE3C19B)	-0.595	-1.318	0.407	-21.851	-17.273	124.390	-76.61	-17.29	-23.88	-53.018	-17.640	77.812	0.73276	-0.62180	-0.01266	-0.27594	30.7	13111	100
2025-3-27 18:50:12.318	WT901BLE68-01(48591DE3C19B)	-0.565	-1.318	0.407	-21.851	-17.273	124.390	-76.93	-15.87	-23.41	-53.018	-17.640	77.812	0.73276	-0.62180	-0.01266	-0.27594	30.7	13111	100
2025-3-27 18:50:12.319	WT901BLE68-01(48591DE3C19B)	-0.565	-1.350	0.396	-18.250	-30.151	153.992	-77.25	-14.33	-22.86	-53.018	-17.640	77.812	0.73276	-0.62180	-0.01266	-0.27594	30.7	13111	100
2025-3-27 18:50:12.319	WT901BLE68-01(48591DE3C19B)	-0.504	-1.350	0.396	-18.250	-30.151	153.992	-77.55	-12.66	-22.23	-53.018	-17.640	77.812	0.73276	-0.62180	-0.01266	-0.27594	30.7	13111	100
2025-3-27 18:50:12.319	WT901BLE68-01(48591DE3C19B)	-0.504	-1.343	0.280	-12.329	-33.997	185.425	-77.82	-10.85	-21.56	-53.018	-17.640	77.812	0.73276	-0.62180	-0.01266	-0.27594	30.7	13111	100
2025-3-27 18:50:12.349	WT901BLE68-01(48591DE3C19B)	-0.454	-1.343	0.280	-12.329	-33.997	185.425	-78.03	-8.90	-20.85	-53.018	-17.640	77.812	0.73276	-0.62180	-0.01266	-0.27594	30.7	13111	100
2025-3-27 18:50:12.349	WT901BLE68-01(48591DE3C19B)	-0.454	-1.382	0.175	-7.690	-35.889	215.698	-78.21	-6.83	-20.12	-53.018	-17.640	77.812	0.73276	-0.62180	-0.01266	-0.27594	30.7	13111	100
2025-3-27 18:50:12.349	WT901BLE68-01(48591DE3C19B)	-0.388	-1.382	0.175	-7.690	-35.889	215.698	-78.34	-4.61	-19.36	-53.018	-17.640	77.812	0.73276	-0.62180	-0.01266	-0.27594	30.7	13111	100
2025-3-27 18:50:12.349	WT901BLE68-01(48591DE3C19B)	-0.388	-1.510	0.146	-3.662	-40.100	242.737	-78.42	-2.30	-18.57	-53.018	-17.640	77.812	0.73276	-0.62180	-0.01266	-0.27594	30.7	13111	100
2025-3-27 18:50:12.377	WT901BLE68-01(48591DE3C19B)	-0.304	-1.510	0.146	-3.662	-40.100	242.737	-78.46	0.13	-17.73	-53.018	-17.640	77.812	0.73276	-0.62180	-0.01266	-0.27594	30.7	13111	100
2025-3-27 18:50:12.378	WT901BLE68-01(48591DE3C19B)	-0.304	-1.629	0.123	2.136	-46.509	266.174	-78.43	2.65	-16.85	-53.018	-17.640	77.812	0.73276	-0.62180	-0.01266	-0.27594	30.7	13111	100
2025-3-27 18:50:12.378	WT901BLE68-01(48591DE3C19B)	-0.215	-1.629	0.123	2.136	-46.509	266.174	-78.34	5.26	-15.91	-53.018	-17.640	77.812	0.73276	-0.62180	-0.01266	-0.27594	30.7	13111	100
2025-3-27 18:50:12.378	WT901BLE68-01(48591DE3C19B)	-0.215	-1.687	0.105	10.986	-49.133	283.936	-78.15	7.93	-14.94	-53.018	-17.640	77.812	0.73276	-0.62180	-0.01266	-0.27594	30.7	13111	100
2025-3-27 18:50:12.439	WT901BLE68-01(48591DE3C19B)	-0.183	-1.687	0.105	10.986	-49.133	283.936	-77.88	10.65	-13.93	-53.018	-17.640	77.812	0.73276	-0.62180	-0.01266	-0.27594	30.7	13111	100
2025-3-27 18:50:12.439	WT901BLE68-01(48591DE3C19B)	-0.183	-1.640	0.132	19.409	-46.448	293.213	-77.51	13.39	-12.91	-53.018	-17.640	77.812	0.73276	-0.62180	-0.01266	-0.27594	30.7	13111	100
2025-3-27 18:50:12.439	WT901BLE68-01(48591DE3C19B)	-0.186	-1.640	0.132	19.409	-46.448	293.213	-77.06	16.15	-11.87	-53.018	-17.640	77.812	0.73276	-0.62180	-0.01266	-0.27594	30.7	13111	100
2025-3-27 18:50:12.439	WT901BLE68-01(48591DE3C19B)	-0.186	-1.615	0.180	21.790	-39.734	295.715	-76.54	18.90	-10.82	-53.018	-17.640	77.812	0.73276	-0.62180	-0.01266	-0.27594	30.7	13111	100
2025-3-27 18:50:12.470	WT901BLE68-01(48591DE3C19B)	-0.197	-1.615	0.180	21.790	-39.734	295.715	-75.96	21.64	-9.78	-53.018	-17.640	77.812	0.78131	-0.58630	0.20532	0.05951	30.7	13111	100
2025-3-27 18:50:12.470	WT901BLE68-01(48591DE3C19B)	-0.197	-1.567	0.204	25.574	-26.611	293.213	-75.33	24.35	-8.76	-53.018	-17.640	77.812	0.78131	-0.58630	0.20532	0.05951	30.7	13111	100
2025-3-27 18:50:12.470	WT901BLE68-01(48591DE3C19B)	-0.215	-1.567	0.204	25.574	-26.611	293.213	-74.65	27.04	-7.76	-53.018	-17.640	77.812	0.78131	-0.58630	0.20532	0.05951	30.7	13111	100
2025-3-27 18:50:12.470	WT901BLE68-01(48591DE3C19B)	-0.215	-1.449	0.180	27.161	-10.559	288.330	-73.94	29.70	-6.81	-53.018	-17.640	77.812	0.78131	-0.58630	0.20532	0.05951	30.7	13111	100
2025-3-27 18:50:12.506	WT901BLE68-01(48591DE3C19B)	-0.196	-1.449	0.180	27.161	-10.559	288.330	-73.20	32.32	-5.89	-53.018	-17.640	77.812	0.78131	-0.58630	0.20532	0.05951	30.7	13111	100
2025-3-27 18:50:12.507	WT901BLE68-01(48591DE3C19B)	-0.196	-1.301	0.136	25.208	4.089	280.823	-72.46	34.90	-5.01	-53.018	-17.640	77.812	0.78131	-0.58630	0.20532	0.05951	30.7	13111	100
2025-3-27 18:50:12.507	WT901BLE68-01(48591DE3C19B)	-0.163	-1.301	0.136	25.208	4.089	280.823	-71.71	37.45	-4.17	-53.018	-17.640	77.812	0.78131	-0.58630	0.20532	0.05951	30.7	13111	100
2025-3-27 18:50:12.507	WT901BLE68-01(48591DE3C19B)	-0.163	-1.186	0.090	18.799	15.564	270.508	-70.99	39.94	-3.35	-53.018	-17.640	77.812	0.78131	-0.58630	0.20532	0.05951	30.7	13111	100
2025-3-27 18:50:12.558	WT901BLE68-01(48591DE3C19B)	-0.133	-1.186	0.090	18.799	15.564	270.508	-70.29	42.38	-2.57	-53.018	-17.640	77.812	0.78131	-0.58630	0.20532	0.05951	30.7	13111	100
2025-3-27 18:50:12.559	WT901BLE68-01(48591DE3C19B)	-0.133	-1.150	0.031	10.376	23.499	257.202	-69.61	44.75	-1.79	-53.018	-17.640	77.812	0.78131	-0.58630	0.20532	0.05951	30.7	13111	100
2025-3-27 18:50:12.559	WT901BLE68-01(48591DE3C19B)	-0.112	-1.150	0.031	10.376	23.499	257.202	-68.98	47.05	-1.04	-53.018	-17.640	77.812	0.78131	-0.58630	0.20532	0.05951	30.7	13111	100
2025-3-27 18:50:12.559	WT901BLE68-01(48591DE3C19B)	-0.112	-1.207	0.006	0.854	24.963	241.760	-68.36	49.26	-0.29	-53.018	-17.640	77.812	0.78131	-0.58630	0.20532	0.05951	30.7	13111	100
2025-3-27 18:50:12.587	WT901BLE68-01(48591DE3C19B)	-0.097	-1.207	0.006	0.854	24.963	241.760	-67.77	51.38	0.47	-53.018	-17.640	77.812	0.78131	-0.58630	0.20532	0.05951	30.7	13111	100
2025-3-27 18:50:12.587	WT901BLE68-01(48591DE3C19B)	-0.097	-1.388	-0.023	-9.216	20.813	221.680	-67.18	53.39	1.27	-53.018	-17.640	77.812	0.78131	-0.58630	0.20532	0.05951	30.7	13111	100
2025-3-27 18:50:12.587	WT901BLE68-01(48591DE3C19B)	0.019	-1.388	-0.023	-9.216	20.813	221.680	-66.62	55.27	2.09	-53.018	-17.640	77.812	0.78131	-0.58630	0.20532	0.05951	30.7	13111	100
2025-3-27 18:50:12.588	WT901BLE68-01(48591DE3C19B)	0.019	-1.674	-0.043	-15.259	16.418	190.552	-66.07	57.00	2.89	-53.018	-17.640	77.812	0.78131	-0.58630	0.20532	0.05951	30.7	13111	100
2025-3-27 18:50:12.620	WT901BLE68-01(48591DE3C19B)	0.179	-1.674	-0.043	-15.259	16.418	190.552	-65.57	58.55	3.67	-53.018	-17.640	77.812	0.78131	-0.58630	0.20532	0.05951	30.7	13111	100
2025-3-27 18:50:12.620	WT901BLE68-01(48591DE3C19B)	0.179	-1.891	-0.067	-9.338	14.343	146.362	-65.14	59.89	4.32	-53.018	-17.640	77.812	0.78131	-0.58630	0.20532	0.05951	30.7	13111	100
2025-3-27 18:50:12.620	WT901BLE68-01(48591DE3C19B)	0.253	-1.891	-0.067	-9.338	14.343	146.362	-64.79	61.01	4.83	-53.018	-17.640	77.812	0.78131	-0.58630	0.20532	0.05951	30.7	13111	100
2025-3-27 18:50:12.620	WT901BLE68-01(48591DE3C19B)	0.253	-1.837	-0.051	-2.991	1.099	96.619	-64.48	61.86	5.26	-53.018	-17.640	77.812	0.78131	-0.58630	0.20532	0.05951	30.7	13111	100
2025-3-27 18:50:12.678	WT901BLE68-01(48591DE3C19B)	0.092	-1.837	-0.051	-2.991	1.099	96.619	-64.23	62.46	5.59	-53.018	-17.640	77.812	0.78131	-0.58630	0.20532	0.05951	30.7	13111	100
2025-3-27 18:50:12.678	WT901BLE68-01(48591DE3C19B)	0.092	-1.650	0.008	-6.958	-9.094	42.480	-64.13	62.78	5.77	-45.570	-31.458	71.540	0.78131	-0.58630	0.20532	0.05951	30.7	13111	100
2025-3-27 18:50:12.678	WT901BLE68-01(48591DE3C19B)	-0.071	-1.650	0.008	-6.958	-9.094	42.480	-64.19	62.83	5.78	-45.570	-31.458	71.540	0.78131	-0.58630	0.20532	0.05951	30.7	13111	100
2025-3-27 18:50:12.679	WT901BLE68-01(48591DE3C19B)	-0.071	-1.425	0.095	-7.568	-0.366	-14.832	-64.88	62.41	5.09	-45.570	-31.458	71.540	0.78131	-0.58630	0.20532	0.05951	30.7	13111	100
2025-3-27 18:50:12.707	WT901BLE68-01(48591DE3C19B)	-0.060	-1.425	0.095	-7.568	-0.366	-14.832	-65.55	61.98	4.42	-45.570	-31.458	71.540	0.78131	-0.58630	0.20532	0.05951	30.7	13111	100
2025-3-27 18:50:12.707	WT901BLE68-01(48591DE3C19B)	-0.060	-1.232	0.211	-8.362	12.939	-63.477	-66.77	61.17	3.12	-45.570	-31.458	71.540	0.78131	-0.58630	0.20532	0.05951	30.7	13111	100
2025-3-27 18:50:12.707	WT901BLE68-01(48591DE3C19B)	0.063	-1.232	0.211	-8.362	12.939	-63.477	-67.92	60.34	1.90	-45.570	-31.458	71.540	0.78131	-0.58630	0.20532	0.05951	30.7	13111	100
2025-3-27 18:50:12.707	WT901BLE68-01(48591DE3C19B)	0.063	-1.173	0.176	-6.897	17.273	-107.727	-69.31	59.11	0.36	-45.570	-31.458	71.540	0.78131	-0.58630	0.20532	0.05951	30.7	13111	100
2025-3-27 18:50:12.739	WT901BLE68-01(48591DE3C19B)	0.150	-1.173	0.176	-6.897	17.273	-107.727	-70.58	57.86	-1.05	-45.570	-31.458	71.540	0.78131	-0.58630	0.20532	0.05951	30.7	13111	100
2025-3-27 18:50:12.739	WT901BLE68-01(48591DE3C19B)	0.150	-1.052	0.115	-0.366	12.512	-138.428	-71.76	56.30	-2.47	-45.570	-31.458	71.540	0.78131	-0.58630	0.20532	0.05951	30.7	13111	100
2025-3-27 18:50:12.739	WT901BLE68-01(48591DE3C19B)	0.128	-1.052	0.115	-0.366	12.512	-138.428	-72.82	54.73	-3.77	-45.570	-31.458	71.540	0.78131	-0.58630	0.20532	0.05951	30.7	13111	100
2025-3-27 18:50:12.739	WT901BLE68-01(48591DE3C19B)	0.128	-0.929	0.105	0.427	6.775	-164.917	-73.80	52.89	-5.00	-45.570	-31.458	71.540	0.78131	-0.58630	0.20532	0.05951	30.7	13111	100
2025-3-27 18:50:12.798	WT901BLE68-01(48591DE3C19B)	0.058	-0.929	0.105	0.427	6.775	-164.917	-74.67	51.04	-6.12	-45.570	-31.458	71.540	0.78131	-0.58630	0.20532	0.05951	30.7	13111	100
2025-3-27 18:50:12.798	WT901BLE68-01(48591DE3C19B)	0.058	-0.970	0.097	-2.014	-0.122	-191.284	-75.47	48.91	-7.16	-45.570	-31.458	71.540	0.78131	-0.58630	0.20532	0.05951	30.7	13111	100
2025-3-27 18:50:12.798	WT901BLE68-01(48591DE3C19B)	-0.022	-0.970	0.097	-2.014	-0.122	-191.284	-76.18	46.79	-8.10	-45.570	-31.458	71.540	0.78131	-0.58630	0.20532	0.05951	30.7	13111	100
2025-3-27 18:50:12.799	WT901BLE68-01(48591DE3C19B)	-0.022	-1.099	0.102	-0.793	-0.122	-217.285	-76.85	44.42	-9.05	-45.570	-31.458	71.540	0.78131	-0.58630	0.20532	0.05951	30.7	13111	100
2025-3-27 18:50:12.828	WT901BLE68-01(48591DE3C19B)	-0.079	-1.099	0.102	-0.793	-0.122	-217.285	-77.45	42.06	-9.92	-45.570	-31.458	71.540	0.78131	-0.58630	0.20532	0.05951	30.7	13111	100
2025-3-27 18:50:12.829	WT901BLE68-01(48591DE3C19B)	-0.079	-1.172	0.103	4.089	3.052	-239.929	-78.00	39.50	-10.82	-45.570	-31.458	71.540	0.78131	-0.58630	0.20532	0.05951	30.7	13111	100
2025-3-27 18:50:12.829	WT901BLE68-01(48591DE3C19B)	-0.169	-1.172	0.103	4.089	3.052	-239.929	-78.47	36.94	-11.66	-45.570	-31.458	71.540	0.78131	-0.58630	0.20532	0.05951	30.7	13111	100
2025-3-27 18:50:12.829	WT901BLE68-01(48591DE3C19B)	-0.169	-1.208	0.096	5.432	1.587	-259.277	-78.88	34.21	-12.46	-45.570	-31.458	71.540	0.78131	-0.58630	0.20532	0.05951	30.7	13111	100
2025-3-27 18:50:12.857	WT901BLE68-01(48591DE3C19B)	-0.216	-1.208	0.096	5.432	1.587	-259.277	-79.23	31.49	-13.21	-45.570	-31.458	71.540	0.78131	-0.58630	0.20532	0.05951	30.7	13111	100
2025-3-27 18:50:12.857	WT901BLE68-01(48591DE3C19B)	-0.216	-1.208	0.119	4.333	-4.333	-278.625	-79.53	28.58	-13.88	-45.570	-31.458	71.540	0.78131	-0.58630	0.20532	0.05951	30.7	13111	100
2025-3-27 18:50:12.858	WT901BLE68-01(48591DE3C19B)	-0.212	-1.208	0.119	4.333	-4.333	-278.625	-79.78	25.70	-14.51	-45.570	-31.458	71.540	0.76044	-0.60205	0.24051	0.03650	30.7	13111	100
2025-3-27 18:50:12.858	WT901BLE68-01(48591DE3C19B)	-0.212	-1.214	0.198	-1.465	2.258	-294.373	-80.09	22.69	-15.21	-45.570	-31.458	71.540	0.76044	-0.60205	0.24051	0.03650	30.7	13111	100
2025-3-27 18:50:12.918	WT901BLE68-01(48591DE3C19B)	-0.235	-1.214	0.198	-1.465	2.258	-294.373	-80.34	19.70	-15.88	-45.570	-31.458	71.540	0.76044	-0.60205	0.24051	0.03650	30.7	13111	100
2025-3-27 18:50:12.918	WT901BLE68-01(48591DE3C19B)	-0.235	-1.255	0.277	-7.141	20.264	-304.871	-80.68	16.65	-16.70	-45.570	-31.458	71.540	0.76044	-0.60205	0.24051	0.03650	30.7	13111	100
2025-3-27 18:50:12.918	WT901BLE68-01(48591DE3C19B)	-0.275	-1.255	0.277	-7.141	20.264	-304.871	-80.96	13.62	-17.50	-45.570	-31.458	71.540	0.76044	-0.60205	0.24051	0.03650	30.7	13111	100
2025-3-27 18:50:12.918	WT901BLE68-01(48591DE3C19B)	-0.275	-1.303	0.323	-9.583	35.461	-312.317	-81.24	10.56	-18.44	-45.570	-31.458	71.540	0.76044	-0.60205	0.24051	0.03650	30.7	13111	100
2025-3-27 18:50:13.10	WT901BLE68-01(48591DE3C19B)	-0.302	-1.303	0.323	-9.583	35.461	-312.317	-81.47	7.51	-19.34	-45.570	-31.458	71.540	0.76044	-0.60205	0.24051	0.03650	30.7	13111	100
2025-3-27 18:50:13.10	WT901BLE68-01(48591DE3C19B)	-0.302	-1.334	0.330	-7.080	41.992	-315.674	-81.63	4.46	-20.28	-45.570	-31.458	71.540	0.76044	-0.60205	0.24051	0.03650	30.7	13111	100
2025-3-27 18:50:13.10	WT901BLE68-01(48591DE3C19B)	-0.352	-1.334	0.330	-7.080	41.992	-315.674	-81.74	1.43	-21.21	-45.570	-31.458	71.540	0.76044	-0.60205	0.24051	0.03650	30.7	13111	100
2025-3-27 18:50:13.10	WT901BLE68-01(48591DE3C19B)	-0.352	-1.357	0.336	-4.761	36.621	-315.674	-81.77	-1.58	-22.08	-45.570	-31.458	71.540	0.76044	-0.60205	0.24051	0.03650	30.7	13111	100
2025-3-27 18:50:13.11	WT901BLE68-01(48591DE3C19B)	-0.437	-1.357	0.336	-4.761	36.621	-315.674	-81.75	-4.58	-22.95	-45.570	-31.458	71.540	0.76044	-0.60205	0.24051	0.03650	30.7	13111	100
2025-3-27 18:50:13.11	WT901BLE68-01(48591DE3C19B)	-0.437	-1.422	0.352	-0.732	20.325	-310.730	-81.67	-7.52	-23.64	-45.570	-31.458	71.540	0.76044	-0.60205	0.24051	0.03650	30.7	13111	100
2025-3-27 18:50:13.11	WT901BLE68-01(48591DE3C19B)	-0.548	-1.422	0.352	-0.732	20.325	-310.730	-81.55	-10.45	-24.35	-45.570	-31.458	71.540	0.76044	-0.60205	0.24051	0.03650	30.7	13111	100
2025-3-27 18:50:13.11	WT901BLE68-01(48591DE3C19B)	-0.548	-1.465	0.389	7.446	-3.906	-299.011	-81.37	-13.27	-24.80	-45.570	-31.458	71.540	0.76044	-0.60205	0.24051	0.03650	30.7	13111	100
2025-3-27 18:50:13.41	WT901BLE68-01(48591DE3C19B)	-0.576	-1.465	0.389	7.446	-3.906	-299.011	-81.16	-16.06	-25.26	-45.570	-31.458	71.540	0.76044	-0.60205	0.24051	0.03650	30.7	13111	100
2025-3-27 18:50:13.41	WT901BLE68-01(48591DE3C19B)	-0.576	-1.449	0.380	14.038	-25.330	-281.006	-80.94	-18.69	-25.49	-45.570	-31.458	71.540	0.76044	-0.60205	0.24051	0.03650	30.7	13111	100
2025-3-27 18:50:13.41	WT901BLE68-01(48591DE3C19B)	-0.500	-1.449	0.380	14.038	-25.330	-281.006	-80.69	-21.30	-25.73	-45.570	-31.458	71.540	0.76044	-0.60205	0.24051	0.03650	30.7	13111	100
2025-3-27 18:50:13.41	WT901BLE68-01(48591DE3C19B)	-0.500	-1.426	0.318	14.709	-34.729	-258.301	-80.49	-23.68	-25.85	-45.570	-31.458	71.540	0.76044	-0.60205	0.24051	0.03650	30.7	13111	100
2025-3-27 18:50:13.70	WT901BLE68-01(48591DE3C19B)	-0.429	-1.426	0.318	14.709	-34.729	-258.301	-80.27	-26.05	-25.97	-51.058	-18.816	77.126	0.76044	-0.60205	0.24051	0.03650	30.7	13111	100
2025-3-27 18:50:13.70	WT901BLE68-01(48591DE3C19B)	-0.429	-1.422	0.271	13.062	-23.499	-225.708	-80.04	-28.06	-26.17	-51.058	-18.816	77.126	0.76044	-0.60205	0.24051	0.03650	30.7	13111	100
2025-3-27 18:50:13.70	WT901BLE68-01(48591DE3C19B)	-0.428	-1.422	0.271	13.062	-23.499	-225.708	-79.79	-30.06	-26.39	-51.058	-18.816	77.126	0.76044	-0.60205	0.24051	0.03650	30.7	13111	100
2025-3-27 18:50:13.70	WT901BLE68-01(48591DE3C19B)	-0.428	-1.393	0.311	13.611	2.625	-188.477	-79.42	-31.64	-26.84	-51.058	-18.816	77.126	0.76044	-0.60205	0.24051	0.03650	30.7	13111	100
2025-3-27 18:50:13.106	WT901BLE68-01(48591DE3C19B)	-0.450	-1.393	0.311	13.611	2.625	-188.477	-79.02	-33.20	-27.31	-51.058	-18.816	77.126	0.76044	-0.60205	0.24051	0.03650	30.7	13111	100
2025-3-27 18:50:13.106	WT901BLE68-01(48591DE3C19B)	-0.450	-1.432	0.382	6.592	38.025	-148.438	-78.50	-34.29	-28.13	-51.058	-18.816	77.126	0.76044	-0.60205	0.24051	0.03650	30.7	13111	100
2025-3-27 18:50:13.106	WT901BLE68-01(48591DE3C19B)	-0.489	-1.432	0.382	6.592	38.025	-148.438	-77.95	-35.37	-28.96	-51.058	-18.816	77.126	0.76044	-0.60205	0.24051	0.03650	30.7	13111	100
2025-3-27 18:50:13.106	WT901BLE68-01(48591DE3C19B)	-0.532	-1.500	0.440	5.554	84.839	-98.938	-77.15	-35.85	-30.25	-51.058	-18.816	77.126	0.76044	-0.60205	0.24051	0.03650	30.7	13111	100
2025-3-27 18:50:13.158	WT901BLE68-01(48591DE3C19B)	-0.532	-1.337	0.447	6.226	127.136	-48.340	-76.22	-36.02	-31.73	-51.058	-18.816	77.126	0.76044	-0.60205	0.24051	0.03650	30.7	13111	100
2025-3-27 18:50:13.159	WT901BLE68-01(48591DE3C19B)	-0.542	-1.337	0.447	6.226	127.136	-48.340	-75.18	-35.87	-33.38	-51.058	-18.816	77.126	0.76044	-0.60205	0.24051	0.03650	30.7	13111	100
2025-3-27 18:50:13.159	WT901BLE68-01(48591DE3C19B)	-0.542	-1.076	0.451	1.038	144.165	-0.366	-74.17	-35.44	-35.04	-51.058	-18.816	77.126	0.76044	-0.60205	0.24051	0.03650	30.7	13111	100
2025-3-27 18:50:13.159	WT901BLE68-01(48591DE3C19B)	-0.579	-1.076	0.451	1.038	144.165	-0.366	-73.22	-34.73	-36.69	-51.058	-18.816	77.126	0.76044	-0.60205	0.24051	0.03650	30.7	13111	100
2025-3-27 18:50:13.220	WT901BLE68-01(48591DE3C19B)	-0.579	-0.881	0.435	-9.766	132.080	42.114	-72.43	-33.82	-38.16	-51.058	-18.816	77.126	0.76044	-0.60205	0.24051	0.03650	30.7	13111	100
2025-3-27 18:50:13.220	WT901BLE68-01(48591DE3C19B)	-0.643	-0.881	0.435	-9.766	132.080	42.114	-71.82	-32.71	-39.45	-51.058	-18.816	77.126	0.76044	-0.60205	0.24051	0.03650	30.7	13111	100
2025-3-27 18:50:13.220	WT901BLE68-01(48591DE3C19B)	-0.643	-0.789	0.392	-19.409	93.994	79.163	-71.46	-31.48	-40.42	-51.058	-18.816	77.126	0.76044	-0.60205	0.24051	0.03650	30.7	13111	100
2025-3-27 18:50:13.220	WT901BLE68-01(48591DE3C19B)	-0.716	-0.789	0.392	-19.409	93.994	79.163	-71.30	-30.12	-41.09	-51.058	-18.816	77.126	0.76044	-0.60205	0.24051	0.03650	30.7	13111	100
2025-3-27 18:50:13.221	WT901BLE68-01(48591DE3C19B)	-0.716	-0.729	0.334	-23.682	37.109	110.046	-71.37	-28.71	-41.38	-51.058	-18.816	77.126	0.76044	-0.60205	0.24051	0.03650	30.7	13111	100
2025-3-27 18:50:13.221	WT901BLE68-01(48591DE3C19B)	-0.724	-0.729	0.334	-23.682	37.109	110.046	-71.64	-27.25	-41.30	-51.058	-18.816	77.126	0.76044	-0.60205	0.24051	0.03650	30.7	13111	100
2025-3-27 18:50:13.221	WT901BLE68-01(48591DE3C19B)	-0.724	-0.679	0.256	-25.146	-16.235	134.216	-72.05	-25.76	-40.90	-51.058	-18.816	77.126	0.76044	-0.60205	0.24051	0.03650	30.7	13111	100
2025-3-27 18:50:13.221	WT901BLE68-01(48591DE3C19B)	-0.722	-0.679	0.256	-25.146	-16.235	134.216	-72.60	-24.22	-40.20	-51.058	-18.816	77.126	0.76044	-0.60205	0.24051	0.03650	30.7	13111	100
2025-3-27 18:50:13.278	WT901BLE68-01(48591DE3C19B)	-0.722	-0.714	0.171	-26.245	-59.265	159.424	-73.22	-22.63	-39.26	-51.058	-18.816	77.126	0.76044	-0.60205	0.24051	0.03650	30.7	13111	100
2025-3-27 18:50:13.278	WT901BLE68-01(48591DE3C19B)	-0.697	-0.714	0.171	-26.245	-59.265	159.424	-73.91	-20.97	-38.08	-51.058	-18.816	77.126	0.70700	-0.60626	0.05539	-0.35977	30.7	13111	100
2025-3-27 18:50:13.278	WT901BLE68-01(48591DE3C19B)	-0.697	-0.872	0.109	-23.987	-92.773	179.260	-74.62	-19.25	-36.74	-51.058	-18.816	77.126	0.70700	-0.60626	0.05539	-0.35977	30.7	13111	100
2025-3-27 18:50:13.279	WT901BLE68-01(48591DE3C19B)	-0.631	-0.872	0.109	-23.987	-92.773	179.260	-75.33	-17.47	-35.23	-51.058	-18.816	77.126	0.70700	-0.60626	0.05539	-0.35977	30.7	13111	100
2025-3-27 18:50:13.307	WT901BLE68-01(48591DE3C19B)	-0.631	-1.058	0.090	-14.526	-125.549	197.021	-75.99	-15.63	-33.58	-51.058	-18.816	77.126	0.70700	-0.60626	0.05539	-0.35977	30.7	13111	100
2025-3-27 18:50:13.307	WT901BLE68-01(48591DE3C19B)	-0.518	-1.058	0.090	-14.526	-125.549	197.021	-76.60	-13.74	-31.78	-51.058	-18.816	77.126	0.70700	-0.60626	0.05539	-0.35977	30.7	13111	100
2025-3-27 18:50:13.307	WT901BLE68-01(48591DE3C19B)	-0.518	-1.249	0.114	-0.366	-158.325	211.243	-77.10	-11.82	-29.84	-51.058	-18.816	77.126	0.70700	-0.60626	0.05539	-0.35977	30.7	13111	100
2025-3-27 18:50:13.307	WT901BLE68-01(48591DE3C19B)	-0.368	-1.249	0.114	-0.366	-158.325	211.243	-77.50	-9.86	-27.77	-51.058	-18.816	77.126	0.70700	-0.60626	0.05539	-0.35977	30.7	13111	100
2025-3-27 18:50:13.339	WT901BLE68-01(48591DE3C19B)	-0.368	-1.454	0.151	17.639	-177.124	223.389	-77.75	-7.87	-25.63	-51.058	-18.816	77.126	0.70700	-0.60626	0.05539	-0.35977	30.7	13111	100
2025-3-27 18:50:13.339	WT901BLE68-01(48591DE3C19B)	-0.232	-1.454	0.151	17.639	-177.124	223.389	-77.84	-5.86	-23.41	-51.058	-18.816	77.126	0.70700	-0.60626	0.05539	-0.35977	30.7	13111	100
2025-3-27 18:50:13.339	WT901BLE68-01(48591DE3C19B)	-0.232	-1.587	0.188	40.710	-172.241	234.558	-77.74	-3.81	-21.23	-51.058	-18.816	77.126	0.70700	-0.60626	0.05539	-0.35977	30.7	13111	100
2025-3-27 18:50:13.339	WT901BLE68-01(48591DE3C19B)	-0.136	-1.587	0.188	40.710	-172.241	234.558	-77.45	-1.73	-19.07	-51.058	-18.816	77.126	0.70700	-0.60626	0.05539	-0.35977	30.7	13111	100
2025-3-27 18:50:13.398	WT901BLE68-01(48591DE3C19B)	-0.136	-1.647	0.196	59.814	-147.156	241.638	-76.98	0.37	-17.04	-51.058	-18.816	77.126	0.70700	-0.60626	0.05539	-0.35977	30.7	13111	100
2025-3-27 18:50:13.398	WT901BLE68-01(48591DE3C19B)	-0.073	-1.647	0.196	59.814	-147.156	241.638	-76.35	2.49	-15.11	-51.058	-18.816	77.126	0.70700	-0.60626	0.05539	-0.35977	30.7	13111	100
2025-3-27 18:50:13.398	WT901BLE68-01(48591DE3C19B)	-0.073	-1.651	0.230	73.303	-106.384	247.131	-75.60	4.64	-13.36	-51.058	-18.816	77.126	0.70700	-0.60626	0.05539	-0.35977	30.7	13111	100
2025-3-27 18:50:13.398	WT901BLE68-01(48591DE3C19B)	-0.080	-1.651	0.230	73.303	-106.384	247.131	-74.72	6.82	-11.78	-51.058	-18.816	77.126	0.70700	-0.60626	0.05539	-0.35977	30.7	13111	100
2025-3-27 18:50:13.430	WT901BLE68-01(48591DE3C19B)	-0.080	-1.657	0.271	78.796	-60.669	253.967	-73.80	9.05	-10.39	-51.058	-18.816	77.126	0.70700	-0.60626	0.05539	-0.35977	30.7	13111	100
2025-3-27 18:50:13.431	WT901BLE68-01(48591DE3C19B)	-0.079	-1.657	0.271	78.796	-60.669	253.967	-72.82	11.33	-9.17	-51.058	-18.816	77.126	0.70700	-0.60626	0.05539	-0.35977	30.7	13111	100
2025-3-27 18:50:13.431	WT901BLE68-01(48591DE3C19B)	-0.079	-1.626	0.275	78.735	-13.123	260.132	-71.83	13.67	-8.13	-51.058	-18.816	77.126	0.70700	-0.60626	0.05539	-0.35977	30.7	13111	100
2025-3-27 18:50:13.431	WT901BLE68-01(48591DE3C19B)	-0.111	-1.626	0.275	78.735	-13.123	260.132	-70.86	16.08	-7.27	-51.058	-18.816	77.126	0.70700	-0.60626	0.05539	-0.35977	30.7	13111	100
2025-3-27 18:50:13.460	WT901BLE68-01(48591DE3C19B)	-0.111	-1.532	0.264	73.303	28.992	264.832	-69.92	18.55	-6.57	-51.058	-18.816	77.126	0.70700	-0.60626	0.05539	-0.35977	30.7	13111	100
2025-3-27 18:50:13.460	WT901BLE68-01(48591DE3C19B)	-0.150	-1.532	0.264	73.303	28.992	264.832	-69.03	21.08	-6.02	-51.058	-18.816	77.126	0.70700	-0.60626	0.05539	-0.35977	30.7	13111	100
2025-3-27 18:50:13.460	WT901BLE68-01(48591DE3C19B)	-0.150	-1.463	0.233	61.829	58.167	266.052	-68.23	23.65	-5.57	-43.610	-21.658	70.462	0.70700	-0.60626	0.05539	-0.35977	30.7	13111	100
2025-3-27 18:50:13.460	WT901BLE68-01(48591DE3C19B)	-0.196	-1.463	0.233	61.829	58.167	266.052	-67.49	26.25	-5.22	-43.610	-21.658	70.462	0.70700	-0.60626	0.05539	-0.35977	30.7	13111	100
2025-3-27 18:50:13.518	WT901BLE68-01(48591DE3C19B)	-0.196	-1.421	0.199	47.913	73.181	261.963	-66.84	28.84	-4.93	-43.610	-21.658	70.462	0.70700	-0.60626	0.05539	-0.35977	30.7	13111	100
2025-3-27 18:50:13.518	WT901BLE68-01(48591DE3C19B)	-0.247	-1.421	0.199	47.913	73.181	261.963	-66.28	31.42	-4.68	-43.610	-21.658	70.462	0.70700	-0.60626	0.05539	-0.35977	30.7	13111	100
2025-3-27 18:50:13.518	WT901BLE68-01(48591DE3C19B)	-0.247	-1.450	0.158	31.860	72.754	253.906	-65.77	33.95	-4.42	-43.610	-21.658	70.462	0.70700	-0.60626	0.05539	-0.35977	30.7	13111	100
2025-3-27 18:50:13.518	WT901BLE68-01(48591DE3C19B)	-0.287	-1.450	0.158	31.860	72.754	253.906	-65.32	36.43	-4.14	-43.610	-21.658	70.462	0.70700	-0.60626	0.05539	-0.35977	30.7	13111	100
2025-3-27 18:50:13.547	WT901BLE68-01(48591DE3C19B)	-0.287	-1.526	0.130	19.226	59.998	241.699	-64.89	38.80	-3.80	-43.610	-21.658	70.462	0.70700	-0.60626	0.05539	-0.35977	30.7	13111	100
2025-3-27 18:50:13.547	WT901BLE68-01(48591DE3C19B)	-0.274	-1.526	0.130	19.226	59.998	241.699	-64.46	41.09	-3.38	-43.610	-21.658	70.462	0.70700	-0.60626	0.05539	-0.35977	30.7	13111	100
2025-3-27 18:50:13.547	WT901BLE68-01(48591DE3C19B)	-0.274	-1.633	0.094	10.498	40.039	225.586	-64.00	43.24	-2.85	-43.610	-21.658	70.462	0.70700	-0.60626	0.05539	-0.35977	30.7	13111	100
2025-3-27 18:50:13.548	WT901BLE68-01(48591DE3C19B)	-0.147	-1.633	0.094	10.498	40.039	225.586	-63.47	45.26	-2.21	-43.610	-21.658	70.462	0.70700	-0.60626	0.05539	-0.35977	30.7	13111	100
2025-3-27 18:50:13.578	WT901BLE68-01(48591DE3C19B)	-0.147	-1.674	0.052	9.155	21.973	202.087	-62.89	47.13	-1.49	-43.610	-21.658	70.462	0.70700	-0.60626	0.05539	-0.35977	30.7	13111	100
2025-3-27 18:50:13.578	WT901BLE68-01(48591DE3C19B)	0.071	-1.674	0.052	9.155	21.973	202.087	-62.23	48.82	-0.68	-43.610	-21.658	70.462	0.70700	-0.60626	0.05539	-0.35977	30.7	13111	100
2025-3-27 18:50:13.578	WT901BLE68-01(48591DE3C19B)	0.071	-1.559	0.009	7.996	15.930	171.448	-61.58	50.36	0.10	-43.610	-21.658	70.462	0.70700	-0.60626	0.05539	-0.35977	30.7	13111	100
2025-3-27 18:50:13.578	WT901BLE68-01(48591DE3C19B)	0.439	-1.559	0.009	7.996	15.930	171.448	-60.95	51.73	0.86	-43.610	-21.658	70.462	0.70700	-0.60626	0.05539	-0.35977	30.7	13111	100
2025-3-27 18:50:13.641	WT901BLE68-01(48591DE3C19B)	0.439	-1.487	-0.062	4.700	30.212	128.967	-60.76	52.78	1.09	-43.610	-21.658	70.462	0.70700	-0.60626	0.05539	-0.35977	30.7	13111	100
2025-3-27 18:50:13.641	WT901BLE68-01(48591DE3C19B)	0.683	-1.487	-0.062	4.700	30.212	128.967	-60.57	53.82	1.31	-43.610	-21.658	70.462	0.70700	-0.60626	0.05539	-0.35977	30.7	13111	100
2025-3-27 18:50:13.641	WT901BLE68-01(48591DE3C19B)	0.683	-1.340	0.072	9.033	49.500	89.905	-60.85	54.59	0.91	-43.610	-21.658	70.462	0.70700	-0.60626	0.05539	-0.35977	30.7	13111	100
2025-3-27 18:50:13.641	WT901BLE68-01(48591DE3C19B)	0.468	-1.340	0.072	9.033	49.500	89.905	-61.14	55.35	0.48	-43.610	-21.658	70.462	0.70700	-0.60626	0.05539	-0.35977	30.7	13111	100
2025-3-27 18:50:13.670	WT901BLE68-01(48591DE3C19B)	0.468	-1.226	0.177	-11.108	62.500	54.565	-62.08	55.85	-0.48	-43.610	-21.658	70.462	0.70700	-0.60626	0.05539	-0.35977	30.7	13111	100
2025-3-27 18:50:13.670	WT901BLE68-01(48591DE3C19B)	0.209	-1.226	0.177	-11.108	62.500	54.565	-63.04	56.33	-1.47	-43.610	-21.658	70.462	0.70700	-0.60626	0.05539	-0.35977	30.7	13111	100
2025-3-27 18:50:13.670	WT901BLE68-01(48591DE3C19B)	0.209	-1.294	0.166	-4.944	93.201	7.263	-64.69	56.50	-3.35	-43.610	-21.658	70.462	0.70700	-0.60626	0.05539	-0.35977	30.7	13111	100
2025-3-27 18:50:13.670	WT901BLE68-01(48591DE3C19B)	0.284	-1.294	0.166	-4.944	93.201	7.263	-66.34	56.64	-5.25	-43.610	-21.658	70.462	0.74792	-0.46289	0.41873	0.22552	30.7	13111	100
2025-3-27 18:50:13.759	WT901BLE68-01(48591DE3C19B)	0.284	-1.218	0.134	5.310	114.990	-42.664	-68.47	56.37	-7.86	-43.610	-21.658	70.462	0.74792	-0.46289	0.41873	0.22552	30.7	13111	100
2025-3-27 18:50:13.759	WT901BLE68-01(48591DE3C19B)	0.473	-1.218	0.134	5.310	114.990	-42.664	-70.55	56.04	-10.41	-43.610	-21.658	70.462	0.74792	-0.46289	0.41873	0.22552	30.7	13111	100
2025-3-27 18:50:13.759	WT901BLE68-01(48591DE3C19B)	0.473	-1.061	0.103	9.277	102.905	-81.482	-72.53	55.26	-12.91	-43.610	-21.658	70.462	0.74792	-0.46289	0.41873	0.22552	30.7	13111	100
2025-3-27 18:50:13.759	WT901BLE68-01(48591DE3C19B)	0.468	-1.061	0.103	9.277	102.905	-81.482	-74.41	54.43	-15.32	-43.610	-21.658	70.462	0.74792	-0.46289	0.41873	0.22552	30.7	13111	100
2025-3-27 18:50:13.760	WT901BLE68-01(48591DE3C19B)	0.468	-1.027	0.111	8.240	80.750	-108.093	-75.98	53.23	-17.36	-43.610	-21.658	70.462	0.74792	-0.46289	0.41873	0.22552	30.7	13111	100
2025-3-27 18:50:13.760	WT901BLE68-01(48591DE3C19B)	0.244	-1.027	0.111	8.240	80.750	-108.093	-77.43	52.02	-19.30	-43.610	-21.658	70.462	0.74792	-0.46289	0.41873	0.22552	30.7	13111	100
2025-3-27 18:50:13.760	WT901BLE68-01(48591DE3C19B)	0.244	-1.119	0.106	9.705	63.049	-137.451	-78.61	50.45	-20.94	-43.610	-21.658	70.462	0.74792	-0.46289	0.41873	0.22552	30.7	13111	100
2025-3-27 18:50:13.760	WT901BLE68-01(48591DE3C19B)	0.002	-1.119	0.106	9.705	63.049	-137.451	-79.68	48.88	-22.47	-43.610	-21.658	70.462	0.74792	-0.46289	0.41873	0.22552	30.7	13111	100
2025-3-27 18:50:13.790	WT901BLE68-01(48591DE3C19B)	0.002	-1.182	0.094	14.893	37.781	-168.030	-80.37	46.96	-23.62	-43.610	-21.658	70.462	0.74792	-0.46289	0.41873	0.22552	30.7	13111	100
2025-3-27 18:50:13.790	WT901BLE68-01(48591DE3C19B)	-0.148	-1.182	0.094	14.893	37.781	-168.030	-80.98	45.04	-24.68	-43.610	-21.658	70.462	0.74792	-0.46289	0.41873	0.22552	30.7	13111	100
2025-3-27 18:50:13.790	WT901BLE68-01(48591DE3C19B)	-0.148	-1.172	0.084	16.968	11.230	-197.266	-81.29	42.81	-25.37	-43.610	-21.658	70.462	0.74792	-0.46289	0.41873	0.22552	30.7	13111	100
2025-3-27 18:50:13.790	WT901BLE68-01(48591DE3C19B)	-0.281	-1.172	0.084	16.968	11.230	-197.266	-81.55	40.60	-26.03	-43.610	-21.658	70.462	0.74792	-0.46289	0.41873	0.22552	30.7	13111	100
2025-3-27 18:50:13.848	WT901BLE68-01(48591DE3C19B)	-0.281	-1.170	0.139	12.268	-15.564	-222.961	-81.63	38.11	-26.35	-43.610	-21.658	70.462	0.74792	-0.46289	0.41873	0.22552	30.7	13111	100
2025-3-27 18:50:13.848	WT901BLE68-01(48591DE3C19B)	-0.359	-1.170	0.139	12.268	-15.564	-222.961	-81.68	35.65	-26.64	-43.610	-21.658	70.462	0.74792	-0.46289	0.41873	0.22552	30.7	13111	100
2025-3-27 18:50:13.848	WT901BLE68-01(48591DE3C19B)	-0.359	-1.176	0.202	3.784	-51.208	-248.840	-81.59	32.90	-26.54	-43.610	-21.658	70.462	0.74792	-0.46289	0.41873	0.22552	30.7	13111	100
2025-3-27 18:50:13.848	WT901BLE68-01(48591DE3C19B)	-0.343	-1.176	0.202	3.784	-51.208	-248.840	-81.50	30.18	-26.45	-43.610	-21.658	70.462	0.74792	-0.46289	0.41873	0.22552	30.7	13111	100
2025-3-27 18:50:13.878	WT901BLE68-01(48591DE3C19B)	-0.343	-1.187	0.238	-7.507	-83.435	-270.874	-81.38	27.23	-26.04	-43.610	-21.658	70.462	0.74792	-0.46289	0.41873	0.22552	30.7	13111	100
2025-3-27 18:50:13.878	WT901BLE68-01(48591DE3C19B)	-0.252	-1.187	0.238	-7.507	-83.435	-270.874	-81.27	24.30	-25.64	-43.610	-21.658	70.462	0.74792	-0.46289	0.41873	0.22552	30.7	13111	100
2025-3-27 18:50:13.878	WT901BLE68-01(48591DE3C19B)	-0.252	-1.221	0.250	-20.813	-91.736	-284.729	-81.30	21.24	-25.19	-43.610	-21.658	70.462	0.74792	-0.46289	0.41873	0.22552	30.7	13111	100
2025-3-27 18:50:13.878	WT901BLE68-01(48591DE3C19B)	-0.188	-1.221	0.250	-20.813	-91.736	-284.729	-81.35	18.19	-24.74	-51.254	-24.500	74.284	0.74792	-0.46289	0.41873	0.22552	30.7	13111	100
2025-3-27 18:50:13.907	WT901BLE68-01(48591DE3C19B)	-0.188	-1.253	0.273	-33.813	-80.872	-295.166	-81.58	15.10	-24.43	-51.254	-24.500	74.284	0.74792	-0.46289	0.41873	0.22552	30.7	13111	100
2025-3-27 18:50:13.907	WT901BLE68-01(48591DE3C19B)	-0.170	-1.253	0.273	-33.813	-80.872	-295.166	-81.83	12.01	-24.10	-51.254	-24.500	74.284	0.74792	-0.46289	0.41873	0.22552	30.7	13111	100
2025-3-27 18:50:13.907	WT901BLE68-01(48591DE3C19B)	-0.170	-1.304	0.321	-44.373	-59.265	-301.270	-82.24	8.92	-23.99	-51.254	-24.500	74.284	0.74792	-0.46289	0.41873	0.22552	30.7	13111	100
2025-3-27 18:50:13.907	WT901BLE68-01(48591DE3C19B)	-0.194	-1.304	0.321	-44.373	-59.265	-301.270	-82.64	5.85	-23.85	-51.254	-24.500	74.284	0.74792	-0.46289	0.41873	0.22552	30.7	13111	100
2025-3-27 18:50:13.969	WT901BLE68-01(48591DE3C19B)	-0.194	-1.407	0.367	-48.096	-31.616	-306.824	-83.11	2.78	-23.98	-51.254	-24.500	74.284	0.74792	-0.46289	0.41873	0.22552	30.7	13111	100
2025-3-27 18:50:13.969	WT901BLE68-01(48591DE3C19B)	-0.310	-1.407	0.367	-48.096	-31.616	-306.824	-83.57	-0.26	-24.08	-51.254	-24.500	74.284	0.74792	-0.46289	0.41873	0.22552	30.7	13111	100
2025-3-27 18:50:13.969	WT901BLE68-01(48591DE3C19B)	-0.310	-1.525	0.400	-44.983	-9.033	-305.725	-83.97	-3.26	-24.37	-51.254	-24.500	74.284	0.74792	-0.46289	0.41873	0.22552	30.7	13111	100
2025-3-27 18:50:13.970	WT901BLE68-01(48591DE3C19B)	-0.506	-1.525	0.400	-44.983	-9.033	-305.725	-84.36	-6.24	-24.65	-51.254	-24.500	74.284	0.74792	-0.46289	0.41873	0.22552	30.7	13111	100
2025-3-27 18:50:13.997	WT901BLE68-01(48591DE3C19B)	-0.506	-1.636	0.400	-37.170	-5.554	-299.133	-84.66	-9.12	-24.93	-51.254	-24.500	74.284	0.74792	-0.46289	0.41873	0.22552	30.7	13111	100
2025-3-27 18:50:13.998	WT901BLE68-01(48591DE3C19B)	-0.680	-1.636	0.400	-37.170	-5.554	-299.133	-84.94	-11.99	-25.20	-51.254	-24.500	74.284	0.74792	-0.46289	0.41873	0.22552	30.7	13111	100
2025-3-27 18:50:13.998	WT901BLE68-01(48591DE3C19B)	-0.680	-1.680	0.434	-23.804	-19.653	-285.339	-85.11	-14.71	-25.30	-51.254	-24.500	74.284	0.74792	-0.46289	0.41873	0.22552	30.7	13111	100
2025-3-27 18:50:13.998	WT901BLE68-01(48591DE3C19B)	-0.726	-1.680	0.434	-23.804	-19.653	-285.339	-85.28	-17.40	-25.39	-51.254	-24.500	74.284	0.74792	-0.46289	0.41873	0.22552	30.7	13111	100
2025-3-27 18:50:14.30	WT901BLE68-01(48591DE3C19B)	-0.726	-1.651	0.443	-16.968	-37.231	-263.794	-85.45	-19.86	-25.27	-51.254	-24.500	74.284	0.74792	-0.46289	0.41873	0.22552	30.7	13111	100
2025-3-27 18:50:14.30	WT901BLE68-01(48591DE3C19B)	-0.695	-1.651	0.443	-16.968	-37.231	-263.794	-85.62	-22.31	-25.13	-51.254	-24.500	74.284	0.74792	-0.46289	0.41873	0.22552	30.7	13111	100
2025-3-27 18:50:14.30	WT901BLE68-01(48591DE3C19B)	-0.695	-1.599	0.434	-16.052	-43.640	-233.093	-85.82	-24.44	-24.88	-51.254	-24.500	74.284	0.74792	-0.46289	0.41873	0.22552	30.7	13111	100
2025-3-27 18:50:14.30	WT901BLE68-01(48591DE3C19B)	-0.650	-1.599	0.434	-16.052	-43.640	-233.093	-86.04	-26.55	-24.63	-51.254	-24.500	74.284	0.74792	-0.46289	0.41873	0.22552	30.7	13111	100
2025-3-27 18:50:14.118	WT901BLE68-01(48591DE3C19B)	-0.628	-1.506	0.527	-12.756	-39.246	-198.730	-86.23	-28.30	-24.38	-51.254	-24.500	74.284	0.74792	-0.46289	0.41873	0.22552	30.7	13111	100
2025-3-27 18:50:14.118	WT901BLE68-01(48591DE3C19B)	-0.628	-1.349	0.683	-10.498	-22.644	-162.598	-86.37	-29.86	-24.21	-51.254	-24.500	74.284	0.64981	-0.68597	-0.04941	-0.32346	30.7	13111	100
2025-3-27 18:50:14.118	WT901BLE68-01(48591DE3C19B)	-0.630	-1.349	0.683	-10.498	-22.644	-162.598	-86.46	-31.21	-24.11	-51.254	-24.500	74.284	0.64981	-0.68597	-0.04941	-0.32346	30.7	13111	100
2025-3-27 18:50:14.119	WT901BLE68-01(48591DE3C19B)	-0.630	-1.175	0.745	-6.531	7.996	-123.718	-86.43	-32.35	-24.19	-51.254	-24.500	74.284	0.64981	-0.68597	-0.04941	-0.32346	30.7	13111	100
2025-3-27 18:50:14.120	WT901BLE68-01(48591DE3C19B)	-0.641	-1.175	0.745	-6.531	7.996	-123.718	-86.29	-33.28	-24.43	-51.254	-24.500	74.284	0.64981	-0.68597	-0.04941	-0.32346	30.7	13111	100
2025-3-27 18:50:14.120	WT901BLE68-01(48591DE3C19B)	-0.641	-0.991	0.675	0.549	46.936	-82.031	-85.97	-33.98	-24.90	-51.254	-24.500	74.284	0.64981	-0.68597	-0.04941	-0.32346	30.7	13111	100
2025-3-27 18:50:14.120	WT901BLE68-01(48591DE3C19B)	-0.729	-0.991	0.675	0.549	46.936	-82.031	-85.49	-34.45	-25.58	-51.254	-24.500	74.284	0.64981	-0.68597	-0.04941	-0.32346	30.7	13111	100
2025-3-27 18:50:14.120	WT901BLE68-01(48591DE3C19B)	-0.729	-0.852	0.560	4.578	67.932	-33.020	-84.92	-34.66	-26.38	-51.254	-24.500	74.284	0.64981	-0.68597	-0.04941	-0.32346	30.7	13111	100
2025-3-27 18:50:14.150	WT901BLE68-01(48591DE3C19B)	-0.790	-0.852	0.560	4.578	67.932	-33.020	-84.28	-34.59	-27.27	-51.254	-24.500	74.284	0.64981	-0.68597	-0.04941	-0.32346	30.7	13111	100
2025-3-27 18:50:14.150	WT901BLE68-01(48591DE3C19B)	-0.790	-0.893	0.485	5.737	60.425	16.968	-83.68	-34.27	-28.07	-51.254	-24.500	74.284	0.64981	-0.68597	-0.04941	-0.32346	30.7	13111	100
2025-3-27 18:50:14.150	WT901BLE68-01(48591DE3C19B)	-0.779	-0.893	0.485	5.737	60.425	16.968	-83.13	-33.69	-28.78	-51.254	-24.500	74.284	0.64981	-0.68597	-0.04941	-0.32346	30.7	13111	100
2025-3-27 18:50:14.150	WT901BLE68-01(48591DE3C19B)	-0.779	-0.894	0.418	12.207	39.917	64.331	-82.66	-32.88	-29.31	-51.254	-24.500	74.284	0.64981	-0.68597	-0.04941	-0.32346	30.7	13111	100
2025-3-27 18:50:14.208	WT901BLE68-01(48591DE3C19B)	-0.719	-0.894	0.418	12.207	39.917	64.331	-82.25	-31.85	-29.66	-51.254	-24.500	74.284	0.64981	-0.68597	-0.04941	-0.32346	30.7	13111	100
2025-3-27 18:50:14.208	WT901BLE68-01(48591DE3C19B)	-0.719	-0.809	0.313	18.555	16.602	107.849	-81.93	-30.61	-29.82	-51.254	-24.500	74.284	0.64981	-0.68597	-0.04941	-0.32346	30.7	13111	100
2025-3-27 18:50:14.208	WT901BLE68-01(48591DE3C19B)	-0.691	-0.809	0.313	18.555	16.602	107.849	-81.67	-29.18	-29.81	-51.254	-24.500	74.284	0.64981	-0.68597	-0.04941	-0.32346	30.7	13111	100
2025-3-27 18:50:14.208	WT901BLE68-01(48591DE3C19B)	-0.691	-0.791	0.207	22.583	-12.878	146.057	-81.50	-27.58	-29.58	-51.254	-24.500	74.284	0.64981	-0.68597	-0.04941	-0.32346	30.7	13111	100
2025-3-27 18:50:14.240	WT901BLE68-01(48591DE3C19B)	-0.650	-0.791	0.207	22.583	-12.878	146.057	-81.39	-25.82	-29.15	-51.254	-24.500	74.284	0.64981	-0.68597	-0.04941	-0.32346	30.7	13111	100
2025-3-27 18:50:14.241	WT901BLE68-01(48591DE3C19B)	-0.650	-0.888	0.131	25.818	-47.729	174.377	-81.35	-23.96	-28.50	-51.254	-24.500	74.284	0.64981	-0.68597	-0.04941	-0.32346	30.7	13111	100
2025-3-27 18:50:14.241	WT901BLE68-01(48591DE3C19B)	-0.544	-0.888	0.131	25.818	-47.729	174.377	-81.36	-21.98	-27.66	-51.254	-24.500	74.284	0.64981	-0.68597	-0.04941	-0.32346	30.7	13111	100
2025-3-27 18:50:14.241	WT901BLE68-01(48591DE3C19B)	-0.544	-1.034	0.107	33.875	-78.247	193.848	-81.37	-19.95	-26.66	-51.254	-24.500	74.284	0.64981	-0.68597	-0.04941	-0.32346	30.7	13111	100
2025-3-27 18:50:14.270	WT901BLE68-01(48591DE3C19B)	-0.410	-1.034	0.107	33.875	-78.247	193.848	-81.36	-17.85	-25.49	-51.254	-24.500	74.284	0.64981	-0.68597	-0.04941	-0.32346	30.7	13111	100
2025-3-27 18:50:14.270	WT901BLE68-01(48591DE3C19B)	-0.410	-1.189	0.114	45.166	-95.459	206.665	-81.29	-15.73	-24.25	-51.254	-24.500	74.284	0.64981	-0.68597	-0.04941	-0.32346	30.7	13111	100
2025-3-27 18:50:14.270	WT901BLE68-01(48591DE3C19B)	-0.310	-1.189	0.114	45.166	-95.459	206.665	-81.13	-13.57	-22.93	-49.392	-23.324	77.028	0.64981	-0.68597	-0.04941	-0.32346	30.7	13111	100
2025-3-27 18:50:14.270	WT901BLE68-01(48591DE3C19B)	-0.310	-1.381	0.132	59.509	-98.755	214.600	-80.87	-11.40	-21.60	-49.392	-23.324	77.028	0.64981	-0.68597	-0.04941	-0.32346	30.7	13111	100
2025-3-27 18:50:14.329	WT901BLE68-01(48591DE3C19B)	-0.234	-1.381	0.132	59.509	-98.755	214.600	-80.49	-9.22	-20.26	-49.392	-23.324	77.028	0.64981	-0.68597	-0.04941	-0.32346	30.7	13111	100
2025-3-27 18:50:14.329	WT901BLE68-01(48591DE3C19B)	-0.234	-1.576	0.182	75.867	-83.313	217.529	-79.97	-7.05	-19.01	-49.392	-23.324	77.028	0.64981	-0.68597	-0.04941	-0.32346	30.7	13111	100
2025-3-27 18:50:14.329	WT901BLE68-01(48591DE3C19B)	-0.203	-1.576	0.182	75.867	-83.313	217.529	-79.33	-4.89	-17.82	-49.392	-23.324	77.028	0.64981	-0.68597	-0.04941	-0.32346	30.7	13111	100
2025-3-27 18:50:14.329	WT901BLE68-01(48591DE3C19B)	-0.203	-1.677	0.252	88.501	-47.607	220.764	-78.57	-2.72	-16.79	-49.392	-23.324	77.028	0.64981	-0.68597	-0.04941	-0.32346	30.7	13111	100
2025-3-27 18:50:14.358	WT901BLE68-01(48591DE3C19B)	-0.233	-1.677	0.252	88.501	-47.607	220.764	-77.71	-0.53	-15.92	-49.392	-23.324	77.028	0.64981	-0.68597	-0.04941	-0.32346	30.7	13111	100
2025-3-27 18:50:14.358	WT901BLE68-01(48591DE3C19B)	-0.233	-1.663	0.319	94.238	-0.488	227.051	-76.80	1.70	-15.25	-49.392	-23.324	77.028	0.64981	-0.68597	-0.04941	-0.32346	30.7	13111	100
2025-3-27 18:50:14.358	WT901BLE68-01(48591DE3C19B)	-0.251	-1.663	0.319	94.238	-0.488	227.051	-75.84	3.98	-14.77	-49.392	-23.324	77.028	0.64981	-0.68597	-0.04941	-0.32346	30.7	13111	100
2025-3-27 18:50:14.358	WT901BLE68-01(48591DE3C19B)	-0.251	-1.630	0.354	90.027	45.715	235.962	-74.90	6.34	-14.47	-49.392	-23.324	77.028	0.64981	-0.68597	-0.04941	-0.32346	30.7	13111	100
2025-3-27 18:50:14.388	WT901BLE68-01(48591DE3C19B)	-0.229	-1.630	0.354	90.027	45.715	235.962	-74.00	8.78	-14.36	-49.392	-23.324	77.028	0.64981	-0.68597	-0.04941	-0.32346	30.7	13111	100
2025-3-27 18:50:14.388	WT901BLE68-01(48591DE3C19B)	-0.229	-1.587	0.338	84.900	89.355	248.413	-73.15	11.33	-14.40	-49.392	-23.324	77.028	0.64981	-0.68597	-0.04941	-0.32346	30.7	13111	100
2025-3-27 18:50:14.388	WT901BLE68-01(48591DE3C19B)	-0.169	-1.587	0.338	84.900	89.355	248.413	-72.37	13.97	-14.61	-49.392	-23.324	77.028	0.64981	-0.68597	-0.04941	-0.32346	30.7	13111	100
2025-3-27 18:50:14.389	WT901BLE68-01(48591DE3C19B)	-0.169	-1.555	0.330	72.693	126.038	260.742	-71.69	16.71	-14.94	-49.392	-23.324	77.028	0.64981	-0.68597	-0.04941	-0.32346	30.7	13111	100
2025-3-27 18:50:14.450	WT901BLE68-01(48591DE3C19B)	-0.136	-1.555	0.330	72.693	126.038	260.742	-71.13	19.55	-15.41	-49.392	-23.324	77.028	0.64981	-0.68597	-0.04941	-0.32346	30.7	13111	100
2025-3-27 18:50:14.450	WT901BLE68-01(48591DE3C19B)	-0.136	-1.553	0.231	55.908	154.846	271.790	-70.72	22.47	-16.00	-49.392	-23.324	77.028	0.64981	-0.68597	-0.04941	-0.32346	30.7	13111	100
2025-3-27 18:50:14.451	WT901BLE68-01(48591DE3C19B)	-0.157	-1.553	0.231	55.908	154.846	271.790	-70.47	25.48	-16.70	-49.392	-23.324	77.028	0.64981	-0.68597	-0.04941	-0.32346	30.7	13111	100
2025-3-27 18:50:14.451	WT901BLE68-01(48591DE3C19B)	-0.157	-1.528	0.152	39.368	166.504	278.442	-70.37	28.51	-17.47	-49.392	-23.324	77.028	0.64981	-0.68597	-0.04941	-0.32346	30.7	13111	100
2025-3-27 18:50:14.480	WT901BLE68-01(48591DE3C19B)	-0.207	-1.528	0.152	39.368	166.504	278.442	-70.42	31.57	-18.31	-49.392	-23.324	77.028	0.64981	-0.68597	-0.04941	-0.32346	30.7	13111	100
2025-3-27 18:50:14.480	WT901BLE68-01(48591DE3C19B)	-0.207	-1.503	0.087	17.700	160.645	280.151	-70.62	34.62	-19.15	-49.392	-23.324	77.028	0.64981	-0.68597	-0.04941	-0.32346	30.7	13111	100
2025-3-27 18:50:14.480	WT901BLE68-01(48591DE3C19B)	-0.321	-1.503	0.087	17.700	160.645	280.151	-70.97	37.64	-20.00	-49.392	-23.324	77.028	0.64981	-0.68597	-0.04941	-0.32346	30.7	13111	100
2025-3-27 18:50:14.480	WT901BLE68-01(48591DE3C19B)	-0.321	-1.590	0.053	-3.174	130.188	274.963	-71.39	40.56	-20.73	-49.392	-23.324	77.028	0.78571	-0.48767	0.37540	0.06186	30.7	13111	100
2025-3-27 18:50:14.510	WT901BLE68-01(48591DE3C19B)	-0.404	-1.590	0.053	-3.174	130.188	274.963	-71.86	43.40	-21.35	-49.392	-23.324	77.028	0.78571	-0.48767	0.37540	0.06186	30.7	13111	100
2025-3-27 18:50:14.510	WT901BLE68-01(48591DE3C19B)	-0.404	-1.747	0.080	-18.188	71.167	264.404	-72.20	46.07	-21.65	-49.392	-23.324	77.028	0.78571	-0.48767	0.37540	0.06186	30.7	13111	100
2025-3-27 18:50:14.510	WT901BLE68-01(48591DE3C19B)	-0.382	-1.747	0.080	-18.188	71.167	264.404	-72.37	48.59	-21.59	-49.392	-23.324	77.028	0.78571	-0.48767	0.37540	0.06186	30.7	13111	100
2025-3-27 18:50:14.510	WT901BLE68-01(48591DE3C19B)	-0.382	-1.899	0.102	-21.667	8.728	244.629	-71.93	50.72	-20.71	-49.392	-23.324	77.028	0.78571	-0.48767	0.37540	0.06186	30.7	13111	100
2025-3-27 18:50:14.568	WT901BLE68-01(48591DE3C19B)	-0.263	-1.899	0.102	-21.667	8.728	244.629	-71.43	52.83	-19.76	-49.392	-23.324	77.028	0.78571	-0.48767	0.37540	0.06186	30.7	13111	100
2025-3-27 18:50:14.569	WT901BLE68-01(48591DE3C19B)	-0.263	-1.851	0.129	-15.381	-39.734	223.450	-70.25	54.57	-18.08	-49.392	-23.324	77.028	0.78571	-0.48767	0.37540	0.06186	30.7	13111	100
2025-3-27 18:50:14.569	WT901BLE68-01(48591DE3C19B)	-0.082	-1.851	0.129	-15.381	-39.734	223.450	-68.94	56.28	-16.27	-49.392	-23.324	77.028	0.78571	-0.48767	0.37540	0.06186	30.7	13111	100
2025-3-27 18:50:14.569	WT901BLE68-01(48591DE3C19B)	-0.082	-1.685	0.147	-20.691	-66.162	195.068	-67.32	57.58	-14.07	-49.392	-23.324	77.028	0.78571	-0.48767	0.37540	0.06186	30.7	13111	100
2025-3-27 18:50:14.598	WT901BLE68-01(48591DE3C19B)	0.099	-1.685	0.147	-20.691	-66.162	195.068	-65.57	58.84	-11.74	-49.392	-23.324	77.028	0.78571	-0.48767	0.37540	0.06186	30.7	13111	100
2025-3-27 18:50:14.598	WT901BLE68-01(48591DE3C19B)	0.099	-1.492	0.232	-23.743	-82.397	160.889	-63.72	59.68	-9.28	-49.392	-23.324	77.028	0.78571	-0.48767	0.37540	0.06186	30.7	13111	100
2025-3-27 18:50:14.598	WT901BLE68-01(48591DE3C19B)	0.181	-1.492	0.232	-23.743	-82.397	160.889	-61.76	60.46	-6.73	-49.392	-23.324	77.028	0.78571	-0.48767	0.37540	0.06186	30.7	13111	100
2025-3-27 18:50:14.598	WT901BLE68-01(48591DE3C19B)	0.181	-1.206	0.303	-24.780	-77.881	130.371	-60.06	60.95	-4.48	-49.392	-23.324	77.028	0.78571	-0.48767	0.37540	0.06186	30.7	13111	100
2025-3-27 18:50:14.628	WT901BLE68-01(48591DE3C19B)	0.223	-1.206	0.303	-24.780	-77.881	130.371	-58.31	61.40	-2.19	-49.392	-23.324	77.028	0.78571	-0.48767	0.37540	0.06186	30.7	13111	100
2025-3-27 18:50:14.628	WT901BLE68-01(48591DE3C19B)	0.223	-0.972	0.380	-20.874	-57.251	95.459	-57.15	61.63	-0.62	-49.392	-23.324	77.028	0.78571	-0.48767	0.37540	0.06186	30.7	13111	100
2025-3-27 18:50:14.628	WT901BLE68-01(48591DE3C19B)	0.335	-0.972	0.380	-20.874	-57.251	95.459	-55.97	61.84	0.94	-49.392	-23.324	77.028	0.78571	-0.48767	0.37540	0.06186	30.7	13111	100
2025-3-27 18:50:14.628	WT901BLE68-01(48591DE3C19B)	0.335	-0.885	0.294	-18.982	-26.306	55.664	-55.67	61.88	1.51	-49.392	-23.324	77.028	0.78571	-0.48767	0.37540	0.06186	30.7	13111	100
2025-3-27 18:50:14.688	WT901BLE68-01(48591DE3C19B)	0.409	-0.885	0.294	-18.982	-26.306	55.664	-55.38	61.90	2.04	-49.392	-23.324	77.028	0.78571	-0.48767	0.37540	0.06186	30.7	13111	100
2025-3-27 18:50:14.688	WT901BLE68-01(48591DE3C19B)	0.409	-0.797	0.193	-18.982	9.399	14.343	-56.07	61.79	1.46	-49.392	-23.324	77.028	0.78571	-0.48767	0.37540	0.06186	30.7	13111	100
2025-3-27 18:50:14.689	WT901BLE68-01(48591DE3C19B)	0.377	-0.797	0.193	-18.982	9.399	14.343	-56.78	61.66	0.86	-49.392	-23.324	77.028	0.78571	-0.48767	0.37540	0.06186	30.7	13111	100
2025-3-27 18:50:14.689	WT901BLE68-01(48591DE3C19B)	0.377	-0.736	0.159	-23.804	39.185	-28.870	-58.41	61.32	-0.74	-49.392	-23.324	77.028	0.78571	-0.48767	0.37540	0.06186	30.7	13111	100
2025-3-27 18:50:14.717	WT901BLE68-01(48591DE3C19B)	0.277	-0.736	0.159	-23.804	39.185	-28.870	-60.01	60.96	-2.30	-56.154	-31.360	73.892	0.78571	-0.48767	0.37540	0.06186	30.7	13111	100
2025-3-27 18:50:14.717	WT901BLE68-01(48591DE3C19B)	0.277	-0.768	0.144	-25.513	55.176	-70.923	-62.17	60.28	-4.52	-56.154	-31.360	73.892	0.78571	-0.48767	0.37540	0.06186	30.7	13111	100
2025-3-27 18:50:14.717	WT901BLE68-01(48591DE3C19B)	0.176	-0.768	0.144	-25.513	55.176	-70.923	-64.24	59.56	-6.63	-56.154	-31.360	73.892	0.78571	-0.48767	0.37540	0.06186	30.7	13111	100
2025-3-27 18:50:14.717	WT901BLE68-01(48591DE3C19B)	0.176	-0.829	0.144	-20.691	56.213	-110.779	-66.43	58.45	-8.97	-56.154	-31.360	73.892	0.78571	-0.48767	0.37540	0.06186	30.7	13111	100
2025-3-27 18:50:14.748	WT901BLE68-01(48591DE3C19B)	0.051	-0.829	0.144	-20.691	56.213	-110.779	-68.46	57.29	-11.15	-56.154	-31.360	73.892	0.78571	-0.48767	0.37540	0.06186	30.7	13111	100
2025-3-27 18:50:14.748	WT901BLE68-01(48591DE3C19B)	0.051	-0.877	0.139	-13.489	48.523	-145.508	-70.33	55.76	-13.27	-56.154	-31.360	73.892	0.78571	-0.48767	0.37540	0.06186	30.7	13111	100
2025-3-27 18:50:14.748	WT901BLE68-01(48591DE3C19B)	-0.095	-0.877	0.139	-13.489	48.523	-145.508	-72.03	54.21	-15.20	-56.154	-31.360	73.892	0.78571	-0.48767	0.37540	0.06186	30.7	13111	100
2025-3-27 18:50:14.749	WT901BLE68-01(48591DE3C19B)	-0.095	-0.947	0.137	-6.775	30.640	-176.270	-73.38	52.29	-16.85	-56.154	-31.360	73.892	0.78571	-0.48767	0.37540	0.06186	30.7	13111	100
2025-3-27 18:50:14.808	WT901BLE68-01(48591DE3C19B)	-0.170	-0.947	0.137	-6.775	30.640	-176.270	-74.59	50.37	-18.34	-56.154	-31.360	73.892	0.78571	-0.48767	0.37540	0.06186	30.7	13111	100
2025-3-27 18:50:14.808	WT901BLE68-01(48591DE3C19B)	-0.170	-0.989	0.143	-3.357	7.263	-205.872	-75.46	48.10	-19.48	-56.154	-31.360	73.892	0.78571	-0.48767	0.37540	0.06186	30.7	13111	100
2025-3-27 18:50:14.808	WT901BLE68-01(48591DE3C19B)	-0.217	-0.989	0.143	-3.357	7.263	-205.872	-76.22	45.84	-20.51	-56.154	-31.360	73.892	0.78571	-0.48767	0.37540	0.06186	30.7	13111	100
2025-3-27 18:50:14.808	WT901BLE68-01(48591DE3C19B)	-0.217	-1.009	0.158	-4.089	-15.930	-233.154	-76.74	43.28	-21.23	-56.154	-31.360	73.892	0.78571	-0.48767	0.37540	0.06186	30.7	13111	100
2025-3-27 18:50:14.840	WT901BLE68-01(48591DE3C19B)	-0.279	-1.009	0.158	-4.089	-15.930	-233.154	-77.20	40.73	-21.87	-56.154	-31.360	73.892	0.78571	-0.48767	0.37540	0.06186	30.7	13111	100
2025-3-27 18:50:14.841	WT901BLE68-01(48591DE3C19B)	-0.279	-1.051	0.179	-8.118	-37.964	-259.094	-77.50	37.90	-22.26	-56.154	-31.360	73.892	0.78571	-0.48767	0.37540	0.06186	30.7	13111	100
2025-3-27 18:50:14.841	WT901BLE68-01(48591DE3C19B)	-0.307	-1.051	0.179	-8.118	-37.964	-259.094	-77.78	35.10	-22.61	-56.154	-31.360	73.892	0.78571	-0.48767	0.37540	0.06186	30.7	13111	100
2025-3-27 18:50:14.841	WT901BLE68-01(48591DE3C19B)	-0.307	-1.113	0.185	-12.329	-55.420	-282.654	-77.98	32.05	-22.78	-56.154	-31.360	73.892	0.78571	-0.48767	0.37540	0.06186	30.7	13111	100
2025-3-27 18:50:14.870	WT901BLE68-01(48591DE3C19B)	-0.305	-1.113	0.185	-12.329	-55.420	-282.654	-78.16	29.02	-22.93	-56.154	-31.360	73.892	0.78571	-0.48767	0.37540	0.06186	30.7	13111	100
2025-3-27 18:50:14.870	WT901BLE68-01(48591DE3C19B)	-0.305	-1.153	0.199	-18.433	-63.782	-300.903	-78.37	25.83	-23.01	-56.154	-31.360	73.892	0.78571	-0.48767	0.37540	0.06186	30.7	13111	100
2025-3-27 18:50:14.870	WT901BLE68-01(48591DE3C19B)	-0.358	-1.153	0.199	-18.433	-63.782	-300.903	-78.57	22.65	-23.06	-56.154	-31.360	73.892	0.76843	-0.57791	0.27307	-0.02982	30.7	13111	100
2025-3-27 18:50:14.870	WT901BLE68-01(48591DE3C19B)	-0.358	-1.190	0.252	-27.466	-67.444	-314.087	-78.84	19.37	-23.08	-56.154	-31.360	73.892	0.76843	-0.57791	0.27307	-0.02982	30.7	13111	100
2025-3-27 18:50:14.928	WT901BLE68-01(48591DE3C19B)	-0.466	-1.190	0.252	-27.466	-67.444	-314.087	-79.11	16.11	-23.09	-56.154	-31.360	73.892	0.76843	-0.57791	0.27307	-0.02982	30.7	13111	100
2025-3-27 18:50:14.929	WT901BLE68-01(48591DE3C19B)	-0.466	-1.267	0.318	-38.086	-68.848	-320.923	-79.47	12.81	-23.07	-56.154	-31.360	73.892	0.76843	-0.57791	0.27307	-0.02982	30.7	13111	100
2025-3-27 18:50:14.929	WT901BLE68-01(48591DE3C19B)	-0.510	-1.267	0.318	-38.086	-68.848	-320.923	-79.83	9.54	-23.02	-56.154	-31.360	73.892	0.76843	-0.57791	0.27307	-0.02982	30.7	13111	100
2025-3-27 18:50:14.929	WT901BLE68-01(48591DE3C19B)	-0.510	-1.346	0.363	-46.814	-67.200	-322.510	-80.27	6.27	-22.96	-56.154	-31.360	73.892	0.76843	-0.57791	0.27307	-0.02982	30.7	13111	100
2025-3-27 18:50:14.957	WT901BLE68-01(48591DE3C19B)	-0.522	-1.346	0.363	-46.814	-67.200	-322.510	-80.71	3.04	-22.88	-56.154	-31.360	73.892	0.76843	-0.57791	0.27307	-0.02982	30.7	13111	100
2025-3-27 18:50:14.957	WT901BLE68-01(48591DE3C19B)	-0.522	-1.427	0.371	-54.138	-60.242	-314.697	-81.23	-0.08	-22.82	-56.154	-31.360	73.892	0.76843	-0.57791	0.27307	-0.02982	30.7	13111	100
2025-3-27 18:50:14.957	WT901BLE68-01(48591DE3C19B)	-0.532	-1.427	0.371	-54.138	-60.242	-314.697	-81.74	-3.18	-22.73	-56.154	-31.360	73.892	0.76843	-0.57791	0.27307	-0.02982	30.7	13111	100
2025-3-27 18:50:14.958	WT901BLE68-01(48591DE3C19B)	-0.540	-1.537	0.393	-57.983	-53.711	-303.223	-82.30	-6.14	-22.65	-56.154	-31.360	73.892	0.76843	-0.57791	0.27307	-0.02982	30.7	13111	100
2025-3-27 18:50:14.988	WT901BLE68-01(48591DE3C19B)	-0.540	-1.626	0.422	-60.242	-49.988	-284.485	-82.86	-8.98	-22.55	-56.154	-31.360	73.892	0.76843	-0.57791	0.27307	-0.02982	30.7	13111	100
2025-3-27 18:50:14.988	WT901BLE68-01(48591DE3C19B)	-0.440	-1.626	0.422	-60.242	-49.988	-284.485	-83.45	-11.70	-22.43	-56.154	-31.360	73.892	0.76843	-0.57791	0.27307	-0.02982	30.7	13111	100
2025-3-27 18:50:14.988	WT901BLE68-01(48591DE3C19B)	-0.440	-1.724	0.450	-61.829	-26.672	-260.681	-84.03	-14.28	-22.38	-56.154	-31.360	73.892	0.76843	-0.57791	0.27307	-0.02982	30.7	13111	100
2025-3-27 18:50:14.988	WT901BLE68-01(48591DE3C19B)	-0.371	-1.724	0.450	-61.829	-26.672	-260.681	-84.59	-16.71	-22.41	-56.154	-31.360	73.892	0.76843	-0.57791	0.27307	-0.02982	30.7	13111	100
2025-3-27 18:50:15.78	WT901BLE68-01(48591DE3C19B)	-0.371	-1.854	0.493	-56.335	46.021	-233.948	-85.02	-18.97	-22.79	-56.154	-31.360	73.892	0.76843	-0.57791	0.27307	-0.02982	30.7	13111	100
2025-3-27 18:50:15.79	WT901BLE68-01(48591DE3C19B)	-0.488	-1.854	0.493	-56.335	46.021	-233.948	-85.28	-21.06	-23.53	-56.154	-31.360	73.892	0.76843	-0.57791	0.27307	-0.02982	30.7	13111	100
2025-3-27 18:50:15.79	WT901BLE68-01(48591DE3C19B)	-0.488	-1.934	0.518	-36.743	130.981	-201.782	-85.24	-22.93	-24.71	-56.154	-31.360	73.892	0.76843	-0.57791	0.27307	-0.02982	30.7	13111	100
2025-3-27 18:50:15.79	WT901BLE68-01(48591DE3C19B)	-0.644	-1.934	0.518	-36.743	130.981	-201.782	-84.90	-24.61	-26.35	-56.154	-31.360	73.892	0.76843	-0.57791	0.27307	-0.02982	30.7	13111	100
2025-3-27 18:50:15.80	WT901BLE68-01(48591DE3C19B)	-0.644	-1.752	0.491	-13.306	197.632	-165.344	-84.23	-26.04	-28.37	-56.154	-31.360	73.892	0.76843	-0.57791	0.27307	-0.02982	30.7	13111	100
2025-3-27 18:50:15.80	WT901BLE68-01(48591DE3C19B)	-0.731	-1.752	0.491	-13.306	197.632	-165.344	-83.24	-27.22	-30.77	-56.154	-31.360	73.892	0.76843	-0.57791	0.27307	-0.02982	30.7	13111	100
2025-3-27 18:50:15.80	WT901BLE68-01(48591DE3C19B)	-0.731	-1.449	0.358	2.197	245.483	-126.038	-82.00	-28.13	-33.44	-56.154	-31.360	73.892	0.76843	-0.57791	0.27307	-0.02982	30.7	13111	100
2025-3-27 18:50:15.80	WT901BLE68-01(48591DE3C19B)	-0.820	-1.449	0.358	2.197	245.483	-126.038	-80.55	-28.73	-36.37	-50.568	-30.870	77.322	0.76843	-0.57791	0.27307	-0.02982	30.7	13111	100
2025-3-27 18:50:15.228	WT901BLE68-01(48591DE3C19B)	-0.820	-1.110	0.205	5.188	264.709	-83.984	-79.02	-29.04	-39.38	-50.568	-30.870	77.322	0.76843	-0.57791	0.27307	-0.02982	30.7	13111	100
2025-3-27 18:50:15.228	WT901BLE68-01(48591DE3C19B)	-0.901	-1.110	0.205	5.188	264.709	-83.984	-77.46	-29.05	-42.45	-50.568	-30.870	77.322	0.76843	-0.57791	0.27307	-0.02982	30.7	13111	100
2025-3-27 18:50:15.229	WT901BLE68-01(48591DE3C19B)	-0.901	-0.904	0.183	-5.310	234.253	-38.879	-76.09	-28.78	-45.26	-50.568	-30.870	77.322	0.76843	-0.57791	0.27307	-0.02982	30.7	13111	100
2025-3-27 18:50:15.229	WT901BLE68-01(48591DE3C19B)	-0.984	-0.904	0.183	-5.310	234.253	-38.879	-74.92	-28.28	-47.80	-50.568	-30.870	77.322	0.76843	-0.57791	0.27307	-0.02982	30.7	13111	100
2025-3-27 18:50:15.229	WT901BLE68-01(48591DE3C19B)	-0.984	-0.853	0.268	-18.372	153.625	4.944	-74.11	-27.64	-49.80	-50.568	-30.870	77.322	0.76843	-0.57791	0.27307	-0.02982	30.7	13111	100
2025-3-27 18:50:15.229	WT901BLE68-01(48591DE3C19B)	-1.034	-0.853	0.268	-18.372	153.625	4.944	-73.64	-26.87	-51.25	-50.568	-30.870	77.322	0.76843	-0.57791	0.27307	-0.02982	30.7	13111	100
2025-3-27 18:50:15.229	WT901BLE68-01(48591DE3C19B)	-1.034	-0.771	0.278	-26.367	58.594	42.480	-73.49	-26.03	-52.11	-50.568	-30.870	77.322	0.76843	-0.57791	0.27307	-0.02982	30.7	13111	100
2025-3-27 18:50:15.229	WT901BLE68-01(48591DE3C19B)	-1.017	-0.771	0.278	-26.367	58.594	42.480	-73.65	-25.15	-52.39	-50.568	-30.870	77.322	0.76843	-0.57791	0.27307	-0.02982	30.7	13111	100
2025-3-27 18:50:15.230	WT901BLE68-01(48591DE3C19B)	-1.017	-0.691	0.202	-36.438	-24.719	81.238	-74.07	-24.20	-52.17	-50.568	-30.870	77.322	0.76843	-0.57791	0.27307	-0.02982	30.7	13111	100
2025-3-27 18:50:15.230	WT901BLE68-01(48591DE3C19B)	-1.022	-0.691	0.202	-36.438	-24.719	81.238	-74.75	-23.17	-51.45	-50.568	-30.870	77.322	0.76843	-0.57791	0.27307	-0.02982	30.7	13111	100
2025-3-27 18:50:15.230	WT901BLE68-01(48591DE3C19B)	-1.022	-0.746	0.107	-43.457	-96.497	116.089	-75.60	-22.05	-50.32	-50.568	-30.870	77.322	0.76843	-0.57791	0.27307	-0.02982	30.7	13111	100
2025-3-27 18:50:15.230	WT901BLE68-01(48591DE3C19B)	-0.901	-0.746	0.107	-43.457	-96.497	116.089	-76.62	-20.83	-48.80	-50.568	-30.870	77.322	0.76843	-0.57791	0.27307	-0.02982	30.7	13111	100
2025-3-27 18:50:15.231	WT901BLE68-01(48591DE3C19B)	-0.901	-0.878	0.038	-44.861	-158.630	146.729	-77.72	-19.51	-46.96	-50.568	-30.870	77.322	0.76843	-0.57791	0.27307	-0.02982	30.7	13111	100
2025-3-27 18:50:15.231	WT901BLE68-01(48591DE3C19B)	-0.710	-0.878	0.038	-44.861	-158.630	146.729	-78.90	-18.07	-44.80	-50.568	-30.870	77.322	0.76843	-0.57791	0.27307	-0.02982	30.7	13111	100
2025-3-27 18:50:15.231	WT901BLE68-01(48591DE3C19B)	-0.710	-1.006	0.028	-38.574	-205.872	175.110	-80.05	-16.50	-42.43	-50.568	-30.870	77.322	0.76843	-0.57791	0.27307	-0.02982	30.7	13111	100
2025-3-27 18:50:15.232	WT901BLE68-01(48591DE3C19B)	-0.507	-1.006	0.028	-38.574	-205.872	175.110	-81.15	-14.80	-39.86	-50.568	-30.870	77.322	0.76843	-0.57791	0.27307	-0.02982	30.7	13111	100
2025-3-27 18:50:15.288	WT901BLE68-01(48591DE3C19B)	-0.507	-1.138	0.060	-23.254	-234.802	196.777	-82.13	-12.99	-37.19	-50.568	-30.870	77.322	0.76843	-0.57791	0.27307	-0.02982	30.7	13111	100
2025-3-27 18:50:15.289	WT901BLE68-01(48591DE3C19B)	-0.296	-1.138	0.060	-23.254	-234.802	196.777	-82.96	-11.05	-34.43	-50.568	-30.870	77.322	0.76843	-0.57791	0.27307	-0.02982	30.7	13111	100
2025-3-27 18:50:15.289	WT901BLE68-01(48591DE3C19B)	-0.296	-1.239	0.104	-0.549	-239.441	211.121	-83.57	-9.04	-31.70	-50.568	-30.870	77.322	0.76843	-0.57791	0.27307	-0.02982	30.7	13111	100
2025-3-27 18:50:15.289	WT901BLE68-01(48591DE3C19B)	-0.104	-1.239	0.104	-0.549	-239.441	211.121	-83.96	-6.96	-28.99	-50.568	-30.870	77.322	0.71170	-0.65872	0.12259	-0.21078	30.7	13111	100
2025-3-27 18:50:15.317	WT901BLE68-01(48591DE3C19B)	-0.104	-1.266	0.142	23.560	-209.290	218.689	-84.11	-4.83	-26.47	-50.568	-30.870	77.322	0.71170	-0.65872	0.12259	-0.21078	30.7	13111	100
2025-3-27 18:50:15.318	WT901BLE68-01(48591DE3C19B)	-0.019	-1.266	0.142	23.560	-209.290	218.689	-84.02	-2.69	-24.13	-50.568	-30.870	77.322	0.71170	-0.65872	0.12259	-0.21078	30.7	13111	100
2025-3-27 18:50:15.318	WT901BLE68-01(48591DE3C19B)	-0.019	-1.239	0.173	42.480	-149.536	220.032	-83.75	-0.53	-22.10	-50.568	-30.870	77.322	0.71170	-0.65872	0.12259	-0.21078	30.7	13111	100
2025-3-27 18:50:15.318	WT901BLE68-01(48591DE3C19B)	-0.038	-1.239	0.173	42.480	-149.536	220.032	-83.30	1.63	-20.38	-50.568	-30.870	77.322	0.71170	-0.65872	0.12259	-0.21078	30.7	13111	100
2025-3-27 18:50:15.378	WT901BLE68-01(48591DE3C19B)	-0.038	-1.218	0.203	53.650	-80.566	217.041	-82.75	3.77	-19.00	-50.568	-30.870	77.322	0.71170	-0.65872	0.12259	-0.21078	30.7	13111	100
2025-3-27 18:50:15.378	WT901BLE68-01(48591DE3C19B)	-0.119	-1.218	0.203	53.650	-80.566	217.041	-82.11	5.90	-17.95	-50.568	-30.870	77.322	0.71170	-0.65872	0.12259	-0.21078	30.7	13111	100
2025-3-27 18:50:15.378	WT901BLE68-01(48591DE3C19B)	-0.119	-1.260	0.276	58.838	-19.531	217.346	-81.45	8.04	-17.19	-50.568	-30.870	77.322	0.71170	-0.65872	0.12259	-0.21078	30.7	13111	100
2025-3-27 18:50:15.378	WT901BLE68-01(48591DE3C19B)	-0.169	-1.260	0.276	58.838	-19.531	217.346	-80.78	10.21	-16.72	-50.568	-30.870	77.322	0.71170	-0.65872	0.12259	-0.21078	30.7	13111	100
2025-3-27 18:50:15.407	WT901BLE68-01(48591DE3C19B)	-0.169	-1.337	0.261	59.570	29.907	220.337	-80.13	12.40	-16.47	-50.568	-30.870	77.322	0.71170	-0.65872	0.12259	-0.21078	30.7	13111	100
2025-3-27 18:50:15.407	WT901BLE68-01(48591DE3C19B)	-0.194	-1.337	0.261	59.570	29.907	220.337	-79.51	14.62	-16.45	-50.568	-30.870	77.322	0.71170	-0.65872	0.12259	-0.21078	30.7	13111	100
2025-3-27 18:50:15.407	WT901BLE68-01(48591DE3C19B)	-0.194	-1.310	0.229	59.448	68.848	224.121	-78.95	16.89	-16.59	-50.568	-30.870	77.322	0.71170	-0.65872	0.12259	-0.21078	30.7	13111	100
2025-3-27 18:50:15.407	WT901BLE68-01(48591DE3C19B)	-0.242	-1.310	0.229	59.448	68.848	224.121	-78.45	19.19	-16.93	-50.568	-30.870	77.322	0.71170	-0.65872	0.12259	-0.21078	30.7	13111	100
2025-3-27 18:50:15.438	WT901BLE68-01(48591DE3C19B)	-0.242	-1.329	0.186	49.255	92.163	229.675	-78.05	21.53	-17.36	-50.568	-30.870	77.322	0.71170	-0.65872	0.12259	-0.21078	30.7	13111	100
2025-3-27 18:50:15.438	WT901BLE68-01(48591DE3C19B)	-0.285	-1.329	0.186	49.255	92.163	229.675	-77.76	23.91	-17.91	-50.568	-30.870	77.322	0.71170	-0.65872	0.12259	-0.21078	30.7	13111	100
2025-3-27 18:50:15.438	WT901BLE68-01(48591DE3C19B)	-0.285	-1.475	0.125	35.278	99.854	233.826	-77.57	26.30	-18.48	-50.568	-30.870	77.322	0.71170	-0.65872	0.12259	-0.21078	30.7	13111	100
2025-3-27 18:50:15.439	WT901BLE68-01(48591DE3C19B)	-0.305	-1.475	0.125	35.278	99.854	233.826	-77.51	28.71	-19.11	-50.568	-30.870	77.322	0.71170	-0.65872	0.12259	-0.21078	30.7	13111	100
2025-3-27 18:50:15.498	WT901BLE68-01(48591DE3C19B)	-0.305	-1.661	0.056	22.400	89.539	234.802	-77.54	31.09	-19.63	-50.568	-30.870	77.322	0.71170	-0.65872	0.12259	-0.21078	30.7	13111	100
2025-3-27 18:50:15.498	WT901BLE68-01(48591DE3C19B)	-0.317	-1.661	0.056	22.400	89.539	234.802	-77.60	33.45	-20.16	-50.568	-30.870	77.322	0.71170	-0.65872	0.12259	-0.21078	30.7	13111	100
2025-3-27 18:50:15.498	WT901BLE68-01(48591DE3C19B)	-0.317	-1.854	-0.006	11.169	67.139	232.666	-77.66	35.73	-20.46	-50.568	-30.870	77.322	0.71170	-0.65872	0.12259	-0.21078	30.7	13111	100
2025-3-27 18:50:15.498	WT901BLE68-01(48591DE3C19B)	-0.331	-1.854	-0.006	11.169	67.139	232.666	-77.74	38.00	-20.76	-50.568	-30.870	77.322	0.71170	-0.65872	0.12259	-0.21078	30.7	13111	100
2025-3-27 18:50:15.528	WT901BLE68-01(48591DE3C19B)	-0.331	-1.969	-0.032	6.042	33.997	227.966	-77.63	40.14	-20.69	-59.976	-39.298	72.422	0.71170	-0.65872	0.12259	-0.21078	30.7	13111	100
2025-3-27 18:50:15.528	WT901BLE68-01(48591DE3C19B)	-0.318	-1.969	-0.032	6.042	33.997	227.966	-77.53	42.26	-20.60	-59.976	-39.298	72.422	0.71170	-0.65872	0.12259	-0.21078	30.7	13111	100
2025-3-27 18:50:15.528	WT901BLE68-01(48591DE3C19B)	-0.318	-1.907	0.011	4.822	-9.644	215.759	-77.05	44.16	-19.96	-59.976	-39.298	72.422	0.71170	-0.65872	0.12259	-0.21078	30.7	13111	100
2025-3-27 18:50:15.528	WT901BLE68-01(48591DE3C19B)	-0.259	-1.907	0.011	4.822	-9.644	215.759	-76.53	46.04	-19.29	-59.976	-39.298	72.422	0.71170	-0.65872	0.12259	-0.21078	30.7	13111	100
2025-3-27 18:50:15.558	WT901BLE68-01(48591DE3C19B)	-0.259	-1.831	0.063	0.305	-55.298	192.505	-75.60	47.58	-18.00	-59.976	-39.298	72.422	0.71170	-0.65872	0.12259	-0.21078	30.7	13111	100
2025-3-27 18:50:15.558	WT901BLE68-01(48591DE3C19B)	-0.148	-1.831	0.063	0.305	-55.298	192.505	-74.59	49.08	-16.65	-59.976	-39.298	72.422	0.71170	-0.65872	0.12259	-0.21078	30.7	13111	100
2025-3-27 18:50:15.558	WT901BLE68-01(48591DE3C19B)	-0.148	-1.719	0.112	2.808	-94.238	161.743	-73.15	50.16	-14.78	-59.976	-39.298	72.422	0.71170	-0.65872	0.12259	-0.21078	30.7	13111	100
2025-3-27 18:50:15.559	WT901BLE68-01(48591DE3C19B)	0.059	-1.719	0.112	2.808	-94.238	161.743	-71.63	51.19	-12.84	-59.976	-39.298	72.422	0.71170	-0.65872	0.12259	-0.21078	30.7	13111	100
2025-3-27 18:50:15.617	WT901BLE68-01(48591DE3C19B)	0.059	-1.590	0.125	8.301	-112.061	125.916	-69.92	51.79	-10.76	-59.976	-39.298	72.422	0.71170	-0.65872	0.12259	-0.21078	30.7	13111	100
2025-3-27 18:50:15.618	WT901BLE68-01(48591DE3C19B)	0.287	-1.590	0.125	8.301	-112.061	125.916	-68.18	52.34	-8.65	-59.976	-39.298	72.422	0.71170	-0.65872	0.12259	-0.21078	30.7	13111	100
2025-3-27 18:50:15.618	WT901BLE68-01(48591DE3C19B)	0.287	-1.373	0.053	15.686	-92.285	90.515	-66.74	52.59	-7.03	-59.976	-39.298	72.422	0.71170	-0.65872	0.12259	-0.21078	30.7	13111	100
2025-3-27 18:50:15.618	WT901BLE68-01(48591DE3C19B)	0.378	-1.373	0.053	15.686	-92.285	90.515	-65.31	52.81	-5.41	-59.976	-39.298	72.422	0.71170	-0.65872	0.12259	-0.21078	30.7	13111	100
2025-3-27 18:50:15.648	WT901BLE68-01(48591DE3C19B)	0.378	-1.062	0.052	11.230	-48.157	54.260	-64.65	52.87	-4.70	-59.976	-39.298	72.422	0.71170	-0.65872	0.12259	-0.21078	30.7	13111	100
2025-3-27 18:50:15.649	WT901BLE68-01(48591DE3C19B)	0.315	-1.062	0.052	11.230	-48.157	54.260	-64.00	52.90	-4.02	-59.976	-39.298	72.422	0.71170	-0.65872	0.12259	-0.21078	30.7	13111	100
2025-3-27 18:50:15.649	WT901BLE68-01(48591DE3C19B)	0.315	-0.937	0.065	-2.686	-13.977	13.611	-64.14	52.72	-4.14	-59.976	-39.298	72.422	0.71170	-0.65872	0.12259	-0.21078	30.7	13111	100
2025-3-27 18:50:15.649	WT901BLE68-01(48591DE3C19B)	0.264	-0.937	0.065	-2.686	-13.977	13.611	-64.29	52.54	-4.27	-59.976	-39.298	72.422	0.71170	-0.65872	0.12259	-0.21078	30.7	13111	100
2025-3-27 18:50:15.707	WT901BLE68-01(48591DE3C19B)	0.264	-0.942	0.118	-5.188	8.911	-32.776	-64.98	52.03	-5.06	-59.976	-39.298	72.422	0.71170	-0.65872	0.12259	-0.21078	30.7	13111	100
2025-3-27 18:50:15.707	WT901BLE68-01(48591DE3C19B)	0.260	-0.942	0.118	-5.188	8.911	-32.776	-65.65	51.51	-5.84	-59.976	-39.298	72.422	0.71170	-0.65872	0.12259	-0.21078	30.7	13111	100
2025-3-27 18:50:15.708	WT901BLE68-01(48591DE3C19B)	0.260	-0.902	0.164	-4.272	19.775	-74.280	-66.62	50.65	-7.01	-59.976	-39.298	72.422	0.76852	-0.47580	0.38602	0.18402	30.7	13111	100
2025-3-27 18:50:15.708	WT901BLE68-01(48591DE3C19B)	0.239	-0.902	0.164	-4.272	19.775	-74.280	-67.54	49.78	-8.15	-59.976	-39.298	72.422	0.76852	-0.47580	0.38602	0.18402	30.7	13111	100
2025-3-27 18:50:15.738	WT901BLE68-01(48591DE3C19B)	0.239	-0.874	0.205	-6.042	24.109	-108.521	-68.62	48.60	-9.49	-59.976	-39.298	72.422	0.76852	-0.47580	0.38602	0.18402	30.7	13111	100
2025-3-27 18:50:15.738	WT901BLE68-01(48591DE3C19B)	0.179	-0.874	0.205	-6.042	24.109	-108.521	-69.63	47.40	-10.76	-59.976	-39.298	72.422	0.76852	-0.47580	0.38602	0.18402	30.7	13111	100
2025-3-27 18:50:15.738	WT901BLE68-01(48591DE3C19B)	0.179	-0.878	0.241	-6.653	26.001	-136.108	-70.68	45.94	-12.13	-59.976	-39.298	72.422	0.76852	-0.47580	0.38602	0.18402	30.7	13111	100
2025-3-27 18:50:15.738	WT901BLE68-01(48591DE3C19B)	0.111	-0.878	0.241	-6.653	26.001	-136.108	-71.66	44.47	-13.42	-59.976	-39.298	72.422	0.76852	-0.47580	0.38602	0.18402	30.7	13111	100
2025-3-27 18:50:15.767	WT901BLE68-01(48591DE3C19B)	0.111	-0.866	0.242	-5.920	25.330	-159.363	-72.60	42.76	-14.72	-59.976	-39.298	72.422	0.76852	-0.47580	0.38602	0.18402	30.7	13111	100
2025-3-27 18:50:15.767	WT901BLE68-01(48591DE3C19B)	0.060	-0.866	0.242	-5.920	25.330	-159.363	-73.47	41.06	-15.95	-59.976	-39.298	72.422	0.76852	-0.47580	0.38602	0.18402	30.7	13111	100
2025-3-27 18:50:15.768	WT901BLE68-01(48591DE3C19B)	0.060	-0.829	0.217	-5.920	23.132	-180.298	-74.29	39.14	-17.15	-59.976	-39.298	72.422	0.76852	-0.47580	0.38602	0.18402	30.7	13111	100
2025-3-27 18:50:15.768	WT901BLE68-01(48591DE3C19B)	0.017	-0.829	0.217	-5.920	23.132	-180.298	-75.03	37.22	-18.28	-59.976	-39.298	72.422	0.76852	-0.47580	0.38602	0.18402	30.7	13111	100
2025-3-27 18:50:15.797	WT901BLE68-01(48591DE3C19B)	0.017	-0.832	0.180	-9.949	23.560	-201.477	-75.78	35.10	-19.42	-59.976	-39.298	72.422	0.76852	-0.47580	0.38602	0.18402	30.7	13111	100
2025-3-27 18:50:15.798	WT901BLE68-01(48591DE3C19B)	-0.063	-0.832	0.180	-9.949	23.560	-201.477	-76.45	32.98	-20.48	-59.976	-39.298	72.422	0.76852	-0.47580	0.38602	0.18402	30.7	13111	100
2025-3-27 18:50:15.798	WT901BLE68-01(48591DE3C19B)	-0.063	-0.873	0.146	-12.146	26.306	-222.900	-77.14	30.66	-21.58	-59.976	-39.298	72.422	0.76852	-0.47580	0.38602	0.18402	30.7	13111	100
2025-3-27 18:50:15.798	WT901BLE68-01(48591DE3C19B)	-0.183	-0.873	0.146	-12.146	26.306	-222.900	-77.74	28.36	-22.60	-59.976	-39.298	72.422	0.76852	-0.47580	0.38602	0.18402	30.7	13111	100
2025-3-27 18:50:15.860	WT901BLE68-01(48591DE3C19B)	-0.183	-0.918	0.153	-13.550	26.245	-242.798	-78.32	25.86	-23.62	-59.976	-39.298	72.422	0.76852	-0.47580	0.38602	0.18402	30.7	13111	100
2025-3-27 18:50:15.860	WT901BLE68-01(48591DE3C19B)	-0.335	-0.918	0.153	-13.550	26.245	-242.798	-78.84	23.38	-24.58	-59.976	-39.298	72.422	0.76852	-0.47580	0.38602	0.18402	30.7	13111	100
2025-3-27 18:50:15.860	WT901BLE68-01(48591DE3C19B)	-0.335	-0.963	0.208	-15.137	20.020	-255.859	-79.30	20.79	-25.44	-59.976	-39.298	72.422	0.76852	-0.47580	0.38602	0.18402	30.7	13111	100
2025-3-27 18:50:15.860	WT901BLE68-01(48591DE3C19B)	-0.481	-0.963	0.208	-15.137	20.020	-255.859	-79.70	18.20	-26.26	-59.976	-39.298	72.422	0.76852	-0.47580	0.38602	0.18402	30.7	13111	100
2025-3-27 18:50:15.889	WT901BLE68-01(48591DE3C19B)	-0.481	-1.018	0.294	-15.991	10.742	-262.634	-80.04	15.57	-26.95	-59.976	-39.298	72.422	0.76852	-0.47580	0.38602	0.18402	30.7	13111	100
2025-3-27 18:50:15.889	WT901BLE68-01(48591DE3C19B)	-0.575	-1.018	0.294	-15.991	10.742	-262.634	-80.34	12.96	-27.61	-59.976	-39.298	72.422	0.76852	-0.47580	0.38602	0.18402	30.7	13111	100
2025-3-27 18:50:15.889	WT901BLE68-01(48591DE3C19B)	-0.575	-1.044	0.360	-14.282	3.235	-260.437	-80.56	10.38	-28.16	-59.976	-39.298	72.422	0.76852	-0.47580	0.38602	0.18402	30.7	13111	100
2025-3-27 18:50:15.889	WT901BLE68-01(48591DE3C19B)	-0.552	-1.044	0.360	-14.282	3.235	-260.437	-80.76	7.83	-28.69	-61.250	-43.610	71.246	0.76852	-0.47580	0.38602	0.18402	30.7	13111	100
2025-3-27 18:50:15.921	WT901BLE68-01(48591DE3C19B)	-0.502	-1.042	0.340	-13.794	3.906	-251.709	-80.91	5.39	-29.19	-61.250	-43.610	71.246	0.76852	-0.47580	0.38602	0.18402	30.7	13111	100
2025-3-27 18:50:15.921	WT901BLE68-01(48591DE3C19B)	-0.502	-1.035	0.297	-12.268	0.366	-240.051	-81.05	3.03	-29.64	-61.250	-43.610	71.246	0.76852	-0.47580	0.38602	0.18402	30.7	13111	100
2025-3-27 18:50:15.921	WT901BLE68-01(48591DE3C19B)	-0.497	-1.035	0.297	-12.268	0.366	-240.051	-81.15	0.74	-30.05	-61.250	-43.610	71.246	0.76852	-0.47580	0.38602	0.18402	30.7	13111	100
2025-3-27 18:50:15.921	WT901BLE68-01(48591DE3C19B)	-0.497	-1.059	0.278	-12.878	-7.751	-223.938	-81.23	-1.45	-30.39	-61.250	-43.610	71.246	0.76852	-0.47580	0.38602	0.18402	30.7	13111	100
2025-3-27 18:50:15.978	WT901BLE68-01(48591DE3C19B)	-0.464	-1.059	0.278	-12.878	-7.751	-223.938	-81.32	-3.55	-30.67	-61.250	-43.610	71.246	0.76852	-0.47580	0.38602	0.18402	30.7	13111	100
2025-3-27 18:50:15.978	WT901BLE68-01(48591DE3C19B)	-0.464	-1.087	0.266	-14.099	-3.174	-209.290	-81.39	-5.56	-30.96	-61.250	-43.610	71.246	0.76852	-0.47580	0.38602	0.18402	30.7	13111	100
2025-3-27 18:50:15.978	WT901BLE68-01(48591DE3C19B)	-0.433	-1.087	0.266	-14.099	-3.174	-209.290	-81.47	-7.49	-31.25	-61.250	-43.610	71.246	0.76852	-0.47580	0.38602	0.18402	30.7	13111	100
2025-3-27 18:50:15.979	WT901BLE68-01(48591DE3C19B)	-0.433	-1.145	0.299	-15.198	16.541	-193.787	-81.52	-9.31	-31.61	-61.250	-43.610	71.246	0.76852	-0.47580	0.38602	0.18402	30.7	13111	100
2025-3-27 18:50:16.7	WT901BLE68-01(48591DE3C19B)	-0.465	-1.145	0.299	-15.198	16.541	-193.787	-81.57	-11.02	-32.06	-61.250	-43.610	71.246	0.76852	-0.47580	0.38602	0.18402	30.7	13111	100
2025-3-27 18:50:16.7	WT901BLE68-01(48591DE3C19B)	-0.465	-1.264	0.370	-14.099	39.368	-177.673	-81.56	-12.63	-32.62	-61.250	-43.610	71.246	0.76852	-0.47580	0.38602	0.18402	30.7	13111	100
2025-3-27 18:50:16.7	WT901BLE68-01(48591DE3C19B)	-0.662	-1.264	0.370	-14.099	39.368	-177.673	-81.52	-14.13	-33.27	-61.250	-43.610	71.246	0.76852	-0.47580	0.38602	0.18402	30.7	13111	100
2025-3-27 18:50:16.7	WT901BLE68-01(48591DE3C19B)	-0.662	-1.391	0.455	-12.817	64.941	-156.067	-81.42	-15.50	-34.04	-61.250	-43.610	71.246	0.76852	-0.47580	0.38602	0.18402	30.7	13111	100
2025-3-27 18:50:16.39	WT901BLE68-01(48591DE3C19B)	-0.891	-1.391	0.455	-12.817	64.941	-156.067	-81.27	-16.73	-34.92	-61.250	-43.610	71.246	0.76852	-0.47580	0.38602	0.18402	30.7	13111	100
2025-3-27 18:50:16.39	WT901BLE68-01(48591DE3C19B)	-0.891	-1.443	0.508	-6.592	75.745	-132.263	-81.05	-17.82	-35.84	-61.250	-43.610	71.246	0.76852	-0.47580	0.38602	0.18402	30.7	13111	100
2025-3-27 18:50:16.39	WT901BLE68-01(48591DE3C19B)	-0.961	-1.443	0.508	-6.592	75.745	-132.263	-80.78	-18.76	-36.80	-61.250	-43.610	71.246	0.76852	-0.47580	0.38602	0.18402	30.7	13111	100
2025-3-27 18:50:16.39	WT901BLE68-01(48591DE3C19B)	-0.961	-1.351	0.504	0.854	73.914	-105.591	-80.47	-19.56	-37.72	-61.250	-43.610	71.246	0.76852	-0.47580	0.38602	0.18402	30.7	13111	100
2025-3-27 18:50:16.159	WT901BLE68-01(48591DE3C19B)	-0.873	-1.351	0.504	0.854	73.914	-105.591	-80.12	-20.21	-38.60	-61.250	-43.610	71.246	0.76852	-0.47580	0.38602	0.18402	30.7	13111	100
2025-3-27 18:50:16.159	WT901BLE68-01(48591DE3C19B)	-0.873	-1.251	0.473	-0.671	66.162	-70.862	-79.80	-20.69	-39.41	-61.250	-43.610	71.246	0.76852	-0.47580	0.38602	0.18402	30.7	13111	100
2025-3-27 18:50:16.159	WT901BLE68-01(48591DE3C19B)	-0.816	-1.251	0.473	-0.671	66.162	-70.862	-79.52	-20.99	-40.14	-61.250	-43.610	71.246	0.76852	-0.47580	0.38602	0.18402	30.7	13111	100
2025-3-27 18:50:16.159	WT901BLE68-01(48591DE3C19B)	-0.816	-1.275	0.426	-6.042	53.955	-32.471	-79.29	-21.10	-40.76	-61.250	-43.610	71.246	0.76852	-0.47580	0.38602	0.18402	30.7	13111	100
2025-3-27 18:50:16.160	WT901BLE68-01(48591DE3C19B)	-0.790	-1.275	0.426	-6.042	53.955	-32.471	-79.14	-21.03	-41.27	-61.250	-43.610	71.246	0.66824	-0.63568	0.08905	-0.37592	30.7	13111	100
2025-3-27 18:50:16.161	WT901BLE68-01(48591DE3C19B)	-0.790	-1.277	0.447	-5.859	28.503	6.958	-79.05	-20.80	-41.61	-61.250	-43.610	71.246	0.66824	-0.63568	0.08905	-0.37592	30.7	13111	100
2025-3-27 18:50:16.161	WT901BLE68-01(48591DE3C19B)	-0.749	-1.277	0.447	-5.859	28.503	6.958	-79.02	-20.39	-41.76	-61.250	-43.610	71.246	0.66824	-0.63568	0.08905	-0.37592	30.7	13111	100
2025-3-27 18:50:16.161	WT901BLE68-01(48591DE3C19B)	-0.749	-1.219	0.488	-10.071	-4.822	43.335	-79.09	-19.83	-41.72	-61.250	-43.610	71.246	0.66824	-0.63568	0.08905	-0.37592	30.7	13111	100
2025-3-27 18:50:16.161	WT901BLE68-01(48591DE3C19B)	-0.696	-1.219	0.488	-10.071	-4.822	43.335	-79.24	-19.13	-41.45	-61.250	-43.610	71.246	0.66824	-0.63568	0.08905	-0.37592	30.7	13111	100
2025-3-27 18:50:16.161	WT901BLE68-01(48591DE3C19B)	-0.696	-1.295	0.466	-13.428	-32.898	77.759	-79.46	-18.30	-41.02	-61.250	-43.610	71.246	0.66824	-0.63568	0.08905	-0.37592	30.7	13111	100
2025-3-27 18:50:16.161	WT901BLE68-01(48591DE3C19B)	-0.617	-1.295	0.466	-13.428	-32.898	77.759	-79.75	-17.31	-40.42	-61.250	-43.610	71.246	0.66824	-0.63568	0.08905	-0.37592	30.7	13111	100
2025-3-27 18:50:16.161	WT901BLE68-01(48591DE3C19B)	-0.617	-1.250	0.395	-7.568	-50.415	113.159	-80.02	-16.18	-39.70	-61.250	-43.610	71.246	0.66824	-0.63568	0.08905	-0.37592	30.7	13111	100
2025-3-27 18:50:16.218	WT901BLE68-01(48591DE3C19B)	-0.480	-1.250	0.395	-7.568	-50.415	113.159	-80.28	-14.90	-38.89	-61.250	-43.610	71.246	0.66824	-0.63568	0.08905	-0.37592	30.7	13111	100
2025-3-27 18:50:16.218	WT901BLE68-01(48591DE3C19B)	-0.480	-1.068	0.335	-4.761	-61.035	147.400	-80.52	-13.46	-38.01	-61.250	-43.610	71.246	0.66824	-0.63568	0.08905	-0.37592	30.7	13111	100
2025-3-27 18:50:16.218	WT901BLE68-01(48591DE3C19B)	-0.366	-1.068	0.335	-4.761	-61.035	147.400	-80.73	-11.87	-37.07	-61.250	-43.610	71.246	0.66824	-0.63568	0.08905	-0.37592	30.7	13111	100
2025-3-27 18:50:16.218	WT901BLE68-01(48591DE3C19B)	-0.366	-0.943	0.299	-5.737	-66.101	177.185	-80.93	-10.13	-36.09	-61.250	-43.610	71.246	0.66824	-0.63568	0.08905	-0.37592	30.7	13111	100
2025-3-27 18:50:16.248	WT901BLE68-01(48591DE3C19B)	-0.313	-0.943	0.299	-5.737	-66.101	177.185	-81.11	-8.28	-35.09	-61.250	-43.610	71.246	0.66824	-0.63568	0.08905	-0.37592	30.7	13111	100
2025-3-27 18:50:16.248	WT901BLE68-01(48591DE3C19B)	-0.313	-0.926	0.287	-6.897	-70.984	196.106	-81.26	-6.34	-34.07	-61.250	-43.610	71.246	0.66824	-0.63568	0.08905	-0.37592	30.7	13111	100
2025-3-27 18:50:16.248	WT901BLE68-01(48591DE3C19B)	-0.286	-0.926	0.287	-6.897	-70.984	196.106	-81.38	-4.32	-33.02	-61.250	-43.610	71.246	0.66824	-0.63568	0.08905	-0.37592	30.7	13111	100
2025-3-27 18:50:16.248	WT901BLE68-01(48591DE3C19B)	-0.286	-1.044	0.274	-4.272	-76.904	203.613	-81.45	-2.29	-31.96	-61.250	-43.610	71.246	0.66824	-0.63568	0.08905	-0.37592	30.7	13111	100
2025-3-27 18:50:16.280	WT901BLE68-01(48591DE3C19B)	-0.262	-1.044	0.274	-4.272	-76.904	203.613	-81.47	-0.25	-30.89	-61.250	-43.610	71.246	0.66824	-0.63568	0.08905	-0.37592	30.7	13111	100
2025-3-27 18:50:16.280	WT901BLE68-01(48591DE3C19B)	-0.262	-1.140	0.278	5.920	-80.688	203.674	-81.39	1.77	-29.80	-61.250	-43.610	71.246	0.66824	-0.63568	0.08905	-0.37592	30.7	13111	100
2025-3-27 18:50:16.280	WT901BLE68-01(48591DE3C19B)	-0.250	-1.140	0.278	5.920	-80.688	203.674	-81.23	3.78	-28.70	-61.250	-43.610	71.246	0.66824	-0.63568	0.08905	-0.37592	30.7	13111	100
2025-3-27 18:50:16.280	WT901BLE68-01(48591DE3C19B)	-0.250	-1.171	0.259	18.799	-73.242	198.303	-80.97	5.74	-27.64	-61.250	-43.610	71.246	0.66824	-0.63568	0.08905	-0.37592	30.7	13111	100
2025-3-27 18:50:16.339	WT901BLE68-01(48591DE3C19B)	-0.261	-1.171	0.259	18.799	-73.242	198.303	-80.62	7.66	-26.63	-61.250	-43.610	71.246	0.66824	-0.63568	0.08905	-0.37592	30.7	13111	100
2025-3-27 18:50:16.339	WT901BLE68-01(48591DE3C19B)	-0.261	-1.138	0.224	29.358	-56.091	188.538	-80.19	9.52	-25.70	-56.742	-47.628	66.836	0.66824	-0.63568	0.08905	-0.37592	30.7	13111	100
2025-3-27 18:50:16.339	WT901BLE68-01(48591DE3C19B)	-0.294	-1.138	0.224	29.358	-56.091	188.538	-79.71	11.32	-24.85	-56.742	-47.628	66.836	0.66824	-0.63568	0.08905	-0.37592	30.7	13111	100
2025-3-27 18:50:16.339	WT901BLE68-01(48591DE3C19B)	-0.294	-1.133	0.169	36.011	-34.302	177.429	-79.18	13.07	-24.11	-56.742	-47.628	66.836	0.66824	-0.63568	0.08905	-0.37592	30.7	13111	100
2025-3-27 18:50:16.368	WT901BLE68-01(48591DE3C19B)	-0.338	-1.133	0.169	36.011	-34.302	177.429	-78.63	14.77	-23.47	-56.742	-47.628	66.836	0.66824	-0.63568	0.08905	-0.37592	30.7	13111	100
2025-3-27 18:50:16.368	WT901BLE68-01(48591DE3C19B)	-0.338	-1.145	0.122	42.175	-20.447	166.992	-78.06	16.41	-22.90	-56.742	-47.628	66.836	0.66824	-0.63568	0.08905	-0.37592	30.7	13111	100
2025-3-27 18:50:16.368	WT901BLE68-01(48591DE3C19B)	-0.336	-1.145	0.122	42.175	-20.447	166.992	-77.46	18.00	-22.39	-56.742	-47.628	66.836	0.66824	-0.63568	0.08905	-0.37592	30.7	13111	100
2025-3-27 18:50:16.368	WT901BLE68-01(48591DE3C19B)	-0.336	-1.136	0.093	46.143	-17.944	160.034	-76.82	19.51	-21.91	-56.742	-47.628	66.836	0.66824	-0.63568	0.08905	-0.37592	30.7	13111	100
2025-3-27 18:50:16.398	WT901BLE68-01(48591DE3C19B)	-0.300	-1.136	0.093	46.143	-17.944	160.034	-76.17	21.00	-21.41	-56.742	-47.628	66.836	0.66824	-0.63568	0.08905	-0.37592	30.7	13111	100
2025-3-27 18:50:16.398	WT901BLE68-01(48591DE3C19B)	-0.300	-1.108	0.061	48.950	-18.250	158.752	-75.49	22.47	-20.89	-56.742	-47.628	66.836	0.66824	-0.63568	0.08905	-0.37592	30.7	13111	100
2025-3-27 18:50:16.398	WT901BLE68-01(48591DE3C19B)	-0.274	-1.108	0.061	48.950	-18.250	158.752	-74.78	23.92	-20.34	-56.742	-47.628	66.836	0.66824	-0.63568	0.08905	-0.37592	30.7	13111	100
2025-3-27 18:50:16.398	WT901BLE68-01(48591DE3C19B)	-0.274	-1.044	0.034	48.950	-18.188	160.400	-74.06	25.37	-19.78	-56.742	-47.628	66.836	0.66824	-0.63568	0.08905	-0.37592	30.7	13111	100
2025-3-27 18:50:16.460	WT901BLE68-01(48591DE3C19B)	-0.237	-1.044	0.034	48.950	-18.188	160.400	-73.32	26.81	-19.18	-56.742	-47.628	66.836	0.66824	-0.63568	0.08905	-0.37592	30.7	13111	100
2025-3-27 18:50:16.460	WT901BLE68-01(48591DE3C19B)	-0.237	-0.999	0.000	45.349	-16.602	162.842	-72.61	28.26	-18.58	-56.742	-47.628	66.836	0.66824	-0.63568	0.08905	-0.37592	30.7	13111	100
2025-3-27 18:50:16.460	WT901BLE68-01(48591DE3C19B)	-0.230	-0.999	0.000	45.349	-16.602	162.842	-71.87	29.69	-17.96	-56.742	-47.628	66.836	0.66824	-0.63568	0.08905	-0.37592	30.7	13111	100
2025-3-27 18:50:16.461	WT901BLE68-01(48591DE3C19B)	-0.230	-0.976	-0.024	38.452	-12.512	164.246	-71.21	31.13	-17.35	-56.742	-47.628	66.836	0.66824	-0.63568	0.08905	-0.37592	30.7	13111	100
2025-3-27 18:50:16.490	WT901BLE68-01(48591DE3C19B)	-0.244	-0.976	-0.024	38.452	-12.512	164.246	-70.52	32.56	-16.72	-56.742	-47.628	66.836	0.66824	-0.63568	0.08905	-0.37592	30.7	13111	100
2025-3-27 18:50:16.490	WT901BLE68-01(48591DE3C19B)	-0.244	-1.019	-0.046	28.381	-10.681	164.185	-69.92	33.98	-16.08	-56.742	-47.628	66.836	0.66824	-0.63568	0.08905	-0.37592	30.7	13111	100
2025-3-27 18:50:16.490	WT901BLE68-01(48591DE3C19B)	-0.229	-1.019	-0.046	28.381	-10.681	164.185	-69.31	35.38	-15.42	-56.742	-47.628	66.836	0.66824	-0.63568	0.08905	-0.37592	30.7	13111	100
2025-3-27 18:50:16.490	WT901BLE68-01(48591DE3C19B)	-0.229	-1.086	-0.045	20.447	-7.935	163.147	-68.77	36.77	-14.78	-56.742	-47.628	66.836	0.79950	-0.49792	0.32706	0.07587	30.7	13111	100
2025-3-27 18:50:16.549	WT901BLE68-01(48591DE3C19B)	-0.216	-1.086	-0.045	20.447	-7.935	163.147	-68.20	38.14	-14.12	-56.742	-47.628	66.836	0.79950	-0.49792	0.32706	0.07587	30.7	13111	100
2025-3-27 18:50:16.549	WT901BLE68-01(48591DE3C19B)	-0.216	-1.104	-0.018	14.343	-4.456	162.537	-67.71	39.51	-13.49	-56.742	-47.628	66.836	0.79950	-0.49792	0.32706	0.07587	30.7	13111	100
2025-3-27 18:50:16.549	WT901BLE68-01(48591DE3C19B)	-0.191	-1.104	-0.018	14.343	-4.456	162.537	-67.19	40.87	-12.83	-56.742	-47.628	66.836	0.79950	-0.49792	0.32706	0.07587	30.7	13111	100
2025-3-27 18:50:16.549	WT901BLE68-01(48591DE3C19B)	-0.191	-1.087	0.014	10.071	4.639	159.851	-66.76	42.23	-12.27	-56.742	-47.628	66.836	0.79950	-0.49792	0.32706	0.07587	30.7	13111	100
2025-3-27 18:50:16.577	WT901BLE68-01(48591DE3C19B)	-0.173	-1.087	0.014	10.071	4.639	159.851	-66.32	43.57	-11.71	-56.742	-47.628	66.836	0.79950	-0.49792	0.32706	0.07587	30.7	13111	100
2025-3-27 18:50:16.577	WT901BLE68-01(48591DE3C19B)	-0.173	-1.039	0.036	4.639	19.775	155.334	-66.06	44.92	-11.34	-56.742	-47.628	66.836	0.79950	-0.49792	0.32706	0.07587	30.7	13111	100
2025-3-27 18:50:16.578	WT901BLE68-01(48591DE3C19B)	-0.150	-1.039	0.036	4.639	19.775	155.334	-65.78	46.26	-10.96	-56.742	-47.628	66.836	0.79950	-0.49792	0.32706	0.07587	30.7	13111	100
2025-3-27 18:50:16.578	WT901BLE68-01(48591DE3C19B)	-0.150	-0.999	0.054	-2.319	39.856	144.775	-65.80	47.58	-10.91	-56.742	-47.628	66.836	0.79950	-0.49792	0.32706	0.07587	30.7	13111	100
2025-3-27 18:50:16.609	WT901BLE68-01(48591DE3C19B)	-0.181	-0.999	0.054	-2.319	39.856	144.775	-65.82	48.89	-10.86	-56.742	-47.628	66.836	0.79950	-0.49792	0.32706	0.07587	30.7	13111	100
2025-3-27 18:50:16.609	WT901BLE68-01(48591DE3C19B)	-0.181	-0.960	0.071	-10.803	54.321	128.296	-66.15	50.10	-11.13	-56.742	-47.628	66.836	0.79950	-0.49792	0.32706	0.07587	30.7	13111	100
2025-3-27 18:50:16.609	WT901BLE68-01(48591DE3C19B)	-0.275	-0.960	0.071	-10.803	54.321	128.296	-66.50	51.30	-11.42	-56.742	-47.628	66.836	0.79950	-0.49792	0.32706	0.07587	30.7	13111	100
2025-3-27 18:50:16.609	WT901BLE68-01(48591DE3C19B)	-0.275	-0.951	0.121	-23.315	44.434	105.591	-66.99	52.26	-11.73	-56.742	-47.628	66.836	0.79950	-0.49792	0.32706	0.07587	30.7	13111	100
2025-3-27 18:50:16.670	WT901BLE68-01(48591DE3C19B)	-0.339	-0.951	0.121	-23.315	44.434	105.591	-67.49	53.20	-12.05	-56.742	-47.628	66.836	0.79950	-0.49792	0.32706	0.07587	30.7	13111	100
2025-3-27 18:50:16.670	WT901BLE68-01(48591DE3C19B)	-0.339	-0.969	0.228	-35.706	12.207	78.491	-67.85	53.77	-12.07	-56.742	-47.628	66.836	0.79950	-0.49792	0.32706	0.07587	30.7	13111	100
2025-3-27 18:50:16.670	WT901BLE68-01(48591DE3C19B)	-0.393	-0.969	0.228	-35.706	12.207	78.491	-68.21	54.34	-12.09	-56.742	-47.628	66.836	0.79950	-0.49792	0.32706	0.07587	30.7	13111	100
2025-3-27 18:50:16.670	WT901BLE68-01(48591DE3C19B)	-0.393	-1.059	0.347	-43.701	-28.992	50.293	-68.25	54.50	-11.63	-56.742	-47.628	66.836	0.79950	-0.49792	0.32706	0.07587	30.7	13111	100
2025-3-27 18:50:16.705	WT901BLE68-01(48591DE3C19B)	-0.419	-1.059	0.347	-43.701	-28.992	50.293	-68.28	54.65	-11.18	-56.742	-47.628	66.836	0.79950	-0.49792	0.32706	0.07587	30.7	13111	100
2025-3-27 18:50:16.705	WT901BLE68-01(48591DE3C19B)	-0.419	-1.092	0.411	-44.189	-75.562	19.470	-67.86	54.35	-10.18	-56.742	-47.628	66.836	0.79950	-0.49792	0.32706	0.07587	30.7	13111	100
2025-3-27 18:50:16.705	WT901BLE68-01(48591DE3C19B)	-0.394	-1.092	0.411	-44.189	-75.562	19.470	-67.45	54.05	-9.20	-56.742	-47.628	66.836	0.79950	-0.49792	0.32706	0.07587	30.7	13111	100
2025-3-27 18:50:16.705	WT901BLE68-01(48591DE3C19B)	-0.394	-1.074	0.492	-42.419	-125.183	-9.827	-66.57	53.28	-7.66	-71.540	-46.550	61.446	0.79950	-0.49792	0.32706	0.07587	30.7	13111	100
2025-3-27 18:50:16.730	WT901BLE68-01(48591DE3C19B)	-0.332	-1.074	0.492	-42.419	-125.183	-9.827	-65.74	52.50	-6.17	-71.540	-46.550	61.446	0.79950	-0.49792	0.32706	0.07587	30.7	13111	100
2025-3-27 18:50:16.730	WT901BLE68-01(48591DE3C19B)	-0.332	-1.023	0.541	-42.236	-164.185	-37.659	-64.66	51.30	-4.37	-71.540	-46.550	61.446	0.79950	-0.49792	0.32706	0.07587	30.7	13111	100
2025-3-27 18:50:16.731	WT901BLE68-01(48591DE3C19B)	-0.146	-1.023	0.541	-42.236	-164.185	-37.659	-63.67	50.08	-2.66	-71.540	-46.550	61.446	0.79950	-0.49792	0.32706	0.07587	30.7	13111	100
2025-3-27 18:50:16.731	WT901BLE68-01(48591DE3C19B)	-0.146	-1.013	0.421	-51.880	-154.358	-67.200	-63.12	48.62	-1.37	-71.540	-46.550	61.446	0.79950	-0.49792	0.32706	0.07587	30.7	13111	100
2025-3-27 18:50:16.818	WT901BLE68-01(48591DE3C19B)	0.006	-1.013	0.421	-51.880	-154.358	-67.200	-62.64	47.16	-0.16	-71.540	-46.550	61.446	0.79950	-0.49792	0.32706	0.07587	30.7	13111	100
2025-3-27 18:50:16.818	WT901BLE68-01(48591DE3C19B)	0.006	-1.001	0.302	-56.824	-97.473	-99.854	-62.96	45.68	0.05	-71.540	-46.550	61.446	0.79950	-0.49792	0.32706	0.07587	30.7	13111	100
2025-3-27 18:50:16.818	WT901BLE68-01(48591DE3C19B)	0.033	-1.001	0.302	-56.824	-97.473	-99.854	-63.29	44.20	0.26	-71.540	-46.550	61.446	0.79950	-0.49792	0.32706	0.07587	30.7	13111	100
2025-3-27 18:50:16.819	WT901BLE68-01(48591DE3C19B)	0.033	-0.985	0.299	-59.875	-28.503	-132.874	-64.37	42.73	-0.56	-71.540	-46.550	61.446	0.79950	-0.49792	0.32706	0.07587	30.7	13111	100
2025-3-27 18:50:16.820	WT901BLE68-01(48591DE3C19B)	-0.094	-0.985	0.299	-59.875	-28.503	-132.874	-65.40	41.25	-1.34	-71.540	-46.550	61.446	0.79950	-0.49792	0.32706	0.07587	30.7	13111	100
2025-3-27 18:50:16.820	WT901BLE68-01(48591DE3C19B)	-0.094	-1.049	0.397	-64.148	14.709	-160.339	-66.85	39.69	-2.72	-71.540	-46.550	61.446	0.79950	-0.49792	0.32706	0.07587	30.7	13111	100
2025-3-27 18:50:16.820	WT901BLE68-01(48591DE3C19B)	-0.230	-1.049	0.397	-64.148	14.709	-160.339	-68.22	38.12	-4.03	-71.540	-46.550	61.446	0.79950	-0.49792	0.32706	0.07587	30.7	13111	100
2025-3-27 18:50:16.820	WT901BLE68-01(48591DE3C19B)	-0.358	-1.127	0.554	-63.904	33.752	-181.152	-69.69	36.40	-5.56	-71.540	-46.550	61.446	0.79950	-0.49792	0.32706	0.07587	30.7	13111	100
2025-3-27 18:50:16.850	WT901BLE68-01(48591DE3C19B)	-0.358	-1.188	0.630	-57.495	35.950	-191.650	-71.05	34.62	-7.04	-71.540	-46.550	61.446	0.79950	-0.49792	0.32706	0.07587	30.7	13111	100
2025-3-27 18:50:16.850	WT901BLE68-01(48591DE3C19B)	-0.413	-1.188	0.630	-57.495	35.950	-191.650	-72.31	32.78	-8.46	-71.540	-46.550	61.446	0.79950	-0.49792	0.32706	0.07587	30.7	13111	100
2025-3-27 18:50:16.851	WT901BLE68-01(48591DE3C19B)	-0.413	-1.168	0.598	-46.997	26.489	-194.702	-73.40	30.90	-9.76	-71.540	-46.550	61.446	0.79950	-0.49792	0.32706	0.07587	30.7	13111	100
2025-3-27 18:50:16.851	WT901BLE68-01(48591DE3C19B)	-0.406	-1.168	0.598	-46.997	26.489	-194.702	-74.33	28.99	-10.94	-71.540	-46.550	61.446	0.79950	-0.49792	0.32706	0.07587	30.7	13111	100
2025-3-27 18:50:16.939	WT901BLE68-01(48591DE3C19B)	-0.406	-1.135	0.508	-37.415	17.456	-192.505	-75.14	27.08	-12.01	-71.540	-46.550	61.446	0.79950	-0.49792	0.32706	0.07587	30.7	13111	100
2025-3-27 18:50:16.939	WT901BLE68-01(48591DE3C19B)	-0.346	-1.135	0.508	-37.415	17.456	-192.505	-75.81	25.18	-12.97	-71.540	-46.550	61.446	0.79950	-0.49792	0.32706	0.07587	30.7	13111	100
2025-3-27 18:50:16.939	WT901BLE68-01(48591DE3C19B)	-0.346	-1.116	0.420	-29.358	17.029	-187.866	-76.39	23.30	-13.88	-71.540	-46.550	61.446	0.79950	-0.49792	0.32706	0.07587	30.7	13111	100
2025-3-27 18:50:16.939	WT901BLE68-01(48591DE3C19B)	-0.303	-1.116	0.420	-29.358	17.029	-187.866	-76.90	21.44	-14.74	-71.540	-46.550	61.446	0.79950	-0.49792	0.32706	0.07587	30.7	13111	100
2025-3-27 18:50:16.940	WT901BLE68-01(48591DE3C19B)	-0.303	-1.109	0.362	-19.226	28.198	-180.054	-77.33	19.64	-15.61	-71.540	-46.550	61.446	0.77600	-0.59381	0.21225	-0.00635	30.7	13111	100
