time	DeviceName	AccX(g)	AccY(g)	AccZ(g)	AsX(°/s)	AsY(°/s)	AsZ(°/s)	AngleX(°)	AngleY(°)	AngleZ(°)	HX(uT)	HY(uT)	HZ(uT)	Q0()	Q1()	Q2()	Q3()	Temperature(°C)	Version()	Battery level(%)
2025-3-27 18:44:57.376	WT901BLE68-01(48591DE3C19B)	-0.158	-0.979	0.273	-4.395	-3.723	-0.732	-74.82	11.85	-33.71	-72.030	-73.108	9.506	0.79022	-0.56445	0.22009	-0.09149	30.9	13111	100
2025-3-27 18:44:57.376	WT901BLE68-01(48591DE3C19B)	-0.158	-0.979	0.291	-4.456	-6.042	0.061	-74.87	11.82	-34.03	-72.030	-73.108	9.506	0.79022	-0.56445	0.22009	-0.09149	30.9	13111	100
2025-3-27 18:44:57.376	WT901BLE68-01(48591DE3C19B)	-0.168	-0.979	0.291	-4.456	-6.042	0.061	-74.91	11.78	-34.34	-72.030	-73.108	9.506	0.79022	-0.56445	0.22009	-0.09149	30.9	13111	100
2025-3-27 18:44:57.376	WT901BLE68-01(48591DE3C19B)	-0.168	-1.004	0.305	-4.517	-7.690	0.732	-74.95	11.76	-34.64	-72.030	-73.108	9.506	0.79022	-0.56445	0.22009	-0.09149	30.9	13111	100
2025-3-27 18:44:57.430	WT901BLE68-01(48591DE3C19B)	-0.160	-1.004	0.305	-4.517	-7.690	0.732	-74.99	11.72	-34.93	-72.030	-73.108	9.506	0.79022	-0.56445	0.22009	-0.09149	30.9	13111	100
2025-3-27 18:44:57.431	WT901BLE68-01(48591DE3C19B)	-0.160	-1.001	0.298	-2.869	-7.080	1.282	-75.03	11.69	-35.23	-72.030	-73.108	9.506	0.77081	-0.55289	0.26035	-0.17963	30.9	13111	100
2025-3-27 18:44:57.431	WT901BLE68-01(48591DE3C19B)	-0.132	-1.001	0.298	-2.869	-7.080	1.282	-75.05	11.67	-35.52	-72.030	-73.108	9.506	0.77081	-0.55289	0.26035	-0.17963	30.9	13111	100
2025-3-27 18:44:57.431	WT901BLE68-01(48591DE3C19B)	-0.132	-0.988	0.281	-2.686	-4.944	1.770	-75.07	11.66	-35.83	-72.030	-73.108	9.506	0.77081	-0.55289	0.26035	-0.17963	30.9	13111	100
2025-3-27 18:44:57.459	WT901BLE68-01(48591DE3C19B)	-0.104	-0.988	0.281	-2.686	-4.944	1.770	-75.09	11.64	-36.15	-72.030	-73.108	9.506	0.77081	-0.55289	0.26035	-0.17963	30.9	13111	100
2025-3-27 18:44:57.459	WT901BLE68-01(48591DE3C19B)	-0.104	-0.977	0.270	-2.380	-1.953	1.770	-75.12	11.63	-36.47	-72.030	-73.108	9.506	0.77081	-0.55289	0.26035	-0.17963	30.9	13111	100
2025-3-27 18:44:57.459	WT901BLE68-01(48591DE3C19B)	-0.091	-0.977	0.270	-2.380	-1.953	1.770	-75.15	11.62	-36.81	-72.030	-73.108	9.506	0.77081	-0.55289	0.26035	-0.17963	30.9	13111	100
2025-3-27 18:44:57.459	WT901BLE68-01(48591DE3C19B)	-0.091	-0.966	0.268	-2.258	1.038	1.709	-75.17	11.61	-37.16	-72.030	-73.108	9.506	0.77081	-0.55289	0.26035	-0.17963	30.9	13111	100
2025-3-27 18:44:57.520	WT901BLE68-01(48591DE3C19B)	-0.092	-0.966	0.268	-2.258	1.038	1.709	-75.21	11.61	-37.53	-72.030	-73.108	9.506	0.77081	-0.55289	0.26035	-0.17963	30.9	13111	100
2025-3-27 18:44:57.520	WT901BLE68-01(48591DE3C19B)	-0.092	-0.973	0.265	-1.526	2.930	0.793	-75.24	11.60	-37.90	-72.030	-73.108	9.506	0.77081	-0.55289	0.26035	-0.17963	30.9	13111	100
2025-3-27 18:44:57.520	WT901BLE68-01(48591DE3C19B)	-0.093	-0.973	0.265	-1.526	2.930	0.793	-75.27	11.59	-38.28	-72.030	-73.108	9.506	0.77081	-0.55289	0.26035	-0.17963	30.9	13111	100
2025-3-27 18:44:57.520	WT901BLE68-01(48591DE3C19B)	-0.093	-0.977	0.254	0.183	4.333	-0.549	-75.29	11.58	-38.67	-72.030	-73.108	9.506	0.77081	-0.55289	0.26035	-0.17963	30.9	13111	100
2025-3-27 18:44:57.550	WT901BLE68-01(48591DE3C19B)	-0.091	-0.977	0.254	0.183	4.333	-0.549	-75.32	11.56	-39.07	-72.030	-73.108	9.506	0.77081	-0.55289	0.26035	-0.17963	30.9	13111	100
2025-3-27 18:44:57.550	WT901BLE68-01(48591DE3C19B)	-0.091	-0.971	0.241	2.075	5.554	-1.526	-75.33	11.53	-39.47	-72.030	-73.108	9.506	0.77081	-0.55289	0.26035	-0.17963	30.9	13111	100
2025-3-27 18:44:57.550	WT901BLE68-01(48591DE3C19B)	-0.073	-0.971	0.241	2.075	5.554	-1.526	-75.33	11.50	-39.87	-72.030	-73.108	9.506	0.77081	-0.55289	0.26035	-0.17963	30.9	13111	100
2025-3-27 18:44:57.550	WT901BLE68-01(48591DE3C19B)	-0.073	-0.960	0.226	3.662	5.493	-2.686	-75.33	11.47	-40.27	-72.030	-73.108	9.506	0.77081	-0.55289	0.26035	-0.17963	30.9	13111	100
2025-3-27 18:44:57.582	WT901BLE68-01(48591DE3C19B)	-0.062	-0.960	0.226	3.662	5.493	-2.686	-75.32	11.43	-40.67	-72.030	-73.108	9.506	0.77081	-0.55289	0.26035	-0.17963	30.9	13111	100
2025-3-27 18:44:57.582	WT901BLE68-01(48591DE3C19B)	-0.062	-0.952	0.220	4.272	7.385	-3.662	-75.31	11.39	-41.08	-72.030	-73.108	9.506	0.77081	-0.55289	0.26035	-0.17963	30.9	13111	100
2025-3-27 18:44:57.582	WT901BLE68-01(48591DE3C19B)	-0.063	-0.952	0.220	4.272	7.385	-3.662	-75.30	11.34	-41.50	-72.030	-73.108	9.506	0.77081	-0.55289	0.26035	-0.17963	30.9	13111	100
2025-3-27 18:44:57.582	WT901BLE68-01(48591DE3C19B)	-0.063	-0.960	0.221	4.761	9.705	-4.944	-75.29	11.29	-41.92	-72.030	-73.108	9.506	0.77081	-0.55289	0.26035	-0.17963	30.9	13111	100
2025-3-27 18:44:57.641	WT901BLE68-01(48591DE3C19B)	-0.063	-0.960	0.221	4.761	9.705	-4.944	-75.28	11.24	-42.36	-72.030	-73.108	9.506	0.77081	-0.55289	0.26035	-0.17963	30.9	13111	100
2025-3-27 18:44:57.641	WT901BLE68-01(48591DE3C19B)	-0.063	-0.968	0.229	5.920	12.085	-6.165	-75.27	11.18	-42.80	-71.932	-73.108	8.820	0.77081	-0.55289	0.26035	-0.17963	30.9	13111	100
2025-3-27 18:44:57.641	WT901BLE68-01(48591DE3C19B)	-0.044	-0.968	0.229	5.920	12.085	-6.165	-75.26	11.12	-43.26	-71.932	-73.108	8.820	0.77081	-0.55289	0.26035	-0.17963	30.9	13111	100
2025-3-27 18:44:57.641	WT901BLE68-01(48591DE3C19B)	-0.044	-0.957	0.224	7.263	17.395	-7.141	-75.25	11.06	-43.74	-71.932	-73.108	8.820	0.77081	-0.55289	0.26035	-0.17963	30.9	13111	100
2025-3-27 18:44:57.670	WT901BLE68-01(48591DE3C19B)	-0.045	-0.957	0.224	7.263	17.395	-7.141	-75.23	11.01	-44.24	-71.932	-73.108	8.820	0.77081	-0.55289	0.26035	-0.17963	30.9	13111	100
2025-3-27 18:44:57.670	WT901BLE68-01(48591DE3C19B)	-0.045	-0.953	0.205	7.019	26.917	-7.874	-75.23	10.96	-44.79	-71.932	-73.108	8.820	0.77081	-0.55289	0.26035	-0.17963	30.9	13111	100
2025-3-27 18:44:57.670	WT901BLE68-01(48591DE3C19B)	-0.046	-0.953	0.205	7.019	26.917	-7.874	-75.24	10.91	-45.38	-71.932	-73.108	8.820	0.77081	-0.55289	0.26035	-0.17963	30.9	13111	100
2025-3-27 18:44:57.670	WT901BLE68-01(48591DE3C19B)	-0.046	-0.976	0.197	5.005	34.058	-9.338	-75.27	10.88	-46.02	-71.932	-73.108	8.820	0.77081	-0.55289	0.26035	-0.17963	30.9	13111	100
2025-3-27 18:44:57.700	WT901BLE68-01(48591DE3C19B)	-0.068	-0.976	0.197	5.005	34.058	-9.338	-75.31	10.84	-46.67	-71.932	-73.108	8.820	0.77081	-0.55289	0.26035	-0.17963	30.9	13111	100
2025-3-27 18:44:57.700	WT901BLE68-01(48591DE3C19B)	-0.068	-1.027	0.218	2.625	38.513	-11.230	-75.37	10.80	-47.35	-71.932	-73.108	8.820	0.77081	-0.55289	0.26035	-0.17963	30.9	13111	100
2025-3-27 18:44:57.700	WT901BLE68-01(48591DE3C19B)	-0.112	-1.027	0.218	2.625	38.513	-11.230	-75.45	10.76	-48.05	-71.932	-73.108	8.820	0.77081	-0.55289	0.26035	-0.17963	30.9	13111	100
2025-3-27 18:44:57.701	WT901BLE68-01(48591DE3C19B)	-0.112	-1.071	0.255	1.648	39.063	-13.489	-75.53	10.70	-48.75	-71.932	-73.108	8.820	0.77081	-0.55289	0.26035	-0.17963	30.9	13111	100
2025-3-27 18:44:57.760	WT901BLE68-01(48591DE3C19B)	-0.142	-1.071	0.255	1.648	39.063	-13.489	-75.61	10.63	-49.45	-71.932	-73.108	8.820	0.77081	-0.55289	0.26035	-0.17963	30.9	13111	100
2025-3-27 18:44:57.761	WT901BLE68-01(48591DE3C19B)	-0.142	-1.060	0.286	2.197	36.072	-16.113	-75.69	10.55	-50.15	-71.932	-73.108	8.820	0.77081	-0.55289	0.26035	-0.17963	30.9	13111	100
2025-3-27 18:44:57.761	WT901BLE68-01(48591DE3C19B)	-0.135	-1.060	0.286	2.197	36.072	-16.113	-75.76	10.45	-50.82	-71.932	-73.108	8.820	0.77081	-0.55289	0.26035	-0.17963	30.9	13111	100
2025-3-27 18:44:57.761	WT901BLE68-01(48591DE3C19B)	-0.135	-0.981	0.284	1.465	33.386	-18.921	-75.83	10.34	-51.49	-71.932	-73.108	8.820	0.77081	-0.55289	0.26035	-0.17963	30.9	13111	100
2025-3-27 18:44:57.793	WT901BLE68-01(48591DE3C19B)	-0.156	-0.981	0.284	1.465	33.386	-18.921	-75.90	10.21	-52.14	-71.932	-73.108	8.820	0.77081	-0.55289	0.26035	-0.17963	30.9	13111	100
2025-3-27 18:44:57.793	WT901BLE68-01(48591DE3C19B)	-0.156	-0.919	0.265	-1.038	31.982	-21.851	-75.97	10.07	-52.79	-71.932	-73.108	8.820	0.77081	-0.55289	0.26035	-0.17963	30.9	13111	100
2025-3-27 18:44:57.793	WT901BLE68-01(48591DE3C19B)	-0.195	-0.919	0.265	-1.038	31.982	-21.851	-76.06	9.91	-53.43	-71.932	-73.108	8.820	0.77081	-0.55289	0.26035	-0.17963	30.9	13111	100
2025-3-27 18:44:57.793	WT901BLE68-01(48591DE3C19B)	-0.195	-0.875	0.245	-3.235	27.954	-23.926	-76.15	9.72	-54.04	-71.932	-73.108	8.820	0.77081	-0.55289	0.26035	-0.17963	30.9	13111	100
2025-3-27 18:44:57.851	WT901BLE68-01(48591DE3C19B)	-0.213	-0.875	0.245	-3.235	27.954	-23.926	-76.25	9.54	-54.64	-71.932	-73.108	8.820	0.77081	-0.55289	0.26035	-0.17963	30.9	13111	100
2025-3-27 18:44:57.851	WT901BLE68-01(48591DE3C19B)	-0.213	-0.840	0.243	-4.822	21.729	-24.841	-76.33	9.34	-55.19	-71.932	-73.108	8.820	0.77081	-0.55289	0.26035	-0.17963	30.9	13111	100
2025-3-27 18:44:57.851	WT901BLE68-01(48591DE3C19B)	-0.214	-0.840	0.243	-4.822	21.729	-24.841	-76.43	9.14	-55.73	-71.932	-73.108	8.820	0.71429	-0.51575	0.34415	-0.32440	30.9	13111	100
2025-3-27 18:44:57.851	WT901BLE68-01(48591DE3C19B)	-0.214	-0.812	0.251	-5.981	15.686	-25.452	-76.51	8.93	-56.22	-71.932	-73.108	8.820	0.71429	-0.51575	0.34415	-0.32440	30.9	13111	100
2025-3-27 18:44:57.879	WT901BLE68-01(48591DE3C19B)	-0.232	-0.812	0.251	-5.981	15.686	-25.452	-76.60	8.71	-56.71	-71.932	-73.108	8.820	0.71429	-0.51575	0.34415	-0.32440	30.9	13111	100
2025-3-27 18:44:57.880	WT901BLE68-01(48591DE3C19B)	-0.232	-0.809	0.259	-6.958	11.719	-25.513	-76.68	8.49	-57.15	-71.932	-73.108	8.820	0.71429	-0.51575	0.34415	-0.32440	30.9	13111	100
2025-3-27 18:44:57.880	WT901BLE68-01(48591DE3C19B)	-0.249	-0.809	0.259	-6.958	11.719	-25.513	-76.76	8.27	-57.60	-71.932	-73.108	8.820	0.71429	-0.51575	0.34415	-0.32440	30.9	13111	100
2025-3-27 18:44:57.880	WT901BLE68-01(48591DE3C19B)	-0.249	-0.812	0.260	-7.324	9.033	-25.635	-76.83	8.05	-58.02	-71.932	-73.108	8.820	0.71429	-0.51575	0.34415	-0.32440	30.9	13111	100
2025-3-27 18:44:57.910	WT901BLE68-01(48591DE3C19B)	-0.264	-0.812	0.260	-7.324	9.033	-25.635	-76.90	7.83	-58.44	-71.932	-73.108	8.820	0.71429	-0.51575	0.34415	-0.32440	30.9	13111	100
2025-3-27 18:44:57.910	WT901BLE68-01(48591DE3C19B)	-0.264	-0.827	0.271	-7.507	7.385	-25.818	-76.96	7.61	-58.85	-71.932	-73.108	8.820	0.71429	-0.51575	0.34415	-0.32440	30.9	13111	100
2025-3-27 18:44:57.910	WT901BLE68-01(48591DE3C19B)	-0.291	-0.827	0.271	-7.507	7.385	-25.818	-77.03	7.39	-59.26	-71.932	-73.108	8.820	0.71429	-0.51575	0.34415	-0.32440	30.9	13111	100
2025-3-27 18:44:57.910	WT901BLE68-01(48591DE3C19B)	-0.291	-0.849	0.285	-7.874	4.761	-26.611	-77.09	7.17	-59.64	-71.932	-73.108	8.820	0.71429	-0.51575	0.34415	-0.32440	30.9	13111	100
2025-3-27 18:44:57.939	WT901BLE68-01(48591DE3C19B)	-0.320	-0.849	0.285	-7.874	4.761	-26.611	-77.15	6.94	-60.03	-71.932	-73.108	8.820	0.71429	-0.51575	0.34415	-0.32440	30.9	13111	100
2025-3-27 18:44:57.939	WT901BLE68-01(48591DE3C19B)	-0.320	-0.890	0.308	-7.996	-0.610	-27.954	-77.19	6.70	-60.38	-71.932	-73.108	8.820	0.71429	-0.51575	0.34415	-0.32440	30.9	13111	100
2025-3-27 18:44:57.939	WT901BLE68-01(48591DE3C19B)	-0.341	-0.890	0.308	-7.996	-0.610	-27.954	-77.23	6.45	-60.72	-71.932	-73.108	8.820	0.71429	-0.51575	0.34415	-0.32440	30.9	13111	100
2025-3-27 18:44:57.939	WT901BLE68-01(48591DE3C19B)	-0.341	-0.921	0.337	-6.714	-3.235	-29.297	-77.26	6.20	-61.04	-71.932	-73.108	8.820	0.71429	-0.51575	0.34415	-0.32440	30.9	13111	100
2025-3-27 18:44:58.0	WT901BLE68-01(48591DE3C19B)	-0.359	-0.921	0.337	-6.714	-3.235	-29.297	-77.28	5.94	-61.36	-71.932	-73.108	8.820	0.71429	-0.51575	0.34415	-0.32440	30.9	13111	100
2025-3-27 18:44:58.0	WT901BLE68-01(48591DE3C19B)	-0.359	-0.941	0.343	-6.348	-5.371	-29.053	-77.29	5.69	-61.67	-71.932	-73.108	8.820	0.71429	-0.51575	0.34415	-0.32440	30.9	13111	100
2025-3-27 18:44:58.0	WT901BLE68-01(48591DE3C19B)	-0.369	-0.941	0.343	-6.348	-5.371	-29.053	-77.29	5.44	-61.98	-71.932	-73.108	8.820	0.71429	-0.51575	0.34415	-0.32440	30.9	13111	100
2025-3-27 18:44:58.0	WT901BLE68-01(48591DE3C19B)	-0.369	-0.968	0.301	-9.460	-14.343	-24.902	-77.32	5.21	-62.19	-71.932	-73.108	8.820	0.71429	-0.51575	0.34415	-0.32440	30.9	13111	100
2025-3-27 18:44:58.29	WT901BLE68-01(48591DE3C19B)	-0.418	-0.968	0.301	-9.460	-14.343	-24.902	-77.35	4.98	-62.41	-71.932	-73.108	8.820	0.71429	-0.51575	0.34415	-0.32440	30.9	13111	100
2025-3-27 18:44:58.29	WT901BLE68-01(48591DE3C19B)	-0.418	-1.012	0.328	-6.836	-24.597	-14.893	-77.34	4.84	-62.50	-71.932	-73.108	8.820	0.71429	-0.51575	0.34415	-0.32440	30.9	13111	100
2025-3-27 18:44:58.29	WT901BLE68-01(48591DE3C19B)	-0.489	-1.012	0.328	-6.836	-24.597	-14.893	-77.33	4.70	-62.59	-71.932	-73.108	8.820	0.71429	-0.51575	0.34415	-0.32440	30.9	13111	100
2025-3-27 18:44:58.30	WT901BLE68-01(48591DE3C19B)	-0.489	-1.056	0.399	-1.648	-22.888	-7.019	-77.26	4.64	-62.69	-62.230	-74.676	6.468	0.71429	-0.51575	0.34415	-0.32440	30.9	13111	100
2025-3-27 18:44:58.94	WT901BLE68-01(48591DE3C19B)	-0.502	-1.056	0.399	-1.648	-22.888	-7.019	-77.19	4.58	-62.79	-62.230	-74.676	6.468	0.71429	-0.51575	0.34415	-0.32440	30.9	13111	100
2025-3-27 18:44:58.94	WT901BLE68-01(48591DE3C19B)	-0.502	-1.102	0.443	2.319	-13.916	-0.183	-77.09	4.61	-62.97	-62.230	-74.676	6.468	0.71429	-0.51575	0.34415	-0.32440	30.9	13111	100
2025-3-27 18:44:58.94	WT901BLE68-01(48591DE3C19B)	-0.477	-1.102	0.443	2.319	-13.916	-0.183	-76.98	4.64	-63.15	-62.230	-74.676	6.468	0.71429	-0.51575	0.34415	-0.32440	30.9	13111	100
2025-3-27 18:44:58.94	WT901BLE68-01(48591DE3C19B)	-0.477	-1.192	0.446	3.296	2.075	3.479	-76.87	4.74	-63.48	-62.230	-74.676	6.468	0.71429	-0.51575	0.34415	-0.32440	30.9	13111	100
2025-3-27 18:44:58.120	WT901BLE68-01(48591DE3C19B)	-0.969	-1.192	0.446	3.296	2.075	3.479	-76.76	4.84	-63.81	-62.230	-74.676	6.468	0.71429	-0.51575	0.34415	-0.32440	30.9	13111	100
2025-3-27 18:44:58.120	WT901BLE68-01(48591DE3C19B)	-3.877	-2.641	0.881	4.517	24.231	4.517	-76.66	5.01	-64.35	-62.230	-74.676	6.468	0.71429	-0.51575	0.34415	-0.32440	30.9	13111	100
2025-3-27 18:44:58.121	WT901BLE68-01(48591DE3C19B)	-0.521	-10.564	3.526	4.517	24.231	4.517	-76.56	5.17	-64.89	-62.230	-74.676	6.468	0.71429	-0.51575	0.34415	-0.32440	30.9	13111	100
2025-3-27 18:44:58.121	WT901BLE68-01(48591DE3C19B)	-0.521	-1.371	0.437	6.836	43.152	4.578	-76.47	5.38	-65.60	-62.230	-74.676	6.468	0.71429	-0.51575	0.34415	-0.32440	30.9	13111	100
2025-3-27 18:44:58.149	WT901BLE68-01(48591DE3C19B)	-0.543	-1.371	0.437	6.836	43.152	4.578	-76.38	5.59	-66.30	-62.230	-74.676	6.468	0.71429	-0.51575	0.34415	-0.32440	30.9	13111	100
2025-3-27 18:44:58.149	WT901BLE68-01(48591DE3C19B)	-0.543	-1.282	0.426	6.592	57.617	4.761	-76.30	5.83	-67.15	-62.230	-74.676	6.468	0.71429	-0.51575	0.34415	-0.32440	30.9	13111	100
2025-3-27 18:44:58.149	WT901BLE68-01(48591DE3C19B)	-0.597	-1.282	0.426	6.592	57.617	4.761	-76.23	6.08	-67.98	-62.230	-74.676	6.468	0.71429	-0.51575	0.34415	-0.32440	30.9	13111	100
2025-3-27 18:44:58.149	WT901BLE68-01(48591DE3C19B)	-0.597	-1.206	0.420	0.488	65.002	6.470	-76.23	6.36	-68.88	-62.230	-74.676	6.468	0.71429	-0.51575	0.34415	-0.32440	30.9	13111	100
2025-3-27 18:44:58.181	WT901BLE68-01(48591DE3C19B)	-0.685	-1.206	0.420	0.488	65.002	6.470	-76.23	6.64	-69.79	-62.230	-74.676	6.468	0.71429	-0.51575	0.34415	-0.32440	30.9	13111	100
2025-3-27 18:44:58.182	WT901BLE68-01(48591DE3C19B)	-0.685	-1.235	0.396	-4.700	54.138	9.155	-76.28	6.93	-70.58	-62.230	-74.676	6.468	0.71429	-0.51575	0.34415	-0.32440	30.9	13111	100
2025-3-27 18:44:58.182	WT901BLE68-01(48591DE3C19B)	-0.716	-1.235	0.396	-4.700	54.138	9.155	-76.33	7.21	-71.36	-62.230	-74.676	6.468	0.71429	-0.51575	0.34415	-0.32440	30.9	13111	100
2025-3-27 18:44:58.182	WT901BLE68-01(48591DE3C19B)	-0.716	-1.232	0.346	-4.822	27.649	15.320	-76.34	7.50	-71.87	-62.230	-74.676	6.468	0.71429	-0.51575	0.34415	-0.32440	30.9	13111	100
2025-3-27 18:44:58.240	WT901BLE68-01(48591DE3C19B)	-0.660	-1.232	0.346	-4.822	27.649	15.320	-76.36	7.78	-72.38	-62.230	-74.676	6.468	0.71429	-0.51575	0.34415	-0.32440	30.9	13111	100
2025-3-27 18:44:58.240	WT901BLE68-01(48591DE3C19B)	-0.660	-1.132	0.259	-3.784	-0.977	26.611	-76.33	8.11	-72.57	-62.230	-74.676	6.468	0.65802	-0.46387	0.40964	-0.42886	30.9	13111	100
2025-3-27 18:44:58.241	WT901BLE68-01(48591DE3C19B)	-0.552	-1.132	0.259	-3.784	-0.977	26.611	-76.29	8.45	-72.77	-62.230	-74.676	6.468	0.65802	-0.46387	0.40964	-0.42886	30.9	13111	100
2025-3-27 18:44:58.241	WT901BLE68-01(48591DE3C19B)	-0.449	-0.978	0.144	-6.470	-25.085	43.030	-76.26	8.89	-72.67	-62.230	-74.676	6.468	0.65802	-0.46387	0.40964	-0.42886	30.9	13111	100
2025-3-27 18:44:58.269	WT901BLE68-01(48591DE3C19B)	-0.449	-0.866	0.069	-12.573	-48.889	61.035	-76.22	9.38	-72.44	-62.230	-74.676	6.468	0.65802	-0.46387	0.40964	-0.42886	30.9	13111	100
2025-3-27 18:44:58.269	WT901BLE68-01(48591DE3C19B)	-0.359	-0.866	0.069	-12.573	-48.889	61.035	-76.20	9.94	-72.06	-62.230	-74.676	6.468	0.65802	-0.46387	0.40964	-0.42886	30.9	13111	100
2025-3-27 18:44:58.269	WT901BLE68-01(48591DE3C19B)	-0.359	-0.825	0.054	-17.212	-73.730	78.430	-76.17	10.55	-71.52	-62.230	-74.676	6.468	0.65802	-0.46387	0.40964	-0.42886	30.9	13111	100
2025-3-27 18:44:58.269	WT901BLE68-01(48591DE3C19B)	-0.313	-0.825	0.054	-17.212	-73.730	78.430	-76.14	11.22	-70.83	-62.230	-74.676	6.468	0.65802	-0.46387	0.40964	-0.42886	30.9	13111	100
2025-3-27 18:44:58.300	WT901BLE68-01(48591DE3C19B)	-0.313	-0.904	0.054	-20.264	-91.919	91.736	-76.10	11.92	-70.02	-62.230	-74.676	6.468	0.65802	-0.46387	0.40964	-0.42886	30.9	13111	100
2025-3-27 18:44:58.300	WT901BLE68-01(48591DE3C19B)	-0.294	-0.904	0.054	-20.264	-91.919	91.736	-76.05	12.66	-69.09	-62.230	-74.676	6.468	0.65802	-0.46387	0.40964	-0.42886	30.9	13111	100
2025-3-27 18:44:58.300	WT901BLE68-01(48591DE3C19B)	-0.294	-0.999	0.062	-14.954	-101.990	99.243	-75.94	13.41	-68.09	-62.230	-74.676	6.468	0.65802	-0.46387	0.40964	-0.42886	30.9	13111	100
2025-3-27 18:44:58.300	WT901BLE68-01(48591DE3C19B)	-0.241	-0.999	0.062	-14.954	-101.990	99.243	-75.79	14.19	-67.02	-62.230	-74.676	6.468	0.65802	-0.46387	0.40964	-0.42886	30.9	13111	100
2025-3-27 18:44:58.360	WT901BLE68-01(48591DE3C19B)	-0.241	-0.987	0.063	-4.395	-103.943	103.394	-75.57	14.97	-65.92	-62.230	-74.676	6.468	0.65802	-0.46387	0.40964	-0.42886	30.9	13111	100
2025-3-27 18:44:58.360	WT901BLE68-01(48591DE3C19B)	-0.147	-0.987	0.063	-4.395	-103.943	103.394	-75.28	15.75	-64.80	-62.230	-74.676	6.468	0.65802	-0.46387	0.40964	-0.42886	30.9	13111	100
2025-3-27 18:44:58.360	WT901BLE68-01(48591DE3C19B)	-0.147	-0.890	0.054	3.784	-90.820	103.699	-74.96	16.54	-63.73	-62.230	-74.676	6.468	0.65802	-0.46387	0.40964	-0.42886	30.9	13111	100
2025-3-27 18:44:58.360	WT901BLE68-01(48591DE3C19B)	-0.096	-0.890	0.054	3.784	-90.820	103.699	-74.60	17.33	-62.71	-62.230	-74.676	6.468	0.65802	-0.46387	0.40964	-0.42886	30.9	13111	100
2025-3-27 18:44:58.394	WT901BLE68-01(48591DE3C19B)	-0.096	-0.798	0.053	7.935	-66.956	105.042	-74.25	18.14	-61.80	-62.230	-74.676	6.468	0.65802	-0.46387	0.40964	-0.42886	30.9	13111	100
2025-3-27 18:44:58.394	WT901BLE68-01(48591DE3C19B)	-0.088	-0.798	0.053	7.935	-66.956	105.042	-73.91	18.98	-61.01	-62.230	-74.676	6.468	0.65802	-0.46387	0.40964	-0.42886	30.9	13111	100
2025-3-27 18:44:58.394	WT901BLE68-01(48591DE3C19B)	-0.088	-0.773	0.021	8.728	-43.213	107.483	-73.59	19.85	-60.31	-62.230	-74.676	6.468	0.65802	-0.46387	0.40964	-0.42886	30.9	13111	100
2025-3-27 18:44:58.394	WT901BLE68-01(48591DE3C19B)	-0.055	-0.773	0.021	8.728	-43.213	107.483	-73.29	20.75	-59.74	-62.230	-74.676	6.468	0.65802	-0.46387	0.40964	-0.42886	30.9	13111	100
2025-3-27 18:44:58.423	WT901BLE68-01(48591DE3C19B)	-0.055	-0.766	-0.025	8.423	-25.330	109.314	-73.03	21.67	-59.23	-62.230	-74.676	6.468	0.65802	-0.46387	0.40964	-0.42886	30.9	13111	100
2025-3-27 18:44:58.423	WT901BLE68-01(48591DE3C19B)	-0.003	-0.766	-0.025	8.423	-25.330	109.314	-72.79	22.62	-58.81	-62.230	-74.676	6.468	0.65802	-0.46387	0.40964	-0.42886	30.9	13111	100
2025-3-27 18:44:58.424	WT901BLE68-01(48591DE3C19B)	-0.003	-0.761	-0.037	4.272	-11.963	111.145	-72.60	23.58	-58.45	-80.654	-59.878	7.742	0.65802	-0.46387	0.40964	-0.42886	30.9	13111	100
2025-3-27 18:44:58.424	WT901BLE68-01(48591DE3C19B)	-0.019	-0.761	-0.037	4.272	-11.963	111.145	-72.45	24.55	-58.15	-80.654	-59.878	7.742	0.65802	-0.46387	0.40964	-0.42886	30.9	13111	100
2025-3-27 18:44:58.481	WT901BLE68-01(48591DE3C19B)	-0.019	-0.887	-0.026	-4.761	-4.333	111.511	-72.36	25.53	-57.88	-80.654	-59.878	7.742	0.65802	-0.46387	0.40964	-0.42886	30.9	13111	100
2025-3-27 18:44:58.481	WT901BLE68-01(48591DE3C19B)	-0.062	-0.887	-0.026	-4.761	-4.333	111.511	-72.34	26.52	-57.65	-80.654	-59.878	7.742	0.65802	-0.46387	0.40964	-0.42886	30.9	13111	100
2025-3-27 18:44:58.481	WT901BLE68-01(48591DE3C19B)	-0.062	-1.128	-0.014	-14.099	-4.028	111.816	-72.36	27.49	-57.41	-80.654	-59.878	7.742	0.65802	-0.46387	0.40964	-0.42886	30.9	13111	100
2025-3-27 18:44:58.481	WT901BLE68-01(48591DE3C19B)	-0.108	-1.128	-0.014	-14.099	-4.028	111.816	-72.42	28.45	-57.18	-80.654	-59.878	7.742	0.65802	-0.46387	0.40964	-0.42886	30.9	13111	100
2025-3-27 18:44:58.509	WT901BLE68-01(48591DE3C19B)	-0.108	-1.398	-0.021	-18.982	-4.028	111.084	-72.52	29.40	-56.96	-80.654	-59.878	7.742	0.65802	-0.46387	0.40964	-0.42886	30.9	13111	100
2025-3-27 18:44:58.510	WT901BLE68-01(48591DE3C19B)	-0.118	-1.398	-0.021	-18.982	-4.028	111.084	-72.63	30.35	-56.73	-80.654	-59.878	7.742	0.65802	-0.46387	0.40964	-0.42886	30.9	13111	100
2025-3-27 18:44:58.510	WT901BLE68-01(48591DE3C19B)	-0.118	-1.716	-0.037	-25.085	-4.639	104.492	-72.77	31.25	-56.52	-80.654	-59.878	7.742	0.65802	-0.46387	0.40964	-0.42886	30.9	13111	100
2025-3-27 18:44:58.510	WT901BLE68-01(48591DE3C19B)	0.060	-1.716	-0.037	-25.085	-4.639	104.492	-72.95	32.12	-56.32	-80.654	-59.878	7.742	0.65802	-0.46387	0.40964	-0.42886	30.9	13111	100
2025-3-27 18:44:58.540	WT901BLE68-01(48591DE3C19B)	0.060	-1.973	-0.018	-16.418	-13.672	80.444	-73.08	32.84	-56.11	-80.654	-59.878	7.742	0.65802	-0.46387	0.40964	-0.42886	30.9	13111	100
2025-3-27 18:44:58.540	WT901BLE68-01(48591DE3C19B)	0.186	-1.973	-0.018	-16.418	-13.672	80.444	-73.16	33.44	-55.89	-80.654	-59.878	7.742	0.65802	-0.46387	0.40964	-0.42886	30.9	13111	100
2025-3-27 18:44:58.541	WT901BLE68-01(48591DE3C19B)	0.186	-1.872	0.023	-5.127	-23.010	55.969	-73.19	33.89	-55.67	-80.654	-59.878	7.742	0.65802	-0.46387	0.40964	-0.42886	30.9	13111	100
2025-3-27 18:44:58.541	WT901BLE68-01(48591DE3C19B)	0.180	-1.872	0.023	-5.127	-23.010	55.969	-73.14	34.21	-55.44	-80.654	-59.878	7.742	0.65802	-0.46387	0.40964	-0.42886	30.9	13111	100
2025-3-27 18:44:58.603	WT901BLE68-01(48591DE3C19B)	0.180	-1.671	0.090	-2.686	-31.311	21.240	-73.10	34.33	-55.22	-80.654	-59.878	7.742	0.65802	-0.46387	0.40964	-0.42886	30.9	13111	100
2025-3-27 18:44:58.603	WT901BLE68-01(48591DE3C19B)	0.243	-1.671	0.090	-2.686	-31.311	21.240	-73.05	34.28	-55.02	-80.654	-59.878	7.742	0.65802	-0.46387	0.40964	-0.42886	30.9	13111	100
2025-3-27 18:44:58.603	WT901BLE68-01(48591DE3C19B)	0.243	-1.431	0.169	-4.761	-30.334	-18.799	-73.05	34.03	-54.90	-80.654	-59.878	7.742	0.65802	-0.46387	0.40964	-0.42886	30.9	13111	100
2025-3-27 18:44:58.603	WT901BLE68-01(48591DE3C19B)	0.282	-1.431	0.169	-4.761	-30.334	-18.799	-73.11	33.59	-54.86	-80.654	-59.878	7.742	0.65802	-0.46387	0.40964	-0.42886	30.9	13111	100
2025-3-27 18:44:58.632	WT901BLE68-01(48591DE3C19B)	0.282	-1.161	0.257	-7.202	-11.414	-49.622	-73.27	33.02	-54.98	-80.654	-59.878	7.742	0.65802	-0.46387	0.40964	-0.42886	30.9	13111	100
2025-3-27 18:44:58.633	WT901BLE68-01(48591DE3C19B)	0.258	-1.161	0.257	-7.202	-11.414	-49.622	-73.52	32.34	-55.26	-80.654	-59.878	7.742	0.65802	-0.46387	0.40964	-0.42886	30.9	13111	100
2025-3-27 18:44:58.633	WT901BLE68-01(48591DE3C19B)	0.258	-1.101	0.247	-8.789	11.597	-79.102	-73.86	31.54	-55.72	-80.654	-59.878	7.742	0.65802	-0.46387	0.40964	-0.42886	30.9	13111	100
2025-3-27 18:44:58.633	WT901BLE68-01(48591DE3C19B)	0.272	-1.101	0.247	-8.789	11.597	-79.102	-74.28	30.63	-56.33	-80.654	-59.878	7.742	0.75302	-0.41397	0.46048	-0.22232	30.9	13111	100
2025-3-27 18:44:58.662	WT901BLE68-01(48591DE3C19B)	0.272	-1.124	0.169	-0.122	44.067	-106.262	-74.76	29.62	-57.16	-80.654	-59.878	7.742	0.75302	-0.41397	0.46048	-0.22232	30.9	13111	100
2025-3-27 18:44:58.662	WT901BLE68-01(48591DE3C19B)	0.236	-1.124	0.169	-0.122	44.067	-106.262	-75.27	28.53	-58.18	-80.654	-59.878	7.742	0.75302	-0.41397	0.46048	-0.22232	30.9	13111	100
2025-3-27 18:44:58.662	WT901BLE68-01(48591DE3C19B)	0.236	-0.998	0.123	9.949	67.200	-122.314	-75.77	27.38	-59.33	-80.654	-59.878	7.742	0.75302	-0.41397	0.46048	-0.22232	30.9	13111	100
2025-3-27 18:44:58.662	WT901BLE68-01(48591DE3C19B)	0.177	-0.998	0.123	9.949	67.200	-122.314	-76.26	26.17	-60.59	-80.654	-59.878	7.742	0.75302	-0.41397	0.46048	-0.22232	30.9	13111	100
2025-3-27 18:44:58.750	WT901BLE68-01(48591DE3C19B)	0.177	-0.936	0.087	11.719	78.369	-134.644	-76.73	24.92	-61.90	-80.654	-59.878	7.742	0.75302	-0.41397	0.46048	-0.22232	30.9	13111	100
2025-3-27 18:44:58.751	WT901BLE68-01(48591DE3C19B)	0.066	-0.936	0.087	11.719	78.369	-134.644	-77.19	23.61	-63.25	-80.654	-59.878	7.742	0.75302	-0.41397	0.46048	-0.22232	30.9	13111	100
2025-3-27 18:44:58.751	WT901BLE68-01(48591DE3C19B)	0.066	-0.989	0.063	12.085	92.712	-143.433	-77.67	22.25	-64.74	-80.654	-59.878	7.742	0.75302	-0.41397	0.46048	-0.22232	30.9	13111	100
2025-3-27 18:44:58.751	WT901BLE68-01(48591DE3C19B)	-0.110	-0.989	0.063	12.085	92.712	-143.433	-78.11	20.88	-66.20	-80.654	-59.878	7.742	0.75302	-0.41397	0.46048	-0.22232	30.9	13111	100
2025-3-27 18:44:58.752	WT901BLE68-01(48591DE3C19B)	-0.110	-1.077	0.077	15.015	98.511	-148.804	-78.49	19.48	-67.70	-80.654	-59.878	7.742	0.75302	-0.41397	0.46048	-0.22232	30.9	13111	100
2025-3-27 18:44:58.752	WT901BLE68-01(48591DE3C19B)	-0.286	-1.077	0.077	15.015	98.511	-148.804	-78.84	18.08	-69.16	-80.654	-59.878	7.742	0.75302	-0.41397	0.46048	-0.22232	30.9	13111	100
2025-3-27 18:44:58.752	WT901BLE68-01(48591DE3C19B)	-0.286	-1.120	0.139	18.494	80.627	-152.161	-79.05	16.63	-70.43	-80.654	-59.878	7.742	0.75302	-0.41397	0.46048	-0.22232	30.9	13111	100
2025-3-27 18:44:58.752	WT901BLE68-01(48591DE3C19B)	-0.363	-1.120	0.139	18.494	80.627	-152.161	-79.22	15.19	-71.67	-80.654	-59.878	7.742	0.75302	-0.41397	0.46048	-0.22232	30.9	13111	100
2025-3-27 18:44:58.782	WT901BLE68-01(48591DE3C19B)	-0.363	-1.093	0.186	18.738	45.044	-154.236	-79.27	13.68	-72.55	-80.654	-59.878	7.742	0.75302	-0.41397	0.46048	-0.22232	30.9	13111	100
2025-3-27 18:44:58.782	WT901BLE68-01(48591DE3C19B)	-0.330	-1.093	0.186	18.738	45.044	-154.236	-79.28	12.19	-73.41	-80.654	-59.878	7.742	0.75302	-0.41397	0.46048	-0.22232	30.9	13111	100
2025-3-27 18:44:58.782	WT901BLE68-01(48591DE3C19B)	-0.330	-0.970	0.211	15.747	17.273	-152.649	-79.25	10.68	-73.98	-80.654	-59.878	7.742	0.75302	-0.41397	0.46048	-0.22232	30.9	13111	100
2025-3-27 18:44:58.782	WT901BLE68-01(48591DE3C19B)	-0.324	-0.970	0.211	15.747	17.273	-152.649	-79.20	9.18	-74.55	-80.654	-59.878	7.742	0.75302	-0.41397	0.46048	-0.22232	30.9	13111	100
2025-3-27 18:44:58.840	WT901BLE68-01(48591DE3C19B)	-0.324	-0.835	0.203	9.155	1.404	-149.048	-79.17	7.71	-74.95	-80.654	-59.878	7.742	0.75302	-0.41397	0.46048	-0.22232	30.9	13111	100
2025-3-27 18:44:58.841	WT901BLE68-01(48591DE3C19B)	-0.307	-0.835	0.203	9.155	1.404	-149.048	-79.13	6.26	-75.36	-80.654	-59.878	7.742	0.75302	-0.41397	0.46048	-0.22232	30.9	13111	100
2025-3-27 18:44:58.841	WT901BLE68-01(48591DE3C19B)	-0.307	-0.725	0.197	0.549	-6.958	-144.287	-79.16	4.85	-75.68	-80.654	-59.878	7.742	0.75302	-0.41397	0.46048	-0.22232	30.9	13111	100
2025-3-27 18:44:58.841	WT901BLE68-01(48591DE3C19B)	-0.258	-0.725	0.197	0.549	-6.958	-144.287	-79.17	3.46	-75.99	-80.654	-59.878	7.742	0.75302	-0.41397	0.46048	-0.22232	30.9	13111	100
2025-3-27 18:44:58.870	WT901BLE68-01(48591DE3C19B)	-0.258	-0.648	0.239	-7.080	-5.249	-139.404	-79.25	2.12	-76.32	-69.972	-57.820	3.724	0.75302	-0.41397	0.46048	-0.22232	30.9	13111	100
2025-3-27 18:44:58.870	WT901BLE68-01(48591DE3C19B)	-0.264	-0.648	0.239	-7.080	-5.249	-139.404	-79.32	0.80	-76.65	-69.972	-57.820	3.724	0.75302	-0.41397	0.46048	-0.22232	30.9	13111	100
2025-3-27 18:44:58.870	WT901BLE68-01(48591DE3C19B)	-0.264	-0.625	0.320	-13.184	1.160	-134.399	-79.43	-0.44	-77.04	-69.972	-57.820	3.724	0.75302	-0.41397	0.46048	-0.22232	30.9	13111	100
2025-3-27 18:44:58.870	WT901BLE68-01(48591DE3C19B)	-0.332	-0.625	0.320	-13.184	1.160	-134.399	-79.52	-1.69	-77.43	-69.972	-57.820	3.724	0.75302	-0.41397	0.46048	-0.22232	30.9	13111	100
2025-3-27 18:44:58.961	WT901BLE68-01(48591DE3C19B)	-0.332	-0.677	0.379	-13.916	8.484	-129.089	-79.61	-2.85	-77.90	-69.972	-57.820	3.724	0.75302	-0.41397	0.46048	-0.22232	30.9	13111	100
2025-3-27 18:44:58.961	WT901BLE68-01(48591DE3C19B)	-0.420	-0.677	0.379	-13.916	8.484	-129.089	-79.68	-4.00	-78.37	-69.972	-57.820	3.724	0.75302	-0.41397	0.46048	-0.22232	30.9	13111	100
2025-3-27 18:44:58.961	WT901BLE68-01(48591DE3C19B)	-0.420	-0.722	0.388	-6.470	18.494	-123.901	-79.65	-5.08	-78.95	-69.972	-57.820	3.724	0.75302	-0.41397	0.46048	-0.22232	30.9	13111	100
2025-3-27 18:44:58.961	WT901BLE68-01(48591DE3C19B)	-0.511	-0.722	0.388	-6.470	18.494	-123.901	-79.59	-6.15	-79.54	-69.972	-57.820	3.724	0.75302	-0.41397	0.46048	-0.22232	30.9	13111	100
2025-3-27 18:44:58.962	WT901BLE68-01(48591DE3C19B)	-0.511	-0.776	0.318	-2.747	23.376	-117.310	-79.48	-7.13	-80.17	-69.972	-57.820	3.724	0.75302	-0.41397	0.46048	-0.22232	30.9	13111	100
2025-3-27 18:44:58.962	WT901BLE68-01(48591DE3C19B)	-0.541	-0.776	0.318	-2.747	23.376	-117.310	-79.36	-8.10	-80.82	-69.972	-57.820	3.724	0.75302	-0.41397	0.46048	-0.22232	30.9	13111	100
2025-3-27 18:44:58.962	WT901BLE68-01(48591DE3C19B)	-0.541	-0.864	0.235	-1.831	19.836	-108.276	-79.22	-8.96	-81.43	-69.972	-57.820	3.724	0.75302	-0.41397	0.46048	-0.22232	30.9	13111	100
2025-3-27 18:44:58.962	WT901BLE68-01(48591DE3C19B)	-0.538	-0.864	0.235	-1.831	19.836	-108.276	-79.08	-9.83	-82.03	-69.972	-57.820	3.724	0.75302	-0.41397	0.46048	-0.22232	30.9	13111	100
2025-3-27 18:44:58.993	WT901BLE68-01(48591DE3C19B)	-0.538	-0.950	0.181	-7.263	7.385	-96.863	-79.01	-10.59	-82.50	-69.972	-57.820	3.724	0.75302	-0.41397	0.46048	-0.22232	30.9	13111	100
2025-3-27 18:44:58.993	WT901BLE68-01(48591DE3C19B)	-0.585	-0.950	0.181	-7.263	7.385	-96.863	-78.94	-11.33	-82.96	-69.972	-57.820	3.724	0.75302	-0.41397	0.46048	-0.22232	30.9	13111	100
2025-3-27 18:44:58.993	WT901BLE68-01(48591DE3C19B)	-0.585	-1.122	0.212	-14.465	-14.221	-84.473	-79.00	-11.99	-83.18	-69.972	-57.820	3.724	0.75302	-0.41397	0.46048	-0.22232	30.9	13111	100
2025-3-27 18:44:58.993	WT901BLE68-01(48591DE3C19B)	-0.688	-1.122	0.212	-14.465	-14.221	-84.473	-79.05	-12.65	-83.40	-69.972	-57.820	3.724	0.75302	-0.41397	0.46048	-0.22232	30.9	13111	100
2025-3-27 18:44:59.50	WT901BLE68-01(48591DE3C19B)	-0.688	-1.376	0.326	-13.855	-34.790	-69.885	-79.15	-13.19	-83.38	-69.972	-57.820	3.724	0.75302	-0.41397	0.46048	-0.22232	30.9	13111	100
2025-3-27 18:44:59.50	WT901BLE68-01(48591DE3C19B)	-0.736	-1.376	0.326	-13.855	-34.790	-69.885	-79.26	-13.73	-83.36	-69.972	-57.820	3.724	0.51968	-0.53519	0.35114	-0.56573	30.9	13111	100
2025-3-27 18:44:59.50	WT901BLE68-01(48591DE3C19B)	-0.736	-1.550	0.421	-7.202	-40.649	-52.795	-79.32	-14.11	-83.25	-69.972	-57.820	3.724	0.51968	-0.53519	0.35114	-0.56573	30.9	13111	100
2025-3-27 18:44:59.50	WT901BLE68-01(48591DE3C19B)	-0.647	-1.550	0.421	-7.202	-40.649	-52.795	-79.37	-14.49	-83.13	-69.972	-57.820	3.724	0.51968	-0.53519	0.35114	-0.56573	30.9	13111	100
2025-3-27 18:44:59.80	WT901BLE68-01(48591DE3C19B)	-0.647	-1.561	0.431	-0.916	-26.062	-27.283	-79.34	-14.59	-83.12	-69.972	-57.820	3.724	0.51968	-0.53519	0.35114	-0.56573	30.9	13111	100
2025-3-27 18:44:59.80	WT901BLE68-01(48591DE3C19B)	-0.525	-1.561	0.431	-0.916	-26.062	-27.283	-79.32	-14.69	-83.11	-69.972	-57.820	3.724	0.51968	-0.53519	0.35114	-0.56573	30.9	13111	100
2025-3-27 18:44:59.80	WT901BLE68-01(48591DE3C19B)	-0.525	-1.360	0.378	4.028	9.705	4.272	-79.17	-14.42	-83.40	-69.972	-57.820	3.724	0.51968	-0.53519	0.35114	-0.56573	30.9	13111	100
2025-3-27 18:44:59.80	WT901BLE68-01(48591DE3C19B)	-0.489	-1.360	0.378	4.028	9.705	4.272	-79.02	-14.15	-83.68	-69.972	-57.820	3.724	0.51968	-0.53519	0.35114	-0.56573	30.9	13111	100
2025-3-27 18:44:59.110	WT901BLE68-01(48591DE3C19B)	-0.489	-1.190	0.371	-1.221	38.818	40.222	-78.88	-13.48	-84.18	-69.972	-57.820	3.724	0.51968	-0.53519	0.35114	-0.56573	30.9	13111	100
2025-3-27 18:44:59.110	WT901BLE68-01(48591DE3C19B)	-0.510	-1.190	0.371	-1.221	38.818	40.222	-78.74	-12.81	-84.68	-69.972	-57.820	3.724	0.51968	-0.53519	0.35114	-0.56573	30.9	13111	100
2025-3-27 18:44:59.110	WT901BLE68-01(48591DE3C19B)	-0.255	-1.055	0.404	-2.625	41.748	74.280	-78.62	-11.80	-85.13	-69.972	-57.820	3.724	0.51968	-0.53519	0.35114	-0.56573	30.9	13111	100
2025-3-27 18:44:59.110	WT901BLE68-01(48591DE3C19B)	-0.478	-0.527	0.202	-2.625	41.748	74.280	-78.52	-10.81	-85.58	-69.972	-57.820	3.724	0.51968	-0.53519	0.35114	-0.56573	30.9	13111	100
2025-3-27 18:44:59.170	WT901BLE68-01(48591DE3C19B)	-0.478	-0.880	0.371	-5.127	29.907	106.262	-78.48	-9.52	-85.85	-69.972	-57.820	3.724	0.51968	-0.53519	0.35114	-0.56573	30.9	13111	100
2025-3-27 18:44:59.170	WT901BLE68-01(48591DE3C19B)	-0.469	-0.880	0.371	-5.127	29.907	106.262	-78.43	-8.25	-86.12	-69.972	-57.820	3.724	0.51968	-0.53519	0.35114	-0.56573	30.9	13111	100
2025-3-27 18:44:59.170	WT901BLE68-01(48591DE3C19B)	-0.520	-0.848	0.263	-9.399	15.015	134.644	-78.46	-6.72	-86.18	-69.972	-57.820	3.724	0.51968	-0.53519	0.35114	-0.56573	30.9	13111	100
2025-3-27 18:44:59.170	WT901BLE68-01(48591DE3C19B)	-0.520	-0.964	0.157	-13.550	-7.263	157.227	-78.52	-5.13	-86.10	-69.972	-57.820	3.724	0.51968	-0.53519	0.35114	-0.56573	30.9	13111	100
2025-3-27 18:44:59.202	WT901BLE68-01(48591DE3C19B)	-0.514	-0.964	0.157	-13.550	-7.263	157.227	-78.62	-3.44	-85.89	-69.972	-57.820	3.724	0.51968	-0.53519	0.35114	-0.56573	30.9	13111	100
2025-3-27 18:44:59.202	WT901BLE68-01(48591DE3C19B)	-0.514	-1.159	0.067	-11.414	-34.485	173.218	-78.70	-1.71	-85.52	-69.972	-57.820	3.724	0.51968	-0.53519	0.35114	-0.56573	30.9	13111	100
2025-3-27 18:44:59.202	WT901BLE68-01(48591DE3C19B)	-0.461	-1.159	0.067	-11.414	-34.485	173.218	-78.78	0.06	-84.99	-69.972	-57.820	3.724	0.51968	-0.53519	0.35114	-0.56573	30.9	13111	100
2025-3-27 18:44:59.203	WT901BLE68-01(48591DE3C19B)	-0.461	-1.263	0.033	-1.465	-58.594	183.838	-78.79	1.86	-84.32	-69.972	-57.820	3.724	0.51968	-0.53519	0.35114	-0.56573	30.9	13111	100
2025-3-27 18:44:59.232	WT901BLE68-01(48591DE3C19B)	-0.382	-1.263	0.033	-1.465	-58.594	183.838	-78.73	3.66	-83.51	-69.972	-57.820	3.724	0.51968	-0.53519	0.35114	-0.56573	30.9	13111	100
2025-3-27 18:44:59.232	WT901BLE68-01(48591DE3C19B)	-0.382	-1.273	0.025	7.813	-77.209	191.467	-78.60	5.48	-82.58	-69.972	-57.820	3.724	0.51968	-0.53519	0.35114	-0.56573	30.9	13111	100
2025-3-27 18:44:59.232	WT901BLE68-01(48591DE3C19B)	-0.300	-1.273	0.025	7.813	-77.209	191.467	-78.39	7.31	-81.54	-67.522	-55.174	2.842	0.51968	-0.53519	0.35114	-0.56573	30.9	13111	100
2025-3-27 18:44:59.232	WT901BLE68-01(48591DE3C19B)	-0.300	-1.290	0.041	14.832	-87.524	197.510	-78.11	9.12	-80.41	-67.522	-55.174	2.842	0.51968	-0.53519	0.35114	-0.56573	30.9	13111	100
2025-3-27 18:44:59.294	WT901BLE68-01(48591DE3C19B)	-0.229	-1.290	0.041	14.832	-87.524	197.510	-77.75	10.94	-79.22	-67.522	-55.174	2.842	0.51968	-0.53519	0.35114	-0.56573	30.9	13111	100
2025-3-27 18:44:59.294	WT901BLE68-01(48591DE3C19B)	-0.229	-1.248	0.038	22.156	-87.708	203.186	-77.32	12.76	-78.00	-67.522	-55.174	2.842	0.51968	-0.53519	0.35114	-0.56573	30.9	13111	100
2025-3-27 18:44:59.294	WT901BLE68-01(48591DE3C19B)	-0.165	-1.248	0.038	22.156	-87.708	203.186	-76.81	14.58	-76.74	-67.522	-55.174	2.842	0.51968	-0.53519	0.35114	-0.56573	30.9	13111	100
2025-3-27 18:44:59.294	WT901BLE68-01(48591DE3C19B)	-0.165	-1.123	0.021	26.306	-76.233	210.083	-76.26	16.42	-75.52	-67.522	-55.174	2.842	0.51968	-0.53519	0.35114	-0.56573	30.9	13111	100
2025-3-27 18:44:59.319	WT901BLE68-01(48591DE3C19B)	-0.108	-1.123	0.021	26.306	-76.233	210.083	-75.65	18.28	-74.31	-67.522	-55.174	2.842	0.51968	-0.53519	0.35114	-0.56573	30.9	13111	100
2025-3-27 18:44:59.320	WT901BLE68-01(48591DE3C19B)	-0.108	-1.034	0.006	24.658	-55.603	217.407	-75.05	20.17	-73.16	-67.522	-55.174	2.842	0.51968	-0.53519	0.35114	-0.56573	30.9	13111	100
2025-3-27 18:44:59.320	WT901BLE68-01(48591DE3C19B)	-0.090	-1.034	0.006	24.658	-55.603	217.407	-74.44	22.10	-72.09	-67.522	-55.174	2.842	0.51968	-0.53519	0.35114	-0.56573	30.9	13111	100
2025-3-27 18:44:59.320	WT901BLE68-01(48591DE3C19B)	-0.090	-1.031	-0.009	20.264	-33.081	222.107	-73.86	24.05	-71.09	-67.522	-55.174	2.842	0.51968	-0.53519	0.35114	-0.56573	30.9	13111	100
2025-3-27 18:44:59.350	WT901BLE68-01(48591DE3C19B)	-0.084	-1.031	-0.009	20.264	-33.081	222.107	-73.31	26.03	-70.16	-67.522	-55.174	2.842	0.51968	-0.53519	0.35114	-0.56573	30.9	13111	100
2025-3-27 18:44:59.350	WT901BLE68-01(48591DE3C19B)	-0.084	-1.089	-0.031	14.282	-14.160	223.633	-72.78	28.03	-69.31	-67.522	-55.174	2.842	0.51968	-0.53519	0.35114	-0.56573	30.9	13111	100
2025-3-27 18:44:59.350	WT901BLE68-01(48591DE3C19B)	-0.093	-1.089	-0.031	14.282	-14.160	223.633	-72.31	30.03	-68.52	-67.522	-55.174	2.842	0.51968	-0.53519	0.35114	-0.56573	30.9	13111	100
2025-3-27 18:44:59.350	WT901BLE68-01(48591DE3C19B)	-0.093	-1.193	-0.047	6.042	-1.404	220.337	-71.87	32.01	-67.79	-67.522	-55.174	2.842	0.51968	-0.53519	0.35114	-0.56573	30.9	13111	100
2025-3-27 18:44:59.412	WT901BLE68-01(48591DE3C19B)	-0.098	-1.193	-0.047	6.042	-1.404	220.337	-71.48	33.99	-67.09	-67.522	-55.174	2.842	0.51968	-0.53519	0.35114	-0.56573	30.9	13111	100
2025-3-27 18:44:59.412	WT901BLE68-01(48591DE3C19B)	-0.098	-1.336	-0.058	-2.014	5.920	212.463	-71.14	35.91	-66.43	-67.522	-55.174	2.842	0.51968	-0.53519	0.35114	-0.56573	30.9	13111	100
2025-3-27 18:44:59.412	WT901BLE68-01(48591DE3C19B)	-0.089	-1.336	-0.058	-2.014	5.920	212.463	-70.84	37.80	-65.81	-67.522	-55.174	2.842	0.51968	-0.53519	0.35114	-0.56573	30.9	13111	100
2025-3-27 18:44:59.412	WT901BLE68-01(48591DE3C19B)	-0.089	-1.524	-0.096	-7.813	8.545	197.388	-70.57	39.60	-65.21	-67.522	-55.174	2.842	0.51968	-0.53519	0.35114	-0.56573	30.9	13111	100
2025-3-27 18:44:59.442	WT901BLE68-01(48591DE3C19B)	-0.028	-1.524	-0.096	-7.813	8.545	197.388	-70.33	41.33	-64.64	-67.522	-55.174	2.842	0.51968	-0.53519	0.35114	-0.56573	30.9	13111	100
2025-3-27 18:44:59.442	WT901BLE68-01(48591DE3C19B)	-0.028	-1.657	-0.140	-9.644	7.751	172.363	-70.12	42.91	-64.11	-67.522	-55.174	2.842	0.51968	-0.53519	0.35114	-0.56573	30.9	13111	100
2025-3-27 18:44:59.442	WT901BLE68-01(48591DE3C19B)	0.108	-1.657	-0.140	-9.644	7.751	172.363	-69.93	44.37	-63.61	-67.522	-55.174	2.842	0.51968	-0.53519	0.35114	-0.56573	30.9	13111	100
2025-3-27 18:44:59.442	WT901BLE68-01(48591DE3C19B)	0.108	-1.783	-0.145	-8.728	-0.854	134.766	-69.75	45.62	-63.13	-67.522	-55.174	2.842	0.76096	-0.28043	0.54861	-0.20306	30.9	13111	100
2025-3-27 18:44:59.500	WT901BLE68-01(48591DE3C19B)	0.195	-1.783	-0.145	-8.728	-0.854	134.766	-69.58	46.66	-62.68	-67.522	-55.174	2.842	0.76096	-0.28043	0.54861	-0.20306	30.9	13111	100
2025-3-27 18:44:59.500	WT901BLE68-01(48591DE3C19B)	0.195	-1.807	-0.118	-4.028	-7.629	91.492	-69.43	47.49	-62.30	-67.522	-55.174	2.842	0.76096	-0.28043	0.54861	-0.20306	30.9	13111	100
2025-3-27 18:44:59.500	WT901BLE68-01(48591DE3C19B)	0.200	-1.807	-0.118	-4.028	-7.629	91.492	-69.30	48.09	-61.97	-67.522	-55.174	2.842	0.76096	-0.28043	0.54861	-0.20306	30.9	13111	100
2025-3-27 18:44:59.500	WT901BLE68-01(48591DE3C19B)	0.200	-1.656	-0.025	-2.686	-12.634	41.504	-69.22	48.44	-61.75	-67.522	-55.174	2.842	0.76096	-0.28043	0.54861	-0.20306	30.9	13111	100
2025-3-27 18:44:59.529	WT901BLE68-01(48591DE3C19B)	0.156	-1.656	-0.025	-2.686	-12.634	41.504	-69.22	48.54	-61.62	-67.522	-55.174	2.842	0.76096	-0.28043	0.54861	-0.20306	30.9	13111	100
2025-3-27 18:44:59.529	WT901BLE68-01(48591DE3C19B)	0.156	-1.450	0.085	-3.784	-11.841	-9.338	-69.33	48.39	-61.64	-67.522	-55.174	2.842	0.76096	-0.28043	0.54861	-0.20306	30.9	13111	100
2025-3-27 18:44:59.529	WT901BLE68-01(48591DE3C19B)	0.194	-1.450	0.085	-3.784	-11.841	-9.338	-69.55	48.02	-61.80	-67.522	-55.174	2.842	0.76096	-0.28043	0.54861	-0.20306	30.9	13111	100
2025-3-27 18:44:59.529	WT901BLE68-01(48591DE3C19B)	0.194	-1.315	0.162	-1.526	-6.592	-55.481	-69.86	47.43	-62.11	-67.522	-55.174	2.842	0.76096	-0.28043	0.54861	-0.20306	30.9	13111	100
2025-3-27 18:44:59.592	WT901BLE68-01(48591DE3C19B)	0.210	-1.315	0.162	-1.526	-6.592	-55.481	-70.26	46.64	-62.56	-67.522	-55.174	2.842	0.76096	-0.28043	0.54861	-0.20306	30.9	13111	100
2025-3-27 18:44:59.592	WT901BLE68-01(48591DE3C19B)	0.210	-1.234	0.120	3.174	7.202	-100.037	-70.75	45.65	-63.19	-67.522	-55.174	2.842	0.76096	-0.28043	0.54861	-0.20306	30.9	13111	100
2025-3-27 18:44:59.592	WT901BLE68-01(48591DE3C19B)	0.186	-1.234	0.120	3.174	7.202	-100.037	-71.33	44.48	-63.98	-67.522	-55.174	2.842	0.76096	-0.28043	0.54861	-0.20306	30.9	13111	100
2025-3-27 18:44:59.592	WT901BLE68-01(48591DE3C19B)	0.186	-1.067	0.109	7.019	19.958	-137.451	-71.97	43.15	-64.91	-67.522	-55.174	2.842	0.76096	-0.28043	0.54861	-0.20306	30.9	13111	100
2025-3-27 18:44:59.593	WT901BLE68-01(48591DE3C19B)	0.116	-1.067	0.109	7.019	19.958	-137.451	-72.65	41.65	-65.95	-67.522	-55.174	2.842	0.76096	-0.28043	0.54861	-0.20306	30.9	13111	100
2025-3-27 18:44:59.593	WT901BLE68-01(48591DE3C19B)	0.116	-0.970	0.113	3.723	26.978	-167.175	-73.34	40.02	-67.03	-67.522	-55.174	2.842	0.76096	-0.28043	0.54861	-0.20306	30.9	13111	100
2025-3-27 18:44:59.593	WT901BLE68-01(48591DE3C19B)	0.040	-0.970	0.113	3.723	26.978	-167.175	-74.06	38.26	-68.15	-67.522	-55.174	2.842	0.76096	-0.28043	0.54861	-0.20306	30.9	13111	100
2025-3-27 18:44:59.593	WT901BLE68-01(48591DE3C19B)	0.040	-0.968	0.130	3.235	34.180	-189.209	-74.76	36.40	-69.29	-67.522	-55.174	2.842	0.76096	-0.28043	0.54861	-0.20306	30.9	13111	100
2025-3-27 18:44:59.649	WT901BLE68-01(48591DE3C19B)	-0.077	-0.968	0.130	3.235	34.180	-189.209	-75.43	34.44	-70.45	-67.522	-55.174	2.842	0.76096	-0.28043	0.54861	-0.20306	30.9	13111	100
2025-3-27 18:44:59.650	WT901BLE68-01(48591DE3C19B)	-0.077	-0.991	0.211	4.700	42.603	-202.454	-76.07	32.43	-71.61	-87.024	-35.084	5.194	0.76096	-0.28043	0.54861	-0.20306	30.9	13111	100
2025-3-27 18:44:59.650	WT901BLE68-01(48591DE3C19B)	-0.183	-0.991	0.211	4.700	42.603	-202.454	-76.66	30.37	-72.78	-87.024	-35.084	5.194	0.76096	-0.28043	0.54861	-0.20306	30.9	13111	100
2025-3-27 18:44:59.650	WT901BLE68-01(48591DE3C19B)	-0.183	-1.052	0.282	3.052	40.283	-212.036	-77.20	28.21	-73.90	-87.024	-35.084	5.194	0.76096	-0.28043	0.54861	-0.20306	30.9	13111	100
2025-3-27 18:44:59.679	WT901BLE68-01(48591DE3C19B)	-0.236	-1.052	0.282	3.052	40.283	-212.036	-77.68	26.07	-74.97	-87.024	-35.084	5.194	0.76096	-0.28043	0.54861	-0.20306	30.9	13111	100
2025-3-27 18:44:59.679	WT901BLE68-01(48591DE3C19B)	-0.236	-1.135	0.313	3.235	34.119	-219.666	-78.07	23.86	-75.94	-87.024	-35.084	5.194	0.76096	-0.28043	0.54861	-0.20306	30.9	13111	100
2025-3-27 18:44:59.679	WT901BLE68-01(48591DE3C19B)	-0.255	-1.135	0.313	3.235	34.119	-219.666	-78.41	21.65	-76.89	-87.024	-35.084	5.194	0.76096	-0.28043	0.54861	-0.20306	30.9	13111	100
2025-3-27 18:44:59.679	WT901BLE68-01(48591DE3C19B)	-0.255	-1.165	0.314	5.127	29.175	-223.938	-78.66	19.41	-77.76	-87.024	-35.084	5.194	0.76096	-0.28043	0.54861	-0.20306	30.9	13111	100
2025-3-27 18:44:59.709	WT901BLE68-01(48591DE3C19B)	-0.272	-1.165	0.314	5.127	29.175	-223.938	-78.88	17.18	-78.60	-87.024	-35.084	5.194	0.76096	-0.28043	0.54861	-0.20306	30.9	13111	100
2025-3-27 18:44:59.710	WT901BLE68-01(48591DE3C19B)	-0.272	-1.146	0.298	5.310	24.963	-223.938	-79.03	14.96	-79.38	-87.024	-35.084	5.194	0.76096	-0.28043	0.54861	-0.20306	30.9	13111	100
2025-3-27 18:44:59.710	WT901BLE68-01(48591DE3C19B)	-0.298	-1.146	0.298	5.310	24.963	-223.938	-79.16	12.77	-80.15	-87.024	-35.084	5.194	0.76096	-0.28043	0.54861	-0.20306	30.9	13111	100
2025-3-27 18:44:59.710	WT901BLE68-01(48591DE3C19B)	-0.298	-1.083	0.283	6.226	22.888	-220.337	-79.23	10.61	-80.88	-87.024	-35.084	5.194	0.76096	-0.28043	0.54861	-0.20306	30.9	13111	100
2025-3-27 18:44:59.769	WT901BLE68-01(48591DE3C19B)	-0.328	-1.083	0.283	6.226	22.888	-220.337	-79.27	8.48	-81.60	-87.024	-35.084	5.194	0.76096	-0.28043	0.54861	-0.20306	30.9	13111	100
2025-3-27 18:44:59.769	WT901BLE68-01(48591DE3C19B)	-0.328	-0.962	0.275	9.216	23.499	-214.905	-79.26	6.41	-82.30	-87.024	-35.084	5.194	0.76096	-0.28043	0.54861	-0.20306	30.9	13111	100
2025-3-27 18:44:59.769	WT901BLE68-01(48591DE3C19B)	-0.358	-0.962	0.275	9.216	23.499	-214.905	-79.22	4.37	-83.01	-87.024	-35.084	5.194	0.76096	-0.28043	0.54861	-0.20306	30.9	13111	100
2025-3-27 18:44:59.769	WT901BLE68-01(48591DE3C19B)	-0.358	-0.835	0.280	9.033	19.775	-208.313	-79.15	2.40	-83.67	-87.024	-35.084	5.194	0.76096	-0.28043	0.54861	-0.20306	30.9	13111	100
2025-3-27 18:44:59.800	WT901BLE68-01(48591DE3C19B)	-0.371	-0.835	0.280	9.033	19.775	-208.313	-79.06	0.44	-84.33	-87.024	-35.084	5.194	0.76096	-0.28043	0.54861	-0.20306	30.9	13111	100
2025-3-27 18:44:59.800	WT901BLE68-01(48591DE3C19B)	-0.371	-0.792	0.315	6.348	10.193	-200.256	-78.97	-1.42	-84.88	-87.024	-35.084	5.194	0.76096	-0.28043	0.54861	-0.20306	30.9	13111	100
2025-3-27 18:44:59.801	WT901BLE68-01(48591DE3C19B)	-0.424	-0.792	0.315	6.348	10.193	-200.256	-78.86	-3.28	-85.45	-87.024	-35.084	5.194	0.76096	-0.28043	0.54861	-0.20306	30.9	13111	100
2025-3-27 18:44:59.801	WT901BLE68-01(48591DE3C19B)	-0.424	-0.814	0.346	6.775	-3.906	-191.589	-78.73	-5.06	-85.86	-87.024	-35.084	5.194	0.76096	-0.28043	0.54861	-0.20306	30.9	13111	100
2025-3-27 18:44:59.859	WT901BLE68-01(48591DE3C19B)	-0.470	-0.814	0.346	6.775	-3.906	-191.589	-78.59	-6.82	-86.29	-87.024	-35.084	5.194	0.76096	-0.28043	0.54861	-0.20306	30.9	13111	100
2025-3-27 18:44:59.859	WT901BLE68-01(48591DE3C19B)	-0.470	-0.882	0.347	9.094	-20.142	-182.007	-78.43	-8.50	-86.55	-87.024	-35.084	5.194	0.76096	-0.28043	0.54861	-0.20306	30.9	13111	100
2025-3-27 18:44:59.860	WT901BLE68-01(48591DE3C19B)	-0.494	-0.882	0.347	9.094	-20.142	-182.007	-78.26	-10.17	-86.82	-87.024	-35.084	5.194	0.52277	-0.50391	0.38199	-0.57162	30.9	13111	100
2025-3-27 18:44:59.860	WT901BLE68-01(48591DE3C19B)	-0.494	-0.988	0.328	13.000	-33.203	-171.143	-78.07	-11.75	-86.95	-87.024	-35.084	5.194	0.52277	-0.50391	0.38199	-0.57162	30.9	13111	100
2025-3-27 18:44:59.920	WT901BLE68-01(48591DE3C19B)	-0.526	-0.988	0.328	13.000	-33.203	-171.143	-77.88	-13.31	-87.09	-87.024	-35.084	5.194	0.52277	-0.50391	0.38199	-0.57162	30.9	13111	100
2025-3-27 18:44:59.920	WT901BLE68-01(48591DE3C19B)	-0.526	-1.149	0.311	17.700	-38.513	-158.447	-77.65	-14.75	-87.16	-87.024	-35.084	5.194	0.52277	-0.50391	0.38199	-0.57162	30.9	13111	100
2025-3-27 18:44:59.920	WT901BLE68-01(48591DE3C19B)	-0.525	-1.149	0.311	17.700	-38.513	-158.447	-77.43	-16.17	-87.24	-87.024	-35.084	5.194	0.52277	-0.50391	0.38199	-0.57162	30.9	13111	100
2025-3-27 18:44:59.921	WT901BLE68-01(48591DE3C19B)	-0.525	-1.330	0.284	21.729	-37.537	-143.311	-77.17	-17.44	-87.30	-87.024	-35.084	5.194	0.52277	-0.50391	0.38199	-0.57162	30.9	13111	100
2025-3-27 18:44:59.922	WT901BLE68-01(48591DE3C19B)	-0.494	-1.330	0.284	21.729	-37.537	-143.311	-76.92	-18.69	-87.36	-87.024	-35.084	5.194	0.52277	-0.50391	0.38199	-0.57162	30.9	13111	100
2025-3-27 18:44:59.922	WT901BLE68-01(48591DE3C19B)	-0.494	-1.479	0.270	23.621	-21.118	-123.169	-76.61	-19.71	-87.54	-87.024	-35.084	5.194	0.52277	-0.50391	0.38199	-0.57162	30.9	13111	100
2025-3-27 18:44:59.922	WT901BLE68-01(48591DE3C19B)	-0.439	-1.479	0.270	23.621	-21.118	-123.169	-76.31	-20.73	-87.73	-87.024	-35.084	5.194	0.52277	-0.50391	0.38199	-0.57162	30.9	13111	100
2025-3-27 18:44:59.922	WT901BLE68-01(48591DE3C19B)	-0.439	-1.549	0.261	23.743	20.752	-98.511	-75.87	-21.40	-88.28	-87.024	-35.084	5.194	0.52277	-0.50391	0.38199	-0.57162	30.9	13111	100
2025-3-27 18:44:59.952	WT901BLE68-01(48591DE3C19B)	-0.426	-1.549	0.261	23.743	20.752	-98.511	-75.43	-22.06	-88.84	-87.024	-35.084	5.194	0.52277	-0.50391	0.38199	-0.57162	30.9	13111	100
2025-3-27 18:44:59.952	WT901BLE68-01(48591DE3C19B)	-0.426	-1.464	0.291	17.700	71.533	-66.406	-74.89	-22.27	-89.84	-87.024	-35.084	5.194	0.52277	-0.50391	0.38199	-0.57162	30.9	13111	100
2025-3-27 18:44:59.952	WT901BLE68-01(48591DE3C19B)	-0.466	-1.464	0.291	17.700	71.533	-66.406	-74.36	-22.48	-90.83	-87.024	-35.084	5.194	0.52277	-0.50391	0.38199	-0.57162	30.9	13111	100
2025-3-27 18:44:59.952	WT901BLE68-01(48591DE3C19B)	-0.466	-1.282	0.365	9.094	110.046	-29.175	-73.80	-22.23	-92.11	-87.024	-35.084	5.194	0.52277	-0.50391	0.38199	-0.57162	30.9	13111	100
2025-3-27 18:45:0.11	WT901BLE68-01(48591DE3C19B)	-0.523	-1.282	0.365	9.094	110.046	-29.175	-73.24	-21.95	-93.38	-87.024	-35.084	5.194	0.52277	-0.50391	0.38199	-0.57162	30.9	13111	100
2025-3-27 18:45:0.11	WT901BLE68-01(48591DE3C19B)	-0.523	-1.101	0.476	-5.066	116.699	5.981	-72.86	-21.32	-94.61	-87.024	-35.084	5.194	0.52277	-0.50391	0.38199	-0.57162	30.9	13111	100
2025-3-27 18:45:0.11	WT901BLE68-01(48591DE3C19B)	-0.595	-1.101	0.476	-5.066	116.699	5.981	-72.48	-20.68	-95.84	-87.024	-35.084	5.194	0.52277	-0.50391	0.38199	-0.57162	30.9	13111	100
2025-3-27 18:45:0.11	WT901BLE68-01(48591DE3C19B)	-0.595	-1.088	0.547	-19.104	92.834	36.743	-72.38	-19.81	-96.72	-87.024	-35.084	5.194	0.52277	-0.50391	0.38199	-0.57162	30.9	13111	100
2025-3-27 18:45:0.39	WT901BLE68-01(48591DE3C19B)	-0.654	-1.088	0.547	-19.104	92.834	36.743	-72.27	-18.95	-97.61	-87.024	-35.084	5.194	0.52277	-0.50391	0.38199	-0.57162	30.9	13111	100
2025-3-27 18:45:0.39	WT901BLE68-01(48591DE3C19B)	-0.654	-0.990	0.526	-23.193	53.223	65.491	-72.38	-17.93	-98.01	-87.024	-35.084	5.194	0.52277	-0.50391	0.38199	-0.57162	30.9	13111	100
2025-3-27 18:45:0.39	WT901BLE68-01(48591DE3C19B)	-0.716	-0.990	0.526	-23.193	53.223	65.491	-72.47	-16.91	-98.43	-87.024	-35.084	5.194	0.52277	-0.50391	0.38199	-0.57162	30.9	13111	100
2025-3-27 18:45:0.39	WT901BLE68-01(48591DE3C19B)	-0.716	-0.810	0.411	-27.344	6.592	94.055	-72.76	-15.77	-98.31	-58.996	-57.232	4.998	0.52277	-0.50391	0.38199	-0.57162	30.9	13111	100
2025-3-27 18:45:0.70	WT901BLE68-01(48591DE3C19B)	-0.693	-0.810	0.411	-27.344	6.592	94.055	-73.04	-14.62	-98.20	-58.996	-57.232	4.998	0.52277	-0.50391	0.38199	-0.57162	30.9	13111	100
2025-3-27 18:45:0.70	WT901BLE68-01(48591DE3C19B)	-0.693	-0.687	0.266	-29.297	-36.011	121.155	-73.44	-13.34	-97.61	-58.996	-57.232	4.998	0.52277	-0.50391	0.38199	-0.57162	30.9	13111	100
2025-3-27 18:45:0.70	WT901BLE68-01(48591DE3C19B)	-0.596	-0.687	0.266	-29.297	-36.011	121.155	-73.82	-12.05	-97.05	-58.996	-57.232	4.998	0.52277	-0.50391	0.38199	-0.57162	30.9	13111	100
2025-3-27 18:45:0.70	WT901BLE68-01(48591DE3C19B)	-0.446	-0.646	0.149	-31.067	-70.496	149.109	-74.28	-10.59	-96.08	-58.996	-57.232	4.998	0.52277	-0.50391	0.38199	-0.57162	30.9	13111	100
2025-3-27 18:45:0.129	WT901BLE68-01(48591DE3C19B)	-0.446	-0.810	0.053	-30.090	-86.853	170.532	-74.72	-9.04	-95.03	-58.996	-57.232	4.998	0.52277	-0.50391	0.38199	-0.57162	30.9	13111	100
2025-3-27 18:45:0.130	WT901BLE68-01(48591DE3C19B)	-0.324	-0.810	0.053	-30.090	-86.853	170.532	-75.15	-7.40	-93.86	-58.996	-57.232	4.998	0.52277	-0.50391	0.38199	-0.57162	30.9	13111	100
2025-3-27 18:45:0.130	WT901BLE68-01(48591DE3C19B)	-0.324	-1.015	0.008	-16.663	-87.891	184.021	-75.49	-5.70	-92.68	-58.996	-57.232	4.998	0.52277	-0.50391	0.38199	-0.57162	30.9	13111	100
2025-3-27 18:45:0.130	WT901BLE68-01(48591DE3C19B)	-0.282	-1.015	0.008	-16.663	-87.891	184.021	-75.73	-3.95	-91.47	-58.996	-57.232	4.998	0.52277	-0.50391	0.38199	-0.57162	30.9	13111	100
2025-3-27 18:45:0.193	WT901BLE68-01(48591DE3C19B)	-0.282	-1.138	0.025	0.854	-84.778	190.674	-75.86	-2.16	-90.26	-58.996	-57.232	4.998	0.52277	-0.50391	0.38199	-0.57162	30.9	13111	100
2025-3-27 18:45:0.193	WT901BLE68-01(48591DE3C19B)	-0.267	-1.138	0.025	0.854	-84.778	190.674	-75.87	-0.36	-89.04	-58.996	-57.232	4.998	0.52277	-0.50391	0.38199	-0.57162	30.9	13111	100
2025-3-27 18:45:0.193	WT901BLE68-01(48591DE3C19B)	-0.267	-1.245	0.050	15.137	-83.618	192.383	-75.78	1.42	-87.82	-58.996	-57.232	4.998	0.52277	-0.50391	0.38199	-0.57162	30.9	13111	100
2025-3-27 18:45:0.193	WT901BLE68-01(48591DE3C19B)	-0.218	-1.245	0.050	15.137	-83.618	192.383	-75.59	3.21	-86.59	-58.996	-57.232	4.998	0.52277	-0.50391	0.38199	-0.57162	30.9	13111	100
2025-3-27 18:45:0.194	WT901BLE68-01(48591DE3C19B)	-0.218	-1.319	0.038	27.893	-72.632	193.787	-75.31	4.99	-85.40	-58.996	-57.232	4.998	0.52277	-0.50391	0.38199	-0.57162	30.9	13111	100
2025-3-27 18:45:0.194	WT901BLE68-01(48591DE3C19B)	-0.168	-1.319	0.038	27.893	-72.632	193.787	-74.94	6.76	-84.24	-58.996	-57.232	4.998	0.52277	-0.50391	0.38199	-0.57162	30.9	13111	100
2025-3-27 18:45:0.194	WT901BLE68-01(48591DE3C19B)	-0.168	-1.256	0.031	38.818	-52.063	199.829	-74.50	8.56	-83.16	-58.996	-57.232	4.998	0.52277	-0.50391	0.38199	-0.57162	30.9	13111	100
2025-3-27 18:45:0.194	WT901BLE68-01(48591DE3C19B)	-0.118	-1.256	0.031	38.818	-52.063	199.829	-73.99	10.40	-82.14	-58.996	-57.232	4.998	0.52277	-0.50391	0.38199	-0.57162	30.9	13111	100
2025-3-27 18:45:0.249	WT901BLE68-01(48591DE3C19B)	-0.118	-1.128	0.049	38.269	-24.841	207.336	-73.47	12.28	-81.24	-58.996	-57.232	4.998	0.52277	-0.50391	0.38199	-0.57162	30.9	13111	100
2025-3-27 18:45:0.250	WT901BLE68-01(48591DE3C19B)	-0.110	-1.128	0.049	38.269	-24.841	207.336	-72.95	14.22	-80.43	-58.996	-57.232	4.998	0.52277	-0.50391	0.38199	-0.57162	30.9	13111	100
2025-3-27 18:45:0.250	WT901BLE68-01(48591DE3C19B)	-0.110	-1.100	0.051	29.480	4.517	215.027	-72.49	16.20	-79.74	-58.996	-57.232	4.998	0.52277	-0.50391	0.38199	-0.57162	30.9	13111	100
2025-3-27 18:45:0.250	WT901BLE68-01(48591DE3C19B)	-0.129	-1.100	0.051	29.480	4.517	215.027	-72.09	18.25	-79.16	-58.996	-57.232	4.998	0.52277	-0.50391	0.38199	-0.57162	30.9	13111	100
2025-3-27 18:45:0.279	WT901BLE68-01(48591DE3C19B)	-0.129	-1.117	0.024	19.958	26.611	220.886	-71.74	20.34	-78.66	-58.996	-57.232	4.998	0.68250	-0.35541	0.47617	-0.42548	30.9	13111	100
2025-3-27 18:45:0.279	WT901BLE68-01(48591DE3C19B)	-0.153	-1.117	0.024	19.958	26.611	220.886	-71.45	22.47	-78.25	-58.996	-57.232	4.998	0.68250	-0.35541	0.47617	-0.42548	30.9	13111	100
2025-3-27 18:45:0.279	WT901BLE68-01(48591DE3C19B)	-0.153	-1.175	-0.007	5.676	37.415	223.694	-71.24	24.61	-77.87	-58.996	-57.232	4.998	0.68250	-0.35541	0.47617	-0.42548	30.9	13111	100
2025-3-27 18:45:0.279	WT901BLE68-01(48591DE3C19B)	-0.214	-1.175	-0.007	5.676	37.415	223.694	-71.11	26.77	-77.54	-58.996	-57.232	4.998	0.68250	-0.35541	0.47617	-0.42548	30.9	13111	100
2025-3-27 18:45:0.340	WT901BLE68-01(48591DE3C19B)	-0.214	-1.402	-0.053	-14.038	39.429	224.182	-71.07	28.92	-77.21	-58.996	-57.232	4.998	0.68250	-0.35541	0.47617	-0.42548	30.9	13111	100
2025-3-27 18:45:0.340	WT901BLE68-01(48591DE3C19B)	-0.246	-1.402	-0.053	-14.038	39.429	224.182	-71.12	31.06	-76.88	-58.996	-57.232	4.998	0.68250	-0.35541	0.47617	-0.42548	30.9	13111	100
2025-3-27 18:45:0.340	WT901BLE68-01(48591DE3C19B)	-0.246	-1.679	-0.064	-28.137	21.362	212.830	-71.19	33.11	-76.47	-58.996	-57.232	4.998	0.68250	-0.35541	0.47617	-0.42548	30.9	13111	100
2025-3-27 18:45:0.340	WT901BLE68-01(48591DE3C19B)	-0.191	-1.679	-0.064	-28.137	21.362	212.830	-71.28	35.05	-75.98	-58.996	-57.232	4.998	0.68250	-0.35541	0.47617	-0.42548	30.9	13111	100
2025-3-27 18:45:0.369	WT901BLE68-01(48591DE3C19B)	-0.191	-1.807	-0.078	-31.921	-9.399	197.083	-71.27	36.87	-75.33	-58.996	-57.232	4.998	0.68250	-0.35541	0.47617	-0.42548	30.9	13111	100
2025-3-27 18:45:0.369	WT901BLE68-01(48591DE3C19B)	-0.058	-1.807	-0.078	-31.921	-9.399	197.083	-71.18	38.55	-74.53	-58.996	-57.232	4.998	0.68250	-0.35541	0.47617	-0.42548	30.9	13111	100
2025-3-27 18:45:0.369	WT901BLE68-01(48591DE3C19B)	-0.058	-1.794	-0.063	-40.466	-53.162	168.274	-70.97	40.00	-73.50	-58.996	-57.232	4.998	0.68250	-0.35541	0.47617	-0.42548	30.9	13111	100
2025-3-27 18:45:0.369	WT901BLE68-01(48591DE3C19B)	0.148	-1.794	-0.063	-40.466	-53.162	168.274	-70.63	41.24	-72.24	-58.996	-57.232	4.998	0.68250	-0.35541	0.47617	-0.42548	30.9	13111	100
2025-3-27 18:45:0.399	WT901BLE68-01(48591DE3C19B)	0.148	-1.789	0.010	-46.204	-97.961	131.409	-70.16	42.20	-70.76	-58.996	-57.232	4.998	0.68250	-0.35541	0.47617	-0.42548	30.9	13111	100
2025-3-27 18:45:0.399	WT901BLE68-01(48591DE3C19B)	0.257	-1.789	0.010	-46.204	-97.961	131.409	-69.55	42.90	-69.05	-58.996	-57.232	4.998	0.68250	-0.35541	0.47617	-0.42548	30.9	13111	100
2025-3-27 18:45:0.399	WT901BLE68-01(48591DE3C19B)	0.257	-1.665	0.123	-44.922	-121.582	89.355	-68.87	43.34	-67.29	-58.996	-57.232	4.998	0.68250	-0.35541	0.47617	-0.42548	30.9	13111	100
2025-3-27 18:45:0.399	WT901BLE68-01(48591DE3C19B)	0.363	-1.665	0.123	-44.922	-121.582	89.355	-68.15	43.51	-65.48	-58.996	-57.232	4.998	0.68250	-0.35541	0.47617	-0.42548	30.9	13111	100
2025-3-27 18:45:0.458	WT901BLE68-01(48591DE3C19B)	0.363	-1.417	0.211	-40.955	-128.296	46.204	-67.45	43.45	-63.75	-58.996	-57.232	4.998	0.68250	-0.35541	0.47617	-0.42548	30.9	13111	100
2025-3-27 18:45:0.459	WT901BLE68-01(48591DE3C19B)	0.503	-1.417	0.211	-40.955	-128.296	46.204	-66.80	43.15	-62.10	-58.996	-57.232	4.998	0.68250	-0.35541	0.47617	-0.42548	30.9	13111	100
2025-3-27 18:45:0.459	WT901BLE68-01(48591DE3C19B)	0.503	-1.173	0.249	-38.147	-106.750	3.906	-66.33	42.69	-60.73	-58.996	-57.232	4.998	0.68250	-0.35541	0.47617	-0.42548	30.9	13111	100
2025-3-27 18:45:0.459	WT901BLE68-01(48591DE3C19B)	0.558	-1.173	0.249	-38.147	-106.750	3.906	-66.03	42.06	-59.63	-58.996	-57.232	4.998	0.68250	-0.35541	0.47617	-0.42548	30.9	13111	100
2025-3-27 18:45:0.490	WT901BLE68-01(48591DE3C19B)	0.558	-1.064	0.306	-33.203	-53.772	-35.461	-66.02	41.36	-58.99	-89.768	-27.538	11.368	0.68250	-0.35541	0.47617	-0.42548	30.9	13111	100
2025-3-27 18:45:0.490	WT901BLE68-01(48591DE3C19B)	0.542	-1.064	0.306	-33.203	-53.772	-35.461	-66.27	40.57	-58.78	-89.768	-27.538	11.368	0.68250	-0.35541	0.47617	-0.42548	30.9	13111	100
2025-3-27 18:45:0.490	WT901BLE68-01(48591DE3C19B)	0.542	-1.123	0.246	-24.475	22.217	-72.083	-66.82	39.77	-59.11	-89.768	-27.538	11.368	0.68250	-0.35541	0.47617	-0.42548	30.9	13111	100
2025-3-27 18:45:0.490	WT901BLE68-01(48591DE3C19B)	0.425	-1.123	0.246	-24.475	22.217	-72.083	-67.66	38.93	-59.97	-89.768	-27.538	11.368	0.68250	-0.35541	0.47617	-0.42548	30.9	13111	100
2025-3-27 18:45:0.549	WT901BLE68-01(48591DE3C19B)	0.425	-1.071	0.207	-13.123	81.055	-98.022	-68.68	38.07	-61.21	-89.768	-27.538	11.368	0.68250	-0.35541	0.47617	-0.42548	30.9	13111	100
2025-3-27 18:45:0.549	WT901BLE68-01(48591DE3C19B)	0.286	-1.071	0.207	-13.123	81.055	-98.022	-69.83	37.18	-62.81	-89.768	-27.538	11.368	0.68250	-0.35541	0.47617	-0.42548	30.9	13111	100
2025-3-27 18:45:0.549	WT901BLE68-01(48591DE3C19B)	0.286	-1.112	0.173	-11.719	113.098	-121.338	-71.06	36.20	-64.61	-89.768	-27.538	11.368	0.68250	-0.35541	0.47617	-0.42548	30.9	13111	100
2025-3-27 18:45:0.549	WT901BLE68-01(48591DE3C19B)	0.134	-1.112	0.173	-11.719	113.098	-121.338	-72.36	35.14	-66.57	-89.768	-27.538	11.368	0.68250	-0.35541	0.47617	-0.42548	30.9	13111	100
2025-3-27 18:45:0.579	WT901BLE68-01(48591DE3C19B)	0.134	-1.254	0.147	-6.104	127.197	-140.808	-73.62	33.98	-68.58	-89.768	-27.538	11.368	0.68250	-0.35541	0.47617	-0.42548	30.9	13111	100
2025-3-27 18:45:0.579	WT901BLE68-01(48591DE3C19B)	-0.046	-1.254	0.147	-6.104	127.197	-140.808	-74.84	32.71	-70.64	-89.768	-27.538	11.368	0.68250	-0.35541	0.47617	-0.42548	30.9	13111	100
2025-3-27 18:45:0.579	WT901BLE68-01(48591DE3C19B)	-0.046	-1.359	0.161	5.981	123.413	-150.696	-75.86	31.33	-72.61	-89.768	-27.538	11.368	0.68250	-0.35541	0.47617	-0.42548	30.9	13111	100
2025-3-27 18:45:0.579	WT901BLE68-01(48591DE3C19B)	-0.272	-1.359	0.161	5.981	123.413	-150.696	-76.79	29.92	-74.52	-89.768	-27.538	11.368	0.68250	-0.35541	0.47617	-0.42548	30.9	13111	100
2025-3-27 18:45:0.612	WT901BLE68-01(48591DE3C19B)	-0.272	-1.377	0.232	16.296	92.407	-161.499	-77.39	28.34	-76.05	-89.768	-27.538	11.368	0.68250	-0.35541	0.47617	-0.42548	30.9	13111	100
2025-3-27 18:45:0.612	WT901BLE68-01(48591DE3C19B)	-0.367	-1.377	0.232	16.296	92.407	-161.499	-77.93	26.77	-77.54	-89.768	-27.538	11.368	0.68250	-0.35541	0.47617	-0.42548	30.9	13111	100
2025-3-27 18:45:0.612	WT901BLE68-01(48591DE3C19B)	-0.367	-1.344	0.248	19.775	44.128	-174.011	-78.16	24.99	-78.49	-89.768	-27.538	11.368	0.68250	-0.35541	0.47617	-0.42548	30.9	13111	100
2025-3-27 18:45:0.612	WT901BLE68-01(48591DE3C19B)	-0.325	-1.344	0.248	19.775	44.128	-174.011	-78.35	23.23	-79.41	-89.768	-27.538	11.368	0.68250	-0.35541	0.47617	-0.42548	30.9	13111	100
2025-3-27 18:45:0.670	WT901BLE68-01(48591DE3C19B)	-0.325	-1.238	0.252	21.362	13.855	-182.251	-78.37	21.34	-80.01	-89.768	-27.538	11.368	0.68250	-0.35541	0.47617	-0.42548	30.9	13111	100
2025-3-27 18:45:0.670	WT901BLE68-01(48591DE3C19B)	-0.292	-1.238	0.252	21.362	13.855	-182.251	-78.38	19.47	-80.61	-89.768	-27.538	11.368	0.68250	-0.35541	0.47617	-0.42548	30.9	13111	100
2025-3-27 18:45:0.670	WT901BLE68-01(48591DE3C19B)	-0.292	-1.128	0.229	18.799	4.578	-185.059	-78.35	17.58	-81.10	-89.768	-27.538	11.368	0.64136	-0.40082	0.49237	-0.43063	30.9	13111	100
2025-3-27 18:45:0.670	WT901BLE68-01(48591DE3C19B)	-0.252	-1.128	0.229	18.799	4.578	-185.059	-78.31	15.70	-81.59	-89.768	-27.538	11.368	0.64136	-0.40082	0.49237	-0.43063	30.9	13111	100
2025-3-27 18:45:0.700	WT901BLE68-01(48591DE3C19B)	-0.252	-0.991	0.192	17.456	4.944	-187.073	-78.27	13.82	-82.08	-89.768	-27.538	11.368	0.64136	-0.40082	0.49237	-0.43063	30.9	13111	100
2025-3-27 18:45:0.700	WT901BLE68-01(48591DE3C19B)	-0.216	-0.991	0.192	17.456	4.944	-187.073	-78.21	11.96	-82.57	-89.768	-27.538	11.368	0.64136	-0.40082	0.49237	-0.43063	30.9	13111	100
2025-3-27 18:45:0.700	WT901BLE68-01(48591DE3C19B)	-0.216	-0.853	0.172	14.221	11.475	-189.636	-78.18	10.10	-83.12	-89.768	-27.538	11.368	0.64136	-0.40082	0.49237	-0.43063	30.9	13111	100
2025-3-27 18:45:0.700	WT901BLE68-01(48591DE3C19B)	-0.187	-0.853	0.172	14.221	11.475	-189.636	-78.13	8.25	-83.68	-89.768	-27.538	11.368	0.64136	-0.40082	0.49237	-0.43063	30.9	13111	100
2025-3-27 18:45:0.729	WT901BLE68-01(48591DE3C19B)	-0.187	-0.776	0.178	8.728	25.879	-193.665	-78.13	6.41	-84.38	-89.768	-27.538	11.368	0.64136	-0.40082	0.49237	-0.43063	30.9	13111	100
2025-3-27 18:45:0.730	WT901BLE68-01(48591DE3C19B)	-0.190	-0.776	0.178	8.728	25.879	-193.665	-78.12	4.58	-85.07	-89.768	-27.538	11.368	0.64136	-0.40082	0.49237	-0.43063	30.9	13111	100
2025-3-27 18:45:0.730	WT901BLE68-01(48591DE3C19B)	-0.190	-0.748	0.192	6.653	45.166	-196.716	-78.12	2.78	-85.95	-89.768	-27.538	11.368	0.64136	-0.40082	0.49237	-0.43063	30.9	13111	100
2025-3-27 18:45:0.730	WT901BLE68-01(48591DE3C19B)	-0.242	-0.748	0.192	6.653	45.166	-196.716	-78.09	0.99	-86.83	-89.768	-27.538	11.368	0.64136	-0.40082	0.49237	-0.43063	30.9	13111	100
2025-3-27 18:45:0.792	WT901BLE68-01(48591DE3C19B)	-0.242	-0.747	0.215	6.958	61.462	-198.303	-78.02	-0.76	-87.87	-89.768	-27.538	11.368	0.64136	-0.40082	0.49237	-0.43063	30.9	13111	100
2025-3-27 18:45:0.792	WT901BLE68-01(48591DE3C19B)	-0.348	-0.747	0.215	6.958	61.462	-198.303	-77.92	-2.50	-88.92	-89.768	-27.538	11.368	0.64136	-0.40082	0.49237	-0.43063	30.9	13111	100
2025-3-27 18:45:0.792	WT901BLE68-01(48591DE3C19B)	-0.348	-0.813	0.240	9.155	65.125	-198.425	-77.76	-4.22	-90.00	-89.768	-27.538	11.368	0.64136	-0.40082	0.49237	-0.43063	30.9	13111	100
2025-3-27 18:45:0.792	WT901BLE68-01(48591DE3C19B)	-0.465	-0.813	0.240	9.155	65.125	-198.425	-77.57	-5.92	-91.09	-89.768	-27.538	11.368	0.64136	-0.40082	0.49237	-0.43063	30.9	13111	100
2025-3-27 18:45:0.822	WT901BLE68-01(48591DE3C19B)	-0.465	-0.934	0.265	15.198	56.335	-194.885	-77.31	-7.58	-92.09	-89.768	-27.538	11.368	0.64136	-0.40082	0.49237	-0.43063	30.9	13111	100
2025-3-27 18:45:0.822	WT901BLE68-01(48591DE3C19B)	-0.575	-0.934	0.265	15.198	56.335	-194.885	-77.00	-9.21	-93.10	-89.768	-27.538	11.368	0.64136	-0.40082	0.49237	-0.43063	30.9	13111	100
2025-3-27 18:45:0.822	WT901BLE68-01(48591DE3C19B)	-0.575	-1.040	0.244	22.949	47.729	-186.462	-76.61	-10.76	-94.03	-89.768	-27.538	11.368	0.64136	-0.40082	0.49237	-0.43063	30.9	13111	100
2025-3-27 18:45:0.822	WT901BLE68-01(48591DE3C19B)	-0.648	-1.040	0.244	22.949	47.729	-186.462	-76.20	-12.29	-94.97	-89.768	-27.538	11.368	0.64136	-0.40082	0.49237	-0.43063	30.9	13111	100
2025-3-27 18:45:0.852	WT901BLE68-01(48591DE3C19B)	-0.648	-1.169	0.178	26.794	48.340	-171.997	-75.73	-13.65	-95.88	-89.768	-27.538	11.368	0.64136	-0.40082	0.49237	-0.43063	30.9	13111	100
2025-3-27 18:45:0.852	WT901BLE68-01(48591DE3C19B)	-0.701	-1.169	0.178	26.794	48.340	-171.997	-75.25	-14.99	-96.82	-89.768	-27.538	11.368	0.64136	-0.40082	0.49237	-0.43063	30.9	13111	100
2025-3-27 18:45:0.852	WT901BLE68-01(48591DE3C19B)	-0.701	-1.362	0.072	24.170	47.607	-153.076	-74.78	-16.13	-97.70	-89.768	-27.538	11.368	0.64136	-0.40082	0.49237	-0.43063	30.9	13111	100
2025-3-27 18:45:0.852	WT901BLE68-01(48591DE3C19B)	-0.710	-1.362	0.072	24.170	47.607	-153.076	-74.32	-17.25	-98.58	-66.542	-52.430	4.116	0.64136	-0.40082	0.49237	-0.43063	30.9	13111	100
2025-3-27 18:45:0.881	WT901BLE68-01(48591DE3C19B)	-0.710	-1.538	0.019	20.935	39.063	-133.972	-73.92	-18.19	-99.33	-66.542	-52.430	4.116	0.64136	-0.40082	0.49237	-0.43063	30.9	13111	100
2025-3-27 18:45:0.882	WT901BLE68-01(48591DE3C19B)	-0.707	-1.538	0.019	20.935	39.063	-133.972	-73.53	-19.13	-100.07	-66.542	-52.430	4.116	0.64136	-0.40082	0.49237	-0.43063	30.9	13111	100
2025-3-27 18:45:0.882	WT901BLE68-01(48591DE3C19B)	-0.707	-1.659	0.048	17.517	34.790	-101.074	-73.21	-19.75	-100.66	-66.542	-52.430	4.116	0.64136	-0.40082	0.49237	-0.43063	30.9	13111	100
2025-3-27 18:45:0.882	WT901BLE68-01(48591DE3C19B)	-0.671	-1.659	0.048	17.517	34.790	-101.074	-72.89	-20.37	-101.25	-66.542	-52.430	4.116	0.64136	-0.40082	0.49237	-0.43063	30.9	13111	100
2025-3-27 18:45:0.971	WT901BLE68-01(48591DE3C19B)	-0.671	-1.460	0.174	12.695	49.377	-67.993	-72.60	-20.63	-101.88	-66.542	-52.430	4.116	0.64136	-0.40082	0.49237	-0.43063	30.9	13111	100
2025-3-27 18:45:0.971	WT901BLE68-01(48591DE3C19B)	-0.647	-1.460	0.174	12.695	49.377	-67.993	-72.31	-20.88	-102.52	-66.542	-52.430	4.116	0.64136	-0.40082	0.49237	-0.43063	30.9	13111	100
2025-3-27 18:45:0.971	WT901BLE68-01(48591DE3C19B)	-0.647	-1.254	0.277	-6.470	68.665	-28.748	-72.19	-20.69	-103.22	-66.542	-52.430	4.116	0.64136	-0.40082	0.49237	-0.43063	30.9	13111	100
2025-3-27 18:45:0.971	WT901BLE68-01(48591DE3C19B)	-0.666	-1.254	0.277	-6.470	68.665	-28.748	-72.06	-20.50	-103.93	-66.542	-52.430	4.116	0.64136	-0.40082	0.49237	-0.43063	30.9	13111	100
2025-3-27 18:45:0.972	WT901BLE68-01(48591DE3C19B)	-0.666	-1.179	0.336	-22.888	76.904	7.874	-72.11	-19.93	-104.61	-66.542	-52.430	4.116	0.64136	-0.40082	0.49237	-0.43063	30.9	13111	100
2025-3-27 18:45:0.972	WT901BLE68-01(48591DE3C19B)	-0.725	-1.179	0.336	-22.888	76.904	7.874	-72.17	-19.37	-105.29	-66.542	-52.430	4.116	0.64136	-0.40082	0.49237	-0.43063	30.9	13111	100
2025-3-27 18:45:0.972	WT901BLE68-01(48591DE3C19B)	-0.725	-1.046	0.326	-33.325	62.927	43.030	-72.41	-18.51	-105.72	-66.542	-52.430	4.116	0.64136	-0.40082	0.49237	-0.43063	30.9	13111	100
2025-3-27 18:45:0.972	WT901BLE68-01(48591DE3C19B)	-0.750	-1.046	0.326	-33.325	62.927	43.030	-72.64	-17.66	-106.16	-66.542	-52.430	4.116	0.64136	-0.40082	0.49237	-0.43063	30.9	13111	100
2025-3-27 18:45:1.2	WT901BLE68-01(48591DE3C19B)	-0.750	-0.907	0.272	-43.518	26.123	77.393	-73.12	-16.58	-106.14	-66.542	-52.430	4.116	0.64136	-0.40082	0.49237	-0.43063	30.9	13111	100
2025-3-27 18:45:1.2	WT901BLE68-01(48591DE3C19B)	-0.761	-0.907	0.272	-43.518	26.123	77.393	-73.59	-15.51	-106.14	-66.542	-52.430	4.116	0.64136	-0.40082	0.49237	-0.43063	30.9	13111	100
2025-3-27 18:45:1.2	WT901BLE68-01(48591DE3C19B)	-0.752	-0.871	0.189	-55.786	-25.574	113.037	-74.33	-14.24	-105.55	-66.542	-52.430	4.116	0.64136	-0.40082	0.49237	-0.43063	30.9	13111	100
2025-3-27 18:45:1.2	WT901BLE68-01(48591DE3C19B)	-0.752	-0.947	0.105	-63.049	-70.007	148.315	-75.14	-12.85	-104.71	-66.542	-52.430	4.116	0.64136	-0.40082	0.49237	-0.43063	30.9	13111	100
2025-3-27 18:45:1.60	WT901BLE68-01(48591DE3C19B)	-0.668	-0.947	0.105	-63.049	-70.007	148.315	-76.01	-11.34	-103.63	-66.542	-52.430	4.116	0.64136	-0.40082	0.49237	-0.43063	30.9	13111	100
2025-3-27 18:45:1.60	WT901BLE68-01(48591DE3C19B)	-0.668	-1.081	0.037	-60.608	-105.896	178.284	-76.88	-9.71	-102.37	-66.542	-52.430	4.116	0.64136	-0.40082	0.49237	-0.43063	30.9	13111	100
2025-3-27 18:45:1.60	WT901BLE68-01(48591DE3C19B)	-0.517	-1.081	0.037	-60.608	-105.896	178.284	-77.73	-7.97	-100.91	-66.542	-52.430	4.116	0.64136	-0.40082	0.49237	-0.43063	30.9	13111	100
2025-3-27 18:45:1.60	WT901BLE68-01(48591DE3C19B)	-0.517	-1.221	0.021	-50.049	-129.700	203.064	-78.49	-6.12	-99.34	-66.542	-52.430	4.116	0.64136	-0.40082	0.49237	-0.43063	30.9	13111	100
2025-3-27 18:45:1.120	WT901BLE68-01(48591DE3C19B)	-0.403	-1.221	0.021	-50.049	-129.700	203.064	-79.17	-4.17	-97.66	-66.542	-52.430	4.116	0.48947	-0.44031	0.46082	-0.59503	30.9	13111	100
2025-3-27 18:45:1.121	WT901BLE68-01(48591DE3C19B)	-0.403	-1.251	0.026	-32.288	-142.700	220.642	-79.69	-2.15	-95.92	-66.542	-52.430	4.116	0.48947	-0.44031	0.46082	-0.59503	30.9	13111	100
2025-3-27 18:45:1.121	WT901BLE68-01(48591DE3C19B)	-0.295	-1.251	0.026	-32.288	-142.700	220.642	-80.07	-0.06	-94.11	-66.542	-52.430	4.116	0.48947	-0.44031	0.46082	-0.59503	30.9	13111	100
2025-3-27 18:45:1.121	WT901BLE68-01(48591DE3C19B)	-0.295	-1.217	0.086	-16.174	-142.395	231.506	-80.31	2.08	-92.31	-66.542	-52.430	4.116	0.48947	-0.44031	0.46082	-0.59503	30.9	13111	100
2025-3-27 18:45:1.122	WT901BLE68-01(48591DE3C19B)	-0.223	-1.217	0.086	-16.174	-142.395	231.506	-80.40	4.25	-90.51	-66.542	-52.430	4.116	0.48947	-0.44031	0.46082	-0.59503	30.9	13111	100
2025-3-27 18:45:1.122	WT901BLE68-01(48591DE3C19B)	-0.223	-1.245	0.124	-4.089	-130.981	239.868	-80.36	6.46	-88.76	-66.542	-52.430	4.116	0.48947	-0.44031	0.46082	-0.59503	30.9	13111	100
2025-3-27 18:45:1.122	WT901BLE68-01(48591DE3C19B)	-0.166	-1.245	0.124	-4.089	-130.981	239.868	-80.19	8.70	-87.07	-66.542	-52.430	4.116	0.48947	-0.44031	0.46082	-0.59503	30.9	13111	100
2025-3-27 18:45:1.122	WT901BLE68-01(48591DE3C19B)	-0.166	-1.218	0.128	10.559	-107.849	245.667	-79.91	10.95	-85.47	-66.542	-52.430	4.116	0.48947	-0.44031	0.46082	-0.59503	30.9	13111	100
2025-3-27 18:45:1.180	WT901BLE68-01(48591DE3C19B)	-0.121	-1.218	0.128	10.559	-107.849	245.667	-79.51	13.22	-83.96	-66.542	-52.430	4.116	0.48947	-0.44031	0.46082	-0.59503	30.9	13111	100
2025-3-27 18:45:1.180	WT901BLE68-01(48591DE3C19B)	-0.121	-1.124	0.133	19.470	-76.477	251.282	-79.04	15.52	-82.58	-66.542	-52.430	4.116	0.48947	-0.44031	0.46082	-0.59503	30.9	13111	100
2025-3-27 18:45:1.180	WT901BLE68-01(48591DE3C19B)	-0.132	-1.124	0.133	19.470	-76.477	251.282	-78.51	17.85	-81.32	-66.542	-52.430	4.116	0.48947	-0.44031	0.46082	-0.59503	30.9	13111	100
2025-3-27 18:45:1.180	WT901BLE68-01(48591DE3C19B)	-0.132	-1.112	0.120	19.348	-47.485	256.714	-77.96	20.19	-80.17	-66.542	-52.430	4.116	0.48947	-0.44031	0.46082	-0.59503	30.9	13111	100
2025-3-27 18:45:1.209	WT901BLE68-01(48591DE3C19B)	-0.162	-1.112	0.120	19.348	-47.485	256.714	-77.42	22.57	-79.14	-66.542	-52.430	4.116	0.48947	-0.44031	0.46082	-0.59503	30.9	13111	100
2025-3-27 18:45:1.209	WT901BLE68-01(48591DE3C19B)	-0.162	-1.148	0.141	17.944	-30.579	258.545	-76.85	24.94	-78.16	-66.542	-52.430	4.116	0.48947	-0.44031	0.46082	-0.59503	30.9	13111	100
2025-3-27 18:45:1.209	WT901BLE68-01(48591DE3C19B)	-0.179	-1.148	0.141	17.944	-30.579	258.545	-76.29	27.32	-77.22	-66.542	-52.430	4.116	0.48947	-0.44031	0.46082	-0.59503	30.9	13111	100
2025-3-27 18:45:1.209	WT901BLE68-01(48591DE3C19B)	-0.179	-1.263	0.189	14.526	-25.024	257.324	-75.70	29.67	-76.27	-66.542	-52.430	4.116	0.48947	-0.44031	0.46082	-0.59503	30.9	13111	100
2025-3-27 18:45:1.242	WT901BLE68-01(48591DE3C19B)	-0.214	-1.263	0.189	14.526	-25.024	257.324	-75.09	31.99	-75.32	-66.542	-52.430	4.116	0.48947	-0.44031	0.46082	-0.59503	30.9	13111	100
2025-3-27 18:45:1.242	WT901BLE68-01(48591DE3C19B)	-0.214	-1.421	0.208	16.174	-29.846	252.197	-74.39	34.26	-74.29	-66.542	-52.430	4.116	0.48947	-0.44031	0.46082	-0.59503	30.9	13111	100
2025-3-27 18:45:1.242	WT901BLE68-01(48591DE3C19B)	-0.207	-1.421	0.208	16.174	-29.846	252.197	-73.62	36.46	-73.19	-66.542	-52.430	4.116	0.48947	-0.44031	0.46082	-0.59503	30.9	13111	100
2025-3-27 18:45:1.242	WT901BLE68-01(48591DE3C19B)	-0.207	-1.525	0.161	21.851	-35.095	240.356	-72.73	38.58	-72.00	-66.542	-52.430	4.116	0.48947	-0.44031	0.46082	-0.59503	30.9	13111	100
2025-3-27 18:45:1.300	WT901BLE68-01(48591DE3C19B)	-0.165	-1.525	0.161	21.851	-35.095	240.356	-71.74	40.60	-70.75	-66.542	-52.430	4.116	0.48947	-0.44031	0.46082	-0.59503	30.9	13111	100
2025-3-27 18:45:1.300	WT901BLE68-01(48591DE3C19B)	-0.165	-1.602	0.119	26.917	-36.255	219.666	-70.66	42.49	-69.44	-88.102	-27.342	9.408	0.48947	-0.44031	0.46082	-0.59503	30.9	13111	100
2025-3-27 18:45:1.300	WT901BLE68-01(48591DE3C19B)	-0.133	-1.602	0.119	26.917	-36.255	219.666	-69.50	44.25	-68.10	-88.102	-27.342	9.408	0.48947	-0.44031	0.46082	-0.59503	30.9	13111	100
2025-3-27 18:45:1.300	WT901BLE68-01(48591DE3C19B)	-0.133	-1.655	0.068	28.076	-37.720	190.857	-68.30	45.83	-66.74	-88.102	-27.342	9.408	0.48947	-0.44031	0.46082	-0.59503	30.9	13111	100
2025-3-27 18:45:1.329	WT901BLE68-01(48591DE3C19B)	-0.088	-1.655	0.068	28.076	-37.720	190.857	-67.06	47.25	-65.37	-88.102	-27.342	9.408	0.48947	-0.44031	0.46082	-0.59503	30.9	13111	100
2025-3-27 18:45:1.330	WT901BLE68-01(48591DE3C19B)	-0.088	-1.689	0.051	28.564	-35.583	154.419	-65.85	48.48	-64.05	-88.102	-27.342	9.408	0.48947	-0.44031	0.46082	-0.59503	30.9	13111	100
2025-3-27 18:45:1.330	WT901BLE68-01(48591DE3C19B)	-0.056	-1.689	0.051	28.564	-35.583	154.419	-64.67	49.52	-62.80	-88.102	-27.342	9.408	0.48947	-0.44031	0.46082	-0.59503	30.9	13111	100
2025-3-27 18:45:1.330	WT901BLE68-01(48591DE3C19B)	-0.056	-1.715	0.041	28.259	-28.809	112.183	-63.59	50.36	-61.70	-88.102	-27.342	9.408	0.48947	-0.44031	0.46082	-0.59503	30.9	13111	100
2025-3-27 18:45:1.359	WT901BLE68-01(48591DE3C19B)	-0.004	-1.715	0.041	28.259	-28.809	112.183	-62.64	51.00	-60.76	-88.102	-27.342	9.408	0.48947	-0.44031	0.46082	-0.59503	30.9	13111	100
2025-3-27 18:45:1.360	WT901BLE68-01(48591DE3C19B)	-0.004	-1.688	0.052	26.184	-20.203	65.369	-61.87	51.44	-60.03	-88.102	-27.342	9.408	0.48947	-0.44031	0.46082	-0.59503	30.9	13111	100
2025-3-27 18:45:1.360	WT901BLE68-01(48591DE3C19B)	0.072	-1.688	0.052	26.184	-20.203	65.369	-61.29	51.70	-59.54	-88.102	-27.342	9.408	0.48947	-0.44031	0.46082	-0.59503	30.9	13111	100
2025-3-27 18:45:1.360	WT901BLE68-01(48591DE3C19B)	0.072	-1.600	0.089	22.827	-6.226	20.081	-60.94	51.77	-59.32	-88.102	-27.342	9.408	0.48947	-0.44031	0.46082	-0.59503	30.9	13111	100
2025-3-27 18:45:1.422	WT901BLE68-01(48591DE3C19B)	0.090	-1.600	0.089	22.827	-6.226	20.081	-60.83	51.68	-59.38	-88.102	-27.342	9.408	0.48947	-0.44031	0.46082	-0.59503	30.9	13111	100
2025-3-27 18:45:1.422	WT901BLE68-01(48591DE3C19B)	0.090	-1.456	0.093	20.325	16.541	-19.775	-60.97	51.47	-59.75	-88.102	-27.342	9.408	0.48947	-0.44031	0.46082	-0.59503	30.9	13111	100
2025-3-27 18:45:1.422	WT901BLE68-01(48591DE3C19B)	0.103	-1.456	0.093	20.325	16.541	-19.775	-61.38	51.14	-60.44	-88.102	-27.342	9.408	0.48947	-0.44031	0.46082	-0.59503	30.9	13111	100
2025-3-27 18:45:1.422	WT901BLE68-01(48591DE3C19B)	0.103	-1.260	0.050	19.409	43.457	-54.504	-62.01	50.71	-61.42	-88.102	-27.342	9.408	0.48947	-0.44031	0.46082	-0.59503	30.9	13111	100
2025-3-27 18:45:1.452	WT901BLE68-01(48591DE3C19B)	0.098	-1.260	0.050	19.409	43.457	-54.504	-62.87	50.17	-62.70	-88.102	-27.342	9.408	0.48947	-0.44031	0.46082	-0.59503	30.9	13111	100
2025-3-27 18:45:1.452	WT901BLE68-01(48591DE3C19B)	0.098	-1.062	0.003	17.090	64.209	-82.214	-63.90	49.56	-64.19	-88.102	-27.342	9.408	0.48947	-0.44031	0.46082	-0.59503	30.9	13111	100
2025-3-27 18:45:1.452	WT901BLE68-01(48591DE3C19B)	0.069	-1.062	0.003	17.090	64.209	-82.214	-65.07	48.84	-65.86	-88.102	-27.342	9.408	0.48947	-0.44031	0.46082	-0.59503	30.9	13111	100
2025-3-27 18:45:1.452	WT901BLE68-01(48591DE3C19B)	0.069	-0.933	-0.027	13.428	70.679	-104.187	-66.28	48.02	-67.59	-88.102	-27.342	9.408	0.75934	-0.22549	0.56088	-0.24057	30.9	13111	100
2025-3-27 18:45:1.482	WT901BLE68-01(48591DE3C19B)	0.013	-0.933	-0.027	13.428	70.679	-104.187	-67.53	47.08	-69.36	-88.102	-27.342	9.408	0.75934	-0.22549	0.56088	-0.24057	30.9	13111	100
2025-3-27 18:45:1.482	WT901BLE68-01(48591DE3C19B)	0.013	-0.922	-0.023	10.376	69.763	-122.375	-68.75	46.04	-71.11	-88.102	-27.342	9.408	0.75934	-0.22549	0.56088	-0.24057	30.9	13111	100
2025-3-27 18:45:1.482	WT901BLE68-01(48591DE3C19B)	-0.063	-0.922	-0.023	10.376	69.763	-122.375	-69.94	44.89	-72.82	-88.102	-27.342	9.408	0.75934	-0.22549	0.56088	-0.24057	30.9	13111	100
2025-3-27 18:45:1.482	WT901BLE68-01(48591DE3C19B)	-0.063	-0.936	0.014	10.681	63.171	-138.367	-71.04	43.56	-74.45	-88.102	-27.342	9.408	0.75934	-0.22549	0.56088	-0.24057	30.9	13111	100
2025-3-27 18:45:1.540	WT901BLE68-01(48591DE3C19B)	-0.141	-0.936	0.014	10.681	63.171	-138.367	-72.05	42.21	-75.99	-88.102	-27.342	9.408	0.75934	-0.22549	0.56088	-0.24057	30.9	13111	100
2025-3-27 18:45:1.540	WT901BLE68-01(48591DE3C19B)	-0.141	-0.921	0.058	10.803	50.354	-153.198	-72.92	40.67	-77.36	-88.102	-27.342	9.408	0.75934	-0.22549	0.56088	-0.24057	30.9	13111	100
2025-3-27 18:45:1.540	WT901BLE68-01(48591DE3C19B)	-0.200	-0.921	0.058	10.803	50.354	-153.198	-73.71	39.13	-78.66	-88.102	-27.342	9.408	0.75934	-0.22549	0.56088	-0.24057	30.9	13111	100
2025-3-27 18:45:1.541	WT901BLE68-01(48591DE3C19B)	-0.200	-0.893	0.094	9.705	34.912	-167.053	-74.36	37.42	-79.76	-88.102	-27.342	9.408	0.75934	-0.22549	0.56088	-0.24057	30.9	13111	100
2025-3-27 18:45:1.569	WT901BLE68-01(48591DE3C19B)	-0.232	-0.893	0.094	9.705	34.912	-167.053	-74.94	35.71	-80.80	-88.102	-27.342	9.408	0.75934	-0.22549	0.56088	-0.24057	30.9	13111	100
2025-3-27 18:45:1.569	WT901BLE68-01(48591DE3C19B)	-0.232	-0.839	0.119	7.507	18.982	-178.589	-75.40	33.85	-81.65	-88.102	-27.342	9.408	0.75934	-0.22549	0.56088	-0.24057	30.9	13111	100
2025-3-27 18:45:1.569	WT901BLE68-01(48591DE3C19B)	-0.231	-0.839	0.119	7.507	18.982	-178.589	-75.82	32.01	-82.45	-88.102	-27.342	9.408	0.75934	-0.22549	0.56088	-0.24057	30.9	13111	100
2025-3-27 18:45:1.569	WT901BLE68-01(48591DE3C19B)	-0.231	-0.790	0.129	3.052	7.690	-188.477	-76.18	30.06	-83.12	-88.102	-27.342	9.408	0.75934	-0.22549	0.56088	-0.24057	30.9	13111	100
2025-3-27 18:45:1.600	WT901BLE68-01(48591DE3C19B)	-0.217	-0.790	0.129	3.052	7.690	-188.477	-76.51	28.11	-83.75	-88.102	-27.342	9.408	0.75934	-0.22549	0.56088	-0.24057	30.9	13111	100
2025-3-27 18:45:1.600	WT901BLE68-01(48591DE3C19B)	-0.217	-0.790	0.124	-2.625	4.211	-199.097	-76.85	26.07	-84.35	-88.102	-27.342	9.408	0.75934	-0.22549	0.56088	-0.24057	30.9	13111	100
2025-3-27 18:45:1.600	WT901BLE68-01(48591DE3C19B)	-0.215	-0.790	0.124	-2.625	4.211	-199.097	-77.16	24.04	-84.92	-88.102	-27.342	9.408	0.75934	-0.22549	0.56088	-0.24057	30.9	13111	100
2025-3-27 18:45:1.600	WT901BLE68-01(48591DE3C19B)	-0.215	-0.816	0.128	-7.446	7.996	-210.266	-77.51	21.93	-85.53	-88.102	-27.342	9.408	0.75934	-0.22549	0.56088	-0.24057	30.9	13111	100
2025-3-27 18:45:1.660	WT901BLE68-01(48591DE3C19B)	-0.259	-0.816	0.128	-7.446	7.996	-210.266	-77.83	19.82	-86.12	-88.102	-27.342	9.408	0.75934	-0.22549	0.56088	-0.24057	30.9	13111	100
2025-3-27 18:45:1.661	WT901BLE68-01(48591DE3C19B)	-0.259	-0.870	0.155	-12.268	14.404	-221.863	-78.20	17.63	-86.78	-88.102	-27.342	9.408	0.75934	-0.22549	0.56088	-0.24057	30.9	13111	100
2025-3-27 18:45:1.661	WT901BLE68-01(48591DE3C19B)	-0.348	-0.870	0.155	-12.268	14.404	-221.863	-78.52	15.46	-87.40	-88.102	-27.342	9.408	0.75934	-0.22549	0.56088	-0.24057	30.9	13111	100
2025-3-27 18:45:1.661	WT901BLE68-01(48591DE3C19B)	-0.348	-0.951	0.209	-15.991	19.470	-232.422	-78.88	13.20	-88.08	-88.102	-27.342	9.408	0.75934	-0.22549	0.56088	-0.24057	30.9	13111	100
2025-3-27 18:45:1.692	WT901BLE68-01(48591DE3C19B)	-0.463	-0.951	0.209	-15.991	19.470	-232.422	-79.19	10.96	-88.74	-83.790	-35.476	4.410	0.75934	-0.22549	0.56088	-0.24057	30.9	13111	100
2025-3-27 18:45:1.692	WT901BLE68-01(48591DE3C19B)	-0.463	-1.063	0.265	-17.761	25.391	-239.868	-79.50	8.67	-89.45	-83.790	-35.476	4.410	0.75934	-0.22549	0.56088	-0.24057	30.9	13111	100
2025-3-27 18:45:1.692	WT901BLE68-01(48591DE3C19B)	-0.587	-1.063	0.265	-17.761	25.391	-239.868	-79.78	6.41	-90.14	-83.790	-35.476	4.410	0.75934	-0.22549	0.56088	-0.24057	30.9	13111	100
2025-3-27 18:45:1.692	WT901BLE68-01(48591DE3C19B)	-0.587	-1.162	0.312	-16.663	36.499	-240.234	-80.02	4.17	-90.93	-83.790	-35.476	4.410	0.75934	-0.22549	0.56088	-0.24057	30.9	13111	100
2025-3-27 18:45:1.750	WT901BLE68-01(48591DE3C19B)	-0.666	-1.162	0.312	-16.663	36.499	-240.234	-80.23	1.96	-91.71	-83.790	-35.476	4.410	0.75934	-0.22549	0.56088	-0.24057	30.9	13111	100
2025-3-27 18:45:1.751	WT901BLE68-01(48591DE3C19B)	-0.666	-1.269	0.317	-14.404	57.251	-233.215	-80.38	-0.14	-92.67	-83.790	-35.476	4.410	0.75934	-0.22549	0.56088	-0.24057	30.9	13111	100
2025-3-27 18:45:1.751	WT901BLE68-01(48591DE3C19B)	-0.662	-1.269	0.317	-14.404	57.251	-233.215	-80.49	-2.21	-93.63	-83.790	-35.476	4.410	0.75934	-0.22549	0.56088	-0.24057	30.9	13111	100
2025-3-27 18:45:1.751	WT901BLE68-01(48591DE3C19B)	-0.662	-1.379	0.260	-11.780	82.947	-220.703	-80.54	-4.11	-94.81	-83.790	-35.476	4.410	0.75934	-0.22549	0.56088	-0.24057	30.9	13111	100
2025-3-27 18:45:1.779	WT901BLE68-01(48591DE3C19B)	-0.693	-1.379	0.260	-11.780	82.947	-220.703	-80.54	-6.00	-95.99	-83.790	-35.476	4.410	0.75934	-0.22549	0.56088	-0.24057	30.9	13111	100
2025-3-27 18:45:1.779	WT901BLE68-01(48591DE3C19B)	-0.693	-1.517	0.221	0.427	107.422	-197.510	-80.36	-7.60	-97.38	-83.790	-35.476	4.410	0.75934	-0.22549	0.56088	-0.24057	30.9	13111	100
2025-3-27 18:45:1.779	WT901BLE68-01(48591DE3C19B)	-0.815	-1.517	0.221	0.427	107.422	-197.510	-80.16	-9.18	-98.77	-83.790	-35.476	4.410	0.75934	-0.22549	0.56088	-0.24057	30.9	13111	100
2025-3-27 18:45:1.779	WT901BLE68-01(48591DE3C19B)	-0.815	-1.579	0.205	12.268	111.023	-171.265	-79.80	-10.48	-100.16	-83.790	-35.476	4.410	0.75934	-0.22549	0.56088	-0.24057	30.9	13111	100
2025-3-27 18:45:1.810	WT901BLE68-01(48591DE3C19B)	-0.900	-1.579	0.205	12.268	111.023	-171.265	-79.41	-11.76	-101.55	-83.790	-35.476	4.410	0.75934	-0.22549	0.56088	-0.24057	30.9	13111	100
2025-3-27 18:45:1.810	WT901BLE68-01(48591DE3C19B)	-0.900	-1.573	0.210	22.766	102.539	-141.357	-78.93	-12.74	-102.82	-83.790	-35.476	4.410	0.75934	-0.22549	0.56088	-0.24057	30.9	13111	100
2025-3-27 18:45:1.810	WT901BLE68-01(48591DE3C19B)	-0.955	-1.573	0.210	22.766	102.539	-141.357	-78.43	-13.71	-104.08	-83.790	-35.476	4.410	0.75934	-0.22549	0.56088	-0.24057	30.9	13111	100
2025-3-27 18:45:1.810	WT901BLE68-01(48591DE3C19B)	-0.955	-1.461	0.226	26.489	94.116	-106.140	-77.91	-14.32	-105.21	-83.790	-35.476	4.410	0.75934	-0.22549	0.56088	-0.24057	30.9	13111	100
2025-3-27 18:45:1.870	WT901BLE68-01(48591DE3C19B)	-0.932	-1.461	0.226	26.489	94.116	-106.140	-77.38	-14.91	-106.33	-83.790	-35.476	4.410	0.75934	-0.22549	0.56088	-0.24057	30.9	13111	100
2025-3-27 18:45:1.870	WT901BLE68-01(48591DE3C19B)	-0.932	-1.256	0.237	22.400	91.614	-70.313	-76.92	-15.15	-107.36	-83.790	-35.476	4.410	0.75934	-0.22549	0.56088	-0.24057	30.9	13111	100
2025-3-27 18:45:1.870	WT901BLE68-01(48591DE3C19B)	-0.874	-1.256	0.237	22.400	91.614	-70.313	-76.45	-15.38	-108.39	-83.790	-35.476	4.410	0.75934	-0.22549	0.56088	-0.24057	30.9	13111	100
2025-3-27 18:45:1.870	WT901BLE68-01(48591DE3C19B)	-0.874	-1.125	0.279	11.292	92.590	-31.616	-76.11	-15.21	-109.34	-83.790	-35.476	4.410	0.75934	-0.22549	0.56088	-0.24057	30.9	13111	100
2025-3-27 18:45:1.902	WT901BLE68-01(48591DE3C19B)	-0.821	-1.125	0.279	11.292	92.590	-31.616	-75.78	-15.02	-110.30	-83.790	-35.476	4.410	0.38052	-0.42944	0.44266	-0.68900	30.9	13111	100
2025-3-27 18:45:1.902	WT901BLE68-01(48591DE3C19B)	-0.821	-1.010	0.276	2.991	83.008	5.981	-75.57	-14.50	-111.06	-83.790	-35.476	4.410	0.38052	-0.42944	0.44266	-0.68900	30.9	13111	100
2025-3-27 18:45:1.903	WT901BLE68-01(48591DE3C19B)	-0.800	-1.010	0.276	2.991	83.008	5.981	-75.38	-13.97	-111.83	-83.790	-35.476	4.410	0.38052	-0.42944	0.44266	-0.68900	30.9	13111	100
2025-3-27 18:45:1.903	WT901BLE68-01(48591DE3C19B)	-0.800	-0.810	0.232	-5.615	49.744	40.833	-75.38	-13.19	-112.18	-83.790	-35.476	4.410	0.38052	-0.42944	0.44266	-0.68900	30.9	13111	100
2025-3-27 18:45:1.932	WT901BLE68-01(48591DE3C19B)	-0.756	-0.810	0.232	-5.615	49.744	40.833	-75.38	-12.40	-112.54	-83.790	-35.476	4.410	0.38052	-0.42944	0.44266	-0.68900	30.9	13111	100
2025-3-27 18:45:1.932	WT901BLE68-01(48591DE3C19B)	-0.756	-0.637	0.200	-18.433	2.441	71.716	-75.61	-11.43	-112.37	-83.790	-35.476	4.410	0.38052	-0.42944	0.44266	-0.68900	30.9	13111	100
2025-3-27 18:45:1.932	WT901BLE68-01(48591DE3C19B)	-0.766	-0.637	0.200	-18.433	2.441	71.716	-75.84	-10.46	-112.21	-83.790	-35.476	4.410	0.38052	-0.42944	0.44266	-0.68900	30.9	13111	100
2025-3-27 18:45:1.932	WT901BLE68-01(48591DE3C19B)	-0.783	-0.654	0.173	-31.982	-49.255	98.511	-76.28	-9.36	-111.51	-83.790	-35.476	4.410	0.38052	-0.42944	0.44266	-0.68900	30.9	13111	100
2025-3-27 18:45:1.993	WT901BLE68-01(48591DE3C19B)	-0.783	-0.818	0.130	-36.865	-99.182	121.704	-76.77	-8.20	-110.54	-83.790	-35.476	4.410	0.38052	-0.42944	0.44266	-0.68900	30.9	13111	100
2025-3-27 18:45:1.993	WT901BLE68-01(48591DE3C19B)	-0.709	-0.818	0.130	-36.865	-99.182	121.704	-77.29	-6.97	-109.33	-83.790	-35.476	4.410	0.38052	-0.42944	0.44266	-0.68900	30.9	13111	100
2025-3-27 18:45:1.993	WT901BLE68-01(48591DE3C19B)	-0.709	-0.958	0.071	-31.433	-131.836	140.442	-77.78	-5.68	-107.95	-83.790	-35.476	4.410	0.38052	-0.42944	0.44266	-0.68900	30.9	13111	100
2025-3-27 18:45:1.993	WT901BLE68-01(48591DE3C19B)	-0.612	-0.958	0.071	-31.433	-131.836	140.442	-78.22	-4.33	-106.40	-83.790	-35.476	4.410	0.38052	-0.42944	0.44266	-0.68900	30.9	13111	100
2025-3-27 18:45:2.19	WT901BLE68-01(48591DE3C19B)	-0.612	-1.053	0.063	-22.095	-147.339	155.029	-78.60	-2.92	-104.76	-83.790	-35.476	4.410	0.38052	-0.42944	0.44266	-0.68900	30.9	13111	100
2025-3-27 18:45:2.20	WT901BLE68-01(48591DE3C19B)	-0.549	-1.053	0.063	-22.095	-147.339	155.029	-78.88	-1.46	-103.04	-83.790	-35.476	4.410	0.38052	-0.42944	0.44266	-0.68900	30.9	13111	100
2025-3-27 18:45:2.20	WT901BLE68-01(48591DE3C19B)	-0.549	-1.158	0.076	-12.573	-150.452	163.452	-79.09	0.03	-101.29	-83.790	-35.476	4.410	0.38052	-0.42944	0.44266	-0.68900	30.9	13111	100
2025-3-27 18:45:2.20	WT901BLE68-01(48591DE3C19B)	-0.470	-1.158	0.076	-12.573	-150.452	163.452	-79.19	1.55	-99.52	-83.790	-35.476	4.410	0.38052	-0.42944	0.44266	-0.68900	30.9	13111	100
2025-3-27 18:45:2.51	WT901BLE68-01(48591DE3C19B)	-0.470	-1.287	0.125	-1.099	-140.198	169.312	-79.21	3.10	-97.79	-83.790	-35.476	4.410	0.38052	-0.42944	0.44266	-0.68900	30.9	13111	100
2025-3-27 18:45:2.51	WT901BLE68-01(48591DE3C19B)	-0.310	-1.287	0.125	-1.099	-140.198	169.312	-79.12	4.66	-96.11	-83.790	-35.476	4.410	0.38052	-0.42944	0.44266	-0.68900	30.9	13111	100
2025-3-27 18:45:2.51	WT901BLE68-01(48591DE3C19B)	-0.310	-1.360	0.123	14.343	-100.952	174.744	-78.93	6.27	-94.60	-83.790	-35.476	4.410	0.38052	-0.42944	0.44266	-0.68900	30.9	13111	100
2025-3-27 18:45:2.51	WT901BLE68-01(48591DE3C19B)	-0.189	-1.360	0.123	14.343	-100.952	174.744	-78.63	7.92	-93.28	-83.790	-35.476	4.410	0.38052	-0.42944	0.44266	-0.68900	30.9	13111	100
2025-3-27 18:45:2.110	WT901BLE68-01(48591DE3C19B)	-0.189	-1.211	0.102	26.367	-38.879	183.411	-78.30	9.64	-92.24	-83.790	-35.476	4.410	0.38052	-0.42944	0.44266	-0.68900	30.9	13111	100
2025-3-27 18:45:2.110	WT901BLE68-01(48591DE3C19B)	-0.207	-1.211	0.102	26.367	-38.879	183.411	-77.92	11.45	-91.49	-77.616	-42.336	0.000	0.38052	-0.42944	0.44266	-0.68900	30.9	13111	100
2025-3-27 18:45:2.111	WT901BLE68-01(48591DE3C19B)	-0.207	-1.025	0.054	22.583	14.526	193.359	-77.60	13.33	-90.98	-77.616	-42.336	0.000	0.38052	-0.42944	0.44266	-0.68900	30.9	13111	100
2025-3-27 18:45:2.111	WT901BLE68-01(48591DE3C19B)	-0.260	-1.025	0.054	22.583	14.526	193.359	-77.33	15.30	-90.71	-77.616	-42.336	0.000	0.38052	-0.42944	0.44266	-0.68900	30.9	13111	100
2025-3-27 18:45:2.139	WT901BLE68-01(48591DE3C19B)	-0.260	-0.971	0.033	11.780	43.335	201.477	-77.16	17.32	-90.57	-77.616	-42.336	0.000	0.38052	-0.42944	0.44266	-0.68900	30.9	13111	100
2025-3-27 18:45:2.139	WT901BLE68-01(48591DE3C19B)	-0.305	-0.971	0.033	11.780	43.335	201.477	-77.07	19.40	-90.57	-77.616	-42.336	0.000	0.38052	-0.42944	0.44266	-0.68900	30.9	13111	100
2025-3-27 18:45:2.139	WT901BLE68-01(48591DE3C19B)	-0.305	-0.989	0.001	0.977	48.340	208.923	-77.05	21.50	-90.57	-77.616	-42.336	0.000	0.38052	-0.42944	0.44266	-0.68900	30.9	13111	100
2025-3-27 18:45:2.139	WT901BLE68-01(48591DE3C19B)	-0.313	-0.989	0.001	0.977	48.340	208.923	-77.10	23.63	-90.60	-77.616	-42.336	0.000	0.38052	-0.42944	0.44266	-0.68900	30.9	13111	100
2025-3-27 18:45:2.170	WT901BLE68-01(48591DE3C19B)	-0.313	-0.971	-0.026	-9.399	37.109	215.454	-77.16	25.77	-90.55	-77.616	-42.336	0.000	0.38052	-0.42944	0.44266	-0.68900	30.9	13111	100
2025-3-27 18:45:2.170	WT901BLE68-01(48591DE3C19B)	-0.309	-0.971	-0.026	-9.399	37.109	215.454	-77.26	27.91	-90.45	-77.616	-42.336	0.000	0.38052	-0.42944	0.44266	-0.68900	30.9	13111	100
2025-3-27 18:45:2.170	WT901BLE68-01(48591DE3C19B)	-0.309	-1.041	-0.037	-21.057	20.691	218.567	-77.36	30.04	-90.25	-77.616	-42.336	0.000	0.38052	-0.42944	0.44266	-0.68900	30.9	13111	100
2025-3-27 18:45:2.170	WT901BLE68-01(48591DE3C19B)	-0.315	-1.041	-0.037	-21.057	20.691	218.567	-77.47	32.15	-89.96	-77.616	-42.336	0.000	0.38052	-0.42944	0.44266	-0.68900	30.9	13111	100
2025-3-27 18:45:2.232	WT901BLE68-01(48591DE3C19B)	-0.315	-1.240	-0.019	-29.114	2.075	215.820	-77.56	34.21	-89.57	-77.616	-42.336	0.000	0.38052	-0.42944	0.44266	-0.68900	30.9	13111	100
2025-3-27 18:45:2.232	WT901BLE68-01(48591DE3C19B)	-0.324	-1.240	-0.019	-29.114	2.075	215.820	-77.61	36.22	-89.06	-77.616	-42.336	0.000	0.38052	-0.42944	0.44266	-0.68900	30.9	13111	100
2025-3-27 18:45:2.232	WT901BLE68-01(48591DE3C19B)	-0.324	-1.458	-0.001	-31.006	-17.395	207.153	-77.58	38.15	-88.44	-77.616	-42.336	0.000	0.38052	-0.42944	0.44266	-0.68900	30.9	13111	100
2025-3-27 18:45:2.232	WT901BLE68-01(48591DE3C19B)	-0.305	-1.458	-0.001	-31.006	-17.395	207.153	-77.47	40.01	-87.70	-77.616	-42.336	0.000	0.38052	-0.42944	0.44266	-0.68900	30.9	13111	100
2025-3-27 18:45:2.262	WT901BLE68-01(48591DE3C19B)	-0.305	-1.638	0.005	-25.879	-36.621	191.528	-77.24	41.75	-86.83	-77.616	-42.336	0.000	0.38052	-0.42944	0.44266	-0.68900	30.9	13111	100
2025-3-27 18:45:2.262	WT901BLE68-01(48591DE3C19B)	-0.208	-1.638	0.005	-25.879	-36.621	191.528	-76.87	43.38	-85.84	-77.616	-42.336	0.000	0.38052	-0.42944	0.44266	-0.68900	30.9	13111	100
2025-3-27 18:45:2.262	WT901BLE68-01(48591DE3C19B)	-0.208	-1.774	0.065	-17.578	-57.739	168.884	-76.34	44.86	-84.70	-77.616	-42.336	0.000	0.38052	-0.42944	0.44266	-0.68900	30.9	13111	100
2025-3-27 18:45:2.262	WT901BLE68-01(48591DE3C19B)	0.016	-1.774	0.065	-17.578	-57.739	168.884	-75.65	46.17	-83.41	-77.616	-42.336	0.000	0.70563	-0.21255	0.60654	-0.29819	30.9	13111	100
2025-3-27 18:45:2.321	WT901BLE68-01(48591DE3C19B)	0.016	-1.870	0.130	-1.343	-71.350	138.306	-74.79	47.30	-82.04	-77.616	-42.336	0.000	0.70563	-0.21255	0.60654	-0.29819	30.9	13111	100
2025-3-27 18:45:2.321	WT901BLE68-01(48591DE3C19B)	0.297	-1.870	0.130	-1.343	-71.350	138.306	-73.78	48.23	-80.59	-77.616	-42.336	0.000	0.70563	-0.21255	0.60654	-0.29819	30.9	13111	100
2025-3-27 18:45:2.321	WT901BLE68-01(48591DE3C19B)	0.297	-1.792	0.105	23.621	-51.208	104.919	-72.76	49.00	-79.32	-77.616	-42.336	0.000	0.70563	-0.21255	0.60654	-0.29819	30.9	13111	100
2025-3-27 18:45:2.321	WT901BLE68-01(48591DE3C19B)	0.391	-1.792	0.105	23.621	-51.208	104.919	-71.76	49.61	-78.24	-77.616	-42.336	0.000	0.70563	-0.21255	0.60654	-0.29819	30.9	13111	100
2025-3-27 18:45:2.349	WT901BLE68-01(48591DE3C19B)	0.391	-1.545	0.126	34.119	-17.639	70.251	-70.93	50.08	-77.49	-77.616	-42.336	0.000	0.70563	-0.21255	0.60654	-0.29819	30.9	13111	100
2025-3-27 18:45:2.349	WT901BLE68-01(48591DE3C19B)	0.382	-1.545	0.126	34.119	-17.639	70.251	-70.31	50.43	-77.05	-77.616	-42.336	0.000	0.70563	-0.21255	0.60654	-0.29819	30.9	13111	100
2025-3-27 18:45:2.349	WT901BLE68-01(48591DE3C19B)	0.382	-1.357	0.176	24.475	9.094	24.414	-69.98	50.59	-76.93	-77.616	-42.336	0.000	0.70563	-0.21255	0.60654	-0.29819	30.9	13111	100
2025-3-27 18:45:2.349	WT901BLE68-01(48591DE3C19B)	0.325	-1.357	0.176	24.475	9.094	24.414	-69.94	50.58	-77.14	-77.616	-42.336	0.000	0.70563	-0.21255	0.60654	-0.29819	30.9	13111	100
2025-3-27 18:45:2.380	WT901BLE68-01(48591DE3C19B)	0.325	-1.327	0.250	21.912	31.860	-21.667	-70.14	50.37	-77.63	-77.616	-42.336	0.000	0.70563	-0.21255	0.60654	-0.29819	30.9	13111	100
2025-3-27 18:45:2.380	WT901BLE68-01(48591DE3C19B)	0.316	-1.327	0.250	21.912	31.860	-21.667	-70.56	49.99	-78.40	-77.616	-42.336	0.000	0.70563	-0.21255	0.60654	-0.29819	30.9	13111	100
2025-3-27 18:45:2.380	WT901BLE68-01(48591DE3C19B)	0.316	-1.231	0.216	30.945	53.345	-64.575	-71.11	49.43	-79.42	-77.616	-42.336	0.000	0.70563	-0.21255	0.60654	-0.29819	30.9	13111	100
2025-3-27 18:45:2.380	WT901BLE68-01(48591DE3C19B)	0.246	-1.231	0.216	30.945	53.345	-64.575	-71.79	48.69	-80.67	-77.616	-42.336	0.000	0.70563	-0.21255	0.60654	-0.29819	30.9	13111	100
2025-3-27 18:45:2.409	WT901BLE68-01(48591DE3C19B)	0.246	-1.088	0.153	29.419	66.162	-100.464	-72.56	47.79	-82.06	-77.616	-42.336	0.000	0.70563	-0.21255	0.60654	-0.29819	30.9	13111	100
2025-3-27 18:45:2.410	WT901BLE68-01(48591DE3C19B)	0.119	-1.088	0.153	29.419	66.162	-100.464	-73.41	46.72	-83.56	-77.616	-42.336	0.000	0.70563	-0.21255	0.60654	-0.29819	30.9	13111	100
2025-3-27 18:45:2.410	WT901BLE68-01(48591DE3C19B)	0.119	-1.117	0.085	22.644	70.313	-135.925	-74.39	45.32	-85.19	-77.616	-42.336	0.000	0.70563	-0.21255	0.60654	-0.29819	30.9	13111	100
2025-3-27 18:45:2.410	WT901BLE68-01(48591DE3C19B)	-0.053	-1.117	0.085	22.644	70.313	-135.925	-75.29	43.90	-86.74	-77.616	-42.336	0.000	0.70563	-0.21255	0.60654	-0.29819	30.9	13111	100
2025-3-27 18:45:2.470	WT901BLE68-01(48591DE3C19B)	-0.053	-1.145	0.066	11.841	54.382	-165.771	-76.14	42.15	-88.10	-77.616	-42.336	0.000	0.70563	-0.21255	0.60654	-0.29819	30.9	13111	100
2025-3-27 18:45:2.470	WT901BLE68-01(48591DE3C19B)	-0.260	-1.145	0.066	11.841	54.382	-165.771	-76.90	40.41	-89.38	-77.616	-42.336	0.000	0.70563	-0.21255	0.60654	-0.29819	30.9	13111	100
2025-3-27 18:45:2.470	WT901BLE68-01(48591DE3C19B)	-0.260	-1.123	0.114	1.099	27.954	-192.810	-77.53	38.34	-90.35	-77.616	-42.336	0.000	0.70563	-0.21255	0.60654	-0.29819	30.9	13111	100
2025-3-27 18:45:2.470	WT901BLE68-01(48591DE3C19B)	-0.356	-1.123	0.114	1.099	27.954	-192.810	-78.10	36.29	-91.25	-77.616	-42.336	0.000	0.70563	-0.21255	0.60654	-0.29819	30.9	13111	100
2025-3-27 18:45:2.503	WT901BLE68-01(48591DE3C19B)	-0.356	-1.136	0.195	-10.559	-9.766	-215.576	-78.49	33.95	-91.70	-77.518	-23.618	-4.606	0.70563	-0.21255	0.60654	-0.29819	30.9	13111	100
2025-3-27 18:45:2.503	WT901BLE68-01(48591DE3C19B)	-0.369	-1.136	0.195	-10.559	-9.766	-215.576	-78.85	31.64	-92.13	-77.518	-23.618	-4.606	0.70563	-0.21255	0.60654	-0.29819	30.9	13111	100
2025-3-27 18:45:2.503	WT901BLE68-01(48591DE3C19B)	-0.369	-1.156	0.271	-18.677	-43.274	-231.812	-79.09	29.12	-92.18	-77.518	-23.618	-4.606	0.70563	-0.21255	0.60654	-0.29819	30.9	13111	100
2025-3-27 18:45:2.503	WT901BLE68-01(48591DE3C19B)	-0.337	-1.156	0.271	-18.677	-43.274	-231.812	-79.30	26.63	-92.21	-77.518	-23.618	-4.606	0.70563	-0.21255	0.60654	-0.29819	30.9	13111	100
2025-3-27 18:45:2.532	WT901BLE68-01(48591DE3C19B)	-0.337	-1.139	0.289	-28.870	-66.895	-241.150	-79.51	24.02	-92.01	-77.518	-23.618	-4.606	0.70563	-0.21255	0.60654	-0.29819	30.9	13111	100
2025-3-27 18:45:2.532	WT901BLE68-01(48591DE3C19B)	-0.268	-1.139	0.289	-28.870	-66.895	-241.150	-79.72	21.43	-91.79	-77.518	-23.618	-4.606	0.70563	-0.21255	0.60654	-0.29819	30.9	13111	100
2025-3-27 18:45:2.532	WT901BLE68-01(48591DE3C19B)	-0.268	-1.120	0.276	-35.950	-72.449	-243.591	-79.99	18.83	-91.52	-77.518	-23.618	-4.606	0.70563	-0.21255	0.60654	-0.29819	30.9	13111	100
2025-3-27 18:45:2.532	WT901BLE68-01(48591DE3C19B)	-0.257	-1.120	0.276	-35.950	-72.449	-243.591	-80.26	16.25	-91.24	-77.518	-23.618	-4.606	0.70563	-0.21255	0.60654	-0.29819	30.9	13111	100
2025-3-27 18:45:2.593	WT901BLE68-01(48591DE3C19B)	-0.257	-1.099	0.224	-38.757	-67.444	-241.394	-80.58	13.72	-91.00	-77.518	-23.618	-4.606	0.70563	-0.21255	0.60654	-0.29819	30.9	13111	100
2025-3-27 18:45:2.594	WT901BLE68-01(48591DE3C19B)	-0.260	-1.099	0.224	-38.757	-67.444	-241.394	-80.90	11.21	-90.75	-77.518	-23.618	-4.606	0.70563	-0.21255	0.60654	-0.29819	30.9	13111	100
2025-3-27 18:45:2.594	WT901BLE68-01(48591DE3C19B)	-0.260	-1.034	0.175	-36.255	-59.143	-239.685	-81.22	8.75	-90.57	-77.518	-23.618	-4.606	0.70563	-0.21255	0.60654	-0.29819	30.9	13111	100
2025-3-27 18:45:2.594	WT901BLE68-01(48591DE3C19B)	-0.225	-1.034	0.175	-36.255	-59.143	-239.685	-81.55	6.31	-90.38	-77.518	-23.618	-4.606	0.70563	-0.21255	0.60654	-0.29819	30.9	13111	100
2025-3-27 18:45:2.680	WT901BLE68-01(48591DE3C19B)	-0.225	-0.965	0.162	-32.593	-43.030	-237.854	-81.85	3.93	-90.34	-77.518	-23.618	-4.606	0.70563	-0.21255	0.60654	-0.29819	30.9	13111	100
2025-3-27 18:45:2.680	WT901BLE68-01(48591DE3C19B)	-0.211	-0.965	0.162	-32.593	-43.030	-237.854	-82.16	1.55	-90.28	-77.518	-23.618	-4.606	0.70563	-0.21255	0.60654	-0.29819	30.9	13111	100
2025-3-27 18:45:2.680	WT901BLE68-01(48591DE3C19B)	-0.211	-0.934	0.171	-27.527	-21.179	-232.605	-82.42	-0.71	-90.42	-77.518	-23.618	-4.606	0.70563	-0.21255	0.60654	-0.29819	30.9	13111	100
2025-3-27 18:45:2.680	WT901BLE68-01(48591DE3C19B)	-0.254	-0.934	0.171	-27.527	-21.179	-232.605	-82.67	-2.97	-90.55	-77.518	-23.618	-4.606	0.70563	-0.21255	0.60654	-0.29819	30.9	13111	100
2025-3-27 18:45:2.682	WT901BLE68-01(48591DE3C19B)	-0.254	-0.950	0.187	-19.165	-3.967	-225.647	-82.83	-5.12	-90.83	-77.518	-23.618	-4.606	0.70563	-0.21255	0.60654	-0.29819	30.9	13111	100
2025-3-27 18:45:2.682	WT901BLE68-01(48591DE3C19B)	-0.314	-0.950	0.187	-19.165	-3.967	-225.647	-82.97	-7.26	-91.11	-77.518	-23.618	-4.606	0.70563	-0.21255	0.60654	-0.29819	30.9	13111	100
2025-3-27 18:45:2.682	WT901BLE68-01(48591DE3C19B)	-0.314	-0.962	0.200	-7.019	3.601	-216.248	-82.97	-9.28	-91.45	-77.518	-23.618	-4.606	0.70563	-0.21255	0.60654	-0.29819	30.9	13111	100
2025-3-27 18:45:2.682	WT901BLE68-01(48591DE3C19B)	-0.358	-0.962	0.200	-7.019	3.601	-216.248	-82.96	-11.28	-91.80	-77.518	-23.618	-4.606	0.70563	-0.21255	0.60654	-0.29819	30.9	13111	100
2025-3-27 18:45:2.713	WT901BLE68-01(48591DE3C19B)	-0.358	-0.936	0.224	3.662	5.859	-204.102	-82.83	-13.15	-92.15	-77.518	-23.618	-4.606	0.70563	-0.21255	0.60654	-0.29819	30.9	13111	100
2025-3-27 18:45:2.713	WT901BLE68-01(48591DE3C19B)	-0.378	-0.936	0.224	3.662	5.859	-204.102	-82.68	-15.00	-92.52	-77.518	-23.618	-4.606	0.70563	-0.21255	0.60654	-0.29819	30.9	13111	100
2025-3-27 18:45:2.713	WT901BLE68-01(48591DE3C19B)	-0.378	-0.913	0.270	11.841	9.888	-188.477	-82.43	-16.67	-92.92	-77.518	-23.618	-4.606	0.70563	-0.21255	0.60654	-0.29819	30.9	13111	100
2025-3-27 18:45:2.713	WT901BLE68-01(48591DE3C19B)	-0.376	-0.913	0.270	11.841	9.888	-188.477	-82.16	-18.34	-93.33	-77.518	-23.618	-4.606	0.70563	-0.21255	0.60654	-0.29819	30.9	13111	100
2025-3-27 18:45:2.742	WT901BLE68-01(48591DE3C19B)	-0.376	-0.919	0.314	18.127	21.790	-169.678	-81.79	-19.78	-93.86	-77.518	-23.618	-4.606	0.42636	-0.53525	0.38245	-0.62076	30.9	13111	100
2025-3-27 18:45:2.742	WT901BLE68-01(48591DE3C19B)	-0.351	-0.919	0.314	18.127	21.790	-169.678	-81.39	-21.21	-94.41	-77.518	-23.618	-4.606	0.42636	-0.53525	0.38245	-0.62076	30.9	13111	100
2025-3-27 18:45:2.742	WT901BLE68-01(48591DE3C19B)	-0.351	-0.972	0.335	21.484	42.236	-149.048	-80.87	-22.39	-95.15	-77.518	-23.618	-4.606	0.42636	-0.53525	0.38245	-0.62076	30.9	13111	100
2025-3-27 18:45:2.742	WT901BLE68-01(48591DE3C19B)	-0.348	-0.972	0.335	21.484	42.236	-149.048	-80.33	-23.55	-95.93	-77.518	-23.618	-4.606	0.42636	-0.53525	0.38245	-0.62076	30.9	13111	100
2025-3-27 18:45:2.772	WT901BLE68-01(48591DE3C19B)	-0.348	-1.094	0.363	23.621	64.453	-127.014	-79.67	-24.46	-96.92	-77.518	-23.618	-4.606	0.42636	-0.53525	0.38245	-0.62076	30.9	13111	100
2025-3-27 18:45:2.772	WT901BLE68-01(48591DE3C19B)	-0.374	-1.094	0.363	23.621	64.453	-127.014	-78.99	-25.34	-97.92	-77.518	-23.618	-4.606	0.42636	-0.53525	0.38245	-0.62076	30.9	13111	100
2025-3-27 18:45:2.772	WT901BLE68-01(48591DE3C19B)	-0.374	-1.254	0.387	25.269	83.069	-105.652	-78.20	-25.96	-99.11	-77.518	-23.618	-4.606	0.42636	-0.53525	0.38245	-0.62076	30.9	13111	100
2025-3-27 18:45:2.772	WT901BLE68-01(48591DE3C19B)	-0.423	-1.254	0.387	25.269	83.069	-105.652	-77.40	-26.57	-100.30	-77.518	-23.618	-4.606	0.42636	-0.53525	0.38245	-0.62076	30.9	13111	100
2025-3-27 18:45:2.860	WT901BLE68-01(48591DE3C19B)	-0.423	-1.441	0.393	21.423	98.816	-83.984	-76.58	-26.91	-101.63	-77.518	-23.618	-4.606	0.42636	-0.53525	0.38245	-0.62076	30.9	13111	100
2025-3-27 18:45:2.860	WT901BLE68-01(48591DE3C19B)	-0.535	-1.441	0.393	21.423	98.816	-83.984	-75.76	-27.24	-102.96	-77.518	-23.618	-4.606	0.42636	-0.53525	0.38245	-0.62076	30.9	13111	100
2025-3-27 18:45:2.860	WT901BLE68-01(48591DE3C19B)	-0.535	-1.606	0.391	17.944	107.117	-57.617	-74.95	-27.26	-104.30	-77.518	-23.618	-4.606	0.42636	-0.53525	0.38245	-0.62076	30.9	13111	100
2025-3-27 18:45:2.861	WT901BLE68-01(48591DE3C19B)	-0.658	-1.606	0.391	17.944	107.117	-57.617	-74.16	-27.27	-105.64	-77.518	-23.618	-4.606	0.42636	-0.53525	0.38245	-0.62076	30.9	13111	100
2025-3-27 18:45:2.862	WT901BLE68-01(48591DE3C19B)	-0.658	-1.577	0.393	17.395	98.328	-31.067	-73.47	-27.04	-106.80	-77.518	-23.618	-4.606	0.42636	-0.53525	0.38245	-0.62076	30.9	13111	100
2025-3-27 18:45:2.862	WT901BLE68-01(48591DE3C19B)	-0.694	-1.577	0.393	17.395	98.328	-31.067	-72.78	-26.79	-107.95	-77.518	-23.618	-4.606	0.42636	-0.53525	0.38245	-0.62076	30.9	13111	100
2025-3-27 18:45:2.862	WT901BLE68-01(48591DE3C19B)	-0.687	-1.441	0.433	8.911	73.914	-1.038	-72.36	-26.31	-108.74	-77.518	-23.618	-4.606	0.42636	-0.53525	0.38245	-0.62076	30.9	13111	100
2025-3-27 18:45:2.862	WT901BLE68-01(48591DE3C19B)	-0.687	-1.306	0.460	-2.136	38.269	32.043	-72.10	-25.73	-109.28	-77.518	-23.618	-4.606	0.42636	-0.53525	0.38245	-0.62076	30.9	13111	100
2025-3-27 18:45:2.892	WT901BLE68-01(48591DE3C19B)	-0.648	-1.306	0.460	-2.136	38.269	32.043	-72.01	-25.04	-109.57	-77.518	-23.618	-4.606	0.42636	-0.53525	0.38245	-0.62076	30.9	13111	100
2025-3-27 18:45:2.892	WT901BLE68-01(48591DE3C19B)	-0.648	-1.154	0.434	-10.132	-4.822	64.209	-72.08	-24.26	-109.59	-77.518	-23.618	-4.606	0.42636	-0.53525	0.38245	-0.62076	30.9	13111	100
2025-3-27 18:45:2.892	WT901BLE68-01(48591DE3C19B)	-0.580	-1.154	0.434	-10.132	-4.822	64.209	-72.28	-23.41	-109.34	-61.642	-51.156	-2.058	0.42636	-0.53525	0.38245	-0.62076	30.9	13111	100
2025-3-27 18:45:2.892	WT901BLE68-01(48591DE3C19B)	-0.580	-0.977	0.375	-15.015	-43.579	94.971	-72.60	-22.46	-108.86	-61.642	-51.156	-2.058	0.42636	-0.53525	0.38245	-0.62076	30.9	13111	100
2025-3-27 18:45:2.950	WT901BLE68-01(48591DE3C19B)	-0.539	-0.977	0.375	-15.015	-43.579	94.971	-73.02	-21.42	-108.14	-61.642	-51.156	-2.058	0.42636	-0.53525	0.38245	-0.62076	30.9	13111	100
2025-3-27 18:45:2.950	WT901BLE68-01(48591DE3C19B)	-0.539	-0.866	0.314	-16.602	-75.073	124.817	-73.49	-20.28	-107.24	-61.642	-51.156	-2.058	0.42636	-0.53525	0.38245	-0.62076	30.9	13111	100
2025-3-27 18:45:2.950	WT901BLE68-01(48591DE3C19B)	-0.440	-0.866	0.314	-16.602	-75.073	124.817	-74.01	-19.04	-106.17	-61.642	-51.156	-2.058	0.42636	-0.53525	0.38245	-0.62076	30.9	13111	100
2025-3-27 18:45:2.951	WT901BLE68-01(48591DE3C19B)	-0.440	-0.841	0.224	-16.907	-92.102	152.100	-74.54	-17.69	-104.99	-61.642	-51.156	-2.058	0.42636	-0.53525	0.38245	-0.62076	30.9	13111	100
2025-3-27 18:45:2.982	WT901BLE68-01(48591DE3C19B)	-0.331	-0.841	0.224	-16.907	-92.102	152.100	-75.06	-16.22	-103.71	-61.642	-51.156	-2.058	0.42636	-0.53525	0.38245	-0.62076	30.9	13111	100
2025-3-27 18:45:2.982	WT901BLE68-01(48591DE3C19B)	-0.331	-0.941	0.129	-13.794	-93.567	177.002	-75.54	-14.63	-102.41	-61.642	-51.156	-2.058	0.42636	-0.53525	0.38245	-0.62076	30.9	13111	100
2025-3-27 18:45:2.982	WT901BLE68-01(48591DE3C19B)	-0.260	-0.941	0.129	-13.794	-93.567	177.002	-75.98	-12.93	-101.10	-61.642	-51.156	-2.058	0.42636	-0.53525	0.38245	-0.62076	30.9	13111	100
2025-3-27 18:45:2.982	WT901BLE68-01(48591DE3C19B)	-0.260	-1.075	0.077	-5.066	-84.961	197.571	-76.32	-11.12	-99.82	-61.642	-51.156	-2.058	0.42636	-0.53525	0.38245	-0.62076	30.9	13111	100
2025-3-27 18:45:3.12	WT901BLE68-01(48591DE3C19B)	-0.214	-1.075	0.077	-5.066	-84.961	197.571	-76.59	-9.21	-98.57	-61.642	-51.156	-2.058	0.42636	-0.53525	0.38245	-0.62076	30.9	13111	100
2025-3-27 18:45:3.12	WT901BLE68-01(48591DE3C19B)	-0.214	-1.250	0.059	3.540	-75.012	214.111	-76.76	-7.21	-97.36	-61.642	-51.156	-2.058	0.42636	-0.53525	0.38245	-0.62076	30.9	13111	100
2025-3-27 18:45:3.12	WT901BLE68-01(48591DE3C19B)	-0.170	-1.250	0.059	3.540	-75.012	214.111	-76.85	-5.14	-96.18	-61.642	-51.156	-2.058	0.42636	-0.53525	0.38245	-0.62076	30.9	13111	100
2025-3-27 18:45:3.13	WT901BLE68-01(48591DE3C19B)	-0.170	-1.472	0.045	13.733	-60.608	227.844	-76.85	-3.01	-95.06	-61.642	-51.156	-2.058	0.42636	-0.53525	0.38245	-0.62076	30.9	13111	100
2025-3-27 18:45:3.70	WT901BLE68-01(48591DE3C19B)	-0.102	-1.472	0.045	13.733	-60.608	227.844	-76.77	-0.81	-93.99	-61.642	-51.156	-2.058	0.42636	-0.53525	0.38245	-0.62076	30.9	13111	100
2025-3-27 18:45:3.70	WT901BLE68-01(48591DE3C19B)	-0.102	-1.611	-0.001	26.917	-37.537	241.760	-76.58	1.45	-93.00	-61.642	-51.156	-2.058	0.42636	-0.53525	0.38245	-0.62076	30.9	13111	100
2025-3-27 18:45:3.70	WT901BLE68-01(48591DE3C19B)	-0.094	-1.611	-0.001	26.917	-37.537	241.760	-76.30	3.78	-92.10	-61.642	-51.156	-2.058	0.42636	-0.53525	0.38245	-0.62076	30.9	13111	100
2025-3-27 18:45:3.70	WT901BLE68-01(48591DE3C19B)	-0.094	-1.544	0.006	36.438	-10.803	254.150	-75.95	6.19	-91.30	-61.642	-51.156	-2.058	0.42636	-0.53525	0.38245	-0.62076	30.9	13111	100
2025-3-27 18:45:3.102	WT901BLE68-01(48591DE3C19B)	-0.158	-1.544	0.006	36.438	-10.803	254.150	-75.54	8.65	-90.60	-61.642	-51.156	-2.058	0.58722	-0.38721	0.47604	-0.52774	30.9	13111	100
2025-3-27 18:45:3.102	WT901BLE68-01(48591DE3C19B)	-0.158	-1.424	0.067	32.898	10.254	260.437	-75.14	11.15	-89.97	-61.642	-51.156	-2.058	0.58722	-0.38721	0.47604	-0.52774	30.9	13111	100
2025-3-27 18:45:3.102	WT901BLE68-01(48591DE3C19B)	-0.259	-1.424	0.067	32.898	10.254	260.437	-74.74	13.68	-89.41	-61.642	-51.156	-2.058	0.58722	-0.38721	0.47604	-0.52774	30.9	13111	100
2025-3-27 18:45:3.102	WT901BLE68-01(48591DE3C19B)	-0.259	-1.349	0.127	27.039	22.034	261.047	-74.36	16.21	-88.90	-61.642	-51.156	-2.058	0.58722	-0.38721	0.47604	-0.52774	30.9	13111	100
2025-3-27 18:45:3.160	WT901BLE68-01(48591DE3C19B)	-0.298	-1.349	0.127	27.039	22.034	261.047	-74.00	18.74	-88.42	-61.642	-51.156	-2.058	0.58722	-0.38721	0.47604	-0.52774	30.9	13111	100
2025-3-27 18:45:3.160	WT901BLE68-01(48591DE3C19B)	-0.298	-1.282	0.157	21.606	25.146	257.446	-73.65	21.24	-87.95	-61.642	-51.156	-2.058	0.58722	-0.38721	0.47604	-0.52774	30.9	13111	100
2025-3-27 18:45:3.160	WT901BLE68-01(48591DE3C19B)	-0.309	-1.282	0.157	21.606	25.146	257.446	-73.31	23.71	-87.47	-61.642	-51.156	-2.058	0.58722	-0.38721	0.47604	-0.52774	30.9	13111	100
2025-3-27 18:45:3.160	WT901BLE68-01(48591DE3C19B)	-0.309	-1.202	0.168	16.785	31.616	253.357	-72.98	26.16	-87.02	-61.642	-51.156	-2.058	0.58722	-0.38721	0.47604	-0.52774	30.9	13111	100
2025-3-27 18:45:3.193	WT901BLE68-01(48591DE3C19B)	-0.339	-1.202	0.168	16.785	31.616	253.357	-72.66	28.58	-86.58	-61.642	-51.156	-2.058	0.58722	-0.38721	0.47604	-0.52774	30.9	13111	100
2025-3-27 18:45:3.193	WT901BLE68-01(48591DE3C19B)	-0.339	-1.176	0.124	9.949	39.185	247.192	-72.38	30.96	-86.18	-61.642	-51.156	-2.058	0.58722	-0.38721	0.47604	-0.52774	30.9	13111	100
2025-3-27 18:45:3.193	WT901BLE68-01(48591DE3C19B)	-0.321	-1.176	0.124	9.949	39.185	247.192	-72.13	33.32	-85.81	-61.642	-51.156	-2.058	0.58722	-0.38721	0.47604	-0.52774	30.9	13111	100
2025-3-27 18:45:3.193	WT901BLE68-01(48591DE3C19B)	-0.321	-1.118	0.058	3.052	37.659	239.319	-71.89	35.63	-85.44	-61.642	-51.156	-2.058	0.58722	-0.38721	0.47604	-0.52774	30.9	13111	100
2025-3-27 18:45:3.220	WT901BLE68-01(48591DE3C19B)	-0.284	-1.118	0.058	3.052	37.659	239.319	-71.67	37.88	-85.04	-61.642	-51.156	-2.058	0.58722	-0.38721	0.47604	-0.52774	30.9	13111	100
2025-3-27 18:45:3.220	WT901BLE68-01(48591DE3C19B)	-0.284	-1.056	0.013	-4.639	30.884	229.675	-71.46	40.06	-84.61	-61.642	-51.156	-2.058	0.58722	-0.38721	0.47604	-0.52774	30.9	13111	100
2025-3-27 18:45:3.220	WT901BLE68-01(48591DE3C19B)	-0.265	-1.056	0.013	-4.639	30.884	229.675	-71.24	42.18	-84.13	-61.642	-51.156	-2.058	0.58722	-0.38721	0.47604	-0.52774	30.9	13111	100
2025-3-27 18:45:3.221	WT901BLE68-01(48591DE3C19B)	-0.265	-1.034	-0.020	-13.245	18.066	217.041	-70.99	44.20	-83.57	-61.642	-51.156	-2.058	0.58722	-0.38721	0.47604	-0.52774	30.9	13111	100
2025-3-27 18:45:3.280	WT901BLE68-01(48591DE3C19B)	-0.253	-1.034	-0.020	-13.245	18.066	217.041	-70.72	46.13	-82.93	-61.642	-51.156	-2.058	0.58722	-0.38721	0.47604	-0.52774	30.9	13111	100
2025-3-27 18:45:3.281	WT901BLE68-01(48591DE3C19B)	-0.253	-1.049	-0.032	-18.372	-0.671	204.285	-70.37	47.96	-82.16	-61.642	-51.156	-2.058	0.58722	-0.38721	0.47604	-0.52774	30.9	13111	100
2025-3-27 18:45:3.281	WT901BLE68-01(48591DE3C19B)	-0.242	-1.049	-0.032	-18.372	-0.671	204.285	-69.92	49.68	-81.25	-61.642	-51.156	-2.058	0.58722	-0.38721	0.47604	-0.52774	30.9	13111	100
2025-3-27 18:45:3.281	WT901BLE68-01(48591DE3C19B)	-0.242	-1.008	-0.024	-21.179	-17.395	189.209	-69.36	51.28	-80.21	-61.642	-51.156	-2.058	0.58722	-0.38721	0.47604	-0.52774	30.9	13111	100
2025-3-27 18:45:3.310	WT901BLE68-01(48591DE3C19B)	-0.243	-1.008	-0.024	-21.179	-17.395	189.209	-68.70	52.78	-79.02	-74.382	-25.676	-4.802	0.58722	-0.38721	0.47604	-0.52774	30.9	13111	100
2025-3-27 18:45:3.310	WT901BLE68-01(48591DE3C19B)	-0.243	-0.998	0.012	-25.940	-33.508	170.166	-67.94	54.14	-77.72	-74.382	-25.676	-4.802	0.58722	-0.38721	0.47604	-0.52774	30.9	13111	100
2025-3-27 18:45:3.310	WT901BLE68-01(48591DE3C19B)	-0.277	-0.998	0.012	-25.940	-33.508	170.166	-67.08	55.36	-76.28	-74.382	-25.676	-4.802	0.58722	-0.38721	0.47604	-0.52774	30.9	13111	100
2025-3-27 18:45:3.310	WT901BLE68-01(48591DE3C19B)	-0.277	-1.048	0.084	-29.053	-53.772	147.583	-66.09	56.42	-74.69	-74.382	-25.676	-4.802	0.58722	-0.38721	0.47604	-0.52774	30.9	13111	100
2025-3-27 18:45:3.340	WT901BLE68-01(48591DE3C19B)	-0.286	-1.048	0.084	-29.053	-53.772	147.583	-64.97	57.31	-72.95	-74.382	-25.676	-4.802	0.58722	-0.38721	0.47604	-0.52774	30.9	13111	100
2025-3-27 18:45:3.340	WT901BLE68-01(48591DE3C19B)	-0.286	-1.066	0.163	-27.954	-76.050	122.559	-63.70	58.02	-71.06	-74.382	-25.676	-4.802	0.58722	-0.38721	0.47604	-0.52774	30.9	13111	100
2025-3-27 18:45:3.340	WT901BLE68-01(48591DE3C19B)	-0.237	-1.066	0.163	-27.954	-76.050	122.559	-62.31	58.55	-69.03	-74.382	-25.676	-4.802	0.58722	-0.38721	0.47604	-0.52774	30.9	13111	100
2025-3-27 18:45:3.340	WT901BLE68-01(48591DE3C19B)	-0.237	-1.088	0.183	-28.381	-88.440	96.313	-60.90	58.75	-67.01	-74.382	-25.676	-4.802	0.58722	-0.38721	0.47604	-0.52774	30.9	13111	100
2025-3-27 18:45:3.400	WT901BLE68-01(48591DE3C19B)	-0.189	-1.088	0.183	-28.381	-88.440	96.313	-59.47	58.93	-64.97	-74.382	-25.676	-4.802	0.58722	-0.38721	0.47604	-0.52774	30.9	13111	100
2025-3-27 18:45:3.400	WT901BLE68-01(48591DE3C19B)	-0.189	-1.114	0.188	-28.198	-88.867	66.895	-58.29	58.82	-63.22	-74.382	-25.676	-4.802	0.58722	-0.38721	0.47604	-0.52774	30.9	13111	100
2025-3-27 18:45:3.400	WT901BLE68-01(48591DE3C19B)	-0.195	-1.114	0.188	-28.198	-88.867	66.895	-57.13	58.69	-61.48	-74.382	-25.676	-4.802	0.58722	-0.38721	0.47604	-0.52774	30.9	13111	100
2025-3-27 18:45:3.400	WT901BLE68-01(48591DE3C19B)	-0.195	-1.142	0.204	-29.724	-87.402	33.447	-56.32	58.28	-60.16	-74.382	-25.676	-4.802	0.58722	-0.38721	0.47604	-0.52774	30.9	13111	100
2025-3-27 18:45:3.430	WT901BLE68-01(48591DE3C19B)	-0.195	-1.142	0.204	-29.724	-87.402	33.447	-55.55	57.86	-58.85	-74.382	-25.676	-4.802	0.58722	-0.38721	0.47604	-0.52774	30.9	13111	100
2025-3-27 18:45:3.430	WT901BLE68-01(48591DE3C19B)	-0.195	-1.134	0.229	-30.457	-86.914	-2.502	-55.14	57.15	-57.97	-74.382	-25.676	-4.802	0.58722	-0.38721	0.47604	-0.52774	30.9	13111	100
2025-3-27 18:45:3.430	WT901BLE68-01(48591DE3C19B)	-0.180	-1.134	0.229	-30.457	-86.914	-2.502	-54.76	56.42	-57.12	-74.382	-25.676	-4.802	0.58722	-0.38721	0.47604	-0.52774	30.9	13111	100
2025-3-27 18:45:3.430	WT901BLE68-01(48591DE3C19B)	-0.180	-1.099	0.265	-33.081	-83.984	-38.208	-54.78	55.43	-56.71	-74.382	-25.676	-4.802	0.58722	-0.38721	0.47604	-0.52774	30.9	13111	100
2025-3-27 18:45:3.462	WT901BLE68-01(48591DE3C19B)	-0.115	-1.099	0.265	-33.081	-83.984	-38.208	-54.80	54.44	-56.30	-74.382	-25.676	-4.802	0.58722	-0.38721	0.47604	-0.52774	30.9	13111	100
2025-3-27 18:45:3.462	WT901BLE68-01(48591DE3C19B)	-0.115	-1.063	0.223	-40.161	-67.322	-72.327	-55.35	53.27	-56.46	-74.382	-25.676	-4.802	0.58722	-0.38721	0.47604	-0.52774	30.9	13111	100
2025-3-27 18:45:3.462	WT901BLE68-01(48591DE3C19B)	-0.066	-1.063	0.223	-40.161	-67.322	-72.327	-55.89	52.10	-56.60	-74.382	-25.676	-4.802	0.58722	-0.38721	0.47604	-0.52774	30.9	13111	100
2025-3-27 18:45:3.462	WT901BLE68-01(48591DE3C19B)	-0.066	-1.046	0.168	-47.974	-36.865	-106.506	-57.03	50.82	-57.41	-74.382	-25.676	-4.802	0.58722	-0.38721	0.47604	-0.52774	30.9	13111	100
2025-3-27 18:45:3.520	WT901BLE68-01(48591DE3C19B)	-0.109	-1.046	0.168	-47.974	-36.865	-106.506	-58.11	49.54	-58.16	-74.382	-25.676	-4.802	0.58722	-0.38721	0.47604	-0.52774	30.9	13111	100
2025-3-27 18:45:3.521	WT901BLE68-01(48591DE3C19B)	-0.109	-1.088	0.194	-56.824	-13.428	-141.724	-59.65	48.07	-59.43	-74.382	-25.676	-4.802	0.78644	-0.22531	0.53079	-0.22110	30.9	13111	100
2025-3-27 18:45:3.521	WT901BLE68-01(48591DE3C19B)	-0.249	-1.088	0.194	-56.824	-13.428	-141.724	-61.09	46.59	-60.58	-74.382	-25.676	-4.802	0.78644	-0.22531	0.53079	-0.22110	30.9	13111	100
2025-3-27 18:45:3.521	WT901BLE68-01(48591DE3C19B)	-0.249	-1.188	0.283	-61.768	-9.094	-172.363	-62.68	44.85	-61.91	-74.382	-25.676	-4.802	0.78644	-0.22531	0.53079	-0.22110	30.9	13111	100
2025-3-27 18:45:3.549	WT901BLE68-01(48591DE3C19B)	-0.342	-1.188	0.283	-61.768	-9.094	-172.363	-64.15	43.09	-63.12	-74.382	-25.676	-4.802	0.78644	-0.22531	0.53079	-0.22110	30.9	13111	100
2025-3-27 18:45:3.549	WT901BLE68-01(48591DE3C19B)	-0.342	-1.224	0.344	-63.904	-13.855	-197.021	-65.59	41.08	-64.31	-74.382	-25.676	-4.802	0.78644	-0.22531	0.53079	-0.22110	30.9	13111	100
2025-3-27 18:45:3.549	WT901BLE68-01(48591DE3C19B)	-0.407	-1.224	0.344	-63.904	-13.855	-197.021	-66.93	39.07	-65.40	-74.382	-25.676	-4.802	0.78644	-0.22531	0.53079	-0.22110	30.9	13111	100
2025-3-27 18:45:3.549	WT901BLE68-01(48591DE3C19B)	-0.407	-1.211	0.398	-65.979	-20.081	-211.426	-68.19	36.90	-66.38	-74.382	-25.676	-4.802	0.78644	-0.22531	0.53079	-0.22110	30.9	13111	100
2025-3-27 18:45:3.580	WT901BLE68-01(48591DE3C19B)	-0.432	-1.211	0.398	-65.979	-20.081	-211.426	-69.36	34.73	-67.27	-74.382	-25.676	-4.802	0.78644	-0.22531	0.53079	-0.22110	30.9	13111	100
2025-3-27 18:45:3.580	WT901BLE68-01(48591DE3C19B)	-0.432	-1.197	0.429	-69.458	-30.579	-218.445	-70.44	32.46	-68.00	-74.382	-25.676	-4.802	0.78644	-0.22531	0.53079	-0.22110	30.9	13111	100
2025-3-27 18:45:3.580	WT901BLE68-01(48591DE3C19B)	-0.367	-1.197	0.429	-69.458	-30.579	-218.445	-71.45	30.20	-68.66	-74.382	-25.676	-4.802	0.78644	-0.22531	0.53079	-0.22110	30.9	13111	100
2025-3-27 18:45:3.580	WT901BLE68-01(48591DE3C19B)	-0.367	-1.167	0.430	-72.998	-40.100	-219.543	-72.39	27.91	-69.15	-74.382	-25.676	-4.802	0.78644	-0.22531	0.53079	-0.22110	30.9	13111	100
2025-3-27 18:45:3.641	WT901BLE68-01(48591DE3C19B)	-0.311	-1.167	0.430	-72.998	-40.100	-219.543	-73.28	25.61	-69.60	-74.382	-25.676	-4.802	0.78644	-0.22531	0.53079	-0.22110	30.9	13111	100
2025-3-27 18:45:3.641	WT901BLE68-01(48591DE3C19B)	-0.311	-1.150	0.405	-74.463	-50.781	-214.355	-74.09	23.36	-69.87	-74.382	-25.676	-4.802	0.78644	-0.22531	0.53079	-0.22110	30.9	13111	100
2025-3-27 18:45:3.641	WT901BLE68-01(48591DE3C19B)	-0.259	-1.150	0.405	-74.463	-50.781	-214.355	-74.88	21.11	-70.10	-74.382	-25.676	-4.802	0.78644	-0.22531	0.53079	-0.22110	30.9	13111	100
2025-3-27 18:45:3.641	WT901BLE68-01(48591DE3C19B)	-0.259	-1.125	0.361	-73.975	-62.805	-207.275	-75.59	18.91	-70.15	-74.382	-25.676	-4.802	0.78644	-0.22531	0.53079	-0.22110	30.9	13111	100
2025-3-27 18:45:3.669	WT901BLE68-01(48591DE3C19B)	-0.203	-1.125	0.361	-73.975	-62.805	-207.275	-76.28	16.73	-70.18	-74.382	-25.676	-4.802	0.78644	-0.22531	0.53079	-0.22110	30.9	13111	100
2025-3-27 18:45:3.669	WT901BLE68-01(48591DE3C19B)	-0.203	-1.104	0.346	-73.425	-60.730	-202.515	-76.96	14.60	-70.18	-74.382	-25.676	-4.802	0.78644	-0.22531	0.53079	-0.22110	30.9	13111	100
2025-3-27 18:45:3.669	WT901BLE68-01(48591DE3C19B)	-0.186	-1.104	0.346	-73.425	-60.730	-202.515	-77.64	12.49	-70.16	-74.382	-25.676	-4.802	0.78644	-0.22531	0.53079	-0.22110	30.9	13111	100
2025-3-27 18:45:3.669	WT901BLE68-01(48591DE3C19B)	-0.186	-1.114	0.399	-67.139	-41.626	-197.021	-78.28	10.48	-70.30	-74.382	-25.676	-4.802	0.78644	-0.22531	0.53079	-0.22110	30.9	13111	100
2025-3-27 18:45:3.700	WT901BLE68-01(48591DE3C19B)	-0.231	-1.114	0.399	-67.139	-41.626	-197.021	-78.91	8.48	-70.41	-74.382	-25.676	-4.802	0.78644	-0.22531	0.53079	-0.22110	30.9	13111	100
2025-3-27 18:45:3.700	WT901BLE68-01(48591DE3C19B)	-0.231	-1.136	0.452	-54.749	-17.517	-190.552	-79.44	6.60	-70.73	-74.382	-25.676	-4.802	0.78644	-0.22531	0.53079	-0.22110	30.9	13111	100
2025-3-27 18:45:3.700	WT901BLE68-01(48591DE3C19B)	-0.249	-1.136	0.452	-54.749	-17.517	-190.552	-79.95	4.72	-71.03	-89.278	-31.164	5.586	0.78644	-0.22531	0.53079	-0.22110	30.9	13111	100
2025-3-27 18:45:3.701	WT901BLE68-01(48591DE3C19B)	-0.249	-1.098	0.454	-36.926	9.216	-182.251	-80.29	2.98	-71.57	-89.278	-31.164	5.586	0.78644	-0.22531	0.53079	-0.22110	30.9	13111	100
2025-3-27 18:45:3.760	WT901BLE68-01(48591DE3C19B)	-0.224	-1.098	0.454	-36.926	9.216	-182.251	-80.61	1.25	-72.10	-89.278	-31.164	5.586	0.78644	-0.22531	0.53079	-0.22110	30.9	13111	100
2025-3-27 18:45:3.760	WT901BLE68-01(48591DE3C19B)	-0.224	-1.003	0.425	-17.822	41.809	-171.265	-80.72	-0.31	-72.92	-89.278	-31.164	5.586	0.78644	-0.22531	0.53079	-0.22110	30.9	13111	100
2025-3-27 18:45:3.760	WT901BLE68-01(48591DE3C19B)	-0.210	-1.003	0.425	-17.822	41.809	-171.265	-80.81	-1.86	-73.73	-89.278	-31.164	5.586	0.78644	-0.22531	0.53079	-0.22110	30.9	13111	100
2025-3-27 18:45:3.760	WT901BLE68-01(48591DE3C19B)	-0.210	-0.910	0.373	-1.343	75.684	-158.325	-80.70	-3.22	-74.87	-89.278	-31.164	5.586	0.78644	-0.22531	0.53079	-0.22110	30.9	13111	100
2025-3-27 18:45:3.794	WT901BLE68-01(48591DE3C19B)	-0.218	-0.910	0.373	-1.343	75.684	-158.325	-80.56	-4.58	-76.00	-89.278	-31.164	5.586	0.78644	-0.22531	0.53079	-0.22110	30.9	13111	100
2025-3-27 18:45:3.794	WT901BLE68-01(48591DE3C19B)	-0.218	-0.840	0.328	11.597	105.591	-146.362	-80.26	-5.76	-77.41	-89.278	-31.164	5.586	0.78644	-0.22531	0.53079	-0.22110	30.9	13111	100
2025-3-27 18:45:3.794	WT901BLE68-01(48591DE3C19B)	-0.222	-0.840	0.328	11.597	105.591	-146.362	-79.91	-6.92	-78.83	-89.278	-31.164	5.586	0.78644	-0.22531	0.53079	-0.22110	30.9	13111	100
2025-3-27 18:45:3.794	WT901BLE68-01(48591DE3C19B)	-0.229	-0.813	0.287	21.606	131.653	-132.996	-79.43	-7.88	-80.49	-89.278	-31.164	5.586	0.78644	-0.22531	0.53079	-0.22110	30.9	13111	100
