time	DeviceName	AccX(g)	AccY(g)	AccZ(g)	AsX(°/s)	AsY(°/s)	AsZ(°/s)	AngleX(°)	AngleY(°)	AngleZ(°)	HX(uT)	HY(uT)	HZ(uT)	Q0()	Q1()	Q2()	Q3()	Temperature(°C)	Version()	Battery level(%)
2025-3-27 18:50:43.609	WT901BLE68-01(48591DE3C19B)	-0.280	-0.926	0.284	0.122	-0.610	-1.160	-72.56	15.88	-99.99	-71.736	-70.266	12.054	0.57669	-0.29260	0.51950	-0.55838	30.7	13111	100
2025-3-27 18:50:43.609	WT901BLE68-01(48591DE3C19B)	-0.279	-0.926	0.284	0.122	-0.610	-1.160	-72.56	15.86	-99.99	-71.736	-70.266	12.054	0.57669	-0.29260	0.51950	-0.55838	30.7	13111	100
2025-3-27 18:50:43.609	WT901BLE68-01(48591DE3C19B)	-0.279	-0.926	0.281	-0.061	-1.465	-1.221	-72.56	15.85	-99.98	-71.736	-70.266	12.054	0.57669	-0.29260	0.51950	-0.55838	30.7	13111	100
2025-3-27 18:50:43.609	WT901BLE68-01(48591DE3C19B)	-0.279	-0.926	0.281	-0.061	-1.465	-1.221	-72.56	15.83	-99.97	-71.736	-70.266	12.054	0.57669	-0.29260	0.51950	-0.55838	30.7	13111	100
2025-3-27 18:50:43.638	WT901BLE68-01(48591DE3C19B)	-0.279	-0.928	0.281	-0.305	-2.686	-1.038	-72.56	15.81	-99.95	-71.736	-70.266	12.054	0.57669	-0.29260	0.51950	-0.55838	30.7	13111	100
2025-3-27 18:50:43.639	WT901BLE68-01(48591DE3C19B)	-0.277	-0.928	0.281	-0.305	-2.686	-1.038	-72.56	15.80	-99.93	-71.736	-70.266	12.054	0.57669	-0.29260	0.51950	-0.55838	30.7	13111	100
2025-3-27 18:50:43.639	WT901BLE68-01(48591DE3C19B)	-0.277	-0.921	0.281	-0.366	-4.028	-1.221	-72.56	15.78	-99.90	-71.736	-70.266	12.054	0.57669	-0.29260	0.51950	-0.55838	30.7	13111	100
2025-3-27 18:50:43.639	WT901BLE68-01(48591DE3C19B)	-0.279	-0.921	0.281	-0.366	-4.028	-1.221	-72.55	15.75	-99.86	-71.736	-70.266	12.054	0.57669	-0.29260	0.51950	-0.55838	30.7	13111	100
2025-3-27 18:50:43.670	WT901BLE68-01(48591DE3C19B)	-0.279	-0.912	0.280	-0.854	-5.493	-1.404	-72.55	15.73	-99.82	-71.736	-70.266	12.054	0.57669	-0.29260	0.51950	-0.55838	30.7	13111	100
2025-3-27 18:50:43.670	WT901BLE68-01(48591DE3C19B)	-0.289	-0.912	0.280	-0.854	-5.493	-1.404	-72.55	15.70	-99.77	-71.736	-70.266	12.054	0.57669	-0.29260	0.51950	-0.55838	30.7	13111	100
2025-3-27 18:50:43.670	WT901BLE68-01(48591DE3C19B)	-0.287	-0.918	0.273	-1.770	-8.423	-1.648	-72.55	15.66	-99.70	-71.736	-70.266	12.054	0.57669	-0.29260	0.51950	-0.55838	30.7	13111	100
2025-3-27 18:50:43.670	WT901BLE68-01(48591DE3C19B)	-0.287	-0.915	0.264	-2.625	-12.268	-1.953	-72.54	15.62	-99.60	-71.736	-70.266	12.054	0.57669	-0.29260	0.51950	-0.55838	30.7	13111	100
2025-3-27 18:50:43.729	WT901BLE68-01(48591DE3C19B)	-0.289	-0.915	0.264	-2.625	-12.268	-1.953	-72.54	15.57	-99.49	-71.736	-70.266	12.054	0.57669	-0.29260	0.51950	-0.55838	30.7	13111	100
2025-3-27 18:50:43.730	WT901BLE68-01(48591DE3C19B)	-0.289	-0.906	0.261	-4.395	-16.174	-1.953	-72.55	15.51	-99.36	-71.736	-70.266	12.054	0.57669	-0.29260	0.51950	-0.55838	30.7	13111	100
2025-3-27 18:50:43.730	WT901BLE68-01(48591DE3C19B)	-0.300	-0.906	0.261	-4.395	-16.174	-1.953	-72.55	15.45	-99.21	-71.736	-70.266	12.054	0.57669	-0.29260	0.51950	-0.55838	30.7	13111	100
2025-3-27 18:50:43.730	WT901BLE68-01(48591DE3C19B)	-0.300	-0.900	0.252	-6.775	-22.522	-1.465	-72.56	15.38	-99.03	-71.736	-70.266	12.054	0.57669	-0.29260	0.51950	-0.55838	30.7	13111	100
2025-3-27 18:50:43.759	WT901BLE68-01(48591DE3C19B)	-0.292	-0.900	0.252	-6.775	-22.522	-1.465	-72.58	15.31	-98.82	-71.736	-70.266	12.054	0.57962	-0.30014	0.51529	-0.55530	30.7	13111	100
2025-3-27 18:50:43.759	WT901BLE68-01(48591DE3C19B)	-0.292	-0.886	0.246	-9.338	-28.625	-0.854	-72.60	15.23	-98.57	-71.736	-70.266	12.054	0.57962	-0.30014	0.51529	-0.55530	30.7	13111	100
2025-3-27 18:50:43.759	WT901BLE68-01(48591DE3C19B)	-0.290	-0.886	0.246	-9.338	-28.625	-0.854	-72.63	15.14	-98.29	-71.736	-70.266	12.054	0.57962	-0.30014	0.51529	-0.55530	30.7	13111	100
2025-3-27 18:50:43.759	WT901BLE68-01(48591DE3C19B)	-0.290	-0.880	0.236	-12.817	-33.875	0.061	-72.66	15.06	-97.99	-71.736	-70.266	12.054	0.57962	-0.30014	0.51529	-0.55530	30.7	13111	100
2025-3-27 18:50:43.790	WT901BLE68-01(48591DE3C19B)	-0.289	-0.880	0.236	-12.817	-33.875	0.061	-72.71	14.97	-97.67	-71.736	-70.266	12.054	0.57962	-0.30014	0.51529	-0.55530	30.7	13111	100
2025-3-27 18:50:43.790	WT901BLE68-01(48591DE3C19B)	-0.289	-0.884	0.237	-16.296	-38.147	0.732	-72.77	14.88	-97.32	-71.736	-70.266	12.054	0.57962	-0.30014	0.51529	-0.55530	30.7	13111	100
2025-3-27 18:50:43.790	WT901BLE68-01(48591DE3C19B)	-0.290	-0.884	0.237	-16.296	-38.147	0.732	-72.84	14.79	-96.95	-71.736	-70.266	12.054	0.57962	-0.30014	0.51529	-0.55530	30.7	13111	100
2025-3-27 18:50:43.790	WT901BLE68-01(48591DE3C19B)	-0.290	-0.881	0.242	-19.897	-41.138	1.343	-72.93	14.69	-96.56	-71.736	-70.266	12.054	0.57962	-0.30014	0.51529	-0.55530	30.7	13111	100
2025-3-27 18:50:43.850	WT901BLE68-01(48591DE3C19B)	-0.301	-0.881	0.242	-19.897	-41.138	1.343	-73.03	14.60	-96.17	-71.736	-70.266	12.054	0.57962	-0.30014	0.51529	-0.55530	30.7	13111	100
2025-3-27 18:50:43.850	WT901BLE68-01(48591DE3C19B)	-0.301	-0.884	0.254	-23.254	-41.809	1.831	-73.15	14.51	-95.77	-71.736	-70.266	12.054	0.57962	-0.30014	0.51529	-0.55530	30.7	13111	100
2025-3-27 18:50:43.850	WT901BLE68-01(48591DE3C19B)	-0.327	-0.884	0.254	-23.254	-41.809	1.831	-73.28	14.43	-95.37	-71.736	-70.266	12.054	0.57962	-0.30014	0.51529	-0.55530	30.7	13111	100
2025-3-27 18:50:43.850	WT901BLE68-01(48591DE3C19B)	-0.327	-0.886	0.260	-26.611	-41.748	2.197	-73.43	14.34	-94.97	-71.736	-70.266	12.054	0.57962	-0.30014	0.51529	-0.55530	30.7	13111	100
2025-3-27 18:50:43.881	WT901BLE68-01(48591DE3C19B)	-0.347	-0.886	0.260	-26.611	-41.748	2.197	-73.60	14.27	-94.57	-71.736	-70.266	12.054	0.57962	-0.30014	0.51529	-0.55530	30.7	13111	100
2025-3-27 18:50:43.882	WT901BLE68-01(48591DE3C19B)	-0.347	-0.902	0.268	-29.663	-41.870	2.319	-73.77	14.19	-94.17	-71.736	-70.266	12.054	0.57962	-0.30014	0.51529	-0.55530	30.7	13111	100
2025-3-27 18:50:43.882	WT901BLE68-01(48591DE3C19B)	-0.377	-0.902	0.268	-29.663	-41.870	2.319	-73.97	14.12	-93.78	-71.736	-70.266	12.054	0.57962	-0.30014	0.51529	-0.55530	30.7	13111	100
2025-3-27 18:50:43.882	WT901BLE68-01(48591DE3C19B)	-0.377	-0.913	0.283	-30.884	-38.635	2.563	-74.17	14.06	-93.41	-71.736	-70.266	12.054	0.57962	-0.30014	0.51529	-0.55530	30.7	13111	100
2025-3-27 18:50:43.940	WT901BLE68-01(48591DE3C19B)	-0.418	-0.913	0.283	-30.884	-38.635	2.563	-74.38	14.01	-93.05	-71.736	-70.266	12.054	0.57962	-0.30014	0.51529	-0.55530	30.7	13111	100
2025-3-27 18:50:43.940	WT901BLE68-01(48591DE3C19B)	-0.418	-0.904	0.300	-30.823	-36.499	4.578	-74.59	13.97	-92.71	-74.872	-68.796	11.858	0.57962	-0.30014	0.51529	-0.55530	30.7	13111	100
2025-3-27 18:50:43.940	WT901BLE68-01(48591DE3C19B)	-0.475	-0.904	0.300	-30.823	-36.499	4.578	-74.79	13.95	-92.38	-74.872	-68.796	11.858	0.57962	-0.30014	0.51529	-0.55530	30.7	13111	100
2025-3-27 18:50:43.940	WT901BLE68-01(48591DE3C19B)	-0.475	-0.890	0.317	-30.029	-33.569	9.827	-75.00	13.97	-92.06	-74.872	-68.796	11.858	0.57962	-0.30014	0.51529	-0.55530	30.7	13111	100
2025-3-27 18:50:43.968	WT901BLE68-01(48591DE3C19B)	-0.526	-0.890	0.317	-30.029	-33.569	9.827	-75.20	14.01	-91.76	-74.872	-68.796	11.858	0.57962	-0.30014	0.51529	-0.55530	30.7	13111	100
2025-3-27 18:50:43.968	WT901BLE68-01(48591DE3C19B)	-0.526	-0.896	0.313	-28.870	-28.809	18.188	-75.39	14.11	-91.47	-74.872	-68.796	11.858	0.57962	-0.30014	0.51529	-0.55530	30.7	13111	100
2025-3-27 18:50:43.968	WT901BLE68-01(48591DE3C19B)	-0.548	-0.896	0.313	-28.870	-28.809	18.188	-75.57	14.27	-91.20	-74.872	-68.796	11.858	0.57962	-0.30014	0.51529	-0.55530	30.7	13111	100
2025-3-27 18:50:43.969	WT901BLE68-01(48591DE3C19B)	-0.548	-0.913	0.283	-27.466	-26.917	27.710	-75.75	14.46	-90.93	-74.872	-68.796	11.858	0.57962	-0.30014	0.51529	-0.55530	30.7	13111	100
2025-3-27 18:50:44.3	WT901BLE68-01(48591DE3C19B)	-0.546	-0.913	0.283	-27.466	-26.917	27.710	-75.91	14.72	-90.66	-74.872	-68.796	11.858	0.57962	-0.30014	0.51529	-0.55530	30.7	13111	100
2025-3-27 18:50:44.3	WT901BLE68-01(48591DE3C19B)	-0.546	-0.958	0.238	-27.039	-30.823	36.865	-76.06	15.02	-90.37	-74.872	-68.796	11.858	0.57962	-0.30014	0.51529	-0.55530	30.7	13111	100
2025-3-27 18:50:44.3	WT901BLE68-01(48591DE3C19B)	-0.546	-0.958	0.238	-27.039	-30.823	36.865	-76.20	15.35	-90.04	-74.872	-68.796	11.858	0.57962	-0.30014	0.51529	-0.55530	30.7	13111	100
2025-3-27 18:50:44.3	WT901BLE68-01(48591DE3C19B)	-0.546	-1.050	0.214	-24.231	-36.072	43.213	-76.32	15.72	-89.67	-74.872	-68.796	11.858	0.57962	-0.30014	0.51529	-0.55530	30.7	13111	100
2025-3-27 18:50:44.60	WT901BLE68-01(48591DE3C19B)	-0.564	-1.050	0.214	-24.231	-36.072	43.213	-76.41	16.11	-89.27	-74.872	-68.796	11.858	0.57962	-0.30014	0.51529	-0.55530	30.7	13111	100
2025-3-27 18:50:44.60	WT901BLE68-01(48591DE3C19B)	-0.564	-1.114	0.229	-17.090	-37.659	47.913	-76.46	16.52	-88.85	-74.872	-68.796	11.858	0.57962	-0.30014	0.51529	-0.55530	30.7	13111	100
2025-3-27 18:50:44.60	WT901BLE68-01(48591DE3C19B)	-0.549	-1.114	0.229	-17.090	-37.659	47.913	-76.48	16.95	-88.41	-74.872	-68.796	11.858	0.57962	-0.30014	0.51529	-0.55530	30.7	13111	100
2025-3-27 18:50:44.60	WT901BLE68-01(48591DE3C19B)	-0.549	-1.097	0.239	-9.583	-34.546	47.852	-76.45	17.38	-87.99	-74.872	-68.796	11.858	0.57962	-0.30014	0.51529	-0.55530	30.7	13111	100
2025-3-27 18:50:44.91	WT901BLE68-01(48591DE3C19B)	-0.491	-1.097	0.239	-9.583	-34.546	47.852	-76.39	17.81	-87.58	-74.872	-68.796	11.858	0.57962	-0.30014	0.51529	-0.55530	30.7	13111	100
2025-3-27 18:50:44.91	WT901BLE68-01(48591DE3C19B)	-0.491	-1.020	0.234	-5.249	-25.024	47.424	-76.33	18.25	-87.21	-74.872	-68.796	11.858	0.57962	-0.30014	0.51529	-0.55530	30.7	13111	100
2025-3-27 18:50:44.92	WT901BLE68-01(48591DE3C19B)	-0.461	-1.020	0.234	-5.249	-25.024	47.424	-76.26	18.69	-86.90	-74.872	-68.796	11.858	0.57962	-0.30014	0.51529	-0.55530	30.7	13111	100
2025-3-27 18:50:44.92	WT901BLE68-01(48591DE3C19B)	-0.461	-0.944	0.218	-3.906	-10.742	47.791	-76.20	19.15	-86.65	-74.872	-68.796	11.858	0.57962	-0.30014	0.51529	-0.55530	30.7	13111	100
2025-3-27 18:50:44.121	WT901BLE68-01(48591DE3C19B)	-0.447	-0.944	0.218	-3.906	-10.742	47.791	-76.16	19.63	-86.47	-74.872	-68.796	11.858	0.57962	-0.30014	0.51529	-0.55530	30.7	13111	100
2025-3-27 18:50:44.122	WT901BLE68-01(48591DE3C19B)	-0.447	-0.881	0.199	-4.700	1.282	48.340	-76.14	20.12	-86.36	-74.872	-68.796	11.858	0.57962	-0.30014	0.51529	-0.55530	30.7	13111	100
2025-3-27 18:50:44.122	WT901BLE68-01(48591DE3C19B)	-0.448	-0.881	0.199	-4.700	1.282	48.340	-76.15	20.62	-86.30	-74.872	-68.796	11.858	0.64127	-0.34506	0.51874	-0.44778	30.7	13111	100
2025-3-27 18:50:44.122	WT901BLE68-01(48591DE3C19B)	-0.448	-0.825	0.181	-5.127	8.301	48.767	-76.17	21.13	-86.28	-74.872	-68.796	11.858	0.64127	-0.34506	0.51874	-0.44778	30.7	13111	100
2025-3-27 18:50:44.179	WT901BLE68-01(48591DE3C19B)	-0.435	-0.825	0.181	-5.127	8.301	48.767	-76.21	21.65	-86.29	-74.872	-68.796	11.858	0.64127	-0.34506	0.51874	-0.44778	30.7	13111	100
2025-3-27 18:50:44.179	WT901BLE68-01(48591DE3C19B)	-0.435	-0.765	0.167	-6.226	10.498	48.157	-76.26	22.17	-86.33	-74.872	-68.796	11.858	0.64127	-0.34506	0.51874	-0.44778	30.7	13111	100
2025-3-27 18:50:44.179	WT901BLE68-01(48591DE3C19B)	-0.424	-0.765	0.167	-6.226	10.498	48.157	-76.32	22.69	-86.36	-74.872	-68.796	11.858	0.64127	-0.34506	0.51874	-0.44778	30.7	13111	100
2025-3-27 18:50:44.179	WT901BLE68-01(48591DE3C19B)	-0.424	-0.732	0.139	-7.996	8.484	47.546	-76.39	23.19	-86.38	-74.872	-68.796	11.858	0.64127	-0.34506	0.51874	-0.44778	30.7	13111	100
2025-3-27 18:50:44.208	WT901BLE68-01(48591DE3C19B)	-0.421	-0.732	0.139	-7.996	8.484	47.546	-76.45	23.69	-86.40	-74.872	-68.796	11.858	0.64127	-0.34506	0.51874	-0.44778	30.7	13111	100
2025-3-27 18:50:44.208	WT901BLE68-01(48591DE3C19B)	-0.421	-0.723	0.119	-9.705	1.221	45.471	-76.51	24.16	-86.34	-74.872	-68.796	11.858	0.64127	-0.34506	0.51874	-0.44778	30.7	13111	100
2025-3-27 18:50:44.208	WT901BLE68-01(48591DE3C19B)	-0.414	-0.723	0.119	-9.705	1.221	45.471	-76.57	24.62	-86.28	-74.872	-68.796	11.858	0.64127	-0.34506	0.51874	-0.44778	30.7	13111	100
2025-3-27 18:50:44.208	WT901BLE68-01(48591DE3C19B)	-0.414	-0.732	0.118	-10.986	-11.047	41.931	-76.60	25.02	-86.09	-74.872	-68.796	11.858	0.64127	-0.34506	0.51874	-0.44778	30.7	13111	100
2025-3-27 18:50:44.239	WT901BLE68-01(48591DE3C19B)	-0.394	-0.732	0.118	-10.986	-11.047	41.931	-76.61	25.42	-85.91	-74.872	-68.796	11.858	0.64127	-0.34506	0.51874	-0.44778	30.7	13111	100
2025-3-27 18:50:44.240	WT901BLE68-01(48591DE3C19B)	-0.394	-0.737	0.127	-12.146	-23.193	38.391	-76.60	25.75	-85.60	-74.872	-68.796	11.858	0.64127	-0.34506	0.51874	-0.44778	30.7	13111	100
2025-3-27 18:50:44.240	WT901BLE68-01(48591DE3C19B)	-0.370	-0.737	0.127	-12.146	-23.193	38.391	-76.57	26.08	-85.29	-74.872	-68.796	11.858	0.64127	-0.34506	0.51874	-0.44778	30.7	13111	100
2025-3-27 18:50:44.240	WT901BLE68-01(48591DE3C19B)	-0.370	-0.725	0.136	-13.184	-34.302	35.034	-76.51	26.35	-84.86	-74.872	-68.796	11.858	0.64127	-0.34506	0.51874	-0.44778	30.7	13111	100
2025-3-27 18:50:44.304	WT901BLE68-01(48591DE3C19B)	-0.352	-0.725	0.136	-13.184	-34.302	35.034	-76.45	26.61	-84.44	-74.872	-68.796	11.858	0.64127	-0.34506	0.51874	-0.44778	30.7	13111	100
2025-3-27 18:50:44.304	WT901BLE68-01(48591DE3C19B)	-0.352	-0.727	0.143	-15.808	-46.204	32.166	-76.36	26.82	-83.90	-74.872	-68.796	11.858	0.64127	-0.34506	0.51874	-0.44778	30.7	13111	100
2025-3-27 18:50:44.304	WT901BLE68-01(48591DE3C19B)	-0.336	-0.727	0.143	-15.808	-46.204	32.166	-76.26	27.03	-83.35	-74.872	-68.796	11.858	0.64127	-0.34506	0.51874	-0.44778	30.7	13111	100
2025-3-27 18:50:44.304	WT901BLE68-01(48591DE3C19B)	-0.336	-0.806	0.151	-20.020	-59.021	28.931	-76.15	27.17	-82.68	-74.872	-68.796	11.858	0.64127	-0.34506	0.51874	-0.44778	30.7	13111	100
2025-3-27 18:50:44.331	WT901BLE68-01(48591DE3C19B)	-0.324	-0.806	0.151	-20.020	-59.021	28.931	-76.04	27.31	-82.01	-74.872	-68.796	11.858	0.64127	-0.34506	0.51874	-0.44778	30.7	13111	100
2025-3-27 18:50:44.331	WT901BLE68-01(48591DE3C19B)	-0.324	-0.944	0.152	-23.499	-70.862	24.536	-75.90	27.36	-81.22	-74.872	-68.796	11.858	0.64127	-0.34506	0.51874	-0.44778	30.7	13111	100
2025-3-27 18:50:44.331	WT901BLE68-01(48591DE3C19B)	-0.289	-0.944	0.152	-23.499	-70.862	24.536	-75.77	27.41	-80.43	-74.872	-68.796	11.858	0.64127	-0.34506	0.51874	-0.44778	30.7	13111	100
2025-3-27 18:50:44.332	WT901BLE68-01(48591DE3C19B)	-0.289	-1.164	0.141	-29.175	-80.566	17.822	-75.66	27.37	-79.56	-90.552	-55.468	11.760	0.64127	-0.34506	0.51874	-0.44778	30.7	13111	100
2025-3-27 18:50:44.361	WT901BLE68-01(48591DE3C19B)	-0.350	-1.164	0.141	-29.175	-80.566	17.822	-75.56	27.31	-78.68	-90.552	-55.468	11.760	0.64127	-0.34506	0.51874	-0.44778	30.7	13111	100
2025-3-27 18:50:44.361	WT901BLE68-01(48591DE3C19B)	-1.401	-3.025	0.263	-31.189	-82.886	6.714	-75.49	27.13	-77.82	-90.552	-55.468	11.760	0.64127	-0.34506	0.51874	-0.44778	30.7	13111	100
2025-3-27 18:50:44.361	WT901BLE68-01(48591DE3C19B)	0.095	-12.100	1.053	-31.189	-82.886	6.714	-75.43	26.92	-76.96	-90.552	-55.468	11.760	0.64127	-0.34506	0.51874	-0.44778	30.7	13111	100
2025-3-27 18:50:44.361	WT901BLE68-01(48591DE3C19B)	0.095	-1.766	0.095	-22.461	-63.232	-9.827	-75.42	26.58	-76.37	-90.552	-55.468	11.760	0.64127	-0.34506	0.51874	-0.44778	30.7	13111	100
2025-3-27 18:50:44.420	WT901BLE68-01(48591DE3C19B)	0.322	-1.766	0.095	-22.461	-63.232	-9.827	-75.41	26.24	-75.78	-90.552	-55.468	11.760	0.64127	-0.34506	0.51874	-0.44778	30.7	13111	100
2025-3-27 18:50:44.420	WT901BLE68-01(48591DE3C19B)	0.322	-1.670	0.083	-13.062	-24.963	-24.414	-75.52	25.83	-75.65	-90.552	-55.468	11.760	0.64127	-0.34506	0.51874	-0.44778	30.7	13111	100
2025-3-27 18:50:44.420	WT901BLE68-01(48591DE3C19B)	0.443	-1.670	0.083	-13.062	-24.963	-24.414	-75.62	25.43	-75.51	-90.552	-55.468	11.760	0.64127	-0.34506	0.51874	-0.44778	30.7	13111	100
2025-3-27 18:50:44.420	WT901BLE68-01(48591DE3C19B)	0.443	-1.664	0.146	-17.456	24.292	-44.739	-76.03	24.94	-75.96	-90.552	-55.468	11.760	0.64127	-0.34506	0.51874	-0.44778	30.7	13111	100
2025-3-27 18:50:44.448	WT901BLE68-01(48591DE3C19B)	0.375	-1.664	0.146	-17.456	24.292	-44.739	-76.42	24.44	-76.40	-90.552	-55.468	11.760	0.64127	-0.34506	0.51874	-0.44778	30.7	13111	100
2025-3-27 18:50:44.448	WT901BLE68-01(48591DE3C19B)	0.375	-1.784	0.161	-8.911	74.402	-72.693	-76.97	23.78	-77.44	-90.552	-55.468	11.760	0.64127	-0.34506	0.51874	-0.44778	30.7	13111	100
2025-3-27 18:50:44.449	WT901BLE68-01(48591DE3C19B)	0.166	-1.784	0.161	-8.911	74.402	-72.693	-77.50	23.10	-78.46	-90.552	-55.468	11.760	0.64127	-0.34506	0.51874	-0.44778	30.7	13111	100
2025-3-27 18:50:44.449	WT901BLE68-01(48591DE3C19B)	0.166	-1.695	0.107	11.841	116.394	-105.286	-78.00	22.18	-79.99	-90.552	-55.468	11.760	0.64127	-0.34506	0.51874	-0.44778	30.7	13111	100
2025-3-27 18:50:44.481	WT901BLE68-01(48591DE3C19B)	0.028	-1.695	0.107	11.841	116.394	-105.286	-78.47	21.26	-81.49	-90.552	-55.468	11.760	0.64127	-0.34506	0.51874	-0.44778	30.7	13111	100
2025-3-27 18:50:44.481	WT901BLE68-01(48591DE3C19B)	0.028	-1.557	0.061	19.958	141.174	-140.747	-78.94	20.03	-83.29	-90.552	-55.468	11.760	0.64127	-0.34506	0.51874	-0.44778	30.7	13111	100
2025-3-27 18:50:44.481	WT901BLE68-01(48591DE3C19B)	-0.214	-1.557	0.061	19.958	141.174	-140.747	-79.37	18.79	-85.06	-90.552	-55.468	11.760	0.64127	-0.34506	0.51874	-0.44778	30.7	13111	100
2025-3-27 18:50:44.481	WT901BLE68-01(48591DE3C19B)	-0.214	-1.559	0.074	20.508	139.893	-167.725	-79.74	17.29	-86.83	-90.552	-55.468	11.760	0.64127	-0.34506	0.51874	-0.44778	30.7	13111	100
2025-3-27 18:50:44.539	WT901BLE68-01(48591DE3C19B)	-0.471	-1.559	0.074	20.508	139.893	-167.725	-80.07	15.79	-88.57	-90.552	-55.468	11.760	0.64127	-0.34506	0.51874	-0.44778	30.7	13111	100
2025-3-27 18:50:44.540	WT901BLE68-01(48591DE3C19B)	-0.471	-1.451	0.178	34.546	91.309	-182.861	-80.08	14.07	-89.81	-90.552	-55.468	11.760	0.58826	-0.38757	0.51559	-0.48764	30.7	13111	100
2025-3-27 18:50:44.540	WT901BLE68-01(48591DE3C19B)	-0.485	-1.451	0.178	34.546	91.309	-182.861	-80.05	12.37	-91.04	-90.552	-55.468	11.760	0.58826	-0.38757	0.51559	-0.48764	30.7	13111	100
2025-3-27 18:50:44.540	WT901BLE68-01(48591DE3C19B)	-0.485	-1.154	0.259	49.683	24.231	-179.810	-79.69	10.60	-91.59	-90.552	-55.468	11.760	0.58826	-0.38757	0.51559	-0.48764	30.7	13111	100
2025-3-27 18:50:44.568	WT901BLE68-01(48591DE3C19B)	-0.321	-1.154	0.259	49.683	24.231	-179.810	-79.33	8.85	-92.14	-90.552	-55.468	11.760	0.58826	-0.38757	0.51559	-0.48764	30.7	13111	100
2025-3-27 18:50:44.568	WT901BLE68-01(48591DE3C19B)	-0.321	-0.799	0.267	51.636	-33.936	-164.917	-78.83	7.16	-92.10	-90.552	-55.468	11.760	0.58826	-0.38757	0.51559	-0.48764	30.7	13111	100
2025-3-27 18:50:44.568	WT901BLE68-01(48591DE3C19B)	-0.178	-0.799	0.267	51.636	-33.936	-164.917	-78.34	5.49	-92.08	-90.552	-55.468	11.760	0.58826	-0.38757	0.51559	-0.48764	30.7	13111	100
2025-3-27 18:50:44.568	WT901BLE68-01(48591DE3C19B)	-0.178	-0.609	0.212	30.640	-68.787	-143.127	-78.03	3.97	-91.69	-90.552	-55.468	11.760	0.58826	-0.38757	0.51559	-0.48764	30.7	13111	100
2025-3-27 18:50:44.605	WT901BLE68-01(48591DE3C19B)	-0.103	-0.609	0.212	30.640	-68.787	-143.127	-77.73	2.46	-91.32	-90.552	-55.468	11.760	0.58826	-0.38757	0.51559	-0.48764	30.7	13111	100
2025-3-27 18:50:44.605	WT901BLE68-01(48591DE3C19B)	-0.103	-0.659	0.164	10.071	-80.566	-130.493	-77.63	1.06	-90.81	-90.552	-55.468	11.760	0.58826	-0.38757	0.51559	-0.48764	30.7	13111	100
2025-3-27 18:50:44.605	WT901BLE68-01(48591DE3C19B)	-0.054	-0.659	0.164	10.071	-80.566	-130.493	-77.55	-0.33	-90.31	-90.552	-55.468	11.760	0.58826	-0.38757	0.51559	-0.48764	30.7	13111	100
2025-3-27 18:50:44.605	WT901BLE68-01(48591DE3C19B)	-0.017	-0.745	0.154	2.319	-66.467	-121.094	-77.55	-1.60	-89.93	-90.552	-55.468	11.760	0.58826	-0.38757	0.51559	-0.48764	30.7	13111	100
2025-3-27 18:50:44.659	WT901BLE68-01(48591DE3C19B)	-0.017	-0.799	0.209	-2.258	-32.104	-117.188	-77.58	-2.80	-89.73	-90.552	-55.468	11.760	0.58826	-0.38757	0.51559	-0.48764	30.7	13111	100
2025-3-27 18:50:44.660	WT901BLE68-01(48591DE3C19B)	-0.026	-0.799	0.209	-2.258	-32.104	-117.188	-77.62	-3.95	-89.68	-90.552	-55.468	11.760	0.58826	-0.38757	0.51559	-0.48764	30.7	13111	100
2025-3-27 18:50:44.660	WT901BLE68-01(48591DE3C19B)	-0.026	-0.901	0.261	-3.296	16.907	-115.845	-77.65	-5.03	-89.87	-90.552	-55.468	11.760	0.58826	-0.38757	0.51559	-0.48764	30.7	13111	100
2025-3-27 18:50:44.660	WT901BLE68-01(48591DE3C19B)	-0.114	-0.901	0.261	-3.296	16.907	-115.845	-77.65	-6.05	-90.31	-90.552	-55.468	11.760	0.58826	-0.38757	0.51559	-0.48764	30.7	13111	100
2025-3-27 18:50:44.691	WT901BLE68-01(48591DE3C19B)	-0.114	-0.950	0.310	4.822	63.232	-113.220	-77.57	-7.00	-90.98	-90.552	-55.468	11.760	0.58826	-0.38757	0.51559	-0.48764	30.7	13111	100
2025-3-27 18:50:44.692	WT901BLE68-01(48591DE3C19B)	-0.222	-0.950	0.310	4.822	63.232	-113.220	-77.40	-7.89	-91.87	-90.552	-55.468	11.760	0.58826	-0.38757	0.51559	-0.48764	30.7	13111	100
2025-3-27 18:50:44.692	WT901BLE68-01(48591DE3C19B)	-0.222	-0.891	0.295	13.611	92.163	-108.215	-77.17	-8.71	-92.91	-90.552	-55.468	11.760	0.58826	-0.38757	0.51559	-0.48764	30.7	13111	100
2025-3-27 18:50:44.692	WT901BLE68-01(48591DE3C19B)	-0.253	-0.891	0.295	13.611	92.163	-108.215	-76.84	-9.45	-94.09	-90.552	-55.468	11.760	0.58826	-0.38757	0.51559	-0.48764	30.7	13111	100
2025-3-27 18:50:44.809	WT901BLE68-01(48591DE3C19B)	-0.253	-0.758	0.264	20.508	112.061	-102.295	-76.45	-10.14	-95.36	-90.552	-55.468	11.760	0.58826	-0.38757	0.51559	-0.48764	30.7	13111	100
2025-3-27 18:50:44.810	WT901BLE68-01(48591DE3C19B)	-0.294	-0.758	0.264	20.508	112.061	-102.295	-76.00	-10.75	-96.73	-90.552	-55.468	11.760	0.58826	-0.38757	0.51559	-0.48764	30.7	13111	100
2025-3-27 18:50:44.810	WT901BLE68-01(48591DE3C19B)	-0.294	-0.641	0.245	24.170	119.141	-90.027	-75.51	-11.28	-98.14	-63.504	-67.130	7.252	0.58826	-0.38757	0.51559	-0.48764	30.7	13111	100
2025-3-27 18:50:44.810	WT901BLE68-01(48591DE3C19B)	-0.363	-0.641	0.245	24.170	119.141	-90.027	-74.98	-11.71	-99.56	-63.504	-67.130	7.252	0.58826	-0.38757	0.51559	-0.48764	30.7	13111	100
2025-3-27 18:50:44.810	WT901BLE68-01(48591DE3C19B)	-0.363	-0.551	0.251	23.682	105.225	-76.904	-74.47	-12.08	-100.90	-63.504	-67.130	7.252	0.58826	-0.38757	0.51559	-0.48764	30.7	13111	100
2025-3-27 18:50:44.810	WT901BLE68-01(48591DE3C19B)	-0.386	-0.551	0.251	23.682	105.225	-76.904	-73.96	-12.38	-102.17	-63.504	-67.130	7.252	0.58826	-0.38757	0.51559	-0.48764	30.7	13111	100
2025-3-27 18:50:44.810	WT901BLE68-01(48591DE3C19B)	-0.386	-0.513	0.275	18.188	77.759	-65.247	-73.50	-12.65	-103.30	-63.504	-67.130	7.252	0.58826	-0.38757	0.51559	-0.48764	30.7	13111	100
2025-3-27 18:50:44.810	WT901BLE68-01(48591DE3C19B)	-0.394	-0.513	0.275	18.188	77.759	-65.247	-73.10	-12.88	-104.29	-63.504	-67.130	7.252	0.58826	-0.38757	0.51559	-0.48764	30.7	13111	100
2025-3-27 18:50:44.811	WT901BLE68-01(48591DE3C19B)	-0.394	-0.580	0.331	12.756	52.002	-51.880	-72.74	-13.07	-105.14	-63.504	-67.130	7.252	0.58826	-0.38757	0.51559	-0.48764	30.7	13111	100
2025-3-27 18:50:44.811	WT901BLE68-01(48591DE3C19B)	-0.426	-0.580	0.331	12.756	52.002	-51.880	-72.43	-13.22	-105.88	-63.504	-67.130	7.252	0.58826	-0.38757	0.51559	-0.48764	30.7	13111	100
2025-3-27 18:50:44.811	WT901BLE68-01(48591DE3C19B)	-0.426	-0.716	0.375	11.292	29.358	-37.048	-72.16	-13.33	-106.49	-63.504	-67.130	7.252	0.58826	-0.38757	0.51559	-0.48764	30.7	13111	100
2025-3-27 18:50:44.811	WT901BLE68-01(48591DE3C19B)	-0.470	-0.716	0.375	11.292	29.358	-37.048	-71.91	-13.39	-106.98	-63.504	-67.130	7.252	0.58826	-0.38757	0.51559	-0.48764	30.7	13111	100
2025-3-27 18:50:44.841	WT901BLE68-01(48591DE3C19B)	-0.470	-0.862	0.398	10.925	6.897	-23.132	-71.69	-13.41	-107.36	-63.504	-67.130	7.252	0.58826	-0.38757	0.51559	-0.48764	30.7	13111	100
2025-3-27 18:50:44.841	WT901BLE68-01(48591DE3C19B)	-0.450	-0.862	0.398	10.925	6.897	-23.132	-71.49	-13.41	-107.62	-63.504	-67.130	7.252	0.58826	-0.38757	0.51559	-0.48764	30.7	13111	100
2025-3-27 18:50:44.841	WT901BLE68-01(48591DE3C19B)	-0.450	-1.000	0.365	9.583	-8.240	-12.756	-71.32	-13.38	-107.79	-63.504	-67.130	7.252	0.58826	-0.38757	0.51559	-0.48764	30.7	13111	100
2025-3-27 18:50:44.842	WT901BLE68-01(48591DE3C19B)	-0.435	-1.000	0.365	9.583	-8.240	-12.756	-71.18	-13.32	-107.87	-63.504	-67.130	7.252	0.58826	-0.38757	0.51559	-0.48764	30.7	13111	100
2025-3-27 18:50:44.905	WT901BLE68-01(48591DE3C19B)	-0.435	-1.111	0.354	8.606	-15.381	-0.366	-71.06	-13.21	-107.89	-63.504	-67.130	7.252	0.58826	-0.38757	0.51559	-0.48764	30.7	13111	100
2025-3-27 18:50:44.906	WT901BLE68-01(48591DE3C19B)	-0.427	-1.111	0.354	8.606	-15.381	-0.366	-70.97	-13.06	-107.85	-63.504	-67.130	7.252	0.58826	-0.38757	0.51559	-0.48764	30.7	13111	100
2025-3-27 18:50:44.906	WT901BLE68-01(48591DE3C19B)	-0.427	-1.177	0.374	5.798	-18.982	12.024	-70.89	-12.86	-107.76	-63.504	-67.130	7.252	0.58826	-0.38757	0.51559	-0.48764	30.7	13111	100
2025-3-27 18:50:44.906	WT901BLE68-01(48591DE3C19B)	-0.411	-1.177	0.374	5.798	-18.982	12.024	-70.86	-12.61	-107.62	-63.504	-67.130	7.252	0.58826	-0.38757	0.51559	-0.48764	30.7	13111	100
2025-3-27 18:50:44.931	WT901BLE68-01(48591DE3C19B)	-0.411	-1.192	0.406	0.366	-16.296	29.114	-70.85	-12.27	-107.47	-63.504	-67.130	7.252	0.58826	-0.38757	0.51559	-0.48764	30.7	13111	100
2025-3-27 18:50:44.932	WT901BLE68-01(48591DE3C19B)	-0.386	-1.192	0.406	0.366	-16.296	29.114	-70.87	-11.86	-107.29	-63.504	-67.130	7.252	0.58826	-0.38757	0.51559	-0.48764	30.7	13111	100
2025-3-27 18:50:44.932	WT901BLE68-01(48591DE3C19B)	-0.386	-1.116	0.415	-5.493	-5.737	47.852	-70.92	-11.34	-107.13	-63.504	-67.130	7.252	0.58826	-0.38757	0.51559	-0.48764	30.7	13111	100
2025-3-27 18:50:44.932	WT901BLE68-01(48591DE3C19B)	-0.388	-1.116	0.415	-5.493	-5.737	47.852	-70.99	-10.72	-106.98	-63.504	-67.130	7.252	0.43854	-0.40509	0.41940	-0.68378	30.7	13111	100
2025-3-27 18:50:44.961	WT901BLE68-01(48591DE3C19B)	-0.388	-1.068	0.401	-17.639	3.113	65.979	-71.13	-10.01	-106.85	-63.504	-67.130	7.252	0.43854	-0.40509	0.41940	-0.68378	30.7	13111	100
2025-3-27 18:50:44.962	WT901BLE68-01(48591DE3C19B)	-0.425	-1.068	0.401	-17.639	3.113	65.979	-71.31	-9.21	-106.74	-63.504	-67.130	7.252	0.43854	-0.40509	0.41940	-0.68378	30.7	13111	100
2025-3-27 18:50:44.962	WT901BLE68-01(48591DE3C19B)	-0.425	-1.148	0.360	-28.625	5.310	79.590	-71.54	-8.33	-106.61	-63.504	-67.130	7.252	0.43854	-0.40509	0.41940	-0.68378	30.7	13111	100
2025-3-27 18:50:44.962	WT901BLE68-01(48591DE3C19B)	-0.480	-1.148	0.360	-28.625	5.310	79.590	-71.83	-7.40	-106.46	-63.504	-67.130	7.252	0.43854	-0.40509	0.41940	-0.68378	30.7	13111	100
2025-3-27 18:50:45.80	WT901BLE68-01(48591DE3C19B)	-0.480	-1.256	0.313	-35.828	-3.296	92.529	-72.17	-6.42	-106.26	-63.504	-67.130	7.252	0.43854	-0.40509	0.41940	-0.68378	30.7	13111	100
2025-3-27 18:50:45.80	WT901BLE68-01(48591DE3C19B)	-0.530	-1.256	0.313	-35.828	-3.296	92.529	-72.54	-5.40	-106.00	-63.504	-67.130	7.252	0.43854	-0.40509	0.41940	-0.68378	30.7	13111	100
2025-3-27 18:50:45.80	WT901BLE68-01(48591DE3C19B)	-0.530	-1.300	0.281	-34.546	-21.484	109.314	-72.92	-4.32	-105.62	-63.504	-67.130	7.252	0.43854	-0.40509	0.41940	-0.68378	30.7	13111	100
2025-3-27 18:50:45.80	WT901BLE68-01(48591DE3C19B)	-0.534	-1.300	0.281	-34.546	-21.484	109.314	-73.28	-3.20	-105.13	-63.504	-67.130	7.252	0.43854	-0.40509	0.41940	-0.68378	30.7	13111	100
2025-3-27 18:50:45.81	WT901BLE68-01(48591DE3C19B)	-0.534	-1.234	0.246	-31.006	-46.082	129.822	-73.64	-2.02	-104.50	-63.504	-67.130	7.252	0.43854	-0.40509	0.41940	-0.68378	30.7	13111	100
2025-3-27 18:50:45.81	WT901BLE68-01(48591DE3C19B)	-0.474	-1.234	0.246	-31.006	-46.082	129.822	-73.96	-0.77	-103.72	-63.504	-67.130	7.252	0.43854	-0.40509	0.41940	-0.68378	30.7	13111	100
2025-3-27 18:50:45.81	WT901BLE68-01(48591DE3C19B)	-0.474	-1.206	0.175	-29.358	-72.449	154.968	-74.26	0.56	-102.79	-63.504	-67.130	7.252	0.43854	-0.40509	0.41940	-0.68378	30.7	13111	100
2025-3-27 18:50:45.81	WT901BLE68-01(48591DE3C19B)	-0.357	-1.206	0.175	-29.358	-72.449	154.968	-74.53	1.97	-101.69	-63.504	-67.130	7.252	0.43854	-0.40509	0.41940	-0.68378	30.7	13111	100
2025-3-27 18:50:45.111	WT901BLE68-01(48591DE3C19B)	-0.357	-1.254	0.099	-24.780	-87.646	179.565	-74.75	3.48	-100.49	-63.504	-67.130	7.252	0.43854	-0.40509	0.41940	-0.68378	30.7	13111	100
2025-3-27 18:50:45.111	WT901BLE68-01(48591DE3C19B)	-0.234	-1.254	0.099	-24.780	-87.646	179.565	-74.90	5.08	-99.17	-63.504	-67.130	7.252	0.43854	-0.40509	0.41940	-0.68378	30.7	13111	100
2025-3-27 18:50:45.112	WT901BLE68-01(48591DE3C19B)	-0.234	-1.299	0.052	-13.306	-90.271	199.951	-74.91	6.85	-97.78	-63.504	-67.130	7.252	0.43854	-0.40509	0.41940	-0.68378	30.7	13111	100
2025-3-27 18:50:45.112	WT901BLE68-01(48591DE3C19B)	-0.155	-1.299	0.052	-13.306	-90.271	199.951	-74.88	8.61	-96.37	-63.504	-67.130	7.252	0.43854	-0.40509	0.41940	-0.68378	30.7	13111	100
2025-3-27 18:50:45.142	WT901BLE68-01(48591DE3C19B)	-0.155	-1.292	0.074	-0.916	-81.482	212.341	-74.69	10.49	-95.00	-63.504	-67.130	7.252	0.43854	-0.40509	0.41940	-0.68378	30.7	13111	100
2025-3-27 18:50:45.142	WT901BLE68-01(48591DE3C19B)	-0.132	-1.292	0.074	-0.916	-81.482	212.341	-74.47	12.34	-93.61	-63.504	-67.130	7.252	0.43854	-0.40509	0.41940	-0.68378	30.7	13111	100
2025-3-27 18:50:45.142	WT901BLE68-01(48591DE3C19B)	-0.132	-1.275	0.145	10.559	-66.284	215.088	-74.11	14.25	-92.36	-63.504	-67.130	7.252	0.43854	-0.40509	0.41940	-0.68378	30.7	13111	100
2025-3-27 18:50:45.142	WT901BLE68-01(48591DE3C19B)	-0.175	-1.275	0.145	10.559	-66.284	215.088	-73.71	16.12	-91.08	-63.504	-67.130	7.252	0.43854	-0.40509	0.41940	-0.68378	30.7	13111	100
2025-3-27 18:50:45.229	WT901BLE68-01(48591DE3C19B)	-0.175	-1.227	0.224	19.714	-51.392	211.731	-73.22	17.98	-89.95	-76.832	-58.310	7.840	0.43854	-0.40509	0.41940	-0.68378	30.7	13111	100
2025-3-27 18:50:45.230	WT901BLE68-01(48591DE3C19B)	-0.209	-1.227	0.224	19.714	-51.392	211.731	-72.70	19.82	-88.79	-76.832	-58.310	7.840	0.43854	-0.40509	0.41940	-0.68378	30.7	13111	100
2025-3-27 18:50:45.230	WT901BLE68-01(48591DE3C19B)	-0.209	-1.156	0.245	23.071	-35.461	205.383	-72.16	21.63	-87.78	-76.832	-58.310	7.840	0.43854	-0.40509	0.41940	-0.68378	30.7	13111	100
2025-3-27 18:50:45.230	WT901BLE68-01(48591DE3C19B)	-0.219	-1.156	0.245	23.071	-35.461	205.383	-71.58	23.41	-86.75	-76.832	-58.310	7.840	0.43854	-0.40509	0.41940	-0.68378	30.7	13111	100
2025-3-27 18:50:45.231	WT901BLE68-01(48591DE3C19B)	-0.219	-1.133	0.245	23.621	-18.311	200.806	-71.03	25.18	-85.89	-76.832	-58.310	7.840	0.43854	-0.40509	0.41940	-0.68378	30.7	13111	100
2025-3-27 18:50:45.231	WT901BLE68-01(48591DE3C19B)	-0.221	-1.133	0.245	23.621	-18.311	200.806	-70.45	26.93	-85.00	-76.832	-58.310	7.840	0.43854	-0.40509	0.41940	-0.68378	30.7	13111	100
2025-3-27 18:50:45.231	WT901BLE68-01(48591DE3C19B)	-0.221	-1.141	0.192	25.391	-6.165	196.167	-69.88	28.66	-84.23	-76.832	-58.310	7.840	0.43854	-0.40509	0.41940	-0.68378	30.7	13111	100
2025-3-27 18:50:45.231	WT901BLE68-01(48591DE3C19B)	-0.193	-1.141	0.192	25.391	-6.165	196.167	-69.29	30.38	-83.43	-76.832	-58.310	7.840	0.43854	-0.40509	0.41940	-0.68378	30.7	13111	100
2025-3-27 18:50:45.259	WT901BLE68-01(48591DE3C19B)	-0.193	-1.063	0.141	26.306	-2.747	191.833	-68.67	32.04	-82.66	-76.832	-58.310	7.840	0.43854	-0.40509	0.41940	-0.68378	30.7	13111	100
2025-3-27 18:50:45.259	WT901BLE68-01(48591DE3C19B)	-0.160	-1.063	0.141	26.306	-2.747	191.833	-68.02	33.69	-81.85	-76.832	-58.310	7.840	0.43854	-0.40509	0.41940	-0.68378	30.7	13111	100
2025-3-27 18:50:45.259	WT901BLE68-01(48591DE3C19B)	-0.160	-1.046	0.108	21.484	-3.601	184.998	-67.40	35.26	-81.02	-76.832	-58.310	7.840	0.43854	-0.40509	0.41940	-0.68378	30.7	13111	100
2025-3-27 18:50:45.259	WT901BLE68-01(48591DE3C19B)	-0.163	-1.046	0.108	21.484	-3.601	184.998	-66.75	36.80	-80.17	-76.832	-58.310	7.840	0.43854	-0.40509	0.41940	-0.68378	30.7	13111	100
2025-3-27 18:50:45.291	WT901BLE68-01(48591DE3C19B)	-0.163	-1.171	0.108	15.198	-6.592	174.744	-66.13	38.23	-79.30	-76.832	-58.310	7.840	0.43854	-0.40509	0.41940	-0.68378	30.7	13111	100
2025-3-27 18:50:45.291	WT901BLE68-01(48591DE3C19B)	-0.187	-1.171	0.108	15.198	-6.592	174.744	-65.48	39.63	-78.40	-76.832	-58.310	7.840	0.43854	-0.40509	0.41940	-0.68378	30.7	13111	100
2025-3-27 18:50:45.291	WT901BLE68-01(48591DE3C19B)	-0.187	-1.332	0.101	12.207	-11.230	160.217	-64.84	40.87	-77.49	-76.832	-58.310	7.840	0.43854	-0.40509	0.41940	-0.68378	30.7	13111	100
2025-3-27 18:50:45.291	WT901BLE68-01(48591DE3C19B)	-0.101	-1.332	0.101	12.207	-11.230	160.217	-64.17	42.09	-76.54	-76.832	-58.310	7.840	0.43854	-0.40509	0.41940	-0.68378	30.7	13111	100
2025-3-27 18:50:45.350	WT901BLE68-01(48591DE3C19B)	-0.101	-1.427	0.086	12.329	-12.024	140.869	-63.54	43.12	-75.68	-76.832	-58.310	7.840	0.43854	-0.40509	0.41940	-0.68378	30.7	13111	100
2025-3-27 18:50:45.350	WT901BLE68-01(48591DE3C19B)	0.045	-1.427	0.086	12.329	-12.024	140.869	-62.89	44.13	-74.79	-76.832	-58.310	7.840	0.43854	-0.40509	0.41940	-0.68378	30.7	13111	100
2025-3-27 18:50:45.350	WT901BLE68-01(48591DE3C19B)	0.045	-1.461	0.044	11.536	2.808	116.699	-62.46	44.98	-74.22	-76.832	-58.310	7.840	0.43854	-0.40509	0.41940	-0.68378	30.7	13111	100
2025-3-27 18:50:45.350	WT901BLE68-01(48591DE3C19B)	0.157	-1.461	0.044	11.536	2.808	116.699	-62.02	45.81	-73.64	-76.832	-58.310	7.840	0.43854	-0.40509	0.41940	-0.68378	30.7	13111	100
2025-3-27 18:50:45.381	WT901BLE68-01(48591DE3C19B)	0.157	-1.460	-0.016	2.380	21.362	82.153	-62.01	46.42	-73.52	-76.832	-58.310	7.840	0.75278	-0.17572	0.55515	-0.30688	30.7	13111	100
2025-3-27 18:50:45.381	WT901BLE68-01(48591DE3C19B)	0.232	-1.460	-0.016	2.380	21.362	82.153	-62.00	47.01	-73.40	-76.832	-58.310	7.840	0.75278	-0.17572	0.55515	-0.30688	30.7	13111	100
2025-3-27 18:50:45.381	WT901BLE68-01(48591DE3C19B)	0.116	-1.455	-0.007	-6.348	21.973	45.349	-62.27	47.27	-73.54	-76.832	-58.310	7.840	0.75278	-0.17572	0.55515	-0.30688	30.7	13111	100
2025-3-27 18:50:45.381	WT901BLE68-01(48591DE3C19B)	0.219	-0.727	-0.003	-6.348	21.973	45.349	-62.55	47.53	-73.70	-76.832	-58.310	7.840	0.75278	-0.17572	0.55515	-0.30688	30.7	13111	100
2025-3-27 18:50:45.411	WT901BLE68-01(48591DE3C19B)	0.219	-1.360	0.110	-9.216	17.944	9.521	-63.00	47.45	-74.05	-76.832	-58.310	7.840	0.75278	-0.17572	0.55515	-0.30688	30.7	13111	100
2025-3-27 18:50:45.411	WT901BLE68-01(48591DE3C19B)	0.088	-1.360	0.110	-9.216	17.944	9.521	-63.45	47.36	-74.39	-76.832	-58.310	7.840	0.75278	-0.17572	0.55515	-0.30688	30.7	13111	100
2025-3-27 18:50:45.411	WT901BLE68-01(48591DE3C19B)	0.088	-1.261	0.223	-8.606	20.386	-25.940	-64.07	46.95	-75.00	-76.832	-58.310	7.840	0.75278	-0.17572	0.55515	-0.30688	30.7	13111	100
2025-3-27 18:50:45.411	WT901BLE68-01(48591DE3C19B)	0.023	-1.261	0.223	-8.606	20.386	-25.940	-64.68	46.54	-75.59	-76.832	-58.310	7.840	0.75278	-0.17572	0.55515	-0.30688	30.7	13111	100
2025-3-27 18:50:45.469	WT901BLE68-01(48591DE3C19B)	0.023	-1.239	0.287	-5.310	25.452	-64.087	-65.44	45.81	-76.46	-76.832	-58.310	7.840	0.75278	-0.17572	0.55515	-0.30688	30.7	13111	100
2025-3-27 18:50:45.469	WT901BLE68-01(48591DE3C19B)	0.079	-1.239	0.287	-5.310	25.452	-64.087	-66.17	45.07	-77.31	-76.832	-58.310	7.840	0.75278	-0.17572	0.55515	-0.30688	30.7	13111	100
2025-3-27 18:50:45.469	WT901BLE68-01(48591DE3C19B)	0.079	-1.288	0.208	-2.136	31.067	-99.915	-67.03	44.02	-78.39	-76.832	-58.310	7.840	0.75278	-0.17572	0.55515	-0.30688	30.7	13111	100
2025-3-27 18:50:45.469	WT901BLE68-01(48591DE3C19B)	0.047	-1.288	0.208	-2.136	31.067	-99.915	-67.83	42.97	-79.43	-76.832	-58.310	7.840	0.75278	-0.17572	0.55515	-0.30688	30.7	13111	100
2025-3-27 18:50:45.504	WT901BLE68-01(48591DE3C19B)	0.047	-1.203	0.162	7.446	30.273	-125.610	-68.57	41.67	-80.54	-76.832	-58.310	7.840	0.75278	-0.17572	0.55515	-0.30688	30.7	13111	100
2025-3-27 18:50:45.504	WT901BLE68-01(48591DE3C19B)	0.033	-1.203	0.162	7.446	30.273	-125.610	-69.26	40.36	-81.60	-76.832	-58.310	7.840	0.75278	-0.17572	0.55515	-0.30688	30.7	13111	100
2025-3-27 18:50:45.504	WT901BLE68-01(48591DE3C19B)	0.033	-1.089	0.129	10.376	28.015	-143.555	-69.90	38.88	-82.67	-76.832	-58.310	7.840	0.75278	-0.17572	0.55515	-0.30688	30.7	13111	100
2025-3-27 18:50:45.504	WT901BLE68-01(48591DE3C19B)	0.011	-1.089	0.129	10.376	28.015	-143.555	-70.49	37.39	-83.69	-76.832	-58.310	7.840	0.75278	-0.17572	0.55515	-0.30688	30.7	13111	100
2025-3-27 18:50:45.531	WT901BLE68-01(48591DE3C19B)	0.011	-1.040	0.126	10.620	22.766	-155.701	-71.02	35.78	-84.66	-76.832	-58.310	7.840	0.75278	-0.17572	0.55515	-0.30688	30.7	13111	100
2025-3-27 18:50:45.531	WT901BLE68-01(48591DE3C19B)	-0.004	-1.040	0.126	10.620	22.766	-155.701	-71.50	34.17	-85.57	-76.832	-58.310	7.840	0.75278	-0.17572	0.55515	-0.30688	30.7	13111	100
2025-3-27 18:50:45.532	WT901BLE68-01(48591DE3C19B)	-0.063	-1.036	0.149	9.399	18.311	-167.175	-71.95	32.44	-86.45	-89.670	-38.122	7.056	0.75278	-0.17572	0.55515	-0.30688	30.7	13111	100
2025-3-27 18:50:45.532	WT901BLE68-01(48591DE3C19B)	-0.063	-1.068	0.175	7.263	10.986	-176.697	-72.36	30.65	-87.26	-89.670	-38.122	7.056	0.75278	-0.17572	0.55515	-0.30688	30.7	13111	100
2025-3-27 18:50:45.589	WT901BLE68-01(48591DE3C19B)	-0.149	-1.068	0.175	7.263	10.986	-176.697	-72.71	28.82	-88.02	-89.670	-38.122	7.056	0.75278	-0.17572	0.55515	-0.30688	30.7	13111	100
2025-3-27 18:50:45.589	WT901BLE68-01(48591DE3C19B)	-0.149	-1.092	0.191	4.578	-2.747	-186.707	-73.03	26.93	-88.69	-89.670	-38.122	7.056	0.75278	-0.17572	0.55515	-0.30688	30.7	13111	100
2025-3-27 18:50:45.590	WT901BLE68-01(48591DE3C19B)	-0.171	-1.092	0.191	4.578	-2.747	-186.707	-73.29	24.99	-89.27	-89.670	-38.122	7.056	0.75278	-0.17572	0.55515	-0.30688	30.7	13111	100
2025-3-27 18:50:45.590	WT901BLE68-01(48591DE3C19B)	-0.171	-1.082	0.216	-0.061	-11.597	-197.876	-73.54	22.99	-89.81	-89.670	-38.122	7.056	0.75278	-0.17572	0.55515	-0.30688	30.7	13111	100
2025-3-27 18:50:45.618	WT901BLE68-01(48591DE3C19B)	-0.168	-1.082	0.216	-0.061	-11.597	-197.876	-73.77	20.95	-90.30	-89.670	-38.122	7.056	0.75278	-0.17572	0.55515	-0.30688	30.7	13111	100
2025-3-27 18:50:45.618	WT901BLE68-01(48591DE3C19B)	-0.168	-1.097	0.244	-6.653	-2.441	-209.656	-74.03	18.87	-90.82	-89.670	-38.122	7.056	0.75278	-0.17572	0.55515	-0.30688	30.7	13111	100
2025-3-27 18:50:45.618	WT901BLE68-01(48591DE3C19B)	-0.182	-1.097	0.244	-6.653	-2.441	-209.656	-74.31	16.76	-91.40	-89.670	-38.122	7.056	0.75278	-0.17572	0.55515	-0.30688	30.7	13111	100
2025-3-27 18:50:45.618	WT901BLE68-01(48591DE3C19B)	-0.182	-1.120	0.250	-9.949	19.592	-221.497	-74.61	14.63	-92.08	-89.670	-38.122	7.056	0.75278	-0.17572	0.55515	-0.30688	30.7	13111	100
2025-3-27 18:50:45.679	WT901BLE68-01(48591DE3C19B)	-0.241	-1.120	0.250	-9.949	19.592	-221.497	-74.93	12.50	-92.87	-89.670	-38.122	7.056	0.75278	-0.17572	0.55515	-0.30688	30.7	13111	100
2025-3-27 18:50:45.679	WT901BLE68-01(48591DE3C19B)	-0.241	-1.102	0.235	-10.071	39.917	-231.140	-75.23	10.35	-93.74	-89.670	-38.122	7.056	0.75278	-0.17572	0.55515	-0.30688	30.7	13111	100
2025-3-27 18:50:45.679	WT901BLE68-01(48591DE3C19B)	-0.261	-1.102	0.235	-10.071	39.917	-231.140	-75.52	8.19	-94.71	-89.670	-38.122	7.056	0.75278	-0.17572	0.55515	-0.30688	30.7	13111	100
2025-3-27 18:50:45.679	WT901BLE68-01(48591DE3C19B)	-0.261	-1.063	0.225	-9.888	52.979	-238.647	-75.77	6.03	-95.73	-89.670	-38.122	7.056	0.75278	-0.17572	0.55515	-0.30688	30.7	13111	100
2025-3-27 18:50:45.711	WT901BLE68-01(48591DE3C19B)	-0.291	-1.063	0.225	-9.888	52.979	-238.647	-75.99	3.86	-96.81	-89.670	-38.122	7.056	0.75278	-0.17572	0.55515	-0.30688	30.7	13111	100
2025-3-27 18:50:45.711	WT901BLE68-01(48591DE3C19B)	-0.291	-1.046	0.243	-8.667	59.937	-242.737	-76.16	1.69	-97.90	-89.670	-38.122	7.056	0.75278	-0.17572	0.55515	-0.30688	30.7	13111	100
2025-3-27 18:50:45.711	WT901BLE68-01(48591DE3C19B)	-0.401	-1.046	0.243	-8.667	59.937	-242.737	-76.28	-0.47	-99.03	-89.670	-38.122	7.056	0.75278	-0.17572	0.55515	-0.30688	30.7	13111	100
2025-3-27 18:50:45.711	WT901BLE68-01(48591DE3C19B)	-0.401	-1.047	0.302	-5.188	51.208	-240.967	-76.33	-2.63	-100.11	-89.670	-38.122	7.056	0.75278	-0.17572	0.55515	-0.30688	30.7	13111	100
2025-3-27 18:50:45.741	WT901BLE68-01(48591DE3C19B)	-0.523	-1.047	0.302	-5.188	51.208	-240.967	-76.33	-4.76	-101.14	-89.670	-38.122	7.056	0.75278	-0.17572	0.55515	-0.30688	30.7	13111	100
2025-3-27 18:50:45.741	WT901BLE68-01(48591DE3C19B)	-0.523	-1.044	0.346	-1.465	30.151	-232.910	-76.28	-6.86	-102.06	-89.670	-38.122	7.056	0.75278	-0.17572	0.55515	-0.30688	30.7	13111	100
2025-3-27 18:50:45.741	WT901BLE68-01(48591DE3C19B)	-0.574	-1.044	0.346	-1.465	30.151	-232.910	-76.20	-8.93	-102.88	-89.670	-38.122	7.056	0.75278	-0.17572	0.55515	-0.30688	30.7	13111	100
2025-3-27 18:50:45.741	WT901BLE68-01(48591DE3C19B)	-0.574	-1.034	0.355	0.305	9.399	-219.116	-76.08	-10.93	-103.59	-89.670	-38.122	7.056	0.43271	-0.44183	0.43198	-0.65637	30.7	13111	100
2025-3-27 18:50:45.771	WT901BLE68-01(48591DE3C19B)	-0.553	-1.034	0.355	0.305	9.399	-219.116	-75.96	-12.86	-104.20	-89.670	-38.122	7.056	0.43271	-0.44183	0.43198	-0.65637	30.7	13111	100
2025-3-27 18:50:45.771	WT901BLE68-01(48591DE3C19B)	-0.553	-1.045	0.334	-2.136	-6.409	-201.538	-75.84	-14.72	-104.72	-89.670	-38.122	7.056	0.43271	-0.44183	0.43198	-0.65637	30.7	13111	100
2025-3-27 18:50:45.771	WT901BLE68-01(48591DE3C19B)	-0.520	-1.045	0.334	-2.136	-6.409	-201.538	-75.75	-16.48	-105.14	-89.670	-38.122	7.056	0.43271	-0.44183	0.43198	-0.65637	30.7	13111	100
2025-3-27 18:50:45.771	WT901BLE68-01(48591DE3C19B)	-0.520	-1.127	0.267	-7.996	-26.733	-179.443	-75.70	-18.15	-105.45	-89.670	-38.122	7.056	0.43271	-0.44183	0.43198	-0.65637	30.7	13111	100
2025-3-27 18:50:45.859	WT901BLE68-01(48591DE3C19B)	-0.572	-1.127	0.267	-7.996	-26.733	-179.443	-75.72	-19.73	-105.63	-89.670	-38.122	7.056	0.43271	-0.44183	0.43198	-0.65637	30.7	13111	100
2025-3-27 18:50:45.859	WT901BLE68-01(48591DE3C19B)	-0.572	-1.254	0.293	-7.141	-56.030	-147.766	-75.80	-21.18	-105.62	-89.670	-38.122	7.056	0.43271	-0.44183	0.43198	-0.65637	30.7	13111	100
2025-3-27 18:50:45.859	WT901BLE68-01(48591DE3C19B)	-0.682	-1.254	0.293	-7.141	-56.030	-147.766	-75.95	-22.50	-105.41	-89.670	-38.122	7.056	0.43271	-0.44183	0.43198	-0.65637	30.7	13111	100
2025-3-27 18:50:45.859	WT901BLE68-01(48591DE3C19B)	-0.682	-1.365	0.430	-0.916	-61.096	-111.267	-76.10	-23.64	-105.13	-89.670	-38.122	7.056	0.43271	-0.44183	0.43198	-0.65637	30.7	13111	100
2025-3-27 18:50:45.860	WT901BLE68-01(48591DE3C19B)	-0.694	-1.365	0.430	-0.916	-61.096	-111.267	-76.25	-24.60	-104.78	-89.670	-38.122	7.056	0.43271	-0.44183	0.43198	-0.65637	30.7	13111	100
2025-3-27 18:50:45.860	WT901BLE68-01(48591DE3C19B)	-0.694	-1.379	0.537	3.235	-21.973	-76.721	-76.30	-25.33	-104.61	-89.670	-38.122	7.056	0.43271	-0.44183	0.43198	-0.65637	30.7	13111	100
2025-3-27 18:50:45.860	WT901BLE68-01(48591DE3C19B)	-0.697	-1.379	0.537	3.235	-21.973	-76.721	-76.26	-25.85	-104.60	-89.670	-38.122	7.056	0.43271	-0.44183	0.43198	-0.65637	30.7	13111	100
2025-3-27 18:50:45.860	WT901BLE68-01(48591DE3C19B)	-0.697	-1.314	0.566	7.202	32.898	-35.400	-76.08	-26.10	-104.85	-89.670	-38.122	7.056	0.43271	-0.44183	0.43198	-0.65637	30.7	13111	100
2025-3-27 18:50:45.889	WT901BLE68-01(48591DE3C19B)	-0.627	-1.314	0.566	7.202	32.898	-35.400	-75.77	-26.08	-105.36	-89.670	-38.122	7.056	0.43271	-0.44183	0.43198	-0.65637	30.7	13111	100
2025-3-27 18:50:45.889	WT901BLE68-01(48591DE3C19B)	-0.627	-1.167	0.564	3.601	77.820	4.639	-75.39	-25.81	-106.06	-89.670	-38.122	7.056	0.43271	-0.44183	0.43198	-0.65637	30.7	13111	100
2025-3-27 18:50:45.889	WT901BLE68-01(48591DE3C19B)	-0.593	-1.167	0.564	3.601	77.820	4.639	-74.95	-25.28	-106.95	-89.670	-38.122	7.056	0.43271	-0.44183	0.43198	-0.65637	30.7	13111	100
2025-3-27 18:50:45.889	WT901BLE68-01(48591DE3C19B)	-0.593	-1.073	0.543	-3.601	110.168	47.485	-74.51	-24.50	-107.94	-89.670	-38.122	7.056	0.43271	-0.44183	0.43198	-0.65637	30.7	13111	100
2025-3-27 18:50:45.949	WT901BLE68-01(48591DE3C19B)	-0.672	-1.073	0.543	-3.601	110.168	47.485	-74.08	-23.47	-109.03	-89.670	-38.122	7.056	0.43271	-0.44183	0.43198	-0.65637	30.7	13111	100
2025-3-27 18:50:45.949	WT901BLE68-01(48591DE3C19B)	-0.672	-1.023	0.534	-8.423	114.929	82.947	-73.70	-22.26	-110.09	-89.670	-38.122	7.056	0.43271	-0.44183	0.43198	-0.65637	30.7	13111	100
2025-3-27 18:50:45.949	WT901BLE68-01(48591DE3C19B)	-0.790	-1.023	0.534	-8.423	114.929	82.947	-73.38	-20.87	-111.10	-89.670	-38.122	7.056	0.43271	-0.44183	0.43198	-0.65637	30.7	13111	100
2025-3-27 18:50:45.949	WT901BLE68-01(48591DE3C19B)	-0.790	-0.958	0.515	-12.512	79.224	113.159	-73.19	-19.39	-111.87	-89.670	-38.122	7.056	0.43271	-0.44183	0.43198	-0.65637	30.7	13111	100
2025-3-27 18:50:46.8	WT901BLE68-01(48591DE3C19B)	-0.815	-0.958	0.515	-12.512	79.224	113.159	-73.10	-17.82	-112.42	-56.252	-58.800	5.292	0.43271	-0.44183	0.43198	-0.65637	30.7	13111	100
2025-3-27 18:50:46.8	WT901BLE68-01(48591DE3C19B)	-0.815	-0.919	0.419	-15.503	23.804	138.367	-73.13	-16.22	-112.66	-56.252	-58.800	5.292	0.43271	-0.44183	0.43198	-0.65637	30.7	13111	100
2025-3-27 18:50:46.8	WT901BLE68-01(48591DE3C19B)	-0.733	-0.919	0.419	-15.503	23.804	138.367	-73.25	-14.57	-112.60	-56.252	-58.800	5.292	0.43271	-0.44183	0.43198	-0.65637	30.7	13111	100
2025-3-27 18:50:46.9	WT901BLE68-01(48591DE3C19B)	-0.733	-0.905	0.289	-15.015	-28.137	160.278	-73.44	-12.90	-112.25	-56.252	-58.800	5.292	0.43271	-0.44183	0.43198	-0.65637	30.7	13111	100
2025-3-27 18:50:46.9	WT901BLE68-01(48591DE3C19B)	-0.625	-0.905	0.289	-15.015	-28.137	160.278	-73.67	-11.21	-111.63	-56.252	-58.800	5.292	0.43271	-0.44183	0.43198	-0.65637	30.7	13111	100
2025-3-27 18:50:46.9	WT901BLE68-01(48591DE3C19B)	-0.625	-0.945	0.175	-14.954	-68.909	179.749	-73.96	-9.44	-110.57	-56.252	-58.800	5.292	0.43271	-0.44183	0.43198	-0.65637	30.7	13111	100
2025-3-27 18:50:46.9	WT901BLE68-01(48591DE3C19B)	-0.505	-0.945	0.175	-14.954	-68.909	179.749	-74.22	-7.68	-109.50	-56.252	-58.800	5.292	0.43271	-0.44183	0.43198	-0.65637	30.7	13111	100
2025-3-27 18:50:46.9	WT901BLE68-01(48591DE3C19B)	-0.505	-1.081	0.096	-12.085	-98.389	194.214	-74.47	-5.86	-108.11	-56.252	-58.800	5.292	0.43271	-0.44183	0.43198	-0.65637	30.7	13111	100
2025-3-27 18:50:46.69	WT901BLE68-01(48591DE3C19B)	-0.412	-1.081	0.096	-12.085	-98.389	194.214	-74.69	-4.05	-106.70	-56.252	-58.800	5.292	0.43271	-0.44183	0.43198	-0.65637	30.7	13111	100
2025-3-27 18:50:46.69	WT901BLE68-01(48591DE3C19B)	-0.412	-1.220	0.079	-2.502	-123.230	203.979	-74.79	-2.21	-105.02	-56.252	-58.800	5.292	0.43271	-0.44183	0.43198	-0.65637	30.7	13111	100
2025-3-27 18:50:46.69	WT901BLE68-01(48591DE3C19B)	-0.354	-1.220	0.079	-2.502	-123.230	203.979	-74.84	-0.40	-103.33	-56.252	-58.800	5.292	0.43271	-0.44183	0.43198	-0.65637	30.7	13111	100
2025-3-27 18:50:46.70	WT901BLE68-01(48591DE3C19B)	-0.354	-1.340	0.111	12.634	-138.489	208.557	-74.71	1.40	-101.45	-56.252	-58.800	5.292	0.43271	-0.44183	0.43198	-0.65637	30.7	13111	100
2025-3-27 18:50:46.105	WT901BLE68-01(48591DE3C19B)	-0.301	-1.340	0.111	12.634	-138.489	208.557	-74.52	3.18	-99.57	-56.252	-58.800	5.292	0.43271	-0.44183	0.43198	-0.65637	30.7	13111	100
2025-3-27 18:50:46.106	WT901BLE68-01(48591DE3C19B)	-0.301	-1.411	0.126	29.053	-139.648	208.496	-74.11	4.93	-97.65	-56.252	-58.800	5.292	0.43271	-0.44183	0.43198	-0.65637	30.7	13111	100
2025-3-27 18:50:46.106	WT901BLE68-01(48591DE3C19B)	-0.220	-1.411	0.126	29.053	-139.648	208.496	-73.66	6.65	-95.72	-56.252	-58.800	5.292	0.43271	-0.44183	0.43198	-0.65637	30.7	13111	100
2025-3-27 18:50:46.106	WT901BLE68-01(48591DE3C19B)	-0.220	-1.427	0.134	44.495	-122.437	207.214	-73.02	8.36	-93.93	-56.252	-58.800	5.292	0.43271	-0.44183	0.43198	-0.65637	30.7	13111	100
2025-3-27 18:50:46.129	WT901BLE68-01(48591DE3C19B)	-0.174	-1.427	0.134	44.495	-122.437	207.214	-72.33	10.04	-92.12	-56.252	-58.800	5.292	0.43271	-0.44183	0.43198	-0.65637	30.7	13111	100
2025-3-27 18:50:46.129	WT901BLE68-01(48591DE3C19B)	-0.174	-1.399	0.138	55.908	-92.529	206.299	-71.53	11.76	-90.58	-56.252	-58.800	5.292	0.43271	-0.44183	0.43198	-0.65637	30.7	13111	100
2025-3-27 18:50:46.129	WT901BLE68-01(48591DE3C19B)	-0.138	-1.399	0.138	55.908	-92.529	206.299	-70.69	13.44	-89.00	-56.252	-58.800	5.292	0.62521	-0.34280	0.47073	-0.51950	30.7	13111	100
2025-3-27 18:50:46.130	WT901BLE68-01(48591DE3C19B)	-0.138	-1.333	0.146	62.012	-56.824	207.092	-69.81	15.21	-87.73	-56.252	-58.800	5.292	0.62521	-0.34280	0.47073	-0.51950	30.7	13111	100
2025-3-27 18:50:46.219	WT901BLE68-01(48591DE3C19B)	-0.129	-1.333	0.146	62.012	-56.824	207.092	-68.91	16.94	-86.43	-56.252	-58.800	5.292	0.62521	-0.34280	0.47073	-0.51950	30.7	13111	100
2025-3-27 18:50:46.219	WT901BLE68-01(48591DE3C19B)	-0.129	-1.273	0.156	61.768	-24.719	209.106	-68.05	18.78	-85.41	-56.252	-58.800	5.292	0.62521	-0.34280	0.47073	-0.51950	30.7	13111	100
2025-3-27 18:50:46.219	WT901BLE68-01(48591DE3C19B)	-0.149	-1.273	0.156	61.768	-24.719	209.106	-67.15	20.58	-84.34	-56.252	-58.800	5.292	0.62521	-0.34280	0.47073	-0.51950	30.7	13111	100
2025-3-27 18:50:46.219	WT901BLE68-01(48591DE3C19B)	-0.149	-1.238	0.156	57.922	-3.845	209.412	-66.33	22.43	-83.45	-56.252	-58.800	5.292	0.62521	-0.34280	0.47073	-0.51950	30.7	13111	100
2025-3-27 18:50:46.221	WT901BLE68-01(48591DE3C19B)	-0.172	-1.238	0.156	57.922	-3.845	209.412	-65.47	24.27	-82.52	-56.252	-58.800	5.292	0.62521	-0.34280	0.47073	-0.51950	30.7	13111	100
2025-3-27 18:50:46.221	WT901BLE68-01(48591DE3C19B)	-0.172	-1.223	0.164	51.575	8.484	205.994	-64.69	26.10	-81.69	-56.252	-58.800	5.292	0.62521	-0.34280	0.47073	-0.51950	30.7	13111	100
2025-3-27 18:50:46.221	WT901BLE68-01(48591DE3C19B)	-0.227	-1.223	0.164	51.575	8.484	205.994	-63.88	27.90	-80.82	-56.252	-58.800	5.292	0.62521	-0.34280	0.47073	-0.51950	30.7	13111	100
2025-3-27 18:50:46.221	WT901BLE68-01(48591DE3C19B)	-0.227	-1.275	0.177	43.518	11.414	199.707	-63.14	29.64	-79.98	-56.252	-58.800	5.292	0.62521	-0.34280	0.47073	-0.51950	30.7	13111	100
2025-3-27 18:50:46.250	WT901BLE68-01(48591DE3C19B)	-0.269	-1.275	0.177	43.518	11.414	199.707	-62.36	31.35	-79.11	-56.252	-58.800	5.292	0.62521	-0.34280	0.47073	-0.51950	30.7	13111	100
2025-3-27 18:50:46.250	WT901BLE68-01(48591DE3C19B)	-0.269	-1.368	0.169	37.048	7.507	192.993	-61.60	32.98	-78.19	-56.252	-58.800	5.292	0.62521	-0.34280	0.47073	-0.51950	30.7	13111	100
2025-3-27 18:50:46.250	WT901BLE68-01(48591DE3C19B)	-0.266	-1.368	0.169	37.048	7.507	192.993	-60.80	34.58	-77.23	-56.252	-58.800	5.292	0.62521	-0.34280	0.47073	-0.51950	30.7	13111	100
2025-3-27 18:50:46.250	WT901BLE68-01(48591DE3C19B)	-0.266	-1.442	0.125	32.349	3.113	184.692	-60.01	36.07	-76.25	-56.252	-58.800	5.292	0.62521	-0.34280	0.47073	-0.51950	30.7	13111	100
2025-3-27 18:50:46.311	WT901BLE68-01(48591DE3C19B)	-0.255	-1.442	0.125	32.349	3.113	184.692	-59.19	37.53	-75.22	-56.252	-58.800	5.292	0.62521	-0.34280	0.47073	-0.51950	30.7	13111	100
2025-3-27 18:50:46.311	WT901BLE68-01(48591DE3C19B)	-0.255	-1.576	0.098	25.635	-2.014	176.514	-58.38	38.89	-74.15	-56.252	-58.800	5.292	0.62521	-0.34280	0.47073	-0.51950	30.7	13111	100
2025-3-27 18:50:46.311	WT901BLE68-01(48591DE3C19B)	-0.137	-1.576	0.098	25.635	-2.014	176.514	-57.54	40.22	-73.04	-56.252	-58.800	5.292	0.62521	-0.34280	0.47073	-0.51950	30.7	13111	100
2025-3-27 18:50:46.311	WT901BLE68-01(48591DE3C19B)	-0.137	-1.788	0.063	18.127	-8.057	159.607	-56.77	41.35	-71.94	-56.252	-58.800	5.292	0.62521	-0.34280	0.47073	-0.51950	30.7	13111	100
2025-3-27 18:50:46.369	WT901BLE68-01(48591DE3C19B)	0.135	-1.788	0.063	18.127	-8.057	159.607	-55.96	42.46	-70.82	-56.252	-58.800	5.292	0.62521	-0.34280	0.47073	-0.51950	30.7	13111	100
2025-3-27 18:50:46.370	WT901BLE68-01(48591DE3C19B)	0.135	-1.854	-0.039	18.311	7.202	137.573	-55.36	43.46	-70.01	-56.252	-58.800	5.292	0.62521	-0.34280	0.47073	-0.51950	30.7	13111	100
2025-3-27 18:50:46.370	WT901BLE68-01(48591DE3C19B)	0.348	-1.854	-0.039	18.311	7.202	137.573	-54.74	44.43	-69.18	-56.252	-58.800	5.292	0.62521	-0.34280	0.47073	-0.51950	30.7	13111	100
2025-3-27 18:50:46.370	WT901BLE68-01(48591DE3C19B)	0.348	-1.685	-0.040	18.494	32.532	109.253	-54.47	45.31	-68.86	-93.198	-31.948	12.152	0.62521	-0.34280	0.47073	-0.51950	30.7	13111	100
2025-3-27 18:50:46.371	WT901BLE68-01(48591DE3C19B)	0.280	-1.685	-0.040	18.494	32.532	109.253	-54.20	46.16	-68.54	-93.198	-31.948	12.152	0.62521	-0.34280	0.47073	-0.51950	30.7	13111	100
2025-3-27 18:50:46.371	WT901BLE68-01(48591DE3C19B)	0.280	-1.464	0.137	6.592	35.339	83.374	-54.23	46.82	-68.47	-93.198	-31.948	12.152	0.62521	-0.34280	0.47073	-0.51950	30.7	13111	100
2025-3-27 18:50:46.371	WT901BLE68-01(48591DE3C19B)	0.092	-1.464	0.137	6.592	35.339	83.374	-54.26	47.47	-68.41	-93.198	-31.948	12.152	0.62521	-0.34280	0.47073	-0.51950	30.7	13111	100
2025-3-27 18:50:46.371	WT901BLE68-01(48591DE3C19B)	0.046	-1.257	0.277	-10.864	26.855	42.480	-54.64	47.73	-68.60	-93.198	-31.948	12.152	0.62521	-0.34280	0.47073	-0.51950	30.7	13111	100
2025-3-27 18:50:46.430	WT901BLE68-01(48591DE3C19B)	0.193	-0.628	0.138	-10.864	26.855	42.480	-55.02	47.98	-68.79	-93.198	-31.948	12.152	0.62521	-0.34280	0.47073	-0.51950	30.7	13111	100
2025-3-27 18:50:46.430	WT901BLE68-01(48591DE3C19B)	0.193	-1.051	0.225	-11.414	45.288	-1.648	-55.85	47.98	-69.59	-93.198	-31.948	12.152	0.62521	-0.34280	0.47073	-0.51950	30.7	13111	100
2025-3-27 18:50:46.430	WT901BLE68-01(48591DE3C19B)	0.196	-1.051	0.225	-11.414	45.288	-1.648	-56.68	47.96	-70.39	-93.198	-31.948	12.152	0.62521	-0.34280	0.47073	-0.51950	30.7	13111	100
2025-3-27 18:50:46.430	WT901BLE68-01(48591DE3C19B)	0.196	-0.888	0.099	-16.357	54.871	-37.476	-57.84	47.68	-71.59	-93.198	-31.948	12.152	0.62521	-0.34280	0.47073	-0.51950	30.7	13111	100
2025-3-27 18:50:46.458	WT901BLE68-01(48591DE3C19B)	0.160	-0.888	0.099	-16.357	54.871	-37.476	-58.99	47.37	-72.77	-93.198	-31.948	12.152	0.62521	-0.34280	0.47073	-0.51950	30.7	13111	100
2025-3-27 18:50:46.458	WT901BLE68-01(48591DE3C19B)	0.203	-0.895	0.039	-24.292	26.184	-74.097	-60.12	46.60	-73.84	-93.198	-31.948	12.152	0.62521	-0.34280	0.47073	-0.51950	30.7	13111	100
2025-3-27 18:50:46.458	WT901BLE68-01(48591DE3C19B)	0.203	-0.938	0.063	-26.489	-2.930	-104.126	-61.17	45.60	-74.79	-93.198	-31.948	12.152	0.62521	-0.34280	0.47073	-0.51950	30.7	13111	100
2025-3-27 18:50:46.458	WT901BLE68-01(48591DE3C19B)	0.169	-0.938	0.063	-26.489	-2.930	-104.126	-62.12	44.41	-75.61	-93.198	-31.948	12.152	0.62521	-0.34280	0.47073	-0.51950	30.7	13111	100
2025-3-27 18:50:46.520	WT901BLE68-01(48591DE3C19B)	0.169	-0.959	0.112	-26.367	-15.320	-125.000	-63.01	43.08	-76.37	-93.198	-31.948	12.152	0.62521	-0.34280	0.47073	-0.51950	30.7	13111	100
2025-3-27 18:50:46.521	WT901BLE68-01(48591DE3C19B)	0.087	-0.959	0.112	-26.367	-15.320	-125.000	-63.85	41.63	-77.08	-93.198	-31.948	12.152	0.62521	-0.34280	0.47073	-0.51950	30.7	13111	100
2025-3-27 18:50:46.521	WT901BLE68-01(48591DE3C19B)	0.087	-0.981	0.152	-27.771	-16.907	-142.883	-64.68	40.09	-77.78	-93.198	-31.948	12.152	0.62521	-0.34280	0.47073	-0.51950	30.7	13111	100
2025-3-27 18:50:46.521	WT901BLE68-01(48591DE3C19B)	0.049	-0.981	0.152	-27.771	-16.907	-142.883	-65.48	38.47	-78.47	-93.198	-31.948	12.152	0.62521	-0.34280	0.47073	-0.51950	30.7	13111	100
2025-3-27 18:50:46.579	WT901BLE68-01(48591DE3C19B)	0.049	-0.999	0.172	-29.114	-11.658	-160.461	-66.30	36.79	-79.19	-93.198	-31.948	12.152	0.62521	-0.34280	0.47073	-0.51950	30.7	13111	100
2025-3-27 18:50:46.579	WT901BLE68-01(48591DE3C19B)	0.008	-0.999	0.172	-29.114	-11.658	-160.461	-67.10	35.04	-79.93	-93.198	-31.948	12.152	0.62521	-0.34280	0.47073	-0.51950	30.7	13111	100
2025-3-27 18:50:46.579	WT901BLE68-01(48591DE3C19B)	0.008	-1.007	0.196	-31.738	-4.089	-175.842	-67.92	33.23	-80.69	-93.198	-31.948	12.152	0.62521	-0.34280	0.47073	-0.51950	30.7	13111	100
2025-3-27 18:50:46.579	WT901BLE68-01(48591DE3C19B)	-0.033	-1.007	0.196	-31.738	-4.089	-175.842	-68.74	31.37	-81.49	-93.198	-31.948	12.152	0.62521	-0.34280	0.47073	-0.51950	30.7	13111	100
2025-3-27 18:50:46.581	WT901BLE68-01(48591DE3C19B)	-0.033	-1.023	0.227	-34.668	5.188	-191.284	-69.55	29.46	-82.30	-93.198	-31.948	12.152	0.69354	-0.27786	0.52026	-0.41354	30.7	13111	100
2025-3-27 18:50:46.581	WT901BLE68-01(48591DE3C19B)	-0.089	-1.023	0.227	-34.668	5.188	-191.284	-70.37	27.50	-83.16	-93.198	-31.948	12.152	0.69354	-0.27786	0.52026	-0.41354	30.7	13111	100
2025-3-27 18:50:46.581	WT901BLE68-01(48591DE3C19B)	-0.089	-1.051	0.254	-37.598	15.259	-207.031	-71.18	25.48	-84.03	-93.198	-31.948	12.152	0.69354	-0.27786	0.52026	-0.41354	30.7	13111	100
2025-3-27 18:50:46.581	WT901BLE68-01(48591DE3C19B)	-0.125	-1.051	0.254	-37.598	15.259	-207.031	-71.98	23.41	-84.95	-93.198	-31.948	12.152	0.69354	-0.27786	0.52026	-0.41354	30.7	13111	100
2025-3-27 18:50:46.611	WT901BLE68-01(48591DE3C19B)	-0.125	-1.087	0.262	-40.833	28.320	-223.022	-72.78	21.29	-85.90	-93.198	-31.948	12.152	0.69354	-0.27786	0.52026	-0.41354	30.7	13111	100
2025-3-27 18:50:46.611	WT901BLE68-01(48591DE3C19B)	-0.175	-1.087	0.262	-40.833	28.320	-223.022	-73.57	19.11	-86.89	-93.198	-31.948	12.152	0.69354	-0.27786	0.52026	-0.41354	30.7	13111	100
2025-3-27 18:50:46.611	WT901BLE68-01(48591DE3C19B)	-0.175	-1.085	0.274	-42.175	42.603	-237.732	-74.34	16.89	-87.93	-93.198	-31.948	12.152	0.69354	-0.27786	0.52026	-0.41354	30.7	13111	100
2025-3-27 18:50:46.611	WT901BLE68-01(48591DE3C19B)	-0.245	-1.085	0.274	-42.175	42.603	-237.732	-75.09	14.62	-89.02	-93.198	-31.948	12.152	0.69354	-0.27786	0.52026	-0.41354	30.7	13111	100
2025-3-27 18:50:46.704	WT901BLE68-01(48591DE3C19B)	-0.245	-1.101	0.290	-44.495	51.697	-252.136	-75.79	12.30	-90.12	-93.198	-31.948	12.152	0.69354	-0.27786	0.52026	-0.41354	30.7	13111	100
2025-3-27 18:50:46.704	WT901BLE68-01(48591DE3C19B)	-0.334	-1.101	0.290	-44.495	51.697	-252.136	-76.47	9.94	-91.24	-93.198	-31.948	12.152	0.69354	-0.27786	0.52026	-0.41354	30.7	13111	100
2025-3-27 18:50:46.704	WT901BLE68-01(48591DE3C19B)	-0.334	-1.163	0.330	-44.556	50.659	-263.855	-77.09	7.51	-92.33	-93.198	-31.948	12.152	0.69354	-0.27786	0.52026	-0.41354	30.7	13111	100
2025-3-27 18:50:46.704	WT901BLE68-01(48591DE3C19B)	-0.458	-1.163	0.330	-44.556	50.659	-263.855	-77.66	5.05	-93.40	-93.198	-31.948	12.152	0.69354	-0.27786	0.52026	-0.41354	30.7	13111	100
2025-3-27 18:50:46.704	WT901BLE68-01(48591DE3C19B)	-0.458	-1.260	0.396	-42.664	34.241	-269.043	-78.16	2.55	-94.36	-93.198	-31.948	12.152	0.69354	-0.27786	0.52026	-0.41354	30.7	13111	100
2025-3-27 18:50:46.705	WT901BLE68-01(48591DE3C19B)	-0.575	-1.260	0.396	-42.664	34.241	-269.043	-78.59	0.03	-95.22	-93.198	-31.948	12.152	0.69354	-0.27786	0.52026	-0.41354	30.7	13111	100
2025-3-27 18:50:46.705	WT901BLE68-01(48591DE3C19B)	-0.575	-1.390	0.431	-38.879	4.700	-267.273	-78.98	-2.49	-95.92	-93.198	-31.948	12.152	0.69354	-0.27786	0.52026	-0.41354	30.7	13111	100
2025-3-27 18:50:46.705	WT901BLE68-01(48591DE3C19B)	-0.615	-1.390	0.431	-38.879	4.700	-267.273	-79.30	-5.01	-96.47	-93.198	-31.948	12.152	0.69354	-0.27786	0.52026	-0.41354	30.7	13111	100
2025-3-27 18:50:46.759	WT901BLE68-01(48591DE3C19B)	-0.615	-1.493	0.383	-38.147	-21.912	-258.545	-79.63	-7.50	-96.86	-93.198	-31.948	12.152	0.69354	-0.27786	0.52026	-0.41354	30.7	13111	100
2025-3-27 18:50:46.759	WT901BLE68-01(48591DE3C19B)	-0.500	-1.493	0.383	-38.147	-21.912	-258.545	-79.95	-9.94	-97.10	-93.198	-31.948	12.152	0.69354	-0.27786	0.52026	-0.41354	30.7	13111	100
2025-3-27 18:50:46.760	WT901BLE68-01(48591DE3C19B)	-0.500	-1.627	0.282	-41.199	-34.851	-240.356	-80.29	-12.29	-97.25	-93.198	-31.948	12.152	0.69354	-0.27786	0.52026	-0.41354	30.7	13111	100
2025-3-27 18:50:46.760	WT901BLE68-01(48591DE3C19B)	-0.508	-1.627	0.282	-41.199	-34.851	-240.356	-80.67	-14.55	-97.29	-93.198	-31.948	12.152	0.69354	-0.27786	0.52026	-0.41354	30.7	13111	100
2025-3-27 18:50:46.791	WT901BLE68-01(48591DE3C19B)	-0.508	-1.721	0.271	-31.799	-44.128	-212.463	-81.02	-16.67	-97.26	-75.460	-51.254	5.488	0.69354	-0.27786	0.52026	-0.41354	30.7	13111	100
2025-3-27 18:50:46.791	WT901BLE68-01(48591DE3C19B)	-0.552	-1.721	0.271	-31.799	-44.128	-212.463	-81.35	-18.64	-97.15	-75.460	-51.254	5.488	0.69354	-0.27786	0.52026	-0.41354	30.7	13111	100
2025-3-27 18:50:46.791	WT901BLE68-01(48591DE3C19B)	-0.552	-1.657	0.425	-26.611	-45.776	-183.289	-81.67	-20.45	-96.98	-75.460	-51.254	5.488	0.69354	-0.27786	0.52026	-0.41354	30.7	13111	100
2025-3-27 18:50:46.791	WT901BLE68-01(48591DE3C19B)	-0.596	-1.657	0.425	-26.611	-45.776	-183.289	-81.99	-22.11	-96.78	-75.460	-51.254	5.488	0.69354	-0.27786	0.52026	-0.41354	30.7	13111	100
2025-3-27 18:50:46.821	WT901BLE68-01(48591DE3C19B)	-0.596	-1.608	0.625	-26.978	-29.541	-146.912	-82.28	-23.57	-96.64	-75.460	-51.254	5.488	0.69354	-0.27786	0.52026	-0.41354	30.7	13111	100
2025-3-27 18:50:46.821	WT901BLE68-01(48591DE3C19B)	-0.640	-1.608	0.625	-26.978	-29.541	-146.912	-82.55	-24.82	-96.55	-75.460	-51.254	5.488	0.69354	-0.27786	0.52026	-0.41354	30.7	13111	100
2025-3-27 18:50:46.821	WT901BLE68-01(48591DE3C19B)	-0.640	-1.468	0.690	-19.714	-3.906	-108.521	-82.73	-25.86	-96.59	-75.460	-51.254	5.488	0.69354	-0.27786	0.52026	-0.41354	30.7	13111	100
2025-3-27 18:50:46.821	WT901BLE68-01(48591DE3C19B)	-0.604	-1.468	0.690	-19.714	-3.906	-108.521	-82.80	-26.69	-96.75	-75.460	-51.254	5.488	0.69354	-0.27786	0.52026	-0.41354	30.7	13111	100
2025-3-27 18:50:46.879	WT901BLE68-01(48591DE3C19B)	-0.604	-1.141	0.642	-14.099	20.020	-67.993	-82.80	-27.30	-97.02	-75.460	-51.254	5.488	0.69354	-0.27786	0.52026	-0.41354	30.7	13111	100
2025-3-27 18:50:46.879	WT901BLE68-01(48591DE3C19B)	-0.558	-1.141	0.642	-14.099	20.020	-67.993	-82.70	-27.68	-97.41	-75.460	-51.254	5.488	0.69354	-0.27786	0.52026	-0.41354	30.7	13111	100
2025-3-27 18:50:46.879	WT901BLE68-01(48591DE3C19B)	-0.558	-0.869	0.567	-15.625	35.278	-27.649	-82.57	-27.86	-97.87	-75.460	-51.254	5.488	0.69354	-0.27786	0.52026	-0.41354	30.7	13111	100
2025-3-27 18:50:46.879	WT901BLE68-01(48591DE3C19B)	-0.547	-0.869	0.567	-15.625	35.278	-27.649	-82.42	-27.81	-98.40	-75.460	-51.254	5.488	0.69354	-0.27786	0.52026	-0.41354	30.7	13111	100
2025-3-27 18:50:46.908	WT901BLE68-01(48591DE3C19B)	-0.547	-0.820	0.547	-17.822	36.255	8.179	-82.28	-27.59	-98.92	-75.460	-51.254	5.488	0.69354	-0.27786	0.52026	-0.41354	30.7	13111	100
2025-3-27 18:50:46.908	WT901BLE68-01(48591DE3C19B)	-0.581	-0.820	0.547	-17.822	36.255	8.179	-82.15	-27.19	-99.42	-75.460	-51.254	5.488	0.69354	-0.27786	0.52026	-0.41354	30.7	13111	100
2025-3-27 18:50:46.908	WT901BLE68-01(48591DE3C19B)	-0.581	-0.836	0.549	-7.996	23.804	38.818	-82.02	-26.64	-99.83	-75.460	-51.254	5.488	0.69354	-0.27786	0.52026	-0.41354	30.7	13111	100
2025-3-27 18:50:46.908	WT901BLE68-01(48591DE3C19B)	-0.567	-0.836	0.549	-7.996	23.804	38.818	-81.87	-25.96	-100.15	-75.460	-51.254	5.488	0.69354	-0.27786	0.52026	-0.41354	30.7	13111	100
2025-3-27 18:50:46.940	WT901BLE68-01(48591DE3C19B)	-0.567	-0.733	0.503	6.531	7.080	61.707	-81.69	-25.16	-100.38	-75.460	-51.254	5.488	0.69354	-0.27786	0.52026	-0.41354	30.7	13111	100
2025-3-27 18:50:46.941	WT901BLE68-01(48591DE3C19B)	-0.562	-0.733	0.503	6.531	7.080	61.707	-81.50	-24.28	-100.49	-75.460	-51.254	5.488	0.69354	-0.27786	0.52026	-0.41354	30.7	13111	100
2025-3-27 18:50:46.941	WT901BLE68-01(48591DE3C19B)	-0.562	-0.651	0.414	15.198	-4.822	81.360	-81.27	-23.22	-100.45	-75.460	-51.254	5.488	0.69354	-0.27786	0.52026	-0.41354	30.7	13111	100
2025-3-27 18:50:46.941	WT901BLE68-01(48591DE3C19B)	-0.587	-0.651	0.414	15.198	-4.822	81.360	-81.04	-22.16	-100.41	-75.460	-51.254	5.488	0.69354	-0.27786	0.52026	-0.41354	30.7	13111	100
2025-3-27 18:50:47.5	WT901BLE68-01(48591DE3C19B)	-0.587	-0.731	0.309	21.301	-11.536	96.863	-80.78	-20.97	-100.27	-75.460	-51.254	5.488	0.69354	-0.27786	0.52026	-0.41354	30.7	13111	100
2025-3-27 18:50:47.5	WT901BLE68-01(48591DE3C19B)	-0.575	-0.731	0.309	21.301	-11.536	96.863	-80.52	-19.77	-100.13	-75.460	-51.254	5.488	0.40225	-0.50610	0.40585	-0.64590	30.7	13111	100
2025-3-27 18:50:47.5	WT901BLE68-01(48591DE3C19B)	-0.575	-0.858	0.235	31.982	-20.508	112.793	-80.20	-18.44	-99.85	-75.460	-51.254	5.488	0.40225	-0.50610	0.40585	-0.64590	30.7	13111	100
2025-3-27 18:50:47.5	WT901BLE68-01(48591DE3C19B)	-0.505	-0.858	0.235	31.982	-20.508	112.793	-79.88	-17.11	-99.57	-75.460	-51.254	5.488	0.40225	-0.50610	0.40585	-0.64590	30.7	13111	100
2025-3-27 18:50:47.28	WT901BLE68-01(48591DE3C19B)	-0.505	-0.949	0.201	41.748	-31.616	128.723	-79.51	-15.66	-99.12	-75.460	-51.254	5.488	0.40225	-0.50610	0.40585	-0.64590	30.7	13111	100
2025-3-27 18:50:47.29	WT901BLE68-01(48591DE3C19B)	-0.440	-0.949	0.201	41.748	-31.616	128.723	-79.15	-14.21	-98.66	-75.460	-51.254	5.488	0.40225	-0.50610	0.40585	-0.64590	30.7	13111	100
2025-3-27 18:50:47.29	WT901BLE68-01(48591DE3C19B)	-0.440	-1.046	0.189	49.622	-38.879	142.944	-78.72	-12.65	-98.08	-75.460	-51.254	5.488	0.40225	-0.50610	0.40585	-0.64590	30.7	13111	100
2025-3-27 18:50:47.29	WT901BLE68-01(48591DE3C19B)	-0.396	-1.046	0.189	49.622	-38.879	142.944	-78.29	-11.10	-97.48	-75.460	-51.254	5.488	0.40225	-0.50610	0.40585	-0.64590	30.7	13111	100
2025-3-27 18:50:47.58	WT901BLE68-01(48591DE3C19B)	-0.396	-1.162	0.182	55.603	-43.579	155.396	-77.82	-9.45	-96.78	-75.460	-51.254	5.488	0.40225	-0.50610	0.40585	-0.64590	30.7	13111	100
2025-3-27 18:50:47.58	WT901BLE68-01(48591DE3C19B)	-0.361	-1.162	0.182	55.603	-43.579	155.396	-77.33	-7.83	-96.06	-75.460	-51.254	5.488	0.40225	-0.50610	0.40585	-0.64590	30.7	13111	100
2025-3-27 18:50:47.58	WT901BLE68-01(48591DE3C19B)	-0.361	-1.280	0.172	61.584	-44.678	166.626	-76.79	-6.12	-95.28	-75.460	-51.254	5.488	0.40225	-0.50610	0.40585	-0.64590	30.7	13111	100
2025-3-27 18:50:47.58	WT901BLE68-01(48591DE3C19B)	-0.313	-1.280	0.172	61.584	-44.678	166.626	-76.23	-4.43	-94.48	-75.460	-51.254	5.488	0.40225	-0.50610	0.40585	-0.64590	30.7	13111	100
2025-3-27 18:50:47.120	WT901BLE68-01(48591DE3C19B)	-0.313	-1.353	0.165	67.383	-36.621	177.856	-75.60	-2.64	-93.71	-75.460	-51.254	5.488	0.40225	-0.50610	0.40585	-0.64590	30.7	13111	100
2025-3-27 18:50:47.120	WT901BLE68-01(48591DE3C19B)	-0.265	-1.353	0.165	67.383	-36.621	177.856	-74.96	-0.88	-92.92	-75.460	-51.254	5.488	0.40225	-0.50610	0.40585	-0.64590	30.7	13111	100
2025-3-27 18:50:47.120	WT901BLE68-01(48591DE3C19B)	-0.265	-1.340	0.159	71.289	-19.348	189.880	-74.26	1.02	-92.23	-75.460	-51.254	5.488	0.40225	-0.50610	0.40585	-0.64590	30.7	13111	100
2025-3-27 18:50:47.120	WT901BLE68-01(48591DE3C19B)	-0.252	-1.340	0.159	71.289	-19.348	189.880	-73.55	2.89	-91.52	-75.460	-51.254	5.488	0.40225	-0.50610	0.40585	-0.64590	30.7	13111	100
2025-3-27 18:50:47.148	WT901BLE68-01(48591DE3C19B)	-0.252	-1.288	0.154	70.068	-0.793	201.111	-72.84	4.89	-90.92	-75.460	-51.254	5.488	0.40225	-0.50610	0.40585	-0.64590	30.7	13111	100
2025-3-27 18:50:47.149	WT901BLE68-01(48591DE3C19B)	-0.264	-1.288	0.154	70.068	-0.793	201.111	-72.11	6.88	-90.30	-75.460	-51.254	5.488	0.40225	-0.50610	0.40585	-0.64590	30.7	13111	100
2025-3-27 18:50:47.149	WT901BLE68-01(48591DE3C19B)	-0.264	-1.259	0.171	65.063	10.742	211.609	-71.43	8.98	-89.74	-75.460	-51.254	5.488	0.40225	-0.50610	0.40585	-0.64590	30.7	13111	100
2025-3-27 18:50:47.149	WT901BLE68-01(48591DE3C19B)	-0.266	-1.259	0.171	65.063	10.742	211.609	-70.73	11.05	-89.14	-84.084	-47.236	9.800	0.40225	-0.50610	0.40585	-0.64590	30.7	13111	100
2025-3-27 18:50:47.178	WT901BLE68-01(48591DE3C19B)	-0.266	-1.292	0.152	59.143	14.465	219.788	-70.07	13.19	-88.52	-84.084	-47.236	9.800	0.40225	-0.50610	0.40585	-0.64590	30.7	13111	100
2025-3-27 18:50:47.178	WT901BLE68-01(48591DE3C19B)	-0.271	-1.292	0.152	59.143	14.465	219.788	-69.38	15.31	-87.87	-84.084	-47.236	9.800	0.40225	-0.50610	0.40585	-0.64590	30.7	13111	100
2025-3-27 18:50:47.178	WT901BLE68-01(48591DE3C19B)	-0.271	-1.325	0.129	53.162	11.536	225.464	-68.71	17.45	-87.15	-84.084	-47.236	9.800	0.40225	-0.50610	0.40585	-0.64590	30.7	13111	100
2025-3-27 18:50:47.178	WT901BLE68-01(48591DE3C19B)	-0.285	-1.325	0.129	53.162	11.536	225.464	-68.02	19.56	-86.39	-84.084	-47.236	9.800	0.40225	-0.50610	0.40585	-0.64590	30.7	13111	100
2025-3-27 18:50:47.239	WT901BLE68-01(48591DE3C19B)	-0.285	-1.414	0.118	46.997	2.991	228.271	-67.32	21.64	-85.50	-84.084	-47.236	9.800	0.40225	-0.50610	0.40585	-0.64590	30.7	13111	100
2025-3-27 18:50:47.239	WT901BLE68-01(48591DE3C19B)	-0.289	-1.414	0.118	46.997	2.991	228.271	-66.58	23.70	-84.58	-84.084	-47.236	9.800	0.40225	-0.50610	0.40585	-0.64590	30.7	13111	100
2025-3-27 18:50:47.239	WT901BLE68-01(48591DE3C19B)	-0.289	-1.543	0.106	42.114	-8.850	227.661	-65.80	25.68	-83.50	-84.084	-47.236	9.800	0.40225	-0.50610	0.40585	-0.64590	30.7	13111	100
2025-3-27 18:50:47.239	WT901BLE68-01(48591DE3C19B)	-0.267	-1.543	0.106	42.114	-8.850	227.661	-64.97	27.64	-82.38	-84.084	-47.236	9.800	0.40225	-0.50610	0.40585	-0.64590	30.7	13111	100
2025-3-27 18:50:47.304	WT901BLE68-01(48591DE3C19B)	-0.267	-1.680	0.088	39.734	-19.714	224.182	-64.08	29.48	-81.12	-84.084	-47.236	9.800	0.40225	-0.50610	0.40585	-0.64590	30.7	13111	100
2025-3-27 18:50:47.304	WT901BLE68-01(48591DE3C19B)	-0.251	-1.680	0.088	39.734	-19.714	224.182	-63.13	31.30	-79.80	-84.084	-47.236	9.800	0.40225	-0.50610	0.40585	-0.64590	30.7	13111	100
2025-3-27 18:50:47.304	WT901BLE68-01(48591DE3C19B)	-0.251	-1.853	0.071	34.668	-27.222	217.102	-62.15	32.99	-78.40	-84.084	-47.236	9.800	0.40225	-0.50610	0.40585	-0.64590	30.7	13111	100
2025-3-27 18:50:47.304	WT901BLE68-01(48591DE3C19B)	-0.204	-1.853	0.071	34.668	-27.222	217.102	-61.12	34.64	-76.95	-84.084	-47.236	9.800	0.40225	-0.50610	0.40585	-0.64590	30.7	13111	100
2025-3-27 18:50:47.304	WT901BLE68-01(48591DE3C19B)	-0.204	-1.999	0.078	36.621	-32.166	206.787	-60.00	36.15	-75.44	-84.084	-47.236	9.800	0.40225	-0.50610	0.40585	-0.64590	30.7	13111	100
2025-3-27 18:50:47.305	WT901BLE68-01(48591DE3C19B)	-0.077	-1.999	0.078	36.621	-32.166	206.787	-58.83	37.62	-73.89	-84.084	-47.236	9.800	0.40225	-0.50610	0.40585	-0.64590	30.7	13111	100
2025-3-27 18:50:47.305	WT901BLE68-01(48591DE3C19B)	-0.077	-1.903	0.094	42.847	-30.334	191.895	-57.61	38.93	-72.39	-84.084	-47.236	9.800	0.40225	-0.50610	0.40585	-0.64590	30.7	13111	100
2025-3-27 18:50:47.305	WT901BLE68-01(48591DE3C19B)	0.055	-1.903	0.094	42.847	-30.334	191.895	-56.34	40.21	-70.85	-84.084	-47.236	9.800	0.40225	-0.50610	0.40585	-0.64590	30.7	13111	100
2025-3-27 18:50:47.359	WT901BLE68-01(48591DE3C19B)	0.055	-1.668	0.102	39.429	-18.188	173.401	-55.21	41.37	-69.51	-84.084	-47.236	9.800	0.40225	-0.50610	0.40585	-0.64590	30.7	13111	100
2025-3-27 18:50:47.359	WT901BLE68-01(48591DE3C19B)	0.175	-1.668	0.102	39.429	-18.188	173.401	-54.04	42.50	-68.14	-84.084	-47.236	9.800	0.40225	-0.50610	0.40585	-0.64590	30.7	13111	100
2025-3-27 18:50:47.359	WT901BLE68-01(48591DE3C19B)	0.175	-1.511	0.115	30.273	-4.517	149.963	-53.15	43.49	-67.07	-84.084	-47.236	9.800	0.40225	-0.50610	0.40585	-0.64590	30.7	13111	100
2025-3-27 18:50:47.359	WT901BLE68-01(48591DE3C19B)	0.244	-1.511	0.115	30.273	-4.517	149.963	-52.23	44.46	-65.96	-84.084	-47.236	9.800	0.40225	-0.50610	0.40585	-0.64590	30.7	13111	100
2025-3-27 18:50:47.391	WT901BLE68-01(48591DE3C19B)	0.244	-1.363	0.131	29.358	12.939	122.620	-51.59	45.30	-65.26	-84.084	-47.236	9.800	0.79114	-0.14841	0.50940	-0.30405	30.7	13111	100
2025-3-27 18:50:47.391	WT901BLE68-01(48591DE3C19B)	0.311	-1.363	0.131	29.358	12.939	122.620	-50.93	46.12	-64.56	-84.084	-47.236	9.800	0.79114	-0.14841	0.50940	-0.30405	30.7	13111	100
2025-3-27 18:50:47.391	WT901BLE68-01(48591DE3C19B)	0.416	-1.148	0.113	24.536	23.804	84.839	-50.65	46.71	-64.30	-84.084	-47.236	9.800	0.79114	-0.14841	0.50940	-0.30405	30.7	13111	100
2025-3-27 18:50:47.391	WT901BLE68-01(48591DE3C19B)	0.416	-0.943	0.028	17.334	38.330	35.645	-50.63	47.14	-64.35	-84.084	-47.236	9.800	0.79114	-0.14841	0.50940	-0.30405	30.7	13111	100
2025-3-27 18:50:47.420	WT901BLE68-01(48591DE3C19B)	0.334	-0.943	0.028	17.334	38.330	35.645	-50.87	47.42	-64.73	-84.084	-47.236	9.800	0.79114	-0.14841	0.50940	-0.30405	30.7	13111	100
2025-3-27 18:50:47.421	WT901BLE68-01(48591DE3C19B)	0.334	-0.822	-0.002	2.441	54.688	-13.794	-51.44	47.54	-65.43	-84.084	-47.236	9.800	0.79114	-0.14841	0.50940	-0.30405	30.7	13111	100
2025-3-27 18:50:47.421	WT901BLE68-01(48591DE3C19B)	0.154	-0.822	-0.002	2.441	54.688	-13.794	-52.32	47.52	-66.46	-84.084	-47.236	9.800	0.79114	-0.14841	0.50940	-0.30405	30.7	13111	100
2025-3-27 18:50:47.421	WT901BLE68-01(48591DE3C19B)	0.154	-0.891	0.019	-12.939	40.100	-59.998	-53.36	47.24	-67.60	-84.084	-47.236	9.800	0.79114	-0.14841	0.50940	-0.30405	30.7	13111	100
2025-3-27 18:50:47.478	WT901BLE68-01(48591DE3C19B)	0.128	-0.891	0.019	-12.939	40.100	-59.998	-54.53	46.72	-68.84	-84.084	-47.236	9.800	0.79114	-0.14841	0.50940	-0.30405	30.7	13111	100
2025-3-27 18:50:47.478	WT901BLE68-01(48591DE3C19B)	0.128	-0.976	0.090	-18.799	8.667	-96.741	-55.67	45.96	-70.00	-84.084	-47.236	9.800	0.79114	-0.14841	0.50940	-0.30405	30.7	13111	100
2025-3-27 18:50:47.478	WT901BLE68-01(48591DE3C19B)	0.109	-0.976	0.090	-18.799	8.667	-96.741	-56.77	44.93	-71.08	-84.084	-47.236	9.800	0.79114	-0.14841	0.50940	-0.30405	30.7	13111	100
2025-3-27 18:50:47.478	WT901BLE68-01(48591DE3C19B)	0.109	-0.985	0.162	-21.851	-10.681	-123.413	-57.81	43.74	-72.10	-84.084	-47.236	9.800	0.79114	-0.14841	0.50940	-0.30405	30.7	13111	100
2025-3-27 18:50:47.540	WT901BLE68-01(48591DE3C19B)	0.083	-0.985	0.162	-21.851	-10.681	-123.413	-58.80	42.37	-73.04	-84.084	-47.236	9.800	0.79114	-0.14841	0.50940	-0.30405	30.7	13111	100
2025-3-27 18:50:47.540	WT901BLE68-01(48591DE3C19B)	0.083	-0.984	0.191	-26.855	-22.522	-144.226	-59.75	40.87	-73.92	-84.084	-47.236	9.800	0.79114	-0.14841	0.50940	-0.30405	30.7	13111	100
2025-3-27 18:50:47.540	WT901BLE68-01(48591DE3C19B)	0.083	-0.984	0.191	-26.855	-22.522	-144.226	-60.67	39.27	-74.75	-84.084	-47.236	9.800	0.79114	-0.14841	0.50940	-0.30405	30.7	13111	100
2025-3-27 18:50:47.540	WT901BLE68-01(48591DE3C19B)	0.083	-0.968	0.184	-32.898	-23.560	-163.208	-61.59	37.56	-75.57	-84.084	-47.236	9.800	0.79114	-0.14841	0.50940	-0.30405	30.7	13111	100
2025-3-27 18:50:47.541	WT901BLE68-01(48591DE3C19B)	0.074	-0.968	0.184	-32.898	-23.560	-163.208	-62.51	35.78	-76.38	-84.084	-47.236	9.800	0.79114	-0.14841	0.50940	-0.30405	30.7	13111	100
2025-3-27 18:50:47.541	WT901BLE68-01(48591DE3C19B)	0.074	-0.952	0.180	-40.833	-11.841	-182.556	-63.48	33.93	-77.25	-84.084	-47.236	9.800	0.79114	-0.14841	0.50940	-0.30405	30.7	13111	100
2025-3-27 18:50:47.541	WT901BLE68-01(48591DE3C19B)	0.042	-0.952	0.180	-40.833	-11.841	-182.556	-64.48	32.03	-78.17	-84.084	-47.236	9.800	0.79114	-0.14841	0.50940	-0.30405	30.7	13111	100
2025-3-27 18:50:47.541	WT901BLE68-01(48591DE3C19B)	0.042	-0.969	0.179	-48.096	10.132	-203.369	-65.54	30.06	-79.19	-84.084	-47.236	9.800	0.79114	-0.14841	0.50940	-0.30405	30.7	13111	100
2025-3-27 18:50:47.604	WT901BLE68-01(48591DE3C19B)	-0.021	-0.969	0.179	-48.096	10.132	-203.369	-66.65	28.05	-80.30	-84.084	-47.236	9.800	0.79114	-0.14841	0.50940	-0.30405	30.7	13111	100
2025-3-27 18:50:47.604	WT901BLE68-01(48591DE3C19B)	-0.021	-0.989	0.195	-52.917	37.170	-224.243	-67.80	25.99	-81.53	-91.140	-27.734	11.858	0.79114	-0.14841	0.50940	-0.30405	30.7	13111	100
2025-3-27 18:50:47.604	WT901BLE68-01(48591DE3C19B)	-0.129	-0.989	0.195	-52.917	37.170	-224.243	-68.96	23.88	-82.86	-91.140	-27.734	11.858	0.79114	-0.14841	0.50940	-0.30405	30.7	13111	100
2025-3-27 18:50:47.604	WT901BLE68-01(48591DE3C19B)	-0.129	-1.038	0.226	-54.626	61.218	-244.568	-70.11	21.70	-84.28	-91.140	-27.734	11.858	0.79114	-0.14841	0.50940	-0.30405	30.7	13111	100
2025-3-27 18:50:47.629	WT901BLE68-01(48591DE3C19B)	-0.302	-1.038	0.226	-54.626	61.218	-244.568	-71.25	19.46	-85.78	-91.140	-27.734	11.858	0.79114	-0.14841	0.50940	-0.30405	30.7	13111	100
2025-3-27 18:50:47.629	WT901BLE68-01(48591DE3C19B)	-0.302	-1.114	0.292	-54.504	72.571	-262.390	-72.32	17.14	-87.29	-91.140	-27.734	11.858	0.79114	-0.14841	0.50940	-0.30405	30.7	13111	100
2025-3-27 18:50:47.629	WT901BLE68-01(48591DE3C19B)	-0.523	-1.114	0.292	-54.504	72.571	-262.390	-73.33	14.77	-88.81	-91.140	-27.734	11.858	0.79114	-0.14841	0.50940	-0.30405	30.7	13111	100
2025-3-27 18:50:47.629	WT901BLE68-01(48591DE3C19B)	-0.523	-1.214	0.422	-50.171	65.002	-273.560	-74.23	12.32	-90.25	-91.140	-27.734	11.858	0.79114	-0.14841	0.50940	-0.30405	30.7	13111	100
2025-3-27 18:50:47.658	WT901BLE68-01(48591DE3C19B)	-0.679	-1.214	0.422	-50.171	65.002	-273.560	-75.01	9.82	-91.61	-91.140	-27.734	11.858	0.79114	-0.14841	0.50940	-0.30405	30.7	13111	100
2025-3-27 18:50:47.658	WT901BLE68-01(48591DE3C19B)	-0.679	-1.282	0.486	-46.204	51.453	-273.499	-75.70	7.31	-92.86	-91.140	-27.734	11.858	0.79114	-0.14841	0.50940	-0.30405	30.7	13111	100
2025-3-27 18:50:47.658	WT901BLE68-01(48591DE3C19B)	-0.644	-1.282	0.486	-46.204	51.453	-273.499	-76.29	4.81	-94.00	-91.140	-27.734	11.858	0.79114	-0.14841	0.50940	-0.30405	30.7	13111	100
2025-3-27 18:50:47.658	WT901BLE68-01(48591DE3C19B)	-0.644	-1.293	0.444	-40.222	37.109	-266.479	-76.78	2.33	-95.04	-91.140	-27.734	11.858	0.79114	-0.14841	0.50940	-0.30405	30.7	13111	100
2025-3-27 18:50:47.719	WT901BLE68-01(48591DE3C19B)	-0.619	-1.293	0.444	-40.222	37.109	-266.479	-77.20	-0.10	-95.98	-91.140	-27.734	11.858	0.79114	-0.14841	0.50940	-0.30405	30.7	13111	100
2025-3-27 18:50:47.719	WT901BLE68-01(48591DE3C19B)	-0.619	-1.344	0.373	-33.936	8.362	-249.695	-77.54	-2.47	-96.73	-91.140	-27.734	11.858	0.79114	-0.14841	0.50940	-0.30405	30.7	13111	100
2025-3-27 18:50:47.719	WT901BLE68-01(48591DE3C19B)	-0.643	-1.344	0.373	-33.936	8.362	-249.695	-77.83	-4.77	-97.33	-91.140	-27.734	11.858	0.79114	-0.14841	0.50940	-0.30405	30.7	13111	100
2025-3-27 18:50:47.719	WT901BLE68-01(48591DE3C19B)	-0.643	-1.433	0.386	-25.208	-20.752	-225.159	-78.06	-6.97	-97.75	-91.140	-27.734	11.858	0.79114	-0.14841	0.50940	-0.30405	30.7	13111	100
2025-3-27 18:50:47.749	WT901BLE68-01(48591DE3C19B)	-0.667	-1.433	0.386	-25.208	-20.752	-225.159	-78.26	-9.06	-97.99	-91.140	-27.734	11.858	0.79114	-0.14841	0.50940	-0.30405	30.7	13111	100
2025-3-27 18:50:47.749	WT901BLE68-01(48591DE3C19B)	-0.667	-1.420	0.439	-12.634	-27.466	-198.730	-78.40	-11.01	-98.16	-91.140	-27.734	11.858	0.79114	-0.14841	0.50940	-0.30405	30.7	13111	100
2025-3-27 18:50:47.749	WT901BLE68-01(48591DE3C19B)	-0.639	-1.420	0.439	-12.634	-27.466	-198.730	-78.49	-12.83	-98.28	-91.140	-27.734	11.858	0.79114	-0.14841	0.50940	-0.30405	30.7	13111	100
2025-3-27 18:50:47.749	WT901BLE68-01(48591DE3C19B)	-0.639	-1.346	0.508	-5.920	-2.869	-172.729	-78.50	-14.48	-98.50	-91.140	-27.734	11.858	0.79114	-0.14841	0.50940	-0.30405	30.7	13111	100
2025-3-27 18:50:47.778	WT901BLE68-01(48591DE3C19B)	-0.662	-1.346	0.508	-5.920	-2.869	-172.729	-78.45	-15.97	-98.82	-91.140	-27.734	11.858	0.79114	-0.14841	0.50940	-0.30405	30.7	13111	100
2025-3-27 18:50:47.778	WT901BLE68-01(48591DE3C19B)	-0.662	-1.309	0.543	-0.488	32.349	-147.949	-78.31	-17.29	-99.31	-91.140	-27.734	11.858	0.79114	-0.14841	0.50940	-0.30405	30.7	13111	100
2025-3-27 18:50:47.778	WT901BLE68-01(48591DE3C19B)	-0.652	-1.309	0.543	-0.488	32.349	-147.949	-78.09	-18.44	-99.96	-91.140	-27.734	11.858	0.41565	-0.49509	0.39612	-0.65198	30.7	13111	100
2025-3-27 18:50:47.778	WT901BLE68-01(48591DE3C19B)	-0.652	-1.247	0.519	2.930	61.157	-123.474	-77.78	-19.43	-100.75	-91.140	-27.734	11.858	0.41565	-0.49509	0.39612	-0.65198	30.7	13111	100
2025-3-27 18:50:47.839	WT901BLE68-01(48591DE3C19B)	-0.626	-1.247	0.519	2.930	61.157	-123.474	-77.40	-20.26	-101.67	-91.140	-27.734	11.858	0.41565	-0.49509	0.39612	-0.65198	30.7	13111	100
2025-3-27 18:50:47.839	WT901BLE68-01(48591DE3C19B)	-0.626	-1.144	0.460	6.042	89.966	-97.412	-76.95	-20.91	-102.73	-91.140	-27.734	11.858	0.41565	-0.49509	0.39612	-0.65198	30.7	13111	100
2025-3-27 18:50:47.840	WT901BLE68-01(48591DE3C19B)	-0.638	-1.144	0.460	6.042	89.966	-97.412	-76.43	-21.40	-103.92	-91.140	-27.734	11.858	0.41565	-0.49509	0.39612	-0.65198	30.7	13111	100
2025-3-27 18:50:47.840	WT901BLE68-01(48591DE3C19B)	-0.638	-0.994	0.383	7.202	113.647	-71.289	-75.86	-21.71	-105.20	-91.140	-27.734	11.858	0.41565	-0.49509	0.39612	-0.65198	30.7	13111	100
2025-3-27 18:50:47.868	WT901BLE68-01(48591DE3C19B)	-0.665	-0.994	0.383	7.202	113.647	-71.289	-75.25	-21.85	-106.58	-91.140	-27.734	11.858	0.41565	-0.49509	0.39612	-0.65198	30.7	13111	100
2025-3-27 18:50:47.868	WT901BLE68-01(48591DE3C19B)	-0.665	-0.848	0.336	3.723	121.277	-46.753	-74.67	-21.71	-107.97	-91.140	-27.734	11.858	0.41565	-0.49509	0.39612	-0.65198	30.7	13111	100
2025-3-27 18:50:47.868	WT901BLE68-01(48591DE3C19B)	-0.739	-0.848	0.336	3.723	121.277	-46.753	-74.10	-21.56	-109.36	-91.140	-27.734	11.858	0.41565	-0.49509	0.39612	-0.65198	30.7	13111	100
2025-3-27 18:50:47.868	WT901BLE68-01(48591DE3C19B)	-0.739	-0.766	0.324	-2.563	101.257	-25.330	-73.70	-21.24	-110.48	-91.140	-27.734	11.858	0.41565	-0.49509	0.39612	-0.65198	30.7	13111	100
2025-3-27 18:50:47.904	WT901BLE68-01(48591DE3C19B)	-0.832	-0.766	0.324	-2.563	101.257	-25.330	-73.30	-20.91	-111.60	-91.140	-27.734	11.858	0.41565	-0.49509	0.39612	-0.65198	30.7	13111	100
2025-3-27 18:50:47.904	WT901BLE68-01(48591DE3C19B)	-0.832	-0.698	0.319	-6.409	55.054	-5.310	-73.13	-20.51	-112.19	-91.140	-27.734	11.858	0.41565	-0.49509	0.39612	-0.65198	30.7	13111	100
2025-3-27 18:50:47.904	WT901BLE68-01(48591DE3C19B)	-0.886	-0.698	0.319	-6.409	55.054	-5.310	-72.97	-20.10	-112.80	-91.140	-27.734	11.858	0.41565	-0.49509	0.39612	-0.65198	30.7	13111	100
2025-3-27 18:50:47.904	WT901BLE68-01(48591DE3C19B)	-0.886	-0.673	0.301	-13.000	-7.629	13.611	-73.10	-19.69	-112.71	-91.140	-27.734	11.858	0.41565	-0.49509	0.39612	-0.65198	30.7	13111	100
2025-3-27 18:50:47.962	WT901BLE68-01(48591DE3C19B)	-0.941	-0.673	0.301	-13.000	-7.629	13.611	-73.22	-19.28	-112.65	-91.140	-27.734	11.858	0.41565	-0.49509	0.39612	-0.65198	30.7	13111	100
2025-3-27 18:50:47.962	WT901BLE68-01(48591DE3C19B)	-0.941	-0.799	0.265	-18.127	-77.576	35.950	-73.64	-18.84	-111.83	-91.140	-27.734	11.858	0.41565	-0.49509	0.39612	-0.65198	30.7	13111	100
2025-3-27 18:50:47.963	WT901BLE68-01(48591DE3C19B)	-0.908	-0.799	0.265	-18.127	-77.576	35.950	-74.04	-18.40	-111.03	-91.140	-27.734	11.858	0.41565	-0.49509	0.39612	-0.65198	30.7	13111	100
2025-3-27 18:50:47.963	WT901BLE68-01(48591DE3C19B)	-0.908	-0.903	0.206	-12.634	-138.977	62.744	-74.60	-17.85	-109.53	-91.140	-27.734	11.858	0.41565	-0.49509	0.39612	-0.65198	30.7	13111	100
2025-3-27 18:50:47.991	WT901BLE68-01(48591DE3C19B)	-0.777	-0.903	0.206	-12.634	-138.977	62.744	-75.13	-17.29	-108.06	-67.816	-53.018	4.998	0.41565	-0.49509	0.39612	-0.65198	30.7	13111	100
2025-3-27 18:50:47.991	WT901BLE68-01(48591DE3C19B)	-0.777	-0.933	0.102	-7.690	-185.547	91.736	-75.77	-16.55	-106.03	-67.816	-53.018	4.998	0.41565	-0.49509	0.39612	-0.65198	30.7	13111	100
2025-3-27 18:50:47.992	WT901BLE68-01(48591DE3C19B)	-0.609	-0.933	0.102	-7.690	-185.547	91.736	-76.38	-15.79	-104.00	-67.816	-53.018	4.998	0.41565	-0.49509	0.39612	-0.65198	30.7	13111	100
2025-3-27 18:50:47.992	WT901BLE68-01(48591DE3C19B)	-0.609	-1.080	0.010	-3.967	-215.820	119.751	-77.03	-14.82	-101.60	-67.816	-53.018	4.998	0.41565	-0.49509	0.39612	-0.65198	30.7	13111	100
2025-3-27 18:50:48.21	WT901BLE68-01(48591DE3C19B)	-0.507	-1.080	0.010	-3.967	-215.820	119.751	-77.66	-13.82	-99.19	-67.816	-53.018	4.998	0.41565	-0.49509	0.39612	-0.65198	30.7	13111	100
2025-3-27 18:50:48.21	WT901BLE68-01(48591DE3C19B)	-0.507	-1.296	-0.022	8.606	-232.788	142.944	-78.17	-12.62	-96.55	-67.816	-53.018	4.998	0.41565	-0.49509	0.39612	-0.65198	30.7	13111	100
2025-3-27 18:50:48.22	WT901BLE68-01(48591DE3C19B)	-0.400	-1.296	-0.022	8.606	-232.788	142.944	-78.64	-11.42	-93.93	-67.816	-53.018	4.998	0.41565	-0.49509	0.39612	-0.65198	30.7	13111	100
2025-3-27 18:50:48.22	WT901BLE68-01(48591DE3C19B)	-0.400	-1.445	0.009	27.039	-239.685	161.621	-78.89	-10.05	-91.20	-67.816	-53.018	4.998	0.41565	-0.49509	0.39612	-0.65198	30.7	13111	100
2025-3-27 18:50:48.79	WT901BLE68-01(48591DE3C19B)	-0.263	-1.445	0.009	27.039	-239.685	161.621	-79.09	-8.68	-88.49	-67.816	-53.018	4.998	0.41565	-0.49509	0.39612	-0.65198	30.7	13111	100
2025-3-27 18:50:48.79	WT901BLE68-01(48591DE3C19B)	-0.263	-1.516	0.088	45.349	-225.220	177.734	-79.01	-7.15	-85.91	-67.816	-53.018	4.998	0.41565	-0.49509	0.39612	-0.65198	30.7	13111	100
2025-3-27 18:50:48.79	WT901BLE68-01(48591DE3C19B)	-0.168	-1.516	0.088	45.349	-225.220	177.734	-78.87	-5.65	-83.34	-67.816	-53.018	4.998	0.41565	-0.49509	0.39612	-0.65198	30.7	13111	100
2025-3-27 18:50:48.79	WT901BLE68-01(48591DE3C19B)	-0.168	-1.519	0.173	63.293	-185.120	189.636	-78.44	-3.98	-81.16	-67.816	-53.018	4.998	0.41565	-0.49509	0.39612	-0.65198	30.7	13111	100
2025-3-27 18:50:48.108	WT901BLE68-01(48591DE3C19B)	-0.133	-1.519	0.173	63.293	-185.120	189.636	-77.96	-2.36	-78.97	-67.816	-53.018	4.998	0.41565	-0.49509	0.39612	-0.65198	30.7	13111	100
2025-3-27 18:50:48.108	WT901BLE68-01(48591DE3C19B)	-0.133	-1.453	0.242	79.651	-132.202	200.012	-77.23	-0.55	-77.28	-67.816	-53.018	4.998	0.41565	-0.49509	0.39612	-0.65198	30.7	13111	100
2025-3-27 18:50:48.108	WT901BLE68-01(48591DE3C19B)	-0.085	-1.453	0.242	79.651	-132.202	200.012	-76.46	1.20	-75.57	-67.816	-53.018	4.998	0.41565	-0.49509	0.39612	-0.65198	30.7	13111	100
2025-3-27 18:50:48.108	WT901BLE68-01(48591DE3C19B)	-0.085	-1.353	0.259	90.393	-70.313	209.717	-75.54	3.15	-74.42	-67.816	-53.018	4.998	0.41565	-0.49509	0.39612	-0.65198	30.7	13111	100
2025-3-27 18:50:48.141	WT901BLE68-01(48591DE3C19B)	-0.080	-1.353	0.259	90.393	-70.313	209.717	-74.59	5.07	-73.25	-67.816	-53.018	4.998	0.41565	-0.49509	0.39612	-0.65198	30.7	13111	100
2025-3-27 18:50:48.141	WT901BLE68-01(48591DE3C19B)	-0.080	-1.226	0.236	96.008	-4.089	219.788	-73.60	7.22	-72.65	-67.816	-53.018	4.998	0.41565	-0.49509	0.39612	-0.65198	30.7	13111	100
2025-3-27 18:50:48.141	WT901BLE68-01(48591DE3C19B)	-0.132	-1.226	0.236	96.008	-4.089	219.788	-72.59	9.35	-72.03	-67.816	-53.018	4.998	0.41565	-0.49509	0.39612	-0.65198	30.7	13111	100
2025-3-27 18:50:48.141	WT901BLE68-01(48591DE3C19B)	-0.132	-1.170	0.189	92.285	48.767	228.333	-71.68	11.69	-71.85	-67.816	-53.018	4.998	0.41565	-0.49509	0.39612	-0.65198	30.7	13111	100
2025-3-27 18:50:48.230	WT901BLE68-01(48591DE3C19B)	-0.162	-1.170	0.189	92.285	48.767	228.333	-70.76	14.01	-71.63	-67.816	-53.018	4.998	0.41565	-0.49509	0.39612	-0.65198	30.7	13111	100
2025-3-27 18:50:48.230	WT901BLE68-01(48591DE3C19B)	-0.162	-1.220	0.143	83.008	85.144	235.352	-70.00	16.50	-71.71	-67.816	-53.018	4.998	0.70520	-0.39124	0.42773	-0.40811	30.7	13111	100
2025-3-27 18:50:48.230	WT901BLE68-01(48591DE3C19B)	-0.208	-1.220	0.143	83.008	85.144	235.352	-69.24	18.96	-71.76	-67.816	-53.018	4.998	0.70520	-0.39124	0.42773	-0.40811	30.7	13111	100
2025-3-27 18:50:48.230	WT901BLE68-01(48591DE3C19B)	-0.208	-1.326	0.151	71.472	99.121	240.479	-68.64	21.52	-71.89	-67.816	-53.018	4.998	0.70520	-0.39124	0.42773	-0.40811	30.7	13111	100
2025-3-27 18:50:48.231	WT901BLE68-01(48591DE3C19B)	-0.281	-1.326	0.151	71.472	99.121	240.479	-68.03	24.05	-72.00	-67.816	-53.018	4.998	0.70520	-0.39124	0.42773	-0.40811	30.7	13111	100
2025-3-27 18:50:48.231	WT901BLE68-01(48591DE3C19B)	-0.281	-1.503	0.176	60.425	85.449	240.662	-67.47	26.52	-71.95	-67.816	-53.018	4.998	0.70520	-0.39124	0.42773	-0.40811	30.7	13111	100
2025-3-27 18:50:48.231	WT901BLE68-01(48591DE3C19B)	-0.312	-1.503	0.176	60.425	85.449	240.662	-66.90	28.97	-71.87	-67.816	-53.018	4.998	0.70520	-0.39124	0.42773	-0.40811	30.7	13111	100
2025-3-27 18:50:48.231	WT901BLE68-01(48591DE3C19B)	-0.312	-1.669	0.176	53.345	62.256	231.750	-66.28	31.24	-71.55	-67.816	-53.018	4.998	0.70520	-0.39124	0.42773	-0.40811	30.7	13111	100
2025-3-27 18:50:48.289	WT901BLE68-01(48591DE3C19B)	-0.315	-1.669	0.176	53.345	62.256	231.750	-65.63	33.49	-71.20	-67.816	-53.018	4.998	0.70520	-0.39124	0.42773	-0.40811	30.7	13111	100
2025-3-27 18:50:48.289	WT901BLE68-01(48591DE3C19B)	-0.315	-1.782	0.130	49.561	40.710	219.666	-64.89	35.52	-70.64	-67.816	-53.018	4.998	0.70520	-0.39124	0.42773	-0.40811	30.7	13111	100
2025-3-27 18:50:48.290	WT901BLE68-01(48591DE3C19B)	-0.336	-1.782	0.130	49.561	40.710	219.666	-64.12	37.53	-70.04	-67.816	-53.018	4.998	0.70520	-0.39124	0.42773	-0.40811	30.7	13111	100
2025-3-27 18:50:48.290	WT901BLE68-01(48591DE3C19B)	-0.336	-1.800	0.079	46.387	20.264	200.806	-63.25	39.28	-69.26	-67.816	-53.018	4.998	0.70520	-0.39124	0.42773	-0.40811	30.7	13111	100
2025-3-27 18:50:48.318	WT901BLE68-01(48591DE3C19B)	-0.278	-1.800	0.079	46.387	20.264	200.806	-62.35	41.00	-68.43	-67.816	-53.018	4.998	0.70520	-0.39124	0.42773	-0.40811	30.7	13111	100
2025-3-27 18:50:48.318	WT901BLE68-01(48591DE3C19B)	-0.141	-1.754	0.052	41.748	-12.939	173.096	-61.30	42.29	-67.35	-67.816	-53.018	4.998	0.70520	-0.39124	0.42773	-0.40811	30.7	13111	100
2025-3-27 18:50:48.318	WT901BLE68-01(48591DE3C19B)	-0.141	-1.651	0.061	36.316	-46.326	147.400	-60.16	43.37	-66.09	-67.816	-53.018	4.998	0.70520	-0.39124	0.42773	-0.40811	30.7	13111	100
2025-3-27 18:50:48.318	WT901BLE68-01(48591DE3C19B)	0.111	-1.651	0.061	36.316	-46.326	147.400	-58.92	44.24	-64.70	-67.816	-53.018	4.998	0.70520	-0.39124	0.42773	-0.40811	30.7	13111	100
2025-3-27 18:50:48.351	WT901BLE68-01(48591DE3C19B)	0.111	-1.525	0.078	32.837	-59.998	119.202	-57.69	44.91	-63.29	-67.816	-53.018	4.998	0.70520	-0.39124	0.42773	-0.40811	30.7	13111	100
2025-3-27 18:50:48.351	WT901BLE68-01(48591DE3C19B)	0.302	-1.525	0.078	32.837	-59.998	119.202	-56.47	45.40	-61.88	-67.816	-53.018	4.998	0.70520	-0.39124	0.42773	-0.40811	30.7	13111	100
2025-3-27 18:50:48.351	WT901BLE68-01(48591DE3C19B)	0.302	-1.371	0.124	30.273	-53.894	90.698	-55.36	45.76	-60.62	-67.816	-53.018	4.998	0.70520	-0.39124	0.42773	-0.40811	30.7	13111	100
2025-3-27 18:50:48.351	WT901BLE68-01(48591DE3C19B)	0.370	-1.371	0.124	30.273	-53.894	90.698	-54.37	45.99	-59.50	-67.816	-53.018	4.998	0.70520	-0.39124	0.42773	-0.40811	30.7	13111	100
2025-3-27 18:50:48.409	WT901BLE68-01(48591DE3C19B)	0.370	-1.237	0.125	27.710	-31.494	57.373	-53.58	46.14	-58.65	-67.816	-53.018	4.998	0.70520	-0.39124	0.42773	-0.40811	30.7	13111	100
2025-3-27 18:50:48.409	WT901BLE68-01(48591DE3C19B)	0.365	-1.237	0.125	27.710	-31.494	57.373	-53.00	46.20	-58.08	-93.100	-10.290	12.250	0.70520	-0.39124	0.42773	-0.40811	30.7	13111	100
2025-3-27 18:50:48.409	WT901BLE68-01(48591DE3C19B)	0.365	-1.063	0.119	25.269	-4.700	22.583	-52.67	46.20	-57.82	-93.100	-10.290	12.250	0.70520	-0.39124	0.42773	-0.40811	30.7	13111	100
2025-3-27 18:50:48.409	WT901BLE68-01(48591DE3C19B)	0.363	-1.063	0.119	25.269	-4.700	22.583	-52.58	46.13	-57.87	-93.100	-10.290	12.250	0.70520	-0.39124	0.42773	-0.40811	30.7	13111	100
2025-3-27 18:50:48.438	WT901BLE68-01(48591DE3C19B)	0.363	-0.915	0.112	18.799	27.161	-13.367	-52.76	46.01	-58.26	-93.100	-10.290	12.250	0.70520	-0.39124	0.42773	-0.40811	30.7	13111	100
2025-3-27 18:50:48.438	WT901BLE68-01(48591DE3C19B)	0.314	-0.915	0.112	18.799	27.161	-13.367	-53.21	45.83	-58.99	-93.100	-10.290	12.250	0.70520	-0.39124	0.42773	-0.40811	30.7	13111	100
2025-3-27 18:50:48.439	WT901BLE68-01(48591DE3C19B)	0.314	-0.880	0.090	9.583	63.660	-50.537	-53.96	45.60	-60.08	-93.100	-10.290	12.250	0.70520	-0.39124	0.42773	-0.40811	30.7	13111	100
2025-3-27 18:50:48.439	WT901BLE68-01(48591DE3C19B)	0.235	-0.880	0.090	9.583	63.660	-50.537	-55.01	45.31	-61.52	-93.100	-10.290	12.250	0.70520	-0.39124	0.42773	-0.40811	30.7	13111	100
2025-3-27 18:50:48.469	WT901BLE68-01(48591DE3C19B)	0.235	-0.903	0.093	3.174	84.412	-86.182	-56.26	44.90	-63.20	-93.100	-10.290	12.250	0.70520	-0.39124	0.42773	-0.40811	30.7	13111	100
2025-3-27 18:50:48.469	WT901BLE68-01(48591DE3C19B)	0.154	-0.903	0.093	3.174	84.412	-86.182	-57.67	44.37	-65.12	-93.100	-10.290	12.250	0.70520	-0.39124	0.42773	-0.40811	30.7	13111	100
2025-3-27 18:50:48.469	WT901BLE68-01(48591DE3C19B)	0.154	-0.943	0.127	-1.343	86.487	-116.516	-59.14	43.69	-67.09	-93.100	-10.290	12.250	0.70520	-0.39124	0.42773	-0.40811	30.7	13111	100
2025-3-27 18:50:48.469	WT901BLE68-01(48591DE3C19B)	0.056	-0.943	0.127	-1.343	86.487	-116.516	-60.66	42.85	-69.14	-93.100	-10.290	12.250	0.70520	-0.39124	0.42773	-0.40811	30.7	13111	100
2025-3-27 18:50:48.559	WT901BLE68-01(48591DE3C19B)	0.056	-0.969	0.162	-3.418	79.712	-142.639	-62.14	41.84	-71.15	-93.100	-10.290	12.250	0.70520	-0.39124	0.42773	-0.40811	30.7	13111	100
2025-3-27 18:50:48.559	WT901BLE68-01(48591DE3C19B)	-0.013	-0.969	0.162	-3.418	79.712	-142.639	-63.57	40.67	-73.13	-93.100	-10.290	12.250	0.70520	-0.39124	0.42773	-0.40811	30.7	13111	100
2025-3-27 18:50:48.559	WT901BLE68-01(48591DE3C19B)	-0.013	-0.971	0.183	-5.188	70.129	-166.504	-64.92	39.35	-75.03	-93.100	-10.290	12.250	0.70520	-0.39124	0.42773	-0.40811	30.7	13111	100
2025-3-27 18:50:48.559	WT901BLE68-01(48591DE3C19B)	-0.057	-0.971	0.183	-5.188	70.129	-166.504	-66.19	37.87	-76.84	-93.100	-10.290	12.250	0.70520	-0.39124	0.42773	-0.40811	30.7	13111	100
2025-3-27 18:50:48.560	WT901BLE68-01(48591DE3C19B)	-0.057	-0.965	0.180	-7.446	62.256	-187.134	-67.38	36.27	-78.58	-93.100	-10.290	12.250	0.70520	-0.39124	0.42773	-0.40811	30.7	13111	100
2025-3-27 18:50:48.560	WT901BLE68-01(48591DE3C19B)	-0.090	-0.965	0.180	-7.446	62.256	-187.134	-68.48	34.54	-80.24	-93.100	-10.290	12.250	0.70520	-0.39124	0.42773	-0.40811	30.7	13111	100
2025-3-27 18:50:48.561	WT901BLE68-01(48591DE3C19B)	-0.090	-0.953	0.157	-9.155	59.204	-205.933	-69.52	32.71	-81.83	-93.100	-10.290	12.250	0.70520	-0.39124	0.42773	-0.40811	30.7	13111	100
2025-3-27 18:50:48.561	WT901BLE68-01(48591DE3C19B)	-0.132	-0.953	0.157	-9.155	59.204	-205.933	-70.48	30.77	-83.37	-93.100	-10.290	12.250	0.70520	-0.39124	0.42773	-0.40811	30.7	13111	100
2025-3-27 18:50:48.589	WT901BLE68-01(48591DE3C19B)	-0.132	-0.927	0.128	-11.047	56.641	-223.999	-71.38	28.74	-84.85	-93.100	-10.290	12.250	0.70520	-0.39124	0.42773	-0.40811	30.7	13111	100
2025-3-27 18:50:48.589	WT901BLE68-01(48591DE3C19B)	-0.184	-0.927	0.128	-11.047	56.641	-223.999	-72.21	26.62	-86.28	-93.100	-10.290	12.250	0.70520	-0.39124	0.42773	-0.40811	30.7	13111	100
2025-3-27 18:50:48.589	WT901BLE68-01(48591DE3C19B)	-0.184	-0.912	0.130	-14.648	50.964	-242.004	-72.98	24.41	-87.64	-93.100	-10.290	12.250	0.64749	-0.30710	0.52344	-0.46082	30.7	13111	100
2025-3-27 18:50:48.589	WT901BLE68-01(48591DE3C19B)	-0.269	-0.912	0.130	-14.648	50.964	-242.004	-73.69	22.10	-88.94	-93.100	-10.290	12.250	0.64749	-0.30710	0.52344	-0.46082	30.7	13111	100
2025-3-27 18:50:48.649	WT901BLE68-01(48591DE3C19B)	-0.269	-0.982	0.181	-18.555	42.603	-258.911	-74.34	19.71	-90.16	-93.100	-10.290	12.250	0.64749	-0.30710	0.52344	-0.46082	30.7	13111	100
2025-3-27 18:50:48.650	WT901BLE68-01(48591DE3C19B)	-0.411	-0.982	0.181	-18.555	42.603	-258.911	-74.93	17.24	-91.31	-93.100	-10.290	12.250	0.64749	-0.30710	0.52344	-0.46082	30.7	13111	100
2025-3-27 18:50:48.650	WT901BLE68-01(48591DE3C19B)	-0.411	-1.101	0.251	-17.700	27.161	-269.287	-75.44	14.71	-92.35	-93.100	-10.290	12.250	0.64749	-0.30710	0.52344	-0.46082	30.7	13111	100
2025-3-27 18:50:48.650	WT901BLE68-01(48591DE3C19B)	-0.538	-1.101	0.251	-17.700	27.161	-269.287	-75.87	12.12	-93.29	-93.100	-10.290	12.250	0.64749	-0.30710	0.52344	-0.46082	30.7	13111	100
2025-3-27 18:50:48.709	WT901BLE68-01(48591DE3C19B)	-0.538	-1.167	0.313	-16.418	12.817	-273.743	-76.23	9.52	-94.13	-93.100	-10.290	12.250	0.64749	-0.30710	0.52344	-0.46082	30.7	13111	100
2025-3-27 18:50:48.709	WT901BLE68-01(48591DE3C19B)	-0.542	-1.167	0.313	-16.418	12.817	-273.743	-76.53	6.90	-94.89	-93.100	-10.290	12.250	0.64749	-0.30710	0.52344	-0.46082	30.7	13111	100
2025-3-27 18:50:48.709	WT901BLE68-01(48591DE3C19B)	-0.542	-1.205	0.303	-17.578	8.850	-273.438	-76.78	4.30	-95.60	-93.100	-10.290	12.250	0.64749	-0.30710	0.52344	-0.46082	30.7	13111	100
2025-3-27 18:50:48.709	WT901BLE68-01(48591DE3C19B)	-0.520	-1.205	0.303	-17.578	8.850	-273.438	-77.01	1.72	-96.28	-93.100	-10.290	12.250	0.64749	-0.30710	0.52344	-0.46082	30.7	13111	100
2025-3-27 18:50:48.710	WT901BLE68-01(48591DE3C19B)	-0.520	-1.245	0.256	-15.564	7.813	-266.479	-77.20	-0.80	-96.94	-93.100	-10.290	12.250	0.64749	-0.30710	0.52344	-0.46082	30.7	13111	100
2025-3-27 18:50:48.711	WT901BLE68-01(48591DE3C19B)	-0.547	-1.245	0.256	-15.564	7.813	-266.479	-77.34	-3.27	-97.58	-93.100	-10.290	12.250	0.64749	-0.30710	0.52344	-0.46082	30.7	13111	100
2025-3-27 18:50:48.711	WT901BLE68-01(48591DE3C19B)	-0.547	-1.350	0.263	-13.794	0.000	-259.460	-77.45	-5.71	-98.16	-93.100	-10.290	12.250	0.64749	-0.30710	0.52344	-0.46082	30.7	13111	100
2025-3-27 18:50:48.711	WT901BLE68-01(48591DE3C19B)	-0.525	-1.350	0.263	-13.794	0.000	-259.460	-77.54	-8.10	-98.69	-93.100	-10.290	12.250	0.64749	-0.30710	0.52344	-0.46082	30.7	13111	100
2025-3-27 18:50:48.769	WT901BLE68-01(48591DE3C19B)	-0.525	-1.532	0.401	-11.108	24.719	-248.108	-77.56	-10.39	-99.33	-93.100	-10.290	12.250	0.64749	-0.30710	0.52344	-0.46082	30.7	13111	100
2025-3-27 18:50:48.769	WT901BLE68-01(48591DE3C19B)	-0.585	-1.532	0.401	-11.108	24.719	-248.108	-77.53	-12.58	-100.10	-93.100	-10.290	12.250	0.64749	-0.30710	0.52344	-0.46082	30.7	13111	100
2025-3-27 18:50:48.769	WT901BLE68-01(48591DE3C19B)	-0.585	-1.775	0.472	-2.319	94.604	-232.178	-77.33	-14.61	-101.20	-93.100	-10.290	12.250	0.64749	-0.30710	0.52344	-0.46082	30.7	13111	100
2025-3-27 18:50:48.769	WT901BLE68-01(48591DE3C19B)	-0.731	-1.775	0.472	-2.319	94.604	-232.178	-76.97	-16.47	-102.65	-93.100	-10.290	12.250	0.64749	-0.30710	0.52344	-0.46082	30.7	13111	100
2025-3-27 18:50:48.804	WT901BLE68-01(48591DE3C19B)	-0.731	-1.838	0.389	12.512	171.509	-210.754	-76.37	-18.11	-104.50	-79.478	-46.746	2.254	0.64749	-0.30710	0.52344	-0.46082	30.7	13111	100
2025-3-27 18:50:48.804	WT901BLE68-01(48591DE3C19B)	-0.973	-1.838	0.389	12.512	171.509	-210.754	-75.53	-19.52	-106.74	-79.478	-46.746	2.254	0.64749	-0.30710	0.52344	-0.46082	30.7	13111	100
2025-3-27 18:50:48.804	WT901BLE68-01(48591DE3C19B)	-0.973	-1.649	0.258	20.081	227.539	-179.443	-74.39	-20.43	-109.50	-79.478	-46.746	2.254	0.64749	-0.30710	0.52344	-0.46082	30.7	13111	100
2025-3-27 18:50:48.804	WT901BLE68-01(48591DE3C19B)	-1.280	-1.649	0.258	20.081	227.539	-179.443	-73.22	-21.28	-112.29	-79.478	-46.746	2.254	0.64749	-0.30710	0.52344	-0.46082	30.7	13111	100
2025-3-27 18:50:48.859	WT901BLE68-01(48591DE3C19B)	-1.280	-1.411	0.252	20.203	231.873	-142.334	-72.05	-21.69	-115.02	-79.478	-46.746	2.254	0.64749	-0.30710	0.52344	-0.46082	30.7	13111	100
2025-3-27 18:50:48.860	WT901BLE68-01(48591DE3C19B)	-1.492	-1.411	0.252	20.203	231.873	-142.334	-70.87	-22.04	-117.76	-79.478	-46.746	2.254	0.64749	-0.30710	0.52344	-0.46082	30.7	13111	100
2025-3-27 18:50:48.860	WT901BLE68-01(48591DE3C19B)	-1.492	-1.283	0.329	8.484	154.968	-92.041	-70.15	-22.11	-119.55	-79.478	-46.746	2.254	0.64749	-0.30710	0.52344	-0.46082	30.7	13111	100
2025-3-27 18:50:48.860	WT901BLE68-01(48591DE3C19B)	-1.399	-1.283	0.329	8.484	154.968	-92.041	-69.44	-22.14	-121.35	-79.478	-46.746	2.254	0.64749	-0.30710	0.52344	-0.46082	30.7	13111	100
2025-3-27 18:50:48.919	WT901BLE68-01(48591DE3C19B)	-1.399	-1.173	0.328	-1.404	28.503	-39.734	-69.38	-22.11	-121.69	-79.478	-46.746	2.254	0.64749	-0.30710	0.52344	-0.46082	30.7	13111	100
2025-3-27 18:50:48.920	WT901BLE68-01(48591DE3C19B)	-1.141	-1.173	0.328	-1.404	28.503	-39.734	-69.30	-22.07	-122.05	-79.478	-46.746	2.254	0.64749	-0.30710	0.52344	-0.46082	30.7	13111	100
2025-3-27 18:50:48.920	WT901BLE68-01(48591DE3C19B)	-1.141	-0.961	0.275	-11.902	-80.566	17.151	-69.82	-21.86	-121.11	-79.478	-46.746	2.254	0.64749	-0.30710	0.52344	-0.46082	30.7	13111	100
2025-3-27 18:50:48.920	WT901BLE68-01(48591DE3C19B)	-0.981	-0.961	0.275	-11.902	-80.566	17.151	-70.31	-21.64	-120.20	-79.478	-46.746	2.254	0.64749	-0.30710	0.52344	-0.46082	30.7	13111	100
2025-3-27 18:50:48.921	WT901BLE68-01(48591DE3C19B)	-0.981	-0.812	0.222	-19.226	-155.945	75.195	-71.21	-21.10	-118.34	-79.478	-46.746	2.254	0.64749	-0.30710	0.52344	-0.46082	30.7	13111	100
2025-3-27 18:50:48.921	WT901BLE68-01(48591DE3C19B)	-0.830	-0.812	0.222	-19.226	-155.945	75.195	-72.08	-20.54	-116.53	-79.478	-46.746	2.254	0.64749	-0.30710	0.52344	-0.46082	30.7	13111	100
2025-3-27 18:50:48.921	WT901BLE68-01(48591DE3C19B)	-0.830	-0.766	0.156	-25.696	-203.674	126.648	-73.19	-19.61	-114.09	-79.478	-46.746	2.254	0.64749	-0.30710	0.52344	-0.46082	30.7	13111	100
2025-3-27 18:50:48.921	WT901BLE68-01(48591DE3C19B)	-0.644	-0.766	0.156	-25.696	-203.674	126.648	-74.23	-18.62	-111.70	-79.478	-46.746	2.254	0.64749	-0.30710	0.52344	-0.46082	30.7	13111	100
2025-3-27 18:50:48.951	WT901BLE68-01(48591DE3C19B)	-0.644	-0.873	0.105	-22.034	-221.558	166.870	-75.28	-17.27	-109.04	-79.478	-46.746	2.254	0.64749	-0.30710	0.52344	-0.46082	30.7	13111	100
2025-3-27 18:50:48.951	WT901BLE68-01(48591DE3C19B)	-0.508	-0.873	0.105	-22.034	-221.558	166.870	-76.25	-15.87	-106.42	-79.478	-46.746	2.254	0.64749	-0.30710	0.52344	-0.46082	30.7	13111	100
2025-3-27 18:50:48.951	WT901BLE68-01(48591DE3C19B)	-0.508	-1.026	0.108	-9.094	-212.524	192.993	-77.00	-14.18	-103.86	-79.478	-46.746	2.254	0.64749	-0.30710	0.52344	-0.46082	30.7	13111	100
2025-3-27 18:50:48.951	WT901BLE68-01(48591DE3C19B)	-0.345	-1.026	0.108	-9.094	-212.524	192.993	-77.68	-12.47	-101.33	-79.478	-46.746	2.254	0.64749	-0.30710	0.52344	-0.46082	30.7	13111	100
2025-3-27 18:50:49.40	WT901BLE68-01(48591DE3C19B)	-0.345	-1.188	0.155	8.057	-187.317	209.595	-78.06	-10.54	-99.04	-79.478	-46.746	2.254	0.64749	-0.30710	0.52344	-0.46082	30.7	13111	100
2025-3-27 18:50:49.40	WT901BLE68-01(48591DE3C19B)	-0.206	-1.188	0.155	8.057	-187.317	209.595	-78.36	-8.61	-96.77	-79.478	-46.746	2.254	0.47778	-0.46185	0.43231	-0.60941	30.7	13111	100
2025-3-27 18:50:49.40	WT901BLE68-01(48591DE3C19B)	-0.206	-1.271	0.207	28.442	-143.311	218.689	-78.32	-6.53	-94.93	-79.478	-46.746	2.254	0.47778	-0.46185	0.43231	-0.60941	30.7	13111	100
2025-3-27 18:50:49.40	WT901BLE68-01(48591DE3C19B)	-0.136	-1.271	0.207	28.442	-143.311	218.689	-78.22	-4.48	-93.10	-79.478	-46.746	2.254	0.47778	-0.46185	0.43231	-0.60941	30.7	13111	100
2025-3-27 18:50:49.41	WT901BLE68-01(48591DE3C19B)	-0.136	-1.275	0.227	44.617	-86.487	222.961	-77.85	-2.30	-91.81	-79.478	-46.746	2.254	0.47778	-0.46185	0.43231	-0.60941	30.7	13111	100
2025-3-27 18:50:49.41	WT901BLE68-01(48591DE3C19B)	-0.140	-1.275	0.227	44.617	-86.487	222.961	-77.44	-0.14	-90.52	-79.478	-46.746	2.254	0.47778	-0.46185	0.43231	-0.60941	30.7	13111	100
2025-3-27 18:50:49.41	WT901BLE68-01(48591DE3C19B)	-0.140	-1.246	0.224	54.199	-31.311	224.304	-76.90	2.10	-89.74	-79.478	-46.746	2.254	0.47778	-0.46185	0.43231	-0.60941	30.7	13111	100
2025-3-27 18:50:49.41	WT901BLE68-01(48591DE3C19B)	-0.198	-1.246	0.224	54.199	-31.311	224.304	-76.33	4.32	-88.93	-79.478	-46.746	2.254	0.47778	-0.46185	0.43231	-0.60941	30.7	13111	100
2025-3-27 18:50:49.71	WT901BLE68-01(48591DE3C19B)	-0.198	-1.188	0.201	56.885	9.399	224.854	-75.73	6.61	-88.51	-79.478	-46.746	2.254	0.47778	-0.46185	0.43231	-0.60941	30.7	13111	100
2025-3-27 18:50:49.71	WT901BLE68-01(48591DE3C19B)	-0.229	-1.188	0.201	56.885	9.399	224.854	-75.12	8.88	-88.06	-79.478	-46.746	2.254	0.47778	-0.46185	0.43231	-0.60941	30.7	13111	100
2025-3-27 18:50:49.71	WT901BLE68-01(48591DE3C19B)	-0.229	-1.116	0.179	54.138	32.776	223.694	-74.56	11.18	-87.81	-79.478	-46.746	2.254	0.47778	-0.46185	0.43231	-0.60941	30.7	13111	100
2025-3-27 18:50:49.71	WT901BLE68-01(48591DE3C19B)	-0.253	-1.116	0.179	54.138	32.776	223.694	-73.99	13.45	-87.54	-79.478	-46.746	2.254	0.47778	-0.46185	0.43231	-0.60941	30.7	13111	100
2025-3-27 18:50:49.130	WT901BLE68-01(48591DE3C19B)	-0.253	-1.071	0.168	47.302	41.504	222.595	-73.50	15.72	-87.34	-79.478	-46.746	2.254	0.47778	-0.46185	0.43231	-0.60941	30.7	13111	100
2025-3-27 18:50:49.130	WT901BLE68-01(48591DE3C19B)	-0.278	-1.071	0.168	47.302	41.504	222.595	-73.00	17.97	-87.11	-79.478	-46.746	2.254	0.47778	-0.46185	0.43231	-0.60941	30.7	13111	100
2025-3-27 18:50:49.130	WT901BLE68-01(48591DE3C19B)	-0.278	-1.079	0.128	38.574	36.377	220.642	-72.55	20.18	-86.82	-79.478	-46.746	2.254	0.47778	-0.46185	0.43231	-0.60941	30.7	13111	100
2025-3-27 18:50:49.130	WT901BLE68-01(48591DE3C19B)	-0.299	-1.079	0.128	38.574	36.377	220.642	-72.10	22.36	-86.51	-79.478	-46.746	2.254	0.47778	-0.46185	0.43231	-0.60941	30.7	13111	100
2025-3-27 18:50:49.161	WT901BLE68-01(48591DE3C19B)	-0.299	-1.087	0.105	30.640	19.531	219.055	-71.64	24.46	-86.01	-79.478	-46.746	2.254	0.47778	-0.46185	0.43231	-0.60941	30.7	13111	100
2025-3-27 18:50:49.161	WT901BLE68-01(48591DE3C19B)	-0.304	-1.087	0.105	30.640	19.531	219.055	-71.15	26.54	-85.48	-79.478	-46.746	2.254	0.47778	-0.46185	0.43231	-0.60941	30.7	13111	100
2025-3-27 18:50:49.161	WT901BLE68-01(48591DE3C19B)	-0.304	-1.170	0.099	22.339	-4.456	213.928	-70.61	28.49	-84.69	-79.478	-46.746	2.254	0.47778	-0.46185	0.43231	-0.60941	30.7	13111	100
2025-3-27 18:50:49.161	WT901BLE68-01(48591DE3C19B)	-0.278	-1.170	0.099	22.339	-4.456	213.928	-70.04	30.40	-83.87	-79.478	-46.746	2.254	0.47778	-0.46185	0.43231	-0.60941	30.7	13111	100
2025-3-27 18:50:49.192	WT901BLE68-01(48591DE3C19B)	-0.278	-1.297	0.081	20.447	-26.489	206.421	-69.34	32.16	-82.80	-79.478	-46.746	2.254	0.47778	-0.46185	0.43231	-0.60941	30.7	13111	100
2025-3-27 18:50:49.192	WT901BLE68-01(48591DE3C19B)	-0.237	-1.297	0.081	20.447	-26.489	206.421	-68.59	33.89	-81.69	-79.478	-46.746	2.254	0.47778	-0.46185	0.43231	-0.60941	30.7	13111	100
2025-3-27 18:50:49.192	WT901BLE68-01(48591DE3C19B)	-0.237	-1.430	0.054	18.738	-40.100	195.923	-67.76	35.45	-80.44	-87.906	-23.520	1.862	0.47778	-0.46185	0.43231	-0.60941	30.7	13111	100
2025-3-27 18:50:49.192	WT901BLE68-01(48591DE3C19B)	-0.204	-1.430	0.054	18.738	-40.100	195.923	-66.87	36.97	-79.15	-87.906	-23.520	1.862	0.47778	-0.46185	0.43231	-0.60941	30.7	13111	100
2025-3-27 18:50:49.249	WT901BLE68-01(48591DE3C19B)	-0.204	-1.642	0.018	16.357	-45.715	181.763	-65.97	38.33	-77.81	-87.906	-23.520	1.862	0.47778	-0.46185	0.43231	-0.60941	30.7	13111	100
2025-3-27 18:50:49.249	WT901BLE68-01(48591DE3C19B)	-0.148	-1.642	0.018	16.357	-45.715	181.763	-65.02	39.64	-76.42	-87.906	-23.520	1.862	0.47778	-0.46185	0.43231	-0.60941	30.7	13111	100
2025-3-27 18:50:49.249	WT901BLE68-01(48591DE3C19B)	-0.056	-1.803	0.003	16.907	-43.335	163.696	-64.10	40.78	-75.13	-87.906	-23.520	1.862	0.47778	-0.46185	0.43231	-0.60941	30.7	13111	100
2025-3-27 18:50:49.249	WT901BLE68-01(48591DE3C19B)	-0.056	-1.865	-0.004	18.433	-32.715	142.212	-63.22	41.82	-73.93	-87.906	-23.520	1.862	0.47778	-0.46185	0.43231	-0.60941	30.7	13111	100
2025-3-27 18:50:49.279	WT901BLE68-01(48591DE3C19B)	0.040	-1.865	-0.004	18.433	-32.715	142.212	-62.39	42.76	-72.82	-87.906	-23.520	1.862	0.47778	-0.46185	0.43231	-0.60941	30.7	13111	100
2025-3-27 18:50:49.279	WT901BLE68-01(48591DE3C19B)	0.040	-1.789	0.016	15.259	-16.846	114.929	-61.67	43.60	-71.88	-87.906	-23.520	1.862	0.47778	-0.46185	0.43231	-0.60941	30.7	13111	100
2025-3-27 18:50:49.279	WT901BLE68-01(48591DE3C19B)	0.118	-1.789	0.016	15.259	-16.846	114.929	-61.08	44.35	-71.10	-87.906	-23.520	1.862	0.47778	-0.46185	0.43231	-0.60941	30.7	13111	100
2025-3-27 18:50:49.279	WT901BLE68-01(48591DE3C19B)	0.118	-1.657	0.085	10.437	-0.610	83.435	-60.65	44.97	-70.52	-87.906	-23.520	1.862	0.47778	-0.46185	0.43231	-0.60941	30.7	13111	100
2025-3-27 18:50:49.308	WT901BLE68-01(48591DE3C19B)	0.158	-1.657	0.085	10.437	-0.610	83.435	-60.39	45.49	-70.15	-87.906	-23.520	1.862	0.47778	-0.46185	0.43231	-0.60941	30.7	13111	100
2025-3-27 18:50:49.308	WT901BLE68-01(48591DE3C19B)	0.158	-1.446	0.189	6.531	13.123	49.622	-60.28	45.89	-69.98	-87.906	-23.520	1.862	0.47778	-0.46185	0.43231	-0.60941	30.7	13111	100
2025-3-27 18:50:49.308	WT901BLE68-01(48591DE3C19B)	0.126	-1.446	0.189	6.531	13.123	49.622	-60.34	46.17	-70.02	-87.906	-23.520	1.862	0.47778	-0.46185	0.43231	-0.60941	30.7	13111	100
2025-3-27 18:50:49.308	WT901BLE68-01(48591DE3C19B)	0.126	-1.233	0.211	6.775	35.339	15.930	-60.59	46.35	-70.31	-87.906	-23.520	1.862	0.47778	-0.46185	0.43231	-0.60941	30.7	13111	100
2025-3-27 18:50:49.460	WT901BLE68-01(48591DE3C19B)	0.050	-1.233	0.211	6.775	35.339	15.930	-61.02	46.43	-70.87	-87.906	-23.520	1.862	0.47778	-0.46185	0.43231	-0.60941	30.7	13111	100
2025-3-27 18:50:49.460	WT901BLE68-01(48591DE3C19B)	0.050	-1.045	0.187	5.432	64.636	-19.226	-61.68	46.42	-71.74	-87.906	-23.520	1.862	0.47778	-0.46185	0.43231	-0.60941	30.7	13111	100
2025-3-27 18:50:49.460	WT901BLE68-01(48591DE3C19B)	0.063	-1.045	0.187	5.432	64.636	-19.226	-62.55	46.32	-72.91	-87.906	-23.520	1.862	0.47778	-0.46185	0.43231	-0.60941	30.7	13111	100
2025-3-27 18:50:49.460	WT901BLE68-01(48591DE3C19B)	0.063	-0.948	0.145	1.343	84.595	-54.077	-63.61	46.08	-74.31	-87.906	-23.520	1.862	0.47778	-0.46185	0.43231	-0.60941	30.7	13111	100
2025-3-27 18:50:49.461	WT901BLE68-01(48591DE3C19B)	0.043	-0.948	0.145	1.343	84.595	-54.077	-64.83	45.72	-75.92	-87.906	-23.520	1.862	0.47778	-0.46185	0.43231	-0.60941	30.7	13111	100
2025-3-27 18:50:49.461	WT901BLE68-01(48591DE3C19B)	0.043	-0.937	0.134	-1.038	90.820	-87.708	-66.13	45.19	-77.63	-87.906	-23.520	1.862	0.47778	-0.46185	0.43231	-0.60941	30.7	13111	100
2025-3-27 18:50:49.461	WT901BLE68-01(48591DE3C19B)	-0.019	-0.937	0.134	-1.038	90.820	-87.708	-67.48	44.49	-79.45	-87.906	-23.520	1.862	0.47778	-0.46185	0.43231	-0.60941	30.7	13111	100
2025-3-27 18:50:49.461	WT901BLE68-01(48591DE3C19B)	-0.019	-0.957	0.127	1.099	80.017	-116.272	-68.77	43.62	-81.21	-87.906	-23.520	1.862	0.71823	-0.19855	0.57401	-0.33929	30.7	13111	100
2025-3-27 18:50:49.462	WT901BLE68-01(48591DE3C19B)	-0.085	-0.957	0.127	1.099	80.017	-116.272	-69.98	42.57	-82.90	-87.906	-23.520	1.862	0.71823	-0.19855	0.57401	-0.33929	30.7	13111	100
2025-3-27 18:50:49.462	WT901BLE68-01(48591DE3C19B)	-0.085	-0.957	0.124	7.446	60.059	-138.184	-71.03	41.36	-84.45	-87.906	-23.520	1.862	0.71823	-0.19855	0.57401	-0.33929	30.7	13111	100
2025-3-27 18:50:49.462	WT901BLE68-01(48591DE3C19B)	-0.151	-0.957	0.124	7.446	60.059	-138.184	-71.93	40.02	-85.86	-87.906	-23.520	1.862	0.71823	-0.19855	0.57401	-0.33929	30.7	13111	100
2025-3-27 18:50:49.462	WT901BLE68-01(48591DE3C19B)	-0.151	-0.930	0.149	9.705	32.471	-155.029	-72.67	38.54	-87.07	-87.906	-23.520	1.862	0.71823	-0.19855	0.57401	-0.33929	30.7	13111	100
2025-3-27 18:50:49.489	WT901BLE68-01(48591DE3C19B)	-0.199	-0.930	0.149	9.705	32.471	-155.029	-73.25	36.94	-88.08	-87.906	-23.520	1.862	0.71823	-0.19855	0.57401	-0.33929	30.7	13111	100
2025-3-27 18:50:49.489	WT901BLE68-01(48591DE3C19B)	-0.199	-0.928	0.194	6.775	4.150	-170.959	-73.70	35.24	-88.92	-87.906	-23.520	1.862	0.71823	-0.19855	0.57401	-0.33929	30.7	13111	100
2025-3-27 18:50:49.489	WT901BLE68-01(48591DE3C19B)	-0.208	-0.928	0.194	6.775	4.150	-170.959	-74.05	33.43	-89.58	-87.906	-23.520	1.862	0.71823	-0.19855	0.57401	-0.33929	30.7	13111	100
2025-3-27 18:50:49.489	WT901BLE68-01(48591DE3C19B)	-0.208	-0.908	0.225	5.066	-7.141	-186.218	-74.36	31.54	-90.17	-87.906	-23.520	1.862	0.71823	-0.19855	0.57401	-0.33929	30.7	13111	100
2025-3-27 18:50:49.521	WT901BLE68-01(48591DE3C19B)	-0.201	-0.908	0.225	5.066	-7.141	-186.218	-74.61	29.58	-90.70	-87.906	-23.520	1.862	0.71823	-0.19855	0.57401	-0.33929	30.7	13111	100
2025-3-27 18:50:49.521	WT901BLE68-01(48591DE3C19B)	-0.201	-0.869	0.225	0.244	-4.456	-200.684	-74.87	27.55	-91.23	-87.906	-23.520	1.862	0.71823	-0.19855	0.57401	-0.33929	30.7	13111	100
2025-3-27 18:50:49.522	WT901BLE68-01(48591DE3C19B)	-0.163	-0.869	0.225	0.244	-4.456	-200.684	-75.15	25.49	-91.78	-87.906	-23.520	1.862	0.71823	-0.19855	0.57401	-0.33929	30.7	13111	100
2025-3-27 18:50:49.522	WT901BLE68-01(48591DE3C19B)	-0.163	-0.825	0.230	-6.531	10.376	-216.064	-75.47	23.37	-92.41	-87.906	-23.520	1.862	0.71823	-0.19855	0.57401	-0.33929	30.7	13111	100
2025-3-27 18:50:49.551	WT901BLE68-01(48591DE3C19B)	-0.160	-0.825	0.230	-6.531	10.376	-216.064	-75.82	21.22	-93.10	-87.906	-23.520	1.862	0.71823	-0.19855	0.57401	-0.33929	30.7	13111	100
2025-3-27 18:50:49.551	WT901BLE68-01(48591DE3C19B)	-0.160	-0.799	0.252	-13.733	31.677	-231.323	-76.21	19.02	-93.91	-87.906	-23.520	1.862	0.71823	-0.19855	0.57401	-0.33929	30.7	13111	100
2025-3-27 18:50:49.551	WT901BLE68-01(48591DE3C19B)	-0.217	-0.799	0.252	-13.733	31.677	-231.323	-76.64	16.79	-94.80	-87.906	-23.520	1.862	0.71823	-0.19855	0.57401	-0.33929	30.7	13111	100
2025-3-27 18:50:49.551	WT901BLE68-01(48591DE3C19B)	-0.217	-0.817	0.300	-19.043	45.288	-245.422	-77.06	14.51	-95.75	-87.906	-23.520	1.862	0.71823	-0.19855	0.57401	-0.33929	30.7	13111	100
2025-3-27 18:50:49.609	WT901BLE68-01(48591DE3C19B)	-0.294	-0.817	0.300	-19.043	45.288	-245.422	-77.49	12.19	-96.75	-87.906	-23.520	1.862	0.71823	-0.19855	0.57401	-0.33929	30.7	13111	100
2025-3-27 18:50:49.609	WT901BLE68-01(48591DE3C19B)	-0.294	-0.897	0.331	-20.386	49.744	-256.653	-77.87	9.83	-97.76	-81.830	-30.282	-1.470	0.71823	-0.19855	0.57401	-0.33929	30.7	13111	100
2025-3-27 18:50:49.609	WT901BLE68-01(48591DE3C19B)	-0.375	-0.897	0.331	-20.386	49.744	-256.653	-78.22	7.44	-98.78	-81.830	-30.282	-1.470	0.71823	-0.19855	0.57401	-0.33929	30.7	13111	100
2025-3-27 18:50:49.609	WT901BLE68-01(48591DE3C19B)	-0.375	-0.976	0.320	-15.625	43.701	-264.893	-78.49	5.01	-99.76	-81.830	-30.282	-1.470	0.71823	-0.19855	0.57401	-0.33929	30.7	13111	100
2025-3-27 18:50:49.638	WT901BLE68-01(48591DE3C19B)	-0.426	-0.976	0.320	-15.625	43.701	-264.893	-78.68	2.55	-100.70	-81.830	-30.282	-1.470	0.71823	-0.19855	0.57401	-0.33929	30.7	13111	100
2025-3-27 18:50:49.639	WT901BLE68-01(48591DE3C19B)	-0.426	-1.031	0.291	-8.728	27.344	-270.081	-78.80	0.07	-101.56	-81.830	-30.282	-1.470	0.71823	-0.19855	0.57401	-0.33929	30.7	13111	100
2025-3-27 18:50:49.639	WT901BLE68-01(48591DE3C19B)	-0.470	-1.031	0.291	-8.728	27.344	-270.081	-78.85	-2.43	-102.33	-81.830	-30.282	-1.470	0.71823	-0.19855	0.57401	-0.33929	30.7	13111	100
2025-3-27 18:50:49.639	WT901BLE68-01(48591DE3C19B)	-0.470	-1.126	0.314	-2.563	10.071	-269.775	-78.84	-4.93	-103.02	-81.830	-30.282	-1.470	0.71823	-0.19855	0.57401	-0.33929	30.7	13111	100
2025-3-27 18:50:49.705	WT901BLE68-01(48591DE3C19B)	-0.520	-1.126	0.314	-2.563	10.071	-269.775	-78.78	-7.42	-103.63	-81.830	-30.282	-1.470	0.71823	-0.19855	0.57401	-0.33929	30.7	13111	100
2025-3-27 18:50:49.705	WT901BLE68-01(48591DE3C19B)	-0.520	-1.242	0.377	6.409	-2.563	-261.292	-78.66	-9.87	-104.18	-81.830	-30.282	-1.470	0.71823	-0.19855	0.57401	-0.33929	30.7	13111	100
2025-3-27 18:50:49.705	WT901BLE68-01(48591DE3C19B)	-0.537	-1.242	0.377	6.409	-2.563	-261.292	-78.48	-12.26	-104.67	-81.830	-30.282	-1.470	0.71823	-0.19855	0.57401	-0.33929	30.7	13111	100
2025-3-27 18:50:49.705	WT901BLE68-01(48591DE3C19B)	-0.537	-1.318	0.405	15.564	-2.502	-241.272	-78.23	-14.54	-105.16	-81.830	-30.282	-1.470	0.71823	-0.19855	0.57401	-0.33929	30.7	13111	100
2025-3-27 18:50:49.731	WT901BLE68-01(48591DE3C19B)	-0.488	-1.318	0.405	15.564	-2.502	-241.272	-77.92	-16.70	-105.64	-81.830	-30.282	-1.470	0.71823	-0.19855	0.57401	-0.33929	30.7	13111	100
2025-3-27 18:50:49.731	WT901BLE68-01(48591DE3C19B)	-0.488	-1.347	0.373	21.606	16.602	-213.989	-77.49	-18.54	-106.28	-81.830	-30.282	-1.470	0.71823	-0.19855	0.57401	-0.33929	30.7	13111	100
2025-3-27 18:50:49.731	WT901BLE68-01(48591DE3C19B)	-0.444	-1.347	0.373	21.606	16.602	-213.989	-77.04	-20.37	-106.94	-81.830	-30.282	-1.470	0.71823	-0.19855	0.57401	-0.33929	30.7	13111	100
2025-3-27 18:50:49.732	WT901BLE68-01(48591DE3C19B)	-0.444	-1.367	0.336	23.071	46.265	-175.781	-76.47	-21.74	-107.83	-81.830	-30.282	-1.470	0.71823	-0.19855	0.57401	-0.33929	30.7	13111	100
2025-3-27 18:50:49.761	WT901BLE68-01(48591DE3C19B)	-0.446	-1.367	0.336	23.071	46.265	-175.781	-75.88	-23.09	-108.75	-81.830	-30.282	-1.470	0.71823	-0.19855	0.57401	-0.33929	30.7	13111	100
2025-3-27 18:50:49.761	WT901BLE68-01(48591DE3C19B)	-0.446	-1.371	0.355	24.414	74.158	-135.132	-75.18	-23.97	-109.87	-81.830	-30.282	-1.470	0.71823	-0.19855	0.57401	-0.33929	30.7	13111	100
2025-3-27 18:50:49.761	WT901BLE68-01(48591DE3C19B)	-0.444	-1.371	0.355	24.414	74.158	-135.132	-74.47	-24.83	-111.01	-81.830	-30.282	-1.470	0.71823	-0.19855	0.57401	-0.33929	30.7	13111	100
2025-3-27 18:50:49.761	WT901BLE68-01(48591DE3C19B)	-0.444	-1.380	0.428	18.921	98.450	-92.224	-73.73	-25.19	-112.29	-81.830	-30.282	-1.470	0.71823	-0.19855	0.57401	-0.33929	30.7	13111	100
2025-3-27 18:50:49.819	WT901BLE68-01(48591DE3C19B)	-0.474	-1.380	0.428	18.921	98.450	-92.224	-72.99	-25.54	-113.58	-81.830	-30.282	-1.470	0.71823	-0.19855	0.57401	-0.33929	30.7	13111	100
2025-3-27 18:50:49.820	WT901BLE68-01(48591DE3C19B)	-0.474	-1.397	0.476	13.550	114.075	-49.133	-72.30	-25.42	-114.90	-81.830	-30.282	-1.470	0.31186	-0.45578	0.39017	-0.73663	30.7	13111	100
2025-3-27 18:50:49.820	WT901BLE68-01(48591DE3C19B)	-0.561	-1.397	0.476	13.550	114.075	-49.133	-71.60	-25.28	-116.21	-81.830	-30.282	-1.470	0.31186	-0.45578	0.39017	-0.73663	30.7	13111	100
2025-3-27 18:50:49.820	WT901BLE68-01(48591DE3C19B)	-0.561	-1.320	0.508	5.371	110.291	-10.803	-71.08	-24.78	-117.35	-81.830	-30.282	-1.470	0.31186	-0.45578	0.39017	-0.73663	30.7	13111	100
2025-3-27 18:50:49.849	WT901BLE68-01(48591DE3C19B)	-0.645	-1.320	0.508	5.371	110.291	-10.803	-70.57	-24.27	-118.48	-81.830	-30.282	-1.470	0.31186	-0.45578	0.39017	-0.73663	30.7	13111	100
2025-3-27 18:50:49.849	WT901BLE68-01(48591DE3C19B)	-0.645	-1.310	0.480	-8.789	85.510	24.292	-70.36	-23.50	-119.21	-81.830	-30.282	-1.470	0.31186	-0.45578	0.39017	-0.73663	30.7	13111	100
2025-3-27 18:50:49.849	WT901BLE68-01(48591DE3C19B)	-0.661	-1.310	0.480	-8.789	85.510	24.292	-70.18	-22.74	-119.95	-81.830	-30.282	-1.470	0.31186	-0.45578	0.39017	-0.73663	30.7	13111	100
2025-3-27 18:50:49.849	WT901BLE68-01(48591DE3C19B)	-0.661	-1.293	0.419	-16.785	48.584	55.725	-70.26	-21.80	-120.18	-81.830	-30.282	-1.470	0.31186	-0.45578	0.39017	-0.73663	30.7	13111	100
2025-3-27 18:50:49.878	WT901BLE68-01(48591DE3C19B)	-0.621	-1.293	0.419	-16.785	48.584	55.725	-70.35	-20.86	-120.43	-81.830	-30.282	-1.470	0.31186	-0.45578	0.39017	-0.73663	30.7	13111	100
2025-3-27 18:50:49.878	WT901BLE68-01(48591DE3C19B)	-0.621	-1.227	0.373	-19.226	5.249	86.975	-70.66	-19.78	-120.13	-81.830	-30.282	-1.470	0.31186	-0.45578	0.39017	-0.73663	30.7	13111	100
2025-3-27 18:50:49.878	WT901BLE68-01(48591DE3C19B)	-0.571	-1.227	0.373	-19.226	5.249	86.975	-70.95	-18.70	-119.84	-81.830	-30.282	-1.470	0.31186	-0.45578	0.39017	-0.73663	30.7	13111	100
2025-3-27 18:50:49.878	WT901BLE68-01(48591DE3C19B)	-0.571	-1.148	0.333	-18.188	-32.654	115.662	-71.37	-17.48	-119.10	-81.830	-30.282	-1.470	0.31186	-0.45578	0.39017	-0.73663	30.7	13111	100
2025-3-27 18:50:49.939	WT901BLE68-01(48591DE3C19B)	-0.507	-1.148	0.333	-18.188	-32.654	115.662	-71.77	-16.25	-118.37	-81.830	-30.282	-1.470	0.31186	-0.45578	0.39017	-0.73663	30.7	13111	100
2025-3-27 18:50:49.940	WT901BLE68-01(48591DE3C19B)	-0.507	-1.032	0.282	-13.916	-65.491	141.418	-72.22	-14.89	-117.25	-81.830	-30.282	-1.470	0.31186	-0.45578	0.39017	-0.73663	30.7	13111	100
2025-3-27 18:50:49.940	WT901BLE68-01(48591DE3C19B)	-0.394	-1.032	0.282	-13.916	-65.491	141.418	-72.63	-13.52	-116.15	-81.830	-30.282	-1.470	0.31186	-0.45578	0.39017	-0.73663	30.7	13111	100
2025-3-27 18:50:49.940	WT901BLE68-01(48591DE3C19B)	-0.394	-0.917	0.228	-11.963	-87.097	163.391	-73.05	-12.01	-114.79	-81.830	-30.282	-1.470	0.31186	-0.45578	0.39017	-0.73663	30.7	13111	100
2025-3-27 18:50:49.971	WT901BLE68-01(48591DE3C19B)	-0.289	-0.917	0.228	-11.963	-87.097	163.391	-73.44	-10.49	-113.46	-81.830	-30.282	-1.470	0.31186	-0.45578	0.39017	-0.73663	30.7	13111	100
2025-3-27 18:50:49.971	WT901BLE68-01(48591DE3C19B)	-0.289	-0.953	0.210	-11.047	-92.896	181.885	-73.79	-8.82	-112.03	-81.830	-30.282	-1.470	0.31186	-0.45578	0.39017	-0.73663	30.7	13111	100
2025-3-27 18:50:49.971	WT901BLE68-01(48591DE3C19B)	-0.216	-0.953	0.210	-11.047	-92.896	181.885	-74.09	-7.16	-110.62	-81.830	-30.282	-1.470	0.31186	-0.45578	0.39017	-0.73663	30.7	13111	100
2025-3-27 18:50:49.971	WT901BLE68-01(48591DE3C19B)	-0.216	-1.076	0.208	-2.441	-87.769	197.449	-74.27	-5.33	-109.23	-81.830	-30.282	-1.470	0.31186	-0.45578	0.39017	-0.73663	30.7	13111	100
2025-3-27 18:50:50.5	WT901BLE68-01(48591DE3C19B)	-0.158	-1.076	0.208	-2.441	-87.769	197.449	-74.40	-3.52	-107.85	-81.830	-30.282	-1.470	0.31186	-0.45578	0.39017	-0.73663	30.7	13111	100
2025-3-27 18:50:50.5	WT901BLE68-01(48591DE3C19B)	-0.158	-1.148	0.205	9.705	-77.393	212.402	-74.37	-1.56	-106.53	-81.830	-30.282	-1.470	0.31186	-0.45578	0.39017	-0.73663	30.7	13111	100
2025-3-27 18:50:50.5	WT901BLE68-01(48591DE3C19B)	-0.097	-1.148	0.205	9.705	-77.393	212.402	-74.30	0.38	-105.22	-70.462	-46.060	-3.528	0.31186	-0.45578	0.39017	-0.73663	30.7	13111	100
2025-3-27 18:50:50.5	WT901BLE68-01(48591DE3C19B)	-0.097	-1.187	0.186	19.470	-59.875	224.976	-74.09	2.47	-104.03	-70.462	-46.060	-3.528	0.31186	-0.45578	0.39017	-0.73663	30.7	13111	100
2025-3-27 18:50:50.59	WT901BLE68-01(48591DE3C19B)	-0.060	-1.187	0.186	19.470	-59.875	224.976	-73.83	4.54	-102.83	-70.462	-46.060	-3.528	0.31186	-0.45578	0.39017	-0.73663	30.7	13111	100
2025-3-27 18:50:50.60	WT901BLE68-01(48591DE3C19B)	-0.060	-1.177	0.164	26.794	-32.898	233.582	-73.49	6.74	-101.85	-70.462	-46.060	-3.528	0.31186	-0.45578	0.39017	-0.73663	30.7	13111	100
2025-3-27 18:50:50.60	WT901BLE68-01(48591DE3C19B)	-0.068	-1.177	0.164	26.794	-32.898	233.582	-73.11	8.92	-100.86	-70.462	-46.060	-3.528	0.31186	-0.45578	0.39017	-0.73663	30.7	13111	100
