time	DeviceName	AccX(g)	AccY(g)	AccZ(g)	AsX(°/s)	AsY(°/s)	AsZ(°/s)	AngleX(°)	AngleY(°)	AngleZ(°)	HX(uT)	HY(uT)	HZ(uT)	Q0()	Q1()	Q2()	Q3()	Temperature(°C)	Version()	Battery level(%)
2025-3-27 18:39:16.741	WT901BLE68-01(48591DE3C19B)	-0.295	-0.916	0.298	-0.183	-1.282	-2.441	-70.90	16.12	-23.01	-52.528	-34.790	107.800	-0.80661	0.53943	-0.22757	0.08041	31.0	13111	100
2025-3-27 18:39:16.741	WT901BLE68-01(48591DE3C19B)	-0.295	-0.917	0.301	0.061	-2.014	-2.747	-70.90	16.09	-23.01	-52.528	-34.790	107.800	-0.80661	0.53943	-0.22757	0.08041	31.0	13111	100
2025-3-27 18:39:16.741	WT901BLE68-01(48591DE3C19B)	-0.292	-0.917	0.301	0.061	-2.014	-2.747	-70.91	16.07	-23.00	-52.528	-34.790	107.800	-0.80661	0.53943	-0.22757	0.08041	31.0	13111	100
2025-3-27 18:39:16.741	WT901BLE68-01(48591DE3C19B)	-0.292	-0.919	0.301	0.122	-2.869	-3.052	-70.91	16.03	-22.99	-52.528	-34.790	107.800	-0.80661	0.53943	-0.22757	0.08041	31.0	13111	100
2025-3-27 18:39:16.771	WT901BLE68-01(48591DE3C19B)	-0.289	-0.919	0.301	0.122	-2.869	-3.052	-70.90	16.00	-22.98	-52.528	-34.790	107.800	-0.80661	0.53943	-0.22757	0.08041	31.0	13111	100
2025-3-27 18:39:16.771	WT901BLE68-01(48591DE3C19B)	-0.289	-0.917	0.301	0.427	-2.686	-2.991	-70.90	15.97	-22.96	-52.528	-34.790	107.800	-0.80661	0.53943	-0.22757	0.08041	31.0	13111	100
2025-3-27 18:39:16.771	WT901BLE68-01(48591DE3C19B)	-0.303	-0.917	0.301	0.427	-2.686	-2.991	-70.89	15.94	-22.95	-52.528	-34.790	107.800	-0.80661	0.53943	-0.22757	0.08041	31.0	13111	100
2025-3-27 18:39:16.771	WT901BLE68-01(48591DE3C19B)	-0.303	-0.920	0.296	0.427	-4.089	-3.235	-70.89	15.90	-22.93	-52.528	-34.790	107.800	-0.80661	0.53943	-0.22757	0.08041	31.0	13111	100
2025-3-27 18:39:16.803	WT901BLE68-01(48591DE3C19B)	-0.304	-0.920	0.296	0.427	-4.089	-3.235	-70.88	15.86	-22.91	-52.528	-34.790	107.800	-0.80661	0.53943	-0.22757	0.08041	31.0	13111	100
2025-3-27 18:39:16.803	WT901BLE68-01(48591DE3C19B)	-0.304	-0.929	0.296	-0.488	-5.432	-4.211	-70.88	15.82	-22.87	-52.528	-34.790	107.800	-0.80661	0.53943	-0.22757	0.08041	31.0	13111	100
2025-3-27 18:39:16.803	WT901BLE68-01(48591DE3C19B)	-0.311	-0.929	0.296	-0.488	-5.432	-4.211	-70.88	15.77	-22.84	-52.528	-34.790	107.800	-0.80661	0.53943	-0.22757	0.08041	31.0	13111	100
2025-3-27 18:39:16.803	WT901BLE68-01(48591DE3C19B)	-0.311	-0.923	0.287	-0.366	-6.348	-5.127	-70.88	15.72	-22.80	-52.528	-34.790	107.800	-0.80661	0.53943	-0.22757	0.08041	31.0	13111	100
2025-3-27 18:39:16.861	WT901BLE68-01(48591DE3C19B)	-0.310	-0.923	0.287	-0.366	-6.348	-5.127	-70.88	15.66	-22.76	-52.528	-34.790	107.800	-0.80661	0.53943	-0.22757	0.08041	31.0	13111	100
2025-3-27 18:39:16.862	WT901BLE68-01(48591DE3C19B)	-0.310	-0.912	0.277	-0.977	-8.057	-6.531	-70.88	15.58	-22.71	-51.744	-34.790	107.800	-0.80661	0.53943	-0.22757	0.08041	31.0	13111	100
2025-3-27 18:39:16.862	WT901BLE68-01(48591DE3C19B)	-0.303	-0.912	0.277	-0.977	-8.057	-6.531	-70.88	15.51	-22.66	-51.744	-34.790	107.800	-0.80661	0.53943	-0.22757	0.08041	31.0	13111	100
2025-3-27 18:39:16.862	WT901BLE68-01(48591DE3C19B)	-0.303	-0.893	0.273	-1.404	-7.996	-6.531	-70.88	15.43	-22.61	-51.744	-34.790	107.800	-0.80661	0.53943	-0.22757	0.08041	31.0	13111	100
2025-3-27 18:39:16.895	WT901BLE68-01(48591DE3C19B)	-0.310	-0.893	0.273	-1.404	-7.996	-6.531	-70.89	15.35	-22.55	-51.744	-34.790	107.800	-0.80661	0.53943	-0.22757	0.08041	31.0	13111	100
2025-3-27 18:39:16.895	WT901BLE68-01(48591DE3C19B)	-0.310	-0.880	0.271	-2.502	-8.179	-5.371	-70.91	15.28	-22.50	-51.744	-34.790	107.800	-0.80661	0.53943	-0.22757	0.08041	31.0	13111	100
2025-3-27 18:39:16.895	WT901BLE68-01(48591DE3C19B)	-0.311	-0.880	0.271	-2.502	-8.179	-5.371	-70.92	15.22	-22.44	-51.744	-34.790	107.800	-0.80661	0.53943	-0.22757	0.08041	31.0	13111	100
2025-3-27 18:39:16.895	WT901BLE68-01(48591DE3C19B)	-0.311	-0.873	0.265	-3.540	-9.216	-2.686	-70.94	15.18	-22.36	-51.744	-34.790	107.800	-0.80661	0.53943	-0.22757	0.08041	31.0	13111	100
2025-3-27 18:39:16.922	WT901BLE68-01(48591DE3C19B)	-0.306	-0.873	0.265	-3.540	-9.216	-2.686	-70.97	15.14	-22.29	-51.744	-34.790	107.800	-0.80661	0.53943	-0.22757	0.08041	31.0	13111	100
2025-3-27 18:39:16.922	WT901BLE68-01(48591DE3C19B)	-0.306	-0.882	0.257	-4.761	-11.414	0.366	-71.00	15.12	-22.18	-51.744	-34.790	107.800	-0.80661	0.53943	-0.22757	0.08041	31.0	13111	100
2025-3-27 18:39:16.922	WT901BLE68-01(48591DE3C19B)	-0.298	-0.882	0.257	-4.761	-11.414	0.366	-71.03	15.11	-22.07	-51.744	-34.790	107.800	-0.80661	0.53943	-0.22757	0.08041	31.0	13111	100
2025-3-27 18:39:16.922	WT901BLE68-01(48591DE3C19B)	-0.298	-0.906	0.259	-4.883	-13.428	2.869	-71.05	15.11	-21.93	-51.744	-34.790	107.800	-0.80661	0.53943	-0.22757	0.08041	31.0	13111	100
2025-3-27 18:39:16.982	WT901BLE68-01(48591DE3C19B)	-0.292	-0.906	0.259	-4.883	-13.428	2.869	-71.07	15.11	-21.79	-51.744	-34.790	107.800	-0.80661	0.53943	-0.22757	0.08041	31.0	13111	100
2025-3-27 18:39:16.982	WT901BLE68-01(48591DE3C19B)	-0.292	-0.921	0.271	-3.479	-14.404	4.456	-71.08	15.12	-21.64	-51.744	-34.790	107.800	-0.80661	0.53943	-0.22757	0.08041	31.0	13111	100
2025-3-27 18:39:16.982	WT901BLE68-01(48591DE3C19B)	-0.261	-0.921	0.271	-3.479	-14.404	4.456	-71.08	15.13	-21.48	-51.744	-34.790	107.800	-0.80661	0.53943	-0.22757	0.08041	31.0	13111	100
2025-3-27 18:39:16.983	WT901BLE68-01(48591DE3C19B)	-0.261	-0.945	0.277	-1.343	-12.329	5.066	-71.07	15.15	-21.35	-51.744	-34.790	107.800	-0.80661	0.53943	-0.22757	0.08041	31.0	13111	100
2025-3-27 18:39:17.14	WT901BLE68-01(48591DE3C19B)	-0.243	-0.945	0.277	-1.343	-12.329	5.066	-71.07	15.17	-21.21	-51.744	-34.790	107.800	-0.80661	0.53943	-0.22757	0.08041	31.0	13111	100
2025-3-27 18:39:17.14	WT901BLE68-01(48591DE3C19B)	-0.243	-0.958	0.268	1.221	-5.432	5.066	-71.05	15.21	-21.15	-51.744	-34.790	107.800	-0.80661	0.53943	-0.22757	0.08041	31.0	13111	100
2025-3-27 18:39:17.14	WT901BLE68-01(48591DE3C19B)	-0.257	-0.958	0.268	1.221	-5.432	5.066	-71.03	15.25	-21.08	-51.744	-34.790	107.800	-0.80661	0.53943	-0.22757	0.08041	31.0	13111	100
2025-3-27 18:39:17.14	WT901BLE68-01(48591DE3C19B)	-0.257	-0.983	0.273	3.540	-0.916	4.272	-71.00	15.29	-21.06	-51.744	-34.790	107.800	-0.80661	0.53943	-0.22757	0.08041	31.0	13111	100
2025-3-27 18:39:17.43	WT901BLE68-01(48591DE3C19B)	-0.262	-0.983	0.273	3.540	-0.916	4.272	-70.98	15.34	-21.04	-51.744	-34.790	107.800	-0.80661	0.53943	-0.22757	0.08041	31.0	13111	100
2025-3-27 18:39:17.43	WT901BLE68-01(48591DE3C19B)	-0.262	-0.984	0.290	5.066	0.244	2.625	-70.94	15.36	-21.03	-51.744	-34.790	107.800	-0.80661	0.53943	-0.22757	0.08041	31.0	13111	100
2025-3-27 18:39:17.43	WT901BLE68-01(48591DE3C19B)	-0.247	-0.984	0.290	5.066	0.244	2.625	-70.91	15.39	-21.03	-51.744	-34.790	107.800	-0.80792	0.54501	-0.21222	0.07098	31.0	13111	100
2025-3-27 18:39:17.43	WT901BLE68-01(48591DE3C19B)	-0.247	-0.998	0.298	6.714	1.038	0.427	-70.86	15.40	-21.04	-51.744	-34.790	107.800	-0.80792	0.54501	-0.21222	0.07098	31.0	13111	100
2025-3-27 18:39:17.101	WT901BLE68-01(48591DE3C19B)	-0.223	-0.998	0.298	6.714	1.038	0.427	-70.81	15.41	-21.06	-51.744	-34.790	107.800	-0.80792	0.54501	-0.21222	0.07098	31.0	13111	100
2025-3-27 18:39:17.101	WT901BLE68-01(48591DE3C19B)	-0.223	-0.976	0.315	8.850	1.770	-1.282	-70.74	15.40	-21.08	-51.744	-34.790	107.800	-0.80792	0.54501	-0.21222	0.07098	31.0	13111	100
2025-3-27 18:39:17.101	WT901BLE68-01(48591DE3C19B)	-0.209	-0.976	0.315	8.850	1.770	-1.282	-70.68	15.39	-21.10	-51.744	-34.790	107.800	-0.80792	0.54501	-0.21222	0.07098	31.0	13111	100
2025-3-27 18:39:17.101	WT901BLE68-01(48591DE3C19B)	-0.209	-0.944	0.336	10.681	3.174	-1.953	-70.59	15.38	-21.14	-51.744	-34.790	107.800	-0.80792	0.54501	-0.21222	0.07098	31.0	13111	100
2025-3-27 18:39:17.131	WT901BLE68-01(48591DE3C19B)	-0.188	-0.944	0.336	10.681	3.174	-1.953	-70.51	15.36	-21.19	-51.744	-34.790	107.800	-0.80792	0.54501	-0.21222	0.07098	31.0	13111	100
2025-3-27 18:39:17.131	WT901BLE68-01(48591DE3C19B)	-0.188	-0.924	0.349	12.756	3.967	0.000	-70.41	15.36	-21.23	-51.744	-34.790	107.800	-0.80792	0.54501	-0.21222	0.07098	31.0	13111	100
2025-3-27 18:39:17.131	WT901BLE68-01(48591DE3C19B)	-0.161	-0.924	0.349	12.756	3.967	0.000	-70.30	15.37	-21.27	-51.744	-34.790	107.800	-0.80792	0.54501	-0.21222	0.07098	31.0	13111	100
2025-3-27 18:39:17.131	WT901BLE68-01(48591DE3C19B)	-0.161	-0.901	0.358	15.015	5.615	3.967	-70.17	15.41	-21.31	-51.744	-34.790	107.800	-0.80792	0.54501	-0.21222	0.07098	31.0	13111	100
2025-3-27 18:39:17.162	WT901BLE68-01(48591DE3C19B)	-0.137	-0.901	0.358	15.015	5.615	3.967	-70.04	15.45	-21.36	-51.744	-34.790	107.800	-0.80792	0.54501	-0.21222	0.07098	31.0	13111	100
2025-3-27 18:39:17.162	WT901BLE68-01(48591DE3C19B)	-0.137	-0.883	0.372	17.578	8.240	8.301	-69.88	15.54	-21.41	-51.744	-34.790	107.800	-0.80792	0.54501	-0.21222	0.07098	31.0	13111	100
2025-3-27 18:39:17.162	WT901BLE68-01(48591DE3C19B)	-0.106	-0.883	0.372	17.578	8.240	8.301	-69.73	15.63	-21.47	-51.744	-34.790	107.800	-0.80792	0.54501	-0.21222	0.07098	31.0	13111	100
2025-3-27 18:39:17.162	WT901BLE68-01(48591DE3C19B)	-0.106	-0.851	0.364	19.104	12.390	13.123	-69.57	15.77	-21.54	-51.744	-34.790	107.800	-0.80792	0.54501	-0.21222	0.07098	31.0	13111	100
2025-3-27 18:39:17.222	WT901BLE68-01(48591DE3C19B)	-0.104	-0.851	0.364	19.104	12.390	13.123	-69.40	15.91	-21.62	-51.744	-34.790	107.800	-0.80792	0.54501	-0.21222	0.07098	31.0	13111	100
2025-3-27 18:39:17.222	WT901BLE68-01(48591DE3C19B)	-0.104	-0.821	0.325	16.785	15.381	17.090	-69.26	16.09	-21.71	-51.744	-34.790	107.800	-0.80792	0.54501	-0.21222	0.07098	31.0	13111	100
2025-3-27 18:39:17.222	WT901BLE68-01(48591DE3C19B)	-0.136	-0.821	0.325	16.785	15.381	17.090	-69.11	16.27	-21.80	-51.744	-34.790	107.800	-0.80792	0.54501	-0.21222	0.07098	31.0	13111	100
2025-3-27 18:39:17.222	WT901BLE68-01(48591DE3C19B)	-0.136	-0.891	0.311	8.972	14.893	16.174	-69.05	16.44	-21.88	-51.744	-34.790	107.800	-0.80792	0.54501	-0.21222	0.07098	31.0	13111	100
2025-3-27 18:39:17.252	WT901BLE68-01(48591DE3C19B)	-0.208	-0.891	0.311	8.972	14.893	16.174	-68.99	16.60	-21.97	-51.744	-34.790	107.800	-0.80792	0.54501	-0.21222	0.07098	31.0	13111	100
2025-3-27 18:39:17.252	WT901BLE68-01(48591DE3C19B)	-0.208	-1.064	0.355	1.343	4.578	7.751	-68.99	16.65	-21.99	-51.744	-34.790	107.800	-0.80792	0.54501	-0.21222	0.07098	31.0	13111	100
2025-3-27 18:39:17.252	WT901BLE68-01(48591DE3C19B)	-0.235	-1.064	0.355	1.343	4.578	7.751	-68.99	16.70	-22.01	-51.744	-34.790	107.800	-0.80792	0.54501	-0.21222	0.07098	31.0	13111	100
2025-3-27 18:39:17.252	WT901BLE68-01(48591DE3C19B)	-0.235	-1.199	0.435	-0.671	-6.042	-6.104	-68.99	16.58	-21.98	-50.666	-32.732	108.780	-0.80792	0.54501	-0.21222	0.07098	31.0	13111	100
2025-3-27 18:39:17.284	WT901BLE68-01(48591DE3C19B)	-0.230	-1.199	0.435	-0.671	-6.042	-6.104	-69.00	16.46	-21.95	-50.666	-32.732	108.780	-0.80792	0.54501	-0.21222	0.07098	31.0	13111	100
2025-3-27 18:39:17.284	WT901BLE68-01(48591DE3C19B)	-0.230	-1.200	0.477	2.563	-4.089	-20.813	-68.99	16.22	-21.99	-50.666	-32.732	108.780	-0.80792	0.54501	-0.21222	0.07098	31.0	13111	100
2025-3-27 18:39:17.284	WT901BLE68-01(48591DE3C19B)	-0.243	-1.200	0.477	2.563	-4.089	-20.813	-68.98	15.97	-22.03	-50.666	-32.732	108.780	-0.80792	0.54501	-0.21222	0.07098	31.0	13111	100
2025-3-27 18:39:17.284	WT901BLE68-01(48591DE3C19B)	-0.243	-1.068	0.454	6.165	9.460	-34.180	-68.98	15.66	-22.25	-50.666	-32.732	108.780	-0.80792	0.54501	-0.21222	0.07098	31.0	13111	100
2025-3-27 18:39:17.342	WT901BLE68-01(48591DE3C19B)	-0.235	-1.068	0.454	6.165	9.460	-34.180	-68.98	15.34	-22.47	-50.666	-32.732	108.780	-0.80792	0.54501	-0.21222	0.07098	31.0	13111	100
2025-3-27 18:39:17.342	WT901BLE68-01(48591DE3C19B)	-0.235	-0.906	0.382	8.728	27.893	-43.640	-69.01	15.01	-22.91	-50.666	-32.732	108.780	-0.80792	0.54501	-0.21222	0.07098	31.0	13111	100
2025-3-27 18:39:17.342	WT901BLE68-01(48591DE3C19B)	-0.240	-0.906	0.382	8.728	27.893	-43.640	-69.03	14.67	-23.34	-50.666	-32.732	108.780	-0.80792	0.54501	-0.21222	0.07098	31.0	13111	100
2025-3-27 18:39:17.342	WT901BLE68-01(48591DE3C19B)	-0.259	-0.761	0.322	9.644	48.950	-47.363	-69.09	14.39	-23.99	-50.666	-32.732	108.780	-0.80792	0.54501	-0.21222	0.07098	31.0	13111	100
2025-3-27 18:39:17.370	WT901BLE68-01(48591DE3C19B)	-0.259	-0.652	0.297	9.399	66.772	-49.744	-69.18	14.12	-24.73	-50.666	-32.732	108.780	-0.80792	0.54501	-0.21222	0.07098	31.0	13111	100
2025-3-27 18:39:17.371	WT901BLE68-01(48591DE3C19B)	-0.262	-0.652	0.297	9.399	66.772	-49.744	-69.28	13.89	-25.55	-50.666	-32.732	108.780	-0.80792	0.54501	-0.21222	0.07098	31.0	13111	100
2025-3-27 18:39:17.371	WT901BLE68-01(48591DE3C19B)	-0.262	-0.616	0.284	6.775	76.904	-48.950	-69.40	13.67	-26.43	-50.666	-32.732	108.780	-0.80792	0.54501	-0.21222	0.07098	31.0	13111	100
2025-3-27 18:39:17.371	WT901BLE68-01(48591DE3C19B)	-0.280	-0.616	0.284	6.775	76.904	-48.950	-69.54	13.49	-27.35	-50.666	-32.732	108.780	-0.80792	0.54501	-0.21222	0.07098	31.0	13111	100
2025-3-27 18:39:17.401	WT901BLE68-01(48591DE3C19B)	-0.280	-0.621	0.273	5.981	87.341	-47.363	-69.69	13.32	-28.32	-50.666	-32.732	108.780	-0.80792	0.54501	-0.21222	0.07098	31.0	13111	100
2025-3-27 18:39:17.401	WT901BLE68-01(48591DE3C19B)	-0.375	-0.621	0.273	5.981	87.341	-47.363	-69.85	13.19	-29.33	-50.666	-32.732	108.780	-0.80792	0.54501	-0.21222	0.07098	31.0	13111	100
2025-3-27 18:39:17.401	WT901BLE68-01(48591DE3C19B)	-0.375	-0.666	0.259	5.859	93.201	-44.556	-70.00	13.08	-30.36	-50.666	-32.732	108.780	-0.80792	0.54501	-0.21222	0.07098	31.0	13111	100
2025-3-27 18:39:17.401	WT901BLE68-01(48591DE3C19B)	-0.495	-0.666	0.259	5.859	93.201	-44.556	-70.17	13.00	-31.42	-50.666	-32.732	108.780	-0.80792	0.54501	-0.21222	0.07098	31.0	13111	100
2025-3-27 18:39:17.462	WT901BLE68-01(48591DE3C19B)	-0.495	-0.724	0.271	6.897	89.111	-42.664	-70.32	12.93	-32.46	-50.666	-32.732	108.780	-0.80792	0.54501	-0.21222	0.07098	31.0	13111	100
2025-3-27 18:39:17.462	WT901BLE68-01(48591DE3C19B)	-0.601	-0.724	0.271	6.897	89.111	-42.664	-70.47	12.86	-33.47	-50.666	-32.732	108.780	-0.80792	0.54501	-0.21222	0.07098	31.0	13111	100
2025-3-27 18:39:17.462	WT901BLE68-01(48591DE3C19B)	-0.601	-0.800	0.302	6.348	70.984	-41.687	-70.59	12.78	-34.39	-50.666	-32.732	108.780	-0.80792	0.54501	-0.21222	0.07098	31.0	13111	100
2025-3-27 18:39:17.462	WT901BLE68-01(48591DE3C19B)	-0.694	-0.800	0.302	6.348	70.984	-41.687	-70.69	12.68	-35.22	-50.666	-32.732	108.780	-0.80792	0.54501	-0.21222	0.07098	31.0	13111	100
2025-3-27 18:39:17.552	WT901BLE68-01(48591DE3C19B)	-0.694	-0.882	0.323	6.958	41.992	-39.185	-70.76	12.55	-35.91	-50.666	-32.732	108.780	-0.79044	0.51999	-0.26221	0.18964	31.0	13111	100
2025-3-27 18:39:17.552	WT901BLE68-01(48591DE3C19B)	-0.743	-0.882	0.323	6.958	41.992	-39.185	-70.79	12.39	-36.45	-50.666	-32.732	108.780	-0.79044	0.51999	-0.26221	0.18964	31.0	13111	100
2025-3-27 18:39:17.552	WT901BLE68-01(48591DE3C19B)	-0.743	-0.916	0.324	8.545	5.188	-38.513	-70.78	12.19	-36.82	-50.666	-32.732	108.780	-0.79044	0.51999	-0.26221	0.18964	31.0	13111	100
2025-3-27 18:39:17.552	WT901BLE68-01(48591DE3C19B)	-0.687	-0.916	0.324	8.545	5.188	-38.513	-70.72	11.94	-37.01	-50.666	-32.732	108.780	-0.79044	0.51999	-0.26221	0.18964	31.0	13111	100
2025-3-27 18:39:17.553	WT901BLE68-01(48591DE3C19B)	-0.687	-0.964	0.316	5.371	-26.245	-37.598	-70.64	11.65	-37.04	-50.666	-32.732	108.780	-0.79044	0.51999	-0.26221	0.18964	31.0	13111	100
2025-3-27 18:39:17.553	WT901BLE68-01(48591DE3C19B)	-0.644	-0.964	0.316	5.371	-26.245	-37.598	-70.56	11.32	-36.92	-50.666	-32.732	108.780	-0.79044	0.51999	-0.26221	0.18964	31.0	13111	100
2025-3-27 18:39:17.553	WT901BLE68-01(48591DE3C19B)	-0.644	-1.069	0.318	1.221	-45.715	-38.330	-70.48	10.95	-36.71	-50.666	-32.732	108.780	-0.79044	0.51999	-0.26221	0.18964	31.0	13111	100
2025-3-27 18:39:17.553	WT901BLE68-01(48591DE3C19B)	-0.611	-1.069	0.318	1.221	-45.715	-38.330	-70.41	10.55	-36.40	-50.666	-32.732	108.780	-0.79044	0.51999	-0.26221	0.18964	31.0	13111	100
2025-3-27 18:39:17.583	WT901BLE68-01(48591DE3C19B)	-0.611	-1.182	0.338	-2.930	-57.678	-40.955	-70.35	10.12	-36.05	-50.666	-32.732	108.780	-0.79044	0.51999	-0.26221	0.18964	31.0	13111	100
2025-3-27 18:39:17.583	WT901BLE68-01(48591DE3C19B)	-0.569	-1.182	0.338	-2.930	-57.678	-40.955	-70.31	9.66	-35.64	-50.666	-32.732	108.780	-0.79044	0.51999	-0.26221	0.18964	31.0	13111	100
2025-3-27 18:39:17.583	WT901BLE68-01(48591DE3C19B)	-2.277	-1.271	0.382	-7.446	-60.242	-44.189	-70.30	9.18	-35.22	-50.666	-32.732	108.780	-0.79044	0.51999	-0.26221	0.18964	31.0	13111	100
2025-3-27 18:39:17.584	WT901BLE68-01(48591DE3C19B)	-0.551	-5.086	1.528	-7.446	-60.242	-44.189	-70.32	8.67	-34.80	-50.666	-32.732	108.780	-0.79044	0.51999	-0.26221	0.18964	31.0	13111	100
2025-3-27 18:39:17.614	WT901BLE68-01(48591DE3C19B)	-0.551	-1.326	0.415	-13.306	-54.199	-46.875	-70.38	8.16	-34.41	-50.666	-32.732	108.780	-0.79044	0.51999	-0.26221	0.18964	31.0	13111	100
2025-3-27 18:39:17.614	WT901BLE68-01(48591DE3C19B)	-0.547	-1.326	0.415	-13.306	-54.199	-46.875	-70.47	7.64	-34.05	-50.666	-32.732	108.780	-0.79044	0.51999	-0.26221	0.18964	31.0	13111	100
2025-3-27 18:39:17.614	WT901BLE68-01(48591DE3C19B)	-0.547	-1.331	0.439	-19.470	-45.654	-47.974	-70.61	7.14	-33.74	-50.666	-32.732	108.780	-0.79044	0.51999	-0.26221	0.18964	31.0	13111	100
2025-3-27 18:39:17.614	WT901BLE68-01(48591DE3C19B)	-0.540	-1.331	0.439	-19.470	-45.654	-47.974	-70.78	6.64	-33.46	-50.666	-32.732	108.780	-0.79044	0.51999	-0.26221	0.18964	31.0	13111	100
2025-3-27 18:39:17.671	WT901BLE68-01(48591DE3C19B)	-0.540	-1.324	0.434	-26.489	-37.842	-48.645	-70.99	6.16	-33.22	-50.666	-32.732	108.780	-0.79044	0.51999	-0.26221	0.18964	31.0	13111	100
2025-3-27 18:39:17.671	WT901BLE68-01(48591DE3C19B)	-0.561	-1.324	0.434	-26.489	-37.842	-48.645	-71.24	5.69	-33.02	-50.666	-32.732	108.780	-0.79044	0.51999	-0.26221	0.18964	31.0	13111	100
2025-3-27 18:39:17.671	WT901BLE68-01(48591DE3C19B)	-0.561	-1.303	0.397	-28.564	-34.851	-47.791	-71.50	5.23	-32.83	-59.878	-32.144	109.270	-0.79044	0.51999	-0.26221	0.18964	31.0	13111	100
2025-3-27 18:39:17.671	WT901BLE68-01(48591DE3C19B)	-0.599	-1.303	0.397	-28.564	-34.851	-47.791	-71.77	4.78	-32.65	-59.878	-32.144	109.270	-0.79044	0.51999	-0.26221	0.18964	31.0	13111	100
2025-3-27 18:39:17.700	WT901BLE68-01(48591DE3C19B)	-0.599	-1.095	0.369	-24.658	-43.030	-38.391	-72.03	4.37	-32.42	-59.878	-32.144	109.270	-0.79044	0.51999	-0.26221	0.18964	31.0	13111	100
2025-3-27 18:39:17.700	WT901BLE68-01(48591DE3C19B)	-0.586	-1.095	0.369	-24.658	-43.030	-38.391	-72.25	3.99	-32.12	-59.878	-32.144	109.270	-0.79044	0.51999	-0.26221	0.18964	31.0	13111	100
2025-3-27 18:39:17.700	WT901BLE68-01(48591DE3C19B)	-0.586	-0.840	0.283	-24.353	-62.012	-19.836	-72.47	3.67	-31.71	-59.878	-32.144	109.270	-0.79044	0.51999	-0.26221	0.18964	31.0	13111	100
2025-3-27 18:39:17.700	WT901BLE68-01(48591DE3C19B)	-0.560	-0.840	0.283	-24.353	-62.012	-19.836	-72.67	3.43	-31.17	-59.878	-32.144	109.270	-0.79044	0.51999	-0.26221	0.18964	31.0	13111	100
2025-3-27 18:39:17.731	WT901BLE68-01(48591DE3C19B)	-0.560	-0.678	0.174	-30.334	-87.891	4.700	-72.91	3.27	-30.48	-59.878	-32.144	109.270	-0.79044	0.51999	-0.26221	0.18964	31.0	13111	100
2025-3-27 18:39:17.732	WT901BLE68-01(48591DE3C19B)	-0.524	-0.678	0.174	-30.334	-87.891	4.700	-73.16	3.20	-29.62	-59.878	-32.144	109.270	-0.79044	0.51999	-0.26221	0.18964	31.0	13111	100
2025-3-27 18:39:17.732	WT901BLE68-01(48591DE3C19B)	-0.524	-0.714	0.092	-36.987	-119.263	30.090	-73.43	3.21	-28.58	-59.878	-32.144	109.270	-0.79044	0.51999	-0.26221	0.18964	31.0	13111	100
2025-3-27 18:39:17.732	WT901BLE68-01(48591DE3C19B)	-0.449	-0.714	0.092	-36.987	-119.263	30.090	-73.73	3.31	-27.34	-59.878	-32.144	109.270	-0.79044	0.51999	-0.26221	0.18964	31.0	13111	100
2025-3-27 18:39:17.762	WT901BLE68-01(48591DE3C19B)	-0.449	-0.833	0.061	-36.072	-151.489	54.382	-74.01	3.49	-25.92	-59.878	-32.144	109.270	-0.79044	0.51999	-0.26221	0.18964	31.0	13111	100
2025-3-27 18:39:17.762	WT901BLE68-01(48591DE3C19B)	-0.328	-0.833	0.061	-36.072	-151.489	54.382	-74.28	3.75	-24.31	-59.878	-32.144	109.270	-0.79044	0.51999	-0.26221	0.18964	31.0	13111	100
2025-3-27 18:39:17.762	WT901BLE68-01(48591DE3C19B)	-0.328	-0.948	0.070	-28.931	-169.617	76.843	-74.49	4.09	-22.57	-59.878	-32.144	109.270	-0.79044	0.51999	-0.26221	0.18964	31.0	13111	100
2025-3-27 18:39:17.762	WT901BLE68-01(48591DE3C19B)	-0.247	-0.948	0.070	-28.931	-169.617	76.843	-74.66	4.52	-20.72	-59.878	-32.144	109.270	-0.79044	0.51999	-0.26221	0.18964	31.0	13111	100
2025-3-27 18:39:17.824	WT901BLE68-01(48591DE3C19B)	-0.247	-0.961	0.086	-14.954	-167.297	94.727	-74.74	5.03	-18.85	-59.878	-32.144	109.270	-0.79044	0.51999	-0.26221	0.18964	31.0	13111	100
2025-3-27 18:39:17.824	WT901BLE68-01(48591DE3C19B)	-0.171	-0.961	0.086	-14.954	-167.297	94.727	-74.74	5.63	-16.97	-59.878	-32.144	109.270	-0.79044	0.51999	-0.26221	0.18964	31.0	13111	100
2025-3-27 18:39:17.824	WT901BLE68-01(48591DE3C19B)	-0.171	-0.906	0.089	-3.723	-151.123	108.887	-74.67	6.30	-15.14	-59.878	-32.144	109.270	-0.79044	0.51999	-0.26221	0.18964	31.0	13111	100
2025-3-27 18:39:17.824	WT901BLE68-01(48591DE3C19B)	-0.104	-0.906	0.089	-3.723	-151.123	108.887	-74.53	7.05	-13.36	-59.878	-32.144	109.270	-0.79044	0.51999	-0.26221	0.18964	31.0	13111	100
2025-3-27 18:39:17.852	WT901BLE68-01(48591DE3C19B)	-0.104	-0.840	0.094	3.479	-121.521	120.911	-74.33	7.97	-11.84	-59.878	-32.144	109.270	-0.79044	0.51999	-0.26221	0.18964	31.0	13111	100
2025-3-27 18:39:17.852	WT901BLE68-01(48591DE3C19B)	-0.090	-0.840	0.094	3.479	-121.521	120.911	-74.11	8.88	-10.32	-59.878	-32.144	109.270	-0.79044	0.51999	-0.26221	0.18964	31.0	13111	100
2025-3-27 18:39:17.852	WT901BLE68-01(48591DE3C19B)	-0.090	-0.857	0.102	5.676	-87.158	131.714	-73.89	9.96	-9.08	-59.878	-32.144	109.270	-0.79044	0.51999	-0.26221	0.18964	31.0	13111	100
2025-3-27 18:39:17.852	WT901BLE68-01(48591DE3C19B)	-0.070	-0.857	0.102	5.676	-87.158	131.714	-73.65	11.04	-7.84	-59.878	-32.144	109.270	-0.79880	0.58990	-0.11761	-0.00299	31.0	13111	100
2025-3-27 18:39:17.912	WT901BLE68-01(48591DE3C19B)	-0.070	-0.878	0.088	8.423	-53.650	138.916	-73.42	12.25	-6.90	-59.878	-32.144	109.270	-0.79880	0.58990	-0.11761	-0.00299	31.0	13111	100
2025-3-27 18:39:17.912	WT901BLE68-01(48591DE3C19B)	-0.010	-0.878	0.088	8.423	-53.650	138.916	-73.17	13.45	-5.96	-59.878	-32.144	109.270	-0.79880	0.58990	-0.11761	-0.00299	31.0	13111	100
2025-3-27 18:39:17.912	WT901BLE68-01(48591DE3C19B)	-0.010	-0.830	0.071	7.324	-22.522	140.503	-72.99	14.73	-5.31	-59.878	-32.144	109.270	-0.79880	0.58990	-0.11761	-0.00299	31.0	13111	100
2025-3-27 18:39:17.912	WT901BLE68-01(48591DE3C19B)	0.040	-0.830	0.071	7.324	-22.522	140.503	-72.80	16.00	-4.65	-59.878	-32.144	109.270	-0.79880	0.58990	-0.11761	-0.00299	31.0	13111	100
2025-3-27 18:39:17.941	WT901BLE68-01(48591DE3C19B)	0.040	-0.906	0.061	0.366	7.629	135.010	-72.76	17.28	-4.31	-59.878	-32.144	109.270	-0.79880	0.58990	-0.11761	-0.00299	31.0	13111	100
2025-3-27 18:39:17.941	WT901BLE68-01(48591DE3C19B)	0.059	-0.906	0.061	0.366	7.629	135.010	-72.71	18.55	-3.96	-59.878	-32.144	109.270	-0.79880	0.58990	-0.11761	-0.00299	31.0	13111	100
2025-3-27 18:39:17.941	WT901BLE68-01(48591DE3C19B)	0.059	-1.079	0.063	-5.249	35.950	126.770	-72.81	19.81	-3.93	-59.878	-32.144	109.270	-0.79880	0.58990	-0.11761	-0.00299	31.0	13111	100
2025-3-27 18:39:17.941	WT901BLE68-01(48591DE3C19B)	0.039	-1.079	0.063	-5.249	35.950	126.770	-72.92	21.06	-3.91	-59.878	-32.144	109.270	-0.79880	0.58990	-0.11761	-0.00299	31.0	13111	100
2025-3-27 18:39:17.972	WT901BLE68-01(48591DE3C19B)	0.039	-1.296	0.070	-8.179	59.143	115.295	-73.16	22.24	-4.16	-59.878	-32.144	109.270	-0.79880	0.58990	-0.11761	-0.00299	31.0	13111	100
2025-3-27 18:39:17.972	WT901BLE68-01(48591DE3C19B)	-0.025	-1.296	0.070	-8.179	59.143	115.295	-73.41	23.41	-4.43	-59.878	-32.144	109.270	-0.79880	0.58990	-0.11761	-0.00299	31.0	13111	100
2025-3-27 18:39:17.972	WT901BLE68-01(48591DE3C19B)	-0.025	-1.553	0.055	-11.536	68.542	99.426	-73.76	24.44	-4.86	-59.878	-32.144	109.270	-0.79880	0.58990	-0.11761	-0.00299	31.0	13111	100
2025-3-27 18:39:17.972	WT901BLE68-01(48591DE3C19B)	-0.073	-1.553	0.055	-11.536	68.542	99.426	-74.12	25.47	-5.30	-59.878	-32.144	109.270	-0.79880	0.58990	-0.11761	-0.00299	31.0	13111	100
2025-3-27 18:39:18.0	WT901BLE68-01(48591DE3C19B)	-0.073	-1.771	0.011	-11.536	52.795	77.759	-74.46	26.23	-5.65	-59.878	-32.144	109.270	-0.79880	0.58990	-0.11761	-0.00299	31.0	13111	100
2025-3-27 18:39:18.1	WT901BLE68-01(48591DE3C19B)	-0.049	-1.771	0.011	-11.536	52.795	77.759	-74.81	26.99	-6.01	-59.878	-32.144	109.270	-0.79880	0.58990	-0.11761	-0.00299	31.0	13111	100
2025-3-27 18:39:18.1	WT901BLE68-01(48591DE3C19B)	-0.049	-1.891	0.010	-9.338	21.484	57.129	-75.00	27.45	-6.10	-59.878	-32.144	109.270	-0.79880	0.58990	-0.11761	-0.00299	31.0	13111	100
2025-3-27 18:39:18.1	WT901BLE68-01(48591DE3C19B)	0.004	-1.891	0.010	-9.338	21.484	57.129	-75.21	27.92	-6.19	-59.878	-32.144	109.270	-0.79880	0.58990	-0.11761	-0.00299	31.0	13111	100
2025-3-27 18:39:18.62	WT901BLE68-01(48591DE3C19B)	0.004	-1.835	0.088	1.526	-12.939	38.879	-75.16	28.11	-5.96	-59.878	-32.144	109.270	-0.79880	0.58990	-0.11761	-0.00299	31.0	13111	100
2025-3-27 18:39:18.62	WT901BLE68-01(48591DE3C19B)	0.117	-1.835	0.088	1.526	-12.939	38.879	-75.10	28.30	-5.73	-59.878	-32.144	109.270	-0.79880	0.58990	-0.11761	-0.00299	31.0	13111	100
2025-3-27 18:39:18.62	WT901BLE68-01(48591DE3C19B)	0.117	-1.619	0.170	9.583	-38.330	21.606	-74.86	28.26	-5.28	-59.878	-32.144	109.270	-0.79880	0.58990	-0.11761	-0.00299	31.0	13111	100
2025-3-27 18:39:18.62	WT901BLE68-01(48591DE3C19B)	0.261	-1.619	0.170	9.583	-38.330	21.606	-74.61	28.20	-4.82	-59.878	-32.144	109.270	-0.79880	0.58990	-0.11761	-0.00299	31.0	13111	100
2025-3-27 18:39:18.96	WT901BLE68-01(48591DE3C19B)	0.261	-1.459	0.224	13.672	-40.710	6.592	-74.34	27.99	-4.38	-44.786	-49.588	108.682	-0.79880	0.58990	-0.11761	-0.00299	31.0	13111	100
2025-3-27 18:39:18.96	WT901BLE68-01(48591DE3C19B)	0.342	-1.459	0.224	13.672	-40.710	6.592	-74.06	27.78	-3.95	-44.786	-49.588	108.682	-0.79880	0.58990	-0.11761	-0.00299	31.0	13111	100
2025-3-27 18:39:18.96	WT901BLE68-01(48591DE3C19B)	0.342	-1.348	0.247	18.982	-20.935	-9.033	-73.86	27.46	-3.78	-44.786	-49.588	108.682	-0.79880	0.58990	-0.11761	-0.00299	31.0	13111	100
2025-3-27 18:39:18.96	WT901BLE68-01(48591DE3C19B)	0.393	-1.348	0.247	18.982	-20.935	-9.033	-73.65	27.14	-3.61	-44.786	-49.588	108.682	-0.79880	0.58990	-0.11761	-0.00299	31.0	13111	100
2025-3-27 18:39:18.122	WT901BLE68-01(48591DE3C19B)	0.393	-1.262	0.207	26.917	14.771	-28.564	-73.57	26.72	-3.89	-44.786	-49.588	108.682	-0.79880	0.58990	-0.11761	-0.00299	31.0	13111	100
2025-3-27 18:39:18.122	WT901BLE68-01(48591DE3C19B)	0.402	-1.262	0.207	26.917	14.771	-28.564	-73.48	26.30	-4.17	-44.786	-49.588	108.682	-0.79880	0.58990	-0.11761	-0.00299	31.0	13111	100
2025-3-27 18:39:18.122	WT901BLE68-01(48591DE3C19B)	0.402	-1.040	0.172	36.011	56.702	-45.593	-73.52	25.83	-4.94	-44.786	-49.588	108.682	-0.79880	0.58990	-0.11761	-0.00299	31.0	13111	100
2025-3-27 18:39:18.122	WT901BLE68-01(48591DE3C19B)	0.333	-1.040	0.172	36.011	56.702	-45.593	-73.55	25.36	-5.71	-44.786	-49.588	108.682	-0.79880	0.58990	-0.11761	-0.00299	31.0	13111	100
2025-3-27 18:39:18.182	WT901BLE68-01(48591DE3C19B)	0.333	-0.850	0.170	36.743	88.013	-59.204	-73.72	24.85	-6.86	-44.786	-49.588	108.682	-0.79880	0.58990	-0.11761	-0.00299	31.0	13111	100
2025-3-27 18:39:18.182	WT901BLE68-01(48591DE3C19B)	0.213	-0.850	0.170	36.743	88.013	-59.204	-73.88	24.32	-7.99	-44.786	-49.588	108.682	-0.79880	0.58990	-0.11761	-0.00299	31.0	13111	100
2025-3-27 18:39:18.182	WT901BLE68-01(48591DE3C19B)	0.213	-0.789	0.185	34.790	103.943	-70.313	-74.12	23.74	-9.32	-44.786	-49.588	108.682	-0.79880	0.58990	-0.11761	-0.00299	31.0	13111	100
2025-3-27 18:39:18.183	WT901BLE68-01(48591DE3C19B)	0.117	-0.789	0.185	34.790	103.943	-70.313	-74.34	23.14	-10.63	-44.786	-49.588	108.682	-0.79880	0.58990	-0.11761	-0.00299	31.0	13111	100
2025-3-27 18:39:18.212	WT901BLE68-01(48591DE3C19B)	0.117	-0.792	0.209	34.485	105.042	-79.468	-74.56	22.46	-11.98	-44.786	-49.588	108.682	-0.79880	0.58990	-0.11761	-0.00299	31.0	13111	100
2025-3-27 18:39:18.212	WT901BLE68-01(48591DE3C19B)	0.050	-0.792	0.209	34.485	105.042	-79.468	-74.76	21.79	-13.30	-44.786	-49.588	108.682	-0.79880	0.58990	-0.11761	-0.00299	31.0	13111	100
2025-3-27 18:39:18.212	WT901BLE68-01(48591DE3C19B)	0.050	-0.798	0.216	34.912	93.506	-87.219	-74.89	21.01	-14.53	-44.786	-49.588	108.682	-0.79880	0.58990	-0.11761	-0.00299	31.0	13111	100
2025-3-27 18:39:18.212	WT901BLE68-01(48591DE3C19B)	-0.002	-0.798	0.216	34.912	93.506	-87.219	-75.00	20.23	-15.74	-44.786	-49.588	108.682	-0.79880	0.58990	-0.11761	-0.00299	31.0	13111	100
2025-3-27 18:39:18.272	WT901BLE68-01(48591DE3C19B)	-0.002	-0.775	0.210	34.729	80.078	-96.436	-75.05	19.34	-16.84	-44.786	-49.588	108.682	-0.79880	0.58990	-0.11761	-0.00299	31.0	13111	100
2025-3-27 18:39:18.272	WT901BLE68-01(48591DE3C19B)	-0.058	-0.775	0.210	34.729	80.078	-96.436	-75.09	18.45	-17.92	-44.786	-49.588	108.682	-0.78827	0.57434	-0.21835	0.03149	31.0	13111	100
2025-3-27 18:39:18.272	WT901BLE68-01(48591DE3C19B)	-0.058	-0.751	0.200	33.264	68.359	-108.337	-75.08	17.44	-18.91	-44.786	-49.588	108.682	-0.78827	0.57434	-0.21835	0.03149	31.0	13111	100
2025-3-27 18:39:18.272	WT901BLE68-01(48591DE3C19B)	-0.123	-0.751	0.200	33.264	68.359	-108.337	-75.06	16.42	-19.89	-44.786	-49.588	108.682	-0.78827	0.57434	-0.21835	0.03149	31.0	13111	100
2025-3-27 18:39:18.300	WT901BLE68-01(48591DE3C19B)	-0.200	-0.720	0.183	32.288	55.664	-122.192	-75.00	15.27	-20.78	-44.786	-49.588	108.682	-0.78827	0.57434	-0.21835	0.03149	31.0	13111	100
2025-3-27 18:39:18.300	WT901BLE68-01(48591DE3C19B)	-0.200	-0.699	0.176	31.311	40.222	-136.292	-74.91	14.03	-21.60	-44.786	-49.588	108.682	-0.78827	0.57434	-0.21835	0.03149	31.0	13111	100
2025-3-27 18:39:18.300	WT901BLE68-01(48591DE3C19B)	-0.281	-0.699	0.176	31.311	40.222	-136.292	-74.79	12.73	-22.36	-44.786	-49.588	108.682	-0.78827	0.57434	-0.21835	0.03149	31.0	13111	100
2025-3-27 18:39:18.300	WT901BLE68-01(48591DE3C19B)	-0.281	-0.706	0.190	30.884	22.156	-148.315	-74.65	11.36	-23.04	-44.786	-49.588	108.682	-0.78827	0.57434	-0.21835	0.03149	31.0	13111	100
2025-3-27 18:39:18.331	WT901BLE68-01(48591DE3C19B)	-0.388	-0.706	0.190	30.884	22.156	-148.315	-74.48	9.94	-23.66	-44.786	-49.588	108.682	-0.78827	0.57434	-0.21835	0.03149	31.0	13111	100
2025-3-27 18:39:18.331	WT901BLE68-01(48591DE3C19B)	-0.388	-0.755	0.221	31.311	5.310	-155.579	-74.27	8.48	-24.20	-44.786	-49.588	108.682	-0.78827	0.57434	-0.21835	0.03149	31.0	13111	100
2025-3-27 18:39:18.332	WT901BLE68-01(48591DE3C19B)	-0.536	-0.755	0.221	31.311	5.310	-155.579	-74.04	6.98	-24.68	-44.786	-49.588	108.682	-0.78827	0.57434	-0.21835	0.03149	31.0	13111	100
2025-3-27 18:39:18.332	WT901BLE68-01(48591DE3C19B)	-0.536	-0.806	0.249	32.104	-10.803	-154.175	-73.78	5.49	-25.07	-44.786	-49.588	108.682	-0.78827	0.57434	-0.21835	0.03149	31.0	13111	100
2025-3-27 18:39:18.395	WT901BLE68-01(48591DE3C19B)	-0.640	-0.806	0.249	32.104	-10.803	-154.175	-73.51	4.02	-25.39	-44.786	-49.588	108.682	-0.78827	0.57434	-0.21835	0.03149	31.0	13111	100
2025-3-27 18:39:18.395	WT901BLE68-01(48591DE3C19B)	-0.640	-0.833	0.305	35.522	-25.513	-145.874	-73.20	2.59	-25.64	-44.786	-49.588	108.682	-0.78827	0.57434	-0.21835	0.03149	31.0	13111	100
2025-3-27 18:39:18.395	WT901BLE68-01(48591DE3C19B)	-0.617	-0.833	0.305	35.522	-25.513	-145.874	-72.87	1.20	-25.81	-44.786	-49.588	108.682	-0.78827	0.57434	-0.21835	0.03149	31.0	13111	100
2025-3-27 18:39:18.395	WT901BLE68-01(48591DE3C19B)	-0.617	-0.888	0.272	33.936	-19.653	-134.521	-72.54	-0.09	-25.99	-44.786	-49.588	108.682	-0.78827	0.57434	-0.21835	0.03149	31.0	13111	100
2025-3-27 18:39:18.423	WT901BLE68-01(48591DE3C19B)	-0.509	-0.888	0.272	33.936	-19.653	-134.521	-72.21	-1.31	-26.20	-44.786	-49.588	108.682	-0.78827	0.57434	-0.21835	0.03149	31.0	13111	100
2025-3-27 18:39:18.423	WT901BLE68-01(48591DE3C19B)	-0.509	-0.914	0.168	32.593	10.864	-122.314	-71.88	-2.41	-26.54	-44.786	-49.588	108.682	-0.78827	0.57434	-0.21835	0.03149	31.0	13111	100
2025-3-27 18:39:18.423	WT901BLE68-01(48591DE3C19B)	-0.554	-0.914	0.168	32.593	10.864	-122.314	-71.56	-3.38	-27.02	-44.786	-49.588	108.682	-0.78827	0.57434	-0.21835	0.03149	31.0	13111	100
2025-3-27 18:39:18.423	WT901BLE68-01(48591DE3C19B)	-0.554	-0.957	0.113	25.391	37.170	-107.361	-71.26	-4.24	-27.59	-44.786	-49.588	108.682	-0.78827	0.57434	-0.21835	0.03149	31.0	13111	100
2025-3-27 18:39:18.453	WT901BLE68-01(48591DE3C19B)	-0.696	-0.957	0.113	25.391	37.170	-107.361	-70.98	-4.97	-28.28	-44.786	-49.588	108.682	-0.78827	0.57434	-0.21835	0.03149	31.0	13111	100
2025-3-27 18:39:18.453	WT901BLE68-01(48591DE3C19B)	-0.696	-1.009	0.140	17.944	43.335	-93.811	-70.74	-5.60	-28.97	-44.786	-49.588	108.682	-0.78827	0.57434	-0.21835	0.03149	31.0	13111	100
2025-3-27 18:39:18.453	WT901BLE68-01(48591DE3C19B)	-0.804	-1.009	0.140	17.944	43.335	-93.811	-70.53	-6.16	-29.67	-56.252	-39.004	110.250	-0.78827	0.57434	-0.21835	0.03149	31.0	13111	100
2025-3-27 18:39:18.453	WT901BLE68-01(48591DE3C19B)	-0.804	-1.107	0.262	8.789	40.527	-80.505	-70.37	-6.64	-30.34	-56.252	-39.004	110.250	-0.78827	0.57434	-0.21835	0.03149	31.0	13111	100
2025-3-27 18:39:18.512	WT901BLE68-01(48591DE3C19B)	-0.913	-1.107	0.262	8.789	40.527	-80.505	-70.25	-7.06	-30.97	-56.252	-39.004	110.250	-0.78827	0.57434	-0.21835	0.03149	31.0	13111	100
2025-3-27 18:39:18.512	WT901BLE68-01(48591DE3C19B)	-0.913	-1.271	0.358	-1.831	33.264	-60.303	-70.19	-7.39	-31.54	-56.252	-39.004	110.250	-0.78827	0.57434	-0.21835	0.03149	31.0	13111	100
2025-3-27 18:39:18.512	WT901BLE68-01(48591DE3C19B)	-0.942	-1.271	0.358	-1.831	33.264	-60.303	-70.18	-7.62	-32.04	-56.252	-39.004	110.250	-0.78827	0.57434	-0.21835	0.03149	31.0	13111	100
2025-3-27 18:39:18.512	WT901BLE68-01(48591DE3C19B)	-0.942	-1.379	0.386	-10.254	25.818	-35.706	-70.22	-7.75	-32.45	-56.252	-39.004	110.250	-0.78827	0.57434	-0.21835	0.03149	31.0	13111	100
2025-3-27 18:39:18.540	WT901BLE68-01(48591DE3C19B)	-0.890	-1.379	0.386	-10.254	25.818	-35.706	-70.32	-7.77	-32.80	-56.252	-39.004	110.250	-0.78827	0.57434	-0.21835	0.03149	31.0	13111	100
2025-3-27 18:39:18.540	WT901BLE68-01(48591DE3C19B)	-0.890	-1.293	0.363	-18.250	24.963	-7.202	-70.46	-7.66	-33.09	-56.252	-39.004	110.250	-0.78827	0.57434	-0.21835	0.03149	31.0	13111	100
2025-3-27 18:39:18.540	WT901BLE68-01(48591DE3C19B)	-0.839	-1.293	0.363	-18.250	24.963	-7.202	-70.64	-7.42	-33.33	-56.252	-39.004	110.250	-0.78827	0.57434	-0.21835	0.03149	31.0	13111	100
2025-3-27 18:39:18.540	WT901BLE68-01(48591DE3C19B)	-0.839	-1.175	0.324	-31.860	22.644	23.804	-70.90	-7.04	-33.51	-56.252	-39.004	110.250	-0.78827	0.57434	-0.21835	0.03149	31.0	13111	100
2025-3-27 18:39:18.571	WT901BLE68-01(48591DE3C19B)	-0.818	-1.175	0.324	-31.860	22.644	23.804	-71.23	-6.51	-33.63	-56.252	-39.004	110.250	-0.78827	0.57434	-0.21835	0.03149	31.0	13111	100
2025-3-27 18:39:18.571	WT901BLE68-01(48591DE3C19B)	-0.818	-1.119	0.309	-43.274	7.019	52.734	-71.63	-5.87	-33.63	-56.252	-39.004	110.250	-0.78827	0.57434	-0.21835	0.03149	31.0	13111	100
2025-3-27 18:39:18.571	WT901BLE68-01(48591DE3C19B)	-0.795	-1.119	0.309	-43.274	7.019	52.734	-72.10	-5.13	-33.52	-56.252	-39.004	110.250	-0.78827	0.57434	-0.21835	0.03149	31.0	13111	100
2025-3-27 18:39:18.571	WT901BLE68-01(48591DE3C19B)	-0.795	-1.038	0.316	-49.622	-24.841	79.163	-72.60	-4.31	-33.22	-56.252	-39.004	110.250	-0.78827	0.57434	-0.21835	0.03149	31.0	13111	100
2025-3-27 18:39:18.633	WT901BLE68-01(48591DE3C19B)	-0.731	-1.038	0.316	-49.622	-24.841	79.163	-73.15	-3.41	-32.74	-56.252	-39.004	110.250	-0.78827	0.57434	-0.21835	0.03149	31.0	13111	100
2025-3-27 18:39:18.633	WT901BLE68-01(48591DE3C19B)	-0.731	-0.932	0.300	-50.720	-59.631	105.164	-73.70	-2.43	-32.06	-56.252	-39.004	110.250	-0.78827	0.57434	-0.21835	0.03149	31.0	13111	100
2025-3-27 18:39:18.633	WT901BLE68-01(48591DE3C19B)	-0.650	-0.932	0.300	-50.720	-59.631	105.164	-74.23	-1.37	-31.18	-56.252	-39.004	110.250	-0.78827	0.57434	-0.21835	0.03149	31.0	13111	100
2025-3-27 18:39:18.633	WT901BLE68-01(48591DE3C19B)	-0.650	-0.836	0.244	-51.208	-88.684	131.653	-74.76	-0.23	-30.15	-56.252	-39.004	110.250	-0.78827	0.57434	-0.21835	0.03149	31.0	13111	100
2025-3-27 18:39:18.663	WT901BLE68-01(48591DE3C19B)	-0.581	-0.836	0.244	-51.208	-88.684	131.653	-75.27	1.01	-28.94	-56.252	-39.004	110.250	-0.78827	0.57434	-0.21835	0.03149	31.0	13111	100
2025-3-27 18:39:18.663	WT901BLE68-01(48591DE3C19B)	-0.581	-0.852	0.182	-51.575	-108.337	153.809	-75.75	2.33	-27.61	-56.252	-39.004	110.250	-0.78827	0.57434	-0.21835	0.03149	31.0	13111	100
2025-3-27 18:39:18.663	WT901BLE68-01(48591DE3C19B)	-0.535	-0.852	0.182	-51.575	-108.337	153.809	-76.18	3.75	-26.17	-56.252	-39.004	110.250	-0.78827	0.57434	-0.21835	0.03149	31.0	13111	100
2025-3-27 18:39:18.663	WT901BLE68-01(48591DE3C19B)	-0.535	-0.943	0.121	-48.157	-124.573	170.349	-76.56	5.22	-24.64	-56.252	-39.004	110.250	-0.77283	0.59793	-0.16806	0.12991	31.0	13111	100
2025-3-27 18:39:18.695	WT901BLE68-01(48591DE3C19B)	-0.491	-0.943	0.121	-48.157	-124.573	170.349	-76.87	6.76	-23.02	-56.252	-39.004	110.250	-0.77283	0.59793	-0.16806	0.12991	31.0	13111	100
2025-3-27 18:39:18.695	WT901BLE68-01(48591DE3C19B)	-0.491	-1.033	0.097	-41.138	-142.700	181.274	-77.10	8.32	-21.28	-56.252	-39.004	110.250	-0.77283	0.59793	-0.16806	0.12991	31.0	13111	100
2025-3-27 18:39:18.695	WT901BLE68-01(48591DE3C19B)	-0.442	-1.033	0.097	-41.138	-142.700	181.274	-77.23	9.91	-19.45	-56.252	-39.004	110.250	-0.77283	0.59793	-0.16806	0.12991	31.0	13111	100
2025-3-27 18:39:18.695	WT901BLE68-01(48591DE3C19B)	-0.442	-1.178	0.110	-34.241	-161.194	187.195	-77.26	11.50	-17.50	-56.252	-39.004	110.250	-0.77283	0.59793	-0.16806	0.12991	31.0	13111	100
2025-3-27 18:39:18.751	WT901BLE68-01(48591DE3C19B)	-0.378	-1.178	0.110	-34.241	-161.194	187.195	-77.18	13.07	-15.44	-56.252	-39.004	110.250	-0.77283	0.59793	-0.16806	0.12991	31.0	13111	100
2025-3-27 18:39:18.751	WT901BLE68-01(48591DE3C19B)	-0.378	-1.344	0.142	-20.447	-173.584	189.148	-76.96	14.62	-13.30	-56.252	-39.004	110.250	-0.77283	0.59793	-0.16806	0.12991	31.0	13111	100
2025-3-27 18:39:18.751	WT901BLE68-01(48591DE3C19B)	-0.290	-1.344	0.142	-20.447	-173.584	189.148	-76.61	16.14	-11.07	-56.252	-39.004	110.250	-0.77283	0.59793	-0.16806	0.12991	31.0	13111	100
2025-3-27 18:39:18.752	WT901BLE68-01(48591DE3C19B)	-0.290	-1.441	0.156	-2.014	-173.035	190.002	-76.01	17.63	-8.81	-56.252	-39.004	110.250	-0.77283	0.59793	-0.16806	0.12991	31.0	13111	100
2025-3-27 18:39:18.842	WT901BLE68-01(48591DE3C19B)	-0.187	-1.441	0.156	-2.014	-173.035	190.002	-75.36	19.08	-6.52	-56.252	-39.004	110.250	-0.77283	0.59793	-0.16806	0.12991	31.0	13111	100
2025-3-27 18:39:18.843	WT901BLE68-01(48591DE3C19B)	-0.187	-1.380	0.134	18.250	-153.687	188.782	-74.50	20.51	-4.39	-56.252	-39.004	110.250	-0.77283	0.59793	-0.16806	0.12991	31.0	13111	100
2025-3-27 18:39:18.843	WT901BLE68-01(48591DE3C19B)	-0.119	-1.380	0.134	18.250	-153.687	188.782	-73.59	21.90	-2.23	-56.252	-39.004	110.250	-0.77283	0.59793	-0.16806	0.12991	31.0	13111	100
2025-3-27 18:39:18.843	WT901BLE68-01(48591DE3C19B)	-0.119	-1.228	0.108	29.846	-119.263	185.730	-72.65	23.31	-0.39	-56.252	-39.004	110.250	-0.77283	0.59793	-0.16806	0.12991	31.0	13111	100
2025-3-27 18:39:18.843	WT901BLE68-01(48591DE3C19B)	-0.095	-1.228	0.108	29.846	-119.263	185.730	-71.65	24.68	1.49	-56.252	-39.004	110.250	-0.77283	0.59793	-0.16806	0.12991	31.0	13111	100
2025-3-27 18:39:18.843	WT901BLE68-01(48591DE3C19B)	-0.095	-1.137	0.094	34.607	-77.209	181.152	-70.75	26.09	2.96	-56.252	-39.004	110.250	-0.77283	0.59793	-0.16806	0.12991	31.0	13111	100
2025-3-27 18:39:18.843	WT901BLE68-01(48591DE3C19B)	-0.100	-1.137	0.094	34.607	-77.209	181.152	-69.81	27.47	4.47	-56.252	-39.004	110.250	-0.77283	0.59793	-0.16806	0.12991	31.0	13111	100
2025-3-27 18:39:18.844	WT901BLE68-01(48591DE3C19B)	-0.100	-1.117	0.089	35.889	-37.415	177.673	-69.01	28.92	5.58	-56.252	-39.004	110.250	-0.77283	0.59793	-0.16806	0.12991	31.0	13111	100
2025-3-27 18:39:18.871	WT901BLE68-01(48591DE3C19B)	-0.108	-1.117	0.089	35.889	-37.415	177.673	-68.18	30.33	6.72	-56.252	-39.004	110.250	-0.77283	0.59793	-0.16806	0.12991	31.0	13111	100
2025-3-27 18:39:18.871	WT901BLE68-01(48591DE3C19B)	-0.108	-1.104	0.043	34.546	-7.629	175.354	-67.49	31.82	7.56	-56.252	-39.004	110.250	-0.77283	0.59793	-0.16806	0.12991	31.0	13111	100
2025-3-27 18:39:18.871	WT901BLE68-01(48591DE3C19B)	-0.080	-1.104	0.043	34.546	-7.629	175.354	-66.78	33.29	8.44	-56.252	-39.004	110.250	-0.77283	0.59793	-0.16806	0.12991	31.0	13111	100
2025-3-27 18:39:18.871	WT901BLE68-01(48591DE3C19B)	-0.080	-1.160	-0.026	30.029	16.418	171.265	-66.24	34.79	9.06	-56.252	-39.004	110.250	-0.77283	0.59793	-0.16806	0.12991	31.0	13111	100
2025-3-27 18:39:18.932	WT901BLE68-01(48591DE3C19B)	-0.063	-1.160	-0.026	30.029	16.418	171.265	-65.68	36.28	9.70	-49.784	-52.136	104.272	-0.77283	0.59793	-0.16806	0.12991	31.0	13111	100
2025-3-27 18:39:18.932	WT901BLE68-01(48591DE3C19B)	-0.063	-1.238	-0.092	25.757	31.494	166.626	-65.26	37.77	10.16	-49.784	-52.136	104.272	-0.77283	0.59793	-0.16806	0.12991	31.0	13111	100
2025-3-27 18:39:18.932	WT901BLE68-01(48591DE3C19B)	-0.077	-1.238	-0.092	25.757	31.494	166.626	-64.83	39.24	10.63	-49.784	-52.136	104.272	-0.77283	0.59793	-0.16806	0.12991	31.0	13111	100
2025-3-27 18:39:18.932	WT901BLE68-01(48591DE3C19B)	-0.077	-1.208	-0.149	19.897	18.921	161.255	-64.36	40.60	11.24	-49.784	-52.136	104.272	-0.77283	0.59793	-0.16806	0.12991	31.0	13111	100
2025-3-27 18:39:18.933	WT901BLE68-01(48591DE3C19B)	0.007	-1.208	-0.149	19.897	18.921	161.255	-63.89	41.95	11.87	-49.784	-52.136	104.272	-0.77283	0.59793	-0.16806	0.12991	31.0	13111	100
2025-3-27 18:39:18.933	WT901BLE68-01(48591DE3C19B)	0.007	-1.200	-0.185	5.188	-7.507	147.522	-63.37	43.04	12.76	-49.784	-52.136	104.272	-0.77283	0.59793	-0.16806	0.12991	31.0	13111	100
2025-3-27 18:39:18.933	WT901BLE68-01(48591DE3C19B)	0.109	-1.200	-0.185	5.188	-7.507	147.522	-62.84	44.12	13.66	-49.784	-52.136	104.272	-0.77283	0.59793	-0.16806	0.12991	31.0	13111	100
2025-3-27 18:39:18.933	WT901BLE68-01(48591DE3C19B)	0.109	-1.364	-0.111	-12.878	-23.682	124.023	-62.44	44.89	14.63	-49.784	-52.136	104.272	-0.77283	0.59793	-0.16806	0.12991	31.0	13111	100
2025-3-27 18:39:18.996	WT901BLE68-01(48591DE3C19B)	0.140	-1.364	-0.111	-12.878	-23.682	124.023	-62.01	45.65	15.62	-49.784	-52.136	104.272	-0.77283	0.59793	-0.16806	0.12991	31.0	13111	100
2025-3-27 18:39:18.996	WT901BLE68-01(48591DE3C19B)	0.140	-1.539	0.027	-22.400	-40.344	92.224	-61.67	46.05	16.61	-49.784	-52.136	104.272	-0.77283	0.59793	-0.16806	0.12991	31.0	13111	100
2025-3-27 18:39:18.996	WT901BLE68-01(48591DE3C19B)	0.230	-1.539	0.027	-22.400	-40.344	92.224	-61.32	46.43	17.59	-49.784	-52.136	104.272	-0.77283	0.59793	-0.16806	0.12991	31.0	13111	100
2025-3-27 18:39:18.996	WT901BLE68-01(48591DE3C19B)	0.230	-1.515	0.134	-23.560	-57.434	50.720	-61.03	46.35	18.52	-49.784	-52.136	104.272	-0.77283	0.59793	-0.16806	0.12991	31.0	13111	100
2025-3-27 18:39:19.22	WT901BLE68-01(48591DE3C19B)	0.272	-1.515	0.134	-23.560	-57.434	50.720	-60.74	46.26	19.43	-49.784	-52.136	104.272	-0.77283	0.59793	-0.16806	0.12991	31.0	13111	100
2025-3-27 18:39:19.22	WT901BLE68-01(48591DE3C19B)	0.272	-1.430	0.225	-28.931	-62.988	2.380	-60.70	45.73	20.08	-49.784	-52.136	104.272	-0.77283	0.59793	-0.16806	0.12991	31.0	13111	100
2025-3-27 18:39:19.23	WT901BLE68-01(48591DE3C19B)	0.260	-1.430	0.225	-28.931	-62.988	2.380	-60.67	45.18	20.71	-49.784	-52.136	104.272	-0.77283	0.59793	-0.16806	0.12991	31.0	13111	100
2025-3-27 18:39:19.23	WT901BLE68-01(48591DE3C19B)	0.260	-1.420	0.278	-35.706	-53.528	-52.368	-61.05	44.20	20.86	-49.784	-52.136	104.272	-0.77283	0.59793	-0.16806	0.12991	31.0	13111	100
2025-3-27 18:39:19.50	WT901BLE68-01(48591DE3C19B)	0.197	-1.420	0.278	-35.706	-53.528	-52.368	-61.42	43.23	21.01	-49.784	-52.136	104.272	-0.77283	0.59793	-0.16806	0.12991	31.0	13111	100
2025-3-27 18:39:19.51	WT901BLE68-01(48591DE3C19B)	0.197	-1.432	0.282	-45.044	-32.776	-106.079	-62.27	41.89	20.59	-49.784	-52.136	104.272	-0.77283	0.59793	-0.16806	0.12991	31.0	13111	100
2025-3-27 18:39:19.51	WT901BLE68-01(48591DE3C19B)	0.108	-1.432	0.282	-45.044	-32.776	-106.079	-63.08	40.54	20.20	-49.784	-52.136	104.272	-0.75525	0.53488	-0.20459	-0.31866	31.0	13111	100
2025-3-27 18:39:19.51	WT901BLE68-01(48591DE3C19B)	0.108	-1.477	0.242	-50.293	0.000	-156.311	-64.33	38.89	19.20	-49.784	-52.136	104.272	-0.75525	0.53488	-0.20459	-0.31866	31.0	13111	100
2025-3-27 18:39:19.111	WT901BLE68-01(48591DE3C19B)	0.026	-1.477	0.242	-50.293	0.000	-156.311	-65.51	37.24	18.26	-49.784	-52.136	104.272	-0.75525	0.53488	-0.20459	-0.31866	31.0	13111	100
2025-3-27 18:39:19.111	WT901BLE68-01(48591DE3C19B)	0.026	-1.446	0.176	-48.218	35.522	-199.707	-66.96	35.33	16.78	-49.784	-52.136	104.272	-0.75525	0.53488	-0.20459	-0.31866	31.0	13111	100
2025-3-27 18:39:19.111	WT901BLE68-01(48591DE3C19B)	-0.065	-1.446	0.176	-48.218	35.522	-199.707	-68.30	33.40	15.40	-49.784	-52.136	104.272	-0.75525	0.53488	-0.20459	-0.31866	31.0	13111	100
2025-3-27 18:39:19.111	WT901BLE68-01(48591DE3C19B)	-0.065	-1.370	0.168	-40.649	68.481	-230.408	-69.74	31.28	13.61	-49.784	-52.136	104.272	-0.75525	0.53488	-0.20459	-0.31866	31.0	13111	100
2025-3-27 18:39:19.140	WT901BLE68-01(48591DE3C19B)	-0.139	-1.370	0.168	-40.649	68.481	-230.408	-71.07	29.16	11.93	-49.784	-52.136	104.272	-0.75525	0.53488	-0.20459	-0.31866	31.0	13111	100
2025-3-27 18:39:19.141	WT901BLE68-01(48591DE3C19B)	-0.139	-1.215	0.195	-31.982	78.369	-244.934	-72.27	26.91	10.18	-49.784	-52.136	104.272	-0.75525	0.53488	-0.20459	-0.31866	31.0	13111	100
2025-3-27 18:39:19.141	WT901BLE68-01(48591DE3C19B)	-0.163	-1.215	0.195	-31.982	78.369	-244.934	-73.38	24.64	8.53	-49.784	-52.136	104.272	-0.75525	0.53488	-0.20459	-0.31866	31.0	13111	100
2025-3-27 18:39:19.141	WT901BLE68-01(48591DE3C19B)	-0.163	-1.109	0.219	-26.184	76.416	-246.826	-74.31	22.34	6.96	-49.784	-52.136	104.272	-0.75525	0.53488	-0.20459	-0.31866	31.0	13111	100
2025-3-27 18:39:19.170	WT901BLE68-01(48591DE3C19B)	-0.189	-1.109	0.219	-26.184	76.416	-246.826	-75.16	20.04	5.47	-49.784	-52.136	104.272	-0.75525	0.53488	-0.20459	-0.31866	31.0	13111	100
2025-3-27 18:39:19.171	WT901BLE68-01(48591DE3C19B)	-0.189	-1.049	0.239	-19.714	75.806	-239.868	-75.86	17.80	4.05	-49.784	-52.136	104.272	-0.75525	0.53488	-0.20459	-0.31866	31.0	13111	100
2025-3-27 18:39:19.171	WT901BLE68-01(48591DE3C19B)	-0.221	-1.049	0.239	-19.714	75.806	-239.868	-76.48	15.57	2.68	-49.784	-52.136	104.272	-0.75525	0.53488	-0.20459	-0.31866	31.0	13111	100
2025-3-27 18:39:19.171	WT901BLE68-01(48591DE3C19B)	-0.169	-1.074	0.220	-15.381	63.721	-233.276	-76.96	13.38	1.49	-49.784	-52.136	104.272	-0.75525	0.53488	-0.20459	-0.31866	31.0	13111	100
2025-3-27 18:39:19.232	WT901BLE68-01(48591DE3C19B)	-0.169	-1.110	0.207	-10.132	41.199	-226.563	-77.34	11.20	0.45	-49.784	-52.136	104.272	-0.75525	0.53488	-0.20459	-0.31866	31.0	13111	100
2025-3-27 18:39:19.232	WT901BLE68-01(48591DE3C19B)	-0.098	-1.110	0.207	-10.132	41.199	-226.563	-77.62	9.04	-0.44	-49.784	-52.136	104.272	-0.75525	0.53488	-0.20459	-0.31866	31.0	13111	100
2025-3-27 18:39:19.232	WT901BLE68-01(48591DE3C19B)	-0.098	-1.120	0.188	-8.972	45.105	-217.834	-77.86	6.94	-1.42	-49.784	-52.136	104.272	-0.75525	0.53488	-0.20459	-0.31866	31.0	13111	100
2025-3-27 18:39:19.232	WT901BLE68-01(48591DE3C19B)	-0.138	-1.120	0.188	-8.972	45.105	-217.834	-78.06	4.90	-2.46	-49.784	-52.136	104.272	-0.75525	0.53488	-0.20459	-0.31866	31.0	13111	100
2025-3-27 18:39:19.295	WT901BLE68-01(48591DE3C19B)	-0.138	-1.185	0.172	-5.066	75.562	-210.754	-78.22	2.94	-3.63	-49.784	-52.136	104.272	-0.75525	0.53488	-0.20459	-0.31866	31.0	13111	100
2025-3-27 18:39:19.295	WT901BLE68-01(48591DE3C19B)	-0.233	-1.185	0.172	-5.066	75.562	-210.754	-78.32	1.05	-4.93	-49.784	-52.136	104.272	-0.75525	0.53488	-0.20459	-0.31866	31.0	13111	100
2025-3-27 18:39:19.295	WT901BLE68-01(48591DE3C19B)	-0.233	-1.200	0.184	2.075	104.492	-208.923	-78.34	-0.79	-6.37	-49.784	-52.136	104.272	-0.75525	0.53488	-0.20459	-0.31866	31.0	13111	100
2025-3-27 18:39:19.295	WT901BLE68-01(48591DE3C19B)	-0.307	-1.200	0.184	2.075	104.492	-208.923	-78.29	-2.58	-7.95	-45.178	-56.154	98.392	-0.75525	0.53488	-0.20459	-0.31866	31.0	13111	100
2025-3-27 18:39:19.296	WT901BLE68-01(48591DE3C19B)	-0.307	-1.188	0.232	8.057	126.465	-205.688	-78.15	-4.31	-9.64	-45.178	-56.154	98.392	-0.75525	0.53488	-0.20459	-0.31866	31.0	13111	100
2025-3-27 18:39:19.296	WT901BLE68-01(48591DE3C19B)	-0.399	-1.188	0.232	8.057	126.465	-205.688	-77.92	-5.98	-11.43	-45.178	-56.154	98.392	-0.75525	0.53488	-0.20459	-0.31866	31.0	13111	100
2025-3-27 18:39:19.296	WT901BLE68-01(48591DE3C19B)	-0.399	-1.137	0.268	17.639	139.099	-198.181	-77.59	-7.58	-13.30	-45.178	-56.154	98.392	-0.75525	0.53488	-0.20459	-0.31866	31.0	13111	100
2025-3-27 18:39:19.296	WT901BLE68-01(48591DE3C19B)	-0.488	-1.137	0.268	17.639	139.099	-198.181	-77.15	-9.11	-15.23	-45.178	-56.154	98.392	-0.75525	0.53488	-0.20459	-0.31866	31.0	13111	100
2025-3-27 18:39:19.350	WT901BLE68-01(48591DE3C19B)	-0.488	-1.053	0.268	26.123	137.939	-189.148	-76.61	-10.56	-17.17	-45.178	-56.154	98.392	-0.75525	0.53488	-0.20459	-0.31866	31.0	13111	100
2025-3-27 18:39:19.351	WT901BLE68-01(48591DE3C19B)	-0.538	-1.053	0.268	26.123	137.939	-189.148	-75.99	-11.93	-19.12	-45.178	-56.154	98.392	-0.75525	0.53488	-0.20459	-0.31866	31.0	13111	100
2025-3-27 18:39:19.351	WT901BLE68-01(48591DE3C19B)	-0.538	-0.996	0.229	31.311	130.066	-177.429	-75.30	-13.22	-21.04	-45.178	-56.154	98.392	-0.75525	0.53488	-0.20459	-0.31866	31.0	13111	100
2025-3-27 18:39:19.351	WT901BLE68-01(48591DE3C19B)	-0.568	-0.996	0.229	31.311	130.066	-177.429	-74.56	-14.43	-22.93	-45.178	-56.154	98.392	-0.75525	0.53488	-0.20459	-0.31866	31.0	13111	100
2025-3-27 18:39:19.381	WT901BLE68-01(48591DE3C19B)	-0.568	-0.976	0.189	33.752	123.352	-159.729	-73.78	-15.52	-24.79	-45.178	-56.154	98.392	-0.75525	0.53488	-0.20459	-0.31866	31.0	13111	100
2025-3-27 18:39:19.381	WT901BLE68-01(48591DE3C19B)	-0.625	-0.976	0.189	33.752	123.352	-159.729	-72.97	-16.50	-26.60	-45.178	-56.154	98.392	-0.75525	0.53488	-0.20459	-0.31866	31.0	13111	100
2025-3-27 18:39:19.381	WT901BLE68-01(48591DE3C19B)	-0.625	-0.971	0.204	33.142	109.375	-136.169	-72.16	-17.35	-28.34	-45.178	-56.154	98.392	-0.75525	0.53488	-0.20459	-0.31866	31.0	13111	100
2025-3-27 18:39:19.382	WT901BLE68-01(48591DE3C19B)	-0.635	-0.971	0.204	33.142	109.375	-136.169	-71.37	-18.08	-29.99	-45.178	-56.154	98.392	-0.75525	0.53488	-0.20459	-0.31866	31.0	13111	100
2025-3-27 18:39:19.411	WT901BLE68-01(48591DE3C19B)	-0.635	-1.001	0.198	28.503	86.914	-112.427	-70.63	-18.70	-31.50	-45.178	-56.154	98.392	-0.75525	0.53488	-0.20459	-0.31866	31.0	13111	100
2025-3-27 18:39:19.411	WT901BLE68-01(48591DE3C19B)	-0.635	-1.001	0.198	28.503	86.914	-112.427	-69.94	-19.22	-32.87	-45.178	-56.154	98.392	-0.75525	0.53488	-0.20459	-0.31866	31.0	13111	100
2025-3-27 18:39:19.412	WT901BLE68-01(48591DE3C19B)	-0.635	-1.045	0.193	21.240	69.336	-85.571	-69.32	-19.62	-34.11	-45.178	-56.154	98.392	-0.75525	0.53488	-0.20459	-0.31866	31.0	13111	100
2025-3-27 18:39:19.412	WT901BLE68-01(48591DE3C19B)	-0.667	-1.045	0.193	21.240	69.336	-85.571	-68.79	-19.91	-35.22	-45.178	-56.154	98.392	-0.75525	0.53488	-0.20459	-0.31866	31.0	13111	100
2025-3-27 18:39:19.470	WT901BLE68-01(48591DE3C19B)	-0.667	-1.097	0.204	11.597	55.481	-60.059	-68.33	-20.09	-36.21	-45.178	-56.154	98.392	-0.75525	0.53488	-0.20459	-0.31866	31.0	13111	100
2025-3-27 18:39:19.471	WT901BLE68-01(48591DE3C19B)	-0.717	-1.097	0.204	11.597	55.481	-60.059	-67.97	-20.18	-37.08	-45.178	-56.154	98.392	-0.75525	0.53488	-0.20459	-0.31866	31.0	13111	100
2025-3-27 18:39:19.471	WT901BLE68-01(48591DE3C19B)	-0.717	-1.173	0.248	0.183	44.373	-35.034	-67.70	-20.15	-37.86	-45.178	-56.154	98.392	-0.75525	0.53488	-0.20459	-0.31866	31.0	13111	100
2025-3-27 18:39:19.471	WT901BLE68-01(48591DE3C19B)	-0.743	-1.173	0.248	0.183	44.373	-35.034	-67.53	-20.03	-38.52	-45.178	-56.154	98.392	-0.75525	0.53488	-0.20459	-0.31866	31.0	13111	100
2025-3-27 18:39:19.500	WT901BLE68-01(48591DE3C19B)	-0.743	-1.248	0.298	-9.399	37.415	-10.620	-67.43	-19.80	-39.11	-45.178	-56.154	98.392	-0.74014	0.56311	-0.04819	0.36420	31.0	13111	100
2025-3-27 18:39:19.500	WT901BLE68-01(48591DE3C19B)	-0.706	-1.248	0.298	-9.399	37.415	-10.620	-67.41	-19.48	-39.60	-45.178	-56.154	98.392	-0.74014	0.56311	-0.04819	0.36420	31.0	13111	100
2025-3-27 18:39:19.500	WT901BLE68-01(48591DE3C19B)	-0.706	-1.174	0.325	-17.578	34.851	14.893	-67.45	-19.04	-40.03	-45.178	-56.154	98.392	-0.74014	0.56311	-0.04819	0.36420	31.0	13111	100
2025-3-27 18:39:19.500	WT901BLE68-01(48591DE3C19B)	-0.663	-1.174	0.325	-17.578	34.851	14.893	-67.62	-18.51	-40.25	-45.178	-56.154	98.392	-0.74014	0.56311	-0.04819	0.36420	31.0	13111	100
2025-3-27 18:39:19.531	WT901BLE68-01(48591DE3C19B)	-0.663	-0.990	0.330	-27.588	31.616	44.312	-67.91	-17.86	-40.26	-45.178	-56.154	98.392	-0.74014	0.56311	-0.04819	0.36420	31.0	13111	100
2025-3-27 18:39:19.531	WT901BLE68-01(48591DE3C19B)	-0.648	-0.990	0.330	-27.588	31.616	44.312	-68.26	-17.09	-40.19	-45.178	-56.154	98.392	-0.74014	0.56311	-0.04819	0.36420	31.0	13111	100
2025-3-27 18:39:19.531	WT901BLE68-01(48591DE3C19B)	-0.648	-0.843	0.322	-41.382	21.851	73.059	-68.71	-16.20	-40.03	-45.178	-56.154	98.392	-0.74014	0.56311	-0.04819	0.36420	31.0	13111	100
2025-3-27 18:39:19.531	WT901BLE68-01(48591DE3C19B)	-0.683	-0.843	0.322	-41.382	21.851	73.059	-69.26	-15.20	-39.77	-45.178	-56.154	98.392	-0.74014	0.56311	-0.04819	0.36420	31.0	13111	100
2025-3-27 18:39:19.596	WT901BLE68-01(48591DE3C19B)	-0.683	-0.825	0.294	-54.199	-3.235	99.548	-69.90	-14.11	-39.36	-45.178	-56.154	98.392	-0.74014	0.56311	-0.04819	0.36420	31.0	13111	100
2025-3-27 18:39:19.596	WT901BLE68-01(48591DE3C19B)	-0.716	-0.825	0.294	-54.199	-3.235	99.548	-70.62	-12.94	-38.79	-45.178	-56.154	98.392	-0.74014	0.56311	-0.04819	0.36420	31.0	13111	100
2025-3-27 18:39:19.596	WT901BLE68-01(48591DE3C19B)	-0.716	-0.888	0.257	-62.622	-43.152	125.061	-71.42	-11.72	-38.00	-45.178	-56.154	98.392	-0.74014	0.56311	-0.04819	0.36420	31.0	13111	100
2025-3-27 18:39:19.596	WT901BLE68-01(48591DE3C19B)	-0.664	-0.888	0.257	-62.622	-43.152	125.061	-72.28	-10.42	-37.01	-45.178	-56.154	98.392	-0.74014	0.56311	-0.04819	0.36420	31.0	13111	100
2025-3-27 18:39:19.652	WT901BLE68-01(48591DE3C19B)	-0.332	-1.018	0.207	-63.599	-81.665	148.621	-73.16	-9.06	-35.82	-45.178	-56.154	98.392	-0.74014	0.56311	-0.04819	0.36420	31.0	13111	100
2025-3-27 18:39:19.652	WT901BLE68-01(48591DE3C19B)	-0.572	-0.509	0.104	-63.599	-81.665	148.621	-74.03	-7.64	-34.44	-45.178	-56.154	98.392	-0.74014	0.56311	-0.04819	0.36420	31.0	13111	100
2025-3-27 18:39:19.652	WT901BLE68-01(48591DE3C19B)	-0.572	-1.180	0.167	-57.312	-109.619	170.532	-74.86	-6.14	-32.93	-45.178	-56.154	98.392	-0.74014	0.56311	-0.04819	0.36420	31.0	13111	100
2025-3-27 18:39:19.652	WT901BLE68-01(48591DE3C19B)	-0.452	-1.180	0.167	-57.312	-109.619	170.532	-75.62	-4.55	-31.29	-45.178	-56.154	98.392	-0.74014	0.56311	-0.04819	0.36420	31.0	13111	100
2025-3-27 18:39:19.681	WT901BLE68-01(48591DE3C19B)	-0.452	-1.312	0.119	-45.410	-127.014	189.392	-76.27	-2.90	-29.59	-45.178	-56.154	98.392	-0.74014	0.56311	-0.04819	0.36420	31.0	13111	100
2025-3-27 18:39:19.681	WT901BLE68-01(48591DE3C19B)	-0.336	-1.312	0.119	-45.410	-127.014	189.392	-76.82	-1.17	-27.81	-45.178	-56.154	98.392	-0.74014	0.56311	-0.04819	0.36420	31.0	13111	100
2025-3-27 18:39:19.681	WT901BLE68-01(48591DE3C19B)	-0.336	-1.387	0.101	-32.104	-131.042	203.125	-77.25	0.61	-26.04	-45.178	-56.154	98.392	-0.74014	0.56311	-0.04819	0.36420	31.0	13111	100
2025-3-27 18:39:19.681	WT901BLE68-01(48591DE3C19B)	-0.279	-1.387	0.101	-32.104	-131.042	203.125	-77.55	2.46	-24.25	-45.178	-56.154	98.392	-0.74014	0.56311	-0.04819	0.36420	31.0	13111	100
2025-3-27 18:39:19.712	WT901BLE68-01(48591DE3C19B)	-0.279	-1.450	0.106	-20.203	-125.488	211.121	-77.67	4.37	-22.53	-45.178	-56.154	98.392	-0.74014	0.56311	-0.04819	0.36420	31.0	13111	100
2025-3-27 18:39:19.712	WT901BLE68-01(48591DE3C19B)	-0.253	-1.450	0.106	-20.203	-125.488	211.121	-77.74	6.27	-20.82	-58.114	-52.234	93.296	-0.74014	0.56311	-0.04819	0.36420	31.0	13111	100
2025-3-27 18:39:19.713	WT901BLE68-01(48591DE3C19B)	-0.253	-1.479	0.127	-7.813	-114.746	215.088	-77.65	8.21	-19.23	-58.114	-52.234	93.296	-0.74014	0.56311	-0.04819	0.36420	31.0	13111	100
2025-3-27 18:39:19.713	WT901BLE68-01(48591DE3C19B)	-0.234	-1.479	0.127	-7.813	-114.746	215.088	-77.49	10.13	-17.64	-58.114	-52.234	93.296	-0.74014	0.56311	-0.04819	0.36420	31.0	13111	100
2025-3-27 18:39:19.741	WT901BLE68-01(48591DE3C19B)	-0.234	-1.440	0.151	4.211	-101.379	217.712	-77.19	12.08	-16.17	-58.114	-52.234	93.296	-0.74014	0.56311	-0.04819	0.36420	31.0	13111	100
2025-3-27 18:39:19.741	WT901BLE68-01(48591DE3C19B)	-0.214	-1.440	0.151	4.211	-101.379	217.712	-76.83	14.00	-14.69	-58.114	-52.234	93.296	-0.74014	0.56311	-0.04819	0.36420	31.0	13111	100
2025-3-27 18:39:19.741	WT901BLE68-01(48591DE3C19B)	-0.214	-1.343	0.149	12.695	-83.984	218.201	-76.39	15.95	-13.38	-58.114	-52.234	93.296	-0.74014	0.56311	-0.04819	0.36420	31.0	13111	100
2025-3-27 18:39:19.741	WT901BLE68-01(48591DE3C19B)	-0.180	-1.343	0.149	12.695	-83.984	218.201	-75.89	17.86	-12.06	-58.114	-52.234	93.296	-0.74014	0.56311	-0.04819	0.36420	31.0	13111	100
2025-3-27 18:39:19.801	WT901BLE68-01(48591DE3C19B)	-0.180	-1.223	0.117	17.822	-60.547	218.018	-75.38	19.80	-10.95	-58.114	-52.234	93.296	-0.74014	0.56311	-0.04819	0.36420	31.0	13111	100
2025-3-27 18:39:19.801	WT901BLE68-01(48591DE3C19B)	-0.162	-1.223	0.117	17.822	-60.547	218.018	-74.82	21.73	-9.82	-58.114	-52.234	93.296	-0.74014	0.56311	-0.04819	0.36420	31.0	13111	100
2025-3-27 18:39:19.801	WT901BLE68-01(48591DE3C19B)	-0.162	-1.086	0.083	18.616	-35.706	219.788	-74.31	23.70	-8.92	-58.114	-52.234	93.296	-0.74014	0.56311	-0.04819	0.36420	31.0	13111	100
2025-3-27 18:39:19.801	WT901BLE68-01(48591DE3C19B)	-0.163	-1.086	0.083	18.616	-35.706	219.788	-73.76	25.66	-7.99	-58.114	-52.234	93.296	-0.74014	0.56311	-0.04819	0.36420	31.0	13111	100
2025-3-27 18:39:19.895	WT901BLE68-01(48591DE3C19B)	-0.163	-0.992	0.068	14.343	-17.578	222.412	-73.29	27.67	-7.23	-58.114	-52.234	93.296	-0.74014	0.56311	-0.04819	0.36420	31.0	13111	100
2025-3-27 18:39:19.895	WT901BLE68-01(48591DE3C19B)	-0.183	-0.992	0.068	14.343	-17.578	222.412	-72.78	29.67	-6.44	-58.114	-52.234	93.296	-0.74014	0.56311	-0.04819	0.36420	31.0	13111	100
2025-3-27 18:39:19.895	WT901BLE68-01(48591DE3C19B)	-0.183	-0.972	0.051	8.362	-11.353	225.220	-72.33	31.69	-5.69	-58.114	-52.234	93.296	-0.74014	0.56311	-0.04819	0.36420	31.0	13111	100
2025-3-27 18:39:19.895	WT901BLE68-01(48591DE3C19B)	-0.187	-0.972	0.051	8.362	-11.353	225.220	-71.85	33.69	-4.91	-58.114	-52.234	93.296	-0.74014	0.56311	-0.04819	0.36420	31.0	13111	100
2025-3-27 18:39:19.895	WT901BLE68-01(48591DE3C19B)	-0.187	-1.014	0.027	1.160	-13.550	224.976	-71.37	35.67	-4.06	-58.114	-52.234	93.296	-0.74014	0.56311	-0.04819	0.36420	31.0	13111	100
2025-3-27 18:39:19.895	WT901BLE68-01(48591DE3C19B)	-0.199	-1.014	0.027	1.160	-13.550	224.976	-70.86	37.63	-3.20	-58.114	-52.234	93.296	-0.74014	0.56311	-0.04819	0.36420	31.0	13111	100
2025-3-27 18:39:19.895	WT901BLE68-01(48591DE3C19B)	-0.199	-1.162	0.026	-5.676	-19.714	220.886	-70.33	39.51	-2.23	-58.114	-52.234	93.296	-0.77130	0.53415	-0.29120	-0.18668	31.0	13111	100
2025-3-27 18:39:19.895	WT901BLE68-01(48591DE3C19B)	-0.211	-1.162	0.026	-5.676	-19.714	220.886	-69.75	41.37	-1.23	-58.114	-52.234	93.296	-0.77130	0.53415	-0.29120	-0.18668	31.0	13111	100
2025-3-27 18:39:19.923	WT901BLE68-01(48591DE3C19B)	-0.211	-1.387	0.044	-8.423	-29.724	210.022	-69.09	43.08	-0.10	-58.114	-52.234	93.296	-0.77130	0.53415	-0.29120	-0.18668	31.0	13111	100
2025-3-27 18:39:19.923	WT901BLE68-01(48591DE3C19B)	-0.160	-1.387	0.044	-8.423	-29.724	210.022	-68.37	44.77	1.06	-58.114	-52.234	93.296	-0.77130	0.53415	-0.29120	-0.18668	31.0	13111	100
2025-3-27 18:39:19.924	WT901BLE68-01(48591DE3C19B)	-0.160	-1.632	0.055	-5.920	-41.016	193.542	-67.52	46.24	2.34	-58.114	-52.234	93.296	-0.77130	0.53415	-0.29120	-0.18668	31.0	13111	100
2025-3-27 18:39:19.924	WT901BLE68-01(48591DE3C19B)	0.005	-1.632	0.055	-5.920	-41.016	193.542	-66.61	47.69	3.68	-58.114	-52.234	93.296	-0.77130	0.53415	-0.29120	-0.18668	31.0	13111	100
2025-3-27 18:39:19.953	WT901BLE68-01(48591DE3C19B)	0.005	-1.740	0.034	1.160	-41.321	169.861	-65.67	48.89	4.93	-58.114	-52.234	93.296	-0.77130	0.53415	-0.29120	-0.18668	31.0	13111	100
2025-3-27 18:39:19.953	WT901BLE68-01(48591DE3C19B)	0.174	-1.740	0.034	1.160	-41.321	169.861	-64.68	50.07	6.22	-58.114	-52.234	93.296	-0.77130	0.53415	-0.29120	-0.18668	31.0	13111	100
2025-3-27 18:39:19.953	WT901BLE68-01(48591DE3C19B)	0.174	-1.691	0.015	6.958	-24.963	134.033	-63.96	50.98	7.08	-58.114	-52.234	93.296	-0.77130	0.53415	-0.29120	-0.18668	31.0	13111	100
2025-3-27 18:39:19.953	WT901BLE68-01(48591DE3C19B)	0.265	-1.691	0.015	6.958	-24.963	134.033	-63.21	51.86	7.96	-58.114	-52.234	93.296	-0.77130	0.53415	-0.29120	-0.18668	31.0	13111	100
2025-3-27 18:39:20.43	WT901BLE68-01(48591DE3C19B)	0.265	-1.654	0.054	3.113	-2.747	92.712	-62.97	52.47	8.22	-58.114	-52.234	93.296	-0.77130	0.53415	-0.29120	-0.18668	31.0	13111	100
2025-3-27 18:39:20.43	WT901BLE68-01(48591DE3C19B)	0.136	-1.654	0.054	3.113	-2.747	92.712	-62.74	53.06	8.48	-58.114	-52.234	93.296	-0.77130	0.53415	-0.29120	-0.18668	31.0	13111	100
2025-3-27 18:39:20.43	WT901BLE68-01(48591DE3C19B)	0.136	-1.575	0.142	-7.324	6.409	43.335	-63.02	53.26	8.22	-58.114	-52.234	93.296	-0.77130	0.53415	-0.29120	-0.18668	31.0	13111	100
2025-3-27 18:39:20.43	WT901BLE68-01(48591DE3C19B)	0.090	-1.575	0.142	-7.324	6.409	43.335	-63.30	53.45	7.96	-58.114	-52.234	93.296	-0.77130	0.53415	-0.29120	-0.18668	31.0	13111	100
2025-3-27 18:39:20.44	WT901BLE68-01(48591DE3C19B)	0.090	-1.419	0.271	-13.489	-2.747	-11.169	-63.86	53.11	7.43	-58.114	-52.234	93.296	-0.77130	0.53415	-0.29120	-0.18668	31.0	13111	100
2025-3-27 18:39:20.44	WT901BLE68-01(48591DE3C19B)	0.117	-1.419	0.271	-13.489	-2.747	-11.169	-64.40	52.76	6.90	-58.114	-52.234	93.296	-0.77130	0.53415	-0.29120	-0.18668	31.0	13111	100
2025-3-27 18:39:20.44	WT901BLE68-01(48591DE3C19B)	0.117	-1.241	0.326	-12.268	-3.296	-57.922	-65.17	51.99	6.08	-58.114	-52.234	93.296	-0.77130	0.53415	-0.29120	-0.18668	31.0	13111	100
2025-3-27 18:39:20.44	WT901BLE68-01(48591DE3C19B)	0.088	-1.241	0.326	-12.268	-3.296	-57.922	-65.89	51.21	5.28	-58.114	-52.234	93.296	-0.77130	0.53415	-0.29120	-0.18668	31.0	13111	100
2025-3-27 18:39:20.73	WT901BLE68-01(48591DE3C19B)	0.088	-1.183	0.287	-13.367	8.789	-101.746	-66.93	50.08	4.07	-58.114	-52.234	93.296	-0.77130	0.53415	-0.29120	-0.18668	31.0	13111	100
2025-3-27 18:39:20.73	WT901BLE68-01(48591DE3C19B)	0.031	-1.183	0.287	-13.367	8.789	-101.746	-67.91	48.93	2.93	-58.114	-52.234	93.296	-0.77130	0.53415	-0.29120	-0.18668	31.0	13111	100
2025-3-27 18:39:20.73	WT901BLE68-01(48591DE3C19B)	0.031	-1.167	0.200	-9.460	20.264	-141.479	-69.06	47.45	1.47	-58.114	-52.234	93.296	-0.77130	0.53415	-0.29120	-0.18668	31.0	13111	100
2025-3-27 18:39:20.73	WT901BLE68-01(48591DE3C19B)	-0.028	-1.167	0.200	-9.460	20.264	-141.479	-70.12	45.96	0.10	-64.092	-44.198	81.634	-0.77130	0.53415	-0.29120	-0.18668	31.0	13111	100
2025-3-27 18:39:20.103	WT901BLE68-01(48591DE3C19B)	-0.028	-1.073	0.127	-5.249	22.827	-172.058	-71.18	44.18	-1.35	-64.092	-44.198	81.634	-0.77130	0.53415	-0.29120	-0.18668	31.0	13111	100
2025-3-27 18:39:20.103	WT901BLE68-01(48591DE3C19B)	-0.048	-1.073	0.127	-5.249	22.827	-172.058	-72.14	42.40	-2.71	-64.092	-44.198	81.634	-0.77130	0.53415	-0.29120	-0.18668	31.0	13111	100
2025-3-27 18:39:20.103	WT901BLE68-01(48591DE3C19B)	-0.048	-1.037	0.096	-2.441	23.071	-192.200	-73.04	40.42	-4.08	-64.092	-44.198	81.634	-0.77130	0.53415	-0.29120	-0.18668	31.0	13111	100
2025-3-27 18:39:20.103	WT901BLE68-01(48591DE3C19B)	-0.088	-1.037	0.096	-2.441	23.071	-192.200	-73.86	38.44	-5.35	-64.092	-44.198	81.634	-0.77130	0.53415	-0.29120	-0.18668	31.0	13111	100
2025-3-27 18:39:20.160	WT901BLE68-01(48591DE3C19B)	-0.156	-1.048	0.142	2.808	28.015	-206.299	-74.60	36.33	-6.65	-64.092	-44.198	81.634	-0.77130	0.53415	-0.29120	-0.18668	31.0	13111	100
2025-3-27 18:39:20.161	WT901BLE68-01(48591DE3C19B)	-0.156	-1.053	0.169	6.165	23.438	-214.783	-75.25	34.18	-7.87	-64.092	-44.198	81.634	-0.77130	0.53415	-0.29120	-0.18668	31.0	13111	100
2025-3-27 18:39:20.161	WT901BLE68-01(48591DE3C19B)	-0.213	-1.053	0.169	6.165	23.438	-214.783	-75.78	31.99	-9.00	-64.092	-44.198	81.634	-0.77130	0.53415	-0.29120	-0.18668	31.0	13111	100
2025-3-27 18:39:20.161	WT901BLE68-01(48591DE3C19B)	-0.213	-1.063	0.182	7.813	12.695	-223.694	-76.23	29.76	-10.03	-64.092	-44.198	81.634	-0.77130	0.53415	-0.29120	-0.18668	31.0	13111	100
2025-3-27 18:39:20.222	WT901BLE68-01(48591DE3C19B)	-0.210	-1.063	0.182	7.813	12.695	-223.694	-76.59	27.47	-10.96	-64.092	-44.198	81.634	-0.77130	0.53415	-0.29120	-0.18668	31.0	13111	100
2025-3-27 18:39:20.222	WT901BLE68-01(48591DE3C19B)	-0.210	-1.108	0.186	6.775	9.277	-231.140	-76.89	25.16	-11.83	-64.092	-44.198	81.634	-0.77130	0.53415	-0.29120	-0.18668	31.0	13111	100
2025-3-27 18:39:20.222	WT901BLE68-01(48591DE3C19B)	-0.201	-1.108	0.186	6.775	9.277	-231.140	-77.15	22.82	-12.66	-64.092	-44.198	81.634	-0.77130	0.53415	-0.29120	-0.18668	31.0	13111	100
2025-3-27 18:39:20.222	WT901BLE68-01(48591DE3C19B)	-0.201	-1.169	0.205	6.836	25.085	-238.037	-77.40	20.48	-13.55	-64.092	-44.198	81.634	-0.77130	0.53415	-0.29120	-0.18668	31.0	13111	100
2025-3-27 18:39:20.223	WT901BLE68-01(48591DE3C19B)	-0.261	-1.169	0.205	6.836	25.085	-238.037	-77.64	18.13	-14.49	-64.092	-44.198	81.634	-0.77130	0.53415	-0.29120	-0.18668	31.0	13111	100
2025-3-27 18:39:20.223	WT901BLE68-01(48591DE3C19B)	-0.261	-1.224	0.220	8.789	49.072	-241.882	-77.87	15.81	-15.53	-64.092	-44.198	81.634	-0.77130	0.53415	-0.29120	-0.18668	31.0	13111	100
2025-3-27 18:39:20.223	WT901BLE68-01(48591DE3C19B)	-0.317	-1.224	0.220	8.789	49.072	-241.882	-78.06	13.50	-16.66	-64.092	-44.198	81.634	-0.77130	0.53415	-0.29120	-0.18668	31.0	13111	100
2025-3-27 18:39:20.223	WT901BLE68-01(48591DE3C19B)	-0.317	-1.247	0.210	12.085	71.472	-243.042	-78.22	11.23	-17.88	-64.092	-44.198	81.634	-0.77130	0.53415	-0.29120	-0.18668	31.0	13111	100
2025-3-27 18:39:20.282	WT901BLE68-01(48591DE3C19B)	-0.334	-1.247	0.210	12.085	71.472	-243.042	-78.33	8.98	-19.18	-64.092	-44.198	81.634	-0.77130	0.53415	-0.29120	-0.18668	31.0	13111	100
2025-3-27 18:39:20.282	WT901BLE68-01(48591DE3C19B)	-0.334	-1.222	0.199	16.907	91.858	-239.990	-78.37	6.79	-20.56	-64.092	-44.198	81.634	-0.77130	0.53415	-0.29120	-0.18668	31.0	13111	100
2025-3-27 18:39:20.282	WT901BLE68-01(48591DE3C19B)	-0.376	-1.222	0.199	16.907	91.858	-239.990	-78.35	4.65	-22.01	-64.092	-44.198	81.634	-0.77130	0.53415	-0.29120	-0.18668	31.0	13111	100
2025-3-27 18:39:20.282	WT901BLE68-01(48591DE3C19B)	-0.376	-1.157	0.207	22.522	105.164	-233.093	-78.26	2.58	-23.51	-64.092	-44.198	81.634	-0.77130	0.53415	-0.29120	-0.18668	31.0	13111	100
2025-3-27 18:39:20.314	WT901BLE68-01(48591DE3C19B)	-0.436	-1.157	0.207	22.522	105.164	-233.093	-78.09	0.57	-25.06	-64.092	-44.198	81.634	-0.75699	0.61392	-0.13782	0.17599	31.0	13111	100
2025-3-27 18:39:20.314	WT901BLE68-01(48591DE3C19B)	-0.436	-1.071	0.227	27.527	107.117	-224.121	-77.84	-1.37	-26.60	-64.092	-44.198	81.634	-0.75699	0.61392	-0.13782	0.17599	31.0	13111	100
2025-3-27 18:39:20.314	WT901BLE68-01(48591DE3C19B)	-0.500	-1.071	0.227	27.527	107.117	-224.121	-77.52	-3.24	-28.14	-64.092	-44.198	81.634	-0.75699	0.61392	-0.13782	0.17599	31.0	13111	100
2025-3-27 18:39:20.314	WT901BLE68-01(48591DE3C19B)	-0.500	-0.984	0.238	30.334	98.145	-212.402	-77.14	-5.04	-29.62	-64.092	-44.198	81.634	-0.75699	0.61392	-0.13782	0.17599	31.0	13111	100
2025-3-27 18:39:20.343	WT901BLE68-01(48591DE3C19B)	-0.563	-0.984	0.238	30.334	98.145	-212.402	-76.71	-6.76	-31.05	-64.092	-44.198	81.634	-0.75699	0.61392	-0.13782	0.17599	31.0	13111	100
2025-3-27 18:39:20.343	WT901BLE68-01(48591DE3C19B)	-0.563	-0.944	0.246	30.212	83.313	-198.547	-76.25	-8.40	-32.39	-64.092	-44.198	81.634	-0.75699	0.61392	-0.13782	0.17599	31.0	13111	100
2025-3-27 18:39:20.343	WT901BLE68-01(48591DE3C19B)	-0.610	-0.944	0.246	30.212	83.313	-198.547	-75.77	-9.97	-33.65	-64.092	-44.198	81.634	-0.75699	0.61392	-0.13782	0.17599	31.0	13111	100
2025-3-27 18:39:20.343	WT901BLE68-01(48591DE3C19B)	-0.610	-0.928	0.281	31.372	67.627	-177.917	-75.27	-11.43	-34.82	-64.092	-44.198	81.634	-0.75699	0.61392	-0.13782	0.17599	31.0	13111	100
2025-3-27 18:39:20.401	WT901BLE68-01(48591DE3C19B)	-0.625	-0.928	0.281	31.372	67.627	-177.917	-74.75	-12.79	-35.88	-64.092	-44.198	81.634	-0.75699	0.61392	-0.13782	0.17599	31.0	13111	100
2025-3-27 18:39:20.401	WT901BLE68-01(48591DE3C19B)	-0.625	-0.909	0.290	30.457	48.279	-152.771	-74.25	-14.03	-36.83	-64.092	-44.198	81.634	-0.75699	0.61392	-0.13782	0.17599	31.0	13111	100
2025-3-27 18:39:20.401	WT901BLE68-01(48591DE3C19B)	-0.622	-0.909	0.290	30.457	48.279	-152.771	-73.76	-15.15	-37.64	-64.092	-44.198	81.634	-0.75699	0.61392	-0.13782	0.17599	31.0	13111	100
2025-3-27 18:39:20.401	WT901BLE68-01(48591DE3C19B)	-0.622	-0.920	0.295	28.320	37.415	-123.169	-73.30	-16.13	-38.36	-64.092	-44.198	81.634	-0.75699	0.61392	-0.13782	0.17599	31.0	13111	100
2025-3-27 18:39:20.431	WT901BLE68-01(48591DE3C19B)	-0.649	-0.920	0.295	28.320	37.415	-123.169	-72.87	-16.96	-38.99	-64.092	-44.198	81.634	-0.75699	0.61392	-0.13782	0.17599	31.0	13111	100
2025-3-27 18:39:20.431	WT901BLE68-01(48591DE3C19B)	-0.649	-0.953	0.274	27.527	39.917	-92.957	-72.44	-17.63	-39.58	-64.092	-44.198	81.634	-0.75699	0.61392	-0.13782	0.17599	31.0	13111	100
2025-3-27 18:39:20.431	WT901BLE68-01(48591DE3C19B)	-0.750	-0.953	0.274	27.527	39.917	-92.957	-72.02	-18.15	-40.14	-64.092	-44.198	81.634	-0.75699	0.61392	-0.13782	0.17599	31.0	13111	100
2025-3-27 18:39:20.431	WT901BLE68-01(48591DE3C19B)	-0.750	-1.002	0.244	22.888	44.922	-65.308	-71.63	-18.52	-40.68	-64.092	-44.198	81.634	-0.75699	0.61392	-0.13782	0.17599	31.0	13111	100
2025-3-27 18:39:20.463	WT901BLE68-01(48591DE3C19B)	-0.848	-1.002	0.244	22.888	44.922	-65.308	-71.27	-18.73	-41.19	-64.092	-44.198	81.634	-0.75699	0.61392	-0.13782	0.17599	31.0	13111	100
2025-3-27 18:39:20.463	WT901BLE68-01(48591DE3C19B)	-0.848	-1.111	0.256	13.916	38.818	-39.795	-70.99	-18.83	-41.62	-64.092	-44.198	81.634	-0.75699	0.61392	-0.13782	0.17599	31.0	13111	100
2025-3-27 18:39:20.463	WT901BLE68-01(48591DE3C19B)	-0.890	-1.111	0.256	13.916	38.818	-39.795	-70.78	-18.81	-41.96	-64.092	-44.198	81.634	-0.75699	0.61392	-0.13782	0.17599	31.0	13111	100
2025-3-27 18:39:20.463	WT901BLE68-01(48591DE3C19B)	-0.890	-1.287	0.276	3.235	27.222	-16.541	-70.66	-18.70	-42.21	-64.092	-44.198	81.634	-0.75699	0.61392	-0.13782	0.17599	31.0	13111	100
2025-3-27 18:39:20.522	WT901BLE68-01(48591DE3C19B)	-0.887	-1.287	0.276	3.235	27.222	-16.541	-70.63	-18.50	-42.35	-64.092	-44.198	81.634	-0.75699	0.61392	-0.13782	0.17599	31.0	13111	100
2025-3-27 18:39:20.522	WT901BLE68-01(48591DE3C19B)	-0.887	-1.447	0.292	-7.385	17.029	7.202	-70.69	-18.19	-42.40	-57.918	-42.140	82.810	-0.75699	0.61392	-0.13782	0.17599	31.0	13111	100
2025-3-27 18:39:20.522	WT901BLE68-01(48591DE3C19B)	-0.847	-1.447	0.292	-7.385	17.029	7.202	-70.82	-17.80	-42.36	-57.918	-42.140	82.810	-0.75699	0.61392	-0.13782	0.17599	31.0	13111	100
2025-3-27 18:39:20.522	WT901BLE68-01(48591DE3C19B)	-0.847	-1.490	0.311	-16.785	11.902	31.067	-71.03	-17.31	-42.25	-57.918	-42.140	82.810	-0.75699	0.61392	-0.13782	0.17599	31.0	13111	100
2025-3-27 18:39:20.551	WT901BLE68-01(48591DE3C19B)	-0.810	-1.490	0.311	-16.785	11.902	31.067	-71.29	-16.72	-42.09	-57.918	-42.140	82.810	-0.75699	0.61392	-0.13782	0.17599	31.0	13111	100
2025-3-27 18:39:20.551	WT901BLE68-01(48591DE3C19B)	-0.810	-1.360	0.328	-27.893	10.254	57.617	-71.63	-16.00	-41.88	-57.918	-42.140	82.810	-0.75699	0.61392	-0.13782	0.17599	31.0	13111	100
2025-3-27 18:39:20.551	WT901BLE68-01(48591DE3C19B)	-0.792	-1.360	0.328	-27.893	10.254	57.617	-72.02	-15.17	-41.62	-57.918	-42.140	82.810	-0.75699	0.61392	-0.13782	0.17599	31.0	13111	100
2025-3-27 18:39:20.551	WT901BLE68-01(48591DE3C19B)	-0.792	-1.172	0.329	-39.673	-1.038	85.815	-72.49	-14.22	-41.28	-57.918	-42.140	82.810	-0.75699	0.61392	-0.13782	0.17599	31.0	13111	100
2025-3-27 18:39:20.581	WT901BLE68-01(48591DE3C19B)	-0.751	-1.172	0.329	-39.673	-1.038	85.815	-73.03	-13.15	-40.85	-57.918	-42.140	82.810	-0.75699	0.61392	-0.13782	0.17599	31.0	13111	100
2025-3-27 18:39:20.581	WT901BLE68-01(48591DE3C19B)	-0.751	-1.031	0.299	-51.697	-25.818	113.403	-73.65	-11.99	-40.27	-57.918	-42.140	82.810	-0.75699	0.61392	-0.13782	0.17599	31.0	13111	100
2025-3-27 18:39:20.582	WT901BLE68-01(48591DE3C19B)	-0.720	-1.031	0.299	-51.697	-25.818	113.403	-74.35	-10.73	-39.55	-57.918	-42.140	82.810	-0.75699	0.61392	-0.13782	0.17599	31.0	13111	100
2025-3-27 18:39:20.582	WT901BLE68-01(48591DE3C19B)	-0.720	-0.979	0.241	-58.960	-56.946	141.052	-75.16	-9.28	-38.47	-57.918	-42.140	82.810	-0.75699	0.61392	-0.13782	0.17599	31.0	13111	100
2025-3-27 18:39:20.643	WT901BLE68-01(48591DE3C19B)	-0.666	-0.979	0.241	-58.960	-56.946	141.052	-75.94	-7.83	-37.42	-57.918	-42.140	82.810	-0.75699	0.61392	-0.13782	0.17599	31.0	13111	100
2025-3-27 18:39:20.644	WT901BLE68-01(48591DE3C19B)	-0.666	-1.009	0.165	-62.683	-87.830	168.030	-76.76	-6.17	-36.04	-57.918	-42.140	82.810	-0.75699	0.61392	-0.13782	0.17599	31.0	13111	100
2025-3-27 18:39:20.644	WT901BLE68-01(48591DE3C19B)	-0.573	-1.009	0.165	-62.683	-87.830	168.030	-77.54	-4.52	-34.69	-57.918	-42.140	82.810	-0.75699	0.61392	-0.13782	0.17599	31.0	13111	100
2025-3-27 18:39:20.644	WT901BLE68-01(48591DE3C19B)	-0.573	-1.115	0.068	-61.279	-109.863	191.772	-78.28	-2.66	-33.11	-57.918	-42.140	82.810	-0.75699	0.61392	-0.13782	0.17599	31.0	13111	100
2025-3-27 18:39:20.701	WT901BLE68-01(48591DE3C19B)	-0.475	-1.115	0.068	-61.279	-109.863	191.772	-78.96	-0.81	-31.56	-57.918	-42.140	82.810	-0.75699	0.61392	-0.13782	0.17599	31.0	13111	100
2025-3-27 18:39:20.701	WT901BLE68-01(48591DE3C19B)	-0.475	-1.239	0.022	-53.589	-123.779	211.731	-79.51	1.21	-29.88	-57.918	-42.140	82.810	-0.75699	0.61392	-0.13782	0.17599	31.0	13111	100
2025-3-27 18:39:20.701	WT901BLE68-01(48591DE3C19B)	-0.395	-1.239	0.022	-53.589	-123.779	211.731	-80.00	3.24	-28.22	-57.918	-42.140	82.810	-0.75699	0.61392	-0.13782	0.17599	31.0	13111	100
2025-3-27 18:39:20.701	WT901BLE68-01(48591DE3C19B)	-0.395	-1.357	0.035	-40.161	-132.324	227.356	-80.29	5.39	-26.48	-57.918	-42.140	82.810	-0.75015	0.61868	-0.18250	0.14532	31.0	13111	100
2025-3-27 18:39:20.703	WT901BLE68-01(48591DE3C19B)	-0.295	-1.357	0.035	-40.161	-132.324	227.356	-80.52	7.53	-24.75	-57.918	-42.140	82.810	-0.75015	0.61868	-0.18250	0.14532	31.0	13111	100
2025-3-27 18:39:20.703	WT901BLE68-01(48591DE3C19B)	-0.295	-1.463	0.039	-24.292	-132.385	236.633	-80.52	9.75	-23.03	-57.918	-42.140	82.810	-0.75015	0.61868	-0.18250	0.14532	31.0	13111	100
2025-3-27 18:39:20.703	WT901BLE68-01(48591DE3C19B)	-0.190	-1.463	0.039	-24.292	-132.385	236.633	-80.46	11.94	-21.31	-57.918	-42.140	82.810	-0.75015	0.61868	-0.18250	0.14532	31.0	13111	100
2025-3-27 18:39:20.703	WT901BLE68-01(48591DE3C19B)	-0.190	-1.500	0.044	-5.371	-118.408	240.967	-80.17	14.17	-19.71	-57.918	-42.140	82.810	-0.75015	0.61868	-0.18250	0.14532	31.0	13111	100
2025-3-27 18:39:20.762	WT901BLE68-01(48591DE3C19B)	-0.138	-1.500	0.044	-5.371	-118.408	240.967	-79.82	16.37	-18.11	-57.918	-42.140	82.810	-0.75015	0.61868	-0.18250	0.14532	31.0	13111	100
2025-3-27 18:39:20.762	WT901BLE68-01(48591DE3C19B)	-0.138	-1.422	0.052	10.864	-92.834	242.004	-79.31	18.59	-16.75	-57.918	-42.140	82.810	-0.75015	0.61868	-0.18250	0.14532	31.0	13111	100
2025-3-27 18:39:20.762	WT901BLE68-01(48591DE3C19B)	-0.136	-1.422	0.052	10.864	-92.834	242.004	-78.75	20.79	-15.37	-57.918	-42.140	82.810	-0.75015	0.61868	-0.18250	0.14532	31.0	13111	100
2025-3-27 18:39:20.762	WT901BLE68-01(48591DE3C19B)	-0.136	-1.350	0.070	17.883	-65.308	239.685	-78.17	22.97	-14.25	-57.918	-42.140	82.810	-0.75015	0.61868	-0.18250	0.14532	31.0	13111	100
2025-3-27 18:39:20.795	WT901BLE68-01(48591DE3C19B)	-0.139	-1.350	0.070	17.883	-65.308	239.685	-77.54	25.13	-13.10	-57.918	-42.140	82.810	-0.75015	0.61868	-0.18250	0.14532	31.0	13111	100
2025-3-27 18:39:20.795	WT901BLE68-01(48591DE3C19B)	-0.139	-1.304	0.076	21.545	-36.926	235.291	-76.95	27.28	-12.23	-57.918	-42.140	82.810	-0.75015	0.61868	-0.18250	0.14532	31.0	13111	100
2025-3-27 18:39:20.795	WT901BLE68-01(48591DE3C19B)	-0.153	-1.304	0.076	21.545	-36.926	235.291	-76.33	29.41	-11.33	-57.918	-42.140	82.810	-0.75015	0.61868	-0.18250	0.14532	31.0	13111	100
2025-3-27 18:39:20.795	WT901BLE68-01(48591DE3C19B)	-0.153	-1.216	0.061	21.729	-10.742	231.079	-75.81	31.53	-10.70	-57.918	-42.140	82.810	-0.75015	0.61868	-0.18250	0.14532	31.0	13111	100
2025-3-27 18:39:20.821	WT901BLE68-01(48591DE3C19B)	-0.167	-1.216	0.061	21.729	-10.742	231.079	-75.25	33.63	-10.04	-57.918	-42.140	82.810	-0.75015	0.61868	-0.18250	0.14532	31.0	13111	100
2025-3-27 18:39:20.822	WT901BLE68-01(48591DE3C19B)	-0.167	-1.122	0.041	17.029	8.728	227.600	-74.83	35.73	-9.59	-57.918	-42.140	82.810	-0.75015	0.61868	-0.18250	0.14532	31.0	13111	100
2025-3-27 18:39:20.822	WT901BLE68-01(48591DE3C19B)	-0.177	-1.122	0.041	17.029	8.728	227.600	-74.39	37.81	-9.11	-57.918	-42.140	82.810	-0.75015	0.61868	-0.18250	0.14532	31.0	13111	100
2025-3-27 18:39:20.822	WT901BLE68-01(48591DE3C19B)	-0.177	-1.067	0.044	9.094	21.790	223.999	-74.10	39.89	-8.78	-57.918	-42.140	82.810	-0.75015	0.61868	-0.18250	0.14532	31.0	13111	100
2025-3-27 18:39:20.881	WT901BLE68-01(48591DE3C19B)	-0.217	-1.067	0.044	9.094	21.790	223.999	-73.79	41.94	-8.43	-57.918	-42.140	82.810	-0.75015	0.61868	-0.18250	0.14532	31.0	13111	100
2025-3-27 18:39:20.882	WT901BLE68-01(48591DE3C19B)	-0.217	-1.116	0.052	-1.221	22.644	220.398	-73.58	43.95	-8.09	-57.918	-42.140	82.810	-0.75015	0.61868	-0.18250	0.14532	31.0	13111	100
2025-3-27 18:39:20.882	WT901BLE68-01(48591DE3C19B)	-0.245	-1.116	0.052	-1.221	22.644	220.398	-73.34	45.94	-7.72	-57.918	-42.140	82.810	-0.75015	0.61868	-0.18250	0.14532	31.0	13111	100
2025-3-27 18:39:20.882	WT901BLE68-01(48591DE3C19B)	-0.245	-1.208	0.040	-7.690	11.719	214.417	-73.04	47.85	-7.21	-57.918	-42.140	82.810	-0.75015	0.61868	-0.18250	0.14532	31.0	13111	100
2025-3-27 18:39:20.914	WT901BLE68-01(48591DE3C19B)	-0.220	-1.208	0.040	-7.690	11.719	214.417	-72.71	49.73	-6.67	-55.762	-42.434	71.148	-0.75015	0.61868	-0.18250	0.14532	31.0	13111	100
2025-3-27 18:39:20.914	WT901BLE68-01(48591DE3C19B)	-0.220	-1.275	0.059	-10.559	-5.859	205.627	-72.20	51.46	-5.87	-55.762	-42.434	71.148	-0.75015	0.61868	-0.18250	0.14532	31.0	13111	100
2025-3-27 18:39:20.914	WT901BLE68-01(48591DE3C19B)	-0.177	-1.275	0.059	-10.559	-5.859	205.627	-71.62	53.18	-5.02	-55.762	-42.434	71.148	-0.75015	0.61868	-0.18250	0.14532	31.0	13111	100
2025-3-27 18:39:20.914	WT901BLE68-01(48591DE3C19B)	-0.177	-1.424	0.060	-14.832	-25.085	188.171	-70.86	54.66	-3.90	-55.762	-42.434	71.148	-0.75015	0.61868	-0.18250	0.14532	31.0	13111	100
2025-3-27 18:39:20.943	WT901BLE68-01(48591DE3C19B)	-0.062	-1.424	0.060	-14.832	-25.085	188.171	-70.02	56.12	-2.71	-55.762	-42.434	71.148	-0.75015	0.61868	-0.18250	0.14532	31.0	13111	100
2025-3-27 18:39:20.943	WT901BLE68-01(48591DE3C19B)	-0.062	-1.627	0.018	-15.442	-37.170	159.302	-69.09	57.24	-1.44	-55.762	-42.434	71.148	-0.75015	0.61868	-0.18250	0.14532	31.0	13111	100
2025-3-27 18:39:20.943	WT901BLE68-01(48591DE3C19B)	0.128	-1.627	0.018	-15.442	-37.170	159.302	-68.10	58.35	-0.11	-55.762	-42.434	71.148	-0.75015	0.61868	-0.18250	0.14532	31.0	13111	100
2025-3-27 18:39:20.943	WT901BLE68-01(48591DE3C19B)	0.128	-1.731	-0.024	-6.958	-33.203	115.845	-67.31	59.05	0.88	-55.762	-42.434	71.148	-0.75015	0.61868	-0.18250	0.14532	31.0	13111	100
2025-3-27 18:39:21.1	WT901BLE68-01(48591DE3C19B)	0.389	-1.731	-0.024	-6.958	-33.203	115.845	-66.50	59.73	1.89	-55.762	-42.434	71.148	-0.75015	0.61868	-0.18250	0.14532	31.0	13111	100
2025-3-27 18:39:21.1	WT901BLE68-01(48591DE3C19B)	0.389	-1.662	-0.007	6.897	-13.489	59.998	-66.23	59.97	2.10	-55.762	-42.434	71.148	-0.75015	0.61868	-0.18250	0.14532	31.0	13111	100
2025-3-27 18:39:21.1	WT901BLE68-01(48591DE3C19B)	0.255	-1.662	-0.007	6.897	-13.489	59.998	-65.97	60.19	2.31	-55.762	-42.434	71.148	-0.75015	0.61868	-0.18250	0.14532	31.0	13111	100
2025-3-27 18:39:21.1	WT901BLE68-01(48591DE3C19B)	0.255	-1.414	0.140	-13.916	-7.813	-0.854	-66.45	59.89	1.90	-55.762	-42.434	71.148	-0.75015	0.61868	-0.18250	0.14532	31.0	13111	100
2025-3-27 18:39:21.30	WT901BLE68-01(48591DE3C19B)	0.024	-1.414	0.140	-13.916	-7.813	-0.854	-66.92	59.57	1.50	-55.762	-42.434	71.148	-0.75015	0.61868	-0.18250	0.14532	31.0	13111	100
2025-3-27 18:39:21.31	WT901BLE68-01(48591DE3C19B)	0.024	-1.330	0.349	-22.827	-18.921	-66.162	-67.70	58.61	0.82	-55.762	-42.434	71.148	-0.75015	0.61868	-0.18250	0.14532	31.0	13111	100
2025-3-27 18:39:21.31	WT901BLE68-01(48591DE3C19B)	-0.045	-1.330	0.349	-22.827	-18.921	-66.162	-68.44	57.65	0.19	-55.762	-42.434	71.148	-0.75015	0.61868	-0.18250	0.14532	31.0	13111	100
2025-3-27 18:39:21.31	WT901BLE68-01(48591DE3C19B)	-0.033	-1.265	0.419	-20.569	-25.757	-118.774	-69.29	56.17	-0.62	-55.762	-42.434	71.148	-0.75015	0.61868	-0.18250	0.14532	31.0	13111	100
2025-3-27 18:39:21.96	WT901BLE68-01(48591DE3C19B)	-0.033	-1.211	0.326	-13.977	-3.418	-164.368	-70.29	54.52	-1.67	-55.762	-42.434	71.148	-0.75015	0.61868	-0.18250	0.14532	31.0	13111	100
2025-3-27 18:39:21.96	WT901BLE68-01(48591DE3C19B)	-0.074	-1.211	0.326	-13.977	-3.418	-164.368	-71.39	52.69	-2.93	-55.762	-42.434	71.148	-0.75015	0.61868	-0.18250	0.14532	31.0	13111	100
2025-3-27 18:39:21.96	WT901BLE68-01(48591DE3C19B)	-0.074	-1.167	0.217	-12.573	14.099	-203.064	-72.55	50.70	-4.29	-55.762	-42.434	71.148	-0.75015	0.61868	-0.18250	0.14532	31.0	13111	100
2025-3-27 18:39:21.96	WT901BLE68-01(48591DE3C19B)	-0.102	-1.167	0.217	-12.573	14.099	-203.064	-73.73	48.54	-5.75	-55.762	-42.434	71.148	-0.75015	0.61868	-0.18250	0.14532	31.0	13111	100
2025-3-27 18:39:21.121	WT901BLE68-01(48591DE3C19B)	-0.102	-1.217	0.180	-11.108	22.095	-232.178	-74.86	46.25	-7.17	-55.762	-42.434	71.148	-0.74518	0.54272	-0.34119	-0.18335	31.0	13111	100
2025-3-27 18:39:21.121	WT901BLE68-01(48591DE3C19B)	-0.137	-1.217	0.180	-11.108	22.095	-232.178	-75.92	43.82	-8.58	-55.762	-42.434	71.148	-0.74518	0.54272	-0.34119	-0.18335	31.0	13111	100
2025-3-27 18:39:21.121	WT901BLE68-01(48591DE3C19B)	-0.137	-1.242	0.203	-7.751	19.165	-250.061	-76.85	41.31	-9.87	-55.762	-42.434	71.148	-0.74518	0.54272	-0.34119	-0.18335	31.0	13111	100
2025-3-27 18:39:21.121	WT901BLE68-01(48591DE3C19B)	-0.185	-1.242	0.203	-7.751	19.165	-250.061	-77.65	38.70	-11.06	-55.762	-42.434	71.148	-0.74518	0.54272	-0.34119	-0.18335	31.0	13111	100
2025-3-27 18:39:21.151	WT901BLE68-01(48591DE3C19B)	-0.185	-1.259	0.217	-6.287	13.916	-258.789	-78.34	36.06	-12.14	-55.762	-42.434	71.148	-0.74518	0.54272	-0.34119	-0.18335	31.0	13111	100
2025-3-27 18:39:21.152	WT901BLE68-01(48591DE3C19B)	-0.169	-1.259	0.217	-6.287	13.916	-258.789	-78.92	33.37	-13.12	-55.762	-42.434	71.148	-0.74518	0.54272	-0.34119	-0.18335	31.0	13111	100
2025-3-27 18:39:21.152	WT901BLE68-01(48591DE3C19B)	-0.169	-1.253	0.215	-1.343	20.203	-260.925	-79.43	30.69	-14.06	-55.762	-42.434	71.148	-0.74518	0.54272	-0.34119	-0.18335	31.0	13111	100
2025-3-27 18:39:21.152	WT901BLE68-01(48591DE3C19B)	-0.160	-1.253	0.215	-1.343	20.203	-260.925	-79.86	28.02	-14.99	-55.762	-42.434	71.148	-0.74518	0.54272	-0.34119	-0.18335	31.0	13111	100
2025-3-27 18:39:21.212	WT901BLE68-01(48591DE3C19B)	-0.160	-1.217	0.191	3.967	34.241	-261.047	-80.24	25.37	-15.94	-55.762	-42.434	71.148	-0.74518	0.54272	-0.34119	-0.18335	31.0	13111	100
2025-3-27 18:39:21.212	WT901BLE68-01(48591DE3C19B)	-0.180	-1.217	0.191	3.967	34.241	-261.047	-80.57	22.74	-16.91	-55.762	-42.434	71.148	-0.74518	0.54272	-0.34119	-0.18335	31.0	13111	100
2025-3-27 18:39:21.212	WT901BLE68-01(48591DE3C19B)	-0.180	-1.189	0.179	7.263	48.523	-261.353	-80.86	20.13	-17.93	-55.762	-42.434	71.148	-0.74518	0.54272	-0.34119	-0.18335	31.0	13111	100
2025-3-27 18:39:21.212	WT901BLE68-01(48591DE3C19B)	-0.226	-1.189	0.179	7.263	48.523	-261.353	-81.11	17.55	-18.98	-55.762	-42.434	71.148	-0.74518	0.54272	-0.34119	-0.18335	31.0	13111	100
2025-3-27 18:39:21.241	WT901BLE68-01(48591DE3C19B)	-0.226	-1.207	0.198	9.705	65.247	-261.658	-81.32	14.99	-20.08	-55.762	-42.434	71.148	-0.74518	0.54272	-0.34119	-0.18335	31.0	13111	100
2025-3-27 18:39:21.241	WT901BLE68-01(48591DE3C19B)	-0.296	-1.207	0.198	9.705	65.247	-261.658	-81.47	12.46	-21.24	-55.762	-42.434	71.148	-0.74518	0.54272	-0.34119	-0.18335	31.0	13111	100
2025-3-27 18:39:21.241	WT901BLE68-01(48591DE3C19B)	-0.296	-1.252	0.215	14.343	81.909	-259.583	-81.57	9.96	-22.46	-55.762	-42.434	71.148	-0.74518	0.54272	-0.34119	-0.18335	31.0	13111	100
2025-3-27 18:39:21.241	WT901BLE68-01(48591DE3C19B)	-0.376	-1.252	0.215	14.343	81.909	-259.583	-81.61	7.51	-23.73	-55.762	-42.434	71.148	-0.74518	0.54272	-0.34119	-0.18335	31.0	13111	100
2025-3-27 18:39:21.301	WT901BLE68-01(48591DE3C19B)	-0.376	-1.242	0.221	21.362	91.003	-254.089	-81.56	5.11	-25.03	-55.762	-42.434	71.148	-0.74518	0.54272	-0.34119	-0.18335	31.0	13111	100
2025-3-27 18:39:21.301	WT901BLE68-01(48591DE3C19B)	-0.464	-1.242	0.221	21.362	91.003	-254.089	-81.43	2.76	-26.36	-55.762	-42.434	71.148	-0.74518	0.54272	-0.34119	-0.18335	31.0	13111	100
2025-3-27 18:39:21.301	WT901BLE68-01(48591DE3C19B)	-0.464	-1.179	0.236	27.344	85.693	-245.178	-81.22	0.48	-27.64	-55.762	-42.434	71.148	-0.74518	0.54272	-0.34119	-0.18335	31.0	13111	100
2025-3-27 18:39:21.301	WT901BLE68-01(48591DE3C19B)	-0.536	-1.179	0.236	27.344	85.693	-245.178	-80.92	-1.73	-28.90	-55.762	-42.434	71.148	-0.74518	0.54272	-0.34119	-0.18335	31.0	13111	100
2025-3-27 18:39:21.331	WT901BLE68-01(48591DE3C19B)	-0.536	-1.094	0.269	32.898	69.946	-234.314	-80.56	-3.88	-30.07	-55.762	-42.434	71.148	-0.74518	0.54272	-0.34119	-0.18335	31.0	13111	100
2025-3-27 18:39:21.331	WT901BLE68-01(48591DE3C19B)	-0.583	-1.094	0.269	32.898	69.946	-234.314	-80.13	-5.97	-31.16	-51.156	-36.456	70.070	-0.74518	0.54272	-0.34119	-0.18335	31.0	13111	100
2025-3-27 18:39:21.331	WT901BLE68-01(48591DE3C19B)	-0.583	-1.008	0.292	35.889	50.354	-220.703	-79.67	-7.97	-32.15	-51.156	-36.456	70.070	-0.74518	0.54272	-0.34119	-0.18335	31.0	13111	100
2025-3-27 18:39:21.331	WT901BLE68-01(48591DE3C19B)	-0.598	-1.008	0.292	35.889	50.354	-220.703	-79.17	-9.89	-33.05	-51.156	-36.456	70.070	-0.74518	0.54272	-0.34119	-0.18335	31.0	13111	100
2025-3-27 18:39:21.361	WT901BLE68-01(48591DE3C19B)	-0.598	-0.944	0.297	36.072	32.227	-204.407	-78.66	-11.73	-33.85	-51.156	-36.456	70.070	-0.74518	0.54272	-0.34119	-0.18335	31.0	13111	100
2025-3-27 18:39:21.361	WT901BLE68-01(48591DE3C19B)	-0.574	-0.944	0.297	36.072	32.227	-204.407	-78.14	-13.49	-34.56	-51.156	-36.456	70.070	-0.74518	0.54272	-0.34119	-0.18335	31.0	13111	100
2025-3-27 18:39:21.361	WT901BLE68-01(48591DE3C19B)	-0.574	-0.917	0.311	35.461	20.325	-185.181	-77.63	-15.13	-35.21	-51.156	-36.456	70.070	-0.74518	0.54272	-0.34119	-0.18335	31.0	13111	100
2025-3-27 18:39:21.361	WT901BLE68-01(48591DE3C19B)	-0.544	-0.917	0.311	35.461	20.325	-185.181	-77.11	-16.68	-35.78	-51.156	-36.456	70.070	-0.74518	0.54272	-0.34119	-0.18335	31.0	13111	100
2025-3-27 18:39:21.395	WT901BLE68-01(48591DE3C19B)	-0.544	-0.896	0.324	36.194	14.648	-161.743	-76.60	-18.09	-36.31	-51.156	-36.456	70.070	-0.74518	0.54272	-0.34119	-0.18335	31.0	13111	100
2025-3-27 18:39:21.395	WT901BLE68-01(48591DE3C19B)	-0.506	-0.896	0.324	36.194	14.648	-161.743	-76.08	-19.39	-36.80	-51.156	-36.456	70.070	-0.74518	0.54272	-0.34119	-0.18335	31.0	13111	100
2025-3-27 18:39:21.396	WT901BLE68-01(48591DE3C19B)	-0.506	-0.870	0.283	33.020	16.663	-139.038	-75.57	-20.56	-37.28	-51.156	-36.456	70.070	-0.74518	0.54272	-0.34119	-0.18335	31.0	13111	100
2025-3-27 18:39:21.396	WT901BLE68-01(48591DE3C19B)	-0.537	-0.870	0.283	33.020	16.663	-139.038	-75.08	-21.60	-37.75	-51.156	-36.456	70.070	-0.74518	0.54272	-0.34119	-0.18335	31.0	13111	100
2025-3-27 18:39:21.453	WT901BLE68-01(48591DE3C19B)	-0.537	-0.981	0.248	25.940	17.395	-116.516	-74.61	-22.52	-38.20	-51.156	-36.456	70.070	-0.74518	0.54272	-0.34119	-0.18335	31.0	13111	100
2025-3-27 18:39:21.453	WT901BLE68-01(48591DE3C19B)	-0.696	-0.981	0.248	25.940	17.395	-116.516	-74.19	-23.32	-38.63	-51.156	-36.456	70.070	-0.74518	0.54272	-0.34119	-0.18335	31.0	13111	100
2025-3-27 18:39:21.453	WT901BLE68-01(48591DE3C19B)	-0.696	-1.217	0.289	19.714	6.836	-92.163	-73.83	-24.01	-38.98	-51.156	-36.456	70.070	-0.74518	0.54272	-0.34119	-0.18335	31.0	13111	100
2025-3-27 18:39:21.453	WT901BLE68-01(48591DE3C19B)	-0.803	-1.217	0.289	19.714	6.836	-92.163	-73.54	-24.59	-39.23	-51.156	-36.456	70.070	-0.74518	0.54272	-0.34119	-0.18335	31.0	13111	100
2025-3-27 18:39:21.483	WT901BLE68-01(48591DE3C19B)	-0.803	-1.425	0.340	16.235	-8.667	-67.139	-73.32	-25.07	-39.36	-51.156	-36.456	70.070	-0.74518	0.54272	-0.34119	-0.18335	31.0	13111	100
2025-3-27 18:39:21.484	WT901BLE68-01(48591DE3C19B)	-0.741	-1.425	0.340	16.235	-8.667	-67.139	-73.16	-25.44	-39.38	-51.156	-36.456	70.070	-0.74518	0.54272	-0.34119	-0.18335	31.0	13111	100
2025-3-27 18:39:21.484	WT901BLE68-01(48591DE3C19B)	-0.741	-1.426	0.352	12.817	-13.916	-36.560	-73.06	-25.67	-39.31	-51.156	-36.456	70.070	-0.74518	0.54272	-0.34119	-0.18335	31.0	13111	100
2025-3-27 18:39:21.484	WT901BLE68-01(48591DE3C19B)	-0.657	-1.426	0.352	12.817	-13.916	-36.560	-73.01	-25.76	-39.17	-51.156	-36.456	70.070	-0.69394	0.60635	-0.02475	0.38739	31.0	13111	100
2025-3-27 18:39:21.514	WT901BLE68-01(48591DE3C19B)	-0.657	-1.218	0.339	6.104	-9.277	-2.991	-73.00	-25.69	-39.00	-51.156	-36.456	70.070	-0.69394	0.60635	-0.02475	0.38739	31.0	13111	100
2025-3-27 18:39:21.514	WT901BLE68-01(48591DE3C19B)	-0.573	-1.218	0.339	6.104	-9.277	-2.991	-73.04	-25.45	-38.80	-51.156	-36.456	70.070	-0.69394	0.60635	-0.02475	0.38739	31.0	13111	100
2025-3-27 18:39:21.514	WT901BLE68-01(48591DE3C19B)	-0.573	-1.049	0.330	-9.644	-3.296	30.151	-73.17	-25.04	-38.58	-51.156	-36.456	70.070	-0.69394	0.60635	-0.02475	0.38739	31.0	13111	100
2025-3-27 18:39:21.514	WT901BLE68-01(48591DE3C19B)	-0.573	-1.049	0.330	-9.644	-3.296	30.151	-73.38	-24.47	-38.35	-51.156	-36.456	70.070	-0.69394	0.60635	-0.02475	0.38739	31.0	13111	100
2025-3-27 18:39:21.571	WT901BLE68-01(48591DE3C19B)	-0.573	-0.982	0.338	-22.156	-0.488	59.631	-73.72	-23.60	-38.06	-51.156	-36.456	70.070	-0.69394	0.60635	-0.02475	0.38739	31.0	13111	100
2025-3-27 18:39:21.571	WT901BLE68-01(48591DE3C19B)	-0.597	-0.982	0.338	-22.156	-0.488	59.631	-74.06	-22.74	-37.77	-51.156	-36.456	70.070	-0.69394	0.60635	-0.02475	0.38739	31.0	13111	100
2025-3-27 18:39:21.571	WT901BLE68-01(48591DE3C19B)	-0.597	-0.988	0.327	-30.090	-10.254	84.351	-74.54	-21.68	-37.32	-51.156	-36.456	70.070	-0.69394	0.60635	-0.02475	0.38739	31.0	13111	100
2025-3-27 18:39:21.572	WT901BLE68-01(48591DE3C19B)	-0.589	-0.988	0.327	-30.090	-10.254	84.351	-75.00	-20.60	-36.89	-51.156	-36.456	70.070	-0.69394	0.60635	-0.02475	0.38739	31.0	13111	100
2025-3-27 18:39:21.601	WT901BLE68-01(48591DE3C19B)	-0.589	-1.007	0.302	-31.494	-22.461	107.483	-75.52	-19.35	-36.28	-51.156	-36.456	70.070	-0.69394	0.60635	-0.02475	0.38739	31.0	13111	100
2025-3-27 18:39:21.601	WT901BLE68-01(48591DE3C19B)	-0.613	-1.007	0.302	-31.494	-22.461	107.483	-76.02	-18.09	-35.68	-51.156	-36.456	70.070	-0.69394	0.60635	-0.02475	0.38739	31.0	13111	100
2025-3-27 18:39:21.601	WT901BLE68-01(48591DE3C19B)	-0.613	-1.024	0.250	-31.006	-30.090	131.287	-76.54	-16.62	-34.97	-51.156	-36.456	70.070	-0.69394	0.60635	-0.02475	0.38739	31.0	13111	100
2025-3-27 18:39:21.601	WT901BLE68-01(48591DE3C19B)	-0.632	-1.024	0.250	-31.006	-30.090	131.287	-77.03	-15.16	-34.28	-51.156	-36.456	70.070	-0.69394	0.60635	-0.02475	0.38739	31.0	13111	100
2025-3-27 18:39:21.631	WT901BLE68-01(48591DE3C19B)	-0.632	-1.156	0.148	-32.593	-39.307	154.663	-77.56	-13.49	-33.46	-51.156	-36.456	70.070	-0.69394	0.60635	-0.02475	0.38739	31.0	13111	100
2025-3-27 18:39:21.632	WT901BLE68-01(48591DE3C19B)	-0.615	-1.156	0.148	-32.593	-39.307	154.663	-78.06	-11.82	-32.67	-51.156	-36.456	70.070	-0.69394	0.60635	-0.02475	0.38739	31.0	13111	100
2025-3-27 18:39:21.632	WT901BLE68-01(48591DE3C19B)	-0.615	-1.352	0.057	-31.982	-55.725	179.138	-78.56	-9.95	-31.68	-51.156	-36.456	70.070	-0.69394	0.60635	-0.02475	0.38739	31.0	13111	100
2025-3-27 18:39:21.632	WT901BLE68-01(48591DE3C19B)	-0.553	-1.352	0.057	-31.982	-55.725	179.138	-79.04	-8.09	-30.71	-51.156	-36.456	70.070	-0.69394	0.60635	-0.02475	0.38739	31.0	13111	100
2025-3-27 18:39:21.695	WT901BLE68-01(48591DE3C19B)	-0.553	-1.497	0.019	-28.320	-80.750	205.017	-79.49	-6.03	-29.48	-51.156	-36.456	70.070	-0.69394	0.60635	-0.02475	0.38739	31.0	13111	100
2025-3-27 18:39:21.695	WT901BLE68-01(48591DE3C19B)	-0.434	-1.497	0.019	-28.320	-80.750	205.017	-79.89	-3.97	-28.27	-51.156	-36.456	70.070	-0.69394	0.60635	-0.02475	0.38739	31.0	13111	100
2025-3-27 18:39:21.695	WT901BLE68-01(48591DE3C19B)	-0.434	-1.558	0.025	-23.987	-104.187	228.821	-80.21	-1.73	-26.82	-51.156	-36.456	70.070	-0.69394	0.60635	-0.02475	0.38739	31.0	13111	100
2025-3-27 18:39:21.695	WT901BLE68-01(48591DE3C19B)	-0.301	-1.558	0.025	-23.987	-104.187	228.821	-80.49	0.49	-25.39	-51.156	-36.456	70.070	-0.69394	0.60635	-0.02475	0.38739	31.0	13111	100
2025-3-27 18:39:21.721	WT901BLE68-01(48591DE3C19B)	-0.301	-1.649	0.056	-19.592	-116.394	248.230	-80.65	2.87	-23.82	-46.746	-31.164	70.462	-0.69394	0.60635	-0.02475	0.38739	31.0	13111	100
2025-3-27 18:39:21.721	WT901BLE68-01(48591DE3C19B)	-0.202	-1.649	0.056	-19.592	-116.394	248.230	-80.76	5.23	-22.27	-46.746	-31.164	70.462	-0.69394	0.60635	-0.02475	0.38739	31.0	13111	100
2025-3-27 18:39:21.721	WT901BLE68-01(48591DE3C19B)	-0.202	-1.694	0.103	-7.690	-113.953	263.123	-80.68	7.72	-20.73	-46.746	-31.164	70.462	-0.69394	0.60635	-0.02475	0.38739	31.0	13111	100
2025-3-27 18:39:21.721	WT901BLE68-01(48591DE3C19B)	-0.140	-1.694	0.103	-7.690	-113.953	263.123	-80.53	10.18	-19.19	-46.746	-31.164	70.462	-0.69394	0.60635	-0.02475	0.38739	31.0	13111	100
2025-3-27 18:39:21.751	WT901BLE68-01(48591DE3C19B)	-0.140	-1.604	0.136	5.310	-94.604	271.729	-80.22	12.73	-17.81	-46.746	-31.164	70.462	-0.69394	0.60635	-0.02475	0.38739	31.0	13111	100
2025-3-27 18:39:21.751	WT901BLE68-01(48591DE3C19B)	-0.143	-1.604	0.136	5.310	-94.604	271.729	-79.84	15.25	-16.42	-46.746	-31.164	70.462	-0.69394	0.60635	-0.02475	0.38739	31.0	13111	100
2025-3-27 18:39:21.751	WT901BLE68-01(48591DE3C19B)	-0.143	-1.463	0.160	12.756	-62.500	274.963	-79.42	17.84	-15.32	-46.746	-31.164	70.462	-0.69394	0.60635	-0.02475	0.38739	31.0	13111	100
2025-3-27 18:39:21.751	WT901BLE68-01(48591DE3C19B)	-0.169	-1.463	0.160	12.756	-62.500	274.963	-78.94	20.39	-14.19	-46.746	-31.164	70.462	-0.69394	0.60635	-0.02475	0.38739	31.0	13111	100
2025-3-27 18:39:21.812	WT901BLE68-01(48591DE3C19B)	-0.169	-1.332	0.158	15.686	-26.611	272.888	-78.50	22.96	-13.42	-46.746	-31.164	70.462	-0.69394	0.60635	-0.02475	0.38739	31.0	13111	100
2025-3-27 18:39:21.813	WT901BLE68-01(48591DE3C19B)	-0.200	-1.332	0.158	15.686	-26.611	272.888	-78.02	25.51	-12.61	-46.746	-31.164	70.462	-0.69394	0.60635	-0.02475	0.38739	31.0	13111	100
2025-3-27 18:39:21.813	WT901BLE68-01(48591DE3C19B)	-0.200	-1.187	0.123	15.137	6.287	268.799	-77.67	28.06	-12.14	-46.746	-31.164	70.462	-0.69394	0.60635	-0.02475	0.38739	31.0	13111	100
2025-3-27 18:39:21.813	WT901BLE68-01(48591DE3C19B)	-0.212	-1.187	0.123	15.137	6.287	268.799	-77.29	30.60	-11.64	-46.746	-31.164	70.462	-0.69394	0.60635	-0.02475	0.38739	31.0	13111	100
2025-3-27 18:39:21.841	WT901BLE68-01(48591DE3C19B)	-0.212	-1.054	0.066	10.254	25.757	263.672	-77.04	33.11	-11.35	-46.746	-31.164	70.462	-0.69394	0.60635	-0.02475	0.38739	31.0	13111	100
2025-3-27 18:39:21.841	WT901BLE68-01(48591DE3C19B)	-0.199	-1.054	0.066	10.254	25.757	263.672	-76.77	35.61	-11.04	-46.746	-31.164	70.462	-0.69394	0.60635	-0.02475	0.38739	31.0	13111	100
2025-3-27 18:39:21.841	WT901BLE68-01(48591DE3C19B)	-0.199	-0.942	0.013	2.747	33.508	256.653	-76.63	38.04	-10.83	-46.746	-31.164	70.462	-0.69394	0.60635	-0.02475	0.38739	31.0	13111	100
2025-3-27 18:39:21.841	WT901BLE68-01(48591DE3C19B)	-0.212	-0.942	0.013	2.747	33.508	256.653	-76.47	40.45	-10.60	-46.746	-31.164	70.462	-0.69394	0.60635	-0.02475	0.38739	31.0	13111	100
2025-3-27 18:39:21.873	WT901BLE68-01(48591DE3C19B)	-0.212	-0.863	-0.014	-6.042	27.100	247.925	-76.34	42.76	-10.31	-46.746	-31.164	70.462	-0.69394	0.60635	-0.02475	0.38739	31.0	13111	100
2025-3-27 18:39:21.873	WT901BLE68-01(48591DE3C19B)	-0.249	-0.863	-0.014	-6.042	27.100	247.925	-76.20	45.05	-9.99	-46.746	-31.164	70.462	-0.69394	0.60635	-0.02475	0.38739	31.0	13111	100
2025-3-27 18:39:21.873	WT901BLE68-01(48591DE3C19B)	-0.249	-0.869	-0.018	-17.761	5.859	237.122	-75.96	47.17	-9.40	-46.746	-31.164	70.462	-0.69394	0.60635	-0.02475	0.38739	31.0	13111	100
2025-3-27 18:39:21.873	WT901BLE68-01(48591DE3C19B)	-0.280	-0.869	-0.018	-17.761	5.859	237.122	-75.68	49.28	-8.78	-46.746	-31.164	70.462	-0.69394	0.60635	-0.02475	0.38739	31.0	13111	100
2025-3-27 18:39:21.932	WT901BLE68-01(48591DE3C19B)	-0.280	-1.064	0.007	-28.259	-23.865	219.482	-75.17	51.14	-7.73	-46.746	-31.164	70.462	-0.69394	0.60635	-0.02475	0.38739	31.0	13111	100
2025-3-27 18:39:21.932	WT901BLE68-01(48591DE3C19B)	-0.307	-1.064	0.007	-28.259	-23.865	219.482	-74.59	52.98	-6.62	-46.746	-31.164	70.462	-0.72641	0.52084	-0.38556	-0.22861	31.0	13111	100
2025-3-27 18:39:21.932	WT901BLE68-01(48591DE3C19B)	-0.307	-1.397	0.074	-29.297	-56.580	194.031	-73.60	54.46	-5.03	-46.746	-31.164	70.462	-0.72641	0.52084	-0.38556	-0.22861	31.0	13111	100
2025-3-27 18:39:21.932	WT901BLE68-01(48591DE3C19B)	-0.173	-1.397	0.074	-29.297	-56.580	194.031	-72.50	55.93	-3.34	-46.746	-31.164	70.462	-0.72641	0.52084	-0.38556	-0.22861	31.0	13111	100
2025-3-27 18:39:21.960	WT901BLE68-01(48591DE3C19B)	-0.173	-1.826	0.065	-22.278	-78.430	161.865	-71.08	56.98	-1.37	-46.746	-31.164	70.462	-0.72641	0.52084	-0.38556	-0.22861	31.0	13111	100
2025-3-27 18:39:21.961	WT901BLE68-01(48591DE3C19B)	0.125	-1.826	0.065	-22.278	-78.430	161.865	-69.56	58.00	0.69	-46.746	-31.164	70.462	-0.72641	0.52084	-0.38556	-0.22861	31.0	13111	100
2025-3-27 18:39:21.961	WT901BLE68-01(48591DE3C19B)	0.125	-2.041	-0.031	2.747	-68.726	121.765	-68.10	58.64	2.36	-46.746	-31.164	70.462	-0.72641	0.52084	-0.38556	-0.22861	31.0	13111	100
2025-3-27 18:39:21.961	WT901BLE68-01(48591DE3C19B)	0.302	-2.041	-0.031	2.747	-68.726	121.765	-66.60	59.25	4.08	-46.746	-31.164	70.462	-0.72641	0.52084	-0.38556	-0.22861	31.0	13111	100
2025-3-27 18:39:21.995	WT901BLE68-01(48591DE3C19B)	0.263	-1.828	-0.019	18.066	-39.551	79.773	-65.67	59.56	4.95	-46.746	-31.164	70.462	-0.72641	0.52084	-0.38556	-0.22861	31.0	13111	100
2025-3-27 18:39:21.995	WT901BLE68-01(48591DE3C19B)	0.263	-1.738	0.041	8.606	1.343	38.879	-65.25	59.77	5.28	-46.746	-31.164	70.462	-0.72641	0.52084	-0.38556	-0.22861	31.0	13111	100
2025-3-27 18:39:21.995	WT901BLE68-01(48591DE3C19B)	0.136	-1.738	0.041	8.606	1.343	38.879	-65.35	59.86	5.06	-46.746	-31.164	70.462	-0.72641	0.52084	-0.38556	-0.22861	31.0	13111	100
2025-3-27 18:39:21.995	WT901BLE68-01(48591DE3C19B)	0.136	-1.537	0.162	1.160	27.405	-4.150	-65.85	59.81	4.43	-46.746	-31.164	70.462	-0.72641	0.52084	-0.38556	-0.22861	31.0	13111	100
2025-3-27 18:39:22.82	WT901BLE68-01(48591DE3C19B)	0.110	-1.537	0.162	1.160	27.405	-4.150	-66.73	59.61	3.38	-46.746	-31.164	70.462	-0.72641	0.52084	-0.38556	-0.22861	31.0	13111	100
2025-3-27 18:39:22.82	WT901BLE68-01(48591DE3C19B)	0.110	-1.326	0.279	-0.549	42.542	-41.077	-67.84	59.25	2.08	-46.746	-31.164	70.462	-0.72641	0.52084	-0.38556	-0.22861	31.0	13111	100
2025-3-27 18:39:22.82	WT901BLE68-01(48591DE3C19B)	0.089	-1.326	0.279	-0.549	42.542	-41.077	-69.14	58.74	0.54	-46.746	-31.164	70.462	-0.72641	0.52084	-0.38556	-0.22861	31.0	13111	100
2025-3-27 18:39:22.82	WT901BLE68-01(48591DE3C19B)	0.089	-1.212	0.272	-2.869	45.593	-76.233	-70.51	58.05	-1.08	-46.746	-31.164	70.462	-0.72641	0.52084	-0.38556	-0.22861	31.0	13111	100
2025-3-27 18:39:22.84	WT901BLE68-01(48591DE3C19B)	0.086	-1.212	0.272	-2.869	45.593	-76.233	-71.93	57.18	-2.76	-46.746	-31.164	70.462	-0.72641	0.52084	-0.38556	-0.22861	31.0	13111	100
2025-3-27 18:39:22.84	WT901BLE68-01(48591DE3C19B)	0.086	-1.123	0.222	-3.479	43.579	-112.183	-73.33	56.12	-4.43	-46.746	-31.164	70.462	-0.72641	0.52084	-0.38556	-0.22861	31.0	13111	100
2025-3-27 18:39:22.84	WT901BLE68-01(48591DE3C19B)	-0.046	-1.123	0.222	-3.479	43.579	-112.183	-74.67	54.87	-6.08	-46.746	-31.164	70.462	-0.72641	0.52084	-0.38556	-0.22861	31.0	13111	100
2025-3-27 18:39:22.84	WT901BLE68-01(48591DE3C19B)	-0.046	-1.005	0.197	-6.531	31.311	-145.935	-75.90	53.42	-7.58	-46.746	-31.164	70.462	-0.72641	0.52084	-0.38556	-0.22861	31.0	13111	100
2025-3-27 18:39:22.142	WT901BLE68-01(48591DE3C19B)	-0.159	-1.005	0.197	-6.531	31.311	-145.935	-77.01	51.78	-8.94	-46.746	-31.164	70.462	-0.72641	0.52084	-0.38556	-0.22861	31.0	13111	100
2025-3-27 18:39:22.142	WT901BLE68-01(48591DE3C19B)	-0.159	-0.960	0.155	-10.925	9.277	-176.392	-77.93	49.97	-10.07	-46.746	-31.164	70.462	-0.72641	0.52084	-0.38556	-0.22861	31.0	13111	100
2025-3-27 18:39:22.142	WT901BLE68-01(48591DE3C19B)	-0.178	-0.960	0.155	-10.925	9.277	-176.392	-78.70	47.99	-10.99	-45.570	-48.216	65.758	-0.72641	0.52084	-0.38556	-0.22861	31.0	13111	100
2025-3-27 18:39:22.142	WT901BLE68-01(48591DE3C19B)	-0.178	-0.995	0.147	-11.353	5.249	-203.247	-79.39	45.89	-11.84	-45.570	-48.216	65.758	-0.72641	0.52084	-0.38556	-0.22861	31.0	13111	100
2025-3-27 18:39:22.201	WT901BLE68-01(48591DE3C19B)	-0.160	-0.995	0.147	-11.353	5.249	-203.247	-80.01	43.65	-12.62	-45.570	-48.216	65.758	-0.72641	0.52084	-0.38556	-0.22861	31.0	13111	100
2025-3-27 18:39:22.201	WT901BLE68-01(48591DE3C19B)	-0.160	-1.017	0.152	-10.193	6.958	-226.440	-80.58	41.32	-13.36	-45.570	-48.216	65.758	-0.72641	0.52084	-0.38556	-0.22861	31.0	13111	100
2025-3-27 18:39:22.201	WT901BLE68-01(48591DE3C19B)	-0.149	-1.017	0.152	-10.193	6.958	-226.440	-81.11	38.89	-14.08	-45.570	-48.216	65.758	-0.72641	0.52084	-0.38556	-0.22861	31.0	13111	100
2025-3-27 18:39:22.201	WT901BLE68-01(48591DE3C19B)	-0.149	-1.071	0.155	-12.756	12.390	-246.399	-81.62	36.36	-14.79	-45.570	-48.216	65.758	-0.72641	0.52084	-0.38556	-0.22861	31.0	13111	100
2025-3-27 18:39:22.203	WT901BLE68-01(48591DE3C19B)	-0.193	-1.071	0.155	-12.756	12.390	-246.399	-82.11	33.76	-15.49	-45.570	-48.216	65.758	-0.72641	0.52084	-0.38556	-0.22861	31.0	13111	100
2025-3-27 18:39:22.203	WT901BLE68-01(48591DE3C19B)	-0.193	-1.182	0.206	-11.230	19.897	-262.207	-82.58	31.10	-16.19	-45.570	-48.216	65.758	-0.72641	0.52084	-0.38556	-0.22861	31.0	13111	100
2025-3-27 18:39:22.203	WT901BLE68-01(48591DE3C19B)	-0.246	-1.182	0.206	-11.230	19.897	-262.207	-83.01	28.38	-16.90	-45.570	-48.216	65.758	-0.72641	0.52084	-0.38556	-0.22861	31.0	13111	100
2025-3-27 18:39:22.203	WT901BLE68-01(48591DE3C19B)	-0.246	-1.263	0.282	-5.676	35.339	-272.583	-83.40	25.63	-17.65	-45.570	-48.216	65.758	-0.72641	0.52084	-0.38556	-0.22861	31.0	13111	100
2025-3-27 18:39:22.233	WT901BLE68-01(48591DE3C19B)	-0.311	-1.263	0.282	-5.676	35.339	-272.583	-83.75	22.85	-18.45	-45.570	-48.216	65.758	-0.72641	0.52084	-0.38556	-0.22861	31.0	13111	100
2025-3-27 18:39:22.233	WT901BLE68-01(48591DE3C19B)	-0.311	-1.349	0.330	1.953	54.504	-277.527	-84.05	20.08	-19.31	-45.570	-48.216	65.758	-0.72641	0.52084	-0.38556	-0.22861	31.0	13111	100
2025-3-27 18:39:22.233	WT901BLE68-01(48591DE3C19B)	-0.374	-1.349	0.330	1.953	54.504	-277.527	-84.29	17.30	-20.23	-45.570	-48.216	65.758	-0.72641	0.52084	-0.38556	-0.22861	31.0	13111	100
2025-3-27 18:39:22.234	WT901BLE68-01(48591DE3C19B)	-0.374	-1.416	0.318	15.015	66.772	-278.442	-84.43	14.55	-21.19	-45.570	-48.216	65.758	-0.72641	0.52084	-0.38556	-0.22861	31.0	13111	100
2025-3-27 18:39:22.294	WT901BLE68-01(48591DE3C19B)	-0.409	-1.416	0.318	15.015	66.772	-278.442	-84.47	11.82	-22.19	-45.570	-48.216	65.758	-0.72641	0.52084	-0.38556	-0.22861	31.0	13111	100
2025-3-27 18:39:22.294	WT901BLE68-01(48591DE3C19B)	-0.409	-1.410	0.260	30.212	71.838	-274.780	-84.39	9.12	-23.19	-45.570	-48.216	65.758	-0.72641	0.52084	-0.38556	-0.22861	31.0	13111	100
2025-3-27 18:39:22.294	WT901BLE68-01(48591DE3C19B)	-0.405	-1.410	0.260	30.212	71.838	-274.780	-84.20	6.48	-24.21	-45.570	-48.216	65.758	-0.72641	0.52084	-0.38556	-0.22861	31.0	13111	100
2025-3-27 18:39:22.294	WT901BLE68-01(48591DE3C19B)	-0.405	-1.356	0.196	43.213	75.745	-266.541	-83.89	3.90	-25.24	-45.570	-48.216	65.758	-0.72641	0.52084	-0.38556	-0.22861	31.0	13111	100
2025-3-27 18:39:22.323	WT901BLE68-01(48591DE3C19B)	-0.395	-1.356	0.196	43.213	75.745	-266.541	-83.49	1.39	-26.29	-45.570	-48.216	65.758	-0.72830	0.64621	-0.16022	0.16177	31.0	13111	100
2025-3-27 18:39:22.324	WT901BLE68-01(48591DE3C19B)	-0.395	-1.267	0.147	52.673	83.374	-255.615	-82.99	-1.03	-27.38	-45.570	-48.216	65.758	-0.72830	0.64621	-0.16022	0.16177	31.0	13111	100
2025-3-27 18:39:22.324	WT901BLE68-01(48591DE3C19B)	-0.417	-1.267	0.147	52.673	83.374	-255.615	-82.41	-3.37	-28.53	-45.570	-48.216	65.758	-0.72830	0.64621	-0.16022	0.16177	31.0	13111	100
2025-3-27 18:39:22.324	WT901BLE68-01(48591DE3C19B)	-0.417	-1.149	0.141	58.167	92.041	-242.432	-81.75	-5.61	-29.72	-45.570	-48.216	65.758	-0.72830	0.64621	-0.16022	0.16177	31.0	13111	100
2025-3-27 18:39:22.381	WT901BLE68-01(48591DE3C19B)	-0.486	-1.149	0.141	58.167	92.041	-242.432	-81.02	-7.75	-30.97	-45.570	-48.216	65.758	-0.72830	0.64621	-0.16022	0.16177	31.0	13111	100
2025-3-27 18:39:22.382	WT901BLE68-01(48591DE3C19B)	-0.486	-1.018	0.190	59.509	91.370	-226.318	-80.24	-9.77	-32.24	-45.570	-48.216	65.758	-0.72830	0.64621	-0.16022	0.16177	31.0	13111	100
2025-3-27 18:39:22.382	WT901BLE68-01(48591DE3C19B)	-0.542	-1.018	0.190	59.509	91.370	-226.318	-79.42	-11.68	-33.51	-45.570	-48.216	65.758	-0.72830	0.64621	-0.16022	0.16177	31.0	13111	100
2025-3-27 18:39:22.382	WT901BLE68-01(48591DE3C19B)	-0.542	-0.916	0.259	56.030	78.125	-208.862	-78.59	-13.48	-34.73	-45.570	-48.216	65.758	-0.72830	0.64621	-0.16022	0.16177	31.0	13111	100
2025-3-27 18:39:22.411	WT901BLE68-01(48591DE3C19B)	-0.548	-0.916	0.259	56.030	78.125	-208.862	-77.75	-15.17	-35.90	-45.570	-48.216	65.758	-0.72830	0.64621	-0.16022	0.16177	31.0	13111	100
2025-3-27 18:39:22.411	WT901BLE68-01(48591DE3C19B)	-0.548	-0.888	0.279	49.866	63.782	-188.477	-76.94	-16.75	-37.00	-45.570	-48.216	65.758	-0.72830	0.64621	-0.16022	0.16177	31.0	13111	100
2025-3-27 18:39:22.411	WT901BLE68-01(48591DE3C19B)	-0.563	-0.888	0.279	49.866	63.782	-188.477	-76.15	-18.22	-38.03	-45.570	-48.216	65.758	-0.72830	0.64621	-0.16022	0.16177	31.0	13111	100
2025-3-27 18:39:22.411	WT901BLE68-01(48591DE3C19B)	-0.563	-0.900	0.273	43.579	50.964	-164.429	-75.38	-19.56	-38.98	-45.570	-48.216	65.758	-0.72830	0.64621	-0.16022	0.16177	31.0	13111	100
2025-3-27 18:39:22.441	WT901BLE68-01(48591DE3C19B)	-0.628	-0.900	0.273	43.579	50.964	-164.429	-74.66	-20.78	-39.86	-45.570	-48.216	65.758	-0.72830	0.64621	-0.16022	0.16177	31.0	13111	100
2025-3-27 18:39:22.441	WT901BLE68-01(48591DE3C19B)	-0.628	-0.949	0.284	36.865	27.771	-139.832	-74.01	-21.88	-40.61	-45.570	-48.216	65.758	-0.72830	0.64621	-0.16022	0.16177	31.0	13111	100
2025-3-27 18:39:22.441	WT901BLE68-01(48591DE3C19B)	-0.674	-0.949	0.284	36.865	27.771	-139.832	-73.43	-22.88	-41.21	-45.570	-48.216	65.758	-0.72830	0.64621	-0.16022	0.16177	31.0	13111	100
2025-3-27 18:39:22.441	WT901BLE68-01(48591DE3C19B)	-0.674	-1.049	0.303	29.968	-0.671	-116.150	-73.06	-23.72	-41.45	-45.570	-48.216	65.758	-0.72830	0.64621	-0.16022	0.16177	31.0	13111	100
2025-3-27 18:39:22.501	WT901BLE68-01(48591DE3C19B)	-0.656	-1.049	0.303	29.968	-0.671	-116.150	-72.68	-24.55	-41.70	-45.570	-48.216	65.758	-0.72830	0.64621	-0.16022	0.16177	31.0	13111	100
2025-3-27 18:39:22.501	WT901BLE68-01(48591DE3C19B)	-0.656	-1.140	0.302	24.963	-17.212	-91.370	-72.45	-25.19	-41.70	-45.570	-48.216	65.758	-0.72830	0.64621	-0.16022	0.16177	31.0	13111	100
2025-3-27 18:39:22.501	WT901BLE68-01(48591DE3C19B)	-0.602	-1.140	0.302	24.963	-17.212	-91.370	-72.22	-25.82	-41.70	-45.570	-48.216	65.758	-0.72830	0.64621	-0.16022	0.16177	31.0	13111	100
2025-3-27 18:39:22.501	WT901BLE68-01(48591DE3C19B)	-0.602	-1.219	0.282	17.395	-14.709	-63.599	-72.10	-26.18	-41.64	-45.570	-48.216	65.758	-0.72830	0.64621	-0.16022	0.16177	31.0	13111	100
2025-3-27 18:39:22.531	WT901BLE68-01(48591DE3C19B)	-0.570	-1.219	0.282	17.395	-14.709	-63.599	-71.97	-26.53	-41.58	-51.940	-16.856	72.814	-0.72830	0.64621	-0.16022	0.16177	31.0	13111	100
2025-3-27 18:39:22.531	WT901BLE68-01(48591DE3C19B)	-0.570	-1.250	0.275	13.123	0.488	-35.706	-71.86	-26.57	-41.59	-51.940	-16.856	72.814	-0.72830	0.64621	-0.16022	0.16177	31.0	13111	100
2025-3-27 18:39:22.531	WT901BLE68-01(48591DE3C19B)	-0.539	-1.250	0.275	13.123	0.488	-35.706	-71.75	-26.61	-41.61	-51.940	-16.856	72.814	-0.72830	0.64621	-0.16022	0.16177	31.0	13111	100
2025-3-27 18:39:22.531	WT901BLE68-01(48591DE3C19B)	-0.539	-1.177	0.300	4.333	22.461	-6.836	-71.67	-26.31	-41.75	-51.940	-16.856	72.814	-0.72830	0.64621	-0.16022	0.16177	31.0	13111	100
2025-3-27 18:39:22.596	WT901BLE68-01(48591DE3C19B)	-0.541	-1.177	0.300	4.333	22.461	-6.836	-71.59	-26.02	-41.90	-51.940	-16.856	72.814	-0.72830	0.64621	-0.16022	0.16177	31.0	13111	100
2025-3-27 18:39:22.596	WT901BLE68-01(48591DE3C19B)	-0.541	-1.117	0.348	-8.362	36.072	24.536	-71.61	-25.38	-42.07	-51.940	-16.856	72.814	-0.72830	0.64621	-0.16022	0.16177	31.0	13111	100
2025-3-27 18:39:22.596	WT901BLE68-01(48591DE3C19B)	-0.542	-1.117	0.348	-8.362	36.072	24.536	-71.65	-24.75	-42.25	-51.940	-16.856	72.814	-0.72830	0.64621	-0.16022	0.16177	31.0	13111	100
2025-3-27 18:39:22.596	WT901BLE68-01(48591DE3C19B)	-0.542	-1.151	0.390	-22.156	31.189	52.979	-71.87	-23.87	-42.29	-51.940	-16.856	72.814	-0.72830	0.64621	-0.16022	0.16177	31.0	13111	100
2025-3-27 18:39:22.622	WT901BLE68-01(48591DE3C19B)	-0.551	-1.151	0.390	-22.156	31.189	52.979	-72.10	-22.99	-42.32	-51.940	-16.856	72.814	-0.72830	0.64621	-0.16022	0.16177	31.0	13111	100
2025-3-27 18:39:22.622	WT901BLE68-01(48591DE3C19B)	-0.551	-1.208	0.392	-28.625	19.348	78.125	-72.46	-21.92	-42.15	-51.940	-16.856	72.814	-0.72830	0.64621	-0.16022	0.16177	31.0	13111	100
2025-3-27 18:39:22.622	WT901BLE68-01(48591DE3C19B)	-0.582	-1.208	0.392	-28.625	19.348	78.125	-72.82	-20.85	-42.00	-51.940	-16.856	72.814	-0.72830	0.64621	-0.16022	0.16177	31.0	13111	100
2025-3-27 18:39:22.622	WT901BLE68-01(48591DE3C19B)	-0.582	-1.150	0.344	-31.982	4.395	101.501	-73.27	-19.61	-41.63	-51.940	-16.856	72.814	-0.72830	0.64621	-0.16022	0.16177	31.0	13111	100
2025-3-27 18:39:22.650	WT901BLE68-01(48591DE3C19B)	-0.591	-1.150	0.344	-31.982	4.395	101.501	-73.72	-18.37	-41.27	-51.940	-16.856	72.814	-0.72830	0.64621	-0.16022	0.16177	31.0	13111	100
2025-3-27 18:39:22.650	WT901BLE68-01(48591DE3C19B)	-0.591	-1.170	0.267	-35.583	-14.160	124.146	-74.26	-16.97	-40.68	-51.940	-16.856	72.814	-0.72830	0.64621	-0.16022	0.16177	31.0	13111	100
2025-3-27 18:39:22.651	WT901BLE68-01(48591DE3C19B)	-0.564	-1.170	0.267	-35.583	-14.160	124.146	-74.79	-15.57	-40.09	-51.940	-16.856	72.814	-0.72830	0.64621	-0.16022	0.16177	31.0	13111	100
2025-3-27 18:39:22.651	WT901BLE68-01(48591DE3C19B)	-0.564	-1.167	0.191	-34.363	-29.236	148.315	-75.34	-13.98	-39.32	-51.940	-16.856	72.814	-0.72830	0.64621	-0.16022	0.16177	31.0	13111	100
2025-3-27 18:39:22.683	WT901BLE68-01(48591DE3C19B)	-0.496	-1.167	0.191	-34.363	-29.236	148.315	-75.86	-12.39	-38.57	-51.940	-16.856	72.814	-0.72830	0.64621	-0.16022	0.16177	31.0	13111	100
2025-3-27 18:39:22.683	WT901BLE68-01(48591DE3C19B)	-0.496	-1.166	0.123	-36.255	-44.373	173.401	-76.43	-10.60	-37.62	-51.940	-16.856	72.814	-0.72830	0.64621	-0.16022	0.16177	31.0	13111	100
2025-3-27 18:39:22.683	WT901BLE68-01(48591DE3C19B)	-0.409	-1.166	0.123	-36.255	-44.373	173.401	-76.95	-8.82	-36.70	-51.940	-16.856	72.814	-0.72830	0.64621	-0.16022	0.16177	31.0	13111	100
2025-3-27 18:39:22.683	WT901BLE68-01(48591DE3C19B)	-0.409	-1.248	0.083	-37.842	-59.265	197.510	-77.50	-6.83	-35.61	-51.940	-16.856	72.814	-0.72830	0.64621	-0.16022	0.16177	31.0	13111	100
2025-3-27 18:39:22.742	WT901BLE68-01(48591DE3C19B)	-0.332	-1.248	0.083	-37.842	-59.265	197.510	-78.00	-4.86	-34.54	-51.940	-16.856	72.814	-0.72830	0.64621	-0.16022	0.16177	31.0	13111	100
2025-3-27 18:39:22.742	WT901BLE68-01(48591DE3C19B)	-0.332	-1.381	0.060	-39.429	-71.350	219.055	-78.49	-2.71	-33.33	-51.940	-16.856	72.814	-0.73914	0.61151	-0.16815	0.22656	31.0	13111	100
2025-3-27 18:39:22.742	WT901BLE68-01(48591DE3C19B)	-0.259	-1.381	0.060	-39.429	-71.350	219.055	-78.94	-0.56	-32.16	-51.940	-16.856	72.814	-0.73914	0.61151	-0.16815	0.22656	31.0	13111	100
2025-3-27 18:39:22.742	WT901BLE68-01(48591DE3C19B)	-0.259	-1.518	0.065	-37.781	-78.369	236.023	-79.33	1.72	-30.90	-51.940	-16.856	72.814	-0.73914	0.61151	-0.16815	0.22656	31.0	13111	100
2025-3-27 18:39:22.770	WT901BLE68-01(48591DE3C19B)	-0.207	-1.518	0.065	-37.781	-78.369	236.023	-79.66	3.99	-29.66	-51.940	-16.856	72.814	-0.73914	0.61151	-0.16815	0.22656	31.0	13111	100
2025-3-27 18:39:22.770	WT901BLE68-01(48591DE3C19B)	-0.207	-1.570	0.104	-31.311	-76.721	248.840	-79.89	6.38	-28.43	-51.940	-16.856	72.814	-0.73914	0.61151	-0.16815	0.22656	31.0	13111	100
2025-3-27 18:39:22.770	WT901BLE68-01(48591DE3C19B)	-0.200	-1.570	0.104	-31.311	-76.721	248.840	-80.06	8.75	-27.22	-51.940	-16.856	72.814	-0.73914	0.61151	-0.16815	0.22656	31.0	13111	100
2025-3-27 18:39:22.770	WT901BLE68-01(48591DE3C19B)	-0.200	-1.508	0.132	-25.574	-66.650	256.042	-80.15	11.19	-26.09	-51.940	-16.856	72.814	-0.73914	0.61151	-0.16815	0.22656	31.0	13111	100
2025-3-27 18:39:22.801	WT901BLE68-01(48591DE3C19B)	-0.213	-1.508	0.132	-25.574	-66.650	256.042	-80.18	13.61	-24.97	-51.940	-16.856	72.814	-0.73914	0.61151	-0.16815	0.22656	31.0	13111	100
2025-3-27 18:39:22.801	WT901BLE68-01(48591DE3C19B)	-0.213	-1.452	0.151	-23.376	-53.650	257.507	-80.18	16.05	-23.97	-51.940	-16.856	72.814	-0.73914	0.61151	-0.16815	0.22656	31.0	13111	100
2025-3-27 18:39:22.801	WT901BLE68-01(48591DE3C19B)	-0.216	-1.452	0.151	-23.376	-53.650	257.507	-80.13	18.47	-22.96	-51.940	-16.856	72.814	-0.73914	0.61151	-0.16815	0.22656	31.0	13111	100
2025-3-27 18:39:22.801	WT901BLE68-01(48591DE3C19B)	-0.216	-1.431	0.146	-20.447	-35.828	253.357	-80.07	20.86	-22.14	-51.940	-16.856	72.814	-0.73914	0.61151	-0.16815	0.22656	31.0	13111	100
2025-3-27 18:39:22.862	WT901BLE68-01(48591DE3C19B)	-0.227	-1.431	0.146	-20.447	-35.828	253.357	-79.98	23.24	-21.30	-51.940	-16.856	72.814	-0.73914	0.61151	-0.16815	0.22656	31.0	13111	100
2025-3-27 18:39:22.862	WT901BLE68-01(48591DE3C19B)	-0.227	-1.347	0.120	-16.235	-16.968	246.887	-79.90	25.57	-20.67	-51.940	-16.856	72.814	-0.73914	0.61151	-0.16815	0.22656	31.0	13111	100
2025-3-27 18:39:22.862	WT901BLE68-01(48591DE3C19B)	-0.233	-1.347	0.120	-16.235	-16.968	246.887	-79.79	27.87	-20.02	-51.940	-16.856	72.814	-0.73914	0.61151	-0.16815	0.22656	31.0	13111	100
2025-3-27 18:39:22.863	WT901BLE68-01(48591DE3C19B)	-0.233	-1.218	0.072	-15.747	-4.395	238.770	-79.72	30.11	-19.52	-51.940	-16.856	72.814	-0.73914	0.61151	-0.16815	0.22656	31.0	13111	100
2025-3-27 18:39:22.894	WT901BLE68-01(48591DE3C19B)	-0.235	-1.218	0.072	-15.747	-4.395	238.770	-79.63	32.33	-19.01	-51.940	-16.856	72.814	-0.73914	0.61151	-0.16815	0.22656	31.0	13111	100
2025-3-27 18:39:22.894	WT901BLE68-01(48591DE3C19B)	-0.235	-1.120	0.033	-18.250	0.793	230.835	-79.58	34.48	-18.57	-51.940	-16.856	72.814	-0.73914	0.61151	-0.16815	0.22656	31.0	13111	100
2025-3-27 18:39:22.894	WT901BLE68-01(48591DE3C19B)	-0.240	-1.120	0.033	-18.250	0.793	230.835	-79.51	36.61	-18.11	-51.940	-16.856	72.814	-0.73914	0.61151	-0.16815	0.22656	31.0	13111	100
2025-3-27 18:39:22.894	WT901BLE68-01(48591DE3C19B)	-0.232	-1.048	0.012	-20.935	-3.479	224.121	-79.44	38.65	-17.60	-41.552	-35.770	74.088	-0.73914	0.61151	-0.16815	0.22656	31.0	13111	100
2025-3-27 18:39:22.922	WT901BLE68-01(48591DE3C19B)	-0.232	-0.993	0.013	-23.132	-15.015	216.980	-79.30	40.63	-17.02	-41.552	-35.770	74.088	-0.73914	0.61151	-0.16815	0.22656	31.0	13111	100
2025-3-27 18:39:22.922	WT901BLE68-01(48591DE3C19B)	-0.216	-0.993	0.013	-23.132	-15.015	216.980	-79.10	42.56	-16.34	-41.552	-35.770	74.088	-0.73914	0.61151	-0.16815	0.22656	31.0	13111	100
2025-3-27 18:39:22.922	WT901BLE68-01(48591DE3C19B)	-0.216	-0.976	0.035	-24.414	-27.405	208.374	-78.83	44.42	-15.57	-41.552	-35.770	74.088	-0.73914	0.61151	-0.16815	0.22656	31.0	13111	100
2025-3-27 18:39:22.922	WT901BLE68-01(48591DE3C19B)	-0.231	-0.976	0.035	-24.414	-27.405	208.374	-78.46	46.22	-14.69	-41.552	-35.770	74.088	-0.73914	0.61151	-0.16815	0.22656	31.0	13111	100
2025-3-27 18:39:22.982	WT901BLE68-01(48591DE3C19B)	-0.231	-1.003	0.073	-23.926	-41.199	197.632	-77.99	47.93	-13.69	-41.552	-35.770	74.088	-0.73914	0.61151	-0.16815	0.22656	31.0	13111	100
2025-3-27 18:39:22.982	WT901BLE68-01(48591DE3C19B)	-0.216	-1.003	0.073	-23.926	-41.199	197.632	-77.39	49.56	-12.56	-41.552	-35.770	74.088	-0.73914	0.61151	-0.16815	0.22656	31.0	13111	100
2025-3-27 18:39:22.982	WT901BLE68-01(48591DE3C19B)	-0.216	-0.994	0.085	-18.799	-54.199	184.387	-76.64	51.10	-11.29	-41.552	-35.770	74.088	-0.73914	0.61151	-0.16815	0.22656	31.0	13111	100
2025-3-27 18:39:22.982	WT901BLE68-01(48591DE3C19B)	-0.152	-0.994	0.085	-18.799	-54.199	184.387	-75.72	52.53	-9.88	-41.552	-35.770	74.088	-0.73914	0.61151	-0.16815	0.22656	31.0	13111	100
2025-3-27 18:39:23.11	WT901BLE68-01(48591DE3C19B)	-0.152	-0.949	0.088	-15.137	-55.725	167.664	-74.72	53.86	-8.41	-41.552	-35.770	74.088	-0.73914	0.61151	-0.16815	0.22656	31.0	13111	100
2025-3-27 18:39:23.11	WT901BLE68-01(48591DE3C19B)	-0.128	-0.949	0.088	-15.137	-55.725	167.664	-73.65	55.09	-6.89	-41.552	-35.770	74.088	-0.73914	0.61151	-0.16815	0.22656	31.0	13111	100
2025-3-27 18:39:23.11	WT901BLE68-01(48591DE3C19B)	-0.128	-0.973	0.104	-15.442	-45.410	146.790	-72.61	56.20	-5.45	-41.552	-35.770	74.088	-0.73914	0.61151	-0.16815	0.22656	31.0	13111	100
2025-3-27 18:39:23.11	WT901BLE68-01(48591DE3C19B)	-0.172	-0.973	0.104	-15.442	-45.410	146.790	-71.64	57.21	-4.08	-41.552	-35.770	74.088	-0.73914	0.61151	-0.16815	0.22656	31.0	13111	100
2025-3-27 18:39:23.41	WT901BLE68-01(48591DE3C19B)	-0.172	-1.078	0.149	-15.991	-37.781	121.155	-70.71	58.09	-2.81	-41.552	-35.770	74.088	-0.73914	0.61151	-0.16815	0.22656	31.0	13111	100
2025-3-27 18:39:23.41	WT901BLE68-01(48591DE3C19B)	-0.203	-1.078	0.149	-15.991	-37.781	121.155	-69.88	58.84	-1.64	-41.552	-35.770	74.088	-0.73914	0.61151	-0.16815	0.22656	31.0	13111	100
2025-3-27 18:39:23.41	WT901BLE68-01(48591DE3C19B)	-0.203	-1.164	0.202	-13.550	-35.889	92.712	-69.08	59.46	-0.54	-41.552	-35.770	74.088	-0.73914	0.61151	-0.16815	0.22656	31.0	13111	100
2025-3-27 18:39:23.41	WT901BLE68-01(48591DE3C19B)	-0.201	-1.164	0.202	-13.550	-35.889	92.712	-68.35	59.93	0.46	-41.552	-35.770	74.088	-0.73914	0.61151	-0.16815	0.22656	31.0	13111	100
2025-3-27 18:39:23.101	WT901BLE68-01(48591DE3C19B)	-0.201	-1.276	0.225	-12.329	-32.898	61.279	-67.70	60.25	1.33	-41.552	-35.770	74.088	-0.73914	0.61151	-0.16815	0.22656	31.0	13111	100
2025-3-27 18:39:23.101	WT901BLE68-01(48591DE3C19B)	-0.191	-1.276	0.225	-12.329	-32.898	61.279	-67.18	60.44	2.06	-41.552	-35.770	74.088	-0.73914	0.61151	-0.16815	0.22656	31.0	13111	100
2025-3-27 18:39:23.101	WT901BLE68-01(48591DE3C19B)	-0.191	-1.356	0.223	-9.094	-25.879	28.198	-66.80	60.47	2.60	-41.552	-35.770	74.088	-0.73914	0.61151	-0.16815	0.22656	31.0	13111	100
2025-3-27 18:39:23.102	WT901BLE68-01(48591DE3C19B)	-0.211	-1.356	0.223	-9.094	-25.879	28.198	-66.58	60.36	2.93	-41.552	-35.770	74.088	-0.73914	0.61151	-0.16815	0.22656	31.0	13111	100
2025-3-27 18:39:23.131	WT901BLE68-01(48591DE3C19B)	-0.211	-1.326	0.252	-7.446	-18.677	-4.333	-66.53	60.12	3.07	-41.552	-35.770	74.088	-0.71652	0.48642	-0.40475	-0.29330	31.0	13111	100
2025-3-27 18:39:23.131	WT901BLE68-01(48591DE3C19B)	-0.219	-1.326	0.252	-7.446	-18.677	-4.333	-66.64	59.75	3.01	-41.552	-35.770	74.088	-0.71652	0.48642	-0.40475	-0.29330	31.0	13111	100
2025-3-27 18:39:23.131	WT901BLE68-01(48591DE3C19B)	-0.219	-1.264	0.284	-5.981	-12.146	-36.438	-66.89	59.24	2.77	-41.552	-35.770	74.088	-0.71652	0.48642	-0.40475	-0.29330	31.0	13111	100
2025-3-27 18:39:23.131	WT901BLE68-01(48591DE3C19B)	-0.202	-1.264	0.284	-5.981	-12.146	-36.438	-67.27	58.60	2.36	-41.552	-35.770	74.088	-0.71652	0.48642	-0.40475	-0.29330	31.0	13111	100
2025-3-27 18:39:23.161	WT901BLE68-01(48591DE3C19B)	-0.202	-1.176	0.333	-5.859	-5.920	-64.941	-67.77	57.84	1.82	-41.552	-35.770	74.088	-0.71652	0.48642	-0.40475	-0.29330	31.0	13111	100
