time	DeviceName	AccX(g)	AccY(g)	AccZ(g)	AsX(°/s)	AsY(°/s)	AsZ(°/s)	AngleX(°)	AngleY(°)	AngleZ(°)	HX(uT)	HY(uT)	HZ(uT)	Q0()	Q1()	Q2()	Q3()	Temperature(°C)	Version()	Battery level(%)
2025-3-27 18:33:17.301	WT901BLE68-01(48591DE3C19B)	-0.298	-0.925	0.279	0.977	59.937	4.578	-74.05	12.57	-82.69	-84.476	-48.314	-3.724	0.68106	-0.43231	0.41754	-0.41812	31.0	13111	100
2025-3-27 18:33:17.301	WT901BLE68-01(48591DE3C19B)	-0.298	-0.920	0.285	0.732	43.213	5.310	-74.14	12.77	-83.34	-74.970	-54.292	-5.782	0.68106	-0.43231	0.41754	-0.41812	31.0	13111	100
2025-3-27 18:33:17.301	WT901BLE68-01(48591DE3C19B)	-0.285	-0.920	0.285	0.732	43.213	5.310	-74.21	12.94	-83.91	-74.970	-54.292	-5.782	0.68106	-0.43231	0.41754	-0.41812	31.0	13111	100
2025-3-27 18:33:17.301	WT901BLE68-01(48591DE3C19B)	-0.285	-0.919	0.295	0.061	24.963	5.554	-74.27	13.08	-84.39	-74.970	-54.292	-5.782	0.68106	-0.43231	0.41754	-0.41812	31.0	13111	100
2025-3-27 18:33:17.331	WT901BLE68-01(48591DE3C19B)	-0.247	-0.919	0.295	0.061	24.963	5.554	-74.31	13.21	-84.78	-74.970	-54.292	-5.782	0.68106	-0.43231	0.41754	-0.41812	31.0	13111	100
2025-3-27 18:33:17.331	WT901BLE68-01(48591DE3C19B)	-0.247	-0.923	0.295	-0.244	14.587	5.249	-74.33	13.32	-85.11	-74.970	-54.292	-5.782	0.68106	-0.43231	0.41754	-0.41812	31.0	13111	100
2025-3-27 18:33:17.331	WT901BLE68-01(48591DE3C19B)	-0.219	-0.923	0.295	-0.244	14.587	5.249	-74.35	13.41	-85.39	-74.970	-54.292	-5.782	0.68106	-0.43231	0.41754	-0.41812	31.0	13111	100
2025-3-27 18:33:17.331	WT901BLE68-01(48591DE3C19B)	-0.219	-0.925	0.292	-0.244	12.451	4.578	-74.37	13.50	-85.67	-74.970	-54.292	-5.782	0.68106	-0.43231	0.41754	-0.41812	31.0	13111	100
2025-3-27 18:33:17.391	WT901BLE68-01(48591DE3C19B)	-0.209	-0.925	0.292	-0.244	12.451	4.578	-74.38	13.58	-85.93	-74.970	-54.292	-5.782	0.68106	-0.43231	0.41754	-0.41812	31.0	13111	100
2025-3-27 18:33:17.391	WT901BLE68-01(48591DE3C19B)	-0.209	-0.927	0.299	0.000	14.404	3.540	-74.40	13.66	-86.21	-74.970	-54.292	-5.782	0.68106	-0.43231	0.41754	-0.41812	31.0	13111	100
2025-3-27 18:33:17.391	WT901BLE68-01(48591DE3C19B)	-0.217	-0.927	0.299	0.000	14.404	3.540	-74.42	13.73	-86.49	-74.970	-54.292	-5.782	0.68106	-0.43231	0.41754	-0.41812	31.0	13111	100
2025-3-27 18:33:17.391	WT901BLE68-01(48591DE3C19B)	-0.217	-0.925	0.307	0.000	15.747	3.113	-74.44	13.79	-86.79	-74.970	-54.292	-5.782	0.68106	-0.43231	0.41754	-0.41812	31.0	13111	100
2025-3-27 18:33:17.453	WT901BLE68-01(48591DE3C19B)	-0.227	-0.925	0.307	0.000	15.747	3.113	-74.46	13.86	-87.08	-74.970	-54.292	-5.782	0.68106	-0.43231	0.41754	-0.41812	31.0	13111	100
2025-3-27 18:33:17.453	WT901BLE68-01(48591DE3C19B)	-0.227	-0.922	0.304	-0.183	17.212	3.357	-74.49	13.94	-87.39	-74.970	-54.292	-5.782	0.68106	-0.43231	0.41754	-0.41812	31.0	13111	100
2025-3-27 18:33:17.453	WT901BLE68-01(48591DE3C19B)	-0.233	-0.922	0.304	-0.183	17.212	3.357	-74.51	14.01	-87.69	-74.970	-54.292	-5.782	0.68106	-0.43231	0.41754	-0.41812	31.0	13111	100
2025-3-27 18:33:17.453	WT901BLE68-01(48591DE3C19B)	-0.233	-0.901	0.294	-0.183	17.090	3.479	-74.54	14.08	-87.99	-74.970	-54.292	-5.782	0.68106	-0.43231	0.41754	-0.41812	31.0	13111	100
2025-3-27 18:33:17.454	WT901BLE68-01(48591DE3C19B)	-0.246	-0.901	0.294	-0.183	17.090	3.479	-74.57	14.16	-88.29	-74.970	-54.292	-5.782	0.68106	-0.43231	0.41754	-0.41812	31.0	13111	100
2025-3-27 18:33:17.454	WT901BLE68-01(48591DE3C19B)	-0.246	-0.887	0.286	-2.014	15.259	3.784	-74.61	14.23	-88.57	-74.970	-54.292	-5.782	0.68106	-0.43231	0.41754	-0.41812	31.0	13111	100
2025-3-27 18:33:17.454	WT901BLE68-01(48591DE3C19B)	-0.253	-0.887	0.286	-2.014	15.259	3.784	-74.65	14.30	-88.85	-74.970	-54.292	-5.782	0.68106	-0.43231	0.41754	-0.41812	31.0	13111	100
2025-3-27 18:33:17.454	WT901BLE68-01(48591DE3C19B)	-0.253	-0.881	0.280	-3.540	11.353	3.357	-74.70	14.35	-89.09	-74.970	-54.292	-5.782	0.68106	-0.43231	0.41754	-0.41812	31.0	13111	100
2025-3-27 18:33:17.511	WT901BLE68-01(48591DE3C19B)	-0.270	-0.881	0.280	-3.540	11.353	3.357	-74.74	14.41	-89.33	-74.970	-54.292	-5.782	0.68106	-0.43231	0.41754	-0.41812	31.0	13111	100
2025-3-27 18:33:17.512	WT901BLE68-01(48591DE3C19B)	-0.270	-0.875	0.276	-5.432	5.859	2.747	-74.79	14.45	-89.52	-74.970	-54.292	-5.782	0.61295	-0.35709	0.49567	-0.50098	31.0	13111	100
2025-3-27 18:33:17.512	WT901BLE68-01(48591DE3C19B)	-0.275	-0.875	0.276	-5.432	5.859	2.747	-74.84	14.49	-89.70	-74.970	-54.292	-5.782	0.61295	-0.35709	0.49567	-0.50098	31.0	13111	100
2025-3-27 18:33:17.512	WT901BLE68-01(48591DE3C19B)	-0.275	-0.861	0.266	-7.263	-1.099	1.282	-74.90	14.50	-89.82	-74.970	-54.292	-5.782	0.61295	-0.35709	0.49567	-0.50098	31.0	13111	100
2025-3-27 18:33:17.543	WT901BLE68-01(48591DE3C19B)	-0.257	-0.861	0.266	-7.263	-1.099	1.282	-74.95	14.50	-89.94	-74.970	-54.292	-5.782	0.61295	-0.35709	0.49567	-0.50098	31.0	13111	100
2025-3-27 18:33:17.543	WT901BLE68-01(48591DE3C19B)	-0.257	-0.827	0.244	-9.827	-8.057	-1.038	-75.01	14.47	-89.99	-74.970	-54.292	-5.782	0.61295	-0.35709	0.49567	-0.50098	31.0	13111	100
2025-3-27 18:33:17.543	WT901BLE68-01(48591DE3C19B)	-0.242	-0.827	0.244	-9.827	-8.057	-1.038	-75.08	14.44	-90.05	-74.970	-54.292	-5.782	0.61295	-0.35709	0.49567	-0.50098	31.0	13111	100
2025-3-27 18:33:17.544	WT901BLE68-01(48591DE3C19B)	-0.242	-0.793	0.218	-14.648	-12.634	-4.700	-75.18	14.37	-90.07	-74.970	-54.292	-5.782	0.61295	-0.35709	0.49567	-0.50098	31.0	13111	100
2025-3-27 18:33:17.571	WT901BLE68-01(48591DE3C19B)	-0.235	-0.793	0.218	-14.648	-12.634	-4.700	-75.28	14.29	-90.09	-74.970	-54.292	-5.782	0.61295	-0.35709	0.49567	-0.50098	31.0	13111	100
2025-3-27 18:33:17.572	WT901BLE68-01(48591DE3C19B)	-0.235	-0.787	0.198	-20.935	-15.259	-10.071	-75.44	14.16	-90.09	-74.970	-54.292	-5.782	0.61295	-0.35709	0.49567	-0.50098	31.0	13111	100
2025-3-27 18:33:17.572	WT901BLE68-01(48591DE3C19B)	-0.264	-0.787	0.198	-20.935	-15.259	-10.071	-75.61	14.04	-90.09	-74.970	-54.292	-5.782	0.61295	-0.35709	0.49567	-0.50098	31.0	13111	100
2025-3-27 18:33:17.572	WT901BLE68-01(48591DE3C19B)	-0.264	-0.796	0.207	-26.184	-19.348	-15.320	-75.82	13.85	-90.07	-74.970	-54.292	-5.782	0.61295	-0.35709	0.49567	-0.50098	31.0	13111	100
2025-3-27 18:33:17.631	WT901BLE68-01(48591DE3C19B)	-0.319	-0.796	0.207	-26.184	-19.348	-15.320	-76.03	13.66	-90.04	-74.970	-54.292	-5.782	0.61295	-0.35709	0.49567	-0.50098	31.0	13111	100
2025-3-27 18:33:17.631	WT901BLE68-01(48591DE3C19B)	-0.319	-0.784	0.220	-29.785	-27.771	-19.287	-76.25	13.42	-89.94	-74.970	-54.292	-5.782	0.61295	-0.35709	0.49567	-0.50098	31.0	13111	100
2025-3-27 18:33:17.631	WT901BLE68-01(48591DE3C19B)	-0.362	-0.784	0.220	-29.785	-27.771	-19.287	-76.48	13.19	-89.84	-74.970	-54.292	-5.782	0.61295	-0.35709	0.49567	-0.50098	31.0	13111	100
2025-3-27 18:33:17.632	WT901BLE68-01(48591DE3C19B)	-0.362	-0.750	0.219	-32.898	-38.940	-21.606	-76.71	12.91	-89.64	-74.970	-54.292	-5.782	0.61295	-0.35709	0.49567	-0.50098	31.0	13111	100
2025-3-27 18:33:17.663	WT901BLE68-01(48591DE3C19B)	-0.410	-0.750	0.219	-32.898	-38.940	-21.606	-76.94	12.64	-89.43	-74.970	-54.292	-5.782	0.61295	-0.35709	0.49567	-0.50098	31.0	13111	100
2025-3-27 18:33:17.664	WT901BLE68-01(48591DE3C19B)	-0.410	-0.756	0.207	-37.170	-51.575	-20.935	-77.18	12.35	-89.10	-74.970	-54.292	-5.782	0.61295	-0.35709	0.49567	-0.50098	31.0	13111	100
2025-3-27 18:33:17.664	WT901BLE68-01(48591DE3C19B)	-0.490	-0.756	0.207	-37.170	-51.575	-20.935	-77.43	12.08	-88.78	-74.970	-54.292	-5.782	0.61295	-0.35709	0.49567	-0.50098	31.0	13111	100
2025-3-27 18:33:17.664	WT901BLE68-01(48591DE3C19B)	-0.490	-0.830	0.199	-39.795	-65.613	-16.113	-77.66	11.83	-88.30	-74.970	-54.292	-5.782	0.61295	-0.35709	0.49567	-0.50098	31.0	13111	100
2025-3-27 18:33:17.693	WT901BLE68-01(48591DE3C19B)	-0.553	-0.830	0.199	-39.795	-65.613	-16.113	-77.90	11.59	-87.82	-74.970	-54.292	-5.782	0.61295	-0.35709	0.49567	-0.50098	31.0	13111	100
2025-3-27 18:33:17.693	WT901BLE68-01(48591DE3C19B)	-0.553	-0.906	0.203	-39.246	-83.801	-6.653	-78.10	11.41	-87.14	-74.970	-54.292	-5.782	0.61295	-0.35709	0.49567	-0.50098	31.0	13111	100
2025-3-27 18:33:17.693	WT901BLE68-01(48591DE3C19B)	-0.551	-0.906	0.203	-39.246	-83.801	-6.653	-78.29	11.24	-86.47	-75.068	-51.156	-6.958	0.61295	-0.35709	0.49567	-0.50098	31.0	13111	100
2025-3-27 18:33:17.693	WT901BLE68-01(48591DE3C19B)	-0.551	-0.977	0.195	-36.499	-100.281	5.615	-78.43	11.17	-85.61	-75.068	-51.156	-6.958	0.61295	-0.35709	0.49567	-0.50098	31.0	13111	100
2025-3-27 18:33:17.812	WT901BLE68-01(48591DE3C19B)	-0.532	-0.977	0.195	-36.499	-100.281	5.615	-78.56	11.10	-84.75	-75.068	-51.156	-6.958	0.61295	-0.35709	0.49567	-0.50098	31.0	13111	100
2025-3-27 18:33:17.812	WT901BLE68-01(48591DE3C19B)	-0.532	-1.071	0.174	-33.752	-108.704	18.616	-78.65	11.15	-83.79	-75.068	-51.156	-6.958	0.61295	-0.35709	0.49567	-0.50098	31.0	13111	100
2025-3-27 18:33:17.812	WT901BLE68-01(48591DE3C19B)	-0.540	-1.071	0.174	-33.752	-108.704	18.616	-78.74	11.20	-82.81	-75.068	-51.156	-6.958	0.61295	-0.35709	0.49567	-0.50098	31.0	13111	100
2025-3-27 18:33:17.812	WT901BLE68-01(48591DE3C19B)	-0.540	-1.255	0.149	-31.921	-113.342	29.236	-78.80	11.34	-81.78	-75.068	-51.156	-6.958	0.61295	-0.35709	0.49567	-0.50098	31.0	13111	100
2025-3-27 18:33:17.814	WT901BLE68-01(48591DE3C19B)	-0.536	-1.255	0.149	-31.921	-113.342	29.236	-78.86	11.49	-80.73	-75.068	-51.156	-6.958	0.61295	-0.35709	0.49567	-0.50098	31.0	13111	100
2025-3-27 18:33:17.814	WT901BLE68-01(48591DE3C19B)	-0.536	-1.473	0.145	-25.330	-112.671	37.964	-78.85	11.71	-79.68	-75.068	-51.156	-6.958	0.61295	-0.35709	0.49567	-0.50098	31.0	13111	100
2025-3-27 18:33:17.814	WT901BLE68-01(48591DE3C19B)	-0.514	-1.473	0.145	-25.330	-112.671	37.964	-78.85	11.94	-78.62	-75.068	-51.156	-6.958	0.61295	-0.35709	0.49567	-0.50098	31.0	13111	100
2025-3-27 18:33:17.814	WT901BLE68-01(48591DE3C19B)	-0.514	-1.537	0.163	-9.460	-99.976	47.058	-78.71	12.27	-77.66	-75.068	-51.156	-6.958	0.61295	-0.35709	0.49567	-0.50098	31.0	13111	100
2025-3-27 18:33:17.873	WT901BLE68-01(48591DE3C19B)	-0.423	-1.537	0.163	-9.460	-99.976	47.058	-78.57	12.60	-76.71	-75.068	-51.156	-6.958	0.61295	-0.35709	0.49567	-0.50098	31.0	13111	100
2025-3-27 18:33:17.873	WT901BLE68-01(48591DE3C19B)	-0.321	-1.342	0.170	2.075	-75.439	56.030	-78.36	13.05	-75.98	-75.068	-51.156	-6.958	0.61295	-0.35709	0.49567	-0.50098	31.0	13111	100
2025-3-27 18:33:17.873	WT901BLE68-01(48591DE3C19B)	-0.321	-1.185	0.172	2.502	-39.429	65.735	-78.18	13.58	-75.41	-75.068	-51.156	-6.958	0.61295	-0.35709	0.49567	-0.50098	31.0	13111	100
2025-3-27 18:33:17.873	WT901BLE68-01(48591DE3C19B)	-0.275	-1.185	0.172	2.502	-39.429	65.735	-78.04	14.19	-75.01	-75.068	-51.156	-6.958	0.61295	-0.35709	0.49567	-0.50098	31.0	13111	100
2025-3-27 18:33:17.874	WT901BLE68-01(48591DE3C19B)	-0.275	-1.041	0.175	3.296	-4.639	73.975	-77.93	14.86	-74.78	-75.068	-51.156	-6.958	0.61295	-0.35709	0.49567	-0.50098	31.0	13111	100
2025-3-27 18:33:17.874	WT901BLE68-01(48591DE3C19B)	-0.267	-1.041	0.175	3.296	-4.639	73.975	-77.85	15.61	-74.72	-75.068	-51.156	-6.958	0.61295	-0.35709	0.49567	-0.50098	31.0	13111	100
2025-3-27 18:33:17.874	WT901BLE68-01(48591DE3C19B)	-0.267	-0.888	0.182	-1.709	18.127	78.308	-77.83	16.39	-74.76	-75.068	-51.156	-6.958	0.61295	-0.35709	0.49567	-0.50098	31.0	13111	100
2025-3-27 18:33:17.874	WT901BLE68-01(48591DE3C19B)	-0.284	-0.888	0.182	-1.709	18.127	78.308	-77.87	17.20	-74.91	-75.068	-51.156	-6.958	0.61295	-0.35709	0.49567	-0.50098	31.0	13111	100
2025-3-27 18:33:17.903	WT901BLE68-01(48591DE3C19B)	-0.284	-0.789	0.181	-6.836	28.870	80.200	-77.95	18.04	-75.11	-75.068	-51.156	-6.958	0.61295	-0.35709	0.49567	-0.50098	31.0	13111	100
2025-3-27 18:33:17.903	WT901BLE68-01(48591DE3C19B)	-0.332	-0.789	0.181	-6.836	28.870	80.200	-78.07	18.89	-75.37	-75.068	-51.156	-6.958	0.61295	-0.35709	0.49567	-0.50098	31.0	13111	100
2025-3-27 18:33:17.903	WT901BLE68-01(48591DE3C19B)	-0.332	-0.704	0.159	-10.193	30.823	79.529	-78.21	19.73	-75.65	-75.068	-51.156	-6.958	0.61295	-0.35709	0.49567	-0.50098	31.0	13111	100
2025-3-27 18:33:17.903	WT901BLE68-01(48591DE3C19B)	-0.364	-0.704	0.159	-10.193	30.823	79.529	-78.38	20.57	-75.93	-75.068	-51.156	-6.958	0.67084	-0.40280	0.49429	-0.37857	31.0	13111	100
2025-3-27 18:33:17.933	WT901BLE68-01(48591DE3C19B)	-0.364	-0.646	0.118	-14.099	19.470	76.355	-78.54	21.38	-76.16	-75.068	-51.156	-6.958	0.67084	-0.40280	0.49429	-0.37857	31.0	13111	100
2025-3-27 18:33:17.933	WT901BLE68-01(48591DE3C19B)	-0.381	-0.646	0.118	-14.099	19.470	76.355	-78.71	22.16	-76.34	-75.068	-51.156	-6.958	0.67084	-0.40280	0.49429	-0.37857	31.0	13111	100
2025-3-27 18:33:17.933	WT901BLE68-01(48591DE3C19B)	-0.381	-0.648	0.092	-17.029	1.953	70.984	-78.85	22.90	-76.44	-75.068	-51.156	-6.958	0.67084	-0.40280	0.49429	-0.37857	31.0	13111	100
2025-3-27 18:33:17.933	WT901BLE68-01(48591DE3C19B)	-0.382	-0.648	0.092	-17.029	1.953	70.984	-78.98	23.59	-76.44	-75.068	-51.156	-6.958	0.67084	-0.40280	0.49429	-0.37857	31.0	13111	100
2025-3-27 18:33:17.991	WT901BLE68-01(48591DE3C19B)	-0.382	-0.706	0.088	-19.287	-24.292	63.843	-79.06	24.22	-76.31	-75.068	-51.156	-6.958	0.67084	-0.40280	0.49429	-0.37857	31.0	13111	100
2025-3-27 18:33:17.991	WT901BLE68-01(48591DE3C19B)	-0.328	-0.706	0.088	-19.287	-24.292	63.843	-79.10	24.79	-76.05	-75.068	-51.156	-6.958	0.67084	-0.40280	0.49429	-0.37857	31.0	13111	100
2025-3-27 18:33:17.991	WT901BLE68-01(48591DE3C19B)	-0.328	-0.815	0.111	-18.921	-48.523	55.115	-79.09	25.30	-75.67	-75.068	-51.156	-6.958	0.67084	-0.40280	0.49429	-0.37857	31.0	13111	100
2025-3-27 18:33:17.991	WT901BLE68-01(48591DE3C19B)	-0.287	-0.815	0.111	-18.921	-48.523	55.115	-79.01	25.74	-75.16	-75.068	-51.156	-6.958	0.67084	-0.40280	0.49429	-0.37857	31.0	13111	100
2025-3-27 18:33:18.20	WT901BLE68-01(48591DE3C19B)	-0.287	-0.919	0.112	-14.832	-67.139	46.997	-78.87	26.11	-74.55	-75.068	-51.156	-6.958	0.67084	-0.40280	0.49429	-0.37857	31.0	13111	100
2025-3-27 18:33:18.20	WT901BLE68-01(48591DE3C19B)	-0.222	-0.919	0.112	-14.832	-67.139	46.997	-78.67	26.42	-73.86	-75.068	-51.156	-6.958	0.67084	-0.40280	0.49429	-0.37857	31.0	13111	100
2025-3-27 18:33:18.20	WT901BLE68-01(48591DE3C19B)	-0.222	-1.063	0.085	-13.977	-75.195	36.072	-78.45	26.65	-73.13	-75.068	-51.156	-6.958	0.67084	-0.40280	0.49429	-0.37857	31.0	13111	100
2025-3-27 18:33:18.20	WT901BLE68-01(48591DE3C19B)	-0.128	-1.063	0.085	-13.977	-75.195	36.072	-78.21	26.82	-72.36	-75.068	-51.156	-6.958	0.67084	-0.40280	0.49429	-0.37857	31.0	13111	100
2025-3-27 18:33:18.52	WT901BLE68-01(48591DE3C19B)	-0.128	-1.373	0.034	-16.724	-69.031	22.827	-78.01	26.92	-71.65	-75.068	-51.156	-6.958	0.67084	-0.40280	0.49429	-0.37857	31.0	13111	100
2025-3-27 18:33:18.52	WT901BLE68-01(48591DE3C19B)	0.027	-1.373	0.034	-16.724	-69.031	22.827	-77.86	26.95	-70.98	-75.068	-51.156	-6.958	0.67084	-0.40280	0.49429	-0.37857	31.0	13111	100
2025-3-27 18:33:18.52	WT901BLE68-01(48591DE3C19B)	0.027	-1.706	-0.057	-12.817	-49.316	10.071	-77.75	26.93	-70.43	-75.068	-51.156	-6.958	0.67084	-0.40280	0.49429	-0.37857	31.0	13111	100
2025-3-27 18:33:18.53	WT901BLE68-01(48591DE3C19B)	0.246	-1.706	-0.057	-12.817	-49.316	10.071	-77.68	26.85	-70.02	-75.068	-51.156	-6.958	0.67084	-0.40280	0.49429	-0.37857	31.0	13111	100
2025-3-27 18:33:18.111	WT901BLE68-01(48591DE3C19B)	0.246	-1.822	-0.170	-4.456	-11.841	1.648	-77.69	26.75	-69.81	-75.068	-51.156	-6.958	0.67084	-0.40280	0.49429	-0.37857	31.0	13111	100
2025-3-27 18:33:18.112	WT901BLE68-01(48591DE3C19B)	0.566	-1.822	-0.170	-4.456	-11.841	1.648	-77.76	26.65	-69.82	-93.492	-37.044	0.294	0.67084	-0.40280	0.49429	-0.37857	31.0	13111	100
2025-3-27 18:33:18.112	WT901BLE68-01(48591DE3C19B)	0.566	-1.975	-0.244	2.991	36.377	-9.521	-77.93	26.52	-70.11	-93.492	-37.044	0.294	0.67084	-0.40280	0.49429	-0.37857	31.0	13111	100
2025-3-27 18:33:18.112	WT901BLE68-01(48591DE3C19B)	0.814	-1.975	-0.244	2.991	36.377	-9.521	-78.19	26.37	-70.67	-93.492	-37.044	0.294	0.67084	-0.40280	0.49429	-0.37857	31.0	13111	100
2025-3-27 18:33:18.140	WT901BLE68-01(48591DE3C19B)	0.814	-2.121	-0.188	4.578	92.163	-24.597	-78.59	26.19	-71.55	-93.492	-37.044	0.294	0.67084	-0.40280	0.49429	-0.37857	31.0	13111	100
2025-3-27 18:33:18.140	WT901BLE68-01(48591DE3C19B)	0.661	-2.121	-0.188	4.578	92.163	-24.597	-79.12	25.97	-72.74	-93.492	-37.044	0.294	0.67084	-0.40280	0.49429	-0.37857	31.0	13111	100
2025-3-27 18:33:18.140	WT901BLE68-01(48591DE3C19B)	0.661	-1.928	-0.030	8.667	117.798	-46.387	-79.69	25.64	-74.08	-93.492	-37.044	0.294	0.67084	-0.40280	0.49429	-0.37857	31.0	13111	100
2025-3-27 18:33:18.141	WT901BLE68-01(48591DE3C19B)	0.335	-1.928	-0.030	8.667	117.798	-46.387	-80.30	25.20	-75.57	-93.492	-37.044	0.294	0.67084	-0.40280	0.49429	-0.37857	31.0	13111	100
2025-3-27 18:33:18.171	WT901BLE68-01(48591DE3C19B)	0.335	-1.680	0.153	6.714	119.995	-87.097	-80.92	24.55	-77.10	-93.492	-37.044	0.294	0.67084	-0.40280	0.49429	-0.37857	31.0	13111	100
2025-3-27 18:33:18.171	WT901BLE68-01(48591DE3C19B)	0.096	-1.680	0.153	6.714	119.995	-87.097	-81.53	23.69	-78.64	-93.492	-37.044	0.294	0.67084	-0.40280	0.49429	-0.37857	31.0	13111	100
2025-3-27 18:33:18.171	WT901BLE68-01(48591DE3C19B)	0.096	-1.555	0.280	10.864	138.306	-135.864	-82.13	22.58	-80.29	-93.492	-37.044	0.294	0.67084	-0.40280	0.49429	-0.37857	31.0	13111	100
2025-3-27 18:33:18.171	WT901BLE68-01(48591DE3C19B)	-0.103	-1.555	0.280	10.864	138.306	-135.864	-82.71	21.24	-82.05	-93.492	-37.044	0.294	0.67084	-0.40280	0.49429	-0.37857	31.0	13111	100
2025-3-27 18:33:18.231	WT901BLE68-01(48591DE3C19B)	-0.103	-1.414	0.361	13.794	144.104	-180.420	-83.23	19.69	-83.82	-93.492	-37.044	0.294	0.67084	-0.40280	0.49429	-0.37857	31.0	13111	100
2025-3-27 18:33:18.231	WT901BLE68-01(48591DE3C19B)	-0.109	-1.414	0.361	13.794	144.104	-180.420	-83.68	17.91	-85.61	-93.492	-37.044	0.294	0.67084	-0.40280	0.49429	-0.37857	31.0	13111	100
2025-3-27 18:33:18.231	WT901BLE68-01(48591DE3C19B)	-0.109	-1.205	0.271	32.776	145.569	-206.543	-83.98	16.01	-87.39	-93.492	-37.044	0.294	0.67084	-0.40280	0.49429	-0.37857	31.0	13111	100
2025-3-27 18:33:18.232	WT901BLE68-01(48591DE3C19B)	-0.180	-1.205	0.271	32.776	145.569	-206.543	-84.11	13.99	-89.15	-93.492	-37.044	0.294	0.67084	-0.40280	0.49429	-0.37857	31.0	13111	100
2025-3-27 18:33:18.263	WT901BLE68-01(48591DE3C19B)	-0.180	-0.966	0.212	57.861	151.794	-203.369	-84.06	12.00	-90.93	-93.492	-37.044	0.294	0.67084	-0.40280	0.49429	-0.37857	31.0	13111	100
2025-3-27 18:33:18.263	WT901BLE68-01(48591DE3C19B)	-0.205	-0.966	0.212	57.861	151.794	-203.369	-83.83	10.06	-92.72	-93.492	-37.044	0.294	0.67084	-0.40280	0.49429	-0.37857	31.0	13111	100
2025-3-27 18:33:18.263	WT901BLE68-01(48591DE3C19B)	-0.205	-0.853	0.178	65.491	121.521	-201.233	-83.47	8.14	-94.35	-93.492	-37.044	0.294	0.67084	-0.40280	0.49429	-0.37857	31.0	13111	100
2025-3-27 18:33:18.263	WT901BLE68-01(48591DE3C19B)	-0.198	-0.853	0.178	65.491	121.521	-201.233	-83.00	6.23	-95.83	-93.492	-37.044	0.294	0.67084	-0.40280	0.49429	-0.37857	31.0	13111	100
2025-3-27 18:33:18.293	WT901BLE68-01(48591DE3C19B)	-0.198	-1.008	0.188	64.819	71.899	-176.819	-82.46	4.44	-97.05	-93.492	-37.044	0.294	0.67084	-0.40280	0.49429	-0.37857	31.0	13111	100
2025-3-27 18:33:18.293	WT901BLE68-01(48591DE3C19B)	-0.236	-1.008	0.188	64.819	71.899	-176.819	-81.88	2.78	-98.03	-93.492	-37.044	0.294	0.67084	-0.40280	0.49429	-0.37857	31.0	13111	100
2025-3-27 18:33:18.293	WT901BLE68-01(48591DE3C19B)	-0.236	-1.144	0.168	74.707	50.598	-151.245	-81.17	1.36	-98.77	-93.492	-37.044	0.294	0.50015	-0.41663	0.49966	-0.57138	31.0	13111	100
2025-3-27 18:33:18.293	WT901BLE68-01(48591DE3C19B)	-0.265	-1.144	0.168	74.707	50.598	-151.245	-80.44	-0.04	-99.53	-93.492	-37.044	0.294	0.50015	-0.41663	0.49966	-0.57138	31.0	13111	100
2025-3-27 18:33:18.352	WT901BLE68-01(48591DE3C19B)	-0.265	-1.123	0.099	83.984	60.242	-132.080	-79.61	-1.21	-100.36	-93.492	-37.044	0.294	0.50015	-0.41663	0.49966	-0.57138	31.0	13111	100
2025-3-27 18:33:18.352	WT901BLE68-01(48591DE3C19B)	-0.307	-1.123	0.099	83.984	60.242	-132.080	-78.77	-2.35	-101.21	-93.492	-37.044	0.294	0.50015	-0.41663	0.49966	-0.57138	31.0	13111	100
2025-3-27 18:33:18.352	WT901BLE68-01(48591DE3C19B)	-0.307	-1.055	0.119	87.402	92.773	-117.371	-77.87	-3.26	-102.36	-93.492	-37.044	0.294	0.50015	-0.41663	0.49966	-0.57138	31.0	13111	100
2025-3-27 18:33:18.352	WT901BLE68-01(48591DE3C19B)	-0.407	-1.055	0.119	87.402	92.773	-117.371	-76.95	-4.15	-103.52	-93.492	-37.044	0.294	0.50015	-0.41663	0.49966	-0.57138	31.0	13111	100
2025-3-27 18:33:18.386	WT901BLE68-01(48591DE3C19B)	-0.407	-0.980	0.101	82.825	115.356	-103.760	-76.06	-4.81	-104.89	-93.492	-37.044	0.294	0.50015	-0.41663	0.49966	-0.57138	31.0	13111	100
2025-3-27 18:33:18.386	WT901BLE68-01(48591DE3C19B)	-0.477	-0.980	0.101	82.825	115.356	-103.760	-75.15	-5.45	-106.26	-93.492	-37.044	0.294	0.50015	-0.41663	0.49966	-0.57138	31.0	13111	100
2025-3-27 18:33:18.386	WT901BLE68-01(48591DE3C19B)	-0.477	-0.850	0.104	76.904	118.103	-92.651	-74.30	-5.93	-107.63	-93.492	-37.044	0.294	0.50015	-0.41663	0.49966	-0.57138	31.0	13111	100
2025-3-27 18:33:18.386	WT901BLE68-01(48591DE3C19B)	-0.497	-0.850	0.104	76.904	118.103	-92.651	-73.44	-6.39	-109.01	-93.492	-37.044	0.294	0.50015	-0.41663	0.49966	-0.57138	31.0	13111	100
2025-3-27 18:33:18.411	WT901BLE68-01(48591DE3C19B)	-0.497	-0.701	0.128	70.374	108.765	-80.994	-72.65	-6.72	-110.27	-93.492	-37.044	0.294	0.50015	-0.41663	0.49966	-0.57138	31.0	13111	100
2025-3-27 18:33:18.412	WT901BLE68-01(48591DE3C19B)	-0.495	-0.701	0.128	70.374	108.765	-80.994	-71.86	-7.03	-111.54	-93.492	-37.044	0.294	0.50015	-0.41663	0.49966	-0.57138	31.0	13111	100
2025-3-27 18:33:18.412	WT901BLE68-01(48591DE3C19B)	-0.495	-0.593	0.128	63.782	96.130	-69.275	-71.15	-7.24	-112.65	-93.492	-37.044	0.294	0.50015	-0.41663	0.49966	-0.57138	31.0	13111	100
2025-3-27 18:33:18.412	WT901BLE68-01(48591DE3C19B)	-0.476	-0.593	0.128	63.782	96.130	-69.275	-70.43	-7.43	-113.78	-93.492	-37.044	0.294	0.50015	-0.41663	0.49966	-0.57138	31.0	13111	100
2025-3-27 18:33:18.501	WT901BLE68-01(48591DE3C19B)	-0.476	-0.521	0.096	58.411	78.064	-60.486	-69.80	-7.56	-114.71	-93.492	-37.044	0.294	0.50015	-0.41663	0.49966	-0.57138	31.0	13111	100
2025-3-27 18:33:18.501	WT901BLE68-01(48591DE3C19B)	-0.450	-0.521	0.096	58.411	78.064	-60.486	-69.16	-7.68	-115.65	-93.492	-37.044	0.294	0.50015	-0.41663	0.49966	-0.57138	31.0	13111	100
2025-3-27 18:33:18.501	WT901BLE68-01(48591DE3C19B)	-0.450	-0.460	0.042	50.354	52.490	-50.415	-68.64	-7.78	-116.32	-93.492	-37.044	0.294	0.50015	-0.41663	0.49966	-0.57138	31.0	13111	100
2025-3-27 18:33:18.502	WT901BLE68-01(48591DE3C19B)	-0.434	-0.460	0.042	50.354	52.490	-50.415	-68.12	-7.86	-117.00	-93.492	-37.044	0.294	0.50015	-0.41663	0.49966	-0.57138	31.0	13111	100
2025-3-27 18:33:18.502	WT901BLE68-01(48591DE3C19B)	-0.434	-0.437	0.021	41.260	26.062	-40.894	-67.73	-7.94	-117.41	-93.492	-37.044	0.294	0.50015	-0.41663	0.49966	-0.57138	31.0	13111	100
2025-3-27 18:33:18.503	WT901BLE68-01(48591DE3C19B)	-0.462	-0.437	0.021	41.260	26.062	-40.894	-67.34	-8.00	-117.83	-93.492	-37.044	0.294	0.50015	-0.41663	0.49966	-0.57138	31.0	13111	100
2025-3-27 18:33:18.503	WT901BLE68-01(48591DE3C19B)	-0.462	-0.430	0.038	33.142	6.714	-31.067	-67.06	-8.04	-118.05	-93.492	-37.044	0.294	0.50015	-0.41663	0.49966	-0.57138	31.0	13111	100
2025-3-27 18:33:18.503	WT901BLE68-01(48591DE3C19B)	-0.522	-0.430	0.038	33.142	6.714	-31.067	-66.76	-8.06	-118.29	-50.274	-60.858	-5.096	0.50015	-0.41663	0.49966	-0.57138	31.0	13111	100
2025-3-27 18:33:18.533	WT901BLE68-01(48591DE3C19B)	-0.522	-0.467	0.065	22.400	-13.245	-19.897	-66.60	-8.05	-118.33	-50.274	-60.858	-5.096	0.50015	-0.41663	0.49966	-0.57138	31.0	13111	100
2025-3-27 18:33:18.533	WT901BLE68-01(48591DE3C19B)	-0.521	-0.467	0.065	22.400	-13.245	-19.897	-66.42	-8.03	-118.41	-50.274	-60.858	-5.096	0.50015	-0.41663	0.49966	-0.57138	31.0	13111	100
2025-3-27 18:33:18.533	WT901BLE68-01(48591DE3C19B)	-0.521	-0.583	0.094	9.583	-35.706	-9.705	-66.39	-8.00	-118.27	-50.274	-60.858	-5.096	0.50015	-0.41663	0.49966	-0.57138	31.0	13111	100
2025-3-27 18:33:18.534	WT901BLE68-01(48591DE3C19B)	-0.517	-0.583	0.094	9.583	-35.706	-9.705	-66.35	-7.97	-118.15	-50.274	-60.858	-5.096	0.50015	-0.41663	0.49966	-0.57138	31.0	13111	100
2025-3-27 18:33:18.591	WT901BLE68-01(48591DE3C19B)	-0.517	-0.769	0.128	-0.610	-51.819	-1.892	-66.43	-7.93	-117.85	-50.274	-60.858	-5.096	0.50015	-0.41663	0.49966	-0.57138	31.0	13111	100
2025-3-27 18:33:18.591	WT901BLE68-01(48591DE3C19B)	-0.533	-0.769	0.128	-0.610	-51.819	-1.892	-66.51	-7.89	-117.56	-50.274	-60.858	-5.096	0.50015	-0.41663	0.49966	-0.57138	31.0	13111	100
2025-3-27 18:33:18.591	WT901BLE68-01(48591DE3C19B)	-0.533	-0.963	0.159	-7.751	-64.209	4.089	-66.69	-7.84	-117.11	-50.274	-60.858	-5.096	0.50015	-0.41663	0.49966	-0.57138	31.0	13111	100
2025-3-27 18:33:18.591	WT901BLE68-01(48591DE3C19B)	-0.518	-0.963	0.159	-7.751	-64.209	4.089	-66.87	-7.81	-116.65	-50.274	-60.858	-5.096	0.50015	-0.41663	0.49966	-0.57138	31.0	13111	100
2025-3-27 18:33:18.620	WT901BLE68-01(48591DE3C19B)	-0.518	-1.150	0.167	-16.418	-66.040	7.019	-67.15	-7.75	-116.13	-50.274	-60.858	-5.096	0.50015	-0.41663	0.49966	-0.57138	31.0	13111	100
2025-3-27 18:33:18.620	WT901BLE68-01(48591DE3C19B)	-0.491	-1.150	0.167	-16.418	-66.040	7.019	-67.44	-7.70	-115.59	-50.274	-60.858	-5.096	0.50015	-0.41663	0.49966	-0.57138	31.0	13111	100
2025-3-27 18:33:18.621	WT901BLE68-01(48591DE3C19B)	-0.491	-1.220	0.212	-29.541	-50.354	16.785	-67.85	-7.51	-115.14	-50.274	-60.858	-5.096	0.50015	-0.41663	0.49966	-0.57138	31.0	13111	100
2025-3-27 18:33:18.621	WT901BLE68-01(48591DE3C19B)	-0.611	-1.220	0.212	-29.541	-50.354	16.785	-68.26	-7.32	-114.68	-50.274	-60.858	-5.096	0.50015	-0.41663	0.49966	-0.57138	31.0	13111	100
2025-3-27 18:33:18.684	WT901BLE68-01(48591DE3C19B)	-0.611	-1.340	0.283	-48.401	-29.175	38.269	-68.84	-6.86	-114.33	-50.274	-60.858	-5.096	0.50015	-0.41663	0.49966	-0.57138	31.0	13111	100
2025-3-27 18:33:18.684	WT901BLE68-01(48591DE3C19B)	-0.687	-1.340	0.283	-48.401	-29.175	38.269	-69.42	-6.39	-113.98	-50.274	-60.858	-5.096	0.50015	-0.41663	0.49966	-0.57138	31.0	13111	100
2025-3-27 18:33:18.684	WT901BLE68-01(48591DE3C19B)	-0.687	-1.460	0.356	-65.063	-23.071	56.946	-70.14	-5.73	-113.64	-50.274	-60.858	-5.096	0.50015	-0.41663	0.49966	-0.57138	31.0	13111	100
2025-3-27 18:33:18.684	WT901BLE68-01(48591DE3C19B)	-0.701	-1.460	0.356	-65.063	-23.071	56.946	-70.86	-5.08	-113.30	-50.274	-60.858	-5.096	0.50015	-0.41663	0.49966	-0.57138	31.0	13111	100
2025-3-27 18:33:18.714	WT901BLE68-01(48591DE3C19B)	-0.701	-1.578	0.356	-75.928	-33.691	83.801	-71.69	-4.21	-112.79	-50.274	-60.858	-5.096	0.50015	-0.41663	0.49966	-0.57138	31.0	13111	100
2025-3-27 18:33:18.714	WT901BLE68-01(48591DE3C19B)	-0.701	-1.578	0.356	-75.928	-33.691	83.801	-72.50	-3.33	-112.27	-50.274	-60.858	-5.096	0.50015	-0.41663	0.49966	-0.57138	31.0	13111	100
2025-3-27 18:33:18.714	WT901BLE68-01(48591DE3C19B)	-0.701	-1.514	0.292	-78.369	-50.171	111.572	-73.34	-2.25	-111.54	-50.274	-60.858	-5.096	0.50015	-0.41663	0.49966	-0.57138	31.0	13111	100
2025-3-27 18:33:18.714	WT901BLE68-01(48591DE3C19B)	-0.681	-1.514	0.292	-78.369	-50.171	111.572	-74.16	-1.15	-110.81	-50.274	-60.858	-5.096	0.45233	-0.34894	0.49518	-0.65445	31.0	13111	100
2025-3-27 18:33:18.743	WT901BLE68-01(48591DE3C19B)	-0.681	-1.452	0.229	-79.895	-72.266	139.160	-74.98	0.15	-109.82	-50.274	-60.858	-5.096	0.45233	-0.34894	0.49518	-0.65445	31.0	13111	100
2025-3-27 18:33:18.743	WT901BLE68-01(48591DE3C19B)	-0.583	-1.452	0.229	-79.895	-72.266	139.160	-75.77	1.46	-108.84	-50.274	-60.858	-5.096	0.45233	-0.34894	0.49518	-0.65445	31.0	13111	100
2025-3-27 18:33:18.743	WT901BLE68-01(48591DE3C19B)	-0.447	-1.430	0.171	-73.608	-85.205	166.748	-76.46	3.01	-107.67	-50.274	-60.858	-5.096	0.45233	-0.34894	0.49518	-0.65445	31.0	13111	100
2025-3-27 18:33:18.743	WT901BLE68-01(48591DE3C19B)	-0.447	-1.290	0.148	-65.857	-88.989	196.228	-77.08	4.70	-106.47	-50.274	-60.858	-5.096	0.45233	-0.34894	0.49518	-0.65445	31.0	13111	100
2025-3-27 18:33:18.802	WT901BLE68-01(48591DE3C19B)	-0.346	-1.290	0.148	-65.857	-88.989	196.228	-77.62	6.53	-105.23	-50.274	-60.858	-5.096	0.45233	-0.34894	0.49518	-0.65445	31.0	13111	100
2025-3-27 18:33:18.802	WT901BLE68-01(48591DE3C19B)	-0.346	-1.249	0.145	-63.965	-88.135	223.145	-78.11	8.49	-103.97	-50.274	-60.858	-5.096	0.45233	-0.34894	0.49518	-0.65445	31.0	13111	100
2025-3-27 18:33:18.802	WT901BLE68-01(48591DE3C19B)	-0.318	-1.249	0.145	-63.965	-88.135	223.145	-78.53	10.57	-102.69	-50.274	-60.858	-5.096	0.45233	-0.34894	0.49518	-0.65445	31.0	13111	100
2025-3-27 18:33:18.802	WT901BLE68-01(48591DE3C19B)	-0.318	-1.354	0.144	-60.120	-88.684	242.310	-78.89	12.74	-101.40	-50.274	-60.858	-5.096	0.45233	-0.34894	0.49518	-0.65445	31.0	13111	100
2025-3-27 18:33:18.831	WT901BLE68-01(48591DE3C19B)	-0.260	-1.354	0.144	-60.120	-88.684	242.310	-79.17	15.00	-100.08	-50.274	-60.858	-5.096	0.45233	-0.34894	0.49518	-0.65445	31.0	13111	100
2025-3-27 18:33:18.831	WT901BLE68-01(48591DE3C19B)	-0.260	-1.467	0.142	-49.194	-89.722	252.625	-79.34	17.29	-98.74	-50.274	-60.858	-5.096	0.45233	-0.34894	0.49518	-0.65445	31.0	13111	100
2025-3-27 18:33:18.831	WT901BLE68-01(48591DE3C19B)	-0.177	-1.467	0.142	-49.194	-89.722	252.625	-79.40	19.61	-97.37	-50.274	-60.858	-5.096	0.45233	-0.34894	0.49518	-0.65445	31.0	13111	100
2025-3-27 18:33:18.831	WT901BLE68-01(48591DE3C19B)	-0.177	-1.466	0.127	-33.813	-82.214	255.798	-79.34	21.93	-96.03	-50.274	-60.858	-5.096	0.45233	-0.34894	0.49518	-0.65445	31.0	13111	100
2025-3-27 18:33:18.863	WT901BLE68-01(48591DE3C19B)	-0.137	-1.466	0.127	-33.813	-82.214	255.798	-79.15	24.25	-94.69	-50.274	-60.858	-5.096	0.45233	-0.34894	0.49518	-0.65445	31.0	13111	100
2025-3-27 18:33:18.863	WT901BLE68-01(48591DE3C19B)	-0.137	-1.323	0.121	-22.949	-64.270	250.610	-78.90	26.54	-93.42	-50.274	-60.858	-5.096	0.45233	-0.34894	0.49518	-0.65445	31.0	13111	100
2025-3-27 18:33:18.863	WT901BLE68-01(48591DE3C19B)	-0.108	-1.323	0.121	-22.949	-64.270	250.610	-78.57	28.80	-92.22	-50.274	-60.858	-5.096	0.45233	-0.34894	0.49518	-0.65445	31.0	13111	100
2025-3-27 18:33:18.863	WT901BLE68-01(48591DE3C19B)	-0.108	-1.188	0.112	-20.142	-43.762	237.610	-78.24	30.99	-91.12	-50.274	-60.858	-5.096	0.45233	-0.34894	0.49518	-0.65445	31.0	13111	100
2025-3-27 18:33:18.921	WT901BLE68-01(48591DE3C19B)	-0.112	-1.188	0.112	-20.142	-43.762	237.610	-77.92	33.11	-90.10	-50.274	-60.858	-5.096	0.45233	-0.34894	0.49518	-0.65445	31.0	13111	100
2025-3-27 18:33:18.922	WT901BLE68-01(48591DE3C19B)	-0.112	-1.109	0.127	-19.104	-28.381	225.159	-77.59	35.17	-89.17	-81.144	-39.494	-8.330	0.45233	-0.34894	0.49518	-0.65445	31.0	13111	100
2025-3-27 18:33:18.922	WT901BLE68-01(48591DE3C19B)	-0.107	-1.109	0.127	-19.104	-28.381	225.159	-77.28	37.16	-88.30	-81.144	-39.494	-8.330	0.45233	-0.34894	0.49518	-0.65445	31.0	13111	100
2025-3-27 18:33:18.922	WT901BLE68-01(48591DE3C19B)	-0.107	-1.113	0.086	-19.836	-14.709	212.097	-77.00	39.09	-87.51	-81.144	-39.494	-8.330	0.45233	-0.34894	0.49518	-0.65445	31.0	13111	100
2025-3-27 18:33:18.951	WT901BLE68-01(48591DE3C19B)	-0.050	-1.113	0.086	-19.836	-14.709	212.097	-76.74	40.95	-86.80	-81.144	-39.494	-8.330	0.45233	-0.34894	0.49518	-0.65445	31.0	13111	100
2025-3-27 18:33:18.951	WT901BLE68-01(48591DE3C19B)	-0.050	-1.060	0.044	-16.235	-5.798	198.669	-76.49	42.74	-86.13	-81.144	-39.494	-8.330	0.45233	-0.34894	0.49518	-0.65445	31.0	13111	100
2025-3-27 18:33:18.951	WT901BLE68-01(48591DE3C19B)	0.002	-1.060	0.044	-16.235	-5.798	198.669	-76.23	44.47	-85.52	-81.144	-39.494	-8.330	0.45233	-0.34894	0.49518	-0.65445	31.0	13111	100
2025-3-27 18:33:18.951	WT901BLE68-01(48591DE3C19B)	0.002	-1.020	0.034	-18.127	-5.981	182.922	-75.99	46.09	-84.91	-81.144	-39.494	-8.330	0.45233	-0.34894	0.49518	-0.65445	31.0	13111	100
2025-3-27 18:33:18.985	WT901BLE68-01(48591DE3C19B)	0.025	-1.020	0.034	-18.127	-5.981	182.922	-75.73	47.63	-84.30	-81.144	-39.494	-8.330	0.45233	-0.34894	0.49518	-0.65445	31.0	13111	100
2025-3-27 18:33:18.985	WT901BLE68-01(48591DE3C19B)	0.025	-1.169	-0.006	-23.865	-15.320	160.706	-75.47	49.04	-83.64	-81.144	-39.494	-8.330	0.45233	-0.34894	0.49518	-0.65445	31.0	13111	100
2025-3-27 18:33:18.985	WT901BLE68-01(48591DE3C19B)	0.067	-1.169	-0.006	-23.865	-15.320	160.706	-75.18	50.31	-82.93	-81.144	-39.494	-8.330	0.45233	-0.34894	0.49518	-0.65445	31.0	13111	100
2025-3-27 18:33:18.985	WT901BLE68-01(48591DE3C19B)	0.067	-1.340	-0.051	-23.926	-32.593	136.353	-74.81	51.43	-82.12	-81.144	-39.494	-8.330	0.45233	-0.34894	0.49518	-0.65445	31.0	13111	100
2025-3-27 18:33:19.41	WT901BLE68-01(48591DE3C19B)	0.155	-1.340	-0.051	-23.926	-32.593	136.353	-74.34	52.39	-81.19	-81.144	-39.494	-8.330	0.45233	-0.34894	0.49518	-0.65445	31.0	13111	100
2025-3-27 18:33:19.41	WT901BLE68-01(48591DE3C19B)	0.155	-1.430	-0.063	-19.287	-43.579	107.666	-73.82	53.19	-80.23	-81.144	-39.494	-8.330	0.45233	-0.34894	0.49518	-0.65445	31.0	13111	100
2025-3-27 18:33:19.41	WT901BLE68-01(48591DE3C19B)	0.266	-1.430	-0.063	-19.287	-43.579	107.666	-73.23	53.82	-79.22	-81.144	-39.494	-8.330	0.45233	-0.34894	0.49518	-0.65445	31.0	13111	100
2025-3-27 18:33:19.42	WT901BLE68-01(48591DE3C19B)	0.266	-1.612	-0.068	-20.813	-43.457	71.289	-72.71	54.26	-78.28	-81.144	-39.494	-8.330	0.45233	-0.34894	0.49518	-0.65445	31.0	13111	100
2025-3-27 18:33:19.101	WT901BLE68-01(48591DE3C19B)	0.375	-1.612	-0.068	-20.813	-43.457	71.289	-72.27	54.52	-77.44	-81.144	-39.494	-8.330	0.45233	-0.34894	0.49518	-0.65445	31.0	13111	100
2025-3-27 18:33:19.102	WT901BLE68-01(48591DE3C19B)	0.375	-1.833	-0.057	-13.733	-32.288	26.611	-71.97	54.57	-76.81	-81.144	-39.494	-8.330	0.45233	-0.34894	0.49518	-0.65445	31.0	13111	100
2025-3-27 18:33:19.102	WT901BLE68-01(48591DE3C19B)	0.421	-1.833	-0.057	-13.733	-32.288	26.611	-71.81	54.42	-76.39	-81.144	-39.494	-8.330	0.45233	-0.34894	0.49518	-0.65445	31.0	13111	100
2025-3-27 18:33:19.102	WT901BLE68-01(48591DE3C19B)	0.421	-1.831	-0.003	-3.235	-18.066	-20.081	-71.80	54.06	-76.22	-81.144	-39.494	-8.330	0.45233	-0.34894	0.49518	-0.65445	31.0	13111	100
2025-3-27 18:33:19.103	WT901BLE68-01(48591DE3C19B)	0.278	-1.831	-0.003	-3.235	-18.066	-20.081	-71.94	53.50	-76.29	-81.144	-39.494	-8.330	0.45233	-0.34894	0.49518	-0.65445	31.0	13111	100
2025-3-27 18:33:19.103	WT901BLE68-01(48591DE3C19B)	0.278	-1.712	0.088	-5.188	0.000	-66.650	-72.30	52.75	-76.62	-81.144	-39.494	-8.330	0.45233	-0.34894	0.49518	-0.65445	31.0	13111	100
2025-3-27 18:33:19.103	WT901BLE68-01(48591DE3C19B)	0.122	-1.712	0.088	-5.188	0.000	-66.650	-72.84	51.80	-77.18	-81.144	-39.494	-8.330	0.72620	-0.20105	0.60724	-0.25180	31.0	13111	100
2025-3-27 18:33:19.103	WT901BLE68-01(48591DE3C19B)	0.122	-1.642	0.175	-3.906	8.667	-111.084	-73.47	50.65	-77.89	-81.144	-39.494	-8.330	0.72620	-0.20105	0.60724	-0.25180	31.0	13111	100
2025-3-27 18:33:19.161	WT901BLE68-01(48591DE3C19B)	0.037	-1.642	0.175	-3.906	8.667	-111.084	-74.18	49.31	-78.71	-81.144	-39.494	-8.330	0.72620	-0.20105	0.60724	-0.25180	31.0	13111	100
2025-3-27 18:33:19.161	WT901BLE68-01(48591DE3C19B)	0.037	-1.521	0.221	2.747	5.554	-145.447	-74.83	47.79	-79.51	-81.144	-39.494	-8.330	0.72620	-0.20105	0.60724	-0.25180	31.0	13111	100
2025-3-27 18:33:19.161	WT901BLE68-01(48591DE3C19B)	-0.003	-1.521	0.221	2.747	5.554	-145.447	-75.42	46.12	-80.31	-81.144	-39.494	-8.330	0.72620	-0.20105	0.60724	-0.25180	31.0	13111	100
2025-3-27 18:33:19.161	WT901BLE68-01(48591DE3C19B)	-0.003	-1.446	0.126	16.602	10.559	-173.340	-75.94	44.31	-81.13	-81.144	-39.494	-8.330	0.72620	-0.20105	0.60724	-0.25180	31.0	13111	100
2025-3-27 18:33:19.190	WT901BLE68-01(48591DE3C19B)	0.015	-1.446	0.126	16.602	10.559	-173.340	-76.39	42.39	-81.99	-81.144	-39.494	-8.330	0.72620	-0.20105	0.60724	-0.25180	31.0	13111	100
2025-3-27 18:33:19.190	WT901BLE68-01(48591DE3C19B)	0.015	-1.286	0.028	31.982	25.330	-191.101	-76.78	40.40	-82.91	-81.144	-39.494	-8.330	0.72620	-0.20105	0.60724	-0.25180	31.0	13111	100
2025-3-27 18:33:19.190	WT901BLE68-01(48591DE3C19B)	-0.002	-1.286	0.028	31.982	25.330	-191.101	-77.13	38.35	-83.90	-81.144	-39.494	-8.330	0.72620	-0.20105	0.60724	-0.25180	31.0	13111	100
2025-3-27 18:33:19.190	WT901BLE68-01(48591DE3C19B)	-0.002	-1.149	0.020	38.391	49.072	-203.491	-77.48	36.28	-85.01	-81.144	-39.494	-8.330	0.72620	-0.20105	0.60724	-0.25180	31.0	13111	100
2025-3-27 18:33:19.221	WT901BLE68-01(48591DE3C19B)	-0.099	-1.149	0.020	38.391	49.072	-203.491	-77.84	34.18	-86.22	-81.144	-39.494	-8.330	0.72620	-0.20105	0.60724	-0.25180	31.0	13111	100
2025-3-27 18:33:19.221	WT901BLE68-01(48591DE3C19B)	-0.099	-1.136	0.065	42.542	74.768	-214.905	-78.26	32.03	-87.70	-81.144	-39.494	-8.330	0.72620	-0.20105	0.60724	-0.25180	31.0	13111	100
2025-3-27 18:33:19.221	WT901BLE68-01(48591DE3C19B)	-0.192	-1.136	0.065	42.542	74.768	-214.905	-78.61	29.89	-89.13	-81.144	-39.494	-8.330	0.72620	-0.20105	0.60724	-0.25180	31.0	13111	100
2025-3-27 18:33:19.221	WT901BLE68-01(48591DE3C19B)	-0.192	-1.138	0.132	51.392	99.365	-224.060	-78.94	27.71	-90.80	-81.144	-39.494	-8.330	0.72620	-0.20105	0.60724	-0.25180	31.0	13111	100
2025-3-27 18:33:19.284	WT901BLE68-01(48591DE3C19B)	-0.271	-1.138	0.132	51.392	99.365	-224.060	-79.18	25.54	-92.41	-81.144	-39.494	-8.330	0.72620	-0.20105	0.60724	-0.25180	31.0	13111	100
2025-3-27 18:33:19.284	WT901BLE68-01(48591DE3C19B)	-0.271	-1.131	0.177	58.594	115.906	-231.995	-79.36	23.35	-94.16	-81.144	-39.494	-8.330	0.72620	-0.20105	0.60724	-0.25180	31.0	13111	100
2025-3-27 18:33:19.284	WT901BLE68-01(48591DE3C19B)	-0.337	-1.131	0.177	58.594	115.906	-231.995	-79.46	21.16	-95.88	-81.144	-39.494	-8.330	0.72620	-0.20105	0.60724	-0.25180	31.0	13111	100
2025-3-27 18:33:19.284	WT901BLE68-01(48591DE3C19B)	-0.337	-1.153	0.174	63.538	124.451	-239.624	-79.47	18.93	-97.66	-81.144	-39.494	-8.330	0.72620	-0.20105	0.60724	-0.25180	31.0	13111	100
2025-3-27 18:33:19.313	WT901BLE68-01(48591DE3C19B)	-0.444	-1.153	0.174	63.538	124.451	-239.624	-79.40	16.73	-99.42	-81.144	-39.494	-8.330	0.72620	-0.20105	0.60724	-0.25180	31.0	13111	100
2025-3-27 18:33:19.314	WT901BLE68-01(48591DE3C19B)	-0.444	-1.203	0.143	66.162	126.160	-244.812	-79.25	14.50	-101.18	-81.144	-39.494	-8.330	0.72620	-0.20105	0.60724	-0.25180	31.0	13111	100
2025-3-27 18:33:19.314	WT901BLE68-01(48591DE3C19B)	-0.522	-1.203	0.143	66.162	126.160	-244.812	-79.02	12.30	-102.92	-81.144	-39.494	-8.330	0.72620	-0.20105	0.60724	-0.25180	31.0	13111	100
2025-3-27 18:33:19.314	WT901BLE68-01(48591DE3C19B)	-0.522	-1.247	0.096	70.190	121.948	-246.948	-78.70	10.10	-104.61	-75.264	-42.434	-10.780	0.72620	-0.20105	0.60724	-0.25180	31.0	13111	100
2025-3-27 18:33:19.343	WT901BLE68-01(48591DE3C19B)	-0.583	-1.247	0.096	70.190	121.948	-246.948	-78.30	7.93	-106.30	-75.264	-42.434	-10.780	0.72620	-0.20105	0.60724	-0.25180	31.0	13111	100
2025-3-27 18:33:19.343	WT901BLE68-01(48591DE3C19B)	-0.583	-1.202	0.065	73.364	107.361	-241.821	-77.79	5.82	-107.83	-75.264	-42.434	-10.780	0.72620	-0.20105	0.60724	-0.25180	31.0	13111	100
2025-3-27 18:33:19.343	WT901BLE68-01(48591DE3C19B)	-0.622	-1.202	0.065	73.364	107.361	-241.821	-77.24	3.74	-109.37	-75.264	-42.434	-10.780	0.72620	-0.20105	0.60724	-0.25180	31.0	13111	100
2025-3-27 18:33:19.343	WT901BLE68-01(48591DE3C19B)	-0.622	-1.104	0.053	72.754	81.665	-230.164	-76.63	1.75	-110.65	-75.264	-42.434	-10.780	0.72620	-0.20105	0.60724	-0.25180	31.0	13111	100
2025-3-27 18:33:19.401	WT901BLE68-01(48591DE3C19B)	-0.627	-1.104	0.053	72.754	81.665	-230.164	-75.98	-0.19	-111.95	-75.264	-42.434	-10.780	0.72620	-0.20105	0.60724	-0.25180	31.0	13111	100
2025-3-27 18:33:19.401	WT901BLE68-01(48591DE3C19B)	-0.627	-0.987	0.068	69.519	48.096	-213.379	-75.33	-2.03	-112.90	-75.264	-42.434	-10.780	0.72620	-0.20105	0.60724	-0.25180	31.0	13111	100
2025-3-27 18:33:19.401	WT901BLE68-01(48591DE3C19B)	-0.594	-0.987	0.068	69.519	48.096	-213.379	-74.65	-3.84	-113.86	-75.264	-42.434	-10.780	0.72620	-0.20105	0.60724	-0.25180	31.0	13111	100
2025-3-27 18:33:19.401	WT901BLE68-01(48591DE3C19B)	-0.594	-0.886	0.098	62.988	22.766	-193.665	-74.04	-5.50	-114.56	-75.264	-42.434	-10.780	0.72620	-0.20105	0.60724	-0.25180	31.0	13111	100
2025-3-27 18:33:19.430	WT901BLE68-01(48591DE3C19B)	-0.596	-0.886	0.098	62.988	22.766	-193.665	-73.40	-7.13	-115.27	-75.264	-42.434	-10.780	0.72620	-0.20105	0.60724	-0.25180	31.0	13111	100
2025-3-27 18:33:19.430	WT901BLE68-01(48591DE3C19B)	-0.596	-0.836	0.139	55.481	10.803	-170.654	-72.84	-8.55	-115.83	-75.264	-42.434	-10.780	0.72620	-0.20105	0.60724	-0.25180	31.0	13111	100
2025-3-27 18:33:19.430	WT901BLE68-01(48591DE3C19B)	-0.625	-0.836	0.139	55.481	10.803	-170.654	-72.27	-9.96	-116.42	-75.264	-42.434	-10.780	0.72620	-0.20105	0.60724	-0.25180	31.0	13111	100
2025-3-27 18:33:19.430	WT901BLE68-01(48591DE3C19B)	-0.625	-0.820	0.169	49.011	6.592	-148.193	-71.76	-11.14	-116.92	-75.264	-42.434	-10.780	0.72620	-0.20105	0.60724	-0.25180	31.0	13111	100
2025-3-27 18:33:19.461	WT901BLE68-01(48591DE3C19B)	-0.651	-0.820	0.169	49.011	6.592	-148.193	-71.23	-12.30	-117.44	-75.264	-42.434	-10.780	0.72620	-0.20105	0.60724	-0.25180	31.0	13111	100
2025-3-27 18:33:19.461	WT901BLE68-01(48591DE3C19B)	-0.651	-0.853	0.206	43.335	9.033	-124.207	-70.76	-13.21	-117.93	-75.264	-42.434	-10.780	0.72620	-0.20105	0.60724	-0.25180	31.0	13111	100
2025-3-27 18:33:19.461	WT901BLE68-01(48591DE3C19B)	-0.629	-0.853	0.206	43.335	9.033	-124.207	-70.27	-14.11	-118.45	-75.264	-42.434	-10.780	0.72620	-0.20105	0.60724	-0.25180	31.0	13111	100
2025-3-27 18:33:19.461	WT901BLE68-01(48591DE3C19B)	-0.629	-0.880	0.285	40.344	19.348	-96.130	-69.79	-14.69	-118.99	-75.264	-42.434	-10.780	0.72620	-0.20105	0.60724	-0.25180	31.0	13111	100
2025-3-27 18:33:19.521	WT901BLE68-01(48591DE3C19B)	-0.626	-0.880	0.285	40.344	19.348	-96.130	-69.29	-15.26	-119.56	-75.264	-42.434	-10.780	0.72620	-0.20105	0.60724	-0.25180	31.0	13111	100
2025-3-27 18:33:19.521	WT901BLE68-01(48591DE3C19B)	-0.626	-0.932	0.290	35.706	35.828	-66.223	-68.82	-15.49	-120.21	-75.264	-42.434	-10.780	0.72620	-0.20105	0.60724	-0.25180	31.0	13111	100
2025-3-27 18:33:19.522	WT901BLE68-01(48591DE3C19B)	-0.724	-0.932	0.290	35.706	35.828	-66.223	-68.33	-15.70	-120.87	-75.264	-42.434	-10.780	0.72620	-0.20105	0.60724	-0.25180	31.0	13111	100
2025-3-27 18:33:19.522	WT901BLE68-01(48591DE3C19B)	-0.724	-0.961	0.266	30.762	48.706	-36.804	-67.88	-15.58	-121.56	-75.264	-42.434	-10.780	0.72620	-0.20105	0.60724	-0.25180	31.0	13111	100
2025-3-27 18:33:19.584	WT901BLE68-01(48591DE3C19B)	-0.820	-0.961	0.266	30.762	48.706	-36.804	-67.43	-15.46	-122.26	-75.264	-42.434	-10.780	0.33249	-0.36356	0.42761	-0.75781	31.0	13111	100
2025-3-27 18:33:19.584	WT901BLE68-01(48591DE3C19B)	-0.820	-1.049	0.207	19.592	52.063	-9.216	-67.11	-15.07	-122.90	-75.264	-42.434	-10.780	0.33249	-0.36356	0.42761	-0.75781	31.0	13111	100
2025-3-27 18:33:19.584	WT901BLE68-01(48591DE3C19B)	-0.836	-1.049	0.207	19.592	52.063	-9.216	-66.79	-14.67	-123.54	-75.264	-42.434	-10.780	0.33249	-0.36356	0.42761	-0.75781	31.0	13111	100
2025-3-27 18:33:19.584	WT901BLE68-01(48591DE3C19B)	-0.836	-1.217	0.174	6.287	47.485	18.005	-66.65	-14.03	-124.04	-75.264	-42.434	-10.780	0.33249	-0.36356	0.42761	-0.75781	31.0	13111	100
2025-3-27 18:33:19.584	WT901BLE68-01(48591DE3C19B)	-0.833	-1.217	0.174	6.287	47.485	18.005	-66.51	-13.40	-124.53	-75.264	-42.434	-10.780	0.33249	-0.36356	0.42761	-0.75781	31.0	13111	100
2025-3-27 18:33:19.584	WT901BLE68-01(48591DE3C19B)	-0.833	-1.343	0.151	-6.897	39.551	42.297	-66.56	-12.58	-124.84	-75.264	-42.434	-10.780	0.33249	-0.36356	0.42761	-0.75781	31.0	13111	100
2025-3-27 18:33:19.584	WT901BLE68-01(48591DE3C19B)	-0.781	-1.343	0.151	-6.897	39.551	42.297	-66.60	-11.76	-125.16	-75.264	-42.434	-10.780	0.33249	-0.36356	0.42761	-0.75781	31.0	13111	100
2025-3-27 18:33:19.584	WT901BLE68-01(48591DE3C19B)	-0.781	-1.377	0.150	-23.499	29.724	62.195	-66.86	-10.81	-125.29	-75.264	-42.434	-10.780	0.33249	-0.36356	0.42761	-0.75781	31.0	13111	100
2025-3-27 18:33:19.641	WT901BLE68-01(48591DE3C19B)	-0.789	-1.377	0.150	-23.499	29.724	62.195	-67.13	-9.87	-125.41	-75.264	-42.434	-10.780	0.33249	-0.36356	0.42761	-0.75781	31.0	13111	100
2025-3-27 18:33:19.641	WT901BLE68-01(48591DE3C19B)	-0.789	-1.367	0.177	-40.344	18.188	79.712	-67.59	-8.81	-125.36	-75.264	-42.434	-10.780	0.33249	-0.36356	0.42761	-0.75781	31.0	13111	100
2025-3-27 18:33:19.641	WT901BLE68-01(48591DE3C19B)	-0.822	-1.367	0.177	-40.344	18.188	79.712	-68.05	-7.76	-125.31	-75.264	-42.434	-10.780	0.33249	-0.36356	0.42761	-0.75781	31.0	13111	100
2025-3-27 18:33:19.642	WT901BLE68-01(48591DE3C19B)	-0.822	-1.311	0.156	-55.725	-2.441	94.299	-68.70	-6.66	-125.02	-75.264	-42.434	-10.780	0.33249	-0.36356	0.42761	-0.75781	31.0	13111	100
2025-3-27 18:33:19.673	WT901BLE68-01(48591DE3C19B)	-0.805	-1.311	0.156	-55.725	-2.441	94.299	-69.33	-5.56	-124.74	-75.264	-42.434	-10.780	0.33249	-0.36356	0.42761	-0.75781	31.0	13111	100
2025-3-27 18:33:19.673	WT901BLE68-01(48591DE3C19B)	-0.706	-1.154	0.076	-69.092	-34.790	109.863	-70.13	-4.43	-124.11	-75.264	-42.434	-10.780	0.33249	-0.36356	0.42761	-0.75781	31.0	13111	100
2025-3-27 18:33:19.673	WT901BLE68-01(48591DE3C19B)	-0.706	-1.063	-0.059	-83.801	-69.519	129.333	-70.98	-3.25	-123.30	-75.264	-42.434	-10.780	0.33249	-0.36356	0.42761	-0.75781	31.0	13111	100
2025-3-27 18:33:19.673	WT901BLE68-01(48591DE3C19B)	-0.615	-1.063	-0.059	-83.801	-69.519	129.333	-71.91	-2.04	-122.30	-75.264	-42.434	-10.780	0.33249	-0.36356	0.42761	-0.75781	31.0	13111	100
2025-3-27 18:33:19.703	WT901BLE68-01(48591DE3C19B)	-0.615	-1.095	-0.153	-93.445	-102.478	153.748	-72.87	-0.75	-121.12	-75.264	-42.434	-10.780	0.33249	-0.36356	0.42761	-0.75781	31.0	13111	100
2025-3-27 18:33:19.703	WT901BLE68-01(48591DE3C19B)	-0.491	-1.095	-0.153	-93.445	-102.478	153.748	-73.86	0.62	-119.74	-75.264	-42.434	-10.780	0.33249	-0.36356	0.42761	-0.75781	31.0	13111	100
2025-3-27 18:33:19.703	WT901BLE68-01(48591DE3C19B)	-0.491	-1.187	-0.210	-95.703	-128.784	180.847	-74.83	2.10	-118.20	-54.194	-55.468	-9.800	0.33249	-0.36356	0.42761	-0.75781	31.0	13111	100
2025-3-27 18:33:19.704	WT901BLE68-01(48591DE3C19B)	-0.376	-1.187	-0.210	-95.703	-128.784	180.847	-75.77	3.69	-116.50	-54.194	-55.468	-9.800	0.33249	-0.36356	0.42761	-0.75781	31.0	13111	100
2025-3-27 18:33:19.761	WT901BLE68-01(48591DE3C19B)	-0.376	-1.258	-0.215	-92.102	-143.433	205.994	-76.64	5.39	-114.70	-54.194	-55.468	-9.800	0.33249	-0.36356	0.42761	-0.75781	31.0	13111	100
2025-3-27 18:33:19.761	WT901BLE68-01(48591DE3C19B)	-0.298	-1.258	-0.215	-92.102	-143.433	205.994	-77.43	7.21	-112.81	-54.194	-55.468	-9.800	0.33249	-0.36356	0.42761	-0.75781	31.0	13111	100
2025-3-27 18:33:19.761	WT901BLE68-01(48591DE3C19B)	-0.298	-1.362	-0.193	-87.952	-145.752	224.915	-78.15	9.12	-110.90	-54.194	-55.468	-9.800	0.33249	-0.36356	0.42761	-0.75781	31.0	13111	100
2025-3-27 18:33:19.761	WT901BLE68-01(48591DE3C19B)	-0.266	-1.362	-0.193	-87.952	-145.752	224.915	-78.77	11.12	-108.96	-54.194	-55.468	-9.800	0.33249	-0.36356	0.42761	-0.75781	31.0	13111	100
2025-3-27 18:33:19.791	WT901BLE68-01(48591DE3C19B)	-0.266	-1.423	-0.138	-78.430	-140.747	238.281	-79.29	13.19	-107.05	-54.194	-55.468	-9.800	0.33249	-0.36356	0.42761	-0.75781	31.0	13111	100
2025-3-27 18:33:19.791	WT901BLE68-01(48591DE3C19B)	-0.237	-1.423	-0.138	-78.430	-140.747	238.281	-79.69	15.32	-105.14	-54.194	-55.468	-9.800	0.33249	-0.36356	0.42761	-0.75781	31.0	13111	100
2025-3-27 18:33:19.791	WT901BLE68-01(48591DE3C19B)	-0.237	-1.388	-0.063	-66.101	-130.798	247.559	-79.97	17.50	-103.29	-54.194	-55.468	-9.800	0.33249	-0.36356	0.42761	-0.75781	31.0	13111	100
2025-3-27 18:33:19.791	WT901BLE68-01(48591DE3C19B)	-0.201	-1.388	-0.063	-66.101	-130.798	247.559	-80.13	19.72	-101.48	-54.194	-55.468	-9.800	0.33249	-0.36356	0.42761	-0.75781	31.0	13111	100
2025-3-27 18:33:19.820	WT901BLE68-01(48591DE3C19B)	-0.201	-1.326	-0.026	-54.810	-112.122	251.160	-80.20	21.96	-99.75	-54.194	-55.468	-9.800	0.33249	-0.36356	0.42761	-0.75781	31.0	13111	100
2025-3-27 18:33:19.820	WT901BLE68-01(48591DE3C19B)	-0.195	-1.326	-0.026	-54.810	-112.122	251.160	-80.17	24.21	-98.10	-54.194	-55.468	-9.800	0.33249	-0.36356	0.42761	-0.75781	31.0	13111	100
2025-3-27 18:33:19.820	WT901BLE68-01(48591DE3C19B)	-0.195	-1.248	-0.022	-45.471	-88.074	250.366	-80.08	26.46	-96.56	-54.194	-55.468	-9.800	0.33249	-0.36356	0.42761	-0.75781	31.0	13111	100
2025-3-27 18:33:19.821	WT901BLE68-01(48591DE3C19B)	-0.204	-1.248	-0.022	-45.471	-88.074	250.366	-79.94	28.71	-95.13	-54.194	-55.468	-9.800	0.33249	-0.36356	0.42761	-0.75781	31.0	13111	100
2025-3-27 18:33:19.884	WT901BLE68-01(48591DE3C19B)	-0.204	-1.183	-0.042	-41.382	-63.843	245.361	-79.78	30.93	-93.81	-54.194	-55.468	-9.800	0.33249	-0.36356	0.42761	-0.75781	31.0	13111	100
2025-3-27 18:33:19.884	WT901BLE68-01(48591DE3C19B)	-0.216	-1.183	-0.042	-41.382	-63.843	245.361	-79.62	33.13	-92.61	-54.194	-55.468	-9.800	0.33249	-0.36356	0.42761	-0.75781	31.0	13111	100
2025-3-27 18:33:19.884	WT901BLE68-01(48591DE3C19B)	-0.216	-1.148	-0.035	-39.001	-45.776	239.136	-79.45	35.30	-91.49	-54.194	-55.468	-9.800	0.33249	-0.36356	0.42761	-0.75781	31.0	13111	100
2025-3-27 18:33:19.884	WT901BLE68-01(48591DE3C19B)	-0.239	-1.148	-0.035	-39.001	-45.776	239.136	-79.28	37.44	-90.46	-54.194	-55.468	-9.800	0.33249	-0.36356	0.42761	-0.75781	31.0	13111	100
2025-3-27 18:33:19.913	WT901BLE68-01(48591DE3C19B)	-0.239	-1.068	0.060	-35.828	-44.373	234.009	-79.05	39.54	-89.41	-54.194	-55.468	-9.800	0.33249	-0.36356	0.42761	-0.75781	31.0	13111	100
2025-3-27 18:33:19.913	WT901BLE68-01(48591DE3C19B)	-0.264	-1.068	0.060	-35.828	-44.373	234.009	-78.76	41.59	-88.34	-54.194	-55.468	-9.800	0.33249	-0.36356	0.42761	-0.75781	31.0	13111	100
2025-3-27 18:33:19.913	WT901BLE68-01(48591DE3C19B)	-0.264	-1.022	0.175	-28.870	-58.899	228.027	-78.31	43.59	-87.13	-54.194	-55.468	-9.800	0.33249	-0.36356	0.42761	-0.75781	31.0	13111	100
2025-3-27 18:33:19.914	WT901BLE68-01(48591DE3C19B)	-0.271	-1.022	0.175	-28.870	-58.899	228.027	-77.68	45.53	-85.78	-54.194	-55.468	-9.800	0.69131	-0.21857	0.61438	-0.31100	31.0	13111	100
2025-3-27 18:33:19.943	WT901BLE68-01(48591DE3C19B)	-0.271	-1.033	0.232	-19.287	-82.153	216.431	-76.81	47.35	-84.21	-54.194	-55.468	-9.800	0.69131	-0.21857	0.61438	-0.31100	31.0	13111	100
2025-3-27 18:33:19.943	WT901BLE68-01(48591DE3C19B)	-0.272	-1.033	0.232	-19.287	-82.153	216.431	-75.66	49.06	-82.40	-54.194	-55.468	-9.800	0.69131	-0.21857	0.61438	-0.31100	31.0	13111	100
2025-3-27 18:33:19.943	WT901BLE68-01(48591DE3C19B)	-0.272	-1.230	0.204	-15.381	-108.093	195.190	-74.26	50.61	-80.32	-54.194	-55.468	-9.800	0.69131	-0.21857	0.61438	-0.31100	31.0	13111	100
2025-3-27 18:33:19.943	WT901BLE68-01(48591DE3C19B)	-0.190	-1.230	0.204	-15.381	-108.093	195.190	-72.60	51.97	-77.98	-54.194	-55.468	-9.800	0.69131	-0.21857	0.61438	-0.31100	31.0	13111	100
2025-3-27 18:33:20.1	WT901BLE68-01(48591DE3C19B)	-0.190	-1.676	0.101	-13.916	-118.958	159.058	-70.80	53.08	-75.53	-54.194	-55.468	-9.800	0.69131	-0.21857	0.61438	-0.31100	31.0	13111	100
2025-3-27 18:33:20.1	WT901BLE68-01(48591DE3C19B)	-0.003	-1.676	0.101	-13.916	-118.958	159.058	-68.91	53.95	-72.99	-54.194	-55.468	-9.800	0.69131	-0.21857	0.61438	-0.31100	31.0	13111	100
2025-3-27 18:33:20.1	WT901BLE68-01(48591DE3C19B)	-0.003	-2.114	-0.040	-0.488	-100.403	126.221	-67.08	54.64	-70.62	-54.194	-55.468	-9.800	0.69131	-0.21857	0.61438	-0.31100	31.0	13111	100
2025-3-27 18:33:20.2	WT901BLE68-01(48591DE3C19B)	0.205	-2.114	-0.040	-0.488	-100.403	126.221	-65.34	55.16	-68.46	-54.194	-55.468	-9.800	0.69131	-0.21857	0.61438	-0.31100	31.0	13111	100
2025-3-27 18:33:20.30	WT901BLE68-01(48591DE3C19B)	0.205	-2.066	-0.052	25.269	-63.660	91.003	-63.79	55.56	-66.69	-54.194	-55.468	-9.800	0.69131	-0.21857	0.61438	-0.31100	31.0	13111	100
2025-3-27 18:33:20.31	WT901BLE68-01(48591DE3C19B)	0.370	-2.066	-0.052	25.269	-63.660	91.003	-62.45	55.84	-65.32	-54.194	-55.468	-9.800	0.69131	-0.21857	0.61438	-0.31100	31.0	13111	100
2025-3-27 18:33:20.31	WT901BLE68-01(48591DE3C19B)	0.370	-1.896	0.041	28.381	-17.944	48.950	-61.55	56.02	-64.50	-54.194	-55.468	-9.800	0.69131	-0.21857	0.61438	-0.31100	31.0	13111	100
2025-3-27 18:33:20.31	WT901BLE68-01(48591DE3C19B)	0.381	-1.896	0.041	28.381	-17.944	48.950	-61.07	56.12	-64.20	-54.194	-55.468	-9.800	0.69131	-0.21857	0.61438	-0.31100	31.0	13111	100
2025-3-27 18:33:20.93	WT901BLE68-01(48591DE3C19B)	0.381	-1.674	0.231	33.630	31.494	7.568	-61.04	56.14	-64.48	-54.194	-55.468	-9.800	0.69131	-0.21857	0.61438	-0.31100	31.0	13111	100
2025-3-27 18:33:20.93	WT901BLE68-01(48591DE3C19B)	0.220	-1.674	0.231	33.630	31.494	7.568	-61.45	56.09	-65.32	-54.194	-55.468	-9.800	0.69131	-0.21857	0.61438	-0.31100	31.0	13111	100
2025-3-27 18:33:20.93	WT901BLE68-01(48591DE3C19B)	0.220	-1.470	0.288	29.053	63.171	-37.720	-62.25	55.90	-66.59	-54.194	-55.468	-9.800	0.69131	-0.21857	0.61438	-0.31100	31.0	13111	100
2025-3-27 18:33:20.93	WT901BLE68-01(48591DE3C19B)	0.121	-1.470	0.288	29.053	63.171	-37.720	-63.39	55.57	-68.28	-54.194	-55.468	-9.800	0.69131	-0.21857	0.61438	-0.31100	31.0	13111	100
2025-3-27 18:33:20.123	WT901BLE68-01(48591DE3C19B)	0.121	-1.390	0.248	30.823	88.928	-83.374	-64.80	55.07	-70.31	-54.194	-55.468	-9.800	0.69131	-0.21857	0.61438	-0.31100	31.0	13111	100
2025-3-27 18:33:20.123	WT901BLE68-01(48591DE3C19B)	0.068	-1.390	0.248	30.823	88.928	-83.374	-66.42	54.39	-72.63	-54.194	-55.468	-9.800	0.69131	-0.21857	0.61438	-0.31100	31.0	13111	100
2025-3-27 18:33:20.123	WT901BLE68-01(48591DE3C19B)	0.068	-1.347	0.131	33.142	116.394	-125.977	-68.23	53.52	-75.22	-54.194	-55.468	-9.800	0.69131	-0.21857	0.61438	-0.31100	31.0	13111	100
2025-3-27 18:33:20.123	WT901BLE68-01(48591DE3C19B)	-0.034	-1.347	0.131	33.142	116.394	-125.977	-70.17	52.45	-78.02	-84.672	-18.816	-10.388	0.69131	-0.21857	0.61438	-0.31100	31.0	13111	100
2025-3-27 18:33:20.153	WT901BLE68-01(48591DE3C19B)	-0.034	-1.182	0.069	37.231	122.803	-159.058	-72.05	51.20	-80.83	-84.672	-18.816	-10.388	0.69131	-0.21857	0.61438	-0.31100	31.0	13111	100
2025-3-27 18:33:20.153	WT901BLE68-01(48591DE3C19B)	-0.124	-1.182	0.069	37.231	122.803	-159.058	-73.83	49.75	-83.59	-84.672	-18.816	-10.388	0.69131	-0.21857	0.61438	-0.31100	31.0	13111	100
2025-3-27 18:33:20.153	WT901BLE68-01(48591DE3C19B)	-0.124	-1.092	0.028	41.504	102.539	-180.542	-75.25	48.00	-85.98	-84.672	-18.816	-10.388	0.69131	-0.21857	0.61438	-0.31100	31.0	13111	100
2025-3-27 18:33:20.153	WT901BLE68-01(48591DE3C19B)	-0.199	-1.092	0.028	41.504	102.539	-180.542	-76.49	46.22	-88.21	-84.672	-18.816	-10.388	0.69131	-0.21857	0.61438	-0.31100	31.0	13111	100
2025-3-27 18:33:20.211	WT901BLE68-01(48591DE3C19B)	-0.199	-1.085	0.022	49.255	67.688	-197.815	-77.22	44.20	-89.90	-84.672	-18.816	-10.388	0.69131	-0.21857	0.61438	-0.31100	31.0	13111	100
2025-3-27 18:33:20.211	WT901BLE68-01(48591DE3C19B)	-0.227	-1.085	0.022	49.255	67.688	-197.815	-77.84	42.17	-91.48	-84.672	-18.816	-10.388	0.69131	-0.21857	0.61438	-0.31100	31.0	13111	100
2025-3-27 18:33:20.212	WT901BLE68-01(48591DE3C19B)	-0.227	-1.089	0.039	53.406	33.875	-212.708	-78.06	39.93	-92.59	-84.672	-18.816	-10.388	0.69131	-0.21857	0.61438	-0.31100	31.0	13111	100
2025-3-27 18:33:20.212	WT901BLE68-01(48591DE3C19B)	-0.250	-1.089	0.039	53.406	33.875	-212.708	-78.23	37.71	-93.65	-84.672	-18.816	-10.388	0.69131	-0.21857	0.61438	-0.31100	31.0	13111	100
2025-3-27 18:33:20.240	WT901BLE68-01(48591DE3C19B)	-0.250	-1.147	0.088	52.490	10.925	-228.088	-78.20	35.31	-94.43	-84.672	-18.816	-10.388	0.69131	-0.21857	0.61438	-0.31100	31.0	13111	100
2025-3-27 18:33:20.240	WT901BLE68-01(48591DE3C19B)	-0.261	-1.147	0.088	52.490	10.925	-228.088	-78.13	32.93	-95.18	-84.672	-18.816	-10.388	0.69131	-0.21857	0.61438	-0.31100	31.0	13111	100
2025-3-27 18:33:20.240	WT901BLE68-01(48591DE3C19B)	-0.261	-1.227	0.124	50.110	-1.160	-245.239	-78.00	30.37	-95.81	-84.672	-18.816	-10.388	0.69131	-0.21857	0.61438	-0.31100	31.0	13111	100
2025-3-27 18:33:20.240	WT901BLE68-01(48591DE3C19B)	-0.291	-1.227	0.124	50.110	-1.160	-245.239	-77.83	27.83	-96.43	-84.672	-18.816	-10.388	0.69131	-0.21857	0.61438	-0.31100	31.0	13111	100
2025-3-27 18:33:20.271	WT901BLE68-01(48591DE3C19B)	-0.291	-1.252	0.152	46.936	-5.493	-260.864	-77.67	25.16	-97.04	-84.672	-18.816	-10.388	0.69131	-0.21857	0.61438	-0.31100	31.0	13111	100
2025-3-27 18:33:20.271	WT901BLE68-01(48591DE3C19B)	-0.304	-1.252	0.152	46.936	-5.493	-260.864	-77.48	22.50	-97.63	-84.672	-18.816	-10.388	0.69131	-0.21857	0.61438	-0.31100	31.0	13111	100
2025-3-27 18:33:20.271	WT901BLE68-01(48591DE3C19B)	-0.304	-1.249	0.154	44.373	6.287	-269.897	-77.34	19.80	-98.36	-84.672	-18.816	-10.388	0.69131	-0.21857	0.61438	-0.31100	31.0	13111	100
2025-3-27 18:33:20.271	WT901BLE68-01(48591DE3C19B)	-0.327	-1.249	0.154	44.373	6.287	-269.897	-77.17	17.13	-99.09	-84.672	-18.816	-10.388	0.69131	-0.21857	0.61438	-0.31100	31.0	13111	100
2025-3-27 18:33:20.361	WT901BLE68-01(48591DE3C19B)	-0.327	-1.203	0.154	44.861	28.931	-271.912	-77.02	14.51	-100.04	-84.672	-18.816	-10.388	0.69131	-0.21857	0.61438	-0.31100	31.0	13111	100
2025-3-27 18:33:20.362	WT901BLE68-01(48591DE3C19B)	-0.375	-1.203	0.154	44.861	28.931	-271.912	-76.83	11.91	-100.98	-84.672	-18.816	-10.388	0.69131	-0.21857	0.61438	-0.31100	31.0	13111	100
2025-3-27 18:33:20.362	WT901BLE68-01(48591DE3C19B)	-0.375	-1.105	0.174	46.875	44.128	-268.738	-76.60	9.39	-102.06	-84.672	-18.816	-10.388	0.69131	-0.21857	0.61438	-0.31100	31.0	13111	100
2025-3-27 18:33:20.362	WT901BLE68-01(48591DE3C19B)	-0.424	-1.105	0.174	46.875	44.128	-268.738	-76.33	6.90	-103.15	-84.672	-18.816	-10.388	0.69131	-0.21857	0.61438	-0.31100	31.0	13111	100
2025-3-27 18:33:20.363	WT901BLE68-01(48591DE3C19B)	-0.424	-1.022	0.215	47.241	44.373	-260.437	-76.00	4.53	-104.22	-84.672	-18.816	-10.388	0.69131	-0.21857	0.61438	-0.31100	31.0	13111	100
2025-3-27 18:33:20.363	WT901BLE68-01(48591DE3C19B)	-0.493	-1.022	0.215	47.241	44.373	-260.437	-75.64	2.17	-105.29	-84.672	-18.816	-10.388	0.69131	-0.21857	0.61438	-0.31100	31.0	13111	100
2025-3-27 18:33:20.363	WT901BLE68-01(48591DE3C19B)	-0.493	-0.984	0.236	49.072	36.072	-246.948	-75.21	-0.04	-106.28	-84.672	-18.816	-10.388	0.69131	-0.21857	0.61438	-0.31100	31.0	13111	100
2025-3-27 18:33:20.363	WT901BLE68-01(48591DE3C19B)	-0.567	-0.984	0.236	49.072	36.072	-246.948	-74.73	-2.24	-107.27	-84.672	-18.816	-10.388	0.45541	-0.37500	0.47516	-0.65277	31.0	13111	100
2025-3-27 18:33:20.393	WT901BLE68-01(48591DE3C19B)	-0.567	-0.938	0.217	51.514	27.832	-230.591	-74.21	-4.26	-108.17	-84.672	-18.816	-10.388	0.45541	-0.37500	0.47516	-0.65277	31.0	13111	100
2025-3-27 18:33:20.393	WT901BLE68-01(48591DE3C19B)	-0.604	-0.938	0.217	51.514	27.832	-230.591	-73.65	-6.26	-109.09	-84.672	-18.816	-10.388	0.45541	-0.37500	0.47516	-0.65277	31.0	13111	100
2025-3-27 18:33:20.393	WT901BLE68-01(48591DE3C19B)	-0.604	-0.875	0.171	50.842	22.461	-210.144	-73.08	-8.05	-109.92	-84.672	-18.816	-10.388	0.45541	-0.37500	0.47516	-0.65277	31.0	13111	100
2025-3-27 18:33:20.393	WT901BLE68-01(48591DE3C19B)	-0.609	-0.875	0.171	50.842	22.461	-210.144	-72.48	-9.81	-110.79	-84.672	-18.816	-10.388	0.45541	-0.37500	0.47516	-0.65277	31.0	13111	100
2025-3-27 18:33:20.451	WT901BLE68-01(48591DE3C19B)	-0.609	-0.849	0.156	47.119	18.005	-187.012	-71.92	-11.34	-111.56	-84.672	-18.816	-10.388	0.45541	-0.37500	0.47516	-0.65277	31.0	13111	100
2025-3-27 18:33:20.452	WT901BLE68-01(48591DE3C19B)	-0.621	-0.849	0.156	47.119	18.005	-187.012	-71.33	-12.85	-112.36	-84.672	-18.816	-10.388	0.45541	-0.37500	0.47516	-0.65277	31.0	13111	100
2025-3-27 18:33:20.452	WT901BLE68-01(48591DE3C19B)	-0.621	-0.909	0.201	40.955	10.071	-160.339	-70.81	-14.11	-113.02	-84.672	-18.816	-10.388	0.45541	-0.37500	0.47516	-0.65277	31.0	13111	100
2025-3-27 18:33:20.452	WT901BLE68-01(48591DE3C19B)	-0.652	-0.909	0.201	40.955	10.071	-160.339	-70.28	-15.35	-113.70	-84.672	-18.816	-10.388	0.45541	-0.37500	0.47516	-0.65277	31.0	13111	100
2025-3-27 18:33:20.483	WT901BLE68-01(48591DE3C19B)	-0.652	-1.036	0.247	36.499	11.230	-131.592	-69.80	-16.30	-114.31	-84.672	-18.816	-10.388	0.45541	-0.37500	0.47516	-0.65277	31.0	13111	100
2025-3-27 18:33:20.483	WT901BLE68-01(48591DE3C19B)	-0.707	-1.036	0.247	36.499	11.230	-131.592	-69.30	-17.23	-114.94	-84.672	-18.816	-10.388	0.45541	-0.37500	0.47516	-0.65277	31.0	13111	100
2025-3-27 18:33:20.483	WT901BLE68-01(48591DE3C19B)	-0.707	-1.131	0.236	32.593	18.372	-102.478	-68.84	-17.86	-115.55	-84.672	-18.816	-10.388	0.45541	-0.37500	0.47516	-0.65277	31.0	13111	100
2025-3-27 18:33:20.483	WT901BLE68-01(48591DE3C19B)	-0.769	-1.131	0.236	32.593	18.372	-102.478	-68.37	-18.47	-116.19	-84.672	-18.816	-10.388	0.45541	-0.37500	0.47516	-0.65277	31.0	13111	100
2025-3-27 18:33:20.513	WT901BLE68-01(48591DE3C19B)	-0.769	-1.225	0.179	25.330	24.780	-75.989	-67.98	-18.81	-116.78	-84.672	-18.816	-10.388	0.45541	-0.37500	0.47516	-0.65277	31.0	13111	100
2025-3-27 18:33:20.513	WT901BLE68-01(48591DE3C19B)	-0.816	-1.225	0.179	25.330	24.780	-75.989	-67.59	-19.14	-117.39	-84.672	-18.816	-10.388	0.45541	-0.37500	0.47516	-0.65277	31.0	13111	100
2025-3-27 18:33:20.513	WT901BLE68-01(48591DE3C19B)	-0.816	-1.316	0.147	15.503	28.748	-51.086	-67.31	-19.22	-117.94	-55.958	-57.722	-11.270	0.45541	-0.37500	0.47516	-0.65277	31.0	13111	100
2025-3-27 18:33:20.514	WT901BLE68-01(48591DE3C19B)	-0.840	-1.316	0.147	15.503	28.748	-51.086	-67.04	-19.29	-118.49	-55.958	-57.722	-11.270	0.45541	-0.37500	0.47516	-0.65277	31.0	13111	100
2025-3-27 18:33:20.571	WT901BLE68-01(48591DE3C19B)	-0.840	-1.393	0.183	0.122	27.954	-27.100	-66.96	-19.14	-118.93	-55.958	-57.722	-11.270	0.45541	-0.37500	0.47516	-0.65277	31.0	13111	100
2025-3-27 18:33:20.571	WT901BLE68-01(48591DE3C19B)	-0.866	-1.393	0.183	0.122	27.954	-27.100	-66.88	-18.98	-119.38	-55.958	-57.722	-11.270	0.45541	-0.37500	0.47516	-0.65277	31.0	13111	100
2025-3-27 18:33:20.571	WT901BLE68-01(48591DE3C19B)	-0.866	-1.467	0.272	-16.174	19.714	-2.197	-67.02	-18.64	-119.64	-55.958	-57.722	-11.270	0.45541	-0.37500	0.47516	-0.65277	31.0	13111	100
2025-3-27 18:33:20.571	WT901BLE68-01(48591DE3C19B)	-0.881	-1.467	0.272	-16.174	19.714	-2.197	-67.16	-18.30	-119.92	-55.958	-57.722	-11.270	0.45541	-0.37500	0.47516	-0.65277	31.0	13111	100
2025-3-27 18:33:20.600	WT901BLE68-01(48591DE3C19B)	-0.881	-1.419	0.350	-27.710	7.080	24.109	-67.48	-17.76	-119.96	-55.958	-57.722	-11.270	0.45541	-0.37500	0.47516	-0.65277	31.0	13111	100
2025-3-27 18:33:20.600	WT901BLE68-01(48591DE3C19B)	-0.860	-1.419	0.350	-27.710	7.080	24.109	-67.80	-17.23	-120.02	-55.958	-57.722	-11.270	0.45541	-0.37500	0.47516	-0.65277	31.0	13111	100
2025-3-27 18:33:20.600	WT901BLE68-01(48591DE3C19B)	-0.846	-1.186	0.364	-38.818	-9.521	52.368	-68.29	-16.50	-119.82	-55.958	-57.722	-11.270	0.45541	-0.37500	0.47516	-0.65277	31.0	13111	100
2025-3-27 18:33:20.600	WT901BLE68-01(48591DE3C19B)	-0.846	-1.045	0.318	-52.185	-36.682	81.787	-68.88	-15.68	-119.45	-55.958	-57.722	-11.270	0.45541	-0.37500	0.47516	-0.65277	31.0	13111	100
2025-3-27 18:33:20.661	WT901BLE68-01(48591DE3C19B)	-0.811	-1.045	0.318	-52.185	-36.682	81.787	-69.57	-14.77	-118.92	-55.958	-57.722	-11.270	0.45541	-0.37500	0.47516	-0.65277	31.0	13111	100
2025-3-27 18:33:20.661	WT901BLE68-01(48591DE3C19B)	-0.811	-0.981	0.265	-56.458	-73.608	114.746	-70.32	-13.75	-118.17	-55.958	-57.722	-11.270	0.45541	-0.37500	0.47516	-0.65277	31.0	13111	100
2025-3-27 18:33:20.661	WT901BLE68-01(48591DE3C19B)	-0.716	-0.981	0.265	-56.458	-73.608	114.746	-71.11	-12.65	-117.21	-55.958	-57.722	-11.270	0.45541	-0.37500	0.47516	-0.65277	31.0	13111	100
2025-3-27 18:33:20.661	WT901BLE68-01(48591DE3C19B)	-0.716	-0.898	0.187	-59.082	-115.295	150.818	-71.94	-11.43	-116.00	-55.958	-57.722	-11.270	0.45541	-0.37500	0.47516	-0.65277	31.0	13111	100
2025-3-27 18:33:20.693	WT901BLE68-01(48591DE3C19B)	-0.607	-0.898	0.187	-59.082	-115.295	150.818	-72.80	-10.08	-114.58	-55.958	-57.722	-11.270	0.45541	-0.37500	0.47516	-0.65277	31.0	13111	100
2025-3-27 18:33:20.693	WT901BLE68-01(48591DE3C19B)	-0.607	-0.969	0.107	-61.340	-148.926	186.707	-73.65	-8.59	-112.95	-55.958	-57.722	-11.270	0.45541	-0.37500	0.47516	-0.65277	31.0	13111	100
2025-3-27 18:33:20.693	WT901BLE68-01(48591DE3C19B)	-0.495	-0.969	0.107	-61.340	-148.926	186.707	-74.50	-6.97	-111.14	-55.958	-57.722	-11.270	0.45541	-0.37500	0.47516	-0.65277	31.0	13111	100
2025-3-27 18:33:20.693	WT901BLE68-01(48591DE3C19B)	-0.495	-1.166	0.066	-52.979	-167.542	213.989	-75.27	-5.21	-109.22	-55.958	-57.722	-11.270	0.45541	-0.37500	0.47516	-0.65277	31.0	13111	100
2025-3-27 18:33:20.723	WT901BLE68-01(48591DE3C19B)	-0.396	-1.166	0.066	-52.979	-167.542	213.989	-75.94	-3.34	-107.18	-55.958	-57.722	-11.270	0.45541	-0.37500	0.47516	-0.65277	31.0	13111	100
2025-3-27 18:33:20.723	WT901BLE68-01(48591DE3C19B)	-0.396	-1.337	0.080	-34.607	-173.767	232.117	-76.45	-1.38	-105.10	-55.958	-57.722	-11.270	0.45541	-0.37500	0.47516	-0.65277	31.0	13111	100
2025-3-27 18:33:20.723	WT901BLE68-01(48591DE3C19B)	-0.273	-1.337	0.080	-34.607	-173.767	232.117	-76.81	0.64	-102.97	-55.958	-57.722	-11.270	0.45541	-0.37500	0.47516	-0.65277	31.0	13111	100
2025-3-27 18:33:20.723	WT901BLE68-01(48591DE3C19B)	-0.273	-1.447	0.096	-10.376	-164.246	241.455	-76.98	2.73	-100.88	-55.958	-57.722	-11.270	0.51935	-0.38062	0.49265	-0.58533	31.0	13111	100
2025-3-27 18:33:20.753	WT901BLE68-01(48591DE3C19B)	-0.177	-1.447	0.096	-10.376	-164.246	241.455	-76.95	4.84	-98.82	-55.958	-57.722	-11.270	0.51935	-0.38062	0.49265	-0.58533	31.0	13111	100
2025-3-27 18:33:20.753	WT901BLE68-01(48591DE3C19B)	-0.177	-1.464	0.125	10.925	-137.573	244.568	-76.77	6.98	-96.86	-55.958	-57.722	-11.270	0.51935	-0.38062	0.49265	-0.58533	31.0	13111	100
2025-3-27 18:33:20.753	WT901BLE68-01(48591DE3C19B)	-0.139	-1.464	0.125	10.925	-137.573	244.568	-76.42	9.13	-95.02	-55.958	-57.722	-11.270	0.51935	-0.38062	0.49265	-0.58533	31.0	13111	100
2025-3-27 18:33:20.753	WT901BLE68-01(48591DE3C19B)	-0.139	-1.457	0.145	25.085	-100.403	242.126	-75.95	11.28	-93.33	-55.958	-57.722	-11.270	0.51935	-0.38062	0.49265	-0.58533	31.0	13111	100
2025-3-27 18:33:20.811	WT901BLE68-01(48591DE3C19B)	-0.148	-1.457	0.145	25.085	-100.403	242.126	-75.40	13.42	-91.80	-55.958	-57.722	-11.270	0.51935	-0.38062	0.49265	-0.58533	31.0	13111	100
2025-3-27 18:33:20.811	WT901BLE68-01(48591DE3C19B)	-0.148	-1.385	0.156	35.034	-60.364	238.403	-74.79	15.56	-90.44	-55.958	-57.722	-11.270	0.51935	-0.38062	0.49265	-0.58533	31.0	13111	100
2025-3-27 18:33:20.812	WT901BLE68-01(48591DE3C19B)	-0.176	-1.385	0.156	35.034	-60.364	238.403	-74.13	17.70	-89.25	-55.958	-57.722	-11.270	0.51935	-0.38062	0.49265	-0.58533	31.0	13111	100
2025-3-27 18:33:20.812	WT901BLE68-01(48591DE3C19B)	-0.176	-1.254	0.163	38.757	-26.123	233.704	-73.46	19.83	-88.21	-55.958	-57.722	-11.270	0.51935	-0.38062	0.49265	-0.58533	31.0	13111	100
2025-3-27 18:33:20.841	WT901BLE68-01(48591DE3C19B)	-0.183	-1.254	0.163	38.757	-26.123	233.704	-72.78	21.96	-87.31	-55.958	-57.722	-11.270	0.51935	-0.38062	0.49265	-0.58533	31.0	13111	100
2025-3-27 18:33:20.841	WT901BLE68-01(48591DE3C19B)	-0.183	-1.160	0.149	36.621	2.747	229.492	-72.14	24.09	-86.53	-55.958	-57.722	-11.270	0.51935	-0.38062	0.49265	-0.58533	31.0	13111	100
2025-3-27 18:33:20.841	WT901BLE68-01(48591DE3C19B)	-0.207	-1.160	0.149	36.621	2.747	229.492	-71.53	26.22	-85.87	-55.958	-57.722	-11.270	0.51935	-0.38062	0.49265	-0.58533	31.0	13111	100
2025-3-27 18:33:20.841	WT901BLE68-01(48591DE3C19B)	-0.207	-1.110	0.117	32.715	23.987	227.478	-70.96	28.35	-85.30	-55.958	-57.722	-11.270	0.51935	-0.38062	0.49265	-0.58533	31.0	13111	100
2025-3-27 18:33:20.870	WT901BLE68-01(48591DE3C19B)	-0.220	-1.110	0.117	32.715	23.987	227.478	-70.43	30.49	-84.81	-55.958	-57.722	-11.270	0.51935	-0.38062	0.49265	-0.58533	31.0	13111	100
2025-3-27 18:33:20.870	WT901BLE68-01(48591DE3C19B)	-0.220	-1.125	0.071	24.536	33.813	226.746	-69.94	32.62	-84.35	-55.958	-57.722	-11.270	0.51935	-0.38062	0.49265	-0.58533	31.0	13111	100
2025-3-27 18:33:20.870	WT901BLE68-01(48591DE3C19B)	-0.234	-1.125	0.071	24.536	33.813	226.746	-69.50	34.75	-83.91	-55.958	-57.722	-11.270	0.51935	-0.38062	0.49265	-0.58533	31.0	13111	100
2025-3-27 18:33:20.870	WT901BLE68-01(48591DE3C19B)	-0.234	-1.159	0.017	16.907	29.541	227.234	-69.05	36.86	-83.42	-55.958	-57.722	-11.270	0.51935	-0.38062	0.49265	-0.58533	31.0	13111	100
2025-3-27 18:33:20.962	WT901BLE68-01(48591DE3C19B)	-0.228	-1.159	0.017	16.907	29.541	227.234	-68.59	38.95	-82.88	-55.958	-57.722	-11.270	0.51935	-0.38062	0.49265	-0.58533	31.0	13111	100
2025-3-27 18:33:20.962	WT901BLE68-01(48591DE3C19B)	-0.228	-1.247	-0.017	6.592	16.052	227.661	-68.10	41.00	-82.22	-55.958	-57.722	-11.270	0.51935	-0.38062	0.49265	-0.58533	31.0	13111	100
2025-3-27 18:33:20.962	WT901BLE68-01(48591DE3C19B)	-0.204	-1.247	-0.017	6.592	16.052	227.661	-67.55	43.01	-81.43	-55.958	-57.722	-11.270	0.51935	-0.38062	0.49265	-0.58533	31.0	13111	100
2025-3-27 18:33:20.962	WT901BLE68-01(48591DE3C19B)	-0.204	-1.380	-0.019	-1.526	-3.540	223.267	-66.92	44.94	-80.48	-55.958	-57.722	-11.270	0.51935	-0.38062	0.49265	-0.58533	31.0	13111	100
2025-3-27 18:33:20.963	WT901BLE68-01(48591DE3C19B)	-0.167	-1.380	-0.019	-1.526	-3.540	223.267	-66.19	46.79	-79.36	-82.810	-28.812	-11.662	0.51935	-0.38062	0.49265	-0.58533	31.0	13111	100
2025-3-27 18:33:20.963	WT901BLE68-01(48591DE3C19B)	-0.167	-1.578	0.001	-6.470	-24.170	212.463	-65.33	48.53	-78.06	-82.810	-28.812	-11.662	0.51935	-0.38062	0.49265	-0.58533	31.0	13111	100
2025-3-27 18:33:20.963	WT901BLE68-01(48591DE3C19B)	-0.155	-1.578	0.001	-6.470	-24.170	212.463	-64.33	50.15	-76.58	-82.810	-28.812	-11.662	0.51935	-0.38062	0.49265	-0.58533	31.0	13111	100
2025-3-27 18:33:20.963	WT901BLE68-01(48591DE3C19B)	-0.155	-1.723	0.007	-2.869	-38.818	192.017	-63.20	51.62	-74.99	-82.810	-28.812	-11.662	0.51935	-0.38062	0.49265	-0.58533	31.0	13111	100
2025-3-27 18:33:21.21	WT901BLE68-01(48591DE3C19B)	-0.105	-1.723	0.007	-2.869	-38.818	192.017	-61.94	52.93	-73.27	-82.810	-28.812	-11.662	0.51935	-0.38062	0.49265	-0.58533	31.0	13111	100
2025-3-27 18:33:21.21	WT901BLE68-01(48591DE3C19B)	-0.105	-1.807	0.028	3.235	-52.856	157.532	-60.58	54.03	-71.52	-82.810	-28.812	-11.662	0.51935	-0.38062	0.49265	-0.58533	31.0	13111	100
2025-3-27 18:33:21.21	WT901BLE68-01(48591DE3C19B)	-0.014	-1.807	0.028	3.235	-52.856	157.532	-59.15	54.90	-69.72	-82.810	-28.812	-11.662	0.51935	-0.38062	0.49265	-0.58533	31.0	13111	100
2025-3-27 18:33:21.21	WT901BLE68-01(48591DE3C19B)	-0.014	-1.821	0.054	10.315	-54.749	111.877	-57.79	55.55	-68.07	-82.810	-28.812	-11.662	0.51935	-0.38062	0.49265	-0.58533	31.0	13111	100
2025-3-27 18:33:21.50	WT901BLE68-01(48591DE3C19B)	0.074	-1.821	0.054	10.315	-54.749	111.877	-56.52	55.97	-66.58	-82.810	-28.812	-11.662	0.51935	-0.38062	0.49265	-0.58533	31.0	13111	100
2025-3-27 18:33:21.51	WT901BLE68-01(48591DE3C19B)	0.074	-1.728	0.080	10.864	-43.274	62.988	-55.51	56.20	-65.41	-82.810	-28.812	-11.662	0.51935	-0.38062	0.49265	-0.58533	31.0	13111	100
2025-3-27 18:33:21.51	WT901BLE68-01(48591DE3C19B)	0.172	-1.728	0.080	10.864	-43.274	62.988	-54.78	56.24	-64.57	-82.810	-28.812	-11.662	0.51935	-0.38062	0.49265	-0.58533	31.0	13111	100
2025-3-27 18:33:21.51	WT901BLE68-01(48591DE3C19B)	0.172	-1.500	0.151	7.996	-19.409	11.597	-54.43	56.14	-64.17	-82.810	-28.812	-11.662	0.51935	-0.38062	0.49265	-0.58533	31.0	13111	100
2025-3-27 18:33:21.84	WT901BLE68-01(48591DE3C19B)	0.206	-1.500	0.151	7.996	-19.409	11.597	-54.46	55.89	-64.23	-82.810	-28.812	-11.662	0.51935	-0.38062	0.49265	-0.58533	31.0	13111	100
2025-3-27 18:33:21.84	WT901BLE68-01(48591DE3C19B)	0.206	-1.314	0.174	5.554	17.944	-39.246	-55.39	55.44	-65.33	-82.810	-28.812	-11.662	0.51935	-0.38062	0.49265	-0.58533	31.0	13111	100
2025-3-27 18:33:21.84	WT901BLE68-01(48591DE3C19B)	0.138	-1.314	0.174	5.554	17.944	-39.246	-56.29	54.97	-66.41	-82.810	-28.812	-11.662	0.51935	-0.38062	0.49265	-0.58533	31.0	13111	100
2025-3-27 18:33:21.84	WT901BLE68-01(48591DE3C19B)	0.138	-1.173	0.154	2.747	58.167	-89.478	-58.03	54.28	-68.50	-82.810	-28.812	-11.662	0.51935	-0.38062	0.49265	-0.58533	31.0	13111	100
2025-3-27 18:33:21.113	WT901BLE68-01(48591DE3C19B)	0.011	-1.173	0.154	2.747	58.167	-89.478	-59.69	53.56	-70.51	-82.810	-28.812	-11.662	0.51935	-0.38062	0.49265	-0.58533	31.0	13111	100
2025-3-27 18:33:21.114	WT901BLE68-01(48591DE3C19B)	0.011	-1.172	0.152	-2.930	81.299	-135.010	-61.88	52.52	-73.13	-82.810	-28.812	-11.662	0.51935	-0.38062	0.49265	-0.58533	31.0	13111	100
2025-3-27 18:33:21.114	WT901BLE68-01(48591DE3C19B)	-0.081	-1.172	0.152	-2.930	81.299	-135.010	-63.91	51.43	-75.61	-82.810	-28.812	-11.662	0.74469	-0.15109	0.58316	-0.28711	31.0	13111	100
2025-3-27 18:33:21.114	WT901BLE68-01(48591DE3C19B)	-0.081	-1.185	0.180	-0.122	88.379	-170.898	-66.04	49.99	-78.29	-82.810	-28.812	-11.662	0.74469	-0.15109	0.58316	-0.28711	31.0	13111	100
2025-3-27 18:33:21.170	WT901BLE68-01(48591DE3C19B)	-0.146	-1.185	0.180	-0.122	88.379	-170.898	-67.98	48.51	-80.79	-82.810	-28.812	-11.662	0.74469	-0.15109	0.58316	-0.28711	31.0	13111	100
2025-3-27 18:33:21.170	WT901BLE68-01(48591DE3C19B)	-0.146	-1.142	0.194	11.658	83.008	-194.092	-69.67	46.75	-83.18	-82.810	-28.812	-11.662	0.74469	-0.15109	0.58316	-0.28711	31.0	13111	100
2025-3-27 18:33:21.170	WT901BLE68-01(48591DE3C19B)	-0.166	-1.142	0.194	11.658	83.008	-194.092	-71.19	44.95	-85.41	-82.810	-28.812	-11.662	0.74469	-0.15109	0.58316	-0.28711	31.0	13111	100
2025-3-27 18:33:21.170	WT901BLE68-01(48591DE3C19B)	-0.166	-1.073	0.231	21.545	69.031	-207.031	-72.37	42.97	-87.37	-82.810	-28.812	-11.662	0.74469	-0.15109	0.58316	-0.28711	31.0	13111	100
2025-3-27 18:33:21.203	WT901BLE68-01(48591DE3C19B)	-0.182	-1.073	0.231	21.545	69.031	-207.031	-73.41	40.97	-89.20	-82.810	-28.812	-11.662	0.74469	-0.15109	0.58316	-0.28711	31.0	13111	100
2025-3-27 18:33:21.203	WT901BLE68-01(48591DE3C19B)	-0.182	-1.039	0.210	24.719	49.377	-214.417	-74.15	38.85	-90.71	-82.810	-28.812	-11.662	0.74469	-0.15109	0.58316	-0.28711	31.0	13111	100
2025-3-27 18:33:21.203	WT901BLE68-01(48591DE3C19B)	-0.182	-1.039	0.210	24.719	49.377	-214.417	-74.80	36.72	-92.14	-82.810	-28.812	-11.662	0.74469	-0.15109	0.58316	-0.28711	31.0	13111	100
2025-3-27 18:33:21.204	WT901BLE68-01(48591DE3C19B)	-0.182	-1.033	0.151	24.353	27.344	-222.900	-75.23	34.46	-93.26	-82.810	-28.812	-11.662	0.74469	-0.15109	0.58316	-0.28711	31.0	13111	100
2025-3-27 18:33:21.231	WT901BLE68-01(48591DE3C19B)	-0.155	-1.033	0.151	24.353	27.344	-222.900	-75.59	32.21	-94.32	-82.810	-28.812	-11.662	0.74469	-0.15109	0.58316	-0.28711	31.0	13111	100
2025-3-27 18:33:21.231	WT901BLE68-01(48591DE3C19B)	-0.155	-1.046	0.101	20.386	9.949	-237.366	-75.86	29.78	-95.19	-82.810	-28.812	-11.662	0.74469	-0.15109	0.58316	-0.28711	31.0	13111	100
2025-3-27 18:33:21.231	WT901BLE68-01(48591DE3C19B)	-0.146	-1.046	0.101	20.386	9.949	-237.366	-76.07	27.37	-96.02	-82.810	-28.812	-11.662	0.74469	-0.15109	0.58316	-0.28711	31.0	13111	100
2025-3-27 18:33:21.231	WT901BLE68-01(48591DE3C19B)	-0.146	-1.098	0.087	15.320	6.287	-253.479	-76.30	24.81	-96.81	-82.810	-28.812	-11.662	0.74469	-0.15109	0.58316	-0.28711	31.0	13111	100
2025-3-27 18:33:21.293	WT901BLE68-01(48591DE3C19B)	-0.223	-1.098	0.087	15.320	6.287	-253.479	-76.48	22.26	-97.58	-82.810	-28.812	-11.662	0.74469	-0.15109	0.58316	-0.28711	31.0	13111	100
2025-3-27 18:33:21.293	WT901BLE68-01(48591DE3C19B)	-0.223	-1.171	0.139	10.803	14.465	-271.301	-76.71	19.57	-98.44	-82.810	-28.812	-11.662	0.74469	-0.15109	0.58316	-0.28711	31.0	13111	100
2025-3-27 18:33:21.293	WT901BLE68-01(48591DE3C19B)	-0.365	-1.171	0.139	10.803	14.465	-271.301	-76.90	16.90	-99.28	-82.810	-28.812	-11.662	0.74469	-0.15109	0.58316	-0.28711	31.0	13111	100
2025-3-27 18:33:21.293	WT901BLE68-01(48591DE3C19B)	-0.365	-1.251	0.228	7.385	25.696	-288.208	-77.11	14.11	-100.25	-82.810	-28.812	-11.662	0.74469	-0.15109	0.58316	-0.28711	31.0	13111	100
2025-3-27 18:33:21.323	WT901BLE68-01(48591DE3C19B)	-0.527	-1.251	0.228	7.385	25.696	-288.208	-77.27	11.33	-101.19	-82.810	-28.812	-11.662	0.74469	-0.15109	0.58316	-0.28711	31.0	13111	100
2025-3-27 18:33:21.323	WT901BLE68-01(48591DE3C19B)	-0.527	-1.293	0.329	7.507	31.250	-294.922	-77.39	8.53	-102.18	-82.810	-28.812	-11.662	0.74469	-0.15109	0.58316	-0.28711	31.0	13111	100
2025-3-27 18:33:21.323	WT901BLE68-01(48591DE3C19B)	-0.567	-1.293	0.329	7.507	31.250	-294.922	-77.45	5.75	-103.16	-82.810	-28.812	-11.662	0.74469	-0.15109	0.58316	-0.28711	31.0	13111	100
2025-3-27 18:33:21.323	WT901BLE68-01(48591DE3C19B)	-0.567	-1.233	0.369	9.216	34.119	-292.969	-77.45	3.02	-104.16	-73.010	-40.572	-14.798	0.74469	-0.15109	0.58316	-0.28711	31.0	13111	100
2025-3-27 18:33:21.353	WT901BLE68-01(48591DE3C19B)	-0.552	-1.233	0.369	9.216	34.119	-292.969	-77.40	0.31	-105.16	-73.010	-40.572	-14.798	0.74469	-0.15109	0.58316	-0.28711	31.0	13111	100
2025-3-27 18:33:21.353	WT901BLE68-01(48591DE3C19B)	-0.552	-1.127	0.328	10.010	35.889	-281.982	-77.29	-2.26	-106.16	-73.010	-40.572	-14.798	0.74469	-0.15109	0.58316	-0.28711	31.0	13111	100
2025-3-27 18:33:21.353	WT901BLE68-01(48591DE3C19B)	-0.523	-1.127	0.328	10.010	35.889	-281.982	-77.13	-4.81	-107.16	-73.010	-40.572	-14.798	0.74469	-0.15109	0.58316	-0.28711	31.0	13111	100
2025-3-27 18:33:21.354	WT901BLE68-01(48591DE3C19B)	-0.523	-1.060	0.270	6.348	24.475	-267.212	-76.98	-7.22	-108.03	-73.010	-40.572	-14.798	0.74469	-0.15109	0.58316	-0.28711	31.0	13111	100
2025-3-27 18:33:21.411	WT901BLE68-01(48591DE3C19B)	-0.489	-1.060	0.270	6.348	24.475	-267.212	-76.79	-9.61	-108.92	-73.010	-40.572	-14.798	0.74469	-0.15109	0.58316	-0.28711	31.0	13111	100
2025-3-27 18:33:21.411	WT901BLE68-01(48591DE3C19B)	-0.489	-1.105	0.279	2.625	-0.793	-248.779	-76.66	-11.85	-109.52	-73.010	-40.572	-14.798	0.74469	-0.15109	0.58316	-0.28711	31.0	13111	100
2025-3-27 18:33:21.411	WT901BLE68-01(48591DE3C19B)	-0.494	-1.105	0.279	2.625	-0.793	-248.779	-76.50	-14.08	-110.14	-73.010	-40.572	-14.798	0.74469	-0.15109	0.58316	-0.28711	31.0	13111	100
2025-3-27 18:33:21.411	WT901BLE68-01(48591DE3C19B)	-0.494	-1.219	0.372	2.502	-18.005	-224.609	-76.37	-16.11	-110.54	-73.010	-40.572	-14.798	0.74469	-0.15109	0.58316	-0.28711	31.0	13111	100
2025-3-27 18:33:21.443	WT901BLE68-01(48591DE3C19B)	-0.560	-1.219	0.372	2.502	-18.005	-224.609	-76.22	-18.11	-110.96	-73.010	-40.572	-14.798	0.74469	-0.15109	0.58316	-0.28711	31.0	13111	100
2025-3-27 18:33:21.443	WT901BLE68-01(48591DE3C19B)	-0.560	-1.282	0.461	7.141	-18.799	-195.618	-76.04	-19.83	-111.32	-73.010	-40.572	-14.798	0.74469	-0.15109	0.58316	-0.28711	31.0	13111	100
2025-3-27 18:33:21.443	WT901BLE68-01(48591DE3C19B)	-0.597	-1.282	0.461	7.141	-18.799	-195.618	-75.83	-21.53	-111.69	-73.010	-40.572	-14.798	0.74469	-0.15109	0.58316	-0.28711	31.0	13111	100
2025-3-27 18:33:21.443	WT901BLE68-01(48591DE3C19B)	-0.597	-1.303	0.485	9.644	-10.376	-165.527	-75.59	-22.91	-112.08	-73.010	-40.572	-14.798	0.74469	-0.15109	0.58316	-0.28711	31.0	13111	100
2025-3-27 18:33:21.471	WT901BLE68-01(48591DE3C19B)	-0.551	-1.303	0.485	9.644	-10.376	-165.527	-75.32	-24.28	-112.49	-73.010	-40.572	-14.798	0.74469	-0.15109	0.58316	-0.28711	31.0	13111	100
2025-3-27 18:33:21.471	WT901BLE68-01(48591DE3C19B)	-0.551	-1.331	0.455	9.399	8.545	-138.855	-74.99	-25.33	-113.04	-73.010	-40.572	-14.798	0.74469	-0.15109	0.58316	-0.28711	31.0	13111	100
2025-3-27 18:33:21.471	WT901BLE68-01(48591DE3C19B)	-0.542	-1.331	0.455	9.399	8.545	-138.855	-74.64	-26.38	-113.62	-73.010	-40.572	-14.798	0.74469	-0.15109	0.58316	-0.28711	31.0	13111	100
2025-3-27 18:33:21.471	WT901BLE68-01(48591DE3C19B)	-0.542	-1.400	0.466	9.277	32.166	-111.206	-74.21	-27.09	-114.37	-73.010	-40.572	-14.798	0.74469	-0.15109	0.58316	-0.28711	31.0	13111	100
2025-3-27 18:33:21.531	WT901BLE68-01(48591DE3C19B)	-0.585	-1.400	0.466	9.277	32.166	-111.206	-73.76	-27.78	-115.14	-73.010	-40.572	-14.798	0.74469	-0.15109	0.58316	-0.28711	31.0	13111	100
2025-3-27 18:33:21.532	WT901BLE68-01(48591DE3C19B)	-0.612	-1.418	0.534	10.681	50.537	-82.458	-73.23	-28.15	-116.02	-73.010	-40.572	-14.798	0.74469	-0.15109	0.58316	-0.28711	31.0	13111	100
2025-3-27 18:33:21.532	WT901BLE68-01(48591DE3C19B)	-0.612	-1.330	0.595	10.132	66.345	-47.974	-72.70	-28.32	-116.95	-73.010	-40.572	-14.798	0.74469	-0.15109	0.58316	-0.28711	31.0	13111	100
2025-3-27 18:33:21.532	WT901BLE68-01(48591DE3C19B)	-0.631	-1.330	0.595	10.132	66.345	-47.974	-72.14	-28.29	-117.91	-73.010	-40.572	-14.798	0.74469	-0.15109	0.58316	-0.28711	31.0	13111	100
2025-3-27 18:33:21.560	WT901BLE68-01(48591DE3C19B)	-0.631	-1.127	0.549	6.653	81.177	-11.353	-71.59	-28.05	-118.88	-73.010	-40.572	-14.798	0.27795	-0.45779	0.38867	-0.74966	31.0	13111	100
2025-3-27 18:33:21.560	WT901BLE68-01(48591DE3C19B)	-0.674	-1.127	0.549	6.653	81.177	-11.353	-71.07	-27.61	-119.87	-73.010	-40.572	-14.798	0.27795	-0.45779	0.38867	-0.74966	31.0	13111	100
2025-3-27 18:33:21.560	WT901BLE68-01(48591DE3C19B)	-0.674	-0.944	0.462	-2.747	80.261	21.606	-70.61	-27.02	-120.79	-73.010	-40.572	-14.798	0.27795	-0.45779	0.38867	-0.74966	31.0	13111	100
2025-3-27 18:33:21.560	WT901BLE68-01(48591DE3C19B)	-0.709	-0.944	0.462	-2.747	80.261	21.606	-70.26	-26.25	-121.65	-73.010	-40.572	-14.798	0.27795	-0.45779	0.38867	-0.74966	31.0	13111	100
2025-3-27 18:33:21.621	WT901BLE68-01(48591DE3C19B)	-0.709	-0.839	0.377	-9.277	53.284	53.101	-70.03	-25.39	-122.29	-73.010	-40.572	-14.798	0.27795	-0.45779	0.38867	-0.74966	31.0	13111	100
2025-3-27 18:33:21.622	WT901BLE68-01(48591DE3C19B)	-0.735	-0.839	0.377	-9.277	53.284	53.101	-69.93	-24.42	-122.74	-73.010	-40.572	-14.798	0.27795	-0.45779	0.38867	-0.74966	31.0	13111	100
2025-3-27 18:33:21.622	WT901BLE68-01(48591DE3C19B)	-0.735	-0.742	0.298	-12.634	9.094	82.703	-69.96	-23.38	-122.92	-73.010	-40.572	-14.798	0.27795	-0.45779	0.38867	-0.74966	31.0	13111	100
2025-3-27 18:33:21.622	WT901BLE68-01(48591DE3C19B)	-0.736	-0.742	0.298	-12.634	9.094	82.703	-70.11	-22.29	-122.82	-73.010	-40.572	-14.798	0.27795	-0.45779	0.38867	-0.74966	31.0	13111	100
2025-3-27 18:33:21.684	WT901BLE68-01(48591DE3C19B)	-0.736	-0.736	0.186	-16.907	-37.292	111.694	-70.37	-21.13	-122.45	-73.010	-40.572	-14.798	0.27795	-0.45779	0.38867	-0.74966	31.0	13111	100
2025-3-27 18:33:21.684	WT901BLE68-01(48591DE3C19B)	-0.707	-0.736	0.186	-16.907	-37.292	111.694	-70.75	-19.92	-121.82	-73.010	-40.572	-14.798	0.27795	-0.45779	0.38867	-0.74966	31.0	13111	100
2025-3-27 18:33:21.685	WT901BLE68-01(48591DE3C19B)	-0.707	-0.825	0.089	-15.747	-76.233	135.620	-71.17	-18.65	-120.96	-73.010	-40.572	-14.798	0.27795	-0.45779	0.38867	-0.74966	31.0	13111	100
2025-3-27 18:33:21.685	WT901BLE68-01(48591DE3C19B)	-0.636	-0.825	0.089	-15.747	-76.233	135.620	-71.64	-17.32	-119.90	-73.010	-40.572	-14.798	0.27795	-0.45779	0.38867	-0.74966	31.0	13111	100
2025-3-27 18:33:21.685	WT901BLE68-01(48591DE3C19B)	-0.636	-0.938	0.055	-10.010	-106.262	156.128	-72.10	-15.94	-118.67	-73.010	-40.572	-14.798	0.27795	-0.45779	0.38867	-0.74966	31.0	13111	100
2025-3-27 18:33:21.685	WT901BLE68-01(48591DE3C19B)	-0.528	-0.938	0.055	-10.010	-106.262	156.128	-72.55	-14.50	-117.28	-73.010	-40.572	-14.798	0.27795	-0.45779	0.38867	-0.74966	31.0	13111	100
2025-3-27 18:33:21.685	WT901BLE68-01(48591DE3C19B)	-0.528	-1.072	0.066	-2.136	-124.512	172.729	-72.95	-13.00	-115.78	-73.010	-40.572	-14.798	0.27795	-0.45779	0.38867	-0.74966	31.0	13111	100
2025-3-27 18:33:21.685	WT901BLE68-01(48591DE3C19B)	-0.445	-1.072	0.066	-2.136	-124.512	172.729	-73.31	-11.45	-114.18	-73.010	-40.572	-14.798	0.27795	-0.45779	0.38867	-0.74966	31.0	13111	100
2025-3-27 18:33:21.741	WT901BLE68-01(48591DE3C19B)	-0.445	-1.227	0.076	5.920	-134.460	187.012	-73.59	-9.85	-112.52	-73.010	-40.572	-14.798	0.27795	-0.45779	0.38867	-0.74966	31.0	13111	100
2025-3-27 18:33:21.741	WT901BLE68-01(48591DE3C19B)	-0.342	-1.227	0.076	5.920	-134.460	187.012	-73.81	-8.20	-110.79	-73.010	-40.572	-14.798	0.27795	-0.45779	0.38867	-0.74966	31.0	13111	100
2025-3-27 18:33:21.742	WT901BLE68-01(48591DE3C19B)	-0.342	-1.342	0.081	19.226	-127.136	198.730	-73.92	-6.50	-109.08	-73.010	-40.572	-14.798	0.27795	-0.45779	0.38867	-0.74966	31.0	13111	100
2025-3-27 18:33:21.742	WT901BLE68-01(48591DE3C19B)	-0.281	-1.342	0.081	19.226	-127.136	198.730	-73.91	-4.75	-107.38	-73.010	-40.572	-14.798	0.27795	-0.45779	0.38867	-0.74966	31.0	13111	100
2025-3-27 18:33:21.770	WT901BLE68-01(48591DE3C19B)	-0.281	-1.372	0.100	30.090	-105.164	209.473	-73.80	-2.93	-105.77	-64.092	-47.628	-14.308	0.27795	-0.45779	0.38867	-0.74966	31.0	13111	100
2025-3-27 18:33:21.770	WT901BLE68-01(48591DE3C19B)	-0.236	-1.372	0.100	30.090	-105.164	209.473	-73.58	-1.05	-104.24	-64.092	-47.628	-14.308	0.27795	-0.45779	0.38867	-0.74966	31.0	13111	100
2025-3-27 18:33:21.770	WT901BLE68-01(48591DE3C19B)	-0.236	-1.365	0.095	35.706	-72.205	220.581	-73.28	0.89	-102.84	-64.092	-47.628	-14.308	0.27795	-0.45779	0.38867	-0.74966	31.0	13111	100
2025-3-27 18:33:21.770	WT901BLE68-01(48591DE3C19B)	-0.218	-1.365	0.095	35.706	-72.205	220.581	-72.93	2.91	-101.57	-64.092	-47.628	-14.308	0.27795	-0.45779	0.38867	-0.74966	31.0	13111	100
2025-3-27 18:33:21.801	WT901BLE68-01(48591DE3C19B)	-0.218	-1.292	0.082	37.292	-35.461	232.117	-72.53	5.01	-100.44	-64.092	-47.628	-14.308	0.27795	-0.45779	0.38867	-0.74966	31.0	13111	100
2025-3-27 18:33:21.801	WT901BLE68-01(48591DE3C19B)	-0.199	-1.292	0.082	37.292	-35.461	232.117	-72.10	7.20	-99.45	-64.092	-47.628	-14.308	0.27795	-0.45779	0.38867	-0.74966	31.0	13111	100
2025-3-27 18:33:21.801	WT901BLE68-01(48591DE3C19B)	-0.199	-1.218	0.103	32.227	-3.784	244.873	-71.69	9.46	-98.57	-64.092	-47.628	-14.308	0.27795	-0.45779	0.38867	-0.74966	31.0	13111	100
2025-3-27 18:33:21.801	WT901BLE68-01(48591DE3C19B)	-0.203	-1.218	0.103	32.227	-3.784	244.873	-71.28	11.82	-97.80	-64.092	-47.628	-14.308	0.27795	-0.45779	0.38867	-0.74966	31.0	13111	100
2025-3-27 18:33:21.861	WT901BLE68-01(48591DE3C19B)	-0.203	-1.182	0.103	24.536	20.264	255.249	-70.90	14.24	-97.11	-64.092	-47.628	-14.308	0.27795	-0.45779	0.38867	-0.74966	31.0	13111	100
2025-3-27 18:33:21.861	WT901BLE68-01(48591DE3C19B)	-0.219	-1.182	0.103	24.536	20.264	255.249	-70.55	16.72	-96.50	-64.092	-47.628	-14.308	0.27795	-0.45779	0.38867	-0.74966	31.0	13111	100
2025-3-27 18:33:21.861	WT901BLE68-01(48591DE3C19B)	-0.219	-1.116	0.078	15.869	38.208	263.000	-70.24	19.25	-95.95	-64.092	-47.628	-14.308	0.27795	-0.45779	0.38867	-0.74966	31.0	13111	100
2025-3-27 18:33:21.861	WT901BLE68-01(48591DE3C19B)	-0.275	-1.116	0.078	15.869	38.208	263.000	-69.97	21.82	-95.45	-64.092	-47.628	-14.308	0.27795	-0.45779	0.38867	-0.74966	31.0	13111	100
2025-3-27 18:33:21.890	WT901BLE68-01(48591DE3C19B)	-0.275	-1.130	0.071	1.282	38.452	267.395	-69.75	24.40	-94.93	-64.092	-47.628	-14.308	0.27795	-0.45779	0.38867	-0.74966	31.0	13111	100
2025-3-27 18:33:21.890	WT901BLE68-01(48591DE3C19B)	-0.337	-1.130	0.071	1.282	38.452	267.395	-69.56	26.98	-94.39	-64.092	-47.628	-14.308	0.27795	-0.45779	0.38867	-0.74966	31.0	13111	100
2025-3-27 18:33:21.890	WT901BLE68-01(48591DE3C19B)	-0.337	-1.248	0.063	-10.193	20.447	266.663	-69.36	29.51	-93.73	-64.092	-47.628	-14.308	0.27795	-0.45779	0.38867	-0.74966	31.0	13111	100
2025-3-27 18:33:21.890	WT901BLE68-01(48591DE3C19B)	-0.357	-1.248	0.063	-10.193	20.447	266.663	-69.12	31.99	-92.96	-64.092	-47.628	-14.308	0.27795	-0.45779	0.38867	-0.74966	31.0	13111	100
2025-3-27 18:33:21.921	WT901BLE68-01(48591DE3C19B)	-0.357	-1.365	0.074	-15.259	-6.592	260.620	-68.80	34.37	-92.01	-64.092	-47.628	-14.308	0.27795	-0.45779	0.38867	-0.74966	31.0	13111	100
2025-3-27 18:33:21.922	WT901BLE68-01(48591DE3C19B)	-0.383	-1.365	0.074	-15.259	-6.592	260.620	-68.36	36.66	-90.89	-64.092	-47.628	-14.308	0.27795	-0.45779	0.38867	-0.74966	31.0	13111	100
2025-3-27 18:33:21.922	WT901BLE68-01(48591DE3C19B)	-0.383	-1.607	0.096	-20.081	-38.879	250.732	-67.77	38.82	-89.55	-64.092	-47.628	-14.308	0.27795	-0.45779	0.38867	-0.74966	31.0	13111	100
2025-3-27 18:33:21.922	WT901BLE68-01(48591DE3C19B)	-0.281	-1.607	0.096	-20.081	-38.879	250.732	-67.02	40.85	-87.98	-64.092	-47.628	-14.308	0.27795	-0.45779	0.38867	-0.74966	31.0	13111	100
2025-3-27 18:33:21.983	WT901BLE68-01(48591DE3C19B)	-0.281	-2.011	0.057	-19.897	-72.205	227.661	-66.09	42.68	-86.19	-64.092	-47.628	-14.308	0.27795	-0.45779	0.38867	-0.74966	31.0	13111	100
2025-3-27 18:33:21.984	WT901BLE68-01(48591DE3C19B)	-0.023	-2.011	0.057	-19.897	-72.205	227.661	-64.96	44.29	-84.17	-64.092	-47.628	-14.308	0.72031	-0.15268	0.56909	-0.36588	31.0	13111	100
2025-3-27 18:33:21.984	WT901BLE68-01(48591DE3C19B)	-0.023	-2.243	-0.016	-0.549	-79.407	205.261	-63.65	45.75	-82.09	-64.092	-47.628	-14.308	0.72031	-0.15268	0.56909	-0.36588	31.0	13111	100
2025-3-27 18:33:21.984	WT901BLE68-01(48591DE3C19B)	0.219	-2.243	-0.016	-0.549	-79.407	205.261	-62.17	47.03	-79.94	-64.092	-47.628	-14.308	0.72031	-0.15268	0.56909	-0.36588	31.0	13111	100
2025-3-27 18:33:22.11	WT901BLE68-01(48591DE3C19B)	0.219	-2.142	-0.025	10.254	-69.702	170.105	-60.69	48.14	-77.90	-64.092	-47.628	-14.308	0.72031	-0.15268	0.56909	-0.36588	31.0	13111	100
2025-3-27 18:33:22.11	WT901BLE68-01(48591DE3C19B)	0.454	-2.142	-0.025	10.254	-69.702	170.105	-59.24	49.06	-75.99	-64.092	-47.628	-14.308	0.72031	-0.15268	0.56909	-0.36588	31.0	13111	100
2025-3-27 18:33:22.11	WT901BLE68-01(48591DE3C19B)	0.454	-2.118	0.103	17.456	-38.025	126.404	-58.24	49.74	-74.78	-64.092	-47.628	-14.308	0.72031	-0.15268	0.56909	-0.36588	31.0	13111	100
2025-3-27 18:33:22.11	WT901BLE68-01(48591DE3C19B)	0.440	-2.118	0.103	17.456	-38.025	126.404	-57.22	50.38	-73.55	-64.092	-47.628	-14.308	0.72031	-0.15268	0.56909	-0.36588	31.0	13111	100
2025-3-27 18:33:22.41	WT901BLE68-01(48591DE3C19B)	0.440	-1.762	0.245	11.963	7.690	81.116	-56.99	50.87	-73.31	-64.092	-47.628	-14.308	0.72031	-0.15268	0.56909	-0.36588	31.0	13111	100
2025-3-27 18:33:22.41	WT901BLE68-01(48591DE3C19B)	0.525	-1.762	0.245	11.963	7.690	81.116	-56.76	51.34	-73.05	-64.092	-47.628	-14.308	0.72031	-0.15268	0.56909	-0.36588	31.0	13111	100
2025-3-27 18:33:22.41	WT901BLE68-01(48591DE3C19B)	0.525	-1.403	0.330	5.615	55.054	26.306	-57.46	51.61	-73.92	-64.092	-47.628	-14.308	0.72031	-0.15268	0.56909	-0.36588	31.0	13111	100
2025-3-27 18:33:22.41	WT901BLE68-01(48591DE3C19B)	0.590	-1.403	0.330	5.615	55.054	26.306	-58.18	51.86	-74.79	-64.092	-47.628	-14.308	0.72031	-0.15268	0.56909	-0.36588	31.0	13111	100
2025-3-27 18:33:22.103	WT901BLE68-01(48591DE3C19B)	0.590	-1.148	0.252	5.005	111.267	-26.428	-59.85	51.93	-76.89	-64.092	-47.628	-14.308	0.72031	-0.15268	0.56909	-0.36588	31.0	13111	100
2025-3-27 18:33:22.104	WT901BLE68-01(48591DE3C19B)	0.574	-1.148	0.252	5.005	111.267	-26.428	-61.52	51.94	-78.99	-64.092	-47.628	-14.308	0.72031	-0.15268	0.56909	-0.36588	31.0	13111	100
2025-3-27 18:33:22.104	WT901BLE68-01(48591DE3C19B)	0.574	-1.071	0.140	-1.099	144.836	-83.313	-63.94	51.56	-81.98	-64.092	-47.628	-14.308	0.72031	-0.15268	0.56909	-0.36588	31.0	13111	100
2025-3-27 18:33:22.104	WT901BLE68-01(48591DE3C19B)	0.384	-1.071	0.140	-1.099	144.836	-83.313	-66.29	51.09	-84.90	-64.092	-47.628	-14.308	0.72031	-0.15268	0.56909	-0.36588	31.0	13111	100
2025-3-27 18:33:22.133	WT901BLE68-01(48591DE3C19B)	0.384	-1.149	0.067	-5.798	155.151	-130.310	-68.92	50.14	-88.15	-64.092	-47.628	-14.308	0.72031	-0.15268	0.56909	-0.36588	31.0	13111	100
2025-3-27 18:33:22.133	WT901BLE68-01(48591DE3C19B)	0.083	-1.149	0.067	-5.798	155.151	-130.310	-71.39	49.11	-91.26	-64.092	-47.628	-14.308	0.72031	-0.15268	0.56909	-0.36588	31.0	13111	100
2025-3-27 18:33:22.133	WT901BLE68-01(48591DE3C19B)	0.083	-1.237	0.043	-3.296	135.193	-162.842	-73.58	47.63	-94.08	-64.092	-47.628	-14.308	0.72031	-0.15268	0.56909	-0.36588	31.0	13111	100
2025-3-27 18:33:22.133	WT901BLE68-01(48591DE3C19B)	-0.159	-1.237	0.043	-3.296	135.193	-162.842	-75.58	46.10	-96.72	-67.620	-40.278	-13.916	0.72031	-0.15268	0.56909	-0.36588	31.0	13111	100
2025-3-27 18:33:22.163	WT901BLE68-01(48591DE3C19B)	-0.159	-1.267	0.051	7.874	84.229	-186.584	-76.87	44.18	-98.59	-67.620	-40.278	-13.916	0.72031	-0.15268	0.56909	-0.36588	31.0	13111	100
2025-3-27 18:33:22.163	WT901BLE68-01(48591DE3C19B)	-0.280	-1.267	0.051	7.874	84.229	-186.584	-78.01	42.25	-100.34	-67.620	-40.278	-13.916	0.72031	-0.15268	0.56909	-0.36588	31.0	13111	100
2025-3-27 18:33:22.163	WT901BLE68-01(48591DE3C19B)	-0.280	-1.262	0.072	24.231	27.466	-199.646	-78.43	40.08	-101.28	-67.620	-40.278	-13.916	0.72031	-0.15268	0.56909	-0.36588	31.0	13111	100
2025-3-27 18:33:22.163	WT901BLE68-01(48591DE3C19B)	-0.340	-1.262	0.072	24.231	27.466	-199.646	-78.78	37.92	-102.17	-67.620	-40.278	-13.916	0.72031	-0.15268	0.56909	-0.36588	31.0	13111	100
2025-3-27 18:33:22.221	WT901BLE68-01(48591DE3C19B)	-0.340	-1.198	0.112	34.424	-28.259	-211.060	-78.60	35.57	-102.38	-67.620	-40.278	-13.916	0.72031	-0.15268	0.56909	-0.36588	31.0	13111	100
2025-3-27 18:33:22.221	WT901BLE68-01(48591DE3C19B)	-0.316	-1.198	0.112	34.424	-28.259	-211.060	-78.41	33.24	-102.58	-67.620	-40.278	-13.916	0.72031	-0.15268	0.56909	-0.36588	31.0	13111	100
2025-3-27 18:33:22.222	WT901BLE68-01(48591DE3C19B)	-0.316	-1.120	0.096	30.457	-82.336	-218.079	-77.93	30.76	-102.20	-67.620	-40.278	-13.916	0.72031	-0.15268	0.56909	-0.36588	31.0	13111	100
2025-3-27 18:33:22.222	WT901BLE68-01(48591DE3C19B)	-0.186	-1.120	0.096	30.457	-82.336	-218.079	-77.49	28.30	-101.84	-67.620	-40.278	-13.916	0.72031	-0.15268	0.56909	-0.36588	31.0	13111	100
2025-3-27 18:33:22.251	WT901BLE68-01(48591DE3C19B)	-0.186	-1.064	0.088	20.691	-97.717	-224.731	-77.11	25.75	-101.37	-67.620	-40.278	-13.916	0.72031	-0.15268	0.56909	-0.36588	31.0	13111	100
2025-3-27 18:33:22.251	WT901BLE68-01(48591DE3C19B)	-0.056	-1.064	0.088	20.691	-97.717	-224.731	-76.76	23.22	-100.92	-67.620	-40.278	-13.916	0.72031	-0.15268	0.56909	-0.36588	31.0	13111	100
2025-3-27 18:33:22.252	WT901BLE68-01(48591DE3C19B)	-0.056	-1.027	0.111	8.789	-63.538	-234.802	-76.70	20.68	-100.88	-67.620	-40.278	-13.916	0.72031	-0.15268	0.56909	-0.36588	31.0	13111	100
2025-3-27 18:33:22.252	WT901BLE68-01(48591DE3C19B)	-0.003	-1.027	0.111	8.789	-63.538	-234.802	-76.65	18.16	-100.83	-67.620	-40.278	-13.916	0.72031	-0.15268	0.56909	-0.36588	31.0	13111	100
2025-3-27 18:33:22.284	WT901BLE68-01(48591DE3C19B)	-0.003	-1.041	0.151	-3.784	-0.427	-247.070	-76.90	15.68	-101.45	-67.620	-40.278	-13.916	0.72031	-0.15268	0.56909	-0.36588	31.0	13111	100
2025-3-27 18:33:22.284	WT901BLE68-01(48591DE3C19B)	-0.054	-1.041	0.151	-3.784	-0.427	-247.070	-77.14	13.21	-102.05	-67.620	-40.278	-13.916	0.72031	-0.15268	0.56909	-0.36588	31.0	13111	100
2025-3-27 18:33:22.284	WT901BLE68-01(48591DE3C19B)	-0.054	-1.125	0.209	-9.705	67.749	-256.836	-77.54	10.80	-103.33	-67.620	-40.278	-13.916	0.72031	-0.15268	0.56909	-0.36588	31.0	13111	100
2025-3-27 18:33:22.284	WT901BLE68-01(48591DE3C19B)	-0.243	-1.125	0.209	-9.705	67.749	-256.836	-77.88	8.40	-104.57	-67.620	-40.278	-13.916	0.72031	-0.15268	0.56909	-0.36588	31.0	13111	100
2025-3-27 18:33:22.341	WT901BLE68-01(48591DE3C19B)	-0.243	-1.236	0.241	-7.629	112.854	-261.047	-78.19	6.06	-106.25	-67.620	-40.278	-13.916	0.72031	-0.15268	0.56909	-0.36588	31.0	13111	100
2025-3-27 18:33:22.342	WT901BLE68-01(48591DE3C19B)	-0.442	-1.236	0.241	-7.629	112.854	-261.047	-78.44	3.73	-107.90	-67.620	-40.278	-13.916	0.72031	-0.15268	0.56909	-0.36588	31.0	13111	100
2025-3-27 18:33:22.342	WT901BLE68-01(48591DE3C19B)	-0.442	-1.280	0.258	1.587	125.671	-260.193	-78.52	1.46	-109.65	-67.620	-40.278	-13.916	0.72031	-0.15268	0.56909	-0.36588	31.0	13111	100
2025-3-27 18:33:22.342	WT901BLE68-01(48591DE3C19B)	-0.622	-1.280	0.258	1.587	125.671	-260.193	-78.54	-0.80	-111.40	-67.620	-40.278	-13.916	0.72031	-0.15268	0.56909	-0.36588	31.0	13111	100
2025-3-27 18:33:22.371	WT901BLE68-01(48591DE3C19B)	-0.622	-1.297	0.243	11.597	108.887	-254.395	-78.39	-3.00	-112.97	-67.620	-40.278	-13.916	0.41394	-0.36575	0.51547	-0.65503	31.0	13111	100
2025-3-27 18:33:22.371	WT901BLE68-01(48591DE3C19B)	-0.729	-1.297	0.243	11.597	108.887	-254.395	-78.18	-5.18	-114.54	-67.620	-40.278	-13.916	0.41394	-0.36575	0.51547	-0.65503	31.0	13111	100
2025-3-27 18:33:22.371	WT901BLE68-01(48591DE3C19B)	-0.729	-1.283	0.206	20.569	70.190	-243.896	-77.86	-7.30	-115.74	-67.620	-40.278	-13.916	0.41394	-0.36575	0.51547	-0.65503	31.0	13111	100
2025-3-27 18:33:22.371	WT901BLE68-01(48591DE3C19B)	-0.742	-1.283	0.206	20.569	70.190	-243.896	-77.50	-9.39	-116.94	-67.620	-40.278	-13.916	0.41394	-0.36575	0.51547	-0.65503	31.0	13111	100
2025-3-27 18:33:22.400	WT901BLE68-01(48591DE3C19B)	-0.742	-1.266	0.234	25.208	26.001	-224.792	-77.14	-11.37	-117.70	-67.620	-40.278	-13.916	0.41394	-0.36575	0.51547	-0.65503	31.0	13111	100
2025-3-27 18:33:22.401	WT901BLE68-01(48591DE3C19B)	-0.677	-1.266	0.234	25.208	26.001	-224.792	-76.74	-13.32	-118.48	-67.620	-40.278	-13.916	0.41394	-0.36575	0.51547	-0.65503	31.0	13111	100
2025-3-27 18:33:22.401	WT901BLE68-01(48591DE3C19B)	-0.677	-1.270	0.263	25.452	-2.747	-203.491	-76.40	-15.11	-118.93	-67.620	-40.278	-13.916	0.41394	-0.36575	0.51547	-0.65503	31.0	13111	100
2025-3-27 18:33:22.401	WT901BLE68-01(48591DE3C19B)	-0.563	-1.270	0.263	25.452	-2.747	-203.491	-76.04	-16.88	-119.42	-67.620	-40.278	-13.916	0.41394	-0.36575	0.51547	-0.65503	31.0	13111	100
2025-3-27 18:33:22.461	WT901BLE68-01(48591DE3C19B)	-0.563	-1.275	0.280	20.630	-5.005	-181.946	-75.72	-18.42	-119.84	-67.620	-40.278	-13.916	0.41394	-0.36575	0.51547	-0.65503	31.0	13111	100
2025-3-27 18:33:22.461	WT901BLE68-01(48591DE3C19B)	-0.590	-1.275	0.280	20.630	-5.005	-181.946	-75.40	-19.96	-120.28	-67.620	-40.278	-13.916	0.41394	-0.36575	0.51547	-0.65503	31.0	13111	100
2025-3-27 18:33:22.461	WT901BLE68-01(48591DE3C19B)	-0.721	-1.376	0.333	12.268	14.038	-156.372	-75.10	-21.19	-120.86	-67.620	-40.278	-13.916	0.41394	-0.36575	0.51547	-0.65503	31.0	13111	100
2025-3-27 18:33:22.461	WT901BLE68-01(48591DE3C19B)	-0.721	-1.422	0.426	12.146	36.011	-134.521	-74.75	-22.27	-121.54	-67.620	-40.278	-13.916	0.41394	-0.36575	0.51547	-0.65503	31.0	13111	100
2025-3-27 18:33:22.490	WT901BLE68-01(48591DE3C19B)	-0.813	-1.422	0.426	12.146	36.011	-134.521	-74.34	-23.21	-122.33	-67.620	-40.278	-13.916	0.41394	-0.36575	0.51547	-0.65503	31.0	13111	100
2025-3-27 18:33:22.490	WT901BLE68-01(48591DE3C19B)	-0.813	-1.347	0.479	7.080	42.236	-106.873	-73.95	-23.99	-123.12	-67.620	-40.278	-13.916	0.41394	-0.36575	0.51547	-0.65503	31.0	13111	100
2025-3-27 18:33:22.490	WT901BLE68-01(48591DE3C19B)	-0.823	-1.347	0.479	7.080	42.236	-106.873	-73.56	-24.63	-123.93	-67.620	-40.278	-13.916	0.41394	-0.36575	0.51547	-0.65503	31.0	13111	100
2025-3-27 18:33:22.490	WT901BLE68-01(48591DE3C19B)	-0.823	-1.227	0.437	1.343	34.607	-73.914	-73.23	-25.10	-124.65	-67.620	-40.278	-13.916	0.41394	-0.36575	0.51547	-0.65503	31.0	13111	100
2025-3-27 18:33:22.523	WT901BLE68-01(48591DE3C19B)	-0.787	-1.227	0.437	1.343	34.607	-73.914	-72.96	-25.41	-125.30	-67.620	-40.278	-13.916	0.41394	-0.36575	0.51547	-0.65503	31.0	13111	100
2025-3-27 18:33:22.523	WT901BLE68-01(48591DE3C19B)	-0.787	-1.041	0.386	-4.578	16.357	-38.086	-72.77	-25.57	-125.80	-67.620	-40.278	-13.916	0.41394	-0.36575	0.51547	-0.65503	31.0	13111	100
2025-3-27 18:33:22.523	WT901BLE68-01(48591DE3C19B)	-0.745	-1.041	0.386	-4.578	16.357	-38.086	-72.67	-25.59	-126.17	-67.620	-40.278	-13.916	0.41394	-0.36575	0.51547	-0.65503	31.0	13111	100
2025-3-27 18:33:22.524	WT901BLE68-01(48591DE3C19B)	-0.745	-0.906	0.391	-13.550	-4.883	-2.319	-72.69	-25.46	-126.36	-67.620	-40.278	-13.916	0.41394	-0.36575	0.51547	-0.65503	31.0	13111	100
2025-3-27 18:33:22.583	WT901BLE68-01(48591DE3C19B)	-0.707	-0.906	0.391	-13.550	-4.883	-2.319	-72.81	-25.18	-126.40	-67.620	-40.278	-13.916	0.41394	-0.36575	0.51547	-0.65503	31.0	13111	100
2025-3-27 18:33:22.584	WT901BLE68-01(48591DE3C19B)	-0.707	-0.899	0.399	-18.677	-25.513	33.386	-73.02	-24.77	-126.29	-44.100	-43.316	-12.936	0.41394	-0.36575	0.51547	-0.65503	31.0	13111	100
2025-3-27 18:33:22.584	WT901BLE68-01(48591DE3C19B)	-0.677	-0.899	0.399	-18.677	-25.513	33.386	-73.31	-24.21	-126.02	-44.100	-43.316	-12.936	0.41394	-0.36575	0.51547	-0.65503	31.0	13111	100
2025-3-27 18:33:22.584	WT901BLE68-01(48591DE3C19B)	-0.677	-0.849	0.367	-13.367	-44.067	64.026	-73.62	-23.54	-125.62	-44.100	-43.316	-12.936	0.41394	-0.36575	0.51547	-0.65503	31.0	13111	100
2025-3-27 18:33:22.611	WT901BLE68-01(48591DE3C19B)	-0.628	-0.849	0.367	-13.367	-44.067	64.026	-73.94	-22.74	-125.08	-44.100	-43.316	-12.936	0.41394	-0.36575	0.51547	-0.65503	31.0	13111	100
2025-3-27 18:33:22.612	WT901BLE68-01(48591DE3C19B)	-0.628	-0.810	0.317	-10.620	-59.570	91.614	-74.28	-21.84	-124.45	-44.100	-43.316	-12.936	0.41394	-0.36575	0.51547	-0.65503	31.0	13111	100
2025-3-27 18:33:22.612	WT901BLE68-01(48591DE3C19B)	-0.626	-0.810	0.317	-10.620	-59.570	91.614	-74.63	-20.81	-123.70	-44.100	-43.316	-12.936	0.41394	-0.36575	0.51547	-0.65503	31.0	13111	100
2025-3-27 18:33:22.612	WT901BLE68-01(48591DE3C19B)	-0.626	-0.951	0.255	-7.751	-72.021	116.699	-74.98	-19.69	-122.88	-44.100	-43.316	-12.936	0.41394	-0.36575	0.51547	-0.65503	31.0	13111	100
2025-3-27 18:33:22.640	WT901BLE68-01(48591DE3C19B)	-0.628	-0.951	0.255	-7.751	-72.021	116.699	-75.32	-18.46	-121.96	-44.100	-43.316	-12.936	0.41394	-0.36575	0.51547	-0.65503	31.0	13111	100
2025-3-27 18:33:22.641	WT901BLE68-01(48591DE3C19B)	-0.628	-1.110	0.212	2.441	-86.365	139.038	-75.62	-17.14	-120.96	-44.100	-43.316	-12.936	0.41394	-0.36575	0.51547	-0.65503	31.0	13111	100
2025-3-27 18:33:22.641	WT901BLE68-01(48591DE3C19B)	-0.573	-1.110	0.212	2.441	-86.365	139.038	-75.87	-15.74	-119.87	-44.100	-43.316	-12.936	0.41394	-0.36575	0.51547	-0.65503	31.0	13111	100
2025-3-27 18:33:22.641	WT901BLE68-01(48591DE3C19B)	-0.573	-1.250	0.180	11.963	-101.929	158.569	-76.07	-14.26	-118.69	-44.100	-43.316	-12.936	0.41394	-0.36575	0.51547	-0.65503	31.0	13111	100
2025-3-27 18:33:22.701	WT901BLE68-01(48591DE3C19B)	-0.495	-1.250	0.180	11.963	-101.929	158.569	-76.23	-12.71	-117.40	-44.100	-43.316	-12.936	0.41394	-0.36575	0.51547	-0.65503	31.0	13111	100
2025-3-27 18:33:22.701	WT901BLE68-01(48591DE3C19B)	-0.495	-1.432	0.145	20.874	-111.877	175.232	-76.33	-11.11	-116.04	-44.100	-43.316	-12.936	0.41394	-0.36575	0.51547	-0.65503	31.0	13111	100
2025-3-27 18:33:22.701	WT901BLE68-01(48591DE3C19B)	-0.424	-1.432	0.145	20.874	-111.877	175.232	-76.35	-9.44	-114.62	-44.100	-43.316	-12.936	0.41394	-0.36575	0.51547	-0.65503	31.0	13111	100
2025-3-27 18:33:22.701	WT901BLE68-01(48591DE3C19B)	-0.424	-1.569	0.134	33.997	-113.586	191.406	-76.29	-7.72	-113.16	-44.100	-43.316	-12.936	0.41394	-0.36575	0.51547	-0.65503	31.0	13111	100
2025-3-27 18:33:22.731	WT901BLE68-01(48591DE3C19B)	-0.318	-1.569	0.134	33.997	-113.586	191.406	-76.13	-5.94	-111.68	-44.100	-43.316	-12.936	0.41394	-0.36575	0.51547	-0.65503	31.0	13111	100
2025-3-27 18:33:22.731	WT901BLE68-01(48591DE3C19B)	-0.318	-1.601	0.144	46.021	-103.821	205.505	-75.87	-4.10	-110.20	-44.100	-43.316	-12.936	0.41394	-0.36575	0.51547	-0.65503	31.0	13111	100
2025-3-27 18:33:22.731	WT901BLE68-01(48591DE3C19B)	-0.216	-1.601	0.144	46.021	-103.821	205.505	-75.50	-2.21	-108.75	-44.100	-43.316	-12.936	0.41394	-0.36575	0.51547	-0.65503	31.0	13111	100
2025-3-27 18:33:22.731	WT901BLE68-01(48591DE3C19B)	-0.216	-1.568	0.137	53.833	-79.468	220.764	-75.05	-0.25	-107.37	-44.100	-43.316	-12.936	0.41394	-0.36575	0.51547	-0.65503	31.0	13111	100
2025-3-27 18:33:22.761	WT901BLE68-01(48591DE3C19B)	-0.151	-1.568	0.137	53.833	-79.468	220.764	-74.53	1.79	-106.08	-44.100	-43.316	-12.936	0.41394	-0.36575	0.51547	-0.65503	31.0	13111	100
2025-3-27 18:33:22.761	WT901BLE68-01(48591DE3C19B)	-0.151	-1.415	0.128	57.800	-43.274	234.436	-73.94	3.91	-104.91	-44.100	-43.316	-12.936	0.41394	-0.36575	0.51547	-0.65503	31.0	13111	100
2025-3-27 18:33:22.761	WT901BLE68-01(48591DE3C19B)	-0.155	-1.415	0.128	57.800	-43.274	234.436	-73.32	6.11	-103.88	-44.100	-43.316	-12.936	0.51889	-0.33386	0.49576	-0.61105	31.0	13111	100
2025-3-27 18:33:22.761	WT901BLE68-01(48591DE3C19B)	-0.155	-1.220	0.118	53.772	-8.423	249.023	-72.69	8.40	-102.95	-44.100	-43.316	-12.936	0.51889	-0.33386	0.49576	-0.61105	31.0	13111	100
2025-3-27 18:33:22.821	WT901BLE68-01(48591DE3C19B)	-0.167	-1.220	0.118	53.772	-8.423	249.023	-72.07	10.78	-102.15	-44.100	-43.316	-12.936	0.51889	-0.33386	0.49576	-0.61105	31.0	13111	100
2025-3-27 18:33:22.821	WT901BLE68-01(48591DE3C19B)	-0.167	-1.073	0.100	46.631	18.738	262.695	-71.47	13.25	-101.41	-44.100	-43.316	-12.936	0.51889	-0.33386	0.49576	-0.61105	31.0	13111	100
2025-3-27 18:33:22.822	WT901BLE68-01(48591DE3C19B)	-0.196	-1.073	0.100	46.631	18.738	262.695	-70.90	15.80	-100.76	-44.100	-43.316	-12.936	0.51889	-0.33386	0.49576	-0.61105	31.0	13111	100
2025-3-27 18:33:22.822	WT901BLE68-01(48591DE3C19B)	-0.196	-1.002	0.064	36.865	35.156	274.902	-70.36	18.40	-100.12	-44.100	-43.316	-12.936	0.51889	-0.33386	0.49576	-0.61105	31.0	13111	100
2025-3-27 18:33:22.851	WT901BLE68-01(48591DE3C19B)	-0.233	-1.002	0.064	36.865	35.156	274.902	-69.86	21.07	-99.52	-44.100	-43.316	-12.936	0.51889	-0.33386	0.49576	-0.61105	31.0	13111	100
2025-3-27 18:33:22.851	WT901BLE68-01(48591DE3C19B)	-0.233	-1.032	0.011	25.208	35.645	283.508	-69.37	23.76	-98.86	-44.100	-43.316	-12.936	0.51889	-0.33386	0.49576	-0.61105	31.0	13111	100
2025-3-27 18:33:22.851	WT901BLE68-01(48591DE3C19B)	-0.238	-1.032	0.011	25.208	35.645	283.508	-68.90	26.47	-98.15	-44.100	-43.316	-12.936	0.51889	-0.33386	0.49576	-0.61105	31.0	13111	100
2025-3-27 18:33:22.851	WT901BLE68-01(48591DE3C19B)	-0.238	-1.135	-0.041	13.733	26.306	284.363	-68.41	29.14	-97.34	-44.100	-43.316	-12.936	0.51889	-0.33386	0.49576	-0.61105	31.0	13111	100
2025-3-27 18:33:22.883	WT901BLE68-01(48591DE3C19B)	-0.263	-1.135	-0.041	13.733	26.306	284.363	-67.91	31.77	-96.43	-44.100	-43.316	-12.936	0.51889	-0.33386	0.49576	-0.61105	31.0	13111	100
2025-3-27 18:33:22.883	WT901BLE68-01(48591DE3C19B)	-0.263	-1.271	-0.065	4.700	7.202	279.480	-67.34	34.33	-95.38	-44.100	-43.316	-12.936	0.51889	-0.33386	0.49576	-0.61105	31.0	13111	100
2025-3-27 18:33:22.883	WT901BLE68-01(48591DE3C19B)	-0.300	-1.271	-0.065	4.700	7.202	279.480	-66.70	36.79	-94.16	-44.100	-43.316	-12.936	0.51889	-0.33386	0.49576	-0.61105	31.0	13111	100
2025-3-27 18:33:22.883	WT901BLE68-01(48591DE3C19B)	-0.300	-1.424	-0.045	0.000	-18.005	267.883	-65.92	39.13	-92.75	-44.100	-43.316	-12.936	0.51889	-0.33386	0.49576	-0.61105	31.0	13111	100
2025-3-27 18:33:22.941	WT901BLE68-01(48591DE3C19B)	-0.314	-1.424	-0.045	0.000	-18.005	267.883	-65.00	41.33	-91.13	-44.100	-43.316	-12.936	0.51889	-0.33386	0.49576	-0.61105	31.0	13111	100
2025-3-27 18:33:22.941	WT901BLE68-01(48591DE3C19B)	-0.314	-1.569	-0.004	0.244	-43.884	251.526	-63.83	43.24	-89.20	-44.100	-43.316	-12.936	0.51889	-0.33386	0.49576	-0.61105	31.0	13111	100
2025-3-27 18:33:22.941	WT901BLE68-01(48591DE3C19B)	-0.243	-1.569	-0.004	0.244	-43.884	251.526	-62.53	45.10	-87.16	-44.100	-43.316	-12.936	0.51889	-0.33386	0.49576	-0.61105	31.0	13111	100
2025-3-27 18:33:22.941	WT901BLE68-01(48591DE3C19B)	-0.243	-1.689	0.014	4.578	-61.646	228.699	-61.03	46.63	-84.93	-44.100	-43.316	-12.936	0.51889	-0.33386	0.49576	-0.61105	31.0	13111	100
2025-3-27 18:33:22.970	WT901BLE68-01(48591DE3C19B)	0.042	-1.689	0.014	4.578	-61.646	228.699	-59.40	48.11	-82.60	-71.834	-53.018	0.980	0.51889	-0.33386	0.49576	-0.61105	31.0	13111	100
2025-3-27 18:33:22.970	WT901BLE68-01(48591DE3C19B)	0.042	-1.771	-0.038	9.705	-57.434	194.214	-57.86	49.26	-80.47	-71.834	-53.018	0.980	0.51889	-0.33386	0.49576	-0.61105	31.0	13111	100
2025-3-27 18:33:22.970	WT901BLE68-01(48591DE3C19B)	0.387	-1.771	-0.038	9.705	-57.434	194.214	-56.23	50.36	-78.27	-71.834	-53.018	0.980	0.51889	-0.33386	0.49576	-0.61105	31.0	13111	100
2025-3-27 18:33:22.970	WT901BLE68-01(48591DE3C19B)	0.387	-1.845	-0.036	22.644	-35.645	151.550	-54.90	51.18	-76.65	-71.834	-53.018	0.980	0.51889	-0.33386	0.49576	-0.61105	31.0	13111	100
2025-3-27 18:33:23.31	WT901BLE68-01(48591DE3C19B)	0.399	-1.845	-0.036	22.644	-35.645	151.550	-53.54	51.96	-75.00	-71.834	-53.018	0.980	0.51889	-0.33386	0.49576	-0.61105	31.0	13111	100
2025-3-27 18:33:23.31	WT901BLE68-01(48591DE3C19B)	0.399	-1.687	0.039	20.020	-4.456	111.877	-52.79	52.58	-74.10	-71.834	-53.018	0.980	0.51889	-0.33386	0.49576	-0.61105	31.0	13111	100
2025-3-27 18:33:23.31	WT901BLE68-01(48591DE3C19B)	0.163	-1.687	0.039	20.020	-4.456	111.877	-52.01	53.17	-73.18	-71.834	-53.018	0.980	0.51889	-0.33386	0.49576	-0.61105	31.0	13111	100
2025-3-27 18:33:23.31	WT901BLE68-01(48591DE3C19B)	0.163	-1.614	0.112	0.427	21.484	58.838	-52.14	53.50	-73.15	-71.834	-53.018	0.980	0.51889	-0.33386	0.49576	-0.61105	31.0	13111	100
2025-3-27 18:33:23.60	WT901BLE68-01(48591DE3C19B)	0.012	-1.614	0.112	0.427	21.484	58.838	-52.27	53.82	-73.11	-71.834	-53.018	0.980	0.51889	-0.33386	0.49576	-0.61105	31.0	13111	100
2025-3-27 18:33:23.60	WT901BLE68-01(48591DE3C19B)	0.012	-1.555	0.268	-5.676	44.434	9.644	-53.10	53.89	-73.89	-71.834	-53.018	0.980	0.51889	-0.33386	0.49576	-0.61105	31.0	13111	100
2025-3-27 18:33:23.60	WT901BLE68-01(48591DE3C19B)	-0.019	-1.555	0.268	-5.676	44.434	9.644	-53.94	53.96	-74.68	-71.834	-53.018	0.980	0.51889	-0.33386	0.49576	-0.61105	31.0	13111	100
2025-3-27 18:33:23.60	WT901BLE68-01(48591DE3C19B)	-0.019	-1.452	0.270	-7.507	65.369	-37.964	-55.39	53.75	-76.22	-71.834	-53.018	0.980	0.51889	-0.33386	0.49576	-0.61105	31.0	13111	100
2025-3-27 18:33:23.90	WT901BLE68-01(48591DE3C19B)	0.079	-1.452	0.270	-7.507	65.369	-37.964	-56.80	53.51	-77.73	-71.834	-53.018	0.980	0.51889	-0.33386	0.49576	-0.61105	31.0	13111	100
2025-3-27 18:33:23.90	WT901BLE68-01(48591DE3C19B)	0.079	-1.283	0.165	-3.113	65.613	-77.148	-58.43	52.92	-79.56	-71.834	-53.018	0.980	0.51889	-0.33386	0.49576	-0.61105	31.0	13111	100
2025-3-27 18:33:23.90	WT901BLE68-01(48591DE3C19B)	0.173	-1.283	0.165	-3.113	65.613	-77.148	-59.98	52.31	-81.33	-71.834	-53.018	0.980	0.51889	-0.33386	0.49576	-0.61105	31.0	13111	100
2025-3-27 18:33:23.90	WT901BLE68-01(48591DE3C19B)	0.173	-1.121	0.107	-8.789	59.692	-104.797	-61.62	51.39	-83.17	-71.834	-53.018	0.980	0.51889	-0.33386	0.49576	-0.61105	31.0	13111	100
2025-3-27 18:33:23.151	WT901BLE68-01(48591DE3C19B)	0.106	-1.121	0.107	-8.789	59.692	-104.797	-63.18	50.45	-84.92	-71.834	-53.018	0.980	0.51889	-0.33386	0.49576	-0.61105	31.0	13111	100
2025-3-27 18:33:23.151	WT901BLE68-01(48591DE3C19B)	0.106	-1.087	0.107	-15.076	47.241	-127.380	-64.69	49.22	-86.57	-71.834	-53.018	0.980	0.51889	-0.33386	0.49576	-0.61105	31.0	13111	100
2025-3-27 18:33:23.152	WT901BLE68-01(48591DE3C19B)	-0.042	-1.087	0.107	-15.076	47.241	-127.380	-66.11	47.97	-88.12	-71.834	-53.018	0.980	0.51889	-0.33386	0.49576	-0.61105	31.0	13111	100
2025-3-27 18:33:23.152	WT901BLE68-01(48591DE3C19B)	-0.042	-1.111	0.155	-15.259	23.376	-146.729	-67.27	46.43	-89.37	-71.834	-53.018	0.980	0.51889	-0.33386	0.49576	-0.61105	31.0	13111	100
2025-3-27 18:33:23.183	WT901BLE68-01(48591DE3C19B)	-0.203	-1.111	0.155	-15.259	23.376	-146.729	-68.35	44.89	-90.54	-71.834	-53.018	0.980	0.68744	-0.14658	0.58987	-0.39734	31.0	13111	100
2025-3-27 18:33:23.183	WT901BLE68-01(48591DE3C19B)	-0.203	-1.131	0.238	-10.132	-7.751	-162.659	-69.08	43.09	-91.31	-71.834	-53.018	0.980	0.68744	-0.14658	0.58987	-0.39734	31.0	13111	100
2025-3-27 18:33:23.183	WT901BLE68-01(48591DE3C19B)	-0.253	-1.131	0.238	-10.132	-7.751	-162.659	-69.74	41.29	-92.03	-71.834	-53.018	0.980	0.68744	-0.14658	0.58987	-0.39734	31.0	13111	100
2025-3-27 18:33:23.183	WT901BLE68-01(48591DE3C19B)	-0.253	-1.106	0.281	-7.629	-39.429	-180.969	-70.13	39.23	-92.40	-71.834	-53.018	0.980	0.68744	-0.14658	0.58987	-0.39734	31.0	13111	100
2025-3-27 18:33:23.211	WT901BLE68-01(48591DE3C19B)	-0.233	-1.106	0.281	-7.629	-39.429	-180.969	-70.48	37.19	-92.74	-71.834	-53.018	0.980	0.68744	-0.14658	0.58987	-0.39734	31.0	13111	100
2025-3-27 18:33:23.212	WT901BLE68-01(48591DE3C19B)	-0.233	-1.084	0.293	-9.888	-58.411	-199.646	-70.74	34.92	-92.91	-71.834	-53.018	0.980	0.68744	-0.14658	0.58987	-0.39734	31.0	13111	100
2025-3-27 18:33:23.212	WT901BLE68-01(48591DE3C19B)	-0.151	-1.084	0.293	-9.888	-58.411	-199.646	-70.98	32.67	-93.07	-71.834	-53.018	0.980	0.68744	-0.14658	0.58987	-0.39734	31.0	13111	100
2025-3-27 18:33:23.212	WT901BLE68-01(48591DE3C19B)	-0.151	-1.076	0.299	-13.489	-48.584	-218.445	-71.33	30.28	-93.39	-71.834	-53.018	0.980	0.68744	-0.14658	0.58987	-0.39734	31.0	13111	100
2025-3-27 18:33:23.270	WT901BLE68-01(48591DE3C19B)	-0.073	-1.076	0.299	-13.489	-48.584	-218.445	-71.65	27.92	-93.69	-71.834	-53.018	0.980	0.68744	-0.14658	0.58987	-0.39734	31.0	13111	100
2025-3-27 18:33:23.270	WT901BLE68-01(48591DE3C19B)	-0.073	-1.122	0.291	-16.907	-10.681	-238.831	-72.20	25.48	-94.43	-71.834	-53.018	0.980	0.68744	-0.14658	0.58987	-0.39734	31.0	13111	100
2025-3-27 18:33:23.270	WT901BLE68-01(48591DE3C19B)	-0.063	-1.122	0.291	-16.907	-10.681	-238.831	-72.69	23.06	-95.14	-71.834	-53.018	0.980	0.68744	-0.14658	0.58987	-0.39734	31.0	13111	100
2025-3-27 18:33:23.270	WT901BLE68-01(48591DE3C19B)	-0.063	-1.190	0.272	-15.930	42.114	-259.521	-73.36	20.60	-96.41	-71.834	-53.018	0.980	0.68744	-0.14658	0.58987	-0.39734	31.0	13111	100
2025-3-27 18:33:23.301	WT901BLE68-01(48591DE3C19B)	-0.133	-1.190	0.272	-15.930	42.114	-259.521	-73.95	18.14	-97.62	-71.834	-53.018	0.980	0.68744	-0.14658	0.58987	-0.39734	31.0	13111	100
2025-3-27 18:33:23.301	WT901BLE68-01(48591DE3C19B)	-0.133	-1.257	0.247	-10.498	95.459	-280.029	-74.59	15.63	-99.38	-71.834	-53.018	0.980	0.68744	-0.14658	0.58987	-0.39734	31.0	13111	100
2025-3-27 18:33:23.301	WT901BLE68-01(48591DE3C19B)	-0.254	-1.257	0.247	-10.498	95.459	-280.029	-75.14	13.12	-101.09	-71.834	-53.018	0.980	0.68744	-0.14658	0.58987	-0.39734	31.0	13111	100
2025-3-27 18:33:23.301	WT901BLE68-01(48591DE3C19B)	-0.254	-1.337	0.238	-1.160	138.794	-294.739	-75.61	10.59	-103.21	-71.834	-53.018	0.980	0.68744	-0.14658	0.58987	-0.39734	31.0	13111	100
2025-3-27 18:33:23.391	WT901BLE68-01(48591DE3C19B)	-0.408	-1.337	0.238	-1.160	138.794	-294.739	-75.98	8.05	-105.28	-71.834	-53.018	0.980	0.68744	-0.14658	0.58987	-0.39734	31.0	13111	100
2025-3-27 18:33:23.391	WT901BLE68-01(48591DE3C19B)	-0.408	-1.387	0.224	11.292	163.147	-300.598	-76.16	5.53	-107.57	-71.834	-53.018	0.980	0.68744	-0.14658	0.58987	-0.39734	31.0	13111	100
2025-3-27 18:33:23.391	WT901BLE68-01(48591DE3C19B)	-0.499	-1.387	0.224	11.292	163.147	-300.598	-76.24	3.02	-109.84	-71.834	-53.018	0.980	0.68744	-0.14658	0.58987	-0.39734	31.0	13111	100
2025-3-27 18:33:23.391	WT901BLE68-01(48591DE3C19B)	-0.499	-1.385	0.174	25.146	169.861	-296.448	-76.09	0.59	-112.14	-71.834	-53.018	0.980	0.68744	-0.14658	0.58987	-0.39734	31.0	13111	100
2025-3-27 18:33:23.392	WT901BLE68-01(48591DE3C19B)	-0.547	-1.385	0.174	25.146	169.861	-296.448	-75.84	-1.80	-114.44	-71.834	-53.018	0.980	0.68744	-0.14658	0.58987	-0.39734	31.0	13111	100
2025-3-27 18:33:23.392	WT901BLE68-01(48591DE3C19B)	-0.547	-1.322	0.124	39.612	160.034	-284.607	-75.37	-4.08	-116.63	-50.764	-51.548	-1.470	0.68744	-0.14658	0.58987	-0.39734	31.0	13111	100
2025-3-27 18:33:23.392	WT901BLE68-01(48591DE3C19B)	-0.574	-1.322	0.124	39.612	160.034	-284.607	-74.81	-6.31	-118.82	-50.764	-51.548	-1.470	0.68744	-0.14658	0.58987	-0.39734	31.0	13111	100
2025-3-27 18:33:23.392	WT901BLE68-01(48591DE3C19B)	-0.575	-1.221	0.103	48.401	140.076	-265.198	-74.12	-8.37	-120.80	-50.764	-51.548	-1.470	0.68744	-0.14658	0.58987	-0.39734	31.0	13111	100
2025-3-27 18:33:23.421	WT901BLE68-01(48591DE3C19B)	-0.575	-1.099	0.118	53.162	120.056	-242.004	-73.36	-10.30	-122.67	-50.764	-51.548	-1.470	0.68744	-0.14658	0.58987	-0.39734	31.0	13111	100
2025-3-27 18:33:23.421	WT901BLE68-01(48591DE3C19B)	-0.563	-1.099	0.118	53.162	120.056	-242.004	-72.54	-12.11	-124.44	-50.764	-51.548	-1.470	0.68744	-0.14658	0.58987	-0.39734	31.0	13111	100
2025-3-27 18:33:23.421	WT901BLE68-01(48591DE3C19B)	-0.563	-0.978	0.160	51.880	106.934	-214.355	-71.69	-13.76	-126.13	-50.764	-51.548	-1.470	0.68744	-0.14658	0.58987	-0.39734	31.0	13111	100
2025-3-27 18:33:23.421	WT901BLE68-01(48591DE3C19B)	-0.563	-0.978	0.160	51.880	106.934	-214.355	-70.83	-15.27	-127.75	-50.764	-51.548	-1.470	0.68744	-0.14658	0.58987	-0.39734	31.0	13111	100
2025-3-27 18:33:23.453	WT901BLE68-01(48591DE3C19B)	-0.563	-0.904	0.208	47.668	99.487	-184.814	-69.97	-16.61	-129.30	-50.764	-51.548	-1.470	0.68744	-0.14658	0.58987	-0.39734	31.0	13111	100
2025-3-27 18:33:23.453	WT901BLE68-01(48591DE3C19B)	-0.590	-0.904	0.208	47.668	99.487	-184.814	-69.12	-17.79	-130.81	-50.764	-51.548	-1.470	0.68744	-0.14658	0.58987	-0.39734	31.0	13111	100
2025-3-27 18:33:23.453	WT901BLE68-01(48591DE3C19B)	-0.590	-0.881	0.259	44.006	90.088	-153.137	-68.29	-18.80	-132.23	-50.764	-51.548	-1.470	0.68744	-0.14658	0.58987	-0.39734	31.0	13111	100
2025-3-27 18:33:23.453	WT901BLE68-01(48591DE3C19B)	-0.616	-0.881	0.259	44.006	90.088	-153.137	-67.47	-19.65	-133.58	-50.764	-51.548	-1.470	0.68744	-0.14658	0.58987	-0.39734	31.0	13111	100
2025-3-27 18:33:23.511	WT901BLE68-01(48591DE3C19B)	-0.616	-0.888	0.291	39.185	76.721	-121.948	-66.70	-20.35	-134.84	-50.764	-51.548	-1.470	0.68744	-0.14658	0.58987	-0.39734	31.0	13111	100
2025-3-27 18:33:23.511	WT901BLE68-01(48591DE3C19B)	-0.636	-0.888	0.291	39.185	76.721	-121.948	-65.98	-20.91	-135.98	-50.764	-51.548	-1.470	0.68744	-0.14658	0.58987	-0.39734	31.0	13111	100
2025-3-27 18:33:23.511	WT901BLE68-01(48591DE3C19B)	-0.636	-0.976	0.303	34.241	62.988	-92.834	-65.30	-21.34	-137.03	-50.764	-51.548	-1.470	0.68744	-0.14658	0.58987	-0.39734	31.0	13111	100
2025-3-27 18:33:23.512	WT901BLE68-01(48591DE3C19B)	-0.647	-0.976	0.303	34.241	62.988	-92.834	-64.69	-21.65	-137.98	-50.764	-51.548	-1.470	0.68744	-0.14658	0.58987	-0.39734	31.0	13111	100
2025-3-27 18:33:23.540	WT901BLE68-01(48591DE3C19B)	-0.647	-1.101	0.279	29.236	50.781	-67.261	-64.13	-21.85	-138.82	-50.764	-51.548	-1.470	0.68744	-0.14658	0.58987	-0.39734	31.0	13111	100
2025-3-27 18:33:23.540	WT901BLE68-01(48591DE3C19B)	-0.622	-1.101	0.279	29.236	50.781	-67.261	-63.64	-21.96	-139.56	-50.764	-51.548	-1.470	0.68744	-0.14658	0.58987	-0.39734	31.0	13111	100
2025-3-27 18:33:23.540	WT901BLE68-01(48591DE3C19B)	-0.622	-1.255	0.269	22.705	43.823	-43.640	-63.21	-21.96	-140.22	-50.764	-51.548	-1.470	0.68744	-0.14658	0.58987	-0.39734	31.0	13111	100
2025-3-27 18:33:23.540	WT901BLE68-01(48591DE3C19B)	-0.563	-1.255	0.269	22.705	43.823	-43.640	-62.85	-21.87	-140.78	-50.764	-51.548	-1.470	0.18668	-0.32266	0.42755	-0.82349	31.0	13111	100
2025-3-27 18:33:23.570	WT901BLE68-01(48591DE3C19B)	-0.563	-1.340	0.259	17.822	50.232	-23.132	-62.53	-21.68	-141.31	-50.764	-51.548	-1.470	0.18668	-0.32266	0.42755	-0.82349	31.0	13111	100
2025-3-27 18:33:23.570	WT901BLE68-01(48591DE3C19B)	-0.525	-1.340	0.259	17.822	50.232	-23.132	-62.27	-21.38	-141.80	-50.764	-51.548	-1.470	0.18668	-0.32266	0.42755	-0.82349	31.0	13111	100
2025-3-27 18:33:23.570	WT901BLE68-01(48591DE3C19B)	-0.525	-1.325	0.281	12.146	68.298	-1.526	-62.02	-20.96	-142.29	-50.764	-51.548	-1.470	0.18668	-0.32266	0.42755	-0.82349	31.0	13111	100
2025-3-27 18:33:23.570	WT901BLE68-01(48591DE3C19B)	-0.507	-1.325	0.281	12.146	68.298	-1.526	-61.81	-20.40	-142.79	-50.764	-51.548	-1.470	0.18668	-0.32266	0.42755	-0.82349	31.0	13111	100
2025-3-27 18:33:23.631	WT901BLE68-01(48591DE3C19B)	-0.507	-1.315	0.337	-2.869	83.679	18.799	-61.69	-19.73	-143.29	-50.764	-51.548	-1.470	0.18668	-0.32266	0.42755	-0.82349	31.0	13111	100
2025-3-27 18:33:23.631	WT901BLE68-01(48591DE3C19B)	-0.549	-1.315	0.337	-2.869	83.679	18.799	-61.64	-18.93	-143.80	-50.764	-51.548	-1.470	0.18668	-0.32266	0.42755	-0.82349	31.0	13111	100
2025-3-27 18:33:23.631	WT901BLE68-01(48591DE3C19B)	-0.549	-1.354	0.356	-18.005	83.435	40.405	-61.69	-18.06	-144.23	-50.764	-51.548	-1.470	0.18668	-0.32266	0.42755	-0.82349	31.0	13111	100
2025-3-27 18:33:23.631	WT901BLE68-01(48591DE3C19B)	-0.585	-1.354	0.356	-18.005	83.435	40.405	-61.86	-17.10	-144.60	-50.764	-51.548	-1.470	0.18668	-0.32266	0.42755	-0.82349	31.0	13111	100
2025-3-27 18:33:23.660	WT901BLE68-01(48591DE3C19B)	-0.585	-1.230	0.348	-29.419	69.397	62.988	-62.12	-16.08	-144.83	-50.764	-51.548	-1.470	0.18668	-0.32266	0.42755	-0.82349	31.0	13111	100
2025-3-27 18:33:23.660	WT901BLE68-01(48591DE3C19B)	-0.627	-1.230	0.348	-29.419	69.397	62.988	-62.47	-15.01	-144.95	-50.764	-51.548	-1.470	0.18668	-0.32266	0.42755	-0.82349	31.0	13111	100
2025-3-27 18:33:23.660	WT901BLE68-01(48591DE3C19B)	-0.627	-1.106	0.321	-47.668	35.461	89.233	-62.97	-13.90	-144.85	-50.764	-51.548	-1.470	0.18668	-0.32266	0.42755	-0.82349	31.0	13111	100
2025-3-27 18:33:23.660	WT901BLE68-01(48591DE3C19B)	-0.628	-1.106	0.321	-47.668	35.461	89.233	-63.60	-12.75	-144.56	-50.764	-51.548	-1.470	0.18668	-0.32266	0.42755	-0.82349	31.0	13111	100
2025-3-27 18:33:23.690	WT901BLE68-01(48591DE3C19B)	-0.628	-1.092	0.302	-61.462	-16.113	120.178	-64.35	-11.57	-143.99	-50.764	-51.548	-1.470	0.18668	-0.32266	0.42755	-0.82349	31.0	13111	100
2025-3-27 18:33:23.690	WT901BLE68-01(48591DE3C19B)	-0.524	-1.092	0.302	-61.462	-16.113	120.178	-65.20	-10.37	-143.14	-50.764	-51.548	-1.470	0.18668	-0.32266	0.42755	-0.82349	31.0	13111	100
