time	DeviceName	AccX(g)	AccY(g)	AccZ(g)	AsX(°/s)	AsY(°/s)	AsZ(°/s)	AngleX(°)	AngleY(°)	AngleZ(°)	HX(uT)	HY(uT)	HZ(uT)	Q0()	Q1()	Q2()	Q3()	Temperature(°C)	Version()	Battery level(%)
2025-3-27 18:28:19.299	WT901BLE68-01(48591DE3C19B)	-0.197	-0.973	0.234	-0.610	-1.892	2.869	-76.97	12.70	-43.32	-58.800	-22.932	2.156	0.76102	-0.55493	0.28409	-0.17917	31.3	13111	100
2025-3-27 18:28:19.299	WT901BLE68-01(48591DE3C19B)	-0.192	-0.973	0.234	-0.610	-1.892	2.869	-76.98	12.71	-43.58	-60.172	-21.070	2.058	0.76102	-0.55493	0.28409	-0.17917	31.3	13111	100
2025-3-27 18:28:19.299	WT901BLE68-01(48591DE3C19B)	-0.192	-0.967	0.236	-0.610	-2.991	3.235	-76.98	12.72	-43.84	-60.172	-21.070	2.058	0.76102	-0.55493	0.28409	-0.17917	31.3	13111	100
2025-3-27 18:28:19.299	WT901BLE68-01(48591DE3C19B)	-0.186	-0.967	0.236	-0.610	-2.991	3.235	-76.97	12.73	-44.09	-60.172	-21.070	2.058	0.76102	-0.55493	0.28409	-0.17917	31.3	13111	100
2025-3-27 18:28:19.389	WT901BLE68-01(48591DE3C19B)	-0.186	-0.959	0.243	-0.793	-3.418	2.930	-76.97	12.73	-44.34	-60.172	-21.070	2.058	0.76102	-0.55493	0.28409	-0.17917	31.3	13111	100
2025-3-27 18:28:19.389	WT901BLE68-01(48591DE3C19B)	-0.174	-0.959	0.243	-0.793	-3.418	2.930	-76.97	12.73	-44.58	-60.172	-21.070	2.058	0.76102	-0.55493	0.28409	-0.17917	31.3	13111	100
2025-3-27 18:28:19.390	WT901BLE68-01(48591DE3C19B)	-0.174	-0.954	0.247	-0.671	-3.479	1.587	-76.97	12.73	-44.82	-60.172	-21.070	2.058	0.76102	-0.55493	0.28409	-0.17917	31.3	13111	100
2025-3-27 18:28:19.390	WT901BLE68-01(48591DE3C19B)	-0.184	-0.954	0.247	-0.671	-3.479	1.587	-76.97	12.72	-45.07	-60.172	-21.070	2.058	0.76102	-0.55493	0.28409	-0.17917	31.3	13111	100
2025-3-27 18:28:19.390	WT901BLE68-01(48591DE3C19B)	-0.184	-0.961	0.251	-1.038	-2.991	0.000	-76.98	12.69	-45.32	-60.172	-21.070	2.058	0.76102	-0.55493	0.28409	-0.17917	31.3	13111	100
2025-3-27 18:28:19.390	WT901BLE68-01(48591DE3C19B)	-0.188	-0.961	0.251	-1.038	-2.991	0.000	-76.98	12.67	-45.57	-60.172	-21.070	2.058	0.76102	-0.55493	0.28409	-0.17917	31.3	13111	100
2025-3-27 18:28:19.391	WT901BLE68-01(48591DE3C19B)	-0.188	-0.963	0.248	-0.610	-3.906	-1.892	-76.98	12.63	-45.81	-60.172	-21.070	2.058	0.76102	-0.55493	0.28409	-0.17917	31.3	13111	100
2025-3-27 18:28:19.391	WT901BLE68-01(48591DE3C19B)	-0.187	-0.963	0.248	-0.610	-3.906	-1.892	-76.97	12.59	-46.05	-60.172	-21.070	2.058	0.76102	-0.55493	0.28409	-0.17917	31.3	13111	100
2025-3-27 18:28:19.421	WT901BLE68-01(48591DE3C19B)	-0.187	-0.964	0.240	-0.854	-5.554	-3.418	-76.97	12.53	-46.28	-60.172	-21.070	2.058	0.76102	-0.55493	0.28409	-0.17917	31.3	13111	100
2025-3-27 18:28:19.422	WT901BLE68-01(48591DE3C19B)	-0.188	-0.964	0.240	-0.854	-5.554	-3.418	-76.96	12.47	-46.51	-60.172	-21.070	2.058	0.76102	-0.55493	0.28409	-0.17917	31.3	13111	100
2025-3-27 18:28:19.422	WT901BLE68-01(48591DE3C19B)	-0.188	-0.973	0.238	-0.793	-7.629	-4.639	-76.96	12.39	-46.71	-60.172	-21.070	2.058	0.76102	-0.55493	0.28409	-0.17917	31.3	13111	100
2025-3-27 18:28:19.422	WT901BLE68-01(48591DE3C19B)	-0.176	-0.973	0.238	-0.793	-7.629	-4.639	-76.95	12.32	-46.92	-60.172	-21.070	2.058	0.76102	-0.55493	0.28409	-0.17917	31.3	13111	100
2025-3-27 18:28:19.451	WT901BLE68-01(48591DE3C19B)	-0.176	-0.972	0.243	-0.977	-10.071	-5.615	-76.94	12.23	-47.10	-60.172	-21.070	2.058	0.76102	-0.55493	0.28409	-0.17917	31.3	13111	100
2025-3-27 18:28:19.451	WT901BLE68-01(48591DE3C19B)	-0.161	-0.972	0.243	-0.977	-10.071	-5.615	-76.93	12.14	-47.29	-60.172	-21.070	2.058	0.76102	-0.55493	0.28409	-0.17917	31.3	13111	100
2025-3-27 18:28:19.452	WT901BLE68-01(48591DE3C19B)	-0.161	-0.995	0.263	-1.648	-9.521	-6.714	-76.93	12.04	-47.47	-60.172	-21.070	2.058	0.76102	-0.55493	0.28409	-0.17917	31.3	13111	100
2025-3-27 18:28:19.452	WT901BLE68-01(48591DE3C19B)	-0.161	-0.995	0.263	-1.648	-9.521	-6.714	-76.93	11.94	-47.66	-60.172	-21.070	2.058	0.73816	-0.53281	0.32462	-0.25638	31.3	13111	100
2025-3-27 18:28:19.540	WT901BLE68-01(48591DE3C19B)	-0.161	-1.054	0.279	-0.244	-7.935	-7.141	-76.92	11.84	-47.86	-60.172	-21.070	2.058	0.73816	-0.53281	0.32462	-0.25638	31.3	13111	100
2025-3-27 18:28:19.540	WT901BLE68-01(48591DE3C19B)	-0.129	-1.054	0.279	-0.244	-7.935	-7.141	-76.90	11.74	-48.07	-60.172	-21.070	2.058	0.73816	-0.53281	0.32462	-0.25638	31.3	13111	100
2025-3-27 18:28:19.540	WT901BLE68-01(48591DE3C19B)	-0.129	-1.076	0.262	4.150	-4.761	-7.202	-76.85	11.64	-48.30	-60.172	-21.070	2.058	0.73816	-0.53281	0.32462	-0.25638	31.3	13111	100
2025-3-27 18:28:19.540	WT901BLE68-01(48591DE3C19B)	-0.068	-1.076	0.262	4.150	-4.761	-7.202	-76.81	11.55	-48.53	-60.172	-21.070	2.058	0.73816	-0.53281	0.32462	-0.25638	31.3	13111	100
2025-3-27 18:28:19.541	WT901BLE68-01(48591DE3C19B)	-0.037	-1.045	0.238	8.606	5.066	-6.653	-76.73	11.48	-48.86	-60.172	-21.070	2.058	0.73816	-0.53281	0.32462	-0.25638	31.3	13111	100
2025-3-27 18:28:19.541	WT901BLE68-01(48591DE3C19B)	-0.037	-0.984	0.232	10.376	18.250	-5.432	-76.67	11.42	-49.25	-60.172	-21.070	2.058	0.73816	-0.53281	0.32462	-0.25638	31.3	13111	100
2025-3-27 18:28:19.541	WT901BLE68-01(48591DE3C19B)	-0.037	-0.984	0.232	10.376	18.250	-5.432	-76.61	11.39	-49.70	-60.172	-21.070	2.058	0.73816	-0.53281	0.32462	-0.25638	31.3	13111	100
2025-3-27 18:28:19.541	WT901BLE68-01(48591DE3C19B)	-0.037	-0.961	0.227	9.216	27.222	-5.737	-76.56	11.37	-50.19	-60.172	-21.070	2.058	0.73816	-0.53281	0.32462	-0.25638	31.3	13111	100
2025-3-27 18:28:19.571	WT901BLE68-01(48591DE3C19B)	-0.038	-0.961	0.227	9.216	27.222	-5.737	-76.54	11.34	-50.72	-60.172	-21.070	2.058	0.73816	-0.53281	0.32462	-0.25638	31.3	13111	100
2025-3-27 18:28:19.572	WT901BLE68-01(48591DE3C19B)	-0.038	-0.980	0.215	8.179	32.532	-7.324	-76.52	11.32	-51.28	-60.172	-21.070	2.058	0.73816	-0.53281	0.32462	-0.25638	31.3	13111	100
2025-3-27 18:28:19.572	WT901BLE68-01(48591DE3C19B)	-0.050	-0.980	0.215	8.179	32.532	-7.324	-76.51	11.29	-51.87	-60.172	-21.070	2.058	0.73816	-0.53281	0.32462	-0.25638	31.3	13111	100
2025-3-27 18:28:19.572	WT901BLE68-01(48591DE3C19B)	-0.050	-0.972	0.214	8.606	32.043	-10.071	-76.51	11.25	-52.45	-60.172	-21.070	2.058	0.73816	-0.53281	0.32462	-0.25638	31.3	13111	100
2025-3-27 18:28:19.600	WT901BLE68-01(48591DE3C19B)	-0.050	-0.972	0.214	8.606	32.043	-10.071	-76.50	11.20	-53.03	-60.172	-21.070	2.058	0.73816	-0.53281	0.32462	-0.25638	31.3	13111	100
2025-3-27 18:28:19.600	WT901BLE68-01(48591DE3C19B)	-0.050	-0.937	0.216	9.155	28.198	-15.198	-76.49	11.11	-53.59	-60.172	-21.070	2.058	0.73816	-0.53281	0.32462	-0.25638	31.3	13111	100
2025-3-27 18:28:19.601	WT901BLE68-01(48591DE3C19B)	-0.069	-0.937	0.216	9.155	28.198	-15.198	-76.48	10.99	-54.14	-60.172	-21.070	2.058	0.73816	-0.53281	0.32462	-0.25638	31.3	13111	100
2025-3-27 18:28:19.601	WT901BLE68-01(48591DE3C19B)	-0.069	-0.913	0.206	8.240	24.109	-20.630	-76.46	10.84	-54.67	-60.172	-21.070	2.058	0.73816	-0.53281	0.32462	-0.25638	31.3	13111	100
2025-3-27 18:28:19.690	WT901BLE68-01(48591DE3C19B)	-0.083	-0.913	0.206	8.240	24.109	-20.630	-76.45	10.67	-55.18	-60.172	-21.070	2.058	0.73816	-0.53281	0.32462	-0.25638	31.3	13111	100
2025-3-27 18:28:19.690	WT901BLE68-01(48591DE3C19B)	-0.083	-0.921	0.182	8.179	18.799	-26.062	-76.43	10.46	-55.67	-60.172	-21.070	2.058	0.73816	-0.53281	0.32462	-0.25638	31.3	13111	100
2025-3-27 18:28:19.690	WT901BLE68-01(48591DE3C19B)	-0.071	-0.921	0.182	8.179	18.799	-26.062	-76.40	10.22	-56.13	-60.172	-21.070	2.058	0.73816	-0.53281	0.32462	-0.25638	31.3	13111	100
2025-3-27 18:28:19.690	WT901BLE68-01(48591DE3C19B)	-0.071	-0.943	0.165	7.935	14.038	-31.250	-76.38	9.95	-56.59	-60.172	-21.070	2.058	0.73816	-0.53281	0.32462	-0.25638	31.3	13111	100
2025-3-27 18:28:19.691	WT901BLE68-01(48591DE3C19B)	-0.055	-0.943	0.165	7.935	14.038	-31.250	-76.35	9.65	-57.01	-59.192	-21.266	1.862	0.73816	-0.53281	0.32462	-0.25638	31.3	13111	100
2025-3-27 18:28:19.691	WT901BLE68-01(48591DE3C19B)	-0.055	-0.973	0.178	6.653	14.282	-36.438	-76.33	9.33	-57.44	-59.192	-21.266	1.862	0.73816	-0.53281	0.32462	-0.25638	31.3	13111	100
2025-3-27 18:28:19.691	WT901BLE68-01(48591DE3C19B)	-0.100	-0.973	0.178	6.653	14.282	-36.438	-76.32	8.99	-57.88	-59.192	-21.266	1.862	0.73816	-0.53281	0.32462	-0.25638	31.3	13111	100
2025-3-27 18:28:19.691	WT901BLE68-01(48591DE3C19B)	-0.100	-1.030	0.208	3.174	14.343	-42.114	-76.33	8.62	-58.32	-59.192	-21.266	1.862	0.73816	-0.53281	0.32462	-0.25638	31.3	13111	100
2025-3-27 18:28:19.752	WT901BLE68-01(48591DE3C19B)	-0.180	-1.030	0.208	3.174	14.343	-42.114	-76.35	8.22	-58.77	-59.192	-21.266	1.862	0.73816	-0.53281	0.32462	-0.25638	31.3	13111	100
2025-3-27 18:28:19.752	WT901BLE68-01(48591DE3C19B)	-0.180	-1.123	0.240	0.122	10.620	-48.218	-76.38	7.80	-59.19	-59.192	-21.266	1.862	0.73816	-0.53281	0.32462	-0.25638	31.3	13111	100
2025-3-27 18:28:19.752	WT901BLE68-01(48591DE3C19B)	-0.242	-1.123	0.240	0.122	10.620	-48.218	-76.42	7.34	-59.61	-59.192	-21.266	1.862	0.73816	-0.53281	0.32462	-0.25638	31.3	13111	100
2025-3-27 18:28:19.753	WT901BLE68-01(48591DE3C19B)	-0.121	-1.162	0.278	0.671	2.747	-52.185	-76.45	6.87	-59.99	-59.192	-21.266	1.862	0.73816	-0.53281	0.32462	-0.25638	31.3	13111	100
2025-3-27 18:28:19.839	WT901BLE68-01(48591DE3C19B)	-0.248	-0.581	0.139	0.671	2.747	-52.185	-76.47	6.37	-60.33	-59.192	-21.266	1.862	0.73816	-0.53281	0.32462	-0.25638	31.3	13111	100
2025-3-27 18:28:19.839	WT901BLE68-01(48591DE3C19B)	-0.248	-1.087	0.297	2.441	-6.714	-52.490	-76.48	5.86	-60.62	-59.192	-21.266	1.862	0.73816	-0.53281	0.32462	-0.25638	31.3	13111	100
2025-3-27 18:28:19.839	WT901BLE68-01(48591DE3C19B)	-0.200	-1.087	0.297	2.441	-6.714	-52.490	-76.46	5.34	-60.87	-59.192	-21.266	1.862	0.73816	-0.53281	0.32462	-0.25638	31.3	13111	100
2025-3-27 18:28:19.839	WT901BLE68-01(48591DE3C19B)	-0.200	-0.945	0.287	1.770	-9.644	-50.049	-76.44	4.84	-61.10	-59.192	-21.266	1.862	0.73816	-0.53281	0.32462	-0.25638	31.3	13111	100
2025-3-27 18:28:19.840	WT901BLE68-01(48591DE3C19B)	-0.132	-0.945	0.287	1.770	-9.644	-50.049	-76.42	4.36	-61.31	-59.192	-21.266	1.862	0.73816	-0.53281	0.32462	-0.25638	31.3	13111	100
2025-3-27 18:28:19.840	WT901BLE68-01(48591DE3C19B)	-0.132	-0.824	0.263	-0.854	-5.066	-45.715	-76.41	3.90	-61.55	-59.192	-21.266	1.862	0.73816	-0.53281	0.32462	-0.25638	31.3	13111	100
2025-3-27 18:28:19.840	WT901BLE68-01(48591DE3C19B)	-0.103	-0.824	0.263	-0.854	-5.066	-45.715	-76.41	3.47	-61.79	-59.192	-21.266	1.862	0.73816	-0.53281	0.32462	-0.25638	31.3	13111	100
2025-3-27 18:28:19.840	WT901BLE68-01(48591DE3C19B)	-0.103	-0.744	0.256	-4.639	7.019	-41.626	-76.43	3.08	-62.09	-59.192	-21.266	1.862	0.73816	-0.53281	0.32462	-0.25638	31.3	13111	100
2025-3-27 18:28:19.840	WT901BLE68-01(48591DE3C19B)	-0.113	-0.744	0.256	-4.639	7.019	-41.626	-76.47	2.72	-62.44	-59.192	-21.266	1.862	0.73816	-0.53281	0.32462	-0.25638	31.3	13111	100
2025-3-27 18:28:19.840	WT901BLE68-01(48591DE3C19B)	-0.113	-0.741	0.260	-7.690	20.325	-40.405	-76.53	2.38	-62.85	-59.192	-21.266	1.862	0.73816	-0.53281	0.32462	-0.25638	31.3	13111	100
2025-3-27 18:28:19.840	WT901BLE68-01(48591DE3C19B)	-0.161	-0.741	0.260	-7.690	20.325	-40.405	-76.59	2.07	-63.33	-59.192	-21.266	1.862	0.73816	-0.53281	0.32462	-0.25638	31.3	13111	100
2025-3-27 18:28:19.840	WT901BLE68-01(48591DE3C19B)	-0.161	-0.761	0.265	-7.751	28.687	-40.405	-76.66	1.77	-63.84	-59.192	-21.266	1.862	0.73816	-0.53281	0.32462	-0.25638	31.3	13111	100
2025-3-27 18:28:19.899	WT901BLE68-01(48591DE3C19B)	-0.236	-0.761	0.265	-7.751	28.687	-40.405	-76.72	1.48	-64.39	-59.192	-21.266	1.862	0.73816	-0.53281	0.32462	-0.25638	31.3	13111	100
2025-3-27 18:28:19.900	WT901BLE68-01(48591DE3C19B)	-0.236	-0.793	0.279	-6.470	28.442	-41.504	-76.77	1.19	-64.94	-59.192	-21.266	1.862	0.66470	-0.51944	0.34018	-0.41534	31.3	13111	100
2025-3-27 18:28:19.900	WT901BLE68-01(48591DE3C19B)	-0.308	-0.793	0.279	-6.470	28.442	-41.504	-76.81	0.89	-65.48	-59.192	-21.266	1.862	0.66470	-0.51944	0.34018	-0.41534	31.3	13111	100
2025-3-27 18:28:19.900	WT901BLE68-01(48591DE3C19B)	-0.308	-0.835	0.283	-4.517	18.250	-42.908	-76.83	0.58	-65.98	-59.192	-21.266	1.862	0.66470	-0.51944	0.34018	-0.41534	31.3	13111	100
2025-3-27 18:28:19.928	WT901BLE68-01(48591DE3C19B)	-0.333	-0.835	0.283	-4.517	18.250	-42.908	-76.84	0.26	-66.42	-59.192	-21.266	1.862	0.66470	-0.51944	0.34018	-0.41534	31.3	13111	100
2025-3-27 18:28:19.928	WT901BLE68-01(48591DE3C19B)	-0.333	-0.867	0.286	-2.930	3.418	-44.067	-76.84	-0.07	-66.80	-59.192	-21.266	1.862	0.66470	-0.51944	0.34018	-0.41534	31.3	13111	100
2025-3-27 18:28:19.928	WT901BLE68-01(48591DE3C19B)	-0.348	-0.867	0.286	-2.930	3.418	-44.067	-76.82	-0.41	-67.10	-59.192	-21.266	1.862	0.66470	-0.51944	0.34018	-0.41534	31.3	13111	100
2025-3-27 18:28:19.928	WT901BLE68-01(48591DE3C19B)	-0.348	-0.889	0.308	-1.953	-11.353	-42.908	-76.80	-0.77	-67.32	-59.192	-21.266	1.862	0.66470	-0.51944	0.34018	-0.41534	31.3	13111	100
2025-3-27 18:28:19.959	WT901BLE68-01(48591DE3C19B)	-0.369	-0.889	0.308	-1.953	-11.353	-42.908	-76.77	-1.13	-67.48	-59.192	-21.266	1.862	0.66470	-0.51944	0.34018	-0.41534	31.3	13111	100
2025-3-27 18:28:19.959	WT901BLE68-01(48591DE3C19B)	-0.369	-0.918	0.349	-2.319	-27.100	-40.222	-76.74	-1.49	-67.55	-59.192	-21.266	1.862	0.66470	-0.51944	0.34018	-0.41534	31.3	13111	100
2025-3-27 18:28:19.959	WT901BLE68-01(48591DE3C19B)	-0.381	-0.918	0.349	-2.319	-27.100	-40.222	-76.72	-1.85	-67.55	-59.192	-21.266	1.862	0.66470	-0.51944	0.34018	-0.41534	31.3	13111	100
2025-3-27 18:28:19.959	WT901BLE68-01(48591DE3C19B)	-0.381	-0.972	0.402	-2.380	-40.527	-35.950	-76.70	-2.20	-67.41	-59.192	-21.266	1.862	0.66470	-0.51944	0.34018	-0.41534	31.3	13111	100
2025-3-27 18:28:20.21	WT901BLE68-01(48591DE3C19B)	-0.382	-0.972	0.402	-2.380	-40.527	-35.950	-76.68	-2.54	-67.27	-59.192	-21.266	1.862	0.66470	-0.51944	0.34018	-0.41534	31.3	13111	100
2025-3-27 18:28:20.21	WT901BLE68-01(48591DE3C19B)	-0.382	-1.022	0.453	-0.122	-49.377	-29.541	-76.64	-2.83	-67.03	-59.192	-21.266	1.862	0.66470	-0.51944	0.34018	-0.41534	31.3	13111	100
2025-3-27 18:28:20.21	WT901BLE68-01(48591DE3C19B)	-0.355	-1.022	0.453	-0.122	-49.377	-29.541	-76.59	-3.13	-66.79	-59.192	-21.266	1.862	0.66470	-0.51944	0.34018	-0.41534	31.3	13111	100
2025-3-27 18:28:20.22	WT901BLE68-01(48591DE3C19B)	-0.355	-1.058	0.462	1.709	-53.833	-21.301	-76.53	-3.35	-66.49	-59.192	-21.266	1.862	0.66470	-0.51944	0.34018	-0.41534	31.3	13111	100
2025-3-27 18:28:20.51	WT901BLE68-01(48591DE3C19B)	-0.285	-1.058	0.462	1.709	-53.833	-21.301	-76.46	-3.58	-66.20	-59.192	-21.266	1.862	0.66470	-0.51944	0.34018	-0.41534	31.3	13111	100
2025-3-27 18:28:20.51	WT901BLE68-01(48591DE3C19B)	-0.285	-1.064	0.431	2.808	-47.485	-13.672	-76.39	-3.71	-65.96	-59.192	-21.266	1.862	0.66470	-0.51944	0.34018	-0.41534	31.3	13111	100
2025-3-27 18:28:20.51	WT901BLE68-01(48591DE3C19B)	-0.229	-1.064	0.431	2.808	-47.485	-13.672	-76.32	-3.85	-65.71	-59.192	-21.266	1.862	0.66470	-0.51944	0.34018	-0.41534	31.3	13111	100
2025-3-27 18:28:20.51	WT901BLE68-01(48591DE3C19B)	-0.229	-1.102	0.372	1.465	-32.471	-6.958	-76.25	-3.89	-65.60	-61.446	-20.972	2.450	0.66470	-0.51944	0.34018	-0.41534	31.3	13111	100
2025-3-27 18:28:20.81	WT901BLE68-01(48591DE3C19B)	-0.196	-1.102	0.372	1.465	-32.471	-6.958	-76.18	-3.94	-65.48	-61.446	-20.972	2.450	0.66470	-0.51944	0.34018	-0.41534	31.3	13111	100
2025-3-27 18:28:20.81	WT901BLE68-01(48591DE3C19B)	-0.196	-1.193	0.328	-0.488	-14.526	-4.089	-76.14	-3.91	-65.53	-61.446	-20.972	2.450	0.66470	-0.51944	0.34018	-0.41534	31.3	13111	100
2025-3-27 18:28:20.81	WT901BLE68-01(48591DE3C19B)	-0.179	-1.193	0.328	-0.488	-14.526	-4.089	-76.09	-3.89	-65.58	-61.446	-20.972	2.450	0.66470	-0.51944	0.34018	-0.41534	31.3	13111	100
2025-3-27 18:28:20.82	WT901BLE68-01(48591DE3C19B)	-0.179	-1.331	0.323	-3.479	1.892	-5.554	-76.06	-3.85	-65.79	-61.446	-20.972	2.450	0.66470	-0.51944	0.34018	-0.41534	31.3	13111	100
2025-3-27 18:28:20.139	WT901BLE68-01(48591DE3C19B)	-0.190	-1.331	0.323	-3.479	1.892	-5.554	-76.05	-3.81	-65.99	-61.446	-20.972	2.450	0.66470	-0.51944	0.34018	-0.41534	31.3	13111	100
2025-3-27 18:28:20.139	WT901BLE68-01(48591DE3C19B)	-0.190	-1.489	0.346	-5.859	20.813	-6.897	-76.05	-3.74	-66.38	-61.446	-20.972	2.450	0.66470	-0.51944	0.34018	-0.41534	31.3	13111	100
2025-3-27 18:28:20.139	WT901BLE68-01(48591DE3C19B)	-0.295	-1.489	0.346	-5.859	20.813	-6.897	-76.05	-3.67	-66.76	-61.446	-20.972	2.450	0.66470	-0.51944	0.34018	-0.41534	31.3	13111	100
2025-3-27 18:28:20.139	WT901BLE68-01(48591DE3C19B)	-0.295	-1.508	0.394	-3.052	36.804	-1.770	-76.03	-3.52	-67.28	-61.446	-20.972	2.450	0.66470	-0.51944	0.34018	-0.41534	31.3	13111	100
2025-3-27 18:28:20.168	WT901BLE68-01(48591DE3C19B)	-0.417	-1.508	0.394	-3.052	36.804	-1.770	-76.00	-3.36	-67.80	-61.446	-20.972	2.450	0.66470	-0.51944	0.34018	-0.41534	31.3	13111	100
2025-3-27 18:28:20.169	WT901BLE68-01(48591DE3C19B)	-0.417	-1.398	0.421	-5.676	44.434	1.648	-75.99	-3.15	-68.38	-61.446	-20.972	2.450	0.66470	-0.51944	0.34018	-0.41534	31.3	13111	100
2025-3-27 18:28:20.169	WT901BLE68-01(48591DE3C19B)	-0.515	-1.398	0.421	-5.676	44.434	1.648	-75.99	-2.94	-68.96	-61.446	-20.972	2.450	0.66470	-0.51944	0.34018	-0.41534	31.3	13111	100
2025-3-27 18:28:20.169	WT901BLE68-01(48591DE3C19B)	-0.515	-1.296	0.436	-12.695	38.391	3.723	-76.07	-2.72	-69.47	-61.446	-20.972	2.450	0.66470	-0.51944	0.34018	-0.41534	31.3	13111	100
2025-3-27 18:28:20.199	WT901BLE68-01(48591DE3C19B)	-0.525	-1.296	0.436	-12.695	38.391	3.723	-76.14	-2.50	-69.98	-61.446	-20.972	2.450	0.66470	-0.51944	0.34018	-0.41534	31.3	13111	100
2025-3-27 18:28:20.199	WT901BLE68-01(48591DE3C19B)	-0.525	-1.185	0.431	-16.052	17.273	11.841	-76.25	-2.26	-70.27	-61.446	-20.972	2.450	0.66470	-0.51944	0.34018	-0.41534	31.3	13111	100
2025-3-27 18:28:20.199	WT901BLE68-01(48591DE3C19B)	-0.510	-1.185	0.431	-16.052	17.273	11.841	-76.37	-2.01	-70.55	-61.446	-20.972	2.450	0.66470	-0.51944	0.34018	-0.41534	31.3	13111	100
2025-3-27 18:28:20.199	WT901BLE68-01(48591DE3C19B)	-0.510	-0.979	0.399	-17.212	-20.142	30.457	-76.50	-1.65	-70.43	-61.446	-20.972	2.450	0.66470	-0.51944	0.34018	-0.41534	31.3	13111	100
2025-3-27 18:28:20.259	WT901BLE68-01(48591DE3C19B)	-0.477	-0.979	0.399	-17.212	-20.142	30.457	-76.63	-1.30	-70.31	-61.446	-20.972	2.450	0.66470	-0.51944	0.34018	-0.41534	31.3	13111	100
2025-3-27 18:28:20.259	WT901BLE68-01(48591DE3C19B)	-0.477	-0.780	0.312	-20.996	-64.758	52.979	-76.80	-0.83	-69.71	-61.446	-20.972	2.450	0.66470	-0.51944	0.34018	-0.41534	31.3	13111	100
2025-3-27 18:28:20.259	WT901BLE68-01(48591DE3C19B)	-0.436	-0.780	0.312	-20.996	-64.758	52.979	-76.96	-0.36	-69.11	-61.446	-20.972	2.450	0.66470	-0.51944	0.34018	-0.41534	31.3	13111	100
2025-3-27 18:28:20.259	WT901BLE68-01(48591DE3C19B)	-0.436	-0.707	0.206	-26.917	-105.713	73.669	-77.17	0.23	-68.08	-61.446	-20.972	2.450	0.66470	-0.51944	0.34018	-0.41534	31.3	13111	100
2025-3-27 18:28:20.288	WT901BLE68-01(48591DE3C19B)	-0.355	-0.707	0.206	-26.917	-105.713	73.669	-77.37	0.82	-67.04	-61.446	-20.972	2.450	0.66470	-0.51944	0.34018	-0.41534	31.3	13111	100
2025-3-27 18:28:20.289	WT901BLE68-01(48591DE3C19B)	-0.355	-0.790	0.082	-29.419	-134.583	94.116	-77.57	1.55	-65.69	-61.446	-20.972	2.450	0.66470	-0.51944	0.34018	-0.41534	31.3	13111	100
2025-3-27 18:28:20.289	WT901BLE68-01(48591DE3C19B)	-0.263	-0.790	0.082	-29.419	-134.583	94.116	-77.77	2.29	-64.35	-61.446	-20.972	2.450	0.66470	-0.51944	0.34018	-0.41534	31.3	13111	100
2025-3-27 18:28:20.289	WT901BLE68-01(48591DE3C19B)	-0.263	-0.868	0.009	-22.461	-146.606	110.901	-77.87	3.16	-62.86	-61.446	-20.972	2.450	0.67252	-0.52478	0.34586	-0.39066	31.3	13111	100
2025-3-27 18:28:20.352	WT901BLE68-01(48591DE3C19B)	-0.185	-0.868	0.009	-22.461	-146.606	110.901	-77.94	4.03	-61.37	-61.446	-20.972	2.450	0.67252	-0.52478	0.34586	-0.39066	31.3	13111	100
2025-3-27 18:28:20.353	WT901BLE68-01(48591DE3C19B)	-0.185	-0.927	-0.028	-13.123	-146.057	120.178	-77.92	4.99	-59.87	-61.446	-20.972	2.450	0.67252	-0.52478	0.34586	-0.39066	31.3	13111	100
2025-3-27 18:28:20.353	WT901BLE68-01(48591DE3C19B)	-0.135	-0.927	-0.028	-13.123	-146.057	120.178	-77.87	5.93	-58.37	-61.446	-20.972	2.450	0.67252	-0.52478	0.34586	-0.39066	31.3	13111	100
2025-3-27 18:28:20.353	WT901BLE68-01(48591DE3C19B)	-0.135	-1.036	0.008	-2.808	-137.817	122.437	-77.70	6.91	-56.95	-61.446	-20.972	2.450	0.67252	-0.52478	0.34586	-0.39066	31.3	13111	100
2025-3-27 18:28:20.379	WT901BLE68-01(48591DE3C19B)	-0.084	-1.036	0.008	-2.808	-137.817	122.437	-77.52	7.87	-55.52	-61.446	-20.972	2.450	0.67252	-0.52478	0.34586	-0.39066	31.3	13111	100
2025-3-27 18:28:20.379	WT901BLE68-01(48591DE3C19B)	-0.084	-1.052	0.062	13.855	-117.737	123.535	-77.18	8.87	-54.30	-61.446	-20.972	2.450	0.67252	-0.52478	0.34586	-0.39066	31.3	13111	100
2025-3-27 18:28:20.379	WT901BLE68-01(48591DE3C19B)	-0.066	-1.052	0.062	13.855	-117.737	123.535	-76.83	9.84	-53.07	-61.446	-20.972	2.450	0.67252	-0.52478	0.34586	-0.39066	31.3	13111	100
2025-3-27 18:28:20.379	WT901BLE68-01(48591DE3C19B)	-0.066	-0.956	0.073	24.170	-89.966	122.253	-76.40	10.85	-52.11	-61.446	-20.972	2.450	0.67252	-0.52478	0.34586	-0.39066	31.3	13111	100
2025-3-27 18:28:20.409	WT901BLE68-01(48591DE3C19B)	-0.047	-0.956	0.073	24.170	-89.966	122.253	-75.95	11.85	-51.15	-61.446	-20.972	2.450	0.67252	-0.52478	0.34586	-0.39066	31.3	13111	100
2025-3-27 18:28:20.409	WT901BLE68-01(48591DE3C19B)	-0.047	-0.915	0.051	27.649	-62.195	120.300	-75.53	12.87	-50.46	-61.446	-20.972	2.450	0.67252	-0.52478	0.34586	-0.39066	31.3	13111	100
2025-3-27 18:28:20.409	WT901BLE68-01(48591DE3C19B)	-0.011	-0.915	0.051	27.649	-62.195	120.300	-75.08	13.88	-49.76	-61.446	-20.972	2.450	0.67252	-0.52478	0.34586	-0.39066	31.3	13111	100
2025-3-27 18:28:20.409	WT901BLE68-01(48591DE3C19B)	0.007	-0.974	-0.004	28.198	-29.236	117.981	-74.71	14.94	-49.40	-61.446	-20.972	2.450	0.67252	-0.52478	0.34586	-0.39066	31.3	13111	100
2025-3-27 18:28:20.470	WT901BLE68-01(48591DE3C19B)	0.007	-1.033	-0.043	28.259	1.343	116.150	-74.37	16.01	-49.18	-61.446	-20.972	2.450	0.67252	-0.52478	0.34586	-0.39066	31.3	13111	100
2025-3-27 18:28:20.470	WT901BLE68-01(48591DE3C19B)	-0.011	-1.033	-0.043	28.259	1.343	116.150	-74.09	17.11	-49.11	-61.446	-20.972	2.450	0.67252	-0.52478	0.34586	-0.39066	31.3	13111	100
2025-3-27 18:28:20.470	WT901BLE68-01(48591DE3C19B)	-0.011	-1.116	-0.042	20.020	18.677	117.554	-73.86	18.23	-49.13	-61.446	-20.972	2.450	0.67252	-0.52478	0.34586	-0.39066	31.3	13111	100
2025-3-27 18:28:20.470	WT901BLE68-01(48591DE3C19B)	-0.098	-1.116	-0.042	20.020	18.677	117.554	-73.71	19.37	-49.23	-61.446	-20.972	2.450	0.67252	-0.52478	0.34586	-0.39066	31.3	13111	100
2025-3-27 18:28:20.502	WT901BLE68-01(48591DE3C19B)	-0.098	-1.298	-0.039	7.874	21.851	119.019	-73.64	20.51	-49.34	-72.128	-5.488	-0.490	0.67252	-0.52478	0.34586	-0.39066	31.3	13111	100
2025-3-27 18:28:20.502	WT901BLE68-01(48591DE3C19B)	-0.093	-1.298	-0.039	7.874	21.851	119.019	-73.62	21.66	-49.47	-72.128	-5.488	-0.490	0.67252	-0.52478	0.34586	-0.39066	31.3	13111	100
2025-3-27 18:28:20.502	WT901BLE68-01(48591DE3C19B)	-0.093	-1.572	-0.028	-1.465	15.076	113.953	-73.66	22.76	-49.57	-72.128	-5.488	-0.490	0.67252	-0.52478	0.34586	-0.39066	31.3	13111	100
2025-3-27 18:28:20.502	WT901BLE68-01(48591DE3C19B)	-0.026	-1.572	-0.028	-1.465	15.076	113.953	-73.72	23.83	-49.65	-72.128	-5.488	-0.490	0.67252	-0.52478	0.34586	-0.39066	31.3	13111	100
2025-3-27 18:28:20.531	WT901BLE68-01(48591DE3C19B)	-0.026	-1.778	-0.040	0.122	-1.038	106.812	-73.76	24.83	-49.65	-72.128	-5.488	-0.490	0.67252	-0.52478	0.34586	-0.39066	31.3	13111	100
2025-3-27 18:28:20.531	WT901BLE68-01(48591DE3C19B)	-0.016	-1.778	-0.040	0.122	-1.038	106.812	-73.75	25.77	-49.59	-72.128	-5.488	-0.490	0.67252	-0.52478	0.34586	-0.39066	31.3	13111	100
2025-3-27 18:28:20.531	WT901BLE68-01(48591DE3C19B)	-0.016	-1.714	-0.038	8.545	-25.574	97.412	-73.65	26.62	-49.41	-72.128	-5.488	-0.490	0.67252	-0.52478	0.34586	-0.39066	31.3	13111	100
2025-3-27 18:28:20.531	WT901BLE68-01(48591DE3C19B)	0.113	-1.714	-0.038	8.545	-25.574	97.412	-73.46	27.39	-49.11	-72.128	-5.488	-0.490	0.67252	-0.52478	0.34586	-0.39066	31.3	13111	100
2025-3-27 18:28:20.589	WT901BLE68-01(48591DE3C19B)	0.113	-1.516	-0.007	12.390	-44.312	79.468	-73.21	28.03	-48.74	-72.128	-5.488	-0.490	0.67252	-0.52478	0.34586	-0.39066	31.3	13111	100
2025-3-27 18:28:20.589	WT901BLE68-01(48591DE3C19B)	0.283	-1.516	-0.007	12.390	-44.312	79.468	-72.89	28.55	-48.30	-72.128	-5.488	-0.490	0.67252	-0.52478	0.34586	-0.39066	31.3	13111	100
2025-3-27 18:28:20.589	WT901BLE68-01(48591DE3C19B)	0.283	-1.358	0.004	12.695	-37.781	61.401	-72.61	28.99	-47.91	-72.128	-5.488	-0.490	0.67252	-0.52478	0.34586	-0.39066	31.3	13111	100
2025-3-27 18:28:20.589	WT901BLE68-01(48591DE3C19B)	0.395	-1.358	0.004	12.695	-37.781	61.401	-72.37	29.34	-47.60	-72.128	-5.488	-0.490	0.67252	-0.52478	0.34586	-0.39066	31.3	13111	100
2025-3-27 18:28:20.621	WT901BLE68-01(48591DE3C19B)	0.395	-1.248	0.002	11.475	-16.418	41.260	-72.20	29.62	-47.44	-72.128	-5.488	-0.490	0.67252	-0.52478	0.34586	-0.39066	31.3	13111	100
2025-3-27 18:28:20.622	WT901BLE68-01(48591DE3C19B)	0.429	-1.248	0.002	11.475	-16.418	41.260	-72.11	29.83	-47.43	-72.128	-5.488	-0.490	0.67252	-0.52478	0.34586	-0.39066	31.3	13111	100
2025-3-27 18:28:20.622	WT901BLE68-01(48591DE3C19B)	0.429	-1.259	0.013	10.986	8.057	16.907	-72.13	29.94	-47.60	-72.128	-5.488	-0.490	0.67252	-0.52478	0.34586	-0.39066	31.3	13111	100
2025-3-27 18:28:20.622	WT901BLE68-01(48591DE3C19B)	0.394	-1.259	0.013	10.986	8.057	16.907	-72.23	29.98	-47.95	-72.128	-5.488	-0.490	0.67252	-0.52478	0.34586	-0.39066	31.3	13111	100
2025-3-27 18:28:20.651	WT901BLE68-01(48591DE3C19B)	0.394	-1.378	-0.008	14.648	38.574	-11.414	-72.43	29.91	-48.52	-72.128	-5.488	-0.490	0.67252	-0.52478	0.34586	-0.39066	31.3	13111	100
2025-3-27 18:28:20.652	WT901BLE68-01(48591DE3C19B)	0.328	-1.378	-0.008	14.648	38.574	-11.414	-72.71	29.75	-49.30	-72.128	-5.488	-0.490	0.67252	-0.52478	0.34586	-0.39066	31.3	13111	100
2025-3-27 18:28:20.652	WT901BLE68-01(48591DE3C19B)	0.328	-1.351	-0.038	25.391	66.406	-36.072	-73.04	29.51	-50.26	-72.128	-5.488	-0.490	0.76614	-0.43375	0.43130	-0.19687	31.3	13111	100
2025-3-27 18:28:20.652	WT901BLE68-01(48591DE3C19B)	0.259	-1.351	-0.038	25.391	66.406	-36.072	-73.40	29.18	-51.42	-72.128	-5.488	-0.490	0.76614	-0.43375	0.43130	-0.19687	31.3	13111	100
2025-3-27 18:28:20.709	WT901BLE68-01(48591DE3C19B)	0.259	-1.236	-0.021	28.259	86.975	-55.420	-73.80	28.78	-52.70	-72.128	-5.488	-0.490	0.76614	-0.43375	0.43130	-0.19687	31.3	13111	100
2025-3-27 18:28:20.710	WT901BLE68-01(48591DE3C19B)	0.214	-1.236	-0.021	28.259	86.975	-55.420	-74.24	28.31	-54.11	-72.128	-5.488	-0.490	0.76614	-0.43375	0.43130	-0.19687	31.3	13111	100
2025-3-27 18:28:20.710	WT901BLE68-01(48591DE3C19B)	0.214	-1.125	0.018	33.630	98.816	-70.801	-74.68	27.77	-55.59	-72.128	-5.488	-0.490	0.76614	-0.43375	0.43130	-0.19687	31.3	13111	100
2025-3-27 18:28:20.710	WT901BLE68-01(48591DE3C19B)	0.162	-1.125	0.018	33.630	98.816	-70.801	-75.11	27.16	-57.13	-72.128	-5.488	-0.490	0.76614	-0.43375	0.43130	-0.19687	31.3	13111	100
2025-3-27 18:28:20.738	WT901BLE68-01(48591DE3C19B)	0.162	-0.986	0.079	32.227	103.149	-81.299	-75.54	26.50	-58.69	-72.128	-5.488	-0.490	0.76614	-0.43375	0.43130	-0.19687	31.3	13111	100
2025-3-27 18:28:20.739	WT901BLE68-01(48591DE3C19B)	0.099	-0.986	0.079	32.227	103.149	-81.299	-75.95	25.79	-60.26	-72.128	-5.488	-0.490	0.76614	-0.43375	0.43130	-0.19687	31.3	13111	100
2025-3-27 18:28:20.739	WT901BLE68-01(48591DE3C19B)	0.099	-0.951	0.126	25.940	99.548	-89.966	-76.38	25.03	-61.80	-72.128	-5.488	-0.490	0.76614	-0.43375	0.43130	-0.19687	31.3	13111	100
2025-3-27 18:28:20.739	WT901BLE68-01(48591DE3C19B)	0.062	-0.951	0.126	25.940	99.548	-89.966	-76.79	24.21	-63.31	-72.128	-5.488	-0.490	0.76614	-0.43375	0.43130	-0.19687	31.3	13111	100
2025-3-27 18:28:20.769	WT901BLE68-01(48591DE3C19B)	0.062	-0.999	0.157	21.118	91.736	-100.159	-77.18	23.32	-64.75	-72.128	-5.488	-0.490	0.76614	-0.43375	0.43130	-0.19687	31.3	13111	100
2025-3-27 18:28:20.769	WT901BLE68-01(48591DE3C19B)	-0.006	-0.999	0.157	21.118	91.736	-100.159	-77.55	22.38	-66.15	-72.128	-5.488	-0.490	0.76614	-0.43375	0.43130	-0.19687	31.3	13111	100
2025-3-27 18:28:20.769	WT901BLE68-01(48591DE3C19B)	-0.006	-0.974	0.173	20.508	86.548	-111.328	-77.88	21.38	-67.51	-72.128	-5.488	-0.490	0.76614	-0.43375	0.43130	-0.19687	31.3	13111	100
2025-3-27 18:28:20.769	WT901BLE68-01(48591DE3C19B)	-0.092	-0.974	0.173	20.508	86.548	-111.328	-78.17	20.31	-68.82	-72.128	-5.488	-0.490	0.76614	-0.43375	0.43130	-0.19687	31.3	13111	100
2025-3-27 18:28:20.831	WT901BLE68-01(48591DE3C19B)	-0.092	-0.939	0.176	18.616	80.566	-125.183	-78.44	19.18	-70.09	-72.128	-5.488	-0.490	0.76614	-0.43375	0.43130	-0.19687	31.3	13111	100
2025-3-27 18:28:20.831	WT901BLE68-01(48591DE3C19B)	-0.171	-0.939	0.176	18.616	80.566	-125.183	-78.67	17.98	-71.33	-72.128	-5.488	-0.490	0.76614	-0.43375	0.43130	-0.19687	31.3	13111	100
2025-3-27 18:28:20.831	WT901BLE68-01(48591DE3C19B)	-0.171	-0.958	0.154	18.982	71.472	-140.442	-78.86	16.71	-72.51	-72.128	-5.488	-0.490	0.76614	-0.43375	0.43130	-0.19687	31.3	13111	100
2025-3-27 18:28:20.831	WT901BLE68-01(48591DE3C19B)	-0.237	-0.958	0.154	18.982	71.472	-140.442	-79.00	15.36	-73.64	-72.128	-5.488	-0.490	0.76614	-0.43375	0.43130	-0.19687	31.3	13111	100
2025-3-27 18:28:20.861	WT901BLE68-01(48591DE3C19B)	-0.237	-0.918	0.132	22.339	57.861	-153.564	-79.08	13.95	-74.70	-72.128	-5.488	-0.490	0.76614	-0.43375	0.43130	-0.19687	31.3	13111	100
2025-3-27 18:28:20.861	WT901BLE68-01(48591DE3C19B)	-0.278	-0.918	0.132	22.339	57.861	-153.564	-79.10	12.47	-75.68	-72.128	-5.488	-0.490	0.76614	-0.43375	0.43130	-0.19687	31.3	13111	100
2025-3-27 18:28:20.861	WT901BLE68-01(48591DE3C19B)	-0.278	-0.837	0.138	22.034	40.833	-163.086	-79.08	10.95	-76.57	-72.128	-5.488	-0.490	0.76614	-0.43375	0.43130	-0.19687	31.3	13111	100
2025-3-27 18:28:20.861	WT901BLE68-01(48591DE3C19B)	-0.305	-0.837	0.138	22.034	40.833	-163.086	-79.02	9.39	-77.39	-61.936	-8.134	-0.686	0.76614	-0.43375	0.43130	-0.19687	31.3	13111	100
2025-3-27 18:28:20.891	WT901BLE68-01(48591DE3C19B)	-0.305	-0.764	0.178	18.494	24.902	-168.945	-78.94	7.80	-78.12	-61.936	-8.134	-0.686	0.76614	-0.43375	0.43130	-0.19687	31.3	13111	100
2025-3-27 18:28:20.891	WT901BLE68-01(48591DE3C19B)	-0.333	-0.764	0.178	18.494	24.902	-168.945	-78.85	6.18	-78.77	-61.936	-8.134	-0.686	0.76614	-0.43375	0.43130	-0.19687	31.3	13111	100
2025-3-27 18:28:20.891	WT901BLE68-01(48591DE3C19B)	-0.333	-0.724	0.221	13.855	8.972	-172.180	-78.77	4.52	-79.27	-61.936	-8.134	-0.686	0.76614	-0.43375	0.43130	-0.19687	31.3	13111	100
2025-3-27 18:28:20.891	WT901BLE68-01(48591DE3C19B)	-0.332	-0.724	0.221	13.855	8.972	-172.180	-78.67	2.88	-79.76	-61.936	-8.134	-0.686	0.76614	-0.43375	0.43130	-0.19687	31.3	13111	100
2025-3-27 18:28:20.952	WT901BLE68-01(48591DE3C19B)	-0.332	-0.698	0.281	10.864	-9.155	-172.485	-78.58	1.22	-80.08	-61.936	-8.134	-0.686	0.76614	-0.43375	0.43130	-0.19687	31.3	13111	100
2025-3-27 18:28:20.952	WT901BLE68-01(48591DE3C19B)	-0.326	-0.698	0.281	10.864	-9.155	-172.485	-78.47	-0.42	-80.40	-61.936	-8.134	-0.686	0.76614	-0.43375	0.43130	-0.19687	31.3	13111	100
2025-3-27 18:28:20.952	WT901BLE68-01(48591DE3C19B)	-0.326	-0.670	0.358	5.493	-8.911	-167.969	-78.40	-2.00	-80.71	-61.936	-8.134	-0.686	0.76614	-0.43375	0.43130	-0.19687	31.3	13111	100
2025-3-27 18:28:20.952	WT901BLE68-01(48591DE3C19B)	-0.463	-0.670	0.358	5.493	-8.911	-167.969	-78.32	-3.57	-81.03	-61.936	-8.134	-0.686	0.76614	-0.43375	0.43130	-0.19687	31.3	13111	100
2025-3-27 18:28:20.978	WT901BLE68-01(48591DE3C19B)	-0.463	-0.735	0.393	1.099	16.113	-153.076	-78.24	-4.92	-81.56	-61.936	-8.134	-0.686	0.76614	-0.43375	0.43130	-0.19687	31.3	13111	100
2025-3-27 18:28:20.979	WT901BLE68-01(48591DE3C19B)	-0.517	-0.735	0.393	1.099	16.113	-153.076	-78.15	-6.26	-82.10	-61.936	-8.134	-0.686	0.76614	-0.43375	0.43130	-0.19687	31.3	13111	100
2025-3-27 18:28:20.979	WT901BLE68-01(48591DE3C19B)	-0.517	-0.812	0.338	0.000	64.514	-134.277	-78.00	-7.30	-83.08	-61.936	-8.134	-0.686	0.76614	-0.43375	0.43130	-0.19687	31.3	13111	100
2025-3-27 18:28:20.979	WT901BLE68-01(48591DE3C19B)	-0.461	-0.812	0.338	0.000	64.514	-134.277	-77.83	-8.32	-84.06	-61.936	-8.134	-0.686	0.76614	-0.43375	0.43130	-0.19687	31.3	13111	100
2025-3-27 18:28:21.9	WT901BLE68-01(48591DE3C19B)	-0.461	-0.940	0.278	0.793	122.437	-109.863	-77.56	-8.96	-85.56	-61.936	-8.134	-0.686	0.76614	-0.43375	0.43130	-0.19687	31.3	13111	100
2025-3-27 18:28:21.9	WT901BLE68-01(48591DE3C19B)	-0.623	-0.940	0.278	0.793	122.437	-109.863	-77.28	-9.60	-87.06	-61.936	-8.134	-0.686	0.76614	-0.43375	0.43130	-0.19687	31.3	13111	100
2025-3-27 18:28:21.9	WT901BLE68-01(48591DE3C19B)	-0.623	-1.151	0.213	-1.831	140.747	-81.848	-77.00	-9.89	-88.67	-61.936	-8.134	-0.686	0.76614	-0.43375	0.43130	-0.19687	31.3	13111	100
2025-3-27 18:28:21.9	WT901BLE68-01(48591DE3C19B)	-0.866	-1.151	0.213	-1.831	140.747	-81.848	-76.72	-10.18	-90.26	-61.936	-8.134	-0.686	0.76614	-0.43375	0.43130	-0.19687	31.3	13111	100
2025-3-27 18:28:21.69	WT901BLE68-01(48591DE3C19B)	-0.866	-1.362	0.226	3.479	129.395	-55.237	-76.43	-10.22	-91.68	-61.936	-8.134	-0.686	0.76614	-0.43375	0.43130	-0.19687	31.3	13111	100
2025-3-27 18:28:21.70	WT901BLE68-01(48591DE3C19B)	-1.055	-1.362	0.226	3.479	129.395	-55.237	-76.14	-10.24	-93.09	-61.936	-8.134	-0.686	0.76614	-0.43375	0.43130	-0.19687	31.3	13111	100
2025-3-27 18:28:21.70	WT901BLE68-01(48591DE3C19B)	-1.055	-1.434	0.285	7.751	110.291	-32.593	-75.86	-10.07	-94.25	-61.936	-8.134	-0.686	0.76614	-0.43375	0.43130	-0.19687	31.3	13111	100
2025-3-27 18:28:21.70	WT901BLE68-01(48591DE3C19B)	-1.161	-1.434	0.285	7.751	110.291	-32.593	-75.59	-9.90	-95.40	-61.936	-8.134	-0.686	0.76614	-0.43375	0.43130	-0.19687	31.3	13111	100
2025-3-27 18:28:21.98	WT901BLE68-01(48591DE3C19B)	-1.161	-1.436	0.286	12.634	89.233	-9.094	-75.32	-9.54	-96.27	-61.936	-8.134	-0.686	0.48859	-0.45532	0.40955	-0.62140	31.3	13111	100
2025-3-27 18:28:21.98	WT901BLE68-01(48591DE3C19B)	-1.060	-1.436	0.286	12.634	89.233	-9.094	-75.07	-9.16	-97.15	-61.936	-8.134	-0.686	0.48859	-0.45532	0.40955	-0.62140	31.3	13111	100
2025-3-27 18:28:21.98	WT901BLE68-01(48591DE3C19B)	-1.060	-1.225	0.247	7.874	71.106	9.583	-74.91	-8.65	-97.78	-61.936	-8.134	-0.686	0.48859	-0.45532	0.40955	-0.62140	31.3	13111	100
2025-3-27 18:28:21.98	WT901BLE68-01(48591DE3C19B)	-0.899	-1.225	0.247	7.874	71.106	9.583	-74.76	-8.13	-98.42	-61.936	-8.134	-0.686	0.48859	-0.45532	0.40955	-0.62140	31.3	13111	100
2025-3-27 18:28:21.129	WT901BLE68-01(48591DE3C19B)	-0.899	-1.046	0.215	-9.155	53.284	35.522	-74.82	-7.41	-98.80	-61.936	-8.134	-0.686	0.48859	-0.45532	0.40955	-0.62140	31.3	13111	100
2025-3-27 18:28:21.129	WT901BLE68-01(48591DE3C19B)	-0.872	-1.046	0.215	-9.155	53.284	35.522	-74.88	-6.69	-99.19	-61.936	-8.134	-0.686	0.48859	-0.45532	0.40955	-0.62140	31.3	13111	100
2025-3-27 18:28:21.129	WT901BLE68-01(48591DE3C19B)	-0.872	-0.944	0.226	-26.428	21.484	56.519	-75.17	-5.84	-99.21	-61.936	-8.134	-0.686	0.48859	-0.45532	0.40955	-0.62140	31.3	13111	100
2025-3-27 18:28:21.129	WT901BLE68-01(48591DE3C19B)	-0.871	-0.944	0.226	-26.428	21.484	56.519	-75.45	-5.01	-99.24	-61.936	-8.134	-0.686	0.48859	-0.45532	0.40955	-0.62140	31.3	13111	100
2025-3-27 18:28:21.189	WT901BLE68-01(48591DE3C19B)	-0.871	-0.893	0.229	-40.283	-34.912	70.740	-75.92	-4.17	-98.70	-61.936	-8.134	-0.686	0.48859	-0.45532	0.40955	-0.62140	31.3	13111	100
2025-3-27 18:28:21.190	WT901BLE68-01(48591DE3C19B)	-0.843	-0.893	0.229	-40.283	-34.912	70.740	-76.37	-3.33	-98.16	-61.936	-8.134	-0.686	0.48859	-0.45532	0.40955	-0.62140	31.3	13111	100
2025-3-27 18:28:21.190	WT901BLE68-01(48591DE3C19B)	-0.843	-0.876	0.187	-48.889	-96.985	84.412	-76.92	-2.50	-97.00	-61.936	-8.134	-0.686	0.48859	-0.45532	0.40955	-0.62140	31.3	13111	100
2025-3-27 18:28:21.190	WT901BLE68-01(48591DE3C19B)	-0.803	-0.876	0.187	-48.889	-96.985	84.412	-77.45	-1.66	-95.86	-61.936	-8.134	-0.686	0.48859	-0.45532	0.40955	-0.62140	31.3	13111	100
2025-3-27 18:28:21.219	WT901BLE68-01(48591DE3C19B)	-0.803	-0.869	0.109	-52.979	-154.541	102.356	-78.02	-0.75	-94.13	-61.936	-8.134	-0.686	0.48859	-0.45532	0.40955	-0.62140	31.3	13111	100
2025-3-27 18:28:21.219	WT901BLE68-01(48591DE3C19B)	-0.739	-0.869	0.109	-52.979	-154.541	102.356	-78.56	0.16	-92.41	-61.936	-8.134	-0.686	0.48859	-0.45532	0.40955	-0.62140	31.3	13111	100
2025-3-27 18:28:21.219	WT901BLE68-01(48591DE3C19B)	-0.739	-0.916	0.041	-53.284	-208.435	123.779	-79.06	1.19	-90.14	-61.936	-8.134	-0.686	0.48859	-0.45532	0.40955	-0.62140	31.3	13111	100
2025-3-27 18:28:21.219	WT901BLE68-01(48591DE3C19B)	-0.619	-0.916	0.041	-53.284	-208.435	123.779	-79.52	2.24	-87.89	-61.936	-8.134	-0.686	0.48859	-0.45532	0.40955	-0.62140	31.3	13111	100
2025-3-27 18:28:21.251	WT901BLE68-01(48591DE3C19B)	-0.619	-1.035	-0.035	-45.959	-251.770	145.447	-79.84	3.43	-85.19	-61.936	-8.134	-0.686	0.48859	-0.45532	0.40955	-0.62140	31.3	13111	100
2025-3-27 18:28:21.252	WT901BLE68-01(48591DE3C19B)	-0.456	-1.035	-0.035	-45.959	-251.770	145.447	-80.10	4.62	-82.50	-61.936	-8.134	-0.686	0.48859	-0.45532	0.40955	-0.62140	31.3	13111	100
2025-3-27 18:28:21.252	WT901BLE68-01(48591DE3C19B)	-0.456	-1.176	-0.107	-29.358	-274.902	162.537	-80.12	5.93	-79.56	-61.936	-8.134	-0.686	0.48859	-0.45532	0.40955	-0.62140	31.3	13111	100
2025-3-27 18:28:21.252	WT901BLE68-01(48591DE3C19B)	-0.346	-1.176	-0.107	-29.358	-274.902	162.537	-80.07	7.23	-76.63	-61.936	-8.134	-0.686	0.48859	-0.45532	0.40955	-0.62140	31.3	13111	100
2025-3-27 18:28:21.309	WT901BLE68-01(48591DE3C19B)	-0.346	-1.318	-0.126	-6.165	-279.297	169.922	-79.73	8.56	-73.64	-61.936	-8.134	-0.686	0.48859	-0.45532	0.40955	-0.62140	31.3	13111	100
2025-3-27 18:28:21.310	WT901BLE68-01(48591DE3C19B)	-0.264	-1.318	-0.126	-6.165	-279.297	169.922	-79.32	9.86	-70.64	-66.934	-10.192	0.098	0.48859	-0.45532	0.40955	-0.62140	31.3	13111	100
2025-3-27 18:28:21.310	WT901BLE68-01(48591DE3C19B)	-0.264	-1.486	-0.085	15.747	-268.555	174.194	-78.64	11.17	-67.74	-66.934	-10.192	0.098	0.48859	-0.45532	0.40955	-0.62140	31.3	13111	100
2025-3-27 18:28:21.310	WT901BLE68-01(48591DE3C19B)	-0.180	-1.486	-0.085	15.747	-268.555	174.194	-77.90	12.43	-64.82	-66.934	-10.192	0.098	0.48859	-0.45532	0.40955	-0.62140	31.3	13111	100
2025-3-27 18:28:21.338	WT901BLE68-01(48591DE3C19B)	-0.180	-1.607	-0.052	42.114	-237.000	172.546	-76.90	13.68	-62.21	-66.934	-10.192	0.098	0.48859	-0.45532	0.40955	-0.62140	31.3	13111	100
2025-3-27 18:28:21.338	WT901BLE68-01(48591DE3C19B)	-0.056	-1.607	-0.052	42.114	-237.000	172.546	-75.86	14.86	-59.58	-66.934	-10.192	0.098	0.48859	-0.45532	0.40955	-0.62140	31.3	13111	100
2025-3-27 18:28:21.339	WT901BLE68-01(48591DE3C19B)	-0.056	-1.453	-0.019	66.223	-181.335	174.377	-74.66	16.13	-57.47	-66.934	-10.192	0.098	0.48859	-0.45532	0.40955	-0.62140	31.3	13111	100
2025-3-27 18:28:21.339	WT901BLE68-01(48591DE3C19B)	-0.012	-1.453	-0.019	66.223	-181.335	174.377	-73.42	17.35	-55.35	-66.934	-10.192	0.098	0.48859	-0.45532	0.40955	-0.62140	31.3	13111	100
2025-3-27 18:28:21.369	WT901BLE68-01(48591DE3C19B)	0.001	-1.228	-0.002	72.449	-110.291	178.528	-72.28	18.75	-53.89	-66.934	-10.192	0.098	0.48859	-0.45532	0.40955	-0.62140	31.3	13111	100
2025-3-27 18:28:21.370	WT901BLE68-01(48591DE3C19B)	0.001	-1.136	-0.010	67.200	-37.476	184.143	-71.25	20.25	-52.77	-66.934	-10.192	0.098	0.48859	-0.45532	0.40955	-0.62140	31.3	13111	100
2025-3-27 18:28:21.370	WT901BLE68-01(48591DE3C19B)	-0.005	-1.136	-0.010	67.200	-37.476	184.143	-70.33	21.85	-51.97	-66.934	-10.192	0.098	0.48859	-0.45532	0.40955	-0.62140	31.3	13111	100
2025-3-27 18:28:21.370	WT901BLE68-01(48591DE3C19B)	-0.005	-1.156	0.019	58.716	22.949	191.711	-69.55	23.58	-51.43	-66.934	-10.192	0.098	0.48859	-0.45532	0.40955	-0.62140	31.3	13111	100
2025-3-27 18:28:21.431	WT901BLE68-01(48591DE3C19B)	-0.046	-1.156	0.019	58.716	22.949	191.711	-68.90	25.41	-51.16	-66.934	-10.192	0.098	0.48859	-0.45532	0.40955	-0.62140	31.3	13111	100
2025-3-27 18:28:21.431	WT901BLE68-01(48591DE3C19B)	-0.046	-1.187	0.026	48.767	63.416	197.754	-68.37	27.33	-51.08	-66.934	-10.192	0.098	0.48859	-0.45532	0.40955	-0.62140	31.3	13111	100
2025-3-27 18:28:21.431	WT901BLE68-01(48591DE3C19B)	-0.083	-1.187	0.026	48.767	63.416	197.754	-67.98	29.34	-51.17	-66.934	-10.192	0.098	0.48859	-0.45532	0.40955	-0.62140	31.3	13111	100
2025-3-27 18:28:21.431	WT901BLE68-01(48591DE3C19B)	-0.083	-1.221	0.032	34.851	86.853	200.928	-67.71	31.39	-51.38	-66.934	-10.192	0.098	0.48859	-0.45532	0.40955	-0.62140	31.3	13111	100
2025-3-27 18:28:21.461	WT901BLE68-01(48591DE3C19B)	-0.163	-1.221	0.032	34.851	86.853	200.928	-67.58	33.49	-51.71	-66.934	-10.192	0.098	0.48859	-0.45532	0.40955	-0.62140	31.3	13111	100
2025-3-27 18:28:21.461	WT901BLE68-01(48591DE3C19B)	-0.163	-1.321	0.003	19.470	87.280	198.547	-67.54	35.56	-52.04	-66.934	-10.192	0.098	0.48859	-0.45532	0.40955	-0.62140	31.3	13111	100
2025-3-27 18:28:21.461	WT901BLE68-01(48591DE3C19B)	-0.271	-1.321	0.003	19.470	87.280	198.547	-67.59	37.61	-52.40	-66.934	-10.192	0.098	0.48859	-0.45532	0.40955	-0.62140	31.3	13111	100
2025-3-27 18:28:21.461	WT901BLE68-01(48591DE3C19B)	-0.271	-1.405	-0.049	9.766	65.002	189.392	-67.64	39.56	-52.66	-66.934	-10.192	0.098	0.78415	-0.34467	0.48431	-0.17789	31.3	13111	100
2025-3-27 18:28:21.491	WT901BLE68-01(48591DE3C19B)	-0.317	-1.405	-0.049	9.766	65.002	189.392	-67.67	41.42	-52.82	-66.934	-10.192	0.098	0.78415	-0.34467	0.48431	-0.17789	31.3	13111	100
2025-3-27 18:28:21.491	WT901BLE68-01(48591DE3C19B)	-0.317	-1.498	-0.089	-1.892	24.719	169.189	-67.63	43.11	-52.78	-66.934	-10.192	0.098	0.78415	-0.34467	0.48431	-0.17789	31.3	13111	100
2025-3-27 18:28:21.491	WT901BLE68-01(48591DE3C19B)	-0.208	-1.498	-0.089	-1.892	24.719	169.189	-67.51	44.62	-52.54	-66.934	-10.192	0.098	0.78415	-0.34467	0.48431	-0.17789	31.3	13111	100
2025-3-27 18:28:21.491	WT901BLE68-01(48591DE3C19B)	-0.208	-1.649	-0.092	-7.385	-18.494	140.320	-67.24	45.90	-52.08	-66.934	-10.192	0.098	0.78415	-0.34467	0.48431	-0.17789	31.3	13111	100
2025-3-27 18:28:21.551	WT901BLE68-01(48591DE3C19B)	-0.077	-1.649	-0.092	-7.385	-18.494	140.320	-66.85	46.96	-51.39	-66.934	-10.192	0.098	0.78415	-0.34467	0.48431	-0.17789	31.3	13111	100
2025-3-27 18:28:21.551	WT901BLE68-01(48591DE3C19B)	-0.077	-1.629	-0.063	-3.845	-56.519	109.009	-66.28	47.79	-50.53	-66.934	-10.192	0.098	0.78415	-0.34467	0.48431	-0.17789	31.3	13111	100
2025-3-27 18:28:21.551	WT901BLE68-01(48591DE3C19B)	0.058	-1.629	-0.063	-3.845	-56.519	109.009	-65.56	48.38	-49.48	-66.934	-10.192	0.098	0.78415	-0.34467	0.48431	-0.17789	31.3	13111	100
2025-3-27 18:28:21.551	WT901BLE68-01(48591DE3C19B)	0.058	-1.487	-0.005	-4.761	-86.426	72.388	-64.76	48.74	-48.33	-66.934	-10.192	0.098	0.78415	-0.34467	0.48431	-0.17789	31.3	13111	100
2025-3-27 18:28:21.578	WT901BLE68-01(48591DE3C19B)	0.217	-1.487	-0.005	-4.761	-86.426	72.388	-63.90	48.85	-47.10	-66.934	-10.192	0.098	0.78415	-0.34467	0.48431	-0.17789	31.3	13111	100
2025-3-27 18:28:21.578	WT901BLE68-01(48591DE3C19B)	0.217	-1.373	0.083	-9.583	-88.379	33.752	-63.16	48.76	-45.98	-66.934	-10.192	0.098	0.78415	-0.34467	0.48431	-0.17789	31.3	13111	100
2025-3-27 18:28:21.578	WT901BLE68-01(48591DE3C19B)	0.272	-1.373	0.083	-9.583	-88.379	33.752	-62.55	48.48	-45.01	-66.934	-10.192	0.098	0.78415	-0.34467	0.48431	-0.17789	31.3	13111	100
2025-3-27 18:28:21.578	WT901BLE68-01(48591DE3C19B)	0.272	-1.247	0.194	-12.390	-64.270	-2.625	-62.18	48.09	-44.33	-66.934	-10.192	0.098	0.78415	-0.34467	0.48431	-0.17789	31.3	13111	100
2025-3-27 18:28:21.607	WT901BLE68-01(48591DE3C19B)	0.249	-1.247	0.194	-12.390	-64.270	-2.625	-62.05	47.58	-43.95	-66.934	-10.192	0.098	0.78415	-0.34467	0.48431	-0.17789	31.3	13111	100
2025-3-27 18:28:21.607	WT901BLE68-01(48591DE3C19B)	0.249	-1.196	0.243	-14.648	-28.137	-40.955	-62.20	46.98	-43.95	-66.934	-10.192	0.098	0.78415	-0.34467	0.48431	-0.17789	31.3	13111	100
2025-3-27 18:28:21.607	WT901BLE68-01(48591DE3C19B)	0.208	-1.196	0.243	-14.648	-28.137	-40.955	-62.63	46.30	-44.30	-66.934	-10.192	0.098	0.78415	-0.34467	0.48431	-0.17789	31.3	13111	100
2025-3-27 18:28:21.607	WT901BLE68-01(48591DE3C19B)	0.208	-1.135	0.210	-12.512	11.597	-78.308	-63.30	45.53	-45.02	-66.934	-10.192	0.098	0.78415	-0.34467	0.48431	-0.17789	31.3	13111	100
2025-3-27 18:28:21.668	WT901BLE68-01(48591DE3C19B)	0.189	-1.135	0.210	-12.512	11.597	-78.308	-64.19	44.68	-46.07	-66.934	-10.192	0.098	0.78415	-0.34467	0.48431	-0.17789	31.3	13111	100
2025-3-27 18:28:21.669	WT901BLE68-01(48591DE3C19B)	0.189	-1.006	0.188	-10.254	48.218	-110.901	-65.25	43.75	-47.41	-66.934	-10.192	0.098	0.78415	-0.34467	0.48431	-0.17789	31.3	13111	100
2025-3-27 18:28:21.669	WT901BLE68-01(48591DE3C19B)	0.097	-1.006	0.188	-10.254	48.218	-110.901	-66.47	42.72	-49.02	-66.934	-10.192	0.098	0.78415	-0.34467	0.48431	-0.17789	31.3	13111	100
2025-3-27 18:28:21.669	WT901BLE68-01(48591DE3C19B)	0.097	-0.951	0.180	-13.245	73.792	-137.756	-67.78	41.59	-50.78	-66.934	-10.192	0.098	0.78415	-0.34467	0.48431	-0.17789	31.3	13111	100
2025-3-27 18:28:21.728	WT901BLE68-01(48591DE3C19B)	-0.015	-0.951	0.180	-13.245	73.792	-137.756	-69.18	40.37	-52.69	-71.246	-9.996	-0.294	0.78415	-0.34467	0.48431	-0.17789	31.3	13111	100
2025-3-27 18:28:21.728	WT901BLE68-01(48591DE3C19B)	-0.015	-0.979	0.204	-12.573	81.604	-161.255	-70.54	39.02	-54.62	-71.246	-9.996	-0.294	0.78415	-0.34467	0.48431	-0.17789	31.3	13111	100
2025-3-27 18:28:21.728	WT901BLE68-01(48591DE3C19B)	-0.081	-0.979	0.204	-12.573	81.604	-161.255	-71.87	37.55	-56.55	-71.246	-9.996	-0.294	0.78415	-0.34467	0.48431	-0.17789	31.3	13111	100
2025-3-27 18:28:21.728	WT901BLE68-01(48591DE3C19B)	-0.081	-0.983	0.257	-8.911	74.463	-177.734	-73.07	35.96	-58.38	-71.246	-9.996	-0.294	0.78415	-0.34467	0.48431	-0.17789	31.3	13111	100
2025-3-27 18:28:21.758	WT901BLE68-01(48591DE3C19B)	-0.125	-0.983	0.257	-8.911	74.463	-177.734	-74.15	34.27	-60.10	-71.246	-9.996	-0.294	0.78415	-0.34467	0.48431	-0.17789	31.3	13111	100
2025-3-27 18:28:21.758	WT901BLE68-01(48591DE3C19B)	-0.125	-1.026	0.280	-7.751	62.866	-190.735	-75.10	32.48	-61.70	-71.246	-9.996	-0.294	0.78415	-0.34467	0.48431	-0.17789	31.3	13111	100
2025-3-27 18:28:21.758	WT901BLE68-01(48591DE3C19B)	-0.144	-1.026	0.280	-7.751	62.866	-190.735	-75.94	30.61	-63.18	-71.246	-9.996	-0.294	0.78415	-0.34467	0.48431	-0.17789	31.3	13111	100
2025-3-27 18:28:21.758	WT901BLE68-01(48591DE3C19B)	-0.144	-1.078	0.235	-7.385	53.345	-202.576	-76.67	28.67	-64.56	-71.246	-9.996	-0.294	0.78415	-0.34467	0.48431	-0.17789	31.3	13111	100
2025-3-27 18:28:21.819	WT901BLE68-01(48591DE3C19B)	-0.165	-1.078	0.235	-7.385	53.345	-202.576	-77.32	26.67	-65.83	-71.246	-9.996	-0.294	0.78415	-0.34467	0.48431	-0.17789	31.3	13111	100
2025-3-27 18:28:21.819	WT901BLE68-01(48591DE3C19B)	-0.165	-1.110	0.180	-5.981	46.997	-213.196	-77.89	24.61	-67.03	-71.246	-9.996	-0.294	0.78415	-0.34467	0.48431	-0.17789	31.3	13111	100
2025-3-27 18:28:21.820	WT901BLE68-01(48591DE3C19B)	-0.193	-1.110	0.180	-5.981	46.997	-213.196	-78.38	22.50	-68.17	-71.246	-9.996	-0.294	0.78415	-0.34467	0.48431	-0.17789	31.3	13111	100
2025-3-27 18:28:21.820	WT901BLE68-01(48591DE3C19B)	-0.193	-1.108	0.161	-4.944	41.687	-224.426	-78.81	20.34	-69.25	-71.246	-9.996	-0.294	0.78415	-0.34467	0.48431	-0.17789	31.3	13111	100
2025-3-27 18:28:21.820	WT901BLE68-01(48591DE3C19B)	-0.204	-1.108	0.161	-4.944	41.687	-224.426	-79.18	18.12	-70.27	-71.246	-9.996	-0.294	0.78415	-0.34467	0.48431	-0.17789	31.3	13111	100
2025-3-27 18:28:21.820	WT901BLE68-01(48591DE3C19B)	-0.204	-1.087	0.182	-3.906	42.969	-234.436	-79.50	15.87	-71.28	-71.246	-9.996	-0.294	0.78415	-0.34467	0.48431	-0.17789	31.3	13111	100
2025-3-27 18:28:21.820	WT901BLE68-01(48591DE3C19B)	-0.233	-1.087	0.182	-3.906	42.969	-234.436	-79.78	13.58	-72.27	-71.246	-9.996	-0.294	0.78415	-0.34467	0.48431	-0.17789	31.3	13111	100
2025-3-27 18:28:21.821	WT901BLE68-01(48591DE3C19B)	-0.233	-1.062	0.223	-3.906	52.795	-241.211	-80.04	11.27	-73.35	-71.246	-9.996	-0.294	0.78415	-0.34467	0.48431	-0.17789	31.3	13111	100
2025-3-27 18:28:21.879	WT901BLE68-01(48591DE3C19B)	-0.275	-1.062	0.223	-3.906	52.795	-241.211	-80.24	8.96	-74.40	-71.246	-9.996	-0.294	0.78415	-0.34467	0.48431	-0.17789	31.3	13111	100
2025-3-27 18:28:21.879	WT901BLE68-01(48591DE3C19B)	-0.275	-1.036	0.260	-2.808	64.453	-244.019	-80.41	6.66	-75.56	-71.246	-9.996	-0.294	0.78415	-0.34467	0.48431	-0.17789	31.3	13111	100
2025-3-27 18:28:21.879	WT901BLE68-01(48591DE3C19B)	-0.310	-1.036	0.260	-2.808	64.453	-244.019	-80.53	4.37	-76.70	-71.246	-9.996	-0.294	0.78415	-0.34467	0.48431	-0.17789	31.3	13111	100
2025-3-27 18:28:21.879	WT901BLE68-01(48591DE3C19B)	-0.310	-1.016	0.286	-1.099	72.754	-244.080	-80.59	2.11	-77.90	-71.246	-9.996	-0.294	0.78415	-0.34467	0.48431	-0.17789	31.3	13111	100
2025-3-27 18:28:21.909	WT901BLE68-01(48591DE3C19B)	-0.355	-1.016	0.286	-1.099	72.754	-244.080	-80.60	-0.12	-79.11	-71.246	-9.996	-0.294	0.58109	-0.50156	0.40811	-0.49405	31.3	13111	100
2025-3-27 18:28:21.909	WT901BLE68-01(48591DE3C19B)	-0.355	-0.989	0.287	1.770	74.524	-240.906	-80.54	-2.31	-80.31	-71.246	-9.996	-0.294	0.58109	-0.50156	0.40811	-0.49405	31.3	13111	100
2025-3-27 18:28:21.909	WT901BLE68-01(48591DE3C19B)	-0.440	-0.989	0.287	1.770	74.524	-240.906	-80.43	-4.47	-81.52	-71.246	-9.996	-0.294	0.58109	-0.50156	0.40811	-0.49405	31.3	13111	100
2025-3-27 18:28:21.909	WT901BLE68-01(48591DE3C19B)	-0.440	-0.992	0.298	5.066	60.669	-234.619	-80.25	-6.58	-82.58	-71.246	-9.996	-0.294	0.58109	-0.50156	0.40811	-0.49405	31.3	13111	100
2025-3-27 18:28:21.939	WT901BLE68-01(48591DE3C19B)	-0.519	-0.992	0.298	5.066	60.669	-234.619	-80.04	-8.66	-83.65	-71.246	-9.996	-0.294	0.58109	-0.50156	0.40811	-0.49405	31.3	13111	100
2025-3-27 18:28:21.939	WT901BLE68-01(48591DE3C19B)	-0.519	-1.000	0.323	7.568	29.541	-222.229	-79.81	-10.66	-84.40	-71.246	-9.996	-0.294	0.58109	-0.50156	0.40811	-0.49405	31.3	13111	100
2025-3-27 18:28:21.939	WT901BLE68-01(48591DE3C19B)	-0.515	-1.000	0.323	7.568	29.541	-222.229	-79.56	-12.63	-85.17	-71.246	-9.996	-0.294	0.58109	-0.50156	0.40811	-0.49405	31.3	13111	100
2025-3-27 18:28:21.939	WT901BLE68-01(48591DE3C19B)	-0.515	-1.016	0.349	8.240	-0.244	-207.397	-79.35	-14.49	-85.61	-71.246	-9.996	-0.294	0.58109	-0.50156	0.40811	-0.49405	31.3	13111	100
2025-3-27 18:28:21.999	WT901BLE68-01(48591DE3C19B)	-0.416	-1.016	0.349	8.240	-0.244	-207.397	-79.12	-16.33	-86.07	-71.246	-9.996	-0.294	0.58109	-0.50156	0.40811	-0.49405	31.3	13111	100
2025-3-27 18:28:21.999	WT901BLE68-01(48591DE3C19B)	-0.416	-1.079	0.339	3.784	-5.920	-190.063	-78.95	-18.00	-86.45	-71.246	-9.996	-0.294	0.58109	-0.50156	0.40811	-0.49405	31.3	13111	100
2025-3-27 18:28:21.999	WT901BLE68-01(48591DE3C19B)	-0.261	-1.079	0.339	3.784	-5.920	-190.063	-78.76	-19.65	-86.83	-71.246	-9.996	-0.294	0.58109	-0.50156	0.40811	-0.49405	31.3	13111	100
2025-3-27 18:28:21.999	WT901BLE68-01(48591DE3C19B)	-0.261	-1.234	0.282	1.648	28.015	-170.166	-78.48	-21.04	-87.54	-71.246	-9.996	-0.294	0.58109	-0.50156	0.40811	-0.49405	31.3	13111	100
2025-3-27 18:28:22.28	WT901BLE68-01(48591DE3C19B)	-0.361	-1.234	0.282	1.648	28.015	-170.166	-78.18	-22.42	-88.25	-71.246	-9.996	-0.294	0.58109	-0.50156	0.40811	-0.49405	31.3	13111	100
2025-3-27 18:28:22.28	WT901BLE68-01(48591DE3C19B)	-0.361	-1.440	0.230	4.700	61.584	-141.968	-77.72	-23.45	-89.27	-71.246	-9.996	-0.294	0.58109	-0.50156	0.40811	-0.49405	31.3	13111	100
2025-3-27 18:28:22.28	WT901BLE68-01(48591DE3C19B)	-0.531	-1.440	0.230	4.700	61.584	-141.968	-77.25	-24.47	-90.30	-71.246	-9.996	-0.294	0.58109	-0.50156	0.40811	-0.49405	31.3	13111	100
2025-3-27 18:28:22.28	WT901BLE68-01(48591DE3C19B)	-0.531	-1.527	0.229	13.306	89.905	-111.328	-76.59	-25.10	-91.56	-71.246	-9.996	-0.294	0.58109	-0.50156	0.40811	-0.49405	31.3	13111	100
2025-3-27 18:28:22.58	WT901BLE68-01(48591DE3C19B)	-0.627	-1.527	0.229	13.306	89.905	-111.328	-75.92	-25.72	-92.83	-71.246	-9.996	-0.294	0.58109	-0.50156	0.40811	-0.49405	31.3	13111	100
2025-3-27 18:28:22.58	WT901BLE68-01(48591DE3C19B)	-0.627	-1.403	0.244	17.151	120.728	-72.327	-75.11	-25.86	-94.33	-71.246	-9.996	-0.294	0.58109	-0.50156	0.40811	-0.49405	31.3	13111	100
2025-3-27 18:28:22.58	WT901BLE68-01(48591DE3C19B)	-0.691	-1.403	0.244	17.151	120.728	-72.327	-74.30	-25.98	-95.82	-71.246	-9.996	-0.294	0.58109	-0.50156	0.40811	-0.49405	31.3	13111	100
2025-3-27 18:28:22.58	WT901BLE68-01(48591DE3C19B)	-0.691	-1.172	0.262	6.042	135.559	-32.532	-73.60	-25.66	-97.35	-71.246	-9.996	-0.294	0.58109	-0.50156	0.40811	-0.49405	31.3	13111	100
2025-3-27 18:28:22.118	WT901BLE68-01(48591DE3C19B)	-0.748	-1.172	0.262	6.042	135.559	-32.532	-72.91	-25.31	-98.86	-71.246	-9.996	-0.294	0.58109	-0.50156	0.40811	-0.49405	31.3	13111	100
2025-3-27 18:28:22.118	WT901BLE68-01(48591DE3C19B)	-0.748	-1.032	0.322	-14.832	110.229	4.333	-72.61	-24.68	-99.97	-68.992	-28.322	-0.196	0.58109	-0.50156	0.40811	-0.49405	31.3	13111	100
2025-3-27 18:28:22.118	WT901BLE68-01(48591DE3C19B)	-0.758	-1.032	0.322	-14.832	110.229	4.333	-72.33	-24.03	-101.07	-68.992	-28.322	-0.196	0.58109	-0.50156	0.40811	-0.49405	31.3	13111	100
2025-3-27 18:28:22.119	WT901BLE68-01(48591DE3C19B)	-0.758	-0.977	0.385	-33.936	54.565	35.828	-72.53	-23.25	-101.49	-68.992	-28.322	-0.196	0.58109	-0.50156	0.40811	-0.49405	31.3	13111	100
2025-3-27 18:28:22.151	WT901BLE68-01(48591DE3C19B)	-0.708	-0.977	0.385	-33.936	54.565	35.828	-72.72	-22.46	-101.91	-68.992	-28.322	-0.196	0.58109	-0.50156	0.40811	-0.49405	31.3	13111	100
2025-3-27 18:28:22.151	WT901BLE68-01(48591DE3C19B)	-0.708	-0.981	0.422	-47.241	1.465	64.209	-73.28	-21.57	-101.71	-68.992	-28.322	-0.196	0.58109	-0.50156	0.40811	-0.49405	31.3	13111	100
2025-3-27 18:28:22.151	WT901BLE68-01(48591DE3C19B)	-0.696	-0.981	0.422	-47.241	1.465	64.209	-73.83	-20.67	-101.51	-68.992	-28.322	-0.196	0.58109	-0.50156	0.40811	-0.49405	31.3	13111	100
2025-3-27 18:28:22.151	WT901BLE68-01(48591DE3C19B)	-0.696	-0.982	0.389	-52.124	-38.086	90.454	-74.57	-19.62	-100.87	-68.992	-28.322	-0.196	0.58109	-0.50156	0.40811	-0.49405	31.3	13111	100
2025-3-27 18:28:22.178	WT901BLE68-01(48591DE3C19B)	-0.693	-0.982	0.389	-52.124	-38.086	90.454	-75.29	-18.57	-100.24	-68.992	-28.322	-0.196	0.58109	-0.50156	0.40811	-0.49405	31.3	13111	100
2025-3-27 18:28:22.178	WT901BLE68-01(48591DE3C19B)	-0.693	-0.936	0.313	-50.049	-71.472	113.464	-76.08	-17.38	-99.24	-68.992	-28.322	-0.196	0.58109	-0.50156	0.40811	-0.49405	31.3	13111	100
2025-3-27 18:28:22.179	WT901BLE68-01(48591DE3C19B)	-0.621	-0.936	0.313	-50.049	-71.472	113.464	-76.84	-16.18	-98.27	-68.992	-28.322	-0.196	0.58109	-0.50156	0.40811	-0.49405	31.3	13111	100
2025-3-27 18:28:22.179	WT901BLE68-01(48591DE3C19B)	-0.621	-0.908	0.225	-47.363	-95.520	136.902	-77.62	-14.79	-97.04	-68.992	-28.322	-0.196	0.58109	-0.50156	0.40811	-0.49405	31.3	13111	100
2025-3-27 18:28:22.239	WT901BLE68-01(48591DE3C19B)	-0.513	-0.908	0.225	-47.363	-95.520	136.902	-78.35	-13.40	-95.83	-68.992	-28.322	-0.196	0.58109	-0.50156	0.40811	-0.49405	31.3	13111	100
2025-3-27 18:28:22.239	WT901BLE68-01(48591DE3C19B)	-0.513	-0.969	0.116	-45.410	-107.178	160.339	-79.07	-11.79	-94.49	-68.992	-28.322	-0.196	0.58109	-0.50156	0.40811	-0.49405	31.3	13111	100
2025-3-27 18:28:22.240	WT901BLE68-01(48591DE3C19B)	-0.413	-0.969	0.116	-45.410	-107.178	160.339	-79.74	-10.17	-93.18	-68.992	-28.322	-0.196	0.58109	-0.50156	0.40811	-0.49405	31.3	13111	100
2025-3-27 18:28:22.240	WT901BLE68-01(48591DE3C19B)	-0.413	-1.093	0.036	-40.466	-108.154	182.434	-80.33	-8.34	-91.84	-68.992	-28.322	-0.196	0.58109	-0.50156	0.40811	-0.49405	31.3	13111	100
2025-3-27 18:28:22.268	WT901BLE68-01(48591DE3C19B)	-0.367	-1.093	0.036	-40.466	-108.154	182.434	-80.87	-6.51	-90.53	-68.992	-28.322	-0.196	0.58109	-0.50156	0.40811	-0.49405	31.3	13111	100
2025-3-27 18:28:22.268	WT901BLE68-01(48591DE3C19B)	-0.367	-1.272	0.001	-31.982	-111.450	201.660	-81.30	-4.50	-89.18	-68.992	-28.322	-0.196	0.58109	-0.50156	0.40811	-0.49405	31.3	13111	100
2025-3-27 18:28:22.268	WT901BLE68-01(48591DE3C19B)	-0.336	-1.272	0.001	-31.982	-111.450	201.660	-81.68	-2.50	-87.84	-68.992	-28.322	-0.196	0.58109	-0.50156	0.40811	-0.49405	31.3	13111	100
2025-3-27 18:28:22.268	WT901BLE68-01(48591DE3C19B)	-0.275	-1.473	-0.009	-18.433	-120.544	216.003	-81.88	-0.38	-86.41	-68.992	-28.322	-0.196	0.55600	-0.47784	0.44919	-0.51053	31.3	13111	100
2025-3-27 18:28:22.299	WT901BLE68-01(48591DE3C19B)	-0.275	-1.568	0.001	1.099	-127.502	225.037	-81.94	1.75	-84.94	-68.992	-28.322	-0.196	0.55600	-0.47784	0.44919	-0.51053	31.3	13111	100
2025-3-27 18:28:22.299	WT901BLE68-01(48591DE3C19B)	-0.214	-1.568	0.001	1.099	-127.502	225.037	-81.85	3.91	-83.44	-68.992	-28.322	-0.196	0.55600	-0.47784	0.44919	-0.51053	31.3	13111	100
2025-3-27 18:28:22.299	WT901BLE68-01(48591DE3C19B)	-0.214	-1.542	0.057	19.287	-126.404	229.919	-81.61	6.06	-81.93	-68.992	-28.322	-0.196	0.55600	-0.47784	0.44919	-0.51053	31.3	13111	100
2025-3-27 18:28:22.299	WT901BLE68-01(48591DE3C19B)	-0.158	-1.542	0.057	19.287	-126.404	229.919	-81.23	8.22	-80.42	-68.992	-28.322	-0.196	0.55600	-0.47784	0.44919	-0.51053	31.3	13111	100
2025-3-27 18:28:22.359	WT901BLE68-01(48591DE3C19B)	-0.158	-1.493	0.075	30.273	-112.183	231.262	-80.74	10.36	-78.96	-68.992	-28.322	-0.196	0.55600	-0.47784	0.44919	-0.51053	31.3	13111	100
2025-3-27 18:28:22.359	WT901BLE68-01(48591DE3C19B)	-0.114	-1.493	0.075	30.273	-112.183	231.262	-80.16	12.49	-77.55	-68.992	-28.322	-0.196	0.55600	-0.47784	0.44919	-0.51053	31.3	13111	100
2025-3-27 18:28:22.359	WT901BLE68-01(48591DE3C19B)	-0.114	-1.381	0.098	38.086	-83.313	232.605	-79.52	14.61	-76.26	-68.992	-28.322	-0.196	0.55600	-0.47784	0.44919	-0.51053	31.3	13111	100
2025-3-27 18:28:22.359	WT901BLE68-01(48591DE3C19B)	-0.111	-1.381	0.098	38.086	-83.313	232.605	-78.83	16.73	-75.09	-68.992	-28.322	-0.196	0.55600	-0.47784	0.44919	-0.51053	31.3	13111	100
2025-3-27 18:28:22.388	WT901BLE68-01(48591DE3C19B)	-0.111	-1.262	0.104	39.185	-45.837	234.253	-78.14	18.87	-74.07	-68.992	-28.322	-0.196	0.55600	-0.47784	0.44919	-0.51053	31.3	13111	100
2025-3-27 18:28:22.388	WT901BLE68-01(48591DE3C19B)	-0.137	-1.262	0.104	39.185	-45.837	234.253	-77.46	21.03	-73.21	-68.992	-28.322	-0.196	0.55600	-0.47784	0.44919	-0.51053	31.3	13111	100
2025-3-27 18:28:22.388	WT901BLE68-01(48591DE3C19B)	-0.137	-1.178	0.103	35.706	-11.108	235.229	-76.83	23.20	-72.50	-68.992	-28.322	-0.196	0.55600	-0.47784	0.44919	-0.51053	31.3	13111	100
2025-3-27 18:28:22.388	WT901BLE68-01(48591DE3C19B)	-0.142	-1.178	0.103	35.706	-11.108	235.229	-76.25	25.39	-71.94	-68.992	-28.322	-0.196	0.55600	-0.47784	0.44919	-0.51053	31.3	13111	100
2025-3-27 18:28:22.419	WT901BLE68-01(48591DE3C19B)	-0.142	-1.135	0.097	29.297	13.611	235.291	-75.73	27.60	-71.49	-68.992	-28.322	-0.196	0.55600	-0.47784	0.44919	-0.51053	31.3	13111	100
2025-3-27 18:28:22.419	WT901BLE68-01(48591DE3C19B)	-0.160	-1.135	0.097	29.297	13.611	235.291	-75.28	29.82	-71.15	-68.992	-28.322	-0.196	0.55600	-0.47784	0.44919	-0.51053	31.3	13111	100
2025-3-27 18:28:22.419	WT901BLE68-01(48591DE3C19B)	-0.160	-1.178	0.063	18.494	29.053	233.215	-74.90	32.03	-70.88	-68.992	-28.322	-0.196	0.55600	-0.47784	0.44919	-0.51053	31.3	13111	100
2025-3-27 18:28:22.420	WT901BLE68-01(48591DE3C19B)	-0.186	-1.178	0.063	18.494	29.053	233.215	-74.61	34.23	-70.68	-68.992	-28.322	-0.196	0.55600	-0.47784	0.44919	-0.51053	31.3	13111	100
2025-3-27 18:28:22.479	WT901BLE68-01(48591DE3C19B)	-0.186	-1.254	0.009	7.874	33.020	227.905	-74.38	36.40	-70.50	-68.992	-28.322	-0.196	0.55600	-0.47784	0.44919	-0.51053	31.3	13111	100
2025-3-27 18:28:22.479	WT901BLE68-01(48591DE3C19B)	-0.194	-1.254	0.009	7.874	33.020	227.905	-74.20	38.54	-70.33	-68.992	-28.322	-0.196	0.55600	-0.47784	0.44919	-0.51053	31.3	13111	100
2025-3-27 18:28:22.479	WT901BLE68-01(48591DE3C19B)	-0.194	-1.315	-0.024	-1.831	25.391	219.666	-74.04	40.61	-70.13	-68.992	-28.322	-0.196	0.55600	-0.47784	0.44919	-0.51053	31.3	13111	100
2025-3-27 18:28:22.480	WT901BLE68-01(48591DE3C19B)	-0.219	-1.315	-0.024	-1.831	25.391	219.666	-73.89	42.63	-69.88	-68.992	-28.322	-0.196	0.55600	-0.47784	0.44919	-0.51053	31.3	13111	100
2025-3-27 18:28:22.508	WT901BLE68-01(48591DE3C19B)	-0.219	-1.376	-0.026	-10.986	8.667	206.360	-73.71	44.54	-69.54	-73.010	-22.148	-10.584	0.55600	-0.47784	0.44919	-0.51053	31.3	13111	100
2025-3-27 18:28:22.508	WT901BLE68-01(48591DE3C19B)	-0.306	-1.376	-0.026	-10.986	8.667	206.360	-73.50	46.36	-69.09	-73.010	-22.148	-10.584	0.55600	-0.47784	0.44919	-0.51053	31.3	13111	100
2025-3-27 18:28:22.508	WT901BLE68-01(48591DE3C19B)	-0.306	-1.448	0.025	-20.630	-23.499	185.974	-73.17	48.02	-68.44	-73.010	-22.148	-10.584	0.55600	-0.47784	0.44919	-0.51053	31.3	13111	100
2025-3-27 18:28:22.508	WT901BLE68-01(48591DE3C19B)	-0.336	-1.448	0.025	-20.630	-23.499	185.974	-72.71	49.53	-67.57	-73.010	-22.148	-10.584	0.55600	-0.47784	0.44919	-0.51053	31.3	13111	100
2025-3-27 18:28:22.539	WT901BLE68-01(48591DE3C19B)	-0.336	-1.592	0.086	-27.100	-66.040	157.227	-72.04	50.83	-66.40	-73.010	-22.148	-10.584	0.55600	-0.47784	0.44919	-0.51053	31.3	13111	100
2025-3-27 18:28:22.539	WT901BLE68-01(48591DE3C19B)	-0.200	-1.592	0.086	-27.100	-66.040	157.227	-71.15	51.90	-64.93	-73.010	-22.148	-10.584	0.55600	-0.47784	0.44919	-0.51053	31.3	13111	100
2025-3-27 18:28:22.539	WT901BLE68-01(48591DE3C19B)	-0.200	-1.723	0.101	-20.874	-96.436	124.573	-70.05	52.76	-63.28	-73.010	-22.148	-10.584	0.55600	-0.47784	0.44919	-0.51053	31.3	13111	100
2025-3-27 18:28:22.539	WT901BLE68-01(48591DE3C19B)	0.028	-1.723	0.101	-20.874	-96.436	124.573	-68.76	53.38	-61.42	-73.010	-22.148	-10.584	0.55600	-0.47784	0.44919	-0.51053	31.3	13111	100
2025-3-27 18:28:22.599	WT901BLE68-01(48591DE3C19B)	0.028	-1.676	0.089	-8.362	-104.980	89.417	-67.41	53.78	-59.58	-73.010	-22.148	-10.584	0.55600	-0.47784	0.44919	-0.51053	31.3	13111	100
2025-3-27 18:28:22.600	WT901BLE68-01(48591DE3C19B)	0.299	-1.676	0.089	-8.362	-104.980	89.417	-66.01	53.98	-57.77	-73.010	-22.148	-10.584	0.55600	-0.47784	0.44919	-0.51053	31.3	13111	100
2025-3-27 18:28:22.600	WT901BLE68-01(48591DE3C19B)	0.299	-1.572	0.064	4.089	-85.999	49.072	-64.79	54.00	-56.25	-73.010	-22.148	-10.584	0.55600	-0.47784	0.44919	-0.51053	31.3	13111	100
2025-3-27 18:28:22.600	WT901BLE68-01(48591DE3C19B)	0.397	-1.572	0.064	4.089	-85.999	49.072	-63.76	53.86	-55.04	-73.010	-22.148	-10.584	0.55600	-0.47784	0.44919	-0.51053	31.3	13111	100
2025-3-27 18:28:22.628	WT901BLE68-01(48591DE3C19B)	0.397	-1.420	0.061	10.803	-35.889	6.897	-63.15	53.62	-54.38	-73.010	-22.148	-10.584	0.55600	-0.47784	0.44919	-0.51053	31.3	13111	100
2025-3-27 18:28:22.628	WT901BLE68-01(48591DE3C19B)	0.316	-1.420	0.061	10.803	-35.889	6.897	-62.96	53.29	-54.27	-73.010	-22.148	-10.584	0.55600	-0.47784	0.44919	-0.51053	31.3	13111	100
2025-3-27 18:28:22.628	WT901BLE68-01(48591DE3C19B)	0.316	-1.248	0.029	6.897	24.841	-40.771	-63.30	52.89	-54.80	-73.010	-22.148	-10.584	0.55600	-0.47784	0.44919	-0.51053	31.3	13111	100
2025-3-27 18:28:22.628	WT901BLE68-01(48591DE3C19B)	0.178	-1.248	0.029	6.897	24.841	-40.771	-64.14	52.40	-55.94	-73.010	-22.148	-10.584	0.55600	-0.47784	0.44919	-0.51053	31.3	13111	100
2025-3-27 18:28:22.661	WT901BLE68-01(48591DE3C19B)	0.178	-1.117	0.058	2.747	81.909	-85.815	-65.43	51.81	-57.61	-73.010	-22.148	-10.584	0.55600	-0.47784	0.44919	-0.51053	31.3	13111	100
2025-3-27 18:28:22.661	WT901BLE68-01(48591DE3C19B)	0.040	-1.117	0.058	2.747	81.909	-85.815	-67.12	51.10	-59.80	-73.010	-22.148	-10.584	0.55600	-0.47784	0.44919	-0.51053	31.3	13111	100
2025-3-27 18:28:22.661	WT901BLE68-01(48591DE3C19B)	0.040	-1.050	0.084	2.319	114.380	-123.718	-69.01	50.25	-62.25	-73.010	-22.148	-10.584	0.55600	-0.47784	0.44919	-0.51053	31.3	13111	100
2025-3-27 18:28:22.661	WT901BLE68-01(48591DE3C19B)	-0.063	-1.050	0.084	2.319	114.380	-123.718	-71.03	49.21	-64.93	-73.010	-22.148	-10.584	0.55600	-0.47784	0.44919	-0.51053	31.3	13111	100
2025-3-27 18:28:22.719	WT901BLE68-01(48591DE3C19B)	-0.063	-1.016	0.091	6.287	121.033	-148.865	-72.99	48.02	-67.59	-73.010	-22.148	-10.584	0.55600	-0.47784	0.44919	-0.51053	31.3	13111	100
2025-3-27 18:28:22.719	WT901BLE68-01(48591DE3C19B)	-0.143	-1.016	0.091	6.287	121.033	-148.865	-74.85	46.67	-70.21	-73.010	-22.148	-10.584	0.73495	-0.27557	0.57825	-0.22235	31.3	13111	100
2025-3-27 18:28:22.720	WT901BLE68-01(48591DE3C19B)	-0.143	-0.991	0.114	18.555	110.901	-166.992	-76.48	45.18	-72.65	-73.010	-22.148	-10.584	0.73495	-0.27557	0.57825	-0.22235	31.3	13111	100
2025-3-27 18:28:22.720	WT901BLE68-01(48591DE3C19B)	-0.150	-0.991	0.114	18.555	110.901	-166.992	-77.87	43.55	-74.92	-73.010	-22.148	-10.584	0.73495	-0.27557	0.57825	-0.22235	31.3	13111	100
2025-3-27 18:28:22.752	WT901BLE68-01(48591DE3C19B)	-0.150	-0.963	0.133	26.794	89.111	-180.847	-79.00	41.81	-76.93	-73.010	-22.148	-10.584	0.73495	-0.27557	0.57825	-0.22235	31.3	13111	100
2025-3-27 18:28:22.752	WT901BLE68-01(48591DE3C19B)	-0.179	-0.963	0.133	26.794	89.111	-180.847	-79.89	39.97	-78.72	-73.010	-22.148	-10.584	0.73495	-0.27557	0.57825	-0.22235	31.3	13111	100
2025-3-27 18:28:22.752	WT901BLE68-01(48591DE3C19B)	-0.179	-0.991	0.118	27.527	65.186	-190.002	-80.58	38.07	-80.27	-73.010	-22.148	-10.584	0.73495	-0.27557	0.57825	-0.22235	31.3	13111	100
2025-3-27 18:28:22.752	WT901BLE68-01(48591DE3C19B)	-0.215	-0.991	0.118	27.527	65.186	-190.002	-81.10	36.10	-81.62	-73.010	-22.148	-10.584	0.73495	-0.27557	0.57825	-0.22235	31.3	13111	100
2025-3-27 18:28:22.778	WT901BLE68-01(48591DE3C19B)	-0.215	-1.044	0.097	26.367	41.321	-199.524	-81.41	34.01	-82.63	-73.010	-22.148	-10.584	0.73495	-0.27557	0.57825	-0.22235	31.3	13111	100
2025-3-27 18:28:22.778	WT901BLE68-01(48591DE3C19B)	-0.219	-1.044	0.097	26.367	41.321	-199.524	-81.66	31.93	-83.61	-73.010	-22.148	-10.584	0.73495	-0.27557	0.57825	-0.22235	31.3	13111	100
2025-3-27 18:28:22.778	WT901BLE68-01(48591DE3C19B)	-0.219	-1.049	0.080	26.428	24.414	-209.961	-81.77	29.74	-84.38	-73.010	-22.148	-10.584	0.73495	-0.27557	0.57825	-0.22235	31.3	13111	100
2025-3-27 18:28:22.778	WT901BLE68-01(48591DE3C19B)	-0.221	-1.049	0.080	26.428	24.414	-209.961	-81.85	27.56	-85.12	-73.010	-22.148	-10.584	0.73495	-0.27557	0.57825	-0.22235	31.3	13111	100
2025-3-27 18:28:22.839	WT901BLE68-01(48591DE3C19B)	-0.221	-1.062	0.076	22.339	18.616	-223.450	-81.92	25.26	-85.79	-73.010	-22.148	-10.584	0.73495	-0.27557	0.57825	-0.22235	31.3	13111	100
2025-3-27 18:28:22.839	WT901BLE68-01(48591DE3C19B)	-0.209	-1.062	0.076	22.339	18.616	-223.450	-81.96	22.98	-86.45	-73.010	-22.148	-10.584	0.73495	-0.27557	0.57825	-0.22235	31.3	13111	100
2025-3-27 18:28:22.839	WT901BLE68-01(48591DE3C19B)	-0.209	-1.093	0.090	19.409	29.175	-237.732	-82.05	20.58	-87.22	-73.010	-22.148	-10.584	0.73495	-0.27557	0.57825	-0.22235	31.3	13111	100
2025-3-27 18:28:22.839	WT901BLE68-01(48591DE3C19B)	-0.222	-1.093	0.090	19.409	29.175	-237.732	-82.10	18.20	-87.97	-73.010	-22.148	-10.584	0.73495	-0.27557	0.57825	-0.22235	31.3	13111	100
2025-3-27 18:28:22.869	WT901BLE68-01(48591DE3C19B)	-0.222	-1.099	0.115	17.029	50.232	-250.549	-82.21	15.73	-88.94	-73.010	-22.148	-10.584	0.73495	-0.27557	0.57825	-0.22235	31.3	13111	100
2025-3-27 18:28:22.869	WT901BLE68-01(48591DE3C19B)	-0.251	-1.099	0.115	17.029	50.232	-250.549	-82.28	13.29	-89.89	-73.010	-22.148	-10.584	0.73495	-0.27557	0.57825	-0.22235	31.3	13111	100
2025-3-27 18:28:22.869	WT901BLE68-01(48591DE3C19B)	-0.251	-1.101	0.159	14.160	71.594	-259.277	-82.38	10.79	-91.05	-73.010	-22.148	-10.584	0.73495	-0.27557	0.57825	-0.22235	31.3	13111	100
2025-3-27 18:28:22.870	WT901BLE68-01(48591DE3C19B)	-0.303	-1.101	0.159	14.160	71.594	-259.277	-82.43	8.32	-92.19	-73.010	-22.148	-10.584	0.73495	-0.27557	0.57825	-0.22235	31.3	13111	100
2025-3-27 18:28:22.898	WT901BLE68-01(48591DE3C19B)	-0.303	-1.124	0.208	13.000	89.111	-263.733	-82.46	5.84	-93.50	-73.010	-22.148	-10.584	0.73495	-0.27557	0.57825	-0.22235	31.3	13111	100
2025-3-27 18:28:22.898	WT901BLE68-01(48591DE3C19B)	-0.368	-1.124	0.208	13.000	89.111	-263.733	-82.44	3.38	-94.80	-73.010	-22.148	-10.584	0.73495	-0.27557	0.57825	-0.22235	31.3	13111	100
2025-3-27 18:28:22.898	WT901BLE68-01(48591DE3C19B)	-0.368	-1.119	0.249	15.747	98.145	-263.611	-82.33	0.95	-96.17	-67.424	-30.772	-13.230	0.73495	-0.27557	0.57825	-0.22235	31.3	13111	100
2025-3-27 18:28:22.898	WT901BLE68-01(48591DE3C19B)	-0.422	-1.119	0.249	15.747	98.145	-263.611	-82.16	-1.45	-97.55	-67.424	-30.772	-13.230	0.73495	-0.27557	0.57825	-0.22235	31.3	13111	100
2025-3-27 18:28:22.959	WT901BLE68-01(48591DE3C19B)	-0.422	-1.123	0.273	18.677	102.234	-258.362	-81.90	-3.77	-98.98	-67.424	-30.772	-13.230	0.73495	-0.27557	0.57825	-0.22235	31.3	13111	100
2025-3-27 18:28:22.959	WT901BLE68-01(48591DE3C19B)	-0.499	-1.123	0.273	18.677	102.234	-258.362	-81.59	-6.07	-100.40	-67.424	-30.772	-13.230	0.73495	-0.27557	0.57825	-0.22235	31.3	13111	100
2025-3-27 18:28:22.959	WT901BLE68-01(48591DE3C19B)	-0.499	-1.136	0.273	24.719	94.116	-247.681	-81.17	-8.25	-101.76	-67.424	-30.772	-13.230	0.73495	-0.27557	0.57825	-0.22235	31.3	13111	100
2025-3-27 18:28:22.959	WT901BLE68-01(48591DE3C19B)	-0.571	-1.136	0.273	24.719	94.116	-247.681	-80.69	-10.40	-103.13	-67.424	-30.772	-13.230	0.73495	-0.27557	0.57825	-0.22235	31.3	13111	100
2025-3-27 18:28:22.988	WT901BLE68-01(48591DE3C19B)	-0.571	-1.137	0.257	30.518	65.979	-231.689	-80.17	-12.41	-104.22	-67.424	-30.772	-13.230	0.73495	-0.27557	0.57825	-0.22235	31.3	13111	100
2025-3-27 18:28:22.988	WT901BLE68-01(48591DE3C19B)	-0.569	-1.137	0.257	30.518	65.979	-231.689	-79.60	-14.39	-105.33	-67.424	-30.772	-13.230	0.73495	-0.27557	0.57825	-0.22235	31.3	13111	100
2025-3-27 18:28:22.988	WT901BLE68-01(48591DE3C19B)	-0.569	-1.140	0.249	28.992	26.672	-212.158	-79.13	-16.22	-106.04	-67.424	-30.772	-13.230	0.73495	-0.27557	0.57825	-0.22235	31.3	13111	100
2025-3-27 18:28:22.988	WT901BLE68-01(48591DE3C19B)	-0.561	-1.140	0.249	28.992	26.672	-212.158	-78.62	-18.03	-106.77	-67.424	-30.772	-13.230	0.73495	-0.27557	0.57825	-0.22235	31.3	13111	100
2025-3-27 18:28:23.19	WT901BLE68-01(48591DE3C19B)	-0.561	-1.247	0.275	26.062	-4.333	-188.110	-78.24	-19.66	-107.14	-67.424	-30.772	-13.230	0.73495	-0.27557	0.57825	-0.22235	31.3	13111	100
2025-3-27 18:28:23.19	WT901BLE68-01(48591DE3C19B)	-0.618	-1.247	0.275	26.062	-4.333	-188.110	-77.85	-21.27	-107.54	-67.424	-30.772	-13.230	0.73495	-0.27557	0.57825	-0.22235	31.3	13111	100
2025-3-27 18:28:23.19	WT901BLE68-01(48591DE3C19B)	-0.618	-1.398	0.329	23.560	-23.499	-163.696	-77.57	-22.66	-107.69	-67.424	-30.772	-13.230	0.73495	-0.27557	0.57825	-0.22235	31.3	13111	100
2025-3-27 18:28:23.19	WT901BLE68-01(48591DE3C19B)	-0.688	-1.398	0.329	23.560	-23.499	-163.696	-77.27	-24.05	-107.86	-67.424	-30.772	-13.230	0.73495	-0.27557	0.57825	-0.22235	31.3	13111	100
2025-3-27 18:28:23.79	WT901BLE68-01(48591DE3C19B)	-0.688	-1.584	0.331	22.705	-33.386	-138.672	-77.05	-25.21	-107.87	-67.424	-30.772	-13.230	0.73495	-0.27557	0.57825	-0.22235	31.3	13111	100
2025-3-27 18:28:23.79	WT901BLE68-01(48591DE3C19B)	-0.708	-1.584	0.331	22.705	-33.386	-138.672	-76.83	-26.36	-107.88	-67.424	-30.772	-13.230	0.73495	-0.27557	0.57825	-0.22235	31.3	13111	100
2025-3-27 18:28:23.80	WT901BLE68-01(48591DE3C19B)	-0.708	-1.648	0.315	22.583	-27.649	-111.633	-76.60	-27.23	-107.90	-67.424	-30.772	-13.230	0.73495	-0.27557	0.57825	-0.22235	31.3	13111	100
2025-3-27 18:28:23.80	WT901BLE68-01(48591DE3C19B)	-0.659	-1.648	0.315	22.583	-27.649	-111.633	-76.38	-28.09	-107.92	-67.424	-30.772	-13.230	0.73495	-0.27557	0.57825	-0.22235	31.3	13111	100
2025-3-27 18:28:23.111	WT901BLE68-01(48591DE3C19B)	-0.659	-1.543	0.321	19.409	0.793	-78.125	-76.09	-28.55	-108.17	-67.424	-30.772	-13.230	0.32458	-0.50760	0.36972	-0.70721	31.3	13111	100
2025-3-27 18:28:23.111	WT901BLE68-01(48591DE3C19B)	-0.636	-1.543	0.321	19.409	0.793	-78.125	-75.78	-29.01	-108.42	-67.424	-30.772	-13.230	0.32458	-0.50760	0.36972	-0.70721	31.3	13111	100
2025-3-27 18:28:23.111	WT901BLE68-01(48591DE3C19B)	-0.636	-1.353	0.359	8.789	32.104	-39.307	-75.47	-29.01	-108.91	-67.424	-30.772	-13.230	0.32458	-0.50760	0.36972	-0.70721	31.3	13111	100
2025-3-27 18:28:23.111	WT901BLE68-01(48591DE3C19B)	-0.609	-1.353	0.359	8.789	32.104	-39.307	-75.16	-29.01	-109.41	-67.424	-30.772	-13.230	0.32458	-0.50760	0.36972	-0.70721	31.3	13111	100
2025-3-27 18:28:23.169	WT901BLE68-01(48591DE3C19B)	-0.609	-1.207	0.437	-4.700	40.588	0.549	-74.99	-28.61	-109.89	-67.424	-30.772	-13.230	0.32458	-0.50760	0.36972	-0.70721	31.3	13111	100
2025-3-27 18:28:23.169	WT901BLE68-01(48591DE3C19B)	-0.591	-1.207	0.437	-4.700	40.588	0.549	-74.82	-28.20	-110.37	-67.424	-30.772	-13.230	0.32458	-0.50760	0.36972	-0.70721	31.3	13111	100
2025-3-27 18:28:23.169	WT901BLE68-01(48591DE3C19B)	-0.591	-1.122	0.489	-14.404	26.855	36.011	-74.86	-27.48	-110.61	-67.424	-30.772	-13.230	0.32458	-0.50760	0.36972	-0.70721	31.3	13111	100
2025-3-27 18:28:23.169	WT901BLE68-01(48591DE3C19B)	-0.578	-1.122	0.489	-14.404	26.855	36.011	-74.90	-26.77	-110.85	-67.424	-30.772	-13.230	0.32458	-0.50760	0.36972	-0.70721	31.3	13111	100
2025-3-27 18:28:23.199	WT901BLE68-01(48591DE3C19B)	-0.578	-1.042	0.443	-19.165	9.094	66.101	-75.10	-25.82	-110.81	-67.424	-30.772	-13.230	0.32458	-0.50760	0.36972	-0.70721	31.3	13111	100
2025-3-27 18:28:23.199	WT901BLE68-01(48591DE3C19B)	-0.638	-1.042	0.443	-19.165	9.094	66.101	-75.29	-24.87	-110.80	-67.424	-30.772	-13.230	0.32458	-0.50760	0.36972	-0.70721	31.3	13111	100
2025-3-27 18:28:23.199	WT901BLE68-01(48591DE3C19B)	-0.638	-1.003	0.320	-19.958	-8.423	95.154	-75.60	-23.70	-110.52	-67.424	-30.772	-13.230	0.32458	-0.50760	0.36972	-0.70721	31.3	13111	100
2025-3-27 18:28:23.199	WT901BLE68-01(48591DE3C19B)	-0.671	-1.003	0.320	-19.958	-8.423	95.154	-75.88	-22.52	-110.26	-67.424	-30.772	-13.230	0.32458	-0.50760	0.36972	-0.70721	31.3	13111	100
2025-3-27 18:28:23.228	WT901BLE68-01(48591DE3C19B)	-0.638	-0.938	0.173	-16.174	-24.048	120.911	-76.21	-21.13	-109.79	-67.424	-30.772	-13.230	0.32458	-0.50760	0.36972	-0.70721	31.3	13111	100
2025-3-27 18:28:23.228	WT901BLE68-01(48591DE3C19B)	-0.638	-0.870	0.050	-14.954	-42.969	147.156	-76.55	-19.63	-109.20	-67.424	-30.772	-13.230	0.32458	-0.50760	0.36972	-0.70721	31.3	13111	100
2025-3-27 18:28:23.228	WT901BLE68-01(48591DE3C19B)	-0.586	-0.870	0.050	-14.954	-42.969	147.156	-76.91	-18.03	-108.51	-67.424	-30.772	-13.230	0.32458	-0.50760	0.36972	-0.70721	31.3	13111	100
2025-3-27 18:28:23.228	WT901BLE68-01(48591DE3C19B)	-0.586	-0.919	-0.012	-16.907	-67.322	172.180	-77.30	-16.34	-107.67	-67.424	-30.772	-13.230	0.32458	-0.50760	0.36972	-0.70721	31.3	13111	100
2025-3-27 18:28:23.290	WT901BLE68-01(48591DE3C19B)	-0.515	-0.919	-0.012	-16.907	-67.322	172.180	-77.71	-14.55	-106.72	-67.424	-30.772	-13.230	0.32458	-0.50760	0.36972	-0.70721	31.3	13111	100
2025-3-27 18:28:23.290	WT901BLE68-01(48591DE3C19B)	-0.515	-1.112	-0.027	-15.930	-96.802	193.237	-78.13	-12.69	-105.61	-67.424	-30.772	-13.230	0.32458	-0.50760	0.36972	-0.70721	31.3	13111	100
2025-3-27 18:28:23.290	WT901BLE68-01(48591DE3C19B)	-0.429	-1.112	-0.027	-15.930	-96.802	193.237	-78.54	-10.77	-104.35	-67.424	-30.772	-13.230	0.32458	-0.50760	0.36972	-0.70721	31.3	13111	100
2025-3-27 18:28:23.290	WT901BLE68-01(48591DE3C19B)	-0.429	-1.317	-0.016	-8.728	-127.136	210.876	-78.89	-8.78	-102.94	-67.424	-30.772	-13.230	0.32458	-0.50760	0.36972	-0.70721	31.3	13111	100
2025-3-27 18:28:23.321	WT901BLE68-01(48591DE3C19B)	-0.359	-1.317	-0.016	-8.728	-127.136	210.876	-79.19	-6.75	-101.39	-57.820	-38.122	-15.974	0.32458	-0.50760	0.36972	-0.70721	31.3	13111	100
2025-3-27 18:28:23.321	WT901BLE68-01(48591DE3C19B)	-0.359	-1.481	0.034	4.150	-149.963	224.487	-79.38	-4.69	-99.72	-57.820	-38.122	-15.974	0.32458	-0.50760	0.36972	-0.70721	31.3	13111	100
2025-3-27 18:28:23.321	WT901BLE68-01(48591DE3C19B)	-0.268	-1.481	0.034	4.150	-149.963	224.487	-79.45	-2.59	-97.94	-57.820	-38.122	-15.974	0.32458	-0.50760	0.36972	-0.70721	31.3	13111	100
2025-3-27 18:28:23.321	WT901BLE68-01(48591DE3C19B)	-0.268	-1.583	0.072	18.616	-154.724	233.582	-79.40	-0.47	-96.14	-57.820	-38.122	-15.974	0.32458	-0.50760	0.36972	-0.70721	31.3	13111	100
2025-3-27 18:28:23.351	WT901BLE68-01(48591DE3C19B)	-0.180	-1.583	0.072	18.616	-154.724	233.582	-79.20	1.66	-94.30	-57.820	-38.122	-15.974	0.32458	-0.50760	0.36972	-0.70721	31.3	13111	100
2025-3-27 18:28:23.351	WT901BLE68-01(48591DE3C19B)	-0.180	-1.611	0.102	33.875	-132.690	239.929	-78.87	3.82	-92.55	-57.820	-38.122	-15.974	0.32458	-0.50760	0.36972	-0.70721	31.3	13111	100
2025-3-27 18:28:23.351	WT901BLE68-01(48591DE3C19B)	-0.145	-1.611	0.102	33.875	-132.690	239.929	-78.40	5.99	-90.90	-57.820	-38.122	-15.974	0.32458	-0.50760	0.36972	-0.70721	31.3	13111	100
2025-3-27 18:28:23.351	WT901BLE68-01(48591DE3C19B)	-0.145	-1.553	0.119	44.250	-93.262	247.009	-77.84	8.21	-89.41	-57.820	-38.122	-15.974	0.32458	-0.50760	0.36972	-0.70721	31.3	13111	100
2025-3-27 18:28:23.409	WT901BLE68-01(48591DE3C19B)	-0.126	-1.553	0.119	44.250	-93.262	247.009	-77.20	10.46	-88.09	-57.820	-38.122	-15.974	0.32458	-0.50760	0.36972	-0.70721	31.3	13111	100
2025-3-27 18:28:23.409	WT901BLE68-01(48591DE3C19B)	-0.126	-1.414	0.100	48.889	-47.180	253.357	-76.53	12.77	-86.95	-57.820	-38.122	-15.974	0.32458	-0.50760	0.36972	-0.70721	31.3	13111	100
2025-3-27 18:28:23.409	WT901BLE68-01(48591DE3C19B)	-0.132	-1.414	0.100	48.889	-47.180	253.357	-75.83	15.12	-86.01	-57.820	-38.122	-15.974	0.32458	-0.50760	0.36972	-0.70721	31.3	13111	100
2025-3-27 18:28:23.410	WT901BLE68-01(48591DE3C19B)	-0.132	-1.278	0.098	46.143	-4.639	260.742	-75.16	17.53	-85.23	-57.820	-38.122	-15.974	0.32458	-0.50760	0.36972	-0.70721	31.3	13111	100
2025-3-27 18:28:23.439	WT901BLE68-01(48591DE3C19B)	-0.165	-1.278	0.098	46.143	-4.639	260.742	-74.53	20.01	-84.63	-57.820	-38.122	-15.974	0.32458	-0.50760	0.36972	-0.70721	31.3	13111	100
2025-3-27 18:28:23.439	WT901BLE68-01(48591DE3C19B)	-0.165	-1.266	0.101	38.330	25.696	269.836	-73.94	22.55	-84.13	-57.820	-38.122	-15.974	0.32458	-0.50760	0.36972	-0.70721	31.3	13111	100
2025-3-27 18:28:23.439	WT901BLE68-01(48591DE3C19B)	-0.181	-1.266	0.101	38.330	25.696	269.836	-73.43	25.15	-83.75	-57.820	-38.122	-15.974	0.32458	-0.50760	0.36972	-0.70721	31.3	13111	100
2025-3-27 18:28:23.439	WT901BLE68-01(48591DE3C19B)	-0.181	-1.314	0.063	29.968	43.213	279.724	-72.95	27.81	-83.41	-57.820	-38.122	-15.974	0.32458	-0.50760	0.36972	-0.70721	31.3	13111	100
2025-3-27 18:28:23.471	WT901BLE68-01(48591DE3C19B)	-0.154	-1.314	0.063	29.968	43.213	279.724	-72.54	30.51	-83.13	-57.820	-38.122	-15.974	0.32458	-0.50760	0.36972	-0.70721	31.3	13111	100
2025-3-27 18:28:23.471	WT901BLE68-01(48591DE3C19B)	-0.154	-1.358	-0.007	20.447	53.406	290.955	-72.16	33.27	-82.85	-57.820	-38.122	-15.974	0.32458	-0.50760	0.36972	-0.70721	31.3	13111	100
2025-3-27 18:28:23.471	WT901BLE68-01(48591DE3C19B)	-0.111	-1.358	-0.007	20.447	53.406	290.955	-71.82	36.08	-82.58	-57.820	-38.122	-15.974	0.32458	-0.50760	0.36972	-0.70721	31.3	13111	100
2025-3-27 18:28:23.471	WT901BLE68-01(48591DE3C19B)	-0.111	-1.499	-0.062	5.676	58.350	296.936	-71.54	38.90	-82.31	-57.820	-38.122	-15.974	0.32458	-0.50760	0.36972	-0.70721	31.3	13111	100
2025-3-27 18:28:23.529	WT901BLE68-01(48591DE3C19B)	-0.063	-1.499	-0.062	5.676	58.350	296.936	-71.32	41.74	-82.03	-57.820	-38.122	-15.974	0.32458	-0.50760	0.36972	-0.70721	31.3	13111	100
2025-3-27 18:28:23.529	WT901BLE68-01(48591DE3C19B)	-0.063	-1.701	-0.089	-4.700	56.213	290.955	-71.13	44.53	-81.72	-57.820	-38.122	-15.974	0.71542	-0.19785	0.58975	-0.31793	31.3	13111	100
2025-3-27 18:28:23.529	WT901BLE68-01(48591DE3C19B)	-0.048	-1.701	-0.089	-4.700	56.213	290.955	-70.96	47.26	-81.39	-57.820	-38.122	-15.974	0.71542	-0.19785	0.58975	-0.31793	31.3	13111	100
2025-3-27 18:28:23.529	WT901BLE68-01(48591DE3C19B)	-0.048	-1.823	-0.117	-8.179	46.753	275.330	-70.76	49.89	-81.01	-57.820	-38.122	-15.974	0.71542	-0.19785	0.58975	-0.31793	31.3	13111	100
2025-3-27 18:28:23.558	WT901BLE68-01(48591DE3C19B)	-0.112	-1.823	-0.117	-8.179	46.753	275.330	-70.51	52.42	-80.56	-57.820	-38.122	-15.974	0.71542	-0.19785	0.58975	-0.31793	31.3	13111	100
2025-3-27 18:28:23.558	WT901BLE68-01(48591DE3C19B)	-0.112	-1.846	-0.051	-6.104	26.123	242.065	-70.15	54.73	-80.00	-57.820	-38.122	-15.974	0.71542	-0.19785	0.58975	-0.31793	31.3	13111	100
2025-3-27 18:28:23.558	WT901BLE68-01(48591DE3C19B)	-0.208	-1.846	-0.051	-6.104	26.123	242.065	-69.66	56.84	-79.32	-57.820	-38.122	-15.974	0.71542	-0.19785	0.58975	-0.31793	31.3	13111	100
2025-3-27 18:28:23.558	WT901BLE68-01(48591DE3C19B)	-0.208	-1.768	0.055	-6.897	-9.583	191.895	-68.98	58.64	-78.41	-57.820	-38.122	-15.974	0.71542	-0.19785	0.58975	-0.31793	31.3	13111	100
2025-3-27 18:28:23.589	WT901BLE68-01(48591DE3C19B)	-0.212	-1.768	0.055	-6.897	-9.583	191.895	-68.08	60.13	-77.28	-57.820	-38.122	-15.974	0.71542	-0.19785	0.58975	-0.31793	31.3	13111	100
2025-3-27 18:28:23.589	WT901BLE68-01(48591DE3C19B)	-0.212	-1.600	0.122	-9.705	-40.527	133.484	-67.04	61.27	-75.99	-57.820	-38.122	-15.974	0.71542	-0.19785	0.58975	-0.31793	31.3	13111	100
2025-3-27 18:28:23.589	WT901BLE68-01(48591DE3C19B)	-0.103	-1.600	0.122	-9.705	-40.527	133.484	-65.90	62.06	-74.57	-57.820	-38.122	-15.974	0.71542	-0.19785	0.58975	-0.31793	31.3	13111	100
2025-3-27 18:28:23.590	WT901BLE68-01(48591DE3C19B)	-0.103	-1.345	0.154	-11.658	-55.054	76.843	-64.79	62.55	-73.20	-57.820	-38.122	-15.974	0.71542	-0.19785	0.58975	-0.31793	31.3	13111	100
2025-3-27 18:28:23.679	WT901BLE68-01(48591DE3C19B)	0.018	-1.345	0.154	-11.658	-55.054	76.843	-63.78	62.74	-71.93	-57.820	-38.122	-15.974	0.71542	-0.19785	0.58975	-0.31793	31.3	13111	100
2025-3-27 18:28:23.679	WT901BLE68-01(48591DE3C19B)	0.018	-1.125	0.179	-12.817	-51.331	27.283	-63.01	62.70	-70.93	-57.820	-38.122	-15.974	0.71542	-0.19785	0.58975	-0.31793	31.3	13111	100
2025-3-27 18:28:23.679	WT901BLE68-01(48591DE3C19B)	0.081	-1.125	0.179	-12.817	-51.331	27.283	-62.50	62.44	-70.22	-57.820	-38.122	-15.974	0.71542	-0.19785	0.58975	-0.31793	31.3	13111	100
2025-3-27 18:28:23.679	WT901BLE68-01(48591DE3C19B)	0.081	-1.008	0.155	-14.221	-34.546	-21.545	-62.37	62.01	-69.93	-57.820	-38.122	-15.974	0.71542	-0.19785	0.58975	-0.31793	31.3	13111	100
2025-3-27 18:28:23.680	WT901BLE68-01(48591DE3C19B)	0.107	-1.008	0.155	-14.221	-34.546	-21.545	-62.60	61.39	-70.04	-57.820	-38.122	-15.974	0.71542	-0.19785	0.58975	-0.31793	31.3	13111	100
2025-3-27 18:28:23.680	WT901BLE68-01(48591DE3C19B)	0.107	-0.909	0.118	-14.832	-12.695	-62.195	-63.17	60.64	-70.52	-57.820	-38.122	-15.974	0.71542	-0.19785	0.58975	-0.31793	31.3	13111	100
2025-3-27 18:28:23.680	WT901BLE68-01(48591DE3C19B)	0.094	-0.909	0.118	-14.832	-12.695	-62.195	-64.03	59.76	-71.36	-57.820	-38.122	-15.974	0.71542	-0.19785	0.58975	-0.31793	31.3	13111	100
2025-3-27 18:28:23.680	WT901BLE68-01(48591DE3C19B)	0.094	-0.849	0.117	-19.592	7.385	-96.252	-65.43	58.65	-72.76	-57.820	-38.122	-15.974	0.71542	-0.19785	0.58975	-0.31793	31.3	13111	100
2025-3-27 18:28:23.709	WT901BLE68-01(48591DE3C19B)	0.016	-0.849	0.117	-19.592	7.385	-96.252	-66.73	57.53	-74.07	-57.820	-38.122	-15.974	0.71542	-0.19785	0.58975	-0.31793	31.3	13111	100
2025-3-27 18:28:23.709	WT901BLE68-01(48591DE3C19B)	0.016	-0.892	0.144	-24.536	22.888	-126.160	-68.37	56.17	-75.75	-57.820	-38.122	-15.974	0.71542	-0.19785	0.58975	-0.31793	31.3	13111	100
2025-3-27 18:28:23.709	WT901BLE68-01(48591DE3C19B)	-0.075	-0.892	0.144	-24.536	22.888	-126.160	-69.87	54.81	-77.28	-83.790	-33.222	-26.754	0.71542	-0.19785	0.58975	-0.31793	31.3	13111	100
2025-3-27 18:28:23.709	WT901BLE68-01(48591DE3C19B)	-0.075	-0.999	0.171	-20.996	36.804	-153.015	-71.52	53.21	-79.07	-83.790	-33.222	-26.754	0.71542	-0.19785	0.58975	-0.31793	31.3	13111	100
2025-3-27 18:28:23.768	WT901BLE68-01(48591DE3C19B)	-0.149	-0.999	0.171	-20.996	36.804	-153.015	-73.01	51.60	-80.72	-83.790	-33.222	-26.754	0.71542	-0.19785	0.58975	-0.31793	31.3	13111	100
2025-3-27 18:28:23.768	WT901BLE68-01(48591DE3C19B)	-0.149	-1.018	0.207	-10.132	41.748	-176.025	-74.39	49.77	-82.41	-83.790	-33.222	-26.754	0.71542	-0.19785	0.58975	-0.31793	31.3	13111	100
2025-3-27 18:28:23.769	WT901BLE68-01(48591DE3C19B)	-0.181	-1.018	0.207	-10.132	41.748	-176.025	-75.64	47.93	-83.96	-83.790	-33.222	-26.754	0.71542	-0.19785	0.58975	-0.31793	31.3	13111	100
2025-3-27 18:28:23.769	WT901BLE68-01(48591DE3C19B)	-0.181	-1.013	0.187	-5.188	34.912	-195.007	-76.69	45.88	-85.37	-83.790	-33.222	-26.754	0.71542	-0.19785	0.58975	-0.31793	31.3	13111	100
2025-3-27 18:28:23.798	WT901BLE68-01(48591DE3C19B)	-0.182	-1.013	0.187	-5.188	34.912	-195.007	-77.62	43.83	-86.67	-83.790	-33.222	-26.754	0.71542	-0.19785	0.58975	-0.31793	31.3	13111	100
2025-3-27 18:28:23.798	WT901BLE68-01(48591DE3C19B)	-0.182	-1.039	0.152	-1.953	27.832	-211.914	-78.40	41.60	-87.84	-83.790	-33.222	-26.754	0.71542	-0.19785	0.58975	-0.31793	31.3	13111	100
2025-3-27 18:28:23.798	WT901BLE68-01(48591DE3C19B)	-0.178	-1.039	0.152	-1.953	27.832	-211.914	-79.09	39.38	-88.92	-83.790	-33.222	-26.754	0.71542	-0.19785	0.58975	-0.31793	31.3	13111	100
2025-3-27 18:28:23.799	WT901BLE68-01(48591DE3C19B)	-0.178	-1.072	0.129	0.427	26.428	-228.455	-79.69	37.00	-89.95	-83.790	-33.222	-26.754	0.71542	-0.19785	0.58975	-0.31793	31.3	13111	100
2025-3-27 18:28:23.829	WT901BLE68-01(48591DE3C19B)	-0.173	-1.072	0.129	0.427	26.428	-228.455	-80.22	34.62	-90.92	-83.790	-33.222	-26.754	0.71542	-0.19785	0.58975	-0.31793	31.3	13111	100
2025-3-27 18:28:23.829	WT901BLE68-01(48591DE3C19B)	-0.173	-1.101	0.131	3.113	34.424	-245.056	-80.73	32.11	-91.96	-83.790	-33.222	-26.754	0.71542	-0.19785	0.58975	-0.31793	31.3	13111	100
2025-3-27 18:28:23.829	WT901BLE68-01(48591DE3C19B)	-0.191	-1.101	0.131	3.113	34.424	-245.056	-81.17	29.61	-92.94	-83.790	-33.222	-26.754	0.71542	-0.19785	0.58975	-0.31793	31.3	13111	100
2025-3-27 18:28:23.829	WT901BLE68-01(48591DE3C19B)	-0.191	-1.120	0.145	5.554	49.194	-260.193	-81.62	26.98	-94.08	-83.790	-33.222	-26.754	0.71542	-0.19785	0.58975	-0.31793	31.3	13111	100
2025-3-27 18:28:23.890	WT901BLE68-01(48591DE3C19B)	-0.222	-1.120	0.145	5.554	49.194	-260.193	-82.00	24.37	-95.15	-83.790	-33.222	-26.754	0.71542	-0.19785	0.58975	-0.31793	31.3	13111	100
2025-3-27 18:28:23.890	WT901BLE68-01(48591DE3C19B)	-0.222	-1.131	0.168	7.324	63.721	-273.254	-82.37	21.67	-96.36	-83.790	-33.222	-26.754	0.71542	-0.19785	0.58975	-0.31793	31.3	13111	100
2025-3-27 18:28:23.890	WT901BLE68-01(48591DE3C19B)	-0.275	-1.131	0.168	7.324	63.721	-273.254	-82.68	18.97	-97.53	-83.790	-33.222	-26.754	0.71542	-0.19785	0.58975	-0.31793	31.3	13111	100
2025-3-27 18:28:23.890	WT901BLE68-01(48591DE3C19B)	-0.275	-1.156	0.192	8.789	76.721	-284.668	-82.95	16.19	-98.81	-83.790	-33.222	-26.754	0.71542	-0.19785	0.58975	-0.31793	31.3	13111	100
2025-3-27 18:28:23.918	WT901BLE68-01(48591DE3C19B)	-0.375	-1.156	0.192	8.789	76.721	-284.668	-83.15	13.42	-100.06	-83.790	-33.222	-26.754	0.53665	-0.35635	0.56125	-0.51953	31.3	13111	100
2025-3-27 18:28:23.919	WT901BLE68-01(48591DE3C19B)	-0.375	-1.199	0.217	11.841	84.839	-292.542	-83.28	10.60	-101.38	-83.790	-33.222	-26.754	0.53665	-0.35635	0.56125	-0.51953	31.3	13111	100
2025-3-27 18:28:23.919	WT901BLE68-01(48591DE3C19B)	-0.527	-1.199	0.217	11.841	84.839	-292.542	-83.34	7.81	-102.67	-83.790	-33.222	-26.754	0.53665	-0.35635	0.56125	-0.51953	31.3	13111	100
2025-3-27 18:28:23.919	WT901BLE68-01(48591DE3C19B)	-0.527	-1.248	0.237	15.991	82.581	-294.067	-83.29	5.02	-103.94	-83.790	-33.222	-26.754	0.53665	-0.35635	0.56125	-0.51953	31.3	13111	100
2025-3-27 18:28:23.979	WT901BLE68-01(48591DE3C19B)	-0.667	-1.248	0.237	15.991	82.581	-294.067	-83.19	2.25	-105.21	-83.790	-33.222	-26.754	0.53665	-0.35635	0.56125	-0.51953	31.3	13111	100
2025-3-27 18:28:23.979	WT901BLE68-01(48591DE3C19B)	-0.667	-1.289	0.252	20.386	65.247	-287.109	-82.97	-0.43	-106.31	-83.790	-33.222	-26.754	0.53665	-0.35635	0.56125	-0.51953	31.3	13111	100
2025-3-27 18:28:23.979	WT901BLE68-01(48591DE3C19B)	-0.759	-1.289	0.252	20.386	65.247	-287.109	-82.71	-3.10	-107.42	-83.790	-33.222	-26.754	0.53665	-0.35635	0.56125	-0.51953	31.3	13111	100
2025-3-27 18:28:23.979	WT901BLE68-01(48591DE3C19B)	-0.759	-1.307	0.260	23.621	38.574	-273.499	-82.39	-5.63	-108.27	-83.790	-33.222	-26.754	0.53665	-0.35635	0.56125	-0.51953	31.3	13111	100
2025-3-27 18:28:24.39	WT901BLE68-01(48591DE3C19B)	-0.761	-1.307	0.260	23.621	38.574	-273.499	-82.02	-8.14	-109.14	-83.790	-33.222	-26.754	0.53665	-0.35635	0.56125	-0.51953	31.3	13111	100
2025-3-27 18:28:24.39	WT901BLE68-01(48591DE3C19B)	-0.761	-1.350	0.241	22.461	9.949	-254.761	-81.68	-10.47	-109.74	-83.790	-33.222	-26.754	0.53665	-0.35635	0.56125	-0.51953	31.3	13111	100
2025-3-27 18:28:24.39	WT901BLE68-01(48591DE3C19B)	-0.700	-1.350	0.241	22.461	9.949	-254.761	-81.31	-12.78	-110.35	-83.790	-33.222	-26.754	0.53665	-0.35635	0.56125	-0.51953	31.3	13111	100
2025-3-27 18:28:24.39	WT901BLE68-01(48591DE3C19B)	-0.700	-1.365	0.235	21.118	-15.137	-229.736	-81.00	-14.86	-110.69	-83.790	-33.222	-26.754	0.53665	-0.35635	0.56125	-0.51953	31.3	13111	100
2025-3-27 18:28:24.40	WT901BLE68-01(48591DE3C19B)	-0.685	-1.365	0.235	21.118	-15.137	-229.736	-80.68	-16.94	-111.06	-83.790	-33.222	-26.754	0.53665	-0.35635	0.56125	-0.51953	31.3	13111	100
2025-3-27 18:28:24.41	WT901BLE68-01(48591DE3C19B)	-0.685	-1.452	0.285	17.090	-27.527	-197.815	-80.44	-18.69	-111.25	-83.790	-33.222	-26.754	0.53665	-0.35635	0.56125	-0.51953	31.3	13111	100
2025-3-27 18:28:24.41	WT901BLE68-01(48591DE3C19B)	-0.699	-1.452	0.285	17.090	-27.527	-197.815	-80.19	-20.45	-111.47	-83.790	-33.222	-26.754	0.53665	-0.35635	0.56125	-0.51953	31.3	13111	100
2025-3-27 18:28:24.41	WT901BLE68-01(48591DE3C19B)	-0.699	-1.484	0.319	16.907	-23.987	-167.297	-79.94	-21.88	-111.68	-83.790	-33.222	-26.754	0.53665	-0.35635	0.56125	-0.51953	31.3	13111	100
2025-3-27 18:28:24.71	WT901BLE68-01(48591DE3C19B)	-0.698	-1.484	0.319	16.907	-23.987	-167.297	-79.68	-23.30	-111.90	-83.790	-33.222	-26.754	0.53665	-0.35635	0.56125	-0.51953	31.3	13111	100
2025-3-27 18:28:24.71	WT901BLE68-01(48591DE3C19B)	-0.698	-1.459	0.351	14.587	1.648	-134.033	-79.36	-24.35	-112.35	-83.790	-33.222	-26.754	0.53665	-0.35635	0.56125	-0.51953	31.3	13111	100
2025-3-27 18:28:24.71	WT901BLE68-01(48591DE3C19B)	-0.751	-1.459	0.351	14.587	1.648	-134.033	-79.02	-25.38	-112.81	-83.790	-33.222	-26.754	0.53665	-0.35635	0.56125	-0.51953	31.3	13111	100
2025-3-27 18:28:24.71	WT901BLE68-01(48591DE3C19B)	-0.751	-1.342	0.391	14.160	32.043	-97.107	-78.56	-25.99	-113.53	-83.790	-33.222	-26.754	0.53665	-0.35635	0.56125	-0.51953	31.3	13111	100
2025-3-27 18:28:24.129	WT901BLE68-01(48591DE3C19B)	-0.775	-1.342	0.391	14.160	32.043	-97.107	-78.09	-26.59	-114.27	-83.790	-33.222	-26.754	0.53665	-0.35635	0.56125	-0.51953	31.3	13111	100
2025-3-27 18:28:24.129	WT901BLE68-01(48591DE3C19B)	-0.775	-1.187	0.428	9.094	51.331	-61.157	-77.60	-26.78	-115.16	-49.980	-48.020	-25.186	0.53665	-0.35635	0.56125	-0.51953	31.3	13111	100
2025-3-27 18:28:24.129	WT901BLE68-01(48591DE3C19B)	-0.806	-1.187	0.428	9.094	51.331	-61.157	-77.11	-26.97	-116.05	-49.980	-48.020	-25.186	0.53665	-0.35635	0.56125	-0.51953	31.3	13111	100
2025-3-27 18:28:24.129	WT901BLE68-01(48591DE3C19B)	-0.889	-1.110	0.423	2.258	54.993	-24.170	-76.70	-26.78	-116.91	-49.980	-48.020	-25.186	0.53665	-0.35635	0.56125	-0.51953	31.3	13111	100
2025-3-27 18:28:24.158	WT901BLE68-01(48591DE3C19B)	-0.889	-1.079	0.386	-2.197	34.546	12.085	-76.37	-26.44	-117.61	-49.980	-48.020	-25.186	0.53665	-0.35635	0.56125	-0.51953	31.3	13111	100
2025-3-27 18:28:24.158	WT901BLE68-01(48591DE3C19B)	-0.899	-1.079	0.386	-2.197	34.546	12.085	-76.14	-25.94	-118.16	-49.980	-48.020	-25.186	0.53665	-0.35635	0.56125	-0.51953	31.3	13111	100
2025-3-27 18:28:24.158	WT901BLE68-01(48591DE3C19B)	-0.899	-0.945	0.330	0.793	-2.502	46.753	-76.00	-25.31	-118.47	-49.980	-48.020	-25.186	0.53665	-0.35635	0.56125	-0.51953	31.3	13111	100
2025-3-27 18:28:24.158	WT901BLE68-01(48591DE3C19B)	-0.821	-0.945	0.330	0.793	-2.502	46.753	-75.95	-24.56	-118.54	-49.980	-48.020	-25.186	0.53665	-0.35635	0.56125	-0.51953	31.3	13111	100
2025-3-27 18:28:24.189	WT901BLE68-01(48591DE3C19B)	-0.821	-0.764	0.255	-1.282	-42.236	84.961	-76.00	-23.68	-118.36	-49.980	-48.020	-25.186	0.53665	-0.35635	0.56125	-0.51953	31.3	13111	100
2025-3-27 18:28:24.189	WT901BLE68-01(48591DE3C19B)	-0.671	-0.764	0.255	-1.282	-42.236	84.961	-76.15	-22.65	-117.94	-49.980	-48.020	-25.186	0.53665	-0.35635	0.56125	-0.51953	31.3	13111	100
2025-3-27 18:28:24.189	WT901BLE68-01(48591DE3C19B)	-0.671	-0.809	0.171	-8.850	-73.303	118.530	-76.39	-21.51	-117.33	-49.980	-48.020	-25.186	0.53665	-0.35635	0.56125	-0.51953	31.3	13111	100
2025-3-27 18:28:24.189	WT901BLE68-01(48591DE3C19B)	-0.528	-0.809	0.171	-8.850	-73.303	118.530	-76.73	-20.23	-116.54	-49.980	-48.020	-25.186	0.53665	-0.35635	0.56125	-0.51953	31.3	13111	100
2025-3-27 18:28:24.249	WT901BLE68-01(48591DE3C19B)	-0.528	-1.004	0.076	-6.897	-86.914	145.569	-77.06	-18.84	-115.65	-49.980	-48.020	-25.186	0.53665	-0.35635	0.56125	-0.51953	31.3	13111	100
2025-3-27 18:28:24.249	WT901BLE68-01(48591DE3C19B)	-0.444	-1.004	0.076	-6.897	-86.914	145.569	-77.39	-17.34	-114.69	-49.980	-48.020	-25.186	0.53665	-0.35635	0.56125	-0.51953	31.3	13111	100
2025-3-27 18:28:24.249	WT901BLE68-01(48591DE3C19B)	-0.444	-1.172	0.017	1.953	-89.539	166.199	-77.66	-15.74	-113.69	-49.980	-48.020	-25.186	0.53665	-0.35635	0.56125	-0.51953	31.3	13111	100
2025-3-27 18:28:24.249	WT901BLE68-01(48591DE3C19B)	-0.390	-1.172	0.017	1.953	-89.539	166.199	-77.88	-14.05	-112.65	-49.980	-48.020	-25.186	0.53665	-0.35635	0.56125	-0.51953	31.3	13111	100
2025-3-27 18:28:24.281	WT901BLE68-01(48591DE3C19B)	-0.390	-1.313	0.001	13.123	-86.121	180.847	-78.01	-12.29	-111.63	-49.980	-48.020	-25.186	0.53665	-0.35635	0.56125	-0.51953	31.3	13111	100
2025-3-27 18:28:24.281	WT901BLE68-01(48591DE3C19B)	-0.343	-1.313	0.001	13.123	-86.121	180.847	-78.06	-10.47	-110.60	-49.980	-48.020	-25.186	0.53665	-0.35635	0.56125	-0.51953	31.3	13111	100
2025-3-27 18:28:24.281	WT901BLE68-01(48591DE3C19B)	-0.343	-1.380	0.003	25.696	-73.792	192.200	-78.02	-8.60	-109.62	-49.980	-48.020	-25.186	0.53665	-0.35635	0.56125	-0.51953	31.3	13111	100
2025-3-27 18:28:24.281	WT901BLE68-01(48591DE3C19B)	-0.309	-1.380	0.003	25.696	-73.792	192.200	-77.88	-6.67	-108.67	-49.980	-48.020	-25.186	0.53665	-0.35635	0.56125	-0.51953	31.3	13111	100
2025-3-27 18:28:24.311	WT901BLE68-01(48591DE3C19B)	-0.309	-1.369	0.018	33.875	-55.664	202.881	-77.67	-4.70	-107.79	-49.980	-48.020	-25.186	0.53665	-0.35635	0.56125	-0.51953	31.3	13111	100
2025-3-27 18:28:24.311	WT901BLE68-01(48591DE3C19B)	-0.266	-1.369	0.018	33.875	-55.664	202.881	-77.40	-2.67	-106.96	-49.980	-48.020	-25.186	0.53665	-0.35635	0.56125	-0.51953	31.3	13111	100
2025-3-27 18:28:24.311	WT901BLE68-01(48591DE3C19B)	-0.266	-1.313	0.040	35.156	-33.386	213.745	-77.09	-0.59	-106.23	-49.980	-48.020	-25.186	0.46686	-0.37720	0.49594	-0.62744	31.3	13111	100
2025-3-27 18:28:24.311	WT901BLE68-01(48591DE3C19B)	-0.224	-1.313	0.040	35.156	-33.386	213.745	-76.74	1.54	-105.56	-49.980	-48.020	-25.186	0.46686	-0.37720	0.49594	-0.62744	31.3	13111	100
2025-3-27 18:28:24.369	WT901BLE68-01(48591DE3C19B)	-0.224	-1.246	0.060	32.898	-6.165	226.624	-76.40	3.75	-105.00	-49.980	-48.020	-25.186	0.46686	-0.37720	0.49594	-0.62744	31.3	13111	100
2025-3-27 18:28:24.369	WT901BLE68-01(48591DE3C19B)	-0.203	-1.246	0.060	32.898	-6.165	226.624	-76.06	6.03	-104.53	-49.980	-48.020	-25.186	0.46686	-0.37720	0.49594	-0.62744	31.3	13111	100
2025-3-27 18:28:24.369	WT901BLE68-01(48591DE3C19B)	-0.203	-1.133	0.068	27.771	18.250	238.220	-75.73	8.38	-104.16	-49.980	-48.020	-25.186	0.46686	-0.37720	0.49594	-0.62744	31.3	13111	100
2025-3-27 18:28:24.369	WT901BLE68-01(48591DE3C19B)	-0.219	-1.133	0.068	27.771	18.250	238.220	-75.44	10.79	-103.86	-49.980	-48.020	-25.186	0.46686	-0.37720	0.49594	-0.62744	31.3	13111	100
2025-3-27 18:28:24.398	WT901BLE68-01(48591DE3C19B)	-0.219	-1.046	0.075	17.700	33.081	248.657	-75.18	13.25	-103.61	-49.980	-48.020	-25.186	0.46686	-0.37720	0.49594	-0.62744	31.3	13111	100
2025-3-27 18:28:24.398	WT901BLE68-01(48591DE3C19B)	-0.228	-1.046	0.075	17.700	33.081	248.657	-74.99	15.75	-103.41	-49.980	-48.020	-25.186	0.46686	-0.37720	0.49594	-0.62744	31.3	13111	100
2025-3-27 18:28:24.398	WT901BLE68-01(48591DE3C19B)	-0.228	-1.060	0.067	6.409	41.382	256.409	-74.84	18.30	-103.22	-49.980	-48.020	-25.186	0.46686	-0.37720	0.49594	-0.62744	31.3	13111	100
2025-3-27 18:28:24.398	WT901BLE68-01(48591DE3C19B)	-0.238	-1.060	0.067	6.409	41.382	256.409	-74.75	20.86	-103.06	-49.980	-48.020	-25.186	0.46686	-0.37720	0.49594	-0.62744	31.3	13111	100
2025-3-27 18:28:24.429	WT901BLE68-01(48591DE3C19B)	-0.238	-1.092	0.038	-5.066	43.152	261.108	-74.71	23.44	-102.89	-49.980	-48.020	-25.186	0.46686	-0.37720	0.49594	-0.62744	31.3	13111	100
2025-3-27 18:28:24.429	WT901BLE68-01(48591DE3C19B)	-0.263	-1.092	0.038	-5.066	43.152	261.108	-74.71	26.03	-102.72	-49.980	-48.020	-25.186	0.46686	-0.37720	0.49594	-0.62744	31.3	13111	100
2025-3-27 18:28:24.429	WT901BLE68-01(48591DE3C19B)	-0.263	-1.205	0.022	-18.250	34.302	260.254	-74.76	28.58	-102.49	-49.980	-48.020	-25.186	0.46686	-0.37720	0.49594	-0.62744	31.3	13111	100
2025-3-27 18:28:24.429	WT901BLE68-01(48591DE3C19B)	-0.304	-1.205	0.022	-18.250	34.302	260.254	-74.83	31.10	-102.22	-49.980	-48.020	-25.186	0.46686	-0.37720	0.49594	-0.62744	31.3	13111	100
2025-3-27 18:28:24.519	WT901BLE68-01(48591DE3C19B)	-0.304	-1.376	0.009	-27.222	16.479	253.357	-74.88	33.55	-101.85	-49.980	-48.020	-25.186	0.46686	-0.37720	0.49594	-0.62744	31.3	13111	100
2025-3-27 18:28:24.519	WT901BLE68-01(48591DE3C19B)	-0.324	-1.376	0.009	-27.222	16.479	253.357	-74.91	35.92	-101.38	-49.980	-48.020	-25.186	0.46686	-0.37720	0.49594	-0.62744	31.3	13111	100
2025-3-27 18:28:24.520	WT901BLE68-01(48591DE3C19B)	-0.324	-1.637	-0.000	-34.241	-7.568	239.563	-74.88	38.18	-100.77	-49.980	-48.020	-25.186	0.46686	-0.37720	0.49594	-0.62744	31.3	13111	100
2025-3-27 18:28:24.520	WT901BLE68-01(48591DE3C19B)	-0.340	-1.637	-0.000	-34.241	-7.568	239.563	-74.77	40.34	-100.01	-49.980	-48.020	-25.186	0.46686	-0.37720	0.49594	-0.62744	31.3	13111	100
2025-3-27 18:28:24.521	WT901BLE68-01(48591DE3C19B)	-0.340	-1.928	-0.006	-32.959	-31.860	224.060	-74.52	42.36	-99.09	-49.980	-48.020	-25.186	0.46686	-0.37720	0.49594	-0.62744	31.3	13111	100
2025-3-27 18:28:24.521	WT901BLE68-01(48591DE3C19B)	-0.195	-1.928	-0.006	-32.959	-31.860	224.060	-74.13	44.27	-98.00	-49.980	-48.020	-25.186	0.46686	-0.37720	0.49594	-0.62744	31.3	13111	100
2025-3-27 18:28:24.521	WT901BLE68-01(48591DE3C19B)	-0.195	-2.129	0.123	-20.569	-59.998	196.411	-73.52	45.98	-96.72	-49.980	-48.020	-25.186	0.46686	-0.37720	0.49594	-0.62744	31.3	13111	100
2025-3-27 18:28:24.521	WT901BLE68-01(48591DE3C19B)	0.270	-2.129	0.123	-20.569	-59.998	196.411	-72.67	47.49	-95.24	-76.244	-45.962	-29.596	0.46686	-0.37720	0.49594	-0.62744	31.3	13111	100
2025-3-27 18:28:24.578	WT901BLE68-01(48591DE3C19B)	0.270	-2.214	0.111	-5.066	-68.237	161.072	-71.69	48.79	-93.71	-76.244	-45.962	-29.596	0.46686	-0.37720	0.49594	-0.62744	31.3	13111	100
2025-3-27 18:28:24.579	WT901BLE68-01(48591DE3C19B)	0.598	-2.214	0.111	-5.066	-68.237	161.072	-70.59	49.87	-92.14	-76.244	-45.962	-29.596	0.46686	-0.37720	0.49594	-0.62744	31.3	13111	100
2025-3-27 18:28:24.579	WT901BLE68-01(48591DE3C19B)	0.598	-2.251	0.153	12.573	-44.800	136.292	-69.52	50.83	-90.75	-76.244	-45.962	-29.596	0.46686	-0.37720	0.49594	-0.62744	31.3	13111	100
2025-3-27 18:28:24.579	WT901BLE68-01(48591DE3C19B)	0.398	-2.251	0.153	12.573	-44.800	136.292	-68.50	51.69	-89.55	-76.244	-45.962	-29.596	0.46686	-0.37720	0.49594	-0.62744	31.3	13111	100
2025-3-27 18:28:24.609	WT901BLE68-01(48591DE3C19B)	0.398	-2.002	0.313	19.531	-5.981	103.638	-67.72	52.44	-88.71	-76.244	-45.962	-29.596	0.46686	-0.37720	0.49594	-0.62744	31.3	13111	100
2025-3-27 18:28:24.609	WT901BLE68-01(48591DE3C19B)	0.248	-2.002	0.313	19.531	-5.981	103.638	-67.19	53.10	-88.24	-76.244	-45.962	-29.596	0.46686	-0.37720	0.49594	-0.62744	31.3	13111	100
2025-3-27 18:28:24.609	WT901BLE68-01(48591DE3C19B)	0.248	-1.704	0.388	25.696	28.931	51.208	-66.97	53.56	-88.20	-76.244	-45.962	-29.596	0.46686	-0.37720	0.49594	-0.62744	31.3	13111	100
2025-3-27 18:28:24.609	WT901BLE68-01(48591DE3C19B)	0.197	-1.704	0.388	25.696	28.931	51.208	-67.08	53.85	-88.59	-76.244	-45.962	-29.596	0.46686	-0.37720	0.49594	-0.62744	31.3	13111	100
2025-3-27 18:28:24.638	WT901BLE68-01(48591DE3C19B)	0.197	-1.462	0.374	29.236	72.510	0.305	-67.95	53.84	-90.01	-76.244	-45.962	-29.596	0.46686	-0.37720	0.49594	-0.62744	31.3	13111	100
2025-3-27 18:28:24.638	WT901BLE68-01(48591DE3C19B)	0.154	-1.462	0.374	29.236	72.510	0.305	-68.82	53.80	-91.41	-76.244	-45.962	-29.596	0.46686	-0.37720	0.49594	-0.62744	31.3	13111	100
2025-3-27 18:28:24.638	WT901BLE68-01(48591DE3C19B)	0.154	-1.206	0.314	30.457	99.915	-47.607	-70.22	53.40	-93.50	-76.244	-45.962	-29.596	0.46686	-0.37720	0.49594	-0.62744	31.3	13111	100
2025-3-27 18:28:24.638	WT901BLE68-01(48591DE3C19B)	0.096	-1.206	0.314	30.457	99.915	-47.607	-71.58	52.97	-95.55	-76.244	-45.962	-29.596	0.46686	-0.37720	0.49594	-0.62744	31.3	13111	100
2025-3-27 18:28:24.701	WT901BLE68-01(48591DE3C19B)	0.096	-1.024	0.238	32.288	98.328	-91.064	-72.99	52.08	-97.73	-76.244	-45.962	-29.596	0.46686	-0.37720	0.49594	-0.62744	31.3	13111	100
2025-3-27 18:28:24.701	WT901BLE68-01(48591DE3C19B)	0.036	-1.024	0.238	32.288	98.328	-91.064	-74.32	51.17	-99.82	-76.244	-45.962	-29.596	0.46686	-0.37720	0.49594	-0.62744	31.3	13111	100
2025-3-27 18:28:24.701	WT901BLE68-01(48591DE3C19B)	0.036	-0.885	0.159	33.630	82.520	-126.709	-75.47	49.86	-101.73	-76.244	-45.962	-29.596	0.46686	-0.37720	0.49594	-0.62744	31.3	13111	100
2025-3-27 18:28:24.701	WT901BLE68-01(48591DE3C19B)	-0.081	-0.885	0.159	33.630	82.520	-126.709	-76.50	48.53	-103.54	-76.244	-45.962	-29.596	0.46686	-0.37720	0.49594	-0.62744	31.3	13111	100
2025-3-27 18:28:24.790	WT901BLE68-01(48591DE3C19B)	-0.081	-0.826	0.099	34.119	62.561	-159.485	-77.30	46.83	-105.08	-76.244	-45.962	-29.596	0.46686	-0.37720	0.49594	-0.62744	31.3	13111	100
2025-3-27 18:28:24.790	WT901BLE68-01(48591DE3C19B)	-0.237	-0.826	0.099	34.119	62.561	-159.485	-78.01	45.13	-106.53	-76.244	-45.962	-29.596	0.46686	-0.37720	0.49594	-0.62744	31.3	13111	100
2025-3-27 18:28:24.790	WT901BLE68-01(48591DE3C19B)	-0.237	-0.839	0.104	36.255	34.912	-183.411	-78.40	43.14	-107.61	-76.244	-45.962	-29.596	0.46686	-0.37720	0.49594	-0.62744	31.3	13111	100
2025-3-27 18:28:24.790	WT901BLE68-01(48591DE3C19B)	-0.333	-0.839	0.104	36.255	34.912	-183.411	-78.72	41.16	-108.63	-76.244	-45.962	-29.596	0.59888	-0.13113	0.63870	-0.46481	31.3	13111	100
2025-3-27 18:28:24.791	WT901BLE68-01(48591DE3C19B)	-0.333	-0.853	0.127	34.790	-2.441	-207.397	-78.73	38.90	-109.19	-76.244	-45.962	-29.596	0.59888	-0.13113	0.63870	-0.46481	31.3	13111	100
2025-3-27 18:28:24.791	WT901BLE68-01(48591DE3C19B)	-0.335	-0.853	0.127	34.790	-2.441	-207.397	-78.72	36.66	-109.73	-76.244	-45.962	-29.596	0.59888	-0.13113	0.63870	-0.46481	31.3	13111	100
2025-3-27 18:28:24.791	WT901BLE68-01(48591DE3C19B)	-0.335	-0.875	0.168	33.325	-43.945	-231.567	-78.45	34.12	-109.83	-76.244	-45.962	-29.596	0.59888	-0.13113	0.63870	-0.46481	31.3	13111	100
2025-3-27 18:28:24.791	WT901BLE68-01(48591DE3C19B)	-0.326	-0.875	0.168	33.325	-43.945	-231.567	-78.17	31.60	-109.95	-76.244	-45.962	-29.596	0.59888	-0.13113	0.63870	-0.46481	31.3	13111	100
2025-3-27 18:28:24.821	WT901BLE68-01(48591DE3C19B)	-0.326	-0.917	0.194	25.635	-80.139	-253.723	-77.81	28.82	-109.72	-76.244	-45.962	-29.596	0.59888	-0.13113	0.63870	-0.46481	31.3	13111	100
2025-3-27 18:28:24.821	WT901BLE68-01(48591DE3C19B)	-0.305	-0.917	0.194	25.635	-80.139	-253.723	-77.46	26.06	-109.53	-76.244	-45.962	-29.596	0.59888	-0.13113	0.63870	-0.46481	31.3	13111	100
2025-3-27 18:28:24.821	WT901BLE68-01(48591DE3C19B)	-0.305	-1.000	0.215	16.846	-98.572	-273.132	-77.16	23.09	-109.21	-76.244	-45.962	-29.596	0.59888	-0.13113	0.63870	-0.46481	31.3	13111	100
2025-3-27 18:28:24.821	WT901BLE68-01(48591DE3C19B)	-0.313	-1.000	0.215	16.846	-98.572	-273.132	-76.88	20.14	-108.92	-76.244	-45.962	-29.596	0.59888	-0.13113	0.63870	-0.46481	31.3	13111	100
2025-3-27 18:28:24.851	WT901BLE68-01(48591DE3C19B)	-0.313	-1.104	0.225	8.240	-88.745	-287.048	-76.75	17.09	-108.78	-76.244	-45.962	-29.596	0.59888	-0.13113	0.63870	-0.46481	31.3	13111	100
2025-3-27 18:28:24.851	WT901BLE68-01(48591DE3C19B)	-0.340	-1.104	0.225	8.240	-88.745	-287.048	-76.64	14.07	-108.66	-76.244	-45.962	-29.596	0.59888	-0.13113	0.63870	-0.46481	31.3	13111	100
2025-3-27 18:28:24.851	WT901BLE68-01(48591DE3C19B)	-0.340	-1.172	0.236	3.967	-56.702	-295.959	-76.65	11.06	-108.89	-76.244	-45.962	-29.596	0.59888	-0.13113	0.63870	-0.46481	31.3	13111	100
2025-3-27 18:28:24.851	WT901BLE68-01(48591DE3C19B)	-0.360	-1.172	0.236	3.967	-56.702	-295.959	-76.65	8.07	-109.12	-76.244	-45.962	-29.596	0.59888	-0.13113	0.63870	-0.46481	31.3	13111	100
2025-3-27 18:28:24.881	WT901BLE68-01(48591DE3C19B)	-0.360	-1.214	0.228	2.686	-20.142	-299.927	-76.68	5.15	-109.71	-76.244	-45.962	-29.596	0.59888	-0.13113	0.63870	-0.46481	31.3	13111	100
2025-3-27 18:28:24.881	WT901BLE68-01(48591DE3C19B)	-0.342	-1.214	0.228	2.686	-20.142	-299.927	-76.70	2.24	-110.30	-76.244	-45.962	-29.596	0.59888	-0.13113	0.63870	-0.46481	31.3	13111	100
2025-3-27 18:28:24.881	WT901BLE68-01(48591DE3C19B)	-0.342	-1.222	0.211	5.737	14.526	-297.546	-76.66	-0.53	-111.22	-76.244	-45.962	-29.596	0.59888	-0.13113	0.63870	-0.46481	31.3	13111	100
2025-3-27 18:28:24.881	WT901BLE68-01(48591DE3C19B)	-0.348	-1.222	0.211	5.737	14.526	-297.546	-76.58	-3.30	-112.15	-76.244	-45.962	-29.596	0.59888	-0.13113	0.63870	-0.46481	31.3	13111	100
2025-3-27 18:28:25.0	WT901BLE68-01(48591DE3C19B)	-0.348	-1.192	0.203	10.681	44.434	-287.659	-76.39	-5.88	-113.35	-76.244	-45.962	-29.596	0.59888	-0.13113	0.63870	-0.46481	31.3	13111	100
2025-3-27 18:28:25.0	WT901BLE68-01(48591DE3C19B)	-0.407	-1.192	0.203	10.681	44.434	-287.659	-76.15	-8.44	-114.57	-57.134	-58.996	-28.028	0.59888	-0.13113	0.63870	-0.46481	31.3	13111	100
2025-3-27 18:28:25.0	WT901BLE68-01(48591DE3C19B)	-0.407	-1.139	0.207	15.564	59.631	-270.813	-75.78	-10.77	-115.92	-57.134	-58.996	-28.028	0.59888	-0.13113	0.63870	-0.46481	31.3	13111	100
2025-3-27 18:28:25.0	WT901BLE68-01(48591DE3C19B)	-0.458	-1.139	0.207	15.564	59.631	-270.813	-75.36	-13.08	-117.30	-57.134	-58.996	-28.028	0.59888	-0.13113	0.63870	-0.46481	31.3	13111	100
2025-3-27 18:28:25.1	WT901BLE68-01(48591DE3C19B)	-0.458	-1.035	0.275	25.024	64.636	-249.451	-74.79	-15.14	-118.71	-57.134	-58.996	-28.028	0.59888	-0.13113	0.63870	-0.46481	31.3	13111	100
2025-3-27 18:28:25.1	WT901BLE68-01(48591DE3C19B)	-0.481	-1.035	0.275	25.024	64.636	-249.451	-74.16	-17.18	-120.16	-57.134	-58.996	-28.028	0.59888	-0.13113	0.63870	-0.46481	31.3	13111	100
2025-3-27 18:28:25.1	WT901BLE68-01(48591DE3C19B)	-0.481	-0.900	0.353	29.846	67.505	-222.107	-73.44	-18.91	-121.61	-57.134	-58.996	-28.028	0.59888	-0.13113	0.63870	-0.46481	31.3	13111	100
2025-3-27 18:28:25.1	WT901BLE68-01(48591DE3C19B)	-0.465	-0.900	0.353	29.846	67.505	-222.107	-72.66	-20.62	-123.11	-57.134	-58.996	-28.028	0.59888	-0.13113	0.63870	-0.46481	31.3	13111	100
2025-3-27 18:28:25.2	WT901BLE68-01(48591DE3C19B)	-0.465	-0.798	0.324	31.372	76.843	-190.613	-71.81	-21.96	-124.66	-57.134	-58.996	-28.028	0.59888	-0.13113	0.63870	-0.46481	31.3	13111	100
2025-3-27 18:28:25.2	WT901BLE68-01(48591DE3C19B)	-0.435	-0.798	0.324	31.372	76.843	-190.613	-70.92	-23.26	-126.25	-57.134	-58.996	-28.028	0.59888	-0.13113	0.63870	-0.46481	31.3	13111	100
2025-3-27 18:28:25.2	WT901BLE68-01(48591DE3C19B)	-0.435	-0.728	0.282	30.945	91.003	-158.081	-69.97	-24.19	-127.91	-57.134	-58.996	-28.028	0.59888	-0.13113	0.63870	-0.46481	31.3	13111	100
2025-3-27 18:28:25.2	WT901BLE68-01(48591DE3C19B)	-0.451	-0.728	0.282	30.945	91.003	-158.081	-68.98	-25.08	-129.62	-57.134	-58.996	-28.028	0.59888	-0.13113	0.63870	-0.46481	31.3	13111	100
2025-3-27 18:28:25.59	WT901BLE68-01(48591DE3C19B)	-0.451	-0.771	0.257	27.588	100.586	-125.427	-68.01	-25.60	-131.33	-57.134	-58.996	-28.028	0.59888	-0.13113	0.63870	-0.46481	31.3	13111	100
2025-3-27 18:28:25.59	WT901BLE68-01(48591DE3C19B)	-0.477	-0.771	0.257	27.588	100.586	-125.427	-67.02	-26.09	-133.07	-57.134	-58.996	-28.028	0.59888	-0.13113	0.63870	-0.46481	31.3	13111	100
2025-3-27 18:28:25.59	WT901BLE68-01(48591DE3C19B)	-0.477	-0.941	0.268	21.423	96.985	-94.971	-66.15	-26.29	-134.65	-57.134	-58.996	-28.028	0.59888	-0.13113	0.63870	-0.46481	31.3	13111	100
2025-3-27 18:28:25.60	WT901BLE68-01(48591DE3C19B)	-0.493	-0.941	0.268	21.423	96.985	-94.971	-65.27	-26.47	-136.25	-57.134	-58.996	-28.028	0.59888	-0.13113	0.63870	-0.46481	31.3	13111	100
2025-3-27 18:28:25.91	WT901BLE68-01(48591DE3C19B)	-0.541	-1.201	0.210	7.568	86.975	-68.604	-64.64	-26.43	-137.64	-57.134	-58.996	-28.028	0.59888	-0.13113	0.63870	-0.46481	31.3	13111	100
2025-3-27 18:28:25.91	WT901BLE68-01(48591DE3C19B)	-0.541	-1.478	0.179	0.244	79.956	-44.434	-64.09	-26.28	-138.92	-57.134	-58.996	-28.028	0.59888	-0.13113	0.63870	-0.46481	31.3	13111	100
2025-3-27 18:28:25.91	WT901BLE68-01(48591DE3C19B)	-0.644	-1.478	0.179	0.244	79.956	-44.434	-63.64	-26.04	-140.11	-57.134	-58.996	-28.028	0.59888	-0.13113	0.63870	-0.46481	31.3	13111	100
2025-3-27 18:28:25.91	WT901BLE68-01(48591DE3C19B)	-0.644	-1.612	0.208	-1.099	71.350	-19.165	-63.25	-25.69	-141.19	-57.134	-58.996	-28.028	0.59888	-0.13113	0.63870	-0.46481	31.3	13111	100
2025-3-27 18:28:25.121	WT901BLE68-01(48591DE3C19B)	-0.741	-1.612	0.208	-1.099	71.350	-19.165	-62.93	-25.25	-142.16	-57.134	-58.996	-28.028	0.59888	-0.13113	0.63870	-0.46481	31.3	13111	100
2025-3-27 18:28:25.121	WT901BLE68-01(48591DE3C19B)	-0.741	-1.366	0.303	-0.488	53.284	-1.160	-62.67	-24.76	-142.99	-57.134	-58.996	-28.028	0.59888	-0.13113	0.63870	-0.46481	31.3	13111	100
2025-3-27 18:28:25.121	WT901BLE68-01(48591DE3C19B)	-0.722	-1.366	0.303	-0.488	53.284	-1.160	-62.46	-24.24	-143.71	-57.134	-58.996	-28.028	0.15582	-0.32526	0.42694	-0.82919	31.3	13111	100
2025-3-27 18:28:25.122	WT901BLE68-01(48591DE3C19B)	-0.722	-1.087	0.404	-21.301	27.588	19.653	-62.44	-23.68	-144.24	-57.134	-58.996	-28.028	0.15582	-0.32526	0.42694	-0.82919	31.3	13111	100
2025-3-27 18:28:25.209	WT901BLE68-01(48591DE3C19B)	-0.729	-1.087	0.404	-21.301	27.588	19.653	-62.57	-23.09	-144.62	-57.134	-58.996	-28.028	0.15582	-0.32526	0.42694	-0.82919	31.3	13111	100
2025-3-27 18:28:25.210	WT901BLE68-01(48591DE3C19B)	-0.729	-1.002	0.454	-40.894	-2.014	42.847	-62.88	-22.46	-144.81	-57.134	-58.996	-28.028	0.15582	-0.32526	0.42694	-0.82919	31.3	13111	100
2025-3-27 18:28:25.210	WT901BLE68-01(48591DE3C19B)	-0.725	-1.002	0.454	-40.894	-2.014	42.847	-63.34	-21.80	-144.81	-57.134	-58.996	-28.028	0.15582	-0.32526	0.42694	-0.82919	31.3	13111	100
2025-3-27 18:28:25.210	WT901BLE68-01(48591DE3C19B)	-0.725	-0.900	0.473	-51.636	-41.748	67.261	-63.93	-21.12	-144.57	-57.134	-58.996	-28.028	0.15582	-0.32526	0.42694	-0.82919	31.3	13111	100
2025-3-27 18:28:25.210	WT901BLE68-01(48591DE3C19B)	-0.660	-0.900	0.473	-51.636	-41.748	67.261	-64.65	-20.41	-144.10	-57.134	-58.996	-28.028	0.15582	-0.32526	0.42694	-0.82919	31.3	13111	100
2025-3-27 18:28:25.211	WT901BLE68-01(48591DE3C19B)	-0.660	-0.840	0.413	-61.340	-87.524	92.468	-65.49	-19.68	-143.37	-57.134	-58.996	-28.028	0.15582	-0.32526	0.42694	-0.82919	31.3	13111	100
2025-3-27 18:28:25.211	WT901BLE68-01(48591DE3C19B)	-0.573	-0.840	0.413	-61.340	-87.524	92.468	-66.44	-18.92	-142.38	-57.134	-58.996	-28.028	0.15582	-0.32526	0.42694	-0.82919	31.3	13111	100
2025-3-27 18:28:25.211	WT901BLE68-01(48591DE3C19B)	-0.573	-0.826	0.302	-64.331	-122.986	120.544	-67.45	-18.08	-141.18	-57.134	-58.996	-28.028	0.15582	-0.32526	0.42694	-0.82919	31.3	13111	100
2025-3-27 18:28:25.241	WT901BLE68-01(48591DE3C19B)	-0.494	-0.826	0.302	-64.331	-122.986	120.544	-68.51	-17.17	-139.77	-57.134	-58.996	-28.028	0.15582	-0.32526	0.42694	-0.82919	31.3	13111	100
2025-3-27 18:28:25.241	WT901BLE68-01(48591DE3C19B)	-0.494	-0.821	0.187	-63.721	-145.996	146.851	-69.58	-16.14	-138.21	-57.134	-58.996	-28.028	0.15582	-0.32526	0.42694	-0.82919	31.3	13111	100
2025-3-27 18:28:25.241	WT901BLE68-01(48591DE3C19B)	-0.440	-0.821	0.187	-63.721	-145.996	146.851	-70.64	-15.00	-136.53	-57.134	-58.996	-28.028	0.15582	-0.32526	0.42694	-0.82919	31.3	13111	100
2025-3-27 18:28:25.241	WT901BLE68-01(48591DE3C19B)	-0.440	-0.941	0.127	-61.951	-158.203	169.250	-71.68	-13.75	-134.77	-57.134	-58.996	-28.028	0.15582	-0.32526	0.42694	-0.82919	31.3	13111	100
2025-3-27 18:28:25.301	WT901BLE68-01(48591DE3C19B)	-0.461	-0.941	0.127	-61.951	-158.203	169.250	-72.69	-12.39	-132.93	-57.134	-58.996	-28.028	0.15582	-0.32526	0.42694	-0.82919	31.3	13111	100
2025-3-27 18:28:25.301	WT901BLE68-01(48591DE3C19B)	-0.461	-1.239	0.159	-54.138	-170.105	187.561	-73.62	-10.93	-131.03	-57.134	-58.996	-28.028	0.15582	-0.32526	0.42694	-0.82919	31.3	13111	100
2025-3-27 18:28:25.301	WT901BLE68-01(48591DE3C19B)	-0.410	-1.239	0.159	-54.138	-170.105	187.561	-74.49	-9.38	-129.07	-57.134	-58.996	-28.028	0.15582	-0.32526	0.42694	-0.82919	31.3	13111	100
2025-3-27 18:28:25.301	WT901BLE68-01(48591DE3C19B)	-0.410	-1.628	0.154	-34.668	-178.772	202.393	-75.21	-7.75	-127.06	-57.134	-58.996	-28.028	0.15582	-0.32526	0.42694	-0.82919	31.3	13111	100
2025-3-27 18:28:25.331	WT901BLE68-01(48591DE3C19B)	-0.201	-1.628	0.154	-34.668	-178.772	202.393	-75.78	-6.05	-124.98	-57.134	-58.996	-28.028	0.15582	-0.32526	0.42694	-0.82919	31.3	13111	100
2025-3-27 18:28:25.331	WT901BLE68-01(48591DE3C19B)	-0.201	-1.796	0.091	0.977	-160.034	216.492	-76.12	-4.26	-122.99	-57.134	-58.996	-28.028	0.15582	-0.32526	0.42694	-0.82919	31.3	13111	100
2025-3-27 18:28:25.331	WT901BLE68-01(48591DE3C19B)	-0.033	-1.796	0.091	0.977	-160.034	216.492	-76.22	-2.40	-121.05	-57.134	-58.996	-28.028	0.15582	-0.32526	0.42694	-0.82919	31.3	13111	100
2025-3-27 18:28:25.331	WT901BLE68-01(48591DE3C19B)	-0.033	-1.665	0.061	26.245	-115.906	231.934	-76.14	-0.42	-119.29	-48.020	-53.410	-26.068	0.15582	-0.32526	0.42694	-0.82919	31.3	13111	100
2025-3-27 18:28:25.419	WT901BLE68-01(48591DE3C19B)	-0.028	-1.665	0.061	26.245	-115.906	231.934	-75.88	1.64	-117.70	-48.020	-53.410	-26.068	0.15582	-0.32526	0.42694	-0.82919	31.3	13111	100
2025-3-27 18:28:25.420	WT901BLE68-01(48591DE3C19B)	-0.028	-1.507	0.068	35.400	-69.519	238.281	-75.54	3.77	-116.31	-48.020	-53.410	-26.068	0.15582	-0.32526	0.42694	-0.82919	31.3	13111	100
2025-3-27 18:28:25.420	WT901BLE68-01(48591DE3C19B)	-0.059	-1.507	0.068	35.400	-69.519	238.281	-75.11	5.95	-115.10	-48.020	-53.410	-26.068	0.15582	-0.32526	0.42694	-0.82919	31.3	13111	100
2025-3-27 18:28:25.420	WT901BLE68-01(48591DE3C19B)	-0.059	-1.382	0.106	34.851	-33.752	240.295	-74.67	8.16	-114.04	-48.020	-53.410	-26.068	0.15582	-0.32526	0.42694	-0.82919	31.3	13111	100
2025-3-27 18:28:25.421	WT901BLE68-01(48591DE3C19B)	-0.125	-1.382	0.106	34.851	-33.752	240.295	-74.22	10.40	-113.12	-48.020	-53.410	-26.068	0.15582	-0.32526	0.42694	-0.82919	31.3	13111	100
2025-3-27 18:28:25.421	WT901BLE68-01(48591DE3C19B)	-0.125	-1.297	0.174	32.166	-11.597	240.845	-73.76	12.65	-112.27	-48.020	-53.410	-26.068	0.15582	-0.32526	0.42694	-0.82919	31.3	13111	100
2025-3-27 18:28:25.421	WT901BLE68-01(48591DE3C19B)	-0.184	-1.297	0.174	32.166	-11.597	240.845	-73.31	14.91	-111.52	-48.020	-53.410	-26.068	0.15582	-0.32526	0.42694	-0.82919	31.3	13111	100
2025-3-27 18:28:25.421	WT901BLE68-01(48591DE3C19B)	-0.184	-1.231	0.213	28.687	3.784	238.892	-72.86	17.16	-110.81	-48.020	-53.410	-26.068	0.15582	-0.32526	0.42694	-0.82919	31.3	13111	100
2025-3-27 18:28:25.451	WT901BLE68-01(48591DE3C19B)	-0.222	-1.231	0.213	28.687	3.784	238.892	-72.42	19.40	-110.15	-48.020	-53.410	-26.068	0.15582	-0.32526	0.42694	-0.82919	31.3	13111	100
2025-3-27 18:28:25.451	WT901BLE68-01(48591DE3C19B)	-0.222	-1.178	0.211	24.841	17.273	233.093	-71.99	21.62	-109.56	-48.020	-53.410	-26.068	0.15582	-0.32526	0.42694	-0.82919	31.3	13111	100
2025-3-27 18:28:25.451	WT901BLE68-01(48591DE3C19B)	-0.262	-1.178	0.211	24.841	17.273	233.093	-71.58	23.81	-109.01	-48.020	-53.410	-26.068	0.15582	-0.32526	0.42694	-0.82919	31.3	13111	100
2025-3-27 18:28:25.451	WT901BLE68-01(48591DE3C19B)	-0.262	-1.150	0.181	20.752	30.396	222.900	-71.20	25.96	-108.52	-48.020	-53.410	-26.068	0.15582	-0.32526	0.42694	-0.82919	31.3	13111	100
2025-3-27 18:28:25.480	WT901BLE68-01(48591DE3C19B)	-0.314	-1.150	0.181	20.752	30.396	222.900	-70.85	28.07	-108.09	-48.020	-53.410	-26.068	0.15582	-0.32526	0.42694	-0.82919	31.3	13111	100
2025-3-27 18:28:25.480	WT901BLE68-01(48591DE3C19B)	-0.314	-1.157	0.127	14.587	38.513	210.327	-70.54	30.12	-107.71	-48.020	-53.410	-26.068	0.15582	-0.32526	0.42694	-0.82919	31.3	13111	100
2025-3-27 18:28:25.480	WT901BLE68-01(48591DE3C19B)	-0.329	-1.157	0.127	14.587	38.513	210.327	-70.27	32.11	-107.38	-48.020	-53.410	-26.068	0.15582	-0.32526	0.42694	-0.82919	31.3	13111	100
2025-3-27 18:28:25.480	WT901BLE68-01(48591DE3C19B)	-0.329	-1.170	0.054	8.057	35.461	196.167	-70.03	34.02	-107.04	-48.020	-53.410	-26.068	0.15582	-0.32526	0.42694	-0.82919	31.3	13111	100
2025-3-27 18:28:25.569	WT901BLE68-01(48591DE3C19B)	-0.320	-1.170	0.054	8.057	35.461	196.167	-69.81	35.85	-106.70	-48.020	-53.410	-26.068	0.15582	-0.32526	0.42694	-0.82919	31.3	13111	100
2025-3-27 18:28:25.569	WT901BLE68-01(48591DE3C19B)	-0.320	-1.188	0.007	1.648	22.339	183.594	-69.58	37.59	-106.29	-48.020	-53.410	-26.068	0.15582	-0.32526	0.42694	-0.82919	31.3	13111	100
2025-3-27 18:28:25.569	WT901BLE68-01(48591DE3C19B)	-0.300	-1.188	0.007	1.648	22.339	183.594	-69.33	39.23	-105.81	-48.020	-53.410	-26.068	0.15582	-0.32526	0.42694	-0.82919	31.3	13111	100
2025-3-27 18:28:25.569	WT901BLE68-01(48591DE3C19B)	-0.300	-1.181	-0.039	-2.502	2.136	173.279	-68.98	40.70	-105.11	-48.020	-53.410	-26.068	0.15582	-0.32526	0.42694	-0.82919	31.3	13111	100
2025-3-27 18:28:25.570	WT901BLE68-01(48591DE3C19B)	-0.262	-1.181	-0.039	-2.502	2.136	173.279	-68.60	42.16	-104.38	-48.020	-53.410	-26.068	0.63266	-0.08759	0.59753	-0.48468	31.3	13111	100
2025-3-27 18:28:25.570	WT901BLE68-01(48591DE3C19B)	-0.262	-1.175	-0.074	-9.338	-20.264	164.978	-68.09	43.45	-103.38	-48.020	-53.410	-26.068	0.63266	-0.08759	0.59753	-0.48468	31.3	13111	100
2025-3-27 18:28:25.570	WT901BLE68-01(48591DE3C19B)	-0.248	-1.175	-0.074	-9.338	-20.264	164.978	-67.55	44.71	-102.34	-48.020	-53.410	-26.068	0.63266	-0.08759	0.59753	-0.48468	31.3	13111	100
2025-3-27 18:28:25.571	WT901BLE68-01(48591DE3C19B)	-0.248	-1.255	-0.058	-17.090	-42.419	158.386	-66.88	45.82	-101.01	-48.020	-53.410	-26.068	0.63266	-0.08759	0.59753	-0.48468	31.3	13111	100
2025-3-27 18:28:25.601	WT901BLE68-01(48591DE3C19B)	-0.256	-1.255	-0.058	-17.090	-42.419	158.386	-66.16	46.92	-99.64	-48.020	-53.410	-26.068	0.63266	-0.08759	0.59753	-0.48468	31.3	13111	100
2025-3-27 18:28:25.601	WT901BLE68-01(48591DE3C19B)	-0.256	-1.369	0.022	-21.057	-62.317	151.428	-65.26	47.85	-98.00	-48.020	-53.410	-26.068	0.63266	-0.08759	0.59753	-0.48468	31.3	13111	100
2025-3-27 18:28:25.601	WT901BLE68-01(48591DE3C19B)	-0.263	-1.369	0.022	-21.057	-62.317	151.428	-64.32	48.75	-96.31	-48.020	-53.410	-26.068	0.63266	-0.08759	0.59753	-0.48468	31.3	13111	100
2025-3-27 18:28:25.602	WT901BLE68-01(48591DE3C19B)	-0.263	-1.478	0.081	-19.226	-81.604	143.372	-63.16	49.47	-94.37	-48.020	-53.410	-26.068	0.63266	-0.08759	0.59753	-0.48468	31.3	13111	100
2025-3-27 18:28:25.659	WT901BLE68-01(48591DE3C19B)	-0.194	-1.478	0.081	-19.226	-81.604	143.372	-61.95	50.16	-92.39	-48.020	-53.410	-26.068	0.63266	-0.08759	0.59753	-0.48468	31.3	13111	100
2025-3-27 18:28:25.659	WT901BLE68-01(48591DE3C19B)	-0.194	-1.454	0.098	-11.719	-90.332	132.507	-60.58	50.67	-90.33	-48.020	-53.410	-26.068	0.63266	-0.08759	0.59753	-0.48468	31.3	13111	100
2025-3-27 18:28:25.659	WT901BLE68-01(48591DE3C19B)	-0.126	-1.454	0.098	-11.719	-90.332	132.507	-59.19	51.16	-88.24	-48.020	-53.410	-26.068	0.63266	-0.08759	0.59753	-0.48468	31.3	13111	100
2025-3-27 18:28:25.659	WT901BLE68-01(48591DE3C19B)	-0.126	-1.341	0.095	-8.850	-82.520	116.699	-57.93	51.51	-86.36	-48.020	-53.410	-26.068	0.63266	-0.08759	0.59753	-0.48468	31.3	13111	100
2025-3-27 18:28:25.691	WT901BLE68-01(48591DE3C19B)	-0.118	-1.341	0.095	-8.850	-82.520	116.699	-56.64	51.83	-84.46	-48.020	-53.410	-26.068	0.63266	-0.08759	0.59753	-0.48468	31.3	13111	100
2025-3-27 18:28:25.691	WT901BLE68-01(48591DE3C19B)	-0.118	-1.275	0.108	-12.024	-65.002	94.666	-55.71	52.04	-82.98	-48.020	-53.410	-26.068	0.63266	-0.08759	0.59753	-0.48468	31.3	13111	100
2025-3-27 18:28:25.691	WT901BLE68-01(48591DE3C19B)	-0.143	-1.275	0.108	-12.024	-65.002	94.666	-54.77	52.23	-81.49	-48.020	-53.410	-26.068	0.63266	-0.08759	0.59753	-0.48468	31.3	13111	100
2025-3-27 18:28:25.691	WT901BLE68-01(48591DE3C19B)	-0.143	-1.215	0.149	-15.259	-47.729	66.711	-54.26	52.29	-80.50	-48.020	-53.410	-26.068	0.63266	-0.08759	0.59753	-0.48468	31.3	13111	100
2025-3-27 18:28:25.721	WT901BLE68-01(48591DE3C19B)	-0.159	-1.215	0.149	-15.259	-47.729	66.711	-53.74	52.33	-79.50	-48.020	-53.410	-26.068	0.63266	-0.08759	0.59753	-0.48468	31.3	13111	100
