time	DeviceName	AccX(g)	AccY(g)	AccZ(g)	AsX(°/s)	AsY(°/s)	AsZ(°/s)	AngleX(°)	AngleY(°)	AngleZ(°)	HX(uT)	HY(uT)	HZ(uT)	Q0()	Q1()	Q2()	Q3()	Temperature(°C)	Version()	Battery level(%)
2025-3-7 0:3:19.435	WT901BLE68-01(48591DE3C19B)	0.303	0.395	0.991	10.620	-13.794	-1.343	30.33	-38.90	-145.54	-37.240	-54.586	44.590	0.36493	-0.25110	-0.35681	-0.82242	29.9	13111	100
2025-3-7 0:3:19.435	WT901BLE68-01(48591DE3C19B)	0.316	0.395	0.991	10.620	-13.794	-1.343	30.44	-38.88	-145.65	-37.240	-54.586	44.590	0.36493	-0.25110	-0.35681	-0.82242	29.9	13111	100
2025-3-7 0:3:19.435	WT901BLE68-01(48591DE3C19B)	0.316	0.408	0.993	2.502	-3.662	-8.057	30.51	-38.79	-145.76	-37.240	-54.586	44.590	0.36493	-0.25110	-0.35681	-0.82242	29.9	13111	100
2025-3-7 0:3:19.435	WT901BLE68-01(48591DE3C19B)	0.323	0.408	0.993	2.502	-3.662	-8.057	30.55	-38.66	-145.88	-37.240	-54.586	44.590	0.36493	-0.25110	-0.35681	-0.82242	29.9	13111	100
2025-3-7 0:3:19.465	WT901BLE68-01(48591DE3C19B)	0.323	0.389	0.964	3.235	8.850	-13.489	30.59	-38.45	-145.98	-37.240	-54.586	44.590	0.36493	-0.25110	-0.35681	-0.82242	29.9	13111	100
2025-3-7 0:3:19.465	WT901BLE68-01(48591DE3C19B)	0.320	0.389	0.964	3.235	8.850	-13.489	30.62	-38.17	-146.07	-37.240	-54.586	44.590	0.36493	-0.25110	-0.35681	-0.82242	29.9	13111	100
2025-3-7 0:3:19.465	WT901BLE68-01(48591DE3C19B)	0.320	0.363	0.919	6.531	16.479	-16.418	30.66	-37.86	-146.16	-37.240	-54.586	44.590	0.36493	-0.25110	-0.35681	-0.82242	29.9	13111	100
2025-3-7 0:3:19.465	WT901BLE68-01(48591DE3C19B)	0.318	0.363	0.919	6.531	16.479	-16.418	30.71	-37.51	-146.23	-37.240	-54.586	44.590	0.36493	-0.25110	-0.35681	-0.82242	29.9	13111	100
2025-3-7 0:3:19.526	WT901BLE68-01(48591DE3C19B)	0.318	0.367	0.870	7.141	15.747	-16.357	30.76	-37.17	-146.31	-37.240	-54.586	44.590	0.36493	-0.25110	-0.35681	-0.82242	29.9	13111	100
2025-3-7 0:3:19.526	WT901BLE68-01(48591DE3C19B)	0.308	0.367	0.870	7.141	15.747	-16.357	30.82	-36.83	-146.38	-37.240	-54.586	44.590	0.36493	-0.25110	-0.35681	-0.82242	29.9	13111	100
2025-3-7 0:3:19.526	WT901BLE68-01(48591DE3C19B)	0.308	0.362	0.850	9.094	12.939	-16.907	30.92	-36.52	-146.49	-37.240	-54.586	44.590	0.36493	-0.25110	-0.35681	-0.82242	29.9	13111	100
2025-3-7 0:3:19.526	WT901BLE68-01(48591DE3C19B)	0.301	0.362	0.850	9.094	12.939	-16.907	31.00	-36.21	-146.58	-37.240	-54.586	44.590	0.36493	-0.25110	-0.35681	-0.82242	29.9	13111	100
2025-3-7 0:3:19.555	WT901BLE68-01(48591DE3C19B)	0.301	0.360	0.854	8.972	8.118	-16.052	31.11	-35.94	-146.70	-37.240	-54.586	44.590	0.34125	-0.21069	-0.32956	-0.85464	29.9	13111	100
2025-3-7 0:3:19.556	WT901BLE68-01(48591DE3C19B)	0.292	0.360	0.854	8.972	8.118	-16.052	31.21	-35.68	-146.82	-37.240	-54.586	44.590	0.34125	-0.21069	-0.32956	-0.85464	29.9	13111	100
2025-3-7 0:3:19.556	WT901BLE68-01(48591DE3C19B)	0.292	0.356	0.867	6.531	5.798	-14.832	31.28	-35.45	-146.94	-37.240	-54.586	44.590	0.34125	-0.21069	-0.32956	-0.85464	29.9	13111	100
2025-3-7 0:3:19.556	WT901BLE68-01(48591DE3C19B)	0.285	0.356	0.867	6.531	5.798	-14.832	31.35	-35.21	-147.05	-37.240	-54.586	44.590	0.34125	-0.21069	-0.32956	-0.85464	29.9	13111	100
2025-3-7 0:3:19.586	WT901BLE68-01(48591DE3C19B)	0.285	0.343	0.868	3.235	4.883	-12.756	31.39	-35.00	-147.15	-37.240	-54.586	44.590	0.34125	-0.21069	-0.32956	-0.85464	29.9	13111	100
2025-3-7 0:3:19.586	WT901BLE68-01(48591DE3C19B)	0.280	0.343	0.868	3.235	4.883	-12.756	31.42	-34.79	-147.25	-37.240	-54.586	44.590	0.34125	-0.21069	-0.32956	-0.85464	29.9	13111	100
2025-3-7 0:3:19.586	WT901BLE68-01(48591DE3C19B)	0.280	0.333	0.903	2.686	6.042	-10.315	31.42	-34.58	-147.31	-37.240	-54.586	44.590	0.34125	-0.21069	-0.32956	-0.85464	29.9	13111	100
2025-3-7 0:3:19.587	WT901BLE68-01(48591DE3C19B)	0.278	0.333	0.903	2.686	6.042	-10.315	31.43	-34.37	-147.38	-37.240	-54.586	44.590	0.34125	-0.21069	-0.32956	-0.85464	29.9	13111	100
2025-3-7 0:3:19.646	WT901BLE68-01(48591DE3C19B)	0.278	0.344	0.919	1.648	8.850	-6.775	31.39	-34.16	-147.39	-37.240	-54.586	44.590	0.34125	-0.21069	-0.32956	-0.85464	29.9	13111	100
2025-3-7 0:3:19.646	WT901BLE68-01(48591DE3C19B)	0.273	0.344	0.919	1.648	8.850	-6.775	31.35	-33.94	-147.39	-37.240	-54.586	44.590	0.34125	-0.21069	-0.32956	-0.85464	29.9	13111	100
2025-3-7 0:3:19.646	WT901BLE68-01(48591DE3C19B)	0.273	0.370	0.915	1.465	11.597	-5.859	31.29	-33.71	-147.38	-37.240	-54.586	44.590	0.34125	-0.21069	-0.32956	-0.85464	29.9	13111	100
2025-3-7 0:3:19.646	WT901BLE68-01(48591DE3C19B)	0.267	0.370	0.915	1.465	11.597	-5.859	31.24	-33.48	-147.36	-37.240	-54.586	44.590	0.34125	-0.21069	-0.32956	-0.85464	29.9	13111	100
2025-3-7 0:3:19.675	WT901BLE68-01(48591DE3C19B)	0.267	0.396	0.912	0.793	13.245	-6.470	31.18	-33.23	-147.34	-37.240	-54.586	44.590	0.34125	-0.21069	-0.32956	-0.85464	29.9	13111	100
2025-3-7 0:3:19.675	WT901BLE68-01(48591DE3C19B)	0.262	0.396	0.912	0.793	13.245	-6.470	31.12	-32.99	-147.32	-37.240	-54.586	44.590	0.34125	-0.21069	-0.32956	-0.85464	29.9	13111	100
2025-3-7 0:3:19.675	WT901BLE68-01(48591DE3C19B)	0.262	0.402	0.900	4.578	14.099	-9.094	31.11	-32.72	-147.32	-37.240	-54.586	44.590	0.34125	-0.21069	-0.32956	-0.85464	29.9	13111	100
2025-3-7 0:3:19.676	WT901BLE68-01(48591DE3C19B)	0.256	0.402	0.900	4.578	14.099	-9.094	31.10	-32.45	-147.33	-37.240	-54.586	44.590	0.34125	-0.21069	-0.32956	-0.85464	29.9	13111	100
2025-3-7 0:3:19.707	WT901BLE68-01(48591DE3C19B)	0.256	0.400	0.912	9.338	12.634	-11.475	31.16	-32.19	-147.37	-37.240	-54.586	44.590	0.34125	-0.21069	-0.32956	-0.85464	29.9	13111	100
2025-3-7 0:3:19.707	WT901BLE68-01(48591DE3C19B)	0.258	0.400	0.912	9.338	12.634	-11.475	31.22	-31.93	-147.40	-37.240	-54.586	44.590	0.34125	-0.21069	-0.32956	-0.85464	29.9	13111	100
2025-3-7 0:3:19.708	WT901BLE68-01(48591DE3C19B)	0.258	0.417	0.903	7.874	9.949	-9.766	31.26	-31.69	-147.44	-37.240	-54.586	44.590	0.34125	-0.21069	-0.32956	-0.85464	29.9	13111	100
2025-3-7 0:3:19.708	WT901BLE68-01(48591DE3C19B)	0.250	0.417	0.903	7.874	9.949	-9.766	31.31	-31.46	-147.47	-37.240	-54.586	44.590	0.34125	-0.21069	-0.32956	-0.85464	29.9	13111	100
2025-3-7 0:3:19.766	WT901BLE68-01(48591DE3C19B)	0.250	0.420	0.910	8.911	9.399	-11.536	31.38	-31.22	-147.53	-37.240	-54.586	44.590	0.34125	-0.21069	-0.32956	-0.85464	29.9	13111	100
2025-3-7 0:3:19.766	WT901BLE68-01(48591DE3C19B)	0.238	0.420	0.910	8.911	9.399	-11.536	31.44	-30.99	-147.59	-36.064	-52.822	45.962	0.34125	-0.21069	-0.32956	-0.85464	29.9	13111	100
2025-3-7 0:3:19.766	WT901BLE68-01(48591DE3C19B)	0.238	0.422	0.918	10.071	11.963	-12.878	31.53	-30.73	-147.65	-36.064	-52.822	45.962	0.34125	-0.21069	-0.32956	-0.85464	29.9	13111	100
2025-3-7 0:3:19.766	WT901BLE68-01(48591DE3C19B)	0.246	0.422	0.918	10.071	11.963	-12.878	31.60	-30.47	-147.70	-36.064	-52.822	45.962	0.34125	-0.21069	-0.32956	-0.85464	29.9	13111	100
2025-3-7 0:3:19.801	WT901BLE68-01(48591DE3C19B)	0.246	0.419	0.892	12.573	11.108	-15.137	31.72	-30.20	-147.78	-36.064	-52.822	45.962	0.34125	-0.21069	-0.32956	-0.85464	29.9	13111	100
2025-3-7 0:3:19.801	WT901BLE68-01(48591DE3C19B)	0.236	0.419	0.892	12.573	11.108	-15.137	31.83	-29.93	-147.86	-36.064	-52.822	45.962	0.34125	-0.21069	-0.32956	-0.85464	29.9	13111	100
2025-3-7 0:3:19.801	WT901BLE68-01(48591DE3C19B)	0.236	0.435	0.909	21.606	9.399	-15.930	32.05	-29.67	-147.96	-36.064	-52.822	45.962	0.34125	-0.21069	-0.32956	-0.85464	29.9	13111	100
2025-3-7 0:3:19.801	WT901BLE68-01(48591DE3C19B)	0.235	0.435	0.909	21.606	9.399	-15.930	32.26	-29.42	-148.05	-36.064	-52.822	45.962	0.34125	-0.21069	-0.32956	-0.85464	29.9	13111	100
2025-3-7 0:3:19.826	WT901BLE68-01(48591DE3C19B)	0.235	0.491	0.962	40.161	9.949	-20.630	32.68	-29.14	-148.19	-36.064	-52.822	45.962	0.34125	-0.21069	-0.32956	-0.85464	29.9	13111	100
2025-3-7 0:3:19.826	WT901BLE68-01(48591DE3C19B)	0.225	0.491	0.962	40.161	9.949	-20.630	33.10	-28.85	-148.33	-36.064	-52.822	45.962	0.34125	-0.21069	-0.32956	-0.85464	29.9	13111	100
2025-3-7 0:3:19.826	WT901BLE68-01(48591DE3C19B)	0.225	0.583	1.050	71.838	9.338	-27.893	33.86	-28.53	-148.53	-36.064	-52.822	45.962	0.34125	-0.21069	-0.32956	-0.85464	29.9	13111	100
2025-3-7 0:3:19.826	WT901BLE68-01(48591DE3C19B)	0.236	0.583	1.050	71.838	9.338	-27.893	34.62	-28.21	-148.73	-36.064	-52.822	45.962	0.34125	-0.21069	-0.32956	-0.85464	29.9	13111	100
2025-3-7 0:3:19.886	WT901BLE68-01(48591DE3C19B)	0.236	0.663	1.083	99.976	22.644	-45.532	35.69	-27.67	-149.00	-36.064	-52.822	45.962	0.34125	-0.21069	-0.32956	-0.85464	29.9	13111	100
2025-3-7 0:3:19.886	WT901BLE68-01(48591DE3C19B)	0.267	0.663	1.083	99.976	22.644	-45.532	36.75	-27.13	-149.25	-36.064	-52.822	45.962	0.34125	-0.21069	-0.32956	-0.85464	29.9	13111	100
2025-3-7 0:3:19.886	WT901BLE68-01(48591DE3C19B)	0.267	0.752	1.090	96.802	32.227	-62.683	37.80	-26.41	-149.58	-36.064	-52.822	45.962	0.34125	-0.21069	-0.32956	-0.85464	29.9	13111	100
2025-3-7 0:3:19.887	WT901BLE68-01(48591DE3C19B)	0.251	0.752	1.090	96.802	32.227	-62.683	38.85	-25.69	-149.90	-36.064	-52.822	45.962	0.34125	-0.21069	-0.32956	-0.85464	29.9	13111	100
2025-3-7 0:3:19.917	WT901BLE68-01(48591DE3C19B)	0.251	0.803	1.136	92.834	43.640	-83.679	39.89	-24.75	-150.30	-36.064	-52.822	45.962	0.34125	-0.21069	-0.32956	-0.85464	29.9	13111	100
2025-3-7 0:3:19.918	WT901BLE68-01(48591DE3C19B)	0.234	0.803	1.136	92.834	43.640	-83.679	40.91	-23.80	-150.68	-36.064	-52.822	45.962	0.34125	-0.21069	-0.32956	-0.85464	29.9	13111	100
2025-3-7 0:3:19.918	WT901BLE68-01(48591DE3C19B)	0.234	0.866	1.097	87.280	63.477	-107.910	41.88	-22.54	-151.09	-36.064	-52.822	45.962	0.34125	-0.21069	-0.32956	-0.85464	29.9	13111	100
2025-3-7 0:3:19.918	WT901BLE68-01(48591DE3C19B)	0.236	0.866	1.097	87.280	63.477	-107.910	42.84	-21.29	-151.48	-36.064	-52.822	45.962	0.34125	-0.21069	-0.32956	-0.85464	29.9	13111	100
2025-3-7 0:3:19.946	WT901BLE68-01(48591DE3C19B)	0.236	1.067	0.962	89.172	81.909	-145.569	43.85	-19.64	-152.00	-36.064	-52.822	45.962	0.34125	-0.21069	-0.32956	-0.85464	29.9	13111	100
2025-3-7 0:3:19.946	WT901BLE68-01(48591DE3C19B)	0.272	1.067	0.962	89.172	81.909	-145.569	44.84	-18.00	-152.48	-36.064	-52.822	45.962	0.34125	-0.21069	-0.32956	-0.85464	29.9	13111	100
2025-3-7 0:3:19.946	WT901BLE68-01(48591DE3C19B)	0.267	1.065	0.742	92.896	82.275	-192.871	45.94	-16.01	-153.26	-36.064	-52.822	45.962	0.26364	-0.03543	-0.40567	-0.87439	29.9	13111	100
2025-3-7 0:3:19.946	WT901BLE68-01(48591DE3C19B)	0.267	0.895	0.571	93.506	78.064	-233.154	47.06	-13.90	-154.16	-36.064	-52.822	45.962	0.26364	-0.03543	-0.40567	-0.87439	29.9	13111	100
2025-3-7 0:3:20.6	WT901BLE68-01(48591DE3C19B)	0.250	0.895	0.571	93.506	78.064	-233.154	48.18	-11.65	-155.16	-36.064	-52.822	45.962	0.26364	-0.03543	-0.40567	-0.87439	29.9	13111	100
2025-3-7 0:3:20.6	WT901BLE68-01(48591DE3C19B)	0.250	0.694	0.421	90.698	50.842	-250.305	49.26	-9.42	-156.26	-36.064	-52.822	45.962	0.26364	-0.03543	-0.40567	-0.87439	29.9	13111	100
2025-3-7 0:3:20.6	WT901BLE68-01(48591DE3C19B)	0.183	0.694	0.421	90.698	50.842	-250.305	50.30	-7.21	-157.46	-36.064	-52.822	45.962	0.26364	-0.03543	-0.40567	-0.87439	29.9	13111	100
2025-3-7 0:3:20.6	WT901BLE68-01(48591DE3C19B)	0.183	0.340	0.209	61.523	-3.296	-222.839	51.16	-5.27	-158.74	-36.064	-52.822	45.962	0.26364	-0.03543	-0.40567	-0.87439	29.9	13111	100
2025-3-7 0:3:20.35	WT901BLE68-01(48591DE3C19B)	-0.035	0.340	0.209	61.523	-3.296	-222.839	51.85	-3.60	-160.10	-36.064	-52.822	45.962	0.26364	-0.03543	-0.40567	-0.87439	29.9	13111	100
2025-3-7 0:3:20.35	WT901BLE68-01(48591DE3C19B)	-0.035	-0.005	-0.330	65.735	-94.910	-164.307	52.53	-2.45	-161.61	-36.064	-52.822	45.962	0.26364	-0.03543	-0.40567	-0.87439	29.9	13111	100
2025-3-7 0:3:20.35	WT901BLE68-01(48591DE3C19B)	-0.089	-0.005	-0.330	65.735	-94.910	-164.307	53.22	-1.79	-163.29	-36.064	-52.822	45.962	0.26364	-0.03543	-0.40567	-0.87439	29.9	13111	100
2025-3-7 0:3:20.35	WT901BLE68-01(48591DE3C19B)	-0.089	-0.540	-0.675	149.170	-284.546	-73.853	54.33	-2.03	-165.45	-36.064	-52.822	45.962	0.26364	-0.03543	-0.40567	-0.87439	29.9	13111	100
2025-3-7 0:3:20.65	WT901BLE68-01(48591DE3C19B)	-0.121	-0.540	-0.675	149.170	-284.546	-73.853	55.92	-3.13	-168.11	-36.064	-52.822	45.962	0.26364	-0.03543	-0.40567	-0.87439	29.9	13111	100
2025-3-7 0:3:20.66	WT901BLE68-01(48591DE3C19B)	-0.121	-2.593	-0.515	108.337	-539.612	171.082	57.39	-5.88	-171.18	-36.064	-52.822	45.962	0.26364	-0.03543	-0.40567	-0.87439	29.9	13111	100
2025-3-7 0:3:20.66	WT901BLE68-01(48591DE3C19B)	0.301	-2.593	-0.515	108.337	-539.612	171.082	58.77	-10.43	-174.69	-36.064	-52.822	45.962	0.26364	-0.03543	-0.40567	-0.87439	29.9	13111	100
2025-3-7 0:3:20.66	WT901BLE68-01(48591DE3C19B)	1.204	-4.000	0.636	9.583	-606.445	615.295	59.73	-17.22	-177.42	-36.064	-52.822	45.962	0.26364	-0.03543	-0.40567	-0.87439	29.9	13111	100
2025-3-7 0:3:20.156	WT901BLE68-01(48591DE3C19B)	3.081	-16.000	2.546	9.583	-606.445	615.295	60.40	-26.13	-179.49	-36.064	-52.822	45.962	0.26364	-0.03543	-0.40567	-0.87439	29.9	13111	100
2025-3-7 0:3:20.156	WT901BLE68-01(48591DE3C19B)	3.081	-4.086	1.247	124.146	-471.008	980.835	61.14	-36.26	179.88	-36.064	-52.822	45.962	0.26364	-0.03543	-0.40567	-0.87439	29.9	13111	100
2025-3-7 0:3:20.156	WT901BLE68-01(48591DE3C19B)	4.590	-4.086	1.247	124.146	-471.008	980.835	61.46	-47.60	-178.99	-36.064	-52.822	45.962	0.26364	-0.03543	-0.40567	-0.87439	29.9	13111	100
2025-3-7 0:3:20.156	WT901BLE68-01(48591DE3C19B)	4.590	-1.959	4.218	178.040	-175.781	1081.665	59.27	-58.56	-174.70	-36.064	-52.822	45.962	0.26364	-0.03543	-0.40567	-0.87439	29.9	13111	100
2025-3-7 0:3:20.157	WT901BLE68-01(48591DE3C19B)	5.388	-1.959	4.218	178.040	-175.781	1081.665	50.55	-68.71	-163.26	-34.594	-45.178	37.828	0.26364	-0.03543	-0.40567	-0.87439	29.9	13111	100
2025-3-7 0:3:20.158	WT901BLE68-01(48591DE3C19B)	5.388	1.316	6.871	509.094	451.538	911.438	26.55	-73.99	-134.77	-34.594	-45.178	37.828	0.26364	-0.03543	-0.40567	-0.87439	29.9	13111	100
2025-3-7 0:3:20.158	WT901BLE68-01(48591DE3C19B)	7.982	1.316	6.871	509.094	451.538	911.438	-1.24	-71.32	-100.65	-34.594	-45.178	37.828	0.26364	-0.03543	-0.40567	-0.87439	29.9	13111	100
2025-3-7 0:3:20.158	WT901BLE68-01(48591DE3C19B)	7.982	6.967	4.885	236.877	1174.988	451.660	-11.80	-62.24	-85.61	-34.594	-45.178	37.828	0.26364	-0.03543	-0.40567	-0.87439	29.9	13111	100
2025-3-7 0:3:20.187	WT901BLE68-01(48591DE3C19B)	8.828	6.967	4.885	236.877	1174.988	451.660	-12.34	-49.77	-82.35	-34.594	-45.178	37.828	0.26364	-0.03543	-0.40567	-0.87439	29.9	13111	100
2025-3-7 0:3:20.187	WT901BLE68-01(48591DE3C19B)	8.828	3.903	2.905	462.219	1355.652	-271.667	-7.72	-37.19	-84.50	-34.594	-45.178	37.828	0.26364	-0.03543	-0.40567	-0.87439	29.9	13111	100
2025-3-7 0:3:20.187	WT901BLE68-01(48591DE3C19B)	8.458	3.903	2.905	462.219	1355.652	-271.667	-0.90	-24.06	-89.03	-34.594	-45.178	37.828	0.26364	-0.03543	-0.40567	-0.87439	29.9	13111	100
2025-3-7 0:3:20.188	WT901BLE68-01(48591DE3C19B)	8.458	0.159	0.253	389.282	1048.767	-466.614	4.32	-12.17	-92.74	-34.594	-45.178	37.828	0.26364	-0.03543	-0.40567	-0.87439	29.9	13111	100
2025-3-7 0:3:20.246	WT901BLE68-01(48591DE3C19B)	5.266	0.159	0.253	389.282	1048.767	-466.614	8.53	-1.55	-96.42	-34.594	-45.178	37.828	0.26364	-0.03543	-0.40567	-0.87439	29.9	13111	100
2025-3-7 0:3:20.246	WT901BLE68-01(48591DE3C19B)	5.266	-0.778	-2.295	260.193	688.232	-591.431	11.38	7.56	-100.32	-34.594	-45.178	37.828	0.26364	-0.03543	-0.40567	-0.87439	29.9	13111	100
2025-3-7 0:3:20.246	WT901BLE68-01(48591DE3C19B)	3.446	-0.778	-2.295	260.193	688.232	-591.431	12.96	15.10	-104.92	-34.594	-45.178	37.828	0.26364	-0.03543	-0.40567	-0.87439	29.9	13111	100
2025-3-7 0:3:20.246	WT901BLE68-01(48591DE3C19B)	3.446	0.175	-3.566	505.554	407.776	-690.796	14.93	21.47	-110.32	-34.594	-45.178	37.828	0.26364	-0.03543	-0.40567	-0.87439	29.9	13111	100
2025-3-7 0:3:20.275	WT901BLE68-01(48591DE3C19B)	2.984	0.175	-3.566	505.554	407.776	-690.796	17.35	26.78	-116.53	-34.594	-45.178	37.828	0.26364	-0.03543	-0.40567	-0.87439	29.9	13111	100
2025-3-7 0:3:20.275	WT901BLE68-01(48591DE3C19B)	2.984	-0.292	-4.725	608.276	-99.792	-659.241	19.46	29.82	-123.49	-34.594	-45.178	37.828	0.26364	-0.03543	-0.40567	-0.87439	29.9	13111	100
2025-3-7 0:3:20.275	WT901BLE68-01(48591DE3C19B)	3.601	-0.292	-4.725	608.276	-99.792	-659.241	21.59	30.61	-131.19	-34.594	-45.178	37.828	0.26364	-0.03543	-0.40567	-0.87439	29.9	13111	100
2025-3-7 0:3:20.275	WT901BLE68-01(48591DE3C19B)	3.601	-3.500	-4.625	484.192	-979.309	-453.064	22.77	27.15	-139.65	-34.594	-45.178	37.828	0.26364	-0.03543	-0.40567	-0.87439	29.9	13111	100
2025-3-7 0:3:20.308	WT901BLE68-01(48591DE3C19B)	1.302	-3.500	-4.625	484.192	-979.309	-453.064	24.05	19.35	-148.49	-34.594	-45.178	37.828	0.26364	-0.03543	-0.40567	-0.87439	29.9	13111	100
2025-3-7 0:3:20.308	WT901BLE68-01(48591DE3C19B)	1.302	-9.819	-0.076	661.194	-1704.224	455.322	28.04	6.64	-154.65	-34.594	-45.178	37.828	0.26364	-0.03543	-0.40567	-0.87439	29.9	13111	100
2025-3-7 0:3:20.308	WT901BLE68-01(48591DE3C19B)	5.649	-9.819	-0.076	661.194	-1704.224	455.322	34.72	-10.77	-159.63	-34.594	-45.178	37.828	0.26364	-0.03543	-0.40567	-0.87439	29.9	13111	100
2025-3-7 0:3:20.308	WT901BLE68-01(48591DE3C19B)	5.649	-4.832	2.623	905.212	-1438.904	1202.881	43.31	-28.77	-163.19	-34.594	-45.178	37.828	0.26364	-0.03543	-0.40567	-0.87439	29.9	13111	100
2025-3-7 0:3:20.366	WT901BLE68-01(48591DE3C19B)	7.076	-4.832	2.623	905.212	-1438.904	1202.881	54.50	-47.61	-166.85	-34.594	-45.178	37.828	0.26364	-0.03543	-0.40567	-0.87439	29.9	13111	100
2025-3-7 0:3:20.366	WT901BLE68-01(48591DE3C19B)	7.076	1.688	11.039	319.275	-196.594	1213.806	60.73	-62.58	-167.66	-34.594	-45.178	37.828	0.34021	-0.39911	-0.47760	-0.70480	29.9	13111	100
2025-3-7 0:3:20.366	WT901BLE68-01(48591DE3C19B)	7.582	1.688	11.039	319.275	-196.594	1213.806	50.14	-73.91	-153.15	-34.594	-45.178	37.828	0.34021	-0.39911	-0.47760	-0.70480	29.9	13111	100
2025-3-7 0:3:20.366	WT901BLE68-01(48591DE3C19B)	7.582	5.496	9.997	371.155	1166.687	513.184	16.56	-74.62	-115.37	-34.594	-45.178	37.828	0.34021	-0.39911	-0.47760	-0.70480	29.9	13111	100
2025-3-7 0:3:20.399	WT901BLE68-01(48591DE3C19B)	8.897	5.496	9.997	371.155	1166.687	513.184	1.76	-63.74	-95.90	-34.594	-45.178	37.828	0.34021	-0.39911	-0.47760	-0.70480	29.9	13111	100
2025-3-7 0:3:20.399	WT901BLE68-01(48591DE3C19B)	8.897	6.182	2.820	147.827	1394.409	-201.904	1.05	-50.97	-92.49	-34.594	-45.178	37.828	0.34021	-0.39911	-0.47760	-0.70480	29.9	13111	100
2025-3-7 0:3:20.399	WT901BLE68-01(48591DE3C19B)	8.518	6.182	2.820	147.827	1394.409	-201.904	3.87	-37.08	-94.64	-34.594	-45.178	37.828	0.34021	-0.39911	-0.47760	-0.70480	29.9	13111	100
2025-3-7 0:3:20.399	WT901BLE68-01(48591DE3C19B)	8.518	3.330	0.864	482.666	1049.316	-475.952	8.20	-24.78	-97.38	-34.594	-45.178	37.828	0.34021	-0.39911	-0.47760	-0.70480	29.9	13111	100
2025-3-7 0:3:20.456	WT901BLE68-01(48591DE3C19B)	7.533	3.330	0.864	482.666	1049.316	-475.952	13.89	-13.84	-100.38	-34.594	-45.178	37.828	0.34021	-0.39911	-0.47760	-0.70480	29.9	13111	100
2025-3-7 0:3:20.456	WT901BLE68-01(48591DE3C19B)	7.533	0.882	-0.514	458.008	730.286	-713.074	18.91	-3.93	-103.80	-34.594	-45.178	37.828	0.34021	-0.39911	-0.47760	-0.70480	29.9	13111	100
2025-3-7 0:3:20.456	WT901BLE68-01(48591DE3C19B)	5.970	0.882	-0.514	458.008	730.286	-713.074	23.33	5.06	-108.00	-34.594	-45.178	37.828	0.34021	-0.39911	-0.47760	-0.70480	29.9	13111	100
2025-3-7 0:3:20.457	WT901BLE68-01(48591DE3C19B)	5.970	0.081	-2.917	392.456	464.539	-825.989	26.27	12.32	-113.79	-34.594	-45.178	37.828	0.34021	-0.39911	-0.47760	-0.70480	29.9	13111	100
2025-3-7 0:3:20.518	WT901BLE68-01(48591DE3C19B)	5.476	0.081	-2.917	392.456	464.539	-825.989	28.56	19.76	-119.35	-34.594	-45.178	37.828	0.34021	-0.39911	-0.47760	-0.70480	29.9	13111	100
2025-3-7 0:3:20.518	WT901BLE68-01(48591DE3C19B)	5.476	-2.004	-7.120	276.550	-285.400	-721.313	28.39	20.18	-127.70	-34.594	-45.178	37.828	0.34021	-0.39911	-0.47760	-0.70480	29.9	13111	100
2025-3-7 0:3:20.519	WT901BLE68-01(48591DE3C19B)	2.812	-2.004	-7.120	276.550	-285.400	-721.313	28.19	20.53	-136.04	-34.594	-45.178	37.828	0.34021	-0.39911	-0.47760	-0.70480	29.9	13111	100
2025-3-7 0:3:20.519	WT901BLE68-01(48591DE3C19B)	2.812	-7.945	-3.909	114.807	-1435.425	-285.095	26.86	8.56	-145.56	-34.594	-45.178	37.828	0.34021	-0.39911	-0.47760	-0.70480	29.9	13111	100
2025-3-7 0:3:20.519	WT901BLE68-01(48591DE3C19B)	1.131	-7.945	-3.909	114.807	-1435.425	-285.095	27.50	-3.43	-154.66	-34.594	-45.178	37.828	0.34021	-0.39911	-0.47760	-0.70480	29.9	13111	100
2025-3-7 0:3:20.519	WT901BLE68-01(48591DE3C19B)	1.131	-11.233	0.111	895.203	-1826.233	813.660	37.08	-23.60	-157.60	-34.594	-45.178	37.828	0.34021	-0.39911	-0.47760	-0.70480	29.9	13111	100
2025-3-7 0:3:20.520	WT901BLE68-01(48591DE3C19B)	8.311	-11.233	0.111	895.203	-1826.233	813.660	50.31	-42.79	-165.55	-34.594	-45.178	37.828	0.34021	-0.39911	-0.47760	-0.70480	29.9	13111	100
2025-3-7 0:3:20.520	WT901BLE68-01(48591DE3C19B)	8.311	-4.429	7.833	590.271	-971.313	1480.103	54.18	-60.69	-163.22	-34.594	-45.178	37.828	0.34021	-0.39911	-0.47760	-0.70480	29.9	13111	100
2025-3-7 0:3:20.577	WT901BLE68-01(48591DE3C19B)	8.284	-4.429	7.833	590.271	-971.313	1480.103	59.78	-78.53	-163.11	-34.594	-45.178	37.828	0.34021	-0.39911	-0.47760	-0.70480	29.9	13111	100
2025-3-7 0:3:20.577	WT901BLE68-01(48591DE3C19B)	8.284	3.358	13.694	394.043	785.889	1075.989	-0.85	-76.69	-97.55	-48.216	-55.272	49.784	0.34021	-0.39911	-0.47760	-0.70480	29.9	13111	100
2025-3-7 0:3:20.577	WT901BLE68-01(48591DE3C19B)	10.495	3.358	13.694	394.043	785.889	1075.989	-23.79	-66.36	-69.60	-48.216	-55.272	49.784	0.34021	-0.39911	-0.47760	-0.70480	29.9	13111	100
2025-3-7 0:3:20.577	WT901BLE68-01(48591DE3C19B)	10.495	9.036	7.426	305.847	1688.171	135.620	-13.98	-49.97	-77.70	-48.216	-55.272	49.784	0.34021	-0.39911	-0.47760	-0.70480	29.9	13111	100
2025-3-7 0:3:20.605	WT901BLE68-01(48591DE3C19B)	11.107	9.036	7.426	305.847	1688.171	135.620	-9.11	-33.32	-80.63	-48.216	-55.272	49.784	0.34021	-0.39911	-0.47760	-0.70480	29.9	13111	100
2025-3-7 0:3:20.606	WT901BLE68-01(48591DE3C19B)	11.107	6.444	3.701	690.613	1192.200	-422.485	0.43	-21.97	-86.59	-48.216	-55.272	49.784	0.34021	-0.39911	-0.47760	-0.70480	29.9	13111	100
2025-3-7 0:3:20.606	WT901BLE68-01(48591DE3C19B)	11.587	6.444	3.701	690.613	1192.200	-422.485	8.22	-10.05	-90.23	-48.216	-55.272	49.784	0.34021	-0.39911	-0.47760	-0.70480	29.9	13111	100
2025-3-7 0:3:20.606	WT901BLE68-01(48591DE3C19B)	11.587	0.960	1.835	902.161	865.356	-880.615	17.72	0.02	-97.08	-48.216	-55.272	49.784	0.34021	-0.39911	-0.47760	-0.70480	29.9	13111	100
2025-3-7 0:3:20.636	WT901BLE68-01(48591DE3C19B)	10.155	0.960	1.835	902.161	865.356	-880.615	26.11	10.94	-102.22	-48.216	-55.272	49.784	0.34021	-0.39911	-0.47760	-0.70480	29.9	13111	100
2025-3-7 0:3:20.637	WT901BLE68-01(48591DE3C19B)	10.155	-1.864	-2.440	657.104	389.648	-1049.988	30.51	18.92	-110.07	-48.216	-55.272	49.784	0.34021	-0.39911	-0.47760	-0.70480	29.9	13111	100
2025-3-7 0:3:20.637	WT901BLE68-01(48591DE3C19B)	7.813	-1.864	-2.440	657.104	389.648	-1049.988	33.96	27.33	-117.66	-48.216	-55.272	49.784	0.34021	-0.39911	-0.47760	-0.70480	29.9	13111	100
2025-3-7 0:3:20.637	WT901BLE68-01(48591DE3C19B)	7.813	-4.554	-6.988	585.205	-556.885	-631.531	35.42	25.83	-127.19	-48.216	-55.272	49.784	0.34021	-0.39911	-0.47760	-0.70480	29.9	13111	100
2025-3-7 0:3:20.700	WT901BLE68-01(48591DE3C19B)	3.227	-4.554	-6.988	585.205	-556.885	-631.531	37.14	24.54	-136.60	-48.216	-55.272	49.784	0.34021	-0.39911	-0.47760	-0.70480	29.9	13111	100
2025-3-7 0:3:20.700	WT901BLE68-01(48591DE3C19B)	3.227	-8.669	-2.105	378.784	-1797.913	-15.076	37.38	9.77	-148.14	-48.216	-55.272	49.784	0.34021	-0.39911	-0.47760	-0.70480	29.9	13111	100
2025-3-7 0:3:20.700	WT901BLE68-01(48591DE3C19B)	0.414	-8.669	-2.105	378.784	-1797.913	-15.076	40.53	-4.61	-159.54	-48.216	-55.272	49.784	0.34021	-0.39911	-0.47760	-0.70480	29.9	13111	100
2025-3-7 0:3:20.700	WT901BLE68-01(48591DE3C19B)	0.414	-10.260	4.225	721.375	-1615.417	825.195	48.97	-22.29	-165.15	-48.216	-55.272	49.784	0.34021	-0.39911	-0.47760	-0.70480	29.9	13111	100
2025-3-7 0:3:20.728	WT901BLE68-01(48591DE3C19B)	6.043	-10.260	4.225	721.375	-1615.417	825.195	61.03	-38.69	-174.87	-48.216	-55.272	49.784	0.34021	-0.39911	-0.47760	-0.70480	29.9	13111	100
2025-3-7 0:3:20.729	WT901BLE68-01(48591DE3C19B)	6.043	-1.920	9.025	676.147	-721.741	1292.419	68.61	-53.73	-176.24	-48.216	-55.272	49.784	0.34021	-0.39911	-0.47760	-0.70480	29.9	13111	100
2025-3-7 0:3:20.729	WT901BLE68-01(48591DE3C19B)	6.693	-1.920	9.025	676.147	-721.741	1292.419	81.57	-68.29	176.50	-48.216	-55.272	49.784	0.34021	-0.39911	-0.47760	-0.70480	29.9	13111	100
2025-3-7 0:3:20.729	WT901BLE68-01(48591DE3C19B)	6.693	4.376	13.481	330.688	724.060	905.762	53.88	-74.25	-151.12	-48.216	-55.272	49.784	0.34021	-0.39911	-0.47760	-0.70480	29.9	13111	100
2025-3-7 0:3:20.758	WT901BLE68-01(48591DE3C19B)	9.119	4.376	13.481	330.688	724.060	905.762	15.83	-73.34	-108.45	-48.216	-55.272	49.784	0.34021	-0.39911	-0.47760	-0.70480	29.9	13111	100
2025-3-7 0:3:20.758	WT901BLE68-01(48591DE3C19B)	9.119	6.901	7.226	211.243	1574.951	102.112	8.24	-58.06	-98.12	-48.216	-55.272	49.784	0.34021	-0.39911	-0.47760	-0.70480	29.9	13111	100
2025-3-7 0:3:20.758	WT901BLE68-01(48591DE3C19B)	11.400	6.901	7.226	211.243	1574.951	102.112	6.59	-42.63	-93.53	-48.216	-55.272	49.784	0.65891	-0.17709	-0.26276	-0.68213	29.9	13111	100
2025-3-7 0:3:20.758	WT901BLE68-01(48591DE3C19B)	11.400	7.419	1.981	308.472	1296.692	-374.023	10.87	-29.38	-95.83	-48.216	-55.272	49.784	0.65891	-0.17709	-0.26276	-0.68213	29.9	13111	100
2025-3-7 0:3:20.816	WT901BLE68-01(48591DE3C19B)	11.675	7.419	1.981	308.472	1296.692	-374.023	14.23	-16.15	-96.91	-48.216	-55.272	49.784	0.65891	-0.17709	-0.26276	-0.68213	29.9	13111	100
2025-3-7 0:3:20.816	WT901BLE68-01(48591DE3C19B)	11.675	3.494	-1.064	660.400	857.727	-841.125	21.77	-5.69	-102.52	-48.216	-55.272	49.784	0.65891	-0.17709	-0.26276	-0.68213	29.9	13111	100
2025-3-7 0:3:20.816	WT901BLE68-01(48591DE3C19B)	9.683	3.494	-1.064	660.400	857.727	-841.125	28.27	5.26	-106.68	-48.216	-55.272	49.784	0.65891	-0.17709	-0.26276	-0.68213	29.9	13111	100
2025-3-7 0:3:20.816	WT901BLE68-01(48591DE3C19B)	9.683	-1.059	-4.011	630.859	151.672	-958.801	33.35	11.07	-114.38	-48.216	-55.272	49.784	0.65891	-0.17709	-0.26276	-0.68213	29.9	13111	100
2025-3-7 0:3:20.845	WT901BLE68-01(48591DE3C19B)	7.410	-1.059	-4.011	630.859	151.672	-958.801	37.74	17.42	-121.69	-48.216	-55.272	49.784	0.65891	-0.17709	-0.26276	-0.68213	29.9	13111	100
2025-3-7 0:3:20.846	WT901BLE68-01(48591DE3C19B)	7.410	-6.027	-6.513	299.255	-1010.925	-563.416	37.74	12.38	-132.84	-48.216	-55.272	49.784	0.65891	-0.17709	-0.26276	-0.68213	29.9	13111	100
2025-3-7 0:3:20.846	WT901BLE68-01(48591DE3C19B)	-0.225	-6.027	-6.513	299.255	-1010.925	-563.416	38.74	7.43	-143.76	-48.216	-55.272	49.784	0.65891	-0.17709	-0.26276	-0.68213	29.9	13111	100
2025-3-7 0:3:20.846	WT901BLE68-01(48591DE3C19B)	-0.225	-13.583	-1.371	408.447	-1611.450	234.192	42.65	-6.78	-152.51	-48.216	-55.272	49.784	0.65891	-0.17709	-0.26276	-0.68213	29.9	13111	100
2025-3-7 0:3:20.876	WT901BLE68-01(48591DE3C19B)	4.143	-13.583	-1.371	408.447	-1611.450	234.192	48.98	-20.14	-162.67	-48.216	-55.272	49.784	0.65891	-0.17709	-0.26276	-0.68213	29.9	13111	100
2025-3-7 0:3:20.876	WT901BLE68-01(48591DE3C19B)	4.143	-9.477	4.271	650.513	-1415.955	1279.358	57.41	-39.20	-166.84	-48.216	-55.272	49.784	0.65891	-0.17709	-0.26276	-0.68213	29.9	13111	100
2025-3-7 0:3:20.876	WT901BLE68-01(48591DE3C19B)	7.824	-9.477	4.271	650.513	-1415.955	1279.358	71.89	-57.14	-177.65	-48.216	-55.272	49.784	0.65891	-0.17709	-0.26276	-0.68213	29.9	13111	100
2025-3-7 0:3:20.876	WT901BLE68-01(48591DE3C19B)	9.340	1.585	14.720	312.561	-88.623	1486.694	64.81	-71.53	-166.65	-48.216	-55.272	49.784	0.65891	-0.17709	-0.26276	-0.68213	29.9	13111	100
2025-3-7 0:3:20.936	WT901BLE68-01(48591DE3C19B)	9.340	9.064	11.402	421.875	1345.093	567.322	27.53	-74.81	-124.74	-48.216	-55.272	49.784	0.65891	-0.17709	-0.26276	-0.68213	29.9	13111	100
2025-3-7 0:3:20.936	WT901BLE68-01(48591DE3C19B)	11.255	9.064	11.402	421.875	1345.093	567.322	6.69	-63.30	-98.33	-48.216	-55.272	49.784	0.65891	-0.17709	-0.26276	-0.68213	29.9	13111	100
2025-3-7 0:3:20.936	WT901BLE68-01(48591DE3C19B)	11.255	8.390	3.929	399.841	1338.440	-407.776	6.80	-50.02	-94.16	-48.216	-55.272	49.784	0.65891	-0.17709	-0.26276	-0.68213	29.9	13111	100
2025-3-7 0:3:20.936	WT901BLE68-01(48591DE3C19B)	11.921	8.390	3.929	399.841	1338.440	-407.776	12.40	-36.27	-96.77	-48.216	-55.272	49.784	0.65891	-0.17709	-0.26276	-0.68213	29.9	13111	100
2025-3-7 0:3:20.966	WT901BLE68-01(48591DE3C19B)	11.921	2.506	1.466	867.188	1027.893	-834.900	20.12	-23.34	-100.17	-48.216	-55.272	49.784	0.65891	-0.17709	-0.26276	-0.68213	29.9	13111	100
2025-3-7 0:3:20.966	WT901BLE68-01(48591DE3C19B)	10.556	2.506	1.466	867.188	1027.893	-834.900	29.66	-10.79	-103.73	-48.216	-55.272	49.784	0.65891	-0.17709	-0.26276	-0.68213	29.9	13111	100
2025-3-7 0:3:20.966	WT901BLE68-01(48591DE3C19B)	10.556	-1.975	-2.751	689.087	431.091	-985.779	37.46	0.07	-107.51	-48.216	-55.272	49.784	0.65891	-0.17709	-0.26276	-0.68213	29.9	13111	100
2025-3-7 0:3:20.967	WT901BLE68-01(48591DE3C19B)	7.515	-1.975	-2.751	689.087	431.091	-985.779	43.74	9.37	-112.41	-62.328	-49.784	61.838	0.65891	-0.17709	-0.26276	-0.68213	29.9	13111	100
2025-3-7 0:3:21.0	WT901BLE68-01(48591DE3C19B)	7.515	-6.133	-8.070	81.421	-762.146	-527.466	45.81	13.23	-119.32	-62.328	-49.784	61.838	0.65891	-0.17709	-0.26276	-0.68213	29.9	13111	100
2025-3-7 0:3:21.0	WT901BLE68-01(48591DE3C19B)	1.306	-6.133	-8.070	81.421	-762.146	-527.466	44.41	11.12	-128.84	-62.328	-49.784	61.838	0.65891	-0.17709	-0.26276	-0.68213	29.9	13111	100
2025-3-7 0:3:21.0	WT901BLE68-01(48591DE3C19B)	1.306	-9.726	-4.819	373.413	-1403.076	142.883	45.08	4.25	-138.04	-62.328	-49.784	61.838	0.65891	-0.17709	-0.26276	-0.68213	29.9	13111	100
2025-3-7 0:3:21.0	WT901BLE68-01(48591DE3C19B)	1.721	-9.726	-4.819	373.413	-1403.076	142.883	48.83	-6.84	-147.39	-62.328	-49.784	61.838	0.65891	-0.17709	-0.26276	-0.68213	29.9	13111	100
2025-3-7 0:3:21.56	WT901BLE68-01(48591DE3C19B)	1.721	-9.059	4.149	185.913	-1492.615	944.153	53.12	-20.62	-155.57	-62.328	-49.784	61.838	0.65891	-0.17709	-0.26276	-0.68213	29.9	13111	100
2025-3-7 0:3:21.56	WT901BLE68-01(48591DE3C19B)	5.374	-9.059	4.149	185.913	-1492.615	944.153	58.68	-37.18	-163.60	-62.328	-49.784	61.838	0.65891	-0.17709	-0.26276	-0.68213	29.9	13111	100
2025-3-7 0:3:21.56	WT901BLE68-01(48591DE3C19B)	5.374	-1.841	13.421	310.181	-420.349	1259.644	63.48	-51.81	-167.68	-62.328	-49.784	61.838	0.65891	-0.17709	-0.26276	-0.68213	29.9	13111	100
2025-3-7 0:3:21.56	WT901BLE68-01(48591DE3C19B)	7.145	-1.841	13.421	310.181	-420.349	1259.644	63.03	-65.14	-163.81	-62.328	-49.784	61.838	0.65891	-0.17709	-0.26276	-0.68213	29.9	13111	100
2025-3-7 0:3:21.85	WT901BLE68-01(48591DE3C19B)	7.145	8.242	13.486	277.771	920.654	829.041	43.49	-72.27	-140.38	-62.328	-49.784	61.838	0.65891	-0.17709	-0.26276	-0.68213	29.9	13111	100
2025-3-7 0:3:21.85	WT901BLE68-01(48591DE3C19B)	9.236	8.242	13.486	277.771	920.654	829.041	13.16	-67.85	-105.55	-62.328	-49.784	61.838	0.65891	-0.17709	-0.26276	-0.68213	29.9	13111	100
2025-3-7 0:3:21.85	WT901BLE68-01(48591DE3C19B)	9.236	10.210	4.529	324.097	1259.338	-300.842	7.00	-57.43	-95.83	-62.328	-49.784	61.838	0.65891	-0.17709	-0.26276	-0.68213	29.9	13111	100
2025-3-7 0:3:21.85	WT901BLE68-01(48591DE3C19B)	10.494	10.210	4.529	324.097	1259.338	-300.842	11.38	-44.57	-97.52	-62.328	-49.784	61.838	0.65891	-0.17709	-0.26276	-0.68213	29.9	13111	100
2025-3-7 0:3:21.118	WT901BLE68-01(48591DE3C19B)	10.494	4.177	2.030	791.138	996.704	-837.158	18.87	-32.27	-101.11	-62.328	-49.784	61.838	0.65891	-0.17709	-0.26276	-0.68213	29.9	13111	100
2025-3-7 0:3:21.118	WT901BLE68-01(48591DE3C19B)	10.962	4.177	2.030	791.138	996.704	-837.158	28.50	-19.98	-105.34	-62.328	-49.784	61.838	0.65891	-0.17709	-0.26276	-0.68213	29.9	13111	100
2025-3-7 0:3:21.118	WT901BLE68-01(48591DE3C19B)	10.962	-1.552	-3.067	642.273	527.405	-1091.064	36.42	-8.56	-109.68	-62.328	-49.784	61.838	0.65891	-0.17709	-0.26276	-0.68213	29.9	13111	100
2025-3-7 0:3:21.118	WT901BLE68-01(48591DE3C19B)	8.680	-1.552	-3.067	642.273	527.405	-1091.064	42.95	2.11	-114.87	-62.328	-49.784	61.838	0.65891	-0.17709	-0.26276	-0.68213	29.9	13111	100
2025-3-7 0:3:21.176	WT901BLE68-01(48591DE3C19B)	8.680	-6.359	-8.763	146.179	-819.092	-606.445	45.86	6.75	-122.21	-62.328	-49.784	61.838	0.65891	-0.17709	-0.26276	-0.68213	29.9	13111	100
2025-3-7 0:3:21.176	WT901BLE68-01(48591DE3C19B)	1.265	-6.359	-8.763	146.179	-819.092	-606.445	46.08	4.98	-132.51	-62.328	-49.784	61.838	0.35455	0.19400	-0.34180	-0.84836	29.9	13111	100
2025-3-7 0:3:21.176	WT901BLE68-01(48591DE3C19B)	1.265	-10.204	-3.627	498.169	-1617.310	218.567	48.63	-2.38	-142.92	-62.328	-49.784	61.838	0.35455	0.19400	-0.34180	-0.84836	29.9	13111	100
2025-3-7 0:3:21.176	WT901BLE68-01(48591DE3C19B)	1.795	-10.204	-3.627	498.169	-1617.310	218.567	55.14	-14.53	-154.46	-62.328	-49.784	61.838	0.35455	0.19400	-0.34180	-0.84836	29.9	13111	100
2025-3-7 0:3:21.205	WT901BLE68-01(48591DE3C19B)	1.795	-7.465	6.806	417.786	-1276.794	998.169	62.85	-27.66	-164.47	-62.328	-49.784	61.838	0.35455	0.19400	-0.34180	-0.84836	29.9	13111	100
2025-3-7 0:3:21.205	WT901BLE68-01(48591DE3C19B)	4.365	-7.465	6.806	417.786	-1276.794	998.169	72.42	-42.12	-174.17	-62.328	-49.784	61.838	0.35455	0.19400	-0.34180	-0.84836	29.9	13111	100
2025-3-7 0:3:21.205	WT901BLE68-01(48591DE3C19B)	4.365	0.796	14.373	296.204	111.084	1143.982	78.67	-54.32	-178.53	-62.328	-49.784	61.838	0.35455	0.19400	-0.34180	-0.84836	29.9	13111	100
2025-3-7 0:3:21.205	WT901BLE68-01(48591DE3C19B)	7.206	0.796	14.373	296.204	111.084	1143.982	74.76	-65.41	-170.90	-62.328	-49.784	61.838	0.35455	0.19400	-0.34180	-0.84836	29.9	13111	100
2025-3-7 0:3:21.235	WT901BLE68-01(48591DE3C19B)	7.206	9.053	10.801	317.444	1212.463	492.493	53.22	-70.06	-144.98	-62.328	-49.784	61.838	0.35455	0.19400	-0.34180	-0.84836	29.9	13111	100
2025-3-7 0:3:21.235	WT901BLE68-01(48591DE3C19B)	9.764	9.053	10.801	317.444	1212.463	492.493	28.27	-63.84	-114.82	-62.328	-49.784	61.838	0.35455	0.19400	-0.34180	-0.84836	29.9	13111	100
2025-3-7 0:3:21.236	WT901BLE68-01(48591DE3C19B)	9.764	10.621	2.166	334.167	1157.593	-464.111	22.58	-53.07	-104.92	-62.328	-49.784	61.838	0.35455	0.19400	-0.34180	-0.84836	29.9	13111	100
2025-3-7 0:3:21.236	WT901BLE68-01(48591DE3C19B)	11.108	10.621	2.166	334.167	1157.593	-464.111	25.35	-40.67	-104.41	-62.328	-49.784	61.838	0.35455	0.19400	-0.34180	-0.84836	29.9	13111	100
2025-3-7 0:3:21.298	WT901BLE68-01(48591DE3C19B)	11.108	3.157	-0.958	802.246	728.455	-966.736	32.10	-29.05	-106.86	-62.328	-49.784	61.838	0.35455	0.19400	-0.34180	-0.84836	29.9	13111	100
2025-3-7 0:3:21.298	WT901BLE68-01(48591DE3C19B)	9.336	3.157	-0.958	802.246	728.455	-966.736	41.46	-17.64	-110.70	-62.328	-49.784	61.838	0.35455	0.19400	-0.34180	-0.84836	29.9	13111	100
2025-3-7 0:3:21.298	WT901BLE68-01(48591DE3C19B)	9.336	-3.406	-4.599	681.519	-138.367	-864.685	49.60	-9.23	-115.39	-62.328	-49.784	61.838	0.35455	0.19400	-0.34180	-0.84836	29.9	13111	100
2025-3-7 0:3:21.298	WT901BLE68-01(48591DE3C19B)	6.258	-3.406	-4.599	681.519	-138.367	-864.685	56.92	-3.45	-121.88	-62.328	-49.784	61.838	0.35455	0.19400	-0.34180	-0.84836	29.9	13111	100
2025-3-7 0:3:21.326	WT901BLE68-01(48591DE3C19B)	6.258	-8.707	-5.674	-65.308	-1546.326	-280.518	60.08	-3.11	-132.30	-62.328	-49.784	61.838	0.35455	0.19400	-0.34180	-0.84836	29.9	13111	100
2025-3-7 0:3:21.326	WT901BLE68-01(48591DE3C19B)	-1.690	-8.707	-5.674	-65.308	-1546.326	-280.518	60.77	-8.72	-147.32	-62.328	-49.784	61.838	0.35455	0.19400	-0.34180	-0.84836	29.9	13111	100
2025-3-7 0:3:21.327	WT901BLE68-01(48591DE3C19B)	-1.690	-12.981	1.073	206.360	-1216.614	383.240	63.72	-16.12	-159.60	-62.328	-49.784	61.838	0.35455	0.19400	-0.34180	-0.84836	29.9	13111	100
2025-3-7 0:3:21.327	WT901BLE68-01(48591DE3C19B)	2.835	-12.981	1.073	206.360	-1216.614	383.240	69.19	-24.92	-169.88	-62.328	-49.784	61.838	0.35455	0.19400	-0.34180	-0.84836	29.9	13111	100
2025-3-7 0:3:21.355	WT901BLE68-01(48591DE3C19B)	2.835	-6.024	8.609	117.615	-742.554	1226.379	74.33	-36.05	-177.75	-62.328	-49.784	61.838	0.35455	0.19400	-0.34180	-0.84836	29.9	13111	100
2025-3-7 0:3:21.355	WT901BLE68-01(48591DE3C19B)	5.137	-6.024	8.609	117.615	-742.554	1226.379	79.38	-50.02	176.30	-62.328	-49.784	61.838	0.35455	0.19400	-0.34180	-0.84836	29.9	13111	100
2025-3-7 0:3:21.355	WT901BLE68-01(48591DE3C19B)	5.137	0.374	13.114	116.577	401.611	1160.034	70.09	-60.45	-171.32	-42.532	-47.824	51.254	0.35455	0.19400	-0.34180	-0.84836	29.9	13111	100
2025-3-7 0:3:21.355	WT901BLE68-01(48591DE3C19B)	8.828	0.374	13.114	116.577	401.611	1160.034	51.09	-68.82	-149.37	-42.532	-47.824	51.254	0.35455	0.19400	-0.34180	-0.84836	29.9	13111	100
2025-3-7 0:3:21.416	WT901BLE68-01(48591DE3C19B)	8.828	9.764	8.061	366.333	1241.760	476.013	28.55	-62.13	-120.96	-42.532	-47.824	51.254	0.35455	0.19400	-0.34180	-0.84836	29.9	13111	100
2025-3-7 0:3:21.416	WT901BLE68-01(48591DE3C19B)	10.032	9.764	8.061	366.333	1241.760	476.013	17.56	-52.47	-103.90	-42.532	-47.824	51.254	0.35455	0.19400	-0.34180	-0.84836	29.9	13111	100
2025-3-7 0:3:21.416	WT901BLE68-01(48591DE3C19B)	10.032	9.849	1.425	446.167	978.333	-508.728	23.36	-41.58	-106.00	-42.532	-47.824	51.254	0.35455	0.19400	-0.34180	-0.84836	29.9	13111	100
2025-3-7 0:3:21.416	WT901BLE68-01(48591DE3C19B)	9.653	9.849	1.425	446.167	978.333	-508.728	27.98	-30.69	-106.59	-42.532	-47.824	51.254	0.35455	0.19400	-0.34180	-0.84836	29.9	13111	100
2025-3-7 0:3:21.445	WT901BLE68-01(48591DE3C19B)	9.653	1.697	-1.930	816.345	481.750	-972.107	38.71	-21.52	-112.83	-42.532	-47.824	51.254	0.35455	0.19400	-0.34180	-0.84836	29.9	13111	100
2025-3-7 0:3:21.445	WT901BLE68-01(48591DE3C19B)	7.780	1.697	-1.930	816.345	481.750	-972.107	47.84	-11.62	-116.93	-42.532	-47.824	51.254	0.35455	0.19400	-0.34180	-0.84836	29.9	13111	100
2025-3-7 0:3:21.445	WT901BLE68-01(48591DE3C19B)	7.780	-4.856	-5.963	410.889	-585.510	-785.400	53.54	-9.55	-126.76	-42.532	-47.824	51.254	0.35455	0.19400	-0.34180	-0.84836	29.9	13111	100
2025-3-7 0:3:21.445	WT901BLE68-01(48591DE3C19B)	0.865	-4.856	-5.963	410.889	-585.510	-785.400	58.77	-6.65	-136.24	-42.532	-47.824	51.254	0.35455	0.19400	-0.34180	-0.84836	29.9	13111	100
2025-3-7 0:3:21.475	WT901BLE68-01(48591DE3C19B)	0.865	-12.453	-3.706	109.985	-1376.526	-71.716	61.81	-13.24	-148.83	-42.532	-47.824	51.254	0.35455	0.19400	-0.34180	-0.84836	29.9	13111	100
2025-3-7 0:3:21.476	WT901BLE68-01(48591DE3C19B)	0.343	-12.453	-3.706	109.985	-1376.526	-71.716	66.37	-19.04	-162.10	-42.532	-47.824	51.254	0.35455	0.19400	-0.34180	-0.84836	29.9	13111	100
2025-3-7 0:3:21.476	WT901BLE68-01(48591DE3C19B)	0.343	-9.050	3.000	294.495	-1113.953	863.281	72.59	-31.44	-170.29	-42.532	-47.824	51.254	0.35455	0.19400	-0.34180	-0.84836	29.9	13111	100
2025-3-7 0:3:21.476	WT901BLE68-01(48591DE3C19B)	3.310	-9.050	3.000	294.495	-1113.953	863.281	82.07	-42.71	178.52	-42.532	-47.824	51.254	0.35455	0.19400	-0.34180	-0.84836	29.9	13111	100
2025-3-7 0:3:21.538	WT901BLE68-01(48591DE3C19B)	3.310	-0.943	12.306	9.094	-115.051	1079.651	81.35	-53.88	179.27	-42.532	-47.824	51.254	0.35455	0.19400	-0.34180	-0.84836	29.9	13111	100
2025-3-7 0:3:21.538	WT901BLE68-01(48591DE3C19B)	5.539	-0.943	12.306	9.094	-115.051	1079.651	79.86	-64.93	-179.19	-42.532	-47.824	51.254	0.35455	0.19400	-0.34180	-0.84836	29.9	13111	100
2025-3-7 0:3:21.538	WT901BLE68-01(48591DE3C19B)	5.539	3.957	10.196	127.686	815.674	782.837	55.25	-69.27	-151.46	-42.532	-47.824	51.254	0.35455	0.19400	-0.34180	-0.84836	29.9	13111	100
2025-3-7 0:3:21.538	WT901BLE68-01(48591DE3C19B)	7.698	3.957	10.196	127.686	815.674	782.837	26.69	-68.14	-119.79	-42.532	-47.824	51.254	0.35455	0.19400	-0.34180	-0.84836	29.9	13111	100
2025-3-7 0:3:21.567	WT901BLE68-01(48591DE3C19B)	7.698	9.574	4.110	326.111	1145.752	73.730	19.54	-57.79	-108.41	-42.532	-47.824	51.254	0.35455	0.19400	-0.34180	-0.84836	29.9	13111	100
2025-3-7 0:3:21.567	WT901BLE68-01(48591DE3C19B)	8.220	9.574	4.110	326.111	1145.752	73.730	17.10	-47.14	-101.51	-42.532	-47.824	51.254	0.35455	0.19400	-0.34180	-0.84836	29.9	13111	100
2025-3-7 0:3:21.568	WT901BLE68-01(48591DE3C19B)	8.220	7.291	0.448	645.813	795.105	-702.148	26.70	-37.22	-106.45	-42.532	-47.824	51.254	0.35455	0.19400	-0.34180	-0.84836	29.9	13111	100
2025-3-7 0:3:21.568	WT901BLE68-01(48591DE3C19B)	8.404	7.291	0.448	645.813	795.105	-702.148	34.33	-26.95	-108.99	-42.532	-47.824	51.254	0.59558	-0.01456	-0.36295	-0.71640	29.9	13111	100
2025-3-7 0:3:21.599	WT901BLE68-01(48591DE3C19B)	8.404	-0.272	-2.854	769.958	269.653	-1028.442	44.52	-18.54	-115.89	-42.532	-47.824	51.254	0.59558	-0.01456	-0.36295	-0.71640	29.9	13111	100
2025-3-7 0:3:21.599	WT901BLE68-01(48591DE3C19B)	7.378	-0.272	-2.854	769.958	269.653	-1028.442	53.22	-9.31	-120.93	-42.532	-47.824	51.254	0.59558	-0.01456	-0.36295	-0.71640	29.9	13111	100
2025-3-7 0:3:21.599	WT901BLE68-01(48591DE3C19B)	7.378	-8.227	-7.394	-160.645	-1165.161	-679.077	53.83	-11.10	-134.69	-42.532	-47.824	51.254	0.59558	-0.01456	-0.36295	-0.71640	29.9	13111	100
2025-3-7 0:3:21.599	WT901BLE68-01(48591DE3C19B)	-1.348	-8.227	-7.394	-160.645	-1165.161	-679.077	54.88	-12.76	-148.50	-42.532	-47.824	51.254	0.59558	-0.01456	-0.36295	-0.71640	29.9	13111	100
2025-3-7 0:3:21.655	WT901BLE68-01(48591DE3C19B)	-1.348	-12.422	-1.393	408.813	-1334.473	403.015	61.82	-23.59	-158.27	-42.532	-47.824	51.254	0.59558	-0.01456	-0.36295	-0.71640	29.9	13111	100
2025-3-7 0:3:21.655	WT901BLE68-01(48591DE3C19B)	1.456	-12.422	-1.393	408.813	-1334.473	403.015	71.43	-33.00	-170.36	-42.532	-47.824	51.254	0.59558	-0.01456	-0.36295	-0.71640	29.9	13111	100
2025-3-7 0:3:21.655	WT901BLE68-01(48591DE3C19B)	1.456	-4.867	7.904	32.898	-697.449	1031.616	74.45	-45.26	-175.00	-42.532	-47.824	51.254	0.59558	-0.01456	-0.36295	-0.71640	29.9	13111	100
2025-3-7 0:3:21.655	WT901BLE68-01(48591DE3C19B)	3.372	-4.867	7.904	32.898	-697.449	1031.616	80.05	-57.17	177.95	-42.532	-47.824	51.254	0.59558	-0.01456	-0.36295	-0.71640	29.9	13111	100
2025-3-7 0:3:21.685	WT901BLE68-01(48591DE3C19B)	3.372	0.191	11.066	44.800	418.579	949.646	67.76	-65.41	-167.86	-42.532	-47.824	51.254	0.59558	-0.01456	-0.36295	-0.71640	29.9	13111	100
2025-3-7 0:3:21.686	WT901BLE68-01(48591DE3C19B)	6.327	0.191	11.066	44.800	418.579	949.646	45.35	-71.20	-143.59	-42.532	-47.824	51.254	0.59558	-0.01456	-0.36295	-0.71640	29.9	13111	100
2025-3-7 0:3:21.686	WT901BLE68-01(48591DE3C19B)	6.327	5.686	7.421	289.673	995.605	553.650	21.78	-65.75	-115.49	-42.532	-47.824	51.254	0.59558	-0.01456	-0.36295	-0.71640	29.9	13111	100
2025-3-7 0:3:21.686	WT901BLE68-01(48591DE3C19B)	7.629	5.686	7.421	289.673	995.605	553.650	9.55	-57.51	-98.64	-42.532	-47.824	51.254	0.59558	-0.01456	-0.36295	-0.71640	29.9	13111	100
2025-3-7 0:3:21.714	WT901BLE68-01(48591DE3C19B)	7.629	9.651	1.565	350.830	866.516	-182.434	13.10	-48.64	-98.93	-42.532	-47.824	51.254	0.59558	-0.01456	-0.36295	-0.71640	29.9	13111	100
2025-3-7 0:3:21.715	WT901BLE68-01(48591DE3C19B)	7.669	9.651	1.565	350.830	866.516	-182.434	16.15	-39.86	-98.53	-42.532	-47.824	51.254	0.59558	-0.01456	-0.36295	-0.71640	29.9	13111	100
2025-3-7 0:3:21.715	WT901BLE68-01(48591DE3C19B)	7.669	4.641	-0.479	781.372	510.925	-825.378	28.06	-32.15	-105.77	-42.532	-47.824	51.254	0.59558	-0.01456	-0.36295	-0.71640	29.9	13111	100
2025-3-7 0:3:21.715	WT901BLE68-01(48591DE3C19B)	7.438	4.641	-0.479	781.372	510.925	-825.378	37.96	-23.55	-110.61	-42.532	-47.824	51.254	0.59558	-0.01456	-0.36295	-0.71640	29.9	13111	100
2025-3-7 0:3:21.775	WT901BLE68-01(48591DE3C19B)	7.438	-2.178	-3.545	554.993	-119.995	-1009.827	46.52	-17.87	-119.62	-42.532	-47.824	51.254	0.59558	-0.01456	-0.36295	-0.71640	29.9	13111	100
2025-3-7 0:3:21.775	WT901BLE68-01(48591DE3C19B)	5.720	-2.178	-3.545	554.993	-119.995	-1009.827	53.82	-11.18	-127.40	-42.532	-47.824	51.254	0.59558	-0.01456	-0.36295	-0.71640	29.9	13111	100
2025-3-7 0:3:21.775	WT901BLE68-01(48591DE3C19B)	5.720	-8.751	-5.695	-224.182	-1363.892	-602.417	54.73	-14.61	-142.47	-42.532	-47.824	51.254	0.59558	-0.01456	-0.36295	-0.71640	29.9	13111	100
2025-3-7 0:3:21.776	WT901BLE68-01(48591DE3C19B)	-1.247	-8.751	-5.695	-224.182	-1363.892	-602.417	56.56	-17.73	-157.78	-42.532	-47.824	51.254	0.59558	-0.01456	-0.36295	-0.71640	29.9	13111	100
2025-3-7 0:3:21.806	WT901BLE68-01(48591DE3C19B)	-1.247	-10.572	0.584	517.090	-1280.762	265.564	65.62	-26.65	-168.51	-43.806	-45.178	55.370	0.59558	-0.01456	-0.36295	-0.71640	29.9	13111	100
2025-3-7 0:3:21.806	WT901BLE68-01(48591DE3C19B)	1.740	-10.572	0.584	517.090	-1280.762	265.564	77.15	-33.69	178.45	-43.806	-45.178	55.370	0.59558	-0.01456	-0.36295	-0.71640	29.9	13111	100
2025-3-7 0:3:21.806	WT901BLE68-01(48591DE3C19B)	2.920	-4.016	8.508	99.976	-582.336	889.160	81.14	-43.91	173.34	-43.806	-45.178	55.370	0.59558	-0.01456	-0.36295	-0.71640	29.9	13111	100
2025-3-7 0:3:21.806	WT901BLE68-01(48591DE3C19B)	2.920	-1.024	10.731	-75.195	418.030	916.748	79.97	-53.27	174.47	-43.806	-45.178	55.370	0.59558	-0.01456	-0.36295	-0.71640	29.9	13111	100
2025-3-7 0:3:21.866	WT901BLE68-01(48591DE3C19B)	5.950	-1.024	10.731	-75.195	418.030	916.748	68.56	-61.22	-173.17	-43.806	-45.178	55.370	0.59558	-0.01456	-0.36295	-0.71640	29.9	13111	100
2025-3-7 0:3:21.866	WT901BLE68-01(48591DE3C19B)	5.950	3.486	6.974	274.048	948.547	702.271	48.93	-64.67	-150.48	-43.806	-45.178	55.370	0.59558	-0.01456	-0.36295	-0.71640	29.9	13111	100
2025-3-7 0:3:21.866	WT901BLE68-01(48591DE3C19B)	7.589	3.486	6.974	274.048	948.547	702.271	28.47	-61.56	-124.83	-43.806	-45.178	55.370	0.59558	-0.01456	-0.36295	-0.71640	29.9	13111	100
2025-3-7 0:3:21.866	WT901BLE68-01(48591DE3C19B)	7.589	9.079	2.214	286.133	974.243	66.833	19.04	-54.19	-110.86	-43.806	-45.178	55.370	0.59558	-0.01456	-0.36295	-0.71640	29.9	13111	100
2025-3-7 0:3:21.899	WT901BLE68-01(48591DE3C19B)	7.944	9.079	2.214	286.133	974.243	66.833	17.44	-45.15	-105.29	-43.806	-45.178	55.370	0.59558	-0.01456	-0.36295	-0.71640	29.9	13111	100
2025-3-7 0:3:21.899	WT901BLE68-01(48591DE3C19B)	7.944	6.464	-0.209	633.850	728.821	-737.061	22.09	-36.02	-105.90	-43.806	-45.178	55.370	0.59558	-0.01456	-0.36295	-0.71640	29.9	13111	100
2025-3-7 0:3:21.899	WT901BLE68-01(48591DE3C19B)	8.360	6.464	-0.209	633.850	728.821	-737.061	30.40	-26.39	-110.02	-43.806	-45.178	55.370	0.59558	-0.01456	-0.36295	-0.71640	29.9	13111	100
2025-3-7 0:3:21.899	WT901BLE68-01(48591DE3C19B)	8.360	-0.568	-3.750	766.602	221.924	-1035.156	39.05	-17.59	-115.18	-43.806	-45.178	55.370	0.59558	-0.01456	-0.36295	-0.71640	29.9	13111	100
2025-3-7 0:3:21.926	WT901BLE68-01(48591DE3C19B)	8.019	-0.568	-3.750	766.602	221.924	-1035.156	48.00	-9.15	-121.48	-43.806	-45.178	55.370	0.59558	-0.01456	-0.36295	-0.71640	29.9	13111	100
2025-3-7 0:3:21.926	WT901BLE68-01(48591DE3C19B)	8.019	-7.582	-6.342	112.854	-1411.499	-650.818	53.25	-6.51	-131.75	-43.806	-45.178	55.370	0.59558	-0.01456	-0.36295	-0.71640	29.9	13111	100
2025-3-7 0:3:21.926	WT901BLE68-01(48591DE3C19B)	-0.889	-7.582	-6.342	112.854	-1411.499	-650.818	56.39	-9.72	-147.30	-43.806	-45.178	55.370	0.59558	-0.01456	-0.36295	-0.71640	29.9	13111	100
2025-3-7 0:3:21.926	WT901BLE68-01(48591DE3C19B)	-0.889	-12.769	2.099	788.208	-1483.093	405.334	63.47	-16.58	-160.85	-43.806	-45.178	55.370	0.59558	-0.01456	-0.36295	-0.71640	29.9	13111	100
2025-3-7 0:3:21.986	WT901BLE68-01(48591DE3C19B)	2.017	-12.769	2.099	788.208	-1483.093	405.334	76.04	-25.94	-174.28	-43.806	-45.178	55.370	0.59558	-0.01456	-0.36295	-0.71640	29.9	13111	100
2025-3-7 0:3:21.986	WT901BLE68-01(48591DE3C19B)	2.017	-2.765	10.058	42.908	-521.057	1068.726	84.88	-35.24	175.46	-43.806	-45.178	55.370	0.19617	-0.29477	-0.62549	-0.69519	29.9	13111	100
2025-3-7 0:3:21.986	WT901BLE68-01(48591DE3C19B)	2.513	-2.765	10.058	42.908	-521.057	1068.726	89.04	-46.55	169.43	-43.806	-45.178	55.370	0.19617	-0.29477	-0.62549	-0.69519	29.9	13111	100
2025-3-7 0:3:21.986	WT901BLE68-01(48591DE3C19B)	2.513	1.118	11.253	2.502	589.966	854.492	87.86	-56.44	170.60	-43.806	-45.178	55.370	0.19617	-0.29477	-0.62549	-0.69519	29.9	13111	100
2025-3-7 0:3:22.16	WT901BLE68-01(48591DE3C19B)	5.692	1.118	11.253	2.502	589.966	854.492	74.75	-64.23	-174.62	-43.806	-45.178	55.370	0.19617	-0.29477	-0.62549	-0.69519	29.9	13111	100
2025-3-7 0:3:22.16	WT901BLE68-01(48591DE3C19B)	5.692	5.053	6.311	233.704	1041.687	512.146	52.16	-66.74	-148.97	-43.806	-45.178	55.370	0.19617	-0.29477	-0.62549	-0.69519	29.9	13111	100
2025-3-7 0:3:22.16	WT901BLE68-01(48591DE3C19B)	7.402	5.053	6.311	233.704	1041.687	512.146	31.30	-62.22	-123.62	-43.806	-45.178	55.370	0.19617	-0.29477	-0.62549	-0.69519	29.9	13111	100
2025-3-7 0:3:22.16	WT901BLE68-01(48591DE3C19B)	7.402	7.989	0.726	311.523	940.186	-117.493	23.48	-54.18	-111.67	-43.806	-45.178	55.370	0.19617	-0.29477	-0.62549	-0.69519	29.9	13111	100
2025-3-7 0:3:22.45	WT901BLE68-01(48591DE3C19B)	7.421	7.989	0.726	311.523	940.186	-117.493	23.35	-45.10	-107.69	-43.806	-45.178	55.370	0.19617	-0.29477	-0.62549	-0.69519	29.9	13111	100
2025-3-7 0:3:22.45	WT901BLE68-01(48591DE3C19B)	7.421	4.725	-1.558	657.715	507.202	-686.096	28.45	-36.85	-108.55	-43.806	-45.178	55.370	0.19617	-0.29477	-0.62549	-0.69519	29.9	13111	100
2025-3-7 0:3:22.45	WT901BLE68-01(48591DE3C19B)	6.742	4.725	-1.558	657.715	507.202	-686.096	36.90	-29.01	-112.32	-43.806	-45.178	55.370	0.19617	-0.29477	-0.62549	-0.69519	29.9	13111	100
2025-3-7 0:3:22.45	WT901BLE68-01(48591DE3C19B)	6.742	-1.763	-4.374	508.850	-202.759	-842.834	44.84	-22.97	-117.84	-43.806	-45.178	55.370	0.19617	-0.29477	-0.62549	-0.69519	29.9	13111	100
2025-3-7 0:3:22.106	WT901BLE68-01(48591DE3C19B)	4.989	-1.763	-4.374	508.850	-202.759	-842.834	52.44	-18.23	-125.57	-43.806	-45.178	55.370	0.19617	-0.29477	-0.62549	-0.69519	29.9	13111	100
2025-3-7 0:3:22.106	WT901BLE68-01(48591DE3C19B)	4.989	-8.738	-5.208	-404.114	-1480.652	-499.268	56.04	-17.78	-137.01	-43.806	-45.178	55.370	0.19617	-0.29477	-0.62549	-0.69519	29.9	13111	100
2025-3-7 0:3:22.106	WT901BLE68-01(48591DE3C19B)	-1.301	-8.738	-5.208	-404.114	-1480.652	-499.268	57.31	-22.11	-153.15	-43.806	-45.178	55.370	0.19617	-0.29477	-0.62549	-0.69519	29.9	13111	100
2025-3-7 0:3:22.106	WT901BLE68-01(48591DE3C19B)	-1.301	-11.019	1.434	435.120	-1199.646	416.443	62.63	-29.06	-166.14	-43.806	-45.178	55.370	0.19617	-0.29477	-0.62549	-0.69519	29.9	13111	100
2025-3-7 0:3:22.137	WT901BLE68-01(48591DE3C19B)	1.325	-11.019	1.434	435.120	-1199.646	416.443	73.09	-37.84	-177.54	-43.806	-45.178	55.370	0.19617	-0.29477	-0.62549	-0.69519	29.9	13111	100
2025-3-7 0:3:22.138	WT901BLE68-01(48591DE3C19B)	1.325	-3.479	10.921	15.015	-449.219	931.274	80.86	-46.63	173.62	-43.806	-45.178	55.370	0.19617	-0.29477	-0.62549	-0.69519	29.9	13111	100
2025-3-7 0:3:22.138	WT901BLE68-01(48591DE3C19B)	3.680	-3.479	10.921	15.015	-449.219	931.274	84.80	-56.75	168.50	-43.806	-45.178	55.370	0.19617	-0.29477	-0.62549	-0.69519	29.9	13111	100
2025-3-7 0:3:22.138	WT901BLE68-01(48591DE3C19B)	3.680	0.668	10.555	137.939	555.847	888.489	81.83	-65.98	172.27	-43.806	-45.178	55.370	0.19617	-0.29477	-0.62549	-0.69519	29.9	13111	100
2025-3-7 0:3:22.166	WT901BLE68-01(48591DE3C19B)	6.810	0.668	10.555	137.939	555.847	888.489	60.53	-72.84	-163.83	-43.806	-45.178	55.370	0.19617	-0.29477	-0.62549	-0.69519	29.9	13111	100
2025-3-7 0:3:22.166	WT901BLE68-01(48591DE3C19B)	6.810	4.011	5.965	301.086	1127.075	549.438	26.76	-71.54	-126.56	-43.806	-45.178	55.370	0.19617	-0.29477	-0.62549	-0.69519	29.9	13111	100
2025-3-7 0:3:22.166	WT901BLE68-01(48591DE3C19B)	8.329	4.011	5.965	301.086	1127.075	549.438	8.95	-62.23	-104.27	-52.626	-57.330	51.646	0.19617	-0.29477	-0.62549	-0.69519	29.9	13111	100
2025-3-7 0:3:22.166	WT901BLE68-01(48591DE3C19B)	8.329	8.080	0.823	424.438	968.567	-112.488	6.81	-52.02	-97.82	-52.626	-57.330	51.646	0.19617	-0.29477	-0.62549	-0.69519	29.9	13111	100
2025-3-7 0:3:22.226	WT901BLE68-01(48591DE3C19B)	7.631	8.080	0.823	424.438	968.567	-112.488	10.61	-42.31	-97.47	-52.626	-57.330	51.646	0.19617	-0.29477	-0.62549	-0.69519	29.9	13111	100
2025-3-7 0:3:22.226	WT901BLE68-01(48591DE3C19B)	7.631	4.131	-1.459	751.648	539.124	-728.455	18.10	-34.00	-100.57	-52.626	-57.330	51.646	0.19617	-0.29477	-0.62549	-0.69519	29.9	13111	100
2025-3-7 0:3:22.227	WT901BLE68-01(48591DE3C19B)	6.917	4.131	-1.459	751.648	539.124	-728.455	28.19	-26.36	-106.02	-52.626	-57.330	51.646	0.19617	-0.29477	-0.62549	-0.69519	29.9	13111	100
2025-3-7 0:3:22.227	WT901BLE68-01(48591DE3C19B)	6.917	-1.578	-4.398	640.259	-86.060	-923.523	37.38	-20.11	-112.46	-52.626	-57.330	51.646	0.19617	-0.29477	-0.62549	-0.69519	29.9	13111	100
2025-3-7 0:3:22.255	WT901BLE68-01(48591DE3C19B)	6.156	-1.578	-4.398	640.259	-86.060	-923.523	45.99	-14.89	-120.44	-52.626	-57.330	51.646	0.19617	-0.29477	-0.62549	-0.69519	29.9	13111	100
2025-3-7 0:3:22.255	WT901BLE68-01(48591DE3C19B)	6.156	-7.843	-6.121	-174.622	-1400.085	-633.423	50.65	-14.11	-131.70	-52.626	-57.330	51.646	0.19617	-0.29477	-0.62549	-0.69519	29.9	13111	100
2025-3-7 0:3:22.255	WT901BLE68-01(48591DE3C19B)	-0.467	-7.843	-6.121	-174.622	-1400.085	-633.423	53.05	-18.16	-147.33	-52.626	-57.330	51.646	0.19617	-0.29477	-0.62549	-0.69519	29.9	13111	100
2025-3-7 0:3:22.255	WT901BLE68-01(48591DE3C19B)	-0.467	-11.894	0.968	689.331	-1517.822	351.440	60.32	-25.68	-161.25	-52.626	-57.330	51.646	0.19617	-0.29477	-0.62549	-0.69519	29.9	13111	100
2025-3-7 0:3:22.286	WT901BLE68-01(48591DE3C19B)	3.003	-11.894	0.968	689.331	-1517.822	351.440	74.48	-35.17	-175.91	-52.626	-57.330	51.646	0.19617	-0.29477	-0.62549	-0.69519	29.9	13111	100
2025-3-7 0:3:22.286	WT901BLE68-01(48591DE3C19B)	3.003	-4.155	9.895	197.449	-715.210	1058.044	86.70	-44.35	171.11	-52.626	-57.330	51.646	0.19617	-0.29477	-0.62549	-0.69519	29.9	13111	100
2025-3-7 0:3:22.286	WT901BLE68-01(48591DE3C19B)	4.224	-4.155	9.895	197.449	-715.210	1058.044	97.27	-55.06	159.60	-52.626	-57.330	51.646	0.19617	-0.29477	-0.62549	-0.69519	29.9	13111	100
2025-3-7 0:3:22.286	WT901BLE68-01(48591DE3C19B)	4.224	0.860	12.765	129.822	552.307	989.990	89.42	-65.58	169.80	-52.626	-57.330	51.646	0.19617	-0.29477	-0.62549	-0.69519	29.9	13111	100
2025-3-7 0:3:22.348	WT901BLE68-01(48591DE3C19B)	7.180	0.860	12.765	129.822	552.307	989.990	69.83	-74.60	-168.32	-52.626	-57.330	51.646	0.19617	-0.29477	-0.62549	-0.69519	29.9	13111	100
2025-3-7 0:3:22.348	WT901BLE68-01(48591DE3C19B)	7.180	4.113	7.450	251.892	1184.937	596.191	28.73	-71.08	-123.15	-52.626	-57.330	51.646	0.19617	-0.29477	-0.62549	-0.69519	29.9	13111	100
2025-3-7 0:3:22.348	WT901BLE68-01(48591DE3C19B)	8.504	4.113	7.450	251.892	1184.937	596.191	9.18	-61.53	-99.43	-52.626	-57.330	51.646	0.19617	-0.29477	-0.62549	-0.69519	29.9	13111	100
2025-3-7 0:3:22.348	WT901BLE68-01(48591DE3C19B)	8.504	7.613	2.356	372.253	1056.396	6.348	10.06	-51.10	-96.28	-52.626	-57.330	51.646	0.19617	-0.29477	-0.62549	-0.69519	29.9	13111	100
2025-3-7 0:3:22.378	WT901BLE68-01(48591DE3C19B)	8.492	7.613	2.356	372.253	1056.396	6.348	11.60	-40.80	-93.53	-52.626	-57.330	51.646	0.19617	-0.29477	-0.62549	-0.69519	29.9	13111	100
2025-3-7 0:3:22.378	WT901BLE68-01(48591DE3C19B)	8.492	4.962	0.340	800.842	724.487	-644.348	22.51	-32.11	-98.73	-52.626	-57.330	51.646	0.19617	-0.29477	-0.62549	-0.69519	29.9	13111	100
2025-3-7 0:3:22.378	WT901BLE68-01(48591DE3C19B)	8.492	4.962	0.340	800.842	724.487	-644.348	31.67	-22.91	-101.66	-52.626	-57.330	51.646	0.19617	-0.29477	-0.62549	-0.69519	29.9	13111	100
2025-3-7 0:3:22.378	WT901BLE68-01(48591DE3C19B)	8.492	-0.632	-2.320	799.988	379.578	-1020.325	41.50	-14.02	-108.09	-52.626	-57.330	51.646	0.54831	0.15991	-0.36185	-0.73672	29.9	13111	100
2025-3-7 0:3:22.408	WT901BLE68-01(48591DE3C19B)	8.183	-0.632	-2.320	799.988	379.578	-1020.325	50.02	-4.38	-112.74	-52.626	-57.330	51.646	0.54831	0.15991	-0.36185	-0.73672	29.9	13111	100
2025-3-7 0:3:22.408	WT901BLE68-01(48591DE3C19B)	8.183	-5.661	-7.548	231.079	-752.686	-810.608	52.81	-3.08	-123.89	-52.626	-57.330	51.646	0.54831	0.15991	-0.36185	-0.73672	29.9	13111	100
2025-3-7 0:3:22.408	WT901BLE68-01(48591DE3C19B)	1.399	-5.661	-7.548	231.079	-752.686	-810.608	55.31	-1.34	-134.92	-52.626	-57.330	51.646	0.54831	0.15991	-0.36185	-0.73672	29.9	13111	100
2025-3-7 0:3:22.408	WT901BLE68-01(48591DE3C19B)	1.399	-12.177	-1.888	247.437	-1751.709	-61.646	59.16	-10.76	-150.16	-52.626	-57.330	51.646	0.54831	0.15991	-0.36185	-0.73672	29.9	13111	100
2025-3-7 0:3:22.466	WT901BLE68-01(48591DE3C19B)	3.484	-12.177	-1.888	247.437	-1751.709	-61.646	65.60	-18.81	-166.52	-52.626	-57.330	51.646	0.54831	0.15991	-0.36185	-0.73672	29.9	13111	100
2025-3-7 0:3:22.466	WT901BLE68-01(48591DE3C19B)	3.484	-8.279	3.480	647.583	-1411.804	1014.648	76.85	-33.38	-177.74	-52.626	-57.330	51.646	0.54831	0.15991	-0.36185	-0.73672	29.9	13111	100
2025-3-7 0:3:22.466	WT901BLE68-01(48591DE3C19B)	4.938	-8.279	3.480	647.583	-1411.804	1014.648	94.01	-45.09	165.18	-52.626	-57.330	51.646	0.54831	0.15991	-0.36185	-0.73672	29.9	13111	100
2025-3-7 0:3:22.466	WT901BLE68-01(48591DE3C19B)	4.938	1.083	13.788	151.733	-164.490	1129.761	98.79	-56.47	160.68	-52.626	-57.330	51.646	0.54831	0.15991	-0.36185	-0.73672	29.9	13111	100
2025-3-7 0:3:22.498	WT901BLE68-01(48591DE3C19B)	6.574	1.083	13.788	151.733	-164.490	1129.761	107.75	-67.38	152.01	-52.626	-57.330	51.646	0.54831	0.15991	-0.36185	-0.73672	29.9	13111	100
2025-3-7 0:3:22.498	WT901BLE68-01(48591DE3C19B)	6.574	4.558	10.320	265.198	968.262	766.968	81.86	-76.27	-178.33	-52.626	-57.330	51.646	0.54831	0.15991	-0.36185	-0.73672	29.9	13111	100
2025-3-7 0:3:22.498	WT901BLE68-01(48591DE3C19B)	7.829	4.558	10.320	265.198	968.262	766.968	29.20	-77.15	-121.96	-52.626	-57.330	51.646	0.54831	0.15991	-0.36185	-0.73672	29.9	13111	100
2025-3-7 0:3:22.498	WT901BLE68-01(48591DE3C19B)	7.829	6.977	3.889	358.704	1254.333	51.697	16.56	-65.59	-105.17	-52.626	-57.330	51.646	0.54831	0.15991	-0.36185	-0.73672	29.9	13111	100
2025-3-7 0:3:22.526	WT901BLE68-01(48591DE3C19B)	7.999	6.977	3.889	358.704	1254.333	51.697	13.63	-53.58	-97.90	-52.626	-57.330	51.646	0.54831	0.15991	-0.36185	-0.73672	29.9	13111	100
2025-3-7 0:3:22.526	WT901BLE68-01(48591DE3C19B)	7.999	5.621	1.182	674.805	904.175	-504.333	22.55	-43.48	-101.07	-52.626	-57.330	51.646	0.54831	0.15991	-0.36185	-0.73672	29.9	13111	100
2025-3-7 0:3:22.527	WT901BLE68-01(48591DE3C19B)	8.414	5.621	1.182	674.805	904.175	-504.333	29.64	-33.26	-101.95	-52.626	-57.330	51.646	0.54831	0.15991	-0.36185	-0.73672	29.9	13111	100
2025-3-7 0:3:22.527	WT901BLE68-01(48591DE3C19B)	8.414	0.521	-1.511	739.319	630.676	-925.293	39.07	-23.02	-106.74	-52.626	-57.330	51.646	0.54831	0.15991	-0.36185	-0.73672	29.9	13111	100
2025-3-7 0:3:22.586	WT901BLE68-01(48591DE3C19B)	8.062	0.521	-1.511	739.319	630.676	-925.293	47.07	-12.36	-109.50	-52.626	-57.330	51.646	0.54831	0.15991	-0.36185	-0.73672	29.9	13111	100
2025-3-7 0:3:22.586	WT901BLE68-01(48591DE3C19B)	8.062	-5.320	-8.131	-122.314	-418.945	-852.600	47.32	-9.26	-118.71	-52.626	-57.330	51.646	0.54831	0.15991	-0.36185	-0.73672	29.9	13111	100
2025-3-7 0:3:22.586	WT901BLE68-01(48591DE3C19B)	2.079	-5.320	-8.131	-122.314	-418.945	-852.600	47.09	-6.21	-127.81	-52.626	-57.330	51.646	0.54831	0.15991	-0.36185	-0.73672	29.9	13111	100
2025-3-7 0:3:22.586	WT901BLE68-01(48591DE3C19B)	2.079	-9.301	-7.434	-80.200	-1331.482	-127.991	48.04	-14.67	-138.80	-52.626	-57.330	51.646	0.54831	0.15991	-0.36185	-0.73672	29.9	13111	100
2025-3-7 0:3:22.615	WT901BLE68-01(48591DE3C19B)	2.606	-9.301	-7.434	-80.200	-1331.482	-127.991	50.75	-22.79	-150.43	-50.666	-49.392	58.506	0.54831	0.15991	-0.36185	-0.73672	29.9	13111	100
2025-3-7 0:3:22.615	WT901BLE68-01(48591DE3C19B)	2.606	-8.078	0.464	557.800	-1549.927	681.091	61.41	-37.49	-160.92	-50.666	-49.392	58.506	0.54831	0.15991	-0.36185	-0.73672	29.9	13111	100
2025-3-7 0:3:22.616	WT901BLE68-01(48591DE3C19B)	3.860	-8.078	0.464	557.800	-1549.927	681.091	78.46	-49.63	-177.78	-50.666	-49.392	58.506	0.54831	0.15991	-0.36185	-0.73672	29.9	13111	100
2025-3-7 0:3:22.616	WT901BLE68-01(48591DE3C19B)	3.860	-1.171	13.763	180.603	-509.949	1047.058	85.13	-61.02	176.03	-50.666	-49.392	58.506	0.54831	0.15991	-0.36185	-0.73672	29.9	13111	100
2025-3-7 0:3:22.645	WT901BLE68-01(48591DE3C19B)	5.530	-1.171	13.763	180.603	-509.949	1047.058	98.99	-71.59	162.66	-50.666	-49.392	58.506	0.54831	0.15991	-0.36185	-0.73672	29.9	13111	100
2025-3-7 0:3:22.646	WT901BLE68-01(48591DE3C19B)	5.530	4.770	12.227	109.558	796.631	811.646	64.08	-78.91	-160.50	-50.666	-49.392	58.506	0.54831	0.15991	-0.36185	-0.73672	29.9	13111	100
2025-3-7 0:3:22.646	WT901BLE68-01(48591DE3C19B)	7.038	4.770	12.227	109.558	796.631	811.646	9.26	-77.04	-103.76	-50.666	-49.392	58.506	0.54831	0.15991	-0.36185	-0.73672	29.9	13111	100
2025-3-7 0:3:22.646	WT901BLE68-01(48591DE3C19B)	7.038	7.196	5.545	355.347	1113.953	142.517	4.49	-66.03	-95.23	-50.666	-49.392	58.506	0.54831	0.15991	-0.36185	-0.73672	29.9	13111	100
2025-3-7 0:3:22.706	WT901BLE68-01(48591DE3C19B)	7.542	7.196	5.545	355.347	1113.953	142.517	4.06	-54.99	-90.90	-50.666	-49.392	58.506	0.54831	0.15991	-0.36185	-0.73672	29.9	13111	100
2025-3-7 0:3:22.706	WT901BLE68-01(48591DE3C19B)	7.542	5.464	2.130	622.864	917.664	-513.367	14.55	-45.14	-96.67	-50.666	-49.392	58.506	0.54831	0.15991	-0.36185	-0.73672	29.9	13111	100
2025-3-7 0:3:22.706	WT901BLE68-01(48591DE3C19B)	8.299	5.464	2.130	622.864	917.664	-513.367	22.37	-34.92	-99.42	-50.666	-49.392	58.506	0.54831	0.15991	-0.36185	-0.73672	29.9	13111	100
2025-3-7 0:3:22.706	WT901BLE68-01(48591DE3C19B)	8.299	0.905	-0.479	805.054	769.470	-919.922	32.91	-24.01	-104.84	-50.666	-49.392	58.506	0.54831	0.15991	-0.36185	-0.73672	29.9	13111	100
2025-3-7 0:3:22.738	WT901BLE68-01(48591DE3C19B)	9.146	0.905	-0.479	805.054	769.470	-919.922	41.69	-12.57	-107.80	-50.666	-49.392	58.506	0.54831	0.15991	-0.36185	-0.73672	29.9	13111	100
2025-3-7 0:3:22.738	WT901BLE68-01(48591DE3C19B)	9.146	-4.438	-7.743	300.232	-90.271	-912.720	45.75	-7.21	-115.31	-50.666	-49.392	58.506	0.54831	0.15991	-0.36185	-0.73672	29.9	13111	100
2025-3-7 0:3:22.738	WT901BLE68-01(48591DE3C19B)	4.400	-4.438	-7.743	300.232	-90.271	-912.720	49.05	-1.47	-122.35	-50.666	-49.392	58.506	0.54831	0.15991	-0.36185	-0.73672	29.9	13111	100
2025-3-7 0:3:22.738	WT901BLE68-01(48591DE3C19B)	2.442	-10.051	-7.806	12.024	-1453.674	-252.136	50.15	-9.39	-135.25	-50.666	-49.392	58.506	0.54831	0.15991	-0.36185	-0.73672	29.9	13111	100
2025-3-7 0:3:22.767	WT901BLE68-01(48591DE3C19B)	2.442	-9.471	0.483	682.617	-1667.725	853.088	56.00	-21.77	-146.29	-50.666	-49.392	58.506	0.54831	0.15991	-0.36185	-0.73672	29.9	13111	100
2025-3-7 0:3:22.768	WT901BLE68-01(48591DE3C19B)	4.063	-9.471	0.483	682.617	-1667.725	853.088	68.80	-37.44	-158.75	-50.666	-49.392	58.506	0.54831	0.15991	-0.36185	-0.73672	29.9	13111	100
2025-3-7 0:3:22.768	WT901BLE68-01(48591DE3C19B)	4.063	-1.267	13.805	137.817	-487.183	1151.367	79.81	-50.34	-169.55	-50.666	-49.392	58.506	0.33493	-0.27206	-0.60788	-0.66647	29.9	13111	100
2025-3-7 0:3:22.768	WT901BLE68-01(48591DE3C19B)	5.697	-1.267	13.805	137.817	-487.183	1151.367	85.96	-62.62	-175.59	-50.666	-49.392	58.506	0.33493	-0.27206	-0.60788	-0.66647	29.9	13111	100
2025-3-7 0:3:22.826	WT901BLE68-01(48591DE3C19B)	5.697	5.145	12.021	51.453	839.233	793.396	78.68	-72.20	-167.34	-50.666	-49.392	58.506	0.33493	-0.27206	-0.60788	-0.66647	29.9	13111	100
2025-3-7 0:3:22.826	WT901BLE68-01(48591DE3C19B)	7.143	5.145	12.021	51.453	839.233	793.396	39.47	-74.83	-126.35	-50.666	-49.392	58.506	0.33493	-0.27206	-0.60788	-0.66647	29.9	13111	100
2025-3-7 0:3:22.826	WT901BLE68-01(48591DE3C19B)	7.143	6.913	5.313	245.544	1111.511	240.234	13.52	-68.05	-97.93	-50.666	-49.392	58.506	0.33493	-0.27206	-0.60788	-0.66647	29.9	13111	100
2025-3-7 0:3:22.826	WT901BLE68-01(48591DE3C19B)	7.342	6.913	5.313	245.544	1111.511	240.234	7.39	-57.48	-88.59	-50.666	-49.392	58.506	0.33493	-0.27206	-0.60788	-0.66647	29.9	13111	100
2025-3-7 0:3:22.855	WT901BLE68-01(48591DE3C19B)	7.342	6.952	1.415	532.227	763.550	-401.978	10.38	-48.05	-87.90	-50.666	-49.392	58.506	0.33493	-0.27206	-0.60788	-0.66647	29.9	13111	100
2025-3-7 0:3:22.855	WT901BLE68-01(48591DE3C19B)	7.180	6.952	1.415	532.227	763.550	-401.978	17.64	-39.75	-90.98	-50.666	-49.392	58.506	0.33493	-0.27206	-0.60788	-0.66647	29.9	13111	100
2025-3-7 0:3:22.855	WT901BLE68-01(48591DE3C19B)	7.180	1.859	0.417	756.287	546.631	-873.291	26.43	-31.36	-95.50	-50.666	-49.392	58.506	0.33493	-0.27206	-0.60788	-0.66647	29.9	13111	100
2025-3-7 0:3:22.855	WT901BLE68-01(48591DE3C19B)	8.126	1.859	0.417	756.287	546.631	-873.291	36.21	-22.32	-100.88	-50.666	-49.392	58.506	0.33493	-0.27206	-0.60788	-0.66647	29.9	13111	100
2025-3-7 0:3:22.885	WT901BLE68-01(48591DE3C19B)	8.126	-3.224	-5.052	387.878	154.358	-1020.386	43.31	-13.72	-106.32	-50.666	-49.392	58.506	0.33493	-0.27206	-0.60788	-0.66647	29.9	13111	100
2025-3-7 0:3:22.885	WT901BLE68-01(48591DE3C19B)	6.332	-3.224	-5.052	387.878	154.358	-1020.386	48.02	-5.64	-112.63	-50.666	-49.392	58.506	0.33493	-0.27206	-0.60788	-0.66647	29.9	13111	100
2025-3-7 0:3:22.885	WT901BLE68-01(48591DE3C19B)	6.332	-7.541	-9.069	-84.351	-1102.966	-565.063	49.72	-3.04	-121.63	-50.666	-49.392	58.506	0.33493	-0.27206	-0.60788	-0.66647	29.9	13111	100
2025-3-7 0:3:22.885	WT901BLE68-01(48591DE3C19B)	1.464	-7.541	-9.069	-84.351	-1102.966	-565.063	49.64	-6.28	-133.89	-50.666	-49.392	58.506	0.33493	-0.27206	-0.60788	-0.66647	29.9	13111	100
2025-3-7 0:3:22.946	WT901BLE68-01(48591DE3C19B)	1.464	-9.906	-0.913	817.749	-1797.791	386.353	55.05	-15.11	-146.16	-50.666	-49.392	58.506	0.33493	-0.27206	-0.60788	-0.66647	29.9	13111	100
2025-3-7 0:3:22.946	WT901BLE68-01(48591DE3C19B)	4.439	-9.906	-0.913	817.749	-1797.791	386.353	68.53	-27.44	-161.22	-50.666	-49.392	58.506	0.33493	-0.27206	-0.60788	-0.66647	29.9	13111	100
2025-3-7 0:3:22.946	WT901BLE68-01(48591DE3C19B)	4.439	-4.250	9.612	353.027	-1091.125	1116.943	81.83	-38.81	-175.82	-50.666	-49.392	58.506	0.33493	-0.27206	-0.60788	-0.66647	29.9	13111	100
2025-3-7 0:3:22.946	WT901BLE68-01(48591DE3C19B)	4.651	-4.250	9.612	353.027	-1091.125	1116.943	95.72	-50.61	169.19	-50.666	-49.392	58.506	0.33493	-0.27206	-0.60788	-0.66647	29.9	13111	100
2025-3-7 0:3:22.975	WT901BLE68-01(48591DE3C19B)	4.651	2.307	14.918	154.053	524.170	1014.465	104.47	-60.96	160.94	-50.666	-49.392	58.506	0.33493	-0.27206	-0.60788	-0.66647	29.9	13111	100
2025-3-7 0:3:22.975	WT901BLE68-01(48591DE3C19B)	7.099	2.307	14.918	154.053	524.170	1014.465	98.16	-72.16	169.16	-50.666	-49.392	58.506	0.33493	-0.27206	-0.60788	-0.66647	29.9	13111	100
2025-3-7 0:3:22.975	WT901BLE68-01(48591DE3C19B)	7.099	4.692	7.792	193.848	1238.037	547.302	58.68	-78.49	-148.88	-50.666	-49.392	58.506	0.33493	-0.27206	-0.60788	-0.66647	29.9	13111	100
2025-3-7 0:3:22.975	WT901BLE68-01(48591DE3C19B)	8.477	4.692	7.792	193.848	1238.037	547.302	15.19	-71.20	-102.33	-50.960	-56.154	52.234	0.33493	-0.27206	-0.60788	-0.66647	29.9	13111	100
2025-3-7 0:3:23.6	WT901BLE68-01(48591DE3C19B)	8.477	6.870	2.755	373.596	1142.639	-5.554	7.00	-59.86	-90.68	-50.960	-56.154	52.234	0.33493	-0.27206	-0.60788	-0.66647	29.9	13111	100
2025-3-7 0:3:23.6	WT901BLE68-01(48591DE3C19B)	8.563	6.870	2.755	373.596	1142.639	-5.554	8.63	-48.55	-88.35	-50.960	-56.154	52.234	0.33493	-0.27206	-0.60788	-0.66647	29.9	13111	100
2025-3-7 0:3:23.6	WT901BLE68-01(48591DE3C19B)	8.563	4.500	0.765	695.496	810.059	-597.961	14.80	-38.40	-90.05	-50.960	-56.154	52.234	0.33493	-0.27206	-0.60788	-0.66647	29.9	13111	100
2025-3-7 0:3:23.6	WT901BLE68-01(48591DE3C19B)	8.856	4.500	0.765	695.496	810.059	-597.961	23.65	-28.93	-93.83	-50.960	-56.154	52.234	0.33493	-0.27206	-0.60788	-0.66647	29.9	13111	100
2025-3-7 0:3:23.66	WT901BLE68-01(48591DE3C19B)	8.856	-0.534	-2.606	698.547	509.094	-958.252	32.12	-19.60	-98.21	-50.960	-56.154	52.234	0.33493	-0.27206	-0.60788	-0.66647	29.9	13111	100
2025-3-7 0:3:23.66	WT901BLE68-01(48591DE3C19B)	7.642	-0.534	-2.606	698.547	509.094	-958.252	40.19	-10.10	-103.31	-50.960	-56.154	52.234	0.33493	-0.27206	-0.60788	-0.66647	29.9	13111	100
2025-3-7 0:3:23.66	WT901BLE68-01(48591DE3C19B)	7.642	-5.566	-8.306	142.822	-616.760	-776.062	44.86	-4.82	-110.34	-50.960	-56.154	52.234	0.33493	-0.27206	-0.60788	-0.66647	29.9	13111	100
2025-3-7 0:3:23.66	WT901BLE68-01(48591DE3C19B)	2.103	-5.566	-8.306	142.822	-616.760	-776.062	46.81	-3.92	-120.39	-50.960	-56.154	52.234	0.33493	-0.27206	-0.60788	-0.66647	29.9	13111	100
2025-3-7 0:3:23.98	WT901BLE68-01(48591DE3C19B)	2.103	-10.773	-4.226	327.026	-1607.788	-49.133	49.89	-8.66	-131.71	-50.960	-56.154	52.234	0.33493	-0.27206	-0.60788	-0.66647	29.9	13111	100
2025-3-7 0:3:23.98	WT901BLE68-01(48591DE3C19B)	3.098	-10.773	-4.226	327.026	-1607.788	-49.133	56.11	-18.37	-145.31	-50.960	-56.154	52.234	0.33493	-0.27206	-0.60788	-0.66647	29.9	13111	100
2025-3-7 0:3:23.98	WT901BLE68-01(48591DE3C19B)	3.098	-7.863	4.283	488.037	-1472.717	926.819	64.72	-30.30	-157.69	-50.960	-56.154	52.234	0.33493	-0.27206	-0.60788	-0.66647	29.9	13111	100
2025-3-7 0:3:23.99	WT901BLE68-01(48591DE3C19B)	3.335	-7.863	4.283	488.037	-1472.717	926.819	77.74	-44.21	-171.43	-50.960	-56.154	52.234	0.33493	-0.27206	-0.60788	-0.66647	29.9	13111	100
2025-3-7 0:3:23.126	WT901BLE68-01(48591DE3C19B)	3.335	0.771	13.989	161.316	-216.736	1133.545	89.06	-55.78	177.30	-50.960	-56.154	52.234	0.33493	-0.27206	-0.60788	-0.66647	29.9	13111	100
2025-3-7 0:3:23.126	WT901BLE68-01(48591DE3C19B)	5.188	0.771	13.989	161.316	-216.736	1133.545	94.97	-67.27	172.13	-50.960	-56.154	52.234	0.33493	-0.27206	-0.60788	-0.66647	29.9	13111	100
2025-3-7 0:3:23.126	WT901BLE68-01(48591DE3C19B)	5.188	4.931	10.723	122.681	954.163	700.806	83.61	-76.61	-175.04	-50.960	-56.154	52.234	0.33493	-0.27206	-0.60788	-0.66647	29.9	13111	100
2025-3-7 0:3:23.126	WT901BLE68-01(48591DE3C19B)	7.048	4.931	10.723	122.681	954.163	700.806	30.67	-77.35	-119.90	-50.960	-56.154	52.234	0.33493	-0.27206	-0.60788	-0.66647	29.9	13111	100
2025-3-7 0:3:23.186	WT901BLE68-01(48591DE3C19B)	7.048	5.639	4.506	254.700	1109.497	210.815	6.97	-68.67	-93.64	-50.960	-56.154	52.234	0.33493	-0.27206	-0.60788	-0.66647	29.9	13111	100
2025-3-7 0:3:23.186	WT901BLE68-01(48591DE3C19B)	7.305	5.639	4.506	254.700	1109.497	210.815	3.35	-57.74	-87.01	-50.960	-56.154	52.234	0.33493	-0.27206	-0.60788	-0.66647	29.9	13111	100
2025-3-7 0:3:23.186	WT901BLE68-01(48591DE3C19B)	7.305	5.400	1.472	561.829	808.350	-319.824	7.00	-48.11	-86.86	-50.960	-56.154	52.234	0.33493	-0.27206	-0.60788	-0.66647	29.9	13111	100
2025-3-7 0:3:23.186	WT901BLE68-01(48591DE3C19B)	6.982	5.400	1.472	561.829	808.350	-319.824	14.18	-39.65	-89.38	-50.960	-56.154	52.234	0.33493	-0.27206	-0.60788	-0.66647	29.9	13111	100
2025-3-7 0:3:23.215	WT901BLE68-01(48591DE3C19B)	6.982	1.701	-0.182	714.111	605.286	-758.667	22.48	-31.32	-93.19	-50.960	-56.154	52.234	0.68710	-0.06332	-0.31827	-0.64996	29.9	13111	100
2025-3-7 0:3:23.215	WT901BLE68-01(48591DE3C19B)	7.499	1.701	-0.182	714.111	605.286	-758.667	31.55	-22.66	-97.88	-50.960	-56.154	52.234	0.68710	-0.06332	-0.31827	-0.64996	29.9	13111	100
2025-3-7 0:3:23.215	WT901BLE68-01(48591DE3C19B)	7.499	-2.312	-5.095	457.153	217.834	-930.481	38.19	-15.78	-104.83	-50.960	-56.154	52.234	0.68710	-0.06332	-0.31827	-0.64996	29.9	13111	100
2025-3-7 0:3:23.216	WT901BLE68-01(48591DE3C19B)	6.601	-2.312	-5.095	457.153	217.834	-930.481	43.76	-8.34	-110.74	-50.960	-56.154	52.234	0.68710	-0.06332	-0.31827	-0.64996	29.9	13111	100
2025-3-7 0:3:23.276	WT901BLE68-01(48591DE3C19B)	6.601	-6.620	-8.389	-27.527	-1125.916	-590.881	45.51	-12.56	-123.21	-50.960	-56.154	52.234	0.68710	-0.06332	-0.31827	-0.64996	29.9	13111	100
2025-3-7 0:3:23.276	WT901BLE68-01(48591DE3C19B)	1.561	-6.620	-8.389	-27.527	-1125.916	-590.881	48.18	-16.34	-135.99	-50.960	-56.154	52.234	0.68710	-0.06332	-0.31827	-0.64996	29.9	13111	100
2025-3-7 0:3:23.276	WT901BLE68-01(48591DE3C19B)	1.561	-10.780	0.197	756.897	-1831.970	367.981	61.12	-30.33	-149.98	-50.960	-56.154	52.234	0.68710	-0.06332	-0.31827	-0.64996	29.9	13111	100
2025-3-7 0:3:23.276	WT901BLE68-01(48591DE3C19B)	3.799	-10.780	0.197	756.897	-1831.970	367.981	79.92	-40.34	-169.64	-50.960	-56.154	52.234	0.68710	-0.06332	-0.31827	-0.64996	29.9	13111	100
2025-3-7 0:3:23.305	WT901BLE68-01(48591DE3C19B)	3.799	-3.296	9.500	377.502	-963.623	1155.212	92.87	-52.84	177.45	-50.960	-56.154	52.234	0.68710	-0.06332	-0.31827	-0.64996	29.9	13111	100
2025-3-7 0:3:23.305	WT901BLE68-01(48591DE3C19B)	3.174	-3.296	9.500	377.502	-963.623	1155.212	115.58	-62.11	154.82	-50.960	-56.154	52.234	0.68710	-0.06332	-0.31827	-0.64996	29.9	13111	100
2025-3-7 0:3:23.305	WT901BLE68-01(48591DE3C19B)	3.174	3.519	13.846	63.293	555.542	916.321	112.45	-72.98	158.57	-50.960	-56.154	52.234	0.68710	-0.06332	-0.31827	-0.64996	29.9	13111	100
2025-3-7 0:3:23.305	WT901BLE68-01(48591DE3C19B)	5.725	3.519	13.846	63.293	555.542	916.321	97.36	-83.48	174.30	-50.960	-56.154	52.234	0.68710	-0.06332	-0.31827	-0.64996	29.9	13111	100
2025-3-7 0:3:23.336	WT901BLE68-01(48591DE3C19B)	5.725	5.001	6.209	124.878	1108.521	411.499	13.50	-79.38	-100.23	-50.960	-56.154	52.234	0.68710	-0.06332	-0.31827	-0.64996	29.9	13111	100
2025-3-7 0:3:23.336	WT901BLE68-01(48591DE3C19B)	6.547	5.001	6.209	124.878	1108.521	411.499	-3.04	-68.46	-82.03	-50.960	-56.154	52.234	0.68710	-0.06332	-0.31827	-0.64996	29.9	13111	100
2025-3-7 0:3:23.337	WT901BLE68-01(48591DE3C19B)	6.547	5.306	2.105	295.227	967.896	-28.259	0.90	-58.73	-83.37	-50.960	-56.154	52.234	0.68710	-0.06332	-0.31827	-0.64996	29.9	13111	100
2025-3-7 0:3:23.337	WT901BLE68-01(48591DE3C19B)	6.303	5.306	2.105	295.227	967.896	-28.259	3.74	-49.06	-83.46	-50.960	-56.154	52.234	0.68710	-0.06332	-0.31827	-0.64996	29.9	13111	100
2025-3-7 0:3:23.398	WT901BLE68-01(48591DE3C19B)	6.303	4.024	0.211	585.083	679.382	-460.205	13.17	-41.74	-88.75	-50.960	-56.154	52.234	0.68710	-0.06332	-0.31827	-0.64996	29.9	13111	100
2025-3-7 0:3:23.399	WT901BLE68-01(48591DE3C19B)	6.512	4.024	0.211	585.083	679.382	-460.205	20.85	-34.01	-92.03	-50.960	-56.154	52.234	0.68710	-0.06332	-0.31827	-0.64996	29.9	13111	100
2025-3-7 0:3:23.399	WT901BLE68-01(48591DE3C19B)	6.512	0.921	-2.562	551.575	469.727	-825.500	29.47	-26.42	-98.56	-50.960	-56.154	52.234	0.68710	-0.06332	-0.31827	-0.64996	29.9	13111	100
2025-3-7 0:3:23.399	WT901BLE68-01(48591DE3C19B)	6.162	0.921	-2.562	551.575	469.727	-825.500	36.64	-18.22	-103.46	-50.960	-56.154	52.234	0.68710	-0.06332	-0.31827	-0.64996	29.9	13111	100
2025-3-7 0:3:23.426	WT901BLE68-01(48591DE3C19B)	6.162	-2.762	-5.985	184.814	-303.406	-795.654	40.82	-15.89	-112.12	-62.622	-50.274	62.818	0.68710	-0.06332	-0.31827	-0.64996	29.9	13111	100
2025-3-7 0:3:23.426	WT901BLE68-01(48591DE3C19B)	4.057	-2.762	-5.985	184.814	-303.406	-795.654	44.54	-13.06	-120.47	-62.622	-50.274	62.818	0.68710	-0.06332	-0.31827	-0.64996	29.9	13111	100
2025-3-7 0:3:23.426	WT901BLE68-01(48591DE3C19B)	4.057	-6.375	-3.841	103.760	-1462.280	-349.365	49.40	-20.86	-134.25	-62.622	-50.274	62.818	0.68710	-0.06332	-0.31827	-0.64996	29.9	13111	100
2025-3-7 0:3:23.426	WT901BLE68-01(48591DE3C19B)	0.630	-6.375	-3.841	103.760	-1462.280	-349.365	56.43	-27.27	-149.43	-62.622	-50.274	62.818	0.68710	-0.06332	-0.31827	-0.64996	29.9	13111	100
2025-3-7 0:3:23.516	WT901BLE68-01(48591DE3C19B)	0.630	-9.814	2.058	905.212	-1465.454	600.525	72.30	-39.38	-162.15	-62.622	-50.274	62.818	0.68710	-0.06332	-0.31827	-0.64996	29.9	13111	100
2025-3-7 0:3:23.516	WT901BLE68-01(48591DE3C19B)	3.870	-9.814	2.058	905.212	-1465.454	600.525	94.28	-47.46	178.78	-62.622	-50.274	62.818	0.68710	-0.06332	-0.31827	-0.64996	29.9	13111	100
2025-3-7 0:3:23.516	WT901BLE68-01(48591DE3C19B)	3.870	-3.452	9.001	251.099	-611.816	1227.844	107.66	-58.72	164.91	-62.622	-50.274	62.818	0.68710	-0.06332	-0.31827	-0.64996	29.9	13111	100
2025-3-7 0:3:23.516	WT901BLE68-01(48591DE3C19B)	4.035	-3.452	9.001	251.099	-611.816	1227.844	132.24	-66.77	139.91	-62.622	-50.274	62.818	0.68710	-0.06332	-0.31827	-0.64996	29.9	13111	100
2025-3-7 0:3:23.517	WT901BLE68-01(48591DE3C19B)	4.035	3.678	10.715	16.113	568.237	1017.944	144.03	-78.13	127.50	-62.622	-50.274	62.818	0.68710	-0.06332	-0.31827	-0.64996	29.9	13111	100
2025-3-7 0:3:23.517	WT901BLE68-01(48591DE3C19B)	5.902	3.678	10.715	16.113	568.237	1017.944	-138.99	-85.15	49.94	-62.622	-50.274	62.818	0.68710	-0.06332	-0.31827	-0.64996	29.9	13111	100
2025-3-7 0:3:23.517	WT901BLE68-01(48591DE3C19B)	5.902	6.690	5.634	209.961	1101.990	387.512	-41.98	-79.63	-45.63	-62.622	-50.274	62.818	0.68710	-0.06332	-0.31827	-0.64996	29.9	13111	100
2025-3-7 0:3:23.518	WT901BLE68-01(48591DE3C19B)	6.697	6.690	5.634	209.961	1101.990	387.512	-28.27	-68.29	-57.85	-62.622	-50.274	62.818	0.68710	-0.06332	-0.31827	-0.64996	29.9	13111	100
2025-3-7 0:3:23.548	WT901BLE68-01(48591DE3C19B)	6.697	6.176	1.821	289.429	863.525	-270.874	-13.26	-61.13	-71.41	-62.622	-50.274	62.818	0.68710	-0.06332	-0.31827	-0.64996	29.9	13111	100
2025-3-7 0:3:23.548	WT901BLE68-01(48591DE3C19B)	6.017	6.176	1.821	289.429	863.525	-270.874	-4.07	-53.02	-79.08	-62.622	-50.274	62.818	0.68710	-0.06332	-0.31827	-0.64996	29.9	13111	100
2025-3-7 0:3:23.548	WT901BLE68-01(48591DE3C19B)	6.017	3.351	0.934	605.103	617.188	-591.431	8.75	-46.67	-88.13	-62.622	-50.274	62.818	0.68710	-0.06332	-0.31827	-0.64996	29.9	13111	100
2025-3-7 0:3:23.548	WT901BLE68-01(48591DE3C19B)	6.204	3.351	0.934	605.103	617.188	-591.431	18.79	-39.36	-94.20	-62.622	-50.274	62.818	0.68710	-0.06332	-0.31827	-0.64996	29.9	13111	100
2025-3-7 0:3:23.578	WT901BLE68-01(48591DE3C19B)	6.204	0.629	-1.378	575.378	358.948	-861.267	29.16	-32.72	-102.33	-62.622	-50.274	62.818	0.68710	-0.06332	-0.31827	-0.64996	29.9	13111	100
2025-3-7 0:3:23.578	WT901BLE68-01(48591DE3C19B)	5.839	0.629	-1.378	575.378	358.948	-861.267	37.70	-25.17	-108.46	-62.622	-50.274	62.818	0.68710	-0.06332	-0.31827	-0.64996	29.9	13111	100
2025-3-7 0:3:23.578	WT901BLE68-01(48591DE3C19B)	5.839	-4.022	-5.312	214.600	-418.701	-778.320	43.62	-23.52	-118.09	-62.622	-50.274	62.818	0.49893	0.02847	-0.42468	-0.75485	29.9	13111	100
2025-3-7 0:3:23.578	WT901BLE68-01(48591DE3C19B)	1.432	-4.022	-5.312	214.600	-418.701	-778.320	49.05	-21.06	-127.32	-62.622	-50.274	62.818	0.49893	0.02847	-0.42468	-0.75485	29.9	13111	100
2025-3-7 0:3:23.636	WT901BLE68-01(48591DE3C19B)	1.432	-9.502	-3.484	222.900	-1297.302	-179.016	56.28	-27.84	-139.95	-62.622	-50.274	62.818	0.49893	0.02847	-0.42468	-0.75485	29.9	13111	100
2025-3-7 0:3:23.636	WT901BLE68-01(48591DE3C19B)	1.517	-9.502	-3.484	222.900	-1297.302	-179.016	65.46	-32.95	-154.16	-62.622	-50.274	62.818	0.49893	0.02847	-0.42468	-0.75485	29.9	13111	100
2025-3-7 0:3:23.636	WT901BLE68-01(48591DE3C19B)	1.517	-8.042	1.142	649.231	-1319.153	843.750	79.94	-45.30	-167.16	-62.622	-50.274	62.818	0.49893	0.02847	-0.42468	-0.75485	29.9	13111	100
2025-3-7 0:3:23.636	WT901BLE68-01(48591DE3C19B)	3.070	-8.042	1.142	649.231	-1319.153	843.750	101.95	-53.95	172.24	-62.622	-50.274	62.818	0.49893	0.02847	-0.42468	-0.75485	29.9	13111	100
2025-3-7 0:3:23.665	WT901BLE68-01(48591DE3C19B)	3.070	0.233	9.449	278.687	-514.709	1171.448	119.23	-63.50	155.02	-62.622	-50.274	62.818	0.49893	0.02847	-0.42468	-0.75485	29.9	13111	100
2025-3-7 0:3:23.665	WT901BLE68-01(48591DE3C19B)	2.747	0.233	9.449	278.687	-514.709	1171.448	148.83	-68.81	125.54	-62.622	-50.274	62.818	0.49893	0.02847	-0.42468	-0.75485	29.9	13111	100
2025-3-7 0:3:23.665	WT901BLE68-01(48591DE3C19B)	5.412	5.075	10.852	8.423	664.307	695.923	160.10	-78.13	113.63	-62.622	-50.274	62.818	0.49893	0.02847	-0.42468	-0.75485	29.9	13111	100
2025-3-7 0:3:23.665	WT901BLE68-01(48591DE3C19B)	5.412	6.134	5.816	79.041	1073.914	196.594	-169.76	-87.76	83.42	-62.622	-50.274	62.818	0.49893	0.02847	-0.42468	-0.75485	29.9	13111	100
2025-3-7 0:3:23.698	WT901BLE68-01(48591DE3C19B)	6.986	6.134	5.816	79.041	1073.914	196.594	-14.43	-80.97	-71.41	-62.622	-50.274	62.818	0.49893	0.02847	-0.42468	-0.75485	29.9	13111	100
2025-3-7 0:3:23.698	WT901BLE68-01(48591DE3C19B)	6.986	4.990	2.344	213.806	956.421	-279.846	-4.26	-70.87	-80.66	-62.622	-50.274	62.818	0.49893	0.02847	-0.42468	-0.75485	29.9	13111	100
2025-3-7 0:3:23.698	WT901BLE68-01(48591DE3C19B)	7.228	4.990	2.344	213.806	956.421	-279.846	4.34	-61.24	-87.91	-62.622	-50.274	62.818	0.49893	0.02847	-0.42468	-0.75485	29.9	13111	100
2025-3-7 0:3:23.698	WT901BLE68-01(48591DE3C19B)	7.228	2.186	0.109	421.814	804.932	-579.224	12.12	-51.91	-93.70	-62.622	-50.274	62.818	0.49893	0.02847	-0.42468	-0.75485	29.9	13111	100
2025-3-7 0:3:23.758	WT901BLE68-01(48591DE3C19B)	6.617	2.186	0.109	421.814	804.932	-579.224	19.96	-42.64	-98.84	-62.622	-50.274	62.818	0.49893	0.02847	-0.42468	-0.75485	29.9	13111	100
2025-3-7 0:3:23.758	WT901BLE68-01(48591DE3C19B)	6.617	-0.460	-3.769	356.201	506.287	-733.643	26.47	-34.14	-103.44	-62.622	-50.274	62.818	0.49893	0.02847	-0.42468	-0.75485	29.9	13111	100
2025-3-7 0:3:23.758	WT901BLE68-01(48591DE3C19B)	4.897	-0.460	-3.769	356.201	506.287	-733.643	32.21	-26.34	-108.14	-62.622	-50.274	62.818	0.49893	0.02847	-0.42468	-0.75485	29.9	13111	100
2025-3-7 0:3:23.758	WT901BLE68-01(48591DE3C19B)	4.897	-2.099	-6.934	360.291	-297.119	-555.603	37.69	-22.03	-113.51	-62.622	-50.274	62.818	0.49893	0.02847	-0.42468	-0.75485	29.9	13111	100
2025-3-7 0:3:23.787	WT901BLE68-01(48591DE3C19B)	3.157	-2.099	-6.934	360.291	-297.119	-555.603	43.57	-20.98	-120.31	-62.622	-50.274	62.818	0.49893	0.02847	-0.42468	-0.75485	29.9	13111	100
2025-3-7 0:3:23.788	WT901BLE68-01(48591DE3C19B)	3.157	-6.465	-3.728	243.286	-1437.500	-224.976	50.05	-24.36	-130.30	-62.622	-50.274	62.818	0.49893	0.02847	-0.42468	-0.75485	29.9	13111	100
2025-3-7 0:3:23.788	WT901BLE68-01(48591DE3C19B)	1.948	-6.465	-3.728	243.286	-1437.500	-224.976	59.19	-31.21	-145.16	-62.622	-50.274	62.818	0.49893	0.02847	-0.42468	-0.75485	29.9	13111	100
2025-3-7 0:3:23.788	WT901BLE68-01(48591DE3C19B)	1.948	-9.219	3.640	634.705	-1580.933	778.259	72.23	-40.46	-160.83	-49.098	-48.706	57.820	0.49893	0.02847	-0.42468	-0.75485	29.9	13111	100
2025-3-7 0:3:23.818	WT901BLE68-01(48591DE3C19B)	3.145	-9.219	3.640	634.705	-1580.933	778.259	93.47	-50.58	178.12	-49.098	-48.706	57.820	0.49893	0.02847	-0.42468	-0.75485	29.9	13111	100
2025-3-7 0:3:23.818	WT901BLE68-01(48591DE3C19B)	3.145	-0.016	12.879	197.266	-380.005	1200.012	113.88	-58.27	157.46	-49.098	-48.706	57.820	0.49893	0.02847	-0.42468	-0.75485	29.9	13111	100
2025-3-7 0:3:23.818	WT901BLE68-01(48591DE3C19B)	3.664	-0.016	12.879	197.266	-380.005	1200.012	134.57	-66.47	136.13	-49.098	-48.706	57.820	0.49893	0.02847	-0.42468	-0.75485	29.9	13111	100
2025-3-7 0:3:23.819	WT901BLE68-01(48591DE3C19B)	3.664	5.204	11.172	57.617	899.841	746.582	153.33	-74.70	117.06	-49.098	-48.706	57.820	0.49893	0.02847	-0.42468	-0.75485	29.9	13111	100
2025-3-7 0:3:23.876	WT901BLE68-01(48591DE3C19B)	6.133	5.204	11.172	57.617	899.841	746.582	-171.96	-85.54	82.35	-49.098	-48.706	57.820	0.49893	0.02847	-0.42468	-0.75485	29.9	13111	100
2025-3-7 0:3:23.876	WT901BLE68-01(48591DE3C19B)	6.133	5.509	4.656	221.191	1174.072	178.345	-39.24	-81.91	-49.57	-49.098	-48.706	57.820	0.49893	0.02847	-0.42468	-0.75485	29.9	13111	100
2025-3-7 0:3:23.876	WT901BLE68-01(48591DE3C19B)	7.013	5.509	4.656	221.191	1174.072	178.345	-19.20	-70.58	-68.02	-49.098	-48.706	57.820	0.49893	0.02847	-0.42468	-0.75485	29.9	13111	100
2025-3-7 0:3:23.876	WT901BLE68-01(48591DE3C19B)	7.013	4.013	2.031	479.553	977.173	-289.368	-8.54	-60.20	-76.16	-49.098	-48.706	57.820	0.49893	0.02847	-0.42468	-0.75485	29.9	13111	100
2025-3-7 0:3:23.905	WT901BLE68-01(48591DE3C19B)	7.430	4.013	2.031	479.553	977.173	-289.368	1.43	-50.63	-82.63	-49.098	-48.706	57.820	0.49893	0.02847	-0.42468	-0.75485	29.9	13111	100
2025-3-7 0:3:23.905	WT901BLE68-01(48591DE3C19B)	7.430	2.113	0.139	661.560	777.283	-608.826	10.81	-41.46	-88.04	-49.098	-48.706	57.820	0.49893	0.02847	-0.42468	-0.75485	29.9	13111	100
2025-3-7 0:3:23.905	WT901BLE68-01(48591DE3C19B)	7.708	2.113	0.139	661.560	777.283	-608.826	20.24	-32.47	-92.99	-49.098	-48.706	57.820	0.49893	0.02847	-0.42468	-0.75485	29.9	13111	100
2025-3-7 0:3:23.905	WT901BLE68-01(48591DE3C19B)	7.708	-0.181	-3.645	570.740	370.361	-869.995	28.58	-24.31	-98.17	-49.098	-48.706	57.820	0.49893	0.02847	-0.42468	-0.75485	29.9	13111	100
2025-3-7 0:3:23.968	WT901BLE68-01(48591DE3C19B)	6.493	-0.181	-3.645	570.740	370.361	-869.995	36.17	-16.77	-104.08	-49.098	-48.706	57.820	0.49893	0.02847	-0.42468	-0.75485	29.9	13111	100
2025-3-7 0:3:23.968	WT901BLE68-01(48591DE3C19B)	6.493	-3.273	-6.100	354.797	-658.386	-606.934	42.26	-13.43	-111.21	-49.098	-48.706	57.820	0.49893	0.02847	-0.42468	-0.75485	29.9	13111	100
2025-3-7 0:3:23.968	WT901BLE68-01(48591DE3C19B)	4.259	-3.273	-6.100	354.797	-658.386	-606.934	47.82	-14.12	-120.61	-49.098	-48.706	57.820	0.49893	0.02847	-0.42468	-0.75485	29.9	13111	100
2025-3-7 0:3:23.968	WT901BLE68-01(48591DE3C19B)	4.259	-7.874	-1.316	374.084	-1851.685	-207.520	54.78	-19.10	-133.71	-49.098	-48.706	57.820	0.49893	0.02847	-0.42468	-0.75485	29.9	13111	100
2025-3-7 0:3:23.999	WT901BLE68-01(48591DE3C19B)	2.333	-7.874	-1.316	374.084	-1851.685	-207.520	65.63	-26.89	-152.36	-49.098	-48.706	57.820	0.49893	0.02847	-0.42468	-0.75485	29.9	13111	100
2025-3-7 0:3:23.999	WT901BLE68-01(48591DE3C19B)	2.333	-7.658	4.947	910.034	-1446.838	846.252	80.47	-35.42	-169.76	-49.098	-48.706	57.820	0.49893	0.02847	-0.42468	-0.75485	29.9	13111	100
2025-3-7 0:3:23.999	WT901BLE68-01(48591DE3C19B)	2.803	-7.658	4.947	910.034	-1446.838	846.252	101.57	-44.02	171.23	-49.098	-48.706	57.820	0.49893	0.02847	-0.42468	-0.75485	29.9	13111	100
2025-3-7 0:3:23.999	WT901BLE68-01(48591DE3C19B)	2.803	2.401	11.944	270.569	-182.983	1114.319	119.12	-50.75	154.66	-49.098	-48.706	57.820	0.49893	0.02847	-0.42468	-0.75485	29.9	13111	100
2025-3-7 0:3:24.28	WT901BLE68-01(48591DE3C19B)	2.851	2.401	11.944	270.569	-182.983	1114.319	132.97	-59.04	140.74	-49.098	-48.706	57.820	0.33224	-0.48630	-0.66946	-0.45258	29.9	13111	100
2025-3-7 0:3:24.28	WT901BLE68-01(48591DE3C19B)	2.851	5.392	10.388	4.944	866.150	524.780	141.05	-67.43	132.69	-49.098	-48.706	57.820	0.33224	-0.48630	-0.66946	-0.45258	29.9	13111	100
2025-3-7 0:3:24.28	WT901BLE68-01(48591DE3C19B)	5.165	5.392	10.388	4.944	866.150	524.780	134.08	-77.61	139.75	-49.098	-48.706	57.820	0.33224	-0.48630	-0.66946	-0.45258	29.9	13111	100
2025-3-7 0:3:24.28	WT901BLE68-01(48591DE3C19B)	5.165	4.216	4.489	186.035	1172.913	125.427	73.25	-84.08	-158.25	-49.098	-48.706	57.820	0.33224	-0.48630	-0.66946	-0.45258	29.9	13111	100
2025-3-7 0:3:24.57	WT901BLE68-01(48591DE3C19B)	6.386	4.216	4.489	186.035	1172.913	125.427	19.59	-75.76	-102.34	-49.098	-48.706	57.820	0.33224	-0.48630	-0.66946	-0.45258	29.9	13111	100
2025-3-7 0:3:24.57	WT901BLE68-01(48591DE3C19B)	6.386	3.969	1.132	176.514	968.262	-202.881	13.74	-65.23	-94.55	-49.098	-48.706	57.820	0.33224	-0.48630	-0.66946	-0.45258	29.9	13111	100
2025-3-7 0:3:24.58	WT901BLE68-01(48591DE3C19B)	6.511	3.969	1.132	176.514	968.262	-202.881	14.80	-55.30	-93.97	-49.098	-48.706	57.820	0.33224	-0.48630	-0.66946	-0.45258	29.9	13111	100
2025-3-7 0:3:24.58	WT901BLE68-01(48591DE3C19B)	6.511	2.829	-1.325	363.464	667.175	-438.538	18.41	-46.55	-95.44	-49.098	-48.706	57.820	0.33224	-0.48630	-0.66946	-0.45258	29.9	13111	100
2025-3-7 0:3:24.116	WT901BLE68-01(48591DE3C19B)	5.846	2.829	-1.325	363.464	667.175	-438.538	23.59	-38.84	-97.97	-49.098	-48.706	57.820	0.33224	-0.48630	-0.66946	-0.45258	29.9	13111	100
2025-3-7 0:3:24.116	WT901BLE68-01(48591DE3C19B)	5.846	0.318	-4.176	374.634	222.595	-637.207	29.21	-32.58	-101.70	-49.098	-48.706	57.820	0.33224	-0.48630	-0.66946	-0.45258	29.9	13111	100
2025-3-7 0:3:24.116	WT901BLE68-01(48591DE3C19B)	4.497	0.318	-4.176	374.634	222.595	-637.207	35.29	-27.50	-106.74	-49.098	-48.706	57.820	0.33224	-0.48630	-0.66946	-0.45258	29.9	13111	100
2025-3-7 0:3:24.116	WT901BLE68-01(48591DE3C19B)	4.497	-2.186	-5.768	366.943	-435.791	-534.973	41.41	-24.92	-112.84	-49.098	-48.706	57.820	0.33224	-0.48630	-0.66946	-0.45258	29.9	13111	100
2025-3-7 0:3:24.145	WT901BLE68-01(48591DE3C19B)	3.223	-2.186	-5.768	366.943	-435.791	-534.973	48.11	-24.53	-120.57	-49.098	-48.706	57.820	0.33224	-0.48630	-0.66946	-0.45258	29.9	13111	100
2025-3-7 0:3:24.145	WT901BLE68-01(48591DE3C19B)	3.223	-7.245	-2.847	263.672	-1521.912	-96.008	55.79	-28.33	-131.61	-49.098	-48.706	57.820	0.33224	-0.48630	-0.66946	-0.45258	29.9	13111	100
2025-3-7 0:3:24.145	WT901BLE68-01(48591DE3C19B)	2.272	-7.245	-2.847	263.672	-1521.912	-96.008	66.83	-35.14	-147.97	-49.098	-48.706	57.820	0.33224	-0.48630	-0.66946	-0.45258	29.9	13111	100
2025-3-7 0:3:24.145	WT901BLE68-01(48591DE3C19B)	2.272	-7.396	4.318	572.083	-1430.237	825.317	82.57	-47.21	-163.47	-49.098	-48.706	57.820	0.33224	-0.48630	-0.66946	-0.45258	29.9	13111	100
2025-3-7 0:3:24.176	WT901BLE68-01(48591DE3C19B)	3.642	-7.396	4.318	572.083	-1430.237	825.317	106.57	-54.69	172.79	-49.098	-48.706	57.820	0.33224	-0.48630	-0.66946	-0.45258	29.9	13111	100
2025-3-7 0:3:24.176	WT901BLE68-01(48591DE3C19B)	3.642	0.503	10.646	176.514	-437.744	1170.471	123.01	-63.83	155.44	-49.098	-48.706	57.820	0.33224	-0.48630	-0.66946	-0.45258	29.9	13111	100
2025-3-7 0:3:24.176	WT901BLE68-01(48591DE3C19B)	3.161	0.503	10.646	176.514	-437.744	1170.471	151.12	-68.99	126.50	-49.098	-48.706	57.820	0.33224	-0.48630	-0.66946	-0.45258	29.9	13111	100
2025-3-7 0:3:24.176	WT901BLE68-01(48591DE3C19B)	3.161	5.127	11.521	-51.758	686.951	710.022	163.45	-78.39	112.88	-49.098	-48.706	57.820	0.33224	-0.48630	-0.66946	-0.45258	29.9	13111	100
2025-3-7 0:3:24.235	WT901BLE68-01(48591DE3C19B)	5.260	5.127	11.521	-51.758	686.951	710.022	-138.07	-84.64	53.16	-49.098	-48.706	57.820	0.33224	-0.48630	-0.66946	-0.45258	29.9	13111	100
2025-3-7 0:3:24.235	WT901BLE68-01(48591DE3C19B)	5.260	5.320	5.268	151.733	1117.493	236.877	-37.65	-80.54	-46.38	-50.176	-55.272	53.900	0.33224	-0.48630	-0.66946	-0.45258	29.9	13111	100
2025-3-7 0:3:24.235	WT901BLE68-01(48591DE3C19B)	6.510	5.320	5.268	151.733	1117.493	236.877	-22.16	-69.54	-60.97	-50.176	-55.272	53.900	0.33224	-0.48630	-0.66946	-0.45258	29.9	13111	100
2025-3-7 0:3:24.235	WT901BLE68-01(48591DE3C19B)	6.510	4.486	2.626	375.488	1060.181	-245.911	-7.32	-59.85	-73.37	-50.176	-55.272	53.900	0.33224	-0.48630	-0.66946	-0.45258	29.9	13111	100
2025-3-7 0:3:24.264	WT901BLE68-01(48591DE3C19B)	7.422	4.486	2.626	375.488	1060.181	-245.911	0.90	-49.42	-79.00	-50.176	-55.272	53.900	0.33224	-0.48630	-0.66946	-0.45258	29.9	13111	100
2025-3-7 0:3:24.265	WT901BLE68-01(48591DE3C19B)	7.422	2.151	0.618	623.474	953.186	-567.261	11.68	-39.39	-85.70	-50.176	-55.272	53.900	0.33224	-0.48630	-0.66946	-0.45258	29.9	13111	100
2025-3-7 0:3:24.265	WT901BLE68-01(48591DE3C19B)	7.541	2.151	0.618	623.474	953.186	-567.261	19.84	-28.82	-89.41	-50.176	-55.272	53.900	0.33224	-0.48630	-0.66946	-0.45258	29.9	13111	100
2025-3-7 0:3:24.265	WT901BLE68-01(48591DE3C19B)	7.541	0.200	-3.334	557.373	569.702	-793.152	27.63	-20.61	-95.09	-50.176	-55.272	53.900	0.33224	-0.48630	-0.66946	-0.45258	29.9	13111	100
2025-3-7 0:3:24.299	WT901BLE68-01(48591DE3C19B)	6.241	0.200	-3.334	557.373	569.702	-793.152	34.21	-11.92	-99.34	-50.176	-55.272	53.900	0.33224	-0.48630	-0.66946	-0.45258	29.9	13111	100
2025-3-7 0:3:24.299	WT901BLE68-01(48591DE3C19B)	6.241	-2.905	-6.599	254.272	-448.181	-616.760	38.22	-12.19	-107.34	-50.176	-55.272	53.900	0.33224	-0.48630	-0.66946	-0.45258	29.9	13111	100
2025-3-7 0:3:24.299	WT901BLE68-01(48591DE3C19B)	4.160	-2.905	-6.599	254.272	-448.181	-616.760	42.23	-11.98	-115.31	-50.176	-55.272	53.900	0.33224	-0.48630	-0.66946	-0.45258	29.9	13111	100
2025-3-7 0:3:24.299	WT901BLE68-01(48591DE3C19B)	4.160	-6.897	-3.540	258.423	-1648.254	-196.594	48.73	-22.51	-129.19	-50.176	-55.272	53.900	0.33224	-0.48630	-0.66946	-0.45258	29.9	13111	100
2025-3-7 0:3:24.358	WT901BLE68-01(48591DE3C19B)	2.102	-6.897	-3.540	258.423	-1648.254	-196.594	58.45	-31.09	-145.45	-50.176	-55.272	53.900	0.33224	-0.48630	-0.66946	-0.45258	29.9	13111	100
2025-3-7 0:3:24.358	WT901BLE68-01(48591DE3C19B)	2.102	-8.655	3.334	665.344	-1513.489	783.875	73.21	-44.77	-158.92	-50.176	-55.272	53.900	0.33224	-0.48630	-0.66946	-0.45258	29.9	13111	100
2025-3-7 0:3:24.358	WT901BLE68-01(48591DE3C19B)	2.610	-8.655	3.334	665.344	-1513.489	783.875	96.61	-54.34	178.90	-50.176	-55.272	53.900	0.33224	-0.48630	-0.66946	-0.45258	29.9	13111	100
2025-3-7 0:3:24.358	WT901BLE68-01(48591DE3C19B)	2.610	0.402	12.137	149.841	-468.506	1123.291	109.89	-64.52	164.94	-50.176	-55.272	53.900	0.33224	-0.48630	-0.66946	-0.45258	29.9	13111	100
2025-3-7 0:3:24.388	WT901BLE68-01(48591DE3C19B)	3.234	0.402	12.137	149.841	-468.506	1123.291	136.24	-71.80	137.97	-50.176	-55.272	53.900	0.33224	-0.48630	-0.66946	-0.45258	29.9	13111	100
2025-3-7 0:3:24.388	WT901BLE68-01(48591DE3C19B)	3.234	5.071	11.264	69.885	829.102	689.575	130.24	-82.72	144.54	-50.176	-55.272	53.900	0.33224	-0.48630	-0.66946	-0.45258	29.9	13111	100
2025-3-7 0:3:24.388	WT901BLE68-01(48591DE3C19B)	5.678	5.071	11.264	69.885	829.102	689.575	-18.77	-85.98	-65.86	-50.176	-55.272	53.900	0.33224	-0.48630	-0.66946	-0.45258	29.9	13111	100
2025-3-7 0:3:24.388	WT901BLE68-01(48591DE3C19B)	5.678	5.363	4.625	205.688	1177.673	147.095	-8.42	-74.02	-74.45	-50.176	-55.272	53.900	0.60730	-0.40988	-0.44250	-0.51697	29.9	13111	100
2025-3-7 0:3:24.417	WT901BLE68-01(48591DE3C19B)	6.836	5.363	4.625	205.688	1177.673	147.095	-6.05	-62.08	-75.00	-50.176	-55.272	53.900	0.60730	-0.40988	-0.44250	-0.51697	29.9	13111	100
2025-3-7 0:3:24.417	WT901BLE68-01(48591DE3C19B)	6.836	5.321	1.214	441.223	946.716	-302.734	3.53	-52.67	-81.34	-50.176	-55.272	53.900	0.60730	-0.40988	-0.44250	-0.51697	29.9	13111	100
2025-3-7 0:3:24.417	WT901BLE68-01(48591DE3C19B)	7.026	5.321	1.214	441.223	946.716	-302.734	10.07	-42.96	-84.42	-50.176	-55.272	53.900	0.60730	-0.40988	-0.44250	-0.51697	29.9	13111	100
2025-3-7 0:3:24.417	WT901BLE68-01(48591DE3C19B)	7.026	2.731	-0.986	674.744	651.367	-660.645	20.57	-35.04	-90.64	-50.176	-55.272	53.900	0.60730	-0.40988	-0.44250	-0.51697	29.9	13111	100
2025-3-7 0:3:24.476	WT901BLE68-01(48591DE3C19B)	6.751	2.731	-0.986	674.744	651.367	-660.645	29.20	-26.52	-94.65	-50.176	-55.272	53.900	0.60730	-0.40988	-0.44250	-0.51697	29.9	13111	100
2025-3-7 0:3:24.476	WT901BLE68-01(48591DE3C19B)	6.751	-1.540	-4.071	463.989	22.827	-802.979	36.72	-22.16	-102.11	-50.176	-55.272	53.900	0.60730	-0.40988	-0.44250	-0.51697	29.9	13111	100
2025-3-7 0:3:24.476	WT901BLE68-01(48591DE3C19B)	5.169	-1.540	-4.071	463.989	22.827	-802.979	43.35	-17.08	-108.67	-50.176	-55.272	53.900	0.60730	-0.40988	-0.44250	-0.51697	29.9	13111	100
2025-3-7 0:3:24.476	WT901BLE68-01(48591DE3C19B)	5.169	-6.308	-6.412	-54.138	-1136.719	-476.868	46.70	-22.05	-120.95	-50.176	-55.272	53.900	0.60730	-0.40988	-0.44250	-0.51697	29.9	13111	100
2025-3-7 0:3:24.505	WT901BLE68-01(48591DE3C19B)	0.322	-6.308	-6.412	-54.138	-1136.719	-476.868	51.23	-26.25	-133.91	-50.176	-55.272	53.900	0.60730	-0.40988	-0.44250	-0.51697	29.9	13111	100
2025-3-7 0:3:24.505	WT901BLE68-01(48591DE3C19B)	0.322	-9.960	1.078	522.644	-1588.989	432.922	63.33	-38.81	-147.04	-50.176	-55.272	53.900	0.60730	-0.40988	-0.44250	-0.51697	29.9	13111	100
2025-3-7 0:3:24.505	WT901BLE68-01(48591DE3C19B)	1.214	-9.960	1.078	522.644	-1588.989	432.922	81.49	-48.13	-166.11	-50.176	-55.272	53.900	0.60730	-0.40988	-0.44250	-0.51697	29.9	13111	100
2025-3-7 0:3:24.505	WT901BLE68-01(48591DE3C19B)	1.214	-3.711	9.766	175.476	-721.313	1038.574	91.89	-59.22	-177.17	-50.176	-55.272	53.900	0.60730	-0.40988	-0.44250	-0.51697	29.9	13111	100
2025-3-7 0:3:24.538	WT901BLE68-01(48591DE3C19B)	1.572	-3.711	9.766	175.476	-721.313	1038.574	111.94	-68.27	162.21	-50.176	-55.272	53.900	0.60730	-0.40988	-0.44250	-0.51697	29.9	13111	100
2025-3-7 0:3:24.538	WT901BLE68-01(48591DE3C19B)	1.572	2.865	12.048	-37.720	581.238	813.110	99.51	-77.92	174.46	-50.176	-55.272	53.900	0.60730	-0.40988	-0.44250	-0.51697	29.9	13111	100
2025-3-7 0:3:24.538	WT901BLE68-01(48591DE3C19B)	4.605	2.865	12.048	-37.720	581.238	813.110	42.42	-84.44	-128.59	-50.176	-55.272	53.900	0.60730	-0.40988	-0.44250	-0.51697	29.9	13111	100
2025-3-7 0:3:24.538	WT901BLE68-01(48591DE3C19B)	4.605	4.709	5.785	133.057	1072.754	408.325	-0.16	-75.01	-84.39	-50.176	-55.272	53.900	0.60730	-0.40988	-0.44250	-0.51697	29.9	13111	100
2025-3-7 0:3:24.598	WT901BLE68-01(48591DE3C19B)	6.736	4.709	5.785	133.057	1072.754	408.325	-7.62	-63.86	-75.27	-50.176	-55.272	53.900	0.60730	-0.40988	-0.44250	-0.51697	29.9	13111	100
2025-3-7 0:3:24.598	WT901BLE68-01(48591DE3C19B)	6.736	5.928	1.425	279.480	950.989	-50.476	-2.47	-54.38	-78.22	-50.176	-55.272	53.900	0.60730	-0.40988	-0.44250	-0.51697	29.9	13111	100
2025-3-7 0:3:24.598	WT901BLE68-01(48591DE3C19B)	6.844	5.928	1.425	279.480	950.989	-50.476	1.11	-44.90	-79.47	-50.176	-55.272	53.900	0.60730	-0.40988	-0.44250	-0.51697	29.9	13111	100
2025-3-7 0:3:24.598	WT901BLE68-01(48591DE3C19B)	6.179	4.551	-1.398	587.219	538.574	-495.056	10.93	-39.10	-85.59	-50.176	-55.272	53.900	0.60730	-0.40988	-0.44250	-0.51697	29.9	13111	100
2025-3-7 0:3:24.625	WT901BLE68-01(48591DE3C19B)	6.179	0.448	-3.534	612.366	13.000	-760.254	20.83	-34.80	-92.50	-63.308	-52.038	61.740	0.60730	-0.40988	-0.44250	-0.51697	29.9	13111	100
2025-3-7 0:3:24.625	WT901BLE68-01(48591DE3C19B)	5.774	0.448	-3.534	612.366	13.000	-760.254	31.31	-31.51	-100.79	-63.308	-52.038	61.740	0.60730	-0.40988	-0.44250	-0.51697	29.9	13111	100
2025-3-7 0:3:24.626	WT901BLE68-01(48591DE3C19B)	5.774	-4.246	-5.343	102.661	-1038.513	-595.886	39.88	-31.80	-111.03	-63.308	-52.038	61.740	0.60730	-0.40988	-0.44250	-0.51697	29.9	13111	100
2025-3-7 0:3:24.626	WT901BLE68-01(48591DE3C19B)	1.431	-4.246	-5.343	102.661	-1038.513	-595.886	48.43	-35.34	-125.00	-63.308	-52.038	61.740	0.60730	-0.40988	-0.44250	-0.51697	29.9	13111	100
2025-3-7 0:3:24.686	WT901BLE68-01(48591DE3C19B)	1.431	-10.892	3.055	393.860	-1739.563	131.104	60.63	-41.86	-141.31	-63.308	-52.038	61.740	0.60730	-0.40988	-0.44250	-0.51697	29.9	13111	100
2025-3-7 0:3:24.686	WT901BLE68-01(48591DE3C19B)	0.653	-10.892	3.055	393.860	-1739.563	131.104	80.72	-49.19	-164.14	-63.308	-52.038	61.740	0.60730	-0.40988	-0.44250	-0.51697	29.9	13111	100
2025-3-7 0:3:24.686	WT901BLE68-01(48591DE3C19B)	0.653	-4.823	9.592	282.410	-686.218	986.938	99.17	-55.18	176.04	-63.308	-52.038	61.740	0.60730	-0.40988	-0.44250	-0.51697	29.9	13111	100
2025-3-7 0:3:24.686	WT901BLE68-01(48591DE3C19B)	0.877	-4.823	9.592	282.410	-686.218	986.938	117.65	-62.74	157.51	-63.308	-52.038	61.740	0.60730	-0.40988	-0.44250	-0.51697	29.9	13111	100
2025-3-7 0:3:24.715	WT901BLE68-01(48591DE3C19B)	0.877	2.330	11.763	-110.474	504.272	817.444	131.31	-69.98	143.01	-63.308	-52.038	61.740	0.60730	-0.40988	-0.44250	-0.51697	29.9	13111	100
2025-3-7 0:3:24.715	WT901BLE68-01(48591DE3C19B)	3.672	2.330	11.763	-110.474	504.272	817.444	137.05	-79.66	135.67	-63.308	-52.038	61.740	0.60730	-0.40988	-0.44250	-0.51697	29.9	13111	100
2025-3-7 0:3:24.715	WT901BLE68-01(48591DE3C19B)	3.672	2.792	5.077	34.241	1021.301	469.360	57.93	-89.18	-145.88	-63.308	-52.038	61.740	0.60730	-0.40988	-0.44250	-0.51697	29.9	13111	100
2025-3-7 0:3:24.715	WT901BLE68-01(48591DE3C19B)	5.141	2.792	5.077	34.241	1021.301	469.360	-19.75	-78.40	-67.99	-63.308	-52.038	61.740	0.60730	-0.40988	-0.44250	-0.51697	29.9	13111	100
2025-3-7 0:3:24.745	WT901BLE68-01(48591DE3C19B)	5.141	3.195	1.469	83.679	921.021	214.905	-18.81	-67.96	-68.60	-63.308	-52.038	61.740	0.60730	-0.40988	-0.44250	-0.51697	29.9	13111	100
2025-3-7 0:3:24.746	WT901BLE68-01(48591DE3C19B)	5.184	3.195	1.469	83.679	921.021	214.905	-16.31	-58.45	-70.66	-63.308	-52.038	61.740	0.60730	-0.40988	-0.44250	-0.51697	29.9	13111	100
2025-3-7 0:3:24.746	WT901BLE68-01(48591DE3C19B)	5.184	4.048	-0.309	263.672	578.857	-76.904	-12.70	-51.00	-73.19	-63.308	-52.038	61.740	0.60730	-0.40988	-0.44250	-0.51697	29.9	13111	100
2025-3-7 0:3:24.746	WT901BLE68-01(48591DE3C19B)	4.388	4.048	-0.309	263.672	578.857	-76.904	-7.97	-45.48	-76.18	-63.308	-52.038	61.740	0.60730	-0.40988	-0.44250	-0.51697	29.9	13111	100
2025-3-7 0:3:24.836	WT901BLE68-01(48591DE3C19B)	4.388	2.336	-1.500	390.625	328.796	-420.044	-1.94	-41.25	-80.45	-63.308	-52.038	61.740	0.60730	-0.40988	-0.44250	-0.51697	29.9	13111	100
2025-3-7 0:3:24.836	WT901BLE68-01(48591DE3C19B)	3.791	2.336	-1.500	390.625	328.796	-420.044	5.37	-37.95	-86.01	-63.308	-52.038	61.740	0.60730	-0.40988	-0.44250	-0.51697	29.9	13111	100
2025-3-7 0:3:24.837	WT901BLE68-01(48591DE3C19B)	3.791	-0.004	-3.906	352.173	19.836	-590.454	12.57	-35.57	-92.15	-63.308	-52.038	61.740	0.60730	-0.40988	-0.44250	-0.51697	29.9	13111	100
2025-3-7 0:3:24.837	WT901BLE68-01(48591DE3C19B)	3.571	-0.004	-3.906	352.173	19.836	-590.454	19.95	-33.92	-99.18	-63.308	-52.038	61.740	0.60730	-0.40988	-0.44250	-0.51697	29.9	13111	100
2025-3-7 0:3:24.838	WT901BLE68-01(48591DE3C19B)	3.571	-1.554	-4.618	317.993	-636.902	-453.979	27.30	-34.87	-106.72	-63.308	-52.038	61.740	0.58667	-0.10452	-0.38287	-0.70581	29.9	13111	100
2025-3-7 0:3:24.838	WT901BLE68-01(48591DE3C19B)	4.489	-1.554	-4.618	317.993	-636.902	-453.979	35.72	-38.17	-115.85	-63.308	-52.038	61.740	0.58667	-0.10452	-0.38287	-0.70581	29.9	13111	100
2025-3-7 0:3:24.838	WT901BLE68-01(48591DE3C19B)	4.489	-4.160	0.169	246.155	-1568.726	-105.835	46.65	-44.85	-128.60	-63.308	-52.038	61.740	0.58667	-0.10452	-0.38287	-0.70581	29.9	13111	100
2025-3-7 0:3:24.838	WT901BLE68-01(48591DE3C19B)	0.399	-4.160	0.169	246.155	-1568.726	-105.835	64.64	-53.14	-149.38	-63.308	-52.038	61.740	0.58667	-0.10452	-0.38287	-0.70581	29.9	13111	100
2025-3-7 0:3:24.867	WT901BLE68-01(48591DE3C19B)	0.399	-5.265	10.235	303.406	-1204.346	429.138	86.32	-58.50	-172.68	-63.308	-52.038	61.740	0.58667	-0.10452	-0.38287	-0.70581	29.9	13111	100
2025-3-7 0:3:24.867	WT901BLE68-01(48591DE3C19B)	-0.749	-5.265	10.235	303.406	-1204.346	429.138	110.75	-61.22	162.36	-63.308	-52.038	61.740	0.58667	-0.10452	-0.38287	-0.70581	29.9	13111	100
2025-3-7 0:3:24.867	WT901BLE68-01(48591DE3C19B)	-0.749	1.197	12.075	-62.439	167.053	700.439	125.29	-64.03	146.82	-63.308	-52.038	61.740	0.58667	-0.10452	-0.38287	-0.70581	29.9	13111	100
2025-3-7 0:3:24.868	WT901BLE68-01(48591DE3C19B)	1.036	1.197	12.075	-62.439	167.053	700.439	131.24	-70.84	139.41	-63.308	-52.038	61.740	0.58667	-0.10452	-0.38287	-0.70581	29.9	13111	100
2025-3-7 0:3:24.926	WT901BLE68-01(48591DE3C19B)	1.036	2.807	6.852	-52.246	920.532	398.193	126.40	-78.74	143.44	-63.308	-52.038	61.740	0.58667	-0.10452	-0.38287	-0.70581	29.9	13111	100
2025-3-7 0:3:24.926	WT901BLE68-01(48591DE3C19B)	2.991	2.807	6.852	-52.246	920.532	398.193	60.64	-84.10	-151.02	-63.308	-52.038	61.740	0.58667	-0.10452	-0.38287	-0.70581	29.9	13111	100
2025-3-7 0:3:24.926	WT901BLE68-01(48591DE3C19B)	2.991	2.208	2.761	143.005	992.798	217.468	10.18	-77.09	-99.83	-63.308	-52.038	61.740	0.58667	-0.10452	-0.38287	-0.70581	29.9	13111	100
2025-3-7 0:3:24.927	WT901BLE68-01(48591DE3C19B)	5.091	2.208	2.761	143.005	992.798	217.468	1.83	-67.18	-89.79	-63.308	-52.038	61.740	0.58667	-0.10452	-0.38287	-0.70581	29.9	13111	100
2025-3-7 0:3:24.957	WT901BLE68-01(48591DE3C19B)	5.091	2.639	0.827	236.389	983.582	-7.202	1.35	-57.17	-87.35	-63.308	-52.038	61.740	0.58667	-0.10452	-0.38287	-0.70581	29.9	13111	100
2025-3-7 0:3:24.957	WT901BLE68-01(48591DE3C19B)	5.699	2.639	0.827	236.389	983.582	-7.202	3.37	-47.28	-87.10	-63.308	-52.038	61.740	0.58667	-0.10452	-0.38287	-0.70581	29.9	13111	100
2025-3-7 0:3:24.958	WT901BLE68-01(48591DE3C19B)	5.699	3.087	-1.565	339.844	729.248	-283.508	6.90	-38.62	-88.33	-63.308	-52.038	61.740	0.58667	-0.10452	-0.38287	-0.70581	29.9	13111	100
2025-3-7 0:3:24.958	WT901BLE68-01(48591DE3C19B)	4.962	3.087	-1.565	339.844	729.248	-283.508	11.45	-31.07	-90.55	-63.308	-52.038	61.740	0.58667	-0.10452	-0.38287	-0.70581	29.9	13111	100
2025-3-7 0:3:24.987	WT901BLE68-01(48591DE3C19B)	4.962	1.813	-3.824	377.625	184.509	-490.784	16.42	-25.84	-93.83	-63.308	-52.038	61.740	0.58667	-0.10452	-0.38287	-0.70581	29.9	13111	100
2025-3-7 0:3:24.988	WT901BLE68-01(48591DE3C19B)	3.887	1.813	-3.824	377.625	184.509	-490.784	21.98	-22.70	-98.45	-63.308	-52.038	61.740	0.58667	-0.10452	-0.38287	-0.70581	29.9	13111	100
2025-3-7 0:3:24.988	WT901BLE68-01(48591DE3C19B)	3.887	-0.926	-4.529	235.718	-607.849	-473.938	27.14	-22.85	-104.41	-63.308	-52.038	61.740	0.58667	-0.10452	-0.38287	-0.70581	29.9	13111	100
2025-3-7 0:3:24.988	WT901BLE68-01(48591DE3C19B)	4.731	-0.926	-4.529	235.718	-607.849	-473.938	32.68	-26.03	-112.45	-63.308	-52.038	61.740	0.58667	-0.10452	-0.38287	-0.70581	29.9	13111	100
2025-3-7 0:3:25.47	WT901BLE68-01(48591DE3C19B)	4.731	-4.438	-1.774	-31.738	-1593.872	-357.666	39.09	-32.75	-123.94	-63.308	-52.038	61.740	0.58667	-0.10452	-0.38287	-0.70581	29.9	13111	100
2025-3-7 0:3:25.47	WT901BLE68-01(48591DE3C19B)	1.562	-4.438	-1.774	-31.738	-1593.872	-357.666	49.16	-42.02	-141.25	-51.842	-48.706	58.506	0.58667	-0.10452	-0.38287	-0.70581	29.9	13111	100
2025-3-7 0:3:25.47	WT901BLE68-01(48591DE3C19B)	1.562	-8.987	5.160	392.395	-1543.396	427.612	64.27	-51.39	-160.06	-51.842	-48.706	58.506	0.58667	-0.10452	-0.38287	-0.70581	29.9	13111	100
2025-3-7 0:3:25.47	WT901BLE68-01(48591DE3C19B)	1.421	-8.987	5.160	392.395	-1543.396	427.612	88.45	-59.57	175.24	-51.842	-48.706	58.506	0.58667	-0.10452	-0.38287	-0.70581	29.9	13111	100
2025-3-7 0:3:25.75	WT901BLE68-01(48591DE3C19B)	1.421	-2.190	10.252	168.396	-555.603	1009.155	113.09	-65.04	150.08	-51.842	-48.706	58.506	0.58667	-0.10452	-0.38287	-0.70581	29.9	13111	100
2025-3-7 0:3:25.75	WT901BLE68-01(48591DE3C19B)	1.914	-2.190	10.252	168.396	-555.603	1009.155	140.11	-70.27	122.54	-51.842	-48.706	58.506	0.58667	-0.10452	-0.38287	-0.70581	29.9	13111	100
2025-3-7 0:3:25.75	WT901BLE68-01(48591DE3C19B)	1.914	2.536	10.367	-6.836	597.046	775.574	150.86	-79.93	111.16	-51.842	-48.706	58.506	0.58667	-0.10452	-0.38287	-0.70581	29.9	13111	100
2025-3-7 0:3:25.75	WT901BLE68-01(48591DE3C19B)	4.288	2.536	10.367	-6.836	597.046	775.574	-131.69	-86.24	33.12	-51.842	-48.706	58.506	0.58667	-0.10452	-0.38287	-0.70581	29.9	13111	100
2025-3-7 0:3:25.106	WT901BLE68-01(48591DE3C19B)	4.288	3.374	4.575	144.165	1022.217	410.767	-40.08	-79.44	-57.56	-51.842	-48.706	58.506	0.58667	-0.10452	-0.38287	-0.70581	29.9	13111	100
2025-3-7 0:3:25.106	WT901BLE68-01(48591DE3C19B)	5.425	3.374	4.575	144.165	1022.217	410.767	-29.41	-68.57	-67.27	-51.842	-48.706	58.506	0.58667	-0.10452	-0.38287	-0.70581	29.9	13111	100
2025-3-7 0:3:25.106	WT901BLE68-01(48591DE3C19B)	5.425	3.064	1.452	299.561	948.730	52.551	-19.07	-59.63	-75.56	-51.842	-48.706	58.506	0.58667	-0.10452	-0.38287	-0.70581	29.9	13111	100
2025-3-7 0:3:25.106	WT901BLE68-01(48591DE3C19B)	5.378	3.064	1.452	299.561	948.730	52.551	-12.90	-50.36	-79.57	-51.842	-48.706	58.506	0.58667	-0.10452	-0.38287	-0.70581	29.9	13111	100
2025-3-7 0:3:25.168	WT901BLE68-01(48591DE3C19B)	5.378	2.740	-0.192	491.394	687.927	-218.506	-4.45	-43.95	-84.55	-51.842	-48.706	58.506	0.58667	-0.10452	-0.38287	-0.70581	29.9	13111	100
2025-3-7 0:3:25.168	WT901BLE68-01(48591DE3C19B)	4.364	2.740	-0.192	491.394	687.927	-218.506	2.46	-37.21	-87.82	-51.842	-48.706	58.506	0.58667	-0.10452	-0.38287	-0.70581	29.9	13111	100
2025-3-7 0:3:25.168	WT901BLE68-01(48591DE3C19B)	4.364	1.889	-1.592	499.573	413.635	-509.460	10.65	-32.66	-93.63	-51.842	-48.706	58.506	0.58667	-0.10452	-0.38287	-0.70581	29.9	13111	100
2025-3-7 0:3:25.168	WT901BLE68-01(48591DE3C19B)	3.614	1.889	-1.592	499.573	413.635	-509.460	17.87	-27.59	-98.36	-51.842	-48.706	58.506	0.58667	-0.10452	-0.38287	-0.70581	29.9	13111	100
2025-3-7 0:3:25.198	WT901BLE68-01(48591DE3C19B)	3.614	-0.019	-3.839	384.644	-14.526	-659.912	24.76	-25.55	-105.47	-51.842	-48.706	58.506	0.58667	-0.10452	-0.38287	-0.70581	29.9	13111	100
2025-3-7 0:3:25.198	WT901BLE68-01(48591DE3C19B)	3.974	-0.019	-3.839	384.644	-14.526	-659.912	31.17	-22.85	-112.11	-51.842	-48.706	58.506	0.58667	-0.10452	-0.38287	-0.70581	29.9	13111	100
2025-3-7 0:3:25.198	WT901BLE68-01(48591DE3C19B)	3.974	-2.529	-4.688	113.892	-826.843	-536.926	36.42	-27.04	-122.26	-51.842	-48.706	58.506	0.58667	-0.10452	-0.38287	-0.70581	29.9	13111	100
2025-3-7 0:3:25.198	WT901BLE68-01(48591DE3C19B)	3.230	-2.529	-4.688	113.892	-826.843	-536.926	42.59	-30.33	-133.13	-51.842	-48.706	58.506	0.41031	-0.13620	-0.46219	-0.77417	29.9	13111	100
2025-3-7 0:3:25.228	WT901BLE68-01(48591DE3C19B)	3.230	-7.202	0.659	340.942	-1716.431	-87.830	55.68	-41.25	-149.91	-51.842	-48.706	58.506	0.41031	-0.13620	-0.46219	-0.77417	29.9	13111	100
2025-3-7 0:3:25.228	WT901BLE68-01(48591DE3C19B)	2.418	-7.202	0.659	340.942	-1716.431	-87.830	74.76	-48.02	-172.38	-51.842	-48.706	58.506	0.41031	-0.13620	-0.46219	-0.77417	29.9	13111	100
2025-3-7 0:3:25.228	WT901BLE68-01(48591DE3C19B)	2.418	-5.394	5.297	552.185	-1210.388	781.128	94.99	-57.26	168.92	-51.842	-48.706	58.506	0.41031	-0.13620	-0.46219	-0.77417	29.9	13111	100
2025-3-7 0:3:25.228	WT901BLE68-01(48591DE3C19B)	1.413	-5.394	5.297	552.185	-1210.388	781.128	123.91	-60.98	141.52	-51.842	-48.706	58.506	0.41031	-0.13620	-0.46219	-0.77417	29.9	13111	100
2025-3-7 0:3:25.286	WT901BLE68-01(48591DE3C19B)	1.413	0.937	11.484	80.688	-165.649	949.707	140.13	-67.30	124.17	-51.842	-48.706	58.506	0.41031	-0.13620	-0.46219	-0.77417	29.9	13111	100
2025-3-7 0:3:25.286	WT901BLE68-01(48591DE3C19B)	2.653	0.937	11.484	80.688	-165.649	949.707	164.69	-70.65	98.54	-51.842	-48.706	58.506	0.41031	-0.13620	-0.46219	-0.77417	29.9	13111	100
2025-3-7 0:3:25.286	WT901BLE68-01(48591DE3C19B)	2.653	2.343	8.490	26.978	843.323	617.371	-174.20	-80.06	76.87	-51.842	-48.706	58.506	0.41031	-0.13620	-0.46219	-0.77417	29.9	13111	100
2025-3-7 0:3:25.286	WT901BLE68-01(48591DE3C19B)	4.514	2.343	8.490	26.978	843.323	617.371	-99.27	-82.81	1.42	-51.842	-48.706	58.506	0.41031	-0.13620	-0.46219	-0.77417	29.9	13111	100
2025-3-7 0:3:25.315	WT901BLE68-01(48591DE3C19B)	4.514	2.944	4.098	146.973	1068.970	328.125	-45.81	-75.77	-51.44	-51.842	-48.706	58.506	0.41031	-0.13620	-0.46219	-0.77417	29.9	13111	100
2025-3-7 0:3:25.315	WT901BLE68-01(48591DE3C19B)	5.529	2.944	4.098	146.973	1068.970	328.125	-31.96	-65.27	-64.65	-51.842	-48.706	58.506	0.41031	-0.13620	-0.46219	-0.77417	29.9	13111	100
2025-3-7 0:3:25.316	WT901BLE68-01(48591DE3C19B)	5.529	3.031	1.768	318.359	1016.846	-8.728	-20.35	-56.13	-74.42	-51.842	-48.706	58.506	0.41031	-0.13620	-0.46219	-0.77417	29.9	13111	100
2025-3-7 0:3:25.316	WT901BLE68-01(48591DE3C19B)	5.403	3.031	1.768	318.359	1016.846	-8.728	-13.24	-46.44	-79.57	-51.842	-48.706	58.506	0.41031	-0.13620	-0.46219	-0.77417	29.9	13111	100
2025-3-7 0:3:25.345	WT901BLE68-01(48591DE3C19B)	5.403	2.813	0.104	484.253	750.122	-283.875	-4.62	-39.55	-85.25	-51.842	-48.706	58.506	0.41031	-0.13620	-0.46219	-0.77417	29.9	13111	100
2025-3-7 0:3:25.346	WT901BLE68-01(48591DE3C19B)	4.478	2.813	0.104	484.253	750.122	-283.875	2.41	-32.23	-89.15	-51.842	-48.706	58.506	0.41031	-0.13620	-0.46219	-0.77417	29.9	13111	100
2025-3-7 0:3:25.346	WT901BLE68-01(48591DE3C19B)	4.478	1.936	-1.182	566.772	430.176	-523.865	10.77	-27.53	-94.79	-51.842	-48.706	58.506	0.41031	-0.13620	-0.46219	-0.77417	29.9	13111	100
2025-3-7 0:3:25.346	WT901BLE68-01(48591DE3C19B)	3.823	1.936	-1.182	566.772	430.176	-523.865	18.25	-22.26	-99.38	-51.842	-48.706	58.506	0.41031	-0.13620	-0.46219	-0.77417	29.9	13111	100
2025-3-7 0:3:25.406	WT901BLE68-01(48591DE3C19B)	3.823	-0.002	-2.854	482.056	14.954	-661.255	25.35	-19.91	-106.07	-51.842	-48.706	58.506	0.41031	-0.13620	-0.46219	-0.77417	29.9	13111	100
2025-3-7 0:3:25.406	WT901BLE68-01(48591DE3C19B)	3.435	-0.002	-2.854	482.056	14.954	-661.255	31.98	-16.88	-112.28	-51.842	-48.706	58.506	0.41031	-0.13620	-0.46219	-0.77417	29.9	13111	100
2025-3-7 0:3:25.406	WT901BLE68-01(48591DE3C19B)	3.435	-1.996	-3.432	219.238	-660.034	-600.037	36.90	-19.24	-121.56	-51.842	-48.706	58.506	0.41031	-0.13620	-0.46219	-0.77417	29.9	13111	100
2025-3-7 0:3:25.406	WT901BLE68-01(48591DE3C19B)	2.561	-1.996	-3.432	219.238	-660.034	-600.037	42.19	-20.84	-131.09	-51.842	-48.706	58.506	0.41031	-0.13620	-0.46219	-0.77417	29.9	13111	100
2025-3-7 0:3:25.438	WT901BLE68-01(48591DE3C19B)	2.561	-6.739	-0.410	373.169	-1420.105	-289.612	51.50	-28.78	-144.77	-55.174	-49.098	60.466	0.41031	-0.13620	-0.46219	-0.77417	29.9	13111	100
2025-3-7 0:3:25.438	WT901BLE68-01(48591DE3C19B)	0.876	-6.739	-0.410	373.169	-1420.105	-289.612	63.38	-34.34	-160.67	-55.174	-49.098	60.466	0.41031	-0.13620	-0.46219	-0.77417	29.9	13111	100
2025-3-7 0:3:25.438	WT901BLE68-01(48591DE3C19B)	0.876	-6.890	2.958	684.204	-1152.283	685.791	77.07	-45.03	-171.71	-55.174	-49.098	60.466	0.41031	-0.13620	-0.46219	-0.77417	29.9	13111	100
2025-3-7 0:3:25.438	WT901BLE68-01(48591DE3C19B)	2.002	-6.890	2.958	684.204	-1152.283	685.791	96.44	-52.91	171.43	-55.174	-49.098	60.466	0.41031	-0.13620	-0.46219	-0.77417	29.9	13111	100
2025-3-7 0:3:25.467	WT901BLE68-01(48591DE3C19B)	2.002	-0.867	7.469	97.229	-531.982	994.202	108.55	-61.83	157.93	-55.174	-49.098	60.466	0.41031	-0.13620	-0.46219	-0.77417	29.9	13111	100
2025-3-7 0:3:25.467	WT901BLE68-01(48591DE3C19B)	1.839	-0.867	7.469	97.229	-531.982	994.202	129.64	-68.35	135.56	-55.174	-49.098	60.466	0.41031	-0.13620	-0.46219	-0.77417	29.9	13111	100
2025-3-7 0:3:25.468	WT901BLE68-01(48591DE3C19B)	1.839	1.574	9.368	48.706	382.813	798.767	138.59	-77.07	126.48	-55.174	-49.098	60.466	0.41031	-0.13620	-0.46219	-0.77417	29.9	13111	100
2025-3-7 0:3:25.468	WT901BLE68-01(48591DE3C19B)	4.125	1.574	9.368	48.706	382.813	798.767	174.63	-84.42	90.34	-55.174	-49.098	60.466	0.41031	-0.13620	-0.46219	-0.77417	29.9	13111	100
2025-3-7 0:3:25.526	WT901BLE68-01(48591DE3C19B)	4.125	1.397	5.740	54.260	975.525	578.674	-49.34	-83.10	-45.57	-55.174	-49.098	60.466	0.41031	-0.13620	-0.46219	-0.77417	29.9	13111	100
2025-3-7 0:3:25.526	WT901BLE68-01(48591DE3C19B)	5.341	1.397	5.740	54.260	975.525	578.674	-36.85	-71.85	-57.92	-55.174	-49.098	60.466	0.41031	-0.13620	-0.46219	-0.77417	29.9	13111	100
2025-3-7 0:3:25.526	WT901BLE68-01(48591DE3C19B)	5.564	2.862	2.977	137.329	1110.962	302.734	-27.47	-60.74	-66.79	-55.174	-49.098	60.466	0.41031	-0.13620	-0.46219	-0.77417	29.9	13111	100
2025-3-7 0:3:25.527	WT901BLE68-01(48591DE3C19B)	5.564	4.860	0.665	336.365	800.354	-9.766	-21.01	-51.42	-71.90	-55.174	-49.098	60.466	0.41031	-0.13620	-0.46219	-0.77417	29.9	13111	100
2025-3-7 0:3:25.555	WT901BLE68-01(48591DE3C19B)	4.981	4.860	0.665	336.365	800.354	-9.766	-14.73	-43.88	-75.99	-55.174	-49.098	60.466	0.41031	-0.13620	-0.46219	-0.77417	29.9	13111	100
2025-3-7 0:3:25.555	WT901BLE68-01(48591DE3C19B)	4.981	3.684	-0.454	628.662	509.949	-436.218	-6.87	-37.96	-80.88	-55.174	-49.098	60.466	0.41031	-0.13620	-0.46219	-0.77417	29.9	13111	100
2025-3-7 0:3:25.555	WT901BLE68-01(48591DE3C19B)	4.648	3.684	-0.454	628.662	509.949	-436.218	2.71	-33.16	-86.70	-55.174	-49.098	60.466	0.41031	-0.13620	-0.46219	-0.77417	29.9	13111	100
2025-3-7 0:3:25.555	WT901BLE68-01(48591DE3C19B)	4.648	1.138	-1.228	688.782	276.978	-740.356	12.44	-28.62	-93.14	-55.174	-49.098	60.466	0.41031	-0.13620	-0.46219	-0.77417	29.9	13111	100
2025-3-7 0:3:25.587	WT901BLE68-01(48591DE3C19B)	4.369	1.138	-1.228	688.782	276.978	-740.356	22.38	-23.97	-100.29	-55.174	-49.098	60.466	0.41031	-0.13620	-0.46219	-0.77417	29.9	13111	100
2025-3-7 0:3:25.588	WT901BLE68-01(48591DE3C19B)	4.369	-1.592	-2.814	557.556	-179.810	-777.466	31.15	-20.31	-107.59	-55.174	-49.098	60.466	0.41031	-0.13620	-0.46219	-0.77417	29.9	13111	100
2025-3-7 0:3:25.588	WT901BLE68-01(48591DE3C19B)	5.043	-1.592	-2.814	557.556	-179.810	-777.466	39.15	-17.58	-115.57	-55.174	-49.098	60.466	0.41031	-0.13620	-0.46219	-0.77417	29.9	13111	100
2025-3-7 0:3:25.588	WT901BLE68-01(48591DE3C19B)	5.043	-4.981	-3.360	287.842	-1147.583	-475.586	46.05	-18.44	-125.38	-55.174	-49.098	60.466	0.41031	-0.13620	-0.46219	-0.77417	29.9	13111	100
2025-3-7 0:3:25.646	WT901BLE68-01(48591DE3C19B)	1.137	-4.981	-3.360	287.842	-1147.583	-475.586	53.20	-22.59	-138.12	-55.174	-49.098	60.466	0.41031	-0.13620	-0.46219	-0.77417	29.9	13111	100
2025-3-7 0:3:25.646	WT901BLE68-01(48591DE3C19B)	1.137	-9.329	2.730	862.793	-1632.813	436.768	64.46	-30.14	-151.62	-55.174	-49.098	60.466	0.33466	-0.08698	-0.55316	-0.75784	29.9	13111	100
2025-3-7 0:3:25.646	WT901BLE68-01(48591DE3C19B)	4.446	-9.329	2.730	862.793	-1632.813	436.768	82.91	-39.30	-169.17	-55.174	-49.098	60.466	0.33466	-0.08698	-0.55316	-0.75784	29.9	13111	100
2025-3-7 0:3:25.647	WT901BLE68-01(48591DE3C19B)	4.446	-3.204	3.517	675.842	-978.699	1267.639	102.96	-47.60	172.06	-55.174	-49.098	60.466	0.33466	-0.08698	-0.55316	-0.75784	29.9	13111	100
2025-3-7 0:3:25.676	WT901BLE68-01(48591DE3C19B)	1.949	-3.204	3.517	675.842	-978.699	1267.639	127.52	-55.35	149.11	-55.174	-49.098	60.466	0.33466	-0.08698	-0.55316	-0.75784	29.9	13111	100
2025-3-7 0:3:25.676	WT901BLE68-01(48591DE3C19B)	1.949	3.380	11.631	-17.395	-71.350	986.267	149.18	-59.19	126.80	-55.174	-49.098	60.466	0.33466	-0.08698	-0.55316	-0.75784	29.9	13111	100
2025-3-7 0:3:25.676	WT901BLE68-01(48591DE3C19B)	3.776	3.380	11.631	-17.395	-71.350	986.267	165.74	-62.71	107.41	-55.174	-49.098	60.466	0.33466	-0.08698	-0.55316	-0.75784	29.9	13111	100
2025-3-7 0:3:25.676	WT901BLE68-01(48591DE3C19B)	3.776	2.692	7.948	74.341	995.361	575.867	-178.34	-68.60	89.79	-55.174	-49.098	60.466	0.33466	-0.08698	-0.55316	-0.75784	29.9	13111	100
2025-3-7 0:3:25.705	WT901BLE68-01(48591DE3C19B)	5.624	2.692	7.948	74.341	995.361	575.867	-150.55	-77.23	61.39	-55.174	-49.098	60.466	0.33466	-0.08698	-0.55316	-0.75784	29.9	13111	100
2025-3-7 0:3:25.705	WT901BLE68-01(48591DE3C19B)	5.624	3.708	4.090	107.849	1147.766	273.804	-90.57	-79.59	1.03	-55.174	-49.098	60.466	0.33466	-0.08698	-0.55316	-0.75784	29.9	13111	100
2025-3-7 0:3:25.705	WT901BLE68-01(48591DE3C19B)	6.610	3.708	4.090	107.849	1147.766	273.804	-48.10	-72.58	-41.60	-55.174	-49.098	60.466	0.33466	-0.08698	-0.55316	-0.75784	29.9	13111	100
2025-3-7 0:3:25.705	WT901BLE68-01(48591DE3C19B)	6.610	4.680	1.367	355.713	978.943	-91.797	-30.16	-63.70	-58.60	-55.174	-49.098	60.466	0.33466	-0.08698	-0.55316	-0.75784	29.9	13111	100
2025-3-7 0:3:25.767	WT901BLE68-01(48591DE3C19B)	6.372	4.680	1.367	355.713	978.943	-91.797	-18.13	-55.16	-68.56	-55.174	-49.098	60.466	0.33466	-0.08698	-0.55316	-0.75784	29.9	13111	100
2025-3-7 0:3:25.768	WT901BLE68-01(48591DE3C19B)	6.372	3.289	0.087	587.585	697.327	-493.164	-7.36	-47.68	-76.55	-55.174	-49.098	60.466	0.33466	-0.08698	-0.55316	-0.75784	29.9	13111	100
2025-3-7 0:3:25.768	WT901BLE68-01(48591DE3C19B)	5.947	3.289	0.087	587.585	697.327	-493.164	3.62	-40.97	-84.03	-55.174	-49.098	60.466	0.33466	-0.08698	-0.55316	-0.75784	29.9	13111	100
2025-3-7 0:3:25.768	WT901BLE68-01(48591DE3C19B)	5.947	1.126	-1.664	647.949	385.864	-763.306	13.96	-34.76	-91.13	-55.174	-49.098	60.466	0.33466	-0.08698	-0.55316	-0.75784	29.9	13111	100
2025-3-7 0:3:25.797	WT901BLE68-01(48591DE3C19B)	5.142	1.126	-1.664	647.949	385.864	-763.306	24.09	-28.81	-98.33	-55.174	-49.098	60.466	0.33466	-0.08698	-0.55316	-0.75784	29.9	13111	100
2025-3-7 0:3:25.798	WT901BLE68-01(48591DE3C19B)	5.142	-1.670	-3.561	544.067	-166.077	-767.944	33.01	-24.36	-105.51	-55.174	-49.098	60.466	0.33466	-0.08698	-0.55316	-0.75784	29.9	13111	100
2025-3-7 0:3:25.798	WT901BLE68-01(48591DE3C19B)	5.234	-1.670	-3.561	544.067	-166.077	-767.944	41.33	-21.30	-113.41	-55.174	-49.098	60.466	0.33466	-0.08698	-0.55316	-0.75784	29.9	13111	100
2025-3-7 0:3:25.798	WT901BLE68-01(48591DE3C19B)	5.234	-4.949	-3.516	263.733	-1218.384	-429.749	48.71	-22.15	-123.49	-55.174	-49.098	60.466	0.33466	-0.08698	-0.55316	-0.75784	29.9	13111	100
2025-3-7 0:3:25.825	WT901BLE68-01(48591DE3C19B)	1.067	-4.949	-3.516	263.733	-1218.384	-429.749	56.75	-26.43	-137.10	-55.174	-49.098	60.466	0.33466	-0.08698	-0.55316	-0.75784	29.9	13111	100
2025-3-7 0:3:25.826	WT901BLE68-01(48591DE3C19B)	1.067	-10.042	2.810	782.654	-1561.096	440.857	68.65	-33.34	-151.44	-55.174	-49.098	60.466	0.33466	-0.08698	-0.55316	-0.75784	29.9	13111	100
2025-3-7 0:3:25.826	WT901BLE68-01(48591DE3C19B)	3.596	-10.042	2.810	782.654	-1561.096	440.857	87.23	-41.28	-169.48	-50.274	-42.728	60.074	0.33466	-0.08698	-0.55316	-0.75784	29.9	13111	100
2025-3-7 0:3:25.826	WT901BLE68-01(48591DE3C19B)	3.596	-3.126	6.200	432.617	-885.010	1280.396	106.07	-48.78	171.68	-50.274	-42.728	60.074	0.33466	-0.08698	-0.55316	-0.75784	29.9	13111	100
2025-3-7 0:3:25.886	WT901BLE68-01(48591DE3C19B)	1.324	-3.126	6.200	432.617	-885.010	1280.396	128.26	-56.57	149.02	-50.274	-42.728	60.074	0.33466	-0.08698	-0.55316	-0.75784	29.9	13111	100
2025-3-7 0:3:25.886	WT901BLE68-01(48591DE3C19B)	1.324	3.600	13.309	-113.525	230.469	919.983	146.89	-61.89	128.65	-50.274	-42.728	60.074	0.33466	-0.08698	-0.55316	-0.75784	29.9	13111	100
2025-3-7 0:3:25.886	WT901BLE68-01(48591DE3C19B)	4.243	3.600	13.309	-113.525	230.469	919.983	161.15	-68.40	111.43	-50.274	-42.728	60.074	0.33466	-0.08698	-0.55316	-0.75784	29.9	13111	100
