time	DeviceName	AccX(g)	AccY(g)	AccZ(g)	AsX(°/s)	AsY(°/s)	AsZ(°/s)	AngleX(°)	AngleY(°)	AngleZ(°)	HX(uT)	HY(uT)	HZ(uT)	Q0()	Q1()	Q2()	Q3()	Temperature(°C)	Version()	Battery level(%)
2025-3-6 14:39:44.586	WT901BLE68-01(48591DE3C19B)	-0.138	0.146	0.987	-4.333	3.235	-0.549	13.21	-6.94	-144.30	-33.026	-20.482	49.980	-0.30707	0.03461	0.13882	0.94083	30.0	13111	100
2025-3-6 14:39:44.586	WT901BLE68-01(48591DE3C19B)	-0.142	0.146	0.987	-4.333	3.235	-0.549	13.13	-6.82	-144.24	-33.026	-20.482	49.980	-0.30707	0.03461	0.13882	0.94083	30.0	13111	100
2025-3-6 14:39:44.586	WT901BLE68-01(48591DE3C19B)	-0.142	0.137	0.981	-1.648	2.991	0.000	13.08	-6.71	-144.18	-33.026	-20.482	49.980	-0.30707	0.03461	0.13882	0.94083	30.0	13111	100
2025-3-6 14:39:44.586	WT901BLE68-01(48591DE3C19B)	-0.138	0.137	0.981	-1.648	2.991	0.000	13.04	-6.60	-144.12	-33.026	-20.482	49.980	-0.30707	0.03461	0.13882	0.94083	30.0	13111	100
2025-3-6 14:39:44.644	WT901BLE68-01(48591DE3C19B)	-0.138	0.135	0.992	3.479	2.991	0.916	13.04	-6.48	-144.05	-33.026	-20.482	49.980	-0.30707	0.03461	0.13882	0.94083	30.0	13111	100
2025-3-6 14:39:44.644	WT901BLE68-01(48591DE3C19B)	-0.140	0.135	0.992	3.479	2.991	0.916	13.04	-6.37	-143.98	-33.516	-20.188	50.372	-0.30707	0.03461	0.13882	0.94083	30.0	13111	100
2025-3-6 14:39:44.644	WT901BLE68-01(48591DE3C19B)	-0.140	0.138	0.984	4.272	8.484	3.479	13.04	-6.22	-143.87	-33.516	-20.188	50.372	-0.30707	0.03461	0.13882	0.94083	30.0	13111	100
2025-3-6 14:39:44.644	WT901BLE68-01(48591DE3C19B)	-0.144	0.138	0.984	4.272	8.484	3.479	13.04	-6.06	-143.77	-33.516	-20.188	50.372	-0.30707	0.03461	0.13882	0.94083	30.0	13111	100
2025-3-6 14:39:44.674	WT901BLE68-01(48591DE3C19B)	-0.140	0.150	0.979	2.502	14.099	3.540	13.02	-5.85	-143.65	-33.516	-20.188	50.372	-0.30707	0.03461	0.13882	0.94083	30.0	13111	100
2025-3-6 14:39:44.674	WT901BLE68-01(48591DE3C19B)	-0.140	0.133	0.992	19.409	29.724	6.287	13.09	-5.57	-143.50	-33.516	-20.188	50.372	-0.30707	0.03461	0.13882	0.94083	30.0	13111	100
2025-3-6 14:39:44.674	WT901BLE68-01(48591DE3C19B)	-0.118	0.133	0.992	19.409	29.724	6.287	13.24	-5.22	-143.32	-33.516	-20.188	50.372	-0.30707	0.03461	0.13882	0.94083	30.0	13111	100
2025-3-6 14:39:44.674	WT901BLE68-01(48591DE3C19B)	-0.118	0.156	1.009	24.109	46.204	2.686	13.41	-4.78	-143.14	-33.516	-20.188	50.372	-0.30707	0.03461	0.13882	0.94083	30.0	13111	100
2025-3-6 14:39:44.703	WT901BLE68-01(48591DE3C19B)	0.045	0.156	1.009	24.109	46.204	2.686	13.60	-4.27	-142.95	-33.516	-20.188	50.372	-0.30707	0.03461	0.13882	0.94083	30.0	13111	100
2025-3-6 14:39:44.703	WT901BLE68-01(48591DE3C19B)	0.045	0.071	1.083	23.315	103.577	14.954	13.79	-3.50	-142.64	-33.516	-20.188	50.372	-0.30707	0.03461	0.13882	0.94083	30.0	13111	100
2025-3-6 14:39:44.703	WT901BLE68-01(48591DE3C19B)	-0.017	0.071	1.083	23.315	103.577	14.954	13.96	-2.48	-142.19	-33.516	-20.188	50.372	-0.30707	0.03461	0.13882	0.94083	30.0	13111	100
2025-3-6 14:39:44.703	WT901BLE68-01(48591DE3C19B)	-0.017	-0.035	1.217	4.150	219.971	47.241	14.03	-0.94	-141.43	-33.516	-20.188	50.372	-0.30707	0.03461	0.13882	0.94083	30.0	13111	100
2025-3-6 14:39:44.764	WT901BLE68-01(48591DE3C19B)	-0.285	-0.035	1.217	4.150	219.971	47.241	14.02	1.09	-140.38	-33.516	-20.188	50.372	-0.30707	0.03461	0.13882	0.94083	30.0	13111	100
2025-3-6 14:39:44.764	WT901BLE68-01(48591DE3C19B)	-0.285	-0.035	1.175	9.216	267.822	84.351	14.08	3.30	-139.09	-33.516	-20.188	50.372	-0.30707	0.03461	0.13882	0.94083	30.0	13111	100
2025-3-6 14:39:44.764	WT901BLE68-01(48591DE3C19B)	-0.464	-0.035	1.175	9.216	267.822	84.351	14.23	5.70	-137.56	-33.516	-20.188	50.372	-0.30707	0.03461	0.13882	0.94083	30.0	13111	100
2025-3-6 14:39:44.764	WT901BLE68-01(48591DE3C19B)	-0.464	0.098	1.006	10.742	180.969	90.027	14.44	7.65	-136.12	-33.516	-20.188	50.372	-0.30707	0.03461	0.13882	0.94083	30.0	13111	100
2025-3-6 14:39:44.796	WT901BLE68-01(48591DE3C19B)	-0.475	0.098	1.006	10.742	180.969	90.027	14.68	9.17	-134.75	-33.516	-20.188	50.372	-0.30707	0.03461	0.13882	0.94083	30.0	13111	100
2025-3-6 14:39:44.796	WT901BLE68-01(48591DE3C19B)	-0.475	0.097	0.938	-13.306	78.857	102.295	14.82	10.18	-133.48	-33.516	-20.188	50.372	-0.30707	0.03461	0.13882	0.94083	30.0	13111	100
2025-3-6 14:39:44.796	WT901BLE68-01(48591DE3C19B)	-0.534	0.097	0.938	-13.306	78.857	102.295	14.85	10.69	-132.29	-33.516	-20.188	50.372	-0.30707	0.03461	0.13882	0.94083	30.0	13111	100
2025-3-6 14:39:44.796	WT901BLE68-01(48591DE3C19B)	-0.534	0.272	0.808	-8.789	51.819	110.901	14.91	11.07	-131.11	-33.516	-20.188	50.372	-0.30707	0.03461	0.13882	0.94083	30.0	13111	100
2025-3-6 14:39:44.826	WT901BLE68-01(48591DE3C19B)	-0.487	0.272	0.808	-8.789	51.819	110.901	15.01	11.31	-129.95	-33.516	-20.188	50.372	-0.30707	0.03461	0.13882	0.94083	30.0	13111	100
2025-3-6 14:39:44.826	WT901BLE68-01(48591DE3C19B)	-0.487	0.296	0.663	4.089	36.743	92.712	15.16	11.51	-128.92	-33.516	-20.188	50.372	-0.30707	0.03461	0.13882	0.94083	30.0	13111	100
2025-3-6 14:39:44.826	WT901BLE68-01(48591DE3C19B)	-0.472	0.296	0.663	4.089	36.743	92.712	15.38	11.67	-128.03	-33.516	-20.188	50.372	-0.41965	-0.14886	0.07550	0.89215	30.0	13111	100
2025-3-6 14:39:44.826	WT901BLE68-01(48591DE3C19B)	-0.472	0.265	0.606	16.418	17.090	89.783	15.65	11.73	-127.20	-33.516	-20.188	50.372	-0.41965	-0.14886	0.07550	0.89215	30.0	13111	100
2025-3-6 14:39:44.884	WT901BLE68-01(48591DE3C19B)	-0.430	0.265	0.606	16.418	17.090	89.783	15.99	11.72	-126.43	-33.516	-20.188	50.372	-0.41965	-0.14886	0.07550	0.89215	30.0	13111	100
2025-3-6 14:39:44.884	WT901BLE68-01(48591DE3C19B)	-0.430	0.314	0.630	44.006	0.549	89.355	16.46	11.62	-125.70	-33.516	-20.188	50.372	-0.41965	-0.14886	0.07550	0.89215	30.0	13111	100
2025-3-6 14:39:44.884	WT901BLE68-01(48591DE3C19B)	-0.274	0.314	0.630	44.006	0.549	89.355	17.07	11.44	-125.01	-33.516	-20.188	50.372	-0.41965	-0.14886	0.07550	0.89215	30.0	13111	100
2025-3-6 14:39:44.884	WT901BLE68-01(48591DE3C19B)	-0.274	0.422	0.619	71.167	-65.186	115.662	17.82	10.90	-124.31	-33.516	-20.188	50.372	-0.41965	-0.14886	0.07550	0.89215	30.0	13111	100
2025-3-6 14:39:44.914	WT901BLE68-01(48591DE3C19B)	-0.120	0.422	0.619	71.167	-65.186	115.662	18.70	10.00	-123.61	-33.516	-20.188	50.372	-0.41965	-0.14886	0.07550	0.89215	30.0	13111	100
2025-3-6 14:39:44.914	WT901BLE68-01(48591DE3C19B)	-0.120	0.953	0.754	182.434	-175.781	152.893	20.13	8.50	-122.93	-33.516	-20.188	50.372	-0.41965	-0.14886	0.07550	0.89215	30.0	13111	100
2025-3-6 14:39:44.914	WT901BLE68-01(48591DE3C19B)	0.188	0.953	0.754	182.434	-175.781	152.893	22.09	6.39	-122.33	-33.516	-20.188	50.372	-0.41965	-0.14886	0.07550	0.89215	30.0	13111	100
2025-3-6 14:39:44.914	WT901BLE68-01(48591DE3C19B)	0.188	2.144	1.195	265.686	-279.175	117.493	24.42	3.84	-122.18	-33.516	-20.188	50.372	-0.41965	-0.14886	0.07550	0.89215	30.0	13111	100
2025-3-6 14:39:44.944	WT901BLE68-01(48591DE3C19B)	0.600	2.144	1.195	265.686	-279.175	117.493	27.14	0.87	-122.53	-33.516	-20.188	50.372	-0.41965	-0.14886	0.07550	0.89215	30.0	13111	100
2025-3-6 14:39:44.944	WT901BLE68-01(48591DE3C19B)	2.398	3.124	1.768	200.745	-207.092	13.123	29.56	-1.52	-123.27	-33.516	-20.188	50.372	-0.41965	-0.14886	0.07550	0.89215	30.0	13111	100
2025-3-6 14:39:44.944	WT901BLE68-01(48591DE3C19B)	0.703	12.495	7.072	200.745	-207.092	13.123	31.72	-3.37	-124.37	-33.516	-20.188	50.372	-0.41965	-0.14886	0.07550	0.89215	30.0	13111	100
2025-3-6 14:39:44.944	WT901BLE68-01(48591DE3C19B)	0.703	3.090	1.887	107.178	-52.551	-99.854	33.45	-4.24	-125.57	-33.516	-20.188	50.372	-0.41965	-0.14886	0.07550	0.89215	30.0	13111	100
2025-3-6 14:39:45.4	WT901BLE68-01(48591DE3C19B)	0.734	3.090	1.887	107.178	-52.551	-99.854	34.73	-4.14	-126.82	-33.516	-20.188	50.372	-0.41965	-0.14886	0.07550	0.89215	30.0	13111	100
2025-3-6 14:39:45.4	WT901BLE68-01(48591DE3C19B)	0.734	2.422	1.484	63.232	67.383	-228.638	35.78	-3.16	-128.24	-33.516	-20.188	50.372	-0.41965	-0.14886	0.07550	0.89215	30.0	13111	100
2025-3-6 14:39:45.4	WT901BLE68-01(48591DE3C19B)	0.683	2.422	1.484	63.232	67.383	-228.638	36.57	-1.31	-129.79	-33.516	-20.188	50.372	-0.41965	-0.14886	0.07550	0.89215	30.0	13111	100
2025-3-6 14:39:45.4	WT901BLE68-01(48591DE3C19B)	0.683	1.543	1.288	63.416	126.221	-336.182	37.31	1.10	-131.56	-33.516	-20.188	50.372	-0.41965	-0.14886	0.07550	0.89215	30.0	13111	100
2025-3-6 14:39:45.36	WT901BLE68-01(48591DE3C19B)	0.630	1.543	1.288	63.416	126.221	-336.182	37.95	4.07	-133.52	-36.162	-20.482	53.704	-0.41965	-0.14886	0.07550	0.89215	30.0	13111	100
2025-3-6 14:39:45.36	WT901BLE68-01(48591DE3C19B)	0.630	0.883	1.339	29.419	114.258	-411.743	38.29	7.23	-135.77	-36.162	-20.482	53.704	-0.41965	-0.14886	0.07550	0.89215	30.0	13111	100
2025-3-6 14:39:45.37	WT901BLE68-01(48591DE3C19B)	0.874	0.883	1.339	29.419	114.258	-411.743	38.27	10.56	-138.35	-36.162	-20.482	53.704	-0.41965	-0.14886	0.07550	0.89215	30.0	13111	100
2025-3-6 14:39:45.37	WT901BLE68-01(48591DE3C19B)	0.874	0.533	1.023	-72.266	123.169	-535.828	37.47	14.27	-141.41	-36.162	-20.482	53.704	-0.41965	-0.14886	0.07550	0.89215	30.0	13111	100
2025-3-6 14:39:45.65	WT901BLE68-01(48591DE3C19B)	1.772	0.533	1.023	-72.266	123.169	-535.828	35.81	18.29	-145.06	-36.162	-20.482	53.704	-0.41965	-0.14886	0.07550	0.89215	30.0	13111	100
2025-3-6 14:39:45.66	WT901BLE68-01(48591DE3C19B)	1.772	-1.250	-0.181	-58.350	173.950	-629.883	33.80	22.63	-149.16	-36.162	-20.482	53.704	-0.41965	-0.14886	0.07550	0.89215	30.0	13111	100
2025-3-6 14:39:45.66	WT901BLE68-01(48591DE3C19B)	1.503	-1.250	-0.181	-58.350	173.950	-629.883	31.33	27.24	-153.81	-36.162	-20.482	53.704	-0.41965	-0.14886	0.07550	0.89215	30.0	13111	100
2025-3-6 14:39:45.66	WT901BLE68-01(48591DE3C19B)	1.503	-5.340	-1.083	253.235	14.160	-544.678	29.92	30.71	-158.82	-36.162	-20.482	53.704	-0.41965	-0.14886	0.07550	0.89215	30.0	13111	100
2025-3-6 14:39:45.123	WT901BLE68-01(48591DE3C19B)	-1.546	-5.340	-1.083	253.235	14.160	-544.678	29.71	33.15	-163.99	-36.162	-20.482	53.704	-0.41965	-0.14886	0.07550	0.89215	30.0	13111	100
2025-3-6 14:39:45.123	WT901BLE68-01(48591DE3C19B)	-1.546	-10.669	-1.189	407.532	-147.949	-116.455	30.94	33.71	-167.51	-36.162	-20.482	53.704	-0.41965	-0.14886	0.07550	0.89215	30.0	13111	100
2025-3-6 14:39:45.123	WT901BLE68-01(48591DE3C19B)	0.030	-10.669	-1.189	407.532	-147.949	-116.455	33.88	33.09	-169.62	-36.162	-20.482	53.704	-0.41965	-0.14886	0.07550	0.89215	30.0	13111	100
2025-3-6 14:39:45.123	WT901BLE68-01(48591DE3C19B)	0.030	-9.626	-0.659	70.862	-174.377	691.772	37.51	28.20	-164.51	-36.162	-20.482	53.704	-0.41965	-0.14886	0.07550	0.89215	30.0	13111	100
2025-3-6 14:39:45.185	WT901BLE68-01(48591DE3C19B)	5.058	-9.626	-0.659	70.862	-174.377	691.772	40.52	23.05	-159.96	-36.162	-20.482	53.704	-0.41965	-0.14886	0.07550	0.89215	30.0	13111	100
2025-3-6 14:39:45.185	WT901BLE68-01(48591DE3C19B)	5.058	-4.531	-0.586	-66.528	-176.941	1066.162	41.89	14.13	-152.58	-36.162	-20.482	53.704	-0.41965	-0.14886	0.07550	0.89215	30.0	13111	100
2025-3-6 14:39:45.186	WT901BLE68-01(48591DE3C19B)	6.762	-4.531	-0.586	-66.528	-176.941	1066.162	42.06	5.14	-145.62	-36.162	-20.482	53.704	-0.41965	-0.14886	0.07550	0.89215	30.0	13111	100
2025-3-6 14:39:45.186	WT901BLE68-01(48591DE3C19B)	6.762	0.471	1.010	-20.142	-247.070	972.046	41.61	-3.70	-139.93	-36.162	-20.482	53.704	-0.41965	-0.14886	0.07550	0.89215	30.0	13111	100
2025-3-6 14:39:45.186	WT901BLE68-01(48591DE3C19B)	6.462	0.471	1.010	-20.142	-247.070	972.046	40.28	-12.40	-134.06	-36.162	-20.482	53.704	-0.41965	-0.14886	0.07550	0.89215	30.0	13111	100
2025-3-6 14:39:45.186	WT901BLE68-01(48591DE3C19B)	6.462	6.784	1.738	165.283	-239.746	704.407	40.57	-19.22	-130.05	-36.162	-20.482	53.704	-0.41965	-0.14886	0.07550	0.89215	30.0	13111	100
2025-3-6 14:39:45.186	WT901BLE68-01(48591DE3C19B)	4.866	6.784	1.738	165.283	-239.746	704.407	40.42	-25.97	-125.94	-36.162	-20.482	53.704	-0.41965	-0.14886	0.07550	0.89215	30.0	13111	100
2025-3-6 14:39:45.186	WT901BLE68-01(48591DE3C19B)	4.866	12.405	1.719	111.267	-164.368	288.452	40.84	-29.38	-124.74	-36.162	-20.482	53.704	-0.41965	-0.14886	0.07550	0.89215	30.0	13111	100
2025-3-6 14:39:45.244	WT901BLE68-01(48591DE3C19B)	3.776	12.405	1.719	111.267	-164.368	288.452	41.30	-32.73	-123.60	-36.162	-20.482	53.704	-0.41965	-0.14886	0.07550	0.89215	30.0	13111	100
2025-3-6 14:39:45.244	WT901BLE68-01(48591DE3C19B)	3.776	13.239	1.688	-158.386	33.569	-256.226	40.88	-30.96	-125.77	-36.162	-20.482	53.704	-0.49451	0.06921	0.41354	0.76129	30.0	13111	100
2025-3-6 14:39:45.245	WT901BLE68-01(48591DE3C19B)	5.471	13.239	1.688	-158.386	33.569	-256.226	40.45	-29.16	-127.92	-36.162	-20.482	53.704	-0.49451	0.06921	0.41354	0.76129	30.0	13111	100
2025-3-6 14:39:45.245	WT901BLE68-01(48591DE3C19B)	5.471	6.879	1.414	-264.954	317.017	-779.297	39.83	-21.87	-132.37	-36.162	-20.482	53.704	-0.49451	0.06921	0.41354	0.76129	30.0	13111	100
2025-3-6 14:39:45.274	WT901BLE68-01(48591DE3C19B)	6.313	6.879	1.414	-264.954	317.017	-779.297	38.67	-14.66	-136.69	-36.162	-20.482	53.704	-0.49451	0.06921	0.41354	0.76129	30.0	13111	100
2025-3-6 14:39:45.274	WT901BLE68-01(48591DE3C19B)	6.313	-1.116	0.558	-352.783	487.061	-950.439	36.11	-5.26	-141.38	-36.162	-20.482	53.704	-0.49451	0.06921	0.41354	0.76129	30.0	13111	100
2025-3-6 14:39:45.274	WT901BLE68-01(48591DE3C19B)	2.627	-1.116	0.558	-352.783	487.061	-950.439	32.82	3.81	-146.41	-36.162	-20.482	53.704	-0.49451	0.06921	0.41354	0.76129	30.0	13111	100
2025-3-6 14:39:45.274	WT901BLE68-01(48591DE3C19B)	2.627	-8.879	-1.027	18.250	229.065	-824.219	32.50	9.82	-152.07	-36.162	-20.482	53.704	-0.49451	0.06921	0.41354	0.76129	30.0	13111	100
2025-3-6 14:39:45.334	WT901BLE68-01(48591DE3C19B)	-1.350	-8.879	-1.027	18.250	229.065	-824.219	31.55	15.69	-157.84	-36.162	-20.482	53.704	-0.49451	0.06921	0.41354	0.76129	30.0	13111	100
2025-3-6 14:39:45.334	WT901BLE68-01(48591DE3C19B)	-1.350	-14.720	-1.382	685.120	-19.775	-430.481	37.40	17.43	-161.52	-36.162	-20.482	53.704	-0.49451	0.06921	0.41354	0.76129	30.0	13111	100
2025-3-6 14:39:45.334	WT901BLE68-01(48591DE3C19B)	-1.474	-14.720	-1.382	685.120	-19.775	-430.481	43.06	19.46	-165.01	-36.162	-20.482	53.704	-0.49451	0.06921	0.41354	0.76129	30.0	13111	100
2025-3-6 14:39:45.334	WT901BLE68-01(48591DE3C19B)	-1.474	-12.158	-2.192	408.691	3.601	469.482	48.02	15.52	-161.47	-36.162	-20.482	53.704	-0.49451	0.06921	0.41354	0.76129	30.0	13111	100
2025-3-6 14:39:45.364	WT901BLE68-01(48591DE3C19B)	4.136	-12.158	-2.192	408.691	3.601	469.482	52.56	11.34	-158.31	-36.162	-20.482	53.704	-0.49451	0.06921	0.41354	0.76129	30.0	13111	100
2025-3-6 14:39:45.364	WT901BLE68-01(48591DE3C19B)	4.136	-5.509	-1.967	14.893	-0.122	945.313	53.15	3.21	-152.53	-36.162	-20.482	53.704	-0.49451	0.06921	0.41354	0.76129	30.0	13111	100
2025-3-6 14:39:45.364	WT901BLE68-01(48591DE3C19B)	6.202	-5.509	-1.967	14.893	-0.122	945.313	52.89	-4.88	-146.82	-36.162	-20.482	53.704	-0.49451	0.06921	0.41354	0.76129	30.0	13111	100
2025-3-6 14:39:45.364	WT901BLE68-01(48591DE3C19B)	6.202	0.313	-0.872	-47.119	-12.085	893.372	51.27	-12.53	-141.34	-36.162	-20.482	53.704	-0.49451	0.06921	0.41354	0.76129	30.0	13111	100
2025-3-6 14:39:45.396	WT901BLE68-01(48591DE3C19B)	5.810	0.313	-0.872	-47.119	-12.085	893.372	48.81	-19.93	-135.45	-36.162	-20.482	53.704	-0.49451	0.06921	0.41354	0.76129	30.0	13111	100
2025-3-6 14:39:45.396	WT901BLE68-01(48591DE3C19B)	5.810	7.368	-2.377	480.530	-154.236	606.445	52.17	-26.04	-132.59	-36.162	-20.482	53.704	-0.49451	0.06921	0.41354	0.76129	30.0	13111	100
2025-3-6 14:39:45.396	WT901BLE68-01(48591DE3C19B)	3.132	7.368	-2.377	480.530	-154.236	606.445	55.42	-32.24	-130.02	-36.162	-20.482	53.704	-0.49451	0.06921	0.41354	0.76129	30.0	13111	100
2025-3-6 14:39:45.396	WT901BLE68-01(48591DE3C19B)	3.132	13.343	-2.382	794.373	-296.875	172.302	64.36	-35.58	-132.30	-36.162	-20.482	53.704	-0.49451	0.06921	0.41354	0.76129	30.0	13111	100
2025-3-6 14:39:45.484	WT901BLE68-01(48591DE3C19B)	2.734	13.343	-2.382	794.373	-296.875	172.302	73.95	-38.51	-135.30	-36.162	-20.482	53.704	-0.49451	0.06921	0.41354	0.76129	30.0	13111	100
2025-3-6 14:39:45.484	WT901BLE68-01(48591DE3C19B)	2.734	14.717	-1.350	-32.776	-147.888	-309.204	75.45	-36.09	-138.37	-32.144	-20.286	35.182	-0.49451	0.06921	0.41354	0.76129	30.0	13111	100
2025-3-6 14:39:45.484	WT901BLE68-01(48591DE3C19B)	4.737	14.717	-1.350	-32.776	-147.888	-309.204	76.80	-33.53	-141.19	-32.144	-20.286	35.182	-0.49451	0.06921	0.41354	0.76129	30.0	13111	100
2025-3-6 14:39:45.484	WT901BLE68-01(48591DE3C19B)	4.737	7.780	-1.147	-546.448	-85.205	-697.571	73.04	-27.11	-144.34	-32.144	-20.286	35.182	-0.49451	0.06921	0.41354	0.76129	30.0	13111	100
2025-3-6 14:39:45.486	WT901BLE68-01(48591DE3C19B)	6.143	7.780	-1.147	-546.448	-85.205	-697.571	69.13	-20.90	-147.74	-32.144	-20.286	35.182	-0.49451	0.06921	0.41354	0.76129	30.0	13111	100
2025-3-6 14:39:45.486	WT901BLE68-01(48591DE3C19B)	6.143	-0.624	0.133	-651.367	-39.734	-832.092	63.95	-13.60	-151.58	-32.144	-20.286	35.182	-0.49451	0.06921	0.41354	0.76129	30.0	13111	100
2025-3-6 14:39:45.486	WT901BLE68-01(48591DE3C19B)	2.188	-0.624	0.133	-651.367	-39.734	-832.092	58.43	-6.73	-155.96	-32.144	-20.286	35.182	-0.49451	0.06921	0.41354	0.76129	30.0	13111	100
2025-3-6 14:39:45.486	WT901BLE68-01(48591DE3C19B)	2.188	-11.148	0.469	-270.996	22.217	-726.135	56.18	-0.81	-159.63	-32.144	-20.286	35.182	-0.49451	0.06921	0.41354	0.76129	30.0	13111	100
2025-3-6 14:39:45.544	WT901BLE68-01(48591DE3C19B)	-1.667	-11.148	0.469	-270.996	22.217	-726.135	53.53	4.82	-163.55	-32.144	-20.286	35.182	-0.49451	0.06921	0.41354	0.76129	30.0	13111	100
2025-3-6 14:39:45.544	WT901BLE68-01(48591DE3C19B)	-1.667	-15.221	-0.041	464.539	1.587	-145.447	58.12	5.49	-164.39	-32.144	-20.286	35.182	-0.49451	0.06921	0.41354	0.76129	30.0	13111	100
2025-3-6 14:39:45.545	WT901BLE68-01(48591DE3C19B)	0.587	-15.221	-0.041	464.539	1.587	-145.447	62.50	6.17	-165.17	-32.144	-20.286	35.182	-0.49451	0.06921	0.41354	0.76129	30.0	13111	100
2025-3-6 14:39:45.545	WT901BLE68-01(48591DE3C19B)	0.587	-10.468	-1.517	316.895	3.723	596.130	65.55	0.25	-162.60	-32.144	-20.286	35.182	-0.49451	0.06921	0.41354	0.76129	30.0	13111	100
2025-3-6 14:39:45.574	WT901BLE68-01(48591DE3C19B)	5.055	-10.468	-1.517	316.895	3.723	596.130	68.28	-5.78	-160.27	-32.144	-20.286	35.182	-0.49451	0.06921	0.41354	0.76129	30.0	13111	100
2025-3-6 14:39:45.574	WT901BLE68-01(48591DE3C19B)	5.055	-2.699	-0.354	-116.455	63.660	885.315	66.08	-14.23	-156.24	-32.144	-20.286	35.182	-0.49451	0.06921	0.41354	0.76129	30.0	13111	100
2025-3-6 14:39:45.574	WT901BLE68-01(48591DE3C19B)	5.838	-2.699	-0.354	-116.455	63.660	885.315	63.12	-22.46	-151.64	-32.144	-20.286	35.182	-0.49451	0.06921	0.41354	0.76129	30.0	13111	100
2025-3-6 14:39:45.574	WT901BLE68-01(48591DE3C19B)	3.849	4.441	0.646	-141.968	47.668	732.544	59.47	-29.11	-147.28	-32.144	-20.286	35.182	-0.49451	0.06921	0.41354	0.76129	30.0	13111	100
2025-3-6 14:39:45.603	WT901BLE68-01(48591DE3C19B)	3.849	13.361	2.086	238.525	-48.340	345.886	57.94	-34.11	-143.99	-32.144	-20.286	35.182	-0.49451	0.06921	0.41354	0.76129	30.0	13111	100
2025-3-6 14:39:45.603	WT901BLE68-01(48591DE3C19B)	2.113	13.361	2.086	238.525	-48.340	345.886	59.18	-37.64	-142.37	-32.144	-20.286	35.182	-0.49451	0.06921	0.41354	0.76129	30.0	13111	100
2025-3-6 14:39:45.603	WT901BLE68-01(48591DE3C19B)	2.113	15.898	2.044	108.643	74.524	-227.722	60.57	-38.30	-141.95	-32.144	-20.286	35.182	-0.49451	0.06921	0.41354	0.76129	30.0	13111	100
2025-3-6 14:39:45.604	WT901BLE68-01(48591DE3C19B)	4.274	15.898	2.044	108.643	74.524	-227.722	62.08	-36.06	-142.60	-32.144	-20.286	35.182	-0.49451	0.06921	0.41354	0.76129	30.0	13111	100
2025-3-6 14:39:45.635	WT901BLE68-01(48591DE3C19B)	4.274	9.953	0.071	-118.225	177.612	-678.650	62.79	-31.51	-143.82	-32.144	-20.286	35.182	-0.49451	0.06921	0.41354	0.76129	30.0	13111	100
2025-3-6 14:39:45.635	WT901BLE68-01(48591DE3C19B)	6.513	9.953	0.071	-118.225	177.612	-678.650	62.56	-24.75	-145.59	-32.144	-20.286	35.182	-0.49451	0.06921	0.41354	0.76129	30.0	13111	100
2025-3-6 14:39:45.635	WT901BLE68-01(48591DE3C19B)	6.513	-0.108	0.315	-114.929	21.301	-888.916	62.54	-17.45	-148.51	-32.144	-20.286	35.182	-0.27509	-0.03369	0.52432	0.80508	30.0	13111	100
2025-3-6 14:39:45.635	WT901BLE68-01(48591DE3C19B)	3.716	-0.108	0.315	-114.929	21.301	-888.916	62.46	-9.65	-152.50	-32.144	-20.286	35.182	-0.27509	-0.03369	0.52432	0.80508	30.0	13111	100
2025-3-6 14:39:45.724	WT901BLE68-01(48591DE3C19B)	3.716	-10.102	0.678	-44.800	64.575	-802.429	62.17	-2.22	-156.00	-32.144	-20.286	35.182	-0.27509	-0.03369	0.52432	0.80508	30.0	13111	100
2025-3-6 14:39:45.724	WT901BLE68-01(48591DE3C19B)	-1.183	-10.102	0.678	-44.800	64.575	-802.429	61.75	4.80	-159.11	-32.144	-20.286	35.182	-0.27509	-0.03369	0.52432	0.80508	30.0	13111	100
2025-3-6 14:39:45.724	WT901BLE68-01(48591DE3C19B)	-1.183	-15.973	-2.343	158.203	76.416	-150.269	62.18	8.85	-160.71	-32.144	-20.286	35.182	-0.27509	-0.03369	0.52432	0.80508	30.0	13111	100
2025-3-6 14:39:45.725	WT901BLE68-01(48591DE3C19B)	1.315	-15.973	-2.343	158.203	76.416	-150.269	63.67	9.97	-160.74	-32.144	-20.286	35.182	-0.27509	-0.03369	0.52432	0.80508	30.0	13111	100
2025-3-6 14:39:45.754	WT901BLE68-01(48591DE3C19B)	1.315	-13.116	-3.387	128.357	-67.078	657.532	65.03	7.11	-159.68	-32.144	-20.286	35.182	-0.27509	-0.03369	0.52432	0.80508	30.0	13111	100
2025-3-6 14:39:45.754	WT901BLE68-01(48591DE3C19B)	7.242	-13.116	-3.387	128.357	-67.078	657.532	66.14	0.28	-157.63	-32.144	-20.286	35.182	-0.27509	-0.03369	0.52432	0.80508	30.0	13111	100
2025-3-6 14:39:45.754	WT901BLE68-01(48591DE3C19B)	7.242	-4.766	-2.478	97.046	-77.515	1018.066	66.73	-8.23	-155.00	-32.144	-20.286	35.182	-0.27509	-0.03369	0.52432	0.80508	30.0	13111	100
2025-3-6 14:39:45.754	WT901BLE68-01(48591DE3C19B)	8.197	-4.766	-2.478	97.046	-77.515	1018.066	66.57	-18.40	-151.63	-32.144	-20.286	35.182	-0.27509	-0.03369	0.52432	0.80508	30.0	13111	100
2025-3-6 14:39:45.755	WT901BLE68-01(48591DE3C19B)	8.197	5.543	-0.824	87.891	-98.938	893.921	65.85	-27.98	-148.36	-32.144	-20.286	35.182	-0.27509	-0.03369	0.52432	0.80508	30.0	13111	100
2025-3-6 14:39:45.755	WT901BLE68-01(48591DE3C19B)	5.167	5.543	-0.824	87.891	-98.938	893.921	64.61	-36.93	-145.05	-32.144	-20.286	35.182	-0.27509	-0.03369	0.52432	0.80508	30.0	13111	100
2025-3-6 14:39:45.755	WT901BLE68-01(48591DE3C19B)	5.167	14.796	2.452	-29.175	-167.603	481.445	63.11	-44.05	-142.76	-32.144	-20.286	35.182	-0.27509	-0.03369	0.52432	0.80508	30.0	13111	100
2025-3-6 14:39:45.755	WT901BLE68-01(48591DE3C19B)	3.292	14.796	2.452	-29.175	-167.603	481.445	61.91	-49.37	-141.85	-32.144	-20.286	35.182	-0.27509	-0.03369	0.52432	0.80508	30.0	13111	100
2025-3-6 14:39:45.815	WT901BLE68-01(48591DE3C19B)	3.292	15.999	4.218	-161.011	-65.186	-125.854	61.23	-51.66	-142.36	-32.144	-20.286	35.182	-0.27509	-0.03369	0.52432	0.80508	30.0	13111	100
2025-3-6 14:39:45.815	WT901BLE68-01(48591DE3C19B)	5.173	15.999	4.218	-161.011	-65.186	-125.854	61.20	-50.94	-144.40	-32.144	-20.286	35.182	-0.27509	-0.03369	0.52432	0.80508	30.0	13111	100
2025-3-6 14:39:45.815	WT901BLE68-01(48591DE3C19B)	5.173	9.836	2.370	-194.946	146.118	-684.204	61.41	-47.20	-146.96	-32.144	-20.286	35.182	-0.27509	-0.03369	0.52432	0.80508	30.0	13111	100
2025-3-6 14:39:45.815	WT901BLE68-01(48591DE3C19B)	5.756	9.836	2.370	-194.946	146.118	-684.204	61.48	-40.52	-149.77	-32.144	-20.286	35.182	-0.27509	-0.03369	0.52432	0.80508	30.0	13111	100
2025-3-6 14:39:45.844	WT901BLE68-01(48591DE3C19B)	5.756	-1.124	1.213	-123.413	120.544	-843.201	61.84	-33.23	-152.85	-34.006	-15.680	30.674	-0.27509	-0.03369	0.52432	0.80508	30.0	13111	100
2025-3-6 14:39:45.844	WT901BLE68-01(48591DE3C19B)	3.708	-1.124	1.213	-123.413	120.544	-843.201	62.31	-25.33	-156.13	-34.006	-15.680	30.674	-0.27509	-0.03369	0.52432	0.80508	30.0	13111	100
2025-3-6 14:39:45.845	WT901BLE68-01(48591DE3C19B)	3.708	-8.078	0.082	121.582	151.672	-739.258	63.35	-17.89	-158.70	-34.006	-15.680	30.674	-0.27509	-0.03369	0.52432	0.80508	30.0	13111	100
2025-3-6 14:39:45.845	WT901BLE68-01(48591DE3C19B)	-0.827	-8.078	0.082	121.582	151.672	-739.258	65.09	-10.85	-160.54	-34.006	-15.680	30.674	-0.27509	-0.03369	0.52432	0.80508	30.0	13111	100
2025-3-6 14:39:45.885	WT901BLE68-01(48591DE3C19B)	-0.827	-13.743	-1.728	207.825	120.911	-337.524	66.90	-5.77	-161.47	-34.006	-15.680	30.674	-0.27509	-0.03369	0.52432	0.80508	30.0	13111	100
2025-3-6 14:39:45.885	WT901BLE68-01(48591DE3C19B)	-0.317	-13.743	-1.728	207.825	120.911	-337.524	68.91	-2.66	-161.63	-34.006	-15.680	30.674	-0.27509	-0.03369	0.52432	0.80508	30.0	13111	100
2025-3-6 14:39:45.885	WT901BLE68-01(48591DE3C19B)	-0.317	-14.546	-2.916	74.707	44.067	389.282	70.09	-3.15	-160.83	-34.006	-15.680	30.674	-0.27509	-0.03369	0.52432	0.80508	30.0	13111	100
2025-3-6 14:39:45.885	WT901BLE68-01(48591DE3C19B)	5.424	-14.546	-2.916	74.707	44.067	389.282	70.38	-7.21	-159.15	-34.006	-15.680	30.674	-0.27509	-0.03369	0.52432	0.80508	30.0	13111	100
2025-3-6 14:39:45.934	WT901BLE68-01(48591DE3C19B)	5.424	-7.163	-2.355	65.552	26.794	878.723	70.30	-13.58	-156.68	-34.006	-15.680	30.674	-0.27509	-0.03369	0.52432	0.80508	30.0	13111	100
2025-3-6 14:39:45.935	WT901BLE68-01(48591DE3C19B)	7.639	-7.163	-2.355	65.552	26.794	878.723	69.53	-22.24	-153.27	-34.006	-15.680	30.674	-0.27509	-0.03369	0.52432	0.80508	30.0	13111	100
2025-3-6 14:39:45.935	WT901BLE68-01(48591DE3C19B)	7.639	3.386	-0.983	-122.314	9.033	848.328	67.23	-30.68	-149.57	-34.006	-15.680	30.674	-0.27509	-0.03369	0.52432	0.80508	30.0	13111	100
2025-3-6 14:39:45.935	WT901BLE68-01(48591DE3C19B)	5.242	3.386	-0.983	-122.314	9.033	848.328	63.12	-38.76	-145.15	-34.006	-15.680	30.674	-0.27509	-0.03369	0.52432	0.80508	30.0	13111	100
2025-3-6 14:39:45.963	WT901BLE68-01(48591DE3C19B)	5.242	12.851	2.689	-123.047	-173.767	568.176	59.15	-45.73	-141.54	-34.006	-15.680	30.674	-0.27509	-0.03369	0.52432	0.80508	30.0	13111	100
2025-3-6 14:39:45.963	WT901BLE68-01(48591DE3C19B)	2.537	12.851	2.689	-123.047	-173.767	568.176	55.89	-51.73	-139.21	-34.006	-15.680	30.674	-0.27509	-0.03369	0.52432	0.80508	30.0	13111	100
2025-3-6 14:39:45.964	WT901BLE68-01(48591DE3C19B)	2.537	15.999	4.848	-39.001	-100.952	47.668	54.17	-55.22	-138.29	-34.006	-15.680	30.674	-0.27509	-0.03369	0.52432	0.80508	30.0	13111	100
2025-3-6 14:39:45.964	WT901BLE68-01(48591DE3C19B)	3.569	15.999	4.848	-39.001	-100.952	47.668	54.65	-56.26	-139.42	-34.006	-15.680	30.674	-0.27509	-0.03369	0.52432	0.80508	30.0	13111	100
2025-3-6 14:39:45.996	WT901BLE68-01(48591DE3C19B)	3.569	11.243	2.682	-149.963	115.967	-496.765	55.62	-54.36	-141.72	-34.006	-15.680	30.674	-0.27509	-0.03369	0.52432	0.80508	30.0	13111	100
2025-3-6 14:39:45.996	WT901BLE68-01(48591DE3C19B)	4.926	11.243	2.682	-149.963	115.967	-496.765	56.57	-49.56	-144.75	-34.006	-15.680	30.674	-0.27509	-0.03369	0.52432	0.80508	30.0	13111	100
2025-3-6 14:39:45.996	WT901BLE68-01(48591DE3C19B)	4.926	1.760	1.022	-122.192	161.499	-774.536	57.74	-43.45	-148.12	-34.006	-15.680	30.674	-0.27509	-0.03369	0.52432	0.80508	30.0	13111	100
2025-3-6 14:39:45.996	WT901BLE68-01(48591DE3C19B)	4.199	1.760	1.022	-122.192	161.499	-774.536	58.85	-36.05	-151.62	-34.006	-15.680	30.674	-0.27509	-0.03369	0.52432	0.80508	30.0	13111	100
2025-3-6 14:39:46.54	WT901BLE68-01(48591DE3C19B)	4.199	-5.064	0.949	-131.958	163.879	-677.490	59.16	-29.08	-154.36	-34.006	-15.680	30.674	-0.27509	-0.03369	0.52432	0.80508	30.0	13111	100
2025-3-6 14:39:46.55	WT901BLE68-01(48591DE3C19B)	0.493	-5.064	0.949	-131.958	163.879	-677.490	58.91	-22.59	-156.61	-34.006	-15.680	30.674	-0.26736	0.06924	0.50677	0.81656	30.0	13111	100
2025-3-6 14:39:46.55	WT901BLE68-01(48591DE3C19B)	0.493	-11.458	-0.557	120.422	230.652	-487.244	60.32	-17.48	-157.06	-34.006	-15.680	30.674	-0.26736	0.06924	0.50677	0.81656	30.0	13111	100
2025-3-6 14:39:46.55	WT901BLE68-01(48591DE3C19B)	-1.462	-11.458	-0.557	120.422	230.652	-487.244	61.57	-12.47	-157.37	-34.006	-15.680	30.674	-0.26736	0.06924	0.50677	0.81656	30.0	13111	100
2025-3-6 14:39:46.84	WT901BLE68-01(48591DE3C19B)	-1.462	-14.001	-3.355	193.909	174.194	159.424	62.83	-13.52	-155.02	-34.006	-15.680	30.674	-0.26736	0.06924	0.50677	0.81656	30.0	13111	100
2025-3-6 14:39:46.84	WT901BLE68-01(48591DE3C19B)	2.947	-14.001	-3.355	193.909	174.194	159.424	63.91	-14.67	-152.67	-34.006	-15.680	30.674	-0.26736	0.06924	0.50677	0.81656	30.0	13111	100
2025-3-6 14:39:46.84	WT901BLE68-01(48591DE3C19B)	2.947	-8.472	-3.817	13.672	38.452	761.780	62.46	-21.78	-148.69	-34.006	-15.680	30.674	-0.26736	0.06924	0.50677	0.81656	30.0	13111	100
2025-3-6 14:39:46.84	WT901BLE68-01(48591DE3C19B)	6.334	-8.472	-3.817	13.672	38.452	761.780	60.34	-28.75	-144.26	-34.006	-15.680	30.674	-0.26736	0.06924	0.50677	0.81656	30.0	13111	100
2025-3-6 14:39:46.114	WT901BLE68-01(48591DE3C19B)	6.334	1.017	-2.071	-127.075	-5.920	779.724	56.11	-35.84	-139.42	-34.006	-15.680	30.674	-0.26736	0.06924	0.50677	0.81656	30.0	13111	100
2025-3-6 14:39:46.114	WT901BLE68-01(48591DE3C19B)	4.959	1.017	-2.071	-127.075	-5.920	779.724	50.70	-42.53	-133.46	-34.006	-15.680	30.674	-0.26736	0.06924	0.50677	0.81656	30.0	13111	100
2025-3-6 14:39:46.114	WT901BLE68-01(48591DE3C19B)	4.959	8.339	0.900	-156.067	-266.418	577.087	46.96	-48.97	-130.88	-34.006	-15.680	30.674	-0.26736	0.06924	0.50677	0.81656	30.0	13111	100
2025-3-6 14:39:46.114	WT901BLE68-01(48591DE3C19B)	3.279	8.339	0.900	-156.067	-266.418	577.087	42.30	-55.20	-127.30	-34.006	-15.680	30.674	-0.26736	0.06924	0.50677	0.81656	30.0	13111	100
2025-3-6 14:39:46.174	WT901BLE68-01(48591DE3C19B)	3.279	15.797	5.568	-22.034	-266.174	144.592	43.21	-58.31	-128.83	-34.006	-15.680	30.674	-0.26736	0.06924	0.50677	0.81656	30.0	13111	100
2025-3-6 14:39:46.174	WT901BLE68-01(48591DE3C19B)	3.309	15.797	5.568	-22.034	-266.174	144.592	44.56	-61.27	-130.65	-34.006	-15.680	30.674	-0.26736	0.06924	0.50677	0.81656	30.0	13111	100
2025-3-6 14:39:46.174	WT901BLE68-01(48591DE3C19B)	3.309	14.226	4.146	-74.158	35.217	-427.063	48.61	-57.88	-136.15	-34.006	-15.680	30.674	-0.26736	0.06924	0.50677	0.81656	30.0	13111	100
2025-3-6 14:39:46.174	WT901BLE68-01(48591DE3C19B)	5.842	14.226	4.146	-74.158	35.217	-427.063	51.73	-54.28	-140.70	-34.006	-15.680	30.674	-0.26736	0.06924	0.50677	0.81656	30.0	13111	100
2025-3-6 14:39:46.205	WT901BLE68-01(48591DE3C19B)	5.842	3.498	1.518	-89.478	171.021	-826.416	55.27	-46.57	-146.32	-34.006	-15.680	30.674	-0.26736	0.06924	0.50677	0.81656	30.0	13111	100
2025-3-6 14:39:46.205	WT901BLE68-01(48591DE3C19B)	5.161	3.498	1.518	-89.478	171.021	-826.416	57.39	-38.74	-150.61	-34.006	-15.680	30.674	-0.26736	0.06924	0.50677	0.81656	30.0	13111	100
2025-3-6 14:39:46.205	WT901BLE68-01(48591DE3C19B)	5.161	-5.215	1.370	0.366	76.965	-807.495	59.96	-31.51	-154.89	-34.006	-15.680	30.674	-0.26736	0.06924	0.50677	0.81656	30.0	13111	100
2025-3-6 14:39:46.205	WT901BLE68-01(48591DE3C19B)	0.750	-5.215	1.370	0.366	76.965	-807.495	61.73	-24.25	-158.49	-34.006	-15.680	30.674	-0.26736	0.06924	0.50677	0.81656	30.0	13111	100
2025-3-6 14:39:46.233	WT901BLE68-01(48591DE3C19B)	0.750	-13.014	-0.183	78.613	169.434	-530.457	62.90	-19.03	-159.45	-34.006	-15.680	30.674	-0.26736	0.06924	0.50677	0.81656	30.0	13111	100
2025-3-6 14:39:46.234	WT901BLE68-01(48591DE3C19B)	-1.524	-13.014	-0.183	78.613	169.434	-530.457	63.86	-13.90	-160.28	-34.006	-15.680	30.674	-0.26736	0.06924	0.50677	0.81656	30.0	13111	100
2025-3-6 14:39:46.234	WT901BLE68-01(48591DE3C19B)	-1.524	-15.451	-3.594	113.525	117.004	176.819	64.32	-15.45	-158.36	-41.258	-4.606	32.634	-0.26736	0.06924	0.50677	0.81656	30.0	13111	100
2025-3-6 14:39:46.234	WT901BLE68-01(48591DE3C19B)	3.536	-15.451	-3.594	113.525	117.004	176.819	64.63	-17.03	-156.43	-41.258	-4.606	32.634	-0.26736	0.06924	0.50677	0.81656	30.0	13111	100
2025-3-6 14:39:46.294	WT901BLE68-01(48591DE3C19B)	3.536	-8.874	-3.172	26.367	31.860	799.744	63.09	-24.56	-152.31	-41.258	-4.606	32.634	-0.26736	0.06924	0.50677	0.81656	30.0	13111	100
2025-3-6 14:39:46.294	WT901BLE68-01(48591DE3C19B)	7.057	-8.874	-3.172	26.367	31.860	799.744	60.79	-31.93	-147.66	-41.258	-4.606	32.634	-0.26736	0.06924	0.50677	0.81656	30.0	13111	100
2025-3-6 14:39:46.294	WT901BLE68-01(48591DE3C19B)	7.057	1.857	-1.573	-117.554	24.414	831.604	55.94	-39.30	-141.97	-41.258	-4.606	32.634	-0.26736	0.06924	0.50677	0.81656	30.0	13111	100
2025-3-6 14:39:46.294	WT901BLE68-01(48591DE3C19B)	5.279	1.857	-1.573	-117.554	24.414	831.604	49.53	-46.14	-134.77	-41.258	-4.606	32.634	-0.26736	0.06924	0.50677	0.81656	30.0	13111	100
2025-3-6 14:39:46.323	WT901BLE68-01(48591DE3C19B)	5.279	9.994	1.577	-36.194	-213.562	589.661	46.05	-52.25	-131.08	-41.258	-4.606	32.634	-0.26736	0.06924	0.50677	0.81656	30.0	13111	100
2025-3-6 14:39:46.323	WT901BLE68-01(48591DE3C19B)	2.613	9.994	1.577	-36.194	-213.562	589.661	41.46	-58.11	-126.24	-41.258	-4.606	32.634	-0.26736	0.06924	0.50677	0.81656	30.0	13111	100
2025-3-6 14:39:46.323	WT901BLE68-01(48591DE3C19B)	2.613	15.999	4.593	117.737	-181.274	113.647	43.27	-60.36	-127.14	-41.258	-4.606	32.634	-0.26736	0.06924	0.50677	0.81656	30.0	13111	100
2025-3-6 14:39:46.323	WT901BLE68-01(48591DE3C19B)	3.148	15.999	4.593	117.737	-181.274	113.647	45.46	-62.47	-128.34	-41.258	-4.606	32.634	-0.26736	0.06924	0.50677	0.81656	30.0	13111	100
2025-3-6 14:39:46.353	WT901BLE68-01(48591DE3C19B)	3.148	13.511	2.158	-85.999	63.965	-501.160	49.94	-58.28	-134.42	-41.258	-4.606	32.634	-0.26736	0.06924	0.50677	0.81656	30.0	13111	100
2025-3-6 14:39:46.353	WT901BLE68-01(48591DE3C19B)	5.707	13.511	2.158	-85.999	63.965	-501.160	53.18	-53.88	-139.25	-41.258	-4.606	32.634	-0.26736	0.06924	0.50677	0.81656	30.0	13111	100
2025-3-6 14:39:46.353	WT901BLE68-01(48591DE3C19B)	5.707	2.379	0.711	-27.893	57.922	-809.265	58.00	-46.82	-145.73	-41.258	-4.606	32.634	-0.26736	0.06924	0.50677	0.81656	30.0	13111	100
2025-3-6 14:39:46.353	WT901BLE68-01(48591DE3C19B)	4.632	2.379	0.711	-27.893	57.922	-809.265	61.20	-39.56	-150.66	-41.258	-4.606	32.634	-0.26736	0.06924	0.50677	0.81656	30.0	13111	100
2025-3-6 14:39:46.414	WT901BLE68-01(48591DE3C19B)	4.632	-6.275	1.543	7.690	-26.855	-780.457	64.14	-32.83	-155.34	-41.258	-4.606	32.634	-0.26736	0.06924	0.50677	0.81656	30.0	13111	100
2025-3-6 14:39:46.415	WT901BLE68-01(48591DE3C19B)	-0.311	-6.275	1.543	7.690	-26.855	-780.457	66.24	-26.03	-159.30	-41.258	-4.606	32.634	-0.26736	0.06924	0.50677	0.81656	30.0	13111	100
2025-3-6 14:39:46.415	WT901BLE68-01(48591DE3C19B)	-0.311	-14.382	-0.200	62.744	121.582	-440.857	67.12	-21.79	-159.93	-41.258	-4.606	32.634	-0.26736	0.06924	0.50677	0.81656	30.0	13111	100
2025-3-6 14:39:46.415	WT901BLE68-01(48591DE3C19B)	-1.100	-14.382	-0.200	62.744	121.582	-440.857	67.81	-17.66	-160.49	-41.258	-4.606	32.634	-0.26736	0.06924	0.50677	0.81656	30.0	13111	100
2025-3-6 14:39:46.446	WT901BLE68-01(48591DE3C19B)	-1.100	-15.687	-2.930	58.044	93.811	355.713	67.36	-21.04	-158.11	-41.258	-4.606	32.634	-0.25473	0.04572	0.56412	0.78400	30.0	13111	100
2025-3-6 14:39:46.446	WT901BLE68-01(48591DE3C19B)	5.812	-15.687	-2.930	58.044	93.811	355.713	66.64	-24.43	-155.61	-41.258	-4.606	32.634	-0.25473	0.04572	0.56412	0.78400	30.0	13111	100
2025-3-6 14:39:46.446	WT901BLE68-01(48591DE3C19B)	5.812	-7.447	-2.517	36.133	45.898	921.997	64.28	-33.09	-150.70	-41.258	-4.606	32.634	-0.25473	0.04572	0.56412	0.78400	30.0	13111	100
2025-3-6 14:39:46.446	WT901BLE68-01(48591DE3C19B)	8.035	-7.447	-2.517	36.133	45.898	921.997	60.64	-41.47	-144.73	-41.258	-4.606	32.634	-0.25473	0.04572	0.56412	0.78400	30.0	13111	100
2025-3-6 14:39:46.476	WT901BLE68-01(48591DE3C19B)	8.035	4.014	-1.277	-61.768	-0.061	846.619	55.03	-49.00	-138.22	-41.258	-4.606	32.634	-0.25473	0.04572	0.56412	0.78400	30.0	13111	100
2025-3-6 14:39:46.476	WT901BLE68-01(48591DE3C19B)	5.680	4.014	-1.277	-61.768	-0.061	846.619	47.03	-55.89	-129.39	-41.258	-4.606	32.634	-0.25473	0.04572	0.56412	0.78400	30.0	13111	100
2025-3-6 14:39:46.476	WT901BLE68-01(48591DE3C19B)	2.605	13.639	2.850	64.392	-186.096	586.304	42.63	-61.56	-123.87	-41.258	-4.606	32.634	-0.25473	0.04572	0.56412	0.78400	30.0	13111	100
2025-3-6 14:39:46.476	WT901BLE68-01(48591DE3C19B)	2.605	15.999	3.601	-8.301	-1.953	-54.016	40.12	-64.17	-120.98	-41.258	-4.606	32.634	-0.25473	0.04572	0.56412	0.78400	30.0	13111	100
2025-3-6 14:39:46.534	WT901BLE68-01(48591DE3C19B)	4.627	15.999	3.601	-8.301	-1.953	-54.016	41.03	-63.90	-122.22	-41.258	-4.606	32.634	-0.25473	0.04572	0.56412	0.78400	30.0	13111	100
2025-3-6 14:39:46.535	WT901BLE68-01(48591DE3C19B)	4.627	10.799	0.702	-161.987	87.708	-696.899	45.13	-61.02	-127.83	-41.258	-4.606	32.634	-0.25473	0.04572	0.56412	0.78400	30.0	13111	100
2025-3-6 14:39:46.535	WT901BLE68-01(48591DE3C19B)	6.321	10.799	0.702	-161.987	87.708	-696.899	50.26	-55.24	-135.70	-41.258	-4.606	32.634	-0.25473	0.04572	0.56412	0.78400	30.0	13111	100
2025-3-6 14:39:46.535	WT901BLE68-01(48591DE3C19B)	6.321	-0.757	0.918	-29.175	-15.320	-883.545	55.25	-48.74	-143.16	-41.258	-4.606	32.634	-0.25473	0.04572	0.56412	0.78400	30.0	13111	100
2025-3-6 14:39:46.563	WT901BLE68-01(48591DE3C19B)	4.171	-0.757	0.918	-29.175	-15.320	-883.545	59.95	-41.40	-150.08	-41.258	-4.606	32.634	-0.25473	0.04572	0.56412	0.78400	30.0	13111	100
2025-3-6 14:39:46.563	WT901BLE68-01(48591DE3C19B)	4.171	-8.833	1.005	35.522	62.378	-773.682	62.98	-34.13	-154.84	-41.258	-4.606	32.634	-0.25473	0.04572	0.56412	0.78400	30.0	13111	100
2025-3-6 14:39:46.563	WT901BLE68-01(48591DE3C19B)	-0.981	-8.833	1.005	35.522	62.378	-773.682	65.03	-27.13	-158.10	-41.258	-4.606	32.634	-0.25473	0.04572	0.56412	0.78400	30.0	13111	100
2025-3-6 14:39:46.563	WT901BLE68-01(48591DE3C19B)	-0.981	-15.556	-2.158	11.047	126.892	-280.823	65.85	-22.27	-159.54	-41.258	-4.606	32.634	-0.25473	0.04572	0.56412	0.78400	30.0	13111	100
2025-3-6 14:39:46.596	WT901BLE68-01(48591DE3C19B)	0.955	-15.556	-2.158	11.047	126.892	-280.823	65.81	-19.61	-159.54	-41.258	-4.606	32.634	-0.25473	0.04572	0.56412	0.78400	30.0	13111	100
2025-3-6 14:39:46.596	WT901BLE68-01(48591DE3C19B)	0.955	-14.933	-3.287	10.681	43.823	570.618	65.16	-21.05	-158.07	-41.258	-4.606	32.634	-0.25473	0.04572	0.56412	0.78400	30.0	13111	100
2025-3-6 14:39:46.596	WT901BLE68-01(48591DE3C19B)	7.792	-14.933	-3.287	10.681	43.823	570.618	63.67	-26.49	-154.92	-41.258	-4.606	32.634	-0.25473	0.04572	0.56412	0.78400	30.0	13111	100
2025-3-6 14:39:46.596	WT901BLE68-01(48591DE3C19B)	7.792	-4.432	-2.117	64.087	59.265	935.791	61.38	-33.39	-150.30	-41.258	-4.606	32.634	-0.25473	0.04572	0.56412	0.78400	30.0	13111	100
2025-3-6 14:39:46.653	WT901BLE68-01(48591DE3C19B)	7.763	-4.432	-2.117	64.087	59.265	935.791	57.57	-41.57	-143.60	-41.258	-4.606	32.634	-0.25473	0.04572	0.56412	0.78400	30.0	13111	100
2025-3-6 14:39:46.653	WT901BLE68-01(48591DE3C19B)	7.763	6.580	-0.126	-48.218	-46.021	809.448	52.10	-49.04	-136.29	-35.868	-10.290	30.870	-0.25473	0.04572	0.56412	0.78400	30.0	13111	100
2025-3-6 14:39:46.654	WT901BLE68-01(48591DE3C19B)	4.440	6.580	-0.126	-48.218	-46.021	809.448	44.64	-55.70	-127.95	-35.868	-10.290	30.870	-0.25473	0.04572	0.56412	0.78400	30.0	13111	100
2025-3-6 14:39:46.654	WT901BLE68-01(48591DE3C19B)	4.440	15.442	3.888	-58.044	-207.031	466.919	37.29	-61.08	-120.29	-35.868	-10.290	30.870	-0.25473	0.04572	0.56412	0.78400	30.0	13111	100
2025-3-6 14:39:46.684	WT901BLE68-01(48591DE3C19B)	2.248	15.442	3.888	-58.044	-207.031	466.919	31.18	-65.58	-114.38	-35.868	-10.290	30.870	-0.25473	0.04572	0.56412	0.78400	30.0	13111	100
2025-3-6 14:39:46.684	WT901BLE68-01(48591DE3C19B)	2.248	15.926	3.493	-186.768	-16.663	-275.391	29.56	-67.13	-114.07	-35.868	-10.290	30.870	-0.25473	0.04572	0.56412	0.78400	30.0	13111	100
2025-3-6 14:39:46.684	WT901BLE68-01(48591DE3C19B)	5.500	15.926	3.493	-186.768	-16.663	-275.391	33.62	-65.84	-120.55	-35.868	-10.290	30.870	-0.25473	0.04572	0.56412	0.78400	30.0	13111	100
2025-3-6 14:39:46.684	WT901BLE68-01(48591DE3C19B)	5.500	7.092	1.410	-196.411	107.239	-780.151	40.23	-62.26	-129.94	-35.868	-10.290	30.870	-0.25473	0.04572	0.56412	0.78400	30.0	13111	100
2025-3-6 14:39:46.744	WT901BLE68-01(48591DE3C19B)	6.285	7.092	1.410	-196.411	107.239	-780.151	46.77	-56.05	-139.72	-35.868	-10.290	30.870	-0.25473	0.04572	0.56412	0.78400	30.0	13111	100
2025-3-6 14:39:46.744	WT901BLE68-01(48591DE3C19B)	6.285	-2.919	1.790	-27.466	61.401	-840.759	51.95	-49.35	-147.49	-35.868	-10.290	30.870	-0.25473	0.04572	0.56412	0.78400	30.0	13111	100
2025-3-6 14:39:46.744	WT901BLE68-01(48591DE3C19B)	2.926	-2.919	1.790	-27.466	61.401	-840.759	56.34	-42.21	-153.84	-35.868	-10.290	30.870	-0.25473	0.04572	0.56412	0.78400	30.0	13111	100
2025-3-6 14:39:46.745	WT901BLE68-01(48591DE3C19B)	2.926	-11.413	0.380	35.034	203.674	-668.762	58.82	-35.27	-157.55	-35.868	-10.290	30.870	-0.25473	0.04572	0.56412	0.78400	30.0	13111	100
2025-3-6 14:39:46.806	WT901BLE68-01(48591DE3C19B)	-1.650	-11.413	0.380	35.034	203.674	-668.762	60.19	-28.71	-159.42	-35.868	-10.290	30.870	-0.25473	0.04572	0.56412	0.78400	30.0	13111	100
2025-3-6 14:39:46.806	WT901BLE68-01(48591DE3C19B)	-1.650	-16.000	-4.027	112.610	203.552	-47.546	60.89	-24.94	-159.38	-35.868	-10.290	30.870	-0.25473	0.04572	0.56412	0.78400	30.0	13111	100
2025-3-6 14:39:46.806	WT901BLE68-01(48591DE3C19B)	2.930	-16.000	-4.027	112.610	203.552	-47.546	61.12	-23.97	-157.65	-35.868	-10.290	30.870	-0.25473	0.04572	0.56412	0.78400	30.0	13111	100
2025-3-6 14:39:46.806	WT901BLE68-01(48591DE3C19B)	2.930	-12.597	-4.279	-1.160	92.285	727.905	60.01	-26.69	-154.35	-35.868	-10.290	30.870	-0.25473	0.04572	0.56412	0.78400	30.0	13111	100
2025-3-6 14:39:46.807	WT901BLE68-01(48591DE3C19B)	8.249	-12.597	-4.279	-1.160	92.285	727.905	57.01	-32.87	-149.01	-35.868	-10.290	30.870	-0.25473	0.04572	0.56412	0.78400	30.0	13111	100
2025-3-6 14:39:46.807	WT901BLE68-01(48591DE3C19B)	8.249	-0.835	-2.190	-69.214	40.344	897.156	52.43	-39.55	-142.43	-35.868	-10.290	30.870	-0.25473	0.04572	0.56412	0.78400	30.0	13111	100
2025-3-6 14:39:46.807	WT901BLE68-01(48591DE3C19B)	6.679	-0.835	-2.190	-69.214	40.344	897.156	45.53	-46.44	-133.85	-35.868	-10.290	30.870	-0.25473	0.04572	0.56412	0.78400	30.0	13111	100
2025-3-6 14:39:46.807	WT901BLE68-01(48591DE3C19B)	6.679	9.718	1.262	-57.678	-206.848	716.858	38.07	-52.77	-125.29	-35.868	-10.290	30.870	-0.25473	0.04572	0.56412	0.78400	30.0	13111	100
2025-3-6 14:39:46.864	WT901BLE68-01(48591DE3C19B)	3.237	9.718	1.262	-57.678	-206.848	716.858	30.08	-58.76	-116.71	-35.868	-10.290	30.870	-0.25473	0.04572	0.56412	0.78400	30.0	13111	100
2025-3-6 14:39:46.864	WT901BLE68-01(48591DE3C19B)	3.237	15.999	5.283	-12.634	-249.084	220.215	23.85	-63.12	-110.26	-35.868	-10.290	30.870	-0.56573	0.33154	0.43982	0.61356	30.0	13111	100
2025-3-6 14:39:46.864	WT901BLE68-01(48591DE3C19B)	3.189	15.999	5.283	-12.634	-249.084	220.215	21.49	-66.38	-107.96	-35.868	-10.290	30.870	-0.56573	0.33154	0.43982	0.61356	30.0	13111	100
2025-3-6 14:39:46.864	WT901BLE68-01(48591DE3C19B)	3.189	14.871	3.209	-186.340	96.619	-484.009	24.35	-66.63	-112.16	-35.868	-10.290	30.870	-0.56573	0.33154	0.43982	0.61356	30.0	13111	100
2025-3-6 14:39:46.893	WT901BLE68-01(48591DE3C19B)	5.776	14.871	3.209	-186.340	96.619	-484.009	31.14	-63.50	-121.65	-35.868	-10.290	30.870	-0.56573	0.33154	0.43982	0.61356	30.0	13111	100
2025-3-6 14:39:46.893	WT901BLE68-01(48591DE3C19B)	5.776	3.048	0.985	-69.641	119.385	-804.321	38.73	-58.88	-131.64	-35.868	-10.290	30.870	-0.56573	0.33154	0.43982	0.61356	30.0	13111	100
2025-3-6 14:39:46.893	WT901BLE68-01(48591DE3C19B)	5.666	3.048	0.985	-69.641	119.385	-804.321	45.83	-52.55	-140.93	-35.868	-10.290	30.870	-0.56573	0.33154	0.43982	0.61356	30.0	13111	100
2025-3-6 14:39:46.893	WT901BLE68-01(48591DE3C19B)	5.666	-4.733	1.801	84.290	22.400	-826.050	51.69	-45.97	-148.41	-35.868	-10.290	30.870	-0.56573	0.33154	0.43982	0.61356	30.0	13111	100
2025-3-6 14:39:46.923	WT901BLE68-01(48591DE3C19B)	1.409	-4.733	1.801	84.290	22.400	-826.050	56.89	-39.21	-154.68	-35.868	-10.290	30.870	-0.56573	0.33154	0.43982	0.61356	30.0	13111	100
2025-3-6 14:39:46.923	WT901BLE68-01(48591DE3C19B)	1.409	-12.576	-0.616	95.947	154.053	-630.676	60.06	-32.72	-158.39	-35.868	-10.290	30.870	-0.56573	0.33154	0.43982	0.61356	30.0	13111	100
2025-3-6 14:39:46.923	WT901BLE68-01(48591DE3C19B)	-1.513	-12.576	-0.616	95.947	154.053	-630.676	61.97	-26.74	-160.30	-35.868	-10.290	30.870	-0.56573	0.33154	0.43982	0.61356	30.0	13111	100
2025-3-6 14:39:46.923	WT901BLE68-01(48591DE3C19B)	-1.513	-16.000	-3.954	27.161	107.117	130.737	62.49	-24.31	-160.26	-35.868	-10.290	30.870	-0.56573	0.33154	0.43982	0.61356	30.0	13111	100
2025-3-6 14:39:46.983	WT901BLE68-01(48591DE3C19B)	4.642	-16.000	-3.954	27.161	107.117	130.737	61.80	-25.42	-158.51	-35.868	-10.290	30.870	-0.56573	0.33154	0.43982	0.61356	30.0	13111	100
2025-3-6 14:39:46.983	WT901BLE68-01(48591DE3C19B)	4.642	-10.368	-2.913	-18.005	48.645	869.446	59.91	-29.88	-154.93	-35.868	-10.290	30.870	-0.56573	0.33154	0.43982	0.61356	30.0	13111	100
2025-3-6 14:39:46.983	WT901BLE68-01(48591DE3C19B)	8.587	-10.368	-2.913	-18.005	48.645	869.446	56.01	-37.44	-148.80	-35.868	-10.290	30.870	-0.56573	0.33154	0.43982	0.61356	30.0	13111	100
2025-3-6 14:39:46.983	WT901BLE68-01(48591DE3C19B)	8.587	1.470	-0.787	-116.577	6.470	879.883	49.76	-44.81	-141.58	-35.868	-10.290	30.870	-0.56573	0.33154	0.43982	0.61356	30.0	13111	100
2025-3-6 14:39:47.14	WT901BLE68-01(48591DE3C19B)	5.835	1.470	-0.787	-116.577	6.470	879.883	41.26	-51.38	-132.15	-35.868	-10.290	30.870	-0.56573	0.33154	0.43982	0.61356	30.0	13111	100
2025-3-6 14:39:47.15	WT901BLE68-01(48591DE3C19B)	5.835	10.032	2.003	31.433	-181.519	670.654	35.47	-57.23	-124.97	-35.868	-10.290	30.870	-0.56573	0.33154	0.43982	0.61356	30.0	13111	100
2025-3-6 14:39:47.15	WT901BLE68-01(48591DE3C19B)	2.666	10.032	2.003	31.433	-181.519	670.654	27.30	-62.48	-115.44	-35.868	-10.290	30.870	-0.56573	0.33154	0.43982	0.61356	30.0	13111	100
2025-3-6 14:39:47.15	WT901BLE68-01(48591DE3C19B)	2.666	15.999	4.157	160.889	-109.741	170.105	26.87	-64.35	-113.32	-35.868	-10.290	30.870	-0.56573	0.33154	0.43982	0.61356	30.0	13111	100
2025-3-6 14:39:47.43	WT901BLE68-01(48591DE3C19B)	3.039	15.999	4.157	160.889	-109.741	170.105	26.50	-66.14	-111.20	-35.868	-10.290	30.870	-0.56573	0.33154	0.43982	0.61356	30.0	13111	100
2025-3-6 14:39:47.43	WT901BLE68-01(48591DE3C19B)	3.039	14.706	1.251	-156.982	35.889	-482.910	33.79	-63.40	-120.96	-35.868	-10.290	30.870	-0.56573	0.33154	0.43982	0.61356	30.0	13111	100
2025-3-6 14:39:47.43	WT901BLE68-01(48591DE3C19B)	5.848	14.706	1.251	-156.982	35.889	-482.910	39.43	-60.17	-129.03	-31.752	-19.404	31.752	-0.56573	0.33154	0.43982	0.61356	30.0	13111	100
2025-3-6 14:39:47.43	WT901BLE68-01(48591DE3C19B)	5.848	2.820	0.530	-157.349	1.892	-871.704	47.88	-54.06	-140.81	-31.752	-19.404	31.752	-0.56573	0.33154	0.43982	0.61356	30.0	13111	100
2025-3-6 14:39:47.103	WT901BLE68-01(48591DE3C19B)	5.459	2.820	0.530	-157.349	1.892	-871.704	53.25	-47.29	-149.58	-31.752	-19.404	31.752	-0.56573	0.33154	0.43982	0.61356	30.0	13111	100
2025-3-6 14:39:47.103	WT901BLE68-01(48591DE3C19B)	5.459	-5.132	1.492	-79.407	32.104	-815.125	56.82	-40.46	-155.68	-31.752	-19.404	31.752	-0.56573	0.33154	0.43982	0.61356	30.0	13111	100
2025-3-6 14:39:47.103	WT901BLE68-01(48591DE3C19B)	0.853	-5.132	1.492	-79.407	32.104	-815.125	59.16	-33.51	-160.69	-31.752	-19.404	31.752	-0.56573	0.33154	0.43982	0.61356	30.0	13111	100
2025-3-6 14:39:47.104	WT901BLE68-01(48591DE3C19B)	0.853	-13.357	-1.777	-6.042	166.138	-507.568	59.83	-28.53	-161.97	-31.752	-19.404	31.752	-0.56573	0.33154	0.43982	0.61356	30.0	13111	100
2025-3-6 14:39:47.133	WT901BLE68-01(48591DE3C19B)	-1.239	-13.357	-1.777	-6.042	166.138	-507.568	60.27	-23.65	-163.14	-31.752	-19.404	31.752	-0.56573	0.33154	0.43982	0.61356	30.0	13111	100
2025-3-6 14:39:47.133	WT901BLE68-01(48591DE3C19B)	-1.239	-15.749	-4.630	54.260	53.406	243.225	59.88	-25.94	-161.28	-31.752	-19.404	31.752	-0.56573	0.33154	0.43982	0.61356	30.0	13111	100
2025-3-6 14:39:47.133	WT901BLE68-01(48591DE3C19B)	4.683	-15.749	-4.630	54.260	53.406	243.225	59.28	-28.25	-159.34	-31.752	-19.404	31.752	-0.56573	0.33154	0.43982	0.61356	30.0	13111	100
2025-3-6 14:39:47.133	WT901BLE68-01(48591DE3C19B)	4.683	-8.449	-2.817	7.141	0.305	850.647	56.16	-35.91	-153.91	-31.752	-19.404	31.752	-0.56573	0.33154	0.43982	0.61356	30.0	13111	100
2025-3-6 14:39:47.163	WT901BLE68-01(48591DE3C19B)	7.495	-8.449	-2.817	7.141	0.305	850.647	51.70	-43.21	-147.30	-31.752	-19.404	31.752	-0.56573	0.33154	0.43982	0.61356	30.0	13111	100
2025-3-6 14:39:47.163	WT901BLE68-01(48591DE3C19B)	7.495	1.782	-0.651	-40.161	-9.216	820.251	45.20	-49.80	-139.36	-31.752	-19.404	31.752	-0.56573	0.33154	0.43982	0.61356	30.0	13111	100
2025-3-6 14:39:47.163	WT901BLE68-01(48591DE3C19B)	5.565	1.782	-0.651	-40.161	-9.216	820.251	36.28	-55.55	-129.05	-31.752	-19.404	31.752	-0.56573	0.33154	0.43982	0.61356	30.0	13111	100
2025-3-6 14:39:47.163	WT901BLE68-01(48591DE3C19B)	5.565	10.750	2.786	64.087	-149.353	632.385	29.32	-60.49	-120.42	-31.752	-19.404	31.752	-0.56573	0.33154	0.43982	0.61356	30.0	13111	100
2025-3-6 14:39:47.224	WT901BLE68-01(48591DE3C19B)	2.551	10.750	2.786	64.087	-149.353	632.385	19.82	-64.67	-109.27	-31.752	-19.404	31.752	-0.56573	0.33154	0.43982	0.61356	30.0	13111	100
2025-3-6 14:39:47.224	WT901BLE68-01(48591DE3C19B)	2.551	15.999	4.204	24.414	-124.023	114.929	18.64	-66.34	-107.84	-31.752	-19.404	31.752	-0.56573	0.33154	0.43982	0.61356	30.0	13111	100
2025-3-6 14:39:47.224	WT901BLE68-01(48591DE3C19B)	3.426	15.999	4.204	24.414	-124.023	114.929	17.57	-67.93	-106.42	-31.752	-19.404	31.752	-0.56573	0.33154	0.43982	0.61356	30.0	13111	100
2025-3-6 14:39:47.224	WT901BLE68-01(48591DE3C19B)	3.426	13.433	1.659	-224.792	78.186	-553.162	26.93	-65.09	-118.99	-31.752	-19.404	31.752	-0.56573	0.33154	0.43982	0.61356	30.0	13111	100
2025-3-6 14:39:47.254	WT901BLE68-01(48591DE3C19B)	5.743	13.433	1.659	-224.792	78.186	-553.162	33.84	-61.55	-129.09	-31.752	-19.404	31.752	-0.56573	0.33154	0.43982	0.61356	30.0	13111	100
2025-3-6 14:39:47.254	WT901BLE68-01(48591DE3C19B)	5.743	0.953	0.706	-110.840	7.629	-844.788	43.87	-56.11	-141.90	-31.752	-19.404	31.752	-0.56573	0.33154	0.43982	0.61356	30.0	13111	100
2025-3-6 14:39:47.254	WT901BLE68-01(48591DE3C19B)	3.952	0.953	0.706	-110.840	7.629	-844.788	50.51	-49.82	-151.40	-31.752	-19.404	31.752	-0.56573	0.33154	0.43982	0.61356	30.0	13111	100
2025-3-6 14:39:47.254	WT901BLE68-01(48591DE3C19B)	3.952	-7.455	1.683	-4.883	34.424	-741.943	55.06	-43.75	-157.52	-31.752	-19.404	31.752	-0.30524	0.22366	0.49228	0.78381	30.0	13111	100
2025-3-6 14:39:47.283	WT901BLE68-01(48591DE3C19B)	-0.666	-7.455	1.683	-4.883	34.424	-741.943	58.32	-37.49	-162.43	-31.752	-19.404	31.752	-0.30524	0.22366	0.49228	0.78381	30.0	13111	100
2025-3-6 14:39:47.283	WT901BLE68-01(48591DE3C19B)	-0.666	-14.354	-1.852	81.360	159.790	-331.909	59.38	-34.07	-162.79	-31.752	-19.404	31.752	-0.30524	0.22366	0.49228	0.78381	30.0	13111	100
2025-3-6 14:39:47.283	WT901BLE68-01(48591DE3C19B)	-0.144	-14.354	-1.852	81.360	159.790	-331.909	60.25	-30.76	-163.07	-31.752	-19.404	31.752	-0.30524	0.22366	0.49228	0.78381	30.0	13111	100
2025-3-6 14:39:47.283	WT901BLE68-01(48591DE3C19B)	-0.144	-14.944	-4.096	-7.507	108.704	430.725	57.91	-34.33	-159.27	-31.752	-19.404	31.752	-0.30524	0.22366	0.49228	0.78381	30.0	13111	100
2025-3-6 14:39:47.344	WT901BLE68-01(48591DE3C19B)	6.114	-14.944	-4.096	-7.507	108.704	430.725	55.10	-37.77	-155.08	-31.752	-19.404	31.752	-0.30524	0.22366	0.49228	0.78381	30.0	13111	100
2025-3-6 14:39:47.344	WT901BLE68-01(48591DE3C19B)	6.114	-5.678	-3.234	-9.949	52.856	881.348	49.48	-44.85	-147.20	-31.752	-19.404	31.752	-0.30524	0.22366	0.49228	0.78381	30.0	13111	100
2025-3-6 14:39:47.344	WT901BLE68-01(48591DE3C19B)	7.207	-5.678	-3.234	-9.949	52.856	881.348	41.62	-51.15	-137.21	-31.752	-19.404	31.752	-0.30524	0.22366	0.49228	0.78381	30.0	13111	100
2025-3-6 14:39:47.344	WT901BLE68-01(48591DE3C19B)	7.207	4.704	-0.810	-43.274	-84.717	793.579	32.66	-56.93	-127.08	-31.752	-19.404	31.752	-0.30524	0.22366	0.49228	0.78381	30.0	13111	100
2025-3-6 14:39:47.374	WT901BLE68-01(48591DE3C19B)	4.840	4.704	-0.810	-43.274	-84.717	793.579	20.43	-61.50	-113.72	-31.752	-19.404	31.752	-0.30524	0.22366	0.49228	0.78381	30.0	13111	100
2025-3-6 14:39:47.374	WT901BLE68-01(48591DE3C19B)	4.840	14.636	4.244	45.410	-233.582	483.582	12.62	-65.30	-104.76	-31.752	-19.404	31.752	-0.30524	0.22366	0.49228	0.78381	30.0	13111	100
2025-3-6 14:39:47.374	WT901BLE68-01(48591DE3C19B)	2.457	14.636	4.244	45.410	-233.582	483.582	2.56	-68.41	-93.50	-31.752	-19.404	31.752	-0.30524	0.22366	0.49228	0.78381	30.0	13111	100
2025-3-6 14:39:47.374	WT901BLE68-01(48591DE3C19B)	2.457	15.999	4.386	-96.863	-15.320	-242.249	8.07	-68.43	-100.51	-31.752	-19.404	31.752	-0.30524	0.22366	0.49228	0.78381	30.0	13111	100
2025-3-6 14:39:47.406	WT901BLE68-01(48591DE3C19B)	5.550	15.999	4.386	-96.863	-15.320	-242.249	13.72	-68.14	-107.56	-31.752	-19.404	31.752	-0.30524	0.22366	0.49228	0.78381	30.0	13111	100
2025-3-6 14:39:47.406	WT901BLE68-01(48591DE3C19B)	5.550	8.425	1.300	-237.488	175.049	-752.319	26.43	-63.85	-123.92	-31.752	-19.404	31.752	-0.30524	0.22366	0.49228	0.78381	30.0	13111	100
2025-3-6 14:39:47.406	WT901BLE68-01(48591DE3C19B)	6.211	8.425	1.300	-237.488	175.049	-752.319	34.61	-58.45	-135.77	-31.752	-19.404	31.752	-0.30524	0.22366	0.49228	0.78381	30.0	13111	100
2025-3-6 14:39:47.406	WT901BLE68-01(48591DE3C19B)	3.189	-2.892	1.410	5.920	15.198	-888.794	44.75	-52.61	-147.78	-31.752	-19.404	31.752	-0.30524	0.22366	0.49228	0.78381	30.0	13111	100
2025-3-6 14:39:47.464	WT901BLE68-01(48591DE3C19B)	3.189	-10.937	1.242	65.430	125.427	-716.553	50.95	-46.22	-155.25	-31.752	-19.404	31.752	-0.30524	0.22366	0.49228	0.78381	30.0	13111	100
2025-3-6 14:39:47.464	WT901BLE68-01(48591DE3C19B)	-1.264	-10.937	1.242	65.430	125.427	-716.553	54.76	-39.89	-159.72	-38.612	-8.624	33.320	-0.30524	0.22366	0.49228	0.78381	30.0	13111	100
2025-3-6 14:39:47.464	WT901BLE68-01(48591DE3C19B)	-1.264	-15.978	-3.330	133.728	173.950	-95.093	56.57	-35.96	-160.99	-38.612	-8.624	33.320	-0.30524	0.22366	0.49228	0.78381	30.0	13111	100
2025-3-6 14:39:47.464	WT901BLE68-01(48591DE3C19B)	2.741	-15.978	-3.330	133.728	173.950	-95.093	57.08	-34.58	-159.77	-38.612	-8.624	33.320	-0.30524	0.22366	0.49228	0.78381	30.0	13111	100
2025-3-6 14:39:47.494	WT901BLE68-01(48591DE3C19B)	2.741	-13.774	-4.495	16.052	76.904	741.699	55.54	-37.01	-156.19	-38.612	-8.624	33.320	-0.30524	0.22366	0.49228	0.78381	30.0	13111	100
2025-3-6 14:39:47.494	WT901BLE68-01(48591DE3C19B)	8.971	-13.774	-4.495	16.052	76.904	741.699	51.10	-42.91	-149.46	-38.612	-8.624	33.320	-0.30524	0.22366	0.49228	0.78381	30.0	13111	100
2025-3-6 14:39:47.494	WT901BLE68-01(48591DE3C19B)	8.971	-2.321	-2.966	-64.697	37.903	1052.795	43.62	-49.53	-139.88	-38.612	-8.624	33.320	-0.30524	0.22366	0.49228	0.78381	30.0	13111	100
2025-3-6 14:39:47.494	WT901BLE68-01(48591DE3C19B)	7.453	-2.321	-2.966	-64.697	37.903	1052.795	31.11	-55.95	-125.42	-38.612	-8.624	33.320	-0.30524	0.22366	0.49228	0.78381	30.0	13111	100
2025-3-6 14:39:47.523	WT901BLE68-01(48591DE3C19B)	7.453	8.916	0.528	-175.598	-161.133	785.278	16.17	-60.50	-109.61	-38.612	-8.624	33.320	-0.30524	0.22366	0.49228	0.78381	30.0	13111	100
2025-3-6 14:39:47.523	WT901BLE68-01(48591DE3C19B)	4.330	8.916	0.528	-175.598	-161.133	785.278	-0.28	-63.37	-93.30	-38.612	-8.624	33.320	-0.30524	0.22366	0.49228	0.78381	30.0	13111	100
2025-3-6 14:39:47.523	WT901BLE68-01(48591DE3C19B)	4.330	15.913	6.513	-27.649	-236.572	293.457	-13.12	-64.86	-80.39	-38.612	-8.624	33.320	-0.30524	0.22366	0.49228	0.78381	30.0	13111	100
2025-3-6 14:39:47.523	WT901BLE68-01(48591DE3C19B)	3.642	15.913	6.513	-27.649	-236.572	293.457	-21.13	-66.41	-72.06	-38.612	-8.624	33.320	-0.30524	0.22366	0.49228	0.78381	30.0	13111	100
2025-3-6 14:39:47.583	WT901BLE68-01(48591DE3C19B)	3.642	15.565	4.204	-114.563	18.738	-477.600	-20.35	-67.92	-73.69	-38.612	-8.624	33.320	-0.30524	0.22366	0.49228	0.78381	30.0	13111	100
2025-3-6 14:39:47.583	WT901BLE68-01(48591DE3C19B)	6.479	15.565	4.204	-114.563	18.738	-477.600	-9.06	-69.07	-87.00	-38.612	-8.624	33.320	-0.30524	0.22366	0.49228	0.78381	30.0	13111	100
2025-3-6 14:39:47.583	WT901BLE68-01(48591DE3C19B)	6.479	3.661	1.090	-79.102	72.876	-902.771	8.59	-68.67	-106.83	-38.612	-8.624	33.320	-0.30524	0.22366	0.49228	0.78381	30.0	13111	100
2025-3-6 14:39:47.583	WT901BLE68-01(48591DE3C19B)	5.788	3.661	1.090	-79.102	72.876	-902.771	27.94	-65.06	-128.56	-38.612	-8.624	33.320	-0.30524	0.22366	0.49228	0.78381	30.0	13111	100
2025-3-6 14:39:47.616	WT901BLE68-01(48591DE3C19B)	5.788	-5.811	1.609	61.951	29.785	-873.230	41.53	-59.52	-143.84	-38.612	-8.624	33.320	-0.30524	0.22366	0.49228	0.78381	30.0	13111	100
2025-3-6 14:39:47.616	WT901BLE68-01(48591DE3C19B)	0.993	-5.811	1.609	61.951	29.785	-873.230	50.99	-53.00	-154.33	-38.612	-8.624	33.320	-0.30524	0.22366	0.49228	0.78381	30.0	13111	100
2025-3-6 14:39:47.616	WT901BLE68-01(48591DE3C19B)	0.993	-13.439	-1.324	64.331	135.071	-556.335	55.94	-46.88	-159.85	-38.612	-8.624	33.320	-0.30524	0.22366	0.49228	0.78381	30.0	13111	100
2025-3-6 14:39:47.616	WT901BLE68-01(48591DE3C19B)	-1.243	-13.439	-1.324	64.331	135.071	-556.335	58.37	-41.69	-162.40	-38.612	-8.624	33.320	-0.30524	0.22366	0.49228	0.78381	30.0	13111	100
2025-3-6 14:39:47.645	WT901BLE68-01(48591DE3C19B)	-1.243	-15.972	-3.797	12.512	85.205	193.420	58.63	-39.89	-162.33	-38.612	-8.624	33.320	-0.30524	0.22366	0.49228	0.78381	30.0	13111	100
2025-3-6 14:39:47.645	WT901BLE68-01(48591DE3C19B)	4.813	-15.972	-3.797	12.512	85.205	193.420	56.99	-41.46	-159.91	-38.612	-8.624	33.320	-0.30524	0.22366	0.49228	0.78381	30.0	13111	100
2025-3-6 14:39:47.646	WT901BLE68-01(48591DE3C19B)	4.813	-9.160	-3.123	20.203	37.292	850.830	53.48	-45.80	-154.94	-38.612	-8.624	33.320	-0.34937	0.24933	0.47998	0.76505	30.0	13111	100
2025-3-6 14:39:47.646	WT901BLE68-01(48591DE3C19B)	7.795	-9.160	-3.123	20.203	37.292	850.830	46.58	-52.46	-145.94	-38.612	-8.624	33.320	-0.34937	0.24933	0.47998	0.76505	30.0	13111	100
2025-3-6 14:39:47.704	WT901BLE68-01(48591DE3C19B)	7.795	3.151	-0.906	-71.106	12.024	844.360	36.36	-58.23	-134.20	-38.612	-8.624	33.320	-0.34937	0.24933	0.47998	0.76505	30.0	13111	100
2025-3-6 14:39:47.704	WT901BLE68-01(48591DE3C19B)	5.429	3.151	-0.906	-71.106	12.024	844.360	21.98	-62.51	-118.82	-38.612	-8.624	33.320	-0.34937	0.24933	0.47998	0.76505	30.0	13111	100
2025-3-6 14:39:47.704	WT901BLE68-01(48591DE3C19B)	5.429	13.158	3.498	37.109	-151.367	566.589	7.75	-65.16	-103.44	-38.612	-8.624	33.320	-0.34937	0.24933	0.47998	0.76505	30.0	13111	100
2025-3-6 14:39:47.704	WT901BLE68-01(48591DE3C19B)	1.749	13.158	3.498	37.109	-151.367	566.589	-4.87	-66.95	-89.46	-38.612	-8.624	33.320	-0.34937	0.24933	0.47998	0.76505	30.0	13111	100
2025-3-6 14:39:47.734	WT901BLE68-01(48591DE3C19B)	1.749	15.999	4.124	1.526	-18.372	-13.245	-11.46	-67.52	-82.23	-38.612	-8.624	33.320	-0.34937	0.24933	0.47998	0.76505	30.0	13111	100
2025-3-6 14:39:47.734	WT901BLE68-01(48591DE3C19B)	4.098	15.999	4.124	1.526	-18.372	-13.245	-10.87	-67.85	-82.88	-38.612	-8.624	33.320	-0.34937	0.24933	0.47998	0.76505	30.0	13111	100
2025-3-6 14:39:47.734	WT901BLE68-01(48591DE3C19B)	4.098	11.820	1.279	-158.081	162.231	-672.913	-2.52	-67.62	-92.66	-38.612	-8.624	33.320	-0.34937	0.24933	0.47998	0.76505	30.0	13111	100
2025-3-6 14:39:47.734	WT901BLE68-01(48591DE3C19B)	6.649	11.820	1.279	-158.081	162.231	-672.913	11.73	-65.46	-109.75	-38.612	-8.624	33.320	-0.34937	0.24933	0.47998	0.76505	30.0	13111	100
2025-3-6 14:39:47.763	WT901BLE68-01(48591DE3C19B)	6.649	0.257	1.019	91.248	-10.132	-892.273	26.49	-62.15	-126.40	-38.612	-8.624	33.320	-0.34937	0.24933	0.47998	0.76505	30.0	13111	100
2025-3-6 14:39:47.763	WT901BLE68-01(48591DE3C19B)	5.060	0.257	1.019	91.248	-10.132	-892.273	40.57	-57.23	-141.43	-38.612	-8.624	33.320	-0.34937	0.24933	0.47998	0.76505	30.0	13111	100
2025-3-6 14:39:47.763	WT901BLE68-01(48591DE3C19B)	5.060	-8.474	1.498	42.236	7.385	-840.088	49.88	-51.07	-151.87	-38.612	-8.624	33.320	-0.34937	0.24933	0.47998	0.76505	30.0	13111	100
2025-3-6 14:39:47.763	WT901BLE68-01(48591DE3C19B)	-0.257	-8.474	1.498	42.236	7.385	-840.088	55.89	-44.41	-159.25	-38.612	-8.624	33.320	-0.34937	0.24933	0.47998	0.76505	30.0	13111	100
2025-3-6 14:39:47.826	WT901BLE68-01(48591DE3C19B)	-0.257	-15.817	-2.536	19.897	105.469	-338.501	58.66	-39.34	-162.80	-38.612	-8.624	33.320	-0.34937	0.24933	0.47998	0.76505	30.0	13111	100
2025-3-6 14:39:47.826	WT901BLE68-01(48591DE3C19B)	1.973	-15.817	-2.536	19.897	105.469	-338.501	59.41	-36.21	-163.78	-38.612	-8.624	33.320	-0.34937	0.24933	0.47998	0.76505	30.0	13111	100
2025-3-6 14:39:47.826	WT901BLE68-01(48591DE3C19B)	1.973	-15.628	-3.780	-1.892	32.471	653.992	58.26	-37.61	-161.93	-38.612	-8.624	33.320	-0.34937	0.24933	0.47998	0.76505	30.0	13111	100
2025-3-6 14:39:47.826	WT901BLE68-01(48591DE3C19B)	10.081	-15.628	-3.780	-1.892	32.471	653.992	54.60	-43.29	-156.71	-38.612	-8.624	33.320	-0.34937	0.24933	0.47998	0.76505	30.0	13111	100
2025-3-6 14:39:47.856	WT901BLE68-01(48591DE3C19B)	10.081	-4.241	-2.061	-10.803	37.415	1129.333	47.86	-50.42	-147.95	-38.612	-8.624	33.320	-0.34937	0.24933	0.47998	0.76505	30.0	13111	100
2025-3-6 14:39:47.856	WT901BLE68-01(48591DE3C19B)	8.919	-4.241	-2.061	-10.803	37.415	1129.333	35.15	-57.98	-132.82	-38.612	-8.624	33.320	-0.34937	0.24933	0.47998	0.76505	30.0	13111	100
2025-3-6 14:39:47.856	WT901BLE68-01(48591DE3C19B)	8.919	9.053	1.071	-97.412	-92.285	906.738	18.14	-63.09	-114.24	-38.612	-8.624	33.320	-0.34937	0.24933	0.47998	0.76505	30.0	13111	100
2025-3-6 14:39:47.856	WT901BLE68-01(48591DE3C19B)	4.633	9.053	1.071	-97.412	-92.285	906.738	-1.76	-65.47	-93.55	-34.104	-14.994	32.732	-0.34937	0.24933	0.47998	0.76505	30.0	13111	100
2025-3-6 14:39:47.885	WT901BLE68-01(48591DE3C19B)	4.633	15.932	5.293	-114.136	-167.664	443.726	-18.27	-65.70	-76.80	-34.104	-14.994	32.732	-0.34937	0.24933	0.47998	0.76505	30.0	13111	100
2025-3-6 14:39:47.885	WT901BLE68-01(48591DE3C19B)	2.396	15.932	5.293	-114.136	-167.664	443.726	-29.87	-65.56	-65.46	-34.104	-14.994	32.732	-0.34937	0.24933	0.47998	0.76505	30.0	13111	100
2025-3-6 14:39:47.886	WT901BLE68-01(48591DE3C19B)	2.396	15.736	3.432	-228.088	40.833	-407.471	-23.14	-67.18	-75.33	-34.104	-14.994	32.732	-0.34937	0.24933	0.47998	0.76505	30.0	13111	100
2025-3-6 14:39:47.886	WT901BLE68-01(48591DE3C19B)	5.711	15.736	3.432	-228.088	40.833	-407.471	-15.15	-68.26	-86.35	-34.104	-14.994	32.732	-0.34937	0.24933	0.47998	0.76505	30.0	13111	100
2025-3-6 14:39:47.944	WT901BLE68-01(48591DE3C19B)	5.711	6.148	1.321	-133.911	95.398	-841.431	5.38	-68.08	-109.75	-34.104	-14.994	32.732	-0.34937	0.24933	0.47998	0.76505	30.0	13111	100
2025-3-6 14:39:47.944	WT901BLE68-01(48591DE3C19B)	6.972	6.148	1.321	-133.911	95.398	-841.431	22.92	-65.05	-130.12	-34.104	-14.994	32.732	-0.34937	0.24933	0.47998	0.76505	30.0	13111	100
2025-3-6 14:39:47.944	WT901BLE68-01(48591DE3C19B)	6.972	-3.313	1.737	-12.817	62.012	-902.283	37.49	-59.91	-146.50	-34.104	-14.994	32.732	-0.34937	0.24933	0.47998	0.76505	30.0	13111	100
2025-3-6 14:39:47.944	WT901BLE68-01(48591DE3C19B)	2.381	-3.313	1.737	-12.817	62.012	-902.283	47.03	-53.39	-157.88	-34.104	-14.994	32.732	-0.34937	0.24933	0.47998	0.76505	30.0	13111	100
2025-3-6 14:39:47.974	WT901BLE68-01(48591DE3C19B)	2.381	-14.155	-0.453	48.462	197.632	-665.161	51.01	-47.21	-162.29	-34.104	-14.994	32.732	-0.34937	0.24933	0.47998	0.76505	30.0	13111	100
2025-3-6 14:39:47.974	WT901BLE68-01(48591DE3C19B)	-1.332	-14.155	-0.453	48.462	197.632	-665.161	53.85	-40.98	-165.65	-34.104	-14.994	32.732	-0.34937	0.24933	0.47998	0.76505	30.0	13111	100
2025-3-6 14:39:47.974	WT901BLE68-01(48591DE3C19B)	-1.332	-16.000	-4.828	25.024	162.048	190.002	51.81	-41.85	-162.29	-34.104	-14.994	32.732	-0.34937	0.24933	0.47998	0.76505	30.0	13111	100
2025-3-6 14:39:47.974	WT901BLE68-01(48591DE3C19B)	4.598	-16.000	-4.828	25.024	162.048	190.002	49.55	-42.69	-158.83	-34.104	-14.994	32.732	-0.34937	0.24933	0.47998	0.76505	30.0	13111	100
2025-3-6 14:39:48.5	WT901BLE68-01(48591DE3C19B)	4.598	-10.180	-4.322	-114.197	-24.963	863.037	41.97	-49.45	-150.22	-34.104	-14.994	32.732	-0.34937	0.24933	0.47998	0.76505	30.0	13111	100
2025-3-6 14:39:48.5	WT901BLE68-01(48591DE3C19B)	8.632	-10.180	-4.322	-114.197	-24.963	863.037	31.59	-55.17	-138.88	-34.104	-14.994	32.732	-0.34937	0.24933	0.47998	0.76505	30.0	13111	100
2025-3-6 14:39:48.5	WT901BLE68-01(48591DE3C19B)	8.632	1.058	-1.023	-137.878	-73.914	866.089	17.80	-59.75	-124.47	-34.104	-14.994	32.732	-0.34937	0.24933	0.47998	0.76505	30.0	13111	100
2025-3-6 14:39:48.5	WT901BLE68-01(48591DE3C19B)	6.602	1.058	-1.023	-137.878	-73.914	866.089	0.66	-62.09	-106.73	-34.104	-14.994	32.732	-0.34937	0.24933	0.47998	0.76505	30.0	13111	100
2025-3-6 14:39:48.64	WT901BLE68-01(48591DE3C19B)	6.602	12.216	4.290	13.550	-253.784	695.740	-13.80	-63.96	-90.58	-34.104	-14.994	32.732	-0.34937	0.24933	0.47998	0.76505	30.0	13111	100
2025-3-6 14:39:48.64	WT901BLE68-01(48591DE3C19B)	2.875	12.216	4.290	13.550	-253.784	695.740	-29.04	-63.90	-73.65	-34.104	-14.994	32.732	-0.34937	0.24933	0.47998	0.76505	30.0	13111	100
2025-3-6 14:39:48.64	WT901BLE68-01(48591DE3C19B)	2.875	15.999	7.092	-286.194	-21.790	97.656	-33.73	-63.73	-71.65	-34.104	-14.994	32.732	-0.34937	0.24933	0.47998	0.76505	30.0	13111	100
2025-3-6 14:39:48.65	WT901BLE68-01(48591DE3C19B)	4.361	15.999	7.092	-286.194	-21.790	97.656	-38.08	-63.50	-69.92	-34.104	-14.994	32.732	-0.34937	0.24933	0.47998	0.76505	30.0	13111	100
2025-3-6 14:39:48.94	WT901BLE68-01(48591DE3C19B)	4.361	12.031	3.021	-454.651	293.640	-646.240	-27.60	-64.70	-86.45	-34.104	-14.994	32.732	-0.51031	0.50275	0.24057	0.65488	30.0	13111	100
2025-3-6 14:39:48.95	WT901BLE68-01(48591DE3C19B)	6.705	12.031	3.021	-454.651	293.640	-646.240	-16.55	-64.49	-103.48	-34.104	-14.994	32.732	-0.51031	0.50275	0.24057	0.65488	30.0	13111	100
2025-3-6 14:39:48.95	WT901BLE68-01(48591DE3C19B)	6.705	-0.571	2.216	-110.901	333.008	-855.591	0.82	-62.35	-123.85	-34.104	-14.994	32.732	-0.51031	0.50275	0.24057	0.65488	30.0	13111	100
2025-3-6 14:39:48.95	WT901BLE68-01(48591DE3C19B)	5.035	-0.571	2.216	-110.901	333.008	-855.591	14.13	-57.90	-140.18	-34.104	-14.994	32.732	-0.51031	0.50275	0.24057	0.65488	30.0	13111	100
2025-3-6 14:39:48.154	WT901BLE68-01(48591DE3C19B)	5.035	-8.347	-1.019	-446.350	547.424	-635.498	16.46	-50.98	-148.23	-34.104	-14.994	32.732	-0.51031	0.50275	0.24057	0.65488	30.0	13111	100
2025-3-6 14:39:48.154	WT901BLE68-01(48591DE3C19B)	-1.236	-8.347	-1.019	-446.350	547.424	-635.498	17.07	-44.02	-154.79	-34.104	-14.994	32.732	-0.51031	0.50275	0.24057	0.65488	30.0	13111	100
2025-3-6 14:39:48.154	WT901BLE68-01(48591DE3C19B)	-1.236	-14.779	-11.139	-283.142	429.138	-99.792	14.16	-39.88	-154.40	-34.104	-14.994	32.732	-0.51031	0.50275	0.24057	0.65488	30.0	13111	100
2025-3-6 14:39:48.154	WT901BLE68-01(48591DE3C19B)	1.515	-14.779	-11.139	-283.142	429.138	-99.792	11.32	-35.86	-154.28	-34.104	-14.994	32.732	-0.51031	0.50275	0.24057	0.65488	30.0	13111	100
2025-3-6 14:39:48.183	WT901BLE68-01(48591DE3C19B)	1.515	-10.625	-9.470	261.536	-236.267	530.457	10.07	-39.61	-148.06	-34.104	-14.994	32.732	-0.51031	0.50275	0.24057	0.65488	30.0	13111	100
2025-3-6 14:39:48.183	WT901BLE68-01(48591DE3C19B)	7.200	-10.625	-9.470	261.536	-236.267	530.457	8.11	-43.20	-141.36	-34.104	-14.994	32.732	-0.51031	0.50275	0.24057	0.65488	30.0	13111	100
2025-3-6 14:39:48.183	WT901BLE68-01(48591DE3C19B)	7.200	-3.141	-3.713	243.652	-367.981	747.498	2.94	-47.99	-130.98	-34.104	-14.994	32.732	-0.51031	0.50275	0.24057	0.65488	30.0	13111	100
2025-3-6 14:39:48.183	WT901BLE68-01(48591DE3C19B)	8.033	-3.141	-3.713	243.652	-367.981	747.498	-3.97	-51.95	-119.03	-34.104	-14.994	32.732	-0.51031	0.50275	0.24057	0.65488	30.0	13111	100
2025-3-6 14:39:48.216	WT901BLE68-01(48591DE3C19B)	8.033	5.578	1.035	484.497	-369.812	788.025	-10.73	-54.92	-104.85	-34.104	-14.994	32.732	-0.51031	0.50275	0.24057	0.65488	30.0	13111	100
2025-3-6 14:39:48.216	WT901BLE68-01(48591DE3C19B)	4.847	5.578	1.035	484.497	-369.812	788.025	-18.89	-56.75	-89.39	-34.104	-14.994	32.732	-0.51031	0.50275	0.24057	0.65488	30.0	13111	100
2025-3-6 14:39:48.216	WT901BLE68-01(48591DE3C19B)	4.847	15.700	5.943	70.251	-176.025	424.011	-25.43	-57.04	-80.91	-34.104	-14.994	32.732	-0.51031	0.50275	0.24057	0.65488	30.0	13111	100
2025-3-6 14:39:48.216	WT901BLE68-01(48591DE3C19B)	2.215	15.700	5.943	70.251	-176.025	424.011	-31.68	-56.84	-72.64	-34.104	-14.994	32.732	-0.51031	0.50275	0.24057	0.65488	30.0	13111	100
2025-3-6 14:39:48.274	WT901BLE68-01(48591DE3C19B)	2.215	15.870	3.652	-388.855	59.204	-325.928	-30.41	-58.29	-78.63	-34.104	-14.994	32.732	-0.51031	0.50275	0.24057	0.65488	30.0	13111	100
2025-3-6 14:39:48.275	WT901BLE68-01(48591DE3C19B)	6.166	15.870	3.652	-388.855	59.204	-325.928	-28.60	-59.61	-85.05	-31.948	-22.736	42.924	-0.51031	0.50275	0.24057	0.65488	30.0	13111	100
2025-3-6 14:39:48.275	WT901BLE68-01(48591DE3C19B)	6.166	6.633	2.108	-448.547	251.892	-843.506	-17.17	-60.75	-103.07	-31.948	-22.736	42.924	-0.51031	0.50275	0.24057	0.65488	30.0	13111	100
2025-3-6 14:39:48.275	WT901BLE68-01(48591DE3C19B)	6.986	6.633	2.108	-448.547	251.892	-843.506	-5.57	-60.03	-121.21	-31.948	-22.736	42.924	-0.51031	0.50275	0.24057	0.65488	30.0	13111	100
2025-3-6 14:39:48.304	WT901BLE68-01(48591DE3C19B)	6.986	-5.776	1.712	124.573	221.863	-934.692	11.37	-57.36	-139.20	-31.948	-22.736	42.924	-0.51031	0.50275	0.24057	0.65488	30.0	13111	100
2025-3-6 14:39:48.304	WT901BLE68-01(48591DE3C19B)	1.719	-5.776	1.712	124.573	221.863	-934.692	24.61	-52.38	-153.51	-31.948	-22.736	42.924	-0.51031	0.50275	0.24057	0.65488	30.0	13111	100
2025-3-6 14:39:48.304	WT901BLE68-01(48591DE3C19B)	1.719	-14.959	-1.172	540.588	160.217	-665.527	36.07	-47.77	-161.12	-31.948	-22.736	42.924	-0.51031	0.50275	0.24057	0.65488	30.0	13111	100
2025-3-6 14:39:48.304	WT901BLE68-01(48591DE3C19B)	-1.086	-14.959	-1.172	540.588	160.217	-665.527	45.49	-42.47	-166.66	-31.948	-22.736	42.924	-0.51031	0.50275	0.24057	0.65488	30.0	13111	100
2025-3-6 14:39:48.334	WT901BLE68-01(48591DE3C19B)	-1.086	-16.000	-4.631	387.512	56.580	182.739	47.69	-43.76	-164.26	-31.948	-22.736	42.924	-0.51031	0.50275	0.24057	0.65488	30.0	13111	100
2025-3-6 14:39:48.334	WT901BLE68-01(48591DE3C19B)	5.225	-16.000	-4.631	387.512	56.580	182.739	49.71	-45.18	-161.83	-31.948	-22.736	42.924	-0.51031	0.50275	0.24057	0.65488	30.0	13111	100
2025-3-6 14:39:48.334	WT901BLE68-01(48591DE3C19B)	9.376	-11.053	-3.652	-21.301	5.310	899.109	41.98	-52.00	-152.10	-31.948	-22.736	42.924	-0.51031	0.50275	0.24057	0.65488	30.0	13111	100
2025-3-6 14:39:48.334	WT901BLE68-01(48591DE3C19B)	9.376	1.680	-0.683	-125.366	-11.353	954.346	30.13	-57.86	-138.81	-31.948	-22.736	42.924	-0.51031	0.50275	0.24057	0.65488	30.0	13111	100
2025-3-6 14:39:48.394	WT901BLE68-01(48591DE3C19B)	6.940	1.680	-0.683	-125.366	-11.353	954.346	13.12	-61.78	-120.86	-31.948	-22.736	42.924	-0.51031	0.50275	0.24057	0.65488	30.0	13111	100
2025-3-6 14:39:48.394	WT901BLE68-01(48591DE3C19B)	6.940	13.729	4.567	-54.626	-154.907	700.745	-4.08	-63.45	-102.71	-31.948	-22.736	42.924	-0.51031	0.50275	0.24057	0.65488	30.0	13111	100
2025-3-6 14:39:48.394	WT901BLE68-01(48591DE3C19B)	1.858	13.729	4.567	-54.626	-154.907	700.745	-19.34	-63.69	-86.42	-31.948	-22.736	42.924	-0.51031	0.50275	0.24057	0.65488	30.0	13111	100
2025-3-6 14:39:48.394	WT901BLE68-01(48591DE3C19B)	1.858	15.999	4.881	-242.432	3.479	-3.418	-27.80	-63.18	-78.67	-31.948	-22.736	42.924	-0.51031	0.50275	0.24057	0.65488	30.0	13111	100
2025-3-6 14:39:48.425	WT901BLE68-01(48591DE3C19B)	4.011	15.999	4.881	-242.432	3.479	-3.418	-29.84	-63.33	-79.04	-31.948	-22.736	42.924	-0.51031	0.50275	0.24057	0.65488	30.0	13111	100
2025-3-6 14:39:48.425	WT901BLE68-01(48591DE3C19B)	4.011	12.063	2.594	-196.228	221.313	-677.063	-24.37	-64.07	-87.42	-31.948	-22.736	42.924	-0.51031	0.50275	0.24057	0.65488	30.0	13111	100
2025-3-6 14:39:48.425	WT901BLE68-01(48591DE3C19B)	7.609	12.063	2.594	-196.228	221.313	-677.063	-11.01	-64.11	-104.22	-31.948	-22.736	42.924	-0.51031	0.50275	0.24057	0.65488	30.0	13111	100
2025-3-6 14:39:48.425	WT901BLE68-01(48591DE3C19B)	7.609	1.618	2.413	-96.863	206.543	-933.167	4.39	-62.47	-122.83	-31.948	-22.736	42.924	-0.51031	0.50275	0.24057	0.65488	30.0	13111	100
2025-3-6 14:39:48.456	WT901BLE68-01(48591DE3C19B)	6.446	1.618	2.413	-96.863	206.543	-933.167	19.28	-58.47	-140.75	-31.948	-22.736	42.924	-0.51031	0.50275	0.24057	0.65488	30.0	13111	100
2025-3-6 14:39:48.456	WT901BLE68-01(48591DE3C19B)	6.446	-9.750	0.980	-68.176	311.584	-898.926	29.33	-52.31	-153.62	-31.948	-22.736	42.924	-0.51031	0.50275	0.24057	0.65488	30.0	13111	100
2025-3-6 14:39:48.456	WT901BLE68-01(48591DE3C19B)	-0.686	-9.750	0.980	-68.176	311.584	-898.926	35.51	-44.93	-162.47	-31.948	-22.736	42.924	-0.22009	0.29285	0.34073	0.86578	30.0	13111	100
2025-3-6 14:39:48.456	WT901BLE68-01(48591DE3C19B)	-0.686	-16.000	-5.308	177.551	301.514	-255.493	38.69	-39.22	-166.08	-31.948	-22.736	42.924	-0.22009	0.29285	0.34073	0.86578	30.0	13111	100
2025-3-6 14:39:48.513	WT901BLE68-01(48591DE3C19B)	1.437	-16.000	-5.308	177.551	301.514	-255.493	40.50	-35.57	-165.99	-31.948	-22.736	42.924	-0.22009	0.29285	0.34073	0.86578	30.0	13111	100
2025-3-6 14:39:48.514	WT901BLE68-01(48591DE3C19B)	1.437	-13.675	-6.906	67.566	-29.724	598.572	40.09	-36.07	-163.18	-31.948	-22.736	42.924	-0.22009	0.29285	0.34073	0.86578	30.0	13111	100
2025-3-6 14:39:48.514	WT901BLE68-01(48591DE3C19B)	7.767	-13.675	-6.906	67.566	-29.724	598.572	37.00	-40.47	-157.30	-31.948	-22.736	42.924	-0.22009	0.29285	0.34073	0.86578	30.0	13111	100
2025-3-6 14:39:48.514	WT901BLE68-01(48591DE3C19B)	7.767	-4.633	-3.525	-112.732	-168.457	957.275	30.93	-46.09	-149.03	-31.948	-22.736	42.924	-0.22009	0.29285	0.34073	0.86578	30.0	13111	100
2025-3-6 14:39:48.543	WT901BLE68-01(48591DE3C19B)	8.693	-4.633	-3.525	-112.732	-168.457	957.275	20.29	-52.13	-136.71	-31.948	-22.736	42.924	-0.22009	0.29285	0.34073	0.86578	30.0	13111	100
2025-3-6 14:39:48.544	WT901BLE68-01(48591DE3C19B)	8.693	6.880	0.884	91.553	-313.904	821.777	8.48	-56.96	-122.56	-31.948	-22.736	42.924	-0.22009	0.29285	0.34073	0.86578	30.0	13111	100
2025-3-6 14:39:48.544	WT901BLE68-01(48591DE3C19B)	4.762	6.880	0.884	91.553	-313.904	821.777	-4.40	-60.64	-106.63	-31.948	-22.736	42.924	-0.22009	0.29285	0.34073	0.86578	30.0	13111	100
2025-3-6 14:39:48.544	WT901BLE68-01(48591DE3C19B)	4.762	15.854	6.825	-78.308	-235.107	416.931	-16.77	-62.43	-92.63	-31.948	-22.736	42.924	-0.22009	0.29285	0.34073	0.86578	30.0	13111	100
2025-3-6 14:39:48.574	WT901BLE68-01(48591DE3C19B)	2.225	15.854	6.825	-78.308	-235.107	416.931	-26.81	-63.24	-82.25	-31.948	-22.736	42.924	-0.22009	0.29285	0.34073	0.86578	30.0	13111	100
2025-3-6 14:39:48.574	WT901BLE68-01(48591DE3C19B)	2.225	15.672	4.849	-350.647	97.717	-317.749	-30.20	-63.82	-80.77	-31.948	-22.736	42.924	-0.22009	0.29285	0.34073	0.86578	30.0	13111	100
2025-3-6 14:39:48.574	WT901BLE68-01(48591DE3C19B)	5.700	15.672	4.849	-350.647	97.717	-317.749	-26.47	-64.62	-88.63	-31.948	-22.736	42.924	-0.22009	0.29285	0.34073	0.86578	30.0	13111	100
2025-3-6 14:39:48.574	WT901BLE68-01(48591DE3C19B)	5.700	5.919	2.887	-312.988	311.584	-787.537	-16.62	-64.89	-102.93	-31.948	-22.736	42.924	-0.22009	0.29285	0.34073	0.86578	30.0	13111	100
2025-3-6 14:39:48.636	WT901BLE68-01(48591DE3C19B)	6.528	5.919	2.887	-312.988	311.584	-787.537	-2.11	-63.10	-122.24	-31.948	-22.736	42.924	-0.22009	0.29285	0.34073	0.86578	30.0	13111	100
2025-3-6 14:39:48.636	WT901BLE68-01(48591DE3C19B)	6.528	-5.927	1.585	-39.551	351.685	-893.005	11.37	-59.12	-139.33	-31.948	-22.736	42.924	-0.22009	0.29285	0.34073	0.86578	30.0	13111	100
2025-3-6 14:39:48.636	WT901BLE68-01(48591DE3C19B)	0.649	-5.927	1.585	-39.551	351.685	-893.005	22.48	-53.14	-152.84	-31.948	-22.736	42.924	-0.22009	0.29285	0.34073	0.86578	30.0	13111	100
2025-3-6 14:39:48.636	WT901BLE68-01(48591DE3C19B)	0.649	-15.714	-3.209	365.234	367.676	-510.925	29.99	-46.94	-160.16	-31.948	-22.736	42.924	-0.22009	0.29285	0.34073	0.86578	30.0	13111	100
2025-3-6 14:39:48.666	WT901BLE68-01(48591DE3C19B)	-0.414	-15.714	-3.209	365.234	367.676	-510.925	35.90	-41.29	-163.19	-31.948	-22.736	42.924	-0.22009	0.29285	0.34073	0.86578	30.0	13111	100
2025-3-6 14:39:48.666	WT901BLE68-01(48591DE3C19B)	-0.414	-14.558	-6.688	238.770	51.758	368.530	38.32	-39.56	-162.17	-31.948	-22.736	42.924	-0.22009	0.29285	0.34073	0.86578	30.0	13111	100
2025-3-6 14:39:48.666	WT901BLE68-01(48591DE3C19B)	5.209	-14.558	-6.688	238.770	51.758	368.530	37.75	-41.82	-157.75	-31.948	-22.736	42.924	-0.22009	0.29285	0.34073	0.86578	30.0	13111	100
2025-3-6 14:39:48.666	WT901BLE68-01(48591DE3C19B)	5.209	-7.786	-3.981	-352.234	-62.866	846.069	32.18	-45.82	-150.75	-39.690	-7.938	45.668	-0.22009	0.29285	0.34073	0.86578	30.0	13111	100
2025-3-6 14:39:48.696	WT901BLE68-01(48591DE3C19B)	8.793	-7.786	-3.981	-352.234	-62.866	846.069	20.10	-50.49	-139.50	-39.690	-7.938	45.668	-0.22009	0.29285	0.34073	0.86578	30.0	13111	100
2025-3-6 14:39:48.696	WT901BLE68-01(48591DE3C19B)	8.793	2.105	-0.495	-117.981	-306.702	890.686	6.82	-54.60	-125.91	-39.690	-7.938	45.668	-0.22009	0.29285	0.34073	0.86578	30.0	13111	100
2025-3-6 14:39:48.696	WT901BLE68-01(48591DE3C19B)	7.033	2.105	-0.495	-117.981	-306.702	890.686	-8.21	-57.80	-109.47	-39.690	-7.938	45.668	-0.22009	0.29285	0.34073	0.86578	30.0	13111	100
2025-3-6 14:39:48.696	WT901BLE68-01(48591DE3C19B)	7.033	14.468	7.379	34.180	-415.955	608.582	-22.43	-59.47	-93.43	-39.690	-7.938	45.668	-0.22009	0.29285	0.34073	0.86578	30.0	13111	100
2025-3-6 14:39:48.754	WT901BLE68-01(48591DE3C19B)	2.533	14.468	7.379	34.180	-415.955	608.582	-34.91	-60.35	-78.70	-39.690	-7.938	45.668	-0.22009	0.29285	0.34073	0.86578	30.0	13111	100
2025-3-6 14:39:48.754	WT901BLE68-01(48591DE3C19B)	2.533	15.998	6.249	-469.055	83.435	-45.166	-42.63	-60.13	-72.28	-39.690	-7.938	45.668	-0.22009	0.29285	0.34073	0.86578	30.0	13111	100
2025-3-6 14:39:48.754	WT901BLE68-01(48591DE3C19B)	5.209	15.998	6.249	-469.055	83.435	-45.166	-45.41	-60.03	-74.34	-39.690	-7.938	45.668	-0.22009	0.29285	0.34073	0.86578	30.0	13111	100
2025-3-6 14:39:48.754	WT901BLE68-01(48591DE3C19B)	5.209	8.821	3.538	-440.735	414.795	-684.937	-41.76	-61.00	-83.51	-39.690	-7.938	45.668	-0.22009	0.29285	0.34073	0.86578	30.0	13111	100
2025-3-6 14:39:48.783	WT901BLE68-01(48591DE3C19B)	6.397	8.821	3.538	-440.735	414.795	-684.937	-30.89	-61.86	-100.60	-39.690	-7.938	45.668	-0.22009	0.29285	0.34073	0.86578	30.0	13111	100
2025-3-6 14:39:48.783	WT901BLE68-01(48591DE3C19B)	6.397	-3.622	2.428	-11.963	427.307	-865.234	-16.29	-61.24	-119.43	-39.690	-7.938	45.668	-0.22009	0.29285	0.34073	0.86578	30.0	13111	100
2025-3-6 14:39:48.783	WT901BLE68-01(48591DE3C19B)	2.332	-3.622	2.428	-11.963	427.307	-865.234	-0.20	-58.24	-137.84	-39.690	-7.938	45.668	-0.22009	0.29285	0.34073	0.86578	30.0	13111	100
2025-3-6 14:39:48.783	WT901BLE68-01(48591DE3C19B)	2.332	-14.115	-2.255	274.414	484.985	-619.080	11.59	-53.02	-150.15	-39.690	-7.938	45.668	-0.22009	0.29285	0.34073	0.86578	30.0	13111	100
2025-3-6 14:39:48.815	WT901BLE68-01(48591DE3C19B)	-2.330	-14.115	-2.255	274.414	484.985	-619.080	19.94	-46.79	-157.20	-39.690	-7.938	45.668	-0.22009	0.29285	0.34073	0.86578	30.0	13111	100
2025-3-6 14:39:48.815	WT901BLE68-01(48591DE3C19B)	-2.330	-15.036	-6.828	446.655	81.970	204.651	22.01	-46.99	-153.78	-39.690	-7.938	45.668	-0.22009	0.29285	0.34073	0.86578	30.0	13111	100
2025-3-6 14:39:48.815	WT901BLE68-01(48591DE3C19B)	2.326	-15.036	-6.828	446.655	81.970	204.651	23.89	-47.35	-150.29	-39.690	-7.938	45.668	-0.22009	0.29285	0.34073	0.86578	30.0	13111	100
2025-3-6 14:39:48.815	WT901BLE68-01(48591DE3C19B)	2.326	-7.781	-3.912	-207.581	-17.822	656.738	14.51	-50.02	-140.68	-39.690	-7.938	45.668	-0.22009	0.29285	0.34073	0.86578	30.0	13111	100
2025-3-6 14:39:48.904	WT901BLE68-01(48591DE3C19B)	6.104	-7.781	-3.912	-207.581	-17.822	656.738	4.11	-51.55	-130.11	-39.690	-7.938	45.668	-0.22009	0.29285	0.34073	0.86578	30.0	13111	100
2025-3-6 14:39:48.904	WT901BLE68-01(48591DE3C19B)	6.104	-2.074	-2.353	-261.963	-184.143	760.803	-8.93	-53.32	-117.13	-39.690	-7.938	45.668	-0.22009	0.29285	0.34073	0.86578	30.0	13111	100
2025-3-6 14:39:48.904	WT901BLE68-01(48591DE3C19B)	7.431	-2.074	-2.353	-261.963	-184.143	760.803	-22.48	-53.23	-103.66	-39.690	-7.938	45.668	-0.22009	0.29285	0.34073	0.86578	30.0	13111	100
2025-3-6 14:39:48.904	WT901BLE68-01(48591DE3C19B)	7.431	9.168	2.738	232.300	-357.849	641.541	-30.39	-53.76	-91.06	-39.690	-7.938	45.668	-0.22009	0.29285	0.34073	0.86578	30.0	13111	100
2025-3-6 14:39:48.905	WT901BLE68-01(48591DE3C19B)	3.513	9.168	2.738	232.300	-357.849	641.541	-38.14	-53.29	-78.61	-39.690	-7.938	45.668	-0.56497	0.49896	0.14786	0.64023	30.0	13111	100
2025-3-6 14:39:48.905	WT901BLE68-01(48591DE3C19B)	3.513	15.999	5.247	90.027	-191.528	141.541	-40.33	-54.11	-74.75	-39.690	-7.938	45.668	-0.56497	0.49896	0.14786	0.64023	30.0	13111	100
2025-3-6 14:39:48.905	WT901BLE68-01(48591DE3C19B)	2.769	15.999	5.247	90.027	-191.528	141.541	-42.42	-54.85	-70.92	-39.690	-7.938	45.668	-0.56497	0.49896	0.14786	0.64023	30.0	13111	100
2025-3-6 14:39:48.906	WT901BLE68-01(48591DE3C19B)	2.769	14.941	2.930	-278.992	101.318	-458.191	-38.62	-57.31	-78.63	-39.690	-7.938	45.668	-0.56497	0.49896	0.14786	0.64023	30.0	13111	100
2025-3-6 14:39:48.936	WT901BLE68-01(48591DE3C19B)	7.742	14.941	2.930	-278.992	101.318	-458.191	-33.84	-59.40	-87.23	-39.690	-7.938	45.668	-0.56497	0.49896	0.14786	0.64023	30.0	13111	100
2025-3-6 14:39:48.936	WT901BLE68-01(48591DE3C19B)	7.742	4.256	2.733	-346.436	287.781	-910.950	-20.10	-61.11	-106.68	-39.690	-7.938	45.668	-0.56497	0.49896	0.14786	0.64023	30.0	13111	100
2025-3-6 14:39:48.936	WT901BLE68-01(48591DE3C19B)	6.487	4.256	2.733	-346.436	287.781	-910.950	-5.88	-60.39	-126.56	-39.690	-7.938	45.668	-0.56497	0.49896	0.14786	0.64023	30.0	13111	100
2025-3-6 14:39:48.936	WT901BLE68-01(48591DE3C19B)	6.487	-10.425	1.060	-258.545	463.989	-929.504	6.82	-55.65	-144.19	-39.690	-7.938	45.668	-0.56497	0.49896	0.14786	0.64023	30.0	13111	100
2025-3-6 14:39:48.994	WT901BLE68-01(48591DE3C19B)	-1.274	-10.425	1.060	-258.545	463.989	-929.504	15.22	-49.36	-157.66	-39.690	-7.938	45.668	-0.56497	0.49896	0.14786	0.64023	30.0	13111	100
2025-3-6 14:39:48.994	WT901BLE68-01(48591DE3C19B)	-1.274	-16.000	-5.951	469.910	304.504	-215.515	21.23	-45.97	-159.14	-39.690	-7.938	45.668	-0.56497	0.49896	0.14786	0.64023	30.0	13111	100
2025-3-6 14:39:48.994	WT901BLE68-01(48591DE3C19B)	-0.271	-16.000	-5.951	469.910	304.504	-215.515	26.60	-42.62	-159.99	-39.690	-7.938	45.668	-0.56497	0.49896	0.14786	0.64023	30.0	13111	100
2025-3-6 14:39:48.994	WT901BLE68-01(48591DE3C19B)	-0.271	-12.230	-5.486	341.309	-63.904	477.051	25.96	-45.68	-154.22	-39.690	-7.938	45.668	-0.56497	0.49896	0.14786	0.64023	30.0	13111	100
2025-3-6 14:39:49.25	WT901BLE68-01(48591DE3C19B)	4.960	-12.230	-5.486	341.309	-63.904	477.051	24.70	-48.69	-148.01	-39.690	-7.938	45.668	-0.56497	0.49896	0.14786	0.64023	30.0	13111	100
2025-3-6 14:39:49.26	WT901BLE68-01(48591DE3C19B)	4.960	-6.482	-2.482	-101.501	-111.084	825.134	14.17	-52.84	-135.96	-39.690	-7.938	45.668	-0.56497	0.49896	0.14786	0.64023	30.0	13111	100
2025-3-6 14:39:49.26	WT901BLE68-01(48591DE3C19B)	8.755	-6.482	-2.482	-101.501	-111.084	825.134	1.55	-55.36	-121.86	-39.690	-7.938	45.668	-0.56497	0.49896	0.14786	0.64023	30.0	13111	100
2025-3-6 14:39:49.26	WT901BLE68-01(48591DE3C19B)	8.755	3.184	0.527	62.317	-203.369	903.931	-12.00	-56.78	-104.99	-39.690	-7.938	45.668	-0.56497	0.49896	0.14786	0.64023	30.0	13111	100
2025-3-6 14:39:49.56	WT901BLE68-01(48591DE3C19B)	6.300	3.184	0.527	62.317	-203.369	903.931	-25.66	-55.94	-88.04	-39.690	-7.938	45.668	-0.56497	0.49896	0.14786	0.64023	30.0	13111	100
2025-3-6 14:39:49.56	WT901BLE68-01(48591DE3C19B)	6.300	14.537	2.867	225.159	-208.862	552.795	-32.19	-55.28	-77.54	-39.690	-7.938	45.668	-0.56497	0.49896	0.14786	0.64023	30.0	13111	100
2025-3-6 14:39:49.56	WT901BLE68-01(48591DE3C19B)	2.504	14.537	2.867	225.159	-208.862	552.795	-38.05	-54.03	-67.66	-34.594	-21.168	46.550	-0.56497	0.49896	0.14786	0.64023	30.0	13111	100
2025-3-6 14:39:49.56	WT901BLE68-01(48591DE3C19B)	2.504	15.999	1.659	-179.199	7.446	-77.209	-38.77	-54.73	-68.91	-34.594	-21.168	46.550	-0.56497	0.49896	0.14786	0.64023	30.0	13111	100
2025-3-6 14:39:49.115	WT901BLE68-01(48591DE3C19B)	5.411	15.999	1.659	-179.199	7.446	-77.209	-39.28	-55.45	-70.28	-34.594	-21.168	46.550	-0.56497	0.49896	0.14786	0.64023	30.0	13111	100
2025-3-6 14:39:49.115	WT901BLE68-01(48591DE3C19B)	5.411	10.900	1.091	-342.590	192.078	-782.532	-30.61	-58.63	-84.41	-34.594	-21.168	46.550	-0.56497	0.49896	0.14786	0.64023	30.0	13111	100
2025-3-6 14:39:49.115	WT901BLE68-01(48591DE3C19B)	8.419	10.900	1.091	-342.590	192.078	-782.532	-19.98	-60.43	-100.39	-34.594	-21.168	46.550	-0.56497	0.49896	0.14786	0.64023	30.0	13111	100
2025-3-6 14:39:49.115	WT901BLE68-01(48591DE3C19B)	8.419	-1.234	1.606	-294.800	208.252	-1008.911	-4.03	-60.60	-121.72	-34.594	-21.168	46.550	-0.56497	0.49896	0.14786	0.64023	30.0	13111	100
2025-3-6 14:39:49.143	WT901BLE68-01(48591DE3C19B)	3.314	-1.234	1.606	-294.800	208.252	-1008.911	10.32	-57.98	-141.45	-34.594	-21.168	46.550	-0.56497	0.49896	0.14786	0.64023	30.0	13111	100
2025-3-6 14:39:49.143	WT901BLE68-01(48591DE3C19B)	3.314	-14.847	0.071	170.105	290.161	-834.473	22.74	-52.89	-154.12	-34.594	-21.168	46.550	-0.56497	0.49896	0.14786	0.64023	30.0	13111	100
2025-3-6 14:39:49.143	WT901BLE68-01(48591DE3C19B)	-2.348	-14.847	0.071	170.105	290.161	-834.473	31.76	-46.66	-163.43	-34.594	-21.168	46.550	-0.56497	0.49896	0.14786	0.64023	30.0	13111	100
2025-3-6 14:39:49.143	WT901BLE68-01(48591DE3C19B)	-2.348	-15.914	-4.006	676.086	73.792	72.205	37.42	-46.75	-161.82	-34.594	-21.168	46.550	-0.56497	0.49896	0.14786	0.64023	30.0	13111	100
2025-3-6 14:39:49.174	WT901BLE68-01(48591DE3C19B)	2.074	-15.914	-4.006	676.086	73.792	72.205	42.88	-47.03	-160.15	-34.594	-21.168	46.550	-0.56497	0.49896	0.14786	0.64023	30.0	13111	100
2025-3-6 14:39:49.174	WT901BLE68-01(48591DE3C19B)	2.074	-9.748	-1.974	47.180	-10.010	718.201	36.63	-52.09	-151.51	-34.594	-21.168	46.550	-0.56497	0.49896	0.14786	0.64023	30.0	13111	100
2025-3-6 14:39:49.174	WT901BLE68-01(48591DE3C19B)	6.469	-9.748	-1.974	47.180	-10.010	718.201	28.30	-56.38	-140.90	-34.594	-21.168	46.550	-0.56497	0.49896	0.14786	0.64023	30.0	13111	100
2025-3-6 14:39:49.174	WT901BLE68-01(48591DE3C19B)	6.469	-2.724	-1.103	-179.565	18.188	830.444	13.46	-59.45	-125.74	-34.594	-21.168	46.550	-0.56497	0.49896	0.14786	0.64023	30.0	13111	100
2025-3-6 14:39:49.236	WT901BLE68-01(48591DE3C19B)	7.696	-2.724	-1.103	-179.565	18.188	830.444	-3.20	-60.21	-108.77	-34.594	-21.168	46.550	-0.56497	0.49896	0.14786	0.64023	30.0	13111	100
2025-3-6 14:39:49.236	WT901BLE68-01(48591DE3C19B)	7.696	6.555	-1.169	328.491	-82.092	766.602	-13.84	-60.03	-92.94	-34.594	-21.168	46.550	-0.56497	0.49896	0.14786	0.64023	30.0	13111	100
2025-3-6 14:39:49.236	WT901BLE68-01(48591DE3C19B)	4.081	6.555	-1.169	328.491	-82.092	766.602	-23.60	-58.50	-77.99	-34.594	-21.168	46.550	-0.56497	0.49896	0.14786	0.64023	30.0	13111	100
2025-3-6 14:39:49.236	WT901BLE68-01(48591DE3C19B)	4.081	15.619	-0.792	238.831	-187.744	408.447	-28.75	-58.58	-69.32	-34.594	-21.168	46.550	-0.56497	0.49896	0.14786	0.64023	30.0	13111	100
2025-3-6 14:39:49.265	WT901BLE68-01(48591DE3C19B)	2.053	15.619	-0.792	238.831	-187.744	408.447	-33.63	-58.34	-60.87	-34.594	-21.168	46.550	-0.56497	0.49896	0.14786	0.64023	30.0	13111	100
2025-3-6 14:39:49.266	WT901BLE68-01(48591DE3C19B)	2.053	15.926	-1.181	-268.982	-169.617	-264.221	-33.91	-61.53	-63.57	-34.594	-21.168	46.550	-0.56497	0.49896	0.14786	0.64023	30.0	13111	100
2025-3-6 14:39:49.266	WT901BLE68-01(48591DE3C19B)	7.398	15.926	-1.181	-268.982	-169.617	-264.221	-33.62	-64.69	-66.71	-34.594	-21.168	46.550	-0.56497	0.49896	0.14786	0.64023	30.0	13111	100
2025-3-6 14:39:49.266	WT901BLE68-01(48591DE3C19B)	8.172	8.324	1.191	-405.762	-82.764	-848.999	-19.82	-69.52	-85.83	-34.594	-21.168	46.550	-0.52585	0.48596	0.31506	0.62283	30.0	13111	100
2025-3-6 14:39:49.323	WT901BLE68-01(48591DE3C19B)	8.172	-5.143	2.538	-299.194	-14.954	-1055.176	4.26	-71.48	-114.76	-34.594	-21.168	46.550	-0.52585	0.48596	0.31506	0.62283	30.0	13111	100
2025-3-6 14:39:49.324	WT901BLE68-01(48591DE3C19B)	2.206	-5.143	2.538	-299.194	-14.954	-1055.176	29.95	-68.43	-144.96	-34.594	-21.168	46.550	-0.52585	0.48596	0.31506	0.62283	30.0	13111	100
2025-3-6 14:39:49.324	WT901BLE68-01(48591DE3C19B)	2.206	-15.415	1.834	396.851	109.497	-794.312	46.29	-62.43	-162.09	-34.594	-21.168	46.550	-0.52585	0.48596	0.31506	0.62283	30.0	13111	100
2025-3-6 14:39:49.324	WT901BLE68-01(48591DE3C19B)	-1.497	-15.415	1.834	396.851	109.497	-794.312	57.11	-55.65	-169.93	-34.594	-21.168	46.550	-0.52585	0.48596	0.31506	0.62283	30.0	13111	100
2025-3-6 14:39:49.354	WT901BLE68-01(48591DE3C19B)	-1.497	-15.995	-0.865	492.310	148.987	71.777	62.55	-52.20	-171.15	-34.594	-21.168	46.550	-0.52585	0.48596	0.31506	0.62283	30.0	13111	100
2025-3-6 14:39:49.354	WT901BLE68-01(48591DE3C19B)	3.847	-15.995	-0.865	492.310	148.987	71.777	65.09	-52.54	-168.32	-34.594	-21.168	46.550	-0.52585	0.48596	0.31506	0.62283	30.0	13111	100
2025-3-6 14:39:49.354	WT901BLE68-01(48591DE3C19B)	3.847	-11.507	-2.876	39.185	141.479	891.724	62.69	-56.66	-162.35	-34.594	-21.168	46.550	-0.52585	0.48596	0.31506	0.62283	30.0	13111	100
2025-3-6 14:39:49.354	WT901BLE68-01(48591DE3C19B)	9.428	-11.507	-2.876	39.185	141.479	891.724	52.05	-63.78	-149.96	-34.594	-21.168	46.550	-0.52585	0.48596	0.31506	0.62283	30.0	13111	100
2025-3-6 14:39:49.383	WT901BLE68-01(48591DE3C19B)	9.428	0.506	-2.314	-18.372	164.368	1026.062	32.51	-69.44	-128.90	-34.594	-21.168	46.550	-0.52585	0.48596	0.31506	0.62283	30.0	13111	100
2025-3-6 14:39:49.384	WT901BLE68-01(48591DE3C19B)	6.874	0.506	-2.314	-18.372	164.368	1026.062	2.37	-71.14	-97.45	-34.594	-21.168	46.550	-0.52585	0.48596	0.31506	0.62283	30.0	13111	100
2025-3-6 14:39:49.384	WT901BLE68-01(48591DE3C19B)	6.874	12.889	-0.289	6.042	-79.834	706.970	-22.05	-69.24	-71.84	-34.594	-21.168	46.550	-0.52585	0.48596	0.31506	0.62283	30.0	13111	100
2025-3-6 14:39:49.384	WT901BLE68-01(48591DE3C19B)	2.414	12.889	-0.289	6.042	-79.834	706.970	-38.43	-66.41	-54.36	-34.594	-21.168	46.550	-0.52585	0.48596	0.31506	0.62283	30.0	13111	100
2025-3-6 14:39:49.414	WT901BLE68-01(48591DE3C19B)	2.414	15.999	2.625	-215.393	-131.409	119.568	-47.88	-64.53	-45.29	-34.594	-21.168	46.550	-0.52585	0.48596	0.31506	0.62283	30.0	13111	100
2025-3-6 14:39:49.414	WT901BLE68-01(48591DE3C19B)	3.863	15.999	2.625	-215.393	-131.409	119.568	-53.72	-64.66	-41.26	-34.594	-21.168	46.550	-0.52585	0.48596	0.31506	0.62283	30.0	13111	100
2025-3-6 14:39:49.415	WT901BLE68-01(48591DE3C19B)	3.863	13.549	1.486	-315.063	60.974	-588.257	-53.65	-67.06	-44.15	-34.594	-21.168	46.550	-0.52585	0.48596	0.31506	0.62283	30.0	13111	100
2025-3-6 14:39:49.415	WT901BLE68-01(48591DE3C19B)	7.058	13.549	1.486	-315.063	60.974	-588.257	-44.90	-71.40	-56.73	-34.594	-21.168	46.550	-0.52585	0.48596	0.31506	0.62283	30.0	13111	100
2025-3-6 14:39:49.474	WT901BLE68-01(48591DE3C19B)	7.058	1.736	1.203	-79.651	116.821	-936.768	-23.10	-75.22	-81.29	-34.594	-21.168	46.550	-0.52585	0.48596	0.31506	0.62283	30.0	13111	100
2025-3-6 14:39:49.474	WT901BLE68-01(48591DE3C19B)	5.379	1.736	1.203	-79.651	116.821	-936.768	13.05	-74.88	-119.24	-34.594	-21.168	46.550	-0.52585	0.48596	0.31506	0.62283	30.0	13111	100
2025-3-6 14:39:49.474	WT901BLE68-01(48591DE3C19B)	5.379	-7.834	1.883	87.097	-15.503	-881.042	39.19	-70.27	-146.35	-34.594	-21.168	46.550	-0.52585	0.48596	0.31506	0.62283	30.0	13111	100
2025-3-6 14:39:49.474	WT901BLE68-01(48591DE3C19B)	-0.340	-7.834	1.883	87.097	-15.503	-881.042	54.77	-63.86	-162.10	-34.594	-21.168	46.550	-0.52585	0.48596	0.31506	0.62283	30.0	13111	100
2025-3-6 14:39:49.503	WT901BLE68-01(48591DE3C19B)	-0.340	-15.422	0.574	284.851	112.915	-454.590	62.29	-58.02	-168.40	-40.964	-6.370	34.496	-0.52585	0.48596	0.31506	0.62283	30.0	13111	100
2025-3-6 14:39:49.504	WT901BLE68-01(48591DE3C19B)	-0.898	-15.422	0.574	284.851	112.915	-454.590	66.44	-53.65	-169.97	-40.964	-6.370	34.496	-0.52585	0.48596	0.31506	0.62283	30.0	13111	100
2025-3-6 14:39:49.504	WT901BLE68-01(48591DE3C19B)	-0.898	-15.426	-2.233	119.263	121.216	420.349	66.93	-53.36	-168.20	-40.964	-6.370	34.496	-0.52585	0.48596	0.31506	0.62283	30.0	13111	100
2025-3-6 14:39:49.504	WT901BLE68-01(48591DE3C19B)	5.977	-15.426	-2.233	119.263	121.216	420.349	63.64	-57.02	-162.99	-40.964	-6.370	34.496	-0.52585	0.48596	0.31506	0.62283	30.0	13111	100
2025-3-6 14:39:49.534	WT901BLE68-01(48591DE3C19B)	5.977	-7.254	-2.201	-60.608	81.787	984.192	55.79	-62.95	-153.87	-40.964	-6.370	34.496	-0.52585	0.48596	0.31506	0.62283	30.0	13111	100
2025-3-6 14:39:49.534	WT901BLE68-01(48591DE3C19B)	8.542	-7.254	-2.201	-60.608	81.787	984.192	37.51	-69.88	-134.93	-40.964	-6.370	34.496	-0.52585	0.48596	0.31506	0.62283	30.0	13111	100
2025-3-6 14:39:49.534	WT901BLE68-01(48591DE3C19B)	8.542	4.565	-1.015	-49.072	29.541	857.300	9.68	-73.29	-106.51	-40.964	-6.370	34.496	-0.52585	0.48596	0.31506	0.62283	30.0	13111	100
2025-3-6 14:39:49.534	WT901BLE68-01(48591DE3C19B)	5.001	4.565	-1.015	-49.072	29.541	857.300	-19.43	-72.26	-76.87	-40.964	-6.370	34.496	-0.52585	0.48596	0.31506	0.62283	30.0	13111	100
2025-3-6 14:39:49.594	WT901BLE68-01(48591DE3C19B)	5.001	14.590	1.768	105.164	-231.689	487.793	-38.24	-69.85	-56.89	-40.964	-6.370	34.496	-0.52585	0.48596	0.31506	0.62283	30.0	13111	100
2025-3-6 14:39:49.594	WT901BLE68-01(48591DE3C19B)	1.912	14.590	1.768	105.164	-231.689	487.793	-50.70	-68.15	-42.62	-40.964	-6.370	34.496	-0.52585	0.48596	0.31506	0.62283	30.0	13111	100
2025-3-6 14:39:49.594	WT901BLE68-01(48591DE3C19B)	1.912	15.999	2.703	-221.497	-40.955	-134.644	-56.55	-67.74	-37.02	-40.964	-6.370	34.496	-0.52585	0.48596	0.31506	0.62283	30.0	13111	100
2025-3-6 14:39:49.594	WT901BLE68-01(48591DE3C19B)	5.530	15.999	2.703	-221.497	-40.955	-134.644	-57.47	-69.33	-38.36	-40.964	-6.370	34.496	-0.52585	0.48596	0.31506	0.62283	30.0	13111	100
2025-3-6 14:39:49.654	WT901BLE68-01(48591DE3C19B)	5.530	9.975	0.438	-355.408	213.013	-732.727	-50.33	-72.61	-48.80	-40.964	-6.370	34.496	-0.52585	0.48596	0.31506	0.62283	30.0	13111	100
2025-3-6 14:39:49.654	WT901BLE68-01(48591DE3C19B)	7.195	9.975	0.438	-355.408	213.013	-732.727	-27.85	-75.82	-75.62	-40.964	-6.370	34.496	-0.52585	0.48596	0.31506	0.62283	30.0	13111	100
2025-3-6 14:39:49.654	WT901BLE68-01(48591DE3C19B)	7.195	-2.024	0.651	-68.359	102.234	-920.471	5.18	-76.00	-111.60	-40.964	-6.370	34.496	-0.52585	0.48596	0.31506	0.62283	30.0	13111	100
2025-3-6 14:39:49.654	WT901BLE68-01(48591DE3C19B)	3.614	-2.024	0.651	-68.359	102.234	-920.471	34.24	-71.72	-142.27	-40.964	-6.370	34.496	-0.52585	0.48596	0.31506	0.62283	30.0	13111	100
2025-3-6 14:39:49.683	WT901BLE68-01(48591DE3C19B)	3.614	-11.795	1.704	102.905	94.666	-833.679	49.60	-65.04	-158.34	-40.964	-6.370	34.496	-0.52585	0.48596	0.31506	0.62283	30.0	13111	100
2025-3-6 14:39:49.683	WT901BLE68-01(48591DE3C19B)	-2.056	-11.795	1.704	102.905	94.666	-833.679	58.32	-57.80	-166.90	-40.964	-6.370	34.496	-0.52585	0.48596	0.31506	0.62283	30.0	13111	100
2025-3-6 14:39:49.683	WT901BLE68-01(48591DE3C19B)	-2.056	-16.000	-2.105	309.692	195.984	-116.028	62.04	-53.17	-168.80	-40.964	-6.370	34.496	-0.52585	0.48596	0.31506	0.62283	30.0	13111	100
2025-3-6 14:39:49.683	WT901BLE68-01(48591DE3C19B)	2.473	-16.000	-2.105	309.692	195.984	-116.028	63.39	-51.55	-166.71	-40.964	-6.370	34.496	-0.52585	0.48596	0.31506	0.62283	30.0	13111	100
2025-3-6 14:39:49.744	WT901BLE68-01(48591DE3C19B)	2.473	-12.312	-2.774	-12.024	140.198	813.965	60.50	-54.23	-161.43	-40.964	-6.370	34.496	-0.52585	0.48596	0.31506	0.62283	30.0	13111	100
2025-3-6 14:39:49.744	WT901BLE68-01(48591DE3C19B)	8.170	-12.312	-2.774	-12.024	140.198	813.965	50.91	-60.53	-150.50	-40.964	-6.370	34.496	-0.40799	0.34558	0.47482	0.69894	30.0	13111	100
2025-3-6 14:39:49.745	WT901BLE68-01(48591DE3C19B)	8.170	-2.085	-2.549	-89.905	72.449	1063.721	34.39	-66.46	-132.93	-40.964	-6.370	34.496	-0.40799	0.34558	0.47482	0.69894	30.0	13111	100
2025-3-6 14:39:49.745	WT901BLE68-01(48591DE3C19B)	7.261	-2.085	-2.549	-89.905	72.449	1063.721	6.98	-69.78	-104.74	-40.964	-6.370	34.496	-0.40799	0.34558	0.47482	0.69894	30.0	13111	100
2025-3-6 14:39:49.746	WT901BLE68-01(48591DE3C19B)	7.261	9.198	-0.799	51.086	-172.729	760.254	-18.64	-69.37	-77.89	-40.964	-6.370	34.496	-0.40799	0.34558	0.47482	0.69894	30.0	13111	100
2025-3-6 14:39:49.746	WT901BLE68-01(48591DE3C19B)	3.606	9.198	-0.799	51.086	-172.729	760.254	-37.66	-67.31	-57.17	-40.964	-6.370	34.496	-0.40799	0.34558	0.47482	0.69894	30.0	13111	100
2025-3-6 14:39:49.746	WT901BLE68-01(48591DE3C19B)	3.606	15.843	3.291	-2.197	-248.962	249.390	-46.40	-67.60	-47.93	-40.964	-6.370	34.496	-0.40799	0.34558	0.47482	0.69894	30.0	13111	100
2025-3-6 14:39:49.746	WT901BLE68-01(48591DE3C19B)	3.415	15.843	3.291	-2.197	-248.962	249.390	-54.85	-67.44	-38.88	-40.964	-6.370	34.496	-0.40799	0.34558	0.47482	0.69894	30.0	13111	100
2025-3-6 14:39:49.804	WT901BLE68-01(48591DE3C19B)	3.415	15.345	3.058	-389.099	-28.259	-423.096	-52.36	-71.25	-45.64	-40.964	-6.370	34.496	-0.40799	0.34558	0.47482	0.69894	30.0	13111	100
2025-3-6 14:39:49.804	WT901BLE68-01(48591DE3C19B)	7.640	15.345	3.058	-389.099	-28.259	-423.096	-47.26	-74.89	-54.88	-40.964	-6.370	34.496	-0.40799	0.34558	0.47482	0.69894	30.0	13111	100
2025-3-6 14:39:49.804	WT901BLE68-01(48591DE3C19B)	7.640	5.276	1.410	-453.918	334.473	-937.744	-11.00	-76.76	-96.67	-40.964	-6.370	34.496	-0.40799	0.34558	0.47482	0.69894	30.0	13111	100
2025-3-6 14:39:49.804	WT901BLE68-01(48591DE3C19B)	6.550	5.276	1.410	-453.918	334.473	-937.744	19.06	-72.53	-132.22	-40.964	-6.370	34.496	-0.40799	0.34558	0.47482	0.69894	30.0	13111	100
2025-3-6 14:39:49.834	WT901BLE68-01(48591DE3C19B)	6.550	-7.182	0.879	-19.287	112.549	-956.299	40.23	-66.67	-154.71	-40.964	-6.370	34.496	-0.40799	0.34558	0.47482	0.69894	30.0	13111	100
2025-3-6 14:39:49.834	WT901BLE68-01(48591DE3C19B)	0.673	-7.182	0.879	-19.287	112.549	-956.299	51.60	-58.99	-167.44	-40.964	-6.370	34.496	-0.40799	0.34558	0.47482	0.69894	30.0	13111	100
2025-3-6 14:39:49.834	WT901BLE68-01(48591DE3C19B)	0.673	-15.339	-0.975	351.868	220.520	-605.530	57.68	-52.92	-170.38	-40.964	-6.370	34.496	-0.40799	0.34558	0.47482	0.69894	30.0	13111	100
2025-3-6 14:39:49.834	WT901BLE68-01(48591DE3C19B)	-1.080	-15.339	-0.975	351.868	220.520	-605.530	62.45	-46.86	-172.00	-40.964	-6.370	34.496	-0.40799	0.34558	0.47482	0.69894	30.0	13111	100
2025-3-6 14:39:49.863	WT901BLE68-01(48591DE3C19B)	-1.080	-15.790	-4.861	229.187	124.756	393.066	61.20	-50.10	-167.44	-40.964	-6.370	34.496	-0.40799	0.34558	0.47482	0.69894	30.0	13111	100
2025-3-6 14:39:49.863	WT901BLE68-01(48591DE3C19B)	6.301	-15.790	-4.861	229.187	124.756	393.066	59.30	-53.29	-162.39	-40.964	-6.370	34.496	-0.40799	0.34558	0.47482	0.69894	30.0	13111	100
2025-3-6 14:39:49.863	WT901BLE68-01(48591DE3C19B)	6.301	-8.576	-3.858	-74.829	10.132	1057.312	47.99	-62.14	-150.26	-41.552	-3.332	34.398	-0.40799	0.34558	0.47482	0.69894	30.0	13111	100
2025-3-6 14:39:49.863	WT901BLE68-01(48591DE3C19B)	9.777	-8.576	-3.858	-74.829	10.132	1057.312	27.95	-68.93	-129.44	-41.552	-3.332	34.398	-0.40799	0.34558	0.47482	0.69894	30.0	13111	100
2025-3-6 14:39:49.924	WT901BLE68-01(48591DE3C19B)	9.777	3.002	-0.992	-117.249	-63.354	1023.926	-2.22	-72.07	-99.04	-41.552	-3.332	34.398	-0.40799	0.34558	0.47482	0.69894	30.0	13111	100
2025-3-6 14:39:49.924	WT901BLE68-01(48591DE3C19B)	7.157	3.002	-0.992	-117.249	-63.354	1023.926	-33.04	-69.52	-67.99	-41.552	-3.332	34.398	-0.40799	0.34558	0.47482	0.69894	30.0	13111	100
2025-3-6 14:39:49.924	WT901BLE68-01(48591DE3C19B)	7.157	14.350	4.545	173.584	-296.997	599.792	-48.37	-67.88	-49.91	-41.552	-3.332	34.398	-0.40799	0.34558	0.47482	0.69894	30.0	13111	100
2025-3-6 14:39:49.924	WT901BLE68-01(48591DE3C19B)	2.135	14.350	4.545	173.584	-296.997	599.792	-60.29	-64.85	-35.17	-41.552	-3.332	34.398	-0.40799	0.34558	0.47482	0.69894	30.0	13111	100
2025-3-6 14:39:49.954	WT901BLE68-01(48591DE3C19B)	2.135	15.999	3.828	-48.889	17.822	-71.411	-59.60	-65.58	-36.53	-41.552	-3.332	34.398	-0.40799	0.34558	0.47482	0.69894	30.0	13111	100
2025-3-6 14:39:49.954	WT901BLE68-01(48591DE3C19B)	5.103	15.999	3.828	-48.889	17.822	-71.411	-58.63	-66.36	-38.08	-41.552	-3.332	34.398	-0.40799	0.34558	0.47482	0.69894	30.0	13111	100
2025-3-6 14:39:49.954	WT901BLE68-01(48591DE3C19B)	5.103	10.654	0.332	-357.666	278.503	-714.905	-44.90	-70.54	-56.54	-41.552	-3.332	34.398	-0.40799	0.34558	0.47482	0.69894	30.0	13111	100
2025-3-6 14:39:49.954	WT901BLE68-01(48591DE3C19B)	7.243	10.654	0.332	-357.666	278.503	-714.905	-25.18	-72.56	-80.87	-41.552	-3.332	34.398	-0.40799	0.34558	0.47482	0.69894	30.0	13111	100
2025-3-6 14:39:49.982	WT901BLE68-01(48591DE3C19B)	7.243	-0.794	-0.248	-72.632	126.892	-938.843	5.84	-72.95	-113.84	-41.552	-3.332	34.398	-0.40799	0.34558	0.47482	0.69894	30.0	13111	100
2025-3-6 14:39:49.983	WT901BLE68-01(48591DE3C19B)	3.689	-0.794	-0.248	-72.632	126.892	-938.843	30.40	-68.70	-140.32	-41.552	-3.332	34.398	-0.40799	0.34558	0.47482	0.69894	30.0	13111	100
2025-3-6 14:39:49.983	WT901BLE68-01(48591DE3C19B)	3.689	-10.904	0.109	95.154	13.916	-866.089	46.62	-63.16	-156.81	-41.552	-3.332	34.398	-0.40799	0.34558	0.47482	0.69894	30.0	13111	100
2025-3-6 14:39:49.983	WT901BLE68-01(48591DE3C19B)	-1.455	-10.904	0.109	95.154	13.916	-866.089	56.70	-56.38	-167.20	-41.552	-3.332	34.398	-0.40799	0.34558	0.47482	0.69894	30.0	13111	100
2025-3-6 14:39:50.44	WT901BLE68-01(48591DE3C19B)	-1.455	-15.986	-2.201	340.637	56.580	-223.145	61.03	-54.40	-168.32	-41.552	-3.332	34.398	-0.40799	0.34558	0.47482	0.69894	30.0	13111	100
2025-3-6 14:39:50.44	WT901BLE68-01(48591DE3C19B)	1.652	-15.986	-2.201	340.637	56.580	-223.145	64.92	-52.49	-169.08	-41.552	-3.332	34.398	-0.40799	0.34558	0.47482	0.69894	30.0	13111	100
2025-3-6 14:39:50.44	WT901BLE68-01(48591DE3C19B)	1.652	-14.089	-3.196	96.619	56.396	724.548	59.87	-59.02	-162.08	-41.552	-3.332	34.398	-0.40799	0.34558	0.47482	0.69894	30.0	13111	100
2025-3-6 14:39:50.45	WT901BLE68-01(48591DE3C19B)	8.672	-14.089	-3.196	96.619	56.396	724.548	51.72	-65.06	-152.08	-41.552	-3.332	34.398	-0.40799	0.34558	0.47482	0.69894	30.0	13111	100
2025-3-6 14:39:50.73	WT901BLE68-01(48591DE3C19B)	8.672	-3.654	-2.414	-24.597	-22.278	1153.198	27.67	-73.00	-126.99	-41.552	-3.332	34.398	-0.40799	0.34558	0.47482	0.69894	30.0	13111	100
2025-3-6 14:39:50.73	WT901BLE68-01(48591DE3C19B)	8.823	-3.654	-2.414	-24.597	-22.278	1153.198	-14.17	-74.77	-84.11	-41.552	-3.332	34.398	-0.40799	0.34558	0.47482	0.69894	30.0	13111	100
2025-3-6 14:39:50.73	WT901BLE68-01(48591DE3C19B)	8.823	9.674	2.009	-48.706	-139.709	856.750	-42.92	-71.78	-54.92	-41.552	-3.332	34.398	-0.40799	0.34558	0.47482	0.69894	30.0	13111	100
2025-3-6 14:39:50.73	WT901BLE68-01(48591DE3C19B)	4.360	9.674	2.009	-48.706	-139.709	856.750	-60.35	-65.88	-37.04	-41.552	-3.332	34.398	-0.60373	0.55682	0.30746	0.48041	30.0	13111	100
2025-3-6 14:39:50.103	WT901BLE68-01(48591DE3C19B)	4.360	15.999	5.678	-35.828	-119.568	273.438	-65.73	-64.11	-31.66	-41.552	-3.332	34.398	-0.60373	0.55682	0.30746	0.48041	30.0	13111	100
2025-3-6 14:39:50.103	WT901BLE68-01(48591DE3C19B)	3.324	15.999	5.678	-35.828	-119.568	273.438	-70.22	-62.24	-27.09	-41.552	-3.332	34.398	-0.60373	0.55682	0.30746	0.48041	30.0	13111	100
2025-3-6 14:39:50.103	WT901BLE68-01(48591DE3C19B)	3.324	14.347	2.748	-238.098	163.330	-478.760	-65.46	-66.33	-34.97	-41.552	-3.332	34.398	-0.60373	0.55682	0.30746	0.48041	30.0	13111	100
2025-3-6 14:39:50.104	WT901BLE68-01(48591DE3C19B)	6.185	14.347	2.748	-238.098	163.330	-478.760	-58.07	-70.04	-45.36	-41.552	-3.332	34.398	-0.60373	0.55682	0.30746	0.48041	30.0	13111	100
2025-3-6 14:39:50.164	WT901BLE68-01(48591DE3C19B)	6.185	4.237	0.575	-31.799	285.156	-910.767	-30.55	-74.67	-74.33	-41.552	-3.332	34.398	-0.60373	0.55682	0.30746	0.48041	30.0	13111	100
2025-3-6 14:39:50.164	WT901BLE68-01(48591DE3C19B)	6.024	4.237	0.575	-31.799	285.156	-910.767	4.48	-73.94	-110.78	-41.552	-3.332	34.398	-0.60373	0.55682	0.30746	0.48041	30.0	13111	100
2025-3-6 14:39:50.164	WT901BLE68-01(48591DE3C19B)	6.024	-5.136	0.659	68.298	53.162	-941.589	33.02	-70.26	-139.80	-41.552	-3.332	34.398	-0.60373	0.55682	0.30746	0.48041	30.0	13111	100
2025-3-6 14:39:50.164	WT901BLE68-01(48591DE3C19B)	0.368	-5.136	0.659	68.298	53.162	-941.589	49.69	-63.56	-156.96	-41.552	-3.332	34.398	-0.60373	0.55682	0.30746	0.48041	30.0	13111	100
2025-3-6 14:39:50.194	WT901BLE68-01(48591DE3C19B)	0.368	-14.875	-1.828	106.140	132.446	-577.515	55.22	-58.26	-161.95	-41.552	-3.332	34.398	-0.60373	0.55682	0.30746	0.48041	30.0	13111	100
2025-3-6 14:39:50.194	WT901BLE68-01(48591DE3C19B)	-0.909	-14.875	-1.828	106.140	132.446	-577.515	59.13	-52.92	-165.42	-41.552	-3.332	34.398	-0.60373	0.55682	0.30746	0.48041	30.0	13111	100
2025-3-6 14:39:50.194	WT901BLE68-01(48591DE3C19B)	6.865	-15.911	-4.602	183.228	50.659	407.715	57.09	-56.42	-160.84	-41.552	-3.332	34.398	-0.60373	0.55682	0.30746	0.48041	30.0	13111	100
2025-3-6 14:39:50.194	WT901BLE68-01(48591DE3C19B)	6.865	-8.004	-3.836	-34.546	-44.800	1115.479	49.68	-62.88	-151.66	-41.552	-3.332	34.398	-0.60373	0.55682	0.30746	0.48041	30.0	13111	100
2025-3-6 14:39:50.223	WT901BLE68-01(48591DE3C19B)	9.894	-8.004	-3.836	-34.546	-44.800	1115.479	29.14	-70.68	-130.03	-41.552	-3.332	34.398	-0.60373	0.55682	0.30746	0.48041	30.0	13111	100
2025-3-6 14:39:50.223	WT901BLE68-01(48591DE3C19B)	9.894	5.477	0.798	-205.322	-130.676	928.894	-4.14	-74.05	-96.71	-41.552	-3.332	34.398	-0.60373	0.55682	0.30746	0.48041	30.0	13111	100
2025-3-6 14:39:50.223	WT901BLE68-01(48591DE3C19B)	5.875	5.477	0.798	-205.322	-130.676	928.894	-37.17	-71.94	-64.62	-41.552	-3.332	34.398	-0.60373	0.55682	0.30746	0.48041	30.0	13111	100
2025-3-6 14:39:50.223	WT901BLE68-01(48591DE3C19B)	5.875	15.533	6.401	4.272	-240.234	474.060	-55.50	-68.12	-46.36	-41.552	-3.332	34.398	-0.60373	0.55682	0.30746	0.48041	30.0	13111	100
2025-3-6 14:39:50.283	WT901BLE68-01(48591DE3C19B)	2.865	15.533	6.401	4.272	-240.234	474.060	-65.74	-65.29	-35.27	-41.552	-3.332	34.398	-0.60373	0.55682	0.30746	0.48041	30.0	13111	100
2025-3-6 14:39:50.284	WT901BLE68-01(48591DE3C19B)	2.865	15.887	5.958	-142.822	30.457	-191.284	-69.49	-64.61	-31.89	-41.552	-3.332	34.398	-0.60373	0.55682	0.30746	0.48041	30.0	13111	100
2025-3-6 14:39:50.284	WT901BLE68-01(48591DE3C19B)	5.117	15.887	5.958	-142.822	30.457	-191.284	-68.43	-66.54	-34.55	-41.552	-3.332	34.398	-0.60373	0.55682	0.30746	0.48041	30.0	13111	100
2025-3-6 14:39:50.284	WT901BLE68-01(48591DE3C19B)	5.117	7.001	1.615	-159.668	348.999	-769.470	-59.75	-70.32	-45.37	-41.552	-3.332	34.398	-0.60373	0.55682	0.30746	0.48041	30.0	13111	100
2025-3-6 14:39:50.316	WT901BLE68-01(48591DE3C19B)	5.942	7.001	1.615	-159.668	348.999	-769.470	-36.29	-73.96	-71.48	-32.536	-17.738	32.242	-0.60373	0.55682	0.30746	0.48041	30.0	13111	100
2025-3-6 14:39:50.316	WT901BLE68-01(48591DE3C19B)	5.942	-1.994	1.077	121.826	106.567	-833.923	-5.50	-74.81	-103.46	-32.536	-17.738	32.242	-0.60373	0.55682	0.30746	0.48041	30.0	13111	100
2025-3-6 14:39:50.316	WT901BLE68-01(48591DE3C19B)	2.204	-1.994	1.077	121.826	106.567	-833.923	23.91	-72.28	-132.64	-32.536	-17.738	32.242	-0.60373	0.55682	0.30746	0.48041	30.0	13111	100
2025-3-6 14:39:50.316	WT901BLE68-01(48591DE3C19B)	2.204	-11.465	-1.559	50.537	200.867	-738.953	40.62	-66.66	-149.34	-32.536	-17.738	32.242	-0.60373	0.55682	0.30746	0.48041	30.0	13111	100
2025-3-6 14:39:50.345	WT901BLE68-01(48591DE3C19B)	-1.975	-11.465	-1.559	50.537	200.867	-738.953	48.82	-60.06	-157.81	-32.536	-17.738	32.242	-0.60373	0.55682	0.30746	0.48041	30.0	13111	100
2025-3-6 14:39:50.345	WT901BLE68-01(48591DE3C19B)	-1.975	-16.000	-5.292	71.594	94.116	-12.634	51.45	-56.39	-160.13	-32.536	-17.738	32.242	-0.60373	0.55682	0.30746	0.48041	30.0	13111	100
2025-3-6 14:39:50.345	WT901BLE68-01(48591DE3C19B)	3.244	-16.000	-5.292	71.594	94.116	-12.634	50.99	-55.98	-158.81	-32.536	-17.738	32.242	-0.60373	0.55682	0.30746	0.48041	30.0	13111	100
2025-3-6 14:39:50.345	WT901BLE68-01(48591DE3C19B)	3.244	-11.392	-5.434	-38.391	-64.148	847.473	46.26	-59.35	-153.23	-32.536	-17.738	32.242	-0.60373	0.55682	0.30746	0.48041	30.0	13111	100
2025-3-6 14:39:50.404	WT901BLE68-01(48591DE3C19B)	8.552	-11.392	-5.434	-38.391	-64.148	847.473	33.59	-65.62	-139.67	-32.536	-17.738	32.242	-0.60373	0.55682	0.30746	0.48041	30.0	13111	100
2025-3-6 14:39:50.404	WT901BLE68-01(48591DE3C19B)	8.552	1.682	-1.375	-172.729	-150.635	944.946	12.22	-70.40	-118.08	-32.536	-17.738	32.242	-0.60373	0.55682	0.30746	0.48041	30.0	13111	100
2025-3-6 14:39:50.404	WT901BLE68-01(48591DE3C19B)	6.648	1.682	-1.375	-172.729	-150.635	944.946	-18.26	-71.54	-87.98	-32.536	-17.738	32.242	-0.60373	0.55682	0.30746	0.48041	30.0	13111	100
2025-3-6 14:39:50.404	WT901BLE68-01(48591DE3C19B)	6.648	10.760	4.040	6.836	-324.829	598.511	-42.16	-69.67	-63.74	-32.536	-17.738	32.242	-0.60373	0.55682	0.30746	0.48041	30.0	13111	100
2025-3-6 14:39:50.433	WT901BLE68-01(48591DE3C19B)	3.406	10.760	4.040	6.836	-324.829	598.511	-58.42	-67.17	-46.37	-32.536	-17.738	32.242	-0.60373	0.55682	0.30746	0.48041	30.0	13111	100
2025-3-6 14:39:50.433	WT901BLE68-01(48591DE3C19B)	3.406	15.973	6.879	139.343	-134.644	129.700	-66.14	-65.13	-37.23	-32.536	-17.738	32.242	-0.60373	0.55682	0.30746	0.48041	30.0	13111	100
2025-3-6 14:39:50.433	WT901BLE68-01(48591DE3C19B)	3.569	15.973	6.879	139.343	-134.644	129.700	-68.29	-64.68	-33.32	-32.536	-17.738	32.242	-0.60373	0.55682	0.30746	0.48041	30.0	13111	100
2025-3-6 14:39:50.434	WT901BLE68-01(48591DE3C19B)	3.569	12.535	3.217	-194.641	181.396	-529.358	-65.95	-66.70	-36.10	-32.536	-17.738	32.242	-0.60373	0.55682	0.30746	0.48041	30.0	13111	100
2025-3-6 14:39:50.464	WT901BLE68-01(48591DE3C19B)	5.455	12.535	3.217	-194.641	181.396	-529.358	-56.68	-70.74	-47.99	-32.536	-17.738	32.242	-0.60373	0.55682	0.30746	0.48041	30.0	13111	100
2025-3-6 14:39:50.464	WT901BLE68-01(48591DE3C19B)	5.455	1.946	0.966	-13.794	199.951	-816.895	-37.58	-74.63	-68.88	-32.536	-17.738	32.242	-0.60373	0.55682	0.30746	0.48041	30.0	13111	100
2025-3-6 14:39:50.464	WT901BLE68-01(48591DE3C19B)	4.181	1.946	0.966	-13.794	199.951	-816.895	-4.61	-75.79	-102.89	-32.536	-17.738	32.242	-0.60373	0.55682	0.30746	0.48041	30.0	13111	100
2025-3-6 14:39:50.464	WT901BLE68-01(48591DE3C19B)	4.181	-6.031	0.291	40.039	105.347	-829.224	24.35	-72.71	-132.62	-32.536	-17.738	32.242	-0.60373	0.55682	0.30746	0.48041	30.0	13111	100
2025-3-6 14:39:50.524	WT901BLE68-01(48591DE3C19B)	-0.471	-6.031	0.291	40.039	105.347	-829.224	42.43	-67.13	-151.23	-32.536	-17.738	32.242	-0.60373	0.55682	0.30746	0.48041	30.0	13111	100
2025-3-6 14:39:50.524	WT901BLE68-01(48591DE3C19B)	-0.471	-14.045	-3.381	19.592	166.626	-477.356	50.14	-61.47	-159.28	-32.536	-17.738	32.242	-0.35303	0.38986	0.44153	0.72687	30.0	13111	100
2025-3-6 14:39:50.524	WT901BLE68-01(48591DE3C19B)	-0.955	-14.045	-3.381	19.592	166.626	-477.356	53.07	-56.84	-162.40	-32.536	-17.738	32.242	-0.35303	0.38986	0.44153	0.72687	30.0	13111	100
2025-3-6 14:39:50.524	WT901BLE68-01(48591DE3C19B)	-0.955	-15.240	-5.220	23.560	2.747	439.514	52.26	-56.45	-161.25	-32.536	-17.738	32.242	-0.35303	0.38986	0.44153	0.72687	30.0	13111	100
2025-3-6 14:39:50.555	WT901BLE68-01(48591DE3C19B)	5.973	-15.240	-5.220	23.560	2.747	439.514	47.49	-60.13	-155.58	-32.536	-17.738	32.242	-0.35303	0.38986	0.44153	0.72687	30.0	13111	100
2025-3-6 14:39:50.555	WT901BLE68-01(48591DE3C19B)	5.973	-5.886	-3.064	-82.458	-146.179	995.483	37.13	-65.84	-144.55	-32.536	-17.738	32.242	-0.35303	0.38986	0.44153	0.72687	30.0	13111	100
2025-3-6 14:39:50.555	WT901BLE68-01(48591DE3C19B)	8.049	-5.886	-3.064	-82.458	-146.179	995.483	13.72	-71.76	-120.66	-32.536	-17.738	32.242	-0.35303	0.38986	0.44153	0.72687	30.0	13111	100
2025-3-6 14:39:50.555	WT901BLE68-01(48591DE3C19B)	8.049	5.563	1.156	-101.379	-259.888	780.640	-17.29	-73.66	-89.43	-32.536	-17.738	32.242	-0.35303	0.38986	0.44153	0.72687	30.0	13111	100
2025-3-6 14:39:50.583	WT901BLE68-01(48591DE3C19B)	5.467	5.563	1.156	-101.379	-259.888	780.640	-45.05	-71.77	-61.69	-32.536	-17.738	32.242	-0.35303	0.38986	0.44153	0.72687	30.0	13111	100
2025-3-6 14:39:50.583	WT901BLE68-01(48591DE3C19B)	5.467	14.014	5.961	246.887	-240.295	398.132	-60.05	-68.55	-45.16	-32.536	-17.738	32.242	-0.35303	0.38986	0.44153	0.72687	30.0	13111	100
2025-3-6 14:39:50.583	WT901BLE68-01(48591DE3C19B)	2.336	14.014	5.961	246.887	-240.295	398.132	-67.03	-66.16	-35.03	-32.536	-17.738	32.242	-0.35303	0.38986	0.44153	0.72687	30.0	13111	100
2025-3-6 14:39:50.583	WT901BLE68-01(48591DE3C19B)	2.336	15.817	3.999	-8.118	63.293	-113.708	-68.68	-65.39	-31.95	-32.536	-17.738	32.242	-0.35303	0.38986	0.44153	0.72687	30.0	13111	100
2025-3-6 14:39:50.646	WT901BLE68-01(48591DE3C19B)	4.084	15.817	3.999	-8.118	63.293	-113.708	-66.12	-66.46	-34.77	-32.536	-17.738	32.242	-0.35303	0.38986	0.44153	0.72687	30.0	13111	100
2025-3-6 14:39:50.646	WT901BLE68-01(48591DE3C19B)	4.084	8.757	1.064	-262.451	251.221	-656.311	-59.05	-69.43	-43.71	-32.536	-17.738	32.242	-0.35303	0.38986	0.44153	0.72687	30.0	13111	100
2025-3-6 14:39:50.646	WT901BLE68-01(48591DE3C19B)	5.673	8.757	1.064	-262.451	251.221	-656.311	-42.75	-73.20	-63.48	-32.536	-17.738	32.242	-0.35303	0.38986	0.44153	0.72687	30.0	13111	100
2025-3-6 14:39:50.646	WT901BLE68-01(48591DE3C19B)	5.673	-0.534	0.977	-8.057	179.199	-805.542	-16.66	-75.14	-91.77	-32.536	-17.738	32.242	-0.35303	0.38986	0.44153	0.72687	30.0	13111	100
2025-3-6 14:39:50.682	WT901BLE68-01(48591DE3C19B)	2.658	-0.534	0.977	-8.057	179.199	-805.542	13.35	-73.48	-122.76	-32.536	-17.738	32.242	-0.35303	0.38986	0.44153	0.72687	30.0	13111	100
2025-3-6 14:39:50.682	WT901BLE68-01(48591DE3C19B)	2.658	-10.333	-0.137	27.588	180.847	-783.203	33.01	-68.60	-143.02	-32.536	-17.738	32.242	-0.35303	0.38986	0.44153	0.72687	30.0	13111	100
2025-3-6 14:39:50.682	WT901BLE68-01(48591DE3C19B)	-2.458	-10.333	-0.137	27.588	180.847	-783.203	44.32	-62.28	-154.98	-32.536	-17.738	32.242	-0.35303	0.38986	0.44153	0.72687	30.0	13111	100
2025-3-6 14:39:50.682	WT901BLE68-01(48591DE3C19B)	-2.458	-15.996	-4.662	199.463	136.230	-61.096	45.27	-61.02	-153.76	-39.494	-7.154	34.202	-0.35303	0.38986	0.44153	0.72687	30.0	13111	100
2025-3-6 14:39:50.706	WT901BLE68-01(48591DE3C19B)	1.959	-15.996	-4.662	199.463	136.230	-61.096	45.98	-59.90	-152.44	-39.494	-7.154	34.202	-0.35303	0.38986	0.44153	0.72687	30.0	13111	100
2025-3-6 14:39:50.706	WT901BLE68-01(48591DE3C19B)	1.959	-11.461	-5.188	65.613	-53.650	830.627	34.29	-65.99	-138.87	-39.494	-7.154	34.202	-0.35303	0.38986	0.44153	0.72687	30.0	13111	100
2025-3-6 14:39:50.706	WT901BLE68-01(48591DE3C19B)	7.301	-11.461	-5.188	65.613	-53.650	830.627	15.79	-70.26	-118.56	-39.494	-7.154	34.202	-0.35303	0.38986	0.44153	0.72687	30.0	13111	100
2025-3-6 14:39:50.706	WT901BLE68-01(48591DE3C19B)	7.301	-0.771	-2.120	-176.636	-180.664	1013.916	-17.21	-72.08	-85.94	-39.494	-7.154	34.202	-0.35303	0.38986	0.44153	0.72687	30.0	13111	100
2025-3-6 14:39:50.764	WT901BLE68-01(48591DE3C19B)	7.021	-0.771	-2.120	-176.636	-180.664	1013.916	-46.46	-68.12	-57.08	-39.494	-7.154	34.202	-0.35303	0.38986	0.44153	0.72687	30.0	13111	100
2025-3-6 14:39:50.764	WT901BLE68-01(48591DE3C19B)	7.021	10.316	2.586	-50.232	-281.006	567.505	-60.47	-65.20	-42.63	-39.494	-7.154	34.202	-0.35303	0.38986	0.44153	0.72687	30.0	13111	100
2025-3-6 14:39:50.764	WT901BLE68-01(48591DE3C19B)	4.127	10.316	2.586	-50.232	-281.006	567.505	-70.92	-61.26	-31.71	-39.494	-7.154	34.202	-0.35303	0.38986	0.44153	0.72687	30.0	13111	100
2025-3-6 14:39:50.764	WT901BLE68-01(48591DE3C19B)	4.127	15.908	6.770	78.003	-157.043	54.077	-73.20	-61.44	-28.31	-39.494	-7.154	34.202	-0.35303	0.38986	0.44153	0.72687	30.0	13111	100
2025-3-6 14:39:50.793	WT901BLE68-01(48591DE3C19B)	3.904	15.908	6.770	78.003	-157.043	54.077	-75.28	-61.64	-25.02	-39.494	-7.154	34.202	-0.35303	0.38986	0.44153	0.72687	30.0	13111	100
2025-3-6 14:39:50.793	WT901BLE68-01(48591DE3C19B)	3.904	12.493	4.268	-240.295	158.020	-448.181	-71.67	-65.80	-31.60	-39.494	-7.154	34.202	-0.35303	0.38986	0.44153	0.72687	30.0	13111	100
2025-3-6 14:39:50.793	WT901BLE68-01(48591DE3C19B)	5.456	12.493	4.268	-240.295	158.020	-448.181	-65.92	-69.70	-40.24	-39.494	-7.154	34.202	-0.35303	0.38986	0.44153	0.72687	30.0	13111	100
2025-3-6 14:39:50.793	WT901BLE68-01(48591DE3C19B)	5.456	2.267	1.088	-76.355	301.636	-819.763	-42.98	-74.93	-64.88	-39.494	-7.154	34.202	-0.35303	0.38986	0.44153	0.72687	30.0	13111	100
2025-3-6 14:39:50.825	WT901BLE68-01(48591DE3C19B)	3.927	2.267	1.088	-76.355	301.636	-819.763	-8.73	-75.88	-100.80	-39.494	-7.154	34.202	-0.35303	0.38986	0.44153	0.72687	30.0	13111	100
2025-3-6 14:39:50.825	WT901BLE68-01(48591DE3C19B)	3.927	-6.281	0.964	60.547	125.610	-827.698	22.38	-73.49	-132.19	-39.494	-7.154	34.202	-0.35303	0.38986	0.44153	0.72687	30.0	13111	100
2025-3-6 14:39:50.825	WT901BLE68-01(48591DE3C19B)	-0.756	-6.281	0.964	60.547	125.610	-827.698	41.45	-67.92	-151.55	-39.494	-7.154	34.202	-0.35303	0.38986	0.44153	0.72687	30.0	13111	100
2025-3-6 14:39:50.825	WT901BLE68-01(48591DE3C19B)	-0.756	-14.189	-3.343	69.153	246.643	-456.116	45.66	-63.03	-155.30	-39.494	-7.154	34.202	-0.35303	0.38986	0.44153	0.72687	30.0	13111	100
2025-3-6 14:39:50.883	WT901BLE68-01(48591DE3C19B)	-1.011	-14.189	-3.343	69.153	246.643	-456.116	48.49	-58.21	-157.79	-39.494	-7.154	34.202	-0.35303	0.38986	0.44153	0.72687	30.0	13111	100
2025-3-6 14:39:50.884	WT901BLE68-01(48591DE3C19B)	-1.011	-14.354	-6.164	71.411	28.870	425.842	43.41	-61.35	-151.25	-39.494	-7.154	34.202	-0.35303	0.38986	0.44153	0.72687	30.0	13111	100
2025-3-6 14:39:50.884	WT901BLE68-01(48591DE3C19B)	4.963	-14.354	-6.164	71.411	28.870	425.842	36.83	-64.18	-143.32	-39.494	-7.154	34.202	-0.35303	0.38986	0.44153	0.72687	30.0	13111	100
2025-3-6 14:39:50.884	WT901BLE68-01(48591DE3C19B)	4.963	-5.267	-3.531	-204.346	-134.216	924.561	15.74	-69.79	-122.96	-39.494	-7.154	34.202	-0.35303	0.38986	0.44153	0.72687	30.0	13111	100
2025-3-6 14:39:50.916	WT901BLE68-01(48591DE3C19B)	7.305	-5.267	-3.531	-204.346	-134.216	924.561	-13.80	-71.43	-94.14	-39.494	-7.154	34.202	-0.49759	0.49075	0.32324	0.63794	30.0	13111	100
2025-3-6 14:39:50.917	WT901BLE68-01(48591DE3C19B)	7.305	5.351	1.101	-311.707	-299.927	745.178	-41.17	-70.62	-68.78	-39.494	-7.154	34.202	-0.49759	0.49075	0.32324	0.63794	30.0	13111	100
2025-3-6 14:39:50.917	WT901BLE68-01(48591DE3C19B)	5.318	5.351	1.101	-311.707	-299.927	745.178	-62.56	-66.54	-49.38	-39.494	-7.154	34.202	-0.49759	0.49075	0.32324	0.63794	30.0	13111	100
2025-3-6 14:39:50.917	WT901BLE68-01(48591DE3C19B)	5.318	13.750	7.384	58.777	-335.999	344.604	-71.91	-64.74	-38.59	-39.494	-7.154	34.202	-0.49759	0.49075	0.32324	0.63794	30.0	13111	100
2025-3-6 14:39:50.946	WT901BLE68-01(48591DE3C19B)	3.165	13.750	7.384	58.777	-335.999	344.604	-79.47	-62.41	-29.48	-39.494	-7.154	34.202	-0.49759	0.49075	0.32324	0.63794	30.0	13111	100
2025-3-6 14:39:50.946	WT901BLE68-01(48591DE3C19B)	3.165	14.421	6.908	-225.769	99.670	-184.448	-78.78	-64.29	-32.67	-39.494	-7.154	34.202	-0.49759	0.49075	0.32324	0.63794	30.0	13111	100
2025-3-6 14:39:50.946	WT901BLE68-01(48591DE3C19B)	4.012	14.421	6.908	-225.769	99.670	-184.448	-77.59	-66.18	-36.28	-39.494	-7.154	34.202	-0.49759	0.49075	0.32324	0.63794	30.0	13111	100
2025-3-6 14:39:50.946	WT901BLE68-01(48591DE3C19B)	4.012	5.925	2.736	-251.282	391.357	-567.505	-65.47	-70.60	-51.79	-39.494	-7.154	34.202	-0.49759	0.49075	0.32324	0.63794	30.0	13111	100
2025-3-6 14:39:51.4	WT901BLE68-01(48591DE3C19B)	4.145	5.925	2.736	-251.282	391.357	-567.505	-47.25	-73.35	-73.33	-39.494	-7.154	34.202	-0.49759	0.49075	0.32324	0.63794	30.0	13111	100
2025-3-6 14:39:51.5	WT901BLE68-01(48591DE3C19B)	4.145	-2.184	0.534	53.772	383.545	-721.191	-17.58	-74.02	-103.38	-39.494	-7.154	34.202	-0.49759	0.49075	0.32324	0.63794	30.0	13111	100
2025-3-6 14:39:51.5	WT901BLE68-01(48591DE3C19B)	0.742	-2.184	0.534	53.772	383.545	-721.191	7.43	-70.69	-128.78	-39.494	-7.154	34.202	-0.49759	0.49075	0.32324	0.63794	30.0	13111	100
2025-3-6 14:39:51.5	WT901BLE68-01(48591DE3C19B)	0.742	-10.166	-3.077	95.398	320.679	-566.895	20.61	-66.14	-141.70	-39.494	-7.154	34.202	-0.49759	0.49075	0.32324	0.63794	30.0	13111	100
2025-3-6 14:39:51.34	WT901BLE68-01(48591DE3C19B)	-1.926	-10.166	-3.077	95.398	320.679	-566.895	29.23	-60.89	-150.07	-39.494	-7.154	34.202	-0.49759	0.49075	0.32324	0.63794	30.0	13111	100
2025-3-6 14:39:51.34	WT901BLE68-01(48591DE3C19B)	-1.926	-13.446	-6.921	172.485	70.435	69.214	29.12	-60.80	-147.94	-39.494	-7.154	34.202	-0.49759	0.49075	0.32324	0.63794	30.0	13111	100
2025-3-6 14:39:51.34	WT901BLE68-01(48591DE3C19B)	2.142	-13.446	-6.921	172.485	70.435	69.214	28.74	-60.80	-145.67	-39.494	-7.154	34.202	-0.49759	0.49075	0.32324	0.63794	30.0	13111	100
