time	DeviceName	AccX(g)	AccY(g)	AccZ(g)	AsX(°/s)	AsY(°/s)	AsZ(°/s)	AngleX(°)	AngleY(°)	AngleZ(°)	HX(uT)	HY(uT)	HZ(uT)	Q0()	Q1()	Q2()	Q3()	Temperature(°C)	Version()	Battery level(%)
2025-3-7 0:5:28.257	WT901BLE68-01(48591DE3C19B)	0.441	-0.756	0.472	-0.488	3.784	-0.793	-63.84	-23.06	-87.62	-87.416	-60.270	27.048	0.53384	-0.49554	0.24384	-0.64020	31.0	13111	100
2025-3-7 0:5:28.257	WT901BLE68-01(48591DE3C19B)	0.441	-0.754	0.458	0.000	1.526	-0.305	-63.79	-23.08	-87.69	-87.416	-60.270	27.048	0.53384	-0.49554	0.24384	-0.64020	31.0	13111	100
2025-3-7 0:5:28.257	WT901BLE68-01(48591DE3C19B)	0.446	-0.754	0.458	0.000	1.526	-0.305	-63.75	-23.10	-87.74	-87.416	-60.270	27.048	0.53384	-0.49554	0.24384	-0.64020	31.0	13111	100
2025-3-7 0:5:28.257	WT901BLE68-01(48591DE3C19B)	0.446	-0.750	0.460	1.160	0.488	-1.404	-63.72	-23.13	-87.80	-87.416	-60.270	27.048	0.53384	-0.49554	0.24384	-0.64020	31.0	13111	100
2025-3-7 0:5:28.288	WT901BLE68-01(48591DE3C19B)	0.442	-0.750	0.460	1.160	0.488	-1.404	-63.67	-23.16	-87.85	-87.416	-60.270	27.048	0.53384	-0.49554	0.24384	-0.64020	31.0	13111	100
2025-3-7 0:5:28.288	WT901BLE68-01(48591DE3C19B)	0.442	-0.755	0.464	1.770	0.305	-1.343	-63.62	-23.19	-87.90	-87.416	-60.270	27.048	0.53384	-0.49554	0.24384	-0.64020	31.0	13111	100
2025-3-7 0:5:28.288	WT901BLE68-01(48591DE3C19B)	0.439	-0.755	0.464	1.770	0.305	-1.343	-63.57	-23.23	-87.95	-87.416	-60.270	27.048	0.53384	-0.49554	0.24384	-0.64020	31.0	13111	100
2025-3-7 0:5:28.288	WT901BLE68-01(48591DE3C19B)	0.439	-0.756	0.470	3.113	-0.061	-0.854	-63.50	-23.26	-87.99	-87.416	-60.270	27.048	0.53384	-0.49554	0.24384	-0.64020	31.0	13111	100
2025-3-7 0:5:28.348	WT901BLE68-01(48591DE3C19B)	0.441	-0.756	0.470	3.113	-0.061	-0.854	-63.44	-23.29	-88.03	-87.416	-60.270	27.048	0.53384	-0.49554	0.24384	-0.64020	31.0	13111	100
2025-3-7 0:5:28.349	WT901BLE68-01(48591DE3C19B)	0.441	-0.761	0.473	5.127	0.977	-0.488	-63.35	-23.31	-88.08	-87.416	-60.270	27.048	0.53384	-0.49554	0.24384	-0.64020	31.0	13111	100
2025-3-7 0:5:28.349	WT901BLE68-01(48591DE3C19B)	0.436	-0.761	0.473	5.127	0.977	-0.488	-63.27	-23.33	-88.13	-87.416	-60.270	27.048	0.53384	-0.49554	0.24384	-0.64020	31.0	13111	100
2025-3-7 0:5:28.349	WT901BLE68-01(48591DE3C19B)	0.436	-0.768	0.468	9.460	-2.075	1.709	-63.16	-23.35	-88.14	-87.416	-60.270	27.048	0.53384	-0.49554	0.24384	-0.64020	31.0	13111	100
2025-3-7 0:5:28.377	WT901BLE68-01(48591DE3C19B)	0.438	-0.768	0.468	9.460	-2.075	1.709	-63.05	-23.36	-88.15	-87.416	-60.270	27.048	0.52670	-0.48752	0.23108	-0.65680	31.0	13111	100
2025-3-7 0:5:28.377	WT901BLE68-01(48591DE3C19B)	0.438	-0.753	0.475	27.588	-12.024	1.770	-62.80	-23.42	-88.06	-87.416	-60.270	27.048	0.52670	-0.48752	0.23108	-0.65680	31.0	13111	100
2025-3-7 0:5:28.377	WT901BLE68-01(48591DE3C19B)	0.445	-0.753	0.475	27.588	-12.024	1.770	-62.55	-23.48	-87.97	-87.416	-60.270	27.048	0.52670	-0.48752	0.23108	-0.65680	31.0	13111	100
2025-3-7 0:5:28.377	WT901BLE68-01(48591DE3C19B)	0.445	-0.759	0.479	25.269	-8.789	-2.258	-62.30	-23.55	-87.94	-87.416	-60.270	27.048	0.52670	-0.48752	0.23108	-0.65680	31.0	13111	100
2025-3-7 0:5:28.407	WT901BLE68-01(48591DE3C19B)	0.441	-0.759	0.479	25.269	-8.789	-2.258	-62.05	-23.64	-87.91	-87.416	-60.270	27.048	0.52670	-0.48752	0.23108	-0.65680	31.0	13111	100
2025-3-7 0:5:28.407	WT901BLE68-01(48591DE3C19B)	0.441	-0.739	0.479	20.996	-5.371	-7.935	-61.83	-23.75	-87.93	-87.416	-60.270	27.048	0.52670	-0.48752	0.23108	-0.65680	31.0	13111	100
2025-3-7 0:5:28.408	WT901BLE68-01(48591DE3C19B)	0.458	-0.739	0.479	20.996	-5.371	-7.935	-61.59	-23.86	-87.96	-87.416	-60.270	27.048	0.52670	-0.48752	0.23108	-0.65680	31.0	13111	100
2025-3-7 0:5:28.408	WT901BLE68-01(48591DE3C19B)	0.458	-0.736	0.483	12.329	-1.343	-2.441	-61.45	-23.91	-88.00	-87.416	-60.270	27.048	0.52670	-0.48752	0.23108	-0.65680	31.0	13111	100
2025-3-7 0:5:28.468	WT901BLE68-01(48591DE3C19B)	0.441	-0.736	0.483	12.329	-1.343	-2.441	-61.31	-23.95	-88.04	-87.416	-60.270	27.048	0.52670	-0.48752	0.23108	-0.65680	31.0	13111	100
2025-3-7 0:5:28.468	WT901BLE68-01(48591DE3C19B)	0.441	-0.749	0.479	-1.038	-1.770	-3.418	-61.30	-24.01	-88.08	-87.416	-60.270	27.048	0.52670	-0.48752	0.23108	-0.65680	31.0	13111	100
2025-3-7 0:5:28.468	WT901BLE68-01(48591DE3C19B)	0.438	-0.749	0.479	-1.038	-1.770	-3.418	-61.29	-24.06	-88.12	-87.416	-60.270	27.048	0.52670	-0.48752	0.23108	-0.65680	31.0	13111	100
2025-3-7 0:5:28.468	WT901BLE68-01(48591DE3C19B)	0.438	-0.746	0.482	-2.686	-3.113	-0.793	-61.30	-24.10	-88.13	-87.416	-60.270	27.048	0.52670	-0.48752	0.23108	-0.65680	31.0	13111	100
2025-3-7 0:5:28.497	WT901BLE68-01(48591DE3C19B)	0.431	-0.746	0.482	-2.686	-3.113	-0.793	-61.32	-24.14	-88.14	-87.416	-60.270	27.048	0.52670	-0.48752	0.23108	-0.65680	31.0	13111	100
2025-3-7 0:5:28.497	WT901BLE68-01(48591DE3C19B)	0.215	-0.743	0.489	1.770	-9.094	6.531	-61.33	-24.14	-88.06	-87.416	-60.270	27.048	0.52670	-0.48752	0.23108	-0.65680	31.0	13111	100
2025-3-7 0:5:28.497	WT901BLE68-01(48591DE3C19B)	0.436	-0.372	0.244	1.770	-9.094	6.531	-61.34	-24.14	-87.98	-87.416	-60.270	27.048	0.52670	-0.48752	0.23108	-0.65680	31.0	13111	100
2025-3-7 0:5:28.497	WT901BLE68-01(48591DE3C19B)	0.436	-0.757	0.485	4.578	-15.259	9.155	-61.35	-24.15	-87.82	-87.416	-60.270	27.048	0.52670	-0.48752	0.23108	-0.65680	31.0	13111	100
2025-3-7 0:5:28.528	WT901BLE68-01(48591DE3C19B)	0.458	-0.757	0.485	4.578	-15.259	9.155	-61.36	-24.15	-87.67	-87.416	-60.270	27.048	0.52670	-0.48752	0.23108	-0.65680	31.0	13111	100
2025-3-7 0:5:28.528	WT901BLE68-01(48591DE3C19B)	0.458	-0.757	0.492	21.790	-19.226	5.859	-61.21	-24.21	-87.50	-87.416	-60.270	27.048	0.52670	-0.48752	0.23108	-0.65680	31.0	13111	100
2025-3-7 0:5:28.528	WT901BLE68-01(48591DE3C19B)	0.444	-0.757	0.492	21.790	-19.226	5.859	-61.06	-24.26	-87.32	-87.416	-60.270	27.048	0.52670	-0.48752	0.23108	-0.65680	31.0	13111	100
2025-3-7 0:5:28.528	WT901BLE68-01(48591DE3C19B)	0.444	-0.764	0.459	2.136	-21.545	9.949	-61.12	-24.30	-87.11	-87.416	-60.270	27.048	0.52670	-0.48752	0.23108	-0.65680	31.0	13111	100
2025-3-7 0:5:28.588	WT901BLE68-01(48591DE3C19B)	0.417	-0.764	0.459	2.136	-21.545	9.949	-61.19	-24.33	-86.89	-87.416	-60.270	27.048	0.52670	-0.48752	0.23108	-0.65680	31.0	13111	100
2025-3-7 0:5:28.588	WT901BLE68-01(48591DE3C19B)	0.417	-0.792	0.483	-12.451	-8.118	28.137	-61.39	-24.13	-86.70	-87.710	-60.368	28.812	0.52670	-0.48752	0.23108	-0.65680	31.0	13111	100
2025-3-7 0:5:28.588	WT901BLE68-01(48591DE3C19B)	0.399	-0.792	0.483	-12.451	-8.118	28.137	-61.58	-23.94	-86.52	-87.710	-60.368	28.812	0.52670	-0.48752	0.23108	-0.65680	31.0	13111	100
2025-3-7 0:5:28.588	WT901BLE68-01(48591DE3C19B)	0.399	-0.810	0.486	-14.038	-9.521	36.011	-61.81	-23.68	-86.29	-87.710	-60.368	28.812	0.52670	-0.48752	0.23108	-0.65680	31.0	13111	100
2025-3-7 0:5:28.617	WT901BLE68-01(48591DE3C19B)	0.398	-0.810	0.486	-14.038	-9.521	36.011	-62.04	-23.42	-86.06	-87.710	-60.368	28.812	0.52670	-0.48752	0.23108	-0.65680	31.0	13111	100
2025-3-7 0:5:28.617	WT901BLE68-01(48591DE3C19B)	0.398	-0.834	0.478	-29.236	-11.292	53.589	-62.46	-23.01	-85.73	-87.710	-60.368	28.812	0.52670	-0.48752	0.23108	-0.65680	31.0	13111	100
2025-3-7 0:5:28.617	WT901BLE68-01(48591DE3C19B)	0.376	-0.834	0.478	-29.236	-11.292	53.589	-62.87	-22.60	-85.40	-87.710	-60.368	28.812	0.52670	-0.48752	0.23108	-0.65680	31.0	13111	100
2025-3-7 0:5:28.617	WT901BLE68-01(48591DE3C19B)	0.376	-0.807	0.477	-43.457	-2.625	65.674	-63.41	-22.04	-85.11	-87.710	-60.368	28.812	0.52670	-0.48752	0.23108	-0.65680	31.0	13111	100
2025-3-7 0:5:28.648	WT901BLE68-01(48591DE3C19B)	0.334	-0.807	0.477	-43.457	-2.625	65.674	-63.94	-21.49	-84.81	-87.710	-60.368	28.812	0.52670	-0.48752	0.23108	-0.65680	31.0	13111	100
2025-3-7 0:5:28.648	WT901BLE68-01(48591DE3C19B)	0.334	-0.821	0.458	-43.030	-5.371	80.322	-64.50	-20.81	-84.44	-87.710	-60.368	28.812	0.52670	-0.48752	0.23108	-0.65680	31.0	13111	100
2025-3-7 0:5:28.648	WT901BLE68-01(48591DE3C19B)	0.287	-0.821	0.458	-43.030	-5.371	80.322	-65.04	-20.13	-84.08	-87.710	-60.368	28.812	0.52670	-0.48752	0.23108	-0.65680	31.0	13111	100
2025-3-7 0:5:28.648	WT901BLE68-01(48591DE3C19B)	0.287	-0.793	0.441	-38.513	-11.963	89.050	-65.56	-19.39	-83.62	-87.710	-60.368	28.812	0.52670	-0.48752	0.23108	-0.65680	31.0	13111	100
2025-3-7 0:5:28.707	WT901BLE68-01(48591DE3C19B)	0.239	-0.793	0.441	-38.513	-11.963	89.050	-66.07	-18.65	-83.18	-87.710	-60.368	28.812	0.52670	-0.48752	0.23108	-0.65680	31.0	13111	100
2025-3-7 0:5:28.708	WT901BLE68-01(48591DE3C19B)	0.239	-0.811	0.417	-39.978	-15.991	97.778	-66.61	-17.85	-82.67	-87.710	-60.368	28.812	0.52670	-0.48752	0.23108	-0.65680	31.0	13111	100
2025-3-7 0:5:28.708	WT901BLE68-01(48591DE3C19B)	0.246	-0.811	0.417	-39.978	-15.991	97.778	-67.14	-17.03	-82.17	-87.710	-60.368	28.812	0.52670	-0.48752	0.23108	-0.65680	31.0	13111	100
2025-3-7 0:5:28.708	WT901BLE68-01(48591DE3C19B)	0.246	-0.835	0.364	-34.119	-16.479	99.487	-67.60	-16.21	-81.67	-87.710	-60.368	28.812	0.52670	-0.48752	0.23108	-0.65680	31.0	13111	100
2025-3-7 0:5:28.740	WT901BLE68-01(48591DE3C19B)	0.201	-0.835	0.364	-34.119	-16.479	99.487	-68.05	-15.38	-81.18	-87.710	-60.368	28.812	0.52670	-0.48752	0.23108	-0.65680	31.0	13111	100
2025-3-7 0:5:28.740	WT901BLE68-01(48591DE3C19B)	0.201	-0.881	0.333	-48.584	-10.010	115.906	-68.64	-14.38	-80.70	-87.710	-60.368	28.812	0.52670	-0.48752	0.23108	-0.65680	31.0	13111	100
2025-3-7 0:5:28.740	WT901BLE68-01(48591DE3C19B)	0.196	-0.881	0.333	-48.584	-10.010	115.906	-69.21	-13.36	-80.23	-87.710	-60.368	28.812	0.52670	-0.48752	0.23108	-0.65680	31.0	13111	100
2025-3-7 0:5:28.740	WT901BLE68-01(48591DE3C19B)	0.196	-0.888	0.327	-61.829	10.620	129.211	-69.88	-12.15	-79.93	-87.710	-60.368	28.812	0.52670	-0.48752	0.23108	-0.65680	31.0	13111	100
2025-3-7 0:5:28.770	WT901BLE68-01(48591DE3C19B)	0.174	-0.888	0.327	-61.829	10.620	129.211	-70.53	-10.94	-79.65	-87.710	-60.368	28.812	0.52670	-0.48752	0.23108	-0.65680	31.0	13111	100
2025-3-7 0:5:28.770	WT901BLE68-01(48591DE3C19B)	0.181	-0.943	0.346	-66.345	30.823	149.353	-71.20	-9.47	-79.50	-87.710	-60.368	28.812	0.52670	-0.48752	0.23108	-0.65680	31.0	13111	100
2025-3-7 0:5:28.770	WT901BLE68-01(48591DE3C19B)	0.181	-1.065	0.343	-62.439	44.250	169.312	-71.83	-7.89	-79.40	-87.710	-60.368	28.812	0.59769	-0.48386	0.33704	-0.54309	31.0	13111	100
2025-3-7 0:5:28.770	WT901BLE68-01(48591DE3C19B)	0.150	-1.065	0.343	-62.439	44.250	169.312	-72.43	-6.20	-79.36	-87.710	-60.368	28.812	0.59769	-0.48386	0.33704	-0.54309	31.0	13111	100
2025-3-7 0:5:28.828	WT901BLE68-01(48591DE3C19B)	0.150	-1.094	0.253	-33.447	20.508	186.707	-72.90	-4.46	-79.19	-87.710	-60.368	28.812	0.59769	-0.48386	0.33704	-0.54309	31.0	13111	100
2025-3-7 0:5:28.828	WT901BLE68-01(48591DE3C19B)	0.117	-1.094	0.253	-33.447	20.508	186.707	-73.23	-2.68	-78.89	-87.710	-60.368	28.812	0.59769	-0.48386	0.33704	-0.54309	31.0	13111	100
2025-3-7 0:5:28.828	WT901BLE68-01(48591DE3C19B)	0.117	-1.231	0.310	-40.894	0.427	160.034	-73.59	-1.06	-78.54	-87.710	-60.368	28.812	0.59769	-0.48386	0.33704	-0.54309	31.0	13111	100
2025-3-7 0:5:28.828	WT901BLE68-01(48591DE3C19B)	0.308	-1.231	0.310	-40.894	0.427	160.034	-73.98	0.40	-78.15	-87.710	-60.368	28.812	0.59769	-0.48386	0.33704	-0.54309	31.0	13111	100
2025-3-7 0:5:28.856	WT901BLE68-01(48591DE3C19B)	0.308	-1.328	0.251	-56.580	-30.762	135.559	-74.44	1.70	-77.64	-87.710	-60.368	28.812	0.59769	-0.48386	0.33704	-0.54309	31.0	13111	100
2025-3-7 0:5:28.856	WT901BLE68-01(48591DE3C19B)	0.652	-1.328	0.251	-56.580	-30.762	135.559	-74.97	2.83	-77.03	-87.710	-60.368	28.812	0.59769	-0.48386	0.33704	-0.54309	31.0	13111	100
2025-3-7 0:5:28.857	WT901BLE68-01(48591DE3C19B)	2.609	-1.278	0.367	-85.571	-93.323	87.280	-75.61	3.66	-76.19	-87.710	-60.368	28.812	0.59769	-0.48386	0.33704	-0.54309	31.0	13111	100
2025-3-7 0:5:28.857	WT901BLE68-01(48591DE3C19B)	1.406	-5.112	1.470	-85.571	-93.323	87.280	-76.38	4.16	-75.11	-87.710	-60.368	28.812	0.59769	-0.48386	0.33704	-0.54309	31.0	13111	100
2025-3-7 0:5:28.887	WT901BLE68-01(48591DE3C19B)	1.406	-1.132	0.376	-85.938	-159.424	8.850	-77.12	4.20	-73.81	-87.710	-60.368	28.812	0.59769	-0.48386	0.33704	-0.54309	31.0	13111	100
2025-3-7 0:5:28.887	WT901BLE68-01(48591DE3C19B)	2.370	-1.132	0.376	-85.938	-159.424	8.850	-77.85	3.77	-72.27	-87.710	-60.368	28.812	0.59769	-0.48386	0.33704	-0.54309	31.0	13111	100
2025-3-7 0:5:28.888	WT901BLE68-01(48591DE3C19B)	2.370	-0.604	0.568	-37.476	-202.759	-117.310	-78.35	2.70	-70.64	-87.710	-60.368	28.812	0.59769	-0.48386	0.33704	-0.54309	31.0	13111	100
2025-3-7 0:5:28.888	WT901BLE68-01(48591DE3C19B)	3.445	-0.604	0.568	-37.476	-202.759	-117.310	-78.64	0.94	-68.91	-87.710	-60.368	28.812	0.59769	-0.48386	0.33704	-0.54309	31.0	13111	100
2025-3-7 0:5:28.947	WT901BLE68-01(48591DE3C19B)	3.445	-0.233	0.708	11.963	-123.535	-314.819	-78.72	-1.70	-67.76	-87.710	-60.368	28.812	0.59769	-0.48386	0.33704	-0.54309	31.0	13111	100
2025-3-7 0:5:28.948	WT901BLE68-01(48591DE3C19B)	3.515	-0.233	0.708	11.963	-123.535	-314.819	-78.62	-5.27	-67.24	-87.710	-60.368	28.812	0.59769	-0.48386	0.33704	-0.54309	31.0	13111	100
2025-3-7 0:5:28.948	WT901BLE68-01(48591DE3C19B)	3.515	-0.659	0.743	30.701	-30.579	-581.787	-78.34	-10.06	-67.45	-87.710	-60.368	28.812	0.59769	-0.48386	0.33704	-0.54309	31.0	13111	100
2025-3-7 0:5:28.948	WT901BLE68-01(48591DE3C19B)	3.699	-0.659	0.743	30.701	-30.579	-581.787	-77.79	-16.06	-68.44	-87.710	-60.368	28.812	0.59769	-0.48386	0.33704	-0.54309	31.0	13111	100
2025-3-7 0:5:28.976	WT901BLE68-01(48591DE3C19B)	3.699	-1.312	0.892	76.050	-15.503	-823.853	-76.75	-23.18	-69.91	-87.710	-60.368	28.812	0.59769	-0.48386	0.33704	-0.54309	31.0	13111	100
2025-3-7 0:5:28.977	WT901BLE68-01(48591DE3C19B)	4.490	-1.312	0.892	76.050	-15.503	-823.853	-74.99	-31.38	-72.06	-87.710	-60.368	28.812	0.59769	-0.48386	0.33704	-0.54309	31.0	13111	100
2025-3-7 0:5:28.977	WT901BLE68-01(48591DE3C19B)	4.490	-2.186	0.977	67.810	73.975	-1054.443	-72.08	-40.43	-75.75	-87.710	-60.368	28.812	0.59769	-0.48386	0.33704	-0.54309	31.0	13111	100
2025-3-7 0:5:28.977	WT901BLE68-01(48591DE3C19B)	4.980	-2.186	0.977	67.810	73.975	-1054.443	-66.95	-50.13	-82.01	-83.692	-58.408	30.380	0.59769	-0.48386	0.33704	-0.54309	31.0	13111	100
2025-3-7 0:5:29.7	WT901BLE68-01(48591DE3C19B)	4.980	-3.709	0.972	113.281	253.113	-1254.456	-56.14	-59.55	-94.04	-83.692	-58.408	30.380	0.59769	-0.48386	0.33704	-0.54309	31.0	13111	100
2025-3-7 0:5:29.7	WT901BLE68-01(48591DE3C19B)	4.548	-3.709	0.972	113.281	253.113	-1254.456	-33.93	-66.74	-117.57	-83.692	-58.408	30.380	0.59769	-0.48386	0.33704	-0.54309	31.0	13111	100
2025-3-7 0:5:29.7	WT901BLE68-01(48591DE3C19B)	4.548	-5.845	-0.244	150.452	360.657	-1250.977	-1.91	-67.73	-150.75	-83.692	-58.408	30.380	0.59769	-0.48386	0.33704	-0.54309	31.0	13111	100
2025-3-7 0:5:29.8	WT901BLE68-01(48591DE3C19B)	1.058	-5.845	-0.244	150.452	360.657	-1250.977	23.90	-61.78	-177.56	-83.692	-58.408	30.380	0.59769	-0.48386	0.33704	-0.54309	31.0	13111	100
2025-3-7 0:5:29.68	WT901BLE68-01(48591DE3C19B)	1.058	-5.898	-1.563	-106.689	307.800	-979.858	36.27	-53.46	168.04	-83.692	-58.408	30.380	0.59769	-0.48386	0.33704	-0.54309	31.0	13111	100
2025-3-7 0:5:29.68	WT901BLE68-01(48591DE3C19B)	-1.240	-5.898	-1.563	-106.689	307.800	-979.858	41.53	-45.26	159.64	-83.692	-58.408	30.380	0.59769	-0.48386	0.33704	-0.54309	31.0	13111	100
2025-3-7 0:5:29.68	WT901BLE68-01(48591DE3C19B)	-1.240	-5.935	-1.335	256.836	-47.974	-761.353	46.85	-38.74	152.66	-83.692	-58.408	30.380	0.59769	-0.48386	0.33704	-0.54309	31.0	13111	100
2025-3-7 0:5:29.68	WT901BLE68-01(48591DE3C19B)	-4.777	-5.935	-1.335	256.836	-47.974	-761.353	53.10	-33.73	146.37	-83.692	-58.408	30.380	0.59769	-0.48386	0.33704	-0.54309	31.0	13111	100
2025-3-7 0:5:29.96	WT901BLE68-01(48591DE3C19B)	-4.777	-6.844	-0.017	367.676	-174.194	-150.269	58.29	-31.18	142.39	-83.692	-58.408	30.380	0.59769	-0.48386	0.33704	-0.54309	31.0	13111	100
2025-3-7 0:5:29.97	WT901BLE68-01(48591DE3C19B)	-3.844	-6.844	-0.017	367.676	-174.194	-150.269	63.22	-31.32	139.94	-83.692	-58.408	30.380	0.59769	-0.48386	0.33704	-0.54309	31.0	13111	100
2025-3-7 0:5:29.97	WT901BLE68-01(48591DE3C19B)	-3.844	-6.309	-1.843	211.182	-109.802	550.476	66.29	-34.38	139.53	-83.692	-58.408	30.380	0.59769	-0.48386	0.33704	-0.54309	31.0	13111	100
2025-3-7 0:5:29.97	WT901BLE68-01(48591DE3C19B)	0.133	-6.309	-1.843	211.182	-109.802	550.476	67.45	-40.51	141.13	-83.692	-58.408	30.380	0.59769	-0.48386	0.33704	-0.54309	31.0	13111	100
2025-3-7 0:5:29.157	WT901BLE68-01(48591DE3C19B)	0.133	-6.738	-1.869	-69.153	-184.387	1099.548	66.23	-49.30	143.86	-83.692	-58.408	30.380	0.59769	-0.48386	0.33704	-0.54309	31.0	13111	100
2025-3-7 0:5:29.158	WT901BLE68-01(48591DE3C19B)	3.685	-6.738	-1.869	-69.153	-184.387	1099.548	60.69	-60.56	149.75	-83.692	-58.408	30.380	0.59769	-0.48386	0.33704	-0.54309	31.0	13111	100
2025-3-7 0:5:29.158	WT901BLE68-01(48591DE3C19B)	3.685	-8.447	0.337	-466.858	-16.296	1472.717	40.80	-71.82	168.37	-83.692	-58.408	30.380	0.59769	-0.48386	0.33704	-0.54309	31.0	13111	100
2025-3-7 0:5:29.158	WT901BLE68-01(48591DE3C19B)	5.717	-8.447	0.337	-466.858	-16.296	1472.717	-16.75	-75.68	-136.92	-83.692	-58.408	30.380	0.59769	-0.48386	0.33704	-0.54309	31.0	13111	100
2025-3-7 0:5:29.218	WT901BLE68-01(48591DE3C19B)	5.717	-10.505	1.979	-482.239	-105.347	1607.910	-59.36	-65.96	-97.17	-83.692	-58.408	30.380	0.59769	-0.48386	0.33704	-0.54309	31.0	13111	100
2025-3-7 0:5:29.218	WT901BLE68-01(48591DE3C19B)	9.103	-10.505	1.979	-482.239	-105.347	1607.910	-76.14	-51.20	-83.35	-83.692	-58.408	30.380	0.35309	-0.64151	0.11569	-0.67102	31.0	13111	100
2025-3-7 0:5:29.218	WT901BLE68-01(48591DE3C19B)	9.103	-6.423	3.787	545.166	-408.936	1370.422	-80.83	-36.86	-76.09	-83.692	-58.408	30.380	0.35309	-0.64151	0.11569	-0.67102	31.0	13111	100
2025-3-7 0:5:29.218	WT901BLE68-01(48591DE3C19B)	12.794	-6.423	3.787	545.166	-408.936	1370.422	-79.18	-24.04	-68.69	-83.692	-58.408	30.380	0.35309	-0.64151	0.11569	-0.67102	31.0	13111	100
2025-3-7 0:5:29.219	WT901BLE68-01(48591DE3C19B)	12.794	-0.476	0.456	396.606	443.848	913.513	-75.50	-12.86	-66.26	-83.692	-58.408	30.380	0.35309	-0.64151	0.11569	-0.67102	31.0	13111	100
2025-3-7 0:5:29.219	WT901BLE68-01(48591DE3C19B)	11.113	-0.476	0.456	396.606	443.848	913.513	-71.37	-3.02	-67.98	-83.692	-58.408	30.380	0.35309	-0.64151	0.11569	-0.67102	31.0	13111	100
2025-3-7 0:5:29.219	WT901BLE68-01(48591DE3C19B)	11.113	3.260	1.014	-111.267	283.203	186.279	-70.09	3.12	-69.63	-83.692	-58.408	30.380	0.35309	-0.64151	0.11569	-0.67102	31.0	13111	100
2025-3-7 0:5:29.219	WT901BLE68-01(48591DE3C19B)	9.741	3.260	1.014	-111.267	283.203	186.279	-71.44	5.49	-71.78	-83.692	-58.408	30.380	0.35309	-0.64151	0.11569	-0.67102	31.0	13111	100
2025-3-7 0:5:29.246	WT901BLE68-01(48591DE3C19B)	9.741	0.875	0.192	154.968	46.753	-618.286	-70.07	-0.52	-74.32	-83.692	-58.408	30.380	0.35309	-0.64151	0.11569	-0.67102	31.0	13111	100
2025-3-7 0:5:29.247	WT901BLE68-01(48591DE3C19B)	6.354	0.875	0.192	154.968	46.753	-618.286	-68.42	-6.45	-76.99	-83.692	-58.408	30.380	0.35309	-0.64151	0.11569	-0.67102	31.0	13111	100
2025-3-7 0:5:29.247	WT901BLE68-01(48591DE3C19B)	6.354	-3.551	1.559	-77.515	-92.468	-1059.998	-68.63	-16.94	-80.09	-83.692	-58.408	30.380	0.35309	-0.64151	0.11569	-0.67102	31.0	13111	100
2025-3-7 0:5:29.247	WT901BLE68-01(48591DE3C19B)	4.864	-3.551	1.559	-77.515	-92.468	-1059.998	-68.20	-27.35	-83.38	-83.692	-58.408	30.380	0.35309	-0.64151	0.11569	-0.67102	31.0	13111	100
2025-3-7 0:5:29.307	WT901BLE68-01(48591DE3C19B)	4.864	-4.041	2.678	111.694	13.977	-1183.655	-63.94	-38.27	-89.22	-83.692	-58.408	30.380	0.35309	-0.64151	0.11569	-0.67102	31.0	13111	100
2025-3-7 0:5:29.308	WT901BLE68-01(48591DE3C19B)	6.298	-4.041	2.678	111.694	13.977	-1183.655	-57.24	-48.60	-97.34	-83.692	-58.408	30.380	0.35309	-0.64151	0.11569	-0.67102	31.0	13111	100
2025-3-7 0:5:29.308	WT901BLE68-01(48591DE3C19B)	6.298	-5.335	1.881	222.473	328.918	-1420.105	-39.30	-57.15	-116.95	-83.692	-58.408	30.380	0.35309	-0.64151	0.11569	-0.67102	31.0	13111	100
2025-3-7 0:5:29.308	WT901BLE68-01(48591DE3C19B)	4.011	-5.335	1.881	222.473	328.918	-1420.105	-13.60	-60.65	-144.26	-83.692	-58.408	30.380	0.35309	-0.64151	0.11569	-0.67102	31.0	13111	100
2025-3-7 0:5:29.339	WT901BLE68-01(48591DE3C19B)	4.011	-8.658	-2.072	-0.244	517.822	-1334.595	8.26	-56.13	-169.85	-83.692	-58.408	30.380	0.35309	-0.64151	0.11569	-0.67102	31.0	13111	100
2025-3-7 0:5:29.340	WT901BLE68-01(48591DE3C19B)	-3.400	-8.658	-2.072	-0.244	517.822	-1334.595	22.66	-47.75	171.90	-83.692	-58.408	30.380	0.35309	-0.64151	0.11569	-0.67102	31.0	13111	100
2025-3-7 0:5:29.340	WT901BLE68-01(48591DE3C19B)	-3.400	-9.743	-3.439	195.923	106.628	-802.734	31.17	-43.52	162.70	-83.692	-58.408	30.380	0.35309	-0.64151	0.11569	-0.67102	31.0	13111	100
2025-3-7 0:5:29.340	WT901BLE68-01(48591DE3C19B)	-9.427	-9.743	-3.439	195.923	106.628	-802.734	38.10	-38.51	155.08	-83.692	-58.408	30.380	0.35309	-0.64151	0.11569	-0.67102	31.0	13111	100
2025-3-7 0:5:29.370	WT901BLE68-01(48591DE3C19B)	-9.427	-9.788	-3.716	332.581	-333.313	103.943	42.32	-42.21	153.60	-83.692	-58.408	30.380	0.35309	-0.64151	0.11569	-0.67102	31.0	13111	100
2025-3-7 0:5:29.370	WT901BLE68-01(48591DE3C19B)	-3.414	-9.788	-3.716	332.581	-333.313	103.943	46.93	-45.85	151.69	-83.692	-58.408	30.380	0.35309	-0.64151	0.11569	-0.67102	31.0	13111	100
2025-3-7 0:5:29.370	WT901BLE68-01(48591DE3C19B)	-3.414	-8.177	-3.697	59.692	-341.248	959.778	41.73	-55.53	159.11	-45.080	-56.448	34.202	0.35309	-0.64151	0.11569	-0.67102	31.0	13111	100
2025-3-7 0:5:29.370	WT901BLE68-01(48591DE3C19B)	2.011	-8.177	-3.697	59.692	-341.248	959.778	31.99	-64.53	170.95	-45.080	-56.448	34.202	0.35309	-0.64151	0.11569	-0.67102	31.0	13111	100
2025-3-7 0:5:29.428	WT901BLE68-01(48591DE3C19B)	2.011	-8.310	-0.603	-457.458	-82.703	1321.960	-3.44	-69.07	-155.70	-45.080	-56.448	34.202	0.35309	-0.64151	0.11569	-0.67102	31.0	13111	100
2025-3-7 0:5:29.428	WT901BLE68-01(48591DE3C19B)	5.069	-8.310	-0.603	-457.458	-82.703	1321.960	-39.27	-64.89	-121.99	-45.080	-56.448	34.202	0.35309	-0.64151	0.11569	-0.67102	31.0	13111	100
2025-3-7 0:5:29.428	WT901BLE68-01(48591DE3C19B)	5.069	-8.717	2.563	-395.447	-164.978	1387.756	-61.46	-54.99	-101.12	-45.080	-56.448	34.202	0.35309	-0.64151	0.11569	-0.67102	31.0	13111	100
2025-3-7 0:5:29.428	WT901BLE68-01(48591DE3C19B)	10.419	-8.717	2.563	-395.447	-164.978	1387.756	-73.54	-42.62	-90.48	-45.080	-56.448	34.202	0.35309	-0.64151	0.11569	-0.67102	31.0	13111	100
2025-3-7 0:5:29.457	WT901BLE68-01(48591DE3C19B)	10.419	-3.357	2.261	601.013	-287.842	1034.912	-72.22	-33.49	-83.00	-45.080	-56.448	34.202	0.35309	-0.64151	0.11569	-0.67102	31.0	13111	100
2025-3-7 0:5:29.457	WT901BLE68-01(48591DE3C19B)	13.370	-3.357	2.261	601.013	-287.842	1034.912	-69.71	-24.64	-76.00	-45.080	-56.448	34.202	0.35309	-0.64151	0.11569	-0.67102	31.0	13111	100
2025-3-7 0:5:29.457	WT901BLE68-01(48591DE3C19B)	13.370	1.106	0.563	262.146	145.935	503.418	-67.41	-19.50	-75.48	-45.080	-56.448	34.202	0.35309	-0.64151	0.11569	-0.67102	31.0	13111	100
2025-3-7 0:5:29.458	WT901BLE68-01(48591DE3C19B)	11.966	1.106	0.563	262.146	145.935	503.418	-65.12	-14.47	-74.78	-45.080	-56.448	34.202	0.35309	-0.64151	0.11569	-0.67102	31.0	13111	100
2025-3-7 0:5:29.488	WT901BLE68-01(48591DE3C19B)	11.966	4.714	0.478	217.407	41.382	-238.281	-62.67	-16.63	-76.29	-45.080	-56.448	34.202	0.35309	-0.64151	0.11569	-0.67102	31.0	13111	100
2025-3-7 0:5:29.488	WT901BLE68-01(48591DE3C19B)	11.458	4.714	0.478	217.407	41.382	-238.281	-60.14	-18.78	-77.90	-45.080	-56.448	34.202	0.35309	-0.64151	0.11569	-0.67102	31.0	13111	100
2025-3-7 0:5:29.488	WT901BLE68-01(48591DE3C19B)	11.458	1.188	0.993	-25.574	-238.525	-992.554	-59.19	-28.77	-81.16	-45.080	-56.448	34.202	0.35309	-0.64151	0.11569	-0.67102	31.0	13111	100
2025-3-7 0:5:29.488	WT901BLE68-01(48591DE3C19B)	7.977	1.188	0.993	-25.574	-238.525	-992.554	-57.41	-38.67	-85.00	-45.080	-56.448	34.202	0.35309	-0.64151	0.11569	-0.67102	31.0	13111	100
2025-3-7 0:5:29.550	WT901BLE68-01(48591DE3C19B)	7.977	-7.544	4.233	-436.584	-115.784	-1545.105	-53.98	-52.23	-95.99	-45.080	-56.448	34.202	0.35309	-0.64151	0.11569	-0.67102	31.0	13111	100
2025-3-7 0:5:29.550	WT901BLE68-01(48591DE3C19B)	2.562	-7.544	4.233	-436.584	-115.784	-1545.105	-43.11	-64.73	-113.76	-45.080	-56.448	34.202	0.35309	-0.64151	0.11569	-0.67102	31.0	13111	100
2025-3-7 0:5:29.550	WT901BLE68-01(48591DE3C19B)	2.562	-10.129	-0.363	-178.223	647.034	-1438.538	-10.61	-65.52	-151.34	-45.080	-56.448	34.202	0.35309	-0.64151	0.11569	-0.67102	31.0	13111	100
2025-3-7 0:5:29.550	WT901BLE68-01(48591DE3C19B)	-3.780	-10.129	-0.363	-178.223	647.034	-1438.538	14.20	-58.54	178.73	-45.080	-56.448	34.202	0.35309	-0.64151	0.11569	-0.67102	31.0	13111	100
2025-3-7 0:5:29.578	WT901BLE68-01(48591DE3C19B)	-3.780	-11.153	-4.030	130.493	276.367	-1001.099	27.41	-52.64	164.33	-45.080	-56.448	34.202	0.35309	-0.64151	0.11569	-0.67102	31.0	13111	100
2025-3-7 0:5:29.578	WT901BLE68-01(48591DE3C19B)	-10.419	-11.153	-4.030	130.493	276.367	-1001.099	36.51	-45.37	154.00	-45.080	-56.448	34.202	0.35309	-0.64151	0.11569	-0.67102	31.0	13111	100
2025-3-7 0:5:29.578	WT901BLE68-01(48591DE3C19B)	-10.419	-10.270	-3.717	492.920	-405.518	34.363	43.70	-49.15	150.87	-45.080	-56.448	34.202	0.35309	-0.64151	0.11569	-0.67102	31.0	13111	100
2025-3-7 0:5:29.578	WT901BLE68-01(48591DE3C19B)	-3.416	-10.270	-3.717	492.920	-405.518	34.363	51.75	-52.64	146.82	-45.080	-56.448	34.202	-0.04477	-0.49402	-0.26096	-0.82809	31.0	13111	100
2025-3-7 0:5:29.608	WT901BLE68-01(48591DE3C19B)	-3.416	-8.324	-3.556	258.850	-398.499	927.979	49.56	-62.86	152.42	-45.080	-56.448	34.202	-0.04477	-0.49402	-0.26096	-0.82809	31.0	13111	100
2025-3-7 0:5:29.609	WT901BLE68-01(48591DE3C19B)	2.325	-8.324	-3.556	258.850	-398.499	927.979	42.82	-72.81	162.43	-45.080	-56.448	34.202	-0.04477	-0.49402	-0.26096	-0.82809	31.0	13111	100
2025-3-7 0:5:29.609	WT901BLE68-01(48591DE3C19B)	2.325	-7.850	-1.007	-293.396	-118.896	1304.810	-11.04	-78.33	-145.29	-45.080	-56.448	34.202	-0.04477	-0.49402	-0.26096	-0.82809	31.0	13111	100
2025-3-7 0:5:29.609	WT901BLE68-01(48591DE3C19B)	5.019	-7.850	-1.007	-293.396	-118.896	1304.810	-58.55	-71.21	-99.39	-45.080	-56.448	34.202	-0.04477	-0.49402	-0.26096	-0.82809	31.0	13111	100
2025-3-7 0:5:29.668	WT901BLE68-01(48591DE3C19B)	5.019	-8.718	2.083	-370.667	-39.001	1464.539	-75.49	-57.56	-84.89	-45.080	-56.448	34.202	-0.04477	-0.49402	-0.26096	-0.82809	31.0	13111	100
2025-3-7 0:5:29.668	WT901BLE68-01(48591DE3C19B)	8.661	-8.718	2.083	-370.667	-39.001	1464.539	-83.12	-43.07	-79.88	-45.080	-56.448	34.202	-0.04477	-0.49402	-0.26096	-0.82809	31.0	13111	100
2025-3-7 0:5:29.668	WT901BLE68-01(48591DE3C19B)	8.661	-5.321	2.758	388.611	-135.437	1227.112	-81.56	-31.01	-76.10	-45.080	-56.448	34.202	-0.04477	-0.49402	-0.26096	-0.82809	31.0	13111	100
2025-3-7 0:5:29.668	WT901BLE68-01(48591DE3C19B)	12.305	-5.321	2.758	388.611	-135.437	1227.112	-79.32	-19.15	-72.38	-45.080	-56.448	34.202	-0.04477	-0.49402	-0.26096	-0.82809	31.0	13111	100
2025-3-7 0:5:29.697	WT901BLE68-01(48591DE3C19B)	13.525	-1.862	-0.061	431.458	142.761	820.557	-75.19	-10.94	-71.96	-45.080	-56.448	34.202	-0.04477	-0.49402	-0.26096	-0.82809	31.0	13111	100
2025-3-7 0:5:29.697	WT901BLE68-01(48591DE3C19B)	13.525	4.378	-0.484	-76.782	76.477	194.397	-73.57	-5.94	-71.65	-45.080	-56.448	34.202	-0.04477	-0.49402	-0.26096	-0.82809	31.0	13111	100
2025-3-7 0:5:29.697	WT901BLE68-01(48591DE3C19B)	12.368	4.378	-0.484	-76.782	76.477	194.397	-74.42	-4.11	-71.89	-45.080	-56.448	34.202	-0.04477	-0.49402	-0.26096	-0.82809	31.0	13111	100
2025-3-7 0:5:29.697	WT901BLE68-01(48591DE3C19B)	12.368	1.863	0.890	135.986	-188.171	-867.737	-74.17	-7.79	-72.31	-45.080	-56.448	34.202	-0.04477	-0.49402	-0.26096	-0.82809	31.0	13111	100
2025-3-7 0:5:29.757	WT901BLE68-01(48591DE3C19B)	9.290	1.863	0.890	135.986	-188.171	-867.737	-72.74	-16.92	-73.03	-45.080	-56.448	34.202	-0.04477	-0.49402	-0.26096	-0.82809	31.0	13111	100
2025-3-7 0:5:29.757	WT901BLE68-01(48591DE3C19B)	9.290	-7.715	2.976	-413.452	-329.163	-1388.916	-73.83	-28.69	-74.03	-45.080	-56.448	34.202	-0.04477	-0.49402	-0.26096	-0.82809	31.0	13111	100
2025-3-7 0:5:29.758	WT901BLE68-01(48591DE3C19B)	2.171	-7.715	2.976	-413.452	-329.163	-1388.916	-77.87	-43.07	-74.30	-45.080	-56.448	34.202	-0.04477	-0.49402	-0.26096	-0.82809	31.0	13111	100
2025-3-7 0:5:29.758	WT901BLE68-01(48591DE3C19B)	2.171	-9.716	2.806	-210.144	501.770	-1474.548	-75.93	-56.93	-80.57	-45.080	-56.448	34.202	-0.04477	-0.49402	-0.26096	-0.82809	31.0	13111	100
2025-3-7 0:5:29.790	WT901BLE68-01(48591DE3C19B)	-2.176	-9.716	2.806	-210.144	501.770	-1474.548	-57.68	-68.65	-103.29	-69.090	-62.132	27.342	-0.04477	-0.49402	-0.26096	-0.82809	31.0	13111	100
2025-3-7 0:5:29.790	WT901BLE68-01(48591DE3C19B)	-2.176	-9.129	-4.323	-33.325	657.227	-1019.226	-20.99	-72.24	-143.22	-69.090	-62.132	27.342	-0.04477	-0.49402	-0.26096	-0.82809	31.0	13111	100
2025-3-7 0:5:29.790	WT901BLE68-01(48591DE3C19B)	-8.670	-9.129	-4.323	-33.325	657.227	-1019.226	7.47	-66.81	-173.86	-69.090	-62.132	27.342	-0.04477	-0.49402	-0.26096	-0.82809	31.0	13111	100
2025-3-7 0:5:29.790	WT901BLE68-01(48591DE3C19B)	-8.670	-8.348	-4.629	297.302	-90.088	-392.639	21.18	-62.58	172.32	-69.090	-62.132	27.342	-0.04477	-0.49402	-0.26096	-0.82809	31.0	13111	100
2025-3-7 0:5:29.819	WT901BLE68-01(48591DE3C19B)	-7.071	-8.348	-4.629	297.302	-90.088	-392.639	31.02	-62.00	164.51	-69.090	-62.132	27.342	-0.04477	-0.49402	-0.26096	-0.82809	31.0	13111	100
2025-3-7 0:5:29.820	WT901BLE68-01(48591DE3C19B)	-7.071	-7.079	-3.533	165.588	-336.121	499.756	34.13	-64.51	163.52	-69.090	-62.132	27.342	-0.04477	-0.49402	-0.26096	-0.82809	31.0	13111	100
2025-3-7 0:5:29.820	WT901BLE68-01(48591DE3C19B)	-1.226	-7.079	-3.533	165.588	-336.121	499.756	28.97	-70.39	170.84	-69.090	-62.132	27.342	-0.04477	-0.49402	-0.26096	-0.82809	31.0	13111	100
2025-3-7 0:5:29.820	WT901BLE68-01(48591DE3C19B)	-1.226	-6.471	-2.371	-196.533	-201.965	1006.409	6.57	-75.72	-166.04	-69.090	-62.132	27.342	-0.04477	-0.49402	-0.26096	-0.82809	31.0	13111	100
2025-3-7 0:5:29.877	WT901BLE68-01(48591DE3C19B)	2.007	-6.471	-2.371	-196.533	-201.965	1006.409	-37.39	-74.99	-122.81	-69.090	-62.132	27.342	-0.04477	-0.49402	-0.26096	-0.82809	31.0	13111	100
2025-3-7 0:5:29.877	WT901BLE68-01(48591DE3C19B)	2.007	-8.089	-0.364	-463.989	-99.304	1233.093	-65.68	-66.81	-96.56	-69.090	-62.132	27.342	-0.04477	-0.49402	-0.26096	-0.82809	31.0	13111	100
2025-3-7 0:5:29.877	WT901BLE68-01(48591DE3C19B)	6.500	-8.089	-0.364	-463.989	-99.304	1233.093	-79.21	-55.09	-86.50	-69.090	-62.132	27.342	-0.04477	-0.49402	-0.26096	-0.82809	31.0	13111	100
2025-3-7 0:5:29.877	WT901BLE68-01(48591DE3C19B)	6.500	-5.977	1.982	47.424	-400.818	1208.191	-85.95	-43.03	-80.31	-69.090	-62.132	27.342	-0.04477	-0.49402	-0.26096	-0.82809	31.0	13111	100
2025-3-7 0:5:29.906	WT901BLE68-01(48591DE3C19B)	10.122	-5.977	1.982	47.424	-400.818	1208.191	-88.99	-31.01	-74.56	-69.090	-62.132	27.342	-0.04477	-0.49402	-0.26096	-0.82809	31.0	13111	100
2025-3-7 0:5:29.907	WT901BLE68-01(48591DE3C19B)	10.122	-2.321	0.872	206.177	-168.762	757.935	-89.24	-21.18	-71.26	-69.090	-62.132	27.342	-0.04477	-0.49402	-0.26096	-0.82809	31.0	13111	100
2025-3-7 0:5:29.907	WT901BLE68-01(48591DE3C19B)	11.592	-2.321	0.872	206.177	-168.762	757.935	-87.80	-13.70	-69.30	-69.090	-62.132	27.342	-0.04477	-0.49402	-0.26096	-0.82809	31.0	13111	100
2025-3-7 0:5:29.907	WT901BLE68-01(48591DE3C19B)	11.592	1.204	1.330	198.181	95.093	258.118	-85.97	-8.77	-68.70	-69.090	-62.132	27.342	-0.04477	-0.49402	-0.26096	-0.82809	31.0	13111	100
2025-3-7 0:5:29.939	WT901BLE68-01(48591DE3C19B)	11.263	1.204	1.330	198.181	95.093	258.118	-83.95	-6.31	-69.47	-69.090	-62.132	27.342	-0.04477	-0.49402	-0.26096	-0.82809	31.0	13111	100
2025-3-7 0:5:29.939	WT901BLE68-01(48591DE3C19B)	11.263	2.958	0.604	105.164	40.649	-515.442	-82.40	-7.76	-70.37	-69.090	-62.132	27.342	-0.04477	-0.49402	-0.26096	-0.82809	31.0	13111	100
2025-3-7 0:5:29.939	WT901BLE68-01(48591DE3C19B)	9.171	2.958	0.604	105.164	40.649	-515.442	-81.18	-13.06	-71.56	-69.090	-62.132	27.342	-0.04477	-0.49402	-0.26096	-0.82809	31.0	13111	100
2025-3-7 0:5:29.939	WT901BLE68-01(48591DE3C19B)	9.171	-2.282	1.962	-43.945	-48.279	-1181.702	-80.52	-21.69	-73.00	-69.090	-62.132	27.342	-0.04477	-0.49402	-0.26096	-0.82809	31.0	13111	100
2025-3-7 0:5:30.3	WT901BLE68-01(48591DE3C19B)	4.690	-2.282	1.962	-43.945	-48.279	-1181.702	-80.19	-33.61	-74.71	-69.090	-62.132	27.342	-0.04477	-0.49402	-0.26096	-0.82809	31.0	13111	100
2025-3-7 0:5:30.3	WT901BLE68-01(48591DE3C19B)	4.690	-8.008	2.810	-68.237	343.689	-1397.278	-77.35	-46.10	-79.88	-69.090	-62.132	27.342	0.34930	-0.63565	0.10339	-0.68054	31.0	13111	100
2025-3-7 0:5:30.3	WT901BLE68-01(48591DE3C19B)	0.938	-8.008	2.810	-68.237	343.689	-1397.278	-68.46	-58.52	-91.91	-69.090	-62.132	27.342	0.34930	-0.63565	0.10339	-0.68054	31.0	13111	100
2025-3-7 0:5:30.4	WT901BLE68-01(48591DE3C19B)	0.938	-7.630	-1.779	-86.792	822.021	-1064.148	-47.19	-65.95	-116.51	-69.090	-62.132	27.342	0.34930	-0.63565	0.10339	-0.68054	31.0	13111	100
2025-3-7 0:5:30.27	WT901BLE68-01(48591DE3C19B)	-5.141	-7.630	-1.779	-86.792	822.021	-1064.148	-18.85	-64.81	-148.51	-69.090	-62.132	27.342	0.34930	-0.63565	0.10339	-0.68054	31.0	13111	100
2025-3-7 0:5:30.27	WT901BLE68-01(48591DE3C19B)	-5.141	-8.258	-5.096	212.952	256.592	-676.941	-0.11	-61.06	-168.88	-69.090	-62.132	27.342	0.34930	-0.63565	0.10339	-0.68054	31.0	13111	100
2025-3-7 0:5:30.27	WT901BLE68-01(48591DE3C19B)	-9.209	-8.258	-5.096	212.952	256.592	-676.941	12.46	-58.00	178.97	-69.090	-62.132	27.342	0.34930	-0.63565	0.10339	-0.68054	31.0	13111	100
2025-3-7 0:5:30.28	WT901BLE68-01(48591DE3C19B)	-9.209	-7.572	-5.496	434.021	-539.307	115.479	20.20	-58.94	173.53	-69.090	-62.132	27.342	0.34930	-0.63565	0.10339	-0.68054	31.0	13111	100
2025-3-7 0:5:30.88	WT901BLE68-01(48591DE3C19B)	-3.666	-7.572	-5.496	434.021	-539.307	115.479	25.86	-64.73	171.97	-69.090	-62.132	27.342	0.34930	-0.63565	0.10339	-0.68054	31.0	13111	100
2025-3-7 0:5:30.88	WT901BLE68-01(48591DE3C19B)	-3.666	-6.332	-3.889	94.543	-547.485	807.495	22.73	-72.03	178.03	-69.090	-62.132	27.342	0.34930	-0.63565	0.10339	-0.68054	31.0	13111	100
2025-3-7 0:5:30.88	WT901BLE68-01(48591DE3C19B)	0.928	-6.332	-3.889	94.543	-547.485	807.495	-6.42	-79.10	-151.05	-69.090	-62.132	27.342	0.34930	-0.63565	0.10339	-0.68054	31.0	13111	100
2025-3-7 0:5:30.88	WT901BLE68-01(48591DE3C19B)	0.928	-7.106	-0.547	-364.868	-246.826	1114.441	-60.13	-76.95	-97.83	-69.090	-62.132	27.342	0.34930	-0.63565	0.10339	-0.68054	31.0	13111	100
2025-3-7 0:5:30.117	WT901BLE68-01(48591DE3C19B)	3.424	-7.106	-0.547	-364.868	-246.826	1114.441	-82.72	-66.74	-78.04	-69.090	-62.132	27.342	0.34930	-0.63565	0.10339	-0.68054	31.0	13111	100
2025-3-7 0:5:30.117	WT901BLE68-01(48591DE3C19B)	3.424	-7.357	2.396	-348.083	-110.779	1196.594	-90.94	-55.02	-72.81	-69.090	-62.132	27.342	0.34930	-0.63565	0.10339	-0.68054	31.0	13111	100
2025-3-7 0:5:30.117	WT901BLE68-01(48591DE3C19B)	6.875	-7.357	2.396	-348.083	-110.779	1196.594	-95.08	-42.80	-71.98	-69.090	-62.132	27.342	0.34930	-0.63565	0.10339	-0.68054	31.0	13111	100
2025-3-7 0:5:30.117	WT901BLE68-01(48591DE3C19B)	6.875	-5.695	1.755	227.722	-227.966	1060.059	-96.01	-31.26	-71.38	-69.090	-62.132	27.342	0.34930	-0.63565	0.10339	-0.68054	31.0	13111	100
2025-3-7 0:5:30.149	WT901BLE68-01(48591DE3C19B)	10.411	-5.695	1.755	227.722	-227.966	1060.059	-94.37	-20.45	-69.92	-69.090	-62.132	27.342	0.34930	-0.63565	0.10339	-0.68054	31.0	13111	100
2025-3-7 0:5:30.149	WT901BLE68-01(48591DE3C19B)	10.411	-2.251	0.345	292.908	15.991	699.829	-91.97	-11.63	-69.38	-69.090	-62.132	27.342	0.34930	-0.63565	0.10339	-0.68054	31.0	13111	100
2025-3-7 0:5:30.149	WT901BLE68-01(48591DE3C19B)	13.671	-2.251	0.345	292.908	15.991	699.829	-89.03	-4.77	-69.64	-69.090	-62.132	27.342	0.34930	-0.63565	0.10339	-0.68054	31.0	13111	100
2025-3-7 0:5:30.149	WT901BLE68-01(48591DE3C19B)	13.671	3.025	0.156	74.341	-26.550	178.101	-88.34	-3.20	-69.36	-69.090	-62.132	27.342	0.34930	-0.63565	0.10339	-0.68054	31.0	13111	100
2025-3-7 0:5:30.179	WT901BLE68-01(48591DE3C19B)	12.617	3.025	0.156	74.341	-26.550	178.101	-87.65	-1.70	-69.07	-69.090	-62.132	27.342	0.34930	-0.63565	0.10339	-0.68054	31.0	13111	100
2025-3-7 0:5:30.179	WT901BLE68-01(48591DE3C19B)	12.617	1.347	1.061	150.574	-95.520	-860.779	-86.24	-10.63	-68.62	-69.090	-62.132	27.342	0.34930	-0.63565	0.10339	-0.68054	31.0	13111	100
2025-3-7 0:5:30.179	WT901BLE68-01(48591DE3C19B)	7.386	1.347	1.061	150.574	-95.520	-860.779	-84.85	-19.55	-68.36	-85.848	-56.938	25.676	0.34930	-0.63565	0.10339	-0.68054	31.0	13111	100
2025-3-7 0:5:30.179	WT901BLE68-01(48591DE3C19B)	7.386	-6.390	2.458	-162.415	-28.015	-1286.133	-86.13	-32.58	-69.21	-85.848	-56.938	25.676	0.34930	-0.63565	0.10339	-0.68054	31.0	13111	100
2025-3-7 0:5:30.238	WT901BLE68-01(48591DE3C19B)	3.470	-6.390	2.458	-162.415	-28.015	-1286.133	-87.40	-45.54	-69.82	-85.848	-56.938	25.676	0.34930	-0.63565	0.10339	-0.68054	31.0	13111	100
2025-3-7 0:5:30.238	WT901BLE68-01(48591DE3C19B)	3.470	-8.216	1.814	10.803	551.086	-1328.125	-78.18	-58.08	-81.34	-85.848	-56.938	25.676	0.34930	-0.63565	0.10339	-0.68054	31.0	13111	100
2025-3-7 0:5:30.238	WT901BLE68-01(48591DE3C19B)	2.896	-8.216	1.814	10.803	551.086	-1328.125	-58.03	-68.45	-103.66	-85.848	-56.938	25.676	0.34930	-0.63565	0.10339	-0.68054	31.0	13111	100
2025-3-7 0:5:30.238	WT901BLE68-01(48591DE3C19B)	2.896	-7.973	-3.299	21.973	865.051	-1175.354	-19.92	-69.11	-144.11	-85.848	-56.938	25.676	0.34930	-0.63565	0.10339	-0.68054	31.0	13111	100
2025-3-7 0:5:30.266	WT901BLE68-01(48591DE3C19B)	-4.333	-7.973	-3.299	21.973	865.051	-1175.354	7.58	-61.67	-173.98	-85.848	-56.938	25.676	0.34930	-0.63565	0.10339	-0.68054	31.0	13111	100
2025-3-7 0:5:30.266	WT901BLE68-01(48591DE3C19B)	-4.333	-9.620	-5.287	343.018	92.712	-935.547	25.63	-58.35	169.12	-85.848	-56.938	25.676	0.34930	-0.63565	0.10339	-0.68054	31.0	13111	100
2025-3-7 0:5:30.267	WT901BLE68-01(48591DE3C19B)	-9.495	-9.620	-5.287	343.018	92.712	-935.547	39.48	-52.90	156.46	-85.848	-56.938	25.676	0.34930	-0.63565	0.10339	-0.68054	31.0	13111	100
2025-3-7 0:5:30.267	WT901BLE68-01(48591DE3C19B)	-9.495	-8.864	-4.012	425.171	-448.669	-88.684	48.66	-55.99	150.34	-85.848	-56.938	25.676	0.34930	-0.63565	0.10339	-0.68054	31.0	13111	100
2025-3-7 0:5:30.303	WT901BLE68-01(48591DE3C19B)	-5.153	-8.864	-4.012	425.171	-448.669	-88.684	59.09	-58.46	142.96	-85.848	-56.938	25.676	0.34930	-0.63565	0.10339	-0.68054	31.0	13111	100
2025-3-7 0:5:30.303	WT901BLE68-01(48591DE3C19B)	-5.153	-8.403	-4.358	55.420	-389.343	908.508	56.22	-68.76	146.76	-85.848	-56.938	25.676	0.34930	-0.63565	0.10339	-0.68054	31.0	13111	100
2025-3-7 0:5:30.303	WT901BLE68-01(48591DE3C19B)	1.494	-8.403	-4.358	55.420	-389.343	908.508	47.36	-78.84	156.51	-85.848	-56.938	25.676	0.34930	-0.63565	0.10339	-0.68054	31.0	13111	100
2025-3-7 0:5:30.303	WT901BLE68-01(48591DE3C19B)	1.494	-9.125	-1.934	-474.060	-265.259	1386.963	-53.79	-81.88	-106.29	-85.848	-56.938	25.676	0.34930	-0.63565	0.10339	-0.68054	31.0	13111	100
2025-3-7 0:5:30.359	WT901BLE68-01(48591DE3C19B)	4.600	-9.125	-1.934	-474.060	-265.259	1386.963	-87.37	-68.98	-76.74	-85.848	-56.938	25.676	0.34930	-0.63565	0.10339	-0.68054	31.0	13111	100
2025-3-7 0:5:30.359	WT901BLE68-01(48591DE3C19B)	4.600	-9.855	3.092	-490.051	-233.215	1472.046	-95.99	-53.92	-72.56	-85.848	-56.938	25.676	0.34930	-0.63565	0.10339	-0.68054	31.0	13111	100
2025-3-7 0:5:30.359	WT901BLE68-01(48591DE3C19B)	8.218	-9.855	3.092	-490.051	-233.215	1472.046	-101.06	-38.83	-72.32	-85.848	-56.938	25.676	0.34930	-0.63565	0.10339	-0.68054	31.0	13111	100
2025-3-7 0:5:30.360	WT901BLE68-01(48591DE3C19B)	8.218	-6.603	2.378	429.565	-328.247	1151.184	-97.62	-26.85	-70.68	-85.848	-56.938	25.676	0.34930	-0.63565	0.10339	-0.68054	31.0	13111	100
2025-3-7 0:5:30.389	WT901BLE68-01(48591DE3C19B)	12.230	-6.603	2.378	429.565	-328.247	1151.184	-94.11	-15.07	-68.47	-85.848	-56.938	25.676	0.34930	-0.63565	0.10339	-0.68054	31.0	13111	100
2025-3-7 0:5:30.390	WT901BLE68-01(48591DE3C19B)	12.230	-1.631	0.747	162.537	58.472	753.357	-92.29	-7.67	-69.52	-85.848	-56.938	25.676	0.34930	-0.63565	0.10339	-0.68054	31.0	13111	100
2025-3-7 0:5:30.390	WT901BLE68-01(48591DE3C19B)	11.952	-1.631	0.747	162.537	58.472	753.357	-90.62	-0.33	-70.32	-85.848	-56.938	25.676	0.34930	-0.63565	0.10339	-0.68054	31.0	13111	100
2025-3-7 0:5:30.390	WT901BLE68-01(48591DE3C19B)	11.952	2.276	0.353	59.692	62.439	154.907	-90.05	0.98	-70.98	-85.848	-56.938	25.676	0.58139	-0.56747	0.41940	-0.40485	31.0	13111	100
2025-3-7 0:5:30.420	WT901BLE68-01(48591DE3C19B)	10.670	2.276	0.353	59.692	62.439	154.907	-89.49	2.24	-71.63	-85.848	-56.938	25.676	0.58139	-0.56747	0.41940	-0.40485	31.0	13111	100
2025-3-7 0:5:30.420	WT901BLE68-01(48591DE3C19B)	10.670	1.746	1.061	130.249	-64.758	-708.679	-88.22	-5.15	-71.15	-85.848	-56.938	25.676	0.58139	-0.56747	0.41940	-0.40485	31.0	13111	100
2025-3-7 0:5:30.420	WT901BLE68-01(48591DE3C19B)	9.007	1.746	1.061	130.249	-64.758	-708.679	-86.99	-12.54	-70.82	-85.848	-56.938	25.676	0.58139	-0.56747	0.41940	-0.40485	31.0	13111	100
2025-3-7 0:5:30.420	WT901BLE68-01(48591DE3C19B)	9.007	-3.345	2.639	170.105	-45.959	-1401.489	-85.12	-26.76	-71.39	-85.848	-56.938	25.676	0.58139	-0.56747	0.41940	-0.40485	31.0	13111	100
2025-3-7 0:5:30.477	WT901BLE68-01(48591DE3C19B)	7.975	-3.345	2.639	170.105	-45.959	-1401.489	-82.72	-40.88	-72.66	-85.848	-56.938	25.676	0.58139	-0.56747	0.41940	-0.40485	31.0	13111	100
2025-3-7 0:5:30.477	WT901BLE68-01(48591DE3C19B)	7.975	-9.624	2.217	41.260	255.432	-1609.619	-76.09	-56.29	-80.91	-85.848	-56.938	25.676	0.58139	-0.56747	0.41940	-0.40485	31.0	13111	100
2025-3-7 0:5:30.477	WT901BLE68-01(48591DE3C19B)	0.887	-9.624	2.217	41.260	255.432	-1609.619	-58.63	-70.26	-99.84	-85.848	-56.938	25.676	0.58139	-0.56747	0.41940	-0.40485	31.0	13111	100
2025-3-7 0:5:30.477	WT901BLE68-01(48591DE3C19B)	0.887	-9.708	-3.201	-271.545	640.869	-1300.903	-17.40	-73.40	-145.87	-85.848	-56.938	25.676	0.58139	-0.56747	0.41940	-0.40485	31.0	13111	100
2025-3-7 0:5:30.508	WT901BLE68-01(48591DE3C19B)	-5.818	-9.708	-3.201	-271.545	640.869	-1300.903	16.09	-66.91	175.82	-85.848	-56.938	25.676	0.58139	-0.56747	0.41940	-0.40485	31.0	13111	100
2025-3-7 0:5:30.508	WT901BLE68-01(48591DE3C19B)	-5.818	-9.012	-3.929	212.830	8.728	-737.366	32.35	-64.06	160.29	-85.848	-56.938	25.676	0.58139	-0.56747	0.41940	-0.40485	31.0	13111	100
2025-3-7 0:5:30.508	WT901BLE68-01(48591DE3C19B)	-8.220	-9.012	-3.929	212.830	8.728	-737.366	44.75	-59.75	148.63	-85.848	-56.938	25.676	0.58139	-0.56747	0.41940	-0.40485	31.0	13111	100
2025-3-7 0:5:30.508	WT901BLE68-01(48591DE3C19B)	-8.220	-8.077	-2.932	426.270	-443.054	159.241	52.94	-64.32	144.17	-85.848	-56.938	25.676	0.58139	-0.56747	0.41940	-0.40485	31.0	13111	100
2025-3-7 0:5:30.539	WT901BLE68-01(48591DE3C19B)	-3.969	-8.077	-2.932	426.270	-443.054	159.241	63.56	-68.50	137.21	-85.848	-56.938	25.676	0.58139	-0.56747	0.41940	-0.40485	31.0	13111	100
2025-3-7 0:5:30.539	WT901BLE68-01(48591DE3C19B)	-3.969	-7.168	-3.673	129.272	-400.574	883.179	63.20	-78.67	138.93	-85.848	-56.938	25.676	0.58139	-0.56747	0.41940	-0.40485	31.0	13111	100
2025-3-7 0:5:30.539	WT901BLE68-01(48591DE3C19B)	0.664	-7.168	-3.673	129.272	-400.574	883.179	45.86	-88.76	157.59	-85.848	-56.938	25.676	0.58139	-0.56747	0.41940	-0.40485	31.0	13111	100
2025-3-7 0:5:30.539	WT901BLE68-01(48591DE3C19B)	0.664	-8.061	-1.581	-314.514	-261.658	1273.376	-100.03	-77.59	-59.58	-85.848	-56.938	25.676	0.58139	-0.56747	0.41940	-0.40485	31.0	13111	100
2025-3-7 0:5:30.603	WT901BLE68-01(48591DE3C19B)	3.763	-8.061	-1.581	-314.514	-261.658	1273.376	-103.20	-64.25	-59.55	-85.848	-56.938	25.676	0.58139	-0.56747	0.41940	-0.40485	31.0	13111	100
2025-3-7 0:5:30.604	WT901BLE68-01(48591DE3C19B)	3.763	-9.604	2.027	-368.896	-234.802	1455.261	-104.92	-49.31	-61.88	-61.348	-61.740	23.618	0.58139	-0.56747	0.41940	-0.40485	31.0	13111	100
2025-3-7 0:5:30.604	WT901BLE68-01(48591DE3C19B)	7.198	-9.604	2.027	-368.896	-234.802	1455.261	-106.98	-34.52	-64.25	-61.348	-61.740	23.618	0.58139	-0.56747	0.41940	-0.40485	31.0	13111	100
2025-3-7 0:5:30.604	WT901BLE68-01(48591DE3C19B)	7.198	-6.793	1.773	427.979	-338.562	1169.312	-102.78	-22.29	-64.00	-61.348	-61.740	23.618	0.58139	-0.56747	0.41940	-0.40485	31.0	13111	100
2025-3-7 0:5:30.627	WT901BLE68-01(48591DE3C19B)	11.533	-6.793	1.773	427.979	-338.562	1169.312	-98.78	-10.21	-62.87	-61.348	-61.740	23.618	0.58139	-0.56747	0.41940	-0.40485	31.0	13111	100
2025-3-7 0:5:30.627	WT901BLE68-01(48591DE3C19B)	12.437	-2.187	0.560	336.609	2.380	807.983	-95.29	-2.31	-63.95	-61.348	-61.740	23.618	0.58139	-0.56747	0.41940	-0.40485	31.0	13111	100
2025-3-7 0:5:30.627	WT901BLE68-01(48591DE3C19B)	12.437	2.874	-0.143	131.409	82.458	147.583	-92.97	2.22	-64.78	-61.348	-61.740	23.618	0.58139	-0.56747	0.41940	-0.40485	31.0	13111	100
2025-3-7 0:5:30.627	WT901BLE68-01(48591DE3C19B)	10.774	2.874	-0.143	131.409	82.458	147.583	-91.72	3.41	-65.71	-61.348	-61.740	23.618	0.58139	-0.56747	0.41940	-0.40485	31.0	13111	100
2025-3-7 0:5:30.657	WT901BLE68-01(48591DE3C19B)	10.774	1.524	0.243	219.421	-103.027	-709.656	-90.01	0.30	-65.65	-61.348	-61.740	23.618	0.58139	-0.56747	0.41940	-0.40485	31.0	13111	100
2025-3-7 0:5:30.657	WT901BLE68-01(48591DE3C19B)	8.790	1.524	0.243	219.421	-103.027	-709.656	-87.91	-7.10	-64.80	-61.348	-61.740	23.618	0.58139	-0.56747	0.41940	-0.40485	31.0	13111	100
2025-3-7 0:5:30.657	WT901BLE68-01(48591DE3C19B)	8.790	-3.514	1.582	-35.400	-143.433	-1262.512	-87.19	-17.27	-64.09	-61.348	-61.740	23.618	0.58139	-0.56747	0.41940	-0.40485	31.0	13111	100
2025-3-7 0:5:30.657	WT901BLE68-01(48591DE3C19B)	5.534	-3.514	1.582	-35.400	-143.433	-1262.512	-87.97	-30.13	-63.17	-61.348	-61.740	23.618	0.58139	-0.56747	0.41940	-0.40485	31.0	13111	100
2025-3-7 0:5:30.720	WT901BLE68-01(48591DE3C19B)	5.534	-8.197	2.135	-148.743	194.946	-1443.909	-88.24	-43.76	-64.15	-61.348	-61.740	23.618	0.58139	-0.56747	0.41940	-0.40485	31.0	13111	100
2025-3-7 0:5:30.720	WT901BLE68-01(48591DE3C19B)	1.360	-8.197	2.135	-148.743	194.946	-1443.909	-86.50	-58.10	-68.33	-61.348	-61.740	23.618	0.58139	-0.56747	0.41940	-0.40485	31.0	13111	100
2025-3-7 0:5:30.720	WT901BLE68-01(48591DE3C19B)	1.360	-8.978	-2.335	-132.874	620.972	-1249.329	-74.71	-70.72	-82.74	-61.348	-61.740	23.618	0.58139	-0.56747	0.41940	-0.40485	31.0	13111	100
2025-3-7 0:5:30.720	WT901BLE68-01(48591DE3C19B)	-6.093	-8.978	-2.335	-132.874	620.972	-1249.329	-31.67	-77.39	-128.67	-61.348	-61.740	23.618	0.58139	-0.56747	0.41940	-0.40485	31.0	13111	100
2025-3-7 0:5:30.749	WT901BLE68-01(48591DE3C19B)	-6.093	-8.915	-3.845	177.063	109.497	-702.515	10.95	-75.52	-172.28	-61.348	-61.740	23.618	0.58139	-0.56747	0.41940	-0.40485	31.0	13111	100
2025-3-7 0:5:30.749	WT901BLE68-01(48591DE3C19B)	-8.522	-8.915	-3.845	177.063	109.497	-702.515	32.82	-72.05	166.76	-61.348	-61.740	23.618	0.58139	-0.56747	0.41940	-0.40485	31.0	13111	100
2025-3-7 0:5:30.749	WT901BLE68-01(48591DE3C19B)	-8.522	-7.913	-3.550	376.892	-433.899	200.378	44.09	-72.15	157.71	-61.348	-61.740	23.618	0.58139	-0.56747	0.41940	-0.40485	31.0	13111	100
2025-3-7 0:5:30.749	WT901BLE68-01(48591DE3C19B)	-3.487	-7.913	-3.550	376.892	-433.899	200.378	54.16	-76.92	151.13	-61.348	-61.740	23.618	0.58139	-0.56747	0.41940	-0.40485	31.0	13111	100
2025-3-7 0:5:30.779	WT901BLE68-01(48591DE3C19B)	-3.487	-6.969	-3.117	43.396	-377.991	904.907	56.77	-84.23	150.50	-61.348	-61.740	23.618	0.58139	-0.56747	0.41940	-0.40485	31.0	13111	100
2025-3-7 0:5:30.779	WT901BLE68-01(48591DE3C19B)	0.539	-6.969	-3.117	43.396	-377.991	904.907	-98.62	-85.29	-53.59	-61.348	-61.740	23.618	0.58139	-0.56747	0.41940	-0.40485	31.0	13111	100
2025-3-7 0:5:30.779	WT901BLE68-01(48591DE3C19B)	0.539	-7.832	-0.862	-405.884	-181.274	1237.854	-104.34	-73.84	-49.73	-61.348	-61.740	23.618	0.24533	-0.72778	-0.06873	-0.63663	31.0	13111	100
2025-3-7 0:5:30.779	WT901BLE68-01(48591DE3C19B)	3.522	-7.832	-0.862	-405.884	-181.274	1237.854	-105.00	-61.07	-53.40	-61.348	-61.740	23.618	0.24533	-0.72778	-0.06873	-0.63663	31.0	13111	100
2025-3-7 0:5:30.838	WT901BLE68-01(48591DE3C19B)	3.522	-8.408	2.494	-214.355	-236.511	1359.131	-105.91	-47.74	-56.06	-61.348	-61.740	23.618	0.24533	-0.72778	-0.06873	-0.63663	31.0	13111	100
2025-3-7 0:5:30.838	WT901BLE68-01(48591DE3C19B)	8.914	-8.408	2.494	-214.355	-236.511	1359.131	-106.65	-33.87	-58.16	-61.348	-61.740	23.618	0.24533	-0.72778	-0.06873	-0.63663	31.0	13111	100
2025-3-7 0:5:30.838	WT901BLE68-01(48591DE3C19B)	8.914	-5.125	1.674	501.343	-130.859	985.291	-104.32	-22.03	-59.99	-61.348	-61.740	23.618	0.24533	-0.72778	-0.06873	-0.63663	31.0	13111	100
2025-3-7 0:5:30.838	WT901BLE68-01(48591DE3C19B)	13.361	-5.125	1.674	501.343	-130.859	985.291	-99.04	-12.13	-60.80	-61.348	-61.740	23.618	0.24533	-0.72778	-0.06873	-0.63663	31.0	13111	100
2025-3-7 0:5:30.866	WT901BLE68-01(48591DE3C19B)	13.361	0.979	0.641	285.522	169.067	518.066	-94.98	-4.78	-62.00	-61.348	-61.740	23.618	0.24533	-0.72778	-0.06873	-0.63663	31.0	13111	100
2025-3-7 0:5:30.867	WT901BLE68-01(48591DE3C19B)	12.854	0.979	0.641	285.522	169.067	518.066	-92.05	0.09	-64.07	-61.348	-61.740	23.618	0.24533	-0.72778	-0.06873	-0.63663	31.0	13111	100
2025-3-7 0:5:30.867	WT901BLE68-01(48591DE3C19B)	12.854	3.904	-0.081	281.128	45.288	-401.428	-89.27	0.40	-65.26	-61.348	-61.740	23.618	0.24533	-0.72778	-0.06873	-0.63663	31.0	13111	100
2025-3-7 0:5:30.867	WT901BLE68-01(48591DE3C19B)	10.888	3.904	-0.081	281.128	45.288	-401.428	-86.49	-3.88	-65.91	-61.348	-61.740	23.618	0.24533	-0.72778	-0.06873	-0.63663	31.0	13111	100
2025-3-7 0:5:30.903	WT901BLE68-01(48591DE3C19B)	10.888	-0.824	0.691	236.084	-271.118	-1129.395	-84.05	-11.90	-65.52	-61.348	-61.740	23.618	0.24533	-0.72778	-0.06873	-0.63663	31.0	13111	100
2025-3-7 0:5:30.903	WT901BLE68-01(48591DE3C19B)	8.271	-0.824	0.691	236.084	-271.118	-1129.395	-82.17	-23.68	-64.18	-61.348	-61.740	23.618	0.24533	-0.72778	-0.06873	-0.63663	31.0	13111	100
2025-3-7 0:5:30.904	WT901BLE68-01(48591DE3C19B)	8.271	-8.044	3.843	-391.907	-241.211	-1448.547	-83.40	-36.97	-63.37	-61.348	-61.740	23.618	0.24533	-0.72778	-0.06873	-0.63663	31.0	13111	100
2025-3-7 0:5:30.904	WT901BLE68-01(48591DE3C19B)	1.715	-8.044	3.843	-391.907	-241.211	-1448.547	-88.71	-51.66	-61.48	-61.348	-61.740	23.618	0.24533	-0.72778	-0.06873	-0.63663	31.0	13111	100
2025-3-7 0:5:30.959	WT901BLE68-01(48591DE3C19B)	1.715	-10.049	0.398	-188.843	620.789	-1360.840	-87.50	-65.67	-66.01	-61.348	-61.740	23.618	0.24533	-0.72778	-0.06873	-0.63663	31.0	13111	100
2025-3-7 0:5:30.959	WT901BLE68-01(48591DE3C19B)	-7.128	-10.049	0.398	-188.843	620.789	-1360.840	-59.85	-77.25	-96.96	-61.348	-61.740	23.618	0.24533	-0.72778	-0.06873	-0.63663	31.0	13111	100
2025-3-7 0:5:30.960	WT901BLE68-01(48591DE3C19B)	-7.128	-10.452	-4.113	64.209	328.979	-722.290	-5.37	-79.01	-153.11	-61.348	-61.740	23.618	0.24533	-0.72778	-0.06873	-0.63663	31.0	13111	100
2025-3-7 0:5:30.960	WT901BLE68-01(48591DE3C19B)	-8.945	-10.452	-4.113	64.209	328.979	-722.290	22.64	-74.66	178.78	-61.348	-61.740	23.618	0.24533	-0.72778	-0.06873	-0.63663	31.0	13111	100
2025-3-7 0:5:30.988	WT901BLE68-01(48591DE3C19B)	-8.945	-8.191	-4.253	322.205	-319.214	309.265	30.07	-73.99	172.99	-61.348	-61.740	23.618	0.24533	-0.72778	-0.06873	-0.63663	31.0	13111	100
2025-3-7 0:5:30.988	WT901BLE68-01(48591DE3C19B)	-3.156	-8.191	-4.253	322.205	-319.214	309.265	27.01	-78.56	179.38	-61.348	-61.740	23.618	0.24533	-0.72778	-0.06873	-0.63663	31.0	13111	100
2025-3-7 0:5:30.988	WT901BLE68-01(48591DE3C19B)	-3.156	-5.704	-2.570	70.313	-363.098	819.092	-4.84	-83.42	-146.51	-61.348	-61.740	23.618	0.24533	-0.72778	-0.06873	-0.63663	31.0	13111	100
2025-3-7 0:5:30.988	WT901BLE68-01(48591DE3C19B)	0.158	-5.704	-2.570	70.313	-363.098	819.092	-72.14	-80.46	-78.04	-53.900	-63.308	30.576	0.24533	-0.72778	-0.06873	-0.63663	31.0	13111	100
2025-3-7 0:5:31.20	WT901BLE68-01(48591DE3C19B)	0.158	-6.441	0.093	-320.862	-65.735	1047.302	-88.85	-71.20	-62.28	-53.900	-63.308	30.576	0.24533	-0.72778	-0.06873	-0.63663	31.0	13111	100
2025-3-7 0:5:31.20	WT901BLE68-01(48591DE3C19B)	3.881	-6.441	0.093	-320.862	-65.735	1047.302	-93.22	-60.39	-61.03	-53.900	-63.308	30.576	0.24533	-0.72778	-0.06873	-0.63663	31.0	13111	100
2025-3-7 0:5:31.20	WT901BLE68-01(48591DE3C19B)	3.881	-7.907	2.565	-79.712	-122.253	1262.634	-95.27	-48.54	-61.00	-53.900	-63.308	30.576	0.24533	-0.72778	-0.06873	-0.63663	31.0	13111	100
2025-3-7 0:5:31.20	WT901BLE68-01(48591DE3C19B)	10.833	-7.907	2.565	-79.712	-122.253	1262.634	-96.03	-35.68	-61.07	-53.900	-63.308	30.576	0.24533	-0.72778	-0.06873	-0.63663	31.0	13111	100
2025-3-7 0:5:31.77	WT901BLE68-01(48591DE3C19B)	10.833	-3.768	1.751	412.781	78.369	979.065	-93.87	-24.41	-62.13	-53.900	-63.308	30.576	0.24533	-0.72778	-0.06873	-0.63663	31.0	13111	100
2025-3-7 0:5:31.77	WT901BLE68-01(48591DE3C19B)	13.792	-3.768	1.751	412.781	78.369	979.065	-89.37	-14.67	-63.31	-53.900	-63.308	30.576	0.24533	-0.72778	-0.06873	-0.63663	31.0	13111	100
2025-3-7 0:5:31.78	WT901BLE68-01(48591DE3C19B)	13.792	4.134	0.729	-101.563	287.964	342.957	-87.57	-8.11	-65.00	-53.900	-63.308	30.576	0.24533	-0.72778	-0.06873	-0.63663	31.0	13111	100
2025-3-7 0:5:31.78	WT901BLE68-01(48591DE3C19B)	10.957	4.134	0.729	-101.563	287.964	342.957	-88.29	-4.78	-67.82	-53.900	-63.308	30.576	0.24533	-0.72778	-0.06873	-0.63663	31.0	13111	100
2025-3-7 0:5:31.106	WT901BLE68-01(48591DE3C19B)	10.957	2.510	0.692	214.905	8.057	-596.680	-86.11	-10.98	-68.24	-53.900	-63.308	30.576	0.24533	-0.72778	-0.06873	-0.63663	31.0	13111	100
2025-3-7 0:5:31.106	WT901BLE68-01(48591DE3C19B)	7.647	2.510	0.692	214.905	8.057	-596.680	-83.83	-17.16	-68.90	-53.900	-63.308	30.576	0.24533	-0.72778	-0.06873	-0.63663	31.0	13111	100
2025-3-7 0:5:31.106	WT901BLE68-01(48591DE3C19B)	7.647	-3.137	2.003	91.370	-152.222	-1046.814	-83.07	-27.93	-68.60	-53.900	-63.308	30.576	0.24533	-0.72778	-0.06873	-0.63663	31.0	13111	100
2025-3-7 0:5:31.107	WT901BLE68-01(48591DE3C19B)	4.308	-3.137	2.003	91.370	-152.222	-1046.814	-82.28	-38.64	-68.44	-53.900	-63.308	30.576	0.24533	-0.72778	-0.06873	-0.63663	31.0	13111	100
2025-3-7 0:5:31.137	WT901BLE68-01(48591DE3C19B)	4.308	-5.563	3.474	-73.486	39.795	-1140.869	-81.00	-49.94	-71.36	-53.900	-63.308	30.576	0.24533	-0.72778	-0.06873	-0.63663	31.0	13111	100
2025-3-7 0:5:31.137	WT901BLE68-01(48591DE3C19B)	1.348	-5.563	3.474	-73.486	39.795	-1140.869	-78.11	-61.08	-75.76	-53.900	-63.308	30.576	0.24533	-0.72778	-0.06873	-0.63663	31.0	13111	100
2025-3-7 0:5:31.138	WT901BLE68-01(48591DE3C19B)	1.348	-7.008	0.544	76.843	420.044	-1157.349	-59.28	-70.36	-95.50	-53.900	-63.308	30.576	0.24533	-0.72778	-0.06873	-0.63663	31.0	13111	100
2025-3-7 0:5:31.138	WT901BLE68-01(48591DE3C19B)	-5.914	-7.008	0.544	76.843	420.044	-1157.349	-21.51	-74.79	-134.17	-53.900	-63.308	30.576	0.24533	-0.72778	-0.06873	-0.63663	31.0	13111	100
2025-3-7 0:5:31.203	WT901BLE68-01(48591DE3C19B)	-5.914	-9.497	-2.730	259.277	164.856	-773.438	8.50	-74.00	-162.65	-53.900	-63.308	30.576	0.24533	-0.72778	-0.06873	-0.63663	31.0	13111	100
2025-3-7 0:5:31.203	WT901BLE68-01(48591DE3C19B)	-9.302	-9.497	-2.730	259.277	164.856	-773.438	30.81	-69.97	176.57	-53.900	-63.308	30.576	0.24533	-0.72778	-0.06873	-0.63663	31.0	13111	100
2025-3-7 0:5:31.204	WT901BLE68-01(48591DE3C19B)	-9.302	-8.376	-4.525	276.489	-219.910	238.708	29.60	-73.34	-179.32	-53.900	-63.308	30.576	0.24533	-0.72778	-0.06873	-0.63663	31.0	13111	100
2025-3-7 0:5:31.204	WT901BLE68-01(48591DE3C19B)	-3.280	-8.376	-4.525	276.489	-219.910	238.708	26.91	-76.71	-173.75	-53.900	-63.308	30.576	0.24533	-0.72778	-0.06873	-0.63663	31.0	13111	100
2025-3-7 0:5:31.227	WT901BLE68-01(48591DE3C19B)	-3.280	-6.286	-2.704	-38.269	-276.672	839.417	-17.44	-80.57	-129.07	-53.900	-63.308	30.576	0.23563	-0.62671	-0.17032	-0.72290	31.0	13111	100
2025-3-7 0:5:31.227	WT901BLE68-01(48591DE3C19B)	0.323	-6.286	-2.704	-38.269	-276.672	839.417	-62.15	-76.83	-84.03	-53.900	-63.308	30.576	0.23563	-0.62671	-0.17032	-0.72290	31.0	13111	100
2025-3-7 0:5:31.227	WT901BLE68-01(48591DE3C19B)	0.323	-6.788	-0.031	-406.433	-65.308	1088.684	-79.51	-66.35	-70.13	-53.900	-63.308	30.576	0.23563	-0.62671	-0.17032	-0.72290	31.0	13111	100
2025-3-7 0:5:31.227	WT901BLE68-01(48591DE3C19B)	3.509	-6.788	-0.031	-406.433	-65.308	1088.684	-87.21	-55.29	-66.03	-53.900	-63.308	30.576	0.23563	-0.62671	-0.17032	-0.72290	31.0	13111	100
2025-3-7 0:5:31.287	WT901BLE68-01(48591DE3C19B)	3.509	-7.361	2.834	-182.678	-104.065	1220.581	-90.58	-42.86	-64.04	-53.900	-63.308	30.576	0.23563	-0.62671	-0.17032	-0.72290	31.0	13111	100
2025-3-7 0:5:31.288	WT901BLE68-01(48591DE3C19B)	8.928	-7.361	2.834	-182.678	-104.065	1220.581	-92.91	-30.47	-63.23	-53.900	-63.308	30.576	0.23563	-0.62671	-0.17032	-0.72290	31.0	13111	100
2025-3-7 0:5:31.288	WT901BLE68-01(48591DE3C19B)	8.928	-4.466	1.999	366.394	-5.981	974.426	-89.17	-20.67	-63.40	-53.900	-63.308	30.576	0.23563	-0.62671	-0.17032	-0.72290	31.0	13111	100
2025-3-7 0:5:31.288	WT901BLE68-01(48591DE3C19B)	13.898	-4.466	1.999	366.394	-5.981	974.426	-85.65	-10.97	-62.94	-53.900	-63.308	30.576	0.23563	-0.62671	-0.17032	-0.72290	31.0	13111	100
2025-3-7 0:5:31.316	WT901BLE68-01(48591DE3C19B)	13.898	2.509	0.830	1.038	134.155	467.896	-85.52	-6.33	-64.00	-53.900	-63.308	30.576	0.23563	-0.62671	-0.17032	-0.72290	31.0	13111	100
2025-3-7 0:5:31.316	WT901BLE68-01(48591DE3C19B)	12.007	2.509	0.830	1.038	134.155	467.896	-85.46	-1.79	-65.03	-53.900	-63.308	30.576	0.23563	-0.62671	-0.17032	-0.72290	31.0	13111	100
2025-3-7 0:5:31.317	WT901BLE68-01(48591DE3C19B)	12.007	3.458	1.144	167.969	-54.321	-490.662	-83.81	-7.00	-65.02	-53.900	-63.308	30.576	0.23563	-0.62671	-0.17032	-0.72290	31.0	13111	100
2025-3-7 0:5:31.317	WT901BLE68-01(48591DE3C19B)	9.561	3.458	1.144	167.969	-54.321	-490.662	-82.14	-12.22	-65.14	-53.900	-63.308	30.576	0.23563	-0.62671	-0.17032	-0.72290	31.0	13111	100
2025-3-7 0:5:31.349	WT901BLE68-01(48591DE3C19B)	9.561	-1.684	1.966	192.505	-192.932	-1122.803	-80.30	-23.86	-65.00	-53.900	-63.308	30.576	0.23563	-0.62671	-0.17032	-0.72290	31.0	13111	100
2025-3-7 0:5:31.349	WT901BLE68-01(48591DE3C19B)	5.184	-1.684	1.966	192.505	-192.932	-1122.803	-78.28	-35.44	-65.29	-53.900	-63.308	30.576	0.23563	-0.62671	-0.17032	-0.72290	31.0	13111	100
2025-3-7 0:5:31.349	WT901BLE68-01(48591DE3C19B)	5.184	-7.228	3.147	-327.332	-9.277	-1265.930	-79.45	-47.98	-68.51	-53.900	-63.308	30.576	0.23563	-0.62671	-0.17032	-0.72290	31.0	13111	100
2025-3-7 0:5:31.349	WT901BLE68-01(48591DE3C19B)	-1.659	-7.228	3.147	-327.332	-9.277	-1265.930	-79.62	-60.45	-72.34	-53.900	-63.308	30.576	0.23563	-0.62671	-0.17032	-0.72290	31.0	13111	100
2025-3-7 0:5:31.407	WT901BLE68-01(48591DE3C19B)	-1.659	-8.598	-0.071	-102.234	477.966	-1122.559	-63.14	-69.59	-91.58	-53.900	-63.308	30.576	0.23563	-0.62671	-0.17032	-0.72290	31.0	13111	100
2025-3-7 0:5:31.407	WT901BLE68-01(48591DE3C19B)	-9.682	-8.598	-0.071	-102.234	477.966	-1122.559	-29.34	-74.50	-128.06	-60.074	-63.504	30.576	0.23563	-0.62671	-0.17032	-0.72290	31.0	13111	100
2025-3-7 0:5:31.407	WT901BLE68-01(48591DE3C19B)	-9.682	-9.531	-4.589	204.285	82.092	-321.350	-16.30	-74.93	-139.52	-60.074	-63.504	30.576	0.23563	-0.62671	-0.17032	-0.72290	31.0	13111	100
2025-3-7 0:5:31.407	WT901BLE68-01(48591DE3C19B)	-6.835	-9.531	-4.589	204.285	82.092	-321.350	-3.47	-74.67	-150.75	-60.074	-63.504	30.576	0.23563	-0.62671	-0.17032	-0.72290	31.0	13111	100
2025-3-7 0:5:31.437	WT901BLE68-01(48591DE3C19B)	-6.835	-5.949	-4.515	117.920	-380.432	522.644	-28.15	-76.93	-124.19	-60.074	-63.504	30.576	0.23563	-0.62671	-0.17032	-0.72290	31.0	13111	100
2025-3-7 0:5:31.437	WT901BLE68-01(48591DE3C19B)	-2.251	-5.949	-4.515	117.920	-380.432	522.644	-55.62	-76.04	-94.83	-60.074	-63.504	30.576	0.23563	-0.62671	-0.17032	-0.72290	31.0	13111	100
2025-3-7 0:5:31.437	WT901BLE68-01(48591DE3C19B)	-2.251	-5.238	-1.277	-165.588	-274.719	831.360	-76.87	-69.11	-74.39	-60.074	-63.504	30.576	0.23563	-0.62671	-0.17032	-0.72290	31.0	13111	100
2025-3-7 0:5:31.437	WT901BLE68-01(48591DE3C19B)	1.012	-5.238	-1.277	-165.588	-274.719	831.360	-87.17	-60.90	-64.94	-60.074	-63.504	30.576	0.23563	-0.62671	-0.17032	-0.72290	31.0	13111	100
2025-3-7 0:5:31.467	WT901BLE68-01(48591DE3C19B)	1.012	-6.558	0.981	-269.653	-170.105	1081.299	-92.48	-49.80	-61.81	-60.074	-63.504	30.576	0.23563	-0.62671	-0.17032	-0.72290	31.0	13111	100
2025-3-7 0:5:31.467	WT901BLE68-01(48591DE3C19B)	5.872	-6.558	0.981	-269.653	-170.105	1081.299	-96.06	-38.66	-60.58	-60.074	-63.504	30.576	0.23563	-0.62671	-0.17032	-0.72290	31.0	13111	100
2025-3-7 0:5:31.467	WT901BLE68-01(48591DE3C19B)	5.872	-5.982	2.198	294.373	-243.713	1066.956	-94.06	-27.67	-58.85	-60.074	-63.504	30.576	0.23563	-0.62671	-0.17032	-0.72290	31.0	13111	100
2025-3-7 0:5:31.468	WT901BLE68-01(48591DE3C19B)	12.566	-5.982	2.198	294.373	-243.713	1066.956	-91.87	-16.85	-56.90	-60.074	-63.504	30.576	0.23563	-0.62671	-0.17032	-0.72290	31.0	13111	100
2025-3-7 0:5:31.528	WT901BLE68-01(48591DE3C19B)	12.566	-0.685	1.477	161.072	192.139	801.880	-89.80	-8.92	-59.07	-60.074	-63.504	30.576	0.23563	-0.62671	-0.17032	-0.72290	31.0	13111	100
2025-3-7 0:5:31.528	WT901BLE68-01(48591DE3C19B)	12.718	-0.685	1.477	161.072	192.139	801.880	-88.06	-1.04	-60.93	-60.074	-63.504	30.576	0.23563	-0.62671	-0.17032	-0.72290	31.0	13111	100
2025-3-7 0:5:31.528	WT901BLE68-01(48591DE3C19B)	12.718	4.229	1.045	51.514	231.201	-131.897	-87.49	-2.52	-63.36	-60.074	-63.504	30.576	0.23563	-0.62671	-0.17032	-0.72290	31.0	13111	100
2025-3-7 0:5:31.528	WT901BLE68-01(48591DE3C19B)	9.423	4.229	1.045	51.514	231.201	-131.897	-86.86	-4.02	-65.80	-60.074	-63.504	30.576	0.23563	-0.62671	-0.17032	-0.72290	31.0	13111	100
2025-3-7 0:5:31.559	WT901BLE68-01(48591DE3C19B)	7.855	0.479	1.230	344.910	-45.471	-945.068	-83.36	-13.76	-66.20	-60.074	-63.504	30.576	0.23563	-0.62671	-0.17032	-0.72290	31.0	13111	100
2025-3-7 0:5:31.559	WT901BLE68-01(48591DE3C19B)	7.855	-4.543	2.321	205.688	-180.298	-1294.861	-80.46	-25.25	-66.80	-60.074	-63.504	30.576	0.23563	-0.62671	-0.17032	-0.72290	31.0	13111	100
2025-3-7 0:5:31.559	WT901BLE68-01(48591DE3C19B)	2.614	-4.543	2.321	205.688	-180.298	-1294.861	-78.01	-38.46	-67.63	-60.074	-63.504	30.576	0.23563	-0.62671	-0.17032	-0.72290	31.0	13111	100
2025-3-7 0:5:31.559	WT901BLE68-01(48591DE3C19B)	2.614	-7.812	2.463	-284.424	229.614	-1304.626	-74.89	-51.09	-72.49	-60.074	-63.504	30.576	0.23563	-0.62671	-0.17032	-0.72290	31.0	13111	100
2025-3-7 0:5:31.589	WT901BLE68-01(48591DE3C19B)	-1.739	-7.812	2.463	-284.424	229.614	-1304.626	-68.01	-62.74	-84.07	-60.074	-63.504	30.576	0.23563	-0.62671	-0.17032	-0.72290	31.0	13111	100
2025-3-7 0:5:31.590	WT901BLE68-01(48591DE3C19B)	-1.739	-7.809	-2.183	33.569	398.987	-1009.033	-48.85	-71.05	-106.14	-60.074	-63.504	30.576	0.23563	-0.62671	-0.17032	-0.72290	31.0	13111	100
2025-3-7 0:5:31.590	WT901BLE68-01(48591DE3C19B)	-7.214	-7.809	-2.183	33.569	398.987	-1009.033	-15.69	-73.08	-140.56	-60.074	-63.504	30.576	0.16098	-0.57394	-0.11862	-0.79404	31.0	13111	100
2025-3-7 0:5:31.590	WT901BLE68-01(48591DE3C19B)	-7.214	-8.016	-2.789	519.714	-326.294	-415.710	9.77	-73.25	-164.42	-60.074	-63.504	30.576	0.16098	-0.57394	-0.11862	-0.79404	31.0	13111	100
2025-3-7 0:5:31.648	WT901BLE68-01(48591DE3C19B)	-5.939	-8.016	-2.789	519.714	-326.294	-415.710	31.54	-75.04	178.29	-60.074	-63.504	30.576	0.16098	-0.57394	-0.11862	-0.79404	31.0	13111	100
2025-3-7 0:5:31.648	WT901BLE68-01(48591DE3C19B)	-5.939	-6.760	-2.461	364.990	-352.112	455.444	42.69	-78.23	171.24	-60.074	-63.504	30.576	0.16098	-0.57394	-0.11862	-0.79404	31.0	13111	100
2025-3-7 0:5:31.648	WT901BLE68-01(48591DE3C19B)	-0.819	-6.760	-2.461	364.990	-352.112	455.444	35.72	-84.18	-178.08	-60.074	-63.504	30.576	0.16098	-0.57394	-0.11862	-0.79404	31.0	13111	100
2025-3-7 0:5:31.648	WT901BLE68-01(48591DE3C19B)	-0.819	-5.627	-1.510	-77.942	-115.173	933.044	-59.63	-85.49	-81.17	-60.074	-63.504	30.576	0.16098	-0.57394	-0.11862	-0.79404	31.0	13111	100
2025-3-7 0:5:31.676	WT901BLE68-01(48591DE3C19B)	2.494	-5.627	-1.510	-77.942	-115.173	933.044	-85.81	-76.31	-55.57	-60.074	-63.504	30.576	0.16098	-0.57394	-0.11862	-0.79404	31.0	13111	100
2025-3-7 0:5:31.677	WT901BLE68-01(48591DE3C19B)	2.494	-6.704	0.801	-415.833	-4.272	1170.471	-91.16	-65.46	-52.62	-60.074	-63.504	30.576	0.16098	-0.57394	-0.11862	-0.79404	31.0	13111	100
2025-3-7 0:5:31.677	WT901BLE68-01(48591DE3C19B)	6.311	-6.704	0.801	-415.833	-4.272	1170.471	-94.43	-53.48	-53.68	-60.074	-63.504	30.576	0.16098	-0.57394	-0.11862	-0.79404	31.0	13111	100
2025-3-7 0:5:31.677	WT901BLE68-01(48591DE3C19B)	6.311	-5.109	3.095	-7.324	-120.728	1211.914	-95.87	-41.36	-54.57	-60.074	-63.504	30.576	0.16098	-0.57394	-0.11862	-0.79404	31.0	13111	100
2025-3-7 0:5:31.707	WT901BLE68-01(48591DE3C19B)	10.007	-5.109	3.095	-7.324	-120.728	1211.914	-95.86	-29.09	-54.71	-60.074	-63.504	30.576	0.16098	-0.57394	-0.11862	-0.79404	31.0	13111	100
2025-3-7 0:5:31.707	WT901BLE68-01(48591DE3C19B)	10.007	-1.508	1.258	229.309	62.805	848.328	-94.43	-18.81	-55.57	-60.074	-63.504	30.576	0.16098	-0.57394	-0.11862	-0.79404	31.0	13111	100
2025-3-7 0:5:31.707	WT901BLE68-01(48591DE3C19B)	10.085	-1.508	1.258	229.309	62.805	848.328	-91.83	-10.47	-56.79	-60.074	-63.504	30.576	0.16098	-0.57394	-0.11862	-0.79404	31.0	13111	100
2025-3-7 0:5:31.707	WT901BLE68-01(48591DE3C19B)	10.085	2.444	1.634	-95.947	235.168	327.576	-90.98	-4.80	-58.50	-60.074	-63.504	30.576	0.16098	-0.57394	-0.11862	-0.79404	31.0	13111	100
2025-3-7 0:5:31.770	WT901BLE68-01(48591DE3C19B)	8.790	2.444	1.634	-95.947	235.168	327.576	-91.79	-1.84	-61.01	-60.074	-63.504	30.576	0.16098	-0.57394	-0.11862	-0.79404	31.0	13111	100
2025-3-7 0:5:31.770	WT901BLE68-01(48591DE3C19B)	8.790	3.067	1.542	88.013	152.466	-376.099	-91.77	-2.46	-63.00	-60.074	-63.504	30.576	0.16098	-0.57394	-0.11862	-0.79404	31.0	13111	100
2025-3-7 0:5:31.770	WT901BLE68-01(48591DE3C19B)	7.412	3.067	1.542	88.013	152.466	-376.099	-90.75	-6.58	-64.49	-60.074	-63.504	30.576	0.16098	-0.57394	-0.11862	-0.79404	31.0	13111	100
2025-3-7 0:5:31.770	WT901BLE68-01(48591DE3C19B)	7.412	-0.164	1.555	198.975	78.857	-1026.550	-89.09	-13.91	-65.72	-60.074	-63.504	30.576	0.16098	-0.57394	-0.11862	-0.79404	31.0	13111	100
2025-3-7 0:5:31.802	WT901BLE68-01(48591DE3C19B)	6.983	-0.164	1.555	198.975	78.857	-1026.550	-86.65	-24.42	-67.00	-60.074	-63.504	30.576	0.16098	-0.57394	-0.11862	-0.79404	31.0	13111	100
2025-3-7 0:5:31.802	WT901BLE68-01(48591DE3C19B)	6.983	-5.232	1.307	114.929	138.428	-1437.012	-83.77	-36.80	-69.54	-60.074	-63.504	30.576	0.16098	-0.57394	-0.11862	-0.79404	31.0	13111	100
2025-3-7 0:5:31.802	WT901BLE68-01(48591DE3C19B)	0.330	-5.232	1.307	114.929	138.428	-1437.012	-79.19	-50.92	-74.43	-60.074	-63.504	30.576	0.16098	-0.57394	-0.11862	-0.79404	31.0	13111	100
2025-3-7 0:5:31.803	WT901BLE68-01(48591DE3C19B)	0.330	-9.703	-0.398	-123.413	125.244	-1242.188	-71.91	-63.58	-83.10	-62.720	-63.406	29.008	0.16098	-0.57394	-0.11862	-0.79404	31.0	13111	100
2025-3-7 0:5:31.829	WT901BLE68-01(48591DE3C19B)	-8.661	-9.703	-0.398	-123.413	125.244	-1242.188	-56.13	-74.22	-101.25	-62.720	-63.406	29.008	0.16098	-0.57394	-0.11862	-0.79404	31.0	13111	100
2025-3-7 0:5:31.830	WT901BLE68-01(48591DE3C19B)	-8.661	-9.022	-1.844	304.382	-65.796	-512.817	-26.28	-79.91	-130.93	-62.720	-63.406	29.008	0.16098	-0.57394	-0.11862	-0.79404	31.0	13111	100
2025-3-7 0:5:31.830	WT901BLE68-01(48591DE3C19B)	-6.984	-9.022	-1.844	304.382	-65.796	-512.817	5.26	-81.50	-159.83	-62.720	-63.406	29.008	0.16098	-0.57394	-0.11862	-0.79404	31.0	13111	100
2025-3-7 0:5:31.830	WT901BLE68-01(48591DE3C19B)	-6.984	-6.624	-4.342	349.792	-348.572	524.536	6.97	-83.69	-158.35	-62.720	-63.406	29.008	0.16098	-0.57394	-0.11862	-0.79404	31.0	13111	100
2025-3-7 0:5:31.887	WT901BLE68-01(48591DE3C19B)	-1.358	-6.624	-4.342	349.792	-348.572	524.536	-58.01	-84.58	-89.63	-62.720	-63.406	29.008	0.16098	-0.57394	-0.11862	-0.79404	31.0	13111	100
2025-3-7 0:5:31.888	WT901BLE68-01(48591DE3C19B)	-1.358	-4.519	-1.998	-173.462	-169.617	842.407	-88.52	-78.21	-58.04	-62.720	-63.406	29.008	0.16098	-0.57394	-0.11862	-0.79404	31.0	13111	100
2025-3-7 0:5:31.888	WT901BLE68-01(48591DE3C19B)	0.564	-4.519	-1.998	-173.462	-169.617	842.407	-95.25	-69.35	-52.89	-62.720	-63.406	29.008	0.16098	-0.57394	-0.11862	-0.79404	31.0	13111	100
2025-3-7 0:5:31.888	WT901BLE68-01(48591DE3C19B)	0.564	-5.523	0.832	-452.026	123.840	1015.137	-96.95	-59.77	-54.55	-62.720	-63.406	29.008	0.16098	-0.57394	-0.11862	-0.79404	31.0	13111	100
2025-3-7 0:5:31.916	WT901BLE68-01(48591DE3C19B)	4.245	-5.523	0.832	-452.026	123.840	1015.137	-97.87	-49.59	-58.95	-62.720	-63.406	29.008	0.16098	-0.57394	-0.11862	-0.79404	31.0	13111	100
2025-3-7 0:5:31.917	WT901BLE68-01(48591DE3C19B)	4.245	-4.416	2.174	-57.434	-93.872	1027.710	-98.66	-39.29	-61.37	-62.720	-63.406	29.008	0.16098	-0.57394	-0.11862	-0.79404	31.0	13111	100
2025-3-7 0:5:31.917	WT901BLE68-01(48591DE3C19B)	7.608	-4.416	2.174	-57.434	-93.872	1027.710	-98.76	-28.87	-62.18	-62.720	-63.406	29.008	0.16098	-0.57394	-0.11862	-0.79404	31.0	13111	100
2025-3-7 0:5:31.917	WT901BLE68-01(48591DE3C19B)	7.608	-1.954	1.121	257.263	-114.014	650.635	-97.59	-20.37	-62.50	-62.720	-63.406	29.008	0.16098	-0.57394	-0.11862	-0.79404	31.0	13111	100
2025-3-7 0:5:31.947	WT901BLE68-01(48591DE3C19B)	9.677	-1.954	1.121	257.263	-114.014	650.635	-95.10	-13.83	-62.13	-62.720	-63.406	29.008	0.16098	-0.57394	-0.11862	-0.79404	31.0	13111	100
2025-3-7 0:5:31.947	WT901BLE68-01(48591DE3C19B)	9.677	1.163	1.789	171.631	-61.646	340.759	-93.04	-8.94	-61.68	-62.720	-63.406	29.008	0.16098	-0.57394	-0.11862	-0.79404	31.0	13111	100
2025-3-7 0:5:31.947	WT901BLE68-01(48591DE3C19B)	9.733	1.163	1.789	171.631	-61.646	340.759	-91.37	-5.72	-61.27	-62.720	-63.406	29.008	0.16098	-0.57394	-0.11862	-0.79404	31.0	13111	100
2025-3-7 0:5:31.947	WT901BLE68-01(48591DE3C19B)	9.733	3.402	1.942	131.165	-1.526	-299.988	-89.87	-5.77	-61.06	-62.720	-63.406	29.008	0.16098	-0.57394	-0.11862	-0.79404	31.0	13111	100
2025-3-7 0:5:32.7	WT901BLE68-01(48591DE3C19B)	8.260	3.402	1.942	131.165	-1.526	-299.988	-88.55	-9.07	-61.16	-62.720	-63.406	29.008	0.16098	-0.57394	-0.11862	-0.79404	31.0	13111	100
2025-3-7 0:5:32.7	WT901BLE68-01(48591DE3C19B)	8.260	0.182	1.970	-12.573	71.228	-908.752	-87.81	-15.41	-61.81	-62.720	-63.406	29.008	0.16098	-0.57394	-0.11862	-0.79404	31.0	13111	100
2025-3-7 0:5:32.7	WT901BLE68-01(48591DE3C19B)	5.424	0.182	1.970	-12.573	71.228	-908.752	-87.51	-24.73	-63.03	-62.720	-63.406	29.008	0.16098	-0.57394	-0.11862	-0.79404	31.0	13111	100
2025-3-7 0:5:32.7	WT901BLE68-01(48591DE3C19B)	5.424	-5.981	0.715	-249.573	345.764	-1218.872	-87.59	-36.96	-67.70	-62.720	-63.406	29.008	0.16098	-0.57394	-0.11862	-0.79404	31.0	13111	100
2025-3-7 0:5:32.38	WT901BLE68-01(48591DE3C19B)	-0.967	-5.981	0.715	-249.573	345.764	-1218.872	-86.19	-49.05	-73.36	-62.720	-63.406	29.008	0.36328	-0.67953	0.12820	-0.62427	31.0	13111	100
2025-3-7 0:5:32.38	WT901BLE68-01(48591DE3C19B)	-0.967	-7.077	-1.495	-68.604	460.205	-1050.354	-78.65	-58.89	-83.47	-62.720	-63.406	29.008	0.36328	-0.67953	0.12820	-0.62427	31.0	13111	100
2025-3-7 0:5:32.38	WT901BLE68-01(48591DE3C19B)	-4.411	-7.077	-1.495	-68.604	460.205	-1050.354	-64.13	-67.38	-100.44	-62.720	-63.406	29.008	0.36328	-0.67953	0.12820	-0.62427	31.0	13111	100
2025-3-7 0:5:32.38	WT901BLE68-01(48591DE3C19B)	-4.411	-6.923	-2.243	424.866	133.240	-654.968	-47.33	-71.95	-113.81	-62.720	-63.406	29.008	0.36328	-0.67953	0.12820	-0.62427	31.0	13111	100
2025-3-7 0:5:32.66	WT901BLE68-01(48591DE3C19B)	-8.368	-6.923	-2.243	424.866	133.240	-654.968	-23.58	-74.60	-134.20	-62.720	-63.406	29.008	0.36328	-0.67953	0.12820	-0.62427	31.0	13111	100
2025-3-7 0:5:32.67	WT901BLE68-01(48591DE3C19B)	-8.368	-6.454	-4.911	335.693	-128.723	189.270	-29.88	-74.84	-124.26	-62.720	-63.406	29.008	0.36328	-0.67953	0.12820	-0.62427	31.0	13111	100
2025-3-7 0:5:32.67	WT901BLE68-01(48591DE3C19B)	-2.815	-6.454	-4.911	335.693	-128.723	189.270	-36.51	-74.77	-113.99	-62.720	-63.406	29.008	0.36328	-0.67953	0.12820	-0.62427	31.0	13111	100
2025-3-7 0:5:32.67	WT901BLE68-01(48591DE3C19B)	-2.815	-5.230	-4.074	-218.628	-152.222	859.009	-60.90	-69.03	-90.76	-62.720	-63.406	29.008	0.36328	-0.67953	0.12820	-0.62427	31.0	13111	100
2025-3-7 0:5:32.127	WT901BLE68-01(48591DE3C19B)	-0.188	-5.230	-4.074	-218.628	-152.222	859.009	-74.00	-61.39	-78.85	-62.720	-63.406	29.008	0.36328	-0.67953	0.12820	-0.62427	31.0	13111	100
2025-3-7 0:5:32.127	WT901BLE68-01(48591DE3C19B)	-0.188	-6.574	-1.048	-500.793	-158.386	1076.355	-84.68	-50.83	-72.13	-62.720	-63.406	29.008	0.36328	-0.67953	0.12820	-0.62427	31.0	13111	100
2025-3-7 0:5:32.128	WT901BLE68-01(48591DE3C19B)	3.329	-6.574	-1.048	-500.793	-158.386	1076.355	-91.83	-39.90	-69.21	-62.720	-63.406	29.008	0.36328	-0.67953	0.12820	-0.62427	31.0	13111	100
2025-3-7 0:5:32.128	WT901BLE68-01(48591DE3C19B)	3.329	-6.401	1.372	-208.984	-379.211	1139.954	-96.04	-28.10	-65.51	-62.720	-63.406	29.008	0.36328	-0.67953	0.12820	-0.62427	31.0	13111	100
2025-3-7 0:5:32.159	WT901BLE68-01(48591DE3C19B)	8.361	-6.401	1.372	-208.984	-379.211	1139.954	-99.07	-16.23	-63.06	-62.720	-63.406	29.008	0.36328	-0.67953	0.12820	-0.62427	31.0	13111	100
2025-3-7 0:5:32.159	WT901BLE68-01(48591DE3C19B)	8.361	-3.613	1.827	287.170	-312.988	789.978	-96.64	-7.99	-61.02	-62.720	-63.406	29.008	0.36328	-0.67953	0.12820	-0.62427	31.0	13111	100
2025-3-7 0:5:32.159	WT901BLE68-01(48591DE3C19B)	11.335	-3.613	1.827	287.170	-312.988	789.978	-93.94	0.05	-58.69	-62.720	-63.406	29.008	0.36328	-0.67953	0.12820	-0.62427	31.0	13111	100
2025-3-7 0:5:32.159	WT901BLE68-01(48591DE3C19B)	11.335	0.677	2.386	229.187	16.724	406.128	-91.69	3.90	-59.14	-62.720	-63.406	29.008	0.36328	-0.67953	0.12820	-0.62427	31.0	13111	100
2025-3-7 0:5:32.190	WT901BLE68-01(48591DE3C19B)	11.046	0.677	2.386	229.187	16.724	406.128	-89.45	7.68	-59.43	-62.720	-63.406	29.008	0.36328	-0.67953	0.12820	-0.62427	31.0	13111	100
2025-3-7 0:5:32.190	WT901BLE68-01(48591DE3C19B)	11.046	3.460	1.325	250.183	114.075	-355.042	-87.11	3.85	-60.77	-62.720	-63.406	29.008	0.36328	-0.67953	0.12820	-0.62427	31.0	13111	100
2025-3-7 0:5:32.190	WT901BLE68-01(48591DE3C19B)	9.200	3.460	1.325	250.183	114.075	-355.042	-84.69	0.03	-62.23	-82.614	-60.172	29.596	0.36328	-0.67953	0.12820	-0.62427	31.0	13111	100
2025-3-7 0:5:32.190	WT901BLE68-01(48591DE3C19B)	9.200	-0.457	0.980	32.898	-45.227	-958.313	-84.35	-9.88	-62.76	-82.614	-60.172	29.596	0.36328	-0.67953	0.12820	-0.62427	31.0	13111	100
2025-3-7 0:5:32.248	WT901BLE68-01(48591DE3C19B)	4.199	-0.457	0.980	32.898	-45.227	-958.313	-83.91	-19.75	-63.37	-82.614	-60.172	29.596	0.36328	-0.67953	0.12820	-0.62427	31.0	13111	100
2025-3-7 0:5:32.248	WT901BLE68-01(48591DE3C19B)	4.199	-6.527	2.240	-434.509	59.021	-1156.677	-87.56	-31.45	-65.03	-82.614	-60.172	29.596	0.36328	-0.67953	0.12820	-0.62427	31.0	13111	100
2025-3-7 0:5:32.248	WT901BLE68-01(48591DE3C19B)	-2.256	-6.527	2.240	-434.509	59.021	-1156.677	-91.33	-43.13	-65.96	-82.614	-60.172	29.596	0.36328	-0.67953	0.12820	-0.62427	31.0	13111	100
2025-3-7 0:5:32.248	WT901BLE68-01(48591DE3C19B)	-2.256	-7.667	-0.066	114.868	300.720	-1109.253	-86.47	-54.20	-70.89	-82.614	-60.172	29.596	0.36328	-0.67953	0.12820	-0.62427	31.0	13111	100
2025-3-7 0:5:32.276	WT901BLE68-01(48591DE3C19B)	-9.334	-7.667	-0.066	114.868	300.720	-1109.253	-77.63	-64.70	-79.78	-82.614	-60.172	29.596	0.36328	-0.67953	0.12820	-0.62427	31.0	13111	100
2025-3-7 0:5:32.277	WT901BLE68-01(48591DE3C19B)	-9.334	-8.532	-3.384	238.647	138.611	-299.622	-70.59	-67.03	-84.92	-82.614	-60.172	29.596	0.36328	-0.67953	0.12820	-0.62427	31.0	13111	100
2025-3-7 0:5:32.277	WT901BLE68-01(48591DE3C19B)	-6.341	-8.532	-3.384	238.647	138.611	-299.622	-62.48	-68.98	-91.13	-82.614	-60.172	29.596	0.36328	-0.67953	0.12820	-0.62427	31.0	13111	100
2025-3-7 0:5:32.277	WT901BLE68-01(48591DE3C19B)	-6.341	-4.758	-5.131	23.560	-135.010	554.688	-70.70	-64.15	-82.01	-82.614	-60.172	29.596	0.36328	-0.67953	0.12820	-0.62427	31.0	13111	100
2025-3-7 0:5:32.307	WT901BLE68-01(48591DE3C19B)	-2.379	-4.758	-5.131	23.560	-135.010	554.688	-76.19	-58.94	-75.57	-82.614	-60.172	29.596	0.36328	-0.67953	0.12820	-0.62427	31.0	13111	100
2025-3-7 0:5:32.307	WT901BLE68-01(48591DE3C19B)	-2.379	-4.489	-2.139	-265.808	-154.297	786.560	-83.33	-51.19	-70.20	-82.614	-60.172	29.596	0.36328	-0.67953	0.12820	-0.62427	31.0	13111	100
2025-3-7 0:5:32.307	WT901BLE68-01(48591DE3C19B)	0.624	-4.489	-2.139	-265.808	-154.297	786.560	-88.47	-43.19	-66.91	-82.614	-60.172	29.596	0.36328	-0.67953	0.12820	-0.62427	31.0	13111	100
2025-3-7 0:5:32.307	WT901BLE68-01(48591DE3C19B)	0.624	-5.632	0.103	-352.722	-126.404	987.976	-93.01	-33.09	-65.36	-82.614	-60.172	29.596	0.36328	-0.67953	0.12820	-0.62427	31.0	13111	100
2025-3-7 0:5:32.370	WT901BLE68-01(48591DE3C19B)	5.091	-5.632	0.103	-352.722	-126.404	987.976	-96.82	-22.98	-64.84	-82.614	-60.172	29.596	0.36328	-0.67953	0.12820	-0.62427	31.0	13111	100
2025-3-7 0:5:32.370	WT901BLE68-01(48591DE3C19B)	5.091	-4.607	1.389	22.217	-302.795	889.282	-97.25	-13.71	-62.81	-82.614	-60.172	29.596	0.36328	-0.67953	0.12820	-0.62427	31.0	13111	100
2025-3-7 0:5:32.370	WT901BLE68-01(48591DE3C19B)	9.399	-4.607	1.389	22.217	-302.795	889.282	-97.33	-4.52	-60.95	-82.614	-60.172	29.596	0.36328	-0.67953	0.12820	-0.62427	31.0	13111	100
2025-3-7 0:5:32.370	WT901BLE68-01(48591DE3C19B)	9.399	-1.909	2.382	234.680	-145.691	573.914	-95.00	1.24	-60.18	-82.614	-60.172	29.596	0.36328	-0.67953	0.12820	-0.62427	31.0	13111	100
2025-3-7 0:5:32.402	WT901BLE68-01(48591DE3C19B)	11.679	-1.909	2.382	234.680	-145.691	573.914	-92.59	6.87	-59.18	-82.614	-60.172	29.596	0.36328	-0.67953	0.12820	-0.62427	31.0	13111	100
2025-3-7 0:5:32.403	WT901BLE68-01(48591DE3C19B)	11.679	2.787	2.203	197.754	115.356	41.809	-90.77	6.98	-60.44	-82.614	-60.172	29.596	0.36328	-0.67953	0.12820	-0.62427	31.0	13111	100
2025-3-7 0:5:32.403	WT901BLE68-01(48591DE3C19B)	9.764	2.787	2.203	197.754	115.356	41.809	-88.96	7.06	-61.68	-82.614	-60.172	29.596	0.36328	-0.67953	0.12820	-0.62427	31.0	13111	100
2025-3-7 0:5:32.403	WT901BLE68-01(48591DE3C19B)	9.764	2.119	1.365	170.410	17.883	-705.627	-87.29	-0.33	-62.16	-82.614	-60.172	29.596	0.61868	-0.59216	0.35446	-0.37524	31.0	13111	100
2025-3-7 0:5:32.429	WT901BLE68-01(48591DE3C19B)	8.123	2.119	1.365	170.410	17.883	-705.627	-85.55	-7.71	-62.84	-82.614	-60.172	29.596	0.61868	-0.59216	0.35446	-0.37524	31.0	13111	100
2025-3-7 0:5:32.430	WT901BLE68-01(48591DE3C19B)	8.123	-3.605	1.457	-117.554	-44.250	-1176.270	-86.63	-19.76	-63.27	-82.614	-60.172	29.596	0.61868	-0.59216	0.35446	-0.37524	31.0	13111	100
2025-3-7 0:5:32.430	WT901BLE68-01(48591DE3C19B)	1.837	-3.605	1.457	-117.554	-44.250	-1176.270	-87.73	-31.76	-63.48	-82.614	-60.172	29.596	0.61868	-0.59216	0.35446	-0.37524	31.0	13111	100
2025-3-7 0:5:32.430	WT901BLE68-01(48591DE3C19B)	1.837	-8.167	1.449	-267.700	249.023	-1168.457	-88.12	-43.47	-67.21	-82.614	-60.172	29.596	0.61868	-0.59216	0.35446	-0.37524	31.0	13111	100
2025-3-7 0:5:32.488	WT901BLE68-01(48591DE3C19B)	-3.376	-8.167	1.449	-267.700	249.023	-1168.457	-87.31	-55.07	-71.80	-82.614	-60.172	29.596	0.61868	-0.59216	0.35446	-0.37524	31.0	13111	100
2025-3-7 0:5:32.488	WT901BLE68-01(48591DE3C19B)	-8.783	-7.241	-2.448	105.164	448.547	-842.529	-76.94	-62.76	-82.64	-82.614	-60.172	29.596	0.61868	-0.59216	0.35446	-0.37524	31.0	13111	100
2025-3-7 0:5:32.488	WT901BLE68-01(48591DE3C19B)	-8.783	-7.014	-4.592	401.855	-288.269	-249.634	-69.70	-67.68	-87.92	-82.614	-60.172	29.596	0.61868	-0.59216	0.35446	-0.37524	31.0	13111	100
2025-3-7 0:5:32.488	WT901BLE68-01(48591DE3C19B)	-6.667	-7.014	-4.592	401.855	-288.269	-249.634	-70.98	-70.77	-82.32	-82.614	-60.172	29.596	0.61868	-0.59216	0.35446	-0.37524	31.0	13111	100
2025-3-7 0:5:32.517	WT901BLE68-01(48591DE3C19B)	-6.667	-5.896	-3.692	169.006	-497.314	594.482	-80.57	-69.81	-69.23	-82.614	-60.172	29.596	0.61868	-0.59216	0.35446	-0.37524	31.0	13111	100
2025-3-7 0:5:32.517	WT901BLE68-01(48591DE3C19B)	-1.496	-5.896	-3.692	169.006	-497.314	594.482	-91.68	-63.84	-55.39	-82.614	-60.172	29.596	0.61868	-0.59216	0.35446	-0.37524	31.0	13111	100
2025-3-7 0:5:32.517	WT901BLE68-01(48591DE3C19B)	-1.496	-5.797	-1.420	-240.601	-235.046	998.535	-97.47	-55.30	-49.25	-82.614	-60.172	29.596	0.61868	-0.59216	0.35446	-0.37524	31.0	13111	100
2025-3-7 0:5:32.517	WT901BLE68-01(48591DE3C19B)	1.384	-5.797	-1.420	-240.601	-235.046	998.535	-100.78	-44.79	-48.12	-82.614	-60.172	29.596	0.61868	-0.59216	0.35446	-0.37524	31.0	13111	100
2025-3-7 0:5:32.547	WT901BLE68-01(48591DE3C19B)	1.384	-7.250	0.566	-353.760	-90.271	1194.885	-103.24	-33.51	-49.03	-82.614	-60.172	29.596	0.61868	-0.59216	0.35446	-0.37524	31.0	13111	100
2025-3-7 0:5:32.547	WT901BLE68-01(48591DE3C19B)	6.275	-7.250	0.566	-353.760	-90.271	1194.885	-105.64	-21.57	-51.45	-82.614	-60.172	29.596	0.61868	-0.59216	0.35446	-0.37524	31.0	13111	100
2025-3-7 0:5:32.547	WT901BLE68-01(48591DE3C19B)	6.275	-6.526	2.221	234.192	-219.727	974.976	-105.69	-10.67	-53.15	-82.614	-60.172	29.596	0.61868	-0.59216	0.35446	-0.37524	31.0	13111	100
2025-3-7 0:5:32.547	WT901BLE68-01(48591DE3C19B)	11.957	-6.526	2.221	234.192	-219.727	974.976	-103.26	-0.72	-53.55	-82.614	-60.172	29.596	0.61868	-0.59216	0.35446	-0.37524	31.0	13111	100
2025-3-7 0:5:32.607	WT901BLE68-01(48591DE3C19B)	11.957	-2.287	1.027	379.211	2.258	752.014	-100.24	7.82	-54.39	-82.614	-60.172	29.596	0.61868	-0.59216	0.35446	-0.37524	31.0	13111	100
2025-3-7 0:5:32.607	WT901BLE68-01(48591DE3C19B)	12.886	-2.287	1.027	379.211	2.258	752.014	-96.67	15.02	-55.63	-82.614	-60.172	29.596	0.61868	-0.59216	0.35446	-0.37524	31.0	13111	100
2025-3-7 0:5:32.607	WT901BLE68-01(48591DE3C19B)	12.886	2.942	0.794	77.026	155.823	40.283	-94.80	18.58	-56.98	-82.614	-60.172	29.596	0.61868	-0.59216	0.35446	-0.37524	31.0	13111	100
2025-3-7 0:5:32.607	WT901BLE68-01(48591DE3C19B)	10.512	2.942	0.794	77.026	155.823	40.283	-94.59	18.48	-58.73	-82.614	-60.172	29.596	0.61868	-0.59216	0.35446	-0.37524	31.0	13111	100
2025-3-7 0:5:32.637	WT901BLE68-01(48591DE3C19B)	10.512	0.529	0.777	31.555	40.894	-829.712	-94.30	14.06	-59.52	-86.240	-57.232	27.734	0.61868	-0.59216	0.35446	-0.37524	31.0	13111	100
2025-3-7 0:5:32.637	WT901BLE68-01(48591DE3C19B)	6.635	0.529	0.777	31.555	40.894	-829.712	-93.97	5.37	-59.39	-86.240	-57.232	27.734	0.61868	-0.59216	0.35446	-0.37524	31.0	13111	100
2025-3-7 0:5:32.637	WT901BLE68-01(48591DE3C19B)	6.635	-6.371	1.520	-290.527	46.021	-1233.704	-95.27	-5.30	-59.11	-86.240	-57.232	27.734	0.61868	-0.59216	0.35446	-0.37524	31.0	13111	100
2025-3-7 0:5:32.637	WT901BLE68-01(48591DE3C19B)	0.004	-6.371	1.520	-290.527	46.021	-1233.704	-98.37	-17.87	-58.15	-86.240	-57.232	27.734	0.61868	-0.59216	0.35446	-0.37524	31.0	13111	100
2025-3-7 0:5:32.704	WT901BLE68-01(48591DE3C19B)	0.004	-7.590	1.233	21.790	517.578	-1229.187	-99.17	-30.67	-59.11	-86.240	-57.232	27.734	0.61868	-0.59216	0.35446	-0.37524	31.0	13111	100
2025-3-7 0:5:32.704	WT901BLE68-01(48591DE3C19B)	-2.270	-7.590	1.233	21.790	517.578	-1229.187	-96.25	-43.63	-63.54	-86.240	-57.232	27.734	0.61868	-0.59216	0.35446	-0.37524	31.0	13111	100
2025-3-7 0:5:32.704	WT901BLE68-01(48591DE3C19B)	-2.270	-6.782	-4.251	249.634	514.282	-965.271	-89.53	-54.85	-70.53	-86.240	-57.232	27.734	0.61868	-0.59216	0.35446	-0.37524	31.0	13111	100
2025-3-7 0:5:32.704	WT901BLE68-01(48591DE3C19B)	-9.660	-6.782	-4.251	249.634	514.282	-965.271	-76.48	-63.73	-82.78	-86.240	-57.232	27.734	0.61868	-0.59216	0.35446	-0.37524	31.0	13111	100
2025-3-7 0:5:32.727	WT901BLE68-01(48591DE3C19B)	-9.660	-7.637	-4.780	358.704	-290.100	-338.440	-66.73	-69.46	-90.24	-86.240	-57.232	27.734	0.61868	-0.59216	0.35446	-0.37524	31.0	13111	100
2025-3-7 0:5:32.727	WT901BLE68-01(48591DE3C19B)	-5.522	-7.637	-4.780	358.704	-290.100	-338.440	-67.83	-73.46	-85.37	-86.240	-57.232	27.734	0.61868	-0.59216	0.35446	-0.37524	31.0	13111	100
2025-3-7 0:5:32.727	WT901BLE68-01(48591DE3C19B)	-5.522	-5.206	-3.705	214.600	-480.713	500.610	-79.13	-73.49	-70.73	-86.240	-57.232	27.734	0.61868	-0.59216	0.35446	-0.37524	31.0	13111	100
2025-3-7 0:5:32.727	WT901BLE68-01(48591DE3C19B)	-1.293	-5.206	-3.705	214.600	-480.713	500.610	-92.41	-68.45	-54.51	-86.240	-57.232	27.734	0.61868	-0.59216	0.35446	-0.37524	31.0	13111	100
2025-3-7 0:5:32.759	WT901BLE68-01(48591DE3C19B)	-1.293	-5.295	-1.237	-172.363	-218.872	829.346	-98.59	-61.14	-47.59	-86.240	-57.232	27.734	0.61868	-0.59216	0.35446	-0.37524	31.0	13111	100
2025-3-7 0:5:32.759	WT901BLE68-01(48591DE3C19B)	1.614	-5.295	-1.237	-172.363	-218.872	829.346	-101.45	-52.27	-46.29	-86.240	-57.232	27.734	0.61868	-0.59216	0.35446	-0.37524	31.0	13111	100
2025-3-7 0:5:32.759	WT901BLE68-01(48591DE3C19B)	1.614	-6.710	0.933	-396.484	21.667	1141.235	-103.17	-42.18	-47.93	-86.240	-57.232	27.734	0.61868	-0.59216	0.35446	-0.37524	31.0	13111	100
2025-3-7 0:5:32.759	WT901BLE68-01(48591DE3C19B)	6.141	-6.710	0.933	-396.484	21.667	1141.235	-104.90	-30.96	-51.67	-86.240	-57.232	27.734	0.61868	-0.59216	0.35446	-0.37524	31.0	13111	100
2025-3-7 0:5:32.818	WT901BLE68-01(48591DE3C19B)	6.141	-4.948	1.915	117.188	-174.744	1039.124	-105.15	-20.14	-54.17	-86.240	-57.232	27.734	0.61868	-0.59216	0.35446	-0.37524	31.0	13111	100
2025-3-7 0:5:32.818	WT901BLE68-01(48591DE3C19B)	10.225	-4.948	1.915	117.188	-174.744	1039.124	-103.69	-9.64	-55.16	-86.240	-57.232	27.734	0.53598	-0.70325	0.34341	-0.31638	31.0	13111	100
2025-3-7 0:5:32.818	WT901BLE68-01(48591DE3C19B)	10.225	-2.034	1.335	266.724	-107.971	646.545	-101.69	-1.19	-55.77	-86.240	-57.232	27.734	0.53598	-0.70325	0.34341	-0.31638	31.0	13111	100
2025-3-7 0:5:32.818	WT901BLE68-01(48591DE3C19B)	12.289	-2.034	1.335	266.724	-107.971	646.545	-99.01	5.19	-55.95	-86.240	-57.232	27.734	0.53598	-0.70325	0.34341	-0.31638	31.0	13111	100
2025-3-7 0:5:32.846	WT901BLE68-01(48591DE3C19B)	12.289	3.127	1.696	294.922	9.644	80.505	-96.22	8.61	-56.07	-86.240	-57.232	27.734	0.53598	-0.70325	0.34341	-0.31638	31.0	13111	100
2025-3-7 0:5:32.847	WT901BLE68-01(48591DE3C19B)	10.475	3.127	1.696	294.922	9.644	80.505	-93.32	9.09	-56.34	-86.240	-57.232	27.734	0.53598	-0.70325	0.34341	-0.31638	31.0	13111	100
2025-3-7 0:5:32.847	WT901BLE68-01(48591DE3C19B)	10.475	2.297	0.970	164.368	-30.029	-763.367	-91.04	5.31	-56.24	-86.240	-57.232	27.734	0.53598	-0.70325	0.34341	-0.31638	31.0	13111	100
2025-3-7 0:5:32.847	WT901BLE68-01(48591DE3C19B)	8.436	2.297	0.970	164.368	-30.029	-763.367	-89.42	-2.67	-56.00	-86.240	-57.232	27.734	0.53598	-0.70325	0.34341	-0.31638	31.0	13111	100
2025-3-7 0:5:32.877	WT901BLE68-01(48591DE3C19B)	8.436	-4.683	1.064	-327.026	-0.854	-1228.210	-90.26	-12.95	-56.06	-86.240	-57.232	27.734	0.53598	-0.70325	0.34341	-0.31638	31.0	13111	100
2025-3-7 0:5:32.877	WT901BLE68-01(48591DE3C19B)	-0.517	-4.683	1.064	-327.026	-0.854	-1228.210	-93.69	-25.48	-55.68	-86.240	-57.232	27.734	0.53598	-0.70325	0.34341	-0.31638	31.0	13111	100
2025-3-7 0:5:32.877	WT901BLE68-01(48591DE3C19B)	-0.517	-8.960	0.984	-304.810	230.591	-1213.684	-96.76	-37.92	-55.79	-86.240	-57.232	27.734	0.53598	-0.70325	0.34341	-0.31638	31.0	13111	100
2025-3-7 0:5:32.877	WT901BLE68-01(48591DE3C19B)	-6.367	-8.960	0.984	-304.810	230.591	-1213.684	-99.16	-50.32	-56.73	-86.240	-57.232	27.734	0.53598	-0.70325	0.34341	-0.31638	31.0	13111	100
2025-3-7 0:5:32.938	WT901BLE68-01(48591DE3C19B)	-6.367	-7.082	-2.113	135.864	399.048	-526.917	-97.25	-59.36	-59.99	-86.240	-57.232	27.734	0.53598	-0.70325	0.34341	-0.31638	31.0	13111	100
2025-3-7 0:5:32.938	WT901BLE68-01(48591DE3C19B)	-8.167	-7.082	-2.113	135.864	399.048	-526.917	-88.84	-64.71	-67.98	-86.240	-57.232	27.734	0.53598	-0.70325	0.34341	-0.31638	31.0	13111	100
2025-3-7 0:5:32.938	WT901BLE68-01(48591DE3C19B)	-8.167	-5.247	-4.820	253.845	-71.838	87.585	-83.07	-66.59	-72.20	-86.240	-57.232	27.734	0.53598	-0.70325	0.34341	-0.31638	31.0	13111	100
2025-3-7 0:5:32.938	WT901BLE68-01(48591DE3C19B)	-4.819	-5.247	-4.820	253.845	-71.838	87.585	-82.58	-65.54	-70.00	-86.240	-57.232	27.734	0.53598	-0.70325	0.34341	-0.31638	31.0	13111	100
2025-3-7 0:5:32.969	WT901BLE68-01(48591DE3C19B)	-4.819	-4.484	-3.865	-56.396	-207.153	597.534	-88.24	-59.46	-64.32	-86.240	-57.232	27.734	0.53598	-0.70325	0.34341	-0.31638	31.0	13111	100
2025-3-7 0:5:32.969	WT901BLE68-01(48591DE3C19B)	-1.055	-4.484	-3.865	-56.396	-207.153	597.534	-92.07	-53.19	-60.47	-86.240	-57.232	27.734	0.53598	-0.70325	0.34341	-0.31638	31.0	13111	100
2025-3-7 0:5:32.970	WT901BLE68-01(48591DE3C19B)	-1.055	-5.585	-1.217	-274.658	-96.252	918.030	-95.34	-43.71	-59.83	-86.240	-57.232	27.734	0.53598	-0.70325	0.34341	-0.31638	31.0	13111	100
2025-3-7 0:5:32.970	WT901BLE68-01(48591DE3C19B)	2.374	-5.585	-1.217	-274.658	-96.252	918.030	-98.07	-34.27	-59.91	-86.240	-57.232	27.734	0.53598	-0.70325	0.34341	-0.31638	31.0	13111	100
2025-3-7 0:5:33.3	WT901BLE68-01(48591DE3C19B)	2.374	-6.143	0.453	-262.390	-107.971	1044.983	-100.38	-23.64	-60.59	-86.240	-57.232	27.734	0.53598	-0.70325	0.34341	-0.31638	31.0	13111	100
2025-3-7 0:5:33.3	WT901BLE68-01(48591DE3C19B)	6.518	-6.143	0.453	-262.390	-107.971	1044.983	-102.66	-13.12	-61.68	-86.240	-57.232	27.734	0.53598	-0.70325	0.34341	-0.31638	31.0	13111	100
2025-3-7 0:5:33.3	WT901BLE68-01(48591DE3C19B)	6.518	-4.548	1.812	151.611	-237.366	843.079	-101.21	-4.41	-61.12	-74.774	-63.112	26.558	0.53598	-0.70325	0.34341	-0.31638	31.0	13111	100
2025-3-7 0:5:33.3	WT901BLE68-01(48591DE3C19B)	10.624	-4.548	1.812	151.611	-237.366	843.079	-99.68	4.20	-60.37	-74.774	-63.112	26.558	0.53598	-0.70325	0.34341	-0.31638	31.0	13111	100
2025-3-7 0:5:33.58	WT901BLE68-01(48591DE3C19B)	10.624	-1.186	2.968	308.472	-56.824	546.997	-96.61	9.49	-60.65	-74.774	-63.112	26.558	0.53598	-0.70325	0.34341	-0.31638	31.0	13111	100
2025-3-7 0:5:33.58	WT901BLE68-01(48591DE3C19B)	12.252	-1.186	2.968	308.472	-56.824	546.997	-93.50	14.70	-60.64	-74.774	-63.112	26.558	0.53598	-0.70325	0.34341	-0.31638	31.0	13111	100
2025-3-7 0:5:33.58	WT901BLE68-01(48591DE3C19B)	12.252	3.878	2.199	267.029	139.404	-146.973	-91.17	12.83	-62.09	-74.774	-63.112	26.558	0.53598	-0.70325	0.34341	-0.31638	31.0	13111	100
2025-3-7 0:5:33.58	WT901BLE68-01(48591DE3C19B)	9.691	3.878	2.199	267.029	139.404	-146.973	-88.80	10.96	-63.57	-74.774	-63.112	26.558	0.53598	-0.70325	0.34341	-0.31638	31.0	13111	100
2025-3-7 0:5:33.88	WT901BLE68-01(48591DE3C19B)	9.691	1.012	1.447	213.440	-30.518	-906.921	-86.67	1.51	-63.69	-74.774	-63.112	26.558	0.53598	-0.70325	0.34341	-0.31638	31.0	13111	100
2025-3-7 0:5:33.88	WT901BLE68-01(48591DE3C19B)	7.207	1.012	1.447	213.440	-30.518	-906.921	-84.51	-7.91	-64.14	-74.774	-63.112	26.558	0.53598	-0.70325	0.34341	-0.31638	31.0	13111	100
2025-3-7 0:5:33.88	WT901BLE68-01(48591DE3C19B)	7.207	-5.841	1.544	-324.707	-57.983	-1274.780	-87.68	-20.95	-64.49	-74.774	-63.112	26.558	0.53598	-0.70325	0.34341	-0.31638	31.0	13111	100
2025-3-7 0:5:33.88	WT901BLE68-01(48591DE3C19B)	-0.188	-5.841	1.544	-324.707	-57.983	-1274.780	-91.13	-33.89	-64.05	-74.774	-63.112	26.558	0.53598	-0.70325	0.34341	-0.31638	31.0	13111	100
2025-3-7 0:5:33.116	WT901BLE68-01(48591DE3C19B)	-0.188	-8.049	0.435	-143.494	226.196	-1274.719	-90.76	-46.77	-66.80	-74.774	-63.112	26.558	0.53598	-0.70325	0.34341	-0.31638	31.0	13111	100
2025-3-7 0:5:33.117	WT901BLE68-01(48591DE3C19B)	-3.390	-8.049	0.435	-143.494	226.196	-1274.719	-89.08	-59.50	-70.66	-74.774	-63.112	26.558	0.53598	-0.70325	0.34341	-0.31638	31.0	13111	100
2025-3-7 0:5:33.117	WT901BLE68-01(48591DE3C19B)	-3.390	-8.392	-2.994	302.856	170.654	-982.239	-80.67	-69.01	-76.61	-74.774	-63.112	26.558	0.53598	-0.70325	0.34341	-0.31638	31.0	13111	100
2025-3-7 0:5:33.117	WT901BLE68-01(48591DE3C19B)	-10.636	-8.392	-2.994	302.856	170.654	-982.239	-61.94	-77.63	-92.97	-74.774	-63.112	26.558	0.53598	-0.70325	0.34341	-0.31638	31.0	13111	100
2025-3-7 0:5:33.179	WT901BLE68-01(48591DE3C19B)	-10.636	-8.870	-3.922	409.119	-361.938	-50.354	-74.03	-79.18	-76.51	-74.774	-63.112	26.558	0.53598	-0.70325	0.34341	-0.31638	31.0	13111	100
2025-3-7 0:5:33.179	WT901BLE68-01(48591DE3C19B)	-4.172	-8.870	-3.922	409.119	-361.938	-50.354	-89.46	-79.83	-56.72	-74.774	-63.112	26.558	0.53598	-0.70325	0.34341	-0.31638	31.0	13111	100
2025-3-7 0:5:33.179	WT901BLE68-01(48591DE3C19B)	-4.172	-8.008	-3.570	171.570	-432.434	923.340	-100.66	-69.81	-43.42	-74.774	-63.112	26.558	0.53598	-0.70325	0.34341	-0.31638	31.0	13111	100
2025-3-7 0:5:33.179	WT901BLE68-01(48591DE3C19B)	0.829	-8.008	-3.570	171.570	-432.434	923.340	-103.67	-59.51	-38.24	-74.774	-63.112	26.558	0.53598	-0.70325	0.34341	-0.31638	31.0	13111	100
2025-3-7 0:5:33.209	WT901BLE68-01(48591DE3C19B)	0.829	-7.961	-0.889	-297.791	-96.985	1320.862	-103.69	-46.17	-41.97	-74.774	-63.112	26.558	0.53598	-0.70325	0.34341	-0.31638	31.0	13111	100
2025-3-7 0:5:33.209	WT901BLE68-01(48591DE3C19B)	3.948	-7.961	-0.889	-297.791	-96.985	1320.862	-104.71	-32.93	-45.04	-74.774	-63.112	26.558	0.53598	-0.70325	0.34341	-0.31638	31.0	13111	100
2025-3-7 0:5:33.209	WT901BLE68-01(48591DE3C19B)	3.948	-8.292	2.410	-253.540	24.170	1430.908	-105.26	-19.07	-49.50	-74.774	-63.112	26.558	0.53598	-0.70325	0.34341	-0.31638	31.0	13111	100
2025-3-7 0:5:33.209	WT901BLE68-01(48591DE3C19B)	9.478	-8.292	2.410	-253.540	24.170	1430.908	-106.83	-5.39	-53.86	-74.774	-63.112	26.558	0.53604	-0.70566	0.36526	-0.28485	31.0	13111	100
2025-3-7 0:5:33.239	WT901BLE68-01(48591DE3C19B)	9.478	-5.150	1.603	296.631	-19.897	1000.916	-103.77	4.21	-56.39	-74.774	-63.112	26.558	0.53604	-0.70566	0.36526	-0.28485	31.0	13111	100
2025-3-7 0:5:33.239	WT901BLE68-01(48591DE3C19B)	12.298	-5.150	1.603	296.631	-19.897	1000.916	-101.07	13.83	-58.44	-74.774	-63.112	26.558	0.53604	-0.70566	0.36526	-0.28485	31.0	13111	100
2025-3-7 0:5:33.239	WT901BLE68-01(48591DE3C19B)	12.298	-0.481	2.204	303.040	104.919	528.015	-98.58	18.59	-60.53	-74.774	-63.112	26.558	0.53604	-0.70566	0.36526	-0.28485	31.0	13111	100
2025-3-7 0:5:33.239	WT901BLE68-01(48591DE3C19B)	12.586	-0.481	2.204	303.040	104.919	528.015	-96.20	23.35	-62.43	-74.774	-63.112	26.558	0.53604	-0.70566	0.36526	-0.28485	31.0	13111	100
2025-3-7 0:5:33.303	WT901BLE68-01(48591DE3C19B)	12.586	3.166	1.379	274.414	81.787	-246.643	-93.69	20.43	-63.14	-74.774	-63.112	26.558	0.53604	-0.70566	0.36526	-0.28485	31.0	13111	100
2025-3-7 0:5:33.303	WT901BLE68-01(48591DE3C19B)	10.208	3.166	1.379	274.414	81.787	-246.643	-91.19	17.52	-63.95	-74.774	-63.112	26.558	0.53604	-0.70566	0.36526	-0.28485	31.0	13111	100
2025-3-7 0:5:33.303	WT901BLE68-01(48591DE3C19B)	10.208	0.068	1.066	110.596	-152.283	-994.019	-89.73	7.21	-62.36	-74.774	-63.112	26.558	0.53604	-0.70566	0.36526	-0.28485	31.0	13111	100
2025-3-7 0:5:33.303	WT901BLE68-01(48591DE3C19B)	6.929	0.068	1.066	110.596	-152.283	-994.019	-88.58	-3.11	-61.06	-74.774	-63.112	26.558	0.53604	-0.70566	0.36526	-0.28485	31.0	13111	100
2025-3-7 0:5:33.327	WT901BLE68-01(48591DE3C19B)	6.929	-7.900	1.732	-520.996	-215.942	-1386.169	-94.24	-17.18	-58.60	-74.774	-63.112	26.558	0.53604	-0.70566	0.36526	-0.28485	31.0	13111	100
2025-3-7 0:5:33.327	WT901BLE68-01(48591DE3C19B)	-2.108	-7.900	1.732	-520.996	-215.942	-1386.169	-101.21	-30.82	-54.32	-74.774	-63.112	26.558	0.53604	-0.70566	0.36526	-0.28485	31.0	13111	100
2025-3-7 0:5:33.327	WT901BLE68-01(48591DE3C19B)	-2.108	-8.716	1.127	-55.359	279.114	-1220.398	-101.41	-43.42	-54.87	-74.774	-63.112	26.558	0.53604	-0.70566	0.36526	-0.28485	31.0	13111	100
2025-3-7 0:5:33.327	WT901BLE68-01(48591DE3C19B)	-4.935	-8.716	1.127	-55.359	279.114	-1220.398	-101.45	-55.91	-55.51	-74.774	-63.112	26.558	0.53604	-0.70566	0.36526	-0.28485	31.0	13111	100
2025-3-7 0:5:33.357	WT901BLE68-01(48591DE3C19B)	-4.935	-8.142	-2.400	232.727	298.828	-778.748	-95.89	-63.94	-59.24	-74.774	-63.112	26.558	0.53604	-0.70566	0.36526	-0.28485	31.0	13111	100
2025-3-7 0:5:33.357	WT901BLE68-01(48591DE3C19B)	-9.971	-8.142	-2.400	232.727	298.828	-778.748	-86.54	-71.58	-66.82	-74.774	-63.112	26.558	0.53604	-0.70566	0.36526	-0.28485	31.0	13111	100
2025-3-7 0:5:33.357	WT901BLE68-01(48591DE3C19B)	-9.971	-7.804	-4.823	204.407	-67.444	195.618	-86.76	-69.38	-64.47	-74.774	-63.112	26.558	0.53604	-0.70566	0.36526	-0.28485	31.0	13111	100
2025-3-7 0:5:33.357	WT901BLE68-01(48591DE3C19B)	-3.658	-7.804	-4.823	204.407	-67.444	195.618	-86.81	-67.14	-62.27	-74.774	-63.112	26.558	0.53604	-0.70566	0.36526	-0.28485	31.0	13111	100
2025-3-7 0:5:33.418	WT901BLE68-01(48591DE3C19B)	-0.587	-5.907	-4.079	-77.332	-372.498	859.253	-94.67	-58.16	-54.37	-74.774	-63.112	26.558	0.53604	-0.70566	0.36526	-0.28485	31.0	13111	100
2025-3-7 0:5:33.418	WT901BLE68-01(48591DE3C19B)	-0.587	-7.073	-1.290	-333.008	-215.759	1166.687	-99.11	-47.49	-51.49	-74.774	-63.112	26.558	0.53604	-0.70566	0.36526	-0.28485	31.0	13111	100
2025-3-7 0:5:33.418	WT901BLE68-01(48591DE3C19B)	3.009	-7.073	-1.290	-333.008	-215.759	1166.687	-102.38	-35.41	-51.61	-74.774	-63.112	26.558	0.53604	-0.70566	0.36526	-0.28485	31.0	13111	100
2025-3-7 0:5:33.418	WT901BLE68-01(48591DE3C19B)	3.009	-7.374	1.272	-213.806	-135.559	1258.484	-104.46	-23.08	-52.98	-74.774	-63.112	26.558	0.53604	-0.70566	0.36526	-0.28485	31.0	13111	100
2025-3-7 0:5:33.447	WT901BLE68-01(48591DE3C19B)	7.597	-7.374	1.272	-213.806	-135.559	1258.484	-105.95	-10.53	-55.12	-71.344	-63.602	25.970	0.53604	-0.70566	0.36526	-0.28485	31.0	13111	100
2025-3-7 0:5:33.447	WT901BLE68-01(48591DE3C19B)	7.597	-4.667	1.534	147.156	-73.425	870.911	-106.05	-0.07	-57.21	-71.344	-63.602	25.970	0.53604	-0.70566	0.36526	-0.28485	31.0	13111	100
2025-3-7 0:5:33.447	WT901BLE68-01(48591DE3C19B)	9.434	-4.667	1.534	147.156	-73.425	870.911	-104.64	8.40	-58.88	-71.344	-63.602	25.970	0.53604	-0.70566	0.36526	-0.28485	31.0	13111	100
2025-3-7 0:5:33.448	WT901BLE68-01(48591DE3C19B)	9.434	-1.625	2.434	267.761	13.306	440.613	-102.79	14.63	-60.27	-71.344	-63.602	25.970	0.53604	-0.70566	0.36526	-0.28485	31.0	13111	100
2025-3-7 0:5:33.476	WT901BLE68-01(48591DE3C19B)	11.147	-1.625	2.434	267.761	13.306	440.613	-100.39	18.65	-61.40	-71.344	-63.602	25.970	0.53604	-0.70566	0.36526	-0.28485	31.0	13111	100
2025-3-7 0:5:33.477	WT901BLE68-01(48591DE3C19B)	11.147	1.875	1.841	445.984	46.875	-140.442	-97.00	19.76	-62.07	-71.344	-63.602	25.970	0.53604	-0.70566	0.36526	-0.28485	31.0	13111	100
2025-3-7 0:5:33.477	WT901BLE68-01(48591DE3C19B)	9.273	1.875	1.841	445.984	46.875	-140.442	-92.66	17.97	-62.51	-71.344	-63.602	25.970	0.53604	-0.70566	0.36526	-0.28485	31.0	13111	100
2025-3-7 0:5:33.477	WT901BLE68-01(48591DE3C19B)	9.273	1.442	1.526	318.359	-44.861	-798.767	-88.86	12.89	-62.59	-71.344	-63.602	25.970	0.53604	-0.70566	0.36526	-0.28485	31.0	13111	100
2025-3-7 0:5:33.538	WT901BLE68-01(48591DE3C19B)	8.433	1.442	1.526	318.359	-44.861	-798.767	-85.68	4.52	-62.60	-71.344	-63.602	25.970	0.53604	-0.70566	0.36526	-0.28485	31.0	13111	100
2025-3-7 0:5:33.538	WT901BLE68-01(48591DE3C19B)	8.433	-3.432	1.786	-76.172	-51.331	-1207.031	-84.48	-5.83	-63.15	-71.344	-63.602	25.970	0.53604	-0.70566	0.36526	-0.28485	31.0	13111	100
2025-3-7 0:5:33.538	WT901BLE68-01(48591DE3C19B)	1.168	-3.432	1.786	-76.172	-51.331	-1207.031	-85.12	-18.17	-63.81	-71.344	-63.602	25.970	0.53604	-0.70566	0.36526	-0.28485	31.0	13111	100
2025-3-7 0:5:33.538	WT901BLE68-01(48591DE3C19B)	1.168	-9.063	1.260	-374.451	114.441	-1257.751	-86.74	-30.64	-65.27	-71.344	-63.602	25.970	0.53604	-0.70566	0.36526	-0.28485	31.0	13111	100
2025-3-7 0:5:33.569	WT901BLE68-01(48591DE3C19B)	-5.854	-9.063	1.260	-374.451	114.441	-1257.751	-89.25	-43.25	-67.31	-71.344	-63.602	25.970	0.53604	-0.70566	0.36526	-0.28485	31.0	13111	100
2025-3-7 0:5:33.569	WT901BLE68-01(48591DE3C19B)	-5.854	-8.864	-3.147	165.039	403.137	-794.678	-86.97	-53.44	-71.61	-71.344	-63.602	25.970	0.53604	-0.70566	0.36526	-0.28485	31.0	13111	100
2025-3-7 0:5:33.569	WT901BLE68-01(48591DE3C19B)	-9.078	-8.864	-3.147	165.039	403.137	-794.678	-77.51	-60.67	-80.91	-71.344	-63.602	25.970	0.53604	-0.70566	0.36526	-0.28485	31.0	13111	100
2025-3-7 0:5:33.570	WT901BLE68-01(48591DE3C19B)	-9.078	-6.692	-5.958	266.785	-214.355	104.004	-72.21	-63.60	-84.53	-71.344	-63.602	25.970	0.53604	-0.70566	0.36526	-0.28485	31.0	13111	100
2025-3-7 0:5:33.603	WT901BLE68-01(48591DE3C19B)	-4.118	-6.692	-5.958	266.785	-214.355	104.004	-74.53	-62.97	-79.03	-71.344	-63.602	25.970	0.53604	-0.70566	0.36526	-0.28485	31.0	13111	100
2025-3-7 0:5:33.603	WT901BLE68-01(48591DE3C19B)	-4.118	-4.524	-3.765	-84.106	-377.625	661.438	-80.80	-59.61	-70.95	-71.344	-63.602	25.970	0.53604	-0.70566	0.36526	-0.28485	31.0	13111	100
2025-3-7 0:5:33.603	WT901BLE68-01(48591DE3C19B)	-1.221	-4.524	-3.765	-84.106	-377.625	661.438	-88.46	-53.08	-62.86	-71.344	-63.602	25.970	0.38434	-0.69940	0.05222	-0.60022	31.0	13111	100
2025-3-7 0:5:33.603	WT901BLE68-01(48591DE3C19B)	-1.221	-5.379	-0.917	-287.476	-208.069	847.229	-93.75	-45.23	-58.47	-71.344	-63.602	25.970	0.38434	-0.69940	0.05222	-0.60022	31.0	13111	100
2025-3-7 0:5:33.658	WT901BLE68-01(48591DE3C19B)	2.006	-5.379	-0.917	-287.476	-208.069	847.229	-97.76	-36.36	-56.82	-71.344	-63.602	25.970	0.38434	-0.69940	0.05222	-0.60022	31.0	13111	100
2025-3-7 0:5:33.658	WT901BLE68-01(48591DE3C19B)	2.006	-5.637	1.414	-124.207	-170.166	974.854	-100.12	-26.88	-56.33	-71.344	-63.602	25.970	0.38434	-0.69940	0.05222	-0.60022	31.0	13111	100
2025-3-7 0:5:33.658	WT901BLE68-01(48591DE3C19B)	6.203	-5.637	1.414	-124.207	-170.166	974.854	-101.30	-16.88	-56.51	-71.344	-63.602	25.970	0.38434	-0.69940	0.05222	-0.60022	31.0	13111	100
2025-3-7 0:5:33.658	WT901BLE68-01(48591DE3C19B)	6.203	-4.167	1.948	275.574	-71.289	726.379	-100.42	-8.27	-57.07	-71.344	-63.602	25.970	0.38434	-0.69940	0.05222	-0.60022	31.0	13111	100
2025-3-7 0:5:33.687	WT901BLE68-01(48591DE3C19B)	10.098	-4.167	1.948	275.574	-71.289	726.379	-97.62	-1.03	-57.57	-71.344	-63.602	25.970	0.38434	-0.69940	0.05222	-0.60022	31.0	13111	100
2025-3-7 0:5:33.688	WT901BLE68-01(48591DE3C19B)	10.098	-1.223	2.396	424.744	24.902	524.841	-94.14	5.09	-58.10	-71.344	-63.602	25.970	0.38434	-0.69940	0.05222	-0.60022	31.0	13111	100
2025-3-7 0:5:33.688	WT901BLE68-01(48591DE3C19B)	11.931	-1.223	2.396	424.744	24.902	524.841	-89.98	10.12	-58.63	-71.344	-63.602	25.970	0.38434	-0.69940	0.05222	-0.60022	31.0	13111	100
2025-3-7 0:5:33.688	WT901BLE68-01(48591DE3C19B)	11.931	3.813	1.127	249.695	112.183	-37.292	-86.79	12.30	-59.40	-71.344	-63.602	25.970	0.38434	-0.69940	0.05222	-0.60022	31.0	13111	100
2025-3-7 0:5:33.717	WT901BLE68-01(48591DE3C19B)	9.713	3.813	1.127	249.695	112.183	-37.292	-84.59	11.66	-60.66	-71.344	-63.602	25.970	0.38434	-0.69940	0.05222	-0.60022	31.0	13111	100
2025-3-7 0:5:33.717	WT901BLE68-01(48591DE3C19B)	9.713	1.962	1.293	135.864	-62.988	-852.478	-82.86	6.88	-61.53	-71.344	-63.602	25.970	0.38434	-0.69940	0.05222	-0.60022	31.0	13111	100
2025-3-7 0:5:33.717	WT901BLE68-01(48591DE3C19B)	8.728	1.962	1.293	135.864	-62.988	-852.478	-81.56	-2.02	-62.14	-71.344	-63.602	25.970	0.38434	-0.69940	0.05222	-0.60022	31.0	13111	100
2025-3-7 0:5:33.717	WT901BLE68-01(48591DE3C19B)	8.728	-5.622	1.900	-320.007	-152.771	-1269.714	-82.45	-13.00	-62.72	-71.344	-63.602	25.970	0.38434	-0.69940	0.05222	-0.60022	31.0	13111	100
2025-3-7 0:5:33.779	WT901BLE68-01(48591DE3C19B)	-0.980	-5.622	1.900	-320.007	-152.771	-1269.714	-85.74	-26.04	-62.56	-71.344	-63.602	25.970	0.38434	-0.69940	0.05222	-0.60022	31.0	13111	100
2025-3-7 0:5:33.779	WT901BLE68-01(48591DE3C19B)	-0.980	-9.973	0.696	-236.389	216.553	-1374.512	-87.73	-39.40	-63.86	-71.344	-63.602	25.970	0.38434	-0.69940	0.05222	-0.60022	31.0	13111	100
2025-3-7 0:5:33.779	WT901BLE68-01(48591DE3C19B)	-5.619	-9.973	0.696	-236.389	216.553	-1374.512	-87.14	-53.06	-67.93	-71.344	-63.602	25.970	0.38434	-0.69940	0.05222	-0.60022	31.0	13111	100
2025-3-7 0:5:33.779	WT901BLE68-01(48591DE3C19B)	-5.619	-8.430	-3.584	169.006	338.562	-701.050	-81.41	-63.07	-74.98	-71.344	-63.602	25.970	0.38434	-0.69940	0.05222	-0.60022	31.0	13111	100
2025-3-7 0:5:33.809	WT901BLE68-01(48591DE3C19B)	-8.965	-8.430	-3.584	169.006	338.562	-701.050	-68.43	-68.81	-87.36	-71.344	-63.602	25.970	0.38434	-0.69940	0.05222	-0.60022	31.0	13111	100
2025-3-7 0:5:33.809	WT901BLE68-01(48591DE3C19B)	-8.965	-6.867	-5.213	293.823	-351.929	224.731	-64.25	-70.85	-89.44	-71.344	-63.602	25.970	0.38434	-0.69940	0.05222	-0.60022	31.0	13111	100
2025-3-7 0:5:33.809	WT901BLE68-01(48591DE3C19B)	-3.175	-6.867	-5.213	293.823	-351.929	224.731	-73.30	-69.75	-76.79	-71.344	-63.602	25.970	0.38434	-0.69940	0.05222	-0.60022	31.0	13111	100
2025-3-7 0:5:33.809	WT901BLE68-01(48591DE3C19B)	-3.175	-4.922	-3.109	51.025	-464.233	731.323	-84.13	-65.54	-63.34	-57.820	-64.680	31.164	0.38434	-0.69940	0.05222	-0.60022	31.0	13111	100
2025-3-7 0:5:33.839	WT901BLE68-01(48591DE3C19B)	-1.104	-4.922	-3.109	51.025	-464.233	731.323	-92.83	-58.00	-52.99	-57.820	-64.680	31.164	0.38434	-0.69940	0.05222	-0.60022	31.0	13111	100
2025-3-7 0:5:33.840	WT901BLE68-01(48591DE3C19B)	-1.104	-6.528	-0.557	-249.451	-90.210	1056.274	-96.78	-48.59	-49.51	-57.820	-64.680	31.164	0.38434	-0.69940	0.05222	-0.60022	31.0	13111	100
2025-3-7 0:5:33.840	WT901BLE68-01(48591DE3C19B)	1.454	-6.528	-0.557	-249.451	-90.210	1056.274	-98.80	-37.76	-50.26	-57.820	-64.680	31.164	0.38434	-0.69940	0.05222	-0.60022	31.0	13111	100
2025-3-7 0:5:33.840	WT901BLE68-01(48591DE3C19B)	1.454	-7.561	0.905	-232.727	89.844	1254.028	-99.37	-25.36	-53.65	-57.820	-64.680	31.164	0.38434	-0.69940	0.05222	-0.60022	31.0	13111	100
2025-3-7 0:5:33.901	WT901BLE68-01(48591DE3C19B)	6.874	-7.561	0.905	-232.727	89.844	1254.028	-100.62	-13.08	-56.93	-57.820	-64.680	31.164	0.38434	-0.69940	0.05222	-0.60022	31.0	13111	100
2025-3-7 0:5:33.901	WT901BLE68-01(48591DE3C19B)	6.874	-5.587	2.024	295.044	-45.044	883.179	-97.51	-4.29	-57.94	-57.820	-64.680	31.164	0.38434	-0.69940	0.05222	-0.60022	31.0	13111	100
2025-3-7 0:5:33.901	WT901BLE68-01(48591DE3C19B)	10.951	-5.587	2.024	295.044	-45.044	883.179	-94.56	4.44	-58.49	-57.820	-64.680	31.164	0.38434	-0.69940	0.05222	-0.60022	31.0	13111	100
2025-3-7 0:5:33.901	WT901BLE68-01(48591DE3C19B)	10.951	-0.921	2.796	157.043	32.959	627.319	-93.09	10.50	-59.32	-57.820	-64.680	31.164	0.38434	-0.69940	0.05222	-0.60022	31.0	13111	100
2025-3-7 0:5:33.957	WT901BLE68-01(48591DE3C19B)	11.437	-0.921	2.796	157.043	32.959	627.319	-91.66	16.48	-59.98	-57.820	-64.680	31.164	0.38434	-0.69940	0.05222	-0.60022	31.0	13111	100
2025-3-7 0:5:33.957	WT901BLE68-01(48591DE3C19B)	11.437	2.907	2.330	133.972	130.981	-69.092	-90.71	15.44	-61.41	-57.820	-64.680	31.164	0.38434	-0.69940	0.05222	-0.60022	31.0	13111	100
2025-3-7 0:5:33.957	WT901BLE68-01(48591DE3C19B)	9.186	2.907	2.330	133.972	130.981	-69.092	-89.72	14.36	-62.84	-57.820	-64.680	31.164	0.38434	-0.69940	0.05222	-0.60022	31.0	13111	100
2025-3-7 0:5:33.958	WT901BLE68-01(48591DE3C19B)	9.186	0.790	1.751	283.875	23.804	-822.388	-86.97	5.77	-63.38	-57.820	-64.680	31.164	0.38434	-0.69940	0.05222	-0.60022	31.0	13111	100
2025-3-7 0:5:33.959	WT901BLE68-01(48591DE3C19B)	7.403	0.790	1.751	283.875	23.804	-822.388	-84.15	-2.75	-64.31	-57.820	-64.680	31.164	0.38434	-0.69940	0.05222	-0.60022	31.0	13111	100
2025-3-7 0:5:33.959	WT901BLE68-01(48591DE3C19B)	7.403	-4.249	1.787	24.414	-99.426	-1158.813	-83.86	-14.67	-64.61	-57.820	-64.680	31.164	0.38434	-0.69940	0.05222	-0.60022	31.0	13111	100
2025-3-7 0:5:33.959	WT901BLE68-01(48591DE3C19B)	1.565	-4.249	1.787	24.414	-99.426	-1158.813	-83.50	-26.53	-64.98	-57.820	-64.680	31.164	0.38434	-0.69940	0.05222	-0.60022	31.0	13111	100
2025-3-7 0:5:33.959	WT901BLE68-01(48591DE3C19B)	1.565	-7.265	1.825	-299.438	127.686	-1112.976	-84.96	-37.61	-67.86	-57.820	-64.680	31.164	0.38434	-0.69940	0.05222	-0.60022	31.0	13111	100
2025-3-7 0:5:34.18	WT901BLE68-01(48591DE3C19B)	-1.375	-7.265	1.825	-299.438	127.686	-1112.976	-85.87	-48.65	-70.89	-57.820	-64.680	31.164	0.38434	-0.69940	0.05222	-0.60022	31.0	13111	100
2025-3-7 0:5:34.18	WT901BLE68-01(48591DE3C19B)	-1.375	-6.949	-2.021	128.479	505.432	-970.886	-75.87	-57.41	-81.77	-57.820	-64.680	31.164	0.38434	-0.69940	0.05222	-0.60022	31.0	13111	100
2025-3-7 0:5:34.19	WT901BLE68-01(48591DE3C19B)	-8.282	-6.949	-2.021	128.479	505.432	-970.886	-59.61	-64.44	-98.86	-57.820	-64.680	31.164	0.38434	-0.69940	0.05222	-0.60022	31.0	13111	100
2025-3-7 0:5:34.19	WT901BLE68-01(48591DE3C19B)	-8.282	-7.749	-5.022	363.892	-146.057	-381.104	-54.44	-68.27	-100.60	-57.820	-64.680	31.164	0.38434	-0.69940	0.05222	-0.60022	31.0	13111	100
2025-3-7 0:5:34.47	WT901BLE68-01(48591DE3C19B)	-6.821	-7.749	-5.022	363.892	-146.057	-381.104	-48.11	-71.95	-103.55	-57.820	-64.680	31.164	0.26907	-0.62549	-0.07275	-0.72867	31.0	13111	100
2025-3-7 0:5:34.47	WT901BLE68-01(48591DE3C19B)	-6.821	-6.118	-4.628	184.631	-518.250	568.848	-68.38	-69.54	-80.25	-57.820	-64.680	31.164	0.26907	-0.62549	-0.07275	-0.72867	31.0	13111	100
2025-3-7 0:5:34.47	WT901BLE68-01(48591DE3C19B)	-1.412	-6.118	-4.628	184.631	-518.250	568.848	-82.45	-64.96	-63.12	-57.820	-64.680	31.164	0.26907	-0.62549	-0.07275	-0.72867	31.0	13111	100
2025-3-7 0:5:34.47	WT901BLE68-01(48591DE3C19B)	-1.412	-5.140	-1.937	-166.199	-309.509	912.354	-90.71	-55.70	-55.62	-57.820	-64.680	31.164	0.26907	-0.62549	-0.07275	-0.72867	31.0	13111	100
2025-3-7 0:5:34.107	WT901BLE68-01(48591DE3C19B)	-0.076	-5.140	-1.937	-166.199	-309.509	912.354	-95.66	-46.13	-51.49	-57.820	-64.680	31.164	0.26907	-0.62549	-0.07275	-0.72867	31.0	13111	100
2025-3-7 0:5:34.107	WT901BLE68-01(48591DE3C19B)	-0.076	-6.342	0.122	-367.554	55.237	1096.924	-97.81	-35.07	-53.90	-57.820	-64.680	31.164	0.26907	-0.62549	-0.07275	-0.72867	31.0	13111	100
2025-3-7 0:5:34.107	WT901BLE68-01(48591DE3C19B)	3.191	-6.342	0.122	-367.554	55.237	1096.924	-100.21	-24.16	-56.52	-57.820	-64.680	31.164	0.26907	-0.62549	-0.07275	-0.72867	31.0	13111	100
2025-3-7 0:5:34.108	WT901BLE68-01(48591DE3C19B)	3.191	-6.286	2.100	62.439	-91.125	932.190	-99.33	-14.73	-57.28	-57.820	-64.680	31.164	0.26907	-0.62549	-0.07275	-0.72867	31.0	13111	100
2025-3-7 0:5:34.137	WT901BLE68-01(48591DE3C19B)	8.952	-6.286	2.100	62.439	-91.125	932.190	-98.59	-5.36	-57.90	-57.820	-64.680	31.164	0.26907	-0.62549	-0.07275	-0.72867	31.0	13111	100
2025-3-7 0:5:34.137	WT901BLE68-01(48591DE3C19B)	8.952	-3.541	1.971	487.305	-93.567	752.075	-93.71	2.14	-57.85	-57.820	-64.680	31.164	0.26907	-0.62549	-0.07275	-0.72867	31.0	13111	100
2025-3-7 0:5:34.137	WT901BLE68-01(48591DE3C19B)	11.216	-3.541	1.971	487.305	-93.567	752.075	-88.78	9.51	-57.17	-57.820	-64.680	31.164	0.26907	-0.62549	-0.07275	-0.72867	31.0	13111	100
2025-3-7 0:5:34.137	WT901BLE68-01(48591DE3C19B)	11.216	1.321	2.305	198.792	165.039	340.149	-87.14	12.73	-58.83	-57.820	-64.680	31.164	0.26907	-0.62549	-0.07275	-0.72867	31.0	13111	100
2025-3-7 0:5:34.166	WT901BLE68-01(48591DE3C19B)	10.555	1.321	2.305	198.792	165.039	340.149	-85.56	15.91	-60.41	-57.820	-64.680	31.164	0.26907	-0.62549	-0.07275	-0.72867	31.0	13111	100
2025-3-7 0:5:34.166	WT901BLE68-01(48591DE3C19B)	10.555	3.263	1.307	189.575	94.238	-433.044	-84.03	11.33	-61.87	-57.820	-64.680	31.164	0.26907	-0.62549	-0.07275	-0.72867	31.0	13111	100
2025-3-7 0:5:34.166	WT901BLE68-01(48591DE3C19B)	8.287	3.263	1.307	189.575	94.238	-433.044	-82.40	6.76	-63.41	-57.820	-64.680	31.164	0.26907	-0.62549	-0.07275	-0.72867	31.0	13111	100
2025-3-7 0:5:34.167	WT901BLE68-01(48591DE3C19B)	8.287	-0.540	1.246	255.066	-132.629	-1038.879	-79.88	-4.06	-63.77	-57.820	-64.680	31.164	0.26907	-0.62549	-0.07275	-0.72867	31.0	13111	100
2025-3-7 0:5:34.227	WT901BLE68-01(48591DE3C19B)	7.530	-0.540	1.246	255.066	-132.629	-1038.879	-77.23	-14.81	-64.62	-57.820	-64.680	31.164	0.26907	-0.62549	-0.07275	-0.72867	31.0	13111	100
2025-3-7 0:5:34.227	WT901BLE68-01(48591DE3C19B)	7.530	-5.747	2.120	-286.865	-101.685	-1368.164	-79.41	-28.64	-66.58	-57.820	-64.680	31.164	0.26907	-0.62549	-0.07275	-0.72867	31.0	13111	100
2025-3-7 0:5:34.227	WT901BLE68-01(48591DE3C19B)	0.796	-5.747	2.120	-286.865	-101.685	-1368.164	-81.36	-42.42	-68.21	-57.820	-64.680	31.164	0.26907	-0.62549	-0.07275	-0.72867	31.0	13111	100
2025-3-7 0:5:34.227	WT901BLE68-01(48591DE3C19B)	0.796	-10.110	0.277	-223.633	212.280	-1289.063	-78.66	-54.79	-74.79	-57.820	-64.680	31.164	0.26907	-0.62549	-0.07275	-0.72867	31.0	13111	100
2025-3-7 0:5:34.257	WT901BLE68-01(48591DE3C19B)	-8.270	-10.110	0.277	-223.633	212.280	-1289.063	-71.27	-66.65	-85.79	-63.994	-62.524	29.694	0.26907	-0.62549	-0.07275	-0.72867	31.0	13111	100
2025-3-7 0:5:34.257	WT901BLE68-01(48591DE3C19B)	-8.270	-9.935	-3.911	190.491	219.360	-689.575	-56.42	-71.74	-99.65	-63.994	-62.524	29.694	0.26907	-0.62549	-0.07275	-0.72867	31.0	13111	100
2025-3-7 0:5:34.257	WT901BLE68-01(48591DE3C19B)	-7.816	-9.935	-3.911	190.491	219.360	-689.575	-33.76	-74.95	-121.34	-63.994	-62.524	29.694	0.26907	-0.62549	-0.07275	-0.72867	31.0	13111	100
2025-3-7 0:5:34.257	WT901BLE68-01(48591DE3C19B)	-7.816	-6.610	-5.126	258.057	-373.108	482.422	-54.34	-74.07	-97.40	-63.994	-62.524	29.694	0.26907	-0.62549	-0.07275	-0.72867	31.0	13111	100
2025-3-7 0:5:34.288	WT901BLE68-01(48591DE3C19B)	-1.221	-6.610	-5.126	258.057	-373.108	482.422	-70.39	-71.20	-77.98	-63.994	-62.524	29.694	0.26907	-0.62549	-0.07275	-0.72867	31.0	13111	100
2025-3-7 0:5:34.288	WT901BLE68-01(48591DE3C19B)	-1.221	-3.974	-2.547	-30.518	-323.669	756.653	-83.08	-64.22	-64.70	-63.994	-62.524	29.694	0.26907	-0.62549	-0.07275	-0.72867	31.0	13111	100
2025-3-7 0:5:34.288	WT901BLE68-01(48591DE3C19B)	-0.094	-3.974	-2.547	-30.518	-323.669	756.653	-90.08	-56.54	-57.10	-63.994	-62.524	29.694	0.26907	-0.62549	-0.07275	-0.72867	31.0	13111	100
2025-3-7 0:5:34.288	WT901BLE68-01(48591DE3C19B)	-0.094	-4.754	0.216	-379.761	128.662	860.168	-92.11	-47.69	-59.40	-63.994	-62.524	29.694	0.26907	-0.62549	-0.07275	-0.72867	31.0	13111	100
2025-3-7 0:5:34.348	WT901BLE68-01(48591DE3C19B)	1.787	-4.754	0.216	-379.761	128.662	860.168	-94.31	-38.95	-61.78	-63.994	-62.524	29.694	0.26907	-0.62549	-0.07275	-0.72867	31.0	13111	100
2025-3-7 0:5:34.348	WT901BLE68-01(48591DE3C19B)	6.068	-5.724	1.559	-290.771	38.330	987.549	-96.37	-28.99	-63.34	-63.994	-62.524	29.694	0.26907	-0.62549	-0.07275	-0.72867	31.0	13111	100
2025-3-7 0:5:34.348	WT901BLE68-01(48591DE3C19B)	6.068	-4.730	2.300	379.028	-174.927	741.577	-95.71	-20.24	-63.75	-63.994	-62.524	29.694	0.26907	-0.62549	-0.07275	-0.72867	31.0	13111	100
2025-3-7 0:5:34.348	WT901BLE68-01(48591DE3C19B)	10.599	-4.730	2.300	379.028	-174.927	741.577	-92.28	-12.71	-62.52	-63.994	-62.524	29.694	0.26907	-0.62549	-0.07275	-0.72867	31.0	13111	100
2025-3-7 0:5:34.379	WT901BLE68-01(48591DE3C19B)	10.599	-0.554	2.402	381.042	-39.734	622.375	-88.67	-5.94	-61.57	-63.994	-62.524	29.694	0.26907	-0.62549	-0.07275	-0.72867	31.0	13111	100
2025-3-7 0:5:34.379	WT901BLE68-01(48591DE3C19B)	11.852	-0.554	2.402	381.042	-39.734	622.375	-84.92	0.08	-60.91	-63.994	-62.524	29.694	0.26907	-0.62549	-0.07275	-0.72867	31.0	13111	100
2025-3-7 0:5:34.379	WT901BLE68-01(48591DE3C19B)	11.852	4.931	1.707	-10.986	73.547	-68.054	-83.12	2.61	-60.90	-63.994	-62.524	29.694	0.26907	-0.62549	-0.07275	-0.72867	31.0	13111	100
2025-3-7 0:5:34.379	WT901BLE68-01(48591DE3C19B)	9.293	4.931	1.707	-10.986	73.547	-68.054	-83.30	1.71	-61.80	-63.994	-62.524	29.694	0.26907	-0.62549	-0.07275	-0.72867	31.0	13111	100
2025-3-7 0:5:34.409	WT901BLE68-01(48591DE3C19B)	9.293	1.086	1.814	252.869	-21.179	-955.261	-82.11	-3.68	-62.78	-63.994	-62.524	29.694	0.26907	-0.62549	-0.07275	-0.72867	31.0	13111	100
2025-3-7 0:5:34.409	WT901BLE68-01(48591DE3C19B)	7.613	1.086	1.814	252.869	-21.179	-955.261	-79.40	-13.46	-64.19	-63.994	-62.524	29.694	0.26907	-0.62549	-0.07275	-0.72867	31.0	13111	100
2025-3-7 0:5:34.409	WT901BLE68-01(48591DE3C19B)	7.613	-5.972	1.525	-357.239	14.465	-1231.812	-79.18	-24.46	-66.52	-63.994	-62.524	29.694	0.51633	-0.62888	0.17999	-0.55261	31.0	13111	100
2025-3-7 0:5:34.409	WT901BLE68-01(48591DE3C19B)	-0.583	-5.972	1.525	-357.239	14.465	-1231.812	-81.44	-36.76	-69.14	-63.994	-62.524	29.694	0.51633	-0.62888	0.17999	-0.55261	31.0	13111	100
2025-3-7 0:5:34.467	WT901BLE68-01(48591DE3C19B)	-0.583	-8.370	-0.067	-188.965	482.056	-1253.418	-79.92	-48.77	-75.20	-63.994	-62.524	29.694	0.51633	-0.62888	0.17999	-0.55261	31.0	13111	100
2025-3-7 0:5:34.467	WT901BLE68-01(48591DE3C19B)	-2.207	-8.370	-0.067	-188.965	482.056	-1253.418	-70.91	-59.74	-88.57	-63.994	-62.524	29.694	0.51633	-0.62888	0.17999	-0.55261	31.0	13111	100
2025-3-7 0:5:34.467	WT901BLE68-01(48591DE3C19B)	-2.207	-7.433	-3.996	225.342	430.420	-885.620	-52.76	-67.10	-108.55	-63.994	-62.524	29.694	0.51633	-0.62888	0.17999	-0.55261	31.0	13111	100
2025-3-7 0:5:34.467	WT901BLE68-01(48591DE3C19B)	-9.686	-7.433	-3.996	225.342	430.420	-885.620	-26.87	-69.46	-133.98	-63.994	-62.524	29.694	0.51633	-0.62888	0.17999	-0.55261	31.0	13111	100
2025-3-7 0:5:34.503	WT901BLE68-01(48591DE3C19B)	-9.686	-6.851	-5.165	429.626	-445.251	-45.471	-12.31	-71.20	-146.12	-63.994	-62.524	29.694	0.51633	-0.62888	0.17999	-0.55261	31.0	13111	100
2025-3-7 0:5:34.503	WT901BLE68-01(48591DE3C19B)	-4.136	-6.851	-5.165	429.626	-445.251	-45.471	-10.88	-75.70	-143.22	-63.994	-62.524	29.694	0.51633	-0.62888	0.17999	-0.55261	31.0	13111	100
2025-3-7 0:5:34.503	WT901BLE68-01(48591DE3C19B)	-4.136	-5.628	-3.841	239.868	-658.264	757.629	-34.56	-79.56	-115.75	-63.994	-62.524	29.694	0.51633	-0.62888	0.17999	-0.55261	31.0	13111	100
2025-3-7 0:5:34.503	WT901BLE68-01(48591DE3C19B)	0.236	-5.628	-3.841	239.868	-658.264	757.629	-79.95	-76.17	-67.09	-63.994	-62.524	29.694	0.51633	-0.62888	0.17999	-0.55261	31.0	13111	100
2025-3-7 0:5:34.527	WT901BLE68-01(48591DE3C19B)	0.236	-5.306	-1.508	-212.524	-222.717	1032.043	-95.05	-67.02	-51.28	-63.994	-62.524	29.694	0.51633	-0.62888	0.17999	-0.55261	31.0	13111	100
2025-3-7 0:5:34.527	WT901BLE68-01(48591DE3C19B)	0.988	-5.306	-1.508	-212.524	-222.717	1032.043	-99.03	-56.18	-49.25	-63.994	-62.524	29.694	0.51633	-0.62888	0.17999	-0.55261	31.0	13111	100
2025-3-7 0:5:34.527	WT901BLE68-01(48591DE3C19B)	0.988	-6.614	1.216	-417.175	151.672	1207.458	-100.48	-44.85	-51.62	-63.994	-62.524	29.694	0.51633	-0.62888	0.17999	-0.55261	31.0	13111	100
2025-3-7 0:5:34.527	WT901BLE68-01(48591DE3C19B)	4.377	-6.614	1.216	-417.175	151.672	1207.458	-101.58	-33.09	-56.52	-63.994	-62.524	29.694	0.51633	-0.62888	0.17999	-0.55261	31.0	13111	100
2025-3-7 0:5:34.589	WT901BLE68-01(48591DE3C19B)	4.377	-6.347	2.501	198.181	-52.551	937.256	-101.17	-22.59	-59.63	-63.994	-62.524	29.694	0.51633	-0.62888	0.17999	-0.55261	31.0	13111	100
2025-3-7 0:5:34.590	WT901BLE68-01(48591DE3C19B)	9.950	-6.347	2.501	198.181	-52.551	937.256	-98.80	-13.23	-60.85	-63.994	-62.524	29.694	0.51633	-0.62888	0.17999	-0.55261	31.0	13111	100
2025-3-7 0:5:34.590	WT901BLE68-01(48591DE3C19B)	9.950	-2.741	1.789	507.813	-18.188	777.283	-95.14	-4.72	-61.67	-63.994	-62.524	29.694	0.51633	-0.62888	0.17999	-0.55261	31.0	13111	100
2025-3-7 0:5:34.590	WT901BLE68-01(48591DE3C19B)	10.590	-2.741	1.789	507.813	-18.188	777.283	-90.07	2.90	-61.91	-63.994	-62.524	29.694	0.51633	-0.62888	0.17999	-0.55261	31.0	13111	100
2025-3-7 0:5:34.620	WT901BLE68-01(48591DE3C19B)	10.590	2.426	1.873	65.308	141.846	208.252	-87.31	7.64	-62.50	-63.994	-62.524	29.694	0.51633	-0.62888	0.17999	-0.55261	31.0	13111	100
2025-3-7 0:5:34.620	WT901BLE68-01(48591DE3C19B)	9.183	2.426	1.873	65.308	141.846	208.252	-86.89	9.49	-63.90	-63.994	-62.524	29.694	0.51633	-0.62888	0.17999	-0.55261	31.0	13111	100
2025-3-7 0:5:34.620	WT901BLE68-01(48591DE3C19B)	9.183	2.762	1.479	221.191	-24.719	-571.594	-85.61	7.37	-64.70	-63.994	-62.524	29.694	0.51633	-0.62888	0.17999	-0.55261	31.0	13111	100
2025-3-7 0:5:34.620	WT901BLE68-01(48591DE3C19B)	7.285	2.762	1.479	221.191	-24.719	-571.594	-83.44	1.31	-65.07	-87.612	-56.350	27.538	0.51633	-0.62888	0.17999	-0.55261	31.0	13111	100
2025-3-7 0:5:34.649	WT901BLE68-01(48591DE3C19B)	7.285	-1.314	1.685	171.997	-113.586	-1142.212	-81.48	-7.61	-65.60	-87.612	-56.350	27.538	0.51633	-0.62888	0.17999	-0.55261	31.0	13111	100
2025-3-7 0:5:34.649	WT901BLE68-01(48591DE3C19B)	6.458	-1.314	1.685	171.997	-113.586	-1142.212	-79.58	-19.34	-66.45	-87.612	-56.350	27.538	0.51633	-0.62888	0.17999	-0.55261	31.0	13111	100
2025-3-7 0:5:34.649	WT901BLE68-01(48591DE3C19B)	6.458	-7.331	1.306	-303.345	75.867	-1392.639	-79.10	-32.02	-69.04	-87.612	-56.350	27.538	0.51633	-0.62888	0.17999	-0.55261	31.0	13111	100
2025-3-7 0:5:34.649	WT901BLE68-01(48591DE3C19B)	-3.458	-7.331	1.306	-303.345	75.867	-1392.639	-79.43	-45.67	-73.36	-87.612	-56.350	27.538	0.51633	-0.62888	0.17999	-0.55261	31.0	13111	100
2025-3-7 0:5:34.707	WT901BLE68-01(48591DE3C19B)	-3.458	-8.929	-1.360	-293.518	322.754	-977.905	-76.81	-56.89	-80.44	-87.612	-56.350	27.538	0.51633	-0.62888	0.17999	-0.55261	31.0	13111	100
2025-3-7 0:5:34.707	WT901BLE68-01(48591DE3C19B)	-7.610	-8.929	-1.360	-293.518	322.754	-977.905	-69.01	-65.25	-92.69	-87.612	-56.350	27.538	0.51633	-0.62888	0.17999	-0.55261	31.0	13111	100
