time	DeviceName	AccX(g)	AccY(g)	AccZ(g)	AsX(°/s)	AsY(°/s)	AsZ(°/s)	AngleX(°)	AngleY(°)	AngleZ(°)	HX(uT)	HY(uT)	HZ(uT)	Q0()	Q1()	Q2()	Q3()	Temperature(°C)	Version()	Battery level(%)
2025-3-7 0:2:52.18	WT901BLE68-01(48591DE3C19B)	-0.078	-0.304	0.943	-0.854	0.000	0.793	-19.59	4.96	-117.49	-28.616	-29.890	48.902	0.51801	-0.05185	0.16400	-0.83783	29.9	13111	100
2025-3-7 0:2:52.18	WT901BLE68-01(48591DE3C19B)	-0.076	-0.304	0.943	-0.854	0.000	0.793	-19.59	4.96	-117.49	-28.616	-29.890	48.902	0.51801	-0.05185	0.16400	-0.83783	29.9	13111	100
2025-3-7 0:2:52.18	WT901BLE68-01(48591DE3C19B)	-0.076	-0.304	0.948	-0.244	-0.427	0.183	-19.58	4.95	-117.50	-28.616	-29.890	48.902	0.51801	-0.05185	0.16400	-0.83783	29.9	13111	100
2025-3-7 0:2:52.18	WT901BLE68-01(48591DE3C19B)	-0.071	-0.304	0.948	-0.244	-0.427	0.183	-19.58	4.95	-117.50	-28.616	-29.890	48.902	0.51801	-0.05185	0.16400	-0.83783	29.9	13111	100
2025-3-7 0:2:52.45	WT901BLE68-01(48591DE3C19B)	-0.071	-0.299	0.958	-0.671	-0.183	-0.366	-19.58	4.94	-117.52	-28.616	-29.890	48.902	0.51678	-0.05173	0.16727	-0.83795	29.9	13111	100
2025-3-7 0:2:52.46	WT901BLE68-01(48591DE3C19B)	-0.070	-0.299	0.958	-0.671	-0.183	-0.366	-19.57	4.94	-117.53	-28.616	-29.890	48.902	0.51678	-0.05173	0.16727	-0.83795	29.9	13111	100
2025-3-7 0:2:52.46	WT901BLE68-01(48591DE3C19B)	-0.070	-0.307	0.958	-1.160	0.305	-1.099	-19.58	4.93	-117.55	-28.616	-29.890	48.902	0.51678	-0.05173	0.16727	-0.83795	29.9	13111	100
2025-3-7 0:2:52.46	WT901BLE68-01(48591DE3C19B)	-0.070	-0.307	0.958	-1.160	0.305	-1.099	-19.58	4.93	-117.58	-28.616	-29.890	48.902	0.51678	-0.05173	0.16727	-0.83795	29.9	13111	100
2025-3-7 0:2:52.76	WT901BLE68-01(48591DE3C19B)	-0.070	-0.317	0.960	-1.404	-0.122	-0.793	-19.58	4.92	-117.59	-28.616	-29.890	48.902	0.51678	-0.05173	0.16727	-0.83795	29.9	13111	100
2025-3-7 0:2:52.76	WT901BLE68-01(48591DE3C19B)	-0.071	-0.317	0.960	-1.404	-0.122	-0.793	-19.59	4.92	-117.61	-28.616	-29.890	48.902	0.51678	-0.05173	0.16727	-0.83795	29.9	13111	100
2025-3-7 0:2:52.76	WT901BLE68-01(48591DE3C19B)	-0.071	-0.315	0.965	-0.854	0.000	-0.305	-19.59	4.91	-117.63	-28.616	-29.890	48.902	0.51678	-0.05173	0.16727	-0.83795	29.9	13111	100
2025-3-7 0:2:52.76	WT901BLE68-01(48591DE3C19B)	-0.076	-0.315	0.965	-0.854	0.000	-0.305	-19.59	4.91	-117.64	-28.616	-29.890	48.902	0.51678	-0.05173	0.16727	-0.83795	29.9	13111	100
2025-3-7 0:2:52.136	WT901BLE68-01(48591DE3C19B)	-0.076	-0.305	0.955	-0.916	-0.122	0.000	-19.59	4.90	-117.64	-28.616	-29.890	48.902	0.51678	-0.05173	0.16727	-0.83795	29.9	13111	100
2025-3-7 0:2:52.136	WT901BLE68-01(48591DE3C19B)	-0.079	-0.305	0.955	-0.916	-0.122	0.000	-19.59	4.89	-117.65	-28.616	-29.890	48.902	0.51678	-0.05173	0.16727	-0.83795	29.9	13111	100
2025-3-7 0:2:52.136	WT901BLE68-01(48591DE3C19B)	-0.079	-0.298	0.949	-1.160	-0.183	-0.305	-19.59	4.89	-117.66	-28.616	-29.890	48.902	0.51678	-0.05173	0.16727	-0.83795	29.9	13111	100
2025-3-7 0:2:52.136	WT901BLE68-01(48591DE3C19B)	-0.078	-0.298	0.949	-1.160	-0.183	-0.305	-19.59	4.88	-117.67	-28.616	-29.890	48.902	0.51678	-0.05173	0.16727	-0.83795	29.9	13111	100
2025-3-7 0:2:52.166	WT901BLE68-01(48591DE3C19B)	-0.078	-0.290	0.950	-1.770	-0.244	-1.221	-19.60	4.87	-117.70	-28.616	-29.890	48.902	0.51678	-0.05173	0.16727	-0.83795	29.9	13111	100
2025-3-7 0:2:52.167	WT901BLE68-01(48591DE3C19B)	-0.078	-0.290	0.950	-1.770	-0.244	-1.221	-19.61	4.86	-117.72	-28.616	-29.890	48.902	0.51678	-0.05173	0.16727	-0.83795	29.9	13111	100
2025-3-7 0:2:52.167	WT901BLE68-01(48591DE3C19B)	-0.078	-0.299	0.949	-1.465	-0.488	-2.197	-19.61	4.85	-117.75	-28.616	-29.890	48.902	0.51678	-0.05173	0.16727	-0.83795	29.9	13111	100
2025-3-7 0:2:52.167	WT901BLE68-01(48591DE3C19B)	-0.077	-0.299	0.949	-1.465	-0.488	-2.197	-19.62	4.83	-117.78	-28.616	-29.890	48.902	0.51678	-0.05173	0.16727	-0.83795	29.9	13111	100
2025-3-7 0:2:52.202	WT901BLE68-01(48591DE3C19B)	-0.077	-0.304	0.955	-0.305	-0.671	-3.296	-19.61	4.81	-117.82	-28.616	-29.890	48.902	0.51678	-0.05173	0.16727	-0.83795	29.9	13111	100
2025-3-7 0:2:52.202	WT901BLE68-01(48591DE3C19B)	-0.080	-0.304	0.955	-0.305	-0.671	-3.296	-19.60	4.80	-117.86	-28.616	-29.890	48.902	0.51678	-0.05173	0.16727	-0.83795	29.9	13111	100
2025-3-7 0:2:52.203	WT901BLE68-01(48591DE3C19B)	-0.084	-0.328	0.952	0.122	0.244	-3.479	-19.59	4.78	-117.91	-28.616	-29.890	48.902	0.51678	-0.05173	0.16727	-0.83795	29.9	13111	100
2025-3-7 0:2:52.203	WT901BLE68-01(48591DE3C19B)	-0.084	-0.325	0.943	-0.854	-0.183	-2.075	-19.59	4.77	-117.94	-28.616	-29.890	48.902	0.51678	-0.05173	0.16727	-0.83795	29.9	13111	100
2025-3-7 0:2:52.256	WT901BLE68-01(48591DE3C19B)	-0.087	-0.325	0.943	-0.854	-0.183	-2.075	-19.59	4.76	-117.96	-28.616	-29.890	48.902	0.51678	-0.05173	0.16727	-0.83795	29.9	13111	100
2025-3-7 0:2:52.256	WT901BLE68-01(48591DE3C19B)	-0.087	-0.326	0.937	-0.793	-0.244	-1.892	-19.59	4.75	-117.99	-28.714	-29.988	48.706	0.51678	-0.05173	0.16727	-0.83795	29.9	13111	100
2025-3-7 0:2:52.256	WT901BLE68-01(48591DE3C19B)	-0.089	-0.326	0.937	-0.793	-0.244	-1.892	-19.59	4.74	-118.01	-28.714	-29.988	48.706	0.51678	-0.05173	0.16727	-0.83795	29.9	13111	100
2025-3-7 0:2:52.256	WT901BLE68-01(48591DE3C19B)	-0.089	-0.328	0.933	-0.916	-1.282	-1.404	-19.59	4.72	-118.03	-28.714	-29.988	48.706	0.51678	-0.05173	0.16727	-0.83795	29.9	13111	100
2025-3-7 0:2:52.288	WT901BLE68-01(48591DE3C19B)	-0.085	-0.328	0.933	-0.916	-1.282	-1.404	-19.59	4.71	-118.04	-28.714	-29.988	48.706	0.51678	-0.05173	0.16727	-0.83795	29.9	13111	100
2025-3-7 0:2:52.288	WT901BLE68-01(48591DE3C19B)	-0.085	-0.325	0.947	-1.526	-1.526	-1.099	-19.60	4.69	-118.04	-28.714	-29.988	48.706	0.51678	-0.05173	0.16727	-0.83795	29.9	13111	100
2025-3-7 0:2:52.288	WT901BLE68-01(48591DE3C19B)	-0.082	-0.325	0.947	-1.526	-1.526	-1.099	-19.61	4.67	-118.05	-28.714	-29.988	48.706	0.51678	-0.05173	0.16727	-0.83795	29.9	13111	100
2025-3-7 0:2:52.288	WT901BLE68-01(48591DE3C19B)	-0.082	-0.322	0.951	-2.502	-1.099	-0.305	-19.62	4.66	-118.05	-28.714	-29.988	48.706	0.51678	-0.05173	0.16727	-0.83795	29.9	13111	100
2025-3-7 0:2:52.317	WT901BLE68-01(48591DE3C19B)	-0.084	-0.322	0.951	-2.502	-1.099	-0.305	-19.64	4.65	-118.05	-28.714	-29.988	48.706	0.51678	-0.05173	0.16727	-0.83795	29.9	13111	100
2025-3-7 0:2:52.318	WT901BLE68-01(48591DE3C19B)	-0.084	-0.315	0.941	-4.517	-1.282	-0.183	-19.67	4.64	-118.05	-28.714	-29.988	48.706	0.51678	-0.05173	0.16727	-0.83795	29.9	13111	100
2025-3-7 0:2:52.318	WT901BLE68-01(48591DE3C19B)	-0.082	-0.315	0.941	-4.517	-1.282	-0.183	-19.71	4.63	-118.05	-28.714	-29.988	48.706	0.51678	-0.05173	0.16727	-0.83795	29.9	13111	100
2025-3-7 0:2:52.318	WT901BLE68-01(48591DE3C19B)	-0.082	-0.318	0.942	-9.033	-4.578	0.732	-19.77	4.60	-118.04	-28.714	-29.988	48.706	0.51678	-0.05173	0.16727	-0.83795	29.9	13111	100
2025-3-7 0:2:52.377	WT901BLE68-01(48591DE3C19B)	-0.085	-0.318	0.942	-9.033	-4.578	0.732	-19.85	4.56	-118.02	-28.714	-29.988	48.706	0.51678	-0.05173	0.16727	-0.83795	29.9	13111	100
2025-3-7 0:2:52.378	WT901BLE68-01(48591DE3C19B)	-0.085	-0.296	0.952	-3.357	-1.770	-0.244	-19.90	4.53	-118.00	-28.714	-29.988	48.706	0.51678	-0.05173	0.16727	-0.83795	29.9	13111	100
2025-3-7 0:2:52.378	WT901BLE68-01(48591DE3C19B)	-0.082	-0.296	0.952	-3.357	-1.770	-0.244	-19.93	4.52	-118.00	-28.714	-29.988	48.706	0.51678	-0.05173	0.16727	-0.83795	29.9	13111	100
2025-3-7 0:2:52.378	WT901BLE68-01(48591DE3C19B)	-0.082	-0.313	0.947	-0.732	-1.648	-0.671	-19.94	4.50	-118.00	-28.714	-29.988	48.706	0.51678	-0.05173	0.16727	-0.83795	29.9	13111	100
2025-3-7 0:2:52.407	WT901BLE68-01(48591DE3C19B)	-0.079	-0.313	0.947	-0.732	-1.648	-0.671	-19.93	4.48	-118.01	-28.714	-29.988	48.706	0.51678	-0.05173	0.16727	-0.83795	29.9	13111	100
2025-3-7 0:2:52.407	WT901BLE68-01(48591DE3C19B)	-0.079	-0.303	0.952	0.061	-1.892	-0.183	-19.93	4.47	-118.02	-28.714	-29.988	48.706	0.51678	-0.05173	0.16727	-0.83795	29.9	13111	100
2025-3-7 0:2:52.407	WT901BLE68-01(48591DE3C19B)	-0.073	-0.303	0.952	0.061	-1.892	-0.183	-19.92	4.45	-118.02	-28.714	-29.988	48.706	0.51678	-0.05173	0.16727	-0.83795	29.9	13111	100
2025-3-7 0:2:52.407	WT901BLE68-01(48591DE3C19B)	-0.073	-0.296	0.961	0.671	-1.709	0.061	-19.90	4.43	-118.02	-28.714	-29.988	48.706	0.51678	-0.05173	0.16727	-0.83795	29.9	13111	100
2025-3-7 0:2:52.435	WT901BLE68-01(48591DE3C19B)	-0.068	-0.296	0.961	0.671	-1.709	0.061	-19.89	4.42	-118.02	-28.714	-29.988	48.706	0.51678	-0.05173	0.16727	-0.83795	29.9	13111	100
2025-3-7 0:2:52.436	WT901BLE68-01(48591DE3C19B)	-0.068	-0.293	0.960	1.282	-2.014	-0.916	-19.86	4.40	-118.03	-28.714	-29.988	48.706	0.51678	-0.05173	0.16727	-0.83795	29.9	13111	100
2025-3-7 0:2:52.436	WT901BLE68-01(48591DE3C19B)	-0.063	-0.293	0.960	1.282	-2.014	-0.916	-19.84	4.38	-118.04	-28.714	-29.988	48.706	0.51227	-0.05630	0.16696	-0.84048	29.9	13111	100
2025-3-7 0:2:52.436	WT901BLE68-01(48591DE3C19B)	-0.063	-0.300	0.980	1.343	-3.357	-2.563	-19.81	4.35	-118.05	-28.714	-29.988	48.706	0.51227	-0.05630	0.16696	-0.84048	29.9	13111	100
2025-3-7 0:2:52.526	WT901BLE68-01(48591DE3C19B)	-0.065	-0.300	0.980	1.343	-3.357	-2.563	-19.79	4.31	-118.08	-28.714	-29.988	48.706	0.51227	-0.05630	0.16696	-0.84048	29.9	13111	100
2025-3-7 0:2:52.526	WT901BLE68-01(48591DE3C19B)	-0.065	-0.313	0.996	0.793	-2.502	-3.113	-19.77	4.27	-118.11	-28.714	-29.988	48.706	0.51227	-0.05630	0.16696	-0.84048	29.9	13111	100
2025-3-7 0:2:52.526	WT901BLE68-01(48591DE3C19B)	-0.061	-0.313	0.996	0.793	-2.502	-3.113	-19.75	4.24	-118.14	-28.714	-29.988	48.706	0.51227	-0.05630	0.16696	-0.84048	29.9	13111	100
2025-3-7 0:2:52.526	WT901BLE68-01(48591DE3C19B)	-0.061	-0.310	1.011	0.549	-3.418	-0.366	-19.73	4.20	-118.15	-28.714	-29.988	48.706	0.51227	-0.05630	0.16696	-0.84048	29.9	13111	100
2025-3-7 0:2:52.527	WT901BLE68-01(48591DE3C19B)	-0.056	-0.310	1.011	0.549	-3.418	-0.366	-19.71	4.17	-118.15	-28.714	-29.988	48.706	0.51227	-0.05630	0.16696	-0.84048	29.9	13111	100
2025-3-7 0:2:52.527	WT901BLE68-01(48591DE3C19B)	-0.056	-0.302	1.014	4.944	-1.038	0.549	-19.67	4.15	-118.15	-28.714	-29.988	48.706	0.51227	-0.05630	0.16696	-0.84048	29.9	13111	100
2025-3-7 0:2:52.527	WT901BLE68-01(48591DE3C19B)	-0.045	-0.302	1.014	4.944	-1.038	0.549	-19.61	4.14	-118.15	-28.714	-29.988	48.706	0.51227	-0.05630	0.16696	-0.84048	29.9	13111	100
2025-3-7 0:2:52.527	WT901BLE68-01(48591DE3C19B)	-0.045	-0.278	1.019	7.019	-3.296	0.488	-19.53	4.11	-118.15	-28.714	-29.988	48.706	0.51227	-0.05630	0.16696	-0.84048	29.9	13111	100
2025-3-7 0:2:52.558	WT901BLE68-01(48591DE3C19B)	-0.043	-0.278	1.019	7.019	-3.296	0.488	-19.45	4.08	-118.15	-28.714	-29.988	48.706	0.51227	-0.05630	0.16696	-0.84048	29.9	13111	100
2025-3-7 0:2:52.558	WT901BLE68-01(48591DE3C19B)	-0.043	-0.277	1.011	12.695	0.000	-2.686	-19.33	4.06	-118.16	-28.714	-29.988	48.706	0.51227	-0.05630	0.16696	-0.84048	29.9	13111	100
2025-3-7 0:2:52.558	WT901BLE68-01(48591DE3C19B)	-0.042	-0.277	1.011	12.695	0.000	-2.686	-19.19	4.05	-118.20	-28.714	-29.988	48.706	0.51227	-0.05630	0.16696	-0.84048	29.9	13111	100
2025-3-7 0:2:52.558	WT901BLE68-01(48591DE3C19B)	-0.042	-0.282	1.012	12.695	0.000	-2.747	-19.05	4.03	-118.24	-28.714	-29.988	48.706	0.51227	-0.05630	0.16696	-0.84048	29.9	13111	100
2025-3-7 0:2:52.616	WT901BLE68-01(48591DE3C19B)	-0.054	-0.282	1.012	12.695	0.000	-2.747	-18.91	4.02	-118.28	-28.714	-29.988	48.706	0.51227	-0.05630	0.16696	-0.84048	29.9	13111	100
2025-3-7 0:2:52.616	WT901BLE68-01(48591DE3C19B)	-0.054	-0.290	1.021	14.465	2.380	-3.418	-18.76	4.02	-118.32	-28.714	-29.988	48.706	0.51227	-0.05630	0.16696	-0.84048	29.9	13111	100
2025-3-7 0:2:52.616	WT901BLE68-01(48591DE3C19B)	-0.049	-0.290	1.021	14.465	2.380	-3.418	-18.61	4.02	-118.38	-28.714	-29.988	48.706	0.51227	-0.05630	0.16696	-0.84048	29.9	13111	100
2025-3-7 0:2:52.616	WT901BLE68-01(48591DE3C19B)	-0.049	-0.300	1.032	20.874	4.272	-1.282	-18.42	4.04	-118.42	-28.714	-29.988	48.706	0.51227	-0.05630	0.16696	-0.84048	29.9	13111	100
2025-3-7 0:2:52.645	WT901BLE68-01(48591DE3C19B)	-0.051	-0.300	1.032	20.874	4.272	-1.282	-18.20	4.07	-118.45	-28.420	-29.400	48.314	0.51227	-0.05630	0.16696	-0.84048	29.9	13111	100
2025-3-7 0:2:52.645	WT901BLE68-01(48591DE3C19B)	-0.051	-0.231	1.023	26.611	4.700	0.793	-17.96	4.10	-118.48	-28.420	-29.400	48.314	0.51227	-0.05630	0.16696	-0.84048	29.9	13111	100
2025-3-7 0:2:52.645	WT901BLE68-01(48591DE3C19B)	-0.055	-0.231	1.023	26.611	4.700	0.793	-17.68	4.14	-118.50	-28.420	-29.400	48.314	0.51227	-0.05630	0.16696	-0.84048	29.9	13111	100
2025-3-7 0:2:52.645	WT901BLE68-01(48591DE3C19B)	-0.055	-0.182	1.013	27.710	3.967	-0.366	-17.40	4.18	-118.52	-28.420	-29.400	48.314	0.51227	-0.05630	0.16696	-0.84048	29.9	13111	100
2025-3-7 0:2:52.680	WT901BLE68-01(48591DE3C19B)	-0.067	-0.182	1.013	27.710	3.967	-0.366	-17.11	4.21	-118.55	-28.420	-29.400	48.314	0.51227	-0.05630	0.16696	-0.84048	29.9	13111	100
2025-3-7 0:2:52.680	WT901BLE68-01(48591DE3C19B)	-0.067	-0.158	1.032	35.278	5.371	-2.502	-16.74	4.25	-118.61	-28.420	-29.400	48.314	0.51227	-0.05630	0.16696	-0.84048	29.9	13111	100
2025-3-7 0:2:52.680	WT901BLE68-01(48591DE3C19B)	-0.065	-0.158	1.032	35.278	5.371	-2.502	-16.38	4.28	-118.68	-28.420	-29.400	48.314	0.51227	-0.05630	0.16696	-0.84048	29.9	13111	100
2025-3-7 0:2:52.680	WT901BLE68-01(48591DE3C19B)	-0.065	-0.148	1.025	51.941	5.920	-3.662	-15.85	4.32	-118.76	-28.420	-29.400	48.314	0.51227	-0.05630	0.16696	-0.84048	29.9	13111	100
2025-3-7 0:2:52.736	WT901BLE68-01(48591DE3C19B)	-0.032	-0.148	1.025	51.941	5.920	-3.662	-15.31	4.36	-118.84	-28.420	-29.400	48.314	0.51227	-0.05630	0.16696	-0.84048	29.9	13111	100
2025-3-7 0:2:52.736	WT901BLE68-01(48591DE3C19B)	-0.032	-0.163	1.038	77.881	-2.869	1.282	-14.52	4.33	-118.86	-28.420	-29.400	48.314	0.51227	-0.05630	0.16696	-0.84048	29.9	13111	100
2025-3-7 0:2:52.736	WT901BLE68-01(48591DE3C19B)	-0.036	-0.163	1.038	77.881	-2.869	1.282	-13.73	4.30	-118.87	-28.420	-29.400	48.314	0.51227	-0.05630	0.16696	-0.84048	29.9	13111	100
2025-3-7 0:2:52.736	WT901BLE68-01(48591DE3C19B)	-0.036	-0.027	1.075	137.268	4.272	1.770	-12.35	4.33	-118.90	-28.420	-29.400	48.314	0.51227	-0.05630	0.16696	-0.84048	29.9	13111	100
2025-3-7 0:2:52.766	WT901BLE68-01(48591DE3C19B)	-0.040	-0.027	1.075	137.268	4.272	1.770	-10.97	4.37	-118.94	-28.420	-29.400	48.314	0.51227	-0.05630	0.16696	-0.84048	29.9	13111	100
2025-3-7 0:2:52.766	WT901BLE68-01(48591DE3C19B)	-0.040	0.102	1.011	165.649	14.343	-15.076	-9.33	4.47	-119.16	-28.420	-29.400	48.314	0.51227	-0.05630	0.16696	-0.84048	29.9	13111	100
2025-3-7 0:2:52.766	WT901BLE68-01(48591DE3C19B)	-0.028	0.102	1.011	165.649	14.343	-15.076	-7.68	4.58	-119.38	-28.420	-29.400	48.314	0.51227	-0.05630	0.16696	-0.84048	29.9	13111	100
2025-3-7 0:2:52.766	WT901BLE68-01(48591DE3C19B)	-0.028	0.190	1.018	184.448	12.878	-38.330	-5.87	4.65	-119.84	-28.420	-29.400	48.314	0.51227	-0.05630	0.16696	-0.84048	29.9	13111	100
2025-3-7 0:2:52.802	WT901BLE68-01(48591DE3C19B)	-0.057	0.190	1.018	184.448	12.878	-38.330	-4.05	4.73	-120.29	-28.420	-29.400	48.314	0.51227	-0.05630	0.16696	-0.84048	29.9	13111	100
2025-3-7 0:2:52.802	WT901BLE68-01(48591DE3C19B)	-0.057	0.353	1.036	178.894	25.818	-66.162	-2.32	4.94	-121.04	-28.420	-29.400	48.314	0.51227	-0.05630	0.16696	-0.84048	29.9	13111	100
2025-3-7 0:2:52.802	WT901BLE68-01(48591DE3C19B)	-0.059	0.353	1.036	178.894	25.818	-66.162	-0.58	5.16	-121.78	-28.420	-29.400	48.314	0.51227	-0.05630	0.16696	-0.84048	29.9	13111	100
2025-3-7 0:2:52.802	WT901BLE68-01(48591DE3C19B)	-0.059	0.418	1.114	164.978	48.645	-103.699	0.97	5.64	-122.89	-28.420	-29.400	48.314	0.51227	-0.05630	0.16696	-0.84048	29.9	13111	100
2025-3-7 0:2:52.855	WT901BLE68-01(48591DE3C19B)	-0.046	0.418	1.114	164.978	48.645	-103.699	2.52	6.13	-123.98	-28.420	-29.400	48.314	0.51227	-0.05630	0.16696	-0.84048	29.9	13111	100
2025-3-7 0:2:52.855	WT901BLE68-01(48591DE3C19B)	-0.046	0.568	1.126	126.343	47.302	-142.761	3.65	6.65	-125.45	-28.420	-29.400	48.314	0.45557	0.06613	-0.00165	-0.88766	29.9	13111	100
2025-3-7 0:2:52.856	WT901BLE68-01(48591DE3C19B)	-0.030	0.568	1.126	126.343	47.302	-142.761	4.77	7.20	-126.90	-28.420	-29.400	48.314	0.45557	0.06613	-0.00165	-0.88766	29.9	13111	100
2025-3-7 0:2:52.856	WT901BLE68-01(48591DE3C19B)	-0.121	1.786	2.404	84.106	71.594	-206.543	5.38	8.06	-128.96	-28.420	-29.400	48.314	0.45557	0.06613	-0.00165	-0.88766	29.9	13111	100
2025-3-7 0:2:52.885	WT901BLE68-01(48591DE3C19B)	0.145	7.144	9.617	84.106	71.594	-206.543	6.02	8.93	-131.02	-28.420	-29.400	48.314	0.45557	0.06613	-0.00165	-0.88766	29.9	13111	100
2025-3-7 0:2:52.885	WT901BLE68-01(48591DE3C19B)	0.145	0.975	1.072	-4.822	119.690	-308.228	5.59	10.37	-134.04	-28.420	-29.400	48.314	0.45557	0.06613	-0.00165	-0.88766	29.9	13111	100
2025-3-7 0:2:52.885	WT901BLE68-01(48591DE3C19B)	0.620	0.975	1.072	-4.822	119.690	-308.228	5.09	11.78	-137.05	-28.420	-29.400	48.314	0.45557	0.06613	-0.00165	-0.88766	29.9	13111	100
2025-3-7 0:2:52.885	WT901BLE68-01(48591DE3C19B)	0.620	0.662	0.488	-191.833	160.950	-425.415	2.39	13.58	-141.26	-28.420	-29.400	48.314	0.45557	0.06613	-0.00165	-0.88766	29.9	13111	100
2025-3-7 0:2:52.915	WT901BLE68-01(48591DE3C19B)	2.968	0.662	0.488	-191.833	160.950	-425.415	-0.43	15.18	-145.53	-28.420	-29.400	48.314	0.45557	0.06613	-0.00165	-0.88766	29.9	13111	100
2025-3-7 0:2:52.915	WT901BLE68-01(48591DE3C19B)	2.968	-0.643	-0.880	-365.967	191.650	-531.677	-5.40	16.69	-150.97	-28.420	-29.400	48.314	0.45557	0.06613	-0.00165	-0.88766	29.9	13111	100
2025-3-7 0:2:52.915	WT901BLE68-01(48591DE3C19B)	2.408	-0.643	-0.880	-365.967	191.650	-531.677	-10.49	17.67	-156.49	-28.420	-29.400	48.314	0.45557	0.06613	-0.00165	-0.88766	29.9	13111	100
2025-3-7 0:2:52.915	WT901BLE68-01(48591DE3C19B)	2.408	-6.607	-1.541	-308.105	-105.408	-443.970	-14.54	15.42	-160.39	-28.420	-29.400	48.314	0.45557	0.06613	-0.00165	-0.88766	29.9	13111	100
2025-3-7 0:2:52.988	WT901BLE68-01(48591DE3C19B)	-2.043	-6.607	-1.541	-308.105	-105.408	-443.970	-18.47	12.80	-164.01	-28.420	-29.400	48.314	0.45557	0.06613	-0.00165	-0.88766	29.9	13111	100
2025-3-7 0:2:52.988	WT901BLE68-01(48591DE3C19B)	-2.043	-11.239	-1.638	-151.794	-445.190	381.836	-19.00	9.43	-158.41	-28.420	-29.400	48.314	0.45557	0.06613	-0.00165	-0.88766	29.9	13111	100
2025-3-7 0:2:52.988	WT901BLE68-01(48591DE3C19B)	3.003	-11.239	-1.638	-151.794	-445.190	381.836	-19.93	6.14	-152.81	-28.420	-29.400	48.314	0.45557	0.06613	-0.00165	-0.88766	29.9	13111	100
2025-3-7 0:2:52.988	WT901BLE68-01(48591DE3C19B)	3.003	-8.779	-1.845	182.373	-585.449	1219.727	-17.07	4.06	-138.94	-28.420	-29.400	48.314	0.45557	0.06613	-0.00165	-0.88766	29.9	13111	100
2025-3-7 0:2:53.6	WT901BLE68-01(48591DE3C19B)	10.621	-8.779	-1.845	182.373	-585.449	1219.727	-14.83	1.40	-125.26	-28.420	-29.400	48.314	0.45557	0.06613	-0.00165	-0.88766	29.9	13111	100
2025-3-7 0:2:53.6	WT901BLE68-01(48591DE3C19B)	10.621	-6.217	-0.821	200.012	-594.604	1618.225	-12.99	-0.85	-107.91	-28.420	-29.400	48.314	0.45557	0.06613	-0.00165	-0.88766	29.9	13111	100
2025-3-7 0:2:53.6	WT901BLE68-01(48591DE3C19B)	12.072	-6.217	-0.821	200.012	-594.604	1618.225	-11.94	-3.51	-90.72	-28.420	-29.400	48.314	0.45557	0.06613	-0.00165	-0.88766	29.9	13111	100
2025-3-7 0:2:53.6	WT901BLE68-01(48591DE3C19B)	12.072	-2.750	2.002	401.062	-392.334	1411.560	-9.35	-5.06	-76.09	-28.420	-29.400	48.314	0.45557	0.06613	-0.00165	-0.88766	29.9	13111	100
2025-3-7 0:2:53.36	WT901BLE68-01(48591DE3C19B)	11.755	-2.750	2.002	401.062	-392.334	1411.560	-7.26	-7.16	-61.59	-28.420	-29.400	48.314	0.45557	0.06613	-0.00165	-0.88766	29.9	13111	100
2025-3-7 0:2:53.36	WT901BLE68-01(48591DE3C19B)	11.755	4.540	4.723	625.244	406.067	869.873	-2.09	-2.65	-53.42	-28.420	-29.400	48.314	0.45557	0.06613	-0.00165	-0.88766	29.9	13111	100
2025-3-7 0:2:53.36	WT901BLE68-01(48591DE3C19B)	7.894	4.540	4.723	625.244	406.067	869.873	3.65	1.04	-44.97	-44.786	-47.138	47.922	0.45557	0.06613	-0.00165	-0.88766	29.9	13111	100
2025-3-7 0:2:53.37	WT901BLE68-01(48591DE3C19B)	7.894	10.303	1.269	-145.691	636.047	905.090	2.43	6.66	-35.95	-44.786	-47.138	47.922	0.45557	0.06613	-0.00165	-0.88766	29.9	13111	100
2025-3-7 0:2:53.103	WT901BLE68-01(48591DE3C19B)	5.113	10.303	1.269	-145.691	636.047	905.090	2.13	12.37	-26.98	-44.786	-47.138	47.922	0.45557	0.06613	-0.00165	-0.88766	29.9	13111	100
2025-3-7 0:2:53.103	WT901BLE68-01(48591DE3C19B)	5.113	13.628	-0.125	-267.883	23.071	34.363	-0.85	12.26	-27.10	-44.786	-47.138	47.922	0.45557	0.06613	-0.00165	-0.88766	29.9	13111	100
2025-3-7 0:2:53.103	WT901BLE68-01(48591DE3C19B)	8.182	13.628	-0.125	-267.883	23.071	34.363	-3.78	12.10	-27.23	-44.786	-47.138	47.922	0.45557	0.06613	-0.00165	-0.88766	29.9	13111	100
2025-3-7 0:2:53.103	WT901BLE68-01(48591DE3C19B)	8.182	5.600	0.672	-183.838	-40.955	-565.552	-7.03	10.73	-33.37	-44.786	-47.138	47.922	0.45557	0.06613	-0.00165	-0.88766	29.9	13111	100
2025-3-7 0:2:53.128	WT901BLE68-01(48591DE3C19B)	6.000	5.600	0.672	-183.838	-40.955	-565.552	-10.08	9.03	-39.39	-44.786	-47.138	47.922	0.45557	0.06613	-0.00165	-0.88766	29.9	13111	100
2025-3-7 0:2:53.128	WT901BLE68-01(48591DE3C19B)	3.392	-4.909	0.792	-200.989	297.058	-964.600	-13.97	9.46	-49.93	-44.786	-47.138	47.922	0.45557	0.06613	-0.00165	-0.88766	29.9	13111	100
2025-3-7 0:2:53.128	WT901BLE68-01(48591DE3C19B)	3.392	-4.700	0.516	-80.750	680.664	-959.900	-17.44	11.06	-61.02	-44.786	-47.138	47.922	0.45557	0.06613	-0.00165	-0.88766	29.9	13111	100
2025-3-7 0:2:53.128	WT901BLE68-01(48591DE3C19B)	3.042	-4.700	0.516	-80.750	680.664	-959.900	-20.93	13.84	-72.84	-44.786	-47.138	47.922	0.45557	0.06613	-0.00165	-0.88766	29.9	13111	100
2025-3-7 0:2:53.185	WT901BLE68-01(48591DE3C19B)	3.042	-2.430	-4.601	-184.387	741.577	-915.344	-25.46	16.20	-84.83	-44.786	-47.138	47.922	0.45557	0.06613	-0.00165	-0.88766	29.9	13111	100
2025-3-7 0:2:53.185	WT901BLE68-01(48591DE3C19B)	1.911	-2.430	-4.601	-184.387	741.577	-915.344	-30.95	17.86	-97.01	-44.786	-47.138	47.922	0.45557	0.06613	-0.00165	-0.88766	29.9	13111	100
2025-3-7 0:2:53.186	WT901BLE68-01(48591DE3C19B)	1.911	-6.417	-7.670	83.923	255.981	-1015.625	-34.91	16.17	-108.30	-44.786	-47.138	47.922	0.45557	0.06613	-0.00165	-0.88766	29.9	13111	100
2025-3-7 0:2:53.186	WT901BLE68-01(48591DE3C19B)	-2.151	-6.417	-7.670	83.923	255.981	-1015.625	-36.54	11.74	-118.23	-44.786	-47.138	47.922	0.45557	0.06613	-0.00165	-0.88766	29.9	13111	100
2025-3-7 0:2:53.216	WT901BLE68-01(48591DE3C19B)	-2.151	-11.504	-4.942	224.670	-389.404	-499.207	-36.07	6.14	-123.85	-44.786	-47.138	47.922	0.45557	0.06613	-0.00165	-0.88766	29.9	13111	100
2025-3-7 0:2:53.216	WT901BLE68-01(48591DE3C19B)	-2.238	-11.504	-4.942	224.670	-389.404	-499.207	-34.03	-0.40	-125.51	-44.786	-47.138	47.922	0.45557	0.06613	-0.00165	-0.88766	29.9	13111	100
2025-3-7 0:2:53.216	WT901BLE68-01(48591DE3C19B)	-2.238	-11.338	-2.677	232.971	-597.595	381.897	-32.14	-5.34	-123.05	-44.786	-47.138	47.922	0.45557	0.06613	-0.00165	-0.88766	29.9	13111	100
2025-3-7 0:2:53.216	WT901BLE68-01(48591DE3C19B)	2.561	-11.338	-2.677	232.971	-597.595	381.897	-30.85	-8.84	-116.37	-44.786	-47.138	47.922	0.45557	0.06613	-0.00165	-0.88766	29.9	13111	100
2025-3-7 0:2:53.245	WT901BLE68-01(48591DE3C19B)	2.561	-6.413	-1.604	415.161	-795.349	807.129	-29.56	-12.21	-107.31	-44.786	-47.138	47.922	0.45557	0.06613	-0.00165	-0.88766	29.9	13111	100
2025-3-7 0:2:53.246	WT901BLE68-01(48591DE3C19B)	6.615	-6.413	-1.604	415.161	-795.349	807.129	-28.45	-15.56	-95.85	-44.786	-47.138	47.922	0.45557	0.06613	-0.00165	-0.88766	29.9	13111	100
2025-3-7 0:2:53.246	WT901BLE68-01(48591DE3C19B)	6.615	-3.083	0.233	698.425	-720.642	932.007	-26.74	-18.44	-83.92	-44.786	-47.138	47.922	0.72440	-0.27377	0.00610	-0.63260	29.9	13111	100
2025-3-7 0:2:53.246	WT901BLE68-01(48591DE3C19B)	9.001	-3.083	0.233	698.425	-720.642	932.007	-24.30	-21.13	-71.60	-44.786	-47.138	47.922	0.72440	-0.27377	0.00610	-0.63260	29.9	13111	100
2025-3-7 0:2:53.306	WT901BLE68-01(48591DE3C19B)	9.001	2.400	1.100	999.573	-283.936	701.904	-20.12	-22.72	-61.31	-44.786	-47.138	47.922	0.72440	-0.27377	0.00610	-0.63260	29.9	13111	100
2025-3-7 0:2:53.306	WT901BLE68-01(48591DE3C19B)	8.425	2.400	1.100	999.573	-283.936	701.904	-13.78	-23.54	-53.18	-44.786	-47.138	47.922	0.72440	-0.27377	0.00610	-0.63260	29.9	13111	100
2025-3-7 0:2:53.306	WT901BLE68-01(48591DE3C19B)	8.425	8.385	-0.093	658.386	598.145	141.968	-7.68	-21.28	-48.99	-44.786	-47.138	47.922	0.72440	-0.27377	0.00610	-0.63260	29.9	13111	100
2025-3-7 0:2:53.306	WT901BLE68-01(48591DE3C19B)	4.672	8.385	-0.093	658.386	598.145	141.968	-1.83	-15.41	-48.21	-44.786	-47.138	47.922	0.72440	-0.27377	0.00610	-0.63260	29.9	13111	100
2025-3-7 0:2:53.335	WT901BLE68-01(48591DE3C19B)	4.672	12.305	-4.238	158.813	606.628	-166.748	1.81	-9.65	-48.54	-44.786	-47.138	47.922	0.72440	-0.27377	0.00610	-0.63260	29.9	13111	100
2025-3-7 0:2:53.335	WT901BLE68-01(48591DE3C19B)	7.588	12.305	-4.238	158.813	606.628	-166.748	3.17	-3.87	-50.26	-44.786	-47.138	47.922	0.72440	-0.27377	0.00610	-0.63260	29.9	13111	100
2025-3-7 0:2:53.335	WT901BLE68-01(48591DE3C19B)	7.588	8.271	-2.642	-71.106	-198.364	-694.702	3.38	-1.99	-54.77	-44.786	-47.138	47.922	0.72440	-0.27377	0.00610	-0.63260	29.9	13111	100
2025-3-7 0:2:53.335	WT901BLE68-01(48591DE3C19B)	9.051	8.271	-2.642	-71.106	-198.364	-694.702	2.77	-4.06	-62.14	-44.786	-47.138	47.922	0.72440	-0.27377	0.00610	-0.63260	29.9	13111	100
2025-3-7 0:2:53.366	WT901BLE68-01(48591DE3C19B)	9.051	-4.216	1.426	-189.941	-304.321	-1090.027	2.11	-6.67	-71.50	-44.786	-47.138	47.922	0.72440	-0.27377	0.00610	-0.63260	29.9	13111	100
2025-3-7 0:2:53.366	WT901BLE68-01(48591DE3C19B)	1.896	-4.216	1.426	-189.941	-304.321	-1090.027	1.61	-9.83	-82.85	-44.786	-47.138	47.922	0.72440	-0.27377	0.00610	-0.63260	29.9	13111	100
2025-3-7 0:2:53.366	WT901BLE68-01(48591DE3C19B)	1.896	-7.604	-1.246	-897.644	188.599	-697.327	-2.26	-10.74	-92.18	-44.786	-47.138	47.922	0.72440	-0.27377	0.00610	-0.63260	29.9	13111	100
2025-3-7 0:2:53.366	WT901BLE68-01(48591DE3C19B)	-4.354	-7.604	-1.246	-897.644	188.599	-697.327	-10.08	-10.09	-99.53	-44.786	-47.138	47.922	0.72440	-0.27377	0.00610	-0.63260	29.9	13111	100
2025-3-7 0:2:53.426	WT901BLE68-01(48591DE3C19B)	-4.354	-10.382	-5.078	-678.772	335.327	-383.118	-17.08	-9.27	-105.54	-44.786	-47.138	47.922	0.72440	-0.27377	0.00610	-0.63260	29.9	13111	100
2025-3-7 0:2:53.427	WT901BLE68-01(48591DE3C19B)	-5.602	-10.382	-5.078	-678.772	335.327	-383.118	-23.34	-7.92	-110.28	-44.786	-47.138	47.922	0.72440	-0.27377	0.00610	-0.63260	29.9	13111	100
2025-3-7 0:2:53.427	WT901BLE68-01(48591DE3C19B)	-5.602	-11.873	-4.225	149.475	-445.618	10.315	-26.05	-9.62	-111.55	-44.786	-47.138	47.922	0.72440	-0.27377	0.00610	-0.63260	29.9	13111	100
2025-3-7 0:2:53.427	WT901BLE68-01(48591DE3C19B)	-1.376	-11.873	-4.225	149.475	-445.618	10.315	-25.29	-13.96	-109.27	-44.786	-47.138	47.922	0.72440	-0.27377	0.00610	-0.63260	29.9	13111	100
2025-3-7 0:2:53.455	WT901BLE68-01(48591DE3C19B)	-1.376	-8.619	-1.054	340.759	-698.364	623.169	-24.81	-18.13	-103.49	-30.772	-41.846	43.904	0.72440	-0.27377	0.00610	-0.63260	29.9	13111	100
2025-3-7 0:2:53.456	WT901BLE68-01(48591DE3C19B)	3.792	-8.619	-1.054	340.759	-698.364	623.169	-24.97	-22.10	-94.07	-30.772	-41.846	43.904	0.72440	-0.27377	0.00610	-0.63260	29.9	13111	100
2025-3-7 0:2:53.456	WT901BLE68-01(48591DE3C19B)	3.792	-5.435	-0.298	192.139	-530.701	999.023	-27.13	-24.29	-82.94	-30.772	-41.846	43.904	0.72440	-0.27377	0.00610	-0.63260	29.9	13111	100
2025-3-7 0:2:53.456	WT901BLE68-01(48591DE3C19B)	8.038	-5.435	-0.298	192.139	-530.701	999.023	-30.76	-24.22	-70.34	-30.772	-41.846	43.904	0.72440	-0.27377	0.00610	-0.63260	29.9	13111	100
2025-3-7 0:2:53.486	WT901BLE68-01(48591DE3C19B)	8.038	-1.032	2.114	382.202	-394.043	866.150	-32.88	-23.25	-58.91	-30.772	-41.846	43.904	0.72440	-0.27377	0.00610	-0.63260	29.9	13111	100
2025-3-7 0:2:53.486	WT901BLE68-01(48591DE3C19B)	9.701	-1.032	2.114	382.202	-394.043	866.150	-33.37	-21.88	-48.73	-30.772	-41.846	43.904	0.72440	-0.27377	0.00610	-0.63260	29.9	13111	100
2025-3-7 0:2:53.486	WT901BLE68-01(48591DE3C19B)	9.701	6.085	2.170	744.446	45.898	407.837	-30.57	-19.93	-42.05	-30.772	-41.846	43.904	0.72440	-0.27377	0.00610	-0.63260	29.9	13111	100
2025-3-7 0:2:53.486	WT901BLE68-01(48591DE3C19B)	7.932	6.085	2.170	744.446	45.898	407.837	-24.68	-17.75	-38.63	-30.772	-41.846	43.904	0.72440	-0.27377	0.00610	-0.63260	29.9	13111	100
2025-3-7 0:2:53.546	WT901BLE68-01(48591DE3C19B)	7.932	10.501	-1.869	177.307	371.765	-18.677	-20.79	-15.22	-37.79	-30.772	-41.846	43.904	0.72440	-0.27377	0.00610	-0.63260	29.9	13111	100
2025-3-7 0:2:53.547	WT901BLE68-01(48591DE3C19B)	7.301	10.501	-1.869	177.307	371.765	-18.677	-19.04	-12.05	-39.53	-30.772	-41.846	43.904	0.72440	-0.27377	0.00610	-0.63260	29.9	13111	100
2025-3-7 0:2:53.547	WT901BLE68-01(48591DE3C19B)	7.301	9.226	-1.790	-73.181	64.453	-599.854	-18.16	-11.29	-43.51	-30.772	-41.846	43.904	0.72440	-0.27377	0.00610	-0.63260	29.9	13111	100
2025-3-7 0:2:53.547	WT901BLE68-01(48591DE3C19B)	8.802	9.226	-1.790	-73.181	64.453	-599.854	-17.92	-12.93	-49.82	-30.772	-41.846	43.904	0.72440	-0.27377	0.00610	-0.63260	29.9	13111	100
2025-3-7 0:2:53.575	WT901BLE68-01(48591DE3C19B)	8.802	-0.109	-0.140	-250.061	38.696	-1123.230	-17.66	-15.49	-58.69	-30.772	-41.846	43.904	0.72440	-0.27377	0.00610	-0.63260	29.9	13111	100
2025-3-7 0:2:53.575	WT901BLE68-01(48591DE3C19B)	3.209	-0.109	-0.140	-250.061	38.696	-1123.230	-17.00	-18.90	-70.25	-30.772	-41.846	43.904	0.72440	-0.27377	0.00610	-0.63260	29.9	13111	100
2025-3-7 0:2:53.575	WT901BLE68-01(48591DE3C19B)	3.209	-7.113	-1.555	-586.487	254.395	-879.150	-17.67	-20.82	-81.08	-30.772	-41.846	43.904	0.72440	-0.27377	0.00610	-0.63260	29.9	13111	100
2025-3-7 0:2:53.575	WT901BLE68-01(48591DE3C19B)	-2.577	-7.113	-1.555	-586.487	254.395	-879.150	-20.14	-21.67	-90.99	-30.772	-41.846	43.904	0.72440	-0.27377	0.00610	-0.63260	29.9	13111	100
2025-3-7 0:2:53.608	WT901BLE68-01(48591DE3C19B)	-2.577	-11.691	-4.465	-191.956	224.670	-741.821	-20.76	-22.71	-100.12	-30.772	-41.846	43.904	0.72440	-0.27377	0.00610	-0.63260	29.9	13111	100
2025-3-7 0:2:53.608	WT901BLE68-01(48591DE3C19B)	-6.364	-11.691	-4.465	-191.956	224.670	-741.821	-19.60	-23.54	-108.47	-30.772	-41.846	43.904	0.72440	-0.27377	0.00610	-0.63260	29.9	13111	100
2025-3-7 0:2:53.608	WT901BLE68-01(48591DE3C19B)	-6.364	-14.500	-3.043	282.349	-363.037	-30.640	-17.50	-27.42	-107.37	-30.772	-41.846	43.904	0.72440	-0.27377	0.00610	-0.63260	29.9	13111	100
2025-3-7 0:2:53.608	WT901BLE68-01(48591DE3C19B)	-1.763	-14.500	-3.043	282.349	-363.037	-30.640	-15.50	-31.25	-106.27	-30.772	-41.846	43.904	0.72440	-0.27377	0.00610	-0.63260	29.9	13111	100
2025-3-7 0:2:53.666	WT901BLE68-01(48591DE3C19B)	-1.763	-10.935	-0.679	307.617	-464.783	723.328	-18.17	-33.82	-96.16	-30.772	-41.846	43.904	0.72440	-0.27377	0.00610	-0.63260	29.9	13111	100
2025-3-7 0:2:53.666	WT901BLE68-01(48591DE3C19B)	4.334	-10.935	-0.679	307.617	-464.783	723.328	-21.43	-35.87	-85.64	-30.772	-41.846	43.904	0.67825	-0.34549	-0.10065	-0.64059	29.9	13111	100
2025-3-7 0:2:53.666	WT901BLE68-01(48591DE3C19B)	4.334	-5.574	0.419	195.557	-334.534	1049.500	-27.70	-34.61	-71.99	-30.772	-41.846	43.904	0.67825	-0.34549	-0.10065	-0.64059	29.9	13111	100
2025-3-7 0:2:53.666	WT901BLE68-01(48591DE3C19B)	8.756	-5.574	0.419	195.557	-334.534	1049.500	-33.28	-32.17	-58.97	-30.772	-41.846	43.904	0.67825	-0.34549	-0.10065	-0.64059	29.9	13111	100
2025-3-7 0:2:53.703	WT901BLE68-01(48591DE3C19B)	8.756	0.627	2.955	314.636	-86.670	889.404	-35.05	-27.90	-49.89	-30.772	-41.846	43.904	0.67825	-0.34549	-0.10065	-0.64059	29.9	13111	100
2025-3-7 0:2:53.703	WT901BLE68-01(48591DE3C19B)	9.871	0.627	2.955	314.636	-86.670	889.404	-35.97	-23.47	-41.38	-30.772	-41.846	43.904	0.67825	-0.34549	-0.10065	-0.64059	29.9	13111	100
2025-3-7 0:2:53.703	WT901BLE68-01(48591DE3C19B)	9.871	7.302	0.505	627.625	147.888	426.453	-31.12	-19.98	-38.59	-30.772	-41.846	43.904	0.67825	-0.34549	-0.10065	-0.64059	29.9	13111	100
2025-3-7 0:2:53.703	WT901BLE68-01(48591DE3C19B)	8.579	7.302	0.505	627.625	147.888	426.453	-26.20	-16.80	-35.63	-30.772	-41.846	43.904	0.67825	-0.34549	-0.10065	-0.64059	29.9	13111	100
2025-3-7 0:2:53.725	WT901BLE68-01(48591DE3C19B)	8.579	12.877	-2.269	256.287	195.313	-175.354	-23.27	-16.00	-38.39	-30.772	-41.846	43.904	0.67825	-0.34549	-0.10065	-0.64059	29.9	13111	100
2025-3-7 0:2:53.725	WT901BLE68-01(48591DE3C19B)	9.375	12.877	-2.269	256.287	195.313	-175.354	-20.37	-15.17	-41.11	-30.772	-41.846	43.904	0.67825	-0.34549	-0.10065	-0.64059	29.9	13111	100
2025-3-7 0:2:53.725	WT901BLE68-01(48591DE3C19B)	9.375	8.864	-0.633	-93.872	44.495	-904.602	-18.97	-18.18	-50.41	-30.772	-41.846	43.904	0.67825	-0.34549	-0.10065	-0.64059	29.9	13111	100
2025-3-7 0:2:53.725	WT901BLE68-01(48591DE3C19B)	9.102	8.864	-0.633	-93.872	44.495	-904.602	-16.98	-20.97	-59.94	-30.772	-41.846	43.904	0.67825	-0.34549	-0.10065	-0.64059	29.9	13111	100
2025-3-7 0:2:53.785	WT901BLE68-01(48591DE3C19B)	9.102	-2.679	-0.010	-361.816	126.831	-1239.929	-15.72	-23.66	-73.38	-30.772	-41.846	43.904	0.67825	-0.34549	-0.10065	-0.64059	29.9	13111	100
2025-3-7 0:2:53.785	WT901BLE68-01(48591DE3C19B)	3.408	-2.679	-0.010	-361.816	126.831	-1239.929	-13.76	-25.99	-87.11	-30.772	-41.846	43.904	0.67825	-0.34549	-0.10065	-0.64059	29.9	13111	100
2025-3-7 0:2:53.785	WT901BLE68-01(48591DE3C19B)	3.408	-8.374	-3.228	-502.686	277.222	-1072.998	-13.47	-26.21	-99.53	-30.772	-41.846	43.904	0.67825	-0.34549	-0.10065	-0.64059	29.9	13111	100
2025-3-7 0:2:53.785	WT901BLE68-01(48591DE3C19B)	-3.828	-8.374	-3.228	-502.686	277.222	-1072.998	-13.15	-26.37	-111.90	-30.772	-41.846	43.904	0.67825	-0.34549	-0.10065	-0.64059	29.9	13111	100
2025-3-7 0:2:53.815	WT901BLE68-01(48591DE3C19B)	-3.828	-15.790	-3.359	177.124	-126.526	-559.265	-8.80	-29.05	-117.76	-30.772	-41.846	43.904	0.67825	-0.34549	-0.10065	-0.64059	29.9	13111	100
2025-3-7 0:2:53.815	WT901BLE68-01(48591DE3C19B)	-3.715	-15.790	-3.359	177.124	-126.526	-559.265	-4.16	-31.29	-123.85	-30.772	-41.846	43.904	0.67825	-0.34549	-0.10065	-0.64059	29.9	13111	100
2025-3-7 0:2:53.815	WT901BLE68-01(48591DE3C19B)	-3.715	-14.669	-0.872	318.298	-371.094	373.291	-3.94	-35.05	-118.85	-30.772	-41.846	43.904	0.67825	-0.34549	-0.10065	-0.64059	29.9	13111	100
2025-3-7 0:2:53.815	WT901BLE68-01(48591DE3C19B)	1.476	-14.669	-0.872	318.298	-371.094	373.291	-4.21	-38.74	-113.54	-30.772	-41.846	43.904	0.67825	-0.34549	-0.10065	-0.64059	29.9	13111	100
2025-3-7 0:2:53.846	WT901BLE68-01(48591DE3C19B)	1.476	-9.721	0.026	187.134	-318.542	955.444	-11.10	-40.83	-100.32	-30.772	-41.846	43.904	0.67825	-0.34549	-0.10065	-0.64059	29.9	13111	100
2025-3-7 0:2:53.846	WT901BLE68-01(48591DE3C19B)	6.879	-9.721	0.026	187.134	-318.542	955.444	-18.56	-41.57	-86.62	-30.772	-41.846	43.904	0.67825	-0.34549	-0.10065	-0.64059	29.9	13111	100
2025-3-7 0:2:53.846	WT901BLE68-01(48591DE3C19B)	6.879	-4.337	1.443	174.561	-234.314	1152.771	-27.14	-39.29	-71.23	-31.850	-42.532	38.906	0.67825	-0.34549	-0.10065	-0.64059	29.9	13111	100
2025-3-7 0:2:53.846	WT901BLE68-01(48591DE3C19B)	10.390	-4.337	1.443	174.561	-234.314	1152.771	-34.29	-35.40	-57.16	-31.850	-42.532	38.906	0.67825	-0.34549	-0.10065	-0.64059	29.9	13111	100
2025-3-7 0:2:53.905	WT901BLE68-01(48591DE3C19B)	10.390	4.785	1.954	451.660	27.283	839.294	-34.50	-30.47	-49.11	-31.850	-42.532	38.906	0.67825	-0.34549	-0.10065	-0.64059	29.9	13111	100
2025-3-7 0:2:53.905	WT901BLE68-01(48591DE3C19B)	10.133	4.785	1.954	451.660	27.283	839.294	-33.91	-25.60	-41.54	-31.850	-42.532	38.906	0.67825	-0.34549	-0.10065	-0.64059	29.9	13111	100
2025-3-7 0:2:53.905	WT901BLE68-01(48591DE3C19B)	10.133	12.448	-1.523	341.980	131.775	288.818	-31.58	-23.09	-39.85	-31.850	-42.532	38.906	0.67825	-0.34549	-0.10065	-0.64059	29.9	13111	100
2025-3-7 0:2:53.905	WT901BLE68-01(48591DE3C19B)	8.638	12.448	-1.523	341.980	131.775	288.818	-29.20	-20.74	-38.10	-31.850	-42.532	38.906	0.67825	-0.34549	-0.10065	-0.64059	29.9	13111	100
2025-3-7 0:2:53.936	WT901BLE68-01(48591DE3C19B)	8.638	14.042	-2.405	62.195	83.618	-594.116	-26.59	-23.10	-44.41	-31.850	-42.532	38.906	0.67825	-0.34549	-0.10065	-0.64059	29.9	13111	100
2025-3-7 0:2:53.936	WT901BLE68-01(48591DE3C19B)	11.461	14.042	-2.405	62.195	83.618	-594.116	-23.61	-25.24	-50.93	-31.850	-42.532	38.906	0.67825	-0.34549	-0.10065	-0.64059	29.9	13111	100
2025-3-7 0:2:53.936	WT901BLE68-01(48591DE3C19B)	11.461	4.167	0.212	-209.229	-12.085	-1186.768	-20.09	-30.17	-63.53	-31.850	-42.532	38.906	0.67825	-0.34549	-0.10065	-0.64059	29.9	13111	100
2025-3-7 0:2:53.936	WT901BLE68-01(48591DE3C19B)	5.870	4.167	0.212	-209.229	-12.085	-1186.768	-15.17	-34.28	-77.05	-31.850	-42.532	38.906	0.67825	-0.34549	-0.10065	-0.64059	29.9	13111	100
2025-3-7 0:2:53.964	WT901BLE68-01(48591DE3C19B)	5.870	-7.685	-0.482	-655.273	42.725	-966.614	-15.07	-36.74	-88.80	-31.850	-42.532	38.906	0.67825	-0.34549	-0.10065	-0.64059	29.9	13111	100
2025-3-7 0:2:53.965	WT901BLE68-01(48591DE3C19B)	-3.458	-7.685	-0.482	-655.273	42.725	-966.614	-14.33	-39.11	-100.87	-31.850	-42.532	38.906	0.67825	-0.34549	-0.10065	-0.64059	29.9	13111	100
2025-3-7 0:2:53.965	WT901BLE68-01(48591DE3C19B)	-3.458	-14.944	-3.361	-158.264	204.163	-618.713	-10.82	-38.78	-109.20	-31.850	-42.532	38.906	0.67825	-0.34549	-0.10065	-0.64059	29.9	13111	100
2025-3-7 0:2:53.965	WT901BLE68-01(48591DE3C19B)	-5.106	-14.944	-3.361	-158.264	204.163	-618.713	-7.53	-38.05	-117.31	-31.850	-42.532	38.906	0.67825	-0.34549	-0.10065	-0.64059	29.9	13111	100
2025-3-7 0:2:54.26	WT901BLE68-01(48591DE3C19B)	-5.106	-14.668	-2.416	369.141	-300.903	90.942	-5.21	-41.22	-115.50	-31.850	-42.532	38.906	0.67825	-0.34549	-0.10065	-0.64059	29.9	13111	100
2025-3-7 0:2:54.26	WT901BLE68-01(48591DE3C19B)	-1.562	-14.668	-2.416	369.141	-300.903	90.942	-3.02	-44.38	-113.66	-31.850	-42.532	38.906	0.67825	-0.34549	-0.10065	-0.64059	29.9	13111	100
2025-3-7 0:2:54.26	WT901BLE68-01(48591DE3C19B)	-1.562	-11.342	0.333	173.401	-292.603	683.289	-9.08	-46.76	-103.13	-31.850	-42.532	38.906	0.67825	-0.34549	-0.10065	-0.64059	29.9	13111	100
2025-3-7 0:2:54.26	WT901BLE68-01(48591DE3C19B)	4.185	-11.342	0.333	173.401	-292.603	683.289	-15.91	-48.24	-91.91	-31.850	-42.532	38.906	0.67825	-0.34549	-0.10065	-0.64059	29.9	13111	100
2025-3-7 0:2:54.54	WT901BLE68-01(48591DE3C19B)	4.185	-4.792	0.975	109.131	-176.270	893.066	-25.20	-46.77	-78.25	-31.850	-42.532	38.906	0.64020	-0.39975	-0.17413	-0.63239	29.9	13111	100
2025-3-7 0:2:54.55	WT901BLE68-01(48591DE3C19B)	8.133	-4.792	0.975	109.131	-176.270	893.066	-33.34	-43.90	-65.70	-31.850	-42.532	38.906	0.64020	-0.39975	-0.17413	-0.63239	29.9	13111	100
2025-3-7 0:2:54.55	WT901BLE68-01(48591DE3C19B)	8.835	3.506	2.306	204.956	-28.870	710.449	-37.05	-40.02	-57.58	-31.850	-42.532	38.906	0.64020	-0.39975	-0.17413	-0.63239	29.9	13111	100
2025-3-7 0:2:54.55	WT901BLE68-01(48591DE3C19B)	8.835	11.569	-0.261	332.520	72.998	300.171	-37.74	-36.77	-52.67	-31.850	-42.532	38.906	0.64020	-0.39975	-0.17413	-0.63239	29.9	13111	100
2025-3-7 0:2:54.85	WT901BLE68-01(48591DE3C19B)	8.349	11.569	-0.261	332.520	72.998	300.171	-36.11	-34.50	-50.35	-31.850	-42.532	38.906	0.64020	-0.39975	-0.17413	-0.63239	29.9	13111	100
2025-3-7 0:2:54.85	WT901BLE68-01(48591DE3C19B)	8.349	15.275	-1.418	127.808	19.714	-429.749	-33.51	-34.67	-51.50	-31.850	-42.532	38.906	0.64020	-0.39975	-0.17413	-0.63239	29.9	13111	100
2025-3-7 0:2:54.85	WT901BLE68-01(48591DE3C19B)	9.890	15.275	-1.418	127.808	19.714	-429.749	-29.70	-37.07	-56.32	-31.850	-42.532	38.906	0.64020	-0.39975	-0.17413	-0.63239	29.9	13111	100
2025-3-7 0:2:54.86	WT901BLE68-01(48591DE3C19B)	9.890	6.055	0.191	-257.202	109.985	-917.847	-25.44	-39.93	-64.57	-31.850	-42.532	38.906	0.64020	-0.39975	-0.17413	-0.63239	29.9	13111	100
2025-3-7 0:2:54.146	WT901BLE68-01(48591DE3C19B)	5.584	6.055	0.191	-257.202	109.985	-917.847	-20.21	-42.84	-76.62	-31.850	-42.532	38.906	0.64020	-0.39975	-0.17413	-0.63239	29.9	13111	100
2025-3-7 0:2:54.146	WT901BLE68-01(48591DE3C19B)	5.584	-5.632	-0.864	-615.662	257.141	-789.429	-16.29	-44.03	-88.81	-31.850	-42.532	38.906	0.64020	-0.39975	-0.17413	-0.63239	29.9	13111	100
2025-3-7 0:2:54.146	WT901BLE68-01(48591DE3C19B)	-3.135	-5.632	-0.864	-615.662	257.141	-789.429	-14.45	-43.96	-100.48	-31.850	-42.532	38.906	0.64020	-0.39975	-0.17413	-0.63239	29.9	13111	100
2025-3-7 0:2:54.146	WT901BLE68-01(48591DE3C19B)	-3.135	-14.482	-3.485	-64.697	249.878	-582.458	-10.95	-43.37	-110.58	-31.850	-42.532	38.906	0.64020	-0.39975	-0.17413	-0.63239	29.9	13111	100
2025-3-7 0:2:54.175	WT901BLE68-01(48591DE3C19B)	-5.799	-14.482	-3.485	-64.697	249.878	-582.458	-6.09	-42.06	-118.88	-31.850	-42.532	38.906	0.64020	-0.39975	-0.17413	-0.63239	29.9	13111	100
2025-3-7 0:2:54.175	WT901BLE68-01(48591DE3C19B)	-5.799	-14.862	-2.441	366.638	-279.053	17.212	-2.34	-42.75	-122.52	-31.850	-42.532	38.906	0.64020	-0.39975	-0.17413	-0.63239	29.9	13111	100
2025-3-7 0:2:54.175	WT901BLE68-01(48591DE3C19B)	-2.120	-14.862	-2.441	366.638	-279.053	17.212	0.68	-45.81	-121.92	-31.850	-42.532	38.906	0.64020	-0.39975	-0.17413	-0.63239	29.9	13111	100
2025-3-7 0:2:54.175	WT901BLE68-01(48591DE3C19B)	-2.120	-11.821	0.263	106.689	-241.028	637.573	-1.09	-48.69	-116.67	-31.850	-42.532	38.906	0.64020	-0.39975	-0.17413	-0.63239	29.9	13111	100
2025-3-7 0:2:54.207	WT901BLE68-01(48591DE3C19B)	3.646	-11.821	0.263	106.689	-241.028	637.573	-8.40	-50.72	-106.03	-31.850	-42.532	38.906	0.64020	-0.39975	-0.17413	-0.63239	29.9	13111	100
2025-3-7 0:2:54.207	WT901BLE68-01(48591DE3C19B)	3.646	-5.772	0.544	54.871	-194.580	875.244	-17.98	-51.21	-93.01	-31.850	-42.532	38.906	0.64020	-0.39975	-0.17413	-0.63239	29.9	13111	100
2025-3-7 0:2:54.208	WT901BLE68-01(48591DE3C19B)	8.455	-5.772	0.544	54.871	-194.580	875.244	-28.69	-49.51	-78.77	-31.850	-42.532	38.906	0.64020	-0.39975	-0.17413	-0.63239	29.9	13111	100
2025-3-7 0:2:54.208	WT901BLE68-01(48591DE3C19B)	8.455	2.695	2.403	110.107	-37.781	754.150	-36.62	-46.02	-67.35	-31.850	-42.532	38.906	0.64020	-0.39975	-0.17413	-0.63239	29.9	13111	100
2025-3-7 0:2:54.266	WT901BLE68-01(48591DE3C19B)	9.360	2.695	2.403	110.107	-37.781	754.150	-41.70	-41.50	-58.80	-31.850	-42.532	38.906	0.64020	-0.39975	-0.17413	-0.63239	29.9	13111	100
2025-3-7 0:2:54.266	WT901BLE68-01(48591DE3C19B)	9.360	11.394	0.834	343.018	70.557	342.957	-42.97	-37.67	-53.74	-34.398	-48.314	37.534	0.64020	-0.39975	-0.17413	-0.63239	29.9	13111	100
2025-3-7 0:2:54.266	WT901BLE68-01(48591DE3C19B)	8.516	11.394	0.834	343.018	70.557	342.957	-41.30	-34.96	-51.27	-34.398	-48.314	37.534	0.64020	-0.39975	-0.17413	-0.63239	29.9	13111	100
2025-3-7 0:2:54.266	WT901BLE68-01(48591DE3C19B)	8.516	15.795	-1.224	167.297	37.170	-318.604	-38.78	-34.68	-51.76	-34.398	-48.314	37.534	0.64020	-0.39975	-0.17413	-0.63239	29.9	13111	100
2025-3-7 0:2:54.302	WT901BLE68-01(48591DE3C19B)	10.462	15.795	-1.224	167.297	37.170	-318.604	-35.26	-36.63	-55.34	-34.398	-48.314	37.534	0.64020	-0.39975	-0.17413	-0.63239	29.9	13111	100
2025-3-7 0:2:54.303	WT901BLE68-01(48591DE3C19B)	10.462	7.337	0.894	-311.035	135.254	-874.878	-31.74	-39.53	-62.51	-34.398	-48.314	37.534	0.64020	-0.39975	-0.17413	-0.63239	29.9	13111	100
2025-3-7 0:2:54.303	WT901BLE68-01(48591DE3C19B)	5.790	7.337	0.894	-311.035	135.254	-874.878	-27.57	-43.05	-73.72	-34.398	-48.314	37.534	0.64020	-0.39975	-0.17413	-0.63239	29.9	13111	100
2025-3-7 0:2:54.303	WT901BLE68-01(48591DE3C19B)	5.790	-6.637	-0.911	-583.801	329.529	-804.565	-23.64	-44.87	-85.87	-34.398	-48.314	37.534	0.64020	-0.39975	-0.17413	-0.63239	29.9	13111	100
2025-3-7 0:2:54.328	WT901BLE68-01(48591DE3C19B)	-4.842	-6.637	-0.911	-583.801	329.529	-804.565	-20.73	-45.17	-98.31	-34.398	-48.314	37.534	0.64020	-0.39975	-0.17413	-0.63239	29.9	13111	100
2025-3-7 0:2:54.328	WT901BLE68-01(48591DE3C19B)	-4.842	-15.446	-3.842	25.391	247.192	-502.625	-16.39	-44.88	-108.45	-34.398	-48.314	37.534	0.64020	-0.39975	-0.17413	-0.63239	29.9	13111	100
2025-3-7 0:2:54.328	WT901BLE68-01(48591DE3C19B)	-6.736	-15.446	-3.842	25.391	247.192	-502.625	-10.93	-43.95	-116.05	-34.398	-48.314	37.534	0.64020	-0.39975	-0.17413	-0.63239	29.9	13111	100
2025-3-7 0:2:54.328	WT901BLE68-01(48591DE3C19B)	-6.736	-14.563	-3.389	375.854	-322.815	145.081	-7.59	-44.91	-118.25	-34.398	-48.314	37.534	0.64020	-0.39975	-0.17413	-0.63239	29.9	13111	100
2025-3-7 0:2:54.385	WT901BLE68-01(48591DE3C19B)	-1.605	-14.563	-3.389	375.854	-322.815	145.081	-6.23	-48.18	-115.25	-34.398	-48.314	37.534	0.64020	-0.39975	-0.17413	-0.63239	29.9	13111	100
2025-3-7 0:2:54.386	WT901BLE68-01(48591DE3C19B)	-1.605	-10.481	-0.388	72.937	-289.551	697.815	-10.02	-50.84	-107.69	-34.398	-48.314	37.534	0.64020	-0.39975	-0.17413	-0.63239	29.9	13111	100
2025-3-7 0:2:54.386	WT901BLE68-01(48591DE3C19B)	4.443	-10.481	-0.388	72.937	-289.551	697.815	-19.35	-51.97	-95.15	-34.398	-48.314	37.534	0.64020	-0.39975	-0.17413	-0.63239	29.9	13111	100
2025-3-7 0:2:54.386	WT901BLE68-01(48591DE3C19B)	4.443	-3.982	0.894	-41.748	-182.068	809.631	-29.72	-51.00	-82.06	-34.398	-48.314	37.534	0.64020	-0.39975	-0.17413	-0.63239	29.9	13111	100
2025-3-7 0:2:54.416	WT901BLE68-01(48591DE3C19B)	8.460	-3.982	0.894	-41.748	-182.068	809.631	-39.66	-47.82	-69.87	-34.398	-48.314	37.534	0.64020	-0.39975	-0.17413	-0.63239	29.9	13111	100
2025-3-7 0:2:54.416	WT901BLE68-01(48591DE3C19B)	8.460	4.433	2.747	-4.639	-31.738	609.314	-46.38	-43.69	-61.19	-34.398	-48.314	37.534	0.64020	-0.39975	-0.17413	-0.63239	29.9	13111	100
2025-3-7 0:2:54.417	WT901BLE68-01(48591DE3C19B)	8.891	4.433	2.747	-4.639	-31.738	609.314	-50.50	-39.31	-55.43	-34.398	-48.314	37.534	0.64020	-0.39975	-0.17413	-0.63239	29.9	13111	100
2025-3-7 0:2:54.417	WT901BLE68-01(48591DE3C19B)	8.891	12.726	1.832	191.589	22.156	187.439	-51.74	-36.28	-52.29	-34.398	-48.314	37.534	0.64020	-0.39975	-0.17413	-0.63239	29.9	13111	100
2025-3-7 0:2:54.446	WT901BLE68-01(48591DE3C19B)	9.280	12.726	1.832	191.589	22.156	187.439	-50.72	-34.87	-51.19	-34.398	-48.314	37.534	0.64020	-0.39975	-0.17413	-0.63239	29.9	13111	100
2025-3-7 0:2:54.446	WT901BLE68-01(48591DE3C19B)	9.280	15.316	0.788	74.402	72.205	-503.601	-48.51	-36.04	-53.06	-34.398	-48.314	37.534	0.64020	-0.39975	-0.17413	-0.63239	29.9	13111	100
2025-3-7 0:2:54.446	WT901BLE68-01(48591DE3C19B)	10.859	15.316	0.788	74.402	72.205	-503.601	-44.71	-39.56	-58.28	-34.398	-48.314	37.534	0.69739	-0.46500	-0.09900	-0.53619	29.9	13111	100
2025-3-7 0:2:54.446	WT901BLE68-01(48591DE3C19B)	10.859	3.932	1.273	-431.763	276.611	-900.391	-40.80	-43.36	-66.98	-34.398	-48.314	37.534	0.69739	-0.46500	-0.09900	-0.53619	29.9	13111	100
2025-3-7 0:2:54.536	WT901BLE68-01(48591DE3C19B)	2.695	3.932	1.273	-431.763	276.611	-900.391	-36.16	-47.15	-79.63	-34.398	-48.314	37.534	0.69739	-0.46500	-0.09900	-0.53619	29.9	13111	100
2025-3-7 0:2:54.537	WT901BLE68-01(48591DE3C19B)	2.695	-10.723	-1.829	-317.139	420.166	-754.211	-29.87	-49.05	-93.05	-34.398	-48.314	37.534	0.69739	-0.46500	-0.09900	-0.53619	29.9	13111	100
2025-3-7 0:2:54.537	WT901BLE68-01(48591DE3C19B)	-6.323	-10.723	-1.829	-317.139	420.166	-754.211	-23.04	-48.91	-106.30	-34.398	-48.314	37.534	0.69739	-0.46500	-0.09900	-0.53619	29.9	13111	100
2025-3-7 0:2:54.537	WT901BLE68-01(48591DE3C19B)	-6.323	-15.927	-4.364	397.217	-12.756	-381.958	-15.77	-49.21	-115.50	-34.398	-48.314	37.534	0.69739	-0.46500	-0.09900	-0.53619	29.9	13111	100
2025-3-7 0:2:54.538	WT901BLE68-01(48591DE3C19B)	-5.335	-15.927	-4.364	397.217	-12.756	-381.958	-7.64	-50.34	-121.09	-34.398	-48.314	37.534	0.69739	-0.46500	-0.09900	-0.53619	29.9	13111	100
2025-3-7 0:2:54.538	WT901BLE68-01(48591DE3C19B)	-5.335	-14.138	-1.311	233.215	-281.799	327.454	-10.37	-52.80	-114.85	-34.398	-48.314	37.534	0.69739	-0.46500	-0.09900	-0.53619	29.9	13111	100
2025-3-7 0:2:54.538	WT901BLE68-01(48591DE3C19B)	-0.284	-14.138	-1.311	233.215	-281.799	327.454	-13.83	-54.99	-107.92	-34.398	-48.314	37.534	0.69739	-0.46500	-0.09900	-0.53619	29.9	13111	100
2025-3-7 0:2:54.538	WT901BLE68-01(48591DE3C19B)	-0.284	-9.528	-0.787	16.724	-182.495	781.616	-25.52	-54.12	-93.63	-34.398	-48.314	37.534	0.69739	-0.46500	-0.09900	-0.53619	29.9	13111	100
2025-3-7 0:2:54.602	WT901BLE68-01(48591DE3C19B)	6.151	-9.528	-0.787	16.724	-182.495	781.616	-36.06	-51.64	-80.49	-34.398	-48.314	37.534	0.69739	-0.46500	-0.09900	-0.53619	29.9	13111	100
2025-3-7 0:2:54.602	WT901BLE68-01(48591DE3C19B)	6.151	-2.112	1.122	-22.034	-108.154	809.814	-44.74	-47.14	-69.63	-34.398	-48.314	37.534	0.69739	-0.46500	-0.09900	-0.53619	29.9	13111	100
2025-3-7 0:2:54.602	WT901BLE68-01(48591DE3C19B)	9.171	-2.112	1.122	-22.034	-108.154	809.814	-51.39	-41.78	-60.78	-34.398	-48.314	37.534	0.69739	-0.46500	-0.09900	-0.53619	29.9	13111	100
2025-3-7 0:2:54.602	WT901BLE68-01(48591DE3C19B)	9.171	6.893	2.614	42.908	29.358	551.025	-53.77	-37.23	-56.72	-34.398	-48.314	37.534	0.69739	-0.46500	-0.09900	-0.53619	29.9	13111	100
2025-3-7 0:2:54.626	WT901BLE68-01(48591DE3C19B)	8.663	6.893	2.614	42.908	29.358	551.025	-55.57	-32.66	-53.18	-34.398	-48.314	37.534	0.69739	-0.46500	-0.09900	-0.53619	29.9	13111	100
2025-3-7 0:2:54.626	WT901BLE68-01(48591DE3C19B)	8.663	14.236	0.581	284.607	21.851	67.017	-53.01	-32.21	-53.05	-34.398	-48.314	37.534	0.69739	-0.46500	-0.09900	-0.53619	29.9	13111	100
2025-3-7 0:2:54.626	WT901BLE68-01(48591DE3C19B)	9.264	14.236	0.581	284.607	21.851	67.017	-50.42	-31.87	-52.92	-34.398	-48.314	37.534	0.69739	-0.46500	-0.09900	-0.53619	29.9	13111	100
2025-3-7 0:2:54.626	WT901BLE68-01(48591DE3C19B)	9.264	13.850	1.153	7.996	43.701	-629.211	-47.32	-36.70	-58.49	-34.398	-48.314	37.534	0.69739	-0.46500	-0.09900	-0.53619	29.9	13111	100
2025-3-7 0:2:54.655	WT901BLE68-01(48591DE3C19B)	9.876	13.850	1.153	7.996	43.701	-629.211	-43.35	-41.26	-64.76	-34.398	-48.314	37.534	0.69739	-0.46500	-0.09900	-0.53619	29.9	13111	100
2025-3-7 0:2:54.656	WT901BLE68-01(48591DE3C19B)	9.876	0.828	1.121	-500.732	303.711	-903.015	-39.99	-45.36	-76.98	-34.398	-48.314	37.534	0.69739	-0.46500	-0.09900	-0.53619	29.9	13111	100
2025-3-7 0:2:54.656	WT901BLE68-01(48591DE3C19B)	0.868	0.828	1.121	-500.732	303.711	-903.015	-35.16	-48.78	-90.37	-32.340	-46.844	39.984	0.69739	-0.46500	-0.09900	-0.53619	29.9	13111	100
2025-3-7 0:2:54.656	WT901BLE68-01(48591DE3C19B)	0.868	-12.152	-1.761	-301.453	410.095	-710.754	-28.61	-49.32	-103.00	-32.340	-46.844	39.984	0.69739	-0.46500	-0.09900	-0.53619	29.9	13111	100
2025-3-7 0:2:54.715	WT901BLE68-01(48591DE3C19B)	-6.740	-12.152	-1.761	-301.453	410.095	-710.754	-22.15	-48.90	-115.51	-32.340	-46.844	39.984	0.69739	-0.46500	-0.09900	-0.53619	29.9	13111	100
2025-3-7 0:2:54.716	WT901BLE68-01(48591DE3C19B)	-6.740	-16.000	-4.271	383.423	-26.855	-189.270	-16.49	-49.99	-117.99	-32.340	-46.844	39.984	0.69739	-0.46500	-0.09900	-0.53619	29.9	13111	100
2025-3-7 0:2:54.716	WT901BLE68-01(48591DE3C19B)	-4.909	-16.000	-4.271	383.423	-26.855	-189.270	-10.89	-50.90	-120.46	-32.340	-46.844	39.984	0.69739	-0.46500	-0.09900	-0.53619	29.9	13111	100
2025-3-7 0:2:54.716	WT901BLE68-01(48591DE3C19B)	-4.909	-14.326	-1.811	243.774	-312.317	496.704	-16.08	-52.93	-110.99	-32.340	-46.844	39.984	0.69739	-0.46500	-0.09900	-0.53619	29.9	13111	100
2025-3-7 0:2:54.745	WT901BLE68-01(48591DE3C19B)	1.525	-14.326	-1.811	243.774	-312.317	496.704	-22.06	-54.34	-100.78	-32.340	-46.844	39.984	0.69739	-0.46500	-0.09900	-0.53619	29.9	13111	100
2025-3-7 0:2:54.745	WT901BLE68-01(48591DE3C19B)	1.525	-8.831	-0.552	91.858	-264.465	918.396	-34.34	-52.31	-84.59	-32.340	-46.844	39.984	0.69739	-0.46500	-0.09900	-0.53619	29.9	13111	100
2025-3-7 0:2:54.745	WT901BLE68-01(48591DE3C19B)	8.116	-8.831	-0.552	91.858	-264.465	918.396	-44.56	-48.42	-70.44	-32.340	-46.844	39.984	0.69739	-0.46500	-0.09900	-0.53619	29.9	13111	100
2025-3-7 0:2:54.745	WT901BLE68-01(48591DE3C19B)	8.116	-0.294	1.254	-65.979	-125.610	964.539	-52.93	-41.90	-59.89	-32.340	-46.844	39.984	0.69739	-0.46500	-0.09900	-0.53619	29.9	13111	100
2025-3-7 0:2:54.775	WT901BLE68-01(48591DE3C19B)	11.252	-0.294	1.254	-65.979	-125.610	964.539	-58.93	-34.57	-51.64	-32.340	-46.844	39.984	0.69739	-0.46500	-0.09900	-0.53619	29.9	13111	100
2025-3-7 0:2:54.775	WT901BLE68-01(48591DE3C19B)	11.252	9.799	0.987	80.566	-95.215	550.598	-60.61	-30.35	-47.43	-32.340	-46.844	39.984	0.69739	-0.46500	-0.09900	-0.53619	29.9	13111	100
2025-3-7 0:2:54.776	WT901BLE68-01(48591DE3C19B)	10.834	9.799	0.987	80.566	-95.215	550.598	-61.86	-26.15	-43.59	-32.340	-46.844	39.984	0.69739	-0.46500	-0.09900	-0.53619	29.9	13111	100
2025-3-7 0:2:54.776	WT901BLE68-01(48591DE3C19B)	10.834	15.729	-0.088	144.531	-64.819	-141.785	-60.52	-27.99	-43.85	-32.340	-46.844	39.984	0.69739	-0.46500	-0.09900	-0.53619	29.9	13111	100
2025-3-7 0:2:54.836	WT901BLE68-01(48591DE3C19B)	11.496	15.729	-0.088	144.531	-64.819	-141.785	-59.13	-29.91	-44.17	-32.340	-46.844	39.984	0.69739	-0.46500	-0.09900	-0.53619	29.9	13111	100
2025-3-7 0:2:54.836	WT901BLE68-01(48591DE3C19B)	11.496	9.142	1.528	-175.354	178.101	-966.492	-56.52	-37.53	-52.28	-32.340	-46.844	39.984	0.69739	-0.46500	-0.09900	-0.53619	29.9	13111	100
2025-3-7 0:2:54.836	WT901BLE68-01(48591DE3C19B)	7.265	9.142	1.528	-175.354	178.101	-966.492	-52.09	-44.73	-61.81	-32.340	-46.844	39.984	0.69739	-0.46500	-0.09900	-0.53619	29.9	13111	100
2025-3-7 0:2:54.836	WT901BLE68-01(48591DE3C19B)	7.265	-6.666	0.291	-421.692	403.320	-981.323	-46.01	-49.84	-75.90	-32.340	-46.844	39.984	0.69739	-0.46500	-0.09900	-0.53619	29.9	13111	100
2025-3-7 0:2:54.864	WT901BLE68-01(48591DE3C19B)	-3.856	-6.666	0.291	-421.692	403.320	-981.323	-37.48	-53.64	-92.16	-32.340	-46.844	39.984	0.46295	-0.49490	-0.09772	-0.72873	29.9	13111	100
2025-3-7 0:2:54.865	WT901BLE68-01(48591DE3C19B)	-3.856	-15.344	-2.252	4.578	308.044	-622.559	-27.93	-54.62	-103.95	-32.340	-46.844	39.984	0.46295	-0.49490	-0.09772	-0.72873	29.9	13111	100
2025-3-7 0:2:54.865	WT901BLE68-01(48591DE3C19B)	-6.872	-15.344	-2.252	4.578	308.044	-622.559	-18.36	-54.40	-115.74	-32.340	-46.844	39.984	0.46295	-0.49490	-0.09772	-0.72873	29.9	13111	100
2025-3-7 0:2:54.865	WT901BLE68-01(48591DE3C19B)	-6.872	-14.472	-3.372	431.580	-209.717	24.048	-15.67	-56.48	-113.93	-32.340	-46.844	39.984	0.46295	-0.49490	-0.09772	-0.72873	29.9	13111	100
2025-3-7 0:2:54.902	WT901BLE68-01(48591DE3C19B)	-2.917	-14.472	-3.372	431.580	-209.717	24.048	-13.15	-58.56	-112.01	-32.340	-46.844	39.984	0.46295	-0.49490	-0.09772	-0.72873	29.9	13111	100
2025-3-7 0:2:54.902	WT901BLE68-01(48591DE3C19B)	-2.917	-11.146	-1.187	26.428	-211.426	634.766	-24.54	-58.56	-98.57	-32.340	-46.844	39.984	0.46295	-0.49490	-0.09772	-0.72873	29.9	13111	100
2025-3-7 0:2:54.902	WT901BLE68-01(48591DE3C19B)	3.064	-11.146	-1.187	26.428	-211.426	634.766	-35.41	-57.17	-85.64	-32.340	-46.844	39.984	0.46295	-0.49490	-0.09772	-0.72873	29.9	13111	100
2025-3-7 0:2:54.902	WT901BLE68-01(48591DE3C19B)	3.064	-5.602	0.195	-41.382	-206.055	817.566	-47.19	-53.20	-72.06	-32.340	-46.844	39.984	0.46295	-0.49490	-0.09772	-0.72873	29.9	13111	100
2025-3-7 0:2:54.988	WT901BLE68-01(48591DE3C19B)	8.189	-5.602	0.195	-41.382	-206.055	817.566	-56.14	-47.93	-61.27	-32.340	-46.844	39.984	0.46295	-0.49490	-0.09772	-0.72873	29.9	13111	100
2025-3-7 0:2:54.988	WT901BLE68-01(48591DE3C19B)	8.189	3.035	3.345	-52.429	-76.172	646.912	-60.99	-42.70	-55.45	-32.340	-46.844	39.984	0.46295	-0.49490	-0.09772	-0.72873	29.9	13111	100
2025-3-7 0:2:54.988	WT901BLE68-01(48591DE3C19B)	8.996	3.035	3.345	-52.429	-76.172	646.912	-64.73	-37.27	-50.73	-32.340	-46.844	39.984	0.46295	-0.49490	-0.09772	-0.72873	29.9	13111	100
2025-3-7 0:2:54.988	WT901BLE68-01(48591DE3C19B)	8.996	11.252	3.606	135.803	58.594	231.873	-63.84	-35.00	-50.23	-32.340	-46.844	39.984	0.46295	-0.49490	-0.09772	-0.72873	29.9	13111	100
2025-3-7 0:2:54.989	WT901BLE68-01(48591DE3C19B)	8.684	11.252	3.606	135.803	58.594	231.873	-62.91	-32.86	-49.75	-32.340	-46.844	39.984	0.46295	-0.49490	-0.09772	-0.72873	29.9	13111	100
2025-3-7 0:2:54.989	WT901BLE68-01(48591DE3C19B)	10.395	15.149	1.354	175.171	154.053	-368.774	-59.06	-35.63	-53.70	-32.340	-46.844	39.984	0.46295	-0.49490	-0.09772	-0.72873	29.9	13111	100
2025-3-7 0:2:54.989	WT901BLE68-01(48591DE3C19B)	10.395	6.194	1.807	-293.579	331.116	-828.918	-55.53	-39.66	-60.56	-32.340	-46.844	39.984	0.46295	-0.49490	-0.09772	-0.72873	29.9	13111	100
2025-3-7 0:2:54.989	WT901BLE68-01(48591DE3C19B)	3.581	6.194	1.807	-293.579	331.116	-828.918	-51.50	-44.69	-70.95	-32.340	-46.844	39.984	0.46295	-0.49490	-0.09772	-0.72873	29.9	13111	100
2025-3-7 0:2:55.18	WT901BLE68-01(48591DE3C19B)	3.581	-9.596	-2.239	-255.493	482.666	-763.245	-45.31	-48.26	-83.19	-32.340	-46.844	39.984	0.46295	-0.49490	-0.09772	-0.72873	29.9	13111	100
2025-3-7 0:2:55.18	WT901BLE68-01(48591DE3C19B)	-6.666	-9.596	-2.239	-255.493	482.666	-763.245	-37.50	-49.94	-96.89	-32.340	-46.844	39.984	0.46295	-0.49490	-0.09772	-0.72873	29.9	13111	100
2025-3-7 0:2:55.18	WT901BLE68-01(48591DE3C19B)	-6.666	-15.703	-6.125	330.688	20.691	-342.590	-29.92	-51.20	-106.28	-32.340	-46.844	39.984	0.46295	-0.49490	-0.09772	-0.72873	29.9	13111	100
2025-3-7 0:2:55.18	WT901BLE68-01(48591DE3C19B)	-4.907	-15.703	-6.125	330.688	20.691	-342.590	-22.84	-52.70	-111.19	-32.340	-46.844	39.984	0.46295	-0.49490	-0.09772	-0.72873	29.9	13111	100
2025-3-7 0:2:55.75	WT901BLE68-01(48591DE3C19B)	-4.907	-12.922	-2.708	191.467	-383.667	372.559	-21.85	-54.51	-109.40	-32.340	-46.844	39.984	0.46295	-0.49490	-0.09772	-0.72873	29.9	13111	100
2025-3-7 0:2:55.75	WT901BLE68-01(48591DE3C19B)	-0.311	-12.922	-2.708	191.467	-383.667	372.559	-27.81	-56.50	-100.05	-29.890	-40.964	42.140	0.46295	-0.49490	-0.09772	-0.72873	29.9	13111	100
2025-3-7 0:2:55.75	WT901BLE68-01(48591DE3C19B)	-0.311	-9.139	-0.420	-115.540	-281.372	779.297	-38.14	-56.19	-87.46	-29.890	-40.964	42.140	0.46295	-0.49490	-0.09772	-0.72873	29.9	13111	100
2025-3-7 0:2:55.75	WT901BLE68-01(48591DE3C19B)	5.677	-9.139	-0.420	-115.540	-281.372	779.297	-50.42	-52.66	-74.00	-29.890	-40.964	42.140	0.46295	-0.49490	-0.09772	-0.72873	29.9	13111	100
2025-3-7 0:2:55.106	WT901BLE68-01(48591DE3C19B)	5.677	-2.273	1.967	-34.851	-247.681	812.500	-59.63	-47.49	-63.22	-29.890	-40.964	42.140	0.46295	-0.49490	-0.09772	-0.72873	29.9	13111	100
2025-3-7 0:2:55.106	WT901BLE68-01(48591DE3C19B)	9.065	-2.273	1.967	-34.851	-247.681	812.500	-66.03	-41.28	-54.80	-29.890	-40.964	42.140	0.46295	-0.49490	-0.09772	-0.72873	29.9	13111	100
2025-3-7 0:2:55.106	WT901BLE68-01(48591DE3C19B)	9.065	6.979	3.195	126.709	-109.741	487.183	-69.04	-35.87	-49.52	-29.890	-40.964	42.140	0.46295	-0.49490	-0.09772	-0.72873	29.9	13111	100
2025-3-7 0:2:55.106	WT901BLE68-01(48591DE3C19B)	9.036	6.979	3.195	126.709	-109.741	487.183	-69.73	-31.73	-46.29	-29.890	-40.964	42.140	0.46295	-0.49490	-0.09772	-0.72873	29.9	13111	100
2025-3-7 0:2:55.136	WT901BLE68-01(48591DE3C19B)	9.036	14.324	1.298	285.522	17.944	-28.931	-68.51	-29.88	-44.99	-29.890	-40.964	42.140	0.46295	-0.49490	-0.09772	-0.72873	29.9	13111	100
2025-3-7 0:2:55.136	WT901BLE68-01(48591DE3C19B)	10.154	14.324	1.298	285.522	17.944	-28.931	-65.58	-30.35	-45.44	-29.890	-40.964	42.140	0.46295	-0.49490	-0.09772	-0.72873	29.9	13111	100
2025-3-7 0:2:55.136	WT901BLE68-01(48591DE3C19B)	10.154	12.215	1.508	-92.957	133.423	-695.129	-63.25	-33.62	-48.28	-29.890	-40.964	42.140	0.46295	-0.49490	-0.09772	-0.72873	29.9	13111	100
2025-3-7 0:2:55.136	WT901BLE68-01(48591DE3C19B)	8.422	12.215	1.508	-92.957	133.423	-695.129	-60.89	-39.52	-53.93	-29.890	-40.964	42.140	0.46295	-0.49490	-0.09772	-0.72873	29.9	13111	100
2025-3-7 0:2:55.201	WT901BLE68-01(48591DE3C19B)	8.422	-2.473	0.537	-442.505	414.490	-903.320	-57.52	-45.33	-62.86	-29.890	-40.964	42.140	0.46295	-0.49490	-0.09772	-0.72873	29.9	13111	100
2025-3-7 0:2:55.202	WT901BLE68-01(48591DE3C19B)	-2.042	-2.473	0.537	-442.505	414.490	-903.320	-52.31	-50.67	-75.81	-29.890	-40.964	42.140	0.46295	-0.49490	-0.09772	-0.72873	29.9	13111	100
2025-3-7 0:2:55.202	WT901BLE68-01(48591DE3C19B)	-2.042	-14.133	-2.239	-66.650	365.295	-637.207	-44.32	-54.16	-89.06	-29.890	-40.964	42.140	0.46295	-0.49490	-0.09772	-0.72873	29.9	13111	100
2025-3-7 0:2:55.202	WT901BLE68-01(48591DE3C19B)	-7.240	-14.133	-2.239	-66.650	365.295	-637.207	-34.71	-55.58	-101.64	-29.890	-40.964	42.140	0.46295	-0.49490	-0.09772	-0.72873	29.9	13111	100
2025-3-7 0:2:55.228	WT901BLE68-01(48591DE3C19B)	-7.240	-14.905	-4.406	417.480	-151.672	-39.368	-28.07	-56.63	-107.63	-29.890	-40.964	42.140	0.46295	-0.49490	-0.09772	-0.72873	29.9	13111	100
2025-3-7 0:2:55.228	WT901BLE68-01(48591DE3C19B)	-3.946	-14.905	-4.406	417.480	-151.672	-39.368	-24.86	-58.24	-106.64	-29.890	-40.964	42.140	0.46295	-0.49490	-0.09772	-0.72873	29.9	13111	100
2025-3-7 0:2:55.228	WT901BLE68-01(48591DE3C19B)	-3.946	-11.614	-1.658	135.864	-276.733	577.515	-28.29	-59.05	-99.59	-29.890	-40.964	42.140	0.46295	-0.49490	-0.09772	-0.72873	29.9	13111	100
2025-3-7 0:2:55.228	WT901BLE68-01(48591DE3C19B)	2.198	-11.614	-1.658	135.864	-276.733	577.515	-38.03	-58.17	-86.79	-29.890	-40.964	42.140	0.46295	-0.49490	-0.09772	-0.72873	29.9	13111	100
2025-3-7 0:2:55.257	WT901BLE68-01(48591DE3C19B)	2.198	-6.082	0.000	-51.147	-196.960	827.209	-48.48	-54.98	-74.00	-29.890	-40.964	42.140	0.46295	-0.49490	-0.09772	-0.72873	29.9	13111	100
2025-3-7 0:2:55.257	WT901BLE68-01(48591DE3C19B)	7.318	-6.082	0.000	-51.147	-196.960	827.209	-57.86	-49.38	-63.01	-29.890	-40.964	42.140	0.46295	-0.49490	-0.09772	-0.72873	29.9	13111	100
2025-3-7 0:2:55.257	WT901BLE68-01(48591DE3C19B)	7.318	1.057	2.314	-62.805	-75.500	733.459	-63.95	-43.08	-55.62	-29.890	-40.964	42.140	0.60712	-0.58096	-0.04565	-0.54010	29.9	13111	100
2025-3-7 0:2:55.258	WT901BLE68-01(48591DE3C19B)	9.399	1.057	2.314	-62.805	-75.500	733.459	-67.85	-36.62	-50.78	-29.890	-40.964	42.140	0.60712	-0.58096	-0.04565	-0.54010	29.9	13111	100
2025-3-7 0:2:55.316	WT901BLE68-01(48591DE3C19B)	9.399	9.494	2.884	117.554	-7.813	360.657	-69.31	-31.67	-47.97	-29.890	-40.964	42.140	0.60712	-0.58096	-0.04565	-0.54010	29.9	13111	100
2025-3-7 0:2:55.316	WT901BLE68-01(48591DE3C19B)	9.244	9.494	2.884	117.554	-7.813	360.657	-69.03	-28.45	-46.51	-29.890	-40.964	42.140	0.60712	-0.58096	-0.04565	-0.54010	29.9	13111	100
2025-3-7 0:2:55.316	WT901BLE68-01(48591DE3C19B)	9.244	15.296	1.435	156.677	59.937	-265.259	-67.70	-28.15	-46.73	-29.890	-40.964	42.140	0.60712	-0.58096	-0.04565	-0.54010	29.9	13111	100
2025-3-7 0:2:55.316	WT901BLE68-01(48591DE3C19B)	10.849	15.296	1.435	156.677	59.937	-265.259	-65.28	-30.70	-48.71	-29.890	-40.964	42.140	0.60712	-0.58096	-0.04565	-0.54010	29.9	13111	100
2025-3-7 0:2:55.345	WT901BLE68-01(48591DE3C19B)	10.849	8.054	2.260	-242.065	259.033	-846.802	-63.16	-35.38	-53.48	-29.890	-40.964	42.140	0.60712	-0.58096	-0.04565	-0.54010	29.9	13111	100
2025-3-7 0:2:55.345	WT901BLE68-01(48591DE3C19B)	6.070	8.054	2.260	-242.065	259.033	-846.802	-60.48	-42.01	-61.66	-29.890	-40.964	42.140	0.60712	-0.58096	-0.04565	-0.54010	29.9	13111	100
2025-3-7 0:2:55.345	WT901BLE68-01(48591DE3C19B)	6.070	-7.028	-1.031	-393.921	500.061	-892.517	-55.67	-47.72	-72.86	-29.890	-40.964	42.140	0.60712	-0.58096	-0.04565	-0.54010	29.9	13111	100
2025-3-7 0:2:55.345	WT901BLE68-01(48591DE3C19B)	-4.743	-7.028	-1.031	-393.921	500.061	-892.517	-48.29	-51.98	-87.59	-29.890	-40.964	42.140	0.60712	-0.58096	-0.04565	-0.54010	29.9	13111	100
2025-3-7 0:2:55.375	WT901BLE68-01(48591DE3C19B)	-4.743	-15.350	-5.079	197.327	217.285	-538.452	-38.99	-54.64	-100.39	-29.890	-40.964	42.140	0.60712	-0.58096	-0.04565	-0.54010	29.9	13111	100
2025-3-7 0:2:55.375	WT901BLE68-01(48591DE3C19B)	-6.432	-15.350	-5.079	197.327	217.285	-538.452	-28.93	-56.01	-110.25	-29.890	-40.964	42.140	0.60712	-0.58096	-0.04565	-0.54010	29.9	13111	100
2025-3-7 0:2:55.376	WT901BLE68-01(48591DE3C19B)	-6.432	-14.249	-3.464	287.964	-292.725	158.020	-24.57	-57.39	-112.71	-29.890	-40.964	42.140	0.60712	-0.58096	-0.04565	-0.54010	29.9	13111	100
2025-3-7 0:2:55.376	WT901BLE68-01(48591DE3C19B)	-2.399	-14.249	-3.464	287.964	-292.725	158.020	-26.63	-59.43	-107.06	-29.890	-40.964	42.140	0.60712	-0.58096	-0.04565	-0.54010	29.9	13111	100
2025-3-7 0:2:55.438	WT901BLE68-01(48591DE3C19B)	-2.399	-11.203	-1.202	-21.973	-264.099	695.007	-34.72	-59.71	-96.34	-29.890	-40.964	42.140	0.60712	-0.58096	-0.04565	-0.54010	29.9	13111	100
2025-3-7 0:2:55.438	WT901BLE68-01(48591DE3C19B)	4.477	-11.203	-1.202	-21.973	-264.099	695.007	-46.97	-57.07	-82.40	-29.890	-40.964	42.140	0.60712	-0.58096	-0.04565	-0.54010	29.9	13111	100
2025-3-7 0:2:55.438	WT901BLE68-01(48591DE3C19B)	4.477	-4.660	1.011	-53.711	-248.230	868.774	-57.51	-52.31	-70.16	-29.890	-40.964	42.140	0.60712	-0.58096	-0.04565	-0.54010	29.9	13111	100
2025-3-7 0:2:55.438	WT901BLE68-01(48591DE3C19B)	9.048	-4.660	1.011	-53.711	-248.230	868.774	-65.65	-45.70	-60.29	-29.890	-40.964	42.140	0.60712	-0.58096	-0.04565	-0.54010	29.9	13111	100
2025-3-7 0:2:55.465	WT901BLE68-01(48591DE3C19B)	9.048	4.544	2.930	2.625	-91.980	640.259	-70.16	-39.24	-54.22	-29.890	-40.964	42.140	0.60712	-0.58096	-0.04565	-0.54010	29.9	13111	100
2025-3-7 0:2:55.466	WT901BLE68-01(48591DE3C19B)	9.857	4.544	2.930	2.625	-91.980	640.259	-72.43	-33.45	-50.60	-29.890	-40.964	42.140	0.60712	-0.58096	-0.04565	-0.54010	29.9	13111	100
2025-3-7 0:2:55.466	WT901BLE68-01(48591DE3C19B)	9.857	12.866	1.770	199.890	-11.902	216.675	-71.04	-31.53	-49.72	-29.890	-40.964	42.140	0.60712	-0.58096	-0.04565	-0.54010	29.9	13111	100
2025-3-7 0:2:55.466	WT901BLE68-01(48591DE3C19B)	10.182	12.866	1.770	199.890	-11.902	216.675	-69.64	-29.77	-48.85	-38.808	-54.586	37.926	0.60712	-0.58096	-0.04565	-0.54010	29.9	13111	100
2025-3-7 0:2:55.503	WT901BLE68-01(48591DE3C19B)	10.182	14.969	0.933	31.555	47.729	-526.184	-67.90	-34.83	-51.73	-38.808	-54.586	37.926	0.60712	-0.58096	-0.04565	-0.54010	29.9	13111	100
2025-3-7 0:2:55.503	WT901BLE68-01(48591DE3C19B)	11.132	14.969	0.933	31.555	47.729	-526.184	-65.66	-39.86	-54.99	-38.808	-54.586	37.926	0.60712	-0.58096	-0.04565	-0.54010	29.9	13111	100
2025-3-7 0:2:55.503	WT901BLE68-01(48591DE3C19B)	11.132	2.440	1.730	-414.795	296.204	-933.228	-63.38	-47.38	-64.32	-38.808	-54.586	37.926	0.60712	-0.58096	-0.04565	-0.54010	29.9	13111	100
2025-3-7 0:2:55.503	WT901BLE68-01(48591DE3C19B)	1.546	2.440	1.730	-414.795	296.204	-933.228	-58.66	-54.43	-75.70	-38.808	-54.586	37.926	0.60712	-0.58096	-0.04565	-0.54010	29.9	13111	100
2025-3-7 0:2:55.556	WT901BLE68-01(48591DE3C19B)	1.546	-12.452	-1.563	-295.654	465.576	-835.510	-48.31	-58.63	-91.59	-38.808	-54.586	37.926	0.60712	-0.58096	-0.04565	-0.54010	29.9	13111	100
2025-3-7 0:2:55.556	WT901BLE68-01(48591DE3C19B)	-7.329	-12.452	-1.563	-295.654	465.576	-835.510	-35.20	-60.90	-110.13	-38.808	-54.586	37.926	0.60712	-0.58096	-0.04565	-0.54010	29.9	13111	100
2025-3-7 0:2:55.556	WT901BLE68-01(48591DE3C19B)	-7.329	-16.000	-4.575	402.466	-19.775	-261.108	-27.46	-62.54	-114.38	-38.808	-54.586	37.926	0.60712	-0.58096	-0.04565	-0.54010	29.9	13111	100
2025-3-7 0:2:55.556	WT901BLE68-01(48591DE3C19B)	-5.477	-16.000	-4.575	402.466	-19.775	-261.108	-19.40	-63.85	-119.00	-38.808	-54.586	37.926	0.60712	-0.58096	-0.04565	-0.54010	29.9	13111	100
2025-3-7 0:2:55.615	WT901BLE68-01(48591DE3C19B)	-5.477	-13.928	-1.645	315.857	-334.106	464.722	-28.75	-65.04	-105.27	-38.808	-54.586	37.926	0.60712	-0.58096	-0.04565	-0.54010	29.9	13111	100
2025-3-7 0:2:55.616	WT901BLE68-01(48591DE3C19B)	0.438	-13.928	-1.645	315.857	-334.106	464.722	-38.79	-65.18	-90.85	-38.808	-54.586	37.926	0.60712	-0.58096	-0.04565	-0.54010	29.9	13111	100
2025-3-7 0:2:55.616	WT901BLE68-01(48591DE3C19B)	0.438	-8.492	-1.125	38.635	-228.882	882.080	-54.11	-60.16	-73.35	-38.808	-54.586	37.926	0.60712	-0.58096	-0.04565	-0.54010	29.9	13111	100
2025-3-7 0:2:55.616	WT901BLE68-01(48591DE3C19B)	7.110	-8.492	-1.125	38.635	-228.882	882.080	-64.13	-53.55	-61.11	-38.808	-54.586	37.926	0.60712	-0.58096	-0.04565	-0.54010	29.9	13111	100
2025-3-7 0:2:55.616	WT901BLE68-01(48591DE3C19B)	7.110	-1.047	1.203	74.219	-108.704	819.336	-68.75	-46.31	-54.31	-38.808	-54.586	37.926	0.60712	-0.58096	-0.04565	-0.54010	29.9	13111	100
2025-3-7 0:2:55.617	WT901BLE68-01(48591DE3C19B)	10.505	-1.047	1.203	74.219	-108.704	819.336	-71.67	-38.87	-49.10	-38.808	-54.586	37.926	0.60712	-0.58096	-0.04565	-0.54010	29.9	13111	100
2025-3-7 0:2:55.617	WT901BLE68-01(48591DE3C19B)	10.505	9.274	0.462	174.988	29.297	470.764	-70.99	-34.32	-47.60	-38.808	-54.586	37.926	0.60712	-0.58096	-0.04565	-0.54010	29.9	13111	100
2025-3-7 0:2:55.617	WT901BLE68-01(48591DE3C19B)	9.960	9.274	0.462	174.988	29.297	470.764	-70.20	-29.91	-46.15	-38.808	-54.586	37.926	0.60712	-0.58096	-0.04565	-0.54010	29.9	13111	100
2025-3-7 0:2:55.676	WT901BLE68-01(48591DE3C19B)	9.960	15.840	-0.765	78.491	52.063	-191.406	-68.87	-31.77	-47.58	-38.808	-54.586	37.926	0.60712	-0.58096	-0.04565	-0.54010	29.9	13111	100
2025-3-7 0:2:55.676	WT901BLE68-01(48591DE3C19B)	11.758	15.840	-0.765	78.491	52.063	-191.406	-67.44	-33.71	-49.07	-38.808	-54.586	37.926	0.60712	-0.58096	-0.04565	-0.54010	29.9	13111	100
2025-3-7 0:2:55.676	WT901BLE68-01(48591DE3C19B)	11.758	10.356	1.104	-239.624	85.327	-932.007	-66.43	-42.32	-54.76	-38.808	-54.586	37.926	0.60712	-0.58096	-0.04565	-0.54010	29.9	13111	100
2025-3-7 0:2:55.676	WT901BLE68-01(48591DE3C19B)	8.712	10.356	1.104	-239.624	85.327	-932.007	-63.86	-50.79	-61.64	-38.808	-54.586	37.926	0.60712	-0.58096	-0.04565	-0.54010	29.9	13111	100
2025-3-7 0:2:55.705	WT901BLE68-01(48591DE3C19B)	8.712	-6.454	0.546	-633.850	339.539	-1023.926	-59.04	-58.49	-75.31	-38.808	-54.586	37.926	0.45401	-0.60007	-0.07391	-0.65439	29.9	13111	100
2025-3-7 0:2:55.705	WT901BLE68-01(48591DE3C19B)	-4.060	-6.454	0.546	-633.850	339.539	-1023.926	-48.92	-65.05	-93.91	-38.808	-54.586	37.926	0.45401	-0.60007	-0.07391	-0.65439	29.9	13111	100
2025-3-7 0:2:55.705	WT901BLE68-01(48591DE3C19B)	-4.060	-15.924	-2.668	-33.691	333.801	-628.357	-33.73	-66.85	-110.87	-38.808	-54.586	37.926	0.45401	-0.60007	-0.07391	-0.65439	29.9	13111	100
2025-3-7 0:2:55.705	WT901BLE68-01(48591DE3C19B)	-6.449	-15.924	-2.668	-33.691	333.801	-628.357	-17.75	-66.69	-128.62	-38.808	-54.586	37.926	0.45401	-0.60007	-0.07391	-0.65439	29.9	13111	100
2025-3-7 0:2:55.736	WT901BLE68-01(48591DE3C19B)	-6.449	-15.893	-2.284	518.860	-216.797	112.610	-17.35	-68.52	-123.50	-38.808	-54.586	37.926	0.45401	-0.60007	-0.07391	-0.65439	29.9	13111	100
2025-3-7 0:2:55.736	WT901BLE68-01(48591DE3C19B)	-1.849	-15.893	-2.284	518.860	-216.797	112.610	-17.67	-70.30	-117.71	-38.808	-54.586	37.926	0.45401	-0.60007	-0.07391	-0.65439	29.9	13111	100
2025-3-7 0:2:55.736	WT901BLE68-01(48591DE3C19B)	-1.849	-11.299	-1.045	304.688	-185.913	733.887	-35.48	-68.63	-95.58	-38.808	-54.586	37.926	0.45401	-0.60007	-0.07391	-0.65439	29.9	13111	100
2025-3-7 0:2:55.736	WT901BLE68-01(48591DE3C19B)	4.746	-11.299	-1.045	304.688	-185.913	733.887	-48.87	-64.91	-77.84	-38.808	-54.586	37.926	0.45401	-0.60007	-0.07391	-0.65439	29.9	13111	100
2025-3-7 0:2:55.802	WT901BLE68-01(48591DE3C19B)	4.746	-4.052	0.272	22.644	13.184	894.165	-58.60	-57.43	-66.66	-38.808	-54.586	37.926	0.45401	-0.60007	-0.07391	-0.65439	29.9	13111	100
2025-3-7 0:2:55.802	WT901BLE68-01(48591DE3C19B)	9.043	-4.052	0.272	22.644	13.184	894.165	-64.29	-49.37	-59.47	-38.808	-54.586	37.926	0.45401	-0.60007	-0.07391	-0.65439	29.9	13111	100
2025-3-7 0:2:55.802	WT901BLE68-01(48591DE3C19B)	9.043	5.372	0.022	115.723	83.557	670.654	-65.53	-42.87	-56.36	-38.808	-54.586	37.926	0.45401	-0.60007	-0.07391	-0.65439	29.9	13111	100
2025-3-7 0:2:55.802	WT901BLE68-01(48591DE3C19B)	9.363	5.372	0.022	115.723	83.557	670.654	-66.21	-36.45	-53.77	-38.808	-54.586	37.926	0.45401	-0.60007	-0.07391	-0.65439	29.9	13111	100
2025-3-7 0:2:55.827	WT901BLE68-01(48591DE3C19B)	9.363	15.284	-1.547	171.570	-14.709	112.854	-65.10	-35.63	-53.05	-38.808	-54.586	37.926	0.45401	-0.60007	-0.07391	-0.65439	29.9	13111	100
2025-3-7 0:2:55.827	WT901BLE68-01(48591DE3C19B)	9.763	15.284	-1.547	171.570	-14.709	112.854	-64.00	-34.96	-52.33	-38.808	-54.586	37.926	0.45401	-0.60007	-0.07391	-0.65439	29.9	13111	100
2025-3-7 0:2:55.827	WT901BLE68-01(48591DE3C19B)	9.763	14.118	-0.904	-157.593	8.301	-669.067	-63.30	-41.27	-56.24	-38.808	-54.586	37.926	0.45401	-0.60007	-0.07391	-0.65439	29.9	13111	100
2025-3-7 0:2:55.827	WT901BLE68-01(48591DE3C19B)	10.500	14.118	-0.904	-157.593	8.301	-669.067	-61.82	-47.55	-60.70	-38.808	-54.586	37.926	0.45401	-0.60007	-0.07391	-0.65439	29.9	13111	100
2025-3-7 0:2:55.855	WT901BLE68-01(48591DE3C19B)	10.500	1.147	1.551	-624.329	165.100	-958.862	-60.39	-55.51	-70.50	-38.808	-54.586	37.926	0.45401	-0.60007	-0.07391	-0.65439	29.9	13111	100
2025-3-7 0:2:55.855	WT901BLE68-01(48591DE3C19B)	0.228	1.147	1.551	-624.329	165.100	-958.862	-55.61	-63.07	-83.25	-38.808	-54.586	37.926	0.45401	-0.60007	-0.07391	-0.65439	29.9	13111	100
2025-3-7 0:2:55.855	WT901BLE68-01(48591DE3C19B)	0.228	-14.314	-0.945	-434.814	372.620	-714.233	-44.05	-66.36	-100.76	-31.556	-44.688	40.866	0.45401	-0.60007	-0.07391	-0.65439	29.9	13111	100
2025-3-7 0:2:55.855	WT901BLE68-01(48591DE3C19B)	-7.523	-14.314	-0.945	-434.814	372.620	-714.233	-29.58	-67.82	-121.12	-31.556	-44.688	40.866	0.45401	-0.60007	-0.07391	-0.65439	29.9	13111	100
2025-3-7 0:2:55.916	WT901BLE68-01(48591DE3C19B)	-7.523	-16.000	-2.902	434.814	-141.174	-40.161	-26.39	-69.36	-119.87	-31.556	-44.688	40.866	0.45401	-0.60007	-0.07391	-0.65439	29.9	13111	100
2025-3-7 0:2:55.916	WT901BLE68-01(48591DE3C19B)	-3.327	-16.000	-2.902	434.814	-141.174	-40.161	-23.45	-70.87	-118.43	-31.556	-44.688	40.866	0.45401	-0.60007	-0.07391	-0.65439	29.9	13111	100
2025-3-7 0:2:55.916	WT901BLE68-01(48591DE3C19B)	3.216	-13.333	-1.206	403.687	-291.077	707.764	-41.39	-69.49	-95.19	-31.556	-44.688	40.866	0.45401	-0.60007	-0.07391	-0.65439	29.9	13111	100
2025-3-7 0:2:55.916	WT901BLE68-01(48591DE3C19B)	3.216	-5.094	-0.366	33.386	-125.916	990.723	-56.90	-64.29	-76.14	-31.556	-44.688	40.866	0.45401	-0.60007	-0.07391	-0.65439	29.9	13111	100
2025-3-7 0:2:55.944	WT901BLE68-01(48591DE3C19B)	8.288	-5.094	-0.366	33.386	-125.916	990.723	-67.04	-55.96	-64.22	-31.556	-44.688	40.866	0.45401	-0.60007	-0.07391	-0.65439	29.9	13111	100
2025-3-7 0:2:55.945	WT901BLE68-01(48591DE3C19B)	8.288	3.069	0.264	109.314	0.610	752.869	-71.30	-47.91	-58.10	-31.556	-44.688	40.866	0.45401	-0.60007	-0.07391	-0.65439	29.9	13111	100
2025-3-7 0:2:55.945	WT901BLE68-01(48591DE3C19B)	10.330	3.069	0.264	109.314	0.610	752.869	-72.65	-40.72	-54.79	-31.556	-44.688	40.866	0.45401	-0.60007	-0.07391	-0.65439	29.9	13111	100
2025-3-7 0:2:55.945	WT901BLE68-01(48591DE3C19B)	10.330	13.281	-0.860	154.297	-1.221	247.314	-72.66	-36.02	-52.90	-31.556	-44.688	40.866	0.45401	-0.60007	-0.07391	-0.65439	29.9	13111	100
2025-3-7 0:2:56.6	WT901BLE68-01(48591DE3C19B)	10.268	13.281	-0.860	154.297	-1.221	247.314	-71.81	-33.88	-51.99	-31.556	-44.688	40.866	0.45401	-0.60007	-0.07391	-0.65439	29.9	13111	100
2025-3-7 0:2:56.6	WT901BLE68-01(48591DE3C19B)	10.268	15.101	-0.908	-85.205	87.646	-607.910	-70.91	-35.76	-53.25	-31.556	-44.688	40.866	0.45401	-0.60007	-0.07391	-0.65439	29.9	13111	100
2025-3-7 0:2:56.6	WT901BLE68-01(48591DE3C19B)	11.875	15.101	-0.908	-85.205	87.646	-607.910	-69.54	-41.55	-56.95	-31.556	-44.688	40.866	0.45401	-0.60007	-0.07391	-0.65439	29.9	13111	100
2025-3-7 0:2:56.6	WT901BLE68-01(48591DE3C19B)	11.875	3.208	0.838	-458.130	206.787	-1017.944	-67.86	-48.96	-63.17	-31.556	-44.688	40.866	0.45401	-0.60007	-0.07391	-0.65439	29.9	13111	100
2025-3-7 0:2:56.37	WT901BLE68-01(48591DE3C19B)	2.448	3.208	0.838	-458.130	206.787	-1017.944	-64.31	-57.77	-73.27	-31.556	-44.688	40.866	0.45401	-0.60007	-0.07391	-0.65439	29.9	13111	100
2025-3-7 0:2:56.38	WT901BLE68-01(48591DE3C19B)	2.448	-12.516	-1.324	-524.597	414.917	-826.660	-55.73	-64.51	-88.52	-31.556	-44.688	40.866	0.45401	-0.60007	-0.07391	-0.65439	29.9	13111	100
2025-3-7 0:2:56.38	WT901BLE68-01(48591DE3C19B)	-7.887	-12.516	-1.324	-524.597	414.917	-826.660	-41.24	-68.19	-109.98	-31.556	-44.688	40.866	0.45401	-0.60007	-0.07391	-0.65439	29.9	13111	100
2025-3-7 0:2:56.38	WT901BLE68-01(48591DE3C19B)	-7.887	-16.000	-3.270	263.916	-10.803	-227.722	-28.47	-69.77	-125.01	-31.556	-44.688	40.866	0.45401	-0.60007	-0.07391	-0.65439	29.9	13111	100
2025-3-7 0:2:56.67	WT901BLE68-01(48591DE3C19B)	-5.345	-16.000	-3.270	263.916	-10.803	-227.722	-20.63	-70.93	-130.53	-31.556	-44.688	40.866	0.45401	-0.60007	-0.07391	-0.65439	29.9	13111	100
2025-3-7 0:2:56.68	WT901BLE68-01(48591DE3C19B)	-5.345	-14.842	-1.575	399.719	-294.250	620.728	-25.32	-71.71	-122.12	-31.556	-44.688	40.866	0.45401	-0.60007	-0.07391	-0.65439	29.9	13111	100
2025-3-7 0:2:56.68	WT901BLE68-01(48591DE3C19B)	2.285	-14.842	-1.575	399.719	-294.250	620.728	-42.41	-70.66	-99.93	-31.556	-44.688	40.866	0.35788	-0.60968	-0.12036	-0.69687	29.9	13111	100
2025-3-7 0:2:56.68	WT901BLE68-01(48591DE3C19B)	2.285	-6.930	-1.590	129.700	-215.332	1027.466	-58.85	-65.75	-79.53	-31.556	-44.688	40.866	0.35788	-0.60968	-0.12036	-0.69687	29.9	13111	100
2025-3-7 0:2:56.126	WT901BLE68-01(48591DE3C19B)	8.527	-6.930	-1.590	129.700	-215.332	1027.466	-69.83	-57.21	-65.71	-31.556	-44.688	40.866	0.35788	-0.60968	-0.12036	-0.69687	29.9	13111	100
2025-3-7 0:2:56.126	WT901BLE68-01(48591DE3C19B)	8.527	1.167	-0.378	161.499	-49.011	840.881	-74.16	-48.57	-58.64	-31.556	-44.688	40.866	0.35788	-0.60968	-0.12036	-0.69687	29.9	13111	100
2025-3-7 0:2:56.126	WT901BLE68-01(48591DE3C19B)	11.360	1.167	-0.378	161.499	-49.011	840.881	-75.39	-40.52	-54.78	-31.556	-44.688	40.866	0.35788	-0.60968	-0.12036	-0.69687	29.9	13111	100
2025-3-7 0:2:56.126	WT901BLE68-01(48591DE3C19B)	11.360	12.210	-1.815	201.172	-38.635	356.384	-75.23	-34.87	-52.32	-31.556	-44.688	40.866	0.35788	-0.60968	-0.12036	-0.69687	29.9	13111	100
2025-3-7 0:2:56.155	WT901BLE68-01(48591DE3C19B)	10.790	12.210	-1.815	201.172	-38.635	356.384	-74.27	-31.68	-50.75	-31.556	-44.688	40.866	0.35788	-0.60968	-0.12036	-0.69687	29.9	13111	100
2025-3-7 0:2:56.155	WT901BLE68-01(48591DE3C19B)	10.790	15.688	-1.277	-34.607	-6.958	-503.845	-73.62	-32.72	-50.77	-31.556	-44.688	40.866	0.35788	-0.60968	-0.12036	-0.69687	29.9	13111	100
2025-3-7 0:2:56.155	WT901BLE68-01(48591DE3C19B)	12.323	15.688	-1.277	-34.607	-6.958	-503.845	-73.16	-37.92	-52.46	-31.556	-44.688	40.866	0.35788	-0.60968	-0.12036	-0.69687	29.9	13111	100
2025-3-7 0:2:56.155	WT901BLE68-01(48591DE3C19B)	12.323	4.505	1.290	-465.332	124.023	-992.615	-73.30	-45.27	-56.14	-31.556	-44.688	40.866	0.35788	-0.60968	-0.12036	-0.69687	29.9	13111	100
2025-3-7 0:2:56.185	WT901BLE68-01(48591DE3C19B)	2.534	4.505	1.290	-465.332	124.023	-992.615	-73.20	-54.75	-62.41	-31.556	-44.688	40.866	0.35788	-0.60968	-0.12036	-0.69687	29.9	13111	100
2025-3-7 0:2:56.185	WT901BLE68-01(48591DE3C19B)	2.534	-11.918	0.243	-593.567	395.630	-822.021	-69.49	-62.81	-72.83	-31.556	-44.688	40.866	0.35788	-0.60968	-0.12036	-0.69687	29.9	13111	100
2025-3-7 0:2:56.185	WT901BLE68-01(48591DE3C19B)	-7.305	-11.918	0.243	-593.567	395.630	-822.021	-59.61	-68.77	-90.11	-31.556	-44.688	40.866	0.35788	-0.60968	-0.12036	-0.69687	29.9	13111	100
2025-3-7 0:2:56.185	WT901BLE68-01(48591DE3C19B)	-7.305	-16.000	-1.847	195.129	110.596	-300.781	-46.74	-71.95	-105.85	-31.556	-44.688	40.866	0.35788	-0.60968	-0.12036	-0.69687	29.9	13111	100
2025-3-7 0:2:56.248	WT901BLE68-01(48591DE3C19B)	-6.488	-16.000	-1.847	195.129	110.596	-300.781	-35.76	-73.15	-115.31	-31.556	-44.688	40.866	0.35788	-0.60968	-0.12036	-0.69687	29.9	13111	100
2025-3-7 0:2:56.248	WT901BLE68-01(48591DE3C19B)	-6.488	-14.989	-1.405	405.090	-220.886	509.338	-37.50	-73.02	-110.38	-31.556	-44.688	40.866	0.35788	-0.60968	-0.12036	-0.69687	29.9	13111	100
2025-3-7 0:2:56.248	WT901BLE68-01(48591DE3C19B)	0.929	-14.989	-1.405	405.090	-220.886	509.338	-50.44	-70.96	-92.57	-31.556	-44.688	40.866	0.35788	-0.60968	-0.12036	-0.69687	29.9	13111	100
2025-3-7 0:2:56.248	WT901BLE68-01(48591DE3C19B)	0.929	-7.615	-1.784	194.824	-183.777	965.271	-62.85	-65.72	-76.11	-31.556	-44.688	40.866	0.35788	-0.60968	-0.12036	-0.69687	29.9	13111	100
2025-3-7 0:2:56.277	WT901BLE68-01(48591DE3C19B)	7.529	-7.615	-1.784	194.824	-183.777	965.271	-71.39	-57.31	-64.29	-31.556	-44.688	40.866	0.35788	-0.60968	-0.12036	-0.69687	29.9	13111	100
2025-3-7 0:2:56.278	WT901BLE68-01(48591DE3C19B)	7.529	0.122	-0.166	185.059	-26.245	847.229	-74.65	-48.77	-58.01	-31.556	-44.688	40.866	0.35788	-0.60968	-0.12036	-0.69687	29.9	13111	100
2025-3-7 0:2:56.278	WT901BLE68-01(48591DE3C19B)	11.197	0.122	-0.166	185.059	-26.245	847.229	-75.40	-40.56	-54.48	-31.556	-44.688	40.866	0.35788	-0.60968	-0.12036	-0.69687	29.9	13111	100
2025-3-7 0:2:56.278	WT901BLE68-01(48591DE3C19B)	11.197	10.552	-2.613	224.854	28.748	429.199	-74.77	-34.38	-52.42	-39.004	-54.292	39.788	0.35788	-0.60968	-0.12036	-0.69687	29.9	13111	100
2025-3-7 0:2:56.308	WT901BLE68-01(48591DE3C19B)	10.921	10.552	-2.613	224.854	28.748	429.199	-73.28	-30.29	-51.34	-39.004	-54.292	39.788	0.35788	-0.60968	-0.12036	-0.69687	29.9	13111	100
2025-3-7 0:2:56.308	WT901BLE68-01(48591DE3C19B)	10.921	15.927	-2.888	48.279	-35.950	-387.146	-72.16	-30.34	-51.27	-39.004	-54.292	39.788	0.35788	-0.60968	-0.12036	-0.69687	29.9	13111	100
2025-3-7 0:2:56.308	WT901BLE68-01(48591DE3C19B)	13.022	15.927	-2.888	48.279	-35.950	-387.146	-71.32	-34.46	-52.31	-39.004	-54.292	39.788	0.35788	-0.60968	-0.12036	-0.69687	29.9	13111	100
2025-3-7 0:2:56.308	WT901BLE68-01(48591DE3C19B)	13.022	6.905	0.669	-344.971	-37.231	-1006.897	-71.46	-41.55	-54.72	-39.004	-54.292	39.788	0.35788	-0.60968	-0.12036	-0.69687	29.9	13111	100
2025-3-7 0:2:56.366	WT901BLE68-01(48591DE3C19B)	5.104	6.905	0.669	-344.971	-37.231	-1006.897	-72.05	-51.57	-58.77	-39.004	-54.292	39.788	0.35788	-0.60968	-0.12036	-0.69687	29.9	13111	100
2025-3-7 0:2:56.366	WT901BLE68-01(48591DE3C19B)	5.104	-10.513	1.189	-637.085	287.537	-964.661	-70.33	-60.80	-66.70	-39.004	-54.292	39.788	0.35788	-0.60968	-0.12036	-0.69687	29.9	13111	100
2025-3-7 0:2:56.366	WT901BLE68-01(48591DE3C19B)	-6.381	-10.513	1.189	-637.085	287.537	-964.661	-63.01	-68.77	-81.79	-39.004	-54.292	39.788	0.35788	-0.60968	-0.12036	-0.69687	29.9	13111	100
2025-3-7 0:2:56.366	WT901BLE68-01(48591DE3C19B)	-6.381	-16.000	0.336	44.495	194.336	-460.999	-48.58	-73.53	-100.11	-39.004	-54.292	39.788	0.35788	-0.60968	-0.12036	-0.69687	29.9	13111	100
2025-3-7 0:2:56.401	WT901BLE68-01(48591DE3C19B)	-7.322	-16.000	0.336	44.495	194.336	-460.999	-31.51	-75.08	-117.36	-39.004	-54.292	39.788	0.35788	-0.60968	-0.12036	-0.69687	29.9	13111	100
2025-3-7 0:2:56.401	WT901BLE68-01(48591DE3C19B)	-7.322	-15.746	-0.470	407.104	-158.203	382.019	-42.73	-74.00	-101.53	-39.004	-54.292	39.788	0.35788	-0.60968	-0.12036	-0.69687	29.9	13111	100
2025-3-7 0:2:56.402	WT901BLE68-01(48591DE3C19B)	-0.540	-15.746	-0.470	407.104	-158.203	382.019	-51.88	-72.14	-87.76	-39.004	-54.292	39.788	0.35788	-0.60968	-0.12036	-0.69687	29.9	13111	100
2025-3-7 0:2:56.402	WT901BLE68-01(48591DE3C19B)	-0.540	-8.879	-1.892	236.023	-174.744	902.588	-65.90	-65.06	-70.27	-39.004	-54.292	39.788	0.35788	-0.60968	-0.12036	-0.69687	29.9	13111	100
2025-3-7 0:2:56.425	WT901BLE68-01(48591DE3C19B)	6.003	-8.879	-1.892	236.023	-174.744	902.588	-72.63	-57.02	-59.99	-39.004	-54.292	39.788	0.35788	-0.60968	-0.12036	-0.69687	29.9	13111	100
2025-3-7 0:2:56.425	WT901BLE68-01(48591DE3C19B)	6.003	-1.399	-0.859	81.421	-10.559	902.954	-75.43	-48.22	-55.58	-39.004	-54.292	39.788	0.35788	-0.60968	-0.12036	-0.69687	29.9	13111	100
2025-3-7 0:2:56.426	WT901BLE68-01(48591DE3C19B)	10.691	-1.399	-0.859	81.421	-10.559	902.954	-76.94	-39.41	-52.38	-39.004	-54.292	39.788	0.35788	-0.60968	-0.12036	-0.69687	29.9	13111	100
2025-3-7 0:2:56.426	WT901BLE68-01(48591DE3C19B)	10.691	8.372	-3.025	166.565	7.629	569.763	-76.37	-33.88	-50.81	-39.004	-54.292	39.788	0.35788	-0.60968	-0.12036	-0.69687	29.9	13111	100
2025-3-7 0:2:56.485	WT901BLE68-01(48591DE3C19B)	11.003	8.372	-3.025	166.565	7.629	569.763	-75.66	-28.49	-49.29	-39.004	-54.292	39.788	0.35788	-0.60968	-0.12036	-0.69687	29.9	13111	100
2025-3-7 0:2:56.485	WT901BLE68-01(48591DE3C19B)	11.003	15.667	-2.844	28.503	-55.603	-188.843	-75.61	-30.72	-49.22	-39.004	-54.292	39.788	0.35788	-0.60968	-0.12036	-0.69687	29.9	13111	100
2025-3-7 0:2:56.485	WT901BLE68-01(48591DE3C19B)	11.706	15.667	-2.844	28.503	-55.603	-188.843	-75.55	-33.05	-49.13	-39.004	-54.292	39.788	0.35788	-0.60968	-0.12036	-0.69687	29.9	13111	100
2025-3-7 0:2:56.485	WT901BLE68-01(48591DE3C19B)	11.706	9.120	0.233	-244.568	-76.843	-852.661	-77.18	-41.88	-50.70	-39.004	-54.292	39.788	0.35788	-0.60968	-0.12036	-0.69687	29.9	13111	100
2025-3-7 0:2:56.515	WT901BLE68-01(48591DE3C19B)	6.954	9.120	0.233	-244.568	-76.843	-852.661	-78.65	-50.72	-52.17	-39.004	-54.292	39.788	0.46613	-0.66684	-0.05191	-0.57898	29.9	13111	100
2025-3-7 0:2:56.515	WT901BLE68-01(48591DE3C19B)	6.954	-6.304	2.207	-667.114	228.394	-915.283	-79.72	-59.57	-59.04	-39.004	-54.292	39.788	0.46613	-0.66684	-0.05191	-0.57898	29.9	13111	100
2025-3-7 0:2:56.515	WT901BLE68-01(48591DE3C19B)	-5.100	-6.304	2.207	-667.114	228.394	-915.283	-78.27	-68.33	-68.04	-39.004	-54.292	39.788	0.46613	-0.66684	-0.05191	-0.57898	29.9	13111	100
2025-3-7 0:2:56.515	WT901BLE68-01(48591DE3C19B)	-5.100	-15.906	0.821	-253.357	381.653	-539.307	-66.03	-72.43	-83.69	-39.004	-54.292	39.788	0.46613	-0.66684	-0.05191	-0.57898	29.9	13111	100
2025-3-7 0:2:56.545	WT901BLE68-01(48591DE3C19B)	-8.005	-15.906	0.821	-253.357	381.653	-539.307	-47.80	-74.91	-105.27	-39.004	-54.292	39.788	0.46613	-0.66684	-0.05191	-0.57898	29.9	13111	100
2025-3-7 0:2:56.546	WT901BLE68-01(48591DE3C19B)	-8.005	-15.831	-1.087	384.949	-104.919	247.253	-53.08	-73.60	-95.78	-39.004	-54.292	39.788	0.46613	-0.66684	-0.05191	-0.57898	29.9	13111	100
2025-3-7 0:2:56.546	WT901BLE68-01(48591DE3C19B)	-2.003	-15.831	-1.087	384.949	-104.919	247.253	-57.37	-72.00	-87.29	-39.004	-54.292	39.788	0.46613	-0.66684	-0.05191	-0.57898	29.9	13111	100
2025-3-7 0:2:56.546	WT901BLE68-01(48591DE3C19B)	-2.003	-9.543	-2.265	250.366	-190.430	855.469	-69.51	-64.93	-71.61	-39.004	-54.292	39.788	0.46613	-0.66684	-0.05191	-0.57898	29.9	13111	100
2025-3-7 0:2:56.605	WT901BLE68-01(48591DE3C19B)	4.045	-9.543	-2.265	250.366	-190.430	855.469	-75.32	-57.12	-62.19	-39.004	-54.292	39.788	0.46613	-0.66684	-0.05191	-0.57898	29.9	13111	100
2025-3-7 0:2:56.606	WT901BLE68-01(48591DE3C19B)	4.045	-3.244	-0.481	48.401	-77.759	906.433	-78.72	-48.27	-57.39	-39.004	-54.292	39.788	0.46613	-0.66684	-0.05191	-0.57898	29.9	13111	100
2025-3-7 0:2:56.606	WT901BLE68-01(48591DE3C19B)	9.385	-3.244	-0.481	48.401	-77.759	906.433	-80.67	-39.38	-53.99	-39.004	-54.292	39.788	0.46613	-0.66684	-0.05191	-0.57898	29.9	13111	100
2025-3-7 0:2:56.606	WT901BLE68-01(48591DE3C19B)	9.385	3.724	-0.835	207.947	40.222	689.331	-79.30	-32.49	-52.97	-39.004	-54.292	39.788	0.46613	-0.66684	-0.05191	-0.57898	29.9	13111	100
2025-3-7 0:2:56.637	WT901BLE68-01(48591DE3C19B)	11.616	3.724	-0.835	207.947	40.222	689.331	-77.89	-25.72	-51.86	-39.004	-54.292	39.788	0.46613	-0.66684	-0.05191	-0.57898	29.9	13111	100
2025-3-7 0:2:56.637	WT901BLE68-01(48591DE3C19B)	11.616	13.530	-2.571	237.915	-12.268	145.447	-75.87	-24.53	-51.38	-39.004	-54.292	39.788	0.46613	-0.66684	-0.05191	-0.57898	29.9	13111	100
2025-3-7 0:2:56.638	WT901BLE68-01(48591DE3C19B)	11.762	13.530	-2.571	237.915	-12.268	145.447	-73.88	-23.48	-50.86	-39.004	-54.292	39.788	0.46613	-0.66684	-0.05191	-0.57898	29.9	13111	100
2025-3-7 0:2:56.638	WT901BLE68-01(48591DE3C19B)	11.762	14.232	-1.996	-78.491	-102.356	-651.794	-74.41	-30.41	-51.77	-39.004	-54.292	39.788	0.46613	-0.66684	-0.05191	-0.57898	29.9	13111	100
2025-3-7 0:2:56.667	WT901BLE68-01(48591DE3C19B)	12.017	14.232	-1.996	-78.491	-102.356	-651.794	-74.81	-37.38	-52.66	-39.004	-54.292	39.788	0.46613	-0.66684	-0.05191	-0.57898	29.9	13111	100
2025-3-7 0:2:56.667	WT901BLE68-01(48591DE3C19B)	12.017	-0.561	1.017	-513.306	77.942	-1101.868	-76.83	-48.22	-57.33	-39.004	-54.292	39.788	0.46613	-0.66684	-0.05191	-0.57898	29.9	13111	100
2025-3-7 0:2:56.667	WT901BLE68-01(48591DE3C19B)	-0.315	-0.561	1.017	-513.306	77.942	-1101.868	-77.68	-59.08	-62.67	-35.476	-51.842	40.474	0.46613	-0.66684	-0.05191	-0.57898	29.9	13111	100
2025-3-7 0:2:56.667	WT901BLE68-01(48591DE3C19B)	-0.315	-14.742	0.896	-519.653	389.221	-912.842	-70.65	-67.03	-76.34	-35.476	-51.842	40.474	0.46613	-0.66684	-0.05191	-0.57898	29.9	13111	100
2025-3-7 0:2:56.726	WT901BLE68-01(48591DE3C19B)	-8.222	-14.742	0.896	-519.653	389.221	-912.842	-54.49	-73.53	-98.94	-35.476	-51.842	40.474	0.46613	-0.66684	-0.05191	-0.57898	29.9	13111	100
2025-3-7 0:2:56.726	WT901BLE68-01(48591DE3C19B)	-8.222	-16.000	-0.414	186.096	38.818	-182.251	-48.00	-74.71	-103.72	-35.476	-51.842	40.474	0.46613	-0.66684	-0.05191	-0.57898	29.9	13111	100
2025-3-7 0:2:56.726	WT901BLE68-01(48591DE3C19B)	-6.168	-16.000	-0.414	186.096	38.818	-182.251	-41.08	-75.64	-108.95	-35.476	-51.842	40.474	0.46613	-0.66684	-0.05191	-0.57898	29.9	13111	100
2025-3-7 0:2:56.726	WT901BLE68-01(48591DE3C19B)	-6.168	-14.199	-1.901	388.306	-214.111	591.064	-57.40	-72.38	-87.97	-35.476	-51.842	40.474	0.46613	-0.66684	-0.05191	-0.57898	29.9	13111	100
2025-3-7 0:2:56.755	WT901BLE68-01(48591DE3C19B)	1.868	-14.199	-1.901	388.306	-214.111	591.064	-67.12	-67.89	-73.55	-35.476	-51.842	40.474	0.46613	-0.66684	-0.05191	-0.57898	29.9	13111	100
2025-3-7 0:2:56.755	WT901BLE68-01(48591DE3C19B)	1.868	-6.224	-1.378	174.561	-196.167	932.983	-75.58	-59.41	-62.24	-35.476	-51.842	40.474	0.46613	-0.66684	-0.05191	-0.57898	29.9	13111	100
2025-3-7 0:2:56.755	WT901BLE68-01(48591DE3C19B)	7.646	-6.224	-1.378	174.561	-196.167	932.983	-79.66	-50.50	-55.23	-35.476	-51.842	40.474	0.46613	-0.66684	-0.05191	-0.57898	29.9	13111	100
2025-3-7 0:2:56.755	WT901BLE68-01(48591DE3C19B)	7.646	0.296	-0.869	114.197	22.034	849.548	-80.01	-41.97	-53.27	-35.476	-51.842	40.474	0.46613	-0.66684	-0.05191	-0.57898	29.9	13111	100
2025-3-7 0:2:56.785	WT901BLE68-01(48591DE3C19B)	11.440	0.296	-0.869	114.197	22.034	849.548	-79.97	-33.52	-51.63	-35.476	-51.842	40.474	0.46613	-0.66684	-0.05191	-0.57898	29.9	13111	100
2025-3-7 0:2:56.785	WT901BLE68-01(48591DE3C19B)	11.440	9.888	-3.382	245.178	-50.781	475.586	-78.51	-29.01	-50.00	-35.476	-51.842	40.474	0.46613	-0.66684	-0.05191	-0.57898	29.9	13111	100
2025-3-7 0:2:56.785	WT901BLE68-01(48591DE3C19B)	11.439	9.888	-3.382	245.178	-50.781	475.586	-77.00	-24.66	-48.33	-35.476	-51.842	40.474	0.46613	-0.66684	-0.05191	-0.57898	29.9	13111	100
2025-3-7 0:2:56.785	WT901BLE68-01(48591DE3C19B)	11.439	15.771	-3.176	56.763	-133.423	-320.435	-76.92	-28.38	-47.70	-35.476	-51.842	40.474	0.46613	-0.66684	-0.05191	-0.57898	29.9	13111	100
2025-3-7 0:2:56.847	WT901BLE68-01(48591DE3C19B)	13.269	15.771	-3.176	56.763	-133.423	-320.435	-76.88	-32.17	-47.03	-35.476	-51.842	40.474	0.46613	-0.66684	-0.05191	-0.57898	29.9	13111	100
2025-3-7 0:2:56.847	WT901BLE68-01(48591DE3C19B)	5.156	6.338	0.037	-368.164	-96.802	-1002.319	-79.91	-42.54	-48.35	-35.476	-51.842	40.474	0.46613	-0.66684	-0.05191	-0.57898	29.9	13111	100
2025-3-7 0:2:56.847	WT901BLE68-01(48591DE3C19B)	5.156	-10.082	2.517	-666.443	152.405	-945.557	-83.23	-52.45	-50.92	-35.476	-51.842	40.474	0.46613	-0.66684	-0.05191	-0.57898	29.9	13111	100
2025-3-7 0:2:56.847	WT901BLE68-01(48591DE3C19B)	-5.815	-10.082	2.517	-666.443	152.405	-945.557	-86.33	-61.92	-55.23	-35.476	-51.842	40.474	0.46613	-0.66684	-0.05191	-0.57898	29.9	13111	100
2025-3-7 0:2:56.875	WT901BLE68-01(48591DE3C19B)	-5.815	-15.950	2.062	-143.127	280.945	-470.520	-84.55	-68.95	-61.59	-35.476	-51.842	40.474	0.46613	-0.66684	-0.05191	-0.57898	29.9	13111	100
2025-3-7 0:2:56.875	WT901BLE68-01(48591DE3C19B)	-7.933	-15.950	2.062	-143.127	280.945	-470.520	-75.72	-73.09	-72.43	-35.476	-51.842	40.474	0.46613	-0.66684	-0.05191	-0.57898	29.9	13111	100
2025-3-7 0:2:56.875	WT901BLE68-01(48591DE3C19B)	-7.933	-15.633	0.654	480.896	-114.746	230.713	-70.60	-73.89	-76.00	-35.476	-51.842	40.474	0.46613	-0.66684	-0.05191	-0.57898	29.9	13111	100
2025-3-7 0:2:56.875	WT901BLE68-01(48591DE3C19B)	-1.749	-15.633	0.654	480.896	-114.746	230.713	-72.13	-71.85	-69.38	-35.476	-51.842	40.474	0.34158	-0.66190	-0.11859	-0.65652	29.9	13111	100
2025-3-7 0:2:56.906	WT901BLE68-01(48591DE3C19B)	-1.749	-9.338	-1.213	336.670	-84.656	781.799	-74.95	-67.01	-62.05	-35.476	-51.842	40.474	0.34158	-0.66190	-0.11859	-0.65652	29.9	13111	100
2025-3-7 0:2:56.906	WT901BLE68-01(48591DE3C19B)	4.826	-9.338	-1.213	336.670	-84.656	781.799	-77.18	-59.36	-55.83	-35.476	-51.842	40.474	0.34158	-0.66190	-0.11859	-0.65652	29.9	13111	100
2025-3-7 0:2:56.907	WT901BLE68-01(48591DE3C19B)	4.826	-3.471	-0.478	139.954	133.545	874.512	-77.35	-51.00	-52.83	-35.476	-51.842	40.474	0.34158	-0.66190	-0.11859	-0.65652	29.9	13111	100
2025-3-7 0:2:56.907	WT901BLE68-01(48591DE3C19B)	9.759	-3.471	-0.478	139.954	133.545	874.512	-76.78	-42.02	-51.80	-35.476	-51.842	40.474	0.34158	-0.66190	-0.11859	-0.65652	29.9	13111	100
2025-3-7 0:2:56.966	WT901BLE68-01(48591DE3C19B)	9.759	5.778	-4.499	357.849	105.408	613.220	-74.90	-34.43	-50.97	-35.476	-51.842	40.474	0.34158	-0.66190	-0.11859	-0.65652	29.9	13111	100
2025-3-7 0:2:56.966	WT901BLE68-01(48591DE3C19B)	11.270	5.778	-4.499	357.849	105.408	613.220	-71.93	-28.27	-50.09	-35.476	-51.842	40.474	0.34158	-0.66190	-0.11859	-0.65652	29.9	13111	100
2025-3-7 0:2:56.966	WT901BLE68-01(48591DE3C19B)	11.270	15.542	-5.607	123.352	7.324	-66.101	-69.91	-25.64	-49.70	-35.476	-51.842	40.474	0.34158	-0.66190	-0.11859	-0.65652	29.9	13111	100
2025-3-7 0:2:56.966	WT901BLE68-01(48591DE3C19B)	12.154	15.542	-5.607	123.352	7.324	-66.101	-68.77	-26.49	-50.04	-35.476	-51.842	40.474	0.34158	-0.66190	-0.11859	-0.65652	29.9	13111	100
2025-3-7 0:2:57.1	WT901BLE68-01(48591DE3C19B)	12.154	12.231	-2.395	-321.228	-231.079	-752.747	-69.76	-31.06	-50.53	-35.476	-51.842	40.474	0.34158	-0.66190	-0.11859	-0.65652	29.9	13111	100
2025-3-7 0:2:57.1	WT901BLE68-01(48591DE3C19B)	10.101	12.231	-2.395	-321.228	-231.079	-752.747	-73.02	-39.30	-50.76	-35.476	-51.842	40.474	0.34158	-0.66190	-0.11859	-0.65652	29.9	13111	100
2025-3-7 0:2:57.1	WT901BLE68-01(48591DE3C19B)	10.101	-2.700	1.164	-872.253	18.372	-1011.475	-77.88	-48.48	-52.45	-35.476	-51.842	40.474	0.34158	-0.66190	-0.11859	-0.65652	29.9	13111	100
2025-3-7 0:2:57.1	WT901BLE68-01(48591DE3C19B)	-1.767	-2.700	1.164	-872.253	18.372	-1011.475	-84.40	-58.71	-55.27	-35.476	-51.842	40.474	0.34158	-0.66190	-0.11859	-0.65652	29.9	13111	100
2025-3-7 0:2:57.25	WT901BLE68-01(48591DE3C19B)	-1.767	-15.314	0.585	-611.328	398.926	-848.633	-86.24	-68.08	-61.40	-35.476	-51.842	40.474	0.34158	-0.66190	-0.11859	-0.65652	29.9	13111	100
2025-3-7 0:2:57.25	WT901BLE68-01(48591DE3C19B)	-7.043	-15.314	0.585	-611.328	398.926	-848.633	-76.41	-76.00	-78.08	-35.476	-51.842	40.474	0.34158	-0.66190	-0.11859	-0.65652	29.9	13111	100
2025-3-7 0:2:57.25	WT901BLE68-01(48591DE3C19B)	-7.043	-15.991	0.000	309.753	-20.325	-51.758	-63.28	-79.61	-93.00	-35.476	-51.842	40.474	0.34158	-0.66190	-0.11859	-0.65652	29.9	13111	100
2025-3-7 0:2:57.25	WT901BLE68-01(48591DE3C19B)	-2.917	-15.991	0.000	309.753	-20.325	-51.758	-60.87	-80.06	-92.26	-35.476	-51.842	40.474	0.34158	-0.66190	-0.11859	-0.65652	29.9	13111	100
2025-3-7 0:2:57.85	WT901BLE68-01(48591DE3C19B)	-2.917	-13.169	-1.672	568.237	-190.308	704.285	-69.47	-77.35	-79.01	-35.476	-51.842	40.474	0.34158	-0.66190	-0.11859	-0.65652	29.9	13111	100
2025-3-7 0:2:57.86	WT901BLE68-01(48591DE3C19B)	4.007	-13.169	-1.672	568.237	-190.308	704.285	-77.84	-70.85	-64.43	-35.476	-51.842	40.474	0.34158	-0.66190	-0.11859	-0.65652	29.9	13111	100
2025-3-7 0:2:57.86	WT901BLE68-01(48591DE3C19B)	4.007	-4.624	-1.365	274.780	-84.045	950.378	-80.89	-62.72	-56.61	-35.476	-51.842	40.474	0.34158	-0.66190	-0.11859	-0.65652	29.9	13111	100
2025-3-7 0:2:57.86	WT901BLE68-01(48591DE3C19B)	8.196	-4.624	-1.365	274.780	-84.045	950.378	-81.95	-53.25	-52.19	-35.476	-51.842	40.474	0.34158	-0.66190	-0.11859	-0.65652	29.9	13111	100
2025-3-7 0:2:57.115	WT901BLE68-01(48591DE3C19B)	8.196	2.545	-2.215	256.042	64.209	813.354	-81.08	-44.41	-49.97	-33.026	-46.746	40.768	0.34158	-0.66190	-0.11859	-0.65652	29.9	13111	100
2025-3-7 0:2:57.115	WT901BLE68-01(48591DE3C19B)	10.614	2.545	-2.215	256.042	64.209	813.354	-79.32	-36.26	-48.93	-33.026	-46.746	40.768	0.34158	-0.66190	-0.11859	-0.65652	29.9	13111	100
2025-3-7 0:2:57.115	WT901BLE68-01(48591DE3C19B)	10.614	13.772	-4.859	155.762	-3.357	324.036	-77.97	-30.70	-47.93	-33.026	-46.746	40.768	0.34158	-0.66190	-0.11859	-0.65652	29.9	13111	100
2025-3-7 0:2:57.115	WT901BLE68-01(48591DE3C19B)	10.321	13.772	-4.859	155.762	-3.357	324.036	-77.04	-27.73	-47.08	-33.026	-46.746	40.768	0.34158	-0.66190	-0.11859	-0.65652	29.9	13111	100
2025-3-7 0:2:57.145	WT901BLE68-01(48591DE3C19B)	10.321	14.841	-3.604	-162.476	-80.139	-521.118	-77.40	-29.09	-46.86	-33.026	-46.746	40.768	0.34158	-0.66190	-0.11859	-0.65652	29.9	13111	100
2025-3-7 0:2:57.145	WT901BLE68-01(48591DE3C19B)	10.658	14.841	-3.604	-162.476	-80.139	-521.118	-79.07	-34.72	-47.14	-33.026	-46.746	40.768	0.34158	-0.66190	-0.11859	-0.65652	29.9	13111	100
2025-3-7 0:2:57.146	WT901BLE68-01(48591DE3C19B)	10.658	2.612	0.204	-561.462	-72.205	-947.144	-82.53	-42.46	-47.65	-33.026	-46.746	40.768	0.34158	-0.66190	-0.11859	-0.65652	29.9	13111	100
2025-3-7 0:2:57.146	WT901BLE68-01(48591DE3C19B)	1.748	2.612	0.204	-561.462	-72.205	-947.144	-88.29	-52.27	-47.60	-33.026	-46.746	40.768	0.34158	-0.66190	-0.11859	-0.65652	29.9	13111	100
2025-3-7 0:2:57.206	WT901BLE68-01(48591DE3C19B)	1.748	-12.638	2.140	-607.971	166.809	-848.816	-93.75	-61.53	-48.07	-33.026	-46.746	40.768	0.34158	-0.66190	-0.11859	-0.65652	29.9	13111	100
2025-3-7 0:2:57.206	WT901BLE68-01(48591DE3C19B)	-6.568	-12.638	2.140	-607.971	166.809	-848.816	-98.31	-70.28	-49.75	-33.026	-46.746	40.768	0.34158	-0.66190	-0.11859	-0.65652	29.9	13111	100
2025-3-7 0:2:57.206	WT901BLE68-01(48591DE3C19B)	-6.568	-16.000	2.082	134.949	43.213	-240.112	-100.55	-75.84	-49.86	-33.026	-46.746	40.768	0.34158	-0.66190	-0.11859	-0.65652	29.9	13111	100
2025-3-7 0:2:57.206	WT901BLE68-01(48591DE3C19B)	-4.556	-16.000	2.082	134.949	43.213	-240.112	-99.24	-78.17	-49.81	-33.026	-46.746	40.768	0.34158	-0.66190	-0.11859	-0.65652	29.9	13111	100
2025-3-7 0:2:57.235	WT901BLE68-01(48591DE3C19B)	-4.556	-14.389	0.248	415.344	-79.224	598.450	-96.40	-76.16	-49.89	-33.026	-46.746	40.768	0.34158	-0.66190	-0.11859	-0.65652	29.9	13111	100
2025-3-7 0:2:57.235	WT901BLE68-01(48591DE3C19B)	2.378	-14.389	0.248	415.344	-79.224	598.450	-93.21	-69.87	-48.87	-33.026	-46.746	40.768	0.34158	-0.66190	-0.11859	-0.65652	29.9	13111	100
2025-3-7 0:2:57.235	WT901BLE68-01(48591DE3C19B)	2.378	-6.228	-1.055	171.509	-12.573	1005.554	-90.87	-61.58	-48.24	-33.026	-46.746	40.768	0.34158	-0.66190	-0.11859	-0.65652	29.9	13111	100
2025-3-7 0:2:57.235	WT901BLE68-01(48591DE3C19B)	7.601	-6.228	-1.055	171.509	-12.573	1005.554	-89.36	-51.33	-48.02	-33.026	-46.746	40.768	0.34158	-0.66190	-0.11859	-0.65652	29.9	13111	100
2025-3-7 0:2:57.266	WT901BLE68-01(48591DE3C19B)	7.601	1.820	-1.586	253.357	68.970	818.359	-87.26	-42.08	-48.07	-33.026	-46.746	40.768	0.34158	-0.66190	-0.11859	-0.65652	29.9	13111	100
2025-3-7 0:2:57.266	WT901BLE68-01(48591DE3C19B)	10.386	1.820	-1.586	253.357	68.970	818.359	-84.71	-33.84	-48.21	-33.026	-46.746	40.768	0.34158	-0.66190	-0.11859	-0.65652	29.9	13111	100
2025-3-7 0:2:57.266	WT901BLE68-01(48591DE3C19B)	10.386	12.438	-4.179	302.612	-19.470	331.665	-82.25	-28.16	-47.79	-33.026	-46.746	40.768	0.34158	-0.66190	-0.11859	-0.65652	29.9	13111	100
2025-3-7 0:2:57.266	WT901BLE68-01(48591DE3C19B)	10.236	12.438	-4.179	302.612	-19.470	331.665	-79.74	-25.11	-47.02	-33.026	-46.746	40.768	0.34158	-0.66190	-0.11859	-0.65652	29.9	13111	100
2025-3-7 0:2:57.326	WT901BLE68-01(48591DE3C19B)	10.236	15.367	-3.983	28.137	-81.726	-531.616	-79.57	-30.78	-47.19	-33.026	-46.746	40.768	0.34158	-0.66190	-0.11859	-0.65652	29.9	13111	100
2025-3-7 0:2:57.326	WT901BLE68-01(48591DE3C19B)	11.540	15.367	-3.983	28.137	-81.726	-531.616	-79.37	-36.51	-47.36	-33.026	-46.746	40.768	0.58893	-0.65213	0.02274	-0.47672	29.9	13111	100
2025-3-7 0:2:57.326	WT901BLE68-01(48591DE3C19B)	11.540	4.430	-0.271	-328.003	-148.071	-1034.241	-82.68	-47.29	-47.50	-33.026	-46.746	40.768	0.58893	-0.65213	0.02274	-0.47672	29.9	13111	100
2025-3-7 0:2:57.326	WT901BLE68-01(48591DE3C19B)	4.716	4.430	-0.271	-328.003	-148.071	-1034.241	-86.82	-58.01	-46.55	-33.026	-46.746	40.768	0.58893	-0.65213	0.02274	-0.47672	29.9	13111	100
2025-3-7 0:2:57.355	WT901BLE68-01(48591DE3C19B)	4.716	-10.005	1.636	-788.086	99.731	-943.420	-92.88	-67.62	-48.65	-33.026	-46.746	40.768	0.58893	-0.65213	0.02274	-0.47672	29.9	13111	100
2025-3-7 0:2:57.355	WT901BLE68-01(48591DE3C19B)	-5.451	-10.005	1.636	-788.086	99.731	-943.420	-101.55	-77.17	-47.83	-33.026	-46.746	40.768	0.58893	-0.65213	0.02274	-0.47672	29.9	13111	100
2025-3-7 0:2:57.355	WT901BLE68-01(48591DE3C19B)	-5.451	-16.000	1.516	-196.838	173.645	-349.915	-97.89	-80.88	-53.53	-33.026	-46.746	40.768	0.58893	-0.65213	0.02274	-0.47672	29.9	13111	100
2025-3-7 0:2:57.355	WT901BLE68-01(48591DE3C19B)	-5.486	-16.000	1.516	-196.838	173.645	-349.915	-88.18	-84.31	-65.25	-33.026	-46.746	40.768	0.58893	-0.65213	0.02274	-0.47672	29.9	13111	100
2025-3-7 0:2:57.416	WT901BLE68-01(48591DE3C19B)	-5.486	-15.427	-0.329	414.124	-118.713	495.056	-92.37	-79.10	-56.80	-33.026	-46.746	40.768	0.58893	-0.65213	0.02274	-0.47672	29.9	13111	100
2025-3-7 0:2:57.416	WT901BLE68-01(48591DE3C19B)	0.926	-15.427	-0.329	414.124	-118.713	495.056	-92.44	-73.82	-52.44	-33.026	-46.746	40.768	0.58893	-0.65213	0.02274	-0.47672	29.9	13111	100
2025-3-7 0:2:57.416	WT901BLE68-01(48591DE3C19B)	0.926	-8.187	-1.558	254.944	-148.376	1022.949	-92.59	-63.27	-49.53	-33.026	-46.746	40.768	0.58893	-0.65213	0.02274	-0.47672	29.9	13111	100
2025-3-7 0:2:57.416	WT901BLE68-01(48591DE3C19B)	6.923	-8.187	-1.558	254.944	-148.376	1022.949	-91.83	-52.78	-47.43	-33.026	-46.746	40.768	0.58893	-0.65213	0.02274	-0.47672	29.9	13111	100
2025-3-7 0:2:57.447	WT901BLE68-01(48591DE3C19B)	6.923	0.669	-1.574	235.046	-46.265	924.194	-89.89	-43.40	-46.93	-33.026	-46.746	40.768	0.58893	-0.65213	0.02274	-0.47672	29.9	13111	100
2025-3-7 0:2:57.447	WT901BLE68-01(48591DE3C19B)	10.446	0.669	-1.574	235.046	-46.265	924.194	-88.10	-34.13	-46.13	-33.026	-46.746	40.768	0.58893	-0.65213	0.02274	-0.47672	29.9	13111	100
2025-3-7 0:2:57.448	WT901BLE68-01(48591DE3C19B)	10.446	10.893	-3.854	229.370	-44.434	442.871	-86.33	-29.81	-45.36	-33.026	-46.746	40.768	0.58893	-0.65213	0.02274	-0.47672	29.9	13111	100
2025-3-7 0:2:57.448	WT901BLE68-01(48591DE3C19B)	10.484	10.893	-3.854	229.370	-44.434	442.871	-84.61	-25.62	-44.48	-33.026	-46.746	40.768	0.58893	-0.65213	0.02274	-0.47672	29.9	13111	100
2025-3-7 0:2:57.477	WT901BLE68-01(48591DE3C19B)	10.484	15.549	-3.945	-43.213	-18.982	-420.349	-85.13	-30.11	-44.68	-33.026	-46.746	40.768	0.58893	-0.65213	0.02274	-0.47672	29.9	13111	100
2025-3-7 0:2:57.477	WT901BLE68-01(48591DE3C19B)	11.683	15.549	-3.945	-43.213	-18.982	-420.349	-85.66	-34.67	-44.81	-33.026	-46.746	40.768	0.58893	-0.65213	0.02274	-0.47672	29.9	13111	100
2025-3-7 0:2:57.477	WT901BLE68-01(48591DE3C19B)	11.683	6.677	-0.861	-282.471	-73.914	-1007.324	-88.88	-45.11	-44.41	-36.064	-53.116	38.808	0.58893	-0.65213	0.02274	-0.47672	29.9	13111	100
2025-3-7 0:2:57.478	WT901BLE68-01(48591DE3C19B)	4.990	6.677	-0.861	-282.471	-73.914	-1007.324	-92.97	-55.48	-42.89	-36.064	-53.116	38.808	0.58893	-0.65213	0.02274	-0.47672	29.9	13111	100
2025-3-7 0:2:57.535	WT901BLE68-01(48591DE3C19B)	4.990	-10.049	2.030	-717.957	87.708	-961.731	-100.84	-65.33	-42.16	-36.064	-53.116	38.808	0.58893	-0.65213	0.02274	-0.47672	29.9	13111	100
2025-3-7 0:2:57.535	WT901BLE68-01(48591DE3C19B)	-5.667	-10.049	2.030	-717.957	87.708	-961.731	-113.79	-74.88	-36.04	-36.064	-53.116	38.808	0.58893	-0.65213	0.02274	-0.47672	29.9	13111	100
2025-3-7 0:2:57.535	WT901BLE68-01(48591DE3C19B)	-5.667	-16.000	2.562	-153.198	124.451	-329.834	-116.52	-78.38	-34.78	-36.064	-53.116	38.808	0.58893	-0.65213	0.02274	-0.47672	29.9	13111	100
2025-3-7 0:2:57.536	WT901BLE68-01(48591DE3C19B)	-5.619	-16.000	2.562	-153.198	124.451	-329.834	-120.47	-81.75	-32.29	-36.064	-53.116	38.808	0.58893	-0.65213	0.02274	-0.47672	29.9	13111	100
2025-3-7 0:2:57.564	WT901BLE68-01(48591DE3C19B)	-5.619	-15.190	0.921	414.917	-146.851	490.723	-111.51	-76.49	-37.14	-36.064	-53.116	38.808	0.58893	-0.65213	0.02274	-0.47672	29.9	13111	100
2025-3-7 0:2:57.565	WT901BLE68-01(48591DE3C19B)	0.193	-15.190	0.921	414.917	-146.851	490.723	-106.33	-71.12	-38.17	-36.064	-53.116	38.808	0.58893	-0.65213	0.02274	-0.47672	29.9	13111	100
2025-3-7 0:2:57.565	WT901BLE68-01(48591DE3C19B)	0.193	-9.229	-0.857	239.319	-85.632	1038.513	-100.29	-60.58	-42.12	-36.064	-53.116	38.808	0.58893	-0.65213	0.02274	-0.47672	29.9	13111	100
2025-3-7 0:2:57.565	WT901BLE68-01(48591DE3C19B)	7.208	-9.229	-0.857	239.319	-85.632	1038.513	-96.82	-49.99	-43.41	-36.064	-53.116	38.808	0.58893	-0.65213	0.02274	-0.47672	29.9	13111	100
2025-3-7 0:2:57.602	WT901BLE68-01(48591DE3C19B)	7.208	-1.471	-0.694	275.635	72.266	1029.236	-92.49	-39.68	-45.64	-36.064	-53.116	38.808	0.58893	-0.65213	0.02274	-0.47672	29.9	13111	100
2025-3-7 0:2:57.602	WT901BLE68-01(48591DE3C19B)	11.512	-1.471	-0.694	275.635	72.266	1029.236	-89.15	-29.38	-46.74	-36.064	-53.116	38.808	0.58893	-0.65213	0.02274	-0.47672	29.9	13111	100
2025-3-7 0:2:57.602	WT901BLE68-01(48591DE3C19B)	11.512	9.010	-4.300	294.739	135.376	566.345	-85.72	-23.75	-47.99	-36.064	-53.116	38.808	0.58893	-0.65213	0.02274	-0.47672	29.9	13111	100
2025-3-7 0:2:57.602	WT901BLE68-01(48591DE3C19B)	11.173	9.010	-4.300	294.739	135.376	566.345	-82.60	-18.19	-48.85	-36.064	-53.116	38.808	0.58893	-0.65213	0.02274	-0.47672	29.9	13111	100
2025-3-7 0:2:57.657	WT901BLE68-01(48591DE3C19B)	11.173	15.427	-4.867	140.198	87.280	-271.790	-80.91	-21.07	-50.19	-36.064	-53.116	38.808	0.58893	-0.65213	0.02274	-0.47672	29.9	13111	100
2025-3-7 0:2:57.658	WT901BLE68-01(48591DE3C19B)	13.186	15.427	-4.867	140.198	87.280	-271.790	-79.13	-23.98	-51.62	-36.064	-53.116	38.808	0.58893	-0.65213	0.02274	-0.47672	29.9	13111	100
2025-3-7 0:2:57.658	WT901BLE68-01(48591DE3C19B)	13.186	9.574	-2.259	-195.007	-315.247	-977.905	-82.08	-34.53	-49.86	-36.064	-53.116	38.808	0.58893	-0.65213	0.02274	-0.47672	29.9	13111	100
2025-3-7 0:2:57.658	WT901BLE68-01(48591DE3C19B)	8.522	9.574	-2.259	-195.007	-315.247	-977.905	-85.94	-44.95	-47.06	-36.064	-53.116	38.808	0.58893	-0.65213	0.02274	-0.47672	29.9	13111	100
2025-3-7 0:2:57.687	WT901BLE68-01(48591DE3C19B)	8.522	-9.420	2.664	-739.441	-99.609	-1151.489	-94.80	-56.71	-45.28	-36.064	-53.116	38.808	0.58893	-0.65213	0.02274	-0.47672	29.9	13111	100
2025-3-7 0:2:57.687	WT901BLE68-01(48591DE3C19B)	-5.958	-9.420	2.664	-739.441	-99.609	-1151.489	-108.66	-67.93	-38.05	-36.064	-53.116	38.808	0.58893	-0.65213	0.02274	-0.47672	29.9	13111	100
2025-3-7 0:2:57.688	WT901BLE68-01(48591DE3C19B)	-5.958	-16.000	2.413	-414.612	272.705	-533.142	-110.62	-73.92	-40.35	-36.064	-53.116	38.808	0.58893	-0.65213	0.02274	-0.47672	29.9	13111	100
2025-3-7 0:2:57.688	WT901BLE68-01(48591DE3C19B)	-7.173	-16.000	2.413	-414.612	272.705	-533.142	-112.09	-79.79	-43.03	-36.064	-53.116	38.808	0.22324	-0.72406	-0.09912	-0.64499	29.9	13111	100
2025-3-7 0:2:57.717	WT901BLE68-01(48591DE3C19B)	-7.173	-15.771	1.345	326.599	-77.454	326.050	-106.89	-76.28	-44.97	-36.064	-53.116	38.808	0.22324	-0.72406	-0.09912	-0.64499	29.9	13111	100
2025-3-7 0:2:57.717	WT901BLE68-01(48591DE3C19B)	-1.001	-15.771	1.345	326.599	-77.454	326.050	-103.06	-72.69	-45.51	-36.064	-53.116	38.808	0.22324	-0.72406	-0.09912	-0.64499	29.9	13111	100
2025-3-7 0:2:57.717	WT901BLE68-01(48591DE3C19B)	-1.001	-8.781	-1.256	255.554	-107.483	890.625	-98.81	-63.50	-47.29	-36.064	-53.116	38.808	0.22324	-0.72406	-0.09912	-0.64499	29.9	13111	100
2025-3-7 0:2:57.717	WT901BLE68-01(48591DE3C19B)	5.152	-8.781	-1.256	255.554	-107.483	890.625	-96.06	-54.32	-47.49	-36.064	-53.116	38.808	0.22324	-0.72406	-0.09912	-0.64499	29.9	13111	100
2025-3-7 0:2:57.776	WT901BLE68-01(48591DE3C19B)	5.152	-1.625	-1.278	179.810	-59.937	957.031	-93.97	-44.59	-47.87	-36.064	-53.116	38.808	0.22324	-0.72406	-0.09912	-0.64499	29.9	13111	100
2025-3-7 0:2:57.776	WT901BLE68-01(48591DE3C19B)	9.999	-1.625	-1.278	179.810	-59.937	957.031	-92.24	-34.93	-47.79	-36.064	-53.116	38.808	0.22324	-0.72406	-0.09912	-0.64499	29.9	13111	100
2025-3-7 0:2:57.776	WT901BLE68-01(48591DE3C19B)	10.765	8.101	-3.552	270.691	-64.636	555.237	-89.93	-29.40	-47.17	-36.064	-53.116	38.808	0.22324	-0.72406	-0.09912	-0.64499	29.9	13111	100
2025-3-7 0:2:57.776	WT901BLE68-01(48591DE3C19B)	10.765	14.700	-3.872	30.884	-8.484	-244.873	-88.73	-28.01	-46.77	-36.064	-53.116	38.808	0.22324	-0.72406	-0.09912	-0.64499	29.9	13111	100
2025-3-7 0:2:57.806	WT901BLE68-01(48591DE3C19B)	10.543	14.700	-3.872	30.884	-8.484	-244.873	-88.58	-30.72	-46.73	-36.064	-53.116	38.808	0.22324	-0.72406	-0.09912	-0.64499	29.9	13111	100
2025-3-7 0:2:57.806	WT901BLE68-01(48591DE3C19B)	10.543	7.845	-1.545	-255.066	-31.921	-889.038	-89.94	-36.71	-46.56	-36.064	-53.116	38.808	0.22324	-0.72406	-0.09912	-0.64499	29.9	13111	100
2025-3-7 0:2:57.806	WT901BLE68-01(48591DE3C19B)	8.144	7.845	-1.545	-255.066	-31.921	-889.038	-93.14	-45.89	-45.75	-36.064	-53.116	38.808	0.22324	-0.72406	-0.09912	-0.64499	29.9	13111	100
2025-3-7 0:2:57.806	WT901BLE68-01(48591DE3C19B)	8.144	-4.055	0.153	-763.733	98.999	-967.407	-99.05	-55.44	-44.75	-36.064	-53.116	38.808	0.22324	-0.72406	-0.09912	-0.64499	29.9	13111	100
2025-3-7 0:2:57.835	WT901BLE68-01(48591DE3C19B)	-3.200	-4.055	0.153	-763.733	98.999	-967.407	-109.32	-65.24	-41.75	-36.064	-53.116	38.808	0.22324	-0.72406	-0.09912	-0.64499	29.9	13111	100
2025-3-7 0:2:57.835	WT901BLE68-01(48591DE3C19B)	-3.200	-15.340	0.938	-480.896	248.962	-722.595	-121.17	-73.73	-35.69	-36.064	-53.116	38.808	0.22324	-0.72406	-0.09912	-0.64499	29.9	13111	100
2025-3-7 0:2:57.835	WT901BLE68-01(48591DE3C19B)	-7.463	-15.340	0.938	-480.896	248.962	-722.595	-137.85	-80.89	-23.49	-36.064	-53.116	38.808	0.22324	-0.72406	-0.09912	-0.64499	29.9	13111	100
2025-3-7 0:2:57.835	WT901BLE68-01(48591DE3C19B)	-7.463	-15.985	0.793	299.194	-76.843	162.964	-150.66	-83.08	-11.39	-36.064	-53.116	38.808	0.22324	-0.72406	-0.09912	-0.64499	29.9	13111	100
2025-3-7 0:2:57.901	WT901BLE68-01(48591DE3C19B)	-2.189	-15.985	0.793	299.194	-76.843	162.964	-139.66	-81.32	-19.37	-36.064	-53.116	38.808	0.22324	-0.72406	-0.09912	-0.64499	29.9	13111	100
2025-3-7 0:2:57.901	WT901BLE68-01(48591DE3C19B)	-2.189	-11.326	-1.618	550.171	-262.695	801.208	-124.62	-76.30	-30.28	-36.064	-53.116	38.808	0.22324	-0.72406	-0.09912	-0.64499	29.9	13111	100
2025-3-7 0:2:57.901	WT901BLE68-01(48591DE3C19B)	4.471	-11.326	-1.618	550.171	-262.695	801.208	-113.75	-67.74	-35.84	-36.064	-53.116	38.808	0.22324	-0.72406	-0.09912	-0.64499	29.9	13111	100
2025-3-7 0:2:57.901	WT901BLE68-01(48591DE3C19B)	4.471	-4.555	-0.751	317.993	-77.515	1028.381	-106.38	-58.27	-39.22	-36.064	-53.116	38.808	0.22324	-0.72406	-0.09912	-0.64499	29.9	13111	100
2025-3-7 0:2:57.928	WT901BLE68-01(48591DE3C19B)	9.098	-4.555	-0.751	317.993	-77.515	1028.381	-100.90	-47.91	-42.06	-34.888	-50.078	37.828	0.22324	-0.72406	-0.09912	-0.64499	29.9	13111	100
2025-3-7 0:2:57.928	WT901BLE68-01(48591DE3C19B)	9.098	2.884	-3.135	398.926	119.019	837.769	-95.84	-38.58	-44.27	-34.888	-50.078	37.828	0.22324	-0.72406	-0.09912	-0.64499	29.9	13111	100
2025-3-7 0:2:57.928	WT901BLE68-01(48591DE3C19B)	11.208	2.884	-3.135	398.926	119.019	837.769	-90.76	-30.28	-46.31	-34.888	-50.078	37.828	0.22324	-0.72406	-0.09912	-0.64499	29.9	13111	100
2025-3-7 0:2:57.928	WT901BLE68-01(48591DE3C19B)	11.208	11.618	-5.342	280.518	11.108	310.669	-87.17	-24.64	-46.96	-34.888	-50.078	37.828	0.22324	-0.72406	-0.09912	-0.64499	29.9	13111	100
2025-3-7 0:2:57.957	WT901BLE68-01(48591DE3C19B)	10.694	11.618	-5.342	280.518	11.108	310.669	-84.59	-21.74	-46.85	-34.888	-50.078	37.828	0.22324	-0.72406	-0.09912	-0.64499	29.9	13111	100
2025-3-7 0:2:57.957	WT901BLE68-01(48591DE3C19B)	10.694	13.758	-5.093	-67.505	-154.480	-512.695	-83.97	-23.13	-46.20	-34.888	-50.078	37.828	0.22324	-0.72406	-0.09912	-0.64499	29.9	13111	100
2025-3-7 0:2:57.957	WT901BLE68-01(48591DE3C19B)	11.963	13.758	-5.093	-67.505	-154.480	-512.695	-85.39	-28.72	-44.99	-34.888	-50.078	37.828	0.22324	-0.72406	-0.09912	-0.64499	29.9	13111	100
2025-3-7 0:2:57.958	WT901BLE68-01(48591DE3C19B)	11.963	1.128	0.067	-602.661	-109.619	-1033.752	-89.54	-36.88	-43.84	-34.888	-50.078	37.828	0.22324	-0.72406	-0.09912	-0.64499	29.9	13111	100
2025-3-7 0:2:58.16	WT901BLE68-01(48591DE3C19B)	1.489	1.128	0.067	-602.661	-109.619	-1033.752	-97.32	-47.42	-41.43	-34.888	-50.078	37.828	0.22324	-0.72406	-0.09912	-0.64499	29.9	13111	100
2025-3-7 0:2:58.16	WT901BLE68-01(48591DE3C19B)	1.489	-11.405	1.080	-787.048	219.299	-866.821	-106.13	-57.11	-39.12	-34.888	-50.078	37.828	0.22324	-0.72406	-0.09912	-0.64499	29.9	13111	100
2025-3-7 0:2:58.16	WT901BLE68-01(48591DE3C19B)	-6.547	-11.405	1.080	-787.048	219.299	-866.821	-116.18	-66.08	-36.70	-34.888	-50.078	37.828	0.22324	-0.72406	-0.09912	-0.64499	29.9	13111	100
2025-3-7 0:2:58.16	WT901BLE68-01(48591DE3C19B)	-6.547	-16.000	2.010	-43.518	75.134	-335.876	-125.23	-71.99	-31.44	-34.888	-50.078	37.828	0.22324	-0.72406	-0.09912	-0.64499	29.9	13111	100
2025-3-7 0:2:58.45	WT901BLE68-01(48591DE3C19B)	-6.921	-16.000	2.010	-43.518	75.134	-335.876	-130.44	-75.01	-26.43	-34.888	-50.078	37.828	0.22324	-0.72406	-0.09912	-0.64499	29.9	13111	100
2025-3-7 0:2:58.45	WT901BLE68-01(48591DE3C19B)	-6.921	-14.473	1.484	379.517	-187.683	352.112	-129.72	-74.39	-25.38	-34.888	-50.078	37.828	0.22324	-0.72406	-0.09912	-0.64499	29.9	13111	100
2025-3-7 0:2:58.45	WT901BLE68-01(48591DE3C19B)	-0.542	-14.473	1.484	379.517	-187.683	352.112	-123.52	-70.21	-27.83	-34.888	-50.078	37.828	0.22324	-0.72406	-0.09912	-0.64499	29.9	13111	100
2025-3-7 0:2:58.45	WT901BLE68-01(48591DE3C19B)	-0.542	-7.229	-0.114	293.640	-121.643	820.496	-116.14	-64.07	-32.15	-34.888	-50.078	37.828	0.22324	-0.72406	-0.09912	-0.64499	29.9	13111	100
2025-3-7 0:2:58.75	WT901BLE68-01(48591DE3C19B)	5.009	-7.229	-0.114	293.640	-121.643	820.496	-109.41	-55.79	-36.45	-34.888	-50.078	37.828	0.22324	-0.72406	-0.09912	-0.64499	29.9	13111	100
2025-3-7 0:2:58.76	WT901BLE68-01(48591DE3C19B)	5.009	-1.092	-0.533	198.608	11.230	823.608	-104.49	-47.55	-39.56	-34.888	-50.078	37.828	0.22324	-0.72406	-0.09912	-0.64499	29.9	13111	100
2025-3-7 0:2:58.76	WT901BLE68-01(48591DE3C19B)	9.167	-1.092	-0.533	198.608	11.230	823.608	-100.62	-39.40	-42.26	-34.888	-50.078	37.828	0.22324	-0.72406	-0.09912	-0.64499	29.9	13111	100
2025-3-7 0:2:58.76	WT901BLE68-01(48591DE3C19B)	9.167	6.873	-2.960	270.752	67.993	501.465	-97.20	-32.87	-44.10	-34.888	-50.078	37.828	0.22324	-0.72406	-0.09912	-0.64499	29.9	13111	100
2025-3-7 0:2:58.137	WT901BLE68-01(48591DE3C19B)	10.285	6.873	-2.960	270.752	67.993	501.465	-93.85	-27.99	-45.49	-34.888	-50.078	37.828	0.22324	-0.72406	-0.09912	-0.64499	29.9	13111	100
2025-3-7 0:2:58.137	WT901BLE68-01(48591DE3C19B)	10.285	13.498	-4.249	103.271	21.606	-174.194	-91.80	-26.54	-46.14	-34.888	-50.078	37.828	0.55753	-0.70410	0.11972	-0.42300	29.9	13111	100
2025-3-7 0:2:58.137	WT901BLE68-01(48591DE3C19B)	11.090	13.498	-4.249	103.271	21.606	-174.194	-90.82	-28.55	-46.32	-34.888	-50.078	37.828	0.55753	-0.70410	0.11972	-0.42300	29.9	13111	100
2025-3-7 0:2:58.137	WT901BLE68-01(48591DE3C19B)	11.090	8.628	-2.661	-230.469	-52.063	-823.364	-91.79	-33.86	-46.00	-34.888	-50.078	37.828	0.55753	-0.70410	0.11972	-0.42300	29.9	13111	100
2025-3-7 0:2:58.165	WT901BLE68-01(48591DE3C19B)	7.110	8.628	-2.661	-230.469	-52.063	-823.364	-95.06	-42.37	-44.64	-34.888	-50.078	37.828	0.55753	-0.70410	0.11972	-0.42300	29.9	13111	100
2025-3-7 0:2:58.165	WT901BLE68-01(48591DE3C19B)	7.110	-4.631	-0.652	-622.498	40.710	-961.121	-100.81	-51.51	-42.73	-34.888	-50.078	37.828	0.55753	-0.70410	0.11972	-0.42300	29.9	13111	100
2025-3-7 0:2:58.165	WT901BLE68-01(48591DE3C19B)	-2.590	-4.631	-0.652	-622.498	40.710	-961.121	-110.53	-61.07	-38.61	-34.888	-50.078	37.828	0.55753	-0.70410	0.11972	-0.42300	29.9	13111	100
2025-3-7 0:2:58.165	WT901BLE68-01(48591DE3C19B)	-2.590	-14.723	2.084	-412.292	124.512	-700.928	-122.24	-69.01	-31.42	-34.888	-50.078	37.828	0.55753	-0.70410	0.11972	-0.42300	29.9	13111	100
2025-3-7 0:2:58.202	WT901BLE68-01(48591DE3C19B)	-7.893	-14.723	2.084	-412.292	124.512	-700.928	-137.30	-75.20	-19.92	-34.888	-50.078	37.828	0.55753	-0.70410	0.11972	-0.42300	29.9	13111	100
2025-3-7 0:2:58.202	WT901BLE68-01(48591DE3C19B)	-7.893	-16.000	3.292	85.022	-44.495	34.424	-148.38	-77.44	-10.15	-34.888	-50.078	37.828	0.55753	-0.70410	0.11972	-0.42300	29.9	13111	100
2025-3-7 0:2:58.202	WT901BLE68-01(48591DE3C19B)	-3.814	-16.000	3.292	85.022	-44.495	34.424	-146.29	-76.74	-11.32	-34.888	-50.078	37.828	0.55753	-0.70410	0.11972	-0.42300	29.9	13111	100
2025-3-7 0:2:58.202	WT901BLE68-01(48591DE3C19B)	-3.814	-12.264	-0.381	406.006	-175.171	747.437	-134.26	-73.16	-21.13	-34.888	-50.078	37.828	0.55753	-0.70410	0.11972	-0.42300	29.9	13111	100
2025-3-7 0:2:58.257	WT901BLE68-01(48591DE3C19B)	3.721	-12.264	-0.381	406.006	-175.171	747.437	-121.06	-65.90	-30.76	-34.888	-50.078	37.828	0.55753	-0.70410	0.11972	-0.42300	29.9	13111	100
2025-3-7 0:2:58.257	WT901BLE68-01(48591DE3C19B)	3.721	-4.864	-0.144	201.904	-67.017	993.286	-111.78	-56.45	-38.92	-34.888	-50.078	37.828	0.55753	-0.70410	0.11972	-0.42300	29.9	13111	100
2025-3-7 0:2:58.258	WT901BLE68-01(48591DE3C19B)	8.357	-4.864	-0.144	201.904	-67.017	993.286	-106.30	-46.66	-43.24	-34.888	-50.078	37.828	0.55753	-0.70410	0.11972	-0.42300	29.9	13111	100
2025-3-7 0:2:58.258	WT901BLE68-01(48591DE3C19B)	8.357	1.838	-2.368	253.235	58.838	851.196	-101.29	-38.44	-46.83	-34.888	-50.078	37.828	0.55753	-0.70410	0.11972	-0.42300	29.9	13111	100
2025-3-7 0:2:58.287	WT901BLE68-01(48591DE3C19B)	11.994	1.838	-2.368	253.235	58.838	851.196	-97.40	-30.15	-49.25	-34.888	-50.078	37.828	0.55753	-0.70410	0.11972	-0.42300	29.9	13111	100
2025-3-7 0:2:58.288	WT901BLE68-01(48591DE3C19B)	11.994	11.484	-4.625	220.398	-16.785	342.712	-95.14	-26.85	-49.50	-34.888	-50.078	37.828	0.55753	-0.70410	0.11972	-0.42300	29.9	13111	100
2025-3-7 0:2:58.288	WT901BLE68-01(48591DE3C19B)	11.605	11.484	-4.625	220.398	-16.785	342.712	-93.01	-23.66	-49.58	-34.888	-50.078	37.828	0.55753	-0.70410	0.11972	-0.42300	29.9	13111	100
2025-3-7 0:2:58.288	WT901BLE68-01(48591DE3C19B)	11.605	13.729	-3.770	-76.904	-76.843	-525.208	-94.47	-29.17	-48.31	-43.806	-59.290	37.828	0.55753	-0.70410	0.11972	-0.42300	29.9	13111	100
2025-3-7 0:2:58.318	WT901BLE68-01(48591DE3C19B)	11.030	13.729	-3.770	-76.904	-76.843	-525.208	-96.17	-34.68	-46.77	-43.806	-59.290	37.828	0.55753	-0.70410	0.11972	-0.42300	29.9	13111	100
2025-3-7 0:2:58.318	WT901BLE68-01(48591DE3C19B)	11.030	1.513	-0.614	-419.189	-94.055	-1065.125	-102.77	-45.35	-43.19	-43.806	-59.290	37.828	0.55753	-0.70410	0.11972	-0.42300	29.9	13111	100
2025-3-7 0:2:58.318	WT901BLE68-01(48591DE3C19B)	2.031	1.513	-0.614	-419.189	-94.055	-1065.125	-112.08	-55.48	-36.67	-43.806	-59.290	37.828	0.55753	-0.70410	0.11972	-0.42300	29.9	13111	100
2025-3-7 0:2:58.318	WT901BLE68-01(48591DE3C19B)	2.031	-10.735	2.017	-669.556	213.379	-863.831	-122.47	-64.29	-32.43	-43.806	-59.290	37.828	0.55753	-0.70410	0.11972	-0.42300	29.9	13111	100
2025-3-7 0:2:58.375	WT901BLE68-01(48591DE3C19B)	-6.647	-10.735	2.017	-669.556	213.379	-863.831	-139.39	-72.30	-21.41	-43.806	-59.290	37.828	0.55753	-0.70410	0.11972	-0.42300	29.9	13111	100
2025-3-7 0:2:58.376	WT901BLE68-01(48591DE3C19B)	-6.647	-16.000	2.192	-164.063	192.932	-338.806	-146.13	-75.86	-16.05	-43.806	-59.290	37.828	0.55753	-0.70410	0.11972	-0.42300	29.9	13111	100
2025-3-7 0:2:58.376	WT901BLE68-01(48591DE3C19B)	-6.925	-16.000	2.192	-164.063	192.932	-338.806	-156.09	-79.10	-7.43	-43.806	-59.290	37.828	0.55753	-0.70410	0.11972	-0.42300	29.9	13111	100
2025-3-7 0:2:58.376	WT901BLE68-01(48591DE3C19B)	-6.925	-14.911	0.772	296.753	-64.575	343.201	-140.01	-76.56	-20.74	-43.806	-59.290	37.828	0.55753	-0.70410	0.11972	-0.42300	29.9	13111	100
2025-3-7 0:2:58.405	WT901BLE68-01(48591DE3C19B)	-0.513	-14.911	0.772	296.753	-64.575	343.201	-128.90	-73.41	-29.05	-43.806	-59.290	37.828	0.55753	-0.70410	0.11972	-0.42300	29.9	13111	100
2025-3-7 0:2:58.405	WT901BLE68-01(48591DE3C19B)	-0.513	-7.483	-1.478	306.152	-119.507	814.697	-116.29	-65.60	-39.12	-43.806	-59.290	37.828	0.55753	-0.70410	0.11972	-0.42300	29.9	13111	100
2025-3-7 0:2:58.405	WT901BLE68-01(48591DE3C19B)	5.000	-7.483	-1.478	306.152	-119.507	814.697	-109.23	-57.36	-43.57	-43.806	-59.290	37.828	0.55753	-0.70410	0.11972	-0.42300	29.9	13111	100
2025-3-7 0:2:58.406	WT901BLE68-01(48591DE3C19B)	5.000	-1.146	-0.941	174.500	-29.236	827.515	-104.52	-49.15	-47.18	-43.806	-59.290	37.828	0.55753	-0.70410	0.11972	-0.42300	29.9	13111	100
2025-3-7 0:2:58.436	WT901BLE68-01(48591DE3C19B)	8.987	-1.146	-0.941	174.500	-29.236	827.515	-101.16	-40.87	-49.41	-43.806	-59.290	37.828	0.55753	-0.70410	0.11972	-0.42300	29.9	13111	100
