time	DeviceName	AccX(g)	AccY(g)	AccZ(g)	AsX(°/s)	AsY(°/s)	AsZ(°/s)	AngleX(°)	AngleY(°)	AngleZ(°)	HX(uT)	HY(uT)	HZ(uT)	Q0()	Q1()	Q2()	Q3()	Temperature(°C)	Version()	Battery level(%)
2025-2-20 15:58:7.606	WT901BLE68-00(D4622C7A0848)	0.017	-0.963	0.223	-0.366	4.517	-0.061	-76.90	-1.27	-8.00	-11.074	3.332	77.714	-0.78201	0.61957	-0.03519	0.05695	28.4	13111	100
2025-2-20 15:58:7.606	WT901BLE68-00(D4622C7A0848)	0.017	-0.965	0.224	-0.732	4.883	-0.183	-76.91	-1.26	-8.05	-11.074	3.332	77.714	-0.78201	0.61957	-0.03519	0.05695	28.4	13111	100
2025-2-20 15:58:7.606	WT901BLE68-00(D4622C7A0848)	0.018	-0.965	0.224	-0.732	4.883	-0.183	-76.92	-1.26	-8.10	-11.074	3.332	77.714	-0.78201	0.61957	-0.03519	0.05695	28.4	13111	100
2025-2-20 15:58:7.606	WT901BLE68-00(D4622C7A0848)	0.018	-0.968	0.225	-0.793	5.493	-0.671	-76.92	-1.25	-8.16	-11.564	3.038	77.910	-0.78201	0.61957	-0.03519	0.05695	28.4	13111	100
2025-2-20 15:58:7.607	WT901BLE68-00(D4622C7A0848)	0.015	-0.968	0.225	-0.793	5.493	-0.671	-76.93	-1.24	-8.22	-11.564	3.038	77.910	-0.78201	0.61957	-0.03519	0.05695	28.4	13111	100
2025-2-20 15:58:7.607	WT901BLE68-00(D4622C7A0848)	0.015	-0.970	0.220	-0.854	4.578	-0.854	-76.94	-1.24	-8.27	-11.564	3.038	77.910	-0.78201	0.61957	-0.03519	0.05695	28.4	13111	100
2025-2-20 15:58:7.607	WT901BLE68-00(D4622C7A0848)	0.020	-0.970	0.220	-0.854	4.578	-0.854	-76.94	-1.24	-8.32	-11.564	3.038	77.910	-0.78201	0.61957	-0.03519	0.05695	28.4	13111	100
2025-2-20 15:58:7.607	WT901BLE68-00(D4622C7A0848)	0.020	-0.973	0.222	-1.221	3.174	-0.183	-76.95	-1.23	-8.36	-11.564	3.038	77.910	-0.78201	0.61957	-0.03519	0.05695	28.4	13111	100
2025-2-20 15:58:7.666	WT901BLE68-00(D4622C7A0848)	0.029	-0.973	0.222	-1.221	3.174	-0.183	-76.96	-1.22	-8.39	-11.564	3.038	77.910	-0.78201	0.61957	-0.03519	0.05695	28.4	13111	100
2025-2-20 15:58:7.666	WT901BLE68-00(D4622C7A0848)	0.029	-0.967	0.228	0.183	0.000	-0.549	-76.96	-1.23	-8.39	-11.564	3.038	77.910	-0.78201	0.61957	-0.03519	0.05695	28.4	13111	100
2025-2-20 15:58:7.666	WT901BLE68-00(D4622C7A0848)	0.022	-0.967	0.228	0.183	0.000	-0.549	-76.96	-1.24	-8.40	-11.564	3.038	77.910	-0.78201	0.61957	-0.03519	0.05695	28.4	13111	100
2025-2-20 15:58:7.666	WT901BLE68-00(D4622C7A0848)	0.022	-0.959	0.239	-1.221	1.587	0.000	-76.98	-1.24	-8.42	-11.564	3.038	77.910	-0.78201	0.61957	-0.03519	0.05695	28.4	13111	100
2025-2-20 15:58:7.696	WT901BLE68-00(D4622C7A0848)	0.001	-0.959	0.239	-1.221	1.587	0.000	-76.99	-1.23	-8.44	-11.564	3.038	77.910	-0.78201	0.61957	-0.03519	0.05695	28.4	13111	100
2025-2-20 15:58:7.696	WT901BLE68-00(D4622C7A0848)	0.001	-0.984	0.223	-2.380	3.357	-1.709	-77.01	-1.24	-8.48	-11.564	3.038	77.910	-0.78201	0.61957	-0.03519	0.05695	28.4	13111	100
2025-2-20 15:58:7.696	WT901BLE68-00(D4622C7A0848)	0.014	-0.984	0.223	-2.380	3.357	-1.709	-77.03	-1.25	-8.51	-11.564	3.038	77.910	-0.78201	0.61957	-0.03519	0.05695	28.4	13111	100
2025-2-20 15:58:7.696	WT901BLE68-00(D4622C7A0848)	0.014	-0.994	0.221	-2.075	3.601	-2.136	-77.05	-1.26	-8.56	-11.564	3.038	77.910	-0.78201	0.61957	-0.03519	0.05695	28.4	13111	100
2025-2-20 15:58:7.755	WT901BLE68-00(D4622C7A0848)	0.014	-0.994	0.221	-2.075	3.601	-2.136	-77.07	-1.27	-8.60	-11.564	3.038	77.910	-0.78201	0.61957	-0.03519	0.05695	28.4	13111	100
2025-2-20 15:58:7.755	WT901BLE68-00(D4622C7A0848)	0.014	-0.998	0.230	-1.526	3.601	-2.197	-77.09	-1.29	-8.65	-11.564	3.038	77.910	-0.78201	0.61957	-0.03519	0.05695	28.4	13111	100
2025-2-20 15:58:7.756	WT901BLE68-00(D4622C7A0848)	0.019	-0.998	0.230	-1.526	3.601	-2.197	-77.10	-1.30	-8.69	-11.564	3.038	77.910	-0.78201	0.61957	-0.03519	0.05695	28.4	13111	100
2025-2-20 15:58:7.756	WT901BLE68-00(D4622C7A0848)	0.024	-1.001	0.238	0.244	3.723	-3.052	-77.10	-1.32	-8.73	-11.564	3.038	77.910	-0.78201	0.61957	-0.03519	0.05695	28.4	13111	100
2025-2-20 15:58:7.786	WT901BLE68-00(D4622C7A0848)	0.024	-0.994	0.231	2.258	5.798	-2.930	-77.09	-1.33	-8.79	-11.564	3.038	77.910	-0.78012	0.62070	-0.03992	0.06653	28.4	13111	100
2025-2-20 15:58:7.786	WT901BLE68-00(D4622C7A0848)	0.037	-0.994	0.231	2.258	5.798	-2.930	-77.06	-1.35	-8.85	-11.564	3.038	77.910	-0.78012	0.62070	-0.03992	0.06653	28.4	13111	100
2025-2-20 15:58:7.786	WT901BLE68-00(D4622C7A0848)	0.037	-0.979	0.225	3.296	7.507	-2.747	-77.03	-1.36	-8.93	-11.564	3.038	77.910	-0.78012	0.62070	-0.03992	0.06653	28.4	13111	100
2025-2-20 15:58:7.786	WT901BLE68-00(D4622C7A0848)	0.040	-0.979	0.225	3.296	7.507	-2.747	-77.00	-1.37	-9.01	-11.564	3.038	77.910	-0.78012	0.62070	-0.03992	0.06653	28.4	13111	100
2025-2-20 15:58:7.816	WT901BLE68-00(D4622C7A0848)	0.040	-0.971	0.227	2.930	9.399	-2.991	-76.96	-1.38	-9.10	-11.564	3.038	77.910	-0.78012	0.62070	-0.03992	0.06653	28.4	13111	100
2025-2-20 15:58:7.816	WT901BLE68-00(D4622C7A0848)	0.035	-0.971	0.227	2.930	9.399	-2.991	-76.93	-1.39	-9.20	-11.564	3.038	77.910	-0.78012	0.62070	-0.03992	0.06653	28.4	13111	100
2025-2-20 15:58:7.816	WT901BLE68-00(D4622C7A0848)	0.035	-0.974	0.228	2.625	11.780	-3.967	-76.90	-1.40	-9.32	-11.564	3.038	77.910	-0.78012	0.62070	-0.03992	0.06653	28.4	13111	100
2025-2-20 15:58:7.816	WT901BLE68-00(D4622C7A0848)	0.037	-0.974	0.228	2.625	11.780	-3.967	-76.88	-1.41	-9.44	-11.564	3.038	77.910	-0.78012	0.62070	-0.03992	0.06653	28.4	13111	100
2025-2-20 15:58:7.875	WT901BLE68-00(D4622C7A0848)	0.037	-0.974	0.222	2.869	13.672	-4.456	-76.85	-1.42	-9.57	-11.564	3.038	77.910	-0.78012	0.62070	-0.03992	0.06653	28.4	13111	100
2025-2-20 15:58:7.875	WT901BLE68-00(D4622C7A0848)	0.029	-0.974	0.222	2.869	13.672	-4.456	-76.82	-1.44	-9.72	-11.564	3.038	77.910	-0.78012	0.62070	-0.03992	0.06653	28.4	13111	100
2025-2-20 15:58:7.875	WT901BLE68-00(D4622C7A0848)	0.029	-0.979	0.216	2.808	15.198	-4.944	-76.79	-1.46	-9.87	-11.564	3.038	77.910	-0.78012	0.62070	-0.03992	0.06653	28.4	13111	100
2025-2-20 15:58:7.875	WT901BLE68-00(D4622C7A0848)	0.023	-0.979	0.216	2.808	15.198	-4.944	-76.76	-1.47	-10.03	-11.564	3.038	77.910	-0.78012	0.62070	-0.03992	0.06653	28.4	13111	100
2025-2-20 15:58:7.905	WT901BLE68-00(D4622C7A0848)	0.023	-0.982	0.210	3.235	14.954	-4.944	-76.73	-1.48	-10.19	-11.564	3.038	77.910	-0.78012	0.62070	-0.03992	0.06653	28.4	13111	100
2025-2-20 15:58:7.905	WT901BLE68-00(D4622C7A0848)	0.024	-0.982	0.210	3.235	14.954	-4.944	-76.70	-1.50	-10.34	-11.564	3.038	77.910	-0.78012	0.62070	-0.03992	0.06653	28.4	13111	100
2025-2-20 15:58:7.905	WT901BLE68-00(D4622C7A0848)	0.024	-0.975	0.206	3.479	14.404	-4.517	-76.66	-1.51	-10.50	-11.564	3.038	77.910	-0.78012	0.62070	-0.03992	0.06653	28.4	13111	100
2025-2-20 15:58:7.905	WT901BLE68-00(D4622C7A0848)	0.027	-0.975	0.206	3.479	14.404	-4.517	-76.63	-1.52	-10.65	-11.564	3.038	77.910	-0.78012	0.62070	-0.03992	0.06653	28.4	13111	100
2025-2-20 15:58:7.936	WT901BLE68-00(D4622C7A0848)	0.027	-0.961	0.202	3.601	13.977	-4.272	-76.60	-1.53	-10.79	-11.564	3.038	77.910	-0.78012	0.62070	-0.03992	0.06653	28.4	13111	100
2025-2-20 15:58:7.936	WT901BLE68-00(D4622C7A0848)	0.034	-0.961	0.202	3.601	13.977	-4.272	-76.56	-1.54	-10.94	-11.564	3.038	77.910	-0.78012	0.62070	-0.03992	0.06653	28.4	13111	100
2025-2-20 15:58:7.936	WT901BLE68-00(D4622C7A0848)	0.034	-0.960	0.198	2.991	14.099	-4.333	-76.53	-1.55	-11.08	-11.564	3.038	77.910	-0.78012	0.62070	-0.03992	0.06653	28.4	13111	100
2025-2-20 15:58:7.936	WT901BLE68-00(D4622C7A0848)	0.035	-0.960	0.198	2.991	14.099	-4.333	-76.51	-1.57	-11.23	-11.564	3.038	77.910	-0.78012	0.62070	-0.03992	0.06653	28.4	13111	100
2025-2-20 15:58:8.56	WT901BLE68-00(D4622C7A0848)	0.035	-0.962	0.199	2.747	14.954	-4.211	-76.48	-1.57	-11.38	-11.564	3.038	77.910	-0.78012	0.62070	-0.03992	0.06653	28.4	13111	100
2025-2-20 15:58:8.56	WT901BLE68-00(D4622C7A0848)	0.038	-0.962	0.199	2.747	14.954	-4.211	-76.46	-1.58	-11.53	-14.896	3.430	78.400	-0.78012	0.62070	-0.03992	0.06653	28.4	13111	100
2025-2-20 15:58:8.56	WT901BLE68-00(D4622C7A0848)	0.038	-0.961	0.197	2.625	15.991	-4.211	-76.44	-1.59	-11.69	-14.896	3.430	78.400	-0.78012	0.62070	-0.03992	0.06653	28.4	13111	100
2025-2-20 15:58:8.56	WT901BLE68-00(D4622C7A0848)	0.036	-0.961	0.197	2.625	15.991	-4.211	-76.42	-1.59	-11.85	-14.896	3.430	78.400	-0.78012	0.62070	-0.03992	0.06653	28.4	13111	100
2025-2-20 15:58:8.86	WT901BLE68-00(D4622C7A0848)	0.036	-0.958	0.197	2.808	16.968	-4.211	-76.39	-1.60	-12.02	-14.896	3.430	78.400	-0.78012	0.62070	-0.03992	0.06653	28.4	13111	100
2025-2-20 15:58:8.86	WT901BLE68-00(D4622C7A0848)	0.033	-0.958	0.197	2.808	16.968	-4.211	-76.37	-1.60	-12.19	-14.896	3.430	78.400	-0.78012	0.62070	-0.03992	0.06653	28.4	13111	100
2025-2-20 15:58:8.86	WT901BLE68-00(D4622C7A0848)	0.033	-0.957	0.196	2.502	17.639	-4.150	-76.35	-1.60	-12.37	-14.896	3.430	78.400	-0.78012	0.62070	-0.03992	0.06653	28.4	13111	100
2025-2-20 15:58:8.86	WT901BLE68-00(D4622C7A0848)	0.030	-0.957	0.196	2.502	17.639	-4.150	-76.33	-1.60	-12.54	-14.896	3.430	78.400	-0.78012	0.62070	-0.03992	0.06653	28.4	13111	100
2025-2-20 15:58:8.87	WT901BLE68-00(D4622C7A0848)	0.030	-0.961	0.194	1.709	17.517	-3.723	-76.32	-1.60	-12.72	-14.896	3.430	78.400	-0.78012	0.62070	-0.03992	0.06653	28.4	13111	100
2025-2-20 15:58:8.87	WT901BLE68-00(D4622C7A0848)	0.025	-0.961	0.194	1.709	17.517	-3.723	-76.31	-1.60	-12.89	-14.896	3.430	78.400	-0.78012	0.62070	-0.03992	0.06653	28.4	13111	100
2025-2-20 15:58:8.87	WT901BLE68-00(D4622C7A0848)	0.025	-0.960	0.195	1.160	17.090	-3.235	-76.31	-1.59	-13.06	-14.896	3.430	78.400	-0.78012	0.62070	-0.03992	0.06653	28.4	13111	100
2025-2-20 15:58:8.87	WT901BLE68-00(D4622C7A0848)	0.018	-0.960	0.195	1.160	17.090	-3.235	-76.30	-1.59	-13.23	-14.896	3.430	78.400	-0.78012	0.62070	-0.03992	0.06653	28.4	13111	100
2025-2-20 15:58:8.147	WT901BLE68-00(D4622C7A0848)	0.018	-0.954	0.196	0.488	15.930	-2.747	-76.30	-1.58	-13.39	-14.896	3.430	78.400	-0.78012	0.62070	-0.03992	0.06653	28.4	13111	100
2025-2-20 15:58:8.147	WT901BLE68-00(D4622C7A0848)	0.011	-0.954	0.196	0.488	15.930	-2.747	-76.31	-1.57	-13.55	-14.896	3.430	78.400	-0.78012	0.62070	-0.03992	0.06653	28.4	13111	100
2025-2-20 15:58:8.147	WT901BLE68-00(D4622C7A0848)	0.011	-0.949	0.197	-0.610	14.282	-2.197	-76.32	-1.56	-13.69	-14.896	3.430	78.400	-0.78012	0.62070	-0.03992	0.06653	28.4	13111	100
2025-2-20 15:58:8.147	WT901BLE68-00(D4622C7A0848)	0.002	-0.949	0.197	-0.610	14.282	-2.197	-76.33	-1.55	-13.83	-14.896	3.430	78.400	-0.78012	0.62070	-0.03992	0.06653	28.4	13111	100
2025-2-20 15:58:8.148	WT901BLE68-00(D4622C7A0848)	0.002	-0.946	0.202	-2.319	11.902	-1.404	-76.35	-1.53	-13.96	-14.896	3.430	78.400	-0.78012	0.62070	-0.03992	0.06653	28.4	13111	100
2025-2-20 15:58:8.148	WT901BLE68-00(D4622C7A0848)	0.000	-0.946	0.202	-2.319	11.902	-1.404	-76.39	-1.52	-14.07	-14.896	3.430	78.400	-0.78012	0.62070	-0.03992	0.06653	28.4	13111	100
2025-2-20 15:58:8.148	WT901BLE68-00(D4622C7A0848)	0.000	-0.944	0.205	-3.906	9.705	-0.549	-76.43	-1.50	-14.17	-14.896	3.430	78.400	-0.78012	0.62070	-0.03992	0.06653	28.4	13111	100
2025-2-20 15:58:8.148	WT901BLE68-00(D4622C7A0848)	0.006	-0.944	0.205	-3.906	9.705	-0.549	-76.48	-1.48	-14.26	-14.896	3.430	78.400	-0.78012	0.62070	-0.03992	0.06653	28.4	13111	100
2025-2-20 15:58:8.175	WT901BLE68-00(D4622C7A0848)	0.006	-0.941	0.209	-5.859	7.019	-0.427	-76.53	-1.47	-14.34	-14.896	3.430	78.400	-0.78012	0.62070	-0.03992	0.06653	28.4	13111	100
2025-2-20 15:58:8.175	WT901BLE68-00(D4622C7A0848)	-0.005	-0.941	0.209	-5.859	7.019	-0.427	-76.60	-1.45	-14.40	-14.896	3.430	78.400	-0.78012	0.62070	-0.03992	0.06653	28.4	13111	100
2025-2-20 15:58:8.175	WT901BLE68-00(D4622C7A0848)	-0.005	-0.971	0.223	-9.155	5.615	-1.953	-76.68	-1.44	-14.45	-14.896	3.430	78.400	-0.77765	0.61575	-0.06946	0.10571	28.4	13111	100
2025-2-20 15:58:8.175	WT901BLE68-00(D4622C7A0848)	-0.014	-0.971	0.223	-9.155	5.615	-1.953	-76.78	-1.45	-14.51	-14.896	3.430	78.400	-0.77765	0.61575	-0.06946	0.10571	28.4	13111	100
2025-2-20 15:58:8.236	WT901BLE68-00(D4622C7A0848)	-0.014	-1.006	0.230	-11.292	2.991	-3.723	-76.89	-1.46	-14.55	-14.896	3.430	78.400	-0.77765	0.61575	-0.06946	0.10571	28.4	13111	100
2025-2-20 15:58:8.236	WT901BLE68-00(D4622C7A0848)	-0.029	-1.006	0.230	-11.292	2.991	-3.723	-77.00	-1.49	-14.58	-14.896	3.430	78.400	-0.77765	0.61575	-0.06946	0.10571	28.4	13111	100
2025-2-20 15:58:8.236	WT901BLE68-00(D4622C7A0848)	-0.029	-1.031	0.241	-12.390	-1.038	-4.517	-77.12	-1.52	-14.59	-14.896	3.430	78.400	-0.77765	0.61575	-0.06946	0.10571	28.4	13111	100
2025-2-20 15:58:8.236	WT901BLE68-00(D4622C7A0848)	-0.042	-1.031	0.241	-12.390	-1.038	-4.517	-77.25	-1.56	-14.58	-14.896	3.430	78.400	-0.77765	0.61575	-0.06946	0.10571	28.4	13111	100
2025-2-20 15:58:8.265	WT901BLE68-00(D4622C7A0848)	-0.042	-1.035	0.252	-11.963	-6.042	-5.371	-77.38	-1.60	-14.56	-14.896	3.430	78.400	-0.77765	0.61575	-0.06946	0.10571	28.4	13111	100
2025-2-20 15:58:8.266	WT901BLE68-00(D4622C7A0848)	-0.036	-1.035	0.252	-11.963	-6.042	-5.371	-77.50	-1.66	-14.50	-14.896	3.430	78.400	-0.77765	0.61575	-0.06946	0.10571	28.4	13111	100
2025-2-20 15:58:8.266	WT901BLE68-00(D4622C7A0848)	-0.036	-1.005	0.254	-11.719	-10.498	-5.676	-77.61	-1.72	-14.40	-14.896	3.430	78.400	-0.77765	0.61575	-0.06946	0.10571	28.4	13111	100
2025-2-20 15:58:8.266	WT901BLE68-00(D4622C7A0848)	-0.040	-1.005	0.254	-11.719	-10.498	-5.676	-77.73	-1.79	-14.31	-14.896	3.430	78.400	-0.77765	0.61575	-0.06946	0.10571	28.4	13111	100
2025-2-20 15:58:8.295	WT901BLE68-00(D4622C7A0848)	-0.040	-0.964	0.258	-13.367	-14.526	-5.493	-77.87	-1.86	-14.17	-14.896	3.430	78.400	-0.77765	0.61575	-0.06946	0.10571	28.4	13111	100
2025-2-20 15:58:8.295	WT901BLE68-00(D4622C7A0848)	-0.044	-0.964	0.258	-13.367	-14.526	-5.493	-78.00	-1.93	-14.04	-14.896	3.430	78.400	-0.77765	0.61575	-0.06946	0.10571	28.4	13111	100
2025-2-20 15:58:8.295	WT901BLE68-00(D4622C7A0848)	-0.044	-0.938	0.265	-15.564	-18.433	-6.104	-78.15	-2.01	-13.86	-14.896	3.430	78.400	-0.77765	0.61575	-0.06946	0.10571	28.4	13111	100
2025-2-20 15:58:8.295	WT901BLE68-00(D4622C7A0848)	-0.040	-0.938	0.265	-15.564	-18.433	-6.104	-78.30	-2.09	-13.69	-14.896	3.430	78.400	-0.77765	0.61575	-0.06946	0.10571	28.4	13111	100
2025-2-20 15:58:8.386	WT901BLE68-00(D4622C7A0848)	-0.040	-0.922	0.265	-16.357	-22.766	-6.470	-78.46	-2.18	-13.48	-14.896	3.430	78.400	-0.77765	0.61575	-0.06946	0.10571	28.4	13111	100
2025-2-20 15:58:8.386	WT901BLE68-00(D4622C7A0848)	-0.039	-0.922	0.265	-16.357	-22.766	-6.470	-78.61	-2.27	-13.27	-14.896	3.430	78.400	-0.77765	0.61575	-0.06946	0.10571	28.4	13111	100
2025-2-20 15:58:8.387	WT901BLE68-00(D4622C7A0848)	-0.039	-0.925	0.264	-16.479	-26.489	-7.019	-78.77	-2.37	-13.02	-14.896	3.430	78.400	-0.77765	0.61575	-0.06946	0.10571	28.4	13111	100
2025-2-20 15:58:8.387	WT901BLE68-00(D4622C7A0848)	-0.041	-0.925	0.264	-16.479	-26.489	-7.019	-78.93	-2.47	-12.77	-14.896	3.430	78.400	-0.77765	0.61575	-0.06946	0.10571	28.4	13111	100
2025-2-20 15:58:8.388	WT901BLE68-00(D4622C7A0848)	-0.041	-0.936	0.261	-15.625	-29.114	-8.606	-79.07	-2.58	-12.50	-14.896	3.430	78.400	-0.77765	0.61575	-0.06946	0.10571	28.4	13111	100
2025-2-20 15:58:8.388	WT901BLE68-00(D4622C7A0848)	-0.042	-0.936	0.261	-15.625	-29.114	-8.606	-79.22	-2.70	-12.23	-14.896	3.430	78.400	-0.77765	0.61575	-0.06946	0.10571	28.4	13111	100
2025-2-20 15:58:8.388	WT901BLE68-00(D4622C7A0848)	-0.042	-0.949	0.268	-14.832	-31.189	-9.644	-79.35	-2.82	-11.94	-14.896	3.430	78.400	-0.77765	0.61575	-0.06946	0.10571	28.4	13111	100
2025-2-20 15:58:8.388	WT901BLE68-00(D4622C7A0848)	-0.053	-0.949	0.268	-14.832	-31.189	-9.644	-79.49	-2.95	-11.65	-16.562	0.980	79.968	-0.77765	0.61575	-0.06946	0.10571	28.4	13111	100
2025-2-20 15:58:8.416	WT901BLE68-00(D4622C7A0848)	-0.053	-0.963	0.271	-13.245	-32.898	-9.949	-79.61	-3.08	-11.35	-16.562	0.980	79.968	-0.77765	0.61575	-0.06946	0.10571	28.4	13111	100
2025-2-20 15:58:8.416	WT901BLE68-00(D4622C7A0848)	-0.042	-0.963	0.271	-13.245	-32.898	-9.949	-79.73	-3.20	-11.05	-16.562	0.980	79.968	-0.77765	0.61575	-0.06946	0.10571	28.4	13111	100
2025-2-20 15:58:8.416	WT901BLE68-00(D4622C7A0848)	-0.042	-0.965	0.271	-11.108	-32.593	-9.216	-79.83	-3.32	-10.74	-16.562	0.980	79.968	-0.77765	0.61575	-0.06946	0.10571	28.4	13111	100
2025-2-20 15:58:8.416	WT901BLE68-00(D4622C7A0848)	-0.035	-0.965	0.271	-11.108	-32.593	-9.216	-79.93	-3.44	-10.44	-16.562	0.980	79.968	-0.77765	0.61575	-0.06946	0.10571	28.4	13111	100
2025-2-20 15:58:8.476	WT901BLE68-00(D4622C7A0848)	-0.035	-0.954	0.268	-9.583	-29.663	-7.813	-80.01	-3.53	-10.17	-16.562	0.980	79.968	-0.77765	0.61575	-0.06946	0.10571	28.4	13111	100
2025-2-20 15:58:8.477	WT901BLE68-00(D4622C7A0848)	-0.035	-0.954	0.268	-9.583	-29.663	-7.813	-80.09	-3.63	-9.89	-16.562	0.980	79.968	-0.77765	0.61575	-0.06946	0.10571	28.4	13111	100
2025-2-20 15:58:8.477	WT901BLE68-00(D4622C7A0848)	-0.035	-0.949	0.267	-9.399	-24.597	-6.836	-80.17	-3.71	-9.67	-16.562	0.980	79.968	-0.77765	0.61575	-0.06946	0.10571	28.4	13111	100
2025-2-20 15:58:8.477	WT901BLE68-00(D4622C7A0848)	-0.045	-0.949	0.267	-9.399	-24.597	-6.836	-80.24	-3.78	-9.44	-16.562	0.980	79.968	-0.77765	0.61575	-0.06946	0.10571	28.4	13111	100
2025-2-20 15:58:8.505	WT901BLE68-00(D4622C7A0848)	-0.045	-0.949	0.255	-8.728	-20.874	-5.493	-80.31	-3.83	-9.25	-16.562	0.980	79.968	-0.77765	0.61575	-0.06946	0.10571	28.4	13111	100
2025-2-20 15:58:8.505	WT901BLE68-00(D4622C7A0848)	-0.067	-0.949	0.255	-8.728	-20.874	-5.493	-80.38	-3.89	-9.06	-16.562	0.980	79.968	-0.77765	0.61575	-0.06946	0.10571	28.4	13111	100
2025-2-20 15:58:8.505	WT901BLE68-00(D4622C7A0848)	-0.067	-0.946	0.241	-7.751	-21.912	-3.357	-80.44	-3.92	-8.85	-16.562	0.980	79.968	-0.77765	0.61575	-0.06946	0.10571	28.4	13111	100
2025-2-20 15:58:8.505	WT901BLE68-00(D4622C7A0848)	-0.075	-0.946	0.241	-7.751	-21.912	-3.357	-80.49	-3.96	-8.65	-16.562	0.980	79.968	-0.77765	0.61575	-0.06946	0.10571	28.4	13111	100
2025-2-20 15:58:8.535	WT901BLE68-00(D4622C7A0848)	-0.075	-0.946	0.222	-5.188	-27.161	-1.160	-80.53	-3.98	-8.39	-16.562	0.980	79.968	-0.77765	0.61575	-0.06946	0.10571	28.4	13111	100
2025-2-20 15:58:8.536	WT901BLE68-00(D4622C7A0848)	-0.068	-0.946	0.222	-5.188	-27.161	-1.160	-80.57	-3.99	-8.12	-16.562	0.980	79.968	-0.77765	0.61575	-0.06946	0.10571	28.4	13111	100
2025-2-20 15:58:8.536	WT901BLE68-00(D4622C7A0848)	-0.068	-0.928	0.210	-4.700	-32.593	0.854	-80.61	-4.00	-7.81	-16.562	0.980	79.968	-0.77765	0.61575	-0.06946	0.10571	28.4	13111	100
2025-2-20 15:58:8.536	WT901BLE68-00(D4622C7A0848)	-0.043	-0.928	0.210	-4.700	-32.593	0.854	-80.65	-4.00	-7.49	-16.562	0.980	79.968	-0.77765	0.61575	-0.06946	0.10571	28.4	13111	100
2025-2-20 15:58:8.596	WT901BLE68-00(D4622C7A0848)	-0.043	-0.917	0.205	-4.517	-34.180	2.197	-80.68	-3.99	-7.16	-16.562	0.980	79.968	-0.77765	0.61575	-0.06946	0.10571	28.4	13111	100
2025-2-20 15:58:8.596	WT901BLE68-00(D4622C7A0848)	-0.027	-0.917	0.205	-4.517	-34.180	2.197	-80.72	-3.99	-6.82	-16.562	0.980	79.968	-0.77765	0.61575	-0.06946	0.10571	28.4	13111	100
2025-2-20 15:58:8.596	WT901BLE68-00(D4622C7A0848)	-0.027	-0.914	0.206	-6.104	-31.677	2.747	-80.78	-3.97	-6.51	-16.562	0.980	79.968	-0.77765	0.61575	-0.06946	0.10571	28.4	13111	100
2025-2-20 15:58:8.596	WT901BLE68-00(D4622C7A0848)	-0.017	-0.914	0.206	-6.104	-31.677	2.747	-80.83	-3.96	-6.21	-16.562	0.980	79.968	-0.77765	0.61575	-0.06946	0.10571	28.4	13111	100
2025-2-20 15:58:8.628	WT901BLE68-00(D4622C7A0848)	-0.017	-0.934	0.200	-6.836	-27.283	2.258	-80.89	-3.94	-5.94	-16.562	0.980	79.968	-0.75928	0.64780	-0.00858	0.06070	28.4	13111	100
2025-2-20 15:58:8.628	WT901BLE68-00(D4622C7A0848)	-0.021	-0.934	0.200	-6.836	-27.283	2.258	-80.95	-3.93	-5.68	-16.562	0.980	79.968	-0.75928	0.64780	-0.00858	0.06070	28.4	13111	100
2025-2-20 15:58:8.628	WT901BLE68-00(D4622C7A0848)	-0.021	-0.944	0.201	-6.470	-22.217	1.343	-81.00	-3.91	-5.47	-16.562	0.980	79.968	-0.75928	0.64780	-0.00858	0.06070	28.4	13111	100
2025-2-20 15:58:8.628	WT901BLE68-00(D4622C7A0848)	-0.023	-0.944	0.201	-6.470	-22.217	1.343	-81.06	-3.90	-5.26	-16.562	0.980	79.968	-0.75928	0.64780	-0.00858	0.06070	28.4	13111	100
2025-2-20 15:58:8.656	WT901BLE68-00(D4622C7A0848)	-0.023	-0.941	0.195	-5.005	-17.883	0.793	-81.09	-3.88	-5.09	-16.562	0.980	79.968	-0.75928	0.64780	-0.00858	0.06070	28.4	13111	100
2025-2-20 15:58:8.656	WT901BLE68-00(D4622C7A0848)	-0.009	-0.941	0.195	-5.005	-17.883	0.793	-81.13	-3.87	-4.92	-16.562	0.980	79.968	-0.75928	0.64780	-0.00858	0.06070	28.4	13111	100
2025-2-20 15:58:8.656	WT901BLE68-00(D4622C7A0848)	-0.009	-0.951	0.191	-5.127	-14.893	1.831	-81.17	-3.84	-4.78	-16.562	0.980	79.968	-0.75928	0.64780	-0.00858	0.06070	28.4	13111	100
2025-2-20 15:58:8.656	WT901BLE68-00(D4622C7A0848)	-0.009	-0.951	0.191	-5.127	-14.893	1.831	-81.21	-3.81	-4.64	-16.562	0.980	79.968	-0.75928	0.64780	-0.00858	0.06070	28.4	13111	100
2025-2-20 15:58:8.716	WT901BLE68-00(D4622C7A0848)	-0.009	-0.969	0.195	-4.883	-12.878	4.395	-81.24	-3.76	-4.52	-16.562	0.980	79.968	-0.75928	0.64780	-0.00858	0.06070	28.4	13111	100
2025-2-20 15:58:8.717	WT901BLE68-00(D4622C7A0848)	0.011	-0.969	0.195	-4.883	-12.878	4.395	-81.28	-3.70	-4.40	-16.562	0.980	79.968	-0.75928	0.64780	-0.00858	0.06070	28.4	13111	100
2025-2-20 15:58:8.717	WT901BLE68-00(D4622C7A0848)	0.011	-0.992	0.185	-3.906	-12.146	8.057	-81.30	-3.61	-4.28	-16.562	0.980	79.968	-0.75928	0.64780	-0.00858	0.06070	28.4	13111	100
2025-2-20 15:58:8.717	WT901BLE68-00(D4622C7A0848)	0.032	-0.992	0.185	-3.906	-12.146	8.057	-81.33	-3.53	-4.16	-16.562	0.980	79.968	-0.75928	0.64780	-0.00858	0.06070	28.4	13111	100
2025-2-20 15:58:8.746	WT901BLE68-00(D4622C7A0848)	0.032	-0.988	0.152	-1.465	-8.911	11.047	-81.33	-3.41	-4.06	-16.562	0.980	79.968	-0.75928	0.64780	-0.00858	0.06070	28.4	13111	100
2025-2-20 15:58:8.747	WT901BLE68-00(D4622C7A0848)	0.023	-0.988	0.152	-1.465	-8.911	11.047	-81.33	-3.29	-3.97	-16.562	0.980	79.968	-0.75928	0.64780	-0.00858	0.06070	28.4	13111	100
2025-2-20 15:58:8.747	WT901BLE68-00(D4622C7A0848)	0.023	-1.011	0.116	-3.967	-7.751	10.864	-81.36	-3.17	-3.89	-16.562	0.980	79.968	-0.75928	0.64780	-0.00858	0.06070	28.4	13111	100
2025-2-20 15:58:8.747	WT901BLE68-00(D4622C7A0848)	0.031	-1.011	0.116	-3.967	-7.751	10.864	-81.40	-3.06	-3.81	-16.562	0.980	79.968	-0.75928	0.64780	-0.00858	0.06070	28.4	13111	100
2025-2-20 15:58:8.777	WT901BLE68-00(D4622C7A0848)	0.043	-1.074	0.100	-7.019	-10.620	9.338	-81.46	-2.97	-3.70	-16.562	0.980	79.968	-0.75928	0.64780	-0.00858	0.06070	28.4	13111	100
2025-2-20 15:58:8.777	WT901BLE68-00(D4622C7A0848)	0.043	-1.077	0.090	-10.437	-13.733	8.240	-81.55	-2.88	-3.58	-16.562	0.980	79.968	-0.75928	0.64780	-0.00858	0.06070	28.4	13111	100
2025-2-20 15:58:8.777	WT901BLE68-00(D4622C7A0848)	0.040	-1.077	0.090	-10.437	-13.733	8.240	-81.66	-2.81	-3.44	-7.252	-1.568	76.636	-0.75928	0.64780	-0.00858	0.06070	28.4	13111	100
2025-2-20 15:58:8.777	WT901BLE68-00(D4622C7A0848)	0.040	-1.076	0.063	-12.634	-17.578	5.981	-81.78	-2.75	-3.29	-7.252	-1.568	76.636	-0.75928	0.64780	-0.00858	0.06070	28.4	13111	100
2025-2-20 15:58:8.835	WT901BLE68-00(D4622C7A0848)	0.042	-1.076	0.063	-12.634	-17.578	5.981	-81.91	-2.70	-3.12	-7.252	-1.568	76.636	-0.75928	0.64780	-0.00858	0.06070	28.4	13111	100
2025-2-20 15:58:8.836	WT901BLE68-00(D4622C7A0848)	0.042	-1.098	0.049	-15.259	-22.827	2.197	-82.07	-2.68	-2.93	-7.252	-1.568	76.636	-0.75928	0.64780	-0.00858	0.06070	28.4	13111	100
2025-2-20 15:58:8.836	WT901BLE68-00(D4622C7A0848)	0.066	-1.098	0.049	-15.259	-22.827	2.197	-82.24	-2.68	-2.71	-7.252	-1.568	76.636	-0.75928	0.64780	-0.00858	0.06070	28.4	13111	100
2025-2-20 15:58:8.836	WT901BLE68-00(D4622C7A0848)	0.066	-1.124	0.073	-19.531	-21.240	-0.732	-82.42	-2.70	-2.51	-7.252	-1.568	76.636	-0.75928	0.64780	-0.00858	0.06070	28.4	13111	100
2025-2-20 15:58:8.897	WT901BLE68-00(D4622C7A0848)	0.053	-1.124	0.073	-19.531	-21.240	-0.732	-82.64	-2.72	-2.32	-7.252	-1.568	76.636	-0.75928	0.64780	-0.00858	0.06070	28.4	13111	100
2025-2-20 15:58:8.897	WT901BLE68-00(D4622C7A0848)	0.053	-1.150	0.085	-19.958	-20.874	-4.578	-82.85	-2.77	-2.13	-7.252	-1.568	76.636	-0.75928	0.64780	-0.00858	0.06070	28.4	13111	100
2025-2-20 15:58:8.897	WT901BLE68-00(D4622C7A0848)	0.086	-1.150	0.085	-19.958	-20.874	-4.578	-83.07	-2.83	-1.94	-7.252	-1.568	76.636	-0.75928	0.64780	-0.00858	0.06070	28.4	13111	100
2025-2-20 15:58:8.897	WT901BLE68-00(D4622C7A0848)	0.086	-1.107	0.080	-17.029	-16.907	-4.517	-83.27	-2.90	-1.77	-7.252	-1.568	76.636	-0.75928	0.64780	-0.00858	0.06070	28.4	13111	100
2025-2-20 15:58:8.898	WT901BLE68-00(D4622C7A0848)	0.068	-1.107	0.080	-17.029	-16.907	-4.517	-83.46	-2.96	-1.63	-7.252	-1.568	76.636	-0.75928	0.64780	-0.00858	0.06070	28.4	13111	100
2025-2-20 15:58:8.898	WT901BLE68-00(D4622C7A0848)	0.068	-1.042	0.065	-18.250	-15.686	-3.052	-83.64	-3.02	-1.49	-7.252	-1.568	76.636	-0.75928	0.64780	-0.00858	0.06070	28.4	13111	100
2025-2-20 15:58:8.898	WT901BLE68-00(D4622C7A0848)	0.067	-1.042	0.065	-18.250	-15.686	-3.052	-83.84	-3.06	-1.36	-7.252	-1.568	76.636	-0.75928	0.64780	-0.00858	0.06070	28.4	13111	100
2025-2-20 15:58:8.898	WT901BLE68-00(D4622C7A0848)	0.067	-0.999	0.054	-16.418	-17.578	-0.122	-84.03	-3.09	-1.21	-7.252	-1.568	76.636	-0.75928	0.64780	-0.00858	0.06070	28.4	13111	100
2025-2-20 15:58:8.957	WT901BLE68-00(D4622C7A0848)	0.082	-0.999	0.054	-16.418	-17.578	-0.122	-84.21	-3.11	-1.05	-7.252	-1.568	76.636	-0.75928	0.64780	-0.00858	0.06070	28.4	13111	100
2025-2-20 15:58:8.958	WT901BLE68-00(D4622C7A0848)	0.082	-0.946	0.051	-17.090	-17.395	4.456	-84.40	-3.10	-0.90	-7.252	-1.568	76.636	-0.75928	0.64780	-0.00858	0.06070	28.4	13111	100
2025-2-20 15:58:8.958	WT901BLE68-00(D4622C7A0848)	0.118	-0.946	0.051	-17.090	-17.395	4.456	-84.58	-3.08	-0.74	-7.252	-1.568	76.636	-0.75928	0.64780	-0.00858	0.06070	28.4	13111	100
2025-2-20 15:58:8.958	WT901BLE68-00(D4622C7A0848)	0.118	-0.915	0.053	-16.785	-14.526	7.141	-84.77	-3.04	-0.59	-7.252	-1.568	76.636	-0.75928	0.64780	-0.00858	0.06070	28.4	13111	100
2025-2-20 15:58:8.988	WT901BLE68-00(D4622C7A0848)	0.094	-0.915	0.053	-16.785	-14.526	7.141	-84.95	-2.98	-0.46	-7.252	-1.568	76.636	-0.75928	0.64780	-0.00858	0.06070	28.4	13111	100
2025-2-20 15:58:8.988	WT901BLE68-00(D4622C7A0848)	0.094	-0.825	0.063	-19.043	-14.771	12.207	-85.14	-2.91	-0.32	-7.252	-1.568	76.636	-0.75928	0.64780	-0.00858	0.06070	28.4	13111	100
2025-2-20 15:58:8.988	WT901BLE68-00(D4622C7A0848)	0.110	-0.825	0.063	-19.043	-14.771	12.207	-85.34	-2.81	-0.19	-7.252	-1.568	76.636	-0.75928	0.64780	-0.00858	0.06070	28.4	13111	100
2025-2-20 15:58:8.989	WT901BLE68-00(D4622C7A0848)	0.110	-0.808	0.068	-23.010	-16.785	11.658	-85.56	-2.71	-0.04	-7.252	-1.568	76.636	-0.73462	0.67804	0.01596	0.01526	28.4	13111	100
2025-2-20 15:58:9.25	WT901BLE68-00(D4622C7A0848)	0.118	-0.808	0.068	-23.010	-16.785	11.658	-85.80	-2.62	0.11	-7.252	-1.568	76.636	-0.73462	0.67804	0.01596	0.01526	28.4	13111	100
2025-2-20 15:58:9.26	WT901BLE68-00(D4622C7A0848)	0.118	-0.817	0.063	-21.179	-18.616	12.573	-86.02	-2.53	0.27	-7.252	-1.568	76.636	-0.73462	0.67804	0.01596	0.01526	28.4	13111	100
2025-2-20 15:58:9.26	WT901BLE68-00(D4622C7A0848)	0.117	-0.817	0.063	-21.179	-18.616	12.573	-86.24	-2.43	0.44	-7.252	-1.568	76.636	-0.73462	0.67804	0.01596	0.01526	28.4	13111	100
2025-2-20 15:58:9.26	WT901BLE68-00(D4622C7A0848)	0.117	-0.822	0.049	-21.606	-18.127	11.475	-86.46	-2.35	0.61	-7.252	-1.568	76.636	-0.73462	0.67804	0.01596	0.01526	28.4	13111	100
2025-2-20 15:58:9.77	WT901BLE68-00(D4622C7A0848)	0.120	-0.822	0.049	-21.606	-18.127	11.475	-86.68	-2.26	0.77	-7.252	-1.568	76.636	-0.73462	0.67804	0.01596	0.01526	28.4	13111	100
2025-2-20 15:58:9.77	WT901BLE68-00(D4622C7A0848)	0.120	-0.868	0.036	-23.376	-15.869	7.019	-86.91	-2.20	0.92	-7.252	-1.568	76.636	-0.73462	0.67804	0.01596	0.01526	28.4	13111	100
2025-2-20 15:58:9.77	WT901BLE68-00(D4622C7A0848)	0.097	-0.868	0.036	-23.376	-15.869	7.019	-87.14	-2.17	1.06	-7.252	-1.568	76.636	-0.73462	0.67804	0.01596	0.01526	28.4	13111	100
2025-2-20 15:58:9.77	WT901BLE68-00(D4622C7A0848)	0.097	-0.946	0.051	-15.381	-23.560	3.174	-87.34	-2.15	1.24	-7.252	-1.568	76.636	-0.73462	0.67804	0.01596	0.01526	28.4	13111	100
2025-2-20 15:58:9.105	WT901BLE68-00(D4622C7A0848)	0.087	-0.946	0.051	-15.381	-23.560	3.174	-87.50	-2.16	1.44	-7.252	-1.568	76.636	-0.73462	0.67804	0.01596	0.01526	28.4	13111	100
2025-2-20 15:58:9.106	WT901BLE68-00(D4622C7A0848)	0.087	-1.008	0.066	-13.489	-27.344	0.305	-87.64	-2.18	1.68	-7.252	-1.568	76.636	-0.73462	0.67804	0.01596	0.01526	28.4	13111	100
2025-2-20 15:58:9.106	WT901BLE68-00(D4622C7A0848)	0.080	-1.008	0.066	-13.489	-27.344	0.305	-87.78	-2.21	1.92	-7.252	-1.568	76.636	-0.73462	0.67804	0.01596	0.01526	28.4	13111	100
2025-2-20 15:58:9.106	WT901BLE68-00(D4622C7A0848)	0.080	-1.123	0.046	-14.404	-28.320	-2.075	-87.92	-2.25	2.17	-7.252	-1.568	76.636	-0.73462	0.67804	0.01596	0.01526	28.4	13111	100
2025-2-20 15:58:9.168	WT901BLE68-00(D4622C7A0848)	0.107	-1.123	0.046	-14.404	-28.320	-2.075	-88.07	-2.31	2.43	-7.252	-1.568	76.636	-0.73462	0.67804	0.01596	0.01526	28.4	13111	100
2025-2-20 15:58:9.168	WT901BLE68-00(D4622C7A0848)	0.107	-1.211	0.013	-11.902	-21.423	-1.038	-88.20	-2.35	2.65	-7.252	-1.568	76.636	-0.73462	0.67804	0.01596	0.01526	28.4	13111	100
2025-2-20 15:58:9.168	WT901BLE68-00(D4622C7A0848)	0.121	-1.211	0.013	-11.902	-21.423	-1.038	-88.32	-2.38	2.83	-7.252	-1.568	76.636	-0.73462	0.67804	0.01596	0.01526	28.4	13111	100
2025-2-20 15:58:9.168	WT901BLE68-00(D4622C7A0848)	0.121	-1.186	-0.010	-4.761	-13.062	1.465	-88.41	-2.41	2.98	-7.252	-1.568	76.636	-0.73462	0.67804	0.01596	0.01526	28.4	13111	100
2025-2-20 15:58:9.198	WT901BLE68-00(D4622C7A0848)	0.138	-1.186	-0.010	-4.761	-13.062	1.465	-88.46	-2.42	3.08	-7.252	-1.568	76.636	-0.73462	0.67804	0.01596	0.01526	28.4	13111	100
2025-2-20 15:58:9.198	WT901BLE68-00(D4622C7A0848)	0.138	-1.087	-0.021	-6.042	-2.808	4.089	-88.51	-2.41	3.13	-7.252	-1.568	76.636	-0.73462	0.67804	0.01596	0.01526	28.4	13111	100
2025-2-20 15:58:9.198	WT901BLE68-00(D4622C7A0848)	0.121	-1.087	-0.021	-6.042	-2.808	4.089	-88.57	-2.40	3.13	-7.252	-1.568	76.636	-0.73462	0.67804	0.01596	0.01526	28.4	13111	100
2025-2-20 15:58:9.198	WT901BLE68-00(D4622C7A0848)	0.121	-1.121	-0.042	-5.981	3.357	6.470	-88.63	-2.36	3.10	-0.588	-9.408	69.384	-0.73462	0.67804	0.01596	0.01526	28.4	13111	100
2025-2-20 15:58:9.228	WT901BLE68-00(D4622C7A0848)	0.122	-1.121	-0.042	-5.981	3.357	6.470	-88.70	-2.32	3.04	-0.588	-9.408	69.384	-0.73462	0.67804	0.01596	0.01526	28.4	13111	100
2025-2-20 15:58:9.228	WT901BLE68-00(D4622C7A0848)	0.122	-1.043	-0.059	-0.732	6.409	8.606	-88.73	-2.26	2.97	-0.588	-9.408	69.384	-0.73462	0.67804	0.01596	0.01526	28.4	13111	100
2025-2-20 15:58:9.228	WT901BLE68-00(D4622C7A0848)	0.112	-1.043	-0.059	-0.732	6.409	8.606	-88.75	-2.20	2.88	-0.588	-9.408	69.384	-0.73462	0.67804	0.01596	0.01526	28.4	13111	100
2025-2-20 15:58:9.228	WT901BLE68-00(D4622C7A0848)	0.112	-0.956	-0.076	5.066	-6.104	7.568	-88.73	-2.14	2.86	-0.588	-9.408	69.384	-0.73462	0.67804	0.01596	0.01526	28.4	13111	100
2025-2-20 15:58:9.286	WT901BLE68-00(D4622C7A0848)	0.108	-0.956	-0.076	5.066	-6.104	7.568	-88.70	-2.09	2.89	-0.588	-9.408	69.384	-0.73462	0.67804	0.01596	0.01526	28.4	13111	100
2025-2-20 15:58:9.286	WT901BLE68-00(D4622C7A0848)	0.108	-0.901	-0.042	11.719	-13.916	5.127	-88.63	-2.06	2.97	-0.588	-9.408	69.384	-0.73462	0.67804	0.01596	0.01526	28.4	13111	100
2025-2-20 15:58:9.286	WT901BLE68-00(D4622C7A0848)	0.077	-0.901	-0.042	11.719	-13.916	5.127	-88.53	-2.04	3.09	-0.588	-9.408	69.384	-0.73462	0.67804	0.01596	0.01526	28.4	13111	100
2025-2-20 15:58:9.287	WT901BLE68-00(D4622C7A0848)	0.077	-0.871	0.002	6.042	-19.836	0.793	-88.49	-2.06	3.26	-0.588	-9.408	69.384	-0.73462	0.67804	0.01596	0.01526	28.4	13111	100
2025-2-20 15:58:9.315	WT901BLE68-00(D4622C7A0848)	0.100	-0.871	0.002	6.042	-19.836	0.793	-88.46	-2.08	3.43	-0.588	-9.408	69.384	-0.73462	0.67804	0.01596	0.01526	28.4	13111	100
2025-2-20 15:58:9.315	WT901BLE68-00(D4622C7A0848)	0.100	-0.959	0.018	-0.793	-20.386	-2.441	-88.49	-2.14	3.60	-0.588	-9.408	69.384	-0.73462	0.67804	0.01596	0.01526	28.4	13111	100
2025-2-20 15:58:9.315	WT901BLE68-00(D4622C7A0848)	0.128	-0.959	0.018	-0.793	-20.386	-2.441	-88.52	-2.19	3.78	-0.588	-9.408	69.384	-0.73462	0.67804	0.01596	0.01526	28.4	13111	100
2025-2-20 15:58:9.315	WT901BLE68-00(D4622C7A0848)	0.128	-0.982	-0.008	-1.770	-15.320	-2.258	-88.56	-2.24	3.91	-0.588	-9.408	69.384	-0.73462	0.67804	0.01596	0.01526	28.4	13111	100
2025-2-20 15:58:9.346	WT901BLE68-00(D4622C7A0848)	0.111	-0.982	-0.008	-1.770	-15.320	-2.258	-88.59	-2.30	4.03	-0.588	-9.408	69.384	-0.73462	0.67804	0.01596	0.01526	28.4	13111	100
2025-2-20 15:58:9.346	WT901BLE68-00(D4622C7A0848)	0.111	-0.973	-0.025	4.578	-13.428	-2.869	-88.56	-2.35	4.14	-0.588	-9.408	69.384	-0.73462	0.67804	0.01596	0.01526	28.4	13111	100
2025-2-20 15:58:9.346	WT901BLE68-00(D4622C7A0848)	0.084	-0.973	-0.025	4.578	-13.428	-2.869	-88.54	-2.41	4.24	-0.588	-9.408	69.384	-0.73462	0.67804	0.01596	0.01526	28.4	13111	100
2025-2-20 15:58:9.346	WT901BLE68-00(D4622C7A0848)	0.084	-0.939	-0.018	2.014	-9.949	-4.517	-88.53	-2.48	4.31	-0.588	-9.408	69.384	-0.73462	0.67804	0.01596	0.01526	28.4	13111	100
2025-2-20 15:58:9.406	WT901BLE68-00(D4622C7A0848)	0.064	-0.939	-0.018	2.014	-9.949	-4.517	-88.53	-2.55	4.38	-0.588	-9.408	69.384	-0.73462	0.67804	0.01596	0.01526	28.4	13111	100
2025-2-20 15:58:9.406	WT901BLE68-00(D4622C7A0848)	0.064	-0.993	0.003	-2.747	-4.272	-5.798	-88.58	-2.63	4.39	-0.588	-9.408	69.384	-0.73462	0.67804	0.01596	0.01526	28.4	13111	100
2025-2-20 15:58:9.406	WT901BLE68-00(D4622C7A0848)	0.084	-0.993	0.003	-2.747	-4.272	-5.798	-88.62	-2.71	4.40	-0.588	-9.408	69.384	-0.73462	0.67804	0.01596	0.01526	28.4	13111	100
2025-2-20 15:58:9.406	WT901BLE68-00(D4622C7A0848)	0.084	-1.029	0.000	1.282	1.038	-3.540	-88.62	-2.76	4.36	-0.588	-9.408	69.384	-0.73462	0.67804	0.01596	0.01526	28.4	13111	100
2025-2-20 15:58:9.435	WT901BLE68-00(D4622C7A0848)	0.073	-1.029	0.000	1.282	1.038	-3.540	-88.62	-2.81	4.32	-0.588	-9.408	69.384	-0.71637	0.69626	0.04276	-0.01080	28.4	13111	100
2025-2-20 15:58:9.435	WT901BLE68-00(D4622C7A0848)	0.073	-0.979	0.000	2.441	0.488	-1.831	-88.60	-2.85	4.29	-0.588	-9.408	69.384	-0.71637	0.69626	0.04276	-0.01080	28.4	13111	100
2025-2-20 15:58:9.435	WT901BLE68-00(D4622C7A0848)	0.028	-0.979	0.000	2.441	0.488	-1.831	-88.59	-2.88	4.26	-0.588	-9.408	69.384	-0.71637	0.69626	0.04276	-0.01080	28.4	13111	100
2025-2-20 15:58:9.435	WT901BLE68-00(D4622C7A0848)	0.028	-0.981	0.023	1.099	-4.211	-1.709	-88.60	-2.91	4.27	-0.588	-9.408	69.384	-0.71637	0.69626	0.04276	-0.01080	28.4	13111	100
2025-2-20 15:58:9.465	WT901BLE68-00(D4622C7A0848)	0.017	-0.981	0.023	1.099	-4.211	-1.709	-88.60	-2.94	4.29	-0.588	-9.408	69.384	-0.71637	0.69626	0.04276	-0.01080	28.4	13111	100
2025-2-20 15:58:9.465	WT901BLE68-00(D4622C7A0848)	0.017	-0.951	0.063	5.127	-9.949	-1.465	-88.56	-2.97	4.37	-0.588	-9.408	69.384	-0.71637	0.69626	0.04276	-0.01080	28.4	13111	100
2025-2-20 15:58:9.465	WT901BLE68-00(D4622C7A0848)	0.027	-0.951	0.063	5.127	-9.949	-1.465	-88.52	-2.99	4.44	-0.588	-9.408	69.384	-0.71637	0.69626	0.04276	-0.01080	28.4	13111	100
2025-2-20 15:58:9.465	WT901BLE68-00(D4622C7A0848)	0.027	-0.931	0.097	5.432	-12.024	-0.916	-88.48	-3.01	4.53	-0.588	-9.408	69.384	-0.71637	0.69626	0.04276	-0.01080	28.4	13111	100
2025-2-20 15:58:9.527	WT901BLE68-00(D4622C7A0848)	0.052	-0.931	0.097	5.432	-12.024	-0.916	-88.43	-3.03	4.63	-0.588	-9.408	69.384	-0.71637	0.69626	0.04276	-0.01080	28.4	13111	100
2025-2-20 15:58:9.527	WT901BLE68-00(D4622C7A0848)	0.052	-1.009	0.082	7.751	-6.470	0.244	-88.35	-3.03	4.66	-0.588	-9.408	69.384	-0.71637	0.69626	0.04276	-0.01080	28.4	13111	100
2025-2-20 15:58:9.527	WT901BLE68-00(D4622C7A0848)	0.072	-1.009	0.082	7.751	-6.470	0.244	-88.28	-3.03	4.70	-0.588	-9.408	69.384	-0.71637	0.69626	0.04276	-0.01080	28.4	13111	100
2025-2-20 15:58:9.527	WT901BLE68-00(D4622C7A0848)	0.072	-1.020	0.051	15.625	3.296	2.258	-88.12	-3.01	4.65	-0.588	-9.408	69.384	-0.71637	0.69626	0.04276	-0.01080	28.4	13111	100
2025-2-20 15:58:9.558	WT901BLE68-00(D4622C7A0848)	0.065	-1.020	0.051	15.625	3.296	2.258	-87.96	-2.99	4.59	-0.588	-9.408	69.384	-0.71637	0.69626	0.04276	-0.01080	28.4	13111	100
2025-2-20 15:58:9.558	WT901BLE68-00(D4622C7A0848)	0.065	-1.020	0.027	15.869	7.629	1.892	-87.80	-2.98	4.49	-0.588	-9.408	69.384	-0.71637	0.69626	0.04276	-0.01080	28.4	13111	100
2025-2-20 15:58:9.558	WT901BLE68-00(D4622C7A0848)	0.044	-1.020	0.027	15.869	7.629	1.892	-87.64	-2.96	4.39	-0.588	-9.408	69.384	-0.71637	0.69626	0.04276	-0.01080	28.4	13111	100
2025-2-20 15:58:9.558	WT901BLE68-00(D4622C7A0848)	0.044	-1.079	0.068	17.090	4.211	1.587	-87.47	-2.94	4.32	-0.588	-9.408	69.384	-0.71637	0.69626	0.04276	-0.01080	28.4	13111	100
2025-2-20 15:58:9.588	WT901BLE68-00(D4622C7A0848)	0.065	-1.079	0.068	17.090	4.211	1.587	-87.30	-2.93	4.26	-0.588	-9.408	69.384	-0.71637	0.69626	0.04276	-0.01080	28.4	13111	100
2025-2-20 15:58:9.588	WT901BLE68-00(D4622C7A0848)	0.065	-1.072	0.149	20.996	0.610	3.113	-87.09	-2.90	4.23	-0.588	-9.408	69.384	-0.71637	0.69626	0.04276	-0.01080	28.4	13111	100
2025-2-20 15:58:9.588	WT901BLE68-00(D4622C7A0848)	0.068	-1.072	0.149	20.996	0.610	3.113	-86.88	-2.87	4.20	1.078	-10.388	65.366	-0.71637	0.69626	0.04276	-0.01080	28.4	13111	100
2025-2-20 15:58:9.588	WT901BLE68-00(D4622C7A0848)	0.068	-1.031	0.208	21.423	1.038	3.113	-86.66	-2.85	4.17	1.078	-10.388	65.366	-0.71637	0.69626	0.04276	-0.01080	28.4	13111	100
2025-2-20 15:58:9.646	WT901BLE68-00(D4622C7A0848)	0.030	-1.031	0.208	21.423	1.038	3.113	-86.43	-2.82	4.14	1.078	-10.388	65.366	-0.71637	0.69626	0.04276	-0.01080	28.4	13111	100
2025-2-20 15:58:9.647	WT901BLE68-00(D4622C7A0848)	0.030	-1.019	0.215	21.057	-7.507	0.000	-86.22	-2.83	4.19	1.078	-10.388	65.366	-0.71637	0.69626	0.04276	-0.01080	28.4	13111	100
2025-2-20 15:58:9.647	WT901BLE68-00(D4622C7A0848)	0.038	-1.019	0.215	21.057	-7.507	0.000	-86.00	-2.84	4.24	1.078	-10.388	65.366	-0.71637	0.69626	0.04276	-0.01080	28.4	13111	100
2025-2-20 15:58:9.647	WT901BLE68-00(D4622C7A0848)	0.038	-1.057	0.174	23.315	-14.343	-2.319	-85.76	-2.87	4.36	1.078	-10.388	65.366	-0.71637	0.69626	0.04276	-0.01080	28.4	13111	100
2025-2-20 15:58:9.675	WT901BLE68-00(D4622C7A0848)	0.046	-1.057	0.174	23.315	-14.343	-2.319	-85.52	-2.91	4.47	1.078	-10.388	65.366	-0.71637	0.69626	0.04276	-0.01080	28.4	13111	100
2025-2-20 15:58:9.675	WT901BLE68-00(D4622C7A0848)	0.046	-1.087	0.114	28.992	-18.738	-0.977	-85.23	-2.94	4.63	1.078	-10.388	65.366	-0.71637	0.69626	0.04276	-0.01080	28.4	13111	100
2025-2-20 15:58:9.675	WT901BLE68-00(D4622C7A0848)	0.101	-1.087	0.114	28.992	-18.738	-0.977	-84.94	-2.97	4.80	1.078	-10.388	65.366	-0.71637	0.69626	0.04276	-0.01080	28.4	13111	100
2025-2-20 15:58:9.675	WT901BLE68-00(D4622C7A0848)	0.101	-1.039	0.075	35.400	-21.667	2.136	-84.59	-2.97	4.98	1.078	-10.388	65.366	-0.71637	0.69626	0.04276	-0.01080	28.4	13111	100
2025-2-20 15:58:9.706	WT901BLE68-00(D4622C7A0848)	0.131	-1.039	0.075	35.400	-21.667	2.136	-84.24	-2.97	5.17	1.078	-10.388	65.366	-0.71637	0.69626	0.04276	-0.01080	28.4	13111	100
2025-2-20 15:58:9.706	WT901BLE68-00(D4622C7A0848)	0.131	-0.965	0.054	36.011	-15.808	4.883	-83.89	-2.94	5.31	1.078	-10.388	65.366	-0.71637	0.69626	0.04276	-0.01080	28.4	13111	100
2025-2-20 15:58:9.706	WT901BLE68-00(D4622C7A0848)	0.134	-0.965	0.054	36.011	-15.808	4.883	-83.54	-2.92	5.44	1.078	-10.388	65.366	-0.71637	0.69626	0.04276	-0.01080	28.4	13111	100
2025-2-20 15:58:9.706	WT901BLE68-00(D4622C7A0848)	0.134	-0.937	0.029	33.020	-10.376	6.042	-83.23	-2.88	5.53	1.078	-10.388	65.366	-0.71637	0.69626	0.04276	-0.01080	28.4	13111	100
2025-2-20 15:58:9.768	WT901BLE68-00(D4622C7A0848)	0.122	-0.937	0.029	33.020	-10.376	6.042	-82.91	-2.85	5.61	1.078	-10.388	65.366	-0.71637	0.69626	0.04276	-0.01080	28.4	13111	100
2025-2-20 15:58:9.768	WT901BLE68-00(D4622C7A0848)	0.122	-0.952	0.006	30.396	-9.521	6.409	-82.63	-2.81	5.68	1.078	-10.388	65.366	-0.71637	0.69626	0.04276	-0.01080	28.4	13111	100
2025-2-20 15:58:9.768	WT901BLE68-00(D4622C7A0848)	0.119	-0.952	0.006	30.396	-9.521	6.409	-82.35	-2.77	5.75	1.078	-10.388	65.366	-0.71637	0.69626	0.04276	-0.01080	28.4	13111	100
2025-2-20 15:58:9.768	WT901BLE68-00(D4622C7A0848)	0.119	-0.967	-0.006	28.748	-7.446	5.676	-82.10	-2.74	5.81	1.078	-10.388	65.366	-0.71637	0.69626	0.04276	-0.01080	28.4	13111	100
2025-2-20 15:58:9.826	WT901BLE68-00(D4622C7A0848)	0.096	-0.967	-0.006	28.748	-7.446	5.676	-81.84	-2.71	5.86	1.078	-10.388	65.366	-0.71637	0.69626	0.04276	-0.01080	28.4	13111	100
2025-2-20 15:58:9.826	WT901BLE68-00(D4622C7A0848)	0.099	-0.978	-0.010	24.658	-5.188	4.028	-81.63	-2.70	5.88	1.078	-10.388	65.366	-0.71637	0.69626	0.04276	-0.01080	28.4	13111	100
2025-2-20 15:58:9.827	WT901BLE68-00(D4622C7A0848)	0.099	-0.993	-0.010	21.118	-4.089	2.930	-81.44	-2.69	5.91	1.078	-10.388	65.366	-0.71637	0.69626	0.04276	-0.01080	28.4	13111	100
2025-2-20 15:58:9.827	WT901BLE68-00(D4622C7A0848)	0.109	-0.993	-0.010	21.118	-4.089	2.930	-81.27	-2.68	5.92	1.078	-10.388	65.366	-0.75967	0.64780	0.05014	-0.02518	28.4	13111	100
2025-2-20 15:58:9.828	WT901BLE68-00(D4622C7A0848)	0.109	-0.987	-0.008	18.738	-3.296	2.808	-81.11	-2.68	5.93	1.078	-10.388	65.366	-0.75967	0.64780	0.05014	-0.02518	28.4	13111	100
2025-2-20 15:58:9.828	WT901BLE68-00(D4622C7A0848)	0.111	-0.987	-0.008	18.738	-3.296	2.808	-80.97	-2.67	5.94	1.078	-10.388	65.366	-0.75967	0.64780	0.05014	-0.02518	28.4	13111	100
2025-2-20 15:58:9.828	WT901BLE68-00(D4622C7A0848)	0.111	-0.974	0.012	14.404	0.000	2.930	-80.85	-2.66	5.93	1.078	-10.388	65.366	-0.75967	0.64780	0.05014	-0.02518	28.4	13111	100
2025-2-20 15:58:9.828	WT901BLE68-00(D4622C7A0848)	0.111	-0.974	0.012	14.404	0.000	2.930	-80.76	-2.65	5.91	1.078	-10.388	65.366	-0.75967	0.64780	0.05014	-0.02518	28.4	13111	100
2025-2-20 15:58:9.885	WT901BLE68-00(D4622C7A0848)	0.111	-0.972	0.024	9.705	2.502	1.709	-80.68	-2.64	5.87	1.078	-10.388	65.366	-0.75967	0.64780	0.05014	-0.02518	28.4	13111	100
2025-2-20 15:58:9.886	WT901BLE68-00(D4622C7A0848)	0.101	-0.972	0.024	9.705	2.502	1.709	-80.63	-2.64	5.82	1.078	-10.388	65.366	-0.75967	0.64780	0.05014	-0.02518	28.4	13111	100
2025-2-20 15:58:9.886	WT901BLE68-00(D4622C7A0848)	0.101	-0.995	0.031	5.310	0.549	0.366	-80.61	-2.65	5.78	1.078	-10.388	65.366	-0.75967	0.64780	0.05014	-0.02518	28.4	13111	100
2025-2-20 15:58:9.886	WT901BLE68-00(D4622C7A0848)	0.091	-0.995	0.031	5.310	0.549	0.366	-80.61	-2.66	5.75	1.078	-10.388	65.366	-0.75967	0.64780	0.05014	-0.02518	28.4	13111	100
2025-2-20 15:58:9.916	WT901BLE68-00(D4622C7A0848)	0.091	-0.999	0.045	4.272	-2.930	0.000	-80.61	-2.68	5.73	1.078	-10.388	65.366	-0.75967	0.64780	0.05014	-0.02518	28.4	13111	100
2025-2-20 15:58:9.916	WT901BLE68-00(D4622C7A0848)	0.086	-0.999	0.045	4.272	-2.930	0.000	-80.61	-2.71	5.73	1.078	-10.388	65.366	-0.75967	0.64780	0.05014	-0.02518	28.4	13111	100
2025-2-20 15:58:9.916	WT901BLE68-00(D4622C7A0848)	0.086	-0.990	0.058	3.540	-5.737	-0.061	-80.62	-2.73	5.75	1.078	-10.388	65.366	-0.75967	0.64780	0.05014	-0.02518	28.4	13111	100
2025-2-20 15:58:9.916	WT901BLE68-00(D4622C7A0848)	0.102	-0.990	0.058	3.540	-5.737	-0.061	-80.63	-2.76	5.78	1.078	-10.388	65.366	-0.75967	0.64780	0.05014	-0.02518	28.4	13111	100
2025-2-20 15:58:9.945	WT901BLE68-00(D4622C7A0848)	0.102	-0.979	0.074	2.869	-6.592	0.000	-80.65	-2.79	5.82	1.078	-10.388	65.366	-0.75967	0.64780	0.05014	-0.02518	28.4	13111	100
2025-2-20 15:58:9.946	WT901BLE68-00(D4622C7A0848)	0.109	-0.979	0.074	2.869	-6.592	0.000	-80.67	-2.81	5.86	1.078	-10.388	65.366	-0.75967	0.64780	0.05014	-0.02518	28.4	13111	100
2025-2-20 15:58:9.946	WT901BLE68-00(D4622C7A0848)	0.109	-0.966	0.084	1.221	-3.967	0.549	-80.69	-2.83	5.88	1.078	-10.388	65.366	-0.75967	0.64780	0.05014	-0.02518	28.4	13111	100
2025-2-20 15:58:9.946	WT901BLE68-00(D4622C7A0848)	0.116	-0.966	0.084	1.221	-3.967	0.549	-80.72	-2.86	5.89	1.078	-10.388	65.366	-0.75967	0.64780	0.05014	-0.02518	28.4	13111	100
2025-2-20 15:58:10.6	WT901BLE68-00(D4622C7A0848)	0.116	-0.976	0.099	-0.793	-0.122	0.549	-80.76	-2.87	5.88	1.078	-10.388	65.366	-0.75967	0.64780	0.05014	-0.02518	28.4	13111	100
2025-2-20 15:58:10.6	WT901BLE68-00(D4622C7A0848)	0.110	-0.976	0.099	-0.793	-0.122	0.549	-80.80	-2.88	5.86	1.078	-10.388	65.366	-0.75967	0.64780	0.05014	-0.02518	28.4	13111	100
2025-2-20 15:58:10.6	WT901BLE68-00(D4622C7A0848)	0.110	-0.992	0.115	-2.319	3.174	-0.061	-80.85	-2.89	5.82	1.078	-10.388	65.366	-0.75967	0.64780	0.05014	-0.02518	28.4	13111	100
2025-2-20 15:58:10.6	WT901BLE68-00(D4622C7A0848)	0.107	-0.992	0.115	-2.319	3.174	-0.061	-80.91	-2.91	5.76	1.078	-10.388	65.366	-0.75967	0.64780	0.05014	-0.02518	28.4	13111	100
2025-2-20 15:58:10.35	WT901BLE68-00(D4622C7A0848)	0.107	-1.003	0.124	-2.502	3.906	-0.671	-80.96	-2.93	5.69	2.548	-6.762	62.132	-0.75967	0.64780	0.05014	-0.02518	28.4	13111	100
2025-2-20 15:58:10.35	WT901BLE68-00(D4622C7A0848)	0.093	-1.003	0.124	-2.502	3.906	-0.671	-81.02	-2.94	5.63	2.548	-6.762	62.132	-0.75967	0.64780	0.05014	-0.02518	28.4	13111	100
2025-2-20 15:58:10.35	WT901BLE68-00(D4622C7A0848)	0.093	-0.997	0.126	-1.648	3.113	-1.160	-81.06	-2.97	5.56	2.548	-6.762	62.132	-0.75967	0.64780	0.05014	-0.02518	28.4	13111	100
2025-2-20 15:58:10.35	WT901BLE68-00(D4622C7A0848)	0.098	-0.997	0.126	-1.648	3.113	-1.160	-81.10	-2.99	5.50	2.548	-6.762	62.132	-0.75967	0.64780	0.05014	-0.02518	28.4	13111	100
2025-2-20 15:58:10.66	WT901BLE68-00(D4622C7A0848)	0.098	-0.974	0.133	-0.854	2.075	-1.404	-81.14	-3.02	5.45	2.548	-6.762	62.132	-0.75967	0.64780	0.05014	-0.02518	28.4	13111	100
2025-2-20 15:58:10.66	WT901BLE68-00(D4622C7A0848)	0.093	-0.974	0.133	-0.854	2.075	-1.404	-81.17	-3.05	5.40	2.548	-6.762	62.132	-0.75967	0.64780	0.05014	-0.02518	28.4	13111	100
2025-2-20 15:58:10.66	WT901BLE68-00(D4622C7A0848)	0.093	-0.961	0.139	-2.197	2.319	-2.014	-81.20	-3.08	5.34	2.548	-6.762	62.132	-0.75967	0.64780	0.05014	-0.02518	28.4	13111	100
2025-2-20 15:58:10.66	WT901BLE68-00(D4622C7A0848)	0.098	-0.961	0.139	-2.197	2.319	-2.014	-81.24	-3.11	5.30	2.548	-6.762	62.132	-0.75967	0.64780	0.05014	-0.02518	28.4	13111	100
2025-2-20 15:58:10.126	WT901BLE68-00(D4622C7A0848)	0.098	-0.969	0.147	-2.869	4.089	-2.625	-81.28	-3.15	5.23	2.548	-6.762	62.132	-0.75967	0.64780	0.05014	-0.02518	28.4	13111	100
2025-2-20 15:58:10.126	WT901BLE68-00(D4622C7A0848)	0.107	-0.969	0.147	-2.869	4.089	-2.625	-81.32	-3.18	5.16	2.548	-6.762	62.132	-0.75967	0.64780	0.05014	-0.02518	28.4	13111	100
2025-2-20 15:58:10.126	WT901BLE68-00(D4622C7A0848)	0.107	-0.968	0.147	-2.502	7.935	-2.625	-81.36	-3.21	5.07	2.548	-6.762	62.132	-0.75967	0.64780	0.05014	-0.02518	28.4	13111	100
2025-2-20 15:58:10.126	WT901BLE68-00(D4622C7A0848)	0.106	-0.968	0.147	-2.502	7.935	-2.625	-81.39	-3.25	4.96	2.548	-6.762	62.132	-0.75967	0.64780	0.05014	-0.02518	28.4	13111	100
2025-2-20 15:58:10.158	WT901BLE68-00(D4622C7A0848)	0.106	-0.959	0.147	-2.808	13.184	-2.991	-81.43	-3.27	4.83	2.548	-6.762	62.132	-0.75967	0.64780	0.05014	-0.02518	28.4	13111	100
2025-2-20 15:58:10.158	WT901BLE68-00(D4622C7A0848)	0.071	-0.959	0.147	-2.808	13.184	-2.991	-81.46	-3.30	4.66	2.548	-6.762	62.132	-0.75967	0.64780	0.05014	-0.02518	28.4	13111	100
2025-2-20 15:58:10.158	WT901BLE68-00(D4622C7A0848)	0.071	-0.971	0.149	-3.845	11.597	-4.395	-81.49	-3.33	4.52	2.548	-6.762	62.132	-0.75967	0.64780	0.05014	-0.02518	28.4	13111	100
2025-2-20 15:58:10.158	WT901BLE68-00(D4622C7A0848)	0.063	-0.971	0.149	-3.845	11.597	-4.395	-81.53	-3.37	4.37	2.548	-6.762	62.132	-0.75967	0.64780	0.05014	-0.02518	28.4	13111	100
2025-2-20 15:58:10.188	WT901BLE68-00(D4622C7A0848)	0.063	-0.987	0.164	-2.686	6.592	-4.700	-81.56	-3.42	4.25	2.548	-6.762	62.132	-0.75967	0.64780	0.05014	-0.02518	28.4	13111	100
2025-2-20 15:58:10.188	WT901BLE68-00(D4622C7A0848)	0.052	-0.987	0.164	-2.686	6.592	-4.700	-81.59	-3.47	4.15	2.548	-6.762	62.132	-0.75967	0.64780	0.05014	-0.02518	28.4	13111	100
2025-2-20 15:58:10.188	WT901BLE68-00(D4622C7A0848)	0.052	-0.994	0.173	-1.587	2.930	-4.211	-81.61	-3.52	4.08	2.548	-6.762	62.132	-0.75757	0.65103	0.04526	-0.00793	28.4	13111	100
2025-2-20 15:58:10.188	WT901BLE68-00(D4622C7A0848)	0.056	-0.994	0.173	-1.587	2.930	-4.211	-81.63	-3.57	4.02	2.548	-6.762	62.132	-0.75757	0.65103	0.04526	-0.00793	28.4	13111	100
2025-2-20 15:58:10.246	WT901BLE68-00(D4622C7A0848)	0.056	-0.991	0.178	-0.183	1.343	-3.845	-81.64	-3.61	3.97	2.548	-6.762	62.132	-0.75757	0.65103	0.04526	-0.00793	28.4	13111	100
2025-2-20 15:58:10.247	WT901BLE68-00(D4622C7A0848)	0.064	-0.991	0.178	-0.183	1.343	-3.845	-81.64	-3.65	3.93	2.548	-6.762	62.132	-0.75757	0.65103	0.04526	-0.00793	28.4	13111	100
2025-2-20 15:58:10.247	WT901BLE68-00(D4622C7A0848)	0.064	-0.982	0.171	0.549	2.380	-3.418	-81.63	-3.69	3.88	2.548	-6.762	62.132	-0.75757	0.65103	0.04526	-0.00793	28.4	13111	100
2025-2-20 15:58:10.247	WT901BLE68-00(D4622C7A0848)	0.075	-0.982	0.171	0.549	2.380	-3.418	-81.63	-3.72	3.83	2.548	-6.762	62.132	-0.75757	0.65103	0.04526	-0.00793	28.4	13111	100
2025-2-20 15:58:10.278	WT901BLE68-00(D4622C7A0848)	0.075	-0.987	0.165	0.732	4.944	-2.502	-81.62	-3.75	3.77	2.548	-6.762	62.132	-0.75757	0.65103	0.04526	-0.00793	28.4	13111	100
2025-2-20 15:58:10.278	WT901BLE68-00(D4622C7A0848)	0.075	-0.987	0.165	0.732	4.944	-2.502	-81.60	-3.77	3.69	2.548	-6.762	62.132	-0.75757	0.65103	0.04526	-0.00793	28.4	13111	100
2025-2-20 15:58:10.278	WT901BLE68-00(D4622C7A0848)	0.075	-0.989	0.166	0.977	8.484	-2.319	-81.59	-3.80	3.60	2.548	-6.762	62.132	-0.75757	0.65103	0.04526	-0.00793	28.4	13111	100
2025-2-20 15:58:10.278	WT901BLE68-00(D4622C7A0848)	0.073	-0.989	0.166	0.977	8.484	-2.319	-81.57	-3.81	3.49	2.548	-6.762	62.132	-0.75757	0.65103	0.04526	-0.00793	28.4	13111	100
2025-2-20 15:58:10.306	WT901BLE68-00(D4622C7A0848)	0.073	-0.987	0.167	1.404	11.841	-2.625	-81.55	-3.82	3.35	2.548	-6.762	62.132	-0.75757	0.65103	0.04526	-0.00793	28.4	13111	100
2025-2-20 15:58:10.306	WT901BLE68-00(D4622C7A0848)	0.068	-0.987	0.167	1.404	11.841	-2.625	-81.52	-3.83	3.21	2.548	-6.762	62.132	-0.75757	0.65103	0.04526	-0.00793	28.4	13111	100
2025-2-20 15:58:10.306	WT901BLE68-00(D4622C7A0848)	0.068	-0.978	0.170	1.770	15.869	-2.625	-81.49	-3.84	3.03	2.548	-6.762	62.132	-0.75757	0.65103	0.04526	-0.00793	28.4	13111	100
2025-2-20 15:58:10.306	WT901BLE68-00(D4622C7A0848)	0.057	-0.978	0.170	1.770	15.869	-2.625	-81.46	-3.85	2.85	2.548	-6.762	62.132	-0.75757	0.65103	0.04526	-0.00793	28.4	13111	100
2025-2-20 15:58:10.366	WT901BLE68-00(D4622C7A0848)	0.057	-0.976	0.170	2.258	18.555	-2.319	-81.42	-3.85	2.64	2.548	-6.762	62.132	-0.75757	0.65103	0.04526	-0.00793	28.4	13111	100
2025-2-20 15:58:10.366	WT901BLE68-00(D4622C7A0848)	0.050	-0.976	0.170	2.258	18.555	-2.319	-81.38	-3.84	2.43	2.548	-6.762	62.132	-0.75757	0.65103	0.04526	-0.00793	28.4	13111	100
2025-2-20 15:58:10.367	WT901BLE68-00(D4622C7A0848)	0.050	-0.975	0.168	2.258	19.897	-2.136	-81.34	-3.83	2.22	2.548	-6.762	62.132	-0.75757	0.65103	0.04526	-0.00793	28.4	13111	100
2025-2-20 15:58:10.367	WT901BLE68-00(D4622C7A0848)	0.033	-0.975	0.168	2.258	19.897	-2.136	-81.30	-3.82	2.00	2.548	-6.762	62.132	-0.75757	0.65103	0.04526	-0.00793	28.4	13111	100
2025-2-20 15:58:10.395	WT901BLE68-00(D4622C7A0848)	0.033	-0.972	0.163	1.282	15.808	-1.892	-81.28	-3.82	1.82	2.548	-6.762	62.132	-0.75757	0.65103	0.04526	-0.00793	28.4	13111	100
2025-2-20 15:58:10.395	WT901BLE68-00(D4622C7A0848)	0.012	-0.972	0.163	1.282	15.808	-1.892	-81.25	-3.81	1.65	2.548	-6.762	62.132	-0.75757	0.65103	0.04526	-0.00793	28.4	13111	100
2025-2-20 15:58:10.395	WT901BLE68-00(D4622C7A0848)	0.012	-0.981	0.155	0.977	3.357	-2.075	-81.23	-3.83	1.60	2.548	-6.762	62.132	-0.75757	0.65103	0.04526	-0.00793	28.4	13111	100
2025-2-20 15:58:10.395	WT901BLE68-00(D4622C7A0848)	0.035	-0.981	0.155	0.977	3.357	-2.075	-81.22	-3.84	1.55	0.000	-6.860	63.504	-0.75757	0.65103	0.04526	-0.00793	28.4	13111	100
2025-2-20 15:58:10.458	WT901BLE68-00(D4622C7A0848)	0.035	-0.985	0.167	1.831	-3.113	-1.709	-81.20	-3.86	1.57	0.000	-6.860	63.504	-0.75757	0.65103	0.04526	-0.00793	28.4	13111	100
2025-2-20 15:58:10.458	WT901BLE68-00(D4622C7A0848)	0.051	-0.985	0.167	1.831	-3.113	-1.709	-81.18	-3.87	1.58	0.000	-6.860	63.504	-0.75757	0.65103	0.04526	-0.00793	28.4	13111	100
2025-2-20 15:58:10.458	WT901BLE68-00(D4622C7A0848)	0.051	-0.978	0.169	2.502	-5.676	-1.465	-81.16	-3.89	1.61	0.000	-6.860	63.504	-0.75757	0.65103	0.04526	-0.00793	28.4	13111	100
2025-2-20 15:58:10.458	WT901BLE68-00(D4622C7A0848)	0.070	-0.978	0.169	2.502	-5.676	-1.465	-81.13	-3.91	1.65	0.000	-6.860	63.504	-0.75757	0.65103	0.04526	-0.00793	28.4	13111	100
2025-2-20 15:58:10.488	WT901BLE68-00(D4622C7A0848)	0.070	-0.969	0.166	2.136	-2.258	-1.160	-81.11	-3.92	1.66	0.000	-6.860	63.504	-0.75757	0.65103	0.04526	-0.00793	28.4	13111	100
2025-2-20 15:58:10.488	WT901BLE68-00(D4622C7A0848)	0.068	-0.969	0.166	2.136	-2.258	-1.160	-81.08	-3.93	1.66	0.000	-6.860	63.504	-0.75757	0.65103	0.04526	-0.00793	28.4	13111	100
2025-2-20 15:58:10.488	WT901BLE68-00(D4622C7A0848)	0.068	-0.975	0.163	1.221	2.686	-0.183	-81.07	-3.92	1.62	0.000	-6.860	63.504	-0.75757	0.65103	0.04526	-0.00793	28.4	13111	100
2025-2-20 15:58:10.488	WT901BLE68-00(D4622C7A0848)	0.070	-0.975	0.163	1.221	2.686	-0.183	-81.05	-3.92	1.58	0.000	-6.860	63.504	-0.75757	0.65103	0.04526	-0.00793	28.4	13111	100
2025-2-20 15:58:10.516	WT901BLE68-00(D4622C7A0848)	0.070	-0.982	0.161	1.099	5.676	0.610	-81.04	-3.90	1.51	0.000	-6.860	63.504	-0.75757	0.65103	0.04526	-0.00793	28.4	13111	100
2025-2-20 15:58:10.516	WT901BLE68-00(D4622C7A0848)	0.066	-0.982	0.161	1.099	5.676	0.610	-81.01	-3.88	1.44	0.000	-6.860	63.504	-0.75757	0.65103	0.04526	-0.00793	28.4	13111	100
2025-2-20 15:58:10.516	WT901BLE68-00(D4622C7A0848)	0.066	-0.985	0.164	1.099	7.446	0.854	-81.00	-3.86	1.35	0.000	-6.860	63.504	-0.75757	0.65103	0.04526	-0.00793	28.4	13111	100
2025-2-20 15:58:10.516	WT901BLE68-00(D4622C7A0848)	0.062	-0.985	0.164	1.099	7.446	0.854	-80.98	-3.84	1.26	0.000	-6.860	63.504	-0.75757	0.65103	0.04526	-0.00793	28.4	13111	100
2025-2-20 15:58:10.578	WT901BLE68-00(D4622C7A0848)	0.062	-0.986	0.161	1.526	7.263	0.061	-80.96	-3.83	1.18	0.000	-6.860	63.504	-0.75757	0.65103	0.04526	-0.00793	28.4	13111	100
2025-2-20 15:58:10.578	WT901BLE68-00(D4622C7A0848)	0.060	-0.986	0.161	1.526	7.263	0.061	-80.94	-3.81	1.09	0.000	-6.860	63.504	-0.75757	0.65103	0.04526	-0.00793	28.4	13111	100
2025-2-20 15:58:10.578	WT901BLE68-00(D4622C7A0848)	0.060	-0.979	0.164	2.075	6.714	-0.183	-80.91	-3.81	1.01	0.000	-6.860	63.504	-0.75757	0.65103	0.04526	-0.00793	28.4	13111	100
2025-2-20 15:58:10.578	WT901BLE68-00(D4622C7A0848)	0.055	-0.979	0.164	2.075	6.714	-0.183	-80.89	-3.80	0.93	0.000	-6.860	63.504	-0.75757	0.65103	0.04526	-0.00793	28.4	13111	100
2025-2-20 15:58:10.607	WT901BLE68-00(D4622C7A0848)	0.055	-0.978	0.169	1.404	6.592	-0.366	-80.86	-3.78	0.85	0.000	-6.860	63.504	-0.75757	0.65103	0.04526	-0.00793	28.4	13111	100
2025-2-20 15:58:10.607	WT901BLE68-00(D4622C7A0848)	0.057	-0.978	0.169	1.404	6.592	-0.366	-80.84	-3.78	0.77	0.000	-6.860	63.504	-0.75757	0.65103	0.04526	-0.00793	28.4	13111	100
2025-2-20 15:58:10.607	WT901BLE68-00(D4622C7A0848)	0.057	-0.973	0.164	1.038	5.371	-0.366	-80.83	-3.77	0.71	0.000	-6.860	63.504	-0.75757	0.65103	0.04526	-0.00793	28.4	13111	100
2025-2-20 15:58:10.607	WT901BLE68-00(D4622C7A0848)	0.051	-0.973	0.164	1.038	5.371	-0.366	-80.82	-3.77	0.64	0.000	-6.860	63.504	-0.76196	0.64676	0.02734	0.01608	28.4	13111	100
2025-2-20 15:58:10.638	WT901BLE68-00(D4622C7A0848)	0.051	-0.968	0.164	0.000	3.174	-0.305	-80.81	-3.76	0.60	0.000	-6.860	63.504	-0.76196	0.64676	0.02734	0.01608	28.4	13111	100
2025-2-20 15:58:10.638	WT901BLE68-00(D4622C7A0848)	0.051	-0.968	0.164	0.000	3.174	-0.305	-80.81	-3.76	0.55	0.000	-6.860	63.504	-0.76196	0.64676	0.02734	0.01608	28.4	13111	100
2025-2-20 15:58:10.638	WT901BLE68-00(D4622C7A0848)	0.051	-0.970	0.164	0.122	-0.244	-0.244	-80.80	-3.76	0.54	0.000	-6.860	63.504	-0.76196	0.64676	0.02734	0.01608	28.4	13111	100
2025-2-20 15:58:10.638	WT901BLE68-00(D4622C7A0848)	0.061	-0.970	0.164	0.122	-0.244	-0.244	-80.80	-3.76	0.53	0.000	-6.860	63.504	-0.76196	0.64676	0.02734	0.01608	28.4	13111	100
2025-2-20 15:58:10.696	WT901BLE68-00(D4622C7A0848)	0.061	-0.968	0.166	0.183	-2.686	-0.183	-80.80	-3.77	0.54	0.000	-6.860	63.504	-0.76196	0.64676	0.02734	0.01608	28.4	13111	100
2025-2-20 15:58:10.696	WT901BLE68-00(D4622C7A0848)	0.063	-0.968	0.166	0.183	-2.686	-0.183	-80.80	-3.77	0.56	0.000	-6.860	63.504	-0.76196	0.64676	0.02734	0.01608	28.4	13111	100
2025-2-20 15:58:10.696	WT901BLE68-00(D4622C7A0848)	0.063	-0.975	0.171	-0.183	-2.197	-0.427	-80.80	-3.77	0.57	0.000	-6.860	63.504	-0.76196	0.64676	0.02734	0.01608	28.4	13111	100
2025-2-20 15:58:10.696	WT901BLE68-00(D4622C7A0848)	0.071	-0.975	0.171	-0.183	-2.197	-0.427	-80.80	-3.78	0.58	0.000	-6.860	63.504	-0.76196	0.64676	0.02734	0.01608	28.4	13111	100
2025-2-20 15:58:10.726	WT901BLE68-00(D4622C7A0848)	0.071	-0.983	0.172	-0.061	0.000	-0.671	-80.80	-3.79	0.56	0.000	-6.860	63.504	-0.76196	0.64676	0.02734	0.01608	28.4	13111	100
2025-2-20 15:58:10.726	WT901BLE68-00(D4622C7A0848)	0.066	-0.983	0.172	-0.061	0.000	-0.671	-80.80	-3.80	0.55	0.000	-6.860	63.504	-0.76196	0.64676	0.02734	0.01608	28.4	13111	100
2025-2-20 15:58:10.726	WT901BLE68-00(D4622C7A0848)	0.066	-0.981	0.170	0.122	2.747	-0.549	-80.79	-3.80	0.51	0.000	-6.860	63.504	-0.76196	0.64676	0.02734	0.01608	28.4	13111	100
2025-2-20 15:58:10.726	WT901BLE68-00(D4622C7A0848)	0.056	-0.981	0.170	0.122	2.747	-0.549	-80.79	-3.80	0.47	0.000	-6.860	63.504	-0.76196	0.64676	0.02734	0.01608	28.4	13111	100
2025-2-20 15:58:10.756	WT901BLE68-00(D4622C7A0848)	0.056	-0.974	0.172	0.183	3.845	-0.610	-80.78	-3.80	0.41	0.000	-6.860	63.504	-0.76196	0.64676	0.02734	0.01608	28.4	13111	100
2025-2-20 15:58:10.756	WT901BLE68-00(D4622C7A0848)	0.056	-0.974	0.172	0.183	3.845	-0.610	-80.78	-3.80	0.36	0.000	-6.860	63.504	-0.76196	0.64676	0.02734	0.01608	28.4	13111	100
2025-2-20 15:58:10.756	WT901BLE68-00(D4622C7A0848)	0.056	-0.974	0.174	-0.061	4.150	-0.671	-80.77	-3.80	0.31	0.000	-6.860	63.504	-0.76196	0.64676	0.02734	0.01608	28.4	13111	100
2025-2-20 15:58:10.756	WT901BLE68-00(D4622C7A0848)	0.057	-0.974	0.174	-0.061	4.150	-0.671	-80.77	-3.79	0.25	0.000	-6.860	63.504	-0.76196	0.64676	0.02734	0.01608	28.4	13111	100
