time	DeviceName	AccX(g)	AccY(g)	AccZ(g)	AsX(°/s)	AsY(°/s)	AsZ(°/s)	AngleX(°)	AngleY(°)	AngleZ(°)	HX(uT)	HY(uT)	HZ(uT)	Q0()	Q1()	Q2()	Q3()	Temperature(°C)	Version()	Battery level(%)
2025-3-6 14:42:13.564	WT901BLE68-01(48591DE3C19B)	-0.188	-0.971	0.165	-3.296	30.823	4.578	-79.36	10.02	-62.04	-32.438	-46.550	32.242	0.68362	-0.50565	0.38782	-0.35559	30.8	13111	100
2025-3-6 14:42:13.564	WT901BLE68-01(48591DE3C19B)	-0.188	-0.986	0.159	-3.296	33.997	5.493	-79.45	10.13	-62.27	-32.438	-46.550	32.242	0.68362	-0.50565	0.38782	-0.35559	30.8	13111	100
2025-3-6 14:42:13.564	WT901BLE68-01(48591DE3C19B)	-0.212	-0.986	0.159	-3.296	33.997	5.493	-79.55	10.24	-62.49	-32.438	-46.550	32.242	0.68362	-0.50565	0.38782	-0.35559	30.8	13111	100
2025-3-6 14:42:13.564	WT901BLE68-01(48591DE3C19B)	-0.212	-0.982	0.156	-1.770	28.076	4.944	-79.61	10.33	-62.65	-32.438	-46.550	32.242	0.68362	-0.50565	0.38782	-0.35559	30.8	13111	100
2025-3-6 14:42:13.593	WT901BLE68-01(48591DE3C19B)	-0.217	-0.982	0.156	-1.770	28.076	4.944	-79.68	10.43	-62.80	-32.438	-46.550	32.242	0.68362	-0.50565	0.38782	-0.35559	30.8	13111	100
2025-3-6 14:42:13.593	WT901BLE68-01(48591DE3C19B)	-0.217	-0.973	0.150	-0.549	17.273	3.967	-79.72	10.49	-62.85	-32.438	-46.550	32.242	0.68362	-0.50565	0.38782	-0.35559	30.8	13111	100
2025-3-6 14:42:13.593	WT901BLE68-01(48591DE3C19B)	-0.228	-0.973	0.150	-0.549	17.273	3.967	-79.76	10.56	-62.90	-32.438	-46.550	32.242	0.68362	-0.50565	0.38782	-0.35559	30.8	13111	100
2025-3-6 14:42:13.593	WT901BLE68-01(48591DE3C19B)	-0.228	-0.974	0.148	0.854	3.906	2.625	-79.77	10.59	-62.80	-32.438	-46.550	32.242	0.68362	-0.50565	0.38782	-0.35559	30.8	13111	100
2025-3-6 14:42:13.624	WT901BLE68-01(48591DE3C19B)	-0.196	-0.974	0.148	0.854	3.906	2.625	-79.77	10.62	-62.71	-32.438	-46.550	32.242	0.68362	-0.50565	0.38782	-0.35559	30.8	13111	100
2025-3-6 14:42:13.624	WT901BLE68-01(48591DE3C19B)	-0.196	-0.969	0.156	2.014	-6.042	0.916	-79.74	10.62	-62.52	-32.438	-46.550	32.242	0.68362	-0.50565	0.38782	-0.35559	30.8	13111	100
2025-3-6 14:42:13.624	WT901BLE68-01(48591DE3C19B)	-0.171	-0.969	0.156	2.014	-6.042	0.916	-79.72	10.62	-62.34	-32.438	-46.550	32.242	0.68362	-0.50565	0.38782	-0.35559	30.8	13111	100
2025-3-6 14:42:13.624	WT901BLE68-01(48591DE3C19B)	-0.171	-0.967	0.159	2.136	-8.240	0.122	-79.68	10.61	-62.13	-32.438	-46.550	32.242	0.68362	-0.50565	0.38782	-0.35559	30.8	13111	100
2025-3-6 14:42:13.714	WT901BLE68-01(48591DE3C19B)	-0.161	-0.967	0.159	2.136	-8.240	0.122	-79.66	10.59	-61.92	-32.438	-46.550	32.242	0.68362	-0.50565	0.38782	-0.35559	30.8	13111	100
2025-3-6 14:42:13.714	WT901BLE68-01(48591DE3C19B)	-0.161	-0.965	0.158	1.831	-7.263	-0.244	-79.63	10.57	-61.73	-32.438	-46.550	32.242	0.68362	-0.50565	0.38782	-0.35559	30.8	13111	100
2025-3-6 14:42:13.715	WT901BLE68-01(48591DE3C19B)	-0.160	-0.965	0.158	1.831	-7.263	-0.244	-79.61	10.56	-61.53	-32.438	-46.550	32.242	0.68362	-0.50565	0.38782	-0.35559	30.8	13111	100
2025-3-6 14:42:13.715	WT901BLE68-01(48591DE3C19B)	-0.158	-0.964	0.161	1.587	-4.822	-0.488	-79.58	10.54	-61.37	-32.438	-46.550	32.242	0.68362	-0.50565	0.38782	-0.35559	30.8	13111	100
2025-3-6 14:42:13.716	WT901BLE68-01(48591DE3C19B)	-0.158	-0.963	0.158	1.282	-2.380	-0.916	-79.57	10.52	-61.22	-32.438	-46.550	32.242	0.68362	-0.50565	0.38782	-0.35559	30.8	13111	100
2025-3-6 14:42:13.716	WT901BLE68-01(48591DE3C19B)	-0.165	-0.963	0.158	1.282	-2.380	-0.916	-79.56	10.51	-61.08	-32.438	-46.550	32.242	0.68362	-0.50565	0.38782	-0.35559	30.8	13111	100
2025-3-6 14:42:13.716	WT901BLE68-01(48591DE3C19B)	-0.165	-0.962	0.158	0.793	-0.671	-1.099	-79.56	10.49	-60.96	-32.438	-46.550	32.242	0.68362	-0.50565	0.38782	-0.35559	30.8	13111	100
2025-3-6 14:42:13.716	WT901BLE68-01(48591DE3C19B)	-0.174	-0.962	0.158	0.793	-0.671	-1.099	-79.55	10.48	-60.84	-32.438	-46.550	32.242	0.68967	-0.51404	0.38281	-0.33682	30.8	13111	100
2025-3-6 14:42:13.746	WT901BLE68-01(48591DE3C19B)	-0.174	-0.964	0.160	0.488	-1.160	-1.587	-79.55	10.46	-60.73	-32.438	-46.550	32.242	0.68967	-0.51404	0.38281	-0.33682	30.8	13111	100
2025-3-6 14:42:13.746	WT901BLE68-01(48591DE3C19B)	-0.177	-0.964	0.160	0.488	-1.160	-1.587	-79.55	10.44	-60.61	-32.438	-46.550	32.242	0.68967	-0.51404	0.38281	-0.33682	30.8	13111	100
2025-3-6 14:42:13.746	WT901BLE68-01(48591DE3C19B)	-0.177	-0.966	0.160	0.183	-2.991	-2.258	-79.55	10.42	-60.48	-32.438	-46.550	32.242	0.68967	-0.51404	0.38281	-0.33682	30.8	13111	100
2025-3-6 14:42:13.746	WT901BLE68-01(48591DE3C19B)	-0.178	-0.966	0.160	0.183	-2.991	-2.258	-79.55	10.38	-60.35	-32.438	-46.550	32.242	0.68967	-0.51404	0.38281	-0.33682	30.8	13111	100
2025-3-6 14:42:13.804	WT901BLE68-01(48591DE3C19B)	-0.178	-0.974	0.165	0.000	-5.371	-2.991	-79.55	10.34	-60.20	-32.438	-46.550	32.242	0.68967	-0.51404	0.38281	-0.33682	30.8	13111	100
2025-3-6 14:42:13.804	WT901BLE68-01(48591DE3C19B)	-0.177	-0.974	0.165	0.000	-5.371	-2.991	-79.55	10.31	-60.05	-32.438	-46.550	32.242	0.68967	-0.51404	0.38281	-0.33682	30.8	13111	100
2025-3-6 14:42:13.804	WT901BLE68-01(48591DE3C19B)	-0.177	-0.985	0.177	-0.183	-7.507	-3.601	-79.54	10.26	-59.88	-32.438	-46.550	32.242	0.68967	-0.51404	0.38281	-0.33682	30.8	13111	100
2025-3-6 14:42:13.804	WT901BLE68-01(48591DE3C19B)	-0.173	-0.985	0.177	-0.183	-7.507	-3.601	-79.54	10.21	-59.71	-32.438	-46.550	32.242	0.68967	-0.51404	0.38281	-0.33682	30.8	13111	100
2025-3-6 14:42:13.833	WT901BLE68-01(48591DE3C19B)	-0.173	-1.002	0.187	-0.549	-7.751	-4.150	-79.54	10.16	-59.54	-32.438	-46.550	32.242	0.68967	-0.51404	0.38281	-0.33682	30.8	13111	100
2025-3-6 14:42:13.833	WT901BLE68-01(48591DE3C19B)	-0.164	-1.002	0.187	-0.549	-7.751	-4.150	-79.53	10.10	-59.38	-32.438	-46.550	32.242	0.68967	-0.51404	0.38281	-0.33682	30.8	13111	100
2025-3-6 14:42:13.833	WT901BLE68-01(48591DE3C19B)	-0.164	-1.014	0.202	-0.854	-4.089	-4.639	-79.54	10.04	-59.23	-32.438	-46.550	32.242	0.68967	-0.51404	0.38281	-0.33682	30.8	13111	100
2025-3-6 14:42:13.833	WT901BLE68-01(48591DE3C19B)	-0.214	-1.014	0.202	-0.854	-4.089	-4.639	-79.54	9.99	-59.10	-32.438	-46.550	32.242	0.68967	-0.51404	0.38281	-0.33682	30.8	13111	100
2025-3-6 14:42:13.896	WT901BLE68-01(48591DE3C19B)	-0.214	-1.023	0.227	-1.160	-1.099	-4.578	-79.55	9.94	-58.99	-32.438	-46.550	32.242	0.68967	-0.51404	0.38281	-0.33682	30.8	13111	100
2025-3-6 14:42:13.896	WT901BLE68-01(48591DE3C19B)	-0.274	-1.023	0.227	-1.160	-1.099	-4.578	-79.56	9.89	-58.89	-32.438	-46.550	32.242	0.68967	-0.51404	0.38281	-0.33682	30.8	13111	100
2025-3-6 14:42:13.896	WT901BLE68-01(48591DE3C19B)	-0.274	-1.034	0.239	0.610	-7.202	-3.723	-79.56	9.84	-58.77	-32.438	-46.550	32.242	0.68967	-0.51404	0.38281	-0.33682	30.8	13111	100
2025-3-6 14:42:13.896	WT901BLE68-01(48591DE3C19B)	-0.285	-1.034	0.239	0.610	-7.202	-3.723	-79.54	9.80	-58.61	-32.438	-46.550	32.242	0.68967	-0.51404	0.38281	-0.33682	30.8	13111	100
2025-3-6 14:42:13.926	WT901BLE68-01(48591DE3C19B)	-0.285	-1.000	0.243	3.906	-17.029	0.610	-79.49	9.77	-58.40	-32.438	-46.550	32.242	0.68967	-0.51404	0.38281	-0.33682	30.8	13111	100
2025-3-6 14:42:13.926	WT901BLE68-01(48591DE3C19B)	-0.278	-1.000	0.243	3.906	-17.029	0.610	-79.42	9.76	-58.13	-32.438	-46.550	32.242	0.68967	-0.51404	0.38281	-0.33682	30.8	13111	100
2025-3-6 14:42:13.926	WT901BLE68-01(48591DE3C19B)	-0.278	-0.974	0.236	4.639	-24.475	5.676	-79.34	9.77	-57.83	-32.438	-46.550	32.242	0.68967	-0.51404	0.38281	-0.33682	30.8	13111	100
2025-3-6 14:42:13.926	WT901BLE68-01(48591DE3C19B)	-0.250	-0.974	0.236	4.639	-24.475	5.676	-79.24	9.79	-57.48	-32.438	-46.550	32.242	0.68967	-0.51404	0.38281	-0.33682	30.8	13111	100
2025-3-6 14:42:13.956	WT901BLE68-01(48591DE3C19B)	-0.250	-0.964	0.234	4.761	-25.757	11.230	-79.15	9.84	-57.12	-32.242	-46.648	32.340	0.68967	-0.51404	0.38281	-0.33682	30.8	13111	100
2025-3-6 14:42:13.956	WT901BLE68-01(48591DE3C19B)	-0.234	-0.964	0.234	4.761	-25.757	11.230	-79.05	9.93	-56.76	-32.242	-46.648	32.340	0.68967	-0.51404	0.38281	-0.33682	30.8	13111	100
2025-3-6 14:42:13.956	WT901BLE68-01(48591DE3C19B)	-0.234	-0.970	0.243	4.639	-22.156	16.296	-78.95	10.03	-56.41	-32.242	-46.648	32.340	0.68967	-0.51404	0.38281	-0.33682	30.8	13111	100
2025-3-6 14:42:13.956	WT901BLE68-01(48591DE3C19B)	-0.231	-0.970	0.243	4.639	-22.156	16.296	-78.85	10.17	-56.08	-32.242	-46.648	32.340	0.68967	-0.51404	0.38281	-0.33682	30.8	13111	100
2025-3-6 14:42:14.13	WT901BLE68-01(48591DE3C19B)	-0.231	-0.963	0.242	4.211	-15.808	19.714	-78.77	10.32	-55.78	-32.242	-46.648	32.340	0.68967	-0.51404	0.38281	-0.33682	30.8	13111	100
2025-3-6 14:42:14.13	WT901BLE68-01(48591DE3C19B)	-0.237	-0.963	0.242	4.211	-15.808	19.714	-78.68	10.50	-55.51	-32.242	-46.648	32.340	0.68967	-0.51404	0.38281	-0.33682	30.8	13111	100
2025-3-6 14:42:14.13	WT901BLE68-01(48591DE3C19B)	-0.237	-0.949	0.232	3.235	-12.207	21.057	-78.60	10.69	-55.26	-32.242	-46.648	32.340	0.68967	-0.51404	0.38281	-0.33682	30.8	13111	100
2025-3-6 14:42:14.13	WT901BLE68-01(48591DE3C19B)	-0.230	-0.949	0.232	3.235	-12.207	21.057	-78.53	10.88	-55.03	-32.242	-46.648	32.340	0.68967	-0.51404	0.38281	-0.33682	30.8	13111	100
2025-3-6 14:42:14.44	WT901BLE68-01(48591DE3C19B)	-0.230	-0.958	0.223	1.709	-11.414	20.691	-78.47	11.08	-54.81	-32.242	-46.648	32.340	0.68967	-0.51404	0.38281	-0.33682	30.8	13111	100
2025-3-6 14:42:14.44	WT901BLE68-01(48591DE3C19B)	-0.220	-0.958	0.223	1.709	-11.414	20.691	-78.41	11.27	-54.59	-32.242	-46.648	32.340	0.68967	-0.51404	0.38281	-0.33682	30.8	13111	100
2025-3-6 14:42:14.44	WT901BLE68-01(48591DE3C19B)	-0.220	-0.994	0.209	1.282	-11.292	19.592	-78.36	11.45	-54.38	-32.242	-46.648	32.340	0.68967	-0.51404	0.38281	-0.33682	30.8	13111	100
2025-3-6 14:42:14.44	WT901BLE68-01(48591DE3C19B)	-0.201	-0.994	0.209	1.282	-11.292	19.592	-78.31	11.63	-54.17	-32.242	-46.648	32.340	0.68967	-0.51404	0.38281	-0.33682	30.8	13111	100
2025-3-6 14:42:14.104	WT901BLE68-01(48591DE3C19B)	-0.201	-0.979	0.197	1.526	-9.705	18.372	-78.26	11.80	-53.97	-32.242	-46.648	32.340	0.68967	-0.51404	0.38281	-0.33682	30.8	13111	100
2025-3-6 14:42:14.104	WT901BLE68-01(48591DE3C19B)	-0.203	-0.979	0.197	1.526	-9.705	18.372	-78.21	11.97	-53.78	-32.242	-46.648	32.340	0.68967	-0.51404	0.38281	-0.33682	30.8	13111	100
2025-3-6 14:42:14.105	WT901BLE68-01(48591DE3C19B)	-0.203	-0.938	0.183	-0.122	-7.690	16.541	-78.18	12.13	-53.61	-32.242	-46.648	32.340	0.68967	-0.51404	0.38281	-0.33682	30.8	13111	100
2025-3-6 14:42:14.105	WT901BLE68-01(48591DE3C19B)	-0.211	-0.938	0.183	-0.122	-7.690	16.541	-78.15	12.28	-53.45	-32.242	-46.648	32.340	0.68967	-0.51404	0.38281	-0.33682	30.8	13111	100
2025-3-6 14:42:14.106	WT901BLE68-01(48591DE3C19B)	-0.211	-0.909	0.170	-3.418	-8.850	14.160	-78.14	12.41	-53.29	-32.242	-46.648	32.340	0.68967	-0.51404	0.38281	-0.33682	30.8	13111	100
2025-3-6 14:42:14.106	WT901BLE68-01(48591DE3C19B)	-0.214	-0.909	0.170	-3.418	-8.850	14.160	-78.15	12.53	-53.12	-32.242	-46.648	32.340	0.68967	-0.51404	0.38281	-0.33682	30.8	13111	100
2025-3-6 14:42:14.106	WT901BLE68-01(48591DE3C19B)	-0.214	-0.884	0.168	-7.751	-12.268	11.414	-78.17	12.63	-52.94	-32.242	-46.648	32.340	0.72147	-0.52289	0.35580	-0.28177	30.8	13111	100
2025-3-6 14:42:14.106	WT901BLE68-01(48591DE3C19B)	-0.214	-0.884	0.168	-7.751	-12.268	11.414	-78.22	12.72	-52.75	-32.242	-46.648	32.340	0.72147	-0.52289	0.35580	-0.28177	30.8	13111	100
2025-3-6 14:42:14.164	WT901BLE68-01(48591DE3C19B)	-0.214	-0.922	0.155	-12.878	-16.418	7.813	-78.29	12.79	-52.54	-32.242	-46.648	32.340	0.72147	-0.52289	0.35580	-0.28177	30.8	13111	100
2025-3-6 14:42:14.164	WT901BLE68-01(48591DE3C19B)	-0.244	-0.922	0.155	-12.878	-16.418	7.813	-78.38	12.83	-52.32	-32.242	-46.648	32.340	0.72147	-0.52289	0.35580	-0.28177	30.8	13111	100
2025-3-6 14:42:14.164	WT901BLE68-01(48591DE3C19B)	-0.244	-0.957	0.148	-15.686	-22.095	4.578	-78.49	12.83	-52.05	-32.242	-46.648	32.340	0.72147	-0.52289	0.35580	-0.28177	30.8	13111	100
2025-3-6 14:42:14.164	WT901BLE68-01(48591DE3C19B)	-0.235	-0.957	0.148	-15.686	-22.095	4.578	-78.59	12.83	-51.77	-32.242	-46.648	32.340	0.72147	-0.52289	0.35580	-0.28177	30.8	13111	100
2025-3-6 14:42:14.194	WT901BLE68-01(48591DE3C19B)	-0.235	-0.964	0.159	-17.395	-30.029	2.930	-78.70	12.80	-51.43	-32.242	-46.648	32.340	0.72147	-0.52289	0.35580	-0.28177	30.8	13111	100
2025-3-6 14:42:14.194	WT901BLE68-01(48591DE3C19B)	-0.241	-0.964	0.159	-17.395	-30.029	2.930	-78.81	12.77	-51.08	-32.242	-46.648	32.340	0.72147	-0.52289	0.35580	-0.28177	30.8	13111	100
2025-3-6 14:42:14.194	WT901BLE68-01(48591DE3C19B)	-0.241	-0.917	0.165	-19.287	-31.372	3.479	-78.93	12.75	-50.73	-32.242	-46.648	32.340	0.72147	-0.52289	0.35580	-0.28177	30.8	13111	100
2025-3-6 14:42:14.194	WT901BLE68-01(48591DE3C19B)	-0.217	-0.917	0.165	-19.287	-31.372	3.479	-79.06	12.73	-50.37	-32.242	-46.648	32.340	0.72147	-0.52289	0.35580	-0.28177	30.8	13111	100
2025-3-6 14:42:14.285	WT901BLE68-01(48591DE3C19B)	-0.217	-0.870	0.167	-23.499	-23.743	2.869	-79.24	12.72	-50.10	-32.242	-46.648	32.340	0.72147	-0.52289	0.35580	-0.28177	30.8	13111	100
2025-3-6 14:42:14.285	WT901BLE68-01(48591DE3C19B)	-0.258	-0.870	0.167	-23.499	-23.743	2.869	-79.42	12.71	-49.83	-32.242	-46.648	32.340	0.72147	-0.52289	0.35580	-0.28177	30.8	13111	100
2025-3-6 14:42:14.285	WT901BLE68-01(48591DE3C19B)	-0.258	-0.851	0.205	-28.320	-15.259	3.235	-79.67	12.72	-49.65	-32.242	-46.648	32.340	0.72147	-0.52289	0.35580	-0.28177	30.8	13111	100
2025-3-6 14:42:14.286	WT901BLE68-01(48591DE3C19B)	-0.427	-0.851	0.205	-28.320	-15.259	3.235	-79.91	12.73	-49.47	-32.242	-46.648	32.340	0.72147	-0.52289	0.35580	-0.28177	30.8	13111	100
2025-3-6 14:42:14.286	WT901BLE68-01(48591DE3C19B)	-0.427	-0.858	0.293	-27.954	-19.226	3.906	-80.13	12.74	-49.25	-32.242	-46.648	32.340	0.72147	-0.52289	0.35580	-0.28177	30.8	13111	100
2025-3-6 14:42:14.286	WT901BLE68-01(48591DE3C19B)	-0.610	-0.858	0.293	-27.954	-19.226	3.906	-80.35	12.77	-49.02	-32.242	-46.648	32.340	0.72147	-0.52289	0.35580	-0.28177	30.8	13111	100
2025-3-6 14:42:14.286	WT901BLE68-01(48591DE3C19B)	-0.610	-0.828	0.352	-19.348	-37.354	9.888	-80.44	12.83	-48.60	-32.242	-46.648	32.340	0.72147	-0.52289	0.35580	-0.28177	30.8	13111	100
2025-3-6 14:42:14.286	WT901BLE68-01(48591DE3C19B)	-0.754	-0.828	0.352	-19.348	-37.354	9.888	-80.52	12.91	-48.18	-32.242	-46.648	32.340	0.72147	-0.52289	0.35580	-0.28177	30.8	13111	100
2025-3-6 14:42:14.375	WT901BLE68-01(48591DE3C19B)	-0.754	-0.769	0.268	-15.259	-60.852	27.527	-80.50	13.13	-47.47	-32.242	-46.648	32.340	0.72147	-0.52289	0.35580	-0.28177	30.8	13111	100
2025-3-6 14:42:14.375	WT901BLE68-01(48591DE3C19B)	-0.738	-0.769	0.268	-15.259	-60.852	27.527	-80.47	13.38	-46.72	-32.242	-46.648	32.340	0.72147	-0.52289	0.35580	-0.28177	30.8	13111	100
2025-3-6 14:42:14.375	WT901BLE68-01(48591DE3C19B)	-0.738	-0.670	0.196	-13.184	-66.650	55.847	-80.40	13.89	-45.85	-32.242	-46.648	32.340	0.72147	-0.52289	0.35580	-0.28177	30.8	13111	100
2025-3-6 14:42:14.376	WT901BLE68-01(48591DE3C19B)	-0.855	-0.670	0.196	-13.184	-66.650	55.847	-80.33	14.42	-44.93	-34.006	-49.196	26.166	0.72147	-0.52289	0.35580	-0.28177	30.8	13111	100
2025-3-6 14:42:14.376	WT901BLE68-01(48591DE3C19B)	-0.855	-0.629	0.199	-24.048	-60.120	95.520	-80.37	15.36	-43.95	-34.006	-49.196	26.166	0.72147	-0.52289	0.35580	-0.28177	30.8	13111	100
2025-3-6 14:42:14.376	WT901BLE68-01(48591DE3C19B)	-2.387	-0.629	0.199	-24.048	-60.120	95.520	-80.41	16.30	-42.91	-34.006	-49.196	26.166	0.72147	-0.52289	0.35580	-0.28177	30.8	13111	100
2025-3-6 14:42:14.376	WT901BLE68-01(48591DE3C19B)	-9.548	-1.584	0.575	-25.696	-50.415	133.545	-80.48	17.66	-41.82	-34.006	-49.196	26.166	0.72147	-0.52289	0.35580	-0.28177	30.8	13111	100
2025-3-6 14:42:14.376	WT901BLE68-01(48591DE3C19B)	-1.534	-6.337	2.302	-25.696	-50.415	133.545	-80.58	19.01	-40.61	-34.006	-49.196	26.166	0.72147	-0.52289	0.35580	-0.28177	30.8	13111	100
2025-3-6 14:42:14.406	WT901BLE68-01(48591DE3C19B)	-1.534	-0.955	0.387	-16.968	-74.524	175.171	-80.49	20.75	-39.03	-34.006	-49.196	26.166	0.72147	-0.52289	0.35580	-0.28177	30.8	13111	100
2025-3-6 14:42:14.406	WT901BLE68-01(48591DE3C19B)	-1.726	-0.955	0.387	-16.968	-74.524	175.171	-80.36	22.47	-37.45	-34.006	-49.196	26.166	0.72147	-0.52289	0.35580	-0.28177	30.8	13111	100
2025-3-6 14:42:14.406	WT901BLE68-01(48591DE3C19B)	-1.726	-1.198	0.347	2.869	-91.675	225.769	-79.87	24.65	-35.55	-34.006	-49.196	26.166	0.72147	-0.52289	0.35580	-0.28177	30.8	13111	100
2025-3-6 14:42:14.406	WT901BLE68-01(48591DE3C19B)	-1.716	-1.198	0.347	2.869	-91.675	225.769	-79.31	26.82	-33.60	-34.006	-49.196	26.166	0.72147	-0.52289	0.35580	-0.28177	30.8	13111	100
2025-3-6 14:42:14.435	WT901BLE68-01(48591DE3C19B)	-1.716	-1.307	0.313	30.518	-68.054	273.132	-78.46	29.46	-31.76	-34.006	-49.196	26.166	0.72147	-0.52289	0.35580	-0.28177	30.8	13111	100
2025-3-6 14:42:14.435	WT901BLE68-01(48591DE3C19B)	-1.760	-1.307	0.313	30.518	-68.054	273.132	-77.50	32.07	-29.83	-34.006	-49.196	26.166	0.72147	-0.52289	0.35580	-0.28177	30.8	13111	100
2025-3-6 14:42:14.435	WT901BLE68-01(48591DE3C19B)	-1.760	-1.319	0.349	38.086	14.099	309.509	-76.84	35.19	-28.67	-34.006	-49.196	26.166	0.72147	-0.52289	0.35580	-0.28177	30.8	13111	100
2025-3-6 14:42:14.436	WT901BLE68-01(48591DE3C19B)	-2.435	-1.319	0.349	38.086	14.099	309.509	-76.08	38.28	-27.43	-34.006	-49.196	26.166	0.72147	-0.52289	0.35580	-0.28177	30.8	13111	100
2025-3-6 14:42:14.464	WT901BLE68-01(48591DE3C19B)	-2.435	-1.674	0.298	23.560	32.532	345.215	-75.45	41.75	-26.23	-34.006	-49.196	26.166	0.72147	-0.52289	0.35580	-0.28177	30.8	13111	100
2025-3-6 14:42:14.464	WT901BLE68-01(48591DE3C19B)	-2.712	-1.674	0.298	23.560	32.532	345.215	-74.72	45.20	-24.92	-34.006	-49.196	26.166	0.72147	-0.52289	0.35580	-0.28177	30.8	13111	100
2025-3-6 14:42:14.464	WT901BLE68-01(48591DE3C19B)	-2.712	-2.128	0.201	30.640	-43.640	341.553	-72.99	48.36	-22.41	-34.006	-49.196	26.166	0.72147	-0.52289	0.35580	-0.28177	30.8	13111	100
2025-3-6 14:42:14.464	WT901BLE68-01(48591DE3C19B)	-2.248	-2.128	0.201	30.640	-43.640	341.553	-70.97	51.47	-19.62	-34.006	-49.196	26.166	0.72147	-0.52289	0.35580	-0.28177	30.8	13111	100
2025-3-6 14:42:14.524	WT901BLE68-01(48591DE3C19B)	-2.248	-2.116	0.135	65.186	-114.319	319.458	-67.45	54.01	-15.49	-34.006	-49.196	26.166	0.72147	-0.52289	0.35580	-0.28177	30.8	13111	100
2025-3-6 14:42:14.524	WT901BLE68-01(48591DE3C19B)	-1.451	-2.116	0.135	65.186	-114.319	319.458	-63.42	56.38	-10.86	-34.006	-49.196	26.166	0.72147	-0.52289	0.35580	-0.28177	30.8	13111	100
2025-3-6 14:42:14.524	WT901BLE68-01(48591DE3C19B)	-1.451	-1.695	0.015	72.205	-113.892	297.913	-58.94	58.36	-5.91	-34.006	-49.196	26.166	0.72147	-0.52289	0.35580	-0.28177	30.8	13111	100
2025-3-6 14:42:14.524	WT901BLE68-01(48591DE3C19B)	-0.745	-1.695	0.015	72.205	-113.892	297.913	-53.94	60.12	-0.46	-34.006	-49.196	26.166	0.72147	-0.52289	0.35580	-0.28177	30.8	13111	100
2025-3-6 14:42:14.554	WT901BLE68-01(48591DE3C19B)	-0.745	-1.169	-0.014	64.575	-59.265	271.301	-49.56	61.77	4.26	-34.006	-49.196	26.166	0.77057	-0.37680	0.45230	0.24399	30.8	13111	100
2025-3-6 14:42:14.554	WT901BLE68-01(48591DE3C19B)	-0.222	-1.169	-0.014	64.575	-59.265	271.301	-44.73	63.23	9.40	-34.006	-49.196	26.166	0.77057	-0.37680	0.45230	0.24399	30.8	13111	100
2025-3-6 14:42:14.554	WT901BLE68-01(48591DE3C19B)	-0.222	-0.662	0.044	37.842	16.296	247.925	-41.11	64.91	13.37	-34.006	-49.196	26.166	0.77057	-0.37680	0.45230	0.24399	30.8	13111	100
2025-3-6 14:42:14.554	WT901BLE68-01(48591DE3C19B)	0.054	-0.662	0.044	37.842	16.296	247.925	-37.04	66.48	17.71	-34.006	-49.196	26.166	0.77057	-0.37680	0.45230	0.24399	30.8	13111	100
2025-3-6 14:42:14.583	WT901BLE68-01(48591DE3C19B)	0.054	-0.296	-0.002	6.531	99.609	226.990	-34.38	68.51	20.74	-34.006	-49.196	26.166	0.77057	-0.37680	0.45230	0.24399	30.8	13111	100
2025-3-6 14:42:14.583	WT901BLE68-01(48591DE3C19B)	0.021	-0.296	-0.002	6.531	99.609	226.990	-31.21	70.49	24.17	-34.006	-49.196	26.166	0.77057	-0.37680	0.45230	0.24399	30.8	13111	100
2025-3-6 14:42:14.583	WT901BLE68-01(48591DE3C19B)	-0.227	-0.175	-0.233	-31.189	154.175	211.792	-29.02	72.82	26.87	-34.006	-49.196	26.166	0.77057	-0.37680	0.45230	0.24399	30.8	13111	100
2025-3-6 14:42:14.583	WT901BLE68-01(48591DE3C19B)	-0.227	-0.344	-0.579	-65.430	115.540	191.162	-26.33	74.89	30.21	-34.006	-49.196	26.166	0.77057	-0.37680	0.45230	0.24399	30.8	13111	100
2025-3-6 14:42:14.644	WT901BLE68-01(48591DE3C19B)	-0.286	-0.344	-0.579	-65.430	115.540	191.162	-23.05	76.70	34.32	-34.006	-49.196	26.166	0.77057	-0.37680	0.45230	0.24399	30.8	13111	100
2025-3-6 14:42:14.644	WT901BLE68-01(48591DE3C19B)	-0.286	-0.650	-0.827	-80.688	23.315	173.462	-18.49	77.97	39.79	-34.006	-49.196	26.166	0.77057	-0.37680	0.45230	0.24399	30.8	13111	100
2025-3-6 14:42:14.644	WT901BLE68-01(48591DE3C19B)	-0.147	-0.650	-0.827	-80.688	23.315	173.462	-12.93	78.68	46.34	-34.006	-49.196	26.166	0.77057	-0.37680	0.45230	0.24399	30.8	13111	100
2025-3-6 14:42:14.644	WT901BLE68-01(48591DE3C19B)	-0.147	-0.885	-0.967	-84.778	-83.984	158.752	-6.82	78.73	53.48	-34.006	-49.196	26.166	0.77057	-0.37680	0.45230	0.24399	30.8	13111	100
2025-3-6 14:42:14.676	WT901BLE68-01(48591DE3C19B)	0.202	-0.885	-0.967	-84.778	-83.984	158.752	-1.18	78.13	60.15	-34.006	-49.196	26.166	0.77057	-0.37680	0.45230	0.24399	30.8	13111	100
2025-3-6 14:42:14.676	WT901BLE68-01(48591DE3C19B)	0.202	-1.127	-0.880	-109.558	-174.438	151.184	3.33	76.99	65.81	-34.006	-49.196	26.166	0.77057	-0.37680	0.45230	0.24399	30.8	13111	100
2025-3-6 14:42:14.676	WT901BLE68-01(48591DE3C19B)	0.686	-1.127	-0.880	-109.558	-174.438	151.184	6.47	75.37	70.20	-34.006	-49.196	26.166	0.77057	-0.37680	0.45230	0.24399	30.8	13111	100
2025-3-6 14:42:14.676	WT901BLE68-01(48591DE3C19B)	0.686	-1.419	-0.663	-118.652	-173.279	138.000	8.54	73.75	73.55	-34.006	-49.196	26.166	0.77057	-0.37680	0.45230	0.24399	30.8	13111	100
2025-3-6 14:42:14.704	WT901BLE68-01(48591DE3C19B)	0.991	-1.419	-0.663	-118.652	-173.279	138.000	9.84	72.16	76.16	-34.006	-49.196	26.166	0.77057	-0.37680	0.45230	0.24399	30.8	13111	100
2025-3-6 14:42:14.704	WT901BLE68-01(48591DE3C19B)	0.991	-1.530	-0.498	-127.197	-98.145	120.056	10.71	70.97	78.35	-34.006	-49.196	26.166	0.77057	-0.37680	0.45230	0.24399	30.8	13111	100
2025-3-6 14:42:14.704	WT901BLE68-01(48591DE3C19B)	1.303	-1.530	-0.498	-127.197	-98.145	120.056	11.30	70.19	80.30	-34.006	-49.196	26.166	0.77057	-0.37680	0.45230	0.24399	30.8	13111	100
2025-3-6 14:42:14.704	WT901BLE68-01(48591DE3C19B)	1.303	-1.671	-0.477	-136.658	5.798	64.087	11.28	69.98	81.64	-34.006	-49.196	26.166	0.77057	-0.37680	0.45230	0.24399	30.8	13111	100
2025-3-6 14:42:14.764	WT901BLE68-01(48591DE3C19B)	1.707	-1.671	-0.477	-136.658	5.798	64.087	10.72	70.36	82.45	-34.006	-49.196	26.166	0.77057	-0.37680	0.45230	0.24399	30.8	13111	100
2025-3-6 14:42:14.765	WT901BLE68-01(48591DE3C19B)	1.707	-1.869	-0.370	-113.525	70.984	-13.672	9.33	71.15	82.25	-91.042	-56.350	16.366	0.77057	-0.37680	0.45230	0.24399	30.8	13111	100
2025-3-6 14:42:14.765	WT901BLE68-01(48591DE3C19B)	2.270	-1.869	-0.370	-113.525	70.984	-13.672	6.93	72.32	80.85	-91.042	-56.350	16.366	0.77057	-0.37680	0.45230	0.24399	30.8	13111	100
2025-3-6 14:42:14.765	WT901BLE68-01(48591DE3C19B)	2.270	-1.824	-0.085	-34.851	119.019	-66.956	3.81	73.73	78.29	-91.042	-56.350	16.366	0.77057	-0.37680	0.45230	0.24399	30.8	13111	100
2025-3-6 14:42:14.793	WT901BLE68-01(48591DE3C19B)	2.259	-1.824	-0.085	-34.851	119.019	-66.956	-0.46	75.36	74.16	-91.042	-56.350	16.366	0.77057	-0.37680	0.45230	0.24399	30.8	13111	100
2025-3-6 14:42:14.793	WT901BLE68-01(48591DE3C19B)	2.259	-1.066	0.345	4.700	191.772	-97.900	-6.39	77.23	68.13	-91.042	-56.350	16.366	0.77057	-0.37680	0.45230	0.24399	30.8	13111	100
2025-3-6 14:42:14.793	WT901BLE68-01(48591DE3C19B)	1.358	-1.066	0.345	4.700	191.772	-97.900	-15.33	79.22	58.88	-91.042	-56.350	16.366	0.77057	-0.37680	0.45230	0.24399	30.8	13111	100
2025-3-6 14:42:14.793	WT901BLE68-01(48591DE3C19B)	1.358	-1.406	0.558	-0.061	306.824	-283.386	-34.69	80.84	39.14	-91.042	-56.350	16.366	0.77057	-0.37680	0.45230	0.24399	30.8	13111	100
2025-3-6 14:42:14.854	WT901BLE68-01(48591DE3C19B)	0.157	-1.406	0.558	-0.061	306.824	-283.386	-64.12	80.54	9.24	-91.042	-56.350	16.366	0.77057	-0.37680	0.45230	0.24399	30.8	13111	100
2025-3-6 14:42:14.854	WT901BLE68-01(48591DE3C19B)	0.157	-2.609	-0.129	122.864	277.893	-449.829	-85.35	77.33	-13.08	-91.042	-56.350	16.366	0.77057	-0.37680	0.45230	0.24399	30.8	13111	100
2025-3-6 14:42:14.854	WT901BLE68-01(48591DE3C19B)	-3.088	-2.609	-0.129	122.864	277.893	-449.829	-95.44	72.32	-24.92	-91.042	-56.350	16.366	0.77057	-0.37680	0.45230	0.24399	30.8	13111	100
2025-3-6 14:42:14.854	WT901BLE68-01(48591DE3C19B)	-3.088	-4.036	-0.986	209.656	186.096	-345.398	-99.29	67.60	-30.91	-91.042	-56.350	16.366	0.77057	-0.37680	0.45230	0.24399	30.8	13111	100
2025-3-6 14:42:14.886	WT901BLE68-01(48591DE3C19B)	-6.863	-4.036	-0.986	209.656	186.096	-345.398	-100.31	63.47	-34.48	-91.042	-56.350	16.366	0.77057	-0.37680	0.45230	0.24399	30.8	13111	100
2025-3-6 14:42:14.886	WT901BLE68-01(48591DE3C19B)	-6.863	-4.817	-0.785	288.635	362.915	-368.530	-101.69	59.11	-39.05	-91.042	-56.350	16.366	0.77057	-0.37680	0.45230	0.24399	30.8	13111	100
2025-3-6 14:42:14.886	WT901BLE68-01(48591DE3C19B)	-8.068	-4.817	-0.785	288.635	362.915	-368.530	-103.08	54.49	-44.29	-91.042	-56.350	16.366	0.77057	-0.37680	0.45230	0.24399	30.8	13111	100
2025-3-6 14:42:14.886	WT901BLE68-01(48591DE3C19B)	-8.068	-2.561	-2.098	272.400	495.361	-272.766	-104.64	50.21	-49.89	-91.042	-56.350	16.366	0.77057	-0.37680	0.45230	0.24399	30.8	13111	100
2025-3-6 14:42:14.916	WT901BLE68-01(48591DE3C19B)	-7.699	-2.561	-2.098	272.400	495.361	-272.766	-106.40	46.19	-55.80	-91.042	-56.350	16.366	0.77057	-0.37680	0.45230	0.24399	30.8	13111	100
2025-3-6 14:42:14.916	WT901BLE68-01(48591DE3C19B)	-7.699	-1.468	-1.958	260.437	265.381	-133.118	-106.75	43.15	-59.80	-91.042	-56.350	16.366	0.77057	-0.37680	0.45230	0.24399	30.8	13111	100
2025-3-6 14:42:14.916	WT901BLE68-01(48591DE3C19B)	-4.882	-1.468	-1.958	260.437	265.381	-133.118	-106.16	41.15	-62.38	-91.042	-56.350	16.366	0.62558	-0.52747	0.57095	-0.06567	30.8	13111	100
2025-3-6 14:42:14.916	WT901BLE68-01(48591DE3C19B)	-4.882	-0.369	-0.935	256.409	7.202	-71.594	-104.56	39.85	-63.37	-91.042	-56.350	16.366	0.62558	-0.52747	0.57095	-0.06567	30.8	13111	100
2025-3-6 14:42:14.977	WT901BLE68-01(48591DE3C19B)	-2.747	-0.369	-0.935	256.409	7.202	-71.594	-102.05	39.19	-62.87	-91.042	-56.350	16.366	0.62558	-0.52747	0.57095	-0.06567	30.8	13111	100
2025-3-6 14:42:14.977	WT901BLE68-01(48591DE3C19B)	-2.747	0.319	-0.921	236.816	-90.942	-54.565	-99.31	38.70	-61.81	-91.042	-56.350	16.366	0.62558	-0.52747	0.57095	-0.06567	30.8	13111	100
2025-3-6 14:42:14.977	WT901BLE68-01(48591DE3C19B)	-1.373	0.319	-0.921	236.816	-90.942	-54.565	-96.36	38.34	-60.21	-91.042	-56.350	16.366	0.62558	-0.52747	0.57095	-0.06567	30.8	13111	100
2025-3-6 14:42:14.977	WT901BLE68-01(48591DE3C19B)	-1.373	0.922	-0.904	215.332	-101.257	-15.930	-93.53	38.13	-58.60	-91.042	-56.350	16.366	0.62558	-0.52747	0.57095	-0.06567	30.8	13111	100
2025-3-6 14:42:15.3	WT901BLE68-01(48591DE3C19B)	-0.112	0.922	-0.904	215.332	-101.257	-15.930	-90.82	38.06	-56.97	-91.042	-56.350	16.366	0.62558	-0.52747	0.57095	-0.06567	30.8	13111	100
2025-3-6 14:42:15.3	WT901BLE68-01(48591DE3C19B)	-0.112	1.346	-0.714	163.513	-78.003	6.348	-88.49	38.06	-55.51	-91.042	-56.350	16.366	0.62558	-0.52747	0.57095	-0.06567	30.8	13111	100
2025-3-6 14:42:15.3	WT901BLE68-01(48591DE3C19B)	0.506	1.346	-0.714	163.513	-78.003	6.348	-86.53	38.14	-54.22	-91.042	-56.350	16.366	0.62558	-0.52747	0.57095	-0.06567	30.8	13111	100
2025-3-6 14:42:15.4	WT901BLE68-01(48591DE3C19B)	0.506	1.414	-0.563	105.347	-16.235	-21.484	-85.14	38.09	-53.36	-91.042	-56.350	16.366	0.62558	-0.52747	0.57095	-0.06567	30.8	13111	100
2025-3-6 14:42:15.34	WT901BLE68-01(48591DE3C19B)	0.720	1.414	-0.563	105.347	-16.235	-21.484	-84.33	37.91	-52.92	-91.042	-56.350	16.366	0.62558	-0.52747	0.57095	-0.06567	30.8	13111	100
2025-3-6 14:42:15.34	WT901BLE68-01(48591DE3C19B)	0.720	1.363	-0.612	50.354	36.621	-4.639	-84.02	37.86	-52.84	-91.042	-56.350	16.366	0.62558	-0.52747	0.57095	-0.06567	30.8	13111	100
2025-3-6 14:42:15.34	WT901BLE68-01(48591DE3C19B)	1.071	1.363	-0.612	50.354	36.621	-4.639	-84.21	37.91	-53.11	-91.042	-56.350	16.366	0.62558	-0.52747	0.57095	-0.06567	30.8	13111	100
2025-3-6 14:42:15.34	WT901BLE68-01(48591DE3C19B)	1.071	1.596	-0.546	28.137	93.506	-3.418	-84.77	38.00	-53.77	-91.042	-56.350	16.366	0.62558	-0.52747	0.57095	-0.06567	30.8	13111	100
2025-3-6 14:42:15.96	WT901BLE68-01(48591DE3C19B)	1.195	1.596	-0.546	28.137	93.506	-3.418	-85.72	38.10	-54.85	-91.042	-56.350	16.366	0.62558	-0.52747	0.57095	-0.06567	30.8	13111	100
2025-3-6 14:42:15.96	WT901BLE68-01(48591DE3C19B)	1.195	1.730	-0.190	-11.414	150.696	19.348	-87.55	38.45	-56.69	-91.042	-56.350	16.366	0.62558	-0.52747	0.57095	-0.06567	30.8	13111	100
2025-3-6 14:42:15.96	WT901BLE68-01(48591DE3C19B)	0.777	1.730	-0.190	-11.414	150.696	19.348	-89.46	38.74	-58.62	-91.042	-56.350	16.366	0.62558	-0.52747	0.57095	-0.06567	30.8	13111	100
2025-3-6 14:42:15.96	WT901BLE68-01(48591DE3C19B)	0.777	1.793	0.085	-46.448	144.348	36.804	-91.75	39.17	-60.56	-91.042	-56.350	16.366	0.62558	-0.52747	0.57095	-0.06567	30.8	13111	100
2025-3-6 14:42:15.154	WT901BLE68-01(48591DE3C19B)	0.204	1.793	0.085	-46.448	144.348	36.804	-94.11	39.56	-62.60	-91.042	-56.350	16.366	0.62558	-0.52747	0.57095	-0.06567	30.8	13111	100
2025-3-6 14:42:15.154	WT901BLE68-01(48591DE3C19B)	0.204	1.699	-0.001	-60.303	70.618	50.598	-96.06	40.11	-63.76	-91.042	-56.350	16.366	0.62558	-0.52747	0.57095	-0.06567	30.8	13111	100
2025-3-6 14:42:15.154	WT901BLE68-01(48591DE3C19B)	0.176	1.699	-0.001	-60.303	70.618	50.598	-98.06	40.64	-64.99	-91.042	-56.350	16.366	0.62558	-0.52747	0.57095	-0.06567	30.8	13111	100
2025-3-6 14:42:15.154	WT901BLE68-01(48591DE3C19B)	0.176	1.711	-0.209	-80.017	-41.748	72.510	-99.36	41.56	-64.85	-53.214	-69.972	41.160	0.62558	-0.52747	0.57095	-0.06567	30.8	13111	100
2025-3-6 14:42:15.155	WT901BLE68-01(48591DE3C19B)	0.342	1.711	-0.209	-80.017	-41.748	72.510	-100.68	42.49	-64.76	-53.214	-69.972	41.160	0.62558	-0.52747	0.57095	-0.06567	30.8	13111	100
2025-3-6 14:42:15.155	WT901BLE68-01(48591DE3C19B)	0.342	1.555	-0.587	-140.442	-111.572	89.966	-102.03	43.74	-63.84	-53.214	-69.972	41.160	0.62558	-0.52747	0.57095	-0.06567	30.8	13111	100
2025-3-6 14:42:15.155	WT901BLE68-01(48591DE3C19B)	0.224	1.555	-0.587	-140.442	-111.572	89.966	-103.38	45.00	-62.96	-53.214	-69.972	41.160	0.62558	-0.52747	0.57095	-0.06567	30.8	13111	100
2025-3-6 14:42:15.156	WT901BLE68-01(48591DE3C19B)	0.224	1.124	-0.848	-201.599	-100.464	93.262	-105.49	46.27	-62.31	-53.214	-69.972	41.160	0.62558	-0.52747	0.57095	-0.06567	30.8	13111	100
2025-3-6 14:42:15.214	WT901BLE68-01(48591DE3C19B)	-0.789	1.124	-0.848	-201.599	-100.464	93.262	-107.62	47.54	-61.72	-53.214	-69.972	41.160	0.62558	-0.52747	0.57095	-0.06567	30.8	13111	100
2025-3-6 14:42:15.214	WT901BLE68-01(48591DE3C19B)	-0.789	0.778	-1.265	-251.160	48.340	125.793	-111.97	48.60	-63.47	-53.214	-69.972	41.160	0.62558	-0.52747	0.57095	-0.06567	30.8	13111	100
2025-3-6 14:42:15.215	WT901BLE68-01(48591DE3C19B)	-3.380	0.778	-1.265	-251.160	48.340	125.793	-116.42	49.54	-65.33	-53.214	-69.972	41.160	0.62558	-0.52747	0.57095	-0.06567	30.8	13111	100
2025-3-6 14:42:15.215	WT901BLE68-01(48591DE3C19B)	-3.380	0.870	-1.827	-223.755	229.431	226.440	-123.12	50.32	-70.47	-53.214	-69.972	41.160	0.62558	-0.52747	0.57095	-0.06567	30.8	13111	100
2025-3-6 14:42:15.243	WT901BLE68-01(48591DE3C19B)	-8.332	0.870	-1.827	-223.755	229.431	226.440	-129.90	50.71	-75.66	-53.214	-69.972	41.160	0.62558	-0.52747	0.57095	-0.06567	30.8	13111	100
2025-3-6 14:42:15.243	WT901BLE68-01(48591DE3C19B)	-8.332	1.334	-2.761	-366.089	120.972	298.584	-137.78	51.98	-80.40	-53.214	-69.972	41.160	0.62558	-0.52747	0.57095	-0.06567	30.8	13111	100
2025-3-6 14:42:15.243	WT901BLE68-01(48591DE3C19B)	-7.381	1.334	-2.761	-366.089	120.972	298.584	-145.90	52.83	-85.41	-53.214	-69.972	41.160	0.62558	-0.52747	0.57095	-0.06567	30.8	13111	100
2025-3-6 14:42:15.243	WT901BLE68-01(48591DE3C19B)	-7.381	-1.185	-2.985	-478.333	-90.637	338.867	-154.46	55.28	-89.50	-53.214	-69.972	41.160	0.62558	-0.52747	0.57095	-0.06567	30.8	13111	100
2025-3-6 14:42:15.275	WT901BLE68-01(48591DE3C19B)	-5.831	-1.185	-2.985	-478.333	-90.637	338.867	-163.75	57.32	-94.40	-53.214	-69.972	41.160	0.62558	-0.52747	0.57095	-0.06567	30.8	13111	100
2025-3-6 14:42:15.275	WT901BLE68-01(48591DE3C19B)	-5.831	-2.123	-2.228	-314.209	-135.681	324.036	-171.71	59.32	-99.59	-53.214	-69.972	41.160	0.62558	-0.52747	0.57095	-0.06567	30.8	13111	100
2025-3-6 14:42:15.275	WT901BLE68-01(48591DE3C19B)	-3.417	-2.123	-2.228	-314.209	-135.681	324.036	179.60	60.91	-105.53	-53.214	-69.972	41.160	0.62558	-0.52747	0.57095	-0.06567	30.8	13111	100
2025-3-6 14:42:15.275	WT901BLE68-01(48591DE3C19B)	-3.417	-1.944	-1.236	-225.342	-126.587	288.208	171.89	61.98	-111.35	-53.214	-69.972	41.160	0.62558	-0.52747	0.57095	-0.06567	30.8	13111	100
2025-3-6 14:42:15.334	WT901BLE68-01(48591DE3C19B)	-1.440	-1.944	-1.236	-225.342	-126.587	288.208	163.81	62.67	-117.54	-53.214	-69.972	41.160	0.62558	-0.52747	0.57095	-0.06567	30.8	13111	100
2025-3-6 14:42:15.334	WT901BLE68-01(48591DE3C19B)	-1.440	-1.610	-0.682	-161.194	-41.626	243.103	157.62	62.34	-122.35	-53.214	-69.972	41.160	0.62558	-0.52747	0.57095	-0.06567	30.8	13111	100
2025-3-6 14:42:15.334	WT901BLE68-01(48591DE3C19B)	-0.066	-1.610	-0.682	-161.194	-41.626	243.103	151.66	61.77	-126.94	-53.214	-69.972	41.160	0.62558	-0.52747	0.57095	-0.06567	30.8	13111	100
2025-3-6 14:42:15.334	WT901BLE68-01(48591DE3C19B)	-0.066	-0.863	-0.659	-136.963	20.752	177.612	147.82	60.82	-129.45	-53.214	-69.972	41.160	0.62558	-0.52747	0.57095	-0.06567	30.8	13111	100
2025-3-6 14:42:15.366	WT901BLE68-01(48591DE3C19B)	0.830	-0.863	-0.659	-136.963	20.752	177.612	144.24	59.79	-131.72	-53.214	-69.972	41.160	0.31903	-0.47794	0.68716	0.44437	30.8	13111	100
2025-3-6 14:42:15.366	WT901BLE68-01(48591DE3C19B)	0.830	-1.134	-1.133	-194.092	-19.714	84.412	141.17	59.58	-132.81	-53.214	-69.972	41.160	0.31903	-0.47794	0.68716	0.44437	30.8	13111	100
2025-3-6 14:42:15.366	WT901BLE68-01(48591DE3C19B)	0.857	-1.134	-1.133	-194.092	-19.714	84.412	138.22	59.33	-133.85	-53.214	-69.972	41.160	0.31903	-0.47794	0.68716	0.44437	30.8	13111	100
2025-3-6 14:42:15.366	WT901BLE68-01(48591DE3C19B)	0.857	-2.318	-0.596	-178.467	-127.502	86.609	134.25	59.82	-136.32	-53.214	-69.972	41.160	0.31903	-0.47794	0.68716	0.44437	30.8	13111	100
2025-3-6 14:42:15.396	WT901BLE68-01(48591DE3C19B)	1.188	-2.318	-0.596	-178.467	-127.502	86.609	130.30	60.20	-138.84	-53.214	-69.972	41.160	0.31903	-0.47794	0.68716	0.44437	30.8	13111	100
2025-3-6 14:42:15.396	WT901BLE68-01(48591DE3C19B)	1.188	-1.910	-0.411	-75.684	-219.055	29.175	126.74	61.51	-142.16	-53.214	-69.972	41.160	0.31903	-0.47794	0.68716	0.44437	30.8	13111	100
2025-3-6 14:42:15.396	WT901BLE68-01(48591DE3C19B)	1.682	-1.910	-0.411	-75.684	-219.055	29.175	122.98	62.70	-145.73	-53.214	-69.972	41.160	0.31903	-0.47794	0.68716	0.44437	30.8	13111	100
2025-3-6 14:42:15.396	WT901BLE68-01(48591DE3C19B)	1.682	-1.504	-0.398	-76.172	-204.407	-58.228	120.17	64.45	-148.23	-53.214	-69.972	41.160	0.31903	-0.47794	0.68716	0.44437	30.8	13111	100
2025-3-6 14:42:15.453	WT901BLE68-01(48591DE3C19B)	1.708	-1.504	-0.398	-76.172	-204.407	-58.228	117.11	66.12	-151.01	-53.214	-69.972	41.160	0.31903	-0.47794	0.68716	0.44437	30.8	13111	100
2025-3-6 14:42:15.453	WT901BLE68-01(48591DE3C19B)	1.708	-2.016	-0.653	-58.472	-98.877	-151.672	117.25	68.10	-150.50	-53.214	-69.972	41.160	0.31903	-0.47794	0.68716	0.44437	30.8	13111	100
2025-3-6 14:42:15.454	WT901BLE68-01(48591DE3C19B)	1.674	-2.016	-0.653	-58.472	-98.877	-151.672	117.55	70.08	-149.82	-53.214	-69.972	41.160	0.31903	-0.47794	0.68716	0.44437	30.8	13111	100
2025-3-6 14:42:15.454	WT901BLE68-01(48591DE3C19B)	1.674	-2.052	-0.944	1.038	-13.184	-162.964	121.09	71.71	-146.35	-53.214	-69.972	41.160	0.31903	-0.47794	0.68716	0.44437	30.8	13111	100
2025-3-6 14:42:15.483	WT901BLE68-01(48591DE3C19B)	1.132	-2.052	-0.944	1.038	-13.184	-162.964	125.36	73.25	-142.15	-53.214	-69.972	41.160	0.31903	-0.47794	0.68716	0.44437	30.8	13111	100
2025-3-6 14:42:15.483	WT901BLE68-01(48591DE3C19B)	1.132	-2.085	-0.808	30.518	41.382	-173.279	132.49	74.39	-135.29	-53.214	-69.972	41.160	0.31903	-0.47794	0.68716	0.44437	30.8	13111	100
2025-3-6 14:42:15.483	WT901BLE68-01(48591DE3C19B)	0.701	-2.085	-0.808	30.518	41.382	-173.279	140.59	75.26	-127.46	-53.214	-69.972	41.160	0.31903	-0.47794	0.68716	0.44437	30.8	13111	100
2025-3-6 14:42:15.484	WT901BLE68-01(48591DE3C19B)	0.701	-2.427	-0.344	29.907	68.542	-210.144	151.27	75.77	-116.99	-53.214	-69.972	41.160	0.31903	-0.47794	0.68716	0.44437	30.8	13111	100
2025-3-6 14:42:15.576	WT901BLE68-01(48591DE3C19B)	0.322	-2.427	-0.344	29.907	68.542	-210.144	162.31	75.78	-106.16	-53.214	-69.972	41.160	0.31903	-0.47794	0.68716	0.44437	30.8	13111	100
2025-3-6 14:42:15.576	WT901BLE68-01(48591DE3C19B)	0.322	-2.547	0.368	53.955	125.610	-228.821	174.15	74.74	-94.75	-53.214	-69.972	41.160	0.31903	-0.47794	0.68716	0.44437	30.8	13111	100
2025-3-6 14:42:15.576	WT901BLE68-01(48591DE3C19B)	-0.585	-2.547	0.368	53.955	125.610	-228.821	-175.84	73.18	-85.17	-53.214	-69.972	41.160	0.31903	-0.47794	0.68716	0.44437	30.8	13111	100
2025-3-6 14:42:15.576	WT901BLE68-01(48591DE3C19B)	-2.032	-2.432	0.333	65.918	204.041	-273.743	-166.81	70.38	-76.66	-53.214	-69.972	41.160	0.31903	-0.47794	0.68716	0.44437	30.8	13111	100
2025-3-6 14:42:15.576	WT901BLE68-01(48591DE3C19B)	-2.032	-2.780	-0.509	149.841	206.360	-326.172	-159.10	67.16	-69.86	-53.214	-69.972	41.160	0.31903	-0.47794	0.68716	0.44437	30.8	13111	100
2025-3-6 14:42:15.577	WT901BLE68-01(48591DE3C19B)	-5.282	-2.780	-0.509	149.841	206.360	-326.172	-152.41	63.59	-64.47	-78.302	-51.646	6.566	0.31903	-0.47794	0.68716	0.44437	30.8	13111	100
2025-3-6 14:42:15.577	WT901BLE68-01(48591DE3C19B)	-5.282	-2.734	-1.744	266.602	171.753	-354.675	-146.26	59.91	-60.17	-78.302	-51.646	6.566	0.31903	-0.47794	0.68716	0.44437	30.8	13111	100
2025-3-6 14:42:15.577	WT901BLE68-01(48591DE3C19B)	-7.397	-2.734	-1.744	266.602	171.753	-354.675	-140.38	56.18	-56.68	-78.302	-51.646	6.566	0.31903	-0.47794	0.68716	0.44437	30.8	13111	100
2025-3-6 14:42:15.605	WT901BLE68-01(48591DE3C19B)	-7.397	-2.188	-1.461	310.242	191.284	-349.792	-135.34	52.33	-54.26	-78.302	-51.646	6.566	0.31903	-0.47794	0.68716	0.44437	30.8	13111	100
2025-3-6 14:42:15.605	WT901BLE68-01(48591DE3C19B)	-6.672	-2.188	-1.461	310.242	191.284	-349.792	-130.87	48.41	-52.60	-78.302	-51.646	6.566	0.31903	-0.47794	0.68716	0.44437	30.8	13111	100
2025-3-6 14:42:15.605	WT901BLE68-01(48591DE3C19B)	-6.672	-0.836	-1.712	306.824	243.469	-242.249	-127.48	44.77	-52.12	-78.302	-51.646	6.566	0.31903	-0.47794	0.68716	0.44437	30.8	13111	100
2025-3-6 14:42:15.605	WT901BLE68-01(48591DE3C19B)	-5.657	-0.836	-1.712	306.824	243.469	-242.249	-124.88	41.45	-52.59	-78.302	-51.646	6.566	0.31903	-0.47794	0.68716	0.44437	30.8	13111	100
2025-3-6 14:42:15.633	WT901BLE68-01(48591DE3C19B)	-5.657	-0.052	-1.760	272.522	232.239	-103.088	-122.87	38.79	-53.60	-78.302	-51.646	6.566	0.31903	-0.47794	0.68716	0.44437	30.8	13111	100
2025-3-6 14:42:15.633	WT901BLE68-01(48591DE3C19B)	-3.685	-0.052	-1.760	272.522	232.239	-103.088	-121.33	36.79	-55.09	-78.302	-51.646	6.566	0.31903	-0.47794	0.68716	0.44437	30.8	13111	100
2025-3-6 14:42:15.633	WT901BLE68-01(48591DE3C19B)	-3.685	0.391	-1.021	227.844	150.024	-16.602	-119.93	35.41	-56.42	-78.302	-51.646	6.566	0.31903	-0.47794	0.68716	0.44437	30.8	13111	100
2025-3-6 14:42:15.633	WT901BLE68-01(48591DE3C19B)	-1.820	0.391	-1.021	227.844	150.024	-16.602	-118.66	34.66	-57.60	-78.302	-51.646	6.566	0.31903	-0.47794	0.68716	0.44437	30.8	13111	100
2025-3-6 14:42:15.724	WT901BLE68-01(48591DE3C19B)	-1.820	0.605	-0.659	207.642	91.614	2.197	-117.37	34.15	-58.52	-78.302	-51.646	6.566	0.31903	-0.47794	0.68716	0.44437	30.8	13111	100
2025-3-6 14:42:15.724	WT901BLE68-01(48591DE3C19B)	-0.367	0.605	-0.659	207.642	91.614	2.197	-116.05	33.87	-59.21	-78.302	-51.646	6.566	0.31903	-0.47794	0.68716	0.44437	30.8	13111	100
2025-3-6 14:42:15.724	WT901BLE68-01(48591DE3C19B)	-0.367	1.000	-0.660	179.260	111.572	18.127	-114.98	33.65	-60.05	-78.302	-51.646	6.566	0.31903	-0.47794	0.68716	0.44437	30.8	13111	100
2025-3-6 14:42:15.724	WT901BLE68-01(48591DE3C19B)	0.882	1.000	-0.660	179.260	111.572	18.127	-114.15	33.46	-61.06	-78.302	-51.646	6.566	0.31903	-0.47794	0.68716	0.44437	30.8	13111	100
2025-3-6 14:42:15.725	WT901BLE68-01(48591DE3C19B)	0.882	1.401	-0.540	160.522	126.587	-7.690	-113.44	33.14	-62.10	-78.302	-51.646	6.566	0.31903	-0.47794	0.68716	0.44437	30.8	13111	100
2025-3-6 14:42:15.725	WT901BLE68-01(48591DE3C19B)	0.352	1.401	-0.540	160.522	126.587	-7.690	-112.85	32.67	-63.17	-78.302	-51.646	6.566	0.31903	-0.47794	0.68716	0.44437	30.8	13111	100
2025-3-6 14:42:15.726	WT901BLE68-01(48591DE3C19B)	0.352	1.348	-0.154	58.533	137.390	6.531	-112.84	32.26	-64.36	-78.302	-51.646	6.566	0.31903	-0.47794	0.68716	0.44437	30.8	13111	100
2025-3-6 14:42:15.726	WT901BLE68-01(48591DE3C19B)	0.080	1.348	-0.154	58.533	137.390	6.531	-113.40	31.88	-65.64	-78.302	-51.646	6.566	0.56805	-0.59360	0.56229	-0.09323	30.8	13111	100
2025-3-6 14:42:15.754	WT901BLE68-01(48591DE3C19B)	0.080	1.103	-0.012	43.823	29.419	15.320	-113.74	31.74	-66.37	-78.302	-51.646	6.566	0.56805	-0.59360	0.56229	-0.09323	30.8	13111	100
2025-3-6 14:42:15.754	WT901BLE68-01(48591DE3C19B)	0.399	1.103	-0.012	43.823	29.419	15.320	-113.90	31.87	-66.56	-78.302	-51.646	6.566	0.56805	-0.59360	0.56229	-0.09323	30.8	13111	100
2025-3-6 14:42:15.754	WT901BLE68-01(48591DE3C19B)	0.399	1.483	0.129	57.678	-73.242	34.302	-113.74	32.28	-66.26	-78.302	-51.646	6.566	0.56805	-0.59360	0.56229	-0.09323	30.8	13111	100
2025-3-6 14:42:15.754	WT901BLE68-01(48591DE3C19B)	0.637	1.483	0.129	57.678	-73.242	34.302	-113.27	32.99	-65.49	-78.302	-51.646	6.566	0.56805	-0.59360	0.56229	-0.09323	30.8	13111	100
2025-3-6 14:42:15.814	WT901BLE68-01(48591DE3C19B)	0.637	1.742	0.087	32.898	-112.976	15.442	-112.82	33.70	-64.51	-78.302	-51.646	6.566	0.56805	-0.59360	0.56229	-0.09323	30.8	13111	100
2025-3-6 14:42:15.814	WT901BLE68-01(48591DE3C19B)	0.731	1.742	0.087	32.898	-112.976	15.442	-112.38	34.39	-63.30	-78.302	-51.646	6.566	0.56805	-0.59360	0.56229	-0.09323	30.8	13111	100
2025-3-6 14:42:15.814	WT901BLE68-01(48591DE3C19B)	0.731	1.617	0.016	-25.940	-120.483	10.559	-112.23	35.08	-62.09	-78.302	-51.646	6.566	0.56805	-0.59360	0.56229	-0.09323	30.8	13111	100
2025-3-6 14:42:15.814	WT901BLE68-01(48591DE3C19B)	0.658	1.617	0.016	-25.940	-120.483	10.559	-112.36	35.78	-60.89	-78.302	-51.646	6.566	0.56805	-0.59360	0.56229	-0.09323	30.8	13111	100
2025-3-6 14:42:15.843	WT901BLE68-01(48591DE3C19B)	0.658	1.593	-0.011	-43.457	-108.765	35.339	-112.67	36.59	-59.87	-78.302	-51.646	6.566	0.56805	-0.59360	0.56229	-0.09323	30.8	13111	100
2025-3-6 14:42:15.843	WT901BLE68-01(48591DE3C19B)	0.559	1.593	-0.011	-43.457	-108.765	35.339	-113.15	37.51	-59.02	-78.302	-51.646	6.566	0.56805	-0.59360	0.56229	-0.09323	30.8	13111	100
2025-3-6 14:42:15.843	WT901BLE68-01(48591DE3C19B)	0.559	1.602	-0.188	-114.197	-69.214	88.928	-114.22	38.62	-58.58	-78.302	-51.646	6.566	0.56805	-0.59360	0.56229	-0.09323	30.8	13111	100
2025-3-6 14:42:15.843	WT901BLE68-01(48591DE3C19B)	0.577	1.602	-0.188	-114.197	-69.214	88.928	-115.91	39.90	-58.58	-78.302	-51.646	6.566	0.56805	-0.59360	0.56229	-0.09323	30.8	13111	100
2025-3-6 14:42:15.875	WT901BLE68-01(48591DE3C19B)	0.577	1.439	-0.361	-174.927	-7.813	113.159	-118.21	41.15	-59.10	-78.302	-51.646	6.566	0.56805	-0.59360	0.56229	-0.09323	30.8	13111	100
2025-3-6 14:42:15.875	WT901BLE68-01(48591DE3C19B)	0.249	1.439	-0.361	-174.927	-7.813	113.159	-121.19	42.33	-60.16	-78.302	-51.646	6.566	0.56805	-0.59360	0.56229	-0.09323	30.8	13111	100
2025-3-6 14:42:15.875	WT901BLE68-01(48591DE3C19B)	0.249	1.152	-0.685	-213.745	82.458	108.948	-124.78	43.18	-61.84	-78.302	-51.646	6.566	0.56805	-0.59360	0.56229	-0.09323	30.8	13111	100
2025-3-6 14:42:15.875	WT901BLE68-01(48591DE3C19B)	-1.172	1.152	-0.685	-213.745	82.458	108.948	-128.97	43.63	-64.09	-78.302	-51.646	6.566	0.56805	-0.59360	0.56229	-0.09323	30.8	13111	100
2025-3-6 14:42:15.934	WT901BLE68-01(48591DE3C19B)	-1.172	0.964	-1.337	-246.582	113.159	100.769	-133.44	43.78	-66.48	-78.302	-51.646	6.566	0.56805	-0.59360	0.56229	-0.09323	30.8	13111	100
2025-3-6 14:42:15.934	WT901BLE68-01(48591DE3C19B)	-5.395	0.964	-1.337	-246.582	113.159	100.769	-138.09	43.62	-68.92	-78.302	-51.646	6.566	0.56805	-0.59360	0.56229	-0.09323	30.8	13111	100
2025-3-6 14:42:15.934	WT901BLE68-01(48591DE3C19B)	-5.395	0.878	-1.966	-257.751	76.111	140.259	-142.74	43.59	-71.28	-78.302	-51.646	6.566	0.56805	-0.59360	0.56229	-0.09323	30.8	13111	100
2025-3-6 14:42:15.934	WT901BLE68-01(48591DE3C19B)	-8.806	0.878	-1.966	-257.751	76.111	140.259	-147.38	43.73	-73.56	-78.302	-51.646	6.566	0.56805	-0.59360	0.56229	-0.09323	30.8	13111	100
2025-3-6 14:42:15.966	WT901BLE68-01(48591DE3C19B)	-8.806	0.527	-2.513	-345.886	-108.093	306.763	-152.67	44.97	-76.16	-56.448	-69.678	16.758	0.56805	-0.59360	0.56229	-0.09323	30.8	13111	100
2025-3-6 14:42:15.966	WT901BLE68-01(48591DE3C19B)	-6.250	0.527	-2.513	-345.886	-108.093	306.763	-158.93	47.23	-79.45	-56.448	-69.678	16.758	0.56805	-0.59360	0.56229	-0.09323	30.8	13111	100
2025-3-6 14:42:15.966	WT901BLE68-01(48591DE3C19B)	-6.250	-1.248	-3.006	-416.382	-129.639	391.357	-166.38	49.43	-83.78	-56.448	-69.678	16.758	0.56805	-0.59360	0.56229	-0.09323	30.8	13111	100
2025-3-6 14:42:15.966	WT901BLE68-01(48591DE3C19B)	-4.621	-1.248	-3.006	-416.382	-129.639	391.357	-175.17	51.38	-89.30	-56.448	-69.678	16.758	0.56805	-0.59360	0.56229	-0.09323	30.8	13111	100
2025-3-6 14:42:15.996	WT901BLE68-01(48591DE3C19B)	-4.621	-2.557	-2.275	-242.065	10.498	357.666	176.67	52.06	-95.06	-56.448	-69.678	16.758	0.56805	-0.59360	0.56229	-0.09323	30.8	13111	100
2025-3-6 14:42:15.996	WT901BLE68-01(48591DE3C19B)	-2.553	-2.557	-2.275	-242.065	10.498	357.666	169.69	51.60	-100.49	-56.448	-69.678	16.758	0.56805	-0.59360	0.56229	-0.09323	30.8	13111	100
2025-3-6 14:42:15.996	WT901BLE68-01(48591DE3C19B)	-2.553	-1.999	-1.352	-156.372	84.045	318.298	164.53	50.17	-104.79	-56.448	-69.678	16.758	0.56805	-0.59360	0.56229	-0.09323	30.8	13111	100
2025-3-6 14:42:15.996	WT901BLE68-01(48591DE3C19B)	-1.106	-1.999	-1.352	-156.372	84.045	318.298	159.75	48.52	-108.72	-56.448	-69.678	16.758	0.56805	-0.59360	0.56229	-0.09323	30.8	13111	100
2025-3-6 14:42:16.53	WT901BLE68-01(48591DE3C19B)	-1.106	-1.550	-0.950	-175.415	76.843	229.370	156.02	47.09	-111.13	-56.448	-69.678	16.758	0.56805	-0.59360	0.56229	-0.09323	30.8	13111	100
2025-3-6 14:42:16.53	WT901BLE68-01(48591DE3C19B)	0.062	-1.550	-0.950	-175.415	76.843	229.370	152.53	45.58	-113.31	-56.448	-69.678	16.758	0.56805	-0.59360	0.56229	-0.09323	30.8	13111	100
2025-3-6 14:42:16.54	WT901BLE68-01(48591DE3C19B)	0.062	-2.000	-1.052	-208.313	-31.616	99.060	149.53	45.55	-114.44	-56.448	-69.678	16.758	0.56805	-0.59360	0.56229	-0.09323	30.8	13111	100
2025-3-6 14:42:16.54	WT901BLE68-01(48591DE3C19B)	1.087	-2.000	-1.052	-208.313	-31.616	99.060	146.60	45.49	-115.57	-56.448	-69.678	16.758	0.56805	-0.59360	0.56229	-0.09323	30.8	13111	100
2025-3-6 14:42:16.82	WT901BLE68-01(48591DE3C19B)	1.087	-2.728	-0.806	-166.626	-176.636	57.434	143.65	46.80	-117.38	-56.448	-69.678	16.758	0.56805	-0.59360	0.56229	-0.09323	30.8	13111	100
2025-3-6 14:42:16.83	WT901BLE68-01(48591DE3C19B)	2.214	-2.728	-0.806	-166.626	-176.636	57.434	140.67	48.02	-119.32	-56.448	-69.678	16.758	0.56805	-0.59360	0.56229	-0.09323	30.8	13111	100
2025-3-6 14:42:16.83	WT901BLE68-01(48591DE3C19B)	2.214	-2.473	-0.441	-26.123	-213.013	-38.391	139.64	50.06	-120.58	-56.448	-69.678	16.758	0.56805	-0.59360	0.56229	-0.09323	30.8	13111	100
2025-3-6 14:42:16.83	WT901BLE68-01(48591DE3C19B)	2.697	-2.473	-0.441	-26.123	-213.013	-38.391	138.59	52.05	-121.91	-56.448	-69.678	16.758	0.56805	-0.59360	0.56229	-0.09323	30.8	13111	100
2025-3-6 14:42:16.115	WT901BLE68-01(48591DE3C19B)	2.697	-1.665	0.004	21.179	-147.522	-104.187	139.24	53.93	-121.71	-56.448	-69.678	16.758	0.56805	-0.59360	0.56229	-0.09323	30.8	13111	100
2025-3-6 14:42:16.116	WT901BLE68-01(48591DE3C19B)	1.527	-1.665	0.004	21.179	-147.522	-104.187	140.02	55.79	-121.40	-56.448	-69.678	16.758	0.56805	-0.59360	0.56229	-0.09323	30.8	13111	100
2025-3-6 14:42:16.116	WT901BLE68-01(48591DE3C19B)	1.527	-2.006	-0.526	-11.414	-74.707	-178.101	142.19	57.51	-119.05	-56.448	-69.678	16.758	0.56805	-0.59360	0.56229	-0.09323	30.8	13111	100
2025-3-6 14:42:16.116	WT901BLE68-01(48591DE3C19B)	0.671	-2.006	-0.526	-11.414	-74.707	-178.101	144.63	59.15	-116.43	-56.448	-69.678	16.758	0.56805	-0.59360	0.56229	-0.09323	30.8	13111	100
2025-3-6 14:42:16.176	WT901BLE68-01(48591DE3C19B)	0.671	-2.233	-0.657	75.073	-110.840	-220.581	148.55	61.24	-113.15	-56.448	-69.678	16.758	0.56805	-0.59360	0.56229	-0.09323	30.8	13111	100
2025-3-6 14:42:16.176	WT901BLE68-01(48591DE3C19B)	0.177	-2.233	-0.657	75.073	-110.840	-220.581	153.00	63.19	-109.32	-56.448	-69.678	16.758	0.30060	-0.57877	0.60489	0.45682	30.8	13111	100
2025-3-6 14:42:16.176	WT901BLE68-01(48591DE3C19B)	0.177	-1.583	-0.369	104.553	-145.508	-226.074	158.19	65.32	-105.06	-56.448	-69.678	16.758	0.30060	-0.57877	0.60489	0.45682	30.8	13111	100
2025-3-6 14:42:16.176	WT901BLE68-01(48591DE3C19B)	0.260	-1.583	-0.369	104.553	-145.508	-226.074	164.20	67.25	-99.97	-56.448	-69.678	16.758	0.30060	-0.57877	0.60489	0.45682	30.8	13111	100
2025-3-6 14:42:16.203	WT901BLE68-01(48591DE3C19B)	0.260	-1.148	0.028	61.829	-90.332	-236.694	171.18	68.41	-93.41	-56.448	-69.678	16.758	0.30060	-0.57877	0.60489	0.45682	30.8	13111	100
2025-3-6 14:42:16.203	WT901BLE68-01(48591DE3C19B)	0.296	-1.148	0.028	61.829	-90.332	-236.694	178.80	69.24	-86.20	-56.448	-69.678	16.758	0.30060	-0.57877	0.60489	0.45682	30.8	13111	100
2025-3-6 14:42:16.203	WT901BLE68-01(48591DE3C19B)	0.296	-1.339	0.307	35.828	48.767	-222.229	-174.16	68.35	-79.34	-56.448	-69.678	16.758	0.30060	-0.57877	0.60489	0.45682	30.8	13111	100
2025-3-6 14:42:16.203	WT901BLE68-01(48591DE3C19B)	-0.446	-1.339	0.307	35.828	48.767	-222.229	-167.76	67.17	-73.13	-56.448	-69.678	16.758	0.30060	-0.57877	0.60489	0.45682	30.8	13111	100
2025-3-6 14:42:16.264	WT901BLE68-01(48591DE3C19B)	-0.446	-1.605	0.245	36.011	148.438	-183.777	-163.49	64.92	-69.18	-56.448	-69.678	16.758	0.30060	-0.57877	0.60489	0.45682	30.8	13111	100
2025-3-6 14:42:16.264	WT901BLE68-01(48591DE3C19B)	-1.701	-1.605	0.245	36.011	148.438	-183.777	-159.92	62.59	-65.95	-56.448	-69.678	16.758	0.30060	-0.57877	0.60489	0.45682	30.8	13111	100
2025-3-6 14:42:16.264	WT901BLE68-01(48591DE3C19B)	-1.701	-1.994	-0.174	86.365	161.377	-184.998	-156.48	60.08	-63.38	-56.448	-69.678	16.758	0.30060	-0.57877	0.60489	0.45682	30.8	13111	100
2025-3-6 14:42:16.264	WT901BLE68-01(48591DE3C19B)	-3.226	-1.994	-0.174	86.365	161.377	-184.998	-153.52	57.54	-61.31	-56.448	-69.678	16.758	0.30060	-0.57877	0.60489	0.45682	30.8	13111	100
2025-3-6 14:42:16.293	WT901BLE68-01(48591DE3C19B)	-3.226	-2.159	-0.739	190.308	126.648	-247.559	-148.90	55.00	-58.43	-56.448	-69.678	16.758	0.30060	-0.57877	0.60489	0.45682	30.8	13111	100
2025-3-6 14:42:16.293	WT901BLE68-01(48591DE3C19B)	-4.666	-2.159	-0.739	190.308	126.648	-247.559	-144.81	52.39	-56.07	-56.448	-69.678	16.758	0.30060	-0.57877	0.60489	0.45682	30.8	13111	100
2025-3-6 14:42:16.293	WT901BLE68-01(48591DE3C19B)	-4.666	-2.200	-1.214	258.301	147.705	-305.420	-140.09	49.25	-53.65	-56.448	-69.678	16.758	0.30060	-0.57877	0.60489	0.45682	30.8	13111	100
2025-3-6 14:42:16.293	WT901BLE68-01(48591DE3C19B)	-5.494	-2.200	-1.214	258.301	147.705	-305.420	-135.90	46.05	-51.70	-56.448	-69.678	16.758	0.30060	-0.57877	0.60489	0.45682	30.8	13111	100
2025-3-6 14:42:16.325	WT901BLE68-01(48591DE3C19B)	-5.494	-1.885	-1.792	326.477	237.793	-310.059	-132.06	42.20	-50.94	-56.448	-69.678	16.758	0.30060	-0.57877	0.60489	0.45682	30.8	13111	100
2025-3-6 14:42:16.326	WT901BLE68-01(48591DE3C19B)	-5.930	-1.885	-1.792	326.477	237.793	-310.059	-128.56	38.37	-50.47	-56.448	-69.678	16.758	0.30060	-0.57877	0.60489	0.45682	30.8	13111	100
2025-3-6 14:42:16.326	WT901BLE68-01(48591DE3C19B)	-5.930	-0.708	-1.930	338.257	267.639	-191.223	-125.91	35.34	-51.41	-56.448	-69.678	16.758	0.30060	-0.57877	0.60489	0.45682	30.8	13111	100
2025-3-6 14:42:16.326	WT901BLE68-01(48591DE3C19B)	-4.569	-0.708	-1.930	338.257	267.639	-191.223	-123.35	32.37	-52.44	-56.448	-69.678	16.758	0.30060	-0.57877	0.60489	0.45682	30.8	13111	100
2025-3-6 14:42:16.383	WT901BLE68-01(48591DE3C19B)	-4.569	0.218	-1.651	291.443	225.464	-97.717	-121.40	30.48	-53.74	-56.448	-69.678	16.758	0.30060	-0.57877	0.60489	0.45682	30.8	13111	100
2025-3-6 14:42:16.384	WT901BLE68-01(48591DE3C19B)	-2.894	0.218	-1.651	291.443	225.464	-97.717	-119.47	28.63	-55.09	-51.548	-67.914	17.444	0.30060	-0.57877	0.60489	0.45682	30.8	13111	100
2025-3-6 14:42:16.384	WT901BLE68-01(48591DE3C19B)	-2.894	0.619	-1.188	245.178	163.208	-36.560	-117.88	27.67	-56.19	-51.548	-67.914	17.444	0.30060	-0.57877	0.60489	0.45682	30.8	13111	100
2025-3-6 14:42:16.384	WT901BLE68-01(48591DE3C19B)	-1.626	0.619	-1.188	245.178	163.208	-36.560	-116.31	26.74	-57.33	-51.548	-67.914	17.444	0.30060	-0.57877	0.60489	0.45682	30.8	13111	100
2025-3-6 14:42:16.413	WT901BLE68-01(48591DE3C19B)	-1.626	0.798	-0.717	183.899	106.506	-14.832	-115.15	26.29	-58.01	-51.548	-67.914	17.444	0.30060	-0.57877	0.60489	0.45682	30.8	13111	100
2025-3-6 14:42:16.413	WT901BLE68-01(48591DE3C19B)	-0.514	0.798	-0.717	183.899	106.506	-14.832	-114.02	25.85	-58.72	-51.548	-67.914	17.444	0.30060	-0.57877	0.60489	0.45682	30.8	13111	100
2025-3-6 14:42:16.413	WT901BLE68-01(48591DE3C19B)	-0.514	0.857	-0.456	146.545	84.961	2.869	-113.20	25.68	-59.30	-51.548	-67.914	17.444	0.30060	-0.57877	0.60489	0.45682	30.8	13111	100
2025-3-6 14:42:16.413	WT901BLE68-01(48591DE3C19B)	0.494	0.857	-0.456	146.545	84.961	2.869	-112.41	25.52	-59.90	-51.548	-67.914	17.444	0.30060	-0.57877	0.60489	0.45682	30.8	13111	100
2025-3-6 14:42:16.443	WT901BLE68-01(48591DE3C19B)	0.494	1.413	-0.153	147.400	53.772	73.181	-111.62	26.13	-60.48	-51.548	-67.914	17.444	0.30060	-0.57877	0.60489	0.45682	30.8	13111	100
2025-3-6 14:42:16.444	WT901BLE68-01(48591DE3C19B)	0.565	1.413	-0.153	147.400	53.772	73.181	-110.86	26.75	-61.08	-51.548	-67.914	17.444	0.30060	-0.57877	0.60489	0.45682	30.8	13111	100
2025-3-6 14:42:16.444	WT901BLE68-01(48591DE3C19B)	0.688	1.797	-0.032	15.869	5.005	137.817	-111.34	28.14	-61.46	-51.548	-67.914	17.444	0.30060	-0.57877	0.60489	0.45682	30.8	13111	100
2025-3-6 14:42:16.444	WT901BLE68-01(48591DE3C19B)	0.688	1.646	0.124	-37.598	-60.791	102.722	-111.95	29.49	-61.47	-51.548	-67.914	17.444	0.30060	-0.57877	0.60489	0.45682	30.8	13111	100
2025-3-6 14:42:16.505	WT901BLE68-01(48591DE3C19B)	1.034	1.646	0.124	-37.598	-60.791	102.722	-112.65	30.79	-61.11	-51.548	-67.914	17.444	0.30060	-0.57877	0.60489	0.45682	30.8	13111	100
2025-3-6 14:42:16.506	WT901BLE68-01(48591DE3C19B)	1.034	1.480	0.233	-61.035	-63.293	67.017	-113.47	31.94	-60.73	-51.548	-67.914	17.444	0.30060	-0.57877	0.60489	0.45682	30.8	13111	100
2025-3-6 14:42:16.506	WT901BLE68-01(48591DE3C19B)	1.282	1.480	0.233	-61.035	-63.293	67.017	-114.41	32.94	-60.32	-51.548	-67.914	17.444	0.30060	-0.57877	0.60489	0.45682	30.8	13111	100
2025-3-6 14:42:16.506	WT901BLE68-01(48591DE3C19B)	1.282	1.312	0.086	-79.224	-37.231	54.199	-115.54	33.83	-60.11	-51.548	-67.914	17.444	0.30060	-0.57877	0.60489	0.45682	30.8	13111	100
2025-3-6 14:42:16.536	WT901BLE68-01(48591DE3C19B)	1.083	1.312	0.086	-79.224	-37.231	54.199	-116.89	34.61	-60.09	-51.548	-67.914	17.444	0.30060	-0.57877	0.60489	0.45682	30.8	13111	100
2025-3-6 14:42:16.536	WT901BLE68-01(48591DE3C19B)	1.083	1.105	-0.081	-77.393	-14.832	62.195	-118.36	35.38	-60.32	-51.548	-67.914	17.444	0.30060	-0.57877	0.60489	0.45682	30.8	13111	100
2025-3-6 14:42:16.536	WT901BLE68-01(48591DE3C19B)	0.679	1.105	-0.081	-77.393	-14.832	62.195	-119.96	36.11	-60.78	-51.548	-67.914	17.444	0.30060	-0.57877	0.60489	0.45682	30.8	13111	100
2025-3-6 14:42:16.536	WT901BLE68-01(48591DE3C19B)	0.679	1.060	-0.236	-83.191	-5.127	67.566	-121.67	36.84	-61.39	-51.548	-67.914	17.444	0.53427	-0.63477	0.55807	0.00632	30.8	13111	100
2025-3-6 14:42:16.566	WT901BLE68-01(48591DE3C19B)	0.463	1.060	-0.236	-83.191	-5.127	67.566	-123.49	37.53	-62.14	-51.548	-67.914	17.444	0.53427	-0.63477	0.55807	0.00632	30.8	13111	100
2025-3-6 14:42:16.566	WT901BLE68-01(48591DE3C19B)	0.463	1.029	-0.277	-117.249	2.625	55.542	-125.51	38.13	-62.94	-51.548	-67.914	17.444	0.53427	-0.63477	0.55807	0.00632	30.8	13111	100
2025-3-6 14:42:16.566	WT901BLE68-01(48591DE3C19B)	0.049	1.029	-0.277	-117.249	2.625	55.542	-127.73	38.61	-63.78	-51.548	-67.914	17.444	0.53427	-0.63477	0.55807	0.00632	30.8	13111	100
2025-3-6 14:42:16.566	WT901BLE68-01(48591DE3C19B)	0.049	0.820	-0.577	-155.090	28.809	42.908	-130.21	38.91	-64.72	-51.548	-67.914	17.444	0.53427	-0.63477	0.55807	0.00632	30.8	13111	100
2025-3-6 14:42:16.624	WT901BLE68-01(48591DE3C19B)	-1.260	0.820	-0.577	-155.090	28.809	42.908	-132.92	39.00	-65.73	-51.548	-67.914	17.444	0.53427	-0.63477	0.55807	0.00632	30.8	13111	100
2025-3-6 14:42:16.624	WT901BLE68-01(48591DE3C19B)	-1.260	1.147	-1.555	-118.591	19.836	52.124	-135.42	39.08	-66.69	-51.548	-67.914	17.444	0.53427	-0.63477	0.55807	0.00632	30.8	13111	100
2025-3-6 14:42:16.624	WT901BLE68-01(48591DE3C19B)	-6.255	1.147	-1.555	-118.591	19.836	52.124	-137.70	39.17	-67.59	-51.548	-67.914	17.444	0.53427	-0.63477	0.55807	0.00632	30.8	13111	100
2025-3-6 14:42:16.624	WT901BLE68-01(48591DE3C19B)	-6.255	1.889	-2.208	-258.179	16.724	49.194	-140.59	39.27	-68.38	-51.548	-67.914	17.444	0.53427	-0.63477	0.55807	0.00632	30.8	13111	100
2025-3-6 14:42:16.653	WT901BLE68-01(48591DE3C19B)	-7.504	1.889	-2.208	-258.179	16.724	49.194	-144.09	39.41	-69.04	-51.548	-67.914	17.444	0.53427	-0.63477	0.55807	0.00632	30.8	13111	100
2025-3-6 14:42:16.653	WT901BLE68-01(48591DE3C19B)	-7.504	-0.182	-2.565	-423.462	-23.071	250.061	-148.97	40.26	-70.60	-51.548	-67.914	17.444	0.53427	-0.63477	0.55807	0.00632	30.8	13111	100
2025-3-6 14:42:16.653	WT901BLE68-01(48591DE3C19B)	-5.247	-0.182	-2.565	-423.462	-23.071	250.061	-155.39	41.67	-73.26	-51.548	-67.914	17.444	0.53427	-0.63477	0.55807	0.00632	30.8	13111	100
2025-3-6 14:42:16.653	WT901BLE68-01(48591DE3C19B)	-5.247	-1.785	-2.834	-343.750	82.581	316.406	-161.98	42.46	-76.78	-51.548	-67.914	17.444	0.53427	-0.63477	0.55807	0.00632	30.8	13111	100
2025-3-6 14:42:16.683	WT901BLE68-01(48591DE3C19B)	-3.932	-1.785	-2.834	-343.750	82.581	316.406	-168.63	42.53	-81.01	-51.548	-67.914	17.444	0.53427	-0.63477	0.55807	0.00632	30.8	13111	100
2025-3-6 14:42:16.683	WT901BLE68-01(48591DE3C19B)	-3.932	-1.734	-2.045	-213.196	176.392	295.593	-174.47	41.78	-85.09	-51.548	-67.914	17.444	0.53427	-0.63477	0.55807	0.00632	30.8	13111	100
2025-3-6 14:42:16.684	WT901BLE68-01(48591DE3C19B)	-2.491	-1.734	-2.045	-213.196	176.392	295.593	-179.36	40.29	-88.88	-51.548	-67.914	17.444	0.53427	-0.63477	0.55807	0.00632	30.8	13111	100
2025-3-6 14:42:16.684	WT901BLE68-01(48591DE3C19B)	-2.491	-1.464	-1.152	-204.407	106.628	249.756	176.25	38.94	-92.10	-51.548	-67.914	17.444	0.53427	-0.63477	0.55807	0.00632	30.8	13111	100
2025-3-6 14:42:16.744	WT901BLE68-01(48591DE3C19B)	-1.284	-1.464	-1.152	-204.407	106.628	249.756	172.28	37.78	-94.87	-51.548	-67.914	17.444	0.53427	-0.63477	0.55807	0.00632	30.8	13111	100
2025-3-6 14:42:16.744	WT901BLE68-01(48591DE3C19B)	-1.284	-1.413	-0.911	-231.689	-21.240	150.024	168.63	37.21	-97.00	-51.548	-67.914	17.444	0.53427	-0.63477	0.55807	0.00632	30.8	13111	100
2025-3-6 14:42:16.744	WT901BLE68-01(48591DE3C19B)	-0.083	-1.413	-0.911	-231.689	-21.240	150.024	165.18	37.25	-98.63	-51.548	-67.914	17.444	0.53427	-0.63477	0.55807	0.00632	30.8	13111	100
2025-3-6 14:42:16.744	WT901BLE68-01(48591DE3C19B)	-0.083	-1.902	-0.927	-248.169	-129.456	69.641	161.87	37.86	-99.97	-51.548	-67.914	17.444	0.53427	-0.63477	0.55807	0.00632	30.8	13111	100
2025-3-6 14:42:16.775	WT901BLE68-01(48591DE3C19B)	0.995	-1.902	-0.927	-248.169	-129.456	69.641	158.64	39.03	-101.11	-75.558	-47.530	10.584	0.53427	-0.63477	0.55807	0.00632	30.8	13111	100
2025-3-6 14:42:16.775	WT901BLE68-01(48591DE3C19B)	0.995	-2.448	-0.729	-172.363	-209.106	30.640	155.78	40.58	-102.31	-75.558	-47.530	10.584	0.53427	-0.63477	0.55807	0.00632	30.8	13111	100
2025-3-6 14:42:16.776	WT901BLE68-01(48591DE3C19B)	1.656	-2.448	-0.729	-172.363	-209.106	30.640	153.28	42.50	-103.62	-75.558	-47.530	10.584	0.53427	-0.63477	0.55807	0.00632	30.8	13111	100
2025-3-6 14:42:16.776	WT901BLE68-01(48591DE3C19B)	1.656	-2.115	-0.677	-62.866	-172.791	-30.945	151.61	44.34	-104.56	-75.558	-47.530	10.584	0.53427	-0.63477	0.55807	0.00632	30.8	13111	100
2025-3-6 14:42:16.804	WT901BLE68-01(48591DE3C19B)	2.273	-2.115	-0.677	-62.866	-172.791	-30.945	150.85	46.10	-105.06	-75.558	-47.530	10.584	0.53427	-0.63477	0.55807	0.00632	30.8	13111	100
2025-3-6 14:42:16.804	WT901BLE68-01(48591DE3C19B)	2.273	-1.819	-0.446	-2.747	-151.001	-89.600	150.75	47.87	-105.10	-75.558	-47.530	10.584	0.53427	-0.63477	0.55807	0.00632	30.8	13111	100
2025-3-6 14:42:16.804	WT901BLE68-01(48591DE3C19B)	1.133	-1.819	-0.446	-2.747	-151.001	-89.600	151.38	49.65	-104.62	-75.558	-47.530	10.584	0.53427	-0.63477	0.55807	0.00632	30.8	13111	100
2025-3-6 14:42:16.804	WT901BLE68-01(48591DE3C19B)	1.133	-1.839	-0.707	-5.493	-91.919	-93.018	152.28	51.12	-103.80	-75.558	-47.530	10.584	0.53427	-0.63477	0.55807	0.00632	30.8	13111	100
2025-3-6 14:42:16.863	WT901BLE68-01(48591DE3C19B)	0.346	-1.839	-0.707	-5.493	-91.919	-93.018	153.46	52.31	-102.64	-75.558	-47.530	10.584	0.53427	-0.63477	0.55807	0.00632	30.8	13111	100
2025-3-6 14:42:16.864	WT901BLE68-01(48591DE3C19B)	0.346	-1.830	-0.525	60.913	-158.203	-153.198	155.24	53.89	-101.16	-75.558	-47.530	10.584	0.53427	-0.63477	0.55807	0.00632	30.8	13111	100
2025-3-6 14:42:16.864	WT901BLE68-01(48591DE3C19B)	0.413	-1.830	-0.525	60.913	-158.203	-153.198	157.73	55.84	-99.26	-75.558	-47.530	10.584	0.53427	-0.63477	0.55807	0.00632	30.8	13111	100
2025-3-6 14:42:16.864	WT901BLE68-01(48591DE3C19B)	0.413	-1.305	-0.261	96.436	-238.770	-164.490	160.53	58.13	-97.23	-75.558	-47.530	10.584	0.53427	-0.63477	0.55807	0.00632	30.8	13111	100
2025-3-6 14:42:16.893	WT901BLE68-01(48591DE3C19B)	0.833	-1.305	-0.261	96.436	-238.770	-164.490	163.76	60.75	-94.95	-75.558	-47.530	10.584	0.53427	-0.63477	0.55807	0.00632	30.8	13111	100
2025-3-6 14:42:16.893	WT901BLE68-01(48591DE3C19B)	0.833	-0.824	-0.022	46.936	-209.961	-180.786	167.49	63.15	-91.88	-75.558	-47.530	10.584	0.53427	-0.63477	0.55807	0.00632	30.8	13111	100
2025-3-6 14:42:16.893	WT901BLE68-01(48591DE3C19B)	1.359	-0.824	-0.022	46.936	-209.961	-180.786	171.83	65.30	-87.91	-75.558	-47.530	10.584	0.53427	-0.63477	0.55807	0.00632	30.8	13111	100
2025-3-6 14:42:16.893	WT901BLE68-01(48591DE3C19B)	1.359	-0.871	0.192	-19.409	-64.697	-200.073	176.90	66.57	-82.83	-75.558	-47.530	10.584	0.53427	-0.63477	0.55807	0.00632	30.8	13111	100
2025-3-6 14:42:16.925	WT901BLE68-01(48591DE3C19B)	1.513	-0.871	0.192	-19.409	-64.697	-200.073	-177.69	66.90	-77.03	-75.558	-47.530	10.584	0.53427	-0.63477	0.55807	0.00632	30.8	13111	100
2025-3-6 14:42:16.926	WT901BLE68-01(48591DE3C19B)	1.513	-1.117	0.386	-28.992	176.819	-211.914	-172.75	64.58	-71.60	-75.558	-47.530	10.584	0.53427	-0.63477	0.55807	0.00632	30.8	13111	100
2025-3-6 14:42:16.926	WT901BLE68-01(48591DE3C19B)	0.377	-1.117	0.386	-28.992	176.819	-211.914	-168.70	62.09	-67.06	-75.558	-47.530	10.584	0.53427	-0.63477	0.55807	0.00632	30.8	13111	100
2025-3-6 14:42:16.926	WT901BLE68-01(48591DE3C19B)	0.377	-1.743	0.191	-28.748	374.268	-237.427	-165.79	57.51	-63.70	-75.558	-47.530	10.584	0.53427	-0.63477	0.55807	0.00632	30.8	13111	100
2025-3-6 14:42:16.983	WT901BLE68-01(48591DE3C19B)	-2.793	-1.743	0.191	-28.748	374.268	-237.427	-163.67	52.87	-61.13	-75.558	-47.530	10.584	0.53427	-0.63477	0.55807	0.00632	30.8	13111	100
2025-3-6 14:42:16.983	WT901BLE68-01(48591DE3C19B)	-2.793	-3.272	-1.615	99.609	257.263	-148.560	-161.42	49.63	-59.92	-75.558	-47.530	10.584	0.33380	-0.74213	0.50607	0.28564	30.8	13111	100
2025-3-6 14:42:16.983	WT901BLE68-01(48591DE3C19B)	-8.418	-3.272	-1.615	99.609	257.263	-148.560	-159.43	46.43	-59.02	-75.558	-47.530	10.584	0.33380	-0.74213	0.50607	0.28564	30.8	13111	100
2025-3-6 14:42:16.983	WT901BLE68-01(48591DE3C19B)	-8.418	-3.781	-1.669	360.962	154.236	-324.768	-153.15	43.57	-55.66	-75.558	-47.530	10.584	0.33380	-0.74213	0.50607	0.28564	30.8	13111	100
2025-3-6 14:42:17.14	WT901BLE68-01(48591DE3C19B)	-6.153	-3.781	-1.669	360.962	154.236	-324.768	-147.43	40.58	-52.87	-75.558	-47.530	10.584	0.33380	-0.74213	0.50607	0.28564	30.8	13111	100
2025-3-6 14:42:17.14	WT901BLE68-01(48591DE3C19B)	-6.153	-1.345	-1.418	364.563	148.071	-286.316	-142.38	37.75	-50.88	-75.558	-47.530	10.584	0.33380	-0.74213	0.50607	0.28564	30.8	13111	100
2025-3-6 14:42:17.14	WT901BLE68-01(48591DE3C19B)	-5.630	-1.345	-1.418	364.563	148.071	-286.316	-137.70	34.88	-49.21	-75.558	-47.530	10.584	0.33380	-0.74213	0.50607	0.28564	30.8	13111	100
2025-3-6 14:42:17.14	WT901BLE68-01(48591DE3C19B)	-5.630	-0.299	-1.998	278.687	312.500	-140.015	-135.62	31.79	-50.36	-75.558	-47.530	10.584	0.33380	-0.74213	0.50607	0.28564	30.8	13111	100
2025-3-6 14:42:17.43	WT901BLE68-01(48591DE3C19B)	-4.251	-0.299	-1.998	278.687	312.500	-140.015	-133.58	28.77	-51.54	-75.558	-47.530	10.584	0.33380	-0.74213	0.50607	0.28564	30.8	13111	100
2025-3-6 14:42:17.43	WT901BLE68-01(48591DE3C19B)	-4.251	0.178	-1.458	257.629	263.550	-39.490	-131.96	26.87	-53.15	-75.558	-47.530	10.584	0.33380	-0.74213	0.50607	0.28564	30.8	13111	100
2025-3-6 14:42:17.43	WT901BLE68-01(48591DE3C19B)	-2.688	0.178	-1.458	257.629	263.550	-39.490	-130.35	25.02	-54.77	-75.558	-47.530	10.584	0.33380	-0.74213	0.50607	0.28564	30.8	13111	100
2025-3-6 14:42:17.43	WT901BLE68-01(48591DE3C19B)	-2.688	0.547	-0.681	237.976	123.535	-4.944	-128.55	24.38	-55.48	-75.558	-47.530	10.584	0.33380	-0.74213	0.50607	0.28564	30.8	13111	100
2025-3-6 14:42:17.104	WT901BLE68-01(48591DE3C19B)	-1.197	0.547	-0.681	237.976	123.535	-4.944	-126.77	23.77	-56.21	-75.558	-47.530	10.584	0.33380	-0.74213	0.50607	0.28564	30.8	13111	100
2025-3-6 14:42:17.104	WT901BLE68-01(48591DE3C19B)	-1.197	0.748	-0.501	212.646	44.678	-11.047	-124.98	23.59	-56.22	-75.558	-47.530	10.584	0.33380	-0.74213	0.50607	0.28564	30.8	13111	100
2025-3-6 14:42:17.104	WT901BLE68-01(48591DE3C19B)	0.082	0.748	-0.501	212.646	44.678	-11.047	-123.21	23.43	-56.25	-75.558	-47.530	10.584	0.33380	-0.74213	0.50607	0.28564	30.8	13111	100
2025-3-6 14:42:17.104	WT901BLE68-01(48591DE3C19B)	0.082	1.187	-0.724	237.976	25.024	21.240	-121.22	23.64	-56.31	-75.558	-47.530	10.584	0.33380	-0.74213	0.50607	0.28564	30.8	13111	100
2025-3-6 14:42:17.136	WT901BLE68-01(48591DE3C19B)	0.529	1.187	-0.724	237.976	25.024	21.240	-119.25	23.86	-56.38	-75.558	-47.530	10.584	0.33380	-0.74213	0.50607	0.28564	30.8	13111	100
2025-3-6 14:42:17.136	WT901BLE68-01(48591DE3C19B)	0.529	1.630	-0.597	179.016	16.479	41.504	-117.91	24.29	-56.49	-75.558	-47.530	10.584	0.33380	-0.74213	0.50607	0.28564	30.8	13111	100
2025-3-6 14:42:17.136	WT901BLE68-01(48591DE3C19B)	0.914	1.630	-0.597	179.016	16.479	41.504	-116.60	24.72	-56.62	-75.558	-47.530	10.584	0.33380	-0.74213	0.50607	0.28564	30.8	13111	100
2025-3-6 14:42:17.136	WT901BLE68-01(48591DE3C19B)	0.914	2.100	-0.308	47.607	-85.388	143.127	-116.43	26.50	-56.28	-75.558	-47.530	10.584	0.33380	-0.74213	0.50607	0.28564	30.8	13111	100
2025-3-6 14:42:17.166	WT901BLE68-01(48591DE3C19B)	1.258	2.100	-0.308	47.607	-85.388	143.127	-116.30	28.28	-55.99	-75.558	-47.530	10.584	0.33380	-0.74213	0.50607	0.28564	30.8	13111	100
2025-3-6 14:42:17.166	WT901BLE68-01(48591DE3C19B)	1.258	1.789	-0.104	-62.805	-102.051	79.285	-117.08	29.55	-55.26	-75.558	-47.530	10.584	0.33380	-0.74213	0.50607	0.28564	30.8	13111	100
2025-3-6 14:42:17.166	WT901BLE68-01(48591DE3C19B)	1.375	1.789	-0.104	-62.805	-102.051	79.285	-117.90	30.81	-54.61	-51.940	-73.696	23.128	0.33380	-0.74213	0.50607	0.28564	30.8	13111	100
2025-3-6 14:42:17.166	WT901BLE68-01(48591DE3C19B)	1.375	1.600	-0.182	-32.227	-61.401	29.236	-118.54	31.44	-54.18	-51.940	-73.696	23.128	0.33380	-0.74213	0.50607	0.28564	30.8	13111	100
2025-3-6 14:42:17.224	WT901BLE68-01(48591DE3C19B)	1.526	1.600	-0.182	-32.227	-61.401	29.236	-119.23	32.06	-53.83	-51.940	-73.696	23.128	0.33380	-0.74213	0.50607	0.28564	30.8	13111	100
2025-3-6 14:42:17.224	WT901BLE68-01(48591DE3C19B)	1.526	1.623	-0.002	-70.618	-51.147	86.304	-120.58	33.11	-54.00	-51.940	-73.696	23.128	0.33380	-0.74213	0.50607	0.28564	30.8	13111	100
2025-3-6 14:42:17.224	WT901BLE68-01(48591DE3C19B)	1.125	1.623	-0.002	-70.618	-51.147	86.304	-121.99	34.16	-54.28	-51.940	-73.696	23.128	0.33380	-0.74213	0.50607	0.28564	30.8	13111	100
2025-3-6 14:42:17.224	WT901BLE68-01(48591DE3C19B)	1.125	1.259	-0.123	-116.333	7.690	105.896	-124.32	35.04	-55.37	-51.940	-73.696	23.128	0.33380	-0.74213	0.50607	0.28564	30.8	13111	100
2025-3-6 14:42:17.253	WT901BLE68-01(48591DE3C19B)	0.875	1.259	-0.123	-116.333	7.690	105.896	-126.70	35.87	-56.56	-51.940	-73.696	23.128	0.33380	-0.74213	0.50607	0.28564	30.8	13111	100
2025-3-6 14:42:17.253	WT901BLE68-01(48591DE3C19B)	0.875	1.123	-0.213	-140.686	45.471	118.530	-129.66	36.51	-58.29	-51.940	-73.696	23.128	0.33380	-0.74213	0.50607	0.28564	30.8	13111	100
2025-3-6 14:42:17.253	WT901BLE68-01(48591DE3C19B)	0.659	1.123	-0.213	-140.686	45.471	118.530	-132.65	37.08	-60.10	-51.940	-73.696	23.128	0.33380	-0.74213	0.50607	0.28564	30.8	13111	100
2025-3-6 14:42:17.253	WT901BLE68-01(48591DE3C19B)	0.659	1.043	-0.389	-162.354	103.149	97.717	-136.10	36.99	-62.28	-51.940	-73.696	23.128	0.33380	-0.74213	0.50607	0.28564	30.8	13111	100
2025-3-6 14:42:17.284	WT901BLE68-01(48591DE3C19B)	-0.227	1.043	-0.389	-162.354	103.149	97.717	-139.52	36.78	-64.43	-51.940	-73.696	23.128	0.33380	-0.74213	0.50607	0.28564	30.8	13111	100
2025-3-6 14:42:17.284	WT901BLE68-01(48591DE3C19B)	-0.227	0.985	-1.381	-165.710	134.399	49.194	-142.76	35.90	-66.29	-51.940	-73.696	23.128	0.33380	-0.74213	0.50607	0.28564	30.8	13111	100
2025-3-6 14:42:17.284	WT901BLE68-01(48591DE3C19B)	-3.061	0.985	-1.381	-165.710	134.399	49.194	-145.89	34.91	-68.02	-51.940	-73.696	23.128	0.33380	-0.74213	0.50607	0.28564	30.8	13111	100
2025-3-6 14:42:17.284	WT901BLE68-01(48591DE3C19B)	-3.061	1.758	-3.284	-182.190	80.505	49.133	-148.85	34.35	-69.22	-51.940	-73.696	23.128	0.33380	-0.74213	0.50607	0.28564	30.8	13111	100
2025-3-6 14:42:17.344	WT901BLE68-01(48591DE3C19B)	-9.929	1.758	-3.284	-182.190	80.505	49.133	-151.72	33.78	-70.31	-51.940	-73.696	23.128	0.33380	-0.74213	0.50607	0.28564	30.8	13111	100
2025-3-6 14:42:17.344	WT901BLE68-01(48591DE3C19B)	-9.929	0.761	-3.044	-385.376	62.256	164.856	-157.13	33.90	-72.41	-51.940	-73.696	23.128	0.33380	-0.74213	0.50607	0.28564	30.8	13111	100
2025-3-6 14:42:17.344	WT901BLE68-01(48591DE3C19B)	-6.394	0.761	-3.044	-385.376	62.256	164.856	-162.48	33.94	-74.44	-51.940	-73.696	23.128	0.33380	-0.74213	0.50607	0.28564	30.8	13111	100
2025-3-6 14:42:17.344	WT901BLE68-01(48591DE3C19B)	-6.394	-0.925	-3.617	-465.088	-12.512	260.132	-169.07	34.78	-77.32	-51.940	-73.696	23.128	0.33380	-0.74213	0.50607	0.28564	30.8	13111	100
2025-3-6 14:42:17.404	WT901BLE68-01(48591DE3C19B)	-4.914	-0.925	-3.617	-465.088	-12.512	260.132	-175.69	35.34	-80.30	-51.940	-73.696	23.128	0.22290	-0.72040	0.62262	0.20877	30.8	13111	100
2025-3-6 14:42:17.404	WT901BLE68-01(48591DE3C19B)	-4.914	-2.347	-2.586	-321.655	110.596	282.471	178.98	34.43	-83.60	-51.940	-73.696	23.128	0.22290	-0.72040	0.62262	0.20877	30.8	13111	100
2025-3-6 14:42:17.404	WT901BLE68-01(48591DE3C19B)	-2.508	-2.347	-2.586	-321.655	110.596	282.471	173.85	33.29	-86.71	-51.940	-73.696	23.128	0.22290	-0.72040	0.62262	0.20877	30.8	13111	100
2025-3-6 14:42:17.404	WT901BLE68-01(48591DE3C19B)	-1.459	-1.643	-1.548	-219.238	157.593	252.136	170.17	31.54	-89.20	-51.940	-73.696	23.128	0.22290	-0.72040	0.62262	0.20877	30.8	13111	100
2025-3-6 14:42:17.405	WT901BLE68-01(48591DE3C19B)	-1.459	-0.783	-0.940	-252.808	105.835	192.871	166.67	29.99	-91.23	-51.940	-73.696	23.128	0.22290	-0.72040	0.62262	0.20877	30.8	13111	100
2025-3-6 14:42:17.405	WT901BLE68-01(48591DE3C19B)	-0.655	-0.783	-0.940	-252.808	105.835	192.871	163.26	28.66	-92.85	-51.940	-73.696	23.128	0.22290	-0.72040	0.62262	0.20877	30.8	13111	100
2025-3-6 14:42:17.406	WT901BLE68-01(48591DE3C19B)	-0.655	-1.567	-0.820	-334.229	-21.973	85.205	159.72	28.04	-94.00	-51.940	-73.696	23.128	0.22290	-0.72040	0.62262	0.20877	30.8	13111	100
2025-3-6 14:42:17.406	WT901BLE68-01(48591DE3C19B)	0.205	-1.567	-0.820	-334.229	-21.973	85.205	155.99	28.14	-94.80	-51.940	-73.696	23.128	0.22290	-0.72040	0.62262	0.20877	30.8	13111	100
2025-3-6 14:42:17.493	WT901BLE68-01(48591DE3C19B)	0.205	-2.313	-0.815	-278.748	-154.480	49.072	152.51	28.87	-95.75	-51.940	-73.696	23.128	0.22290	-0.72040	0.62262	0.20877	30.8	13111	100
2025-3-6 14:42:17.494	WT901BLE68-01(48591DE3C19B)	0.980	-2.313	-0.815	-278.748	-154.480	49.072	149.23	30.20	-96.92	-51.940	-73.696	23.128	0.22290	-0.72040	0.62262	0.20877	30.8	13111	100
2025-3-6 14:42:17.494	WT901BLE68-01(48591DE3C19B)	0.980	-2.141	-0.658	-136.963	-214.417	16.846	146.63	31.79	-98.21	-51.940	-73.696	23.128	0.22290	-0.72040	0.62262	0.20877	30.8	13111	100
2025-3-6 14:42:17.494	WT901BLE68-01(48591DE3C19B)	1.812	-2.141	-0.658	-136.963	-214.417	16.846	144.71	33.65	-99.62	-51.940	-73.696	23.128	0.22290	-0.72040	0.62262	0.20877	30.8	13111	100
2025-3-6 14:42:17.495	WT901BLE68-01(48591DE3C19B)	1.812	-1.795	-0.524	-43.335	-212.769	-63.171	143.44	35.67	-100.72	-51.940	-73.696	23.128	0.22290	-0.72040	0.62262	0.20877	30.8	13111	100
2025-3-6 14:42:17.495	WT901BLE68-01(48591DE3C19B)	1.883	-1.795	-0.524	-43.335	-212.769	-63.171	142.86	37.88	-101.44	-51.940	-73.696	23.128	0.22290	-0.72040	0.62262	0.20877	30.8	13111	100
2025-3-6 14:42:17.495	WT901BLE68-01(48591DE3C19B)	1.883	-2.016	-0.582	-42.725	-168.701	-73.669	142.44	39.89	-101.95	-51.940	-73.696	23.128	0.22290	-0.72040	0.62262	0.20877	30.8	13111	100
2025-3-6 14:42:17.495	WT901BLE68-01(48591DE3C19B)	1.177	-2.016	-0.582	-42.725	-168.701	-73.669	142.20	41.73	-102.22	-51.940	-73.696	23.128	0.22290	-0.72040	0.62262	0.20877	30.8	13111	100
2025-3-6 14:42:17.525	WT901BLE68-01(48591DE3C19B)	1.177	-2.478	-0.646	10.193	-113.953	-125.732	142.60	43.47	-101.95	-51.940	-73.696	23.128	0.22290	-0.72040	0.62262	0.20877	30.8	13111	100
2025-3-6 14:42:17.525	WT901BLE68-01(48591DE3C19B)	1.003	-2.478	-0.646	10.193	-113.953	-125.732	143.69	45.12	-101.08	-51.940	-73.696	23.128	0.22290	-0.72040	0.62262	0.20877	30.8	13111	100
2025-3-6 14:42:17.526	WT901BLE68-01(48591DE3C19B)	1.003	-2.000	-0.434	86.792	-128.540	-169.067	145.40	46.92	-99.92	-51.940	-73.696	23.128	0.22290	-0.72040	0.62262	0.20877	30.8	13111	100
2025-3-6 14:42:17.526	WT901BLE68-01(48591DE3C19B)	1.167	-2.000	-0.434	86.792	-128.540	-169.067	147.80	48.86	-98.38	-51.940	-73.696	23.128	0.22290	-0.72040	0.62262	0.20877	30.8	13111	100
2025-3-6 14:42:17.584	WT901BLE68-01(48591DE3C19B)	1.167	-1.458	-0.183	76.050	-91.064	-206.238	150.64	50.67	-96.23	-51.940	-73.696	23.128	0.22290	-0.72040	0.62262	0.20877	30.8	13111	100
2025-3-6 14:42:17.584	WT901BLE68-01(48591DE3C19B)	1.166	-1.458	-0.183	76.050	-91.064	-206.238	153.97	52.31	-93.43	-87.122	-47.726	18.228	0.22290	-0.72040	0.62262	0.20877	30.8	13111	100
2025-3-6 14:42:17.584	WT901BLE68-01(48591DE3C19B)	1.166	-1.351	0.022	48.401	2.380	-241.394	157.88	53.46	-89.77	-87.122	-47.726	18.228	0.22290	-0.72040	0.62262	0.20877	30.8	13111	100
2025-3-6 14:42:17.584	WT901BLE68-01(48591DE3C19B)	0.762	-1.351	0.022	48.401	2.380	-241.394	162.30	54.06	-85.35	-87.122	-47.726	18.228	0.22290	-0.72040	0.62262	0.20877	30.8	13111	100
2025-3-6 14:42:17.613	WT901BLE68-01(48591DE3C19B)	0.762	-1.462	0.208	27.649	73.242	-255.737	166.94	54.11	-80.55	-87.122	-47.726	18.228	0.22290	-0.72040	0.62262	0.20877	30.8	13111	100
2025-3-6 14:42:17.613	WT901BLE68-01(48591DE3C19B)	-0.168	-1.462	0.208	27.649	73.242	-255.737	171.60	53.59	-75.56	-87.122	-47.726	18.228	0.22290	-0.72040	0.62262	0.20877	30.8	13111	100
2025-3-6 14:42:17.613	WT901BLE68-01(48591DE3C19B)	-0.168	-1.627	0.229	16.663	76.843	-260.620	176.08	52.82	-70.70	-87.122	-47.726	18.228	0.22290	-0.72040	0.62262	0.20877	30.8	13111	100
2025-3-6 14:42:17.613	WT901BLE68-01(48591DE3C19B)	-2.260	-1.627	0.229	16.663	76.843	-260.620	-179.69	51.82	-66.03	-87.122	-47.726	18.228	0.22290	-0.72040	0.62262	0.20877	30.8	13111	100
2025-3-6 14:42:17.676	WT901BLE68-01(48591DE3C19B)	-2.260	-2.635	-0.095	70.374	32.898	-215.576	-175.70	50.87	-61.96	-87.122	-47.726	18.228	0.22290	-0.72040	0.62262	0.20877	30.8	13111	100
2025-3-6 14:42:17.676	WT901BLE68-01(48591DE3C19B)	-5.762	-2.635	-0.095	70.374	32.898	-215.576	-171.90	50.02	-58.46	-87.122	-47.726	18.228	0.22290	-0.72040	0.62262	0.20877	30.8	13111	100
2025-3-6 14:42:17.676	WT901BLE68-01(48591DE3C19B)	-5.762	-2.979	-1.034	232.117	60.242	-331.238	-166.85	48.82	-54.33	-87.122	-47.726	18.228	0.22290	-0.72040	0.62262	0.20877	30.8	13111	100
2025-3-6 14:42:17.676	WT901BLE68-01(48591DE3C19B)	-6.360	-2.979	-1.034	232.117	60.242	-331.238	-160.78	47.15	-49.80	-87.122	-47.726	18.228	0.22290	-0.72040	0.62262	0.20877	30.8	13111	100
2025-3-6 14:42:17.706	WT901BLE68-01(48591DE3C19B)	-6.360	-2.216	-1.407	274.658	203.552	-322.388	-155.28	44.63	-46.15	-87.122	-47.726	18.228	0.22290	-0.72040	0.62262	0.20877	30.8	13111	100
2025-3-6 14:42:17.706	WT901BLE68-01(48591DE3C19B)	-6.168	-2.216	-1.407	274.658	203.552	-322.388	-150.44	41.34	-43.49	-87.122	-47.726	18.228	0.22290	-0.72040	0.62262	0.20877	30.8	13111	100
2025-3-6 14:42:17.706	WT901BLE68-01(48591DE3C19B)	-6.168	-1.275	-2.080	338.013	346.191	-184.387	-146.55	37.74	-42.51	-87.122	-47.726	18.228	0.22290	-0.72040	0.62262	0.20877	30.8	13111	100
2025-3-6 14:42:17.706	WT901BLE68-01(48591DE3C19B)	-5.533	-1.275	-2.080	338.013	346.191	-184.387	-143.37	33.97	-43.01	-87.122	-47.726	18.228	0.22290	-0.72040	0.62262	0.20877	30.8	13111	100
2025-3-6 14:42:17.735	WT901BLE68-01(48591DE3C19B)	-5.533	0.156	-1.765	337.708	315.125	-69.397	-140.55	30.75	-44.10	-87.122	-47.726	18.228	0.22290	-0.72040	0.62262	0.20877	30.8	13111	100
2025-3-6 14:42:17.736	WT901BLE68-01(48591DE3C19B)	-3.664	0.156	-1.765	337.708	315.125	-69.397	-138.03	28.10	-45.69	-87.122	-47.726	18.228	0.22290	-0.72040	0.62262	0.20877	30.8	13111	100
2025-3-6 14:42:17.736	WT901BLE68-01(48591DE3C19B)	-3.664	0.583	-1.007	287.048	154.236	-9.583	-135.62	26.33	-46.96	-87.122	-47.726	18.228	0.22290	-0.72040	0.62262	0.20877	30.8	13111	100
2025-3-6 14:42:17.736	WT901BLE68-01(48591DE3C19B)	-1.854	0.583	-1.007	287.048	154.236	-9.583	-133.34	25.39	-47.89	-87.122	-47.726	18.228	0.22290	-0.72040	0.62262	0.20877	30.8	13111	100
2025-3-6 14:42:17.794	WT901BLE68-01(48591DE3C19B)	-1.854	0.614	-0.668	235.596	32.837	-13.550	-131.13	24.90	-48.33	-87.122	-47.726	18.228	0.22290	-0.72040	0.62262	0.20877	30.8	13111	100
2025-3-6 14:42:17.794	WT901BLE68-01(48591DE3C19B)	-0.534	0.614	-0.668	235.596	32.837	-13.550	-129.00	24.79	-48.27	-87.122	-47.726	18.228	0.46979	-0.76263	0.44452	0.00052	30.8	13111	100
2025-3-6 14:42:17.794	WT901BLE68-01(48591DE3C19B)	-0.534	0.811	-0.643	235.291	-15.381	-3.845	-126.83	24.87	-48.05	-87.122	-47.726	18.228	0.46979	-0.76263	0.44452	0.00052	30.8	13111	100
2025-3-6 14:42:17.794	WT901BLE68-01(48591DE3C19B)	0.425	0.811	-0.643	235.291	-15.381	-3.845	-124.60	25.13	-47.65	-87.122	-47.726	18.228	0.46979	-0.76263	0.44452	0.00052	30.8	13111	100
2025-3-6 14:42:17.824	WT901BLE68-01(48591DE3C19B)	0.425	1.091	-0.579	209.717	-43.823	-8.240	-122.45	25.44	-47.11	-87.122	-47.726	18.228	0.46979	-0.76263	0.44452	0.00052	30.8	13111	100
2025-3-6 14:42:17.824	WT901BLE68-01(48591DE3C19B)	0.505	1.091	-0.579	209.717	-43.823	-8.240	-120.39	25.78	-46.44	-87.122	-47.726	18.228	0.46979	-0.76263	0.44452	0.00052	30.8	13111	100
2025-3-6 14:42:17.824	WT901BLE68-01(48591DE3C19B)	0.505	1.161	-0.412	155.701	-32.776	-10.010	-118.64	26.07	-45.82	-87.122	-47.726	18.228	0.46979	-0.76263	0.44452	0.00052	30.8	13111	100
2025-3-6 14:42:17.825	WT901BLE68-01(48591DE3C19B)	0.563	1.161	-0.412	155.701	-32.776	-10.010	-117.21	26.31	-45.27	-87.122	-47.726	18.228	0.46979	-0.76263	0.44452	0.00052	30.8	13111	100
2025-3-6 14:42:17.853	WT901BLE68-01(48591DE3C19B)	0.563	1.360	-0.368	119.141	-90.149	46.936	-115.92	26.92	-44.59	-87.122	-47.726	18.228	0.46979	-0.76263	0.44452	0.00052	30.8	13111	100
2025-3-6 14:42:17.853	WT901BLE68-01(48591DE3C19B)	1.022	1.360	-0.368	119.141	-90.149	46.936	-114.76	27.90	-43.78	-87.122	-47.726	18.228	0.46979	-0.76263	0.44452	0.00052	30.8	13111	100
2025-3-6 14:42:17.853	WT901BLE68-01(48591DE3C19B)	1.022	1.628	-0.245	51.636	-106.445	79.712	-114.29	29.23	-42.97	-87.122	-47.726	18.228	0.46979	-0.76263	0.44452	0.00052	30.8	13111	100
2025-3-6 14:42:17.853	WT901BLE68-01(48591DE3C19B)	1.534	1.628	-0.245	51.636	-106.445	79.712	-113.85	30.54	-42.20	-87.122	-47.726	18.228	0.46979	-0.76263	0.44452	0.00052	30.8	13111	100
2025-3-6 14:42:17.913	WT901BLE68-01(48591DE3C19B)	1.534	1.698	-0.081	8.484	-70.190	-10.437	-113.87	30.89	-41.46	-87.122	-47.726	18.228	0.46979	-0.76263	0.44452	0.00052	30.8	13111	100
2025-3-6 14:42:17.914	WT901BLE68-01(48591DE3C19B)	1.127	1.698	-0.081	8.484	-70.190	-10.437	-113.95	31.23	-40.79	-87.122	-47.726	18.228	0.46979	-0.76263	0.44452	0.00052	30.8	13111	100
2025-3-6 14:42:17.914	WT901BLE68-01(48591DE3C19B)	1.127	1.340	-0.111	-15.076	-5.676	-2.991	-114.68	31.38	-40.91	-87.122	-47.726	18.228	0.46979	-0.76263	0.44452	0.00052	30.8	13111	100
2025-3-6 14:42:17.914	WT901BLE68-01(48591DE3C19B)	0.762	1.340	-0.111	-15.076	-5.676	-2.991	-115.44	31.53	-41.09	-87.122	-47.726	18.228	0.46979	-0.76263	0.44452	0.00052	30.8	13111	100
2025-3-6 14:42:17.945	WT901BLE68-01(48591DE3C19B)	0.762	1.515	-0.196	-32.227	28.564	58.228	-116.76	32.09	-41.98	-87.122	-47.726	18.228	0.46979	-0.76263	0.44452	0.00052	30.8	13111	100
2025-3-6 14:42:17.945	WT901BLE68-01(48591DE3C19B)	0.772	1.515	-0.196	-32.227	28.564	58.228	-118.10	32.63	-42.93	-87.122	-47.726	18.228	0.46979	-0.76263	0.44452	0.00052	30.8	13111	100
2025-3-6 14:42:17.946	WT901BLE68-01(48591DE3C19B)	0.772	1.700	-0.290	-76.965	68.420	81.787	-120.22	33.17	-44.47	-87.122	-47.726	18.228	0.46979	-0.76263	0.44452	0.00052	30.8	13111	100
2025-3-6 14:42:17.946	WT901BLE68-01(48591DE3C19B)	0.753	1.700	-0.290	-76.965	68.420	81.787	-122.37	33.66	-46.06	-87.122	-47.726	18.228	0.46979	-0.76263	0.44452	0.00052	30.8	13111	100
2025-3-6 14:42:18.4	WT901BLE68-01(48591DE3C19B)	0.753	1.574	-0.590	-117.371	151.733	75.378	-125.38	33.57	-48.47	-87.122	-47.726	18.228	0.46979	-0.76263	0.44452	0.00052	30.8	13111	100
2025-3-6 14:42:18.4	WT901BLE68-01(48591DE3C19B)	0.247	1.574	-0.590	-117.371	151.733	75.378	-128.38	33.36	-50.87	-87.122	-47.726	18.228	0.46979	-0.76263	0.44452	0.00052	30.8	13111	100
2025-3-6 14:42:18.4	WT901BLE68-01(48591DE3C19B)	0.247	1.531	-1.009	-129.272	220.947	53.772	-131.70	32.41	-53.68	-68.502	-61.936	21.854	0.46979	-0.76263	0.44452	0.00052	30.8	13111	100
2025-3-6 14:42:18.4	WT901BLE68-01(48591DE3C19B)	-2.181	1.531	-1.009	-129.272	220.947	53.772	-134.91	31.31	-56.37	-68.502	-61.936	21.854	0.46979	-0.76263	0.44452	0.00052	30.8	13111	100
2025-3-6 14:42:18.33	WT901BLE68-01(48591DE3C19B)	-2.181	2.120	-3.461	-190.735	109.070	-25.696	-137.78	30.32	-57.30	-68.502	-61.936	21.854	0.46979	-0.76263	0.44452	0.00052	30.8	13111	100
2025-3-6 14:42:18.34	WT901BLE68-01(48591DE3C19B)	-12.430	2.120	-3.461	-190.735	109.070	-25.696	-140.55	29.31	-58.11	-68.502	-61.936	21.854	0.46979	-0.76263	0.44452	0.00052	30.8	13111	100
2025-3-6 14:42:18.34	WT901BLE68-01(48591DE3C19B)	-12.430	0.911	-2.422	-388.550	19.104	215.088	-145.95	30.50	-60.29	-68.502	-61.936	21.854	0.46979	-0.76263	0.44452	0.00052	30.8	13111	100
2025-3-6 14:42:18.34	WT901BLE68-01(48591DE3C19B)	-5.946	0.911	-2.422	-388.550	19.104	215.088	-151.37	31.57	-62.52	-68.502	-61.936	21.854	0.46979	-0.76263	0.44452	0.00052	30.8	13111	100
2025-3-6 14:42:18.64	WT901BLE68-01(48591DE3C19B)	-5.946	-1.150	-3.598	-523.315	-170.654	337.097	-158.41	34.67	-65.23	-68.502	-61.936	21.854	0.46979	-0.76263	0.44452	0.00052	30.8	13111	100
2025-3-6 14:42:18.64	WT901BLE68-01(48591DE3C19B)	-5.376	-1.150	-3.598	-523.315	-170.654	337.097	-165.82	37.44	-68.46	-68.502	-61.936	21.854	0.46979	-0.76263	0.44452	0.00052	30.8	13111	100
2025-3-6 14:42:18.64	WT901BLE68-01(48591DE3C19B)	-5.376	-2.473	-2.933	-313.843	121.521	395.325	-172.25	37.11	-73.51	-68.502	-61.936	21.854	0.46979	-0.76263	0.44452	0.00052	30.8	13111	100
2025-3-6 14:42:18.64	WT901BLE68-01(48591DE3C19B)	-3.702	-2.473	-2.933	-313.843	121.521	395.325	-178.50	36.35	-78.40	-68.502	-61.936	21.854	0.46979	-0.76263	0.44452	0.00052	30.8	13111	100
2025-3-6 14:42:18.93	WT901BLE68-01(48591DE3C19B)	-3.702	-1.927	-1.812	-287.048	170.349	317.322	176.33	34.73	-82.09	-68.502	-61.936	21.854	0.46979	-0.76263	0.44452	0.00052	30.8	13111	100
2025-3-6 14:42:18.93	WT901BLE68-01(48591DE3C19B)	-1.722	-1.927	-1.812	-287.048	170.349	317.322	171.45	32.87	-85.49	-68.502	-61.936	21.854	0.46979	-0.76263	0.44452	0.00052	30.8	13111	100
2025-3-6 14:42:18.93	WT901BLE68-01(48591DE3C19B)	-1.722	-1.768	-1.070	-333.191	128.662	243.469	166.78	31.34	-87.84	-68.502	-61.936	21.854	0.46979	-0.76263	0.44452	0.00052	30.8	13111	100
2025-3-6 14:42:18.93	WT901BLE68-01(48591DE3C19B)	-0.603	-1.768	-1.070	-333.191	128.662	243.469	162.32	29.66	-89.99	-68.502	-61.936	21.854	0.46979	-0.76263	0.44452	0.00052	30.8	13111	100
2025-3-6 14:42:18.154	WT901BLE68-01(48591DE3C19B)	-0.603	-2.207	-1.026	-347.351	20.386	121.704	158.33	29.28	-91.05	-68.502	-61.936	21.854	0.46979	-0.76263	0.44452	0.00052	30.8	13111	100
2025-3-6 14:42:18.154	WT901BLE68-01(48591DE3C19B)	0.317	-2.207	-1.026	-347.351	20.386	121.704	154.41	28.84	-92.06	-68.502	-61.936	21.854	0.46979	-0.76263	0.44452	0.00052	30.8	13111	100
2025-3-6 14:42:18.154	WT901BLE68-01(48591DE3C19B)	0.317	-2.736	-0.809	-265.686	-120.483	44.189	151.41	29.94	-92.97	-68.502	-61.936	21.854	0.46979	-0.76263	0.44452	0.00052	30.8	13111	100
2025-3-6 14:42:18.154	WT901BLE68-01(48591DE3C19B)	1.283	-2.736	-0.809	-265.686	-120.483	44.189	148.43	30.98	-93.95	-68.502	-61.936	21.854	0.46979	-0.76263	0.44452	0.00052	30.8	13111	100
2025-3-6 14:42:18.183	WT901BLE68-01(48591DE3C19B)	1.283	-2.797	-0.643	-119.812	-230.347	-26.245	146.90	33.26	-94.97	-68.502	-61.936	21.854	0.02225	-0.67813	0.61862	0.39603	30.8	13111	100
2025-3-6 14:42:18.183	WT901BLE68-01(48591DE3C19B)	1.848	-2.797	-0.643	-119.812	-230.347	-26.245	145.36	35.49	-96.06	-68.502	-61.936	21.854	0.02225	-0.67813	0.61862	0.39603	30.8	13111	100
2025-3-6 14:42:18.183	WT901BLE68-01(48591DE3C19B)	1.848	-2.038	-0.521	-12.756	-271.240	-32.715	144.72	38.03	-97.44	-68.502	-61.936	21.854	0.02225	-0.67813	0.61862	0.39603	30.8	13111	100
2025-3-6 14:42:18.183	WT901BLE68-01(48591DE3C19B)	1.826	-2.038	-0.521	-12.756	-271.240	-32.715	144.02	40.52	-98.87	-68.502	-61.936	21.854	0.02225	-0.67813	0.61862	0.39603	30.8	13111	100
2025-3-6 14:42:18.213	WT901BLE68-01(48591DE3C19B)	1.826	-1.649	-0.642	-9.338	-195.007	-92.102	144.14	42.70	-99.09	-68.502	-61.936	21.854	0.02225	-0.67813	0.61862	0.39603	30.8	13111	100
2025-3-6 14:42:18.213	WT901BLE68-01(48591DE3C19B)	1.324	-1.649	-0.642	-9.338	-195.007	-92.102	144.29	44.85	-99.26	-68.502	-61.936	21.854	0.02225	-0.67813	0.61862	0.39603	30.8	13111	100
2025-3-6 14:42:18.213	WT901BLE68-01(48591DE3C19B)	1.324	-1.933	-0.708	11.658	-91.309	-130.493	145.63	46.35	-98.07	-68.502	-61.936	21.854	0.02225	-0.67813	0.61862	0.39603	30.8	13111	100
2025-3-6 14:42:18.213	WT901BLE68-01(48591DE3C19B)	0.742	-1.933	-0.708	11.658	-91.309	-130.493	147.08	47.80	-96.77	-68.502	-61.936	21.854	0.02225	-0.67813	0.61862	0.39603	30.8	13111	100
2025-3-6 14:42:18.273	WT901BLE68-01(48591DE3C19B)	0.742	-1.685	-0.437	71.716	-76.111	-154.358	149.56	49.20	-94.91	-68.502	-61.936	21.854	0.02225	-0.67813	0.61862	0.39603	30.8	13111	100
2025-3-6 14:42:18.273	WT901BLE68-01(48591DE3C19B)	0.378	-1.685	-0.437	71.716	-76.111	-154.358	152.19	50.53	-92.89	-68.502	-61.936	21.854	0.02225	-0.67813	0.61862	0.39603	30.8	13111	100
2025-3-6 14:42:18.274	WT901BLE68-01(48591DE3C19B)	0.378	-1.164	-0.277	87.708	-105.408	-159.851	155.04	52.07	-90.83	-68.502	-61.936	21.854	0.02225	-0.67813	0.61862	0.39603	30.8	13111	100
2025-3-6 14:42:18.274	WT901BLE68-01(48591DE3C19B)	0.300	-1.164	-0.277	87.708	-105.408	-159.851	158.08	53.54	-88.57	-68.502	-61.936	21.854	0.02225	-0.67813	0.61862	0.39603	30.8	13111	100
2025-3-6 14:42:18.303	WT901BLE68-01(48591DE3C19B)	0.300	-0.938	-0.260	59.021	-102.966	-188.965	161.42	55.00	-85.60	-68.502	-61.936	21.854	0.02225	-0.67813	0.61862	0.39603	30.8	13111	100
2025-3-6 14:42:18.303	WT901BLE68-01(48591DE3C19B)	0.588	-0.938	-0.260	59.021	-102.966	-188.965	165.02	56.34	-82.37	-68.502	-61.936	21.854	0.02225	-0.67813	0.61862	0.39603	30.8	13111	100
2025-3-6 14:42:18.303	WT901BLE68-01(48591DE3C19B)	0.804	-1.160	-0.082	20.325	-48.035	-215.942	169.05	57.08	-78.19	-68.502	-61.936	21.854	0.02225	-0.67813	0.61862	0.39603	30.8	13111	100
2025-3-6 14:42:18.303	WT901BLE68-01(48591DE3C19B)	0.804	-1.493	0.147	7.019	61.279	-208.496	173.22	57.09	-73.80	-68.502	-61.936	21.854	0.02225	-0.67813	0.61862	0.39603	30.8	13111	100
2025-3-6 14:42:18.336	WT901BLE68-01(48591DE3C19B)	0.096	-1.493	0.147	7.019	61.279	-208.496	177.27	56.37	-69.43	-68.502	-61.936	21.854	0.02225	-0.67813	0.61862	0.39603	30.8	13111	100
2025-3-6 14:42:18.336	WT901BLE68-01(48591DE3C19B)	0.096	-2.016	0.207	28.809	184.448	-217.285	-178.72	54.87	-65.22	-68.502	-61.936	21.854	0.02225	-0.67813	0.61862	0.39603	30.8	13111	100
2025-3-6 14:42:18.336	WT901BLE68-01(48591DE3C19B)	-1.761	-2.016	0.207	28.809	184.448	-217.285	-174.98	52.60	-61.38	-68.502	-61.936	21.854	0.02225	-0.67813	0.61862	0.39603	30.8	13111	100
2025-3-6 14:42:18.336	WT901BLE68-01(48591DE3C19B)	-1.761	-2.640	-0.409	109.985	146.118	-230.774	-171.18	50.39	-57.85	-68.502	-61.936	21.854	0.02225	-0.67813	0.61862	0.39603	30.8	13111	100
2025-3-6 14:42:18.394	WT901BLE68-01(48591DE3C19B)	-6.157	-2.640	-0.409	109.985	146.118	-230.774	-167.26	48.26	-54.61	-68.502	-61.936	21.854	0.02225	-0.67813	0.61862	0.39603	30.8	13111	100
2025-3-6 14:42:18.394	WT901BLE68-01(48591DE3C19B)	-6.157	-3.573	-1.384	204.651	76.294	-345.947	-162.54	46.21	-50.81	-72.422	-54.880	24.892	0.02225	-0.67813	0.61862	0.39603	30.8	13111	100
2025-3-6 14:42:18.394	WT901BLE68-01(48591DE3C19B)	-6.125	-3.573	-1.384	204.651	76.294	-345.947	-157.12	44.18	-46.52	-72.422	-54.880	24.892	0.02225	-0.67813	0.61862	0.39603	30.8	13111	100
2025-3-6 14:42:18.394	WT901BLE68-01(48591DE3C19B)	-6.125	-3.151	-0.639	251.465	144.104	-378.174	-151.92	41.57	-42.66	-72.422	-54.880	24.892	0.02225	-0.67813	0.61862	0.39603	30.8	13111	100
2025-3-6 14:42:18.454	WT901BLE68-01(48591DE3C19B)	-6.181	-3.151	-0.639	251.465	144.104	-378.174	-147.03	38.42	-39.32	-72.422	-54.880	24.892	0.02225	-0.67813	0.61862	0.39603	30.8	13111	100
2025-3-6 14:42:18.454	WT901BLE68-01(48591DE3C19B)	-6.181	-1.674	-1.347	249.939	348.083	-210.510	-143.53	34.80	-38.01	-72.422	-54.880	24.892	0.02225	-0.67813	0.61862	0.39603	30.8	13111	100
2025-3-6 14:42:18.454	WT901BLE68-01(48591DE3C19B)	-4.954	-1.674	-1.347	249.939	348.083	-210.510	-141.16	30.88	-38.47	-72.422	-54.880	24.892	0.02225	-0.67813	0.61862	0.39603	30.8	13111	100
2025-3-6 14:42:18.454	WT901BLE68-01(48591DE3C19B)	-4.954	-0.715	-1.183	250.916	369.141	-69.763	-139.21	27.41	-39.75	-72.422	-54.880	24.892	0.02225	-0.67813	0.61862	0.39603	30.8	13111	100
2025-3-6 14:42:18.455	WT901BLE68-01(48591DE3C19B)	-3.397	-0.715	-1.183	250.916	369.141	-69.763	-137.57	24.40	-41.75	-72.422	-54.880	24.892	0.02225	-0.67813	0.61862	0.39603	30.8	13111	100
2025-3-6 14:42:18.455	WT901BLE68-01(48591DE3C19B)	-3.397	-0.052	-0.592	280.701	247.437	-11.597	-135.66	22.10	-43.56	-72.422	-54.880	24.892	0.02225	-0.67813	0.61862	0.39603	30.8	13111	100
2025-3-6 14:42:18.455	WT901BLE68-01(48591DE3C19B)	-2.187	-0.052	-0.592	280.701	247.437	-11.597	-133.53	20.53	-45.18	-72.422	-54.880	24.892	0.02225	-0.67813	0.61862	0.39603	30.8	13111	100
2025-3-6 14:42:18.456	WT901BLE68-01(48591DE3C19B)	-2.187	0.631	-0.560	333.374	89.661	4.456	-130.95	19.62	-46.26	-72.422	-54.880	24.892	0.02225	-0.67813	0.61862	0.39603	30.8	13111	100
2025-3-6 14:42:18.546	WT901BLE68-01(48591DE3C19B)	-1.009	0.631	-0.560	333.374	89.661	4.456	-127.96	19.34	-46.80	-72.422	-54.880	24.892	0.02225	-0.67813	0.61862	0.39603	30.8	13111	100
2025-3-6 14:42:18.546	WT901BLE68-01(48591DE3C19B)	-1.009	1.487	-0.849	313.110	-12.329	71.655	-125.04	19.66	-47.13	-72.422	-54.880	24.892	0.02225	-0.67813	0.61862	0.39603	30.8	13111	100
2025-3-6 14:42:18.546	WT901BLE68-01(48591DE3C19B)	-0.015	1.487	-0.849	313.110	-12.329	71.655	-122.17	20.57	-47.20	-72.422	-54.880	24.892	0.02225	-0.67813	0.61862	0.39603	30.8	13111	100
2025-3-6 14:42:18.546	WT901BLE68-01(48591DE3C19B)	-0.015	1.642	-1.175	162.537	-65.735	41.626	-119.97	21.48	-46.92	-72.422	-54.880	24.892	0.02225	-0.67813	0.61862	0.39603	30.8	13111	100
2025-3-6 14:42:18.547	WT901BLE68-01(48591DE3C19B)	0.535	1.642	-1.175	162.537	-65.735	41.626	-118.42	22.38	-46.32	-72.422	-54.880	24.892	0.02225	-0.67813	0.61862	0.39603	30.8	13111	100
2025-3-6 14:42:18.547	WT901BLE68-01(48591DE3C19B)	0.535	1.696	-1.173	104.126	-31.616	31.799	-117.23	23.15	-45.85	-72.422	-54.880	24.892	0.02225	-0.67813	0.61862	0.39603	30.8	13111	100
2025-3-6 14:42:18.547	WT901BLE68-01(48591DE3C19B)	1.128	1.696	-1.173	104.126	-31.616	31.799	-116.42	23.77	-45.54	-72.422	-54.880	24.892	0.02225	-0.67813	0.61862	0.39603	30.8	13111	100
2025-3-6 14:42:18.547	WT901BLE68-01(48591DE3C19B)	1.128	2.210	-0.978	0.854	-37.598	112.366	-116.22	24.76	-45.43	-72.422	-54.880	24.892	0.02225	-0.67813	0.61862	0.39603	30.8	13111	100
2025-3-6 14:42:18.575	WT901BLE68-01(48591DE3C19B)	1.679	2.210	-0.978	0.854	-37.598	112.366	-116.67	26.11	-45.54	-72.422	-54.880	24.892	0.02225	-0.67813	0.61862	0.39603	30.8	13111	100
2025-3-6 14:42:18.575	WT901BLE68-01(48591DE3C19B)	1.679	2.010	-0.514	-108.398	5.554	79.285	-117.78	27.20	-45.86	-72.422	-54.880	24.892	0.02225	-0.67813	0.61862	0.39603	30.8	13111	100
2025-3-6 14:42:18.575	WT901BLE68-01(48591DE3C19B)	1.429	2.010	-0.514	-108.398	5.554	79.285	-119.57	28.00	-46.40	-72.422	-54.880	24.892	0.53113	-0.72266	0.44223	-0.00015	30.8	13111	100
2025-3-6 14:42:18.576	WT901BLE68-01(48591DE3C19B)	1.429	1.399	-0.151	-125.427	85.938	104.248	-121.73	28.68	-47.49	-72.422	-54.880	24.892	0.53113	-0.72266	0.44223	-0.00015	30.8	13111	100
2025-3-6 14:42:18.634	WT901BLE68-01(48591DE3C19B)	0.894	1.399	-0.151	-125.427	85.938	104.248	-124.26	29.19	-49.14	-72.422	-54.880	24.892	0.53113	-0.72266	0.44223	-0.00015	30.8	13111	100
2025-3-6 14:42:18.634	WT901BLE68-01(48591DE3C19B)	0.894	1.315	-0.043	-122.742	116.089	131.226	-126.95	29.64	-51.08	-72.422	-54.880	24.892	0.53113	-0.72266	0.44223	-0.00015	30.8	13111	100
2025-3-6 14:42:18.634	WT901BLE68-01(48591DE3C19B)	0.772	1.315	-0.043	-122.742	116.089	131.226	-129.78	30.02	-53.32	-72.422	-54.880	24.892	0.53113	-0.72266	0.44223	-0.00015	30.8	13111	100
2025-3-6 14:42:18.634	WT901BLE68-01(48591DE3C19B)	0.772	1.264	0.026	-165.100	90.881	135.010	-132.81	30.39	-55.51	-72.422	-54.880	24.892	0.53113	-0.72266	0.44223	-0.00015	30.8	13111	100
2025-3-6 14:42:18.693	WT901BLE68-01(48591DE3C19B)	0.625	1.264	0.026	-165.100	90.881	135.010	-136.04	30.77	-57.67	-72.422	-54.880	24.892	0.53113	-0.72266	0.44223	-0.00015	30.8	13111	100
2025-3-6 14:42:18.693	WT901BLE68-01(48591DE3C19B)	0.625	0.985	-0.154	-214.355	78.674	106.995	-139.46	30.99	-59.71	-72.422	-54.880	24.892	0.53113	-0.72266	0.44223	-0.00015	30.8	13111	100
2025-3-6 14:42:18.694	WT901BLE68-01(48591DE3C19B)	0.262	0.985	-0.154	-214.355	78.674	106.995	-143.05	31.05	-61.59	-72.422	-54.880	24.892	0.53113	-0.72266	0.44223	-0.00015	30.8	13111	100
2025-3-6 14:42:18.694	WT901BLE68-01(48591DE3C19B)	0.262	0.727	-0.381	-213.013	58.533	69.336	-146.50	31.00	-63.24	-72.422	-54.880	24.892	0.53113	-0.72266	0.44223	-0.00015	30.8	13111	100
2025-3-6 14:42:18.695	WT901BLE68-01(48591DE3C19B)	-0.999	0.727	-0.381	-213.013	58.533	69.336	-149.80	30.83	-64.62	-72.422	-54.880	24.892	0.53113	-0.72266	0.44223	-0.00015	30.8	13111	100
2025-3-6 14:42:18.695	WT901BLE68-01(48591DE3C19B)	-0.999	1.325	-1.385	-126.038	-20.508	45.471	-152.46	30.89	-65.63	-72.422	-54.880	24.892	0.53113	-0.72266	0.44223	-0.00015	30.8	13111	100
2025-3-6 14:42:18.695	WT901BLE68-01(48591DE3C19B)	-6.988	1.325	-1.385	-126.038	-20.508	45.471	-154.47	31.22	-66.26	-72.422	-54.880	24.892	0.53113	-0.72266	0.44223	-0.00015	30.8	13111	100
2025-3-6 14:42:18.695	WT901BLE68-01(48591DE3C19B)	-6.988	1.830	-1.694	-346.985	-11.536	19.470	-157.49	31.47	-66.73	-72.422	-54.880	24.892	0.53113	-0.72266	0.44223	-0.00015	30.8	13111	100
2025-3-6 14:42:18.754	WT901BLE68-01(48591DE3C19B)	-7.913	1.830	-1.694	-346.985	-11.536	19.470	-161.47	31.71	-66.97	-72.422	-54.880	24.892	0.53113	-0.72266	0.44223	-0.00015	30.8	13111	100
2025-3-6 14:42:18.754	WT901BLE68-01(48591DE3C19B)	-7.913	-0.136	-2.873	-434.875	-86.060	222.534	-166.38	32.60	-68.21	-72.422	-54.880	24.892	0.53113	-0.72266	0.44223	-0.00015	30.8	13111	100
2025-3-6 14:42:18.754	WT901BLE68-01(48591DE3C19B)	-5.436	-0.136	-2.873	-434.875	-86.060	222.534	-172.32	33.99	-70.60	-72.422	-54.880	24.892	0.53113	-0.72266	0.44223	-0.00015	30.8	13111	100
2025-3-6 14:42:18.754	WT901BLE68-01(48591DE3C19B)	-5.436	-1.917	-3.098	-369.507	28.076	247.803	-178.10	34.61	-73.32	-72.422	-54.880	24.892	0.53113	-0.72266	0.44223	-0.00015	30.8	13111	100
2025-3-6 14:42:18.783	WT901BLE68-01(48591DE3C19B)	-4.251	-1.917	-3.098	-369.507	28.076	247.803	176.37	34.44	-76.22	-72.422	-54.880	24.892	0.53113	-0.72266	0.44223	-0.00015	30.8	13111	100
2025-3-6 14:42:18.783	WT901BLE68-01(48591DE3C19B)	-4.251	-2.170	-1.860	-178.406	76.050	226.135	173.04	33.65	-78.73	-72.422	-54.880	24.892	0.53113	-0.72266	0.44223	-0.00015	30.8	13111	100
2025-3-6 14:42:18.783	WT901BLE68-01(48591DE3C19B)	-2.618	-2.170	-1.860	-178.406	76.050	226.135	169.84	32.74	-81.13	-72.422	-54.880	24.892	0.53113	-0.72266	0.44223	-0.00015	30.8	13111	100
2025-3-6 14:42:18.783	WT901BLE68-01(48591DE3C19B)	-2.618	-1.173	-0.965	-143.127	16.785	241.272	166.92	32.29	-83.75	-74.284	-52.626	27.146	0.53113	-0.72266	0.44223	-0.00015	30.8	13111	100
2025-3-6 14:42:18.844	WT901BLE68-01(48591DE3C19B)	-1.098	-1.173	-0.965	-143.127	16.785	241.272	164.06	31.73	-86.30	-74.284	-52.626	27.146	0.53113	-0.72266	0.44223	-0.00015	30.8	13111	100
2025-3-6 14:42:18.844	WT901BLE68-01(48591DE3C19B)	-1.098	-1.226	-0.944	-224.365	-47.607	143.555	160.92	31.98	-87.92	-74.284	-52.626	27.146	0.53113	-0.72266	0.44223	-0.00015	30.8	13111	100
2025-3-6 14:42:18.844	WT901BLE68-01(48591DE3C19B)	-0.036	-1.226	-0.944	-224.365	-47.607	143.555	157.80	32.14	-89.54	-74.284	-52.626	27.146	0.53113	-0.72266	0.44223	-0.00015	30.8	13111	100
2025-3-6 14:42:18.844	WT901BLE68-01(48591DE3C19B)	-0.036	-1.404	-1.023	-198.120	-107.117	57.800	155.31	33.10	-90.51	-74.284	-52.626	27.146	0.53113	-0.72266	0.44223	-0.00015	30.8	13111	100
2025-3-6 14:42:18.904	WT901BLE68-01(48591DE3C19B)	0.812	-1.404	-1.023	-198.120	-107.117	57.800	152.81	34.02	-91.53	-74.284	-52.626	27.146	0.53113	-0.72266	0.44223	-0.00015	30.8	13111	100
2025-3-6 14:42:18.904	WT901BLE68-01(48591DE3C19B)	0.812	-1.738	-0.916	-183.594	-183.350	9.277	150.51	35.79	-92.50	-74.284	-52.626	27.146	0.53113	-0.72266	0.44223	-0.00015	30.8	13111	100
2025-3-6 14:42:18.904	WT901BLE68-01(48591DE3C19B)	1.657	-1.738	-0.916	-183.594	-183.350	9.277	148.18	37.50	-93.58	-74.284	-52.626	27.146	0.53113	-0.72266	0.44223	-0.00015	30.8	13111	100
2025-3-6 14:42:18.904	WT901BLE68-01(48591DE3C19B)	1.657	-1.898	-0.789	-87.036	-218.811	-37.415	146.95	39.69	-94.46	-74.284	-52.626	27.146	0.53113	-0.72266	0.44223	-0.00015	30.8	13111	100
2025-3-6 14:42:18.905	WT901BLE68-01(48591DE3C19B)	2.355	-1.898	-0.789	-87.036	-218.811	-37.415	145.70	41.83	-95.40	-74.284	-52.626	27.146	0.53113	-0.72266	0.44223	-0.00015	30.8	13111	100
2025-3-6 14:42:18.905	WT901BLE68-01(48591DE3C19B)	2.355	-1.402	-0.453	-25.208	-180.237	-4.578	145.03	43.41	-96.44	-74.284	-52.626	27.146	0.53113	-0.72266	0.44223	-0.00015	30.8	13111	100
2025-3-6 14:42:18.905	WT901BLE68-01(48591DE3C19B)	1.640	-1.402	-0.453	-25.208	-180.237	-4.578	144.35	44.93	-97.48	-74.284	-52.626	27.146	0.53113	-0.72266	0.44223	-0.00015	30.8	13111	100
2025-3-6 14:42:18.905	WT901BLE68-01(48591DE3C19B)	1.640	-1.147	-0.283	-53.467	-72.571	-54.871	144.46	45.84	-97.04	-74.284	-52.626	27.146	0.53113	-0.72266	0.44223	-0.00015	30.8	13111	100
2025-3-6 14:42:18.964	WT901BLE68-01(48591DE3C19B)	0.962	-1.147	-0.283	-53.467	-72.571	-54.871	144.63	46.71	-96.55	-74.284	-52.626	27.146	0.53113	-0.72266	0.44223	-0.00015	30.8	13111	100
2025-3-6 14:42:18.964	WT901BLE68-01(48591DE3C19B)	0.962	-1.537	-0.590	-37.781	-44.739	-130.981	145.85	47.77	-94.86	-74.284	-52.626	27.146	0.53113	-0.72266	0.44223	-0.00015	30.8	13111	100
2025-3-6 14:42:18.964	WT901BLE68-01(48591DE3C19B)	0.561	-1.537	-0.590	-37.781	-44.739	-130.981	147.16	48.77	-93.08	-74.284	-52.626	27.146	0.53113	-0.72266	0.44223	-0.00015	30.8	13111	100
2025-3-6 14:42:18.965	WT901BLE68-01(48591DE3C19B)	0.561	-1.665	-0.443	39.673	-67.627	-177.246	149.67	50.17	-90.79	-74.284	-52.626	27.146	0.53113	-0.72266	0.44223	-0.00015	30.8	13111	100
2025-3-6 14:42:18.994	WT901BLE68-01(48591DE3C19B)	0.371	-1.665	-0.443	39.673	-67.627	-177.246	152.34	51.49	-88.31	-74.284	-52.626	27.146	0.53113	-0.72266	0.44223	-0.00015	30.8	13111	100
2025-3-6 14:42:18.994	WT901BLE68-01(48591DE3C19B)	0.371	-1.304	-0.237	80.078	-111.694	-191.467	155.52	53.17	-85.76	-74.284	-52.626	27.146	0.15872	-0.70493	0.52512	0.44946	30.8	13111	100
2025-3-6 14:42:18.994	WT901BLE68-01(48591DE3C19B)	0.565	-1.304	-0.237	80.078	-111.694	-191.467	158.96	54.76	-82.93	-74.284	-52.626	27.146	0.15872	-0.70493	0.52512	0.44946	30.8	13111	100
2025-3-6 14:42:18.994	WT901BLE68-01(48591DE3C19B)	0.565	-1.068	-0.055	58.655	-122.925	-207.336	162.63	56.39	-79.62	-74.284	-52.626	27.146	0.15872	-0.70493	0.52512	0.44946	30.8	13111	100
2025-3-6 14:42:19.23	WT901BLE68-01(48591DE3C19B)	0.969	-1.068	-0.055	58.655	-122.925	-207.336	166.63	57.88	-75.96	-74.284	-52.626	27.146	0.15872	-0.70493	0.52512	0.44946	30.8	13111	100
2025-3-6 14:42:19.23	WT901BLE68-01(48591DE3C19B)	0.969	-1.185	0.130	28.870	-40.955	-219.055	171.07	58.42	-71.47	-74.284	-52.626	27.146	0.15872	-0.70493	0.52512	0.44946	30.8	13111	100
2025-3-6 14:42:19.23	WT901BLE68-01(48591DE3C19B)	1.173	-1.185	0.130	28.870	-40.955	-219.055	175.64	58.76	-66.85	-74.284	-52.626	27.146	0.15872	-0.70493	0.52512	0.44946	30.8	13111	100
2025-3-6 14:42:19.23	WT901BLE68-01(48591DE3C19B)	1.173	-1.233	0.333	45.959	131.836	-229.004	-179.43	57.17	-61.97	-74.284	-52.626	27.146	0.15872	-0.70493	0.52512	0.44946	30.8	13111	100
2025-3-6 14:42:19.53	WT901BLE68-01(48591DE3C19B)	0.747	-1.233	0.333	45.959	131.836	-229.004	-174.97	55.35	-57.56	-74.284	-52.626	27.146	0.15872	-0.70493	0.52512	0.44946	30.8	13111	100
2025-3-6 14:42:19.53	WT901BLE68-01(48591DE3C19B)	0.747	-1.376	0.062	49.683	312.012	-245.911	-171.11	51.56	-53.78	-74.284	-52.626	27.146	0.15872	-0.70493	0.52512	0.44946	30.8	13111	100
2025-3-6 14:42:19.53	WT901BLE68-01(48591DE3C19B)	-0.979	-1.376	0.062	49.683	312.012	-245.911	-167.93	47.66	-50.69	-74.284	-52.626	27.146	0.15872	-0.70493	0.52512	0.44946	30.8	13111	100
2025-3-6 14:42:19.54	WT901BLE68-01(48591DE3C19B)	-0.979	-2.417	-1.498	66.040	309.631	-120.850	-166.33	44.01	-49.82	-74.284	-52.626	27.146	0.15872	-0.70493	0.52512	0.44946	30.8	13111	100
2025-3-6 14:42:19.145	WT901BLE68-01(48591DE3C19B)	-8.141	-2.417	-1.498	66.040	309.631	-120.850	-164.91	40.40	-49.17	-74.284	-52.626	27.146	0.15872	-0.70493	0.52512	0.44946	30.8	13111	100
2025-3-6 14:42:19.145	WT901BLE68-01(48591DE3C19B)	-8.141	-4.135	-2.330	377.930	303.223	-139.893	-160.44	36.92	-48.57	-74.284	-52.626	27.146	0.15872	-0.70493	0.52512	0.44946	30.8	13111	100
2025-3-6 14:42:19.146	WT901BLE68-01(48591DE3C19B)	-6.778	-4.135	-2.330	377.930	303.223	-139.893	-156.26	33.55	-48.30	-74.284	-52.626	27.146	0.15872	-0.70493	0.52512	0.44946	30.8	13111	100
2025-3-6 14:42:19.146	WT901BLE68-01(48591DE3C19B)	-6.778	-1.591	-1.759	359.192	218.567	-335.388	-151.19	30.17	-45.85	-74.284	-52.626	27.146	0.15872	-0.70493	0.52512	0.44946	30.8	13111	100
2025-3-6 14:42:19.146	WT901BLE68-01(48591DE3C19B)	-6.330	-1.591	-1.759	359.192	218.567	-335.388	-146.51	26.69	-43.80	-74.284	-52.626	27.146	0.15872	-0.70493	0.52512	0.44946	30.8	13111	100
2025-3-6 14:42:19.146	WT901BLE68-01(48591DE3C19B)	-6.330	-0.571	-2.424	280.457	342.834	-170.837	-143.88	23.08	-44.31	-74.284	-52.626	27.146	0.15872	-0.70493	0.52512	0.44946	30.8	13111	100
2025-3-6 14:42:19.146	WT901BLE68-01(48591DE3C19B)	-4.762	-0.571	-2.424	280.457	342.834	-170.837	-141.33	19.53	-44.97	-74.284	-52.626	27.146	0.15872	-0.70493	0.52512	0.44946	30.8	13111	100
2025-3-6 14:42:19.146	WT901BLE68-01(48591DE3C19B)	-4.762	0.091	-1.729	250.549	239.319	-65.308	-139.19	17.51	-45.92	-74.284	-52.626	27.146	0.15872	-0.70493	0.52512	0.44946	30.8	13111	100
2025-3-6 14:42:19.204	WT901BLE68-01(48591DE3C19B)	-2.954	0.091	-1.729	250.549	239.319	-65.308	-137.08	15.55	-46.92	-74.284	-52.626	27.146	0.15872	-0.70493	0.52512	0.44946	30.8	13111	100
2025-3-6 14:42:19.204	WT901BLE68-01(48591DE3C19B)	-2.954	0.503	-0.816	231.018	105.286	-17.639	-135.02	14.93	-47.38	-74.284	-52.626	27.146	0.15872	-0.70493	0.52512	0.44946	30.8	13111	100
2025-3-6 14:42:19.204	WT901BLE68-01(48591DE3C19B)	-1.538	0.503	-0.816	231.018	105.286	-17.639	-132.99	14.34	-47.86	-61.250	-54.782	25.480	0.15872	-0.70493	0.52512	0.44946	30.8	13111	100
2025-3-6 14:42:19.204	WT901BLE68-01(48591DE3C19B)	-1.538	0.633	-0.415	180.603	27.954	-11.902	-131.36	14.33	-47.80	-61.250	-54.782	25.480	0.15872	-0.70493	0.52512	0.44946	30.8	13111	100
2025-3-6 14:42:19.233	WT901BLE68-01(48591DE3C19B)	-0.358	0.633	-0.415	180.603	27.954	-11.902	-129.75	14.32	-47.74	-61.250	-54.782	25.480	0.15872	-0.70493	0.52512	0.44946	30.8	13111	100
2025-3-6 14:42:19.233	WT901BLE68-01(48591DE3C19B)	-0.358	0.820	-0.378	188.904	8.972	2.869	-128.07	14.55	-47.64	-61.250	-54.782	25.480	0.15872	-0.70493	0.52512	0.44946	30.8	13111	100
2025-3-6 14:42:19.233	WT901BLE68-01(48591DE3C19B)	0.281	0.820	-0.378	188.904	8.972	2.869	-126.40	14.77	-47.54	-61.250	-54.782	25.480	0.15872	-0.70493	0.52512	0.44946	30.8	13111	100
2025-3-6 14:42:19.233	WT901BLE68-01(48591DE3C19B)	0.388	1.080	-0.382	177.612	1.526	-4.700	-124.84	14.98	-47.33	-61.250	-54.782	25.480	0.15872	-0.70493	0.52512	0.44946	30.8	13111	100
2025-3-6 14:42:19.264	WT901BLE68-01(48591DE3C19B)	0.388	1.277	-0.274	122.498	-44.983	39.063	-123.56	15.49	-47.07	-61.250	-54.782	25.480	0.15872	-0.70493	0.52512	0.44946	30.8	13111	100
2025-3-6 14:42:19.264	WT901BLE68-01(48591DE3C19B)	0.696	1.277	-0.274	122.498	-44.983	39.063	-122.56	16.31	-46.73	-61.250	-54.782	25.480	0.15872	-0.70493	0.52512	0.44946	30.8	13111	100
2025-3-6 14:42:19.264	WT901BLE68-01(48591DE3C19B)	0.696	1.268	-0.055	-7.446	-126.282	82.458	-122.15	17.52	-46.16	-61.250	-54.782	25.480	0.15872	-0.70493	0.52512	0.44946	30.8	13111	100
2025-3-6 14:42:19.264	WT901BLE68-01(48591DE3C19B)	1.029	1.268	-0.055	-7.446	-126.282	82.458	-122.33	19.12	-45.38	-61.250	-54.782	25.480	0.15872	-0.70493	0.52512	0.44946	30.8	13111	100
2025-3-6 14:42:19.324	WT901BLE68-01(48591DE3C19B)	1.029	1.112	0.030	-37.292	-86.182	41.443	-122.70	20.44	-44.70	-61.250	-54.782	25.480	0.15872	-0.70493	0.52512	0.44946	30.8	13111	100
2025-3-6 14:42:19.324	WT901BLE68-01(48591DE3C19B)	1.675	1.112	0.030	-37.292	-86.182	41.443	-123.26	21.48	-44.11	-61.250	-54.782	25.480	0.15872	-0.70493	0.52512	0.44946	30.8	13111	100
2025-3-6 14:42:19.324	WT901BLE68-01(48591DE3C19B)	1.675	1.431	-0.076	-5.249	-36.377	78.369	-123.83	22.53	-43.92	-61.250	-54.782	25.480	0.15872	-0.70493	0.52512	0.44946	30.8	13111	100
2025-3-6 14:42:19.324	WT901BLE68-01(48591DE3C19B)	1.912	1.431	-0.076	-5.249	-36.377	78.369	-124.42	23.58	-44.15	-61.250	-54.782	25.480	0.15872	-0.70493	0.52512	0.44946	30.8	13111	100
2025-3-6 14:42:19.355	WT901BLE68-01(48591DE3C19B)	1.912	1.455	-0.036	-54.504	29.602	72.388	-125.45	24.40	-44.75	-61.250	-54.782	25.480	0.15872	-0.70493	0.52512	0.44946	30.8	13111	100
2025-3-6 14:42:19.355	WT901BLE68-01(48591DE3C19B)	0.945	1.455	-0.036	-54.504	29.602	72.388	-126.90	24.97	-45.75	-61.250	-54.782	25.480	0.15872	-0.70493	0.52512	0.44946	30.8	13111	100
2025-3-6 14:42:19.356	WT901BLE68-01(48591DE3C19B)	0.945	1.203	-0.304	-35.461	113.037	60.425	-128.44	25.21	-47.14	-61.250	-54.782	25.480	0.15872	-0.70493	0.52512	0.44946	30.8	13111	100
2025-3-6 14:42:19.356	WT901BLE68-01(48591DE3C19B)	0.337	1.203	-0.304	-35.461	113.037	60.425	-130.02	25.11	-48.88	-61.250	-54.782	25.480	0.15872	-0.70493	0.52512	0.44946	30.8	13111	100
2025-3-6 14:42:19.391	WT901BLE68-01(48591DE3C19B)	0.337	1.437	-0.392	-48.279	63.904	69.458	-131.61	25.15	-50.45	-61.250	-54.782	25.480	0.15872	-0.70493	0.52512	0.44946	30.8	13111	100
2025-3-6 14:42:19.391	WT901BLE68-01(48591DE3C19B)	0.177	1.437	-0.392	-48.279	63.904	69.458	-133.18	25.36	-51.86	-61.250	-54.782	25.480	0.15872	-0.70493	0.52512	0.44946	30.8	13111	100
2025-3-6 14:42:19.391	WT901BLE68-01(48591DE3C19B)	0.177	1.301	-0.674	-118.774	4.150	43.518	-134.96	25.64	-52.92	-61.250	-54.782	25.480	0.41953	-0.77005	0.48007	0.02127	30.8	13111	100
2025-3-6 14:42:19.391	WT901BLE68-01(48591DE3C19B)	-0.006	1.301	-0.674	-118.774	4.150	43.518	-136.96	26.00	-53.65	-61.250	-54.782	25.480	0.41953	-0.77005	0.48007	0.02127	30.8	13111	100
2025-3-6 14:42:19.444	WT901BLE68-01(48591DE3C19B)	-0.006	1.130	-1.179	-149.353	-27.527	35.095	-139.03	26.41	-54.23	-61.250	-54.782	25.480	0.41953	-0.77005	0.48007	0.02127	30.8	13111	100
2025-3-6 14:42:19.444	WT901BLE68-01(48591DE3C19B)	-1.439	1.130	-1.179	-149.353	-27.527	35.095	-141.19	26.87	-54.66	-61.250	-54.782	25.480	0.41953	-0.77005	0.48007	0.02127	30.8	13111	100
2025-3-6 14:42:19.444	WT901BLE68-01(48591DE3C19B)	-1.439	1.523	-3.208	-202.271	-36.987	17.029	-143.54	27.28	-54.96	-61.250	-54.782	25.480	0.41953	-0.77005	0.48007	0.02127	30.8	13111	100
2025-3-6 14:42:19.444	WT901BLE68-01(48591DE3C19B)	-12.106	1.523	-3.208	-202.271	-36.987	17.029	-146.06	27.66	-55.11	-61.250	-54.782	25.480	0.41953	-0.77005	0.48007	0.02127	30.8	13111	100
2025-3-6 14:42:19.473	WT901BLE68-01(48591DE3C19B)	-12.106	0.425	-2.674	-386.353	167.053	216.431	-150.16	27.71	-56.76	-61.250	-54.782	25.480	0.41953	-0.77005	0.48007	0.02127	30.8	13111	100
2025-3-6 14:42:19.473	WT901BLE68-01(48591DE3C19B)	-7.207	0.425	-2.674	-386.353	167.053	216.431	-155.75	27.33	-59.80	-61.250	-54.782	25.480	0.41953	-0.77005	0.48007	0.02127	30.8	13111	100
2025-3-6 14:42:19.473	WT901BLE68-01(48591DE3C19B)	-7.207	-1.675	-4.152	-579.285	-13.733	253.296	-162.11	27.64	-62.56	-61.250	-54.782	25.480	0.41953	-0.77005	0.48007	0.02127	30.8	13111	100
2025-3-6 14:42:19.473	WT901BLE68-01(48591DE3C19B)	-5.973	-1.675	-4.152	-579.285	-13.733	253.296	-169.37	28.57	-65.23	-61.250	-54.782	25.480	0.41953	-0.77005	0.48007	0.02127	30.8	13111	100
2025-3-6 14:42:19.503	WT901BLE68-01(48591DE3C19B)	-5.973	-3.916	-2.830	-393.860	80.017	289.856	-175.83	28.75	-68.25	-61.250	-54.782	25.480	0.41953	-0.77005	0.48007	0.02127	30.8	13111	100
2025-3-6 14:42:19.503	WT901BLE68-01(48591DE3C19B)	-2.828	-3.916	-2.830	-393.860	80.017	289.856	178.60	28.21	-71.46	-61.250	-54.782	25.480	0.41953	-0.77005	0.48007	0.02127	30.8	13111	100
2025-3-6 14:42:19.504	WT901BLE68-01(48591DE3C19B)	-2.828	-2.108	-1.482	-253.662	47.913	275.757	173.91	27.58	-74.48	-61.250	-54.782	25.480	0.41953	-0.77005	0.48007	0.02127	30.8	13111	100
2025-3-6 14:42:19.504	WT901BLE68-01(48591DE3C19B)	-1.757	-2.108	-1.482	-253.662	47.913	275.757	170.04	26.94	-77.33	-61.250	-54.782	25.480	0.41953	-0.77005	0.48007	0.02127	30.8	13111	100
2025-3-6 14:42:19.564	WT901BLE68-01(48591DE3C19B)	-1.757	-1.183	-0.725	-303.223	18.494	217.102	166.15	26.34	-79.82	-61.250	-54.782	25.480	0.41953	-0.77005	0.48007	0.02127	30.8	13111	100
2025-3-6 14:42:19.564	WT901BLE68-01(48591DE3C19B)	-0.820	-1.183	-0.725	-303.223	18.494	217.102	162.21	25.81	-81.94	-61.250	-54.782	25.480	0.41953	-0.77005	0.48007	0.02127	30.8	13111	100
2025-3-6 14:42:19.564	WT901BLE68-01(48591DE3C19B)	-0.820	-1.496	-0.682	-305.298	-90.698	106.262	158.48	25.86	-83.64	-61.250	-54.782	25.480	0.41953	-0.77005	0.48007	0.02127	30.8	13111	100
2025-3-6 14:42:19.564	WT901BLE68-01(48591DE3C19B)	-0.123	-1.496	-0.682	-305.298	-90.698	106.262	154.91	26.53	-84.98	-61.250	-54.782	25.480	0.41953	-0.77005	0.48007	0.02127	30.8	13111	100
2025-3-6 14:42:19.592	WT901BLE68-01(48591DE3C19B)	-0.123	-1.559	-1.000	-285.095	-229.797	86.426	151.32	27.77	-86.63	-61.250	-54.782	25.480	0.41953	-0.77005	0.48007	0.02127	30.8	13111	100
2025-3-6 14:42:19.593	WT901BLE68-01(48591DE3C19B)	0.801	-1.559	-1.000	-285.095	-229.797	86.426	147.64	29.55	-88.67	-61.250	-54.782	25.480	0.41953	-0.77005	0.48007	0.02127	30.8	13111	100
2025-3-6 14:42:19.593	WT901BLE68-01(48591DE3C19B)	0.801	-2.329	-1.061	-188.477	-303.101	-17.578	144.48	31.79	-90.59	-61.250	-54.782	25.480	0.41953	-0.77005	0.48007	0.02127	30.8	13111	100
2025-3-6 14:42:19.593	WT901BLE68-01(48591DE3C19B)	2.623	-2.329	-1.061	-188.477	-303.101	-17.578	141.82	34.52	-92.43	-85.260	-54.586	22.148	0.41953	-0.77005	0.48007	0.02127	30.8	13111	100
2025-3-6 14:42:19.624	WT901BLE68-01(48591DE3C19B)	2.623	-2.116	-1.006	79.346	-303.040	-89.844	140.58	37.38	-94.08	-85.260	-54.586	22.148	0.41953	-0.77005	0.48007	0.02127	30.8	13111	100
2025-3-6 14:42:19.624	WT901BLE68-01(48591DE3C19B)	3.438	-2.116	-1.006	79.346	-303.040	-89.844	140.85	40.41	-95.41	-85.260	-54.586	22.148	0.41953	-0.77005	0.48007	0.02127	30.8	13111	100
2025-3-6 14:42:19.624	WT901BLE68-01(48591DE3C19B)	3.438	-0.761	-0.380	94.238	-192.871	14.648	141.12	42.64	-96.81	-85.260	-54.586	22.148	0.41953	-0.77005	0.48007	0.02127	30.8	13111	100
2025-3-6 14:42:19.625	WT901BLE68-01(48591DE3C19B)	2.136	-0.761	-0.380	94.238	-192.871	14.648	141.42	44.07	-98.25	-85.260	-54.586	22.148	0.41953	-0.77005	0.48007	0.02127	30.8	13111	100
2025-3-6 14:42:19.683	WT901BLE68-01(48591DE3C19B)	2.136	-1.335	-0.863	-68.420	-37.537	-57.678	141.69	45.09	-98.56	-85.260	-54.586	22.148	0.41953	-0.77005	0.48007	0.02127	30.8	13111	100
2025-3-6 14:42:19.684	WT901BLE68-01(48591DE3C19B)	1.068	-1.335	-0.863	-68.420	-37.537	-57.678	141.93	45.69	-97.75	-85.260	-54.586	22.148	0.41953	-0.77005	0.48007	0.02127	30.8	13111	100
2025-3-6 14:42:19.684	WT901BLE68-01(48591DE3C19B)	1.068	-2.307	-0.838	12.878	-50.842	-119.324	142.83	46.50	-96.60	-85.260	-54.586	22.148	0.41953	-0.77005	0.48007	0.02127	30.8	13111	100
2025-3-6 14:42:19.684	WT901BLE68-01(48591DE3C19B)	0.623	-2.307	-0.838	12.878	-50.842	-119.324	144.43	47.52	-95.10	-85.260	-54.586	22.148	0.41953	-0.77005	0.48007	0.02127	30.8	13111	100
2025-3-6 14:42:19.716	WT901BLE68-01(48591DE3C19B)	0.623	-1.623	-0.476	106.445	-106.812	-187.256	146.72	48.93	-93.31	-85.260	-54.586	22.148	0.41953	-0.77005	0.48007	0.02127	30.8	13111	100
2025-3-6 14:42:19.716	WT901BLE68-01(48591DE3C19B)	0.690	-1.623	-0.476	106.445	-106.812	-187.256	149.79	50.69	-91.14	-85.260	-54.586	22.148	0.41953	-0.77005	0.48007	0.02127	30.8	13111	100
2025-3-6 14:42:19.716	WT901BLE68-01(48591DE3C19B)	0.690	-1.020	-0.236	65.308	-112.061	-240.967	153.26	52.66	-87.99	-85.260	-54.586	22.148	0.41953	-0.77005	0.48007	0.02127	30.8	13111	100
2025-3-6 14:42:19.716	WT901BLE68-01(48591DE3C19B)	0.769	-1.020	-0.236	65.308	-112.061	-240.967	157.07	54.50	-84.50	-85.260	-54.586	22.148	0.41953	-0.77005	0.48007	0.02127	30.8	13111	100
2025-3-6 14:42:19.745	WT901BLE68-01(48591DE3C19B)	0.769	-1.178	-0.229	-4.272	-72.937	-256.531	160.93	55.87	-80.14	-85.260	-54.586	22.148	0.41953	-0.77005	0.48007	0.02127	30.8	13111	100
2025-3-6 14:42:19.745	WT901BLE68-01(48591DE3C19B)	0.641	-1.178	-0.229	-4.272	-72.937	-256.531	165.10	57.05	-75.48	-85.260	-54.586	22.148	0.41953	-0.77005	0.48007	0.02127	30.8	13111	100
2025-3-6 14:42:19.746	WT901BLE68-01(48591DE3C19B)	0.641	-1.650	0.017	4.944	31.006	-240.173	169.67	56.98	-70.48	-85.260	-54.586	22.148	0.41953	-0.77005	0.48007	0.02127	30.8	13111	100
2025-3-6 14:42:19.746	WT901BLE68-01(48591DE3C19B)	0.045	-1.650	0.017	4.944	31.006	-240.173	174.18	56.68	-65.54	-85.260	-54.586	22.148	0.41953	-0.77005	0.48007	0.02127	30.8	13111	100
2025-3-6 14:42:19.804	WT901BLE68-01(48591DE3C19B)	0.045	-2.001	0.143	11.169	191.406	-233.032	178.56	54.58	-60.77	-85.260	-54.586	22.148	0.41953	-0.77005	0.48007	0.02127	30.8	13111	100
2025-3-6 14:42:19.804	WT901BLE68-01(48591DE3C19B)	-1.443	-2.001	0.143	11.169	191.406	-233.032	-177.59	52.31	-56.55	-85.260	-54.586	22.148	0.22415	-0.79291	0.43304	0.36526	30.8	13111	100
2025-3-6 14:42:19.804	WT901BLE68-01(48591DE3C19B)	-1.443	-2.741	-0.478	43.213	289.917	-115.112	-175.41	49.03	-54.76	-85.260	-54.586	22.148	0.22415	-0.79291	0.43304	0.36526	30.8	13111	100
2025-3-6 14:42:19.804	WT901BLE68-01(48591DE3C19B)	-5.771	-2.741	-0.478	43.213	289.917	-115.112	-173.53	45.75	-53.29	-85.260	-54.586	22.148	0.22415	-0.79291	0.43304	0.36526	30.8	13111	100
2025-3-6 14:42:19.833	WT901BLE68-01(48591DE3C19B)	-5.771	-3.452	-1.580	270.081	332.947	-116.211	-169.74	42.10	-52.25	-85.260	-54.586	22.148	0.22415	-0.79291	0.43304	0.36526	30.8	13111	100
2025-3-6 14:42:19.833	WT901BLE68-01(48591DE3C19B)	-6.178	-3.452	-1.580	270.081	332.947	-116.211	-166.27	38.51	-51.58	-85.260	-54.586	22.148	0.22415	-0.79291	0.43304	0.36526	30.8	13111	100
2025-3-6 14:42:19.833	WT901BLE68-01(48591DE3C19B)	-6.178	-2.059	-1.462	314.087	285.889	-333.374	-161.02	34.83	-48.53	-85.260	-54.586	22.148	0.22415	-0.79291	0.43304	0.36526	30.8	13111	100
2025-3-6 14:42:19.833	WT901BLE68-01(48591DE3C19B)	-5.850	-2.059	-1.462	314.087	285.889	-333.374	-156.29	31.03	-46.01	-85.260	-54.586	22.148	0.22415	-0.79291	0.43304	0.36526	30.8	13111	100
2025-3-6 14:42:19.863	WT901BLE68-01(48591DE3C19B)	-5.850	-1.164	-1.794	306.763	306.030	-272.522	-152.41	27.22	-44.63	-85.260	-54.586	22.148	0.22415	-0.79291	0.43304	0.36526	30.8	13111	100
2025-3-6 14:42:19.864	WT901BLE68-01(48591DE3C19B)	-5.356	-1.164	-1.794	306.763	306.030	-272.522	-148.80	23.41	-43.57	-85.260	-54.586	22.148	0.22415	-0.79291	0.43304	0.36526	30.8	13111	100
2025-3-6 14:42:19.864	WT901BLE68-01(48591DE3C19B)	-5.356	-0.542	-1.566	279.968	252.197	-148.193	-145.97	20.70	-43.58	-85.260	-54.586	22.148	0.22415	-0.79291	0.43304	0.36526	30.8	13111	100
2025-3-6 14:42:19.864	WT901BLE68-01(48591DE3C19B)	-3.542	-0.542	-1.566	279.968	252.197	-148.193	-143.23	18.03	-43.71	-85.260	-54.586	22.148	0.22415	-0.79291	0.43304	0.36526	30.8	13111	100
2025-3-6 14:42:19.924	WT901BLE68-01(48591DE3C19B)	-3.542	-0.197	-0.999	254.150	159.241	-81.604	-140.80	16.53	-43.92	-85.260	-54.586	22.148	0.22415	-0.79291	0.43304	0.36526	30.8	13111	100
2025-3-6 14:42:19.924	WT901BLE68-01(48591DE3C19B)	-2.067	-0.197	-0.999	254.150	159.241	-81.604	-138.41	15.06	-44.19	-85.260	-54.586	22.148	0.22415	-0.79291	0.43304	0.36526	30.8	13111	100
2025-3-6 14:42:19.924	WT901BLE68-01(48591DE3C19B)	-2.067	0.112	-0.614	256.897	100.403	-41.077	-136.01	14.32	-44.41	-85.260	-54.586	22.148	0.22415	-0.79291	0.43304	0.36526	30.8	13111	100
2025-3-6 14:42:19.924	WT901BLE68-01(48591DE3C19B)	-0.947	0.112	-0.614	256.897	100.403	-41.077	-133.63	13.60	-44.66	-85.260	-54.586	22.148	0.22415	-0.79291	0.43304	0.36526	30.8	13111	100
2025-3-6 14:42:19.955	WT901BLE68-01(48591DE3C19B)	-0.947	0.512	-0.578	279.480	70.984	-9.216	-131.06	13.33	-44.96	-85.260	-54.586	22.148	0.22415	-0.79291	0.43304	0.36526	30.8	13111	100
2025-3-6 14:42:19.955	WT901BLE68-01(48591DE3C19B)	-0.027	0.512	-0.578	279.480	70.984	-9.216	-128.52	13.07	-45.26	-85.260	-54.586	22.148	0.22415	-0.79291	0.43304	0.36526	30.8	13111	100
2025-3-6 14:42:19.955	WT901BLE68-01(48591DE3C19B)	-0.027	1.044	-0.658	297.668	45.715	21.606	-125.82	13.23	-45.57	-85.260	-54.586	22.148	0.22415	-0.79291	0.43304	0.36526	30.8	13111	100
2025-3-6 14:42:19.955	WT901BLE68-01(48591DE3C19B)	0.200	1.044	-0.658	297.668	45.715	21.606	-123.15	13.41	-45.89	-85.260	-54.586	22.148	0.22415	-0.79291	0.43304	0.36526	30.8	13111	100
2025-3-6 14:42:19.983	WT901BLE68-01(48591DE3C19B)	0.200	1.435	-0.711	238.037	34.851	28.809	-121.11	13.72	-46.16	-85.260	-54.586	22.148	0.22415	-0.79291	0.43304	0.36526	30.8	13111	100
2025-3-6 14:42:19.983	WT901BLE68-01(48591DE3C19B)	0.363	1.435	-0.711	238.037	34.851	28.809	-119.09	14.04	-46.45	-85.260	-54.586	22.148	0.22415	-0.79291	0.43304	0.36526	30.8	13111	100
2025-3-6 14:42:19.983	WT901BLE68-01(48591DE3C19B)	0.363	1.771	-0.795	126.526	-42.480	79.224	-118.13	15.17	-46.30	-62.720	-60.760	34.496	0.22415	-0.79291	0.43304	0.36526	30.8	13111	100
