time	DeviceName	AccX(g)	AccY(g)	AccZ(g)	AsX(°/s)	AsY(°/s)	AsZ(°/s)	AngleX(°)	AngleY(°)	AngleZ(°)	HX(uT)	HY(uT)	HZ(uT)	Q0()	Q1()	Q2()	Q3()	Temperature(°C)	Version()	Battery level(%)
2025-3-27 18:5:10.203	WT901BLE68-01(48591DE3C19B)	-0.250	-0.930	0.280	6.592	18.433	60.974	-72.13	15.80	-120.83	-63.602	-41.160	-7.056	0.43887	-0.24542	0.54501	-0.67084	31.1	13111	100
2025-3-27 18:5:10.203	WT901BLE68-01(48591DE3C19B)	-0.250	-0.924	0.286	5.005	15.808	58.716	-72.08	16.40	-120.76	-63.602	-41.160	-7.056	0.43887	-0.24542	0.54501	-0.67084	31.1	13111	100
2025-3-27 18:5:10.203	WT901BLE68-01(48591DE3C19B)	-0.247	-0.924	0.286	5.005	15.808	58.716	-72.03	17.00	-120.68	-63.602	-41.160	-7.056	0.43887	-0.24542	0.54501	-0.67084	31.1	13111	100
2025-3-27 18:5:10.203	WT901BLE68-01(48591DE3C19B)	-0.247	-0.907	0.285	4.456	14.404	54.382	-71.99	17.55	-120.61	-63.602	-41.160	-7.056	0.43887	-0.24542	0.54501	-0.67084	31.1	13111	100
2025-3-27 18:5:10.234	WT901BLE68-01(48591DE3C19B)	-0.246	-0.907	0.285	4.456	14.404	54.382	-71.94	18.10	-120.54	-63.602	-41.160	-7.056	0.43887	-0.24542	0.54501	-0.67084	31.1	13111	100
2025-3-27 18:5:10.234	WT901BLE68-01(48591DE3C19B)	-0.246	-0.894	0.277	3.235	13.245	48.279	-71.91	18.58	-120.48	-63.602	-41.160	-7.056	0.43887	-0.24542	0.54501	-0.67084	31.1	13111	100
2025-3-27 18:5:10.234	WT901BLE68-01(48591DE3C19B)	-0.251	-0.894	0.277	3.235	13.245	48.279	-71.88	19.06	-120.42	-63.602	-41.160	-7.056	0.43887	-0.24542	0.54501	-0.67084	31.1	13111	100
2025-3-27 18:5:10.234	WT901BLE68-01(48591DE3C19B)	-0.251	-0.886	0.269	2.258	11.475	41.138	-71.86	19.46	-120.36	-63.602	-41.160	-7.056	0.43887	-0.24542	0.54501	-0.67084	31.1	13111	100
2025-3-27 18:5:10.263	WT901BLE68-01(48591DE3C19B)	-0.257	-0.886	0.269	2.258	11.475	41.138	-71.84	19.86	-120.30	-63.602	-41.160	-7.056	0.43887	-0.24542	0.54501	-0.67084	31.1	13111	100
2025-3-27 18:5:10.263	WT901BLE68-01(48591DE3C19B)	-0.257	-0.878	0.271	1.343	7.568	33.508	-71.82	20.17	-120.23	-63.602	-41.160	-7.056	0.43887	-0.24542	0.54501	-0.67084	31.1	13111	100
2025-3-27 18:5:10.263	WT901BLE68-01(48591DE3C19B)	-0.258	-0.878	0.271	1.343	7.568	33.508	-71.80	20.48	-120.16	-55.566	-46.452	-6.174	0.43887	-0.24542	0.54501	-0.67084	31.1	13111	100
2025-3-27 18:5:10.263	WT901BLE68-01(48591DE3C19B)	-0.129	-0.872	0.279	0.061	2.502	25.635	-71.79	20.70	-120.07	-55.566	-46.452	-6.174	0.43887	-0.24542	0.54501	-0.67084	31.1	13111	100
2025-3-27 18:5:10.323	WT901BLE68-01(48591DE3C19B)	-0.260	-0.436	0.139	0.061	2.502	25.635	-71.77	20.92	-119.98	-55.566	-46.452	-6.174	0.43887	-0.24542	0.54501	-0.67084	31.1	13111	100
2025-3-27 18:5:10.323	WT901BLE68-01(48591DE3C19B)	-0.260	-0.878	0.283	-1.526	-2.991	17.944	-71.76	21.05	-119.86	-55.566	-46.452	-6.174	0.43887	-0.24542	0.54501	-0.67084	31.1	13111	100
2025-3-27 18:5:10.323	WT901BLE68-01(48591DE3C19B)	-0.260	-0.878	0.283	-1.526	-2.991	17.944	-71.75	21.18	-119.73	-55.566	-46.452	-6.174	0.43887	-0.24542	0.54501	-0.67084	31.1	13111	100
2025-3-27 18:5:10.323	WT901BLE68-01(48591DE3C19B)	-0.260	-0.870	0.286	-2.625	-8.423	10.498	-71.74	21.21	-119.58	-55.566	-46.452	-6.174	0.43887	-0.24542	0.54501	-0.67084	31.1	13111	100
2025-3-27 18:5:10.353	WT901BLE68-01(48591DE3C19B)	-0.265	-0.870	0.286	-2.625	-8.423	10.498	-71.73	21.25	-119.43	-55.566	-46.452	-6.174	0.43887	-0.24542	0.54501	-0.67084	31.1	13111	100
2025-3-27 18:5:10.353	WT901BLE68-01(48591DE3C19B)	-0.265	-0.858	0.287	-4.333	-13.062	3.296	-71.72	21.21	-119.26	-55.566	-46.452	-6.174	0.43887	-0.24542	0.54501	-0.67084	31.1	13111	100
2025-3-27 18:5:10.353	WT901BLE68-01(48591DE3C19B)	-0.269	-0.858	0.287	-4.333	-13.062	3.296	-71.72	21.17	-119.09	-55.566	-46.452	-6.174	0.43887	-0.24542	0.54501	-0.67084	31.1	13111	100
2025-3-27 18:5:10.353	WT901BLE68-01(48591DE3C19B)	-0.269	-0.861	0.284	-6.409	-17.700	-3.479	-71.72	21.04	-118.90	-55.566	-46.452	-6.174	0.43887	-0.24542	0.54501	-0.67084	31.1	13111	100
2025-3-27 18:5:10.383	WT901BLE68-01(48591DE3C19B)	-0.275	-0.861	0.284	-6.409	-17.700	-3.479	-71.73	20.92	-118.71	-55.566	-46.452	-6.174	0.43887	-0.24542	0.54501	-0.67084	31.1	13111	100
2025-3-27 18:5:10.383	WT901BLE68-01(48591DE3C19B)	-0.275	-0.877	0.282	-7.813	-22.095	-9.888	-71.75	20.73	-118.50	-55.566	-46.452	-6.174	0.43887	-0.24542	0.54501	-0.67084	31.1	13111	100
2025-3-27 18:5:10.383	WT901BLE68-01(48591DE3C19B)	-0.295	-0.877	0.282	-7.813	-22.095	-9.888	-71.76	20.54	-118.29	-55.566	-46.452	-6.174	0.43887	-0.24542	0.54501	-0.67084	31.1	13111	100
2025-3-27 18:5:10.383	WT901BLE68-01(48591DE3C19B)	-0.295	-0.877	0.284	-8.301	-26.611	-15.198	-71.77	20.29	-118.05	-55.566	-46.452	-6.174	0.43887	-0.24542	0.54501	-0.67084	31.1	13111	100
2025-3-27 18:5:10.443	WT901BLE68-01(48591DE3C19B)	-0.308	-0.877	0.284	-8.301	-26.611	-15.198	-71.78	20.04	-117.82	-55.566	-46.452	-6.174	0.43887	-0.24542	0.54501	-0.67084	31.1	13111	100
2025-3-27 18:5:10.443	WT901BLE68-01(48591DE3C19B)	-0.308	-0.874	0.277	-9.460	-31.555	-19.104	-71.79	19.74	-117.55	-55.566	-46.452	-6.174	0.43887	-0.24542	0.54501	-0.67084	31.1	13111	100
2025-3-27 18:5:10.443	WT901BLE68-01(48591DE3C19B)	-0.307	-0.874	0.277	-9.460	-31.555	-19.104	-71.80	19.44	-117.28	-55.566	-46.452	-6.174	0.43887	-0.24542	0.54501	-0.67084	31.1	13111	100
2025-3-27 18:5:10.443	WT901BLE68-01(48591DE3C19B)	-0.307	-0.866	0.262	-10.315	-35.156	-21.851	-71.81	19.11	-116.99	-55.566	-46.452	-6.174	0.43887	-0.24542	0.54501	-0.67084	31.1	13111	100
2025-3-27 18:5:10.475	WT901BLE68-01(48591DE3C19B)	-0.313	-0.866	0.262	-10.315	-35.156	-21.851	-71.83	18.78	-116.70	-55.566	-46.452	-6.174	0.50073	-0.19116	0.56198	-0.62991	31.1	13111	100
2025-3-27 18:5:10.475	WT901BLE68-01(48591DE3C19B)	-0.313	-0.863	0.248	-12.207	-38.330	-24.170	-71.86	18.42	-116.38	-55.566	-46.452	-6.174	0.50073	-0.19116	0.56198	-0.62991	31.1	13111	100
2025-3-27 18:5:10.475	WT901BLE68-01(48591DE3C19B)	-0.332	-0.863	0.248	-12.207	-38.330	-24.170	-71.89	18.07	-116.08	-55.566	-46.452	-6.174	0.50073	-0.19116	0.56198	-0.62991	31.1	13111	100
2025-3-27 18:5:10.475	WT901BLE68-01(48591DE3C19B)	-0.332	-0.868	0.240	-14.160	-41.626	-26.855	-71.94	17.69	-115.74	-55.566	-46.452	-6.174	0.50073	-0.19116	0.56198	-0.62991	31.1	13111	100
2025-3-27 18:5:10.533	WT901BLE68-01(48591DE3C19B)	-0.351	-0.868	0.240	-14.160	-41.626	-26.855	-71.99	17.30	-115.41	-55.566	-46.452	-6.174	0.50073	-0.19116	0.56198	-0.62991	31.1	13111	100
2025-3-27 18:5:10.533	WT901BLE68-01(48591DE3C19B)	-0.351	-0.876	0.231	-17.273	-43.945	-30.334	-72.06	16.89	-115.07	-55.566	-46.452	-6.174	0.50073	-0.19116	0.56198	-0.62991	31.1	13111	100
2025-3-27 18:5:10.533	WT901BLE68-01(48591DE3C19B)	-0.365	-0.876	0.231	-17.273	-43.945	-30.334	-72.15	16.47	-114.72	-55.566	-46.452	-6.174	0.50073	-0.19116	0.56198	-0.62991	31.1	13111	100
2025-3-27 18:5:10.533	WT901BLE68-01(48591DE3C19B)	-0.399	-0.902	0.237	-20.691	-46.631	-34.058	-72.27	16.02	-114.37	-55.566	-46.452	-6.174	0.50073	-0.19116	0.56198	-0.62991	31.1	13111	100
2025-3-27 18:5:10.562	WT901BLE68-01(48591DE3C19B)	-0.399	-0.919	0.255	-22.827	-51.270	-36.560	-72.39	15.56	-114.00	-55.566	-46.452	-6.174	0.50073	-0.19116	0.56198	-0.62991	31.1	13111	100
2025-3-27 18:5:10.563	WT901BLE68-01(48591DE3C19B)	-0.420	-0.919	0.255	-22.827	-51.270	-36.560	-72.52	15.08	-113.61	-55.566	-46.452	-6.174	0.50073	-0.19116	0.56198	-0.62991	31.1	13111	100
2025-3-27 18:5:10.563	WT901BLE68-01(48591DE3C19B)	-0.420	-0.913	0.266	-24.597	-58.838	-36.682	-72.66	14.60	-113.19	-55.566	-46.452	-6.174	0.50073	-0.19116	0.56198	-0.62991	31.1	13111	100
2025-3-27 18:5:10.563	WT901BLE68-01(48591DE3C19B)	-0.417	-0.913	0.266	-24.597	-58.838	-36.682	-72.80	14.11	-112.73	-55.566	-46.452	-6.174	0.50073	-0.19116	0.56198	-0.62991	31.1	13111	100
2025-3-27 18:5:10.624	WT901BLE68-01(48591DE3C19B)	-0.417	-0.901	0.278	-25.940	-64.331	-34.424	-72.93	13.63	-112.24	-55.566	-46.452	-6.174	0.50073	-0.19116	0.56198	-0.62991	31.1	13111	100
2025-3-27 18:5:10.624	WT901BLE68-01(48591DE3C19B)	-0.410	-0.901	0.278	-25.940	-64.331	-34.424	-73.07	13.16	-111.73	-55.566	-46.452	-6.174	0.50073	-0.19116	0.56198	-0.62991	31.1	13111	100
2025-3-27 18:5:10.624	WT901BLE68-01(48591DE3C19B)	-0.410	-0.916	0.287	-25.879	-66.467	-29.968	-73.21	12.72	-111.20	-55.566	-46.452	-6.174	0.50073	-0.19116	0.56198	-0.62991	31.1	13111	100
2025-3-27 18:5:10.624	WT901BLE68-01(48591DE3C19B)	-0.407	-0.916	0.287	-25.879	-66.467	-29.968	-73.34	12.29	-110.66	-55.566	-46.452	-6.174	0.50073	-0.19116	0.56198	-0.62991	31.1	13111	100
2025-3-27 18:5:10.653	WT901BLE68-01(48591DE3C19B)	-0.407	-0.947	0.283	-23.621	-68.787	-23.743	-73.47	11.90	-110.10	-55.566	-46.452	-6.174	0.50073	-0.19116	0.56198	-0.62991	31.1	13111	100
2025-3-27 18:5:10.653	WT901BLE68-01(48591DE3C19B)	-0.374	-0.947	0.283	-23.621	-68.787	-23.743	-73.58	11.54	-109.52	-55.566	-46.452	-6.174	0.50073	-0.19116	0.56198	-0.62991	31.1	13111	100
2025-3-27 18:5:10.653	WT901BLE68-01(48591DE3C19B)	-0.374	-0.945	0.266	-20.813	-71.289	-16.296	-73.67	11.21	-108.92	-55.566	-46.452	-6.174	0.50073	-0.19116	0.56198	-0.62991	31.1	13111	100
2025-3-27 18:5:10.653	WT901BLE68-01(48591DE3C19B)	-0.331	-0.945	0.266	-20.813	-71.289	-16.296	-73.75	10.91	-108.30	-55.566	-46.452	-6.174	0.50073	-0.19116	0.56198	-0.62991	31.1	13111	100
2025-3-27 18:5:10.683	WT901BLE68-01(48591DE3C19B)	-0.331	-0.957	0.253	-18.921	-69.214	-8.484	-73.83	10.67	-107.68	-63.896	-43.610	-6.958	0.50073	-0.19116	0.56198	-0.62991	31.1	13111	100
2025-3-27 18:5:10.683	WT901BLE68-01(48591DE3C19B)	-0.309	-0.957	0.253	-18.921	-69.214	-8.484	-73.89	10.45	-107.06	-63.896	-43.610	-6.958	0.50073	-0.19116	0.56198	-0.62991	31.1	13111	100
2025-3-27 18:5:10.683	WT901BLE68-01(48591DE3C19B)	-0.309	-1.011	0.259	-16.541	-65.979	0.000	-73.95	10.29	-106.44	-63.896	-43.610	-6.958	0.50073	-0.19116	0.56198	-0.62991	31.1	13111	100
2025-3-27 18:5:10.683	WT901BLE68-01(48591DE3C19B)	-0.276	-1.011	0.259	-16.541	-65.979	0.000	-74.00	10.17	-105.83	-63.896	-43.610	-6.958	0.50073	-0.19116	0.56198	-0.62991	31.1	13111	100
2025-3-27 18:5:10.713	WT901BLE68-01(48591DE3C19B)	-0.276	-1.032	0.289	-10.986	-59.570	8.240	-74.03	10.10	-105.24	-63.896	-43.610	-6.958	0.50073	-0.19116	0.56198	-0.62991	31.1	13111	100
2025-3-27 18:5:10.713	WT901BLE68-01(48591DE3C19B)	-0.230	-1.032	0.289	-10.986	-59.570	8.240	-74.03	10.07	-104.67	-63.896	-43.610	-6.958	0.50073	-0.19116	0.56198	-0.62991	31.1	13111	100
2025-3-27 18:5:10.713	WT901BLE68-01(48591DE3C19B)	-0.230	-0.990	0.310	-6.104	-46.814	13.123	-74.01	10.07	-104.16	-63.896	-43.610	-6.958	0.50073	-0.19116	0.56198	-0.62991	31.1	13111	100
2025-3-27 18:5:10.713	WT901BLE68-01(48591DE3C19B)	-0.138	-0.990	0.310	-6.104	-46.814	13.123	-73.99	10.12	-103.69	-63.896	-43.610	-6.958	0.50073	-0.19116	0.56198	-0.62991	31.1	13111	100
2025-3-27 18:5:10.803	WT901BLE68-01(48591DE3C19B)	-0.138	-0.942	0.292	-3.052	-31.494	10.620	-73.96	10.17	-103.32	-63.896	-43.610	-6.958	0.50073	-0.19116	0.56198	-0.62991	31.1	13111	100
2025-3-27 18:5:10.803	WT901BLE68-01(48591DE3C19B)	-0.095	-0.942	0.292	-3.052	-31.494	10.620	-73.93	10.23	-103.01	-63.896	-43.610	-6.958	0.50073	-0.19116	0.56198	-0.62991	31.1	13111	100
2025-3-27 18:5:10.803	WT901BLE68-01(48591DE3C19B)	-0.095	-0.899	0.292	-1.953	-15.991	7.019	-73.91	10.28	-102.79	-63.896	-43.610	-6.958	0.50073	-0.19116	0.56198	-0.62991	31.1	13111	100
2025-3-27 18:5:10.803	WT901BLE68-01(48591DE3C19B)	-0.128	-0.899	0.292	-1.953	-15.991	7.019	-73.89	10.33	-102.65	-63.896	-43.610	-6.958	0.50073	-0.19116	0.56198	-0.62991	31.1	13111	100
2025-3-27 18:5:10.804	WT901BLE68-01(48591DE3C19B)	-0.128	-0.895	0.315	0.854	-4.456	4.639	-73.87	10.38	-102.56	-63.896	-43.610	-6.958	0.50073	-0.19116	0.56198	-0.62991	31.1	13111	100
2025-3-27 18:5:10.804	WT901BLE68-01(48591DE3C19B)	-0.172	-0.895	0.315	0.854	-4.456	4.639	-73.84	10.43	-102.54	-63.896	-43.610	-6.958	0.50073	-0.19116	0.56198	-0.62991	31.1	13111	100
2025-3-27 18:5:10.804	WT901BLE68-01(48591DE3C19B)	-0.172	-0.900	0.324	2.441	0.793	2.991	-73.82	10.48	-102.55	-63.896	-43.610	-6.958	0.50073	-0.19116	0.56198	-0.62991	31.1	13111	100
2025-3-27 18:5:10.804	WT901BLE68-01(48591DE3C19B)	-0.206	-0.900	0.324	2.441	0.793	2.991	-73.78	10.52	-102.58	-63.896	-43.610	-6.958	0.50073	-0.19116	0.56198	-0.62991	31.1	13111	100
2025-3-27 18:5:10.835	WT901BLE68-01(48591DE3C19B)	-0.206	-0.912	0.321	5.554	0.061	1.831	-73.73	10.56	-102.61	-63.896	-43.610	-6.958	0.50073	-0.19116	0.56198	-0.62991	31.1	13111	100
2025-3-27 18:5:10.835	WT901BLE68-01(48591DE3C19B)	-0.229	-0.912	0.321	5.554	0.061	1.831	-73.67	10.59	-102.64	-63.896	-43.610	-6.958	0.50073	-0.19116	0.56198	-0.62991	31.1	13111	100
2025-3-27 18:5:10.835	WT901BLE68-01(48591DE3C19B)	-0.229	-0.918	0.295	7.019	-10.620	2.319	-73.59	10.60	-102.61	-63.896	-43.610	-6.958	0.50073	-0.19116	0.56198	-0.62991	31.1	13111	100
2025-3-27 18:5:10.835	WT901BLE68-01(48591DE3C19B)	-0.214	-0.918	0.295	7.019	-10.620	2.319	-73.48	10.61	-102.54	-63.896	-43.610	-6.958	0.50073	-0.19116	0.56198	-0.62991	31.1	13111	100
2025-3-27 18:5:10.899	WT901BLE68-01(48591DE3C19B)	-0.214	-0.944	0.264	7.996	-28.381	3.479	-73.37	10.59	-102.37	-63.896	-43.610	-6.958	0.50073	-0.19116	0.56198	-0.62991	31.1	13111	100
2025-3-27 18:5:10.899	WT901BLE68-01(48591DE3C19B)	-0.140	-0.944	0.264	7.996	-28.381	3.479	-73.22	10.55	-102.12	-63.896	-43.610	-6.958	0.54575	-0.31613	0.50754	-0.58694	31.1	13111	100
2025-3-27 18:5:10.899	WT901BLE68-01(48591DE3C19B)	-0.140	-0.952	0.237	8.484	-43.396	5.493	-73.08	10.50	-101.79	-63.896	-43.610	-6.958	0.54575	-0.31613	0.50754	-0.58694	31.1	13111	100
2025-3-27 18:5:10.899	WT901BLE68-01(48591DE3C19B)	-0.083	-0.952	0.237	8.484	-43.396	5.493	-72.91	10.44	-101.39	-63.896	-43.610	-6.958	0.54575	-0.31613	0.50754	-0.58694	31.1	13111	100
2025-3-27 18:5:10.924	WT901BLE68-01(48591DE3C19B)	-0.083	-0.986	0.239	8.118	-44.861	6.409	-72.75	10.38	-100.98	-63.896	-43.610	-6.958	0.54575	-0.31613	0.50754	-0.58694	31.1	13111	100
2025-3-27 18:5:10.924	WT901BLE68-01(48591DE3C19B)	-0.074	-0.986	0.239	8.118	-44.861	6.409	-72.59	10.31	-100.56	-63.896	-43.610	-6.958	0.54575	-0.31613	0.50754	-0.58694	31.1	13111	100
2025-3-27 18:5:10.924	WT901BLE68-01(48591DE3C19B)	-0.074	-1.018	0.252	7.080	-39.978	6.897	-72.44	10.24	-100.16	-63.896	-43.610	-6.958	0.54575	-0.31613	0.50754	-0.58694	31.1	13111	100
2025-3-27 18:5:10.924	WT901BLE68-01(48591DE3C19B)	-0.029	-1.018	0.252	7.080	-39.978	6.897	-72.31	10.18	-99.78	-63.896	-43.610	-6.958	0.54575	-0.31613	0.50754	-0.58694	31.1	13111	100
2025-3-27 18:5:10.953	WT901BLE68-01(48591DE3C19B)	-0.029	-1.021	0.263	4.700	-31.067	6.836	-72.20	10.13	-99.45	-63.896	-43.610	-6.958	0.54575	-0.31613	0.50754	-0.58694	31.1	13111	100
2025-3-27 18:5:10.953	WT901BLE68-01(48591DE3C19B)	-0.042	-1.021	0.263	4.700	-31.067	6.836	-72.11	10.10	-99.17	-63.896	-43.610	-6.958	0.54575	-0.31613	0.50754	-0.58694	31.1	13111	100
2025-3-27 18:5:10.953	WT901BLE68-01(48591DE3C19B)	-0.042	-1.004	0.271	0.488	-20.752	6.653	-72.05	10.06	-98.93	-63.896	-43.610	-6.958	0.54575	-0.31613	0.50754	-0.58694	31.1	13111	100
2025-3-27 18:5:10.953	WT901BLE68-01(48591DE3C19B)	-0.117	-1.004	0.271	0.488	-20.752	6.653	-72.03	10.05	-98.74	-63.896	-43.610	-6.958	0.54575	-0.31613	0.50754	-0.58694	31.1	13111	100
2025-3-27 18:5:11.14	WT901BLE68-01(48591DE3C19B)	-0.117	-0.997	0.304	-6.348	-21.057	5.432	-72.03	10.02	-98.55	-63.896	-43.610	-6.958	0.54575	-0.31613	0.50754	-0.58694	31.1	13111	100
2025-3-27 18:5:11.14	WT901BLE68-01(48591DE3C19B)	-0.172	-0.997	0.304	-6.348	-21.057	5.432	-72.08	9.99	-98.37	-63.896	-43.610	-6.958	0.54575	-0.31613	0.50754	-0.58694	31.1	13111	100
2025-3-27 18:5:11.14	WT901BLE68-01(48591DE3C19B)	-0.172	-1.020	0.374	-11.108	-30.518	2.686	-72.15	9.90	-98.10	-63.896	-43.610	-6.958	0.54575	-0.31613	0.50754	-0.58694	31.1	13111	100
2025-3-27 18:5:11.14	WT901BLE68-01(48591DE3C19B)	-0.192	-1.020	0.374	-11.108	-30.518	2.686	-72.21	9.82	-97.84	-63.896	-43.610	-6.958	0.54575	-0.31613	0.50754	-0.58694	31.1	13111	100
2025-3-27 18:5:11.44	WT901BLE68-01(48591DE3C19B)	-0.192	-0.992	0.416	-12.451	-40.894	0.000	-72.28	9.68	-97.49	-63.896	-43.610	-6.958	0.54575	-0.31613	0.50754	-0.58694	31.1	13111	100
2025-3-27 18:5:11.45	WT901BLE68-01(48591DE3C19B)	-0.186	-0.992	0.416	-12.451	-40.894	0.000	-72.34	9.54	-97.14	-63.896	-43.610	-6.958	0.54575	-0.31613	0.50754	-0.58694	31.1	13111	100
2025-3-27 18:5:11.45	WT901BLE68-01(48591DE3C19B)	-0.186	-0.921	0.400	-12.573	-48.279	-1.709	-72.38	9.37	-96.73	-63.896	-43.610	-6.958	0.54575	-0.31613	0.50754	-0.58694	31.1	13111	100
2025-3-27 18:5:11.45	WT901BLE68-01(48591DE3C19B)	-0.167	-0.921	0.400	-12.573	-48.279	-1.709	-72.43	9.20	-96.32	-63.896	-43.610	-6.958	0.54575	-0.31613	0.50754	-0.58694	31.1	13111	100
2025-3-27 18:5:11.74	WT901BLE68-01(48591DE3C19B)	-0.167	-0.846	0.349	-11.719	-48.584	-2.869	-72.47	9.03	-95.92	-63.896	-43.610	-6.958	0.54575	-0.31613	0.50754	-0.58694	31.1	13111	100
2025-3-27 18:5:11.74	WT901BLE68-01(48591DE3C19B)	-0.145	-0.846	0.349	-11.719	-48.584	-2.869	-72.50	8.85	-95.52	-63.896	-43.610	-6.958	0.54575	-0.31613	0.50754	-0.58694	31.1	13111	100
2025-3-27 18:5:11.74	WT901BLE68-01(48591DE3C19B)	-0.145	-0.781	0.313	-11.230	-40.955	-3.906	-72.54	8.68	-95.20	-75.264	-42.630	-4.900	0.54575	-0.31613	0.50754	-0.58694	31.1	13111	100
2025-3-27 18:5:11.74	WT901BLE68-01(48591DE3C19B)	-0.096	-0.781	0.313	-11.230	-40.955	-3.906	-72.58	8.53	-94.88	-75.264	-42.630	-4.900	0.54575	-0.31613	0.50754	-0.58694	31.1	13111	100
2025-3-27 18:5:11.134	WT901BLE68-01(48591DE3C19B)	-0.096	-0.749	0.284	-11.353	-31.677	-6.653	-72.64	8.37	-94.66	-75.264	-42.630	-4.900	0.54575	-0.31613	0.50754	-0.58694	31.1	13111	100
2025-3-27 18:5:11.134	WT901BLE68-01(48591DE3C19B)	-0.057	-0.749	0.284	-11.353	-31.677	-6.653	-72.70	8.21	-94.44	-75.264	-42.630	-4.900	0.54575	-0.31613	0.50754	-0.58694	31.1	13111	100
2025-3-27 18:5:11.134	WT901BLE68-01(48591DE3C19B)	-0.057	-0.703	0.280	-10.315	-17.517	-8.057	-72.76	8.08	-94.36	-75.264	-42.630	-4.900	0.54575	-0.31613	0.50754	-0.58694	31.1	13111	100
2025-3-27 18:5:11.134	WT901BLE68-01(48591DE3C19B)	-0.041	-0.703	0.280	-10.315	-17.517	-8.057	-72.83	7.95	-94.28	-75.264	-42.630	-4.900	0.54575	-0.31613	0.50754	-0.58694	31.1	13111	100
2025-3-27 18:5:11.163	WT901BLE68-01(48591DE3C19B)	-0.041	-0.728	0.283	-11.353	0.793	-9.521	-72.93	7.86	-94.38	-75.264	-42.630	-4.900	0.54575	-0.31613	0.50754	-0.58694	31.1	13111	100
2025-3-27 18:5:11.163	WT901BLE68-01(48591DE3C19B)	-0.047	-0.728	0.283	-11.353	0.793	-9.521	-73.03	7.76	-94.48	-75.264	-42.630	-4.900	0.54575	-0.31613	0.50754	-0.58694	31.1	13111	100
2025-3-27 18:5:11.163	WT901BLE68-01(48591DE3C19B)	-0.047	-0.792	0.292	-9.338	22.339	-10.925	-73.13	7.72	-94.78	-75.264	-42.630	-4.900	0.54575	-0.31613	0.50754	-0.58694	31.1	13111	100
2025-3-27 18:5:11.163	WT901BLE68-01(48591DE3C19B)	-0.096	-0.792	0.292	-9.338	22.339	-10.925	-73.24	7.67	-95.09	-75.264	-42.630	-4.900	0.54575	-0.31613	0.50754	-0.58694	31.1	13111	100
2025-3-27 18:5:11.198	WT901BLE68-01(48591DE3C19B)	-0.096	-0.854	0.314	-5.920	43.823	-14.587	-73.34	7.64	-95.61	-75.264	-42.630	-4.900	0.54575	-0.31613	0.50754	-0.58694	31.1	13111	100
2025-3-27 18:5:11.198	WT901BLE68-01(48591DE3C19B)	-0.159	-0.854	0.314	-5.920	43.823	-14.587	-73.44	7.62	-96.14	-75.264	-42.630	-4.900	0.54575	-0.31613	0.50754	-0.58694	31.1	13111	100
2025-3-27 18:5:11.198	WT901BLE68-01(48591DE3C19B)	-0.159	-0.919	0.329	-0.732	58.350	-18.616	-73.50	7.60	-96.81	-75.264	-42.630	-4.900	0.54575	-0.31613	0.50754	-0.58694	31.1	13111	100
2025-3-27 18:5:11.198	WT901BLE68-01(48591DE3C19B)	-0.164	-0.919	0.329	-0.732	58.350	-18.616	-73.57	7.58	-97.47	-75.264	-42.630	-4.900	0.54575	-0.31613	0.50754	-0.58694	31.1	13111	100
2025-3-27 18:5:11.284	WT901BLE68-01(48591DE3C19B)	-0.164	-0.979	0.314	3.845	68.481	-20.386	-73.61	7.58	-98.23	-75.264	-42.630	-4.900	0.54575	-0.31613	0.50754	-0.58694	31.1	13111	100
2025-3-27 18:5:11.284	WT901BLE68-01(48591DE3C19B)	-0.154	-0.979	0.314	3.845	68.481	-20.386	-73.64	7.57	-99.00	-75.264	-42.630	-4.900	0.54575	-0.31613	0.50754	-0.58694	31.1	13111	100
2025-3-27 18:5:11.284	WT901BLE68-01(48591DE3C19B)	-0.154	-1.064	0.292	7.263	81.360	-20.691	-73.66	7.60	-99.88	-75.264	-42.630	-4.900	0.54575	-0.31613	0.50754	-0.58694	31.1	13111	100
2025-3-27 18:5:11.285	WT901BLE68-01(48591DE3C19B)	-0.198	-1.064	0.292	7.263	81.360	-20.691	-73.69	7.62	-100.76	-75.264	-42.630	-4.900	0.54575	-0.31613	0.50754	-0.58694	31.1	13111	100
2025-3-27 18:5:11.285	WT901BLE68-01(48591DE3C19B)	-0.198	-1.171	0.289	12.390	94.055	-20.081	-73.68	7.70	-101.75	-75.264	-42.630	-4.900	0.54575	-0.31613	0.50754	-0.58694	31.1	13111	100
2025-3-27 18:5:11.285	WT901BLE68-01(48591DE3C19B)	-0.236	-1.171	0.289	12.390	94.055	-20.081	-73.68	7.77	-102.74	-75.264	-42.630	-4.900	0.54575	-0.31613	0.50754	-0.58694	31.1	13111	100
2025-3-27 18:5:11.285	WT901BLE68-01(48591DE3C19B)	-0.236	-1.167	0.297	20.996	100.769	-17.090	-73.60	7.89	-103.78	-75.264	-42.630	-4.900	0.54575	-0.31613	0.50754	-0.58694	31.1	13111	100
2025-3-27 18:5:11.285	WT901BLE68-01(48591DE3C19B)	-0.209	-1.167	0.297	20.996	100.769	-17.090	-73.53	8.01	-104.81	-75.264	-42.630	-4.900	0.52063	-0.31985	0.50723	-0.60764	31.1	13111	100
2025-3-27 18:5:11.313	WT901BLE68-01(48591DE3C19B)	-0.209	-1.067	0.278	24.597	104.919	-11.230	-73.43	8.21	-105.86	-75.264	-42.630	-4.900	0.52063	-0.31985	0.50723	-0.60764	31.1	13111	100
2025-3-27 18:5:11.313	WT901BLE68-01(48591DE3C19B)	-0.187	-1.067	0.278	24.597	104.919	-11.230	-73.33	8.40	-106.91	-75.264	-42.630	-4.900	0.52063	-0.31985	0.50723	-0.60764	31.1	13111	100
2025-3-27 18:5:11.313	WT901BLE68-01(48591DE3C19B)	-0.187	-1.043	0.234	23.315	111.389	-4.272	-73.27	8.68	-108.00	-75.264	-42.630	-4.900	0.52063	-0.31985	0.50723	-0.60764	31.1	13111	100
2025-3-27 18:5:11.313	WT901BLE68-01(48591DE3C19B)	-0.212	-1.043	0.234	23.315	111.389	-4.272	-73.21	8.96	-109.08	-75.264	-42.630	-4.900	0.52063	-0.31985	0.50723	-0.60764	31.1	13111	100
2025-3-27 18:5:11.404	WT901BLE68-01(48591DE3C19B)	-0.212	-1.037	0.194	23.071	114.014	3.174	-73.16	9.33	-110.16	-75.264	-42.630	-4.900	0.52063	-0.31985	0.50723	-0.60764	31.1	13111	100
2025-3-27 18:5:11.404	WT901BLE68-01(48591DE3C19B)	-0.250	-1.037	0.194	23.071	114.014	3.174	-73.13	9.69	-111.24	-75.264	-42.630	-4.900	0.52063	-0.31985	0.50723	-0.60764	31.1	13111	100
2025-3-27 18:5:11.404	WT901BLE68-01(48591DE3C19B)	-0.250	-0.979	0.180	21.118	108.276	9.827	-73.10	10.10	-112.23	-75.264	-42.630	-4.900	0.52063	-0.31985	0.50723	-0.60764	31.1	13111	100
2025-3-27 18:5:11.404	WT901BLE68-01(48591DE3C19B)	-0.259	-0.979	0.180	21.118	108.276	9.827	-73.09	10.50	-113.23	-75.264	-42.630	-4.900	0.52063	-0.31985	0.50723	-0.60764	31.1	13111	100
2025-3-27 18:5:11.404	WT901BLE68-01(48591DE3C19B)	-0.259	-0.912	0.189	16.357	96.802	14.404	-73.11	10.92	-114.09	-75.264	-42.630	-4.900	0.52063	-0.31985	0.50723	-0.60764	31.1	13111	100
2025-3-27 18:5:11.404	WT901BLE68-01(48591DE3C19B)	-0.267	-0.912	0.189	16.357	96.802	14.404	-73.14	11.34	-114.95	-75.264	-42.630	-4.900	0.52063	-0.31985	0.50723	-0.60764	31.1	13111	100
2025-3-27 18:5:11.404	WT901BLE68-01(48591DE3C19B)	-0.267	-0.854	0.205	10.620	85.022	17.395	-73.21	11.75	-115.69	-75.264	-42.630	-4.900	0.52063	-0.31985	0.50723	-0.60764	31.1	13111	100
2025-3-27 18:5:11.404	WT901BLE68-01(48591DE3C19B)	-0.308	-0.854	0.205	10.620	85.022	17.395	-73.28	12.16	-116.43	-75.264	-42.630	-4.900	0.52063	-0.31985	0.50723	-0.60764	31.1	13111	100
2025-3-27 18:5:11.435	WT901BLE68-01(48591DE3C19B)	-0.308	-0.825	0.214	5.432	71.228	18.433	-73.39	12.54	-117.03	-75.264	-42.630	-4.900	0.52063	-0.31985	0.50723	-0.60764	31.1	13111	100
2025-3-27 18:5:11.435	WT901BLE68-01(48591DE3C19B)	-0.332	-0.825	0.214	5.432	71.228	18.433	-73.49	12.93	-117.63	-75.264	-42.630	-4.900	0.52063	-0.31985	0.50723	-0.60764	31.1	13111	100
2025-3-27 18:5:11.435	WT901BLE68-01(48591DE3C19B)	-0.347	-0.813	0.211	0.977	53.955	18.066	-73.60	13.26	-118.07	-75.264	-42.630	-4.900	0.52063	-0.31985	0.50723	-0.60764	31.1	13111	100
2025-3-27 18:5:11.435	WT901BLE68-01(48591DE3C19B)	-0.347	-0.802	0.197	-2.808	35.034	16.541	-73.72	13.55	-118.42	-75.264	-42.630	-4.900	0.52063	-0.31985	0.50723	-0.60764	31.1	13111	100
2025-3-27 18:5:11.498	WT901BLE68-01(48591DE3C19B)	-0.347	-0.802	0.197	-2.808	35.034	16.541	-73.83	13.82	-118.67	-75.264	-42.630	-4.900	0.52063	-0.31985	0.50723	-0.60764	31.1	13111	100
2025-3-27 18:5:11.498	WT901BLE68-01(48591DE3C19B)	-0.347	-0.827	0.173	-7.446	15.747	13.733	-73.95	14.05	-118.84	-59.094	-45.276	-7.938	0.52063	-0.31985	0.50723	-0.60764	31.1	13111	100
2025-3-27 18:5:11.498	WT901BLE68-01(48591DE3C19B)	-0.354	-0.827	0.173	-7.446	15.747	13.733	-74.06	14.24	-118.92	-59.094	-45.276	-7.938	0.52063	-0.31985	0.50723	-0.60764	31.1	13111	100
2025-3-27 18:5:11.499	WT901BLE68-01(48591DE3C19B)	-0.354	-0.885	0.152	-10.925	-2.014	10.498	-74.18	14.39	-118.92	-59.094	-45.276	-7.938	0.52063	-0.31985	0.50723	-0.60764	31.1	13111	100
2025-3-27 18:5:11.524	WT901BLE68-01(48591DE3C19B)	-0.373	-0.885	0.152	-10.925	-2.014	10.498	-74.30	14.50	-118.83	-59.094	-45.276	-7.938	0.52063	-0.31985	0.50723	-0.60764	31.1	13111	100
2025-3-27 18:5:11.524	WT901BLE68-01(48591DE3C19B)	-0.373	-0.914	0.144	-13.306	-18.799	6.226	-74.40	14.57	-118.67	-59.094	-45.276	-7.938	0.52063	-0.31985	0.50723	-0.60764	31.1	13111	100
2025-3-27 18:5:11.524	WT901BLE68-01(48591DE3C19B)	-0.380	-0.914	0.144	-13.306	-18.799	6.226	-74.50	14.61	-118.43	-59.094	-45.276	-7.938	0.52063	-0.31985	0.50723	-0.60764	31.1	13111	100
2025-3-27 18:5:11.524	WT901BLE68-01(48591DE3C19B)	-0.380	-0.943	0.149	-17.090	-35.706	1.099	-74.61	14.60	-118.11	-59.094	-45.276	-7.938	0.52063	-0.31985	0.50723	-0.60764	31.1	13111	100
2025-3-27 18:5:11.554	WT901BLE68-01(48591DE3C19B)	-0.377	-0.943	0.149	-17.090	-35.706	1.099	-74.71	14.53	-117.72	-59.094	-45.276	-7.938	0.52063	-0.31985	0.50723	-0.60764	31.1	13111	100
2025-3-27 18:5:11.554	WT901BLE68-01(48591DE3C19B)	-0.377	-0.973	0.161	-19.592	-50.171	-3.235	-74.81	14.44	-117.26	-59.094	-45.276	-7.938	0.52063	-0.31985	0.50723	-0.60764	31.1	13111	100
2025-3-27 18:5:11.554	WT901BLE68-01(48591DE3C19B)	-0.362	-0.973	0.161	-19.592	-50.171	-3.235	-74.91	14.31	-116.74	-59.094	-45.276	-7.938	0.52063	-0.31985	0.50723	-0.60764	31.1	13111	100
2025-3-27 18:5:11.554	WT901BLE68-01(48591DE3C19B)	-0.362	-0.943	0.164	-20.142	-60.059	-6.653	-75.00	14.15	-116.17	-59.094	-45.276	-7.938	0.52063	-0.31985	0.50723	-0.60764	31.1	13111	100
2025-3-27 18:5:11.614	WT901BLE68-01(48591DE3C19B)	-0.336	-0.943	0.164	-20.142	-60.059	-6.653	-75.09	13.96	-115.57	-59.094	-45.276	-7.938	0.52063	-0.31985	0.50723	-0.60764	31.1	13111	100
2025-3-27 18:5:11.614	WT901BLE68-01(48591DE3C19B)	-0.336	-0.884	0.173	-21.790	-65.552	-7.996	-75.17	13.77	-114.94	-59.094	-45.276	-7.938	0.52063	-0.31985	0.50723	-0.60764	31.1	13111	100
2025-3-27 18:5:11.614	WT901BLE68-01(48591DE3C19B)	-0.317	-0.884	0.173	-21.790	-65.552	-7.996	-75.27	13.56	-114.29	-59.094	-45.276	-7.938	0.52063	-0.31985	0.50723	-0.60764	31.1	13111	100
2025-3-27 18:5:11.614	WT901BLE68-01(48591DE3C19B)	-0.317	-0.837	0.185	-22.400	-66.895	-6.592	-75.37	13.36	-113.63	-59.094	-45.276	-7.938	0.52063	-0.31985	0.50723	-0.60764	31.1	13111	100
2025-3-27 18:5:11.645	WT901BLE68-01(48591DE3C19B)	-0.313	-0.837	0.185	-22.400	-66.895	-6.592	-75.46	13.17	-112.97	-59.094	-45.276	-7.938	0.52063	-0.31985	0.50723	-0.60764	31.1	13111	100
2025-3-27 18:5:11.645	WT901BLE68-01(48591DE3C19B)	-0.313	-0.806	0.200	-23.254	-70.496	-2.625	-75.56	13.00	-112.29	-59.094	-45.276	-7.938	0.52063	-0.31985	0.50723	-0.60764	31.1	13111	100
2025-3-27 18:5:11.646	WT901BLE68-01(48591DE3C19B)	-0.297	-0.806	0.200	-23.254	-70.496	-2.625	-75.65	12.84	-111.59	-59.094	-45.276	-7.938	0.52063	-0.31985	0.50723	-0.60764	31.1	13111	100
2025-3-27 18:5:11.646	WT901BLE68-01(48591DE3C19B)	-0.297	-0.770	0.200	-21.545	-75.134	0.549	-75.73	12.69	-110.87	-59.094	-45.276	-7.938	0.52063	-0.31985	0.50723	-0.60764	31.1	13111	100
2025-3-27 18:5:11.674	WT901BLE68-01(48591DE3C19B)	-0.281	-0.770	0.200	-21.545	-75.134	0.549	-75.80	12.56	-110.12	-59.094	-45.276	-7.938	0.52063	-0.31985	0.50723	-0.60764	31.1	13111	100
2025-3-27 18:5:11.674	WT901BLE68-01(48591DE3C19B)	-0.281	-0.742	0.194	-20.630	-79.346	1.831	-75.86	12.43	-109.35	-59.094	-45.276	-7.938	0.52063	-0.31985	0.50723	-0.60764	31.1	13111	100
2025-3-27 18:5:11.674	WT901BLE68-01(48591DE3C19B)	-0.304	-0.742	0.194	-20.630	-79.346	1.831	-75.90	12.30	-108.57	-59.094	-45.276	-7.938	0.51111	-0.28830	0.54575	-0.59808	31.1	13111	100
2025-3-27 18:5:11.675	WT901BLE68-01(48591DE3C19B)	-0.304	-0.775	0.217	-20.935	-85.205	3.662	-75.94	12.17	-107.76	-59.094	-45.276	-7.938	0.51111	-0.28830	0.54575	-0.59808	31.1	13111	100
2025-3-27 18:5:11.734	WT901BLE68-01(48591DE3C19B)	-0.310	-0.775	0.217	-20.935	-85.205	3.662	-75.98	12.05	-106.92	-59.094	-45.276	-7.938	0.51111	-0.28830	0.54575	-0.59808	31.1	13111	100
2025-3-27 18:5:11.734	WT901BLE68-01(48591DE3C19B)	-0.310	-0.864	0.199	-19.470	-92.285	1.770	-76.00	11.91	-106.06	-59.094	-45.276	-7.938	0.51111	-0.28830	0.54575	-0.59808	31.1	13111	100
2025-3-27 18:5:11.734	WT901BLE68-01(48591DE3C19B)	-0.290	-0.864	0.199	-19.470	-92.285	1.770	-76.01	11.76	-105.17	-59.094	-45.276	-7.938	0.51111	-0.28830	0.54575	-0.59808	31.1	13111	100
2025-3-27 18:5:11.734	WT901BLE68-01(48591DE3C19B)	-0.290	-0.961	0.187	-17.456	-93.506	-3.784	-76.01	11.57	-104.28	-59.094	-45.276	-7.938	0.51111	-0.28830	0.54575	-0.59808	31.1	13111	100
2025-3-27 18:5:11.763	WT901BLE68-01(48591DE3C19B)	-0.304	-0.961	0.187	-17.456	-93.506	-3.784	-76.01	11.36	-103.39	-59.094	-45.276	-7.938	0.51111	-0.28830	0.54575	-0.59808	31.1	13111	100
2025-3-27 18:5:11.764	WT901BLE68-01(48591DE3C19B)	-0.304	-1.123	0.196	-15.015	-90.393	-12.207	-76.00	11.11	-102.52	-59.094	-45.276	-7.938	0.51111	-0.28830	0.54575	-0.59808	31.1	13111	100
2025-3-27 18:5:11.764	WT901BLE68-01(48591DE3C19B)	-0.326	-1.123	0.196	-15.015	-90.393	-12.207	-76.00	10.82	-101.69	-59.094	-45.276	-7.938	0.51111	-0.28830	0.54575	-0.59808	31.1	13111	100
2025-3-27 18:5:11.764	WT901BLE68-01(48591DE3C19B)	-0.326	-1.289	0.239	-11.841	-90.027	-22.034	-75.98	10.48	-100.88	-59.094	-45.276	-7.938	0.51111	-0.28830	0.54575	-0.59808	31.1	13111	100
2025-3-27 18:5:11.798	WT901BLE68-01(48591DE3C19B)	-0.330	-1.289	0.239	-11.841	-90.027	-22.034	-75.96	10.10	-100.07	-59.094	-45.276	-7.938	0.51111	-0.28830	0.54575	-0.59808	31.1	13111	100
2025-3-27 18:5:11.799	WT901BLE68-01(48591DE3C19B)	-1.319	-1.461	0.270	-11.353	-85.205	-33.813	-75.95	9.66	-99.31	-59.094	-45.276	-7.938	0.51111	-0.28830	0.54575	-0.59808	31.1	13111	100
2025-3-27 18:5:11.799	WT901BLE68-01(48591DE3C19B)	-0.332	-5.844	1.078	-11.353	-85.205	-33.813	-75.96	9.16	-98.59	-59.094	-45.276	-7.938	0.51111	-0.28830	0.54575	-0.59808	31.1	13111	100
2025-3-27 18:5:11.799	WT901BLE68-01(48591DE3C19B)	-0.332	-1.604	0.273	-13.123	-69.580	-45.959	-76.00	8.62	-97.96	-59.094	-45.276	-7.938	0.51111	-0.28830	0.54575	-0.59808	31.1	13111	100
2025-3-27 18:5:11.854	WT901BLE68-01(48591DE3C19B)	-0.385	-1.604	0.273	-13.123	-69.580	-45.959	-76.06	8.05	-97.42	-59.094	-45.276	-7.938	0.51111	-0.28830	0.54575	-0.59808	31.1	13111	100
2025-3-27 18:5:11.855	WT901BLE68-01(48591DE3C19B)	-0.385	-1.601	0.286	-7.141	-51.941	-50.293	-76.11	7.48	-96.98	-59.094	-45.276	-7.938	0.51111	-0.28830	0.54575	-0.59808	31.1	13111	100
2025-3-27 18:5:11.855	WT901BLE68-01(48591DE3C19B)	-0.430	-1.601	0.286	-7.141	-51.941	-50.293	-76.16	6.90	-96.62	-59.094	-45.276	-7.938	0.51111	-0.28830	0.54575	-0.59808	31.1	13111	100
2025-3-27 18:5:11.855	WT901BLE68-01(48591DE3C19B)	-0.430	-1.188	0.335	-5.310	-45.776	-42.725	-76.19	6.38	-96.29	-59.094	-45.276	-7.938	0.51111	-0.28830	0.54575	-0.59808	31.1	13111	100
2025-3-27 18:5:11.883	WT901BLE68-01(48591DE3C19B)	-0.428	-1.188	0.335	-5.310	-45.776	-42.725	-76.22	5.91	-95.98	-59.094	-45.276	-7.938	0.51111	-0.28830	0.54575	-0.59808	31.1	13111	100
2025-3-27 18:5:11.883	WT901BLE68-01(48591DE3C19B)	-0.428	-0.797	0.367	-14.709	-50.232	-27.893	-76.29	5.51	-95.64	-59.094	-45.276	-7.938	0.51111	-0.28830	0.54575	-0.59808	31.1	13111	100
2025-3-27 18:5:11.883	WT901BLE68-01(48591DE3C19B)	-0.474	-0.797	0.367	-14.709	-50.232	-27.893	-76.40	5.18	-95.26	-59.094	-45.276	-7.938	0.51111	-0.28830	0.54575	-0.59808	31.1	13111	100
2025-3-27 18:5:11.884	WT901BLE68-01(48591DE3C19B)	-0.474	-0.629	0.364	-27.405	-71.899	-8.057	-76.56	4.93	-94.76	-74.872	-41.552	-5.292	0.51111	-0.28830	0.54575	-0.59808	31.1	13111	100
2025-3-27 18:5:11.944	WT901BLE68-01(48591DE3C19B)	-0.489	-0.629	0.364	-27.405	-71.899	-8.057	-76.77	4.76	-94.13	-74.872	-41.552	-5.292	0.51111	-0.28830	0.54575	-0.59808	31.1	13111	100
2025-3-27 18:5:11.944	WT901BLE68-01(48591DE3C19B)	-0.489	-0.694	0.347	-34.302	-109.436	17.090	-76.99	4.68	-93.30	-74.872	-41.552	-5.292	0.51111	-0.28830	0.54575	-0.59808	31.1	13111	100
2025-3-27 18:5:11.944	WT901BLE68-01(48591DE3C19B)	-0.404	-0.694	0.347	-34.302	-109.436	17.090	-77.22	4.69	-92.26	-74.872	-41.552	-5.292	0.51111	-0.28830	0.54575	-0.59808	31.1	13111	100
2025-3-27 18:5:11.944	WT901BLE68-01(48591DE3C19B)	-0.404	-0.792	0.303	-30.945	-142.578	42.908	-77.38	4.88	-90.85	-74.872	-41.552	-5.292	0.51111	-0.28830	0.54575	-0.59808	31.1	13111	100
2025-3-27 18:5:11.975	WT901BLE68-01(48591DE3C19B)	-0.314	-0.792	0.303	-30.945	-142.578	42.908	-77.53	5.08	-89.45	-74.872	-41.552	-5.292	0.51111	-0.28830	0.54575	-0.59808	31.1	13111	100
2025-3-27 18:5:11.975	WT901BLE68-01(48591DE3C19B)	-0.314	-0.911	0.226	-20.142	-155.762	68.054	-77.54	5.49	-87.86	-74.872	-41.552	-5.292	0.51111	-0.28830	0.54575	-0.59808	31.1	13111	100
2025-3-27 18:5:11.975	WT901BLE68-01(48591DE3C19B)	-0.249	-0.911	0.226	-20.142	-155.762	68.054	-77.55	5.90	-86.28	-74.872	-41.552	-5.292	0.51111	-0.28830	0.54575	-0.59808	31.1	13111	100
2025-3-27 18:5:11.975	WT901BLE68-01(48591DE3C19B)	-0.249	-1.012	0.158	-6.165	-152.832	88.867	-77.40	6.51	-84.69	-74.872	-41.552	-5.292	0.51111	-0.28830	0.54575	-0.59808	31.1	13111	100
2025-3-27 18:5:12.35	WT901BLE68-01(48591DE3C19B)	-0.159	-1.012	0.158	-6.165	-152.832	88.867	-77.23	7.11	-83.09	-74.872	-41.552	-5.292	0.51111	-0.28830	0.54575	-0.59808	31.1	13111	100
2025-3-27 18:5:12.35	WT901BLE68-01(48591DE3C19B)	-0.159	-1.089	0.121	11.475	-139.404	103.088	-76.90	7.87	-81.59	-74.872	-41.552	-5.292	0.51111	-0.28830	0.54575	-0.59808	31.1	13111	100
2025-3-27 18:5:12.35	WT901BLE68-01(48591DE3C19B)	-0.018	-1.089	0.121	11.475	-139.404	103.088	-76.54	8.60	-80.08	-74.872	-41.552	-5.292	0.51111	-0.28830	0.54575	-0.59808	31.1	13111	100
2025-3-27 18:5:12.35	WT901BLE68-01(48591DE3C19B)	-0.018	-1.114	0.120	28.931	-112.305	110.596	-76.04	9.45	-78.82	-74.872	-41.552	-5.292	0.51111	-0.28830	0.54575	-0.59808	31.1	13111	100
2025-3-27 18:5:12.64	WT901BLE68-01(48591DE3C19B)	0.068	-1.114	0.120	28.931	-112.305	110.596	-75.53	10.28	-77.55	-74.872	-41.552	-5.292	0.51111	-0.28830	0.54575	-0.59808	31.1	13111	100
2025-3-27 18:5:12.64	WT901BLE68-01(48591DE3C19B)	0.068	-1.105	0.156	44.739	-75.439	116.516	-74.90	11.23	-76.61	-74.872	-41.552	-5.292	0.51111	-0.28830	0.54575	-0.59808	31.1	13111	100
2025-3-27 18:5:12.64	WT901BLE68-01(48591DE3C19B)	0.114	-1.105	0.156	44.739	-75.439	116.516	-74.26	12.15	-75.66	-74.872	-41.552	-5.292	0.51111	-0.28830	0.54575	-0.59808	31.1	13111	100
2025-3-27 18:5:12.64	WT901BLE68-01(48591DE3C19B)	0.114	-1.097	0.204	55.603	-32.593	118.042	-73.60	13.18	-75.11	-74.872	-41.552	-5.292	0.51111	-0.28830	0.54575	-0.59808	31.1	13111	100
2025-3-27 18:5:12.98	WT901BLE68-01(48591DE3C19B)	0.104	-1.097	0.204	55.603	-32.593	118.042	-72.92	14.19	-74.56	-74.872	-41.552	-5.292	0.68207	-0.40466	0.43793	-0.42325	31.1	13111	100
2025-3-27 18:5:12.98	WT901BLE68-01(48591DE3C19B)	0.104	-1.089	0.240	60.974	16.785	119.080	-72.31	15.33	-74.47	-74.872	-41.552	-5.292	0.68207	-0.40466	0.43793	-0.42325	31.1	13111	100
2025-3-27 18:5:12.98	WT901BLE68-01(48591DE3C19B)	0.050	-1.089	0.240	60.974	16.785	119.080	-71.69	16.46	-74.37	-74.872	-41.552	-5.292	0.68207	-0.40466	0.43793	-0.42325	31.1	13111	100
2025-3-27 18:5:12.98	WT901BLE68-01(48591DE3C19B)	0.050	-1.105	0.247	62.195	65.063	119.019	-71.20	17.73	-74.74	-74.872	-41.552	-5.292	0.68207	-0.40466	0.43793	-0.42325	31.1	13111	100
2025-3-27 18:5:12.124	WT901BLE68-01(48591DE3C19B)	-0.048	-1.105	0.247	62.195	65.063	119.019	-70.71	18.99	-75.09	-74.872	-41.552	-5.292	0.68207	-0.40466	0.43793	-0.42325	31.1	13111	100
2025-3-27 18:5:12.124	WT901BLE68-01(48591DE3C19B)	-0.048	-1.085	0.268	59.937	107.666	118.958	-70.40	20.39	-75.86	-74.872	-41.552	-5.292	0.68207	-0.40466	0.43793	-0.42325	31.1	13111	100
2025-3-27 18:5:12.124	WT901BLE68-01(48591DE3C19B)	-0.161	-1.085	0.268	59.937	107.666	118.958	-70.10	21.77	-76.63	-74.872	-41.552	-5.292	0.68207	-0.40466	0.43793	-0.42325	31.1	13111	100
2025-3-27 18:5:12.124	WT901BLE68-01(48591DE3C19B)	-0.161	-1.076	0.300	53.650	130.920	120.300	-69.97	23.24	-77.62	-74.872	-41.552	-5.292	0.68207	-0.40466	0.43793	-0.42325	31.1	13111	100
2025-3-27 18:5:12.214	WT901BLE68-01(48591DE3C19B)	-0.210	-1.076	0.300	53.650	130.920	120.300	-69.86	24.71	-78.62	-74.872	-41.552	-5.292	0.68207	-0.40466	0.43793	-0.42325	31.1	13111	100
2025-3-27 18:5:12.214	WT901BLE68-01(48591DE3C19B)	-0.210	-1.048	0.297	44.434	133.789	118.774	-69.88	26.17	-79.67	-74.872	-41.552	-5.292	0.68207	-0.40466	0.43793	-0.42325	31.1	13111	100
2025-3-27 18:5:12.214	WT901BLE68-01(48591DE3C19B)	-0.114	-1.048	0.297	44.434	133.789	118.774	-69.93	27.62	-80.72	-74.872	-41.552	-5.292	0.68207	-0.40466	0.43793	-0.42325	31.1	13111	100
2025-3-27 18:5:12.214	WT901BLE68-01(48591DE3C19B)	-0.114	-0.931	0.265	34.424	120.178	111.450	-70.05	28.95	-81.66	-74.872	-41.552	-5.292	0.68207	-0.40466	0.43793	-0.42325	31.1	13111	100
2025-3-27 18:5:12.215	WT901BLE68-01(48591DE3C19B)	-0.048	-0.931	0.265	34.424	120.178	111.450	-70.20	30.27	-82.62	-74.872	-41.552	-5.292	0.68207	-0.40466	0.43793	-0.42325	31.1	13111	100
2025-3-27 18:5:12.215	WT901BLE68-01(48591DE3C19B)	-0.048	-0.807	0.250	21.729	98.877	104.492	-70.38	31.44	-83.38	-74.872	-41.552	-5.292	0.68207	-0.40466	0.43793	-0.42325	31.1	13111	100
2025-3-27 18:5:12.215	WT901BLE68-01(48591DE3C19B)	-0.043	-0.807	0.250	21.729	98.877	104.492	-70.59	32.60	-84.16	-74.872	-41.552	-5.292	0.68207	-0.40466	0.43793	-0.42325	31.1	13111	100
2025-3-27 18:5:12.215	WT901BLE68-01(48591DE3C19B)	-0.043	-0.767	0.264	10.254	71.411	93.201	-70.77	33.55	-84.68	-74.872	-41.552	-5.292	0.68207	-0.40466	0.43793	-0.42325	31.1	13111	100
2025-3-27 18:5:12.244	WT901BLE68-01(48591DE3C19B)	0.023	-0.767	0.264	10.254	71.411	93.201	-70.97	34.49	-85.21	-74.872	-41.552	-5.292	0.68207	-0.40466	0.43793	-0.42325	31.1	13111	100
2025-3-27 18:5:12.244	WT901BLE68-01(48591DE3C19B)	0.023	-0.792	0.274	5.066	43.884	75.867	-71.09	35.18	-85.50	-74.872	-41.552	-5.292	0.68207	-0.40466	0.43793	-0.42325	31.1	13111	100
2025-3-27 18:5:12.244	WT901BLE68-01(48591DE3C19B)	0.061	-0.792	0.274	5.066	43.884	75.867	-71.20	35.85	-85.79	-74.872	-41.552	-5.292	0.68207	-0.40466	0.43793	-0.42325	31.1	13111	100
2025-3-27 18:5:12.245	WT901BLE68-01(48591DE3C19B)	0.061	-0.798	0.283	5.432	31.616	57.800	-71.27	36.31	-86.01	-74.872	-41.552	-5.292	0.68207	-0.40466	0.43793	-0.42325	31.1	13111	100
2025-3-27 18:5:12.334	WT901BLE68-01(48591DE3C19B)	0.064	-0.798	0.283	5.432	31.616	57.800	-71.35	36.76	-86.24	-74.872	-41.552	-5.292	0.68207	-0.40466	0.43793	-0.42325	31.1	13111	100
2025-3-27 18:5:12.334	WT901BLE68-01(48591DE3C19B)	0.064	-0.815	0.272	8.301	31.189	34.912	-71.44	36.99	-86.55	-81.340	-30.478	-1.862	0.68207	-0.40466	0.43793	-0.42325	31.1	13111	100
2025-3-27 18:5:12.334	WT901BLE68-01(48591DE3C19B)	0.088	-0.815	0.272	8.301	31.189	34.912	-71.54	37.21	-86.86	-81.340	-30.478	-1.862	0.68207	-0.40466	0.43793	-0.42325	31.1	13111	100
2025-3-27 18:5:12.334	WT901BLE68-01(48591DE3C19B)	0.088	-0.843	0.265	12.024	33.264	10.498	-71.67	37.20	-87.30	-81.340	-30.478	-1.862	0.68207	-0.40466	0.43793	-0.42325	31.1	13111	100
2025-3-27 18:5:12.335	WT901BLE68-01(48591DE3C19B)	0.106	-0.843	0.265	12.024	33.264	10.498	-71.80	37.19	-87.73	-81.340	-30.478	-1.862	0.68207	-0.40466	0.43793	-0.42325	31.1	13111	100
2025-3-27 18:5:12.335	WT901BLE68-01(48591DE3C19B)	0.106	-0.883	0.248	16.724	37.537	-14.221	-71.97	36.95	-88.30	-81.340	-30.478	-1.862	0.68207	-0.40466	0.43793	-0.42325	31.1	13111	100
2025-3-27 18:5:12.335	WT901BLE68-01(48591DE3C19B)	0.080	-0.883	0.248	16.724	37.537	-14.221	-72.13	36.71	-88.87	-81.340	-30.478	-1.862	0.68207	-0.40466	0.43793	-0.42325	31.1	13111	100
2025-3-27 18:5:12.335	WT901BLE68-01(48591DE3C19B)	0.080	-0.881	0.248	23.376	43.823	-36.377	-72.32	36.28	-89.59	-81.340	-30.478	-1.862	0.68207	-0.40466	0.43793	-0.42325	31.1	13111	100
2025-3-27 18:5:12.363	WT901BLE68-01(48591DE3C19B)	-0.020	-0.881	0.248	23.376	43.823	-36.377	-72.49	35.84	-90.30	-81.340	-30.478	-1.862	0.68207	-0.40466	0.43793	-0.42325	31.1	13111	100
2025-3-27 18:5:12.363	WT901BLE68-01(48591DE3C19B)	-0.020	-0.881	0.279	28.809	49.438	-56.519	-72.69	35.23	-91.15	-81.340	-30.478	-1.862	0.68207	-0.40466	0.43793	-0.42325	31.1	13111	100
2025-3-27 18:5:12.363	WT901BLE68-01(48591DE3C19B)	-0.118	-0.881	0.279	28.809	49.438	-56.519	-72.87	34.63	-91.97	-81.340	-30.478	-1.862	0.68207	-0.40466	0.43793	-0.42325	31.1	13111	100
2025-3-27 18:5:12.363	WT901BLE68-01(48591DE3C19B)	-0.161	-0.901	0.332	36.560	49.011	-76.050	-72.99	33.84	-92.86	-81.340	-30.478	-1.862	0.68207	-0.40466	0.43793	-0.42325	31.1	13111	100
2025-3-27 18:5:12.424	WT901BLE68-01(48591DE3C19B)	-0.161	-0.967	0.332	45.410	48.340	-96.924	-73.06	32.96	-93.75	-81.340	-30.478	-1.862	0.68207	-0.40466	0.43793	-0.42325	31.1	13111	100
2025-3-27 18:5:12.424	WT901BLE68-01(48591DE3C19B)	-0.187	-0.967	0.332	45.410	48.340	-96.924	-73.09	31.99	-94.67	-81.340	-30.478	-1.862	0.68207	-0.40466	0.43793	-0.42325	31.1	13111	100
2025-3-27 18:5:12.424	WT901BLE68-01(48591DE3C19B)	-0.187	-1.123	0.257	53.040	55.664	-118.530	-73.10	30.93	-95.65	-81.340	-30.478	-1.862	0.68207	-0.40466	0.43793	-0.42325	31.1	13111	100
2025-3-27 18:5:12.424	WT901BLE68-01(48591DE3C19B)	-0.237	-1.123	0.257	53.040	55.664	-118.530	-73.09	29.80	-96.69	-81.340	-30.478	-1.862	0.68207	-0.40466	0.43793	-0.42325	31.1	13111	100
2025-3-27 18:5:12.462	WT901BLE68-01(48591DE3C19B)	-0.237	-1.309	0.172	62.500	71.716	-140.625	-73.08	28.59	-97.84	-81.340	-30.478	-1.862	0.68207	-0.40466	0.43793	-0.42325	31.1	13111	100
2025-3-27 18:5:12.462	WT901BLE68-01(48591DE3C19B)	-0.373	-1.309	0.172	62.500	71.716	-140.625	-73.04	27.32	-99.09	-81.340	-30.478	-1.862	0.68207	-0.40466	0.43793	-0.42325	31.1	13111	100
2025-3-27 18:5:12.462	WT901BLE68-01(48591DE3C19B)	-0.373	-1.358	0.135	74.768	86.731	-155.823	-72.98	26.01	-100.43	-81.340	-30.478	-1.862	0.68207	-0.40466	0.43793	-0.42325	31.1	13111	100
2025-3-27 18:5:12.462	WT901BLE68-01(48591DE3C19B)	-0.470	-1.358	0.135	74.768	86.731	-155.823	-72.86	24.66	-101.84	-81.340	-30.478	-1.862	0.68207	-0.40466	0.43793	-0.42325	31.1	13111	100
2025-3-27 18:5:12.515	WT901BLE68-01(48591DE3C19B)	-0.470	-1.239	0.134	81.116	97.900	-161.865	-72.71	23.32	-103.31	-81.340	-30.478	-1.862	0.68207	-0.40466	0.43793	-0.42325	31.1	13111	100
2025-3-27 18:5:12.515	WT901BLE68-01(48591DE3C19B)	-0.489	-1.239	0.134	81.116	97.900	-161.865	-72.53	21.99	-104.83	-81.340	-30.478	-1.862	0.68207	-0.40466	0.43793	-0.42325	31.1	13111	100
2025-3-27 18:5:12.515	WT901BLE68-01(48591DE3C19B)	-0.489	-1.194	0.124	77.271	109.375	-161.133	-72.35	20.70	-106.38	-81.340	-30.478	-1.862	0.55469	-0.23132	0.55087	-0.57898	31.1	13111	100
2025-3-27 18:5:12.515	WT901BLE68-01(48591DE3C19B)	-0.476	-1.194	0.124	77.271	109.375	-161.133	-72.18	19.45	-107.98	-81.340	-30.478	-1.862	0.55469	-0.23132	0.55087	-0.57898	31.1	13111	100
2025-3-27 18:5:12.551	WT901BLE68-01(48591DE3C19B)	-0.476	-1.209	0.097	75.562	119.812	-155.518	-72.00	18.26	-109.60	-81.340	-30.478	-1.862	0.55469	-0.23132	0.55087	-0.57898	31.1	13111	100
2025-3-27 18:5:12.551	WT901BLE68-01(48591DE3C19B)	-0.500	-1.209	0.097	75.562	119.812	-155.518	-71.81	17.13	-111.25	-81.340	-30.478	-1.862	0.55469	-0.23132	0.55087	-0.57898	31.1	13111	100
2025-3-27 18:5:12.551	WT901BLE68-01(48591DE3C19B)	-0.500	-1.191	0.046	71.411	116.394	-145.020	-71.61	16.06	-112.85	-81.340	-30.478	-1.862	0.55469	-0.23132	0.55087	-0.57898	31.1	13111	100
2025-3-27 18:5:12.551	WT901BLE68-01(48591DE3C19B)	-0.492	-1.191	0.046	71.411	116.394	-145.020	-71.39	15.05	-114.40	-81.340	-30.478	-1.862	0.55469	-0.23132	0.55087	-0.57898	31.1	13111	100
2025-3-27 18:5:12.575	WT901BLE68-01(48591DE3C19B)	-0.492	-1.148	0.012	62.866	105.652	-135.986	-71.18	14.08	-115.87	-81.340	-30.478	-1.862	0.55469	-0.23132	0.55087	-0.57898	31.1	13111	100
2025-3-27 18:5:12.575	WT901BLE68-01(48591DE3C19B)	-0.484	-1.148	0.012	62.866	105.652	-135.986	-70.98	13.15	-117.26	-81.340	-30.478	-1.862	0.55469	-0.23132	0.55087	-0.57898	31.1	13111	100
2025-3-27 18:5:12.575	WT901BLE68-01(48591DE3C19B)	-0.484	-1.063	-0.013	50.903	108.826	-127.441	-70.81	12.28	-118.65	-81.340	-30.478	-1.862	0.55469	-0.23132	0.55087	-0.57898	31.1	13111	100
2025-3-27 18:5:12.575	WT901BLE68-01(48591DE3C19B)	-0.561	-1.063	-0.013	50.903	108.826	-127.441	-70.69	11.46	-120.01	-81.340	-30.478	-1.862	0.55469	-0.23132	0.55087	-0.57898	31.1	13111	100
2025-3-27 18:5:12.603	WT901BLE68-01(48591DE3C19B)	-0.561	-0.964	-0.025	37.109	118.835	-118.469	-70.64	10.71	-121.41	-81.340	-30.478	-1.862	0.55469	-0.23132	0.55087	-0.57898	31.1	13111	100
2025-3-27 18:5:12.603	WT901BLE68-01(48591DE3C19B)	-0.607	-0.964	-0.025	37.109	118.835	-118.469	-70.64	10.03	-122.83	-81.340	-30.478	-1.862	0.55469	-0.23132	0.55087	-0.57898	31.1	13111	100
2025-3-27 18:5:12.603	WT901BLE68-01(48591DE3C19B)	-0.607	-0.882	0.006	25.696	117.981	-108.582	-70.68	9.40	-124.21	-81.340	-30.478	-1.862	0.55469	-0.23132	0.55087	-0.57898	31.1	13111	100
2025-3-27 18:5:12.603	WT901BLE68-01(48591DE3C19B)	-0.624	-0.882	0.006	25.696	117.981	-108.582	-70.76	8.83	-125.56	-81.340	-30.478	-1.862	0.55469	-0.23132	0.55087	-0.57898	31.1	13111	100
2025-3-27 18:5:12.664	WT901BLE68-01(48591DE3C19B)	-0.624	-0.828	0.032	16.968	102.844	-98.267	-70.87	8.28	-126.82	-81.340	-30.478	-1.862	0.55469	-0.23132	0.55087	-0.57898	31.1	13111	100
2025-3-27 18:5:12.665	WT901BLE68-01(48591DE3C19B)	-0.651	-0.828	0.032	16.968	102.844	-98.267	-70.99	7.77	-127.97	-81.340	-30.478	-1.862	0.55469	-0.23132	0.55087	-0.57898	31.1	13111	100
2025-3-27 18:5:12.665	WT901BLE68-01(48591DE3C19B)	-0.651	-0.829	0.026	10.254	78.430	-89.844	-71.11	7.27	-129.00	-81.340	-30.478	-1.862	0.55469	-0.23132	0.55087	-0.57898	31.1	13111	100
2025-3-27 18:5:12.665	WT901BLE68-01(48591DE3C19B)	-0.692	-0.829	0.026	10.254	78.430	-89.844	-71.25	6.77	-129.89	-81.340	-30.478	-1.862	0.55469	-0.23132	0.55087	-0.57898	31.1	13111	100
2025-3-27 18:5:12.698	WT901BLE68-01(48591DE3C19B)	-0.692	-0.853	-0.009	6.531	49.622	-82.764	-71.38	6.26	-130.62	-81.340	-30.478	-1.862	0.55469	-0.23132	0.55087	-0.57898	31.1	13111	100
2025-3-27 18:5:12.698	WT901BLE68-01(48591DE3C19B)	-0.697	-0.853	-0.009	6.531	49.622	-82.764	-71.51	5.75	-131.20	-81.340	-30.478	-1.862	0.55469	-0.23132	0.55087	-0.57898	31.1	13111	100
2025-3-27 18:5:12.698	WT901BLE68-01(48591DE3C19B)	-0.697	-0.848	-0.048	4.517	19.836	-76.294	-71.63	5.23	-131.64	-81.340	-30.478	-1.862	0.55469	-0.23132	0.55087	-0.57898	31.1	13111	100
2025-3-27 18:5:12.698	WT901BLE68-01(48591DE3C19B)	-0.688	-0.848	-0.048	4.517	19.836	-76.294	-71.75	4.70	-131.91	-50.078	-46.256	-4.802	0.55469	-0.23132	0.55087	-0.57898	31.1	13111	100
2025-3-27 18:5:12.723	WT901BLE68-01(48591DE3C19B)	-0.688	-0.829	-0.066	-0.549	-10.254	-68.970	-71.88	4.16	-132.03	-50.078	-46.256	-4.802	0.55469	-0.23132	0.55087	-0.57898	31.1	13111	100
2025-3-27 18:5:12.723	WT901BLE68-01(48591DE3C19B)	-0.669	-0.829	-0.066	-0.549	-10.254	-68.970	-72.02	3.62	-131.98	-50.078	-46.256	-4.802	0.55469	-0.23132	0.55087	-0.57898	31.1	13111	100
2025-3-27 18:5:12.723	WT901BLE68-01(48591DE3C19B)	-0.669	-0.833	-0.047	-7.568	-38.330	-60.425	-72.20	3.08	-131.79	-50.078	-46.256	-4.802	0.55469	-0.23132	0.55087	-0.57898	31.1	13111	100
2025-3-27 18:5:12.723	WT901BLE68-01(48591DE3C19B)	-0.647	-0.833	-0.047	-7.568	-38.330	-60.425	-72.40	2.55	-131.45	-50.078	-46.256	-4.802	0.55469	-0.23132	0.55087	-0.57898	31.1	13111	100
2025-3-27 18:5:12.783	WT901BLE68-01(48591DE3C19B)	-0.647	-0.855	0.012	-14.465	-64.209	-49.927	-72.63	2.03	-130.96	-50.078	-46.256	-4.802	0.55469	-0.23132	0.55087	-0.57898	31.1	13111	100
2025-3-27 18:5:12.784	WT901BLE68-01(48591DE3C19B)	-0.634	-0.855	0.012	-14.465	-64.209	-49.927	-72.89	1.53	-130.35	-50.078	-46.256	-4.802	0.55469	-0.23132	0.55087	-0.57898	31.1	13111	100
2025-3-27 18:5:12.784	WT901BLE68-01(48591DE3C19B)	-0.634	-0.876	0.088	-19.836	-87.891	-37.170	-73.19	1.07	-129.60	-50.078	-46.256	-4.802	0.55469	-0.23132	0.55087	-0.57898	31.1	13111	100
2025-3-27 18:5:12.784	WT901BLE68-01(48591DE3C19B)	-0.590	-0.876	0.088	-19.836	-87.891	-37.170	-73.49	0.65	-128.73	-50.078	-46.256	-4.802	0.55469	-0.23132	0.55087	-0.57898	31.1	13111	100
2025-3-27 18:5:12.813	WT901BLE68-01(48591DE3C19B)	-0.590	-0.882	0.144	-23.560	-102.783	-24.048	-73.82	0.27	-127.79	-50.078	-46.256	-4.802	0.55469	-0.23132	0.55087	-0.57898	31.1	13111	100
2025-3-27 18:5:12.813	WT901BLE68-01(48591DE3C19B)	-0.530	-0.882	0.144	-23.560	-102.783	-24.048	-74.16	-0.04	-126.76	-50.078	-46.256	-4.802	0.55469	-0.23132	0.55087	-0.57898	31.1	13111	100
2025-3-27 18:5:12.814	WT901BLE68-01(48591DE3C19B)	-0.530	-0.892	0.163	-26.306	-105.225	-10.681	-74.50	-0.30	-125.72	-50.078	-46.256	-4.802	0.55469	-0.23132	0.55087	-0.57898	31.1	13111	100
2025-3-27 18:5:12.814	WT901BLE68-01(48591DE3C19B)	-0.486	-0.892	0.163	-26.306	-105.225	-10.681	-74.86	-0.48	-124.65	-50.078	-46.256	-4.802	0.55469	-0.23132	0.55087	-0.57898	31.1	13111	100
2025-3-27 18:5:12.844	WT901BLE68-01(48591DE3C19B)	-0.486	-0.924	0.162	-27.344	-99.915	2.075	-75.22	-0.59	-123.60	-50.078	-46.256	-4.802	0.55469	-0.23132	0.55087	-0.57898	31.1	13111	100
2025-3-27 18:5:12.844	WT901BLE68-01(48591DE3C19B)	-0.468	-0.924	0.162	-27.344	-99.915	2.075	-75.57	-0.63	-122.56	-50.078	-46.256	-4.802	0.55469	-0.23132	0.55087	-0.57898	31.1	13111	100
2025-3-27 18:5:12.845	WT901BLE68-01(48591DE3C19B)	-0.468	-0.951	0.163	-26.672	-94.238	13.977	-75.92	-0.53	-121.55	-50.078	-46.256	-4.802	0.55469	-0.23132	0.55087	-0.57898	31.1	13111	100
2025-3-27 18:5:12.845	WT901BLE68-01(48591DE3C19B)	-0.458	-0.951	0.163	-26.672	-94.238	13.977	-76.25	-0.43	-120.55	-50.078	-46.256	-4.802	0.55469	-0.23132	0.55087	-0.57898	31.1	13111	100
2025-3-27 18:5:12.904	WT901BLE68-01(48591DE3C19B)	-0.458	-0.970	0.171	-25.818	-91.187	25.330	-76.57	-0.22	-119.55	-50.078	-46.256	-4.802	0.55469	-0.23132	0.55087	-0.57898	31.1	13111	100
2025-3-27 18:5:12.904	WT901BLE68-01(48591DE3C19B)	-0.464	-0.970	0.171	-25.818	-91.187	25.330	-76.88	-0.01	-118.56	-50.078	-46.256	-4.802	0.40005	-0.31760	0.53442	-0.67334	31.1	13111	100
2025-3-27 18:5:12.904	WT901BLE68-01(48591DE3C19B)	-0.464	-0.989	0.180	-24.475	-91.797	36.316	-77.16	0.31	-117.54	-50.078	-46.256	-4.802	0.40005	-0.31760	0.53442	-0.67334	31.1	13111	100
2025-3-27 18:5:12.904	WT901BLE68-01(48591DE3C19B)	-0.487	-0.989	0.180	-24.475	-91.797	36.316	-77.44	0.64	-116.53	-50.078	-46.256	-4.802	0.40005	-0.31760	0.53442	-0.67334	31.1	13111	100
2025-3-27 18:5:12.934	WT901BLE68-01(48591DE3C19B)	-0.487	-1.029	0.197	-23.560	-99.487	46.509	-77.70	1.04	-115.42	-50.078	-46.256	-4.802	0.40005	-0.31760	0.53442	-0.67334	31.1	13111	100
2025-3-27 18:5:12.934	WT901BLE68-01(48591DE3C19B)	-0.499	-1.029	0.197	-23.560	-99.487	46.509	-77.94	1.45	-114.32	-50.078	-46.256	-4.802	0.40005	-0.31760	0.53442	-0.67334	31.1	13111	100
2025-3-27 18:5:12.934	WT901BLE68-01(48591DE3C19B)	-0.499	-1.107	0.201	-22.156	-113.037	55.847	-78.15	1.92	-113.07	-50.078	-46.256	-4.802	0.40005	-0.31760	0.53442	-0.67334	31.1	13111	100
2025-3-27 18:5:12.934	WT901BLE68-01(48591DE3C19B)	-0.488	-1.107	0.201	-22.156	-113.037	55.847	-78.35	2.38	-111.83	-50.078	-46.256	-4.802	0.40005	-0.31760	0.53442	-0.67334	31.1	13111	100
2025-3-27 18:5:12.963	WT901BLE68-01(48591DE3C19B)	-0.488	-1.196	0.150	-23.071	-128.174	62.927	-78.54	2.89	-110.43	-50.078	-46.256	-4.802	0.40005	-0.31760	0.53442	-0.67334	31.1	13111	100
2025-3-27 18:5:12.963	WT901BLE68-01(48591DE3C19B)	-0.462	-1.196	0.150	-23.071	-128.174	62.927	-78.71	3.39	-109.03	-50.078	-46.256	-4.802	0.40005	-0.31760	0.53442	-0.67334	31.1	13111	100
2025-3-27 18:5:12.963	WT901BLE68-01(48591DE3C19B)	-0.462	-1.459	0.115	-28.625	-140.259	65.247	-78.93	3.89	-107.51	-50.078	-46.256	-4.802	0.40005	-0.31760	0.53442	-0.67334	31.1	13111	100
2025-3-27 18:5:12.964	WT901BLE68-01(48591DE3C19B)	-0.437	-1.459	0.115	-28.625	-140.259	65.247	-79.13	4.38	-105.99	-50.078	-46.256	-4.802	0.40005	-0.31760	0.53442	-0.67334	31.1	13111	100
2025-3-27 18:5:13.24	WT901BLE68-01(48591DE3C19B)	-0.437	-1.733	0.111	-22.156	-145.386	68.970	-79.25	4.90	-104.41	-50.078	-46.256	-4.802	0.40005	-0.31760	0.53442	-0.67334	31.1	13111	100
2025-3-27 18:5:13.24	WT901BLE68-01(48591DE3C19B)	-0.400	-1.733	0.111	-22.156	-145.386	68.970	-79.35	5.41	-102.83	-50.078	-46.256	-4.802	0.40005	-0.31760	0.53442	-0.67334	31.1	13111	100
2025-3-27 18:5:13.24	WT901BLE68-01(48591DE3C19B)	-0.400	-1.404	0.168	-3.418	-149.170	83.008	-79.26	6.04	-101.19	-50.078	-46.256	-4.802	0.40005	-0.31760	0.53442	-0.67334	31.1	13111	100
2025-3-27 18:5:13.24	WT901BLE68-01(48591DE3C19B)	-0.312	-1.404	0.168	-3.418	-149.170	83.008	-79.13	6.66	-99.56	-50.078	-46.256	-4.802	0.40005	-0.31760	0.53442	-0.67334	31.1	13111	100
2025-3-27 18:5:13.54	WT901BLE68-01(48591DE3C19B)	-0.312	-0.980	0.187	-9.949	-147.644	104.736	-79.06	7.49	-97.90	-50.078	-46.256	-4.802	0.40005	-0.31760	0.53442	-0.67334	31.1	13111	100
2025-3-27 18:5:13.54	WT901BLE68-01(48591DE3C19B)	-0.262	-0.980	0.187	-9.949	-147.644	104.736	-78.95	8.31	-96.25	-50.078	-46.256	-4.802	0.40005	-0.31760	0.53442	-0.67334	31.1	13111	100
2025-3-27 18:5:13.54	WT901BLE68-01(48591DE3C19B)	-0.262	-0.858	0.210	-17.822	-137.390	127.563	-78.90	9.36	-94.65	-50.078	-46.256	-4.802	0.40005	-0.31760	0.53442	-0.67334	31.1	13111	100
2025-3-27 18:5:13.55	WT901BLE68-01(48591DE3C19B)	-0.240	-0.858	0.210	-17.822	-137.390	127.563	-78.82	10.40	-93.05	-50.078	-46.256	-4.802	0.40005	-0.31760	0.53442	-0.67334	31.1	13111	100
2025-3-27 18:5:13.114	WT901BLE68-01(48591DE3C19B)	-0.240	-1.026	0.195	-20.996	-127.319	149.170	-78.74	11.67	-91.52	-50.078	-46.256	-4.802	0.40005	-0.31760	0.53442	-0.67334	31.1	13111	100
2025-3-27 18:5:13.114	WT901BLE68-01(48591DE3C19B)	-0.125	-1.026	0.195	-20.996	-127.319	149.170	-78.63	12.91	-89.98	-50.078	-46.256	-4.802	0.40005	-0.31760	0.53442	-0.67334	31.1	13111	100
2025-3-27 18:5:13.114	WT901BLE68-01(48591DE3C19B)	-0.125	-1.161	0.154	-11.292	-113.831	168.762	-78.41	14.36	-88.53	-75.656	-36.652	-1.078	0.40005	-0.31760	0.53442	-0.67334	31.1	13111	100
2025-3-27 18:5:13.114	WT901BLE68-01(48591DE3C19B)	-0.050	-1.161	0.154	-11.292	-113.831	168.762	-78.15	15.79	-87.07	-75.656	-36.652	-1.078	0.40005	-0.31760	0.53442	-0.67334	31.1	13111	100
2025-3-27 18:5:13.143	WT901BLE68-01(48591DE3C19B)	-0.050	-1.242	0.101	-0.183	-93.445	181.946	-77.79	17.37	-85.77	-75.656	-36.652	-1.078	0.40005	-0.31760	0.53442	-0.67334	31.1	13111	100
2025-3-27 18:5:13.143	WT901BLE68-01(48591DE3C19B)	-0.040	-1.242	0.101	-0.183	-93.445	181.946	-77.40	18.92	-84.46	-75.656	-36.652	-1.078	0.40005	-0.31760	0.53442	-0.67334	31.1	13111	100
2025-3-27 18:5:13.143	WT901BLE68-01(48591DE3C19B)	-0.040	-1.309	0.044	9.766	-68.970	184.631	-76.95	20.53	-83.37	-75.656	-36.652	-1.078	0.40005	-0.31760	0.53442	-0.67334	31.1	13111	100
2025-3-27 18:5:13.143	WT901BLE68-01(48591DE3C19B)	-0.070	-1.309	0.044	9.766	-68.970	184.631	-76.47	22.10	-82.25	-75.656	-36.652	-1.078	0.40005	-0.31760	0.53442	-0.67334	31.1	13111	100
2025-3-27 18:5:13.173	WT901BLE68-01(48591DE3C19B)	-0.070	-1.324	0.037	19.531	-44.739	181.824	-75.96	23.69	-81.38	-75.656	-36.652	-1.078	0.40005	-0.31760	0.53442	-0.67334	31.1	13111	100
2025-3-27 18:5:13.174	WT901BLE68-01(48591DE3C19B)	-0.140	-1.324	0.037	19.531	-44.739	181.824	-75.43	25.26	-80.49	-75.656	-36.652	-1.078	0.40005	-0.31760	0.53442	-0.67334	31.1	13111	100
2025-3-27 18:5:13.174	WT901BLE68-01(48591DE3C19B)	-0.140	-1.293	0.078	25.940	-28.503	175.781	-74.89	26.79	-79.76	-75.656	-36.652	-1.078	0.40005	-0.31760	0.53442	-0.67334	31.1	13111	100
2025-3-27 18:5:13.174	WT901BLE68-01(48591DE3C19B)	-0.167	-1.293	0.078	25.940	-28.503	175.781	-74.32	28.30	-79.00	-75.656	-36.652	-1.078	0.40005	-0.31760	0.53442	-0.67334	31.1	13111	100
2025-3-27 18:5:13.203	WT901BLE68-01(48591DE3C19B)	-0.167	-1.277	0.156	28.137	-19.897	167.419	-73.77	29.74	-78.35	-75.656	-36.652	-1.078	0.40005	-0.31760	0.53442	-0.67334	31.1	13111	100
2025-3-27 18:5:13.203	WT901BLE68-01(48591DE3C19B)	-0.061	-1.277	0.156	28.137	-19.897	167.419	-73.18	31.16	-77.67	-75.656	-36.652	-1.078	0.40005	-0.31760	0.53442	-0.67334	31.1	13111	100
2025-3-27 18:5:13.203	WT901BLE68-01(48591DE3C19B)	-0.061	-1.239	0.201	29.785	-11.414	154.236	-72.63	32.47	-77.11	-75.656	-36.652	-1.078	0.40005	-0.31760	0.53442	-0.67334	31.1	13111	100
2025-3-27 18:5:13.203	WT901BLE68-01(48591DE3C19B)	0.056	-1.239	0.201	29.785	-11.414	154.236	-72.05	33.76	-76.53	-75.656	-36.652	-1.078	0.40005	-0.31760	0.53442	-0.67334	31.1	13111	100
2025-3-27 18:5:13.264	WT901BLE68-01(48591DE3C19B)	0.056	-1.100	0.212	32.349	10.620	141.296	-71.60	34.98	-76.23	-75.656	-36.652	-1.078	0.40005	-0.31760	0.53442	-0.67334	31.1	13111	100
2025-3-27 18:5:13.265	WT901BLE68-01(48591DE3C19B)	0.035	-1.100	0.212	32.349	10.620	141.296	-71.14	36.18	-75.92	-75.656	-36.652	-1.078	0.40005	-0.31760	0.53442	-0.67334	31.1	13111	100
2025-3-27 18:5:13.265	WT901BLE68-01(48591DE3C19B)	0.035	-0.972	0.196	28.198	33.630	128.052	-70.89	37.33	-75.92	-75.656	-36.652	-1.078	0.40005	-0.31760	0.53442	-0.67334	31.1	13111	100
2025-3-27 18:5:13.265	WT901BLE68-01(48591DE3C19B)	0.020	-0.972	0.196	28.198	33.630	128.052	-70.64	38.46	-75.92	-75.656	-36.652	-1.078	0.40005	-0.31760	0.53442	-0.67334	31.1	13111	100
2025-3-27 18:5:13.298	WT901BLE68-01(48591DE3C19B)	0.020	-0.926	0.205	22.644	44.800	113.098	-70.57	39.48	-76.10	-75.656	-36.652	-1.078	0.40005	-0.31760	0.53442	-0.67334	31.1	13111	100
2025-3-27 18:5:13.298	WT901BLE68-01(48591DE3C19B)	0.015	-0.926	0.205	22.644	44.800	113.098	-70.49	40.49	-76.29	-75.656	-36.652	-1.078	0.40005	-0.31760	0.53442	-0.67334	31.1	13111	100
2025-3-27 18:5:13.298	WT901BLE68-01(48591DE3C19B)	0.044	-0.966	0.195	16.663	45.227	97.595	-70.53	41.35	-76.56	-75.656	-36.652	-1.078	0.40005	-0.31760	0.53442	-0.67334	31.1	13111	100
2025-3-27 18:5:13.298	WT901BLE68-01(48591DE3C19B)	0.044	-0.994	0.142	17.212	30.579	80.872	-70.53	42.09	-76.77	-75.656	-36.652	-1.078	0.72601	-0.24026	0.56445	-0.31061	31.1	13111	100
2025-3-27 18:5:13.354	WT901BLE68-01(48591DE3C19B)	0.084	-0.994	0.142	17.212	30.579	80.872	-70.50	42.73	-76.93	-75.656	-36.652	-1.078	0.72601	-0.24026	0.56445	-0.31061	31.1	13111	100
2025-3-27 18:5:13.354	WT901BLE68-01(48591DE3C19B)	0.084	-0.954	0.103	18.921	7.568	64.880	-70.38	43.25	-76.98	-75.656	-36.652	-1.078	0.72601	-0.24026	0.56445	-0.31061	31.1	13111	100
2025-3-27 18:5:13.354	WT901BLE68-01(48591DE3C19B)	0.136	-0.954	0.103	18.921	7.568	64.880	-70.18	43.65	-76.92	-75.656	-36.652	-1.078	0.72601	-0.24026	0.56445	-0.31061	31.1	13111	100
2025-3-27 18:5:13.354	WT901BLE68-01(48591DE3C19B)	0.136	-0.934	0.102	19.226	-8.545	45.715	-69.93	43.93	-76.79	-75.656	-36.652	-1.078	0.72601	-0.24026	0.56445	-0.31061	31.1	13111	100
2025-3-27 18:5:13.414	WT901BLE68-01(48591DE3C19B)	0.183	-0.934	0.102	19.226	-8.545	45.715	-69.65	44.08	-76.61	-75.656	-36.652	-1.078	0.72601	-0.24026	0.56445	-0.31061	31.1	13111	100
2025-3-27 18:5:13.414	WT901BLE68-01(48591DE3C19B)	0.183	-0.954	0.117	19.531	-10.925	20.996	-69.40	44.10	-76.47	-75.656	-36.652	-1.078	0.72601	-0.24026	0.56445	-0.31061	31.1	13111	100
2025-3-27 18:5:13.414	WT901BLE68-01(48591DE3C19B)	0.263	-0.954	0.117	19.531	-10.925	20.996	-69.18	44.01	-76.38	-75.656	-36.652	-1.078	0.72601	-0.24026	0.56445	-0.31061	31.1	13111	100
2025-3-27 18:5:13.414	WT901BLE68-01(48591DE3C19B)	0.263	-0.895	0.138	23.071	-2.502	-6.836	-69.03	43.79	-76.42	-75.656	-36.652	-1.078	0.72601	-0.24026	0.56445	-0.31061	31.1	13111	100
2025-3-27 18:5:13.415	WT901BLE68-01(48591DE3C19B)	0.277	-0.895	0.138	23.071	-2.502	-6.836	-68.95	43.46	-76.57	-75.656	-36.652	-1.078	0.72601	-0.24026	0.56445	-0.31061	31.1	13111	100
2025-3-27 18:5:13.415	WT901BLE68-01(48591DE3C19B)	0.277	-0.827	0.171	21.790	17.212	-34.668	-69.01	43.02	-76.92	-75.656	-36.652	-1.078	0.72601	-0.24026	0.56445	-0.31061	31.1	13111	100
2025-3-27 18:5:13.415	WT901BLE68-01(48591DE3C19B)	0.221	-0.827	0.171	21.790	17.212	-34.668	-69.20	42.48	-77.46	-75.656	-36.652	-1.078	0.72601	-0.24026	0.56445	-0.31061	31.1	13111	100
2025-3-27 18:5:13.415	WT901BLE68-01(48591DE3C19B)	0.221	-0.827	0.194	20.508	41.199	-62.805	-69.53	41.86	-78.20	-75.656	-36.652	-1.078	0.72601	-0.24026	0.56445	-0.31061	31.1	13111	100
2025-3-27 18:5:13.474	WT901BLE68-01(48591DE3C19B)	0.139	-0.827	0.194	20.508	41.199	-62.805	-69.99	41.13	-79.15	-75.656	-36.652	-1.078	0.72601	-0.24026	0.56445	-0.31061	31.1	13111	100
2025-3-27 18:5:13.474	WT901BLE68-01(48591DE3C19B)	0.139	-0.861	0.191	20.508	63.110	-89.905	-70.54	40.31	-80.26	-75.656	-36.652	-1.078	0.72601	-0.24026	0.56445	-0.31061	31.1	13111	100
2025-3-27 18:5:13.474	WT901BLE68-01(48591DE3C19B)	0.040	-0.861	0.191	20.508	63.110	-89.905	-71.19	39.40	-81.53	-75.656	-36.652	-1.078	0.72601	-0.24026	0.56445	-0.31061	31.1	13111	100
2025-3-27 18:5:13.474	WT901BLE68-01(48591DE3C19B)	0.040	-0.898	0.178	21.667	78.796	-114.868	-71.88	38.39	-82.91	-75.656	-36.652	-1.078	0.72601	-0.24026	0.56445	-0.31061	31.1	13111	100
2025-3-27 18:5:13.503	WT901BLE68-01(48591DE3C19B)	-0.065	-0.898	0.178	21.667	78.796	-114.868	-72.60	37.27	-84.39	-75.656	-36.652	-1.078	0.72601	-0.24026	0.56445	-0.31061	31.1	13111	100
2025-3-27 18:5:13.503	WT901BLE68-01(48591DE3C19B)	-0.065	-0.944	0.167	24.109	86.182	-137.634	-73.31	36.06	-85.91	-75.656	-36.652	-1.078	0.72601	-0.24026	0.56445	-0.31061	31.1	13111	100
2025-3-27 18:5:13.503	WT901BLE68-01(48591DE3C19B)	-0.154	-0.944	0.167	24.109	86.182	-137.634	-73.99	34.74	-87.46	-75.656	-36.652	-1.078	0.72601	-0.24026	0.56445	-0.31061	31.1	13111	100
2025-3-27 18:5:13.503	WT901BLE68-01(48591DE3C19B)	-0.154	-0.957	0.162	26.428	84.534	-159.302	-74.61	33.32	-88.99	-81.144	-25.676	-0.980	0.72601	-0.24026	0.56445	-0.31061	31.1	13111	100
2025-3-27 18:5:13.533	WT901BLE68-01(48591DE3C19B)	-0.238	-0.957	0.162	26.428	84.534	-159.302	-75.18	31.78	-90.48	-81.144	-25.676	-0.980	0.72601	-0.24026	0.56445	-0.31061	31.1	13111	100
2025-3-27 18:5:13.533	WT901BLE68-01(48591DE3C19B)	-0.238	-1.023	0.175	25.513	76.965	-179.321	-75.68	30.16	-91.92	-81.144	-25.676	-0.980	0.72601	-0.24026	0.56445	-0.31061	31.1	13111	100
2025-3-27 18:5:13.534	WT901BLE68-01(48591DE3C19B)	-0.343	-1.023	0.175	25.513	76.965	-179.321	-76.12	28.43	-93.30	-81.144	-25.676	-0.980	0.72601	-0.24026	0.56445	-0.31061	31.1	13111	100
2025-3-27 18:5:13.534	WT901BLE68-01(48591DE3C19B)	-0.343	-1.243	0.209	23.071	67.993	-200.500	-76.50	26.60	-94.61	-81.144	-25.676	-0.980	0.72601	-0.24026	0.56445	-0.31061	31.1	13111	100
2025-3-27 18:5:13.598	WT901BLE68-01(48591DE3C19B)	-0.564	-1.243	0.209	23.071	67.993	-200.500	-76.84	24.68	-95.86	-81.144	-25.676	-0.980	0.72601	-0.24026	0.56445	-0.31061	31.1	13111	100
2025-3-27 18:5:13.599	WT901BLE68-01(48591DE3C19B)	-0.564	-1.641	0.273	23.438	45.593	-221.619	-77.07	22.64	-96.98	-81.144	-25.676	-0.980	0.72601	-0.24026	0.56445	-0.31061	31.1	13111	100
2025-3-27 18:5:13.599	WT901BLE68-01(48591DE3C19B)	-0.808	-1.641	0.273	23.438	45.593	-221.619	-77.23	20.49	-97.98	-81.144	-25.676	-0.980	0.72601	-0.24026	0.56445	-0.31061	31.1	13111	100
2025-3-27 18:5:13.599	WT901BLE68-01(48591DE3C19B)	-0.808	-1.866	0.353	36.011	10.376	-238.892	-77.23	18.25	-98.79	-81.144	-25.676	-0.980	0.72601	-0.24026	0.56445	-0.31061	31.1	13111	100
2025-3-27 18:5:13.624	WT901BLE68-01(48591DE3C19B)	-0.800	-1.866	0.353	36.011	10.376	-238.892	-77.08	15.91	-99.44	-81.144	-25.676	-0.980	0.72601	-0.24026	0.56445	-0.31061	31.1	13111	100
2025-3-27 18:5:13.624	WT901BLE68-01(48591DE3C19B)	-0.800	-1.700	0.359	49.133	-11.108	-241.394	-76.81	13.56	-99.98	-81.144	-25.676	-0.980	0.72601	-0.24026	0.56445	-0.31061	31.1	13111	100
2025-3-27 18:5:13.624	WT901BLE68-01(48591DE3C19B)	-0.591	-1.700	0.359	49.133	-11.108	-241.394	-76.44	11.20	-100.43	-81.144	-25.676	-0.980	0.72601	-0.24026	0.56445	-0.31061	31.1	13111	100
2025-3-27 18:5:13.624	WT901BLE68-01(48591DE3C19B)	-0.591	-1.497	0.245	52.185	2.686	-226.440	-76.05	8.96	-100.94	-81.144	-25.676	-0.980	0.72601	-0.24026	0.56445	-0.31061	31.1	13111	100
2025-3-27 18:5:13.654	WT901BLE68-01(48591DE3C19B)	-0.435	-1.497	0.245	52.185	2.686	-226.440	-75.63	6.82	-101.51	-81.144	-25.676	-0.980	0.72601	-0.24026	0.56445	-0.31061	31.1	13111	100
2025-3-27 18:5:13.654	WT901BLE68-01(48591DE3C19B)	-0.435	-1.402	0.121	54.871	37.109	-203.796	-75.20	4.86	-102.23	-81.144	-25.676	-0.980	0.72601	-0.24026	0.56445	-0.31061	31.1	13111	100
2025-3-27 18:5:13.654	WT901BLE68-01(48591DE3C19B)	-0.384	-1.402	0.121	54.871	37.109	-203.796	-74.75	3.07	-103.09	-81.144	-25.676	-0.980	0.72601	-0.24026	0.56445	-0.31061	31.1	13111	100
2025-3-27 18:5:13.655	WT901BLE68-01(48591DE3C19B)	-0.384	-1.321	0.077	58.533	70.801	-180.481	-74.26	1.44	-104.10	-81.144	-25.676	-0.980	0.72601	-0.24026	0.56445	-0.31061	31.1	13111	100
2025-3-27 18:5:13.714	WT901BLE68-01(48591DE3C19B)	-0.300	-1.321	0.077	58.533	70.801	-180.481	-73.73	0.00	-105.23	-81.144	-25.676	-0.980	0.72601	-0.24026	0.56445	-0.31061	31.1	13111	100
2025-3-27 18:5:13.714	WT901BLE68-01(48591DE3C19B)	-0.300	-1.175	0.089	57.068	99.304	-158.081	-73.20	-1.27	-106.48	-81.144	-25.676	-0.980	0.46970	-0.36310	0.47055	-0.65271	31.1	13111	100
2025-3-27 18:5:13.714	WT901BLE68-01(48591DE3C19B)	-0.223	-1.175	0.089	57.068	99.304	-158.081	-72.65	-2.38	-107.84	-81.144	-25.676	-0.980	0.46970	-0.36310	0.47055	-0.65271	31.1	13111	100
2025-3-27 18:5:13.714	WT901BLE68-01(48591DE3C19B)	-0.223	-1.030	0.160	52.979	141.541	-136.536	-72.08	-3.31	-109.37	-81.144	-25.676	-0.980	0.46970	-0.36310	0.47055	-0.65271	31.1	13111	100
2025-3-27 18:5:13.743	WT901BLE68-01(48591DE3C19B)	-0.316	-1.030	0.160	52.979	141.541	-136.536	-71.51	-4.05	-111.08	-81.144	-25.676	-0.980	0.46970	-0.36310	0.47055	-0.65271	31.1	13111	100
2025-3-27 18:5:13.743	WT901BLE68-01(48591DE3C19B)	-0.316	-0.916	0.184	48.706	186.768	-115.662	-70.93	-4.60	-112.97	-81.144	-25.676	-0.980	0.46970	-0.36310	0.47055	-0.65271	31.1	13111	100
2025-3-27 18:5:13.743	WT901BLE68-01(48591DE3C19B)	-0.409	-0.916	0.184	48.706	186.768	-115.662	-70.35	-4.96	-115.03	-81.144	-25.676	-0.980	0.46970	-0.36310	0.47055	-0.65271	31.1	13111	100
2025-3-27 18:5:13.743	WT901BLE68-01(48591DE3C19B)	-0.409	-0.854	0.154	45.349	228.027	-93.079	-69.75	-5.11	-117.25	-81.144	-25.676	-0.980	0.46970	-0.36310	0.47055	-0.65271	31.1	13111	100
2025-3-27 18:5:13.773	WT901BLE68-01(48591DE3C19B)	-0.495	-0.854	0.154	45.349	228.027	-93.079	-69.17	-5.06	-119.62	-81.144	-25.676	-0.980	0.46970	-0.36310	0.47055	-0.65271	31.1	13111	100
2025-3-27 18:5:13.774	WT901BLE68-01(48591DE3C19B)	-0.495	-0.846	0.098	43.091	249.329	-73.853	-68.60	-4.86	-122.04	-81.144	-25.676	-0.980	0.46970	-0.36310	0.47055	-0.65271	31.1	13111	100
2025-3-27 18:5:13.774	WT901BLE68-01(48591DE3C19B)	-0.614	-0.846	0.098	43.091	249.329	-73.853	-68.06	-4.50	-124.51	-81.144	-25.676	-0.980	0.46970	-0.36310	0.47055	-0.65271	31.1	13111	100
2025-3-27 18:5:13.774	WT901BLE68-01(48591DE3C19B)	-0.614	-0.870	0.042	41.321	242.554	-57.373	-67.57	-3.99	-126.84	-81.144	-25.676	-0.980	0.46970	-0.36310	0.47055	-0.65271	31.1	13111	100
2025-3-27 18:5:13.834	WT901BLE68-01(48591DE3C19B)	-0.750	-0.870	0.042	41.321	242.554	-57.373	-67.11	-3.46	-129.16	-81.144	-25.676	-0.980	0.46970	-0.36310	0.47055	-0.65271	31.1	13111	100
2025-3-27 18:5:13.834	WT901BLE68-01(48591DE3C19B)	-0.750	-0.884	-0.021	40.100	205.200	-45.471	-66.72	-2.93	-131.08	-81.144	-25.676	-0.980	0.46970	-0.36310	0.47055	-0.65271	31.1	13111	100
2025-3-27 18:5:13.834	WT901BLE68-01(48591DE3C19B)	-0.800	-0.884	-0.021	40.100	205.200	-45.471	-66.35	-2.40	-132.98	-81.144	-25.676	-0.980	0.46970	-0.36310	0.47055	-0.65271	31.1	13111	100
2025-3-27 18:5:13.834	WT901BLE68-01(48591DE3C19B)	-0.400	-0.864	-0.091	37.354	148.743	-37.109	-66.07	-1.99	-134.31	-81.144	-25.676	-0.980	0.46970	-0.36310	0.47055	-0.65271	31.1	13111	100
2025-3-27 18:5:13.864	WT901BLE68-01(48591DE3C19B)	-0.796	-0.432	-0.045	37.354	148.743	-37.109	-65.80	-1.58	-135.64	-81.144	-25.676	-0.980	0.46970	-0.36310	0.47055	-0.65271	31.1	13111	100
2025-3-27 18:5:13.864	WT901BLE68-01(48591DE3C19B)	-0.796	-0.812	-0.133	32.410	84.045	-28.625	-65.61	-1.35	-136.34	-81.144	-25.676	-0.980	0.46970	-0.36310	0.47055	-0.65271	31.1	13111	100
2025-3-27 18:5:13.865	WT901BLE68-01(48591DE3C19B)	-0.757	-0.812	-0.133	32.410	84.045	-28.625	-65.43	-1.12	-137.02	-81.144	-25.676	-0.980	0.46970	-0.36310	0.47055	-0.65271	31.1	13111	100
2025-3-27 18:5:13.865	WT901BLE68-01(48591DE3C19B)	-0.757	-0.790	-0.141	23.132	18.799	-19.897	-65.38	-1.07	-137.07	-81.144	-25.676	-0.980	0.46970	-0.36310	0.47055	-0.65271	31.1	13111	100
2025-3-27 18:5:13.898	WT901BLE68-01(48591DE3C19B)	-0.679	-0.790	-0.141	23.132	18.799	-19.897	-65.33	-1.02	-137.10	-81.144	-25.676	-0.980	0.46970	-0.36310	0.47055	-0.65271	31.1	13111	100
2025-3-27 18:5:13.898	WT901BLE68-01(48591DE3C19B)	-0.679	-0.816	-0.115	12.695	-37.964	-12.634	-65.41	-1.14	-136.57	-81.144	-25.676	-0.980	0.46970	-0.36310	0.47055	-0.65271	31.1	13111	100
2025-3-27 18:5:13.898	WT901BLE68-01(48591DE3C19B)	-0.577	-0.816	-0.115	12.695	-37.964	-12.634	-65.49	-1.26	-136.03	-44.394	-48.020	-2.450	0.46970	-0.36310	0.47055	-0.65271	31.1	13111	100
2025-3-27 18:5:13.898	WT901BLE68-01(48591DE3C19B)	-0.577	-0.841	-0.056	3.967	-73.364	-5.615	-65.68	-1.47	-135.13	-44.394	-48.020	-2.450	0.46970	-0.36310	0.47055	-0.65271	31.1	13111	100
2025-3-27 18:5:13.954	WT901BLE68-01(48591DE3C19B)	-0.524	-0.841	-0.056	3.967	-73.364	-5.615	-65.86	-1.67	-134.23	-44.394	-48.020	-2.450	0.46970	-0.36310	0.47055	-0.65271	31.1	13111	100
2025-3-27 18:5:13.954	WT901BLE68-01(48591DE3C19B)	-0.524	-0.838	0.003	-5.005	-95.093	2.686	-66.14	-1.88	-133.10	-44.394	-48.020	-2.450	0.46970	-0.36310	0.47055	-0.65271	31.1	13111	100
2025-3-27 18:5:13.954	WT901BLE68-01(48591DE3C19B)	-0.470	-0.838	0.003	-5.005	-95.093	2.686	-66.42	-2.08	-131.99	-44.394	-48.020	-2.450	0.46970	-0.36310	0.47055	-0.65271	31.1	13111	100
2025-3-27 18:5:13.954	WT901BLE68-01(48591DE3C19B)	-0.470	-0.846	0.058	-13.428	-103.210	10.132	-66.79	-2.23	-130.79	-44.394	-48.020	-2.450	0.46970	-0.36310	0.47055	-0.65271	31.1	13111	100
2025-3-27 18:5:13.983	WT901BLE68-01(48591DE3C19B)	-0.422	-0.846	0.058	-13.428	-103.210	10.132	-67.14	-2.37	-129.61	-44.394	-48.020	-2.450	0.46970	-0.36310	0.47055	-0.65271	31.1	13111	100
2025-3-27 18:5:13.983	WT901BLE68-01(48591DE3C19B)	-0.422	-0.915	0.104	-20.447	-97.839	19.287	-67.55	-2.40	-128.45	-44.394	-48.020	-2.450	0.46970	-0.36310	0.47055	-0.65271	31.1	13111	100
2025-3-27 18:5:13.984	WT901BLE68-01(48591DE3C19B)	-0.372	-0.915	0.104	-20.447	-97.839	19.287	-67.96	-2.42	-127.31	-44.394	-48.020	-2.450	0.46970	-0.36310	0.47055	-0.65271	31.1	13111	100
2025-3-27 18:5:13.984	WT901BLE68-01(48591DE3C19B)	-0.372	-0.949	0.120	-23.254	-82.336	29.663	-68.38	-2.28	-126.29	-44.394	-48.020	-2.450	0.46970	-0.36310	0.47055	-0.65271	31.1	13111	100
2025-3-27 18:5:14.44	WT901BLE68-01(48591DE3C19B)	-0.332	-0.949	0.120	-23.254	-82.336	29.663	-68.79	-2.14	-125.28	-44.394	-48.020	-2.450	0.46970	-0.36310	0.47055	-0.65271	31.1	13111	100
2025-3-27 18:5:14.44	WT901BLE68-01(48591DE3C19B)	-0.332	-0.929	0.104	-25.146	-60.974	40.344	-69.20	-1.81	-124.43	-44.394	-48.020	-2.450	0.46970	-0.36310	0.47055	-0.65271	31.1	13111	100
2025-3-27 18:5:14.44	WT901BLE68-01(48591DE3C19B)	-0.340	-0.929	0.104	-25.146	-60.974	40.344	-69.60	-1.49	-123.60	-44.394	-48.020	-2.450	0.46970	-0.36310	0.47055	-0.65271	31.1	13111	100
2025-3-27 18:5:14.44	WT901BLE68-01(48591DE3C19B)	-0.340	-0.910	0.087	-28.442	-42.664	50.293	-70.02	-1.01	-122.91	-44.394	-48.020	-2.450	0.46970	-0.36310	0.47055	-0.65271	31.1	13111	100
2025-3-27 18:5:14.75	WT901BLE68-01(48591DE3C19B)	-0.392	-0.910	0.087	-28.442	-42.664	50.293	-70.42	-0.54	-122.23	-44.394	-48.020	-2.450	0.46970	-0.36310	0.47055	-0.65271	31.1	13111	100
2025-3-27 18:5:14.75	WT901BLE68-01(48591DE3C19B)	-0.392	-0.943	0.089	-33.447	-37.903	59.265	-70.87	0.03	-121.57	-44.394	-48.020	-2.450	0.46970	-0.36310	0.47055	-0.65271	31.1	13111	100
2025-3-27 18:5:14.75	WT901BLE68-01(48591DE3C19B)	-0.450	-0.943	0.089	-33.447	-37.903	59.265	-71.31	0.61	-120.92	-44.394	-48.020	-2.450	0.46970	-0.36310	0.47055	-0.65271	31.1	13111	100
2025-3-27 18:5:14.75	WT901BLE68-01(48591DE3C19B)	-0.450	-1.009	0.115	-39.246	-50.842	67.688	-71.78	1.23	-120.13	-44.394	-48.020	-2.450	0.46970	-0.36310	0.47055	-0.65271	31.1	13111	100
2025-3-27 18:5:14.103	WT901BLE68-01(48591DE3C19B)	-0.452	-1.009	0.115	-39.246	-50.842	67.688	-72.26	1.85	-119.35	-44.394	-48.020	-2.450	0.46970	-0.36310	0.47055	-0.65271	31.1	13111	100
2025-3-27 18:5:14.104	WT901BLE68-01(48591DE3C19B)	-0.452	-1.122	0.122	-46.570	-68.909	73.547	-72.77	2.47	-118.39	-44.394	-48.020	-2.450	0.46970	-0.36310	0.47055	-0.65271	31.1	13111	100
2025-3-27 18:5:14.104	WT901BLE68-01(48591DE3C19B)	-0.446	-1.122	0.122	-46.570	-68.909	73.547	-73.28	3.10	-117.44	-44.394	-48.020	-2.450	0.46970	-0.36310	0.47055	-0.65271	31.1	13111	100
2025-3-27 18:5:14.104	WT901BLE68-01(48591DE3C19B)	-0.446	-1.304	0.112	-52.856	-85.693	79.163	-73.82	3.73	-116.33	-44.394	-48.020	-2.450	0.43808	-0.29449	0.52368	-0.66855	31.1	13111	100
2025-3-27 18:5:14.133	WT901BLE68-01(48591DE3C19B)	-0.465	-1.304	0.112	-52.856	-85.693	79.163	-74.36	4.37	-115.22	-44.394	-48.020	-2.450	0.43808	-0.29449	0.52368	-0.66855	31.1	13111	100
2025-3-27 18:5:14.134	WT901BLE68-01(48591DE3C19B)	-0.465	-1.474	0.124	-57.617	-107.239	85.693	-74.89	5.01	-113.90	-44.394	-48.020	-2.450	0.43808	-0.29449	0.52368	-0.66855	31.1	13111	100
2025-3-27 18:5:14.134	WT901BLE68-01(48591DE3C19B)	-0.443	-1.474	0.124	-57.617	-107.239	85.693	-75.42	5.66	-112.58	-44.394	-48.020	-2.450	0.43808	-0.29449	0.52368	-0.66855	31.1	13111	100
2025-3-27 18:5:14.134	WT901BLE68-01(48591DE3C19B)	-0.443	-1.422	0.166	-56.824	-130.005	93.262	-75.89	6.33	-111.03	-44.394	-48.020	-2.450	0.43808	-0.29449	0.52368	-0.66855	31.1	13111	100
2025-3-27 18:5:14.198	WT901BLE68-01(48591DE3C19B)	-0.418	-1.422	0.166	-56.824	-130.005	93.262	-76.34	7.00	-109.50	-44.394	-48.020	-2.450	0.43808	-0.29449	0.52368	-0.66855	31.1	13111	100
2025-3-27 18:5:14.198	WT901BLE68-01(48591DE3C19B)	-0.418	-1.196	0.221	-61.523	-148.071	109.192	-76.78	7.79	-107.76	-44.394	-48.020	-2.450	0.43808	-0.29449	0.52368	-0.66855	31.1	13111	100
2025-3-27 18:5:14.198	WT901BLE68-01(48591DE3C19B)	-0.348	-1.196	0.221	-61.523	-148.071	109.192	-77.20	8.60	-106.04	-44.394	-48.020	-2.450	0.43808	-0.29449	0.52368	-0.66855	31.1	13111	100
2025-3-27 18:5:14.198	WT901BLE68-01(48591DE3C19B)	-0.348	-1.104	0.224	-72.632	-159.729	127.502	-77.67	9.56	-104.17	-44.394	-48.020	-2.450	0.43808	-0.29449	0.52368	-0.66855	31.1	13111	100
2025-3-27 18:5:14.224	WT901BLE68-01(48591DE3C19B)	-0.295	-1.104	0.224	-72.632	-159.729	127.502	-78.10	10.53	-102.32	-44.394	-48.020	-2.450	0.43808	-0.29449	0.52368	-0.66855	31.1	13111	100
2025-3-27 18:5:14.224	WT901BLE68-01(48591DE3C19B)	-0.295	-1.223	0.231	-79.224	-167.603	147.034	-78.54	11.68	-100.35	-44.394	-48.020	-2.450	0.43808	-0.29449	0.52368	-0.66855	31.1	13111	100
2025-3-27 18:5:14.224	WT901BLE68-01(48591DE3C19B)	-0.258	-1.223	0.231	-79.224	-167.603	147.034	-78.93	12.84	-98.40	-44.394	-48.020	-2.450	0.43808	-0.29449	0.52368	-0.66855	31.1	13111	100
2025-3-27 18:5:14.224	WT901BLE68-01(48591DE3C19B)	-0.127	-1.435	0.235	-75.562	-176.086	171.387	-79.20	14.21	-96.32	-44.394	-48.020	-2.450	0.43808	-0.29449	0.52368	-0.66855	31.1	13111	100
2025-3-27 18:5:14.284	WT901BLE68-01(48591DE3C19B)	-0.127	-1.527	0.185	-62.073	-172.058	190.002	-79.36	15.67	-94.24	-44.394	-48.020	-2.450	0.43808	-0.29449	0.52368	-0.66855	31.1	13111	100
2025-3-27 18:5:14.285	WT901BLE68-01(48591DE3C19B)	0.097	-1.527	0.185	-62.073	-172.058	190.002	-79.40	17.22	-92.15	-44.394	-48.020	-2.450	0.43808	-0.29449	0.52368	-0.66855	31.1	13111	100
2025-3-27 18:5:14.285	WT901BLE68-01(48591DE3C19B)	0.097	-1.519	0.119	-45.776	-147.766	203.552	-79.33	18.83	-90.17	-44.394	-48.020	-2.450	0.43808	-0.29449	0.52368	-0.66855	31.1	13111	100
2025-3-27 18:5:14.285	WT901BLE68-01(48591DE3C19B)	0.202	-1.519	0.119	-45.776	-147.766	203.552	-79.16	20.51	-88.29	-44.394	-48.020	-2.450	0.43808	-0.29449	0.52368	-0.66855	31.1	13111	100
2025-3-27 18:5:14.314	WT901BLE68-01(48591DE3C19B)	0.202	-1.491	0.118	-31.189	-111.877	209.045	-78.92	22.22	-86.56	-44.394	-48.020	-2.450	0.43808	-0.29449	0.52368	-0.66855	31.1	13111	100
2025-3-27 18:5:14.314	WT901BLE68-01(48591DE3C19B)	0.245	-1.491	0.118	-31.189	-111.877	209.045	-78.62	23.97	-85.00	-44.394	-48.020	-2.450	0.43808	-0.29449	0.52368	-0.66855	31.1	13111	100
2025-3-27 18:5:14.314	WT901BLE68-01(48591DE3C19B)	0.245	-1.467	0.160	-16.296	-73.242	206.421	-78.30	25.71	-83.62	-44.394	-48.020	-2.450	0.43808	-0.29449	0.52368	-0.66855	31.1	13111	100
2025-3-27 18:5:14.314	WT901BLE68-01(48591DE3C19B)	0.208	-1.467	0.160	-16.296	-73.242	206.421	-77.94	27.45	-82.43	-44.394	-48.020	-2.450	0.43808	-0.29449	0.52368	-0.66855	31.1	13111	100
2025-3-27 18:5:14.374	WT901BLE68-01(48591DE3C19B)	0.208	-1.398	0.250	-1.770	-33.569	200.012	-77.57	29.17	-81.44	-81.928	-31.262	-2.842	0.43808	-0.29449	0.52368	-0.66855	31.1	13111	100
2025-3-27 18:5:14.374	WT901BLE68-01(48591DE3C19B)	0.215	-1.398	0.250	-1.770	-33.569	200.012	-77.21	30.89	-80.66	-81.928	-31.262	-2.842	0.43808	-0.29449	0.52368	-0.66855	31.1	13111	100
2025-3-27 18:5:14.374	WT901BLE68-01(48591DE3C19B)	0.215	-1.311	0.297	9.399	9.521	183.777	-76.90	32.56	-80.12	-81.928	-31.262	-2.842	0.43808	-0.29449	0.52368	-0.66855	31.1	13111	100
2025-3-27 18:5:14.374	WT901BLE68-01(48591DE3C19B)	0.190	-1.311	0.297	9.399	9.521	183.777	-76.66	34.17	-79.84	-81.928	-31.262	-2.842	0.43808	-0.29449	0.52368	-0.66855	31.1	13111	100
2025-3-27 18:5:14.375	WT901BLE68-01(48591DE3C19B)	0.190	-1.146	0.313	19.104	54.993	161.804	-76.52	35.72	-79.84	-81.928	-31.262	-2.842	0.43808	-0.29449	0.52368	-0.66855	31.1	13111	100
2025-3-27 18:5:14.375	WT901BLE68-01(48591DE3C19B)	0.055	-1.146	0.313	19.104	54.993	161.804	-76.51	37.21	-80.16	-81.928	-31.262	-2.842	0.43808	-0.29449	0.52368	-0.66855	31.1	13111	100
2025-3-27 18:5:14.375	WT901BLE68-01(48591DE3C19B)	0.055	-1.024	0.292	18.127	86.670	137.268	-76.66	38.59	-80.70	-81.928	-31.262	-2.842	0.43808	-0.29449	0.52368	-0.66855	31.1	13111	100
2025-3-27 18:5:14.375	WT901BLE68-01(48591DE3C19B)	0.038	-1.024	0.292	18.127	86.670	137.268	-76.98	39.89	-81.50	-81.928	-31.262	-2.842	0.43808	-0.29449	0.52368	-0.66855	31.1	13111	100
2025-3-27 18:5:14.434	WT901BLE68-01(48591DE3C19B)	0.038	-0.943	0.273	16.418	84.290	109.924	-77.33	41.03	-82.33	-81.928	-31.262	-2.842	0.43808	-0.29449	0.52368	-0.66855	31.1	13111	100
2025-3-27 18:5:14.434	WT901BLE68-01(48591DE3C19B)	0.059	-0.943	0.273	16.418	84.290	109.924	-77.74	42.03	-83.22	-81.928	-31.262	-2.842	0.43808	-0.29449	0.52368	-0.66855	31.1	13111	100
2025-3-27 18:5:14.434	WT901BLE68-01(48591DE3C19B)	0.059	-0.838	0.279	14.648	60.974	87.341	-78.09	42.89	-83.99	-81.928	-31.262	-2.842	0.43808	-0.29449	0.52368	-0.66855	31.1	13111	100
2025-3-27 18:5:14.434	WT901BLE68-01(48591DE3C19B)	0.086	-0.838	0.279	14.648	60.974	87.341	-78.37	43.60	-84.66	-81.928	-31.262	-2.842	0.43808	-0.29449	0.52368	-0.66855	31.1	13111	100
2025-3-27 18:5:14.464	WT901BLE68-01(48591DE3C19B)	0.086	-0.772	0.308	13.855	33.447	64.880	-78.56	44.17	-85.17	-81.928	-31.262	-2.842	0.43808	-0.29449	0.52368	-0.66855	31.1	13111	100
2025-3-27 18:5:14.464	WT901BLE68-01(48591DE3C19B)	0.099	-0.772	0.308	13.855	33.447	64.880	-78.64	44.60	-85.53	-81.928	-31.262	-2.842	0.43808	-0.29449	0.52368	-0.66855	31.1	13111	100
2025-3-27 18:5:14.464	WT901BLE68-01(48591DE3C19B)	0.099	-0.728	0.306	14.832	13.550	43.762	-78.64	44.90	-85.79	-81.928	-31.262	-2.842	0.43808	-0.29449	0.52368	-0.66855	31.1	13111	100
2025-3-27 18:5:14.465	WT901BLE68-01(48591DE3C19B)	0.120	-0.728	0.306	14.832	13.550	43.762	-78.55	45.07	-85.93	-81.928	-31.262	-2.842	0.43808	-0.29449	0.52368	-0.66855	31.1	13111	100
2025-3-27 18:5:14.497	WT901BLE68-01(48591DE3C19B)	0.120	-0.679	0.308	20.386	5.737	20.569	-78.42	45.12	-86.05	-81.928	-31.262	-2.842	0.43808	-0.29449	0.52368	-0.66855	31.1	13111	100
2025-3-27 18:5:14.497	WT901BLE68-01(48591DE3C19B)	0.173	-0.679	0.308	20.386	5.737	20.569	-78.24	45.04	-86.15	-81.928	-31.262	-2.842	0.43808	-0.29449	0.52368	-0.66855	31.1	13111	100
2025-3-27 18:5:14.497	WT901BLE68-01(48591DE3C19B)	0.173	-0.635	0.343	28.748	1.831	-7.751	-78.02	44.83	-86.26	-81.928	-31.262	-2.842	0.68826	-0.22211	0.61404	-0.31589	31.1	13111	100
2025-3-27 18:5:14.498	WT901BLE68-01(48591DE3C19B)	0.171	-0.635	0.343	28.748	1.831	-7.751	-77.77	44.47	-86.39	-81.928	-31.262	-2.842	0.68826	-0.22211	0.61404	-0.31589	31.1	13111	100
2025-3-27 18:5:14.554	WT901BLE68-01(48591DE3C19B)	0.171	-0.610	0.380	35.522	-8.362	-35.278	-77.46	43.96	-86.48	-81.928	-31.262	-2.842	0.68826	-0.22211	0.61404	-0.31589	31.1	13111	100
2025-3-27 18:5:14.554	WT901BLE68-01(48591DE3C19B)	0.148	-0.610	0.380	35.522	-8.362	-35.278	-77.09	43.30	-86.54	-81.928	-31.262	-2.842	0.68826	-0.22211	0.61404	-0.31589	31.1	13111	100
2025-3-27 18:5:14.554	WT901BLE68-01(48591DE3C19B)	0.148	-0.631	0.368	41.504	-14.465	-62.317	-76.70	42.51	-86.62	-81.928	-31.262	-2.842	0.68826	-0.22211	0.61404	-0.31589	31.1	13111	100
2025-3-27 18:5:14.554	WT901BLE68-01(48591DE3C19B)	0.115	-0.631	0.368	41.504	-14.465	-62.317	-76.27	41.58	-86.70	-81.928	-31.262	-2.842	0.68826	-0.22211	0.61404	-0.31589	31.1	13111	100
2025-3-27 18:5:14.583	WT901BLE68-01(48591DE3C19B)	0.115	-0.732	0.321	46.570	1.282	-90.454	-75.92	40.53	-86.93	-81.928	-31.262	-2.842	0.68826	-0.22211	0.61404	-0.31589	31.1	13111	100
2025-3-27 18:5:14.583	WT901BLE68-01(48591DE3C19B)	0.060	-0.732	0.321	46.570	1.282	-90.454	-75.63	39.39	-87.30	-81.928	-31.262	-2.842	0.68826	-0.22211	0.61404	-0.31589	31.1	13111	100
2025-3-27 18:5:14.583	WT901BLE68-01(48591DE3C19B)	0.060	-0.869	0.280	53.650	32.410	-115.234	-75.45	38.16	-87.91	-81.928	-31.262	-2.842	0.68826	-0.22211	0.61404	-0.31589	31.1	13111	100
2025-3-27 18:5:14.583	WT901BLE68-01(48591DE3C19B)	-0.016	-0.869	0.280	53.650	32.410	-115.234	-75.36	36.86	-88.74	-81.928	-31.262	-2.842	0.68826	-0.22211	0.61404	-0.31589	31.1	13111	100
2025-3-27 18:5:14.644	WT901BLE68-01(48591DE3C19B)	-0.016	-0.981	0.242	61.584	63.232	-137.390	-75.34	35.51	-89.77	-81.928	-31.262	-2.842	0.68826	-0.22211	0.61404	-0.31589	31.1	13111	100
2025-3-27 18:5:14.644	WT901BLE68-01(48591DE3C19B)	-0.094	-0.981	0.242	61.584	63.232	-137.390	-75.38	34.10	-90.99	-81.928	-31.262	-2.842	0.68826	-0.22211	0.61404	-0.31589	31.1	13111	100
2025-3-27 18:5:14.644	WT901BLE68-01(48591DE3C19B)	-0.094	-1.043	0.212	66.895	84.839	-156.677	-75.44	32.63	-92.34	-81.928	-31.262	-2.842	0.68826	-0.22211	0.61404	-0.31589	31.1	13111	100
2025-3-27 18:5:14.644	WT901BLE68-01(48591DE3C19B)	-0.153	-1.043	0.212	66.895	84.839	-156.677	-75.52	31.12	-93.81	-81.928	-31.262	-2.842	0.68826	-0.22211	0.61404	-0.31589	31.1	13111	100
2025-3-27 18:5:14.675	WT901BLE68-01(48591DE3C19B)	-0.153	-1.114	0.186	68.909	98.938	-173.035	-75.59	29.56	-95.36	-81.928	-31.262	-2.842	0.68826	-0.22211	0.61404	-0.31589	31.1	13111	100
2025-3-27 18:5:14.675	WT901BLE68-01(48591DE3C19B)	-0.204	-1.114	0.186	68.909	98.938	-173.035	-75.66	27.95	-96.97	-81.928	-31.262	-2.842	0.68826	-0.22211	0.61404	-0.31589	31.1	13111	100
2025-3-27 18:5:14.675	WT901BLE68-01(48591DE3C19B)	-0.204	-1.180	0.167	71.228	111.206	-186.157	-75.71	26.31	-98.64	-81.928	-31.262	-2.842	0.68826	-0.22211	0.61404	-0.31589	31.1	13111	100
2025-3-27 18:5:14.675	WT901BLE68-01(48591DE3C19B)	-0.245	-1.180	0.167	71.228	111.206	-186.157	-75.72	24.64	-100.35	-81.928	-31.262	-2.842	0.68826	-0.22211	0.61404	-0.31589	31.1	13111	100
2025-3-27 18:5:14.703	WT901BLE68-01(48591DE3C19B)	-0.245	-1.279	0.147	67.810	124.939	-198.303	-75.75	22.93	-102.12	-81.928	-31.262	-2.842	0.68826	-0.22211	0.61404	-0.31589	31.1	13111	100
2025-3-27 18:5:14.703	WT901BLE68-01(48591DE3C19B)	-0.294	-1.279	0.147	67.810	124.939	-198.303	-75.76	21.21	-103.95	-81.928	-31.262	-2.842	0.68826	-0.22211	0.61404	-0.31589	31.1	13111	100
2025-3-27 18:5:14.703	WT901BLE68-01(48591DE3C19B)	-0.294	-1.604	0.141	59.143	139.221	-212.280	-75.88	19.40	-105.93	-81.928	-31.262	-2.842	0.68826	-0.22211	0.61404	-0.31589	31.1	13111	100
2025-3-27 18:5:14.703	WT901BLE68-01(48591DE3C19B)	-0.460	-1.604	0.141	59.143	139.221	-212.280	-75.93	17.60	-107.87	-70.854	-34.300	-9.702	0.68826	-0.22211	0.61404	-0.31589	31.1	13111	100
2025-3-27 18:5:14.763	WT901BLE68-01(48591DE3C19B)	-0.460	-1.886	0.174	66.956	144.836	-221.252	-75.86	15.74	-109.87	-70.854	-34.300	-9.702	0.68826	-0.22211	0.61404	-0.31589	31.1	13111	100
2025-3-27 18:5:14.764	WT901BLE68-01(48591DE3C19B)	-0.589	-1.886	0.174	66.956	144.836	-221.252	-75.73	13.91	-111.84	-70.854	-34.300	-9.702	0.68826	-0.22211	0.61404	-0.31589	31.1	13111	100
2025-3-27 18:5:14.764	WT901BLE68-01(48591DE3C19B)	-0.589	-1.727	0.202	81.848	132.507	-219.482	-75.37	12.09	-113.67	-70.854	-34.300	-9.702	0.68826	-0.22211	0.61404	-0.31589	31.1	13111	100
2025-3-27 18:5:14.764	WT901BLE68-01(48591DE3C19B)	-0.516	-1.727	0.202	81.848	132.507	-219.482	-74.95	10.30	-115.49	-70.854	-34.300	-9.702	0.68826	-0.22211	0.61404	-0.31589	31.1	13111	100
2025-3-27 18:5:14.799	WT901BLE68-01(48591DE3C19B)	-0.516	-1.490	0.148	83.374	120.972	-205.566	-74.44	8.64	-117.16	-70.854	-34.300	-9.702	0.68826	-0.22211	0.61404	-0.31589	31.1	13111	100
2025-3-27 18:5:14.799	WT901BLE68-01(48591DE3C19B)	-0.446	-1.490	0.148	83.374	120.972	-205.566	-73.90	7.01	-118.82	-70.854	-34.300	-9.702	0.68826	-0.22211	0.61404	-0.31589	31.1	13111	100
2025-3-27 18:5:14.799	WT901BLE68-01(48591DE3C19B)	-0.446	-1.390	0.027	82.031	123.413	-186.279	-73.32	5.61	-120.46	-70.854	-34.300	-9.702	0.68826	-0.22211	0.61404	-0.31589	31.1	13111	100
2025-3-27 18:5:14.799	WT901BLE68-01(48591DE3C19B)	-0.428	-1.390	0.027	82.031	123.413	-186.279	-72.72	4.24	-122.10	-70.854	-34.300	-9.702	0.68826	-0.22211	0.61404	-0.31589	31.1	13111	100
2025-3-27 18:5:14.853	WT901BLE68-01(48591DE3C19B)	-0.428	-1.345	-0.089	82.275	115.356	-162.659	-72.08	3.08	-123.59	-70.854	-34.300	-9.702	0.68826	-0.22211	0.61404	-0.31589	31.1	13111	100
2025-3-27 18:5:14.854	WT901BLE68-01(48591DE3C19B)	-0.362	-1.345	-0.089	82.275	115.356	-162.659	-71.41	1.96	-125.08	-70.854	-34.300	-9.702	0.68826	-0.22211	0.61404	-0.31589	31.1	13111	100
2025-3-27 18:5:14.854	WT901BLE68-01(48591DE3C19B)	-0.362	-1.269	-0.121	78.735	92.957	-141.235	-70.76	0.98	-126.29	-70.854	-34.300	-9.702	0.68826	-0.22211	0.61404	-0.31589	31.1	13111	100
2025-3-27 18:5:14.854	WT901BLE68-01(48591DE3C19B)	-0.267	-1.269	-0.121	78.735	92.957	-141.235	-70.09	0.03	-127.51	-70.854	-34.300	-9.702	0.68826	-0.22211	0.61404	-0.31589	31.1	13111	100
2025-3-27 18:5:14.884	WT901BLE68-01(48591DE3C19B)	-0.267	-1.176	-0.068	70.251	84.412	-121.399	-69.51	-0.75	-128.57	-70.854	-34.300	-9.702	0.68826	-0.22211	0.61404	-0.31589	31.1	13111	100
2025-3-27 18:5:14.885	WT901BLE68-01(48591DE3C19B)	-0.330	-1.176	-0.068	70.251	84.412	-121.399	-68.91	-1.52	-129.64	-70.854	-34.300	-9.702	0.68826	-0.22211	0.61404	-0.31589	31.1	13111	100
2025-3-27 18:5:14.885	WT901BLE68-01(48591DE3C19B)	-0.330	-1.082	-0.014	58.472	90.454	-103.516	-68.42	-2.08	-130.69	-70.854	-34.300	-9.702	0.68826	-0.22211	0.61404	-0.31589	31.1	13111	100
2025-3-27 18:5:14.885	WT901BLE68-01(48591DE3C19B)	-0.444	-1.082	-0.014	58.472	90.454	-103.516	-67.92	-2.64	-131.74	-70.854	-34.300	-9.702	0.68826	-0.22211	0.61404	-0.31589	31.1	13111	100
2025-3-27 18:5:14.913	WT901BLE68-01(48591DE3C19B)	-0.444	-1.011	0.027	49.194	105.408	-87.952	-67.51	-2.98	-132.87	-70.854	-34.300	-9.702	0.68826	-0.22211	0.61404	-0.31589	31.1	13111	100
2025-3-27 18:5:14.914	WT901BLE68-01(48591DE3C19B)	-0.499	-1.011	0.027	49.194	105.408	-87.952	-67.10	-3.30	-134.00	-70.854	-34.300	-9.702	0.68826	-0.22211	0.61404	-0.31589	31.1	13111	100
2025-3-27 18:5:14.914	WT901BLE68-01(48591DE3C19B)	-0.499	-0.947	0.064	41.077	113.342	-73.669	-66.76	-3.46	-135.15	-70.854	-34.300	-9.702	0.68826	-0.22211	0.61404	-0.31589	31.1	13111	100
2025-3-27 18:5:14.914	WT901BLE68-01(48591DE3C19B)	-0.493	-0.947	0.064	41.077	113.342	-73.669	-66.42	-3.59	-136.29	-70.854	-34.300	-9.702	0.29184	-0.22552	0.49847	-0.78445	31.1	13111	100
2025-3-27 18:5:14.943	WT901BLE68-01(48591DE3C19B)	-0.493	-0.919	0.083	33.569	111.267	-61.768	-66.17	-3.61	-137.36	-70.854	-34.300	-9.702	0.29184	-0.22552	0.49847	-0.78445	31.1	13111	100
2025-3-27 18:5:14.943	WT901BLE68-01(48591DE3C19B)	-0.503	-0.919	0.083	33.569	111.267	-61.768	-65.91	-3.63	-138.44	-70.854	-34.300	-9.702	0.29184	-0.22552	0.49847	-0.78445	31.1	13111	100
2025-3-27 18:5:14.943	WT901BLE68-01(48591DE3C19B)	-0.503	-0.882	0.060	27.954	97.839	-50.720	-65.72	-3.59	-139.34	-70.854	-34.300	-9.702	0.29184	-0.22552	0.49847	-0.78445	31.1	13111	100
2025-3-27 18:5:14.944	WT901BLE68-01(48591DE3C19B)	-0.528	-0.882	0.060	27.954	97.839	-50.720	-65.53	-3.54	-140.24	-70.854	-34.300	-9.702	0.29184	-0.22552	0.49847	-0.78445	31.1	13111	100
2025-3-27 18:5:15.3	WT901BLE68-01(48591DE3C19B)	-0.528	-0.814	0.019	22.705	73.120	-40.222	-65.42	-3.49	-140.87	-70.854	-34.300	-9.702	0.29184	-0.22552	0.49847	-0.78445	31.1	13111	100
2025-3-27 18:5:15.3	WT901BLE68-01(48591DE3C19B)	-0.536	-0.814	0.019	22.705	73.120	-40.222	-65.31	-3.44	-141.50	-70.854	-34.300	-9.702	0.29184	-0.22552	0.49847	-0.78445	31.1	13111	100
2025-3-27 18:5:15.3	WT901BLE68-01(48591DE3C19B)	-0.536	-0.757	-0.016	15.259	42.236	-29.175	-65.29	-3.41	-141.81	-70.854	-34.300	-9.702	0.29184	-0.22552	0.49847	-0.78445	31.1	13111	100
2025-3-27 18:5:15.3	WT901BLE68-01(48591DE3C19B)	-0.521	-0.757	-0.016	15.259	42.236	-29.175	-65.28	-3.37	-142.11	-70.854	-34.300	-9.702	0.29184	-0.22552	0.49847	-0.78445	31.1	13111	100
2025-3-27 18:5:15.33	WT901BLE68-01(48591DE3C19B)	-0.521	-0.756	-0.045	6.226	9.521	-18.250	-65.39	-3.37	-142.06	-70.854	-34.300	-9.702	0.29184	-0.22552	0.49847	-0.78445	31.1	13111	100
2025-3-27 18:5:15.34	WT901BLE68-01(48591DE3C19B)	-0.518	-0.756	-0.045	6.226	9.521	-18.250	-65.49	-3.36	-142.03	-70.854	-34.300	-9.702	0.29184	-0.22552	0.49847	-0.78445	31.1	13111	100
2025-3-27 18:5:15.34	WT901BLE68-01(48591DE3C19B)	-0.518	-0.798	-0.061	-2.502	-22.949	-9.338	-65.70	-3.41	-141.65	-70.854	-34.300	-9.702	0.29184	-0.22552	0.49847	-0.78445	31.1	13111	100
2025-3-27 18:5:15.34	WT901BLE68-01(48591DE3C19B)	-0.505	-0.798	-0.061	-2.502	-22.949	-9.338	-65.92	-3.45	-141.27	-70.854	-34.300	-9.702	0.29184	-0.22552	0.49847	-0.78445	31.1	13111	100
2025-3-27 18:5:15.64	WT901BLE68-01(48591DE3C19B)	-0.505	-0.856	-0.053	-10.132	-54.626	-1.404	-66.24	-3.54	-140.56	-70.854	-34.300	-9.702	0.29184	-0.22552	0.49847	-0.78445	31.1	13111	100
2025-3-27 18:5:15.64	WT901BLE68-01(48591DE3C19B)	-0.476	-0.856	-0.053	-10.132	-54.626	-1.404	-66.55	-3.63	-139.86	-70.854	-34.300	-9.702	0.29184	-0.22552	0.49847	-0.78445	31.1	13111	100
2025-3-27 18:5:15.64	WT901BLE68-01(48591DE3C19B)	-0.476	-0.885	-0.023	-15.320	-77.637	3.540	-66.93	-3.76	-138.93	-70.854	-34.300	-9.702	0.29184	-0.22552	0.49847	-0.78445	31.1	13111	100
2025-3-27 18:5:15.64	WT901BLE68-01(48591DE3C19B)	-0.446	-0.885	-0.023	-15.320	-77.637	3.540	-67.31	-3.88	-138.00	-70.854	-34.300	-9.702	0.29184	-0.22552	0.49847	-0.78445	31.1	13111	100
2025-3-27 18:5:15.124	WT901BLE68-01(48591DE3C19B)	-0.446	-0.891	0.008	-21.423	-92.773	8.179	-67.76	-4.01	-136.93	-70.854	-34.300	-9.702	0.29184	-0.22552	0.49847	-0.78445	31.1	13111	100
2025-3-27 18:5:15.124	WT901BLE68-01(48591DE3C19B)	-0.438	-0.891	0.008	-21.423	-92.773	8.179	-68.20	-4.13	-135.86	-70.854	-34.300	-9.702	0.29184	-0.22552	0.49847	-0.78445	31.1	13111	100
2025-3-27 18:5:15.124	WT901BLE68-01(48591DE3C19B)	-0.438	-0.920	0.034	-27.710	-102.539	13.000	-68.72	-4.23	-134.69	-70.854	-34.300	-9.702	0.29184	-0.22552	0.49847	-0.78445	31.1	13111	100
2025-3-27 18:5:15.124	WT901BLE68-01(48591DE3C19B)	-0.426	-0.920	0.034	-27.710	-102.539	13.000	-69.22	-4.31	-133.53	-70.854	-34.300	-9.702	0.29184	-0.22552	0.49847	-0.78445	31.1	13111	100
2025-3-27 18:5:15.153	WT901BLE68-01(48591DE3C19B)	-0.426	-0.943	0.061	-33.081	-107.788	18.494	-69.79	-4.36	-132.32	-39.690	-46.354	-5.978	0.29184	-0.22552	0.49847	-0.78445	31.1	13111	100
2025-3-27 18:5:15.153	WT901BLE68-01(48591DE3C19B)	-0.429	-0.943	0.061	-33.081	-107.788	18.494	-70.33	-4.38	-131.11	-39.690	-46.354	-5.978	0.29184	-0.22552	0.49847	-0.78445	31.1	13111	100
2025-3-27 18:5:15.154	WT901BLE68-01(48591DE3C19B)	-0.436	-0.975	0.095	-38.818	-111.755	25.879	-70.94	-4.35	-129.85	-39.690	-46.354	-5.978	0.29184	-0.22552	0.49847	-0.78445	31.1	13111	100
2025-3-27 18:5:15.154	WT901BLE68-01(48591DE3C19B)	-0.436	-1.009	0.126	-42.908	-116.638	35.339	-71.56	-4.26	-128.57	-39.690	-46.354	-5.978	0.29184	-0.22552	0.49847	-0.78445	31.1	13111	100
2025-3-27 18:5:15.183	WT901BLE68-01(48591DE3C19B)	-0.438	-1.009	0.126	-42.908	-116.638	35.339	-72.19	-4.11	-127.25	-39.690	-46.354	-5.978	0.29184	-0.22552	0.49847	-0.78445	31.1	13111	100
2025-3-27 18:5:15.183	WT901BLE68-01(48591DE3C19B)	-0.438	-1.033	0.150	-45.837	-123.047	46.265	-72.82	-3.92	-125.91	-39.690	-46.354	-5.978	0.29184	-0.22552	0.49847	-0.78445	31.1	13111	100
2025-3-27 18:5:15.183	WT901BLE68-01(48591DE3C19B)	-0.441	-1.033	0.150	-45.837	-123.047	46.265	-73.46	-3.66	-124.53	-39.690	-46.354	-5.978	0.29184	-0.22552	0.49847	-0.78445	31.1	13111	100
2025-3-27 18:5:15.183	WT901BLE68-01(48591DE3C19B)	-0.441	-1.057	0.172	-46.631	-131.653	58.838	-74.09	-3.35	-123.11	-39.690	-46.354	-5.978	0.29184	-0.22552	0.49847	-0.78445	31.1	13111	100
2025-3-27 18:5:15.244	WT901BLE68-01(48591DE3C19B)	-0.440	-1.057	0.172	-46.631	-131.653	58.838	-74.70	-2.98	-121.64	-39.690	-46.354	-5.978	0.29184	-0.22552	0.49847	-0.78445	31.1	13111	100
2025-3-27 18:5:15.244	WT901BLE68-01(48591DE3C19B)	-0.440	-1.040	0.199	-44.556	-143.250	72.632	-75.29	-2.54	-120.11	-39.690	-46.354	-5.978	0.29184	-0.22552	0.49847	-0.78445	31.1	13111	100
2025-3-27 18:5:15.244	WT901BLE68-01(48591DE3C19B)	-0.409	-1.040	0.199	-44.556	-143.250	72.632	-75.86	-2.03	-118.52	-39.690	-46.354	-5.978	0.29184	-0.22552	0.49847	-0.78445	31.1	13111	100
2025-3-27 18:5:15.244	WT901BLE68-01(48591DE3C19B)	-0.409	-1.018	0.211	-42.236	-154.358	88.135	-76.39	-1.46	-116.87	-39.690	-46.354	-5.978	0.29184	-0.22552	0.49847	-0.78445	31.1	13111	100
2025-3-27 18:5:15.275	WT901BLE68-01(48591DE3C19B)	-0.367	-1.018	0.211	-42.236	-154.358	88.135	-76.88	-0.81	-115.16	-39.690	-46.354	-5.978	0.29184	-0.22552	0.49847	-0.78445	31.1	13111	100
2025-3-27 18:5:15.275	WT901BLE68-01(48591DE3C19B)	-0.367	-1.035	0.219	-38.818	-159.973	103.943	-77.33	-0.08	-113.43	-39.690	-46.354	-5.978	0.29184	-0.22552	0.49847	-0.78445	31.1	13111	100
2025-3-27 18:5:15.275	WT901BLE68-01(48591DE3C19B)	-0.326	-1.035	0.219	-38.818	-159.973	103.943	-77.73	0.72	-111.66	-39.690	-46.354	-5.978	0.29184	-0.22552	0.49847	-0.78445	31.1	13111	100
2025-3-27 18:5:15.275	WT901BLE68-01(48591DE3C19B)	-0.326	-1.114	0.194	-37.231	-158.813	118.958	-78.09	1.60	-109.89	-39.690	-46.354	-5.978	0.29184	-0.22552	0.49847	-0.78445	31.1	13111	100
2025-3-27 18:5:15.303	WT901BLE68-01(48591DE3C19B)	-0.272	-1.114	0.194	-37.231	-158.813	118.958	-78.41	2.57	-108.12	-39.690	-46.354	-5.978	0.29184	-0.22552	0.49847	-0.78445	31.1	13111	100
2025-3-27 18:5:15.303	WT901BLE68-01(48591DE3C19B)	-0.272	-1.418	0.136	-44.189	-151.672	126.587	-78.74	3.57	-106.39	-39.690	-46.354	-5.978	0.29184	-0.22552	0.49847	-0.78445	31.1	13111	100
2025-3-27 18:5:15.303	WT901BLE68-01(48591DE3C19B)	-0.281	-1.418	0.136	-44.189	-151.672	126.587	-79.07	4.61	-104.69	-39.690	-46.354	-5.978	0.49710	-0.36563	0.52267	-0.58813	31.1	13111	100
2025-3-27 18:5:15.303	WT901BLE68-01(48591DE3C19B)	-0.281	-2.093	0.147	-49.255	-145.874	125.732	-79.40	5.66	-103.02	-39.690	-46.354	-5.978	0.49710	-0.36563	0.52267	-0.58813	31.1	13111	100
2025-3-27 18:5:15.398	WT901BLE68-01(48591DE3C19B)	-0.289	-2.093	0.147	-49.255	-145.874	125.732	-79.73	6.69	-101.39	-39.690	-46.354	-5.978	0.49710	-0.36563	0.52267	-0.58813	31.1	13111	100
2025-3-27 18:5:15.398	WT901BLE68-01(48591DE3C19B)	-0.289	-2.165	0.180	-11.292	-136.536	130.493	-79.84	7.75	-99.80	-39.690	-46.354	-5.978	0.49710	-0.36563	0.52267	-0.58813	31.1	13111	100
2025-3-27 18:5:15.398	WT901BLE68-01(48591DE3C19B)	-0.256	-2.165	0.180	-11.292	-136.536	130.493	-79.75	8.83	-98.25	-39.690	-46.354	-5.978	0.49710	-0.36563	0.52267	-0.58813	31.1	13111	100
2025-3-27 18:5:15.398	WT901BLE68-01(48591DE3C19B)	-0.256	-1.305	0.274	7.324	-131.958	149.109	-79.54	9.99	-96.70	-39.690	-46.354	-5.978	0.49710	-0.36563	0.52267	-0.58813	31.1	13111	100
2025-3-27 18:5:15.399	WT901BLE68-01(48591DE3C19B)	-0.202	-1.305	0.274	7.324	-131.958	149.109	-79.19	11.23	-95.16	-39.690	-46.354	-5.978	0.49710	-0.36563	0.52267	-0.58813	31.1	13111	100
2025-3-27 18:5:15.399	WT901BLE68-01(48591DE3C19B)	-0.202	-0.902	0.312	-12.329	-124.817	166.382	-78.91	12.54	-93.63	-39.690	-46.354	-5.978	0.49710	-0.36563	0.52267	-0.58813	31.1	13111	100
2025-3-27 18:5:15.399	WT901BLE68-01(48591DE3C19B)	-0.213	-0.902	0.312	-12.329	-124.817	166.382	-78.68	13.93	-92.11	-39.690	-46.354	-5.978	0.49710	-0.36563	0.52267	-0.58813	31.1	13111	100
2025-3-27 18:5:15.399	WT901BLE68-01(48591DE3C19B)	-0.213	-1.002	0.312	-25.940	-112.122	180.786	-78.50	15.39	-90.63	-39.690	-46.354	-5.978	0.49710	-0.36563	0.52267	-0.58813	31.1	13111	100
2025-3-27 18:5:15.424	WT901BLE68-01(48591DE3C19B)	-0.194	-1.002	0.312	-25.940	-112.122	180.786	-78.35	16.91	-89.20	-39.690	-46.354	-5.978	0.49710	-0.36563	0.52267	-0.58813	31.1	13111	100
2025-3-27 18:5:15.424	WT901BLE68-01(48591DE3C19B)	-0.194	-1.269	0.209	-23.743	-107.483	194.580	-78.15	18.50	-87.76	-39.690	-46.354	-5.978	0.49710	-0.36563	0.52267	-0.58813	31.1	13111	100
2025-3-27 18:5:15.424	WT901BLE68-01(48591DE3C19B)	-0.074	-1.269	0.209	-23.743	-107.483	194.580	-77.90	20.13	-86.32	-39.690	-46.354	-5.978	0.49710	-0.36563	0.52267	-0.58813	31.1	13111	100
2025-3-27 18:5:15.424	WT901BLE68-01(48591DE3C19B)	-0.074	-1.255	0.146	-9.766	-110.840	209.534	-77.52	21.82	-84.82	-39.690	-46.354	-5.978	0.49710	-0.36563	0.52267	-0.58813	31.1	13111	100
2025-3-27 18:5:15.484	WT901BLE68-01(48591DE3C19B)	0.024	-1.255	0.146	-9.766	-110.840	209.534	-77.00	23.55	-83.26	-39.690	-46.354	-5.978	0.49710	-0.36563	0.52267	-0.58813	31.1	13111	100
2025-3-27 18:5:15.485	WT901BLE68-01(48591DE3C19B)	0.024	-1.211	0.134	-1.465	-92.529	211.182	-76.43	25.28	-81.76	-39.690	-46.354	-5.978	0.49710	-0.36563	0.52267	-0.58813	31.1	13111	100
2025-3-27 18:5:15.485	WT901BLE68-01(48591DE3C19B)	-0.024	-1.211	0.134	-1.465	-92.529	211.182	-75.81	27.01	-80.32	-39.690	-46.354	-5.978	0.49710	-0.36563	0.52267	-0.58813	31.1	13111	100
2025-3-27 18:5:15.485	WT901BLE68-01(48591DE3C19B)	-0.024	-1.142	0.109	6.714	-55.176	200.867	-75.19	28.71	-79.06	-39.690	-46.354	-5.978	0.49710	-0.36563	0.52267	-0.58813	31.1	13111	100
2025-3-27 18:5:15.514	WT901BLE68-01(48591DE3C19B)	-0.103	-1.142	0.109	6.714	-55.176	200.867	-74.60	30.38	-77.99	-39.690	-46.354	-5.978	0.49710	-0.36563	0.52267	-0.58813	31.1	13111	100
2025-3-27 18:5:15.514	WT901BLE68-01(48591DE3C19B)	-0.103	-1.095	0.095	10.986	-24.414	186.768	-74.04	32.00	-77.08	-39.690	-46.354	-5.978	0.49710	-0.36563	0.52267	-0.58813	31.1	13111	100
2025-3-27 18:5:15.514	WT901BLE68-01(48591DE3C19B)	-0.117	-1.095	0.095	10.986	-24.414	186.768	-73.53	33.58	-76.33	-39.690	-46.354	-5.978	0.49710	-0.36563	0.52267	-0.58813	31.1	13111	100
2025-3-27 18:5:15.514	WT901BLE68-01(48591DE3C19B)	-0.117	-1.032	0.115	16.724	-10.986	172.241	-73.03	35.10	-75.66	-85.750	-27.440	-6.762	0.49710	-0.36563	0.52267	-0.58813	31.1	13111	100
2025-3-27 18:5:15.543	WT901BLE68-01(48591DE3C19B)	-0.044	-1.032	0.115	16.724	-10.986	172.241	-72.52	36.55	-75.07	-85.750	-27.440	-6.762	0.49710	-0.36563	0.52267	-0.58813	31.1	13111	100
2025-3-27 18:5:15.543	WT901BLE68-01(48591DE3C19B)	-0.044	-0.963	0.147	20.874	-1.404	151.978	-72.03	37.91	-74.55	-85.750	-27.440	-6.762	0.49710	-0.36563	0.52267	-0.58813	31.1	13111	100
2025-3-27 18:5:15.543	WT901BLE68-01(48591DE3C19B)	0.013	-0.963	0.147	20.874	-1.404	151.978	-71.55	39.17	-74.11	-85.750	-27.440	-6.762	0.49710	-0.36563	0.52267	-0.58813	31.1	13111	100
2025-3-27 18:5:15.543	WT901BLE68-01(48591DE3C19B)	0.013	-0.898	0.186	23.438	13.367	128.723	-71.14	40.33	-73.78	-85.750	-27.440	-6.762	0.49710	-0.36563	0.52267	-0.58813	31.1	13111	100
2025-3-27 18:5:15.603	WT901BLE68-01(48591DE3C19B)	-0.039	-0.898	0.186	23.438	13.367	128.723	-70.78	41.40	-73.59	-85.750	-27.440	-6.762	0.49710	-0.36563	0.52267	-0.58813	31.1	13111	100
2025-3-27 18:5:15.603	WT901BLE68-01(48591DE3C19B)	-0.039	-0.854	0.215	23.132	27.039	104.675	-70.51	42.36	-73.52	-85.750	-27.440	-6.762	0.49710	-0.36563	0.52267	-0.58813	31.1	13111	100
2025-3-27 18:5:15.603	WT901BLE68-01(48591DE3C19B)	-0.110	-0.854	0.215	23.132	27.039	104.675	-70.33	43.23	-73.59	-85.750	-27.440	-6.762	0.49710	-0.36563	0.52267	-0.58813	31.1	13111	100
2025-3-27 18:5:15.603	WT901BLE68-01(48591DE3C19B)	-0.110	-0.860	0.205	21.484	32.043	80.139	-70.22	43.99	-73.75	-85.750	-27.440	-6.762	0.49710	-0.36563	0.52267	-0.58813	31.1	13111	100
2025-3-27 18:5:15.664	WT901BLE68-01(48591DE3C19B)	-0.097	-0.860	0.205	21.484	32.043	80.139	-70.18	44.64	-73.99	-85.750	-27.440	-6.762	0.49710	-0.36563	0.52267	-0.58813	31.1	13111	100
2025-3-27 18:5:15.664	WT901BLE68-01(48591DE3C19B)	-0.097	-0.834	0.181	21.484	30.029	56.763	-70.16	45.16	-74.27	-85.750	-27.440	-6.762	0.49710	-0.36563	0.52267	-0.58813	31.1	13111	100
2025-3-27 18:5:15.664	WT901BLE68-01(48591DE3C19B)	-0.061	-0.834	0.181	21.484	30.029	56.763	-70.18	45.58	-74.61	-85.750	-27.440	-6.762	0.49710	-0.36563	0.52267	-0.58813	31.1	13111	100
2025-3-27 18:5:15.664	WT901BLE68-01(48591DE3C19B)	-0.061	-0.790	0.164	18.372	24.048	35.156	-70.24	45.77	-74.96	-85.750	-27.440	-6.762	0.49710	-0.36563	0.52267	-0.58813	31.1	13111	100
2025-3-27 18:5:15.665	WT901BLE68-01(48591DE3C19B)	-0.026	-0.790	0.164	18.372	24.048	35.156	-70.31	45.96	-75.32	-85.750	-27.440	-6.762	0.49710	-0.36563	0.52267	-0.58813	31.1	13111	100
2025-3-27 18:5:15.665	WT901BLE68-01(48591DE3C19B)	-0.026	-0.803	0.187	14.771	13.916	15.930	-70.37	45.93	-75.62	-85.750	-27.440	-6.762	0.49710	-0.36563	0.52267	-0.58813	31.1	13111	100
2025-3-27 18:5:15.665	WT901BLE68-01(48591DE3C19B)	0.021	-0.803	0.187	14.771	13.916	15.930	-70.44	45.90	-75.93	-85.750	-27.440	-6.762	0.49710	-0.36563	0.52267	-0.58813	31.1	13111	100
2025-3-27 18:5:15.665	WT901BLE68-01(48591DE3C19B)	0.021	-0.838	0.183	14.587	9.277	0.061	-70.52	45.70	-76.25	-85.750	-27.440	-6.762	0.49710	-0.36563	0.52267	-0.58813	31.1	13111	100
2025-3-27 18:5:15.814	WT901BLE68-01(48591DE3C19B)	0.069	-0.838	0.183	14.587	9.277	0.061	-70.59	45.49	-76.56	-85.750	-27.440	-6.762	0.49710	-0.36563	0.52267	-0.58813	31.1	13111	100
2025-3-27 18:5:15.814	WT901BLE68-01(48591DE3C19B)	0.069	-0.839	0.172	14.709	12.390	-14.954	-70.74	45.16	-76.99	-85.750	-27.440	-6.762	0.49710	-0.36563	0.52267	-0.58813	31.1	13111	100
2025-3-27 18:5:15.815	WT901BLE68-01(48591DE3C19B)	0.121	-0.839	0.172	14.709	12.390	-14.954	-70.88	44.82	-77.41	-85.750	-27.440	-6.762	0.49710	-0.36563	0.52267	-0.58813	31.1	13111	100
2025-3-27 18:5:15.815	WT901BLE68-01(48591DE3C19B)	0.121	-0.825	0.169	14.160	23.376	-31.860	-71.19	44.35	-78.05	-85.750	-27.440	-6.762	0.49710	-0.36563	0.52267	-0.58813	31.1	13111	100
2025-3-27 18:5:15.815	WT901BLE68-01(48591DE3C19B)	0.120	-0.825	0.169	14.160	23.376	-31.860	-71.47	43.88	-78.67	-85.750	-27.440	-6.762	0.72061	-0.22672	0.57797	-0.30841	31.1	13111	100
2025-3-27 18:5:15.815	WT901BLE68-01(48591DE3C19B)	0.120	-0.809	0.184	13.367	39.795	-50.659	-71.96	43.28	-79.58	-85.750	-27.440	-6.762	0.72061	-0.22672	0.57797	-0.30841	31.1	13111	100
2025-3-27 18:5:15.815	WT901BLE68-01(48591DE3C19B)	0.077	-0.809	0.184	13.367	39.795	-50.659	-72.43	42.67	-80.47	-85.750	-27.440	-6.762	0.72061	-0.22672	0.57797	-0.30841	31.1	13111	100
2025-3-27 18:5:15.815	WT901BLE68-01(48591DE3C19B)	0.077	-0.850	0.196	12.939	51.819	-71.045	-73.04	41.90	-81.57	-85.750	-27.440	-6.762	0.72061	-0.22672	0.57797	-0.30841	31.1	13111	100
2025-3-27 18:5:15.816	WT901BLE68-01(48591DE3C19B)	0.075	-0.850	0.196	12.939	51.819	-71.045	-73.61	41.12	-82.65	-85.750	-27.440	-6.762	0.72061	-0.22672	0.57797	-0.30841	31.1	13111	100
2025-3-27 18:5:15.816	WT901BLE68-01(48591DE3C19B)	0.075	-0.907	0.188	15.686	59.875	-93.567	-74.25	40.14	-83.88	-85.750	-27.440	-6.762	0.72061	-0.22672	0.57797	-0.30841	31.1	13111	100
2025-3-27 18:5:15.816	WT901BLE68-01(48591DE3C19B)	0.017	-0.907	0.188	15.686	59.875	-93.567	-74.85	39.16	-85.07	-85.750	-27.440	-6.762	0.72061	-0.22672	0.57797	-0.30841	31.1	13111	100
2025-3-27 18:5:15.816	WT901BLE68-01(48591DE3C19B)	0.017	-0.956	0.164	18.616	66.345	-118.103	-75.48	37.95	-86.39	-85.750	-27.440	-6.762	0.72061	-0.22672	0.57797	-0.30841	31.1	13111	100
2025-3-27 18:5:15.843	WT901BLE68-01(48591DE3C19B)	-0.118	-0.956	0.164	18.616	66.345	-118.103	-76.05	36.74	-87.66	-85.750	-27.440	-6.762	0.72061	-0.22672	0.57797	-0.30841	31.1	13111	100
2025-3-27 18:5:15.843	WT901BLE68-01(48591DE3C19B)	-0.118	-1.020	0.155	21.179	63.721	-143.433	-76.59	35.29	-88.93	-85.750	-27.440	-6.762	0.72061	-0.22672	0.57797	-0.30841	31.1	13111	100
2025-3-27 18:5:15.843	WT901BLE68-01(48591DE3C19B)	-0.240	-1.020	0.155	21.179	63.721	-143.433	-77.06	33.83	-90.16	-85.750	-27.440	-6.762	0.72061	-0.22672	0.57797	-0.30841	31.1	13111	100
2025-3-27 18:5:15.843	WT901BLE68-01(48591DE3C19B)	-0.240	-1.098	0.173	24.963	48.706	-168.701	-77.40	32.11	-91.25	-85.750	-27.440	-6.762	0.72061	-0.22672	0.57797	-0.30841	31.1	13111	100
2025-3-27 18:5:15.874	WT901BLE68-01(48591DE3C19B)	-0.296	-1.098	0.173	24.963	48.706	-168.701	-77.69	30.39	-92.29	-85.750	-27.440	-6.762	0.72061	-0.22672	0.57797	-0.30841	31.1	13111	100
2025-3-27 18:5:15.874	WT901BLE68-01(48591DE3C19B)	-0.296	-1.173	0.184	26.917	29.114	-191.528	-77.83	28.43	-93.14	-85.750	-27.440	-6.762	0.72061	-0.22672	0.57797	-0.30841	31.1	13111	100
2025-3-27 18:5:15.874	WT901BLE68-01(48591DE3C19B)	-0.286	-1.173	0.184	26.917	29.114	-191.528	-77.95	26.49	-93.97	-85.750	-27.440	-6.762	0.72061	-0.22672	0.57797	-0.30841	31.1	13111	100
2025-3-27 18:5:15.874	WT901BLE68-01(48591DE3C19B)	-0.286	-1.263	0.182	24.841	15.503	-209.473	-78.00	24.36	-94.67	-85.750	-27.440	-6.762	0.72061	-0.22672	0.57797	-0.30841	31.1	13111	100
2025-3-27 18:5:15.903	WT901BLE68-01(48591DE3C19B)	-0.267	-1.263	0.182	24.841	15.503	-209.473	-78.02	22.25	-95.36	-85.750	-27.440	-6.762	0.72061	-0.22672	0.57797	-0.30841	31.1	13111	100
2025-3-27 18:5:15.903	WT901BLE68-01(48591DE3C19B)	-0.267	-1.397	0.179	20.386	13.123	-224.854	-78.07	20.00	-96.04	-85.750	-27.440	-6.762	0.72061	-0.22672	0.57797	-0.30841	31.1	13111	100
2025-3-27 18:5:15.903	WT901BLE68-01(48591DE3C19B)	-0.248	-1.397	0.179	20.386	13.123	-224.854	-78.09	17.76	-96.71	-85.750	-27.440	-6.762	0.72061	-0.22672	0.57797	-0.30841	31.1	13111	100
2025-3-27 18:5:15.903	WT901BLE68-01(48591DE3C19B)	-0.248	-1.518	0.193	16.846	21.057	-237.671	-78.15	15.42	-97.47	-85.750	-27.440	-6.762	0.72061	-0.22672	0.57797	-0.30841	31.1	13111	100
2025-3-27 18:5:15.964	WT901BLE68-01(48591DE3C19B)	-0.230	-1.518	0.193	16.846	21.057	-237.671	-78.18	13.11	-98.22	-85.750	-27.440	-6.762	0.72061	-0.22672	0.57797	-0.30841	31.1	13111	100
2025-3-27 18:5:15.964	WT901BLE68-01(48591DE3C19B)	-0.230	-1.605	0.223	12.756	39.795	-245.972	-78.26	10.77	-99.16	-76.538	-33.026	-12.544	0.72061	-0.22672	0.57797	-0.30841	31.1	13111	100
2025-3-27 18:5:15.964	WT901BLE68-01(48591DE3C19B)	-0.256	-1.605	0.223	12.756	39.795	-245.972	-78.30	8.43	-100.09	-76.538	-33.026	-12.544	0.72061	-0.22672	0.57797	-0.30841	31.1	13111	100
2025-3-27 18:5:15.964	WT901BLE68-01(48591DE3C19B)	-0.256	-1.667	0.263	12.451	63.721	-247.742	-78.34	6.14	-101.24	-76.538	-33.026	-12.544	0.72061	-0.22672	0.57797	-0.30841	31.1	13111	100
2025-3-27 18:5:16.24	WT901BLE68-01(48591DE3C19B)	-0.314	-1.667	0.263	12.451	63.721	-247.742	-78.33	3.87	-102.39	-76.538	-33.026	-12.544	0.72061	-0.22672	0.57797	-0.30841	31.1	13111	100
2025-3-27 18:5:16.24	WT901BLE68-01(48591DE3C19B)	-0.314	-1.604	0.291	18.982	84.900	-242.065	-78.22	1.71	-103.72	-76.538	-33.026	-12.544	0.72061	-0.22672	0.57797	-0.30841	31.1	13111	100
2025-3-27 18:5:16.24	WT901BLE68-01(48591DE3C19B)	-0.344	-1.604	0.291	18.982	84.900	-242.065	-78.06	-0.43	-105.06	-76.538	-33.026	-12.544	0.72061	-0.22672	0.57797	-0.30841	31.1	13111	100
2025-3-27 18:5:16.24	WT901BLE68-01(48591DE3C19B)	-0.344	-1.464	0.271	26.611	101.257	-229.065	-77.78	-2.39	-106.52	-76.538	-33.026	-12.544	0.72061	-0.22672	0.57797	-0.30841	31.1	13111	100
2025-3-27 18:5:16.25	WT901BLE68-01(48591DE3C19B)	-0.321	-1.464	0.271	26.611	101.257	-229.065	-77.45	-4.33	-108.00	-76.538	-33.026	-12.544	0.72061	-0.22672	0.57797	-0.30841	31.1	13111	100
2025-3-27 18:5:16.25	WT901BLE68-01(48591DE3C19B)	-0.321	-1.312	0.198	33.325	117.126	-211.487	-76.99	-6.04	-109.61	-76.538	-33.026	-12.544	0.72061	-0.22672	0.57797	-0.30841	31.1	13111	100
2025-3-27 18:5:16.25	WT901BLE68-01(48591DE3C19B)	-0.310	-1.312	0.198	33.325	117.126	-211.487	-76.49	-7.72	-111.23	-76.538	-33.026	-12.544	0.72061	-0.22672	0.57797	-0.30841	31.1	13111	100
2025-3-27 18:5:16.25	WT901BLE68-01(48591DE3C19B)	-0.310	-1.225	0.113	35.095	128.113	-189.514	-75.92	-9.15	-112.92	-76.538	-33.026	-12.544	0.72061	-0.22672	0.57797	-0.30841	31.1	13111	100
2025-3-27 18:5:16.84	WT901BLE68-01(48591DE3C19B)	-0.305	-1.225	0.113	35.095	128.113	-189.514	-75.31	-10.54	-114.62	-76.538	-33.026	-12.544	0.72061	-0.22672	0.57797	-0.30841	31.1	13111	100
2025-3-27 18:5:16.84	WT901BLE68-01(48591DE3C19B)	-0.305	-1.246	0.071	34.973	131.042	-167.114	-74.67	-11.68	-116.31	-76.538	-33.026	-12.544	0.72061	-0.22672	0.57797	-0.30841	31.1	13111	100
2025-3-27 18:5:16.85	WT901BLE68-01(48591DE3C19B)	-0.326	-1.246	0.071	34.973	131.042	-167.114	-74.01	-12.80	-118.00	-76.538	-33.026	-12.544	0.72061	-0.22672	0.57797	-0.30841	31.1	13111	100
2025-3-27 18:5:16.85	WT901BLE68-01(48591DE3C19B)	-0.373	-1.248	0.080	36.194	130.493	-142.700	-73.33	-13.66	-119.64	-76.538	-33.026	-12.544	0.72061	-0.22672	0.57797	-0.30841	31.1	13111	100
2025-3-27 18:5:16.174	WT901BLE68-01(48591DE3C19B)	-0.373	-1.188	0.095	35.828	130.188	-117.310	-72.64	-14.36	-121.25	-76.538	-33.026	-12.544	0.72061	-0.22672	0.57797	-0.30841	31.1	13111	100
2025-3-27 18:5:16.175	WT901BLE68-01(48591DE3C19B)	-0.417	-1.188	0.095	35.828	130.188	-117.310	-71.94	-14.93	-122.82	-76.538	-33.026	-12.544	0.72061	-0.22672	0.57797	-0.30841	31.1	13111	100
2025-3-27 18:5:16.175	WT901BLE68-01(48591DE3C19B)	-0.417	-1.087	0.095	34.363	131.042	-92.712	-71.26	-15.35	-124.36	-76.538	-33.026	-12.544	0.72061	-0.22672	0.57797	-0.30841	31.1	13111	100
2025-3-27 18:5:16.175	WT901BLE68-01(48591DE3C19B)	-0.449	-1.087	0.095	34.363	131.042	-92.712	-70.58	-15.64	-125.86	-76.538	-33.026	-12.544	0.29791	-0.35928	0.45914	-0.75580	31.1	13111	100
2025-3-27 18:5:16.175	WT901BLE68-01(48591DE3C19B)	-0.449	-0.966	0.098	31.250	128.296	-69.519	-69.93	-15.79	-127.32	-76.538	-33.026	-12.544	0.29791	-0.35928	0.45914	-0.75580	31.1	13111	100
2025-3-27 18:5:16.175	WT901BLE68-01(48591DE3C19B)	-0.448	-0.966	0.098	31.250	128.296	-69.519	-69.32	-15.83	-128.72	-76.538	-33.026	-12.544	0.29791	-0.35928	0.45914	-0.75580	31.1	13111	100
2025-3-27 18:5:16.175	WT901BLE68-01(48591DE3C19B)	-0.448	-0.865	0.105	25.574	117.004	-49.133	-68.76	-15.77	-130.02	-76.538	-33.026	-12.544	0.29791	-0.35928	0.45914	-0.75580	31.1	13111	100
2025-3-27 18:5:16.176	WT901BLE68-01(48591DE3C19B)	-0.436	-0.865	0.105	25.574	117.004	-49.133	-68.27	-15.61	-131.23	-76.538	-33.026	-12.544	0.29791	-0.35928	0.45914	-0.75580	31.1	13111	100
2025-3-27 18:5:16.203	WT901BLE68-01(48591DE3C19B)	-0.436	-0.824	0.099	18.433	101.501	-30.945	-67.85	-15.39	-132.32	-76.538	-33.026	-12.544	0.29791	-0.35928	0.45914	-0.75580	31.1	13111	100
2025-3-27 18:5:16.203	WT901BLE68-01(48591DE3C19B)	-0.446	-0.824	0.099	18.433	101.501	-30.945	-67.49	-15.11	-133.31	-76.538	-33.026	-12.544	0.29791	-0.35928	0.45914	-0.75580	31.1	13111	100
2025-3-27 18:5:16.203	WT901BLE68-01(48591DE3C19B)	-0.446	-0.843	0.080	11.658	82.642	-15.381	-67.21	-14.78	-134.18	-76.538	-33.026	-12.544	0.29791	-0.35928	0.45914	-0.75580	31.1	13111	100
2025-3-27 18:5:16.203	WT901BLE68-01(48591DE3C19B)	-0.480	-0.843	0.080	11.658	82.642	-15.381	-67.01	-14.41	-134.92	-76.538	-33.026	-12.544	0.29791	-0.35928	0.45914	-0.75580	31.1	13111	100
2025-3-27 18:5:16.263	WT901BLE68-01(48591DE3C19B)	-0.480	-0.886	0.061	5.920	60.242	-4.639	-66.87	-14.03	-135.53	-76.538	-33.026	-12.544	0.29791	-0.35928	0.45914	-0.75580	31.1	13111	100
2025-3-27 18:5:16.264	WT901BLE68-01(48591DE3C19B)	-0.494	-0.886	0.061	5.920	60.242	-4.639	-66.80	-13.64	-136.02	-76.538	-33.026	-12.544	0.29791	-0.35928	0.45914	-0.75580	31.1	13111	100
2025-3-27 18:5:16.264	WT901BLE68-01(48591DE3C19B)	-0.494	-0.900	0.044	1.160	34.302	2.258	-66.78	-13.27	-136.37	-76.538	-33.026	-12.544	0.29791	-0.35928	0.45914	-0.75580	31.1	13111	100
2025-3-27 18:5:16.264	WT901BLE68-01(48591DE3C19B)	-0.489	-0.900	0.044	1.160	34.302	2.258	-66.82	-12.91	-136.59	-76.538	-33.026	-12.544	0.29791	-0.35928	0.45914	-0.75580	31.1	13111	100
2025-3-27 18:5:16.297	WT901BLE68-01(48591DE3C19B)	-0.489	-0.881	0.034	-3.784	7.568	7.080	-66.92	-12.58	-136.68	-76.538	-33.026	-12.544	0.29791	-0.35928	0.45914	-0.75580	31.1	13111	100
2025-3-27 18:5:16.297	WT901BLE68-01(48591DE3C19B)	-0.474	-0.881	0.034	-3.784	7.568	7.080	-67.08	-12.29	-136.64	-76.538	-33.026	-12.544	0.29791	-0.35928	0.45914	-0.75580	31.1	13111	100
2025-3-27 18:5:16.297	WT901BLE68-01(48591DE3C19B)	-0.474	-0.850	0.039	-10.071	-18.921	10.681	-67.29	-12.02	-136.46	-76.538	-33.026	-12.544	0.29791	-0.35928	0.45914	-0.75580	31.1	13111	100
2025-3-27 18:5:16.297	WT901BLE68-01(48591DE3C19B)	-0.445	-0.850	0.039	-10.071	-18.921	10.681	-67.56	-11.79	-136.17	-76.538	-33.026	-12.544	0.29791	-0.35928	0.45914	-0.75580	31.1	13111	100
2025-3-27 18:5:16.324	WT901BLE68-01(48591DE3C19B)	-0.445	-0.823	0.075	-16.663	-41.138	14.282	-67.88	-11.59	-135.76	-76.538	-33.026	-12.544	0.29791	-0.35928	0.45914	-0.75580	31.1	13111	100
2025-3-27 18:5:16.324	WT901BLE68-01(48591DE3C19B)	-0.419	-0.823	0.075	-16.663	-41.138	14.282	-68.25	-11.39	-135.26	-76.538	-33.026	-12.544	0.29791	-0.35928	0.45914	-0.75580	31.1	13111	100
2025-3-27 18:5:16.324	WT901BLE68-01(48591DE3C19B)	-0.419	-0.809	0.131	-21.790	-55.359	19.653	-68.65	-11.20	-134.68	-76.538	-33.026	-12.544	0.29791	-0.35928	0.45914	-0.75580	31.1	13111	100
2025-3-27 18:5:16.324	WT901BLE68-01(48591DE3C19B)	-0.400	-0.809	0.131	-21.790	-55.359	19.653	-69.09	-11.00	-134.04	-40.572	-46.060	-11.172	0.29791	-0.35928	0.45914	-0.75580	31.1	13111	100
2025-3-27 18:5:16.353	WT901BLE68-01(48591DE3C19B)	-0.400	-0.778	0.150	-26.550	-65.918	26.184	-69.55	-10.79	-133.34	-40.572	-46.060	-11.172	0.29791	-0.35928	0.45914	-0.75580	31.1	13111	100
2025-3-27 18:5:16.353	WT901BLE68-01(48591DE3C19B)	-0.372	-0.778	0.150	-26.550	-65.918	26.184	-70.03	-10.56	-132.59	-40.572	-46.060	-11.172	0.29791	-0.35928	0.45914	-0.75580	31.1	13111	100
2025-3-27 18:5:16.353	WT901BLE68-01(48591DE3C19B)	-0.372	-0.782	0.157	-31.982	-72.754	32.532	-70.54	-10.30	-131.81	-40.572	-46.060	-11.172	0.29791	-0.35928	0.45914	-0.75580	31.1	13111	100
2025-3-27 18:5:16.353	WT901BLE68-01(48591DE3C19B)	-0.375	-0.782	0.157	-31.982	-72.754	32.532	-71.08	-10.02	-130.99	-40.572	-46.060	-11.172	0.29791	-0.35928	0.45914	-0.75580	31.1	13111	100
2025-3-27 18:5:16.414	WT901BLE68-01(48591DE3C19B)	-0.375	-0.837	0.173	-35.156	-77.148	39.673	-71.62	-9.71	-130.14	-40.572	-46.060	-11.172	0.29791	-0.35928	0.45914	-0.75580	31.1	13111	100
2025-3-27 18:5:16.414	WT901BLE68-01(48591DE3C19B)	-0.398	-0.837	0.173	-35.156	-77.148	39.673	-72.17	-9.36	-129.28	-40.572	-46.060	-11.172	0.29791	-0.35928	0.45914	-0.75580	31.1	13111	100
2025-3-27 18:5:16.414	WT901BLE68-01(48591DE3C19B)	-0.398	-0.904	0.180	-35.339	-86.182	48.096	-72.72	-8.99	-128.35	-40.572	-46.060	-11.172	0.29791	-0.35928	0.45914	-0.75580	31.1	13111	100
2025-3-27 18:5:16.414	WT901BLE68-01(48591DE3C19B)	-0.401	-0.904	0.180	-35.339	-86.182	48.096	-73.27	-8.57	-127.38	-40.572	-46.060	-11.172	0.29791	-0.35928	0.45914	-0.75580	31.1	13111	100
2025-3-27 18:5:16.443	WT901BLE68-01(48591DE3C19B)	-0.401	-0.946	0.189	-33.264	-97.839	57.617	-73.81	-8.13	-126.35	-40.572	-46.060	-11.172	0.29791	-0.35928	0.45914	-0.75580	31.1	13111	100
2025-3-27 18:5:16.443	WT901BLE68-01(48591DE3C19B)	-0.420	-0.946	0.189	-33.264	-97.839	57.617	-74.33	-7.65	-125.25	-40.572	-46.060	-11.172	0.29791	-0.35928	0.45914	-0.75580	31.1	13111	100
2025-3-27 18:5:16.443	WT901BLE68-01(48591DE3C19B)	-0.420	-1.021	0.227	-30.701	-112.610	72.021	-74.83	-7.12	-124.07	-40.572	-46.060	-11.172	0.29791	-0.35928	0.45914	-0.75580	31.1	13111	100
2025-3-27 18:5:16.443	WT901BLE68-01(48591DE3C19B)	-0.384	-1.021	0.227	-30.701	-112.610	72.021	-75.32	-6.53	-122.81	-40.572	-46.060	-11.172	0.29791	-0.35928	0.45914	-0.75580	31.1	13111	100
2025-3-27 18:5:16.474	WT901BLE68-01(48591DE3C19B)	-0.384	-1.114	0.227	-27.283	-125.732	88.806	-75.77	-5.87	-121.47	-40.572	-46.060	-11.172	0.29791	-0.35928	0.45914	-0.75580	31.1	13111	100
2025-3-27 18:5:16.474	WT901BLE68-01(48591DE3C19B)	-0.211	-1.114	0.227	-27.283	-125.732	88.806	-76.20	-5.14	-120.05	-40.572	-46.060	-11.172	0.29791	-0.35928	0.45914	-0.75580	31.1	13111	100
2025-3-27 18:5:16.474	WT901BLE68-01(48591DE3C19B)	-0.211	-1.273	0.183	-30.396	-124.207	101.257	-76.62	-4.35	-118.64	-40.572	-46.060	-11.172	0.29791	-0.35928	0.45914	-0.75580	31.1	13111	100
2025-3-27 18:5:16.474	WT901BLE68-01(48591DE3C19B)	-0.037	-1.273	0.183	-30.396	-124.207	101.257	-77.04	-3.49	-117.21	-40.572	-46.060	-11.172	0.29791	-0.35928	0.45914	-0.75580	31.1	13111	100
2025-3-27 18:5:16.534	WT901BLE68-01(48591DE3C19B)	-0.037	-1.780	0.206	-40.833	-110.229	101.318	-77.48	-2.64	-115.87	-40.572	-46.060	-11.172	0.29791	-0.35928	0.45914	-0.75580	31.1	13111	100
2025-3-27 18:5:16.534	WT901BLE68-01(48591DE3C19B)	0.080	-1.780	0.206	-40.833	-110.229	101.318	-77.95	-1.77	-114.59	-40.572	-46.060	-11.172	0.29791	-0.35928	0.45914	-0.75580	31.1	13111	100
2025-3-27 18:5:16.534	WT901BLE68-01(48591DE3C19B)	0.080	-2.146	0.247	-28.442	-90.637	100.525	-78.34	-0.90	-113.40	-40.572	-46.060	-11.172	0.29791	-0.35928	0.45914	-0.75580	31.1	13111	100
2025-3-27 18:5:16.534	WT901BLE68-01(48591DE3C19B)	0.002	-2.146	0.247	-28.442	-90.637	100.525	-78.66	-0.02	-112.32	-40.572	-46.060	-11.172	0.29791	-0.35928	0.45914	-0.75580	31.1	13111	100
2025-3-27 18:5:16.563	WT901BLE68-01(48591DE3C19B)	0.002	-1.494	0.398	0.671	-87.158	110.535	-78.80	0.89	-111.25	-40.572	-46.060	-11.172	0.44547	-0.35315	0.52740	-0.63135	31.1	13111	100
2025-3-27 18:5:16.563	WT901BLE68-01(48591DE3C19B)	-0.050	-1.494	0.398	0.671	-87.158	110.535	-78.78	1.85	-110.18	-40.572	-46.060	-11.172	0.44547	-0.35315	0.52740	-0.63135	31.1	13111	100
2025-3-27 18:5:16.563	WT901BLE68-01(48591DE3C19B)	-0.050	-0.943	0.503	-13.000	-91.980	119.751	-78.87	2.88	-109.07	-40.572	-46.060	-11.172	0.44547	-0.35315	0.52740	-0.63135	31.1	13111	100
2025-3-27 18:5:16.563	WT901BLE68-01(48591DE3C19B)	-0.093	-0.943	0.503	-13.000	-91.980	119.751	-78.93	3.90	-107.96	-40.572	-46.060	-11.172	0.44547	-0.35315	0.52740	-0.63135	31.1	13111	100
2025-3-27 18:5:16.623	WT901BLE68-01(48591DE3C19B)	-0.093	-0.845	0.552	-25.513	-94.177	133.423	-79.08	5.04	-106.81	-40.572	-46.060	-11.172	0.44547	-0.35315	0.52740	-0.63135	31.1	13111	100
2025-3-27 18:5:16.623	WT901BLE68-01(48591DE3C19B)	-0.042	-0.845	0.552	-25.513	-94.177	133.423	-79.19	6.19	-105.67	-40.572	-46.060	-11.172	0.44547	-0.35315	0.52740	-0.63135	31.1	13111	100
2025-3-27 18:5:16.623	WT901BLE68-01(48591DE3C19B)	-0.042	-1.099	0.419	-28.625	-100.403	152.954	-79.30	7.50	-104.44	-40.572	-46.060	-11.172	0.44547	-0.35315	0.52740	-0.63135	31.1	13111	100
2025-3-27 18:5:16.623	WT901BLE68-01(48591DE3C19B)	0.066	-1.099	0.419	-28.625	-100.403	152.954	-79.37	8.80	-103.20	-40.572	-46.060	-11.172	0.44547	-0.35315	0.52740	-0.63135	31.1	13111	100
2025-3-27 18:5:16.653	WT901BLE68-01(48591DE3C19B)	0.066	-1.208	0.253	-9.460	-109.009	170.654	-79.21	10.24	-101.85	-40.572	-46.060	-11.172	0.44547	-0.35315	0.52740	-0.63135	31.1	13111	100
2025-3-27 18:5:16.653	WT901BLE68-01(48591DE3C19B)	0.188	-1.208	0.253	-9.460	-109.009	170.654	-79.00	11.67	-100.49	-40.572	-46.060	-11.172	0.44547	-0.35315	0.52740	-0.63135	31.1	13111	100
2025-3-27 18:5:16.654	WT901BLE68-01(48591DE3C19B)	0.188	-1.275	0.192	6.409	-104.004	194.824	-78.61	13.33	-99.11	-40.572	-46.060	-11.172	0.44547	-0.35315	0.52740	-0.63135	31.1	13111	100
2025-3-27 18:5:16.654	WT901BLE68-01(48591DE3C19B)	0.271	-1.275	0.192	6.409	-104.004	194.824	-78.18	14.95	-97.72	-40.572	-46.060	-11.172	0.44547	-0.35315	0.52740	-0.63135	31.1	13111	100
