time	DeviceName	AccX(g)	AccY(g)	AccZ(g)	AsX(°/s)	AsY(°/s)	AsZ(°/s)	AngleX(°)	AngleY(°)	AngleZ(°)	HX(uT)	HY(uT)	HZ(uT)	Q0()	Q1()	Q2()	Q3()	Temperature(°C)	Version()	Battery level(%)
2025-3-27 17:58:41.297	WT901BLE68-01(48591DE3C19B)	-0.275	-0.908	0.265	4.395	5.554	-3.784	-73.61	16.63	-78.07	-107.996	-44.590	30.380	-0.67316	0.39233	-0.46310	0.42230	30.9	13111	100
2025-3-27 17:58:41.297	WT901BLE68-01(48591DE3C19B)	-0.275	-0.918	0.269	4.272	6.104	-3.479	-73.59	16.61	-78.16	-107.996	-44.590	30.380	-0.67316	0.39233	-0.46310	0.42230	30.9	13111	100
2025-3-27 17:58:41.297	WT901BLE68-01(48591DE3C19B)	-0.275	-0.918	0.269	4.272	6.104	-3.479	-73.58	16.59	-78.24	-107.996	-44.590	30.380	-0.67316	0.39233	-0.46310	0.42230	30.9	13111	100
2025-3-27 17:58:41.297	WT901BLE68-01(48591DE3C19B)	-0.275	-0.935	0.269	4.272	5.676	-2.930	-73.55	16.57	-78.33	-107.996	-44.590	30.380	-0.67316	0.39233	-0.46310	0.42230	30.9	13111	100
2025-3-27 17:58:41.353	WT901BLE68-01(48591DE3C19B)	-0.267	-0.935	0.269	4.272	5.676	-2.930	-73.53	16.56	-78.40	-107.996	-44.590	30.380	-0.67316	0.39233	-0.46310	0.42230	30.9	13111	100
2025-3-27 17:58:41.354	WT901BLE68-01(48591DE3C19B)	-0.267	-0.942	0.265	4.700	6.226	-1.953	-73.50	16.55	-78.49	-107.996	-44.590	30.380	-0.67316	0.39233	-0.46310	0.42230	30.9	13111	100
2025-3-27 17:58:41.354	WT901BLE68-01(48591DE3C19B)	-0.262	-0.942	0.265	4.700	6.226	-1.953	-73.48	16.55	-78.57	-107.996	-44.590	30.380	-0.67316	0.39233	-0.46310	0.42230	30.9	13111	100
2025-3-27 17:58:41.354	WT901BLE68-01(48591DE3C19B)	-0.262	-0.946	0.265	4.944	8.301	-0.427	-73.46	16.56	-78.67	-107.996	-44.590	30.380	-0.67316	0.39233	-0.46310	0.42230	30.9	13111	100
2025-3-27 17:58:41.415	WT901BLE68-01(48591DE3C19B)	-0.252	-0.946	0.265	4.944	8.301	-0.427	-73.44	16.57	-78.77	-107.408	-45.472	29.106	-0.67316	0.39233	-0.46310	0.42230	30.9	13111	100
2025-3-27 17:58:41.415	WT901BLE68-01(48591DE3C19B)	-0.252	-0.949	0.263	5.188	10.803	1.221	-73.42	16.61	-78.89	-107.408	-45.472	29.106	-0.67316	0.39233	-0.46310	0.42230	30.9	13111	100
2025-3-27 17:58:41.415	WT901BLE68-01(48591DE3C19B)	-0.257	-0.949	0.263	5.188	10.803	1.221	-73.41	16.64	-79.01	-107.408	-45.472	29.106	-0.67316	0.39233	-0.46310	0.42230	30.9	13111	100
2025-3-27 17:58:41.415	WT901BLE68-01(48591DE3C19B)	-0.257	-0.964	0.254	4.578	12.878	3.296	-73.39	16.70	-79.15	-107.408	-45.472	29.106	-0.67316	0.39233	-0.46310	0.42230	30.9	13111	100
2025-3-27 17:58:41.415	WT901BLE68-01(48591DE3C19B)	-0.277	-0.964	0.254	4.578	12.878	3.296	-73.39	16.77	-79.28	-107.408	-45.472	29.106	-0.67316	0.39233	-0.46310	0.42230	30.9	13111	100
2025-3-27 17:58:41.415	WT901BLE68-01(48591DE3C19B)	-0.279	-1.033	0.248	3.052	10.986	5.066	-73.39	16.83	-79.39	-107.408	-45.472	29.106	-0.67316	0.39233	-0.46310	0.42230	30.9	13111	100
2025-3-27 17:58:41.416	WT901BLE68-01(48591DE3C19B)	-0.279	-1.070	0.255	4.578	6.836	7.813	-73.38	16.91	-79.48	-107.408	-45.472	29.106	-0.67316	0.39233	-0.46310	0.42230	30.9	13111	100
2025-3-27 17:58:41.416	WT901BLE68-01(48591DE3C19B)	-0.200	-1.070	0.255	4.578	6.836	7.813	-73.36	17.00	-79.53	-107.408	-45.472	29.106	-0.67316	0.39233	-0.46310	0.42230	30.9	13111	100
2025-3-27 17:58:41.474	WT901BLE68-01(48591DE3C19B)	-0.200	-1.017	0.245	6.104	7.385	9.521	-73.33	17.08	-79.59	-107.408	-45.472	29.106	-0.67316	0.39233	-0.46310	0.42230	30.9	13111	100
2025-3-27 17:58:41.474	WT901BLE68-01(48591DE3C19B)	-0.137	-1.017	0.245	6.104	7.385	9.521	-73.30	17.18	-79.65	-107.408	-45.472	29.106	-0.67316	0.39233	-0.46310	0.42230	30.9	13111	100
2025-3-27 17:58:41.474	WT901BLE68-01(48591DE3C19B)	-0.137	-0.925	0.231	5.920	16.296	9.094	-73.28	17.28	-79.76	-107.408	-45.472	29.106	-0.67316	0.39233	-0.46310	0.42230	30.9	13111	100
2025-3-27 17:58:41.474	WT901BLE68-01(48591DE3C19B)	-0.109	-0.925	0.231	5.920	16.296	9.094	-73.27	17.40	-79.91	-107.408	-45.472	29.106	-0.67316	0.39233	-0.46310	0.42230	30.9	13111	100
2025-3-27 17:58:41.502	WT901BLE68-01(48591DE3C19B)	-0.109	-0.875	0.222	3.418	26.123	4.150	-73.30	17.49	-80.12	-107.408	-45.472	29.106	-0.67316	0.39233	-0.46310	0.42230	30.9	13111	100
2025-3-27 17:58:41.502	WT901BLE68-01(48591DE3C19B)	-0.069	-0.875	0.222	3.418	26.123	4.150	-73.35	17.58	-80.38	-107.408	-45.472	29.106	-0.67316	0.39233	-0.46310	0.42230	30.9	13111	100
2025-3-27 17:58:41.503	WT901BLE68-01(48591DE3C19B)	-0.069	-0.848	0.226	1.526	33.569	-3.357	-73.43	17.63	-80.69	-107.408	-45.472	29.106	-0.67316	0.39233	-0.46310	0.42230	30.9	13111	100
2025-3-27 17:58:41.503	WT901BLE68-01(48591DE3C19B)	-0.072	-0.848	0.226	1.526	33.569	-3.357	-73.54	17.66	-81.06	-107.408	-45.472	29.106	-0.67316	0.39233	-0.46310	0.42230	30.9	13111	100
2025-3-27 17:58:41.534	WT901BLE68-01(48591DE3C19B)	-0.072	-0.856	0.240	-0.183	45.166	-12.024	-73.67	17.66	-81.49	-107.408	-45.472	29.106	-0.67316	0.39233	-0.46310	0.42230	30.9	13111	100
2025-3-27 17:58:41.534	WT901BLE68-01(48591DE3C19B)	-0.124	-0.856	0.240	-0.183	45.166	-12.024	-73.83	17.62	-82.00	-107.408	-45.472	29.106	-0.67316	0.39233	-0.46310	0.42230	30.9	13111	100
2025-3-27 17:58:41.534	WT901BLE68-01(48591DE3C19B)	-0.124	-0.878	0.240	-0.610	49.316	-19.958	-74.00	17.55	-82.53	-107.408	-45.472	29.106	-0.67316	0.39233	-0.46310	0.42230	30.9	13111	100
2025-3-27 17:58:41.534	WT901BLE68-01(48591DE3C19B)	-0.162	-0.878	0.240	-0.610	49.316	-19.958	-74.18	17.45	-83.10	-107.408	-45.472	29.106	-0.67316	0.39233	-0.46310	0.42230	30.9	13111	100
2025-3-27 17:58:41.594	WT901BLE68-01(48591DE3C19B)	-0.162	-0.880	0.250	-0.793	45.654	-27.466	-74.36	17.30	-83.66	-107.408	-45.472	29.106	-0.67316	0.39233	-0.46310	0.42230	30.9	13111	100
2025-3-27 17:58:41.594	WT901BLE68-01(48591DE3C19B)	-0.192	-0.880	0.250	-0.793	45.654	-27.466	-74.53	17.11	-84.21	-107.408	-45.472	29.106	-0.64261	0.36459	-0.49008	0.46243	30.9	13111	100
2025-3-27 17:58:41.595	WT901BLE68-01(48591DE3C19B)	-0.192	-0.888	0.254	-1.831	37.292	-33.630	-74.69	16.88	-84.73	-107.408	-45.472	29.106	-0.64261	0.36459	-0.49008	0.46243	30.9	13111	100
2025-3-27 17:58:41.595	WT901BLE68-01(48591DE3C19B)	-0.190	-0.888	0.254	-1.831	37.292	-33.630	-74.84	16.61	-85.21	-107.408	-45.472	29.106	-0.64261	0.36459	-0.49008	0.46243	30.9	13111	100
2025-3-27 17:58:41.653	WT901BLE68-01(48591DE3C19B)	-0.190	-0.892	0.258	-2.502	26.001	-38.696	-74.98	16.31	-85.64	-107.408	-45.472	29.106	-0.64261	0.36459	-0.49008	0.46243	30.9	13111	100
2025-3-27 17:58:41.654	WT901BLE68-01(48591DE3C19B)	-0.161	-0.892	0.258	-2.502	26.001	-38.696	-75.11	15.96	-86.01	-107.408	-45.472	29.106	-0.64261	0.36459	-0.49008	0.46243	30.9	13111	100
2025-3-27 17:58:41.654	WT901BLE68-01(48591DE3C19B)	-0.161	-0.885	0.271	-3.479	21.362	-43.152	-75.23	15.60	-86.37	-107.408	-45.472	29.106	-0.64261	0.36459	-0.49008	0.46243	30.9	13111	100
2025-3-27 17:58:41.654	WT901BLE68-01(48591DE3C19B)	-0.178	-0.885	0.271	-3.479	21.362	-43.152	-75.34	15.21	-86.72	-107.408	-45.472	29.106	-0.64261	0.36459	-0.49008	0.46243	30.9	13111	100
2025-3-27 17:58:41.655	WT901BLE68-01(48591DE3C19B)	-0.178	-0.894	0.292	-5.493	21.301	-47.485	-75.47	14.79	-87.06	-107.408	-45.472	29.106	-0.64261	0.36459	-0.49008	0.46243	30.9	13111	100
2025-3-27 17:58:41.655	WT901BLE68-01(48591DE3C19B)	-0.211	-0.894	0.292	-5.493	21.301	-47.485	-75.60	14.36	-87.40	-107.408	-45.472	29.106	-0.64261	0.36459	-0.49008	0.46243	30.9	13111	100
2025-3-27 17:58:41.655	WT901BLE68-01(48591DE3C19B)	-0.211	-0.917	0.313	-6.836	20.630	-51.941	-75.73	13.90	-87.75	-107.408	-45.472	29.106	-0.64261	0.36459	-0.49008	0.46243	30.9	13111	100
2025-3-27 17:58:41.655	WT901BLE68-01(48591DE3C19B)	-0.236	-0.917	0.313	-6.836	20.630	-51.941	-75.87	13.44	-88.10	-107.408	-45.472	29.106	-0.64261	0.36459	-0.49008	0.46243	30.9	13111	100
2025-3-27 17:58:41.774	WT901BLE68-01(48591DE3C19B)	-0.236	-0.922	0.329	-6.592	17.883	-55.054	-75.99	12.95	-88.43	-107.408	-45.472	29.106	-0.64261	0.36459	-0.49008	0.46243	30.9	13111	100
2025-3-27 17:58:41.775	WT901BLE68-01(48591DE3C19B)	-0.257	-0.922	0.329	-6.592	17.883	-55.054	-76.11	12.45	-88.76	-107.408	-45.472	29.106	-0.64261	0.36459	-0.49008	0.46243	30.9	13111	100
2025-3-27 17:58:41.775	WT901BLE68-01(48591DE3C19B)	-0.257	-0.902	0.341	-5.798	14.526	-56.641	-76.21	11.94	-89.07	-107.408	-45.472	29.106	-0.64261	0.36459	-0.49008	0.46243	30.9	13111	100
2025-3-27 17:58:41.775	WT901BLE68-01(48591DE3C19B)	-0.271	-0.902	0.341	-5.798	14.526	-56.641	-76.31	11.42	-89.36	-107.408	-45.472	29.106	-0.64261	0.36459	-0.49008	0.46243	30.9	13111	100
2025-3-27 17:58:41.775	WT901BLE68-01(48591DE3C19B)	-0.271	-0.892	0.325	-5.249	11.719	-56.458	-76.39	10.91	-89.64	-107.408	-45.472	29.106	-0.64261	0.36459	-0.49008	0.46243	30.9	13111	100
2025-3-27 17:58:41.776	WT901BLE68-01(48591DE3C19B)	-0.266	-0.892	0.325	-5.249	11.719	-56.458	-76.45	10.40	-89.91	-107.408	-45.472	29.106	-0.64261	0.36459	-0.49008	0.46243	30.9	13111	100
2025-3-27 17:58:41.776	WT901BLE68-01(48591DE3C19B)	-0.266	-0.877	0.312	-3.967	12.146	-54.749	-76.52	9.90	-90.17	-107.408	-45.472	29.106	-0.64261	0.36459	-0.49008	0.46243	30.9	13111	100
2025-3-27 17:58:41.776	WT901BLE68-01(48591DE3C19B)	-0.267	-0.877	0.312	-3.967	12.146	-54.749	-76.57	9.42	-90.43	-102.802	-52.136	21.952	-0.64261	0.36459	-0.49008	0.46243	30.9	13111	100
2025-3-27 17:58:41.776	WT901BLE68-01(48591DE3C19B)	-0.267	-0.879	0.296	-3.296	14.343	-52.002	-76.61	8.95	-90.70	-102.802	-52.136	21.952	-0.64261	0.36459	-0.49008	0.46243	30.9	13111	100
2025-3-27 17:58:41.776	WT901BLE68-01(48591DE3C19B)	-0.276	-0.879	0.296	-3.296	14.343	-52.002	-76.66	8.51	-90.98	-102.802	-52.136	21.952	-0.64261	0.36459	-0.49008	0.46243	30.9	13111	100
2025-3-27 17:58:41.777	WT901BLE68-01(48591DE3C19B)	-0.276	-0.880	0.287	-2.197	16.052	-48.889	-76.69	8.09	-91.26	-102.802	-52.136	21.952	-0.64261	0.36459	-0.49008	0.46243	30.9	13111	100
2025-3-27 17:58:41.777	WT901BLE68-01(48591DE3C19B)	-0.301	-0.880	0.287	-2.197	16.052	-48.889	-76.72	7.69	-91.55	-102.802	-52.136	21.952	-0.64261	0.36459	-0.49008	0.46243	30.9	13111	100
2025-3-27 17:58:41.833	WT901BLE68-01(48591DE3C19B)	-0.301	-0.874	0.283	-1.038	15.747	-44.678	-76.73	7.31	-91.83	-102.802	-52.136	21.952	-0.64261	0.36459	-0.49008	0.46243	30.9	13111	100
2025-3-27 17:58:41.833	WT901BLE68-01(48591DE3C19B)	-0.334	-0.874	0.283	-1.038	15.747	-44.678	-76.74	6.96	-92.10	-102.802	-52.136	21.952	-0.64261	0.36459	-0.49008	0.46243	30.9	13111	100
2025-3-27 17:58:41.834	WT901BLE68-01(48591DE3C19B)	-0.334	-0.850	0.274	0.000	12.512	-39.490	-76.75	6.63	-92.35	-102.802	-52.136	21.952	-0.64261	0.36459	-0.49008	0.46243	30.9	13111	100
2025-3-27 17:58:41.834	WT901BLE68-01(48591DE3C19B)	-0.352	-0.850	0.274	0.000	12.512	-39.490	-76.74	6.33	-92.58	-102.802	-52.136	21.952	-0.64261	0.36459	-0.49008	0.46243	30.9	13111	100
2025-3-27 17:58:41.862	WT901BLE68-01(48591DE3C19B)	-0.352	-0.823	0.260	0.549	7.629	-33.569	-76.73	6.06	-92.79	-102.802	-52.136	21.952	-0.64261	0.36459	-0.49008	0.46243	30.9	13111	100
2025-3-27 17:58:41.863	WT901BLE68-01(48591DE3C19B)	-0.371	-0.823	0.260	0.549	7.629	-33.569	-76.71	5.81	-92.95	-102.802	-52.136	21.952	-0.64261	0.36459	-0.49008	0.46243	30.9	13111	100
2025-3-27 17:58:41.863	WT901BLE68-01(48591DE3C19B)	-0.371	-0.809	0.236	0.122	-0.244	-27.039	-76.68	5.60	-93.08	-102.802	-52.136	21.952	-0.64261	0.36459	-0.49008	0.46243	30.9	13111	100
2025-3-27 17:58:41.863	WT901BLE68-01(48591DE3C19B)	-0.388	-0.809	0.236	0.122	-0.244	-27.039	-76.66	5.41	-93.15	-102.802	-52.136	21.952	-0.64261	0.36459	-0.49008	0.46243	30.9	13111	100
2025-3-27 17:58:41.893	WT901BLE68-01(48591DE3C19B)	-0.388	-0.843	0.214	-1.770	-12.451	-21.912	-76.65	5.24	-93.10	-102.802	-52.136	21.952	-0.64261	0.36459	-0.49008	0.46243	30.9	13111	100
2025-3-27 17:58:41.893	WT901BLE68-01(48591DE3C19B)	-0.415	-0.843	0.214	-1.770	-12.451	-21.912	-76.63	5.09	-93.04	-102.802	-52.136	21.952	-0.64261	0.36459	-0.49008	0.46243	30.9	13111	100
2025-3-27 17:58:41.893	WT901BLE68-01(48591DE3C19B)	-0.415	-0.938	0.208	-3.296	-27.527	-19.226	-76.62	4.92	-92.84	-102.802	-52.136	21.952	-0.64261	0.36459	-0.49008	0.46243	30.9	13111	100
2025-3-27 17:58:41.894	WT901BLE68-01(48591DE3C19B)	-0.451	-0.938	0.208	-3.296	-27.527	-19.226	-76.61	4.76	-92.63	-102.802	-52.136	21.952	-0.64261	0.36459	-0.49008	0.46243	30.9	13111	100
2025-3-27 17:58:41.953	WT901BLE68-01(48591DE3C19B)	-0.451	-1.046	0.221	-2.686	-45.227	-18.860	-76.59	4.56	-92.25	-102.802	-52.136	21.952	-0.64261	0.36459	-0.49008	0.46243	30.9	13111	100
2025-3-27 17:58:41.953	WT901BLE68-01(48591DE3C19B)	-0.451	-1.046	0.221	-2.686	-45.227	-18.860	-76.57	4.37	-91.87	-102.802	-52.136	21.952	-0.64261	0.36459	-0.49008	0.46243	30.9	13111	100
2025-3-27 17:58:41.953	WT901BLE68-01(48591DE3C19B)	-0.451	-1.124	0.246	0.977	-62.317	-18.738	-76.51	4.15	-91.32	-102.802	-52.136	21.952	-0.64261	0.36459	-0.49008	0.46243	30.9	13111	100
2025-3-27 17:58:41.953	WT901BLE68-01(48591DE3C19B)	-0.389	-1.124	0.246	0.977	-62.317	-18.738	-76.45	3.92	-90.77	-102.802	-52.136	21.952	-0.64261	0.36459	-0.49008	0.46243	30.9	13111	100
2025-3-27 17:58:41.983	WT901BLE68-01(48591DE3C19B)	-0.389	-1.166	0.238	6.348	-66.162	-17.761	-76.34	3.69	-90.18	-102.802	-52.136	21.952	-0.56879	0.41812	-0.45535	0.54239	30.9	13111	100
2025-3-27 17:58:41.983	WT901BLE68-01(48591DE3C19B)	-0.320	-1.166	0.238	6.348	-66.162	-17.761	-76.24	3.46	-89.59	-102.802	-52.136	21.952	-0.56879	0.41812	-0.45535	0.54239	30.9	13111	100
2025-3-27 17:58:41.983	WT901BLE68-01(48591DE3C19B)	-0.320	-1.183	0.188	10.620	-50.232	-16.846	-76.11	3.28	-89.15	-102.802	-52.136	21.952	-0.56879	0.41812	-0.45535	0.54239	30.9	13111	100
2025-3-27 17:58:41.983	WT901BLE68-01(48591DE3C19B)	-0.315	-1.183	0.188	10.620	-50.232	-16.846	-75.98	3.09	-88.72	-102.802	-52.136	21.952	-0.56879	0.41812	-0.45535	0.54239	30.9	13111	100
2025-3-27 17:58:42.15	WT901BLE68-01(48591DE3C19B)	-0.315	-1.170	0.142	16.235	-23.132	-17.212	-75.82	2.96	-88.55	-102.802	-52.136	21.952	-0.56879	0.41812	-0.45535	0.54239	30.9	13111	100
2025-3-27 17:58:42.16	WT901BLE68-01(48591DE3C19B)	-0.312	-1.170	0.142	16.235	-23.132	-17.212	-75.66	2.83	-88.37	-102.802	-52.136	21.952	-0.56879	0.41812	-0.45535	0.54239	30.9	13111	100
2025-3-27 17:58:42.16	WT901BLE68-01(48591DE3C19B)	-0.312	-1.024	0.117	19.104	7.507	-19.592	-75.49	2.75	-88.51	-102.802	-52.136	21.952	-0.56879	0.41812	-0.45535	0.54239	30.9	13111	100
2025-3-27 17:58:42.16	WT901BLE68-01(48591DE3C19B)	-0.323	-1.024	0.117	19.104	7.507	-19.592	-75.32	2.68	-88.64	-102.802	-52.136	21.952	-0.56879	0.41812	-0.45535	0.54239	30.9	13111	100
2025-3-27 17:58:42.73	WT901BLE68-01(48591DE3C19B)	-0.323	-0.884	0.085	18.555	36.560	-20.447	-75.18	2.66	-89.05	-102.802	-52.136	21.952	-0.56879	0.41812	-0.45535	0.54239	30.9	13111	100
2025-3-27 17:58:42.73	WT901BLE68-01(48591DE3C19B)	-0.394	-0.884	0.085	18.555	36.560	-20.447	-75.04	2.65	-89.47	-102.802	-52.136	21.952	-0.56879	0.41812	-0.45535	0.54239	30.9	13111	100
2025-3-27 17:58:42.74	WT901BLE68-01(48591DE3C19B)	-0.394	-0.793	0.047	15.381	49.316	-17.029	-74.94	2.71	-89.99	-102.802	-52.136	21.952	-0.56879	0.41812	-0.45535	0.54239	30.9	13111	100
2025-3-27 17:58:42.74	WT901BLE68-01(48591DE3C19B)	-0.492	-0.793	0.047	15.381	49.316	-17.029	-74.84	2.78	-90.52	-102.802	-52.136	21.952	-0.56879	0.41812	-0.45535	0.54239	30.9	13111	100
2025-3-27 17:58:42.103	WT901BLE68-01(48591DE3C19B)	-0.492	-0.771	0.007	8.850	39.551	-9.949	-74.82	2.89	-90.93	-102.802	-52.136	21.952	-0.56879	0.41812	-0.45535	0.54239	30.9	13111	100
2025-3-27 17:58:42.104	WT901BLE68-01(48591DE3C19B)	-0.594	-0.771	0.007	8.850	39.551	-9.949	-74.79	3.02	-91.35	-102.802	-52.136	21.952	-0.56879	0.41812	-0.45535	0.54239	30.9	13111	100
2025-3-27 17:58:42.104	WT901BLE68-01(48591DE3C19B)	-0.594	-0.819	-0.014	2.441	7.263	-1.953	-74.81	3.13	-91.43	-102.802	-52.136	21.952	-0.56879	0.41812	-0.45535	0.54239	30.9	13111	100
2025-3-27 17:58:42.104	WT901BLE68-01(48591DE3C19B)	-0.641	-0.819	-0.014	2.441	7.263	-1.953	-74.84	3.26	-91.51	-102.802	-52.136	21.952	-0.56879	0.41812	-0.45535	0.54239	30.9	13111	100
2025-3-27 17:58:42.135	WT901BLE68-01(48591DE3C19B)	-0.641	-0.894	-0.020	-3.601	-42.358	8.240	-74.90	3.36	-91.08	-102.802	-52.136	21.952	-0.56879	0.41812	-0.45535	0.54239	30.9	13111	100
2025-3-27 17:58:42.135	WT901BLE68-01(48591DE3C19B)	-0.627	-0.894	-0.020	-3.601	-42.358	8.240	-74.97	3.47	-90.64	-102.802	-52.136	21.952	-0.56879	0.41812	-0.45535	0.54239	30.9	13111	100
2025-3-27 17:58:42.135	WT901BLE68-01(48591DE3C19B)	-0.627	-0.976	-0.021	-8.118	-93.445	20.386	-75.05	3.57	-89.69	-102.802	-52.136	21.952	-0.56879	0.41812	-0.45535	0.54239	30.9	13111	100
2025-3-27 17:58:42.135	WT901BLE68-01(48591DE3C19B)	-0.564	-0.976	-0.021	-8.118	-93.445	20.386	-75.14	3.66	-88.73	-102.802	-52.136	21.952	-0.56879	0.41812	-0.45535	0.54239	30.9	13111	100
2025-3-27 17:58:42.193	WT901BLE68-01(48591DE3C19B)	-0.564	-1.045	-0.021	-11.963	-131.653	33.386	-75.23	3.80	-87.36	-102.802	-52.136	21.952	-0.56879	0.41812	-0.45535	0.54239	30.9	13111	100
2025-3-27 17:58:42.194	WT901BLE68-01(48591DE3C19B)	-0.496	-1.045	-0.021	-11.963	-131.653	33.386	-75.33	3.93	-85.99	-100.254	-60.956	24.990	-0.56879	0.41812	-0.45535	0.54239	30.9	13111	100
2025-3-27 17:58:42.194	WT901BLE68-01(48591DE3C19B)	-0.496	-1.115	-0.007	-15.381	-156.250	46.875	-75.44	4.13	-84.35	-100.254	-60.956	24.990	-0.56879	0.41812	-0.45535	0.54239	30.9	13111	100
2025-3-27 17:58:42.194	WT901BLE68-01(48591DE3C19B)	-0.415	-1.115	-0.007	-15.381	-156.250	46.875	-75.54	4.33	-82.71	-100.254	-60.956	24.990	-0.56879	0.41812	-0.45535	0.54239	30.9	13111	100
2025-3-27 17:58:42.222	WT901BLE68-01(48591DE3C19B)	-0.415	-1.167	0.034	-15.564	-165.161	59.998	-75.63	4.63	-80.95	-100.254	-60.956	24.990	-0.56879	0.41812	-0.45535	0.54239	30.9	13111	100
2025-3-27 17:58:42.222	WT901BLE68-01(48591DE3C19B)	-0.339	-1.167	0.034	-15.564	-165.161	59.998	-75.71	4.93	-79.18	-100.254	-60.956	24.990	-0.56879	0.41812	-0.45535	0.54239	30.9	13111	100
2025-3-27 17:58:42.222	WT901BLE68-01(48591DE3C19B)	-0.339	-1.168	0.082	-14.099	-160.217	72.388	-75.77	5.35	-77.44	-100.254	-60.956	24.990	-0.56879	0.41812	-0.45535	0.54239	30.9	13111	100
2025-3-27 17:58:42.222	WT901BLE68-01(48591DE3C19B)	-0.285	-1.168	0.082	-14.099	-160.217	72.388	-75.81	5.77	-75.70	-100.254	-60.956	24.990	-0.56879	0.41812	-0.45535	0.54239	30.9	13111	100
2025-3-27 17:58:42.253	WT901BLE68-01(48591DE3C19B)	-0.285	-1.172	0.128	-11.658	-143.555	84.961	-75.82	6.34	-74.08	-100.254	-60.956	24.990	-0.56879	0.41812	-0.45535	0.54239	30.9	13111	100
2025-3-27 17:58:42.253	WT901BLE68-01(48591DE3C19B)	-0.254	-1.172	0.128	-11.658	-143.555	84.961	-75.82	6.90	-72.47	-100.254	-60.956	24.990	-0.56879	0.41812	-0.45535	0.54239	30.9	13111	100
2025-3-27 17:58:42.254	WT901BLE68-01(48591DE3C19B)	-0.254	-1.153	0.160	-7.507	-118.469	94.910	-75.78	7.61	-71.07	-100.254	-60.956	24.990	-0.56879	0.41812	-0.45535	0.54239	30.9	13111	100
2025-3-27 17:58:42.254	WT901BLE68-01(48591DE3C19B)	-0.257	-1.153	0.160	-7.507	-118.469	94.910	-75.72	8.32	-69.68	-100.254	-60.956	24.990	-0.56879	0.41812	-0.45535	0.54239	30.9	13111	100
2025-3-27 17:58:42.373	WT901BLE68-01(48591DE3C19B)	-0.257	-1.183	0.166	-6.287	-93.872	102.051	-75.66	9.14	-68.50	-100.254	-60.956	24.990	-0.56879	0.41812	-0.45535	0.54239	30.9	13111	100
2025-3-27 17:58:42.373	WT901BLE68-01(48591DE3C19B)	-0.305	-1.183	0.166	-6.287	-93.872	102.051	-75.59	9.95	-67.32	-100.254	-60.956	24.990	-0.56879	0.41812	-0.45535	0.54239	30.9	13111	100
2025-3-27 17:58:42.373	WT901BLE68-01(48591DE3C19B)	-0.305	-1.333	0.134	-9.033	-78.186	104.004	-75.55	10.81	-66.30	-100.254	-60.956	24.990	-0.56879	0.41812	-0.45535	0.54239	30.9	13111	100
2025-3-27 17:58:42.373	WT901BLE68-01(48591DE3C19B)	-0.755	-1.333	0.134	-9.033	-78.186	104.004	-75.49	11.65	-65.26	-100.254	-60.956	24.990	-0.56879	0.41812	-0.45535	0.54239	30.9	13111	100
2025-3-27 17:58:42.374	WT901BLE68-01(48591DE3C19B)	-3.022	-3.163	0.274	-10.681	-78.308	102.539	-75.44	12.47	-64.23	-100.254	-60.956	24.990	-0.56879	0.41812	-0.45535	0.54239	30.9	13111	100
2025-3-27 17:58:42.374	WT901BLE68-01(48591DE3C19B)	-0.387	-12.652	1.097	-10.681	-78.308	102.539	-75.37	13.28	-63.20	-100.254	-60.956	24.990	-0.56879	0.41812	-0.45535	0.54239	30.9	13111	100
2025-3-27 17:58:42.375	WT901BLE68-01(48591DE3C19B)	-0.319	-1.630	0.156	-0.488	-85.876	102.539	-75.16	14.07	-62.08	-100.254	-60.956	24.990	-0.56879	0.41812	-0.45535	0.54239	30.9	13111	100
2025-3-27 17:58:42.375	WT901BLE68-01(48591DE3C19B)	-0.319	-1.296	0.159	5.920	-92.224	110.107	-74.90	14.86	-60.92	-100.254	-60.956	24.990	-0.56879	0.41812	-0.45535	0.54239	30.9	13111	100
2025-3-27 17:58:42.375	WT901BLE68-01(48591DE3C19B)	-0.278	-1.296	0.159	5.920	-92.224	110.107	-74.59	15.68	-59.72	-100.254	-60.956	24.990	-0.56879	0.41812	-0.45535	0.54239	30.9	13111	100
2025-3-27 17:58:42.375	WT901BLE68-01(48591DE3C19B)	-0.278	-1.055	0.153	-1.648	-97.412	121.094	-74.27	16.53	-58.46	-100.254	-60.956	24.990	-0.56879	0.41812	-0.45535	0.54239	30.9	13111	100
2025-3-27 17:58:42.375	WT901BLE68-01(48591DE3C19B)	-0.278	-1.055	0.153	-1.648	-97.412	121.094	-73.97	17.42	-57.15	-100.254	-60.956	24.990	-0.56879	0.41812	-0.45535	0.54239	30.9	13111	100
2025-3-27 17:58:42.375	WT901BLE68-01(48591DE3C19B)	-0.278	-0.998	0.171	-7.141	-104.980	128.784	-73.65	18.31	-55.78	-100.254	-60.956	24.990	-0.56879	0.41812	-0.45535	0.54239	30.9	13111	100
2025-3-27 17:58:42.433	WT901BLE68-01(48591DE3C19B)	-0.239	-0.998	0.171	-7.141	-104.980	128.784	-73.32	19.23	-54.35	-100.254	-60.956	24.990	-0.56879	0.41812	-0.45535	0.54239	30.9	13111	100
2025-3-27 17:58:42.433	WT901BLE68-01(48591DE3C19B)	-0.239	-1.048	0.184	-8.789	-110.657	134.338	-72.95	20.14	-52.87	-100.254	-60.956	24.990	-0.75516	0.46152	-0.38651	0.25931	30.9	13111	100
2025-3-27 17:58:42.434	WT901BLE68-01(48591DE3C19B)	-0.198	-1.048	0.184	-8.789	-110.657	134.338	-72.56	21.07	-51.34	-100.254	-60.956	24.990	-0.75516	0.46152	-0.38651	0.25931	30.9	13111	100
2025-3-27 17:58:42.434	WT901BLE68-01(48591DE3C19B)	-0.198	-1.091	0.188	-3.357	-107.056	137.268	-72.13	21.99	-49.81	-100.254	-60.956	24.990	-0.75516	0.46152	-0.38651	0.25931	30.9	13111	100
2025-3-27 17:58:42.463	WT901BLE68-01(48591DE3C19B)	-0.162	-1.091	0.188	-3.357	-107.056	137.268	-71.63	22.91	-48.27	-100.254	-60.956	24.990	-0.75516	0.46152	-0.38651	0.25931	30.9	13111	100
2025-3-27 17:58:42.463	WT901BLE68-01(48591DE3C19B)	-0.162	-1.081	0.158	2.441	-94.360	135.376	-71.11	23.82	-46.79	-100.254	-60.956	24.990	-0.75516	0.46152	-0.38651	0.25931	30.9	13111	100
2025-3-27 17:58:42.463	WT901BLE68-01(48591DE3C19B)	-0.155	-1.081	0.158	2.441	-94.360	135.376	-70.56	24.73	-45.36	-100.254	-60.956	24.990	-0.75516	0.46152	-0.38651	0.25931	30.9	13111	100
2025-3-27 17:58:42.463	WT901BLE68-01(48591DE3C19B)	-0.155	-1.100	0.135	6.714	-76.965	128.967	-70.01	25.61	-44.01	-100.254	-60.956	24.990	-0.75516	0.46152	-0.38651	0.25931	30.9	13111	100
2025-3-27 17:58:42.524	WT901BLE68-01(48591DE3C19B)	-0.183	-1.100	0.135	6.714	-76.965	128.967	-69.46	26.48	-42.75	-100.254	-60.956	24.990	-0.75516	0.46152	-0.38651	0.25931	30.9	13111	100
2025-3-27 17:58:42.524	WT901BLE68-01(48591DE3C19B)	-0.183	-1.109	0.133	12.085	-65.186	120.789	-68.89	27.31	-41.56	-100.254	-60.956	24.990	-0.75516	0.46152	-0.38651	0.25931	30.9	13111	100
2025-3-27 17:58:42.524	WT901BLE68-01(48591DE3C19B)	-0.176	-1.109	0.133	12.085	-65.186	120.789	-68.32	28.10	-40.42	-100.254	-60.956	24.990	-0.75516	0.46152	-0.38651	0.25931	30.9	13111	100
2025-3-27 17:58:42.524	WT901BLE68-01(48591DE3C19B)	-0.176	-1.058	0.155	17.761	-62.256	112.366	-67.71	28.85	-39.31	-100.254	-60.956	24.990	-0.75516	0.46152	-0.38651	0.25931	30.9	13111	100
2025-3-27 17:58:42.553	WT901BLE68-01(48591DE3C19B)	-0.131	-1.058	0.155	17.761	-62.256	112.366	-67.08	29.55	-38.21	-100.254	-60.956	24.990	-0.75516	0.46152	-0.38651	0.25931	30.9	13111	100
2025-3-27 17:58:42.553	WT901BLE68-01(48591DE3C19B)	-0.131	-0.985	0.169	20.325	-56.030	106.018	-66.43	30.21	-37.14	-100.254	-60.956	24.990	-0.75516	0.46152	-0.38651	0.25931	30.9	13111	100
2025-3-27 17:58:42.553	WT901BLE68-01(48591DE3C19B)	-0.112	-0.985	0.169	20.325	-56.030	106.018	-65.79	30.84	-36.12	-100.254	-60.956	24.990	-0.75516	0.46152	-0.38651	0.25931	30.9	13111	100
2025-3-27 17:58:42.553	WT901BLE68-01(48591DE3C19B)	-0.112	-0.934	0.179	21.423	-42.603	100.525	-65.17	31.46	-35.16	-100.254	-60.956	24.990	-0.75516	0.46152	-0.38651	0.25931	30.9	13111	100
2025-3-27 17:58:42.584	WT901BLE68-01(48591DE3C19B)	-0.094	-0.934	0.179	21.423	-42.603	100.525	-64.58	32.07	-34.28	-100.254	-60.956	24.990	-0.75516	0.46152	-0.38651	0.25931	30.9	13111	100
2025-3-27 17:58:42.584	WT901BLE68-01(48591DE3C19B)	-0.094	-0.883	0.193	21.484	-26.917	93.994	-64.03	32.68	-33.54	-100.254	-60.956	24.990	-0.75516	0.46152	-0.38651	0.25931	30.9	13111	100
2025-3-27 17:58:42.584	WT901BLE68-01(48591DE3C19B)	-0.069	-0.883	0.193	21.484	-26.917	93.994	-63.54	33.29	-32.96	-99.176	-17.836	56.938	-0.75516	0.46152	-0.38651	0.25931	30.9	13111	100
2025-3-27 17:58:42.584	WT901BLE68-01(48591DE3C19B)	-0.069	-0.832	0.201	18.677	-10.254	84.839	-63.13	33.89	-32.49	-99.176	-17.836	56.938	-0.75516	0.46152	-0.38651	0.25931	30.9	13111	100
2025-3-27 17:58:42.674	WT901BLE68-01(48591DE3C19B)	-0.089	-0.832	0.201	18.677	-10.254	84.839	-62.78	34.48	-32.12	-99.176	-17.836	56.938	-0.75516	0.46152	-0.38651	0.25931	30.9	13111	100
2025-3-27 17:58:42.674	WT901BLE68-01(48591DE3C19B)	-0.089	-0.830	0.219	13.672	2.991	73.608	-62.50	35.05	-31.85	-99.176	-17.836	56.938	-0.75516	0.46152	-0.38651	0.25931	30.9	13111	100
2025-3-27 17:58:42.675	WT901BLE68-01(48591DE3C19B)	-0.139	-0.830	0.219	13.672	2.991	73.608	-62.30	35.58	-31.68	-99.176	-17.836	56.938	-0.75516	0.46152	-0.38651	0.25931	30.9	13111	100
2025-3-27 17:58:42.675	WT901BLE68-01(48591DE3C19B)	-0.139	-0.902	0.258	9.094	4.822	61.340	-62.15	36.06	-31.56	-99.176	-17.836	56.938	-0.75516	0.46152	-0.38651	0.25931	30.9	13111	100
2025-3-27 17:58:42.675	WT901BLE68-01(48591DE3C19B)	-0.175	-0.902	0.258	9.094	4.822	61.340	-62.05	36.49	-31.47	-99.176	-17.836	56.938	-0.75516	0.46152	-0.38651	0.25931	30.9	13111	100
2025-3-27 17:58:42.676	WT901BLE68-01(48591DE3C19B)	-0.175	-0.962	0.297	7.935	-4.333	48.706	-61.93	36.84	-31.37	-99.176	-17.836	56.938	-0.75516	0.46152	-0.38651	0.25931	30.9	13111	100
2025-3-27 17:58:42.676	WT901BLE68-01(48591DE3C19B)	-0.167	-0.962	0.297	7.935	-4.333	48.706	-61.81	37.10	-31.26	-99.176	-17.836	56.938	-0.75516	0.46152	-0.38651	0.25931	30.9	13111	100
2025-3-27 17:58:42.676	WT901BLE68-01(48591DE3C19B)	-0.167	-0.959	0.314	8.728	-16.663	37.720	-61.66	37.29	-31.10	-99.176	-17.836	56.938	-0.75516	0.46152	-0.38651	0.25931	30.9	13111	100
2025-3-27 17:58:42.705	WT901BLE68-01(48591DE3C19B)	-0.107	-0.959	0.314	8.728	-16.663	37.720	-61.47	37.40	-30.92	-99.176	-17.836	56.938	-0.75516	0.46152	-0.38651	0.25931	30.9	13111	100
2025-3-27 17:58:42.705	WT901BLE68-01(48591DE3C19B)	-0.107	-0.873	0.314	10.132	-23.560	28.809	-61.28	37.45	-30.71	-99.176	-17.836	56.938	-0.75516	0.46152	-0.38651	0.25931	30.9	13111	100
2025-3-27 17:58:42.705	WT901BLE68-01(48591DE3C19B)	-0.045	-0.873	0.314	10.132	-23.560	28.809	-61.06	37.45	-30.50	-99.176	-17.836	56.938	-0.75516	0.46152	-0.38651	0.25931	30.9	13111	100
2025-3-27 17:58:42.705	WT901BLE68-01(48591DE3C19B)	-0.045	-0.789	0.298	8.423	-20.630	20.508	-60.88	37.41	-30.33	-99.176	-17.836	56.938	-0.75516	0.46152	-0.38651	0.25931	30.9	13111	100
2025-3-27 17:58:42.763	WT901BLE68-01(48591DE3C19B)	0.004	-0.789	0.298	8.423	-20.630	20.508	-60.73	37.34	-30.20	-99.176	-17.836	56.938	-0.75516	0.46152	-0.38651	0.25931	30.9	13111	100
2025-3-27 17:58:42.764	WT901BLE68-01(48591DE3C19B)	0.004	-0.734	0.288	5.493	-9.399	11.597	-60.65	37.25	-30.16	-99.176	-17.836	56.938	-0.75516	0.46152	-0.38651	0.25931	30.9	13111	100
2025-3-27 17:58:42.764	WT901BLE68-01(48591DE3C19B)	0.030	-0.734	0.288	5.493	-9.399	11.597	-60.63	37.15	-30.21	-99.176	-17.836	56.938	-0.75516	0.46152	-0.38651	0.25931	30.9	13111	100
2025-3-27 17:58:42.764	WT901BLE68-01(48591DE3C19B)	0.030	-0.711	0.289	1.709	6.226	0.244	-60.71	37.03	-30.39	-99.176	-17.836	56.938	-0.75516	0.46152	-0.38651	0.25931	30.9	13111	100
2025-3-27 17:58:42.796	WT901BLE68-01(48591DE3C19B)	0.002	-0.711	0.289	1.709	6.226	0.244	-60.88	36.91	-30.68	-99.176	-17.836	56.938	-0.83081	0.39154	-0.39041	0.06277	30.9	13111	100
2025-3-27 17:58:42.796	WT901BLE68-01(48591DE3C19B)	0.002	-0.734	0.293	-2.075	19.897	-13.306	-61.12	36.74	-31.08	-99.176	-17.836	56.938	-0.83081	0.39154	-0.39041	0.06277	30.9	13111	100
2025-3-27 17:58:42.796	WT901BLE68-01(48591DE3C19B)	-0.036	-0.734	0.293	-2.075	19.897	-13.306	-61.45	36.56	-31.60	-99.176	-17.836	56.938	-0.83081	0.39154	-0.39041	0.06277	30.9	13111	100
2025-3-27 17:58:42.796	WT901BLE68-01(48591DE3C19B)	-0.036	-0.806	0.302	-4.700	26.367	-29.358	-61.84	36.30	-32.19	-99.176	-17.836	56.938	-0.83081	0.39154	-0.39041	0.06277	30.9	13111	100
2025-3-27 17:58:42.825	WT901BLE68-01(48591DE3C19B)	-0.059	-0.806	0.302	-4.700	26.367	-29.358	-62.28	36.00	-32.86	-99.176	-17.836	56.938	-0.83081	0.39154	-0.39041	0.06277	30.9	13111	100
2025-3-27 17:58:42.825	WT901BLE68-01(48591DE3C19B)	-0.059	-0.885	0.308	-3.235	28.687	-46.631	-62.76	35.55	-33.64	-99.176	-17.836	56.938	-0.83081	0.39154	-0.39041	0.06277	30.9	13111	100
2025-3-27 17:58:42.825	WT901BLE68-01(48591DE3C19B)	-0.075	-0.885	0.308	-3.235	28.687	-46.631	-63.23	35.09	-34.41	-99.176	-17.836	56.938	-0.83081	0.39154	-0.39041	0.06277	30.9	13111	100
2025-3-27 17:58:42.825	WT901BLE68-01(48591DE3C19B)	-0.075	-0.946	0.292	-0.916	30.090	-63.904	-63.73	34.49	-35.28	-99.176	-17.836	56.938	-0.83081	0.39154	-0.39041	0.06277	30.9	13111	100
2025-3-27 17:58:42.883	WT901BLE68-01(48591DE3C19B)	-0.077	-0.946	0.292	-0.916	30.090	-63.904	-64.22	33.88	-36.12	-99.176	-17.836	56.938	-0.83081	0.39154	-0.39041	0.06277	30.9	13111	100
2025-3-27 17:58:42.883	WT901BLE68-01(48591DE3C19B)	-0.077	-0.982	0.269	1.404	31.433	-80.444	-64.71	33.13	-37.06	-99.176	-17.836	56.938	-0.83081	0.39154	-0.39041	0.06277	30.9	13111	100
2025-3-27 17:58:42.883	WT901BLE68-01(48591DE3C19B)	-0.071	-0.982	0.269	1.404	31.433	-80.444	-65.19	32.37	-37.97	-99.176	-17.836	56.938	-0.83081	0.39154	-0.39041	0.06277	30.9	13111	100
2025-3-27 17:58:42.883	WT901BLE68-01(48591DE3C19B)	-0.071	-1.005	0.256	1.831	37.415	-96.069	-65.71	31.50	-39.00	-99.176	-17.836	56.938	-0.83081	0.39154	-0.39041	0.06277	30.9	13111	100
2025-3-27 17:58:42.915	WT901BLE68-01(48591DE3C19B)	-0.088	-1.005	0.256	1.831	37.415	-96.069	-66.22	30.62	-40.01	-99.176	-17.836	56.938	-0.83081	0.39154	-0.39041	0.06277	30.9	13111	100
2025-3-27 17:58:42.915	WT901BLE68-01(48591DE3C19B)	-0.088	-1.036	0.246	1.160	45.837	-110.657	-66.79	29.65	-41.16	-99.176	-17.836	56.938	-0.83081	0.39154	-0.39041	0.06277	30.9	13111	100
2025-3-27 17:58:42.915	WT901BLE68-01(48591DE3C19B)	-0.129	-1.036	0.246	1.160	45.837	-110.657	-67.32	28.67	-42.28	-99.176	-17.836	56.938	-0.83081	0.39154	-0.39041	0.06277	30.9	13111	100
2025-3-27 17:58:42.915	WT901BLE68-01(48591DE3C19B)	-0.129	-1.036	0.232	-1.099	51.758	-123.535	-67.91	27.60	-43.50	-99.176	-17.836	56.938	-0.83081	0.39154	-0.39041	0.06277	30.9	13111	100
2025-3-27 17:58:42.973	WT901BLE68-01(48591DE3C19B)	-0.155	-1.036	0.232	-1.099	51.758	-123.535	-68.47	26.52	-44.69	-99.176	-17.836	56.938	-0.83081	0.39154	-0.39041	0.06277	30.9	13111	100
2025-3-27 17:58:42.973	WT901BLE68-01(48591DE3C19B)	-0.155	-1.047	0.226	-5.249	54.382	-134.094	-69.06	25.35	-45.93	-99.176	-17.836	56.938	-0.83081	0.39154	-0.39041	0.06277	30.9	13111	100
2025-3-27 17:58:42.974	WT901BLE68-01(48591DE3C19B)	-0.187	-1.047	0.226	-5.249	54.382	-134.094	-69.63	24.18	-47.14	-99.176	-17.836	56.938	-0.83081	0.39154	-0.39041	0.06277	30.9	13111	100
2025-3-27 17:58:42.974	WT901BLE68-01(48591DE3C19B)	-0.187	-1.060	0.217	-8.667	54.810	-142.395	-70.20	22.93	-48.36	-99.176	-17.836	56.938	-0.83081	0.39154	-0.39041	0.06277	30.9	13111	100
2025-3-27 17:58:43.2	WT901BLE68-01(48591DE3C19B)	-0.222	-1.060	0.217	-8.667	54.810	-142.395	-70.75	21.69	-49.56	-99.176	-17.836	56.938	-0.83081	0.39154	-0.39041	0.06277	30.9	13111	100
2025-3-27 17:58:43.2	WT901BLE68-01(48591DE3C19B)	-0.222	-1.045	0.210	-12.451	51.453	-149.048	-71.28	20.36	-50.72	-100.940	-19.404	54.096	-0.83081	0.39154	-0.39041	0.06277	30.9	13111	100
2025-3-27 17:58:43.2	WT901BLE68-01(48591DE3C19B)	-0.245	-1.045	0.210	-12.451	51.453	-149.048	-71.80	19.04	-51.86	-100.940	-19.404	54.096	-0.83081	0.39154	-0.39041	0.06277	30.9	13111	100
2025-3-27 17:58:43.2	WT901BLE68-01(48591DE3C19B)	-0.245	-1.069	0.203	-17.700	46.997	-156.067	-72.32	17.65	-52.94	-100.940	-19.404	54.096	-0.83081	0.39154	-0.39041	0.06277	30.9	13111	100
2025-3-27 17:58:43.33	WT901BLE68-01(48591DE3C19B)	-0.264	-1.069	0.203	-17.700	46.997	-156.067	-72.81	16.25	-54.01	-100.940	-19.404	54.096	-0.83081	0.39154	-0.39041	0.06277	30.9	13111	100
2025-3-27 17:58:43.34	WT901BLE68-01(48591DE3C19B)	-0.264	-1.121	0.206	-21.545	42.664	-163.330	-73.30	14.78	-55.04	-100.940	-19.404	54.096	-0.83081	0.39154	-0.39041	0.06277	30.9	13111	100
2025-3-27 17:58:43.34	WT901BLE68-01(48591DE3C19B)	-0.274	-1.121	0.206	-21.545	42.664	-163.330	-73.76	13.32	-56.04	-100.940	-19.404	54.096	-0.83081	0.39154	-0.39041	0.06277	30.9	13111	100
2025-3-27 17:58:43.34	WT901BLE68-01(48591DE3C19B)	-0.274	-1.206	0.217	-24.597	40.527	-169.983	-74.22	11.78	-57.02	-100.940	-19.404	54.096	-0.83081	0.39154	-0.39041	0.06277	30.9	13111	100
2025-3-27 17:58:43.62	WT901BLE68-01(48591DE3C19B)	-0.282	-1.206	0.217	-24.597	40.527	-169.983	-74.65	10.25	-57.99	-100.940	-19.404	54.096	-0.83081	0.39154	-0.39041	0.06277	30.9	13111	100
2025-3-27 17:58:43.62	WT901BLE68-01(48591DE3C19B)	-0.282	-1.329	0.228	-23.376	42.419	-174.683	-75.05	8.68	-58.96	-100.940	-19.404	54.096	-0.83081	0.39154	-0.39041	0.06277	30.9	13111	100
2025-3-27 17:58:43.62	WT901BLE68-01(48591DE3C19B)	-0.296	-1.329	0.228	-23.376	42.419	-174.683	-75.42	7.12	-59.92	-100.940	-19.404	54.096	-0.83081	0.39154	-0.39041	0.06277	30.9	13111	100
2025-3-27 17:58:43.62	WT901BLE68-01(48591DE3C19B)	-0.296	-1.396	0.229	-16.907	48.401	-176.453	-75.70	5.56	-60.94	-100.940	-19.404	54.096	-0.83081	0.39154	-0.39041	0.06277	30.9	13111	100
2025-3-27 17:58:43.123	WT901BLE68-01(48591DE3C19B)	-0.290	-1.396	0.229	-16.907	48.401	-176.453	-75.95	4.02	-61.94	-100.940	-19.404	54.096	-0.83081	0.39154	-0.39041	0.06277	30.9	13111	100
2025-3-27 17:58:43.123	WT901BLE68-01(48591DE3C19B)	-0.290	-1.344	0.208	-6.348	59.814	-172.668	-76.09	2.53	-63.03	-100.940	-19.404	54.096	-0.83081	0.39154	-0.39041	0.06277	30.9	13111	100
2025-3-27 17:58:43.123	WT901BLE68-01(48591DE3C19B)	-0.257	-1.344	0.208	-6.348	59.814	-172.668	-76.20	1.06	-64.12	-100.940	-19.404	54.096	-0.83081	0.39154	-0.39041	0.06277	30.9	13111	100
2025-3-27 17:58:43.123	WT901BLE68-01(48591DE3C19B)	-0.257	-1.199	0.169	3.235	78.857	-162.354	-76.18	-0.26	-65.36	-100.940	-19.404	54.096	-0.83081	0.39154	-0.39041	0.06277	30.9	13111	100
2025-3-27 17:58:43.155	WT901BLE68-01(48591DE3C19B)	-0.222	-1.199	0.169	3.235	78.857	-162.354	-76.14	-1.57	-66.60	-100.940	-19.404	54.096	-0.83081	0.39154	-0.39041	0.06277	30.9	13111	100
2025-3-27 17:58:43.155	WT901BLE68-01(48591DE3C19B)	-0.222	-1.063	0.118	10.193	103.577	-150.085	-76.00	-2.69	-68.06	-100.940	-19.404	54.096	-0.83081	0.39154	-0.39041	0.06277	30.9	13111	100
2025-3-27 17:58:43.155	WT901BLE68-01(48591DE3C19B)	-0.196	-1.063	0.118	10.193	103.577	-150.085	-75.83	-3.80	-69.52	-100.940	-19.404	54.096	-0.83081	0.39154	-0.39041	0.06277	30.9	13111	100
2025-3-27 17:58:43.155	WT901BLE68-01(48591DE3C19B)	-0.196	-0.988	0.080	13.672	129.089	-137.329	-75.60	-4.72	-71.20	-100.940	-19.404	54.096	-0.83081	0.39154	-0.39041	0.06277	30.9	13111	100
2025-3-27 17:58:43.185	WT901BLE68-01(48591DE3C19B)	-0.193	-0.988	0.080	13.672	129.089	-137.329	-75.34	-5.62	-72.88	-100.940	-19.404	54.096	-0.83081	0.39154	-0.39041	0.06277	30.9	13111	100
2025-3-27 17:58:43.185	WT901BLE68-01(48591DE3C19B)	-0.193	-1.005	0.070	14.954	154.602	-124.207	-75.03	-6.32	-74.79	-100.940	-19.404	54.096	-0.83081	0.39154	-0.39041	0.06277	30.9	13111	100
2025-3-27 17:58:43.185	WT901BLE68-01(48591DE3C19B)	-0.234	-1.005	0.070	14.954	154.602	-124.207	-74.69	-7.00	-76.70	-100.940	-19.404	54.096	-0.59927	0.50494	-0.33762	0.52136	30.9	13111	100
2025-3-27 17:58:43.185	WT901BLE68-01(48591DE3C19B)	-0.234	-1.054	0.093	18.188	180.176	-111.511	-74.28	-7.48	-78.83	-100.940	-19.404	54.096	-0.59927	0.50494	-0.33762	0.52136	30.9	13111	100
2025-3-27 17:58:43.243	WT901BLE68-01(48591DE3C19B)	-0.315	-1.054	0.093	18.188	180.176	-111.511	-73.86	-7.93	-80.96	-100.940	-19.404	54.096	-0.59927	0.50494	-0.33762	0.52136	30.9	13111	100
2025-3-27 17:58:43.244	WT901BLE68-01(48591DE3C19B)	-0.315	-1.057	0.129	21.667	200.562	-99.487	-73.37	-8.20	-83.26	-100.940	-19.404	54.096	-0.59927	0.50494	-0.33762	0.52136	30.9	13111	100
2025-3-27 17:58:43.244	WT901BLE68-01(48591DE3C19B)	-0.381	-1.057	0.129	21.667	200.562	-99.487	-72.87	-8.44	-85.57	-100.940	-19.404	54.096	-0.59927	0.50494	-0.33762	0.52136	30.9	13111	100
2025-3-27 17:58:43.244	WT901BLE68-01(48591DE3C19B)	-0.381	-1.025	0.141	23.315	210.693	-88.501	-72.34	-8.51	-87.94	-100.940	-19.404	54.096	-0.59927	0.50494	-0.33762	0.52136	30.9	13111	100
2025-3-27 17:58:43.272	WT901BLE68-01(48591DE3C19B)	-0.430	-1.025	0.141	23.315	210.693	-88.501	-71.83	-8.58	-90.21	-100.940	-19.404	54.096	-0.59927	0.50494	-0.33762	0.52136	30.9	13111	100
2025-3-27 17:58:43.272	WT901BLE68-01(48591DE3C19B)	-0.484	-1.027	0.113	22.339	208.862	-78.735	-71.37	-8.54	-92.33	-100.940	-19.404	54.096	-0.59927	0.50494	-0.33762	0.52136	30.9	13111	100
2025-3-27 17:58:43.272	WT901BLE68-01(48591DE3C19B)	-0.484	-1.037	0.103	22.400	193.420	-69.824	-70.92	-8.47	-94.36	-100.940	-19.404	54.096	-0.59927	0.50494	-0.33762	0.52136	30.9	13111	100
2025-3-27 17:58:43.272	WT901BLE68-01(48591DE3C19B)	-0.557	-1.037	0.103	22.400	193.420	-69.824	-70.49	-8.36	-96.27	-100.940	-19.404	54.096	-0.59927	0.50494	-0.33762	0.52136	30.9	13111	100
2025-3-27 17:58:43.303	WT901BLE68-01(48591DE3C19B)	-0.557	-1.001	0.126	21.973	162.781	-61.951	-70.10	-8.25	-98.03	-100.940	-19.404	54.096	-0.59927	0.50494	-0.33762	0.52136	30.9	13111	100
2025-3-27 17:58:43.303	WT901BLE68-01(48591DE3C19B)	-0.614	-1.001	0.126	21.973	162.781	-61.951	-69.74	-8.14	-99.61	-100.940	-19.404	54.096	-0.59927	0.50494	-0.33762	0.52136	30.9	13111	100
2025-3-27 17:58:43.303	WT901BLE68-01(48591DE3C19B)	-0.614	-0.918	0.150	19.165	122.437	-54.443	-69.43	-8.05	-100.99	-100.940	-19.404	54.096	-0.59927	0.50494	-0.33762	0.52136	30.9	13111	100
2025-3-27 17:58:43.303	WT901BLE68-01(48591DE3C19B)	-0.630	-0.918	0.150	19.165	122.437	-54.443	-69.18	-7.98	-102.15	-100.940	-19.404	54.096	-0.59927	0.50494	-0.33762	0.52136	30.9	13111	100
2025-3-27 17:58:43.363	WT901BLE68-01(48591DE3C19B)	-0.630	-0.863	0.152	13.123	81.360	-45.837	-68.98	-7.93	-103.10	-100.940	-19.404	54.096	-0.59927	0.50494	-0.33762	0.52136	30.9	13111	100
2025-3-27 17:58:43.363	WT901BLE68-01(48591DE3C19B)	-0.623	-0.863	0.152	13.123	81.360	-45.837	-68.85	-7.90	-103.83	-100.940	-19.404	54.096	-0.59927	0.50494	-0.33762	0.52136	30.9	13111	100
2025-3-27 17:58:43.363	WT901BLE68-01(48591DE3C19B)	-0.623	-0.891	0.138	5.005	42.297	-33.691	-68.78	-7.89	-104.35	-100.940	-19.404	54.096	-0.59927	0.50494	-0.33762	0.52136	30.9	13111	100
2025-3-27 17:58:43.363	WT901BLE68-01(48591DE3C19B)	-0.584	-0.891	0.138	5.005	42.297	-33.691	-68.79	-7.88	-104.67	-100.940	-19.404	54.096	-0.59927	0.50494	-0.33762	0.52136	30.9	13111	100
2025-3-27 17:58:43.423	WT901BLE68-01(48591DE3C19B)	-0.584	-0.945	0.142	-0.671	9.888	-18.860	-68.85	-7.86	-104.81	-100.940	-19.404	54.096	-0.59927	0.50494	-0.33762	0.52136	30.9	13111	100
2025-3-27 17:58:43.423	WT901BLE68-01(48591DE3C19B)	-0.533	-0.945	0.142	-0.671	9.888	-18.860	-68.97	-7.82	-104.77	-100.940	-19.404	54.096	-0.59927	0.50494	-0.33762	0.52136	30.9	13111	100
2025-3-27 17:58:43.423	WT901BLE68-01(48591DE3C19B)	-0.533	-0.936	0.148	-6.042	-14.343	-2.258	-69.13	-7.75	-104.58	-100.940	-19.404	54.096	-0.59927	0.50494	-0.33762	0.52136	30.9	13111	100
2025-3-27 17:58:43.423	WT901BLE68-01(48591DE3C19B)	-0.468	-0.936	0.148	-6.042	-14.343	-2.258	-69.33	-7.64	-104.26	-93.786	-63.504	23.814	-0.59927	0.50494	-0.33762	0.52136	30.9	13111	100
2025-3-27 17:58:43.424	WT901BLE68-01(48591DE3C19B)	-0.468	-0.892	0.154	-12.024	-29.175	14.832	-69.57	-7.48	-103.84	-93.786	-63.504	23.814	-0.59927	0.50494	-0.33762	0.52136	30.9	13111	100
2025-3-27 17:58:43.424	WT901BLE68-01(48591DE3C19B)	-0.414	-0.892	0.154	-12.024	-29.175	14.832	-69.85	-7.26	-103.33	-93.786	-63.504	23.814	-0.59927	0.50494	-0.33762	0.52136	30.9	13111	100
2025-3-27 17:58:43.424	WT901BLE68-01(48591DE3C19B)	-0.414	-0.841	0.160	-18.433	-36.499	31.860	-70.17	-6.97	-102.75	-93.786	-63.504	23.814	-0.59927	0.50494	-0.33762	0.52136	30.9	13111	100
2025-3-27 17:58:43.425	WT901BLE68-01(48591DE3C19B)	-0.391	-0.841	0.160	-18.433	-36.499	31.860	-70.52	-6.61	-102.12	-93.786	-63.504	23.814	-0.59927	0.50494	-0.33762	0.52136	30.9	13111	100
2025-3-27 17:58:43.483	WT901BLE68-01(48591DE3C19B)	-0.391	-0.825	0.162	-24.719	-39.246	47.607	-70.89	-6.18	-101.46	-93.786	-63.504	23.814	-0.59927	0.50494	-0.33762	0.52136	30.9	13111	100
2025-3-27 17:58:43.483	WT901BLE68-01(48591DE3C19B)	-0.387	-0.825	0.162	-24.719	-39.246	47.607	-71.29	-5.68	-100.77	-93.786	-63.504	23.814	-0.59927	0.50494	-0.33762	0.52136	30.9	13111	100
2025-3-27 17:58:43.483	WT901BLE68-01(48591DE3C19B)	-0.387	-0.862	0.151	-29.297	-41.565	60.852	-71.71	-5.12	-100.06	-93.786	-63.504	23.814	-0.59927	0.50494	-0.33762	0.52136	30.9	13111	100
2025-3-27 17:58:43.483	WT901BLE68-01(48591DE3C19B)	-0.380	-0.862	0.151	-29.297	-41.565	60.852	-72.14	-4.50	-99.33	-93.786	-63.504	23.814	-0.59927	0.50494	-0.33762	0.52136	30.9	13111	100
2025-3-27 17:58:43.545	WT901BLE68-01(48591DE3C19B)	-0.380	-0.916	0.134	-32.166	-47.729	71.472	-72.57	-3.84	-98.56	-93.786	-63.504	23.814	-0.59927	0.50494	-0.33762	0.52136	30.9	13111	100
2025-3-27 17:58:43.545	WT901BLE68-01(48591DE3C19B)	-0.375	-0.916	0.134	-32.166	-47.729	71.472	-73.01	-3.14	-97.76	-93.786	-63.504	23.814	-0.59927	0.50494	-0.33762	0.52136	30.9	13111	100
2025-3-27 17:58:43.545	WT901BLE68-01(48591DE3C19B)	-0.375	-0.981	0.114	-34.180	-55.237	79.163	-73.45	-2.41	-96.92	-93.786	-63.504	23.814	-0.59927	0.50494	-0.33762	0.52136	30.9	13111	100
2025-3-27 17:58:43.545	WT901BLE68-01(48591DE3C19B)	-0.382	-0.981	0.114	-34.180	-55.237	79.163	-73.89	-1.65	-96.03	-93.786	-63.504	23.814	-0.59927	0.50494	-0.33762	0.52136	30.9	13111	100
2025-3-27 17:58:43.546	WT901BLE68-01(48591DE3C19B)	-0.382	-1.068	0.113	-36.255	-64.819	83.557	-74.33	-0.89	-95.11	-93.786	-63.504	23.814	-0.59927	0.50494	-0.33762	0.52136	30.9	13111	100
2025-3-27 17:58:43.546	WT901BLE68-01(48591DE3C19B)	-0.385	-1.068	0.113	-36.255	-64.819	83.557	-74.77	-0.12	-94.14	-93.786	-63.504	23.814	-0.59927	0.50494	-0.33762	0.52136	30.9	13111	100
2025-3-27 17:58:43.546	WT901BLE68-01(48591DE3C19B)	-0.385	-1.172	0.138	-36.072	-74.646	85.449	-75.18	0.64	-93.12	-93.786	-63.504	23.814	-0.59927	0.50494	-0.33762	0.52136	30.9	13111	100
2025-3-27 17:58:43.546	WT901BLE68-01(48591DE3C19B)	-0.367	-1.172	0.138	-36.072	-74.646	85.449	-75.59	1.40	-92.06	-93.786	-63.504	23.814	-0.59927	0.50494	-0.33762	0.52136	30.9	13111	100
2025-3-27 17:58:43.633	WT901BLE68-01(48591DE3C19B)	-0.367	-1.252	0.159	-32.837	-81.177	86.670	-75.96	2.15	-90.97	-93.786	-63.504	23.814	-0.59927	0.50494	-0.33762	0.52136	30.9	13111	100
2025-3-27 17:58:43.634	WT901BLE68-01(48591DE3C19B)	-0.324	-1.252	0.159	-32.837	-81.177	86.670	-76.30	2.91	-89.85	-93.786	-63.504	23.814	-0.56760	0.42313	-0.45023	0.54404	30.9	13111	100
2025-3-27 17:58:43.634	WT901BLE68-01(48591DE3C19B)	-0.324	-1.273	0.170	-28.625	-80.994	88.867	-76.60	3.66	-88.74	-93.786	-63.504	23.814	-0.56760	0.42313	-0.45023	0.54404	30.9	13111	100
2025-3-27 17:58:43.634	WT901BLE68-01(48591DE3C19B)	-0.274	-1.273	0.170	-28.625	-80.994	88.867	-76.87	4.43	-87.63	-93.786	-63.504	23.814	-0.56760	0.42313	-0.45023	0.54404	30.9	13111	100
2025-3-27 17:58:43.635	WT901BLE68-01(48591DE3C19B)	-0.274	-1.268	0.177	-25.940	-73.120	92.102	-77.11	5.22	-86.56	-93.786	-63.504	23.814	-0.56760	0.42313	-0.45023	0.54404	30.9	13111	100
2025-3-27 17:58:43.635	WT901BLE68-01(48591DE3C19B)	-0.252	-1.268	0.177	-25.940	-73.120	92.102	-77.32	6.03	-85.52	-93.786	-63.504	23.814	-0.56760	0.42313	-0.45023	0.54404	30.9	13111	100
2025-3-27 17:58:43.635	WT901BLE68-01(48591DE3C19B)	-0.252	-1.277	0.178	-24.048	-62.012	96.802	-77.51	6.87	-84.53	-93.786	-63.504	23.814	-0.56760	0.42313	-0.45023	0.54404	30.9	13111	100
2025-3-27 17:58:43.635	WT901BLE68-01(48591DE3C19B)	-0.222	-1.277	0.178	-24.048	-62.012	96.802	-77.68	7.73	-83.61	-93.786	-63.504	23.814	-0.56760	0.42313	-0.45023	0.54404	30.9	13111	100
2025-3-27 17:58:43.665	WT901BLE68-01(48591DE3C19B)	-0.222	-1.252	0.178	-23.743	-47.668	100.037	-77.85	8.62	-82.74	-93.786	-63.504	23.814	-0.56760	0.42313	-0.45023	0.54404	30.9	13111	100
2025-3-27 17:58:43.665	WT901BLE68-01(48591DE3C19B)	-0.178	-1.252	0.178	-23.743	-47.668	100.037	-78.01	9.53	-81.95	-93.786	-63.504	23.814	-0.56760	0.42313	-0.45023	0.54404	30.9	13111	100
2025-3-27 17:58:43.665	WT901BLE68-01(48591DE3C19B)	-0.178	-1.278	0.175	-25.146	-29.480	99.670	-78.18	10.45	-81.25	-93.786	-63.504	23.814	-0.56760	0.42313	-0.45023	0.54404	30.9	13111	100
2025-3-27 17:58:43.665	WT901BLE68-01(48591DE3C19B)	-0.177	-1.278	0.175	-25.146	-29.480	99.670	-78.36	11.39	-80.64	-93.786	-63.504	23.814	-0.56760	0.42313	-0.45023	0.54404	30.9	13111	100
2025-3-27 17:58:43.723	WT901BLE68-01(48591DE3C19B)	-0.177	-1.308	0.177	-27.100	-15.991	96.680	-78.56	12.31	-80.11	-93.786	-63.504	23.814	-0.56760	0.42313	-0.45023	0.54404	30.9	13111	100
2025-3-27 17:58:43.723	WT901BLE68-01(48591DE3C19B)	-0.215	-1.308	0.177	-27.100	-15.991	96.680	-78.77	13.22	-79.65	-93.786	-63.504	23.814	-0.56760	0.42313	-0.45023	0.54404	30.9	13111	100
2025-3-27 17:58:43.723	WT901BLE68-01(48591DE3C19B)	-0.215	-1.240	0.179	-27.100	-14.587	91.492	-78.98	14.11	-79.20	-93.786	-63.504	23.814	-0.56760	0.42313	-0.45023	0.54404	30.9	13111	100
2025-3-27 17:58:43.723	WT901BLE68-01(48591DE3C19B)	-0.220	-1.240	0.179	-27.100	-14.587	91.492	-79.18	14.96	-78.77	-93.786	-63.504	23.814	-0.56760	0.42313	-0.45023	0.54404	30.9	13111	100
2025-3-27 17:58:43.755	WT901BLE68-01(48591DE3C19B)	-0.220	-1.014	0.183	-28.076	-19.348	87.646	-79.38	15.77	-78.30	-93.786	-63.504	23.814	-0.56760	0.42313	-0.45023	0.54404	30.9	13111	100
2025-3-27 17:58:43.755	WT901BLE68-01(48591DE3C19B)	-0.272	-1.014	0.183	-28.076	-19.348	87.646	-79.57	16.56	-77.83	-93.786	-63.504	23.814	-0.56760	0.42313	-0.45023	0.54404	30.9	13111	100
2025-3-27 17:58:43.755	WT901BLE68-01(48591DE3C19B)	-0.272	-0.839	0.190	-35.278	-30.396	85.449	-79.79	17.32	-77.26	-93.786	-63.504	23.814	-0.56760	0.42313	-0.45023	0.54404	30.9	13111	100
2025-3-27 17:58:43.755	WT901BLE68-01(48591DE3C19B)	-0.354	-0.839	0.190	-35.278	-30.396	85.449	-80.00	18.08	-76.68	-93.786	-63.504	23.814	-0.56760	0.42313	-0.45023	0.54404	30.9	13111	100
2025-3-27 17:58:43.785	WT901BLE68-01(48591DE3C19B)	-0.354	-0.830	0.187	-43.030	-56.702	84.229	-80.20	18.78	-75.84	-93.786	-63.504	23.814	-0.56760	0.42313	-0.45023	0.54404	30.9	13111	100
2025-3-27 17:58:43.785	WT901BLE68-01(48591DE3C19B)	-0.383	-0.830	0.187	-43.030	-56.702	84.229	-80.38	19.48	-75.00	-93.786	-63.504	23.814	-0.56760	0.42313	-0.45023	0.54404	30.9	13111	100
2025-3-27 17:58:43.785	WT901BLE68-01(48591DE3C19B)	-0.383	-0.888	0.181	-44.617	-96.497	83.801	-80.43	20.12	-73.75	-105.840	-34.202	31.850	-0.56760	0.42313	-0.45023	0.54404	30.9	13111	100
2025-3-27 17:58:43.785	WT901BLE68-01(48591DE3C19B)	-0.351	-0.888	0.181	-44.617	-96.497	83.801	-80.46	20.76	-72.48	-105.840	-34.202	31.850	-0.56760	0.42313	-0.45023	0.54404	30.9	13111	100
2025-3-27 17:58:43.843	WT901BLE68-01(48591DE3C19B)	-0.351	-0.927	0.170	-42.175	-133.118	84.045	-80.32	21.34	-70.83	-105.840	-34.202	31.850	-0.56760	0.42313	-0.45023	0.54404	30.9	13111	100
2025-3-27 17:58:43.843	WT901BLE68-01(48591DE3C19B)	-0.336	-0.927	0.170	-42.175	-133.118	84.045	-80.16	21.91	-69.16	-105.840	-34.202	31.850	-0.56760	0.42313	-0.45023	0.54404	30.9	13111	100
2025-3-27 17:58:43.843	WT901BLE68-01(48591DE3C19B)	-0.336	-0.974	0.160	-37.354	-160.461	82.275	-79.83	22.41	-67.21	-105.840	-34.202	31.850	-0.56760	0.42313	-0.45023	0.54404	30.9	13111	100
2025-3-27 17:58:43.843	WT901BLE68-01(48591DE3C19B)	-0.314	-0.974	0.160	-37.354	-160.461	82.275	-79.48	22.89	-65.24	-105.840	-34.202	31.850	-0.56760	0.42313	-0.45023	0.54404	30.9	13111	100
2025-3-27 17:58:43.902	WT901BLE68-01(48591DE3C19B)	-0.314	-1.035	0.137	-30.701	-181.396	78.857	-78.97	23.29	-63.05	-105.840	-34.202	31.850	-0.56760	0.42313	-0.45023	0.54404	30.9	13111	100
2025-3-27 17:58:43.902	WT901BLE68-01(48591DE3C19B)	-0.252	-1.035	0.137	-30.701	-181.396	78.857	-78.44	23.67	-60.85	-105.840	-34.202	31.850	-0.56760	0.42313	-0.45023	0.54404	30.9	13111	100
2025-3-27 17:58:43.902	WT901BLE68-01(48591DE3C19B)	-0.252	-1.071	0.125	-21.179	-189.575	74.463	-77.78	23.96	-58.56	-105.840	-34.202	31.850	-0.56760	0.42313	-0.45023	0.54404	30.9	13111	100
2025-3-27 17:58:43.902	WT901BLE68-01(48591DE3C19B)	-0.190	-1.071	0.125	-21.179	-189.575	74.463	-77.11	24.22	-56.27	-105.840	-34.202	31.850	-0.56760	0.42313	-0.45023	0.54404	30.9	13111	100
2025-3-27 17:58:43.932	WT901BLE68-01(48591DE3C19B)	-0.190	-1.108	0.125	-12.329	-183.716	68.970	-76.37	24.42	-54.05	-105.840	-34.202	31.850	-0.56760	0.42313	-0.45023	0.54404	30.9	13111	100
2025-3-27 17:58:43.932	WT901BLE68-01(48591DE3C19B)	-0.147	-1.108	0.125	-12.329	-183.716	68.970	-75.63	24.59	-51.82	-105.840	-34.202	31.850	-0.56760	0.42313	-0.45023	0.54404	30.9	13111	100
2025-3-27 17:58:43.933	WT901BLE68-01(48591DE3C19B)	-0.147	-1.135	0.170	-4.028	-167.053	63.660	-74.89	24.71	-49.78	-105.840	-34.202	31.850	-0.56760	0.42313	-0.45023	0.54404	30.9	13111	100
2025-3-27 17:58:43.933	WT901BLE68-01(48591DE3C19B)	-0.126	-1.135	0.170	-4.028	-167.053	63.660	-74.14	24.81	-47.74	-105.840	-34.202	31.850	-0.56760	0.42313	-0.45023	0.54404	30.9	13111	100
2025-3-27 17:58:43.993	WT901BLE68-01(48591DE3C19B)	-0.126	-1.140	0.223	3.174	-141.968	60.059	-73.44	24.91	-45.97	-105.840	-34.202	31.850	-0.56760	0.42313	-0.45023	0.54404	30.9	13111	100
2025-3-27 17:58:43.993	WT901BLE68-01(48591DE3C19B)	-0.111	-1.140	0.223	3.174	-141.968	60.059	-72.73	24.99	-44.20	-105.840	-34.202	31.850	-0.56760	0.42313	-0.45023	0.54404	30.9	13111	100
2025-3-27 17:58:43.993	WT901BLE68-01(48591DE3C19B)	-0.111	-1.078	0.272	8.850	-110.352	57.800	-72.11	25.13	-42.77	-105.840	-34.202	31.850	-0.56760	0.42313	-0.45023	0.54404	30.9	13111	100
2025-3-27 17:58:43.993	WT901BLE68-01(48591DE3C19B)	-0.114	-1.078	0.272	8.850	-110.352	57.800	-71.50	25.25	-41.45	-105.840	-34.202	31.850	-0.56760	0.42313	-0.45023	0.54404	30.9	13111	100
2025-3-27 17:58:43.994	WT901BLE68-01(48591DE3C19B)	-0.114	-1.026	0.293	10.864	-77.271	56.335	-71.04	25.46	-40.58	-105.840	-34.202	31.850	-0.56760	0.42313	-0.45023	0.54404	30.9	13111	100
2025-3-27 17:58:43.994	WT901BLE68-01(48591DE3C19B)	-0.131	-1.026	0.293	10.864	-77.271	56.335	-70.56	25.65	-39.72	-105.840	-34.202	31.850	-0.56760	0.42313	-0.45023	0.54404	30.9	13111	100
2025-3-27 17:58:43.995	WT901BLE68-01(48591DE3C19B)	-0.131	-0.993	0.289	12.390	-48.096	57.190	-70.20	25.94	-39.16	-105.840	-34.202	31.850	-0.79550	0.46552	-0.36029	0.14340	30.9	13111	100
2025-3-27 17:58:43.995	WT901BLE68-01(48591DE3C19B)	-0.151	-0.993	0.289	12.390	-48.096	57.190	-69.83	26.23	-38.59	-105.840	-34.202	31.850	-0.79550	0.46552	-0.36029	0.14340	30.9	13111	100
2025-3-27 17:58:44.83	WT901BLE68-01(48591DE3C19B)	-0.151	-0.966	0.270	14.343	-26.306	60.120	-69.54	26.61	-38.24	-105.840	-34.202	31.850	-0.79550	0.46552	-0.36029	0.14340	30.9	13111	100
2025-3-27 17:58:44.83	WT901BLE68-01(48591DE3C19B)	-0.163	-0.966	0.270	14.343	-26.306	60.120	-69.24	26.99	-37.88	-105.840	-34.202	31.850	-0.79550	0.46552	-0.36029	0.14340	30.9	13111	100
2025-3-27 17:58:44.83	WT901BLE68-01(48591DE3C19B)	-0.163	-0.923	0.252	15.381	-14.771	65.186	-68.97	27.45	-37.62	-105.840	-34.202	31.850	-0.79550	0.46552	-0.36029	0.14340	30.9	13111	100
2025-3-27 17:58:44.83	WT901BLE68-01(48591DE3C19B)	-0.162	-0.923	0.252	15.381	-14.771	65.186	-68.70	27.91	-37.36	-105.840	-34.202	31.850	-0.79550	0.46552	-0.36029	0.14340	30.9	13111	100
2025-3-27 17:58:44.84	WT901BLE68-01(48591DE3C19B)	-0.162	-0.885	0.239	15.076	-9.094	70.190	-68.44	28.42	-37.13	-105.840	-34.202	31.850	-0.79550	0.46552	-0.36029	0.14340	30.9	13111	100
2025-3-27 17:58:44.84	WT901BLE68-01(48591DE3C19B)	-0.150	-0.885	0.239	15.076	-9.094	70.190	-68.18	28.94	-36.90	-105.840	-34.202	31.850	-0.79550	0.46552	-0.36029	0.14340	30.9	13111	100
2025-3-27 17:58:44.84	WT901BLE68-01(48591DE3C19B)	-0.150	-0.854	0.238	13.916	-6.165	73.914	-67.93	29.49	-36.68	-105.840	-34.202	31.850	-0.79550	0.46552	-0.36029	0.14340	30.9	13111	100
2025-3-27 17:58:44.84	WT901BLE68-01(48591DE3C19B)	-0.115	-0.854	0.238	13.916	-6.165	73.914	-67.69	30.05	-36.45	-105.840	-34.202	31.850	-0.79550	0.46552	-0.36029	0.14340	30.9	13111	100
2025-3-27 17:58:44.114	WT901BLE68-01(48591DE3C19B)	-0.115	-0.830	0.243	12.573	-2.563	74.768	-67.47	30.61	-36.26	-105.840	-34.202	31.850	-0.79550	0.46552	-0.36029	0.14340	30.9	13111	100
2025-3-27 17:58:44.114	WT901BLE68-01(48591DE3C19B)	-0.074	-0.830	0.243	12.573	-2.563	74.768	-67.24	31.18	-36.06	-105.840	-34.202	31.850	-0.79550	0.46552	-0.36029	0.14340	30.9	13111	100
2025-3-27 17:58:44.114	WT901BLE68-01(48591DE3C19B)	-0.074	-0.812	0.248	10.193	4.700	72.205	-67.08	31.74	-35.95	-105.840	-34.202	31.850	-0.79550	0.46552	-0.36029	0.14340	30.9	13111	100
2025-3-27 17:58:44.114	WT901BLE68-01(48591DE3C19B)	-0.056	-0.812	0.248	10.193	4.700	72.205	-66.92	32.29	-35.84	-105.840	-34.202	31.850	-0.79550	0.46552	-0.36029	0.14340	30.9	13111	100
2025-3-27 17:58:44.202	WT901BLE68-01(48591DE3C19B)	-0.056	-0.800	0.254	7.629	15.320	66.650	-66.86	32.84	-35.86	-105.840	-34.202	31.850	-0.79550	0.46552	-0.36029	0.14340	30.9	13111	100
2025-3-27 17:58:44.203	WT901BLE68-01(48591DE3C19B)	-0.069	-0.800	0.254	7.629	15.320	66.650	-66.79	33.37	-35.89	-105.840	-34.202	31.850	-0.79550	0.46552	-0.36029	0.14340	30.9	13111	100
2025-3-27 17:58:44.203	WT901BLE68-01(48591DE3C19B)	-0.069	-0.781	0.265	4.883	27.710	58.167	-66.85	33.87	-36.10	-105.840	-34.202	31.850	-0.79550	0.46552	-0.36029	0.14340	30.9	13111	100
2025-3-27 17:58:44.203	WT901BLE68-01(48591DE3C19B)	-0.113	-0.781	0.265	4.883	27.710	58.167	-66.91	34.37	-36.30	-105.840	-34.202	31.850	-0.79550	0.46552	-0.36029	0.14340	30.9	13111	100
2025-3-27 17:58:44.204	WT901BLE68-01(48591DE3C19B)	-0.113	-0.766	0.275	1.587	37.109	47.791	-67.08	34.80	-36.66	-105.840	-34.202	31.850	-0.79550	0.46552	-0.36029	0.14340	30.9	13111	100
2025-3-27 17:58:44.204	WT901BLE68-01(48591DE3C19B)	-0.155	-0.766	0.275	1.587	37.109	47.791	-67.26	35.23	-37.01	-105.840	-34.202	31.850	-0.79550	0.46552	-0.36029	0.14340	30.9	13111	100
2025-3-27 17:58:44.204	WT901BLE68-01(48591DE3C19B)	-0.183	-0.756	0.280	-1.282	40.527	34.973	-67.52	35.55	-37.47	-105.840	-34.202	31.850	-0.79550	0.46552	-0.36029	0.14340	30.9	13111	100
2025-3-27 17:58:44.204	WT901BLE68-01(48591DE3C19B)	-0.183	-0.737	0.282	-3.784	37.964	21.301	-67.81	35.80	-37.95	-91.826	-5.978	55.174	-0.79550	0.46552	-0.36029	0.14340	30.9	13111	100
2025-3-27 17:58:44.232	WT901BLE68-01(48591DE3C19B)	-0.212	-0.737	0.282	-3.784	37.964	21.301	-68.11	35.99	-38.44	-91.826	-5.978	55.174	-0.79550	0.46552	-0.36029	0.14340	30.9	13111	100
2025-3-27 17:58:44.232	WT901BLE68-01(48591DE3C19B)	-0.212	-0.754	0.279	-6.958	31.799	6.714	-68.43	36.09	-38.92	-91.826	-5.978	55.174	-0.79550	0.46552	-0.36029	0.14340	30.9	13111	100
2025-3-27 17:58:44.232	WT901BLE68-01(48591DE3C19B)	-0.247	-0.754	0.279	-6.958	31.799	6.714	-68.75	36.12	-39.41	-91.826	-5.978	55.174	-0.79550	0.46552	-0.36029	0.14340	30.9	13111	100
2025-3-27 17:58:44.233	WT901BLE68-01(48591DE3C19B)	-0.247	-0.872	0.271	-10.559	25.574	-9.583	-69.09	36.06	-39.89	-91.826	-5.978	55.174	-0.79550	0.46552	-0.36029	0.14340	30.9	13111	100
2025-3-27 17:58:44.292	WT901BLE68-01(48591DE3C19B)	-0.330	-0.872	0.271	-10.559	25.574	-9.583	-69.45	35.91	-40.36	-91.826	-5.978	55.174	-0.79550	0.46552	-0.36029	0.14340	30.9	13111	100
2025-3-27 17:58:44.293	WT901BLE68-01(48591DE3C19B)	-0.330	-1.056	0.287	-10.559	15.869	-28.748	-69.79	35.66	-40.82	-91.826	-5.978	55.174	-0.79550	0.46552	-0.36029	0.14340	30.9	13111	100
2025-3-27 17:58:44.293	WT901BLE68-01(48591DE3C19B)	-0.390	-1.056	0.287	-10.559	15.869	-28.748	-70.11	35.30	-41.25	-91.826	-5.978	55.174	-0.79550	0.46552	-0.36029	0.14340	30.9	13111	100
2025-3-27 17:58:44.293	WT901BLE68-01(48591DE3C19B)	-0.390	-1.161	0.318	-3.418	2.441	-47.913	-70.38	34.84	-41.64	-91.826	-5.978	55.174	-0.79550	0.46552	-0.36029	0.14340	30.9	13111	100
2025-3-27 17:58:44.322	WT901BLE68-01(48591DE3C19B)	-0.389	-1.161	0.318	-3.418	2.441	-47.913	-70.58	34.28	-41.98	-91.826	-5.978	55.174	-0.79550	0.46552	-0.36029	0.14340	30.9	13111	100
2025-3-27 17:58:44.322	WT901BLE68-01(48591DE3C19B)	-0.389	-1.062	0.332	4.272	-9.399	-59.204	-70.71	33.65	-42.27	-91.826	-5.978	55.174	-0.79550	0.46552	-0.36029	0.14340	30.9	13111	100
2025-3-27 17:58:44.322	WT901BLE68-01(48591DE3C19B)	-0.346	-1.062	0.332	4.272	-9.399	-59.204	-70.77	32.95	-42.51	-91.826	-5.978	55.174	-0.79550	0.46552	-0.36029	0.14340	30.9	13111	100
2025-3-27 17:58:44.322	WT901BLE68-01(48591DE3C19B)	-0.346	-1.005	0.301	6.226	-9.033	-64.575	-70.83	32.23	-42.76	-91.826	-5.978	55.174	-0.79550	0.46552	-0.36029	0.14340	30.9	13111	100
2025-3-27 17:58:44.414	WT901BLE68-01(48591DE3C19B)	-0.325	-1.005	0.301	6.226	-9.033	-64.575	-70.87	31.49	-43.02	-91.826	-5.978	55.174	-0.79550	0.46552	-0.36029	0.14340	30.9	13111	100
2025-3-27 17:58:44.414	WT901BLE68-01(48591DE3C19B)	-0.325	-1.032	0.244	9.705	2.930	-71.594	-70.94	30.75	-43.35	-91.826	-5.978	55.174	-0.79550	0.46552	-0.36029	0.14340	30.9	13111	100
2025-3-27 17:58:44.414	WT901BLE68-01(48591DE3C19B)	-0.284	-1.032	0.244	9.705	2.930	-71.594	-71.03	30.00	-43.75	-91.826	-5.978	55.174	-0.79550	0.46552	-0.36029	0.14340	30.9	13111	100
2025-3-27 17:58:44.414	WT901BLE68-01(48591DE3C19B)	-0.284	-1.079	0.193	15.869	18.677	-77.942	-71.13	29.25	-44.25	-91.826	-5.978	55.174	-0.79550	0.46552	-0.36029	0.14340	30.9	13111	100
2025-3-27 17:58:44.443	WT901BLE68-01(48591DE3C19B)	-0.231	-1.079	0.193	15.869	18.677	-77.942	-71.24	28.49	-44.84	-91.826	-5.978	55.174	-0.79550	0.46552	-0.36029	0.14340	30.9	13111	100
2025-3-27 17:58:44.443	WT901BLE68-01(48591DE3C19B)	-0.231	-1.087	0.148	23.010	39.795	-81.238	-71.36	27.76	-45.53	-91.826	-5.978	55.174	-0.78018	0.44708	-0.39841	0.18048	30.9	13111	100
2025-3-27 17:58:44.443	WT901BLE68-01(48591DE3C19B)	-0.197	-1.087	0.148	23.010	39.795	-81.238	-71.50	27.05	-46.34	-91.826	-5.978	55.174	-0.78018	0.44708	-0.39841	0.18048	30.9	13111	100
2025-3-27 17:58:44.443	WT901BLE68-01(48591DE3C19B)	-0.197	-1.024	0.116	27.588	68.359	-82.153	-71.67	26.38	-47.29	-91.826	-5.978	55.174	-0.78018	0.44708	-0.39841	0.18048	30.9	13111	100
2025-3-27 17:58:44.444	WT901BLE68-01(48591DE3C19B)	-0.225	-1.024	0.116	27.588	68.359	-82.153	-71.88	25.75	-48.38	-91.826	-5.978	55.174	-0.78018	0.44708	-0.39841	0.18048	30.9	13111	100
2025-3-27 17:58:44.444	WT901BLE68-01(48591DE3C19B)	-0.225	-0.959	0.090	27.405	101.135	-84.167	-72.16	25.15	-49.64	-91.826	-5.978	55.174	-0.78018	0.44708	-0.39841	0.18048	30.9	13111	100
2025-3-27 17:58:44.444	WT901BLE68-01(48591DE3C19B)	-0.272	-0.959	0.090	27.405	101.135	-84.167	-72.49	24.60	-51.05	-91.826	-5.978	55.174	-0.78018	0.44708	-0.39841	0.18048	30.9	13111	100
2025-3-27 17:58:44.444	WT901BLE68-01(48591DE3C19B)	-0.272	-0.915	0.069	25.330	131.897	-84.534	-72.89	24.08	-52.62	-91.826	-5.978	55.174	-0.78018	0.44708	-0.39841	0.18048	30.9	13111	100
2025-3-27 17:58:44.472	WT901BLE68-01(48591DE3C19B)	-0.307	-0.915	0.069	25.330	131.897	-84.534	-73.35	23.60	-54.34	-91.826	-5.978	55.174	-0.78018	0.44708	-0.39841	0.18048	30.9	13111	100
2025-3-27 17:58:44.472	WT901BLE68-01(48591DE3C19B)	-0.307	-0.894	0.049	21.545	153.381	-84.167	-73.86	23.15	-56.17	-91.826	-5.978	55.174	-0.78018	0.44708	-0.39841	0.18048	30.9	13111	100
2025-3-27 17:58:44.472	WT901BLE68-01(48591DE3C19B)	-0.333	-0.894	0.049	21.545	153.381	-84.167	-74.41	22.71	-58.08	-91.826	-5.978	55.174	-0.78018	0.44708	-0.39841	0.18048	30.9	13111	100
2025-3-27 17:58:44.472	WT901BLE68-01(48591DE3C19B)	-0.333	-0.911	0.036	18.066	163.696	-84.961	-74.98	22.28	-60.05	-91.826	-5.978	55.174	-0.78018	0.44708	-0.39841	0.18048	30.9	13111	100
2025-3-27 17:58:44.532	WT901BLE68-01(48591DE3C19B)	-0.374	-0.911	0.036	18.066	163.696	-84.961	-75.57	21.84	-62.06	-91.826	-5.978	55.174	-0.78018	0.44708	-0.39841	0.18048	30.9	13111	100
2025-3-27 17:58:44.532	WT901BLE68-01(48591DE3C19B)	-0.374	-0.928	0.015	16.907	158.752	-86.975	-76.15	21.37	-64.03	-91.826	-5.978	55.174	-0.78018	0.44708	-0.39841	0.18048	30.9	13111	100
2025-3-27 17:58:44.532	WT901BLE68-01(48591DE3C19B)	-0.403	-0.928	0.015	16.907	158.752	-86.975	-76.70	20.88	-65.96	-91.826	-5.978	55.174	-0.78018	0.44708	-0.39841	0.18048	30.9	13111	100
2025-3-27 17:58:44.532	WT901BLE68-01(48591DE3C19B)	-0.403	-0.906	-0.002	16.541	139.526	-89.905	-77.19	20.34	-67.79	-91.826	-5.978	55.174	-0.78018	0.44708	-0.39841	0.18048	30.9	13111	100
2025-3-27 17:58:44.563	WT901BLE68-01(48591DE3C19B)	-0.413	-0.906	-0.002	16.541	139.526	-89.905	-77.63	19.76	-69.51	-91.826	-5.978	55.174	-0.78018	0.44708	-0.39841	0.18048	30.9	13111	100
2025-3-27 17:58:44.563	WT901BLE68-01(48591DE3C19B)	-0.413	-0.886	-0.029	16.296	119.690	-93.506	-78.03	19.13	-71.11	-91.826	-5.978	55.174	-0.78018	0.44708	-0.39841	0.18048	30.9	13111	100
2025-3-27 17:58:44.564	WT901BLE68-01(48591DE3C19B)	-0.412	-0.886	-0.029	16.296	119.690	-93.506	-78.38	18.47	-72.61	-91.826	-5.978	55.174	-0.78018	0.44708	-0.39841	0.18048	30.9	13111	100
2025-3-27 17:58:44.564	WT901BLE68-01(48591DE3C19B)	-0.412	-0.874	-0.068	16.418	100.037	-97.412	-78.67	17.76	-73.99	-91.826	-5.978	55.174	-0.78018	0.44708	-0.39841	0.18048	30.9	13111	100
2025-3-27 17:58:44.592	WT901BLE68-01(48591DE3C19B)	-0.409	-0.874	-0.068	16.418	100.037	-97.412	-78.92	17.03	-75.27	-91.826	-5.978	55.174	-0.78018	0.44708	-0.39841	0.18048	30.9	13111	100
2025-3-27 17:58:44.592	WT901BLE68-01(48591DE3C19B)	-0.409	-0.865	-0.088	14.893	77.759	-101.563	-79.13	16.25	-76.43	-91.826	-5.978	55.174	-0.78018	0.44708	-0.39841	0.18048	30.9	13111	100
2025-3-27 17:58:44.592	WT901BLE68-01(48591DE3C19B)	-0.406	-0.865	-0.088	14.893	77.759	-101.563	-79.30	15.44	-77.47	-103.390	-20.384	36.064	-0.78018	0.44708	-0.39841	0.18048	30.9	13111	100
2025-3-27 17:58:44.592	WT901BLE68-01(48591DE3C19B)	-0.406	-0.871	-0.074	11.902	54.077	-107.056	-79.45	14.58	-78.39	-103.390	-20.384	36.064	-0.78018	0.44708	-0.39841	0.18048	30.9	13111	100
2025-3-27 17:58:44.653	WT901BLE68-01(48591DE3C19B)	-0.416	-0.871	-0.074	11.902	54.077	-107.056	-79.57	13.68	-79.18	-103.390	-20.384	36.064	-0.78018	0.44708	-0.39841	0.18048	30.9	13111	100
2025-3-27 17:58:44.653	WT901BLE68-01(48591DE3C19B)	-0.416	-0.898	-0.031	7.507	27.954	-112.488	-79.67	12.73	-79.84	-103.390	-20.384	36.064	-0.78018	0.44708	-0.39841	0.18048	30.9	13111	100
2025-3-27 17:58:44.653	WT901BLE68-01(48591DE3C19B)	-0.436	-0.898	-0.031	7.507	27.954	-112.488	-79.76	11.74	-80.36	-103.390	-20.384	36.064	-0.78018	0.44708	-0.39841	0.18048	30.9	13111	100
2025-3-27 17:58:44.653	WT901BLE68-01(48591DE3C19B)	-0.436	-0.951	0.030	2.930	1.953	-117.615	-79.83	10.71	-80.76	-103.390	-20.384	36.064	-0.78018	0.44708	-0.39841	0.18048	30.9	13111	100
2025-3-27 17:58:44.713	WT901BLE68-01(48591DE3C19B)	-0.467	-0.951	0.030	2.930	1.953	-117.615	-79.90	9.64	-81.02	-103.390	-20.384	36.064	-0.78018	0.44708	-0.39841	0.18048	30.9	13111	100
2025-3-27 17:58:44.714	WT901BLE68-01(48591DE3C19B)	-0.467	-1.021	0.095	-0.732	-23.315	-121.582	-79.95	8.49	-81.04	-103.390	-20.384	36.064	-0.78018	0.44708	-0.39841	0.18048	30.9	13111	100
2025-3-27 17:58:44.714	WT901BLE68-01(48591DE3C19B)	-0.500	-1.021	0.095	-0.732	-23.315	-121.582	-80.01	7.34	-81.06	-103.390	-20.384	36.064	-0.78018	0.44708	-0.39841	0.18048	30.9	13111	100
2025-3-27 17:58:44.714	WT901BLE68-01(48591DE3C19B)	-0.500	-1.095	0.140	-3.845	-50.903	-122.986	-80.05	6.15	-80.79	-103.390	-20.384	36.064	-0.78018	0.44708	-0.39841	0.18048	30.9	13111	100
2025-3-27 17:58:44.714	WT901BLE68-01(48591DE3C19B)	-0.500	-1.095	0.140	-3.845	-50.903	-122.986	-80.10	4.96	-80.54	-103.390	-20.384	36.064	-0.78018	0.44708	-0.39841	0.18048	30.9	13111	100
2025-3-27 17:58:44.714	WT901BLE68-01(48591DE3C19B)	-0.500	-1.161	0.174	-5.432	-76.050	-121.887	-80.15	3.75	-80.02	-103.390	-20.384	36.064	-0.78018	0.44708	-0.39841	0.18048	30.9	13111	100
2025-3-27 17:58:44.714	WT901BLE68-01(48591DE3C19B)	-0.489	-1.161	0.174	-5.432	-76.050	-121.887	-80.21	2.54	-79.51	-103.390	-20.384	36.064	-0.78018	0.44708	-0.39841	0.18048	30.9	13111	100
2025-3-27 17:58:44.714	WT901BLE68-01(48591DE3C19B)	-0.489	-1.208	0.204	-6.714	-96.191	-117.737	-80.27	1.35	-78.78	-103.390	-20.384	36.064	-0.78018	0.44708	-0.39841	0.18048	30.9	13111	100
2025-3-27 17:58:44.774	WT901BLE68-01(48591DE3C19B)	-0.476	-1.208	0.204	-6.714	-96.191	-117.737	-80.35	0.16	-78.06	-103.390	-20.384	36.064	-0.78018	0.44708	-0.39841	0.18048	30.9	13111	100
2025-3-27 17:58:44.774	WT901BLE68-01(48591DE3C19B)	-0.476	-1.276	0.241	-9.277	-110.168	-108.887	-80.47	-0.94	-77.18	-103.390	-20.384	36.064	-0.78018	0.44708	-0.39841	0.18048	30.9	13111	100
2025-3-27 17:58:44.774	WT901BLE68-01(48591DE3C19B)	-0.418	-1.276	0.241	-9.277	-110.168	-108.887	-80.60	-2.05	-76.29	-103.390	-20.384	36.064	-0.78018	0.44708	-0.39841	0.18048	30.9	13111	100
2025-3-27 17:58:44.774	WT901BLE68-01(48591DE3C19B)	-0.418	-1.303	0.267	-7.446	-113.403	-97.229	-80.73	-3.05	-75.36	-103.390	-20.384	36.064	-0.78018	0.44708	-0.39841	0.18048	30.9	13111	100
2025-3-27 17:58:44.802	WT901BLE68-01(48591DE3C19B)	-0.327	-1.303	0.267	-7.446	-113.403	-97.229	-80.87	-4.04	-74.42	-103.390	-20.384	36.064	-0.78018	0.44708	-0.39841	0.18048	30.9	13111	100
2025-3-27 17:58:44.802	WT901BLE68-01(48591DE3C19B)	-0.327	-1.324	0.287	-7.080	-97.961	-84.106	-81.01	-4.87	-73.61	-103.390	-20.384	36.064	-0.78018	0.44708	-0.39841	0.18048	30.9	13111	100
2025-3-27 17:58:44.802	WT901BLE68-01(48591DE3C19B)	-0.252	-1.324	0.287	-7.080	-97.961	-84.106	-81.15	-5.70	-72.79	-103.390	-20.384	36.064	-0.78018	0.44708	-0.39841	0.18048	30.9	13111	100
2025-3-27 17:58:44.803	WT901BLE68-01(48591DE3C19B)	-0.252	-1.337	0.294	-3.967	-68.909	-67.017	-81.25	-6.32	-72.24	-103.390	-20.384	36.064	-0.59097	0.54977	-0.34940	0.47571	30.9	13111	100
2025-3-27 17:58:44.893	WT901BLE68-01(48591DE3C19B)	-0.188	-1.337	0.294	-3.967	-68.909	-67.017	-81.34	-6.94	-71.68	-103.390	-20.384	36.064	-0.59097	0.54977	-0.34940	0.47571	30.9	13111	100
2025-3-27 17:58:44.894	WT901BLE68-01(48591DE3C19B)	-0.188	-1.312	0.287	-2.502	-32.837	-51.819	-81.39	-7.36	-71.46	-103.390	-20.384	36.064	-0.59097	0.54977	-0.34940	0.47571	30.9	13111	100
2025-3-27 17:58:44.894	WT901BLE68-01(48591DE3C19B)	-0.169	-1.312	0.287	-2.502	-32.837	-51.819	-81.44	-7.77	-71.24	-103.390	-20.384	36.064	-0.59097	0.54977	-0.34940	0.47571	30.9	13111	100
2025-3-27 17:58:44.894	WT901BLE68-01(48591DE3C19B)	-0.169	-1.320	0.288	-1.892	1.831	-38.879	-81.43	-8.01	-71.34	-103.390	-20.384	36.064	-0.59097	0.54977	-0.34940	0.47571	30.9	13111	100
2025-3-27 17:58:44.895	WT901BLE68-01(48591DE3C19B)	-0.234	-1.320	0.288	-1.892	1.831	-38.879	-81.42	-8.26	-71.44	-103.390	-20.384	36.064	-0.59097	0.54977	-0.34940	0.47571	30.9	13111	100
2025-3-27 17:58:44.895	WT901BLE68-01(48591DE3C19B)	-0.234	-1.274	0.317	1.648	27.588	-27.527	-81.34	-8.36	-71.79	-103.390	-20.384	36.064	-0.59097	0.54977	-0.34940	0.47571	30.9	13111	100
2025-3-27 17:58:44.895	WT901BLE68-01(48591DE3C19B)	-0.298	-1.274	0.317	1.648	27.588	-27.527	-81.26	-8.46	-72.14	-103.390	-20.384	36.064	-0.59097	0.54977	-0.34940	0.47571	30.9	13111	100
2025-3-27 17:58:44.895	WT901BLE68-01(48591DE3C19B)	-0.298	-1.119	0.362	6.104	40.222	-18.494	-81.11	-8.45	-72.60	-103.390	-20.384	36.064	-0.59097	0.54977	-0.34940	0.47571	30.9	13111	100
2025-3-27 17:58:44.953	WT901BLE68-01(48591DE3C19B)	-0.333	-1.119	0.362	6.104	40.222	-18.494	-80.96	-8.44	-73.06	-103.390	-20.384	36.064	-0.59097	0.54977	-0.34940	0.47571	30.9	13111	100
2025-3-27 17:58:44.953	WT901BLE68-01(48591DE3C19B)	-0.333	-0.903	0.391	9.460	43.701	-9.155	-80.78	-8.33	-73.54	-103.390	-20.384	36.064	-0.59097	0.54977	-0.34940	0.47571	30.9	13111	100
2025-3-27 17:58:44.953	WT901BLE68-01(48591DE3C19B)	-0.363	-0.903	0.391	9.460	43.701	-9.155	-80.58	-8.21	-74.02	-103.390	-20.384	36.064	-0.59097	0.54977	-0.34940	0.47571	30.9	13111	100
2025-3-27 17:58:44.953	WT901BLE68-01(48591DE3C19B)	-0.363	-0.694	0.361	9.521	41.504	2.686	-80.40	-7.98	-74.46	-103.390	-20.384	36.064	-0.59097	0.54977	-0.34940	0.47571	30.9	13111	100
2025-3-27 17:58:44.954	WT901BLE68-01(48591DE3C19B)	-0.410	-0.694	0.361	9.521	41.504	2.686	-80.21	-7.75	-74.90	-103.390	-20.384	36.064	-0.59097	0.54977	-0.34940	0.47571	30.9	13111	100
2025-3-27 17:58:44.954	WT901BLE68-01(48591DE3C19B)	-0.410	-0.561	0.320	5.066	27.161	13.306	-80.08	-7.43	-75.18	-103.390	-20.384	36.064	-0.59097	0.54977	-0.34940	0.47571	30.9	13111	100
2025-3-27 17:58:44.955	WT901BLE68-01(48591DE3C19B)	-0.470	-0.561	0.320	5.066	27.161	13.306	-79.95	-7.10	-75.46	-103.390	-20.384	36.064	-0.59097	0.54977	-0.34940	0.47571	30.9	13111	100
2025-3-27 17:58:44.955	WT901BLE68-01(48591DE3C19B)	-0.470	-0.529	0.297	0.122	-5.493	23.071	-79.90	-6.73	-75.40	-103.390	-20.384	36.064	-0.59097	0.54977	-0.34940	0.47571	30.9	13111	100
2025-3-27 17:58:45.13	WT901BLE68-01(48591DE3C19B)	-0.508	-0.529	0.297	0.122	-5.493	23.071	-79.86	-6.35	-75.34	-103.390	-20.384	36.064	-0.59097	0.54977	-0.34940	0.47571	30.9	13111	100
2025-3-27 17:58:45.13	WT901BLE68-01(48591DE3C19B)	-0.508	-0.553	0.286	-2.869	-53.040	32.043	-79.89	-5.97	-74.79	-103.390	-20.384	36.064	-0.59097	0.54977	-0.34940	0.47571	30.9	13111	100
2025-3-27 17:58:45.13	WT901BLE68-01(48591DE3C19B)	-0.503	-0.553	0.286	-2.869	-53.040	32.043	-79.91	-5.57	-74.25	-103.390	-20.384	36.064	-0.59097	0.54977	-0.34940	0.47571	30.9	13111	100
2025-3-27 17:58:45.13	WT901BLE68-01(48591DE3C19B)	-0.503	-0.619	0.250	-3.845	-103.638	40.405	-79.99	-5.18	-73.19	-103.390	-20.384	36.064	-0.59097	0.54977	-0.34940	0.47571	30.9	13111	100
2025-3-27 17:58:45.42	WT901BLE68-01(48591DE3C19B)	-0.449	-0.619	0.250	-3.845	-103.638	40.405	-80.06	-4.78	-72.13	-101.626	-42.336	41.454	-0.59097	0.54977	-0.34940	0.47571	30.9	13111	100
2025-3-27 17:58:45.43	WT901BLE68-01(48591DE3C19B)	-0.449	-0.729	0.204	-0.305	-142.334	46.265	-80.12	-4.39	-70.68	-101.626	-42.336	41.454	-0.59097	0.54977	-0.34940	0.47571	30.9	13111	100
2025-3-27 17:58:45.43	WT901BLE68-01(48591DE3C19B)	-0.371	-0.729	0.204	-0.305	-142.334	46.265	-80.17	-4.00	-69.22	-101.626	-42.336	41.454	-0.59097	0.54977	-0.34940	0.47571	30.9	13111	100
2025-3-27 17:58:45.43	WT901BLE68-01(48591DE3C19B)	-0.371	-0.864	0.170	6.653	-161.926	51.025	-80.16	-3.59	-67.57	-101.626	-42.336	41.454	-0.59097	0.54977	-0.34940	0.47571	30.9	13111	100
2025-3-27 17:58:45.103	WT901BLE68-01(48591DE3C19B)	-0.311	-0.864	0.170	6.653	-161.926	51.025	-80.15	-3.20	-65.91	-101.626	-42.336	41.454	-0.59097	0.54977	-0.34940	0.47571	30.9	13111	100
2025-3-27 17:58:45.103	WT901BLE68-01(48591DE3C19B)	-0.311	-0.997	0.147	16.541	-168.884	55.298	-80.02	-2.77	-64.17	-101.626	-42.336	41.454	-0.59097	0.54977	-0.34940	0.47571	30.9	13111	100
2025-3-27 17:58:45.104	WT901BLE68-01(48591DE3C19B)	-0.244	-0.997	0.147	16.541	-168.884	55.298	-79.90	-2.36	-62.43	-101.626	-42.336	41.454	-0.59097	0.54977	-0.34940	0.47571	30.9	13111	100
2025-3-27 17:58:45.104	WT901BLE68-01(48591DE3C19B)	-0.244	-1.121	0.156	25.574	-164.307	60.425	-79.68	-1.91	-60.72	-101.626	-42.336	41.454	-0.59097	0.54977	-0.34940	0.47571	30.9	13111	100
2025-3-27 17:58:45.132	WT901BLE68-01(48591DE3C19B)	-0.188	-1.121	0.156	25.574	-164.307	60.425	-79.45	-1.47	-59.01	-101.626	-42.336	41.454	-0.59097	0.54977	-0.34940	0.47571	30.9	13111	100
2025-3-27 17:58:45.133	WT901BLE68-01(48591DE3C19B)	-0.164	-1.201	0.203	35.950	-144.714	66.406	-79.11	-0.96	-57.47	-101.626	-42.336	41.454	-0.59097	0.54977	-0.34940	0.47571	30.9	13111	100
2025-3-27 17:58:45.133	WT901BLE68-01(48591DE3C19B)	-0.164	-1.258	0.248	42.664	-116.577	78.857	-78.72	-0.38	-56.06	-101.626	-42.336	41.454	-0.59097	0.54977	-0.34940	0.47571	30.9	13111	100
2025-3-27 17:58:45.133	WT901BLE68-01(48591DE3C19B)	-0.137	-1.258	0.248	42.664	-116.577	78.857	-78.29	0.26	-54.77	-101.626	-42.336	41.454	-0.59097	0.54977	-0.34940	0.47571	30.9	13111	100
2025-3-27 17:58:45.164	WT901BLE68-01(48591DE3C19B)	-0.137	-1.200	0.293	50.720	-86.548	90.759	-77.81	0.97	-53.61	-101.626	-42.336	41.454	-0.59097	0.54977	-0.34940	0.47571	30.9	13111	100
2025-3-27 17:58:45.164	WT901BLE68-01(48591DE3C19B)	-0.133	-1.200	0.293	50.720	-86.548	90.759	-77.27	1.76	-52.60	-101.626	-42.336	41.454	-0.59097	0.54977	-0.34940	0.47571	30.9	13111	100
2025-3-27 17:58:45.164	WT901BLE68-01(48591DE3C19B)	-0.133	-1.156	0.336	52.490	-59.021	104.248	-76.71	2.61	-51.73	-101.626	-42.336	41.454	-0.59097	0.54977	-0.34940	0.47571	30.9	13111	100
2025-3-27 17:58:45.164	WT901BLE68-01(48591DE3C19B)	-0.138	-1.156	0.336	52.490	-59.021	104.248	-76.14	3.55	-50.98	-101.626	-42.336	41.454	-0.59097	0.54977	-0.34940	0.47571	30.9	13111	100
2025-3-27 17:58:45.194	WT901BLE68-01(48591DE3C19B)	-0.138	-1.135	0.334	54.382	-32.715	117.249	-75.55	4.56	-50.33	-101.626	-42.336	41.454	-0.59097	0.54977	-0.34940	0.47571	30.9	13111	100
2025-3-27 17:58:45.195	WT901BLE68-01(48591DE3C19B)	-0.141	-1.135	0.334	54.382	-32.715	117.249	-74.96	5.65	-49.78	-101.626	-42.336	41.454	-0.59097	0.54977	-0.34940	0.47571	30.9	13111	100
2025-3-27 17:58:45.195	WT901BLE68-01(48591DE3C19B)	-0.141	-1.089	0.310	55.298	-6.470	129.822	-74.36	6.83	-49.34	-101.626	-42.336	41.454	-0.73770	0.52835	-0.29489	0.29922	30.9	13111	100
2025-3-27 17:58:45.195	WT901BLE68-01(48591DE3C19B)	-0.179	-1.089	0.310	55.298	-6.470	129.822	-73.76	8.07	-48.99	-101.626	-42.336	41.454	-0.73770	0.52835	-0.29489	0.29922	30.9	13111	100
2025-3-27 17:58:45.253	WT901BLE68-01(48591DE3C19B)	-0.179	-1.107	0.270	52.307	12.756	140.808	-73.18	9.39	-48.71	-101.626	-42.336	41.454	-0.73770	0.52835	-0.29489	0.29922	30.9	13111	100
2025-3-27 17:58:45.253	WT901BLE68-01(48591DE3C19B)	-0.203	-1.107	0.270	52.307	12.756	140.808	-72.62	10.78	-48.49	-101.626	-42.336	41.454	-0.73770	0.52835	-0.29489	0.29922	30.9	13111	100
2025-3-27 17:58:45.253	WT901BLE68-01(48591DE3C19B)	-0.203	-1.150	0.226	50.659	21.362	150.269	-72.07	12.21	-48.28	-101.626	-42.336	41.454	-0.73770	0.52835	-0.29489	0.29922	30.9	13111	100
2025-3-27 17:58:45.254	WT901BLE68-01(48591DE3C19B)	-0.205	-1.150	0.226	50.659	21.362	150.269	-71.53	13.69	-48.08	-101.626	-42.336	41.454	-0.73770	0.52835	-0.29489	0.29922	30.9	13111	100
2025-3-27 17:58:45.313	WT901BLE68-01(48591DE3C19B)	-0.205	-1.112	0.217	48.157	20.142	157.715	-70.99	15.19	-47.85	-101.626	-42.336	41.454	-0.73770	0.52835	-0.29489	0.29922	30.9	13111	100
2025-3-27 17:58:45.313	WT901BLE68-01(48591DE3C19B)	-0.208	-1.112	0.217	48.157	20.142	157.715	-70.46	16.72	-47.59	-101.626	-42.336	41.454	-0.73770	0.52835	-0.29489	0.29922	30.9	13111	100
2025-3-27 17:58:45.313	WT901BLE68-01(48591DE3C19B)	-0.208	-1.087	0.251	44.312	12.817	161.255	-69.92	18.23	-47.26	-101.626	-42.336	41.454	-0.73770	0.52835	-0.29489	0.29922	30.9	13111	100
2025-3-27 17:58:45.313	WT901BLE68-01(48591DE3C19B)	-0.182	-1.087	0.251	44.312	12.817	161.255	-69.38	19.74	-46.88	-101.626	-42.336	41.454	-0.73770	0.52835	-0.29489	0.29922	30.9	13111	100
2025-3-27 17:58:45.375	WT901BLE68-01(48591DE3C19B)	-0.182	-1.146	0.308	43.152	9.460	163.391	-68.82	21.24	-46.46	-101.626	-42.336	41.454	-0.73770	0.52835	-0.29489	0.29922	30.9	13111	100
2025-3-27 17:58:45.375	WT901BLE68-01(48591DE3C19B)	-0.121	-1.146	0.308	43.152	9.460	163.391	-68.24	22.73	-46.00	-101.626	-42.336	41.454	-0.73770	0.52835	-0.29489	0.29922	30.9	13111	100
2025-3-27 17:58:45.375	WT901BLE68-01(48591DE3C19B)	-0.121	-1.228	0.251	45.654	20.874	165.894	-67.65	24.24	-45.57	-101.626	-42.336	41.454	-0.73770	0.52835	-0.29489	0.29922	30.9	13111	100
2025-3-27 17:58:45.375	WT901BLE68-01(48591DE3C19B)	-0.064	-1.228	0.251	45.654	20.874	165.894	-67.06	25.76	-45.18	-101.626	-42.336	41.454	-0.73770	0.52835	-0.29489	0.29922	30.9	13111	100
2025-3-27 17:58:45.376	WT901BLE68-01(48591DE3C19B)	-0.064	-1.170	0.159	51.453	43.701	168.091	-66.48	27.32	-44.88	-101.626	-42.336	41.454	-0.73770	0.52835	-0.29489	0.29922	30.9	13111	100
2025-3-27 17:58:45.376	WT901BLE68-01(48591DE3C19B)	-0.003	-1.170	0.159	51.453	43.701	168.091	-65.91	28.93	-44.67	-101.626	-42.336	41.454	-0.73770	0.52835	-0.29489	0.29922	30.9	13111	100
2025-3-27 17:58:45.376	WT901BLE68-01(48591DE3C19B)	-0.003	-1.038	0.094	46.204	68.115	166.565	-65.41	30.56	-44.58	-101.626	-42.336	41.454	-0.73770	0.52835	-0.29489	0.29922	30.9	13111	100
2025-3-27 17:58:45.376	WT901BLE68-01(48591DE3C19B)	-0.015	-1.038	0.094	46.204	68.115	166.565	-65.02	32.22	-44.60	-101.626	-42.336	41.454	-0.73770	0.52835	-0.29489	0.29922	30.9	13111	100
2025-3-27 17:58:45.432	WT901BLE68-01(48591DE3C19B)	-0.015	-0.963	0.102	34.851	88.562	160.095	-64.74	33.89	-44.74	-101.626	-42.336	41.454	-0.73770	0.52835	-0.29489	0.29922	30.9	13111	100
2025-3-27 17:58:45.433	WT901BLE68-01(48591DE3C19B)	-0.068	-0.963	0.102	34.851	88.562	160.095	-64.60	35.55	-45.01	-101.626	-42.336	41.454	-0.73770	0.52835	-0.29489	0.29922	30.9	13111	100
2025-3-27 17:58:45.433	WT901BLE68-01(48591DE3C19B)	-0.068	-0.908	0.158	22.522	91.370	149.841	-64.56	37.17	-45.32	-88.592	-2.940	52.528	-0.73770	0.52835	-0.29489	0.29922	30.9	13111	100
2025-3-27 17:58:45.433	WT901BLE68-01(48591DE3C19B)	-0.111	-0.908	0.158	22.522	91.370	149.841	-64.61	38.73	-45.68	-88.592	-2.940	52.528	-0.73770	0.52835	-0.29489	0.29922	30.9	13111	100
2025-3-27 17:58:45.462	WT901BLE68-01(48591DE3C19B)	-0.111	-0.855	0.211	11.841	83.740	136.475	-64.73	40.21	-46.04	-88.592	-2.940	52.528	-0.73770	0.52835	-0.29489	0.29922	30.9	13111	100
2025-3-27 17:58:45.462	WT901BLE68-01(48591DE3C19B)	-0.139	-0.855	0.211	11.841	83.740	136.475	-64.90	41.61	-46.41	-88.592	-2.940	52.528	-0.73770	0.52835	-0.29489	0.29922	30.9	13111	100
2025-3-27 17:58:45.462	WT901BLE68-01(48591DE3C19B)	-0.139	-0.841	0.211	2.380	77.271	122.803	-65.13	42.91	-46.78	-88.592	-2.940	52.528	-0.73770	0.52835	-0.29489	0.29922	30.9	13111	100
2025-3-27 17:58:45.462	WT901BLE68-01(48591DE3C19B)	-0.193	-0.841	0.211	2.380	77.271	122.803	-65.42	44.14	-47.17	-88.592	-2.940	52.528	-0.73770	0.52835	-0.29489	0.29922	30.9	13111	100
2025-3-27 17:58:45.492	WT901BLE68-01(48591DE3C19B)	-0.193	-0.913	0.184	-8.972	70.618	97.595	-65.80	45.23	-47.60	-88.592	-2.940	52.528	-0.73770	0.52835	-0.29489	0.29922	30.9	13111	100
2025-3-27 17:58:45.492	WT901BLE68-01(48591DE3C19B)	-0.253	-0.913	0.184	-8.972	70.618	97.595	-66.28	46.19	-48.08	-88.592	-2.940	52.528	-0.73770	0.52835	-0.29489	0.29922	30.9	13111	100
2025-3-27 17:58:45.493	WT901BLE68-01(48591DE3C19B)	-0.253	-0.998	0.192	-13.123	52.063	63.354	-66.77	46.95	-48.55	-88.592	-2.940	52.528	-0.73770	0.52835	-0.29489	0.29922	30.9	13111	100
2025-3-27 17:58:45.493	WT901BLE68-01(48591DE3C19B)	-0.335	-0.998	0.192	-13.123	52.063	63.354	-67.27	47.51	-49.01	-88.592	-2.940	52.528	-0.73770	0.52835	-0.29489	0.29922	30.9	13111	100
2025-3-27 17:58:45.522	WT901BLE68-01(48591DE3C19B)	-0.335	-0.965	0.258	-11.108	19.775	26.978	-67.68	47.85	-49.36	-88.592	-2.940	52.528	-0.73770	0.52835	-0.29489	0.29922	30.9	13111	100
2025-3-27 17:58:45.522	WT901BLE68-01(48591DE3C19B)	-0.312	-0.965	0.258	-11.108	19.775	26.978	-67.99	47.95	-49.58	-88.592	-2.940	52.528	-0.73770	0.52835	-0.29489	0.29922	30.9	13111	100
2025-3-27 17:58:45.522	WT901BLE68-01(48591DE3C19B)	-0.312	-0.854	0.266	-9.705	-6.653	-3.906	-68.22	47.87	-49.71	-88.592	-2.940	52.528	-0.73770	0.52835	-0.29489	0.29922	30.9	13111	100
2025-3-27 17:58:45.522	WT901BLE68-01(48591DE3C19B)	-0.252	-0.854	0.266	-9.705	-6.653	-3.906	-68.36	47.60	-49.73	-88.592	-2.940	52.528	-0.73770	0.52835	-0.29489	0.29922	30.9	13111	100
2025-3-27 17:58:45.585	WT901BLE68-01(48591DE3C19B)	-0.252	-0.778	0.219	-8.850	-14.282	-26.489	-68.50	47.21	-49.76	-88.592	-2.940	52.528	-0.73770	0.52835	-0.29489	0.29922	30.9	13111	100
2025-3-27 17:58:45.585	WT901BLE68-01(48591DE3C19B)	-0.248	-0.778	0.219	-8.850	-14.282	-26.489	-68.63	46.71	-49.80	-88.592	-2.940	52.528	-0.73770	0.52835	-0.29489	0.29922	30.9	13111	100
2025-3-27 17:58:45.585	WT901BLE68-01(48591DE3C19B)	-0.248	-0.753	0.174	-9.705	-11.963	-43.640	-68.81	46.15	-49.88	-88.592	-2.940	52.528	-0.73770	0.52835	-0.29489	0.29922	30.9	13111	100
2025-3-27 17:58:45.585	WT901BLE68-01(48591DE3C19B)	-0.256	-0.753	0.174	-9.705	-11.963	-43.640	-69.03	45.51	-50.03	-88.592	-2.940	52.528	-0.73770	0.52835	-0.29489	0.29922	30.9	13111	100
2025-3-27 17:58:45.615	WT901BLE68-01(48591DE3C19B)	-0.256	-0.798	0.131	-10.315	-10.254	-60.852	-69.33	44.72	-50.28	-88.592	-2.940	52.528	-0.73770	0.52835	-0.29489	0.29922	30.9	13111	100
2025-3-27 17:58:45.615	WT901BLE68-01(48591DE3C19B)	-0.242	-0.798	0.131	-10.315	-10.254	-60.852	-69.63	43.94	-50.52	-88.592	-2.940	52.528	-0.73770	0.52835	-0.29489	0.29922	30.9	13111	100
2025-3-27 17:58:45.615	WT901BLE68-01(48591DE3C19B)	-0.242	-0.855	0.098	-9.338	-12.085	-75.439	-69.93	43.02	-50.79	-88.592	-2.940	52.528	-0.73770	0.52835	-0.29489	0.29922	30.9	13111	100
2025-3-27 17:58:45.615	WT901BLE68-01(48591DE3C19B)	-0.223	-0.855	0.098	-9.338	-12.085	-75.439	-70.23	42.11	-51.05	-88.592	-2.940	52.528	-0.77740	0.36050	-0.49442	0.14536	30.9	13111	100
2025-3-27 17:58:45.645	WT901BLE68-01(48591DE3C19B)	-0.223	-0.876	0.083	-10.315	-16.602	-85.327	-70.52	41.09	-51.29	-88.592	-2.940	52.528	-0.77740	0.36050	-0.49442	0.14536	30.9	13111	100
2025-3-27 17:58:45.645	WT901BLE68-01(48591DE3C19B)	-0.212	-0.876	0.083	-10.315	-16.602	-85.327	-70.81	40.08	-51.52	-88.592	-2.940	52.528	-0.77740	0.36050	-0.49442	0.14536	30.9	13111	100
2025-3-27 17:58:45.645	WT901BLE68-01(48591DE3C19B)	-0.212	-0.897	0.106	-13.611	-17.029	-94.238	-71.14	38.99	-51.77	-88.592	-2.940	52.528	-0.77740	0.36050	-0.49442	0.14536	30.9	13111	100
2025-3-27 17:58:45.645	WT901BLE68-01(48591DE3C19B)	-0.223	-0.897	0.106	-13.611	-17.029	-94.238	-71.46	37.90	-52.01	-88.592	-2.940	52.528	-0.77740	0.36050	-0.49442	0.14536	30.9	13111	100
2025-3-27 17:58:45.703	WT901BLE68-01(48591DE3C19B)	-0.223	-0.930	0.144	-18.066	-7.080	-103.882	-71.90	36.76	-52.39	-88.592	-2.940	52.528	-0.77740	0.36050	-0.49442	0.14536	30.9	13111	100
2025-3-27 17:58:45.703	WT901BLE68-01(48591DE3C19B)	-0.266	-0.930	0.144	-18.066	-7.080	-103.882	-72.33	35.62	-52.76	-88.592	-2.940	52.528	-0.77740	0.36050	-0.49442	0.14536	30.9	13111	100
2025-3-27 17:58:45.704	WT901BLE68-01(48591DE3C19B)	-0.266	-0.974	0.172	-22.400	8.728	-113.403	-72.91	34.45	-53.32	-88.592	-2.940	52.528	-0.77740	0.36050	-0.49442	0.14536	30.9	13111	100
2025-3-27 17:58:45.704	WT901BLE68-01(48591DE3C19B)	-0.312	-0.974	0.172	-22.400	8.728	-113.403	-73.46	33.27	-53.86	-88.592	-2.940	52.528	-0.77740	0.36050	-0.49442	0.14536	30.9	13111	100
2025-3-27 17:58:45.732	WT901BLE68-01(48591DE3C19B)	-0.312	-1.013	0.199	-24.231	19.958	-121.704	-74.09	32.05	-54.53	-88.592	-2.940	52.528	-0.77740	0.36050	-0.49442	0.14536	30.9	13111	100
2025-3-27 17:58:45.732	WT901BLE68-01(48591DE3C19B)	-0.338	-1.013	0.199	-24.231	19.958	-121.704	-74.69	30.84	-55.17	-88.592	-2.940	52.528	-0.77740	0.36050	-0.49442	0.14536	30.9	13111	100
2025-3-27 17:58:45.732	WT901BLE68-01(48591DE3C19B)	-0.338	-1.024	0.217	-24.292	24.353	-128.967	-75.30	29.57	-55.86	-88.592	-2.940	52.528	-0.77740	0.36050	-0.49442	0.14536	30.9	13111	100
2025-3-27 17:58:45.732	WT901BLE68-01(48591DE3C19B)	-0.339	-1.024	0.217	-24.292	24.353	-128.967	-75.88	28.30	-56.52	-88.592	-2.940	52.528	-0.77740	0.36050	-0.49442	0.14536	30.9	13111	100
2025-3-27 17:58:45.763	WT901BLE68-01(48591DE3C19B)	-0.339	-1.008	0.210	-23.865	24.597	-133.972	-76.43	26.99	-57.17	-88.592	-2.940	52.528	-0.77740	0.36050	-0.49442	0.14536	30.9	13111	100
2025-3-27 17:58:45.764	WT901BLE68-01(48591DE3C19B)	-0.331	-1.008	0.210	-23.865	24.597	-133.972	-76.96	25.68	-57.79	-88.592	-2.940	52.528	-0.77740	0.36050	-0.49442	0.14536	30.9	13111	100
2025-3-27 17:58:45.764	WT901BLE68-01(48591DE3C19B)	-0.331	-0.999	0.190	-22.766	24.780	-136.963	-77.46	24.35	-58.41	-88.592	-2.940	52.528	-0.77740	0.36050	-0.49442	0.14536	30.9	13111	100
2025-3-27 17:58:45.764	WT901BLE68-01(48591DE3C19B)	-0.331	-0.999	0.190	-22.766	24.780	-136.963	-77.93	23.02	-59.00	-88.592	-2.940	52.528	-0.77740	0.36050	-0.49442	0.14536	30.9	13111	100
2025-3-27 17:58:45.823	WT901BLE68-01(48591DE3C19B)	-0.331	-1.000	0.158	-20.081	23.865	-139.709	-78.35	21.67	-59.57	-88.592	-2.940	52.528	-0.77740	0.36050	-0.49442	0.14536	30.9	13111	100
2025-3-27 17:58:45.823	WT901BLE68-01(48591DE3C19B)	-0.315	-1.000	0.158	-20.081	23.865	-139.709	-78.76	20.32	-60.12	-88.592	-2.940	52.528	-0.77740	0.36050	-0.49442	0.14536	30.9	13111	100
2025-3-27 17:58:45.823	WT901BLE68-01(48591DE3C19B)	-0.315	-1.008	0.136	-16.602	22.217	-142.029	-79.10	18.96	-60.64	-88.592	-2.940	52.528	-0.77740	0.36050	-0.49442	0.14536	30.9	13111	100
2025-3-27 17:58:45.823	WT901BLE68-01(48591DE3C19B)	-0.286	-1.008	0.136	-16.602	22.217	-142.029	-79.43	17.60	-61.15	-88.592	-2.940	52.528	-0.77740	0.36050	-0.49442	0.14536	30.9	13111	100
2025-3-27 17:58:45.852	WT901BLE68-01(48591DE3C19B)	-0.286	-1.033	0.125	-13.916	24.536	-144.409	-79.73	16.22	-61.68	-95.550	-8.624	49.392	-0.77740	0.36050	-0.49442	0.14536	30.9	13111	100
2025-3-27 17:58:45.852	WT901BLE68-01(48591DE3C19B)	-0.286	-1.033	0.125	-13.916	24.536	-144.409	-80.01	14.85	-62.19	-95.550	-8.624	49.392	-0.77740	0.36050	-0.49442	0.14536	30.9	13111	100
2025-3-27 17:58:45.852	WT901BLE68-01(48591DE3C19B)	-0.286	-1.084	0.130	-10.376	32.043	-147.888	-80.26	13.46	-62.77	-95.550	-8.624	49.392	-0.77740	0.36050	-0.49442	0.14536	30.9	13111	100
2025-3-27 17:58:45.852	WT901BLE68-01(48591DE3C19B)	-0.313	-1.084	0.130	-10.376	32.043	-147.888	-80.50	12.08	-63.34	-95.550	-8.624	49.392	-0.77740	0.36050	-0.49442	0.14536	30.9	13111	100
2025-3-27 17:58:45.914	WT901BLE68-01(48591DE3C19B)	-0.313	-1.139	0.153	-6.287	41.077	-151.672	-80.69	10.68	-64.01	-95.550	-8.624	49.392	-0.77740	0.36050	-0.49442	0.14536	30.9	13111	100
2025-3-27 17:58:45.914	WT901BLE68-01(48591DE3C19B)	-0.342	-1.139	0.153	-6.287	41.077	-151.672	-80.88	9.29	-64.66	-95.550	-8.624	49.392	-0.77740	0.36050	-0.49442	0.14536	30.9	13111	100
2025-3-27 17:58:45.914	WT901BLE68-01(48591DE3C19B)	-0.342	-1.191	0.170	-2.258	48.096	-154.297	-81.01	7.89	-65.39	-95.550	-8.624	49.392	-0.77740	0.36050	-0.49442	0.14536	30.9	13111	100
2025-3-27 17:58:45.914	WT901BLE68-01(48591DE3C19B)	-0.366	-1.191	0.170	-2.258	48.096	-154.297	-81.12	6.49	-66.10	-95.550	-8.624	49.392	-0.77740	0.36050	-0.49442	0.14536	30.9	13111	100
2025-3-27 17:58:45.943	WT901BLE68-01(48591DE3C19B)	-0.366	-1.220	0.179	2.258	53.589	-154.907	-81.18	5.11	-66.87	-95.550	-8.624	49.392	-0.77740	0.36050	-0.49442	0.14536	30.9	13111	100
2025-3-27 17:58:45.943	WT901BLE68-01(48591DE3C19B)	-0.386	-1.220	0.179	2.258	53.589	-154.907	-81.22	3.74	-67.63	-95.550	-8.624	49.392	-0.77740	0.36050	-0.49442	0.14536	30.9	13111	100
2025-3-27 17:58:45.943	WT901BLE68-01(48591DE3C19B)	-0.386	-1.217	0.173	5.554	56.763	-152.405	-81.21	2.40	-68.43	-95.550	-8.624	49.392	-0.77740	0.36050	-0.49442	0.14536	30.9	13111	100
2025-3-27 17:58:45.943	WT901BLE68-01(48591DE3C19B)	-0.400	-1.217	0.173	5.554	56.763	-152.405	-81.18	1.07	-69.22	-95.550	-8.624	49.392	-0.77740	0.36050	-0.49442	0.14536	30.9	13111	100
2025-3-27 17:58:45.975	WT901BLE68-01(48591DE3C19B)	-0.400	-1.216	0.184	7.813	58.655	-146.179	-81.11	-0.19	-70.02	-95.550	-8.624	49.392	-0.77740	0.36050	-0.49442	0.14536	30.9	13111	100
2025-3-27 17:58:45.975	WT901BLE68-01(48591DE3C19B)	-0.410	-1.216	0.184	7.813	58.655	-146.179	-81.02	-1.43	-70.82	-95.550	-8.624	49.392	-0.77740	0.36050	-0.49442	0.14536	30.9	13111	100
2025-3-27 17:58:45.975	WT901BLE68-01(48591DE3C19B)	-0.410	-1.226	0.214	9.277	59.937	-134.644	-80.91	-2.55	-71.63	-95.550	-8.624	49.392	-0.77740	0.36050	-0.49442	0.14536	30.9	13111	100
2025-3-27 17:58:45.975	WT901BLE68-01(48591DE3C19B)	-0.419	-1.226	0.214	9.277	59.937	-134.644	-80.78	-3.66	-72.43	-95.550	-8.624	49.392	-0.77740	0.36050	-0.49442	0.14536	30.9	13111	100
2025-3-27 17:58:46.5	WT901BLE68-01(48591DE3C19B)	-0.419	-1.259	0.213	12.085	57.617	-121.582	-80.60	-4.64	-73.19	-95.550	-8.624	49.392	-0.77740	0.36050	-0.49442	0.14536	30.9	13111	100
2025-3-27 17:58:46.5	WT901BLE68-01(48591DE3C19B)	-0.393	-1.259	0.213	12.085	57.617	-121.582	-80.41	-5.61	-73.96	-95.550	-8.624	49.392	-0.77740	0.36050	-0.49442	0.14536	30.9	13111	100
2025-3-27 17:58:46.5	WT901BLE68-01(48591DE3C19B)	-0.393	-1.237	0.207	13.733	57.007	-108.032	-80.21	-6.44	-74.71	-95.550	-8.624	49.392	-0.58240	0.53714	-0.35507	0.49609	30.9	13111	100
2025-3-27 17:58:46.5	WT901BLE68-01(48591DE3C19B)	-0.394	-1.237	0.207	13.733	57.007	-108.032	-79.99	-7.26	-75.46	-95.550	-8.624	49.392	-0.58240	0.53714	-0.35507	0.49609	30.9	13111	100
2025-3-27 17:58:46.244	WT901BLE68-01(48591DE3C19B)	-0.394	-1.266	0.203	14.221	54.810	-93.201	-79.76	-7.93	-76.16	-95.550	-8.624	49.392	-0.58240	0.53714	-0.35507	0.49609	30.9	13111	100
2025-3-27 17:58:46.244	WT901BLE68-01(48591DE3C19B)	-0.393	-1.266	0.203	14.221	54.810	-93.201	-79.52	-8.60	-76.88	-95.550	-8.624	49.392	-0.58240	0.53714	-0.35507	0.49609	30.9	13111	100
2025-3-27 17:58:46.244	WT901BLE68-01(48591DE3C19B)	-0.399	-1.304	0.211	15.259	49.683	-79.285	-79.28	-9.13	-77.51	-95.550	-8.624	49.392	-0.58240	0.53714	-0.35507	0.49609	30.9	13111	100
2025-3-27 17:58:46.244	WT901BLE68-01(48591DE3C19B)	-0.399	-1.330	0.211	16.174	45.471	-67.322	-79.03	-9.60	-78.12	-95.550	-8.624	49.392	-0.58240	0.53714	-0.35507	0.49609	30.9	13111	100
2025-3-27 17:58:46.245	WT901BLE68-01(48591DE3C19B)	-0.420	-1.330	0.211	16.174	45.471	-67.322	-78.78	-10.01	-78.71	-95.550	-8.624	49.392	-0.58240	0.53714	-0.35507	0.49609	30.9	13111	100
2025-3-27 17:58:46.245	WT901BLE68-01(48591DE3C19B)	-0.420	-1.304	0.217	17.944	42.236	-57.251	-78.52	-10.38	-79.26	-95.550	-8.624	49.392	-0.58240	0.53714	-0.35507	0.49609	30.9	13111	100
2025-3-27 17:58:46.245	WT901BLE68-01(48591DE3C19B)	-0.424	-1.304	0.217	17.944	42.236	-57.251	-78.26	-10.68	-79.79	-95.550	-8.624	49.392	-0.58240	0.53714	-0.35507	0.49609	30.9	13111	100
2025-3-27 17:58:46.245	WT901BLE68-01(48591DE3C19B)	-0.424	-1.227	0.224	18.860	38.696	-48.279	-78.00	-10.95	-80.30	-95.550	-8.624	49.392	-0.58240	0.53714	-0.35507	0.49609	30.9	13111	100
2025-3-27 17:58:46.247	WT901BLE68-01(48591DE3C19B)	-0.404	-1.227	0.224	18.860	38.696	-48.279	-77.73	-11.17	-80.79	-95.550	-8.624	49.392	-0.58240	0.53714	-0.35507	0.49609	30.9	13111	100
2025-3-27 17:58:46.247	WT901BLE68-01(48591DE3C19B)	-0.404	-1.065	0.239	19.470	36.438	-38.696	-77.47	-11.35	-81.25	-95.550	-8.624	49.392	-0.58240	0.53714	-0.35507	0.49609	30.9	13111	100
2025-3-27 17:58:46.247	WT901BLE68-01(48591DE3C19B)	-0.389	-1.065	0.239	19.470	36.438	-38.696	-77.21	-11.47	-81.69	-95.550	-8.624	49.392	-0.58240	0.53714	-0.35507	0.49609	30.9	13111	100
2025-3-27 17:58:46.247	WT901BLE68-01(48591DE3C19B)	-0.389	-0.882	0.254	16.785	34.546	-24.414	-76.96	-11.52	-82.11	-95.550	-8.624	49.392	-0.58240	0.53714	-0.35507	0.49609	30.9	13111	100
2025-3-27 17:58:46.248	WT901BLE68-01(48591DE3C19B)	-0.394	-0.882	0.254	16.785	34.546	-24.414	-76.73	-11.50	-82.51	-95.550	-8.624	49.392	-0.58240	0.53714	-0.35507	0.49609	30.9	13111	100
2025-3-27 17:58:46.248	WT901BLE68-01(48591DE3C19B)	-0.394	-0.734	0.275	11.841	26.978	-9.216	-76.53	-11.41	-82.85	-95.550	-8.624	49.392	-0.58240	0.53714	-0.35507	0.49609	30.9	13111	100
2025-3-27 17:58:46.248	WT901BLE68-01(48591DE3C19B)	-0.412	-0.734	0.275	11.841	26.978	-9.216	-76.37	-11.26	-83.13	-95.550	-8.624	49.392	-0.58240	0.53714	-0.35507	0.49609	30.9	13111	100
2025-3-27 17:58:46.248	WT901BLE68-01(48591DE3C19B)	-0.412	-0.665	0.302	6.042	13.733	6.958	-76.25	-11.04	-83.33	-95.550	-8.624	49.392	-0.58240	0.53714	-0.35507	0.49609	30.9	13111	100
2025-3-27 17:58:46.249	WT901BLE68-01(48591DE3C19B)	-0.425	-0.665	0.302	6.042	13.733	6.958	-76.17	-10.75	-83.45	-95.550	-8.624	49.392	-0.58240	0.53714	-0.35507	0.49609	30.9	13111	100
2025-3-27 17:58:46.249	WT901BLE68-01(48591DE3C19B)	-0.425	-0.658	0.313	2.319	-4.028	23.682	-76.12	-10.40	-83.46	-95.550	-8.624	49.392	-0.58240	0.53714	-0.35507	0.49609	30.9	13111	100
2025-3-27 17:58:46.249	WT901BLE68-01(48591DE3C19B)	-0.428	-0.658	0.313	2.319	-4.028	23.682	-76.11	-9.99	-83.36	-95.550	-8.624	49.392	-0.58240	0.53714	-0.35507	0.49609	30.9	13111	100
2025-3-27 17:58:46.249	WT901BLE68-01(48591DE3C19B)	-0.428	-0.666	0.282	1.221	-24.231	39.246	-76.12	-9.53	-83.15	-95.550	-8.624	49.392	-0.58240	0.53714	-0.35507	0.49609	30.9	13111	100
2025-3-27 17:58:46.250	WT901BLE68-01(48591DE3C19B)	-0.421	-0.666	0.282	1.221	-24.231	39.246	-76.15	-9.01	-82.81	-95.550	-8.624	49.392	-0.58240	0.53714	-0.35507	0.49609	30.9	13111	100
2025-3-27 17:58:46.250	WT901BLE68-01(48591DE3C19B)	-0.421	-0.713	0.239	-1.404	-46.753	54.810	-76.21	-8.44	-82.36	-95.550	-8.624	49.392	-0.58240	0.53714	-0.35507	0.49609	30.9	13111	100
2025-3-27 17:58:46.250	WT901BLE68-01(48591DE3C19B)	-0.395	-0.713	0.239	-1.404	-46.753	54.810	-76.29	-7.83	-81.77	-95.550	-8.624	49.392	-0.58240	0.53714	-0.35507	0.49609	30.9	13111	100
2025-3-27 17:58:46.250	WT901BLE68-01(48591DE3C19B)	-0.395	-0.802	0.210	-2.625	-66.650	68.176	-76.38	-7.17	-81.07	-95.550	-8.624	49.392	-0.58240	0.53714	-0.35507	0.49609	30.9	13111	100
2025-3-27 17:58:46.333	WT901BLE68-01(48591DE3C19B)	-0.385	-0.802	0.210	-2.625	-66.650	68.176	-76.49	-6.48	-80.26	-95.550	-8.624	49.392	-0.58240	0.53714	-0.35507	0.49609	30.9	13111	100
2025-3-27 17:58:46.334	WT901BLE68-01(48591DE3C19B)	-0.385	-0.890	0.222	-2.563	-85.876	80.566	-76.60	-5.75	-79.34	-101.920	-35.476	39.004	-0.58240	0.53714	-0.35507	0.49609	30.9	13111	100
2025-3-27 17:58:46.334	WT901BLE68-01(48591DE3C19B)	-0.372	-0.890	0.222	-2.563	-85.876	80.566	-76.71	-4.99	-78.31	-101.920	-35.476	39.004	-0.58240	0.53714	-0.35507	0.49609	30.9	13111	100
2025-3-27 17:58:46.334	WT901BLE68-01(48591DE3C19B)	-0.372	-0.993	0.267	-0.916	-104.919	91.797	-76.80	-4.20	-77.18	-101.920	-35.476	39.004	-0.58240	0.53714	-0.35507	0.49609	30.9	13111	100
2025-3-27 17:58:46.335	WT901BLE68-01(48591DE3C19B)	-0.334	-0.993	0.267	-0.916	-104.919	91.797	-76.88	-3.38	-75.94	-101.920	-35.476	39.004	-0.58240	0.53714	-0.35507	0.49609	30.9	13111	100
2025-3-27 17:58:46.335	WT901BLE68-01(48591DE3C19B)	-0.334	-1.077	0.314	3.540	-118.958	101.929	-76.92	-2.53	-74.63	-101.920	-35.476	39.004	-0.58240	0.53714	-0.35507	0.49609	30.9	13111	100
2025-3-27 17:58:46.335	WT901BLE68-01(48591DE3C19B)	-0.287	-1.077	0.314	3.540	-118.958	101.929	-76.92	-1.66	-73.23	-101.920	-35.476	39.004	-0.58240	0.53714	-0.35507	0.49609	30.9	13111	100
2025-3-27 17:58:46.335	WT901BLE68-01(48591DE3C19B)	-0.287	-1.095	0.342	9.033	-122.498	111.816	-76.87	-0.76	-71.81	-101.920	-35.476	39.004	-0.58240	0.53714	-0.35507	0.49609	30.9	13111	100
2025-3-27 17:58:46.363	WT901BLE68-01(48591DE3C19B)	-0.242	-1.095	0.342	9.033	-122.498	111.816	-76.77	0.17	-70.36	-101.920	-35.476	39.004	-0.58240	0.53714	-0.35507	0.49609	30.9	13111	100
2025-3-27 17:58:46.364	WT901BLE68-01(48591DE3C19B)	-0.242	-1.054	0.348	13.794	-116.272	120.911	-76.63	1.15	-68.92	-101.920	-35.476	39.004	-0.58240	0.53714	-0.35507	0.49609	30.9	13111	100
2025-3-27 17:58:46.364	WT901BLE68-01(48591DE3C19B)	-0.196	-1.054	0.348	13.794	-116.272	120.911	-76.44	2.16	-67.50	-101.920	-35.476	39.004	-0.58240	0.53714	-0.35507	0.49609	30.9	13111	100
2025-3-27 17:58:46.364	WT901BLE68-01(48591DE3C19B)	-0.196	-1.001	0.338	16.174	-104.248	128.540	-76.21	3.20	-66.12	-101.920	-35.476	39.004	-0.58240	0.53714	-0.35507	0.49609	30.9	13111	100
2025-3-27 17:58:46.423	WT901BLE68-01(48591DE3C19B)	-0.175	-1.001	0.338	16.174	-104.248	128.540	-75.94	4.28	-64.79	-101.920	-35.476	39.004	-0.58240	0.53714	-0.35507	0.49609	30.9	13111	100
2025-3-27 17:58:46.423	WT901BLE68-01(48591DE3C19B)	-0.175	-0.992	0.327	17.090	-89.417	134.033	-75.66	5.39	-63.51	-101.920	-35.476	39.004	-0.58240	0.53714	-0.35507	0.49609	30.9	13111	100
2025-3-27 17:58:46.423	WT901BLE68-01(48591DE3C19B)	-0.177	-0.992	0.327	17.090	-89.417	134.033	-75.34	6.53	-62.29	-101.920	-35.476	39.004	-0.58240	0.53714	-0.35507	0.49609	30.9	13111	100
2025-3-27 17:58:46.423	WT901BLE68-01(48591DE3C19B)	-0.177	-1.023	0.331	19.775	-75.500	137.756	-75.01	7.68	-61.13	-101.920	-35.476	39.004	-0.58240	0.53714	-0.35507	0.49609	30.9	13111	100
2025-3-27 17:58:46.453	WT901BLE68-01(48591DE3C19B)	-0.177	-1.023	0.331	19.775	-75.500	137.756	-74.64	8.85	-60.01	-101.920	-35.476	39.004	-0.70996	0.49274	-0.35544	0.35599	30.9	13111	100
2025-3-27 17:58:46.453	WT901BLE68-01(48591DE3C19B)	-0.177	-1.022	0.334	23.621	-63.538	140.137	-74.24	10.03	-58.94	-101.920	-35.476	39.004	-0.70996	0.49274	-0.35544	0.35599	30.9	13111	100
2025-3-27 17:58:46.453	WT901BLE68-01(48591DE3C19B)	-0.176	-1.022	0.334	23.621	-63.538	140.137	-73.81	11.22	-57.94	-101.920	-35.476	39.004	-0.70996	0.49274	-0.35544	0.35599	30.9	13111	100
2025-3-27 17:58:46.453	WT901BLE68-01(48591DE3C19B)	-0.176	-1.001	0.323	27.405	-51.758	140.930	-73.35	12.41	-57.01	-101.920	-35.476	39.004	-0.70996	0.49274	-0.35544	0.35599	30.9	13111	100
2025-3-27 17:58:46.482	WT901BLE68-01(48591DE3C19B)	-0.186	-1.001	0.323	27.405	-51.758	140.930	-72.86	13.61	-56.12	-101.920	-35.476	39.004	-0.70996	0.49274	-0.35544	0.35599	30.9	13111	100
2025-3-27 17:58:46.482	WT901BLE68-01(48591DE3C19B)	-0.186	-0.976	0.293	29.358	-42.053	138.794	-72.36	14.79	-55.28	-101.920	-35.476	39.004	-0.70996	0.49274	-0.35544	0.35599	30.9	13111	100
2025-3-27 17:58:46.482	WT901BLE68-01(48591DE3C19B)	-0.208	-0.976	0.293	29.358	-42.053	138.794	-71.85	15.97	-54.47	-101.920	-35.476	39.004	-0.70996	0.49274	-0.35544	0.35599	30.9	13111	100
2025-3-27 17:58:46.482	WT901BLE68-01(48591DE3C19B)	-0.208	-0.973	0.296	29.480	-34.973	135.193	-71.32	17.12	-53.69	-101.920	-35.476	39.004	-0.70996	0.49274	-0.35544	0.35599	30.9	13111	100
2025-3-27 17:58:46.543	WT901BLE68-01(48591DE3C19B)	-0.213	-0.973	0.296	29.480	-34.973	135.193	-70.79	18.25	-52.94	-101.920	-35.476	39.004	-0.70996	0.49274	-0.35544	0.35599	30.9	13111	100
2025-3-27 17:58:46.543	WT901BLE68-01(48591DE3C19B)	-0.213	-1.040	0.294	29.480	-29.175	132.996	-70.27	19.37	-52.24	-101.920	-35.476	39.004	-0.70996	0.49274	-0.35544	0.35599	30.9	13111	100
2025-3-27 17:58:46.544	WT901BLE68-01(48591DE3C19B)	-0.180	-1.040	0.294	29.480	-29.175	132.996	-69.74	20.47	-51.53	-101.920	-35.476	39.004	-0.70996	0.49274	-0.35544	0.35599	30.9	13111	100
2025-3-27 17:58:46.544	WT901BLE68-01(48591DE3C19B)	-0.180	-1.010	0.276	33.630	-21.912	132.874	-69.17	21.58	-50.87	-101.920	-35.476	39.004	-0.70996	0.49274	-0.35544	0.35599	30.9	13111	100
2025-3-27 17:58:46.573	WT901BLE68-01(48591DE3C19B)	-0.139	-1.010	0.276	33.630	-21.912	132.874	-68.59	22.68	-50.20	-101.920	-35.476	39.004	-0.70996	0.49274	-0.35544	0.35599	30.9	13111	100
2025-3-27 17:58:46.573	WT901BLE68-01(48591DE3C19B)	-0.139	-0.923	0.245	33.752	-11.414	133.728	-68.03	23.81	-49.61	-101.920	-35.476	39.004	-0.70996	0.49274	-0.35544	0.35599	30.9	13111	100
2025-3-27 17:58:46.573	WT901BLE68-01(48591DE3C19B)	-0.119	-0.923	0.245	33.752	-11.414	133.728	-67.46	24.93	-49.01	-101.920	-35.476	39.004	-0.70996	0.49274	-0.35544	0.35599	30.9	13111	100
2025-3-27 17:58:46.573	WT901BLE68-01(48591DE3C19B)	-0.119	-0.904	0.221	29.480	2.563	132.751	-66.98	26.08	-48.54	-101.920	-35.476	39.004	-0.70996	0.49274	-0.35544	0.35599	30.9	13111	100
2025-3-27 17:58:46.603	WT901BLE68-01(48591DE3C19B)	-0.126	-0.904	0.221	29.480	2.563	132.751	-66.49	27.21	-48.07	-101.920	-35.476	39.004	-0.70996	0.49274	-0.35544	0.35599	30.9	13111	100
2025-3-27 17:58:46.603	WT901BLE68-01(48591DE3C19B)	-0.126	-0.973	0.212	24.353	16.724	130.066	-66.12	28.37	-47.73	-101.920	-35.476	39.004	-0.70996	0.49274	-0.35544	0.35599	30.9	13111	100
2025-3-27 17:58:46.603	WT901BLE68-01(48591DE3C19B)	-0.136	-0.973	0.212	24.353	16.724	130.066	-65.74	29.52	-47.38	-101.920	-35.476	39.004	-0.70996	0.49274	-0.35544	0.35599	30.9	13111	100
2025-3-27 17:58:46.603	WT901BLE68-01(48591DE3C19B)	-0.136	-1.087	0.212	19.043	28.809	123.596	-65.48	30.65	-47.19	-101.920	-35.476	39.004	-0.70996	0.49274	-0.35544	0.35599	30.9	13111	100
2025-3-27 17:58:46.663	WT901BLE68-01(48591DE3C19B)	-0.145	-1.087	0.212	19.043	28.809	123.596	-65.22	31.76	-46.98	-101.920	-35.476	39.004	-0.70996	0.49274	-0.35544	0.35599	30.9	13111	100
2025-3-27 17:58:46.664	WT901BLE68-01(48591DE3C19B)	-0.145	-1.327	0.227	11.292	37.659	109.497	-65.12	32.78	-46.93	-89.278	3.332	53.410	-0.70996	0.49274	-0.35544	0.35599	30.9	13111	100
2025-3-27 17:58:46.664	WT901BLE68-01(48591DE3C19B)	-0.213	-1.327	0.227	11.292	37.659	109.497	-65.02	33.79	-46.89	-89.278	3.332	53.410	-0.70996	0.49274	-0.35544	0.35599	30.9	13111	100
2025-3-27 17:58:46.664	WT901BLE68-01(48591DE3C19B)	-0.213	-1.611	0.259	13.428	38.757	90.576	-64.97	34.63	-46.95	-89.278	3.332	53.410	-0.70996	0.49274	-0.35544	0.35599	30.9	13111	100
2025-3-27 17:58:46.693	WT901BLE68-01(48591DE3C19B)	-0.282	-1.611	0.259	13.428	38.757	90.576	-64.92	35.46	-47.01	-89.278	3.332	53.410	-0.70996	0.49274	-0.35544	0.35599	30.9	13111	100
2025-3-27 17:58:46.693	WT901BLE68-01(48591DE3C19B)	-0.282	-1.501	0.293	32.227	35.034	77.454	-64.70	36.16	-47.09	-89.278	3.332	53.410	-0.70996	0.49274	-0.35544	0.35599	30.9	13111	100
2025-3-27 17:58:46.693	WT901BLE68-01(48591DE3C19B)	-0.242	-1.501	0.293	32.227	35.034	77.454	-64.47	36.85	-47.17	-89.278	3.332	53.410	-0.70996	0.49274	-0.35544	0.35599	30.9	13111	100
2025-3-27 17:58:46.694	WT901BLE68-01(48591DE3C19B)	-0.242	-1.147	0.292	35.645	34.729	66.956	-64.25	37.45	-47.30	-89.278	3.332	53.410	-0.70996	0.49274	-0.35544	0.35599	30.9	13111	100
2025-3-27 17:58:46.753	WT901BLE68-01(48591DE3C19B)	-0.167	-1.147	0.292	35.645	34.729	66.956	-64.02	38.04	-47.43	-89.278	3.332	53.410	-0.70996	0.49274	-0.35544	0.35599	30.9	13111	100
2025-3-27 17:58:46.753	WT901BLE68-01(48591DE3C19B)	-0.167	-1.011	0.241	32.776	44.128	61.401	-63.91	38.62	-47.69	-89.278	3.332	53.410	-0.70996	0.49274	-0.35544	0.35599	30.9	13111	100
2025-3-27 17:58:46.753	WT901BLE68-01(48591DE3C19B)	-0.129	-1.011	0.241	32.776	44.128	61.401	-63.80	39.20	-47.95	-89.278	3.332	53.410	-0.70996	0.49274	-0.35544	0.35599	30.9	13111	100
2025-3-27 17:58:46.754	WT901BLE68-01(48591DE3C19B)	-0.129	-1.048	0.179	30.884	55.542	54.932	-63.82	39.76	-48.38	-89.278	3.332	53.410	-0.70996	0.49274	-0.35544	0.35599	30.9	13111	100
2025-3-27 17:58:46.813	WT901BLE68-01(48591DE3C19B)	-0.093	-1.048	0.179	30.884	55.542	54.932	-63.85	40.32	-48.81	-89.278	3.332	53.410	-0.70996	0.49274	-0.35544	0.35599	30.9	13111	100
2025-3-27 17:58:46.813	WT901BLE68-01(48591DE3C19B)	-0.093	-1.136	0.115	34.241	61.951	45.227	-63.93	40.82	-49.38	-89.278	3.332	53.410	-0.70996	0.49274	-0.35544	0.35599	30.9	13111	100
2025-3-27 17:58:46.813	WT901BLE68-01(48591DE3C19B)	-0.034	-1.136	0.115	34.241	61.951	45.227	-64.03	41.31	-49.95	-89.278	3.332	53.410	-0.70996	0.49274	-0.35544	0.35599	30.9	13111	100
2025-3-27 17:58:46.813	WT901BLE68-01(48591DE3C19B)	-0.034	-1.136	0.079	39.246	70.129	35.706	-64.19	41.74	-50.68	-89.278	3.332	53.410	-0.70996	0.49274	-0.35544	0.35599	30.9	13111	100
2025-3-27 17:58:46.814	WT901BLE68-01(48591DE3C19B)	-0.034	-1.136	0.079	39.246	70.129	35.706	-64.36	42.17	-51.42	-89.278	3.332	53.410	-0.70996	0.49274	-0.35544	0.35599	30.9	13111	100
2025-3-27 17:58:46.814	WT901BLE68-01(48591DE3C19B)	-0.034	-1.054	0.069	41.687	85.938	22.949	-64.70	42.54	-52.43	-89.278	3.332	53.410	-0.70996	0.49274	-0.35544	0.35599	30.9	13111	100
2025-3-27 17:58:46.815	WT901BLE68-01(48591DE3C19B)	-0.097	-1.054	0.069	41.687	85.938	22.949	-65.06	42.91	-53.44	-89.278	3.332	53.410	-0.78754	0.30676	-0.50330	0.17960	30.9	13111	100
2025-3-27 17:58:46.815	WT901BLE68-01(48591DE3C19B)	-0.097	-0.959	0.062	39.246	98.083	7.813	-65.60	43.18	-54.70	-89.278	3.332	53.410	-0.78754	0.30676	-0.50330	0.17960	30.9	13111	100
2025-3-27 17:58:46.872	WT901BLE68-01(48591DE3C19B)	-0.173	-0.959	0.062	39.246	98.083	7.813	-66.15	43.43	-55.96	-89.278	3.332	53.410	-0.78754	0.30676	-0.50330	0.17960	30.9	13111	100
2025-3-27 17:58:46.873	WT901BLE68-01(48591DE3C19B)	-0.173	-0.890	0.067	33.936	102.234	-6.042	-66.86	43.57	-57.36	-89.278	3.332	53.410	-0.78754	0.30676	-0.50330	0.17960	30.9	13111	100
2025-3-27 17:58:46.873	WT901BLE68-01(48591DE3C19B)	-0.224	-0.890	0.067	33.936	102.234	-6.042	-67.56	43.70	-58.75	-89.278	3.332	53.410	-0.78754	0.30676	-0.50330	0.17960	30.9	13111	100
2025-3-27 17:58:46.873	WT901BLE68-01(48591DE3C19B)	-0.224	-0.850	0.098	29.602	97.107	-21.729	-68.32	43.65	-60.16	-89.278	3.332	53.410	-0.78754	0.30676	-0.50330	0.17960	30.9	13111	100
2025-3-27 17:58:46.902	WT901BLE68-01(48591DE3C19B)	-0.250	-0.850	0.098	29.602	97.107	-21.729	-69.07	43.59	-61.56	-89.278	3.332	53.410	-0.78754	0.30676	-0.50330	0.17960	30.9	13111	100
2025-3-27 17:58:46.902	WT901BLE68-01(48591DE3C19B)	-0.250	-0.815	0.136	26.123	86.487	-38.330	-69.80	43.33	-62.89	-89.278	3.332	53.410	-0.78754	0.30676	-0.50330	0.17960	30.9	13111	100
2025-3-27 17:58:46.902	WT901BLE68-01(48591DE3C19B)	-0.261	-0.815	0.136	26.123	86.487	-38.330	-70.51	43.07	-64.20	-89.278	3.332	53.410	-0.78754	0.30676	-0.50330	0.17960	30.9	13111	100
2025-3-27 17:58:46.902	WT901BLE68-01(48591DE3C19B)	-0.261	-0.759	0.157	23.499	74.463	-54.749	-71.17	42.60	-65.42	-89.278	3.332	53.410	-0.78754	0.30676	-0.50330	0.17960	30.9	13111	100
2025-3-27 17:58:46.932	WT901BLE68-01(48591DE3C19B)	-0.275	-0.759	0.157	23.499	74.463	-54.749	-71.81	42.13	-66.61	-89.278	3.332	53.410	-0.78754	0.30676	-0.50330	0.17960	30.9	13111	100
2025-3-27 17:58:46.932	WT901BLE68-01(48591DE3C19B)	-0.275	-0.708	0.148	19.897	61.462	-70.313	-72.38	41.47	-67.68	-89.278	3.332	53.410	-0.78754	0.30676	-0.50330	0.17960	30.9	13111	100
2025-3-27 17:58:46.932	WT901BLE68-01(48591DE3C19B)	-0.272	-0.708	0.148	19.897	61.462	-70.313	-72.93	40.81	-68.71	-89.278	3.332	53.410	-0.78754	0.30676	-0.50330	0.17960	30.9	13111	100
2025-3-27 17:58:46.932	WT901BLE68-01(48591DE3C19B)	-0.272	-0.689	0.119	16.846	48.828	-85.266	-73.42	39.97	-69.63	-89.278	3.332	53.410	-0.78754	0.30676	-0.50330	0.17960	30.9	13111	100
2025-3-27 17:58:46.995	WT901BLE68-01(48591DE3C19B)	-0.265	-0.689	0.119	16.846	48.828	-85.266	-73.88	39.13	-70.52	-89.278	3.332	53.410	-0.78754	0.30676	-0.50330	0.17960	30.9	13111	100
2025-3-27 17:58:46.995	WT901BLE68-01(48591DE3C19B)	-0.245	-0.713	0.083	14.771	38.269	-100.159	-74.28	38.13	-71.31	-89.278	3.332	53.410	-0.78754	0.30676	-0.50330	0.17960	30.9	13111	100
2025-3-27 17:58:46.995	WT901BLE68-01(48591DE3C19B)	-0.245	-0.761	0.053	15.320	32.532	-116.333	-74.66	37.05	-72.08	-89.278	3.332	53.410	-0.78754	0.30676	-0.50330	0.17960	30.9	13111	100
2025-3-27 17:58:46.996	WT901BLE68-01(48591DE3C19B)	-0.239	-0.761	0.053	15.320	32.532	-116.333	-75.00	35.88	-72.81	-89.278	3.332	53.410	-0.78754	0.30676	-0.50330	0.17960	30.9	13111	100
2025-3-27 17:58:47.25	WT901BLE68-01(48591DE3C19B)	-0.239	-0.822	0.031	17.090	32.532	-133.118	-75.32	34.63	-73.54	-89.278	3.332	53.410	-0.78754	0.30676	-0.50330	0.17960	30.9	13111	100
2025-3-27 17:58:47.25	WT901BLE68-01(48591DE3C19B)	-0.257	-0.822	0.031	17.090	32.532	-133.118	-75.63	33.32	-74.28	-89.278	3.332	53.410	-0.78754	0.30676	-0.50330	0.17960	30.9	13111	100
2025-3-27 17:58:47.25	WT901BLE68-01(48591DE3C19B)	-0.257	-0.904	0.017	19.958	36.133	-150.024	-75.92	31.93	-75.05	-89.278	3.332	53.410	-0.78754	0.30676	-0.50330	0.17960	30.9	13111	100
2025-3-27 17:58:47.25	WT901BLE68-01(48591DE3C19B)	-0.283	-0.904	0.017	19.958	36.133	-150.024	-76.20	30.46	-75.83	-91.728	8.722	36.358	-0.78754	0.30676	-0.50330	0.17960	30.9	13111	100
2025-3-27 17:58:47.83	WT901BLE68-01(48591DE3C19B)	-0.283	-0.987	0.010	22.949	41.199	-167.175	-76.45	28.93	-76.65	-91.728	8.722	36.358	-0.78754	0.30676	-0.50330	0.17960	30.9	13111	100
2025-3-27 17:58:47.83	WT901BLE68-01(48591DE3C19B)	-0.325	-0.987	0.010	22.949	41.199	-167.175	-76.69	27.32	-77.49	-91.728	8.722	36.358	-0.78754	0.30676	-0.50330	0.17960	30.9	13111	100
2025-3-27 17:58:47.84	WT901BLE68-01(48591DE3C19B)	-0.325	-1.079	0.009	24.597	44.006	-182.861	-76.91	25.64	-78.35	-91.728	8.722	36.358	-0.78754	0.30676	-0.50330	0.17960	30.9	13111	100
2025-3-27 17:58:47.84	WT901BLE68-01(48591DE3C19B)	-0.373	-1.079	0.009	24.597	44.006	-182.861	-77.10	23.91	-79.22	-91.728	8.722	36.358	-0.78754	0.30676	-0.50330	0.17960	30.9	13111	100
2025-3-27 17:58:47.113	WT901BLE68-01(48591DE3C19B)	-0.373	-1.179	0.024	25.452	42.358	-197.327	-77.26	22.10	-80.08	-91.728	8.722	36.358	-0.78754	0.30676	-0.50330	0.17960	30.9	13111	100
2025-3-27 17:58:47.114	WT901BLE68-01(48591DE3C19B)	-0.408	-1.179	0.024	25.452	42.358	-197.327	-77.39	20.24	-80.93	-91.728	8.722	36.358	-0.78754	0.30676	-0.50330	0.17960	30.9	13111	100
2025-3-27 17:58:47.114	WT901BLE68-01(48591DE3C19B)	-0.408	-1.247	0.046	25.452	37.170	-207.031	-77.48	18.34	-81.74	-91.728	8.722	36.358	-0.78754	0.30676	-0.50330	0.17960	30.9	13111	100
2025-3-27 17:58:47.114	WT901BLE68-01(48591DE3C19B)	-0.445	-1.247	0.046	25.452	37.170	-207.031	-77.54	16.39	-82.52	-91.728	8.722	36.358	-0.78754	0.30676	-0.50330	0.17960	30.9	13111	100
2025-3-27 17:58:47.143	WT901BLE68-01(48591DE3C19B)	-0.445	-1.330	0.074	21.179	29.175	-211.609	-77.57	14.42	-83.26	-91.728	8.722	36.358	-0.78754	0.30676	-0.50330	0.17960	30.9	13111	100
2025-3-27 17:58:47.143	WT901BLE68-01(48591DE3C19B)	-0.473	-1.330	0.074	21.179	29.175	-211.609	-77.60	12.44	-83.95	-91.728	8.722	36.358	-0.78754	0.30676	-0.50330	0.17960	30.9	13111	100
2025-3-27 17:58:47.143	WT901BLE68-01(48591DE3C19B)	-0.473	-1.469	0.106	16.907	16.602	-213.623	-77.61	10.44	-84.57	-91.728	8.722	36.358	-0.78754	0.30676	-0.50330	0.17960	30.9	13111	100
2025-3-27 17:58:47.144	WT901BLE68-01(48591DE3C19B)	-0.484	-1.469	0.106	16.907	16.602	-213.623	-77.60	8.43	-85.13	-91.728	8.722	36.358	-0.78754	0.30676	-0.50330	0.17960	30.9	13111	100
2025-3-27 17:58:47.205	WT901BLE68-01(48591DE3C19B)	-0.484	-1.611	0.138	13.306	4.517	-213.440	-77.58	6.42	-85.62	-91.728	8.722	36.358	-0.78754	0.30676	-0.50330	0.17960	30.9	13111	100
2025-3-27 17:58:47.206	WT901BLE68-01(48591DE3C19B)	-0.521	-1.611	0.138	13.306	4.517	-213.440	-77.56	4.42	-86.04	-91.728	8.722	36.358	-0.78754	0.30676	-0.50330	0.17960	30.9	13111	100
2025-3-27 17:58:47.206	WT901BLE68-01(48591DE3C19B)	-0.521	-1.664	0.171	14.709	-7.690	-208.252	-77.50	2.43	-86.40	-91.728	8.722	36.358	-0.78754	0.30676	-0.50330	0.17960	30.9	13111	100
2025-3-27 17:58:47.206	WT901BLE68-01(48591DE3C19B)	-0.549	-1.664	0.171	14.709	-7.690	-208.252	-77.43	0.47	-86.69	-91.728	8.722	36.358	-0.78754	0.30676	-0.50330	0.17960	30.9	13111	100
2025-3-27 17:58:47.236	WT901BLE68-01(48591DE3C19B)	-0.549	-1.575	0.192	13.000	-19.165	-198.975	-77.35	-1.43	-86.92	-91.728	8.722	36.358	-0.78754	0.30676	-0.50330	0.17960	30.9	13111	100
2025-3-27 17:58:47.236	WT901BLE68-01(48591DE3C19B)	-0.551	-1.575	0.192	13.000	-19.165	-198.975	-77.27	-3.30	-87.08	-91.728	8.722	36.358	-0.78754	0.30676	-0.50330	0.17960	30.9	13111	100
2025-3-27 17:58:47.236	WT901BLE68-01(48591DE3C19B)	-0.551	-1.513	0.195	5.798	-22.644	-184.753	-77.22	-5.09	-87.21	-91.728	8.722	36.358	-0.78754	0.30676	-0.50330	0.17960	30.9	13111	100
2025-3-27 17:58:47.236	WT901BLE68-01(48591DE3C19B)	-0.556	-1.513	0.195	5.798	-22.644	-184.753	-77.21	-6.81	-87.31	-91.728	8.722	36.358	-0.78754	0.30676	-0.50330	0.17960	30.9	13111	100
2025-3-27 17:58:47.265	WT901BLE68-01(48591DE3C19B)	-0.556	-1.493	0.213	-2.502	-22.095	-165.283	-77.23	-8.42	-87.39	-91.728	8.722	36.358	-0.52832	0.49298	-0.38492	0.57410	30.9	13111	100
2025-3-27 17:58:47.265	WT901BLE68-01(48591DE3C19B)	-0.552	-1.493	0.213	-2.502	-22.095	-165.283	-77.30	-9.92	-87.45	-91.728	8.722	36.358	-0.52832	0.49298	-0.38492	0.57410	30.9	13111	100
2025-3-27 17:58:47.265	WT901BLE68-01(48591DE3C19B)	-0.552	-1.436	0.279	-5.432	-26.917	-142.090	-77.38	-11.30	-87.45	-91.728	8.722	36.358	-0.52832	0.49298	-0.38492	0.57410	30.9	13111	100
2025-3-27 17:58:47.265	WT901BLE68-01(48591DE3C19B)	-0.528	-1.436	0.279	-5.432	-26.917	-142.090	-77.49	-12.57	-87.40	-91.728	8.722	36.358	-0.52832	0.49298	-0.38492	0.57410	30.9	13111	100
2025-3-27 17:58:47.295	WT901BLE68-01(48591DE3C19B)	-0.528	-1.212	0.377	-4.150	-36.194	-115.540	-77.60	-13.71	-87.28	-91.728	8.722	36.358	-0.52832	0.49298	-0.38492	0.57410	30.9	13111	100
2025-3-27 17:58:47.295	WT901BLE68-01(48591DE3C19B)	-0.493	-1.212	0.377	-4.150	-36.194	-115.540	-77.72	-14.72	-87.07	-91.728	8.722	36.358	-0.52832	0.49298	-0.38492	0.57410	30.9	13111	100
2025-3-27 17:58:47.295	WT901BLE68-01(48591DE3C19B)	-0.493	-0.957	0.419	-5.981	-45.898	-87.585	-77.87	-15.59	-86.78	-91.728	8.722	36.358	-0.52832	0.49298	-0.38492	0.57410	30.9	13111	100
2025-3-27 17:58:47.295	WT901BLE68-01(48591DE3C19B)	-0.464	-0.957	0.419	-5.981	-45.898	-87.585	-78.05	-16.33	-86.41	-91.728	8.722	36.358	-0.52832	0.49298	-0.38492	0.57410	30.9	13111	100
2025-3-27 17:58:47.353	WT901BLE68-01(48591DE3C19B)	-0.464	-0.784	0.412	-6.409	-52.429	-60.181	-78.24	-16.94	-85.98	-91.728	8.722	36.358	-0.52832	0.49298	-0.38492	0.57410	30.9	13111	100
2025-3-27 17:58:47.354	WT901BLE68-01(48591DE3C19B)	-0.476	-0.784	0.412	-6.409	-52.429	-60.181	-78.45	-17.41	-85.48	-91.728	8.722	36.358	-0.52832	0.49298	-0.38492	0.57410	30.9	13111	100
2025-3-27 17:58:47.354	WT901BLE68-01(48591DE3C19B)	-0.476	-0.662	0.374	-3.296	-58.533	-34.363	-78.66	-17.75	-84.92	-91.728	8.722	36.358	-0.52832	0.49298	-0.38492	0.57410	30.9	13111	100
2025-3-27 17:58:47.354	WT901BLE68-01(48591DE3C19B)	-0.491	-0.662	0.374	-3.296	-58.533	-34.363	-78.87	-17.96	-84.31	-91.728	8.722	36.358	-0.52832	0.49298	-0.38492	0.57410	30.9	13111	100
2025-3-27 17:58:47.413	WT901BLE68-01(48591DE3C19B)	-0.491	-0.642	0.313	-4.089	-70.496	-12.085	-79.10	-18.07	-83.61	-91.728	8.722	36.358	-0.52832	0.49298	-0.38492	0.57410	30.9	13111	100
2025-3-27 17:58:47.413	WT901BLE68-01(48591DE3C19B)	-0.467	-0.642	0.313	-4.089	-70.496	-12.085	-79.37	-18.07	-82.83	-91.728	8.722	36.358	-0.52832	0.49298	-0.38492	0.57410	30.9	13111	100
2025-3-27 17:58:47.413	WT901BLE68-01(48591DE3C19B)	-0.467	-0.737	0.250	-3.540	-83.862	7.019	-79.64	-17.98	-81.97	-91.728	8.722	36.358	-0.52832	0.49298	-0.38492	0.57410	30.9	13111	100
2025-3-27 17:58:47.413	WT901BLE68-01(48591DE3C19B)	-0.434	-0.737	0.250	-3.540	-83.862	7.019	-79.94	-17.80	-81.01	-91.728	8.722	36.358	-0.52832	0.49298	-0.38492	0.57410	30.9	13111	100
2025-3-27 17:58:47.414	WT901BLE68-01(48591DE3C19B)	-0.434	-0.831	0.200	1.770	-94.971	23.621	-80.23	-17.55	-79.99	-91.728	8.722	36.358	-0.52832	0.49298	-0.38492	0.57410	30.9	13111	100
2025-3-27 17:58:47.414	WT901BLE68-01(48591DE3C19B)	-0.403	-0.831	0.200	1.770	-94.971	23.621	-80.51	-17.22	-78.90	-91.728	8.722	36.358	-0.52832	0.49298	-0.38492	0.57410	30.9	13111	100
2025-3-27 17:58:47.414	WT901BLE68-01(48591DE3C19B)	-0.403	-0.908	0.173	7.263	-106.079	37.231	-80.77	-16.83	-77.74	-91.728	8.722	36.358	-0.52832	0.49298	-0.38492	0.57410	30.9	13111	100
2025-3-27 17:58:47.414	WT901BLE68-01(48591DE3C19B)	-0.367	-0.908	0.173	7.263	-106.079	37.231	-81.02	-16.38	-76.52	-91.728	8.722	36.358	-0.52832	0.49298	-0.38492	0.57410	30.9	13111	100
2025-3-27 17:58:47.503	WT901BLE68-01(48591DE3C19B)	-0.367	-0.969	0.191	15.686	-115.295	46.875	-81.21	-15.85	-75.18	-91.728	8.722	36.358	-0.52832	0.49298	-0.38492	0.57410	30.9	13111	100
2025-3-27 17:58:47.503	WT901BLE68-01(48591DE3C19B)	-0.326	-0.969	0.191	15.686	-115.295	46.875	-81.38	-15.31	-73.86	-105.644	-35.476	41.258	-0.52832	0.49298	-0.38492	0.57410	30.9	13111	100
2025-3-27 17:58:47.503	WT901BLE68-01(48591DE3C19B)	-0.326	-0.987	0.240	26.001	-120.728	54.626	-81.45	-14.73	-72.47	-105.644	-35.476	41.258	-0.52832	0.49298	-0.38492	0.57410	30.9	13111	100
2025-3-27 17:58:47.503	WT901BLE68-01(48591DE3C19B)	-0.267	-0.987	0.240	26.001	-120.728	54.626	-81.51	-14.14	-71.08	-105.644	-35.476	41.258	-0.52832	0.49298	-0.38492	0.57410	30.9	13111	100
2025-3-27 17:58:47.504	WT901BLE68-01(48591DE3C19B)	-0.267	-0.976	0.300	34.607	-114.807	63.416	-81.46	-13.46	-69.74	-105.644	-35.476	41.258	-0.52832	0.49298	-0.38492	0.57410	30.9	13111	100
2025-3-27 17:58:47.504	WT901BLE68-01(48591DE3C19B)	-0.199	-0.976	0.300	34.607	-114.807	63.416	-81.39	-12.80	-68.40	-105.644	-35.476	41.258	-0.52832	0.49298	-0.38492	0.57410	30.9	13111	100
2025-3-27 17:58:47.504	WT901BLE68-01(48591DE3C19B)	-0.199	-0.941	0.328	41.931	-91.187	75.989	-81.18	-11.99	-67.29	-105.644	-35.476	41.258	-0.52832	0.49298	-0.38492	0.57410	30.9	13111	100
2025-3-27 17:58:47.504	WT901BLE68-01(48591DE3C19B)	-0.156	-0.941	0.328	41.931	-91.187	75.989	-80.95	-11.18	-66.17	-105.644	-35.476	41.258	-0.52832	0.49298	-0.38492	0.57410	30.9	13111	100
2025-3-27 17:58:47.533	WT901BLE68-01(48591DE3C19B)	-0.156	-0.892	0.349	44.922	-57.617	90.820	-80.62	-10.20	-65.37	-105.644	-35.476	41.258	-0.52832	0.49298	-0.38492	0.57410	30.9	13111	100
2025-3-27 17:58:47.534	WT901BLE68-01(48591DE3C19B)	-0.166	-0.892	0.349	44.922	-57.617	90.820	-80.27	-9.23	-64.57	-105.644	-35.476	41.258	-0.52832	0.49298	-0.38492	0.57410	30.9	13111	100
2025-3-27 17:58:47.534	WT901BLE68-01(48591DE3C19B)	-0.166	-0.915	0.382	44.495	-25.146	106.689	-79.87	-8.06	-64.06	-105.644	-35.476	41.258	-0.52832	0.49298	-0.38492	0.57410	30.9	13111	100
2025-3-27 17:58:47.534	WT901BLE68-01(48591DE3C19B)	-0.208	-0.915	0.382	44.495	-25.146	106.689	-79.45	-6.92	-63.54	-105.644	-35.476	41.258	-0.52832	0.49298	-0.38492	0.57410	30.9	13111	100
2025-3-27 17:58:47.595	WT901BLE68-01(48591DE3C19B)	-0.208	-0.996	0.415	43.152	-4.761	123.230	-79.02	-5.58	-63.18	-105.644	-35.476	41.258	-0.52832	0.49298	-0.38492	0.57410	30.9	13111	100
2025-3-27 17:58:47.595	WT901BLE68-01(48591DE3C19B)	-0.238	-0.996	0.415	43.152	-4.761	123.230	-78.59	-4.25	-62.82	-105.644	-35.476	41.258	-0.52832	0.49298	-0.38492	0.57410	30.9	13111	100
2025-3-27 17:58:47.596	WT901BLE68-01(48591DE3C19B)	-0.238	-1.060	0.389	39.734	1.587	139.465	-78.18	-2.77	-62.47	-105.644	-35.476	41.258	-0.52832	0.49298	-0.38492	0.57410	30.9	13111	100
2025-3-27 17:58:47.596	WT901BLE68-01(48591DE3C19B)	-0.254	-1.060	0.389	39.734	1.587	139.465	-77.76	-1.30	-62.12	-105.644	-35.476	41.258	-0.52832	0.49298	-0.38492	0.57410	30.9	13111	100
2025-3-27 17:58:47.625	WT901BLE68-01(48591DE3C19B)	-0.254	-1.073	0.334	35.583	0.183	150.208	-77.38	0.26	-61.72	-105.644	-35.476	41.258	-0.52832	0.49298	-0.38492	0.57410	30.9	13111	100
2025-3-27 17:58:47.626	WT901BLE68-01(48591DE3C19B)	-0.269	-1.073	0.334	35.583	0.183	150.208	-77.00	1.80	-61.30	-105.644	-35.476	41.258	-0.52832	0.49298	-0.38492	0.57410	30.9	13111	100
2025-3-27 17:58:47.626	WT901BLE68-01(48591DE3C19B)	-0.269	-1.061	0.315	33.813	-9.888	155.151	-76.61	3.36	-60.77	-105.644	-35.476	41.258	-0.52832	0.49298	-0.38492	0.57410	30.9	13111	100
2025-3-27 17:58:47.626	WT901BLE68-01(48591DE3C19B)	-0.312	-1.061	0.315	33.813	-9.888	155.151	-76.22	4.91	-60.22	-105.644	-35.476	41.258	-0.69324	0.51648	-0.33850	0.37146	30.9	13111	100
2025-3-27 17:58:47.743	WT901BLE68-01(48591DE3C19B)	-0.312	-0.994	0.332	34.119	-31.433	156.494	-75.79	6.41	-59.45	-105.644	-35.476	41.258	-0.69324	0.51648	-0.33850	0.37146	30.9	13111	100
2025-3-27 17:58:47.744	WT901BLE68-01(48591DE3C19B)	-0.326	-0.994	0.332	34.119	-31.433	156.494	-75.35	7.89	-58.66	-105.644	-35.476	41.258	-0.69324	0.51648	-0.33850	0.37146	30.9	13111	100
2025-3-27 17:58:47.744	WT901BLE68-01(48591DE3C19B)	-0.326	-0.928	0.320	32.471	-56.091	150.513	-74.87	9.23	-57.63	-105.644	-35.476	41.258	-0.69324	0.51648	-0.33850	0.37146	30.9	13111	100
2025-3-27 17:58:47.744	WT901BLE68-01(48591DE3C19B)	-0.301	-0.928	0.320	32.471	-56.091	150.513	-74.37	10.57	-56.59	-105.644	-35.476	41.258	-0.69324	0.51648	-0.33850	0.37146	30.9	13111	100
2025-3-27 17:58:47.745	WT901BLE68-01(48591DE3C19B)	-0.301	-0.888	0.309	32.104	-72.876	141.357	-73.82	11.76	-55.39	-105.644	-35.476	41.258	-0.69324	0.51648	-0.33850	0.37146	30.9	13111	100
2025-3-27 17:58:47.745	WT901BLE68-01(48591DE3C19B)	-0.292	-0.888	0.309	32.104	-72.876	141.357	-73.25	12.93	-54.18	-105.644	-35.476	41.258	-0.69324	0.51648	-0.33850	0.37146	30.9	13111	100
2025-3-27 17:58:47.745	WT901BLE68-01(48591DE3C19B)	-0.292	-0.934	0.330	31.677	-79.895	133.911	-72.65	13.99	-52.90	-105.644	-35.476	41.258	-0.69324	0.51648	-0.33850	0.37146	30.9	13111	100
2025-3-27 17:58:47.745	WT901BLE68-01(48591DE3C19B)	-0.256	-0.934	0.330	31.677	-79.895	133.911	-72.03	15.02	-51.61	-105.644	-35.476	41.258	-0.69324	0.51648	-0.33850	0.37146	30.9	13111	100
2025-3-27 17:58:47.775	WT901BLE68-01(48591DE3C19B)	-0.256	-1.076	0.296	34.119	-84.473	127.014	-71.35	15.96	-50.27	-105.644	-35.476	41.258	-0.69324	0.51648	-0.33850	0.37146	30.9	13111	100
2025-3-27 17:58:47.775	WT901BLE68-01(48591DE3C19B)	-0.138	-1.076	0.296	34.119	-84.473	127.014	-70.66	16.89	-49.00	-105.644	-35.476	41.258	-0.69324	0.51648	-0.33850	0.37146	30.9	13111	100
2025-3-27 17:58:47.775	WT901BLE68-01(48591DE3C19B)	-0.138	-1.150	0.243	39.978	-79.102	121.460	-69.92	17.74	-47.88	-105.644	-35.476	41.258	-0.69324	0.51648	-0.33850	0.37146	30.9	13111	100
