time	DeviceName	AccX(g)	AccY(g)	AccZ(g)	AsX(°/s)	AsY(°/s)	AsZ(°/s)	AngleX(°)	AngleY(°)	AngleZ(°)	HX(uT)	HY(uT)	HZ(uT)	Q0()	Q1()	Q2()	Q3()	Temperature(°C)	Version()	Battery level(%)
2025-3-27 17:54:58.543	WT901BLE68-01(48591DE3C19B)	-0.282	-0.904	0.288	-0.671	1.526	-10.986	-72.65	16.27	-115.95	-65.856	-55.566	-2.450	0.48883	-0.21906	0.54953	-0.64105	30.7	13111	100
2025-3-27 17:54:58.543	WT901BLE68-01(48591DE3C19B)	-0.282	-0.923	0.292	-0.427	0.977	-11.169	-72.67	16.16	-115.97	-65.856	-55.566	-2.450	0.48883	-0.21906	0.54953	-0.64105	30.7	13111	100
2025-3-27 17:54:58.544	WT901BLE68-01(48591DE3C19B)	-0.287	-0.923	0.292	-0.427	0.977	-11.169	-72.69	16.06	-115.98	-65.856	-55.566	-2.450	0.48883	-0.21906	0.54953	-0.64105	30.7	13111	100
2025-3-27 17:54:58.544	WT901BLE68-01(48591DE3C19B)	-0.287	-0.934	0.294	0.610	0.549	-10.498	-72.70	15.95	-115.99	-65.856	-55.566	-2.450	0.48883	-0.21906	0.54953	-0.64105	30.7	13111	100
2025-3-27 17:54:58.573	WT901BLE68-01(48591DE3C19B)	-0.288	-0.934	0.294	0.610	0.549	-10.498	-72.70	15.85	-116.00	-65.856	-55.566	-2.450	0.48883	-0.21906	0.54953	-0.64105	30.7	13111	100
2025-3-27 17:54:58.573	WT901BLE68-01(48591DE3C19B)	-0.288	-0.933	0.290	1.343	1.160	-9.094	-72.70	15.76	-116.02	-65.856	-55.566	-2.450	0.48883	-0.21906	0.54953	-0.64105	30.7	13111	100
2025-3-27 17:54:58.574	WT901BLE68-01(48591DE3C19B)	-0.291	-0.933	0.290	1.343	1.160	-9.094	-72.70	15.68	-116.03	-65.856	-55.566	-2.450	0.49100	-0.21805	0.55609	-0.63406	30.7	13111	100
2025-3-27 17:54:58.574	WT901BLE68-01(48591DE3C19B)	-0.291	-0.929	0.286	1.587	2.441	-7.568	-72.70	15.61	-116.04	-65.856	-55.566	-2.450	0.49100	-0.21805	0.55609	-0.63406	30.7	13111	100
2025-3-27 17:54:58.632	WT901BLE68-01(48591DE3C19B)	-0.295	-0.929	0.286	1.587	2.441	-7.568	-72.70	15.55	-116.07	-65.856	-55.566	-2.450	0.49100	-0.21805	0.55609	-0.63406	30.7	13111	100
2025-3-27 17:54:58.632	WT901BLE68-01(48591DE3C19B)	-0.295	-0.935	0.289	1.648	3.174	-5.798	-72.69	15.50	-116.09	-65.856	-55.566	-2.450	0.49100	-0.21805	0.55609	-0.63406	30.7	13111	100
2025-3-27 17:54:58.632	WT901BLE68-01(48591DE3C19B)	-0.295	-0.935	0.289	1.648	3.174	-5.798	-72.69	15.46	-116.11	-65.856	-55.566	-2.450	0.49100	-0.21805	0.55609	-0.63406	30.7	13111	100
2025-3-27 17:54:58.632	WT901BLE68-01(48591DE3C19B)	-0.295	-0.935	0.289	2.075	3.601	-4.028	-72.68	15.44	-116.13	-65.856	-55.566	-2.450	0.49100	-0.21805	0.55609	-0.63406	30.7	13111	100
2025-3-27 17:54:58.661	WT901BLE68-01(48591DE3C19B)	-0.295	-0.935	0.289	2.075	3.601	-4.028	-72.67	15.41	-116.15	-65.856	-55.566	-2.450	0.49100	-0.21805	0.55609	-0.63406	30.7	13111	100
2025-3-27 17:54:58.661	WT901BLE68-01(48591DE3C19B)	-0.295	-0.926	0.286	2.625	4.211	-2.563	-72.66	15.41	-116.18	-65.856	-55.566	-2.450	0.49100	-0.21805	0.55609	-0.63406	30.7	13111	100
2025-3-27 17:54:58.661	WT901BLE68-01(48591DE3C19B)	-0.297	-0.926	0.286	2.625	4.211	-2.563	-72.65	15.40	-116.20	-65.856	-55.566	-2.450	0.49100	-0.21805	0.55609	-0.63406	30.7	13111	100
2025-3-27 17:54:58.662	WT901BLE68-01(48591DE3C19B)	-0.297	-0.916	0.281	2.869	4.456	-1.709	-72.64	15.40	-116.22	-65.856	-55.566	-2.450	0.49100	-0.21805	0.55609	-0.63406	30.7	13111	100
2025-3-27 17:54:58.691	WT901BLE68-01(48591DE3C19B)	-0.294	-0.916	0.281	2.869	4.456	-1.709	-72.62	15.41	-116.25	-65.856	-55.566	-2.450	0.49100	-0.21805	0.55609	-0.63406	30.7	13111	100
2025-3-27 17:54:58.691	WT901BLE68-01(48591DE3C19B)	-0.294	-0.915	0.280	2.991	4.028	-1.099	-72.60	15.42	-116.27	-65.856	-55.566	-2.450	0.49100	-0.21805	0.55609	-0.63406	30.7	13111	100
2025-3-27 17:54:58.691	WT901BLE68-01(48591DE3C19B)	-0.291	-0.915	0.280	2.991	4.028	-1.099	-72.59	15.42	-116.28	-65.856	-55.566	-2.450	0.49100	-0.21805	0.55609	-0.63406	30.7	13111	100
2025-3-27 17:54:58.691	WT901BLE68-01(48591DE3C19B)	-0.291	-0.912	0.278	3.357	3.906	-0.549	-72.56	15.44	-116.30	-65.856	-55.566	-2.450	0.49100	-0.21805	0.55609	-0.63406	30.7	13111	100
2025-3-27 17:54:58.752	WT901BLE68-01(48591DE3C19B)	-0.288	-0.912	0.278	3.357	3.906	-0.549	-72.54	15.45	-116.31	-65.856	-55.566	-2.450	0.49100	-0.21805	0.55609	-0.63406	30.7	13111	100
2025-3-27 17:54:58.752	WT901BLE68-01(48591DE3C19B)	-0.288	-0.900	0.274	3.418	3.967	-0.122	-72.52	15.47	-116.33	-65.856	-55.566	-2.450	0.49100	-0.21805	0.55609	-0.63406	30.7	13111	100
2025-3-27 17:54:58.752	WT901BLE68-01(48591DE3C19B)	-0.284	-0.900	0.274	3.418	3.967	-0.122	-72.50	15.49	-116.34	-65.856	-55.566	-2.450	0.49100	-0.21805	0.55609	-0.63406	30.7	13111	100
2025-3-27 17:54:58.752	WT901BLE68-01(48591DE3C19B)	-0.284	-0.902	0.270	2.930	4.150	0.000	-72.49	15.51	-116.36	-65.856	-55.566	-2.450	0.49100	-0.21805	0.55609	-0.63406	30.7	13111	100
2025-3-27 17:54:58.781	WT901BLE68-01(48591DE3C19B)	-0.284	-0.902	0.270	2.930	4.150	0.000	-72.47	15.53	-116.37	-64.484	-55.664	-2.450	0.49100	-0.21805	0.55609	-0.63406	30.7	13111	100
2025-3-27 17:54:58.782	WT901BLE68-01(48591DE3C19B)	-0.284	-0.914	0.269	2.686	4.211	-0.122	-72.46	15.55	-116.38	-64.484	-55.664	-2.450	0.49100	-0.21805	0.55609	-0.63406	30.7	13111	100
2025-3-27 17:54:58.782	WT901BLE68-01(48591DE3C19B)	-0.281	-0.914	0.269	2.686	4.211	-0.122	-72.45	15.57	-116.40	-64.484	-55.664	-2.450	0.49100	-0.21805	0.55609	-0.63406	30.7	13111	100
2025-3-27 17:54:58.782	WT901BLE68-01(48591DE3C19B)	-0.281	-0.923	0.269	2.747	4.456	-0.366	-72.44	15.58	-116.42	-64.484	-55.664	-2.450	0.49100	-0.21805	0.55609	-0.63406	30.7	13111	100
2025-3-27 17:54:58.812	WT901BLE68-01(48591DE3C19B)	-0.276	-0.923	0.269	2.747	4.456	-0.366	-72.43	15.60	-116.43	-64.484	-55.664	-2.450	0.49100	-0.21805	0.55609	-0.63406	30.7	13111	100
2025-3-27 17:54:58.812	WT901BLE68-01(48591DE3C19B)	-0.276	-0.928	0.266	3.113	5.249	-0.549	-72.42	15.62	-116.46	-64.484	-55.664	-2.450	0.49100	-0.21805	0.55609	-0.63406	30.7	13111	100
2025-3-27 17:54:58.812	WT901BLE68-01(48591DE3C19B)	-0.273	-0.928	0.266	3.113	5.249	-0.549	-72.41	15.63	-116.49	-64.484	-55.664	-2.450	0.49100	-0.21805	0.55609	-0.63406	30.7	13111	100
2025-3-27 17:54:58.812	WT901BLE68-01(48591DE3C19B)	-0.273	-0.921	0.261	3.052	6.287	-0.610	-72.40	15.65	-116.52	-64.484	-55.664	-2.450	0.49100	-0.21805	0.55609	-0.63406	30.7	13111	100
2025-3-27 17:54:58.871	WT901BLE68-01(48591DE3C19B)	-0.275	-0.921	0.261	3.052	6.287	-0.610	-72.39	15.67	-116.55	-64.484	-55.664	-2.450	0.49100	-0.21805	0.55609	-0.63406	30.7	13111	100
2025-3-27 17:54:58.872	WT901BLE68-01(48591DE3C19B)	-0.275	-0.916	0.259	2.441	6.592	-0.610	-72.39	15.69	-116.59	-64.484	-55.664	-2.450	0.49100	-0.21805	0.55609	-0.63406	30.7	13111	100
2025-3-27 17:54:58.872	WT901BLE68-01(48591DE3C19B)	-0.274	-0.916	0.259	2.441	6.592	-0.610	-72.39	15.70	-116.63	-64.484	-55.664	-2.450	0.49100	-0.21805	0.55609	-0.63406	30.7	13111	100
2025-3-27 17:54:58.872	WT901BLE68-01(48591DE3C19B)	-0.274	-0.919	0.259	1.648	6.470	-0.610	-72.40	15.72	-116.66	-64.484	-55.664	-2.450	0.49100	-0.21805	0.55609	-0.63406	30.7	13111	100
2025-3-27 17:54:58.934	WT901BLE68-01(48591DE3C19B)	-0.276	-0.919	0.259	1.648	6.470	-0.610	-72.41	15.74	-116.69	-64.484	-55.664	-2.450	0.49100	-0.21805	0.55609	-0.63406	30.7	13111	100
2025-3-27 17:54:58.934	WT901BLE68-01(48591DE3C19B)	-0.276	-0.913	0.258	1.160	5.676	-0.793	-72.42	15.75	-116.72	-64.484	-55.664	-2.450	0.49100	-0.21805	0.55609	-0.63406	30.7	13111	100
2025-3-27 17:54:58.934	WT901BLE68-01(48591DE3C19B)	-0.275	-0.913	0.258	1.160	5.676	-0.793	-72.44	15.77	-116.75	-64.484	-55.664	-2.450	0.49100	-0.21805	0.55609	-0.63406	30.7	13111	100
2025-3-27 17:54:58.934	WT901BLE68-01(48591DE3C19B)	-0.275	-0.908	0.257	0.122	4.272	-1.465	-72.45	15.77	-116.76	-64.484	-55.664	-2.450	0.49100	-0.21805	0.55609	-0.63406	30.7	13111	100
2025-3-27 17:54:58.934	WT901BLE68-01(48591DE3C19B)	-0.274	-0.908	0.257	0.122	4.272	-1.465	-72.48	15.77	-116.77	-64.484	-55.664	-2.450	0.49100	-0.21805	0.55609	-0.63406	30.7	13111	100
2025-3-27 17:54:58.934	WT901BLE68-01(48591DE3C19B)	-0.274	-0.913	0.260	-0.488	2.869	-2.197	-72.50	15.75	-116.77	-64.484	-55.664	-2.450	0.49100	-0.21805	0.55609	-0.63406	30.7	13111	100
2025-3-27 17:54:58.934	WT901BLE68-01(48591DE3C19B)	-0.267	-0.913	0.260	-0.488	2.869	-2.197	-72.53	15.75	-116.78	-64.484	-55.664	-2.450	0.49100	-0.21805	0.55609	-0.63406	30.7	13111	100
2025-3-27 17:54:58.934	WT901BLE68-01(48591DE3C19B)	-0.267	-0.915	0.266	-0.854	2.502	-2.808	-72.55	15.73	-116.78	-64.484	-55.664	-2.450	0.49100	-0.21805	0.55609	-0.63406	30.7	13111	100
2025-3-27 17:54:58.992	WT901BLE68-01(48591DE3C19B)	-0.260	-0.915	0.266	-0.854	2.502	-2.808	-72.58	15.71	-116.78	-64.484	-55.664	-2.450	0.49100	-0.21805	0.55609	-0.63406	30.7	13111	100
2025-3-27 17:54:58.992	WT901BLE68-01(48591DE3C19B)	-0.260	-0.929	0.270	-0.793	4.028	-3.357	-72.60	15.69	-116.80	-64.484	-55.664	-2.450	0.48715	-0.21359	0.55719	-0.63757	30.7	13111	100
2025-3-27 17:54:58.992	WT901BLE68-01(48591DE3C19B)	-0.258	-0.929	0.270	-0.793	4.028	-3.357	-72.64	15.68	-116.81	-64.484	-55.664	-2.450	0.48715	-0.21359	0.55719	-0.63757	30.7	13111	100
2025-3-27 17:54:58.992	WT901BLE68-01(48591DE3C19B)	-0.258	-0.936	0.271	-0.305	6.348	-3.540	-72.66	15.66	-116.85	-64.484	-55.664	-2.450	0.48715	-0.21359	0.55719	-0.63757	30.7	13111	100
2025-3-27 17:54:59.22	WT901BLE68-01(48591DE3C19B)	-0.262	-0.936	0.271	-0.305	6.348	-3.540	-72.70	15.64	-116.89	-64.484	-55.664	-2.450	0.48715	-0.21359	0.55719	-0.63757	30.7	13111	100
2025-3-27 17:54:59.22	WT901BLE68-01(48591DE3C19B)	-0.262	-0.933	0.270	0.061	8.301	-3.357	-72.72	15.64	-116.95	-64.484	-55.664	-2.450	0.48715	-0.21359	0.55719	-0.63757	30.7	13111	100
2025-3-27 17:54:59.22	WT901BLE68-01(48591DE3C19B)	-0.272	-0.933	0.270	0.061	8.301	-3.357	-72.76	15.63	-117.01	-64.484	-55.664	-2.450	0.48715	-0.21359	0.55719	-0.63757	30.7	13111	100
2025-3-27 17:54:59.22	WT901BLE68-01(48591DE3C19B)	-0.272	-0.930	0.269	0.061	8.484	-3.113	-72.79	15.63	-117.07	-64.484	-55.664	-2.450	0.48715	-0.21359	0.55719	-0.63757	30.7	13111	100
2025-3-27 17:54:59.51	WT901BLE68-01(48591DE3C19B)	-0.277	-0.930	0.269	0.061	8.484	-3.113	-72.82	15.62	-117.13	-64.484	-55.664	-2.450	0.48715	-0.21359	0.55719	-0.63757	30.7	13111	100
2025-3-27 17:54:59.51	WT901BLE68-01(48591DE3C19B)	-0.270	-0.928	0.272	-0.183	6.714	-2.991	-72.85	15.61	-117.16	-64.484	-55.664	-2.450	0.48715	-0.21359	0.55719	-0.63757	30.7	13111	100
2025-3-27 17:54:59.51	WT901BLE68-01(48591DE3C19B)	-0.270	-0.929	0.277	-0.488	5.005	-2.808	-72.88	15.60	-117.20	-64.484	-55.664	-2.450	0.48715	-0.21359	0.55719	-0.63757	30.7	13111	100
2025-3-27 17:54:59.51	WT901BLE68-01(48591DE3C19B)	-0.262	-0.929	0.277	-0.488	5.005	-2.808	-72.90	15.59	-117.22	-64.484	-55.664	-2.450	0.48715	-0.21359	0.55719	-0.63757	30.7	13111	100
2025-3-27 17:54:59.143	WT901BLE68-01(48591DE3C19B)	-0.262	-0.922	0.279	-0.427	4.578	-2.625	-72.93	15.58	-117.24	-64.484	-55.664	-2.450	0.48715	-0.21359	0.55719	-0.63757	30.7	13111	100
2025-3-27 17:54:59.144	WT901BLE68-01(48591DE3C19B)	-0.260	-0.922	0.279	-0.427	4.578	-2.625	-72.95	15.57	-117.26	-64.484	-55.664	-2.450	0.48715	-0.21359	0.55719	-0.63757	30.7	13111	100
2025-3-27 17:54:59.144	WT901BLE68-01(48591DE3C19B)	-0.260	-0.912	0.277	-0.854	4.639	-2.869	-72.98	15.56	-117.28	-64.484	-55.664	-2.450	0.48715	-0.21359	0.55719	-0.63757	30.7	13111	100
2025-3-27 17:54:59.144	WT901BLE68-01(48591DE3C19B)	-0.267	-0.912	0.277	-0.854	4.639	-2.869	-73.00	15.54	-117.30	-64.484	-55.664	-2.450	0.48715	-0.21359	0.55719	-0.63757	30.7	13111	100
2025-3-27 17:54:59.144	WT901BLE68-01(48591DE3C19B)	-0.267	-0.923	0.275	-1.160	3.845	-3.540	-73.03	15.52	-117.32	-64.484	-55.664	-2.450	0.48715	-0.21359	0.55719	-0.63757	30.7	13111	100
2025-3-27 17:54:59.144	WT901BLE68-01(48591DE3C19B)	-0.275	-0.923	0.275	-1.160	3.845	-3.540	-73.05	15.50	-117.33	-64.484	-55.664	-2.450	0.48715	-0.21359	0.55719	-0.63757	30.7	13111	100
2025-3-27 17:54:59.144	WT901BLE68-01(48591DE3C19B)	-0.275	-0.928	0.279	-1.343	1.404	-4.456	-73.08	15.47	-117.34	-64.484	-55.664	-2.450	0.48715	-0.21359	0.55719	-0.63757	30.7	13111	100
2025-3-27 17:54:59.144	WT901BLE68-01(48591DE3C19B)	-0.276	-0.928	0.279	-1.343	1.404	-4.456	-73.10	15.43	-117.33	-64.484	-55.664	-2.450	0.48715	-0.21359	0.55719	-0.63757	30.7	13111	100
2025-3-27 17:54:59.173	WT901BLE68-01(48591DE3C19B)	-0.276	-0.935	0.282	-1.282	-1.526	-5.188	-73.13	15.39	-117.32	-64.484	-55.664	-2.450	0.48715	-0.21359	0.55719	-0.63757	30.7	13111	100
2025-3-27 17:54:59.173	WT901BLE68-01(48591DE3C19B)	-0.278	-0.935	0.282	-1.282	-1.526	-5.188	-73.14	15.33	-117.28	-64.484	-55.664	-2.450	0.48715	-0.21359	0.55719	-0.63757	30.7	13111	100
2025-3-27 17:54:59.173	WT901BLE68-01(48591DE3C19B)	-0.278	-0.930	0.284	-1.282	-3.784	-5.798	-73.15	15.28	-117.25	-62.622	-55.958	-2.842	0.48715	-0.21359	0.55719	-0.63757	30.7	13111	100
2025-3-27 17:54:59.173	WT901BLE68-01(48591DE3C19B)	-0.279	-0.930	0.284	-1.282	-3.784	-5.798	-73.16	15.21	-117.19	-62.622	-55.958	-2.842	0.48715	-0.21359	0.55719	-0.63757	30.7	13111	100
2025-3-27 17:54:59.231	WT901BLE68-01(48591DE3C19B)	-0.279	-0.928	0.286	-1.465	-5.554	-6.348	-73.16	15.14	-117.14	-62.622	-55.958	-2.842	0.48715	-0.21359	0.55719	-0.63757	30.7	13111	100
2025-3-27 17:54:59.231	WT901BLE68-01(48591DE3C19B)	-0.277	-0.928	0.286	-1.465	-5.554	-6.348	-73.17	15.07	-117.07	-62.622	-55.958	-2.842	0.48715	-0.21359	0.55719	-0.63757	30.7	13111	100
2025-3-27 17:54:59.231	WT901BLE68-01(48591DE3C19B)	-0.277	-0.935	0.287	-1.831	-6.897	-6.226	-73.18	15.00	-117.00	-62.622	-55.958	-2.842	0.48715	-0.21359	0.55719	-0.63757	30.7	13111	100
2025-3-27 17:54:59.231	WT901BLE68-01(48591DE3C19B)	-0.280	-0.935	0.287	-1.831	-6.897	-6.226	-73.19	14.92	-116.92	-62.622	-55.958	-2.842	0.48715	-0.21359	0.55719	-0.63757	30.7	13111	100
2025-3-27 17:54:59.291	WT901BLE68-01(48591DE3C19B)	-0.280	-0.930	0.283	-1.587	-7.874	-5.798	-73.19	14.85	-116.84	-62.622	-55.958	-2.842	0.48715	-0.21359	0.55719	-0.63757	30.7	13111	100
2025-3-27 17:54:59.291	WT901BLE68-01(48591DE3C19B)	-0.284	-0.930	0.283	-1.587	-7.874	-5.798	-73.19	14.78	-116.75	-62.622	-55.958	-2.842	0.48715	-0.21359	0.55719	-0.63757	30.7	13111	100
2025-3-27 17:54:59.291	WT901BLE68-01(48591DE3C19B)	-0.284	-0.917	0.278	-1.953	-9.521	-5.432	-73.19	14.71	-116.66	-62.622	-55.958	-2.842	0.48715	-0.21359	0.55719	-0.63757	30.7	13111	100
2025-3-27 17:54:59.291	WT901BLE68-01(48591DE3C19B)	-0.288	-0.917	0.278	-1.953	-9.521	-5.432	-73.19	14.63	-116.55	-62.622	-55.958	-2.842	0.48715	-0.21359	0.55719	-0.63757	30.7	13111	100
2025-3-27 17:54:59.292	WT901BLE68-01(48591DE3C19B)	-0.288	-0.909	0.274	-2.441	-12.207	-5.066	-73.19	14.56	-116.44	-62.622	-55.958	-2.842	0.48715	-0.21359	0.55719	-0.63757	30.7	13111	100
2025-3-27 17:54:59.292	WT901BLE68-01(48591DE3C19B)	-0.287	-0.909	0.274	-2.441	-12.207	-5.066	-73.19	14.49	-116.31	-62.622	-55.958	-2.842	0.48715	-0.21359	0.55719	-0.63757	30.7	13111	100
2025-3-27 17:54:59.292	WT901BLE68-01(48591DE3C19B)	-0.287	-0.912	0.274	-3.296	-15.137	-4.761	-73.19	14.41	-116.17	-62.622	-55.958	-2.842	0.48715	-0.21359	0.55719	-0.63757	30.7	13111	100
2025-3-27 17:54:59.292	WT901BLE68-01(48591DE3C19B)	-0.279	-0.912	0.274	-3.296	-15.137	-4.761	-73.19	14.33	-116.01	-62.622	-55.958	-2.842	0.48715	-0.21359	0.55719	-0.63757	30.7	13111	100
2025-3-27 17:54:59.353	WT901BLE68-01(48591DE3C19B)	-0.279	-0.915	0.272	-3.418	-16.907	-4.578	-73.18	14.25	-115.85	-62.622	-55.958	-2.842	0.48715	-0.21359	0.55719	-0.63757	30.7	13111	100
2025-3-27 17:54:59.353	WT901BLE68-01(48591DE3C19B)	-0.270	-0.915	0.272	-3.418	-16.907	-4.578	-73.18	14.17	-115.68	-62.622	-55.958	-2.842	0.48715	-0.21359	0.55719	-0.63757	30.7	13111	100
2025-3-27 17:54:59.353	WT901BLE68-01(48591DE3C19B)	-0.270	-0.911	0.270	-3.723	-16.602	-4.456	-73.18	14.09	-115.50	-62.622	-55.958	-2.842	0.48715	-0.21359	0.55719	-0.63757	30.7	13111	100
2025-3-27 17:54:59.354	WT901BLE68-01(48591DE3C19B)	-0.266	-0.911	0.270	-3.723	-16.602	-4.456	-73.18	14.01	-115.33	-62.622	-55.958	-2.842	0.48715	-0.21359	0.55719	-0.63757	30.7	13111	100
2025-3-27 17:54:59.383	WT901BLE68-01(48591DE3C19B)	-0.266	-0.917	0.266	-4.028	-15.320	-4.272	-73.19	13.94	-115.17	-62.622	-55.958	-2.842	0.48715	-0.21359	0.55719	-0.63757	30.7	13111	100
2025-3-27 17:54:59.383	WT901BLE68-01(48591DE3C19B)	-0.263	-0.917	0.266	-4.028	-15.320	-4.272	-73.19	13.86	-115.02	-62.622	-55.958	-2.842	0.48715	-0.21359	0.55719	-0.63757	30.7	13111	100
2025-3-27 17:54:59.383	WT901BLE68-01(48591DE3C19B)	-0.263	-0.917	0.260	-3.967	-13.977	-3.967	-73.20	13.80	-114.87	-62.622	-55.958	-2.842	0.48715	-0.21359	0.55719	-0.63757	30.7	13111	100
2025-3-27 17:54:59.383	WT901BLE68-01(48591DE3C19B)	-0.262	-0.917	0.260	-3.967	-13.977	-3.967	-73.21	13.73	-114.72	-62.622	-55.958	-2.842	0.48984	-0.23846	0.55032	-0.63263	30.7	13111	100
2025-3-27 17:54:59.471	WT901BLE68-01(48591DE3C19B)	-0.262	-0.910	0.256	-4.150	-12.512	-3.906	-73.23	13.67	-114.59	-62.622	-55.958	-2.842	0.48984	-0.23846	0.55032	-0.63263	30.7	13111	100
2025-3-27 17:54:59.471	WT901BLE68-01(48591DE3C19B)	-0.271	-0.910	0.256	-4.150	-12.512	-3.906	-73.25	13.61	-114.46	-62.622	-55.958	-2.842	0.48984	-0.23846	0.55032	-0.63263	30.7	13111	100
2025-3-27 17:54:59.471	WT901BLE68-01(48591DE3C19B)	-0.271	-0.905	0.257	-4.944	-12.756	-4.333	-73.27	13.55	-114.32	-62.622	-55.958	-2.842	0.48984	-0.23846	0.55032	-0.63263	30.7	13111	100
2025-3-27 17:54:59.471	WT901BLE68-01(48591DE3C19B)	-0.278	-0.905	0.257	-4.944	-12.756	-4.333	-73.30	13.49	-114.20	-62.622	-55.958	-2.842	0.48984	-0.23846	0.55032	-0.63263	30.7	13111	100
2025-3-27 17:54:59.472	WT901BLE68-01(48591DE3C19B)	-0.278	-0.906	0.263	-5.798	-15.259	-5.066	-73.32	13.41	-114.05	-62.622	-55.958	-2.842	0.48984	-0.23846	0.55032	-0.63263	30.7	13111	100
2025-3-27 17:54:59.472	WT901BLE68-01(48591DE3C19B)	-0.273	-0.906	0.263	-5.798	-15.259	-5.066	-73.35	13.34	-113.90	-62.622	-55.958	-2.842	0.48984	-0.23846	0.55032	-0.63263	30.7	13111	100
2025-3-27 17:54:59.473	WT901BLE68-01(48591DE3C19B)	-0.273	-0.922	0.269	-6.775	-17.212	-5.615	-73.38	13.26	-113.74	-62.622	-55.958	-2.842	0.48984	-0.23846	0.55032	-0.63263	30.7	13111	100
2025-3-27 17:54:59.473	WT901BLE68-01(48591DE3C19B)	-0.262	-0.922	0.269	-6.775	-17.212	-5.615	-73.42	13.17	-113.58	-62.622	-55.958	-2.842	0.48984	-0.23846	0.55032	-0.63263	30.7	13111	100
2025-3-27 17:54:59.531	WT901BLE68-01(48591DE3C19B)	-0.262	-0.939	0.263	-6.226	-17.151	-5.554	-73.45	13.08	-113.41	-62.622	-55.958	-2.842	0.48984	-0.23846	0.55032	-0.63263	30.7	13111	100
2025-3-27 17:54:59.531	WT901BLE68-01(48591DE3C19B)	-0.256	-0.939	0.263	-6.226	-17.151	-5.554	-73.48	13.00	-113.24	-62.622	-55.958	-2.842	0.48984	-0.23846	0.55032	-0.63263	30.7	13111	100
2025-3-27 17:54:59.531	WT901BLE68-01(48591DE3C19B)	-0.256	-0.925	0.257	-5.737	-15.808	-5.188	-73.51	12.92	-113.08	-62.622	-55.958	-2.842	0.48984	-0.23846	0.55032	-0.63263	30.7	13111	100
2025-3-27 17:54:59.531	WT901BLE68-01(48591DE3C19B)	-0.258	-0.925	0.257	-5.737	-15.808	-5.188	-73.54	12.84	-112.93	-62.622	-55.958	-2.842	0.48984	-0.23846	0.55032	-0.63263	30.7	13111	100
2025-3-27 17:54:59.561	WT901BLE68-01(48591DE3C19B)	-0.258	-0.918	0.257	-6.104	-14.709	-4.944	-73.57	12.77	-112.78	-62.622	-55.958	-2.842	0.48984	-0.23846	0.55032	-0.63263	30.7	13111	100
2025-3-27 17:54:59.561	WT901BLE68-01(48591DE3C19B)	-0.272	-0.918	0.257	-6.104	-14.709	-4.944	-73.61	12.69	-112.64	-62.622	-55.958	-2.842	0.48984	-0.23846	0.55032	-0.63263	30.7	13111	100
2025-3-27 17:54:59.561	WT901BLE68-01(48591DE3C19B)	-0.272	-0.921	0.260	-6.470	-15.320	-4.456	-73.65	12.63	-112.49	-62.622	-55.958	-2.842	0.48984	-0.23846	0.55032	-0.63263	30.7	13111	100
2025-3-27 17:54:59.561	WT901BLE68-01(48591DE3C19B)	-0.278	-0.921	0.260	-6.470	-15.320	-4.456	-73.68	12.56	-112.34	-62.622	-55.958	-2.842	0.48984	-0.23846	0.55032	-0.63263	30.7	13111	100
2025-3-27 17:54:59.592	WT901BLE68-01(48591DE3C19B)	-0.278	-0.938	0.264	-6.653	-17.761	-4.395	-73.72	12.49	-112.17	-62.622	-55.958	-2.842	0.48984	-0.23846	0.55032	-0.63263	30.7	13111	100
2025-3-27 17:54:59.592	WT901BLE68-01(48591DE3C19B)	-0.268	-0.938	0.264	-6.653	-17.761	-4.395	-73.75	12.41	-112.00	-62.622	-55.958	-2.842	0.48984	-0.23846	0.55032	-0.63263	30.7	13111	100
2025-3-27 17:54:59.592	WT901BLE68-01(48591DE3C19B)	-0.268	-0.933	0.268	-5.859	-19.592	-4.456	-73.77	12.34	-111.81	-62.622	-55.958	-2.842	0.48984	-0.23846	0.55032	-0.63263	30.7	13111	100
2025-3-27 17:54:59.592	WT901BLE68-01(48591DE3C19B)	-0.256	-0.933	0.268	-5.859	-19.592	-4.456	-73.80	12.26	-111.62	-65.170	-54.978	-3.234	0.48984	-0.23846	0.55032	-0.63263	30.7	13111	100
2025-3-27 17:54:59.622	WT901BLE68-01(48591DE3C19B)	-0.256	-0.934	0.263	-5.432	-19.165	-4.517	-73.81	12.18	-111.44	-65.170	-54.978	-3.234	0.48984	-0.23846	0.55032	-0.63263	30.7	13111	100
2025-3-27 17:54:59.622	WT901BLE68-01(48591DE3C19B)	-0.251	-0.934	0.263	-5.432	-19.165	-4.517	-73.83	12.11	-111.26	-65.170	-54.978	-3.234	0.48984	-0.23846	0.55032	-0.63263	30.7	13111	100
2025-3-27 17:54:59.622	WT901BLE68-01(48591DE3C19B)	-0.251	-0.937	0.257	-4.272	-17.212	-4.150	-73.84	12.04	-111.09	-65.170	-54.978	-3.234	0.48984	-0.23846	0.55032	-0.63263	30.7	13111	100
2025-3-27 17:54:59.622	WT901BLE68-01(48591DE3C19B)	-0.249	-0.937	0.257	-4.272	-17.212	-4.150	-73.86	11.97	-110.93	-65.170	-54.978	-3.234	0.48984	-0.23846	0.55032	-0.63263	30.7	13111	100
2025-3-27 17:54:59.682	WT901BLE68-01(48591DE3C19B)	-0.249	-0.963	0.257	-4.028	-15.320	-3.235	-73.87	11.91	-110.79	-65.170	-54.978	-3.234	0.48984	-0.23846	0.55032	-0.63263	30.7	13111	100
2025-3-27 17:54:59.682	WT901BLE68-01(48591DE3C19B)	-0.252	-0.963	0.257	-4.028	-15.320	-3.235	-73.88	11.86	-110.64	-65.170	-54.978	-3.234	0.48984	-0.23846	0.55032	-0.63263	30.7	13111	100
2025-3-27 17:54:59.682	WT901BLE68-01(48591DE3C19B)	-0.252	-0.977	0.255	-2.258	-15.015	-2.014	-73.88	11.82	-110.49	-65.170	-54.978	-3.234	0.48984	-0.23846	0.55032	-0.63263	30.7	13111	100
2025-3-27 17:54:59.682	WT901BLE68-01(48591DE3C19B)	-0.256	-0.977	0.255	-2.258	-15.015	-2.014	-73.88	11.78	-110.35	-65.170	-54.978	-3.234	0.48984	-0.23846	0.55032	-0.63263	30.7	13111	100
2025-3-27 17:54:59.711	WT901BLE68-01(48591DE3C19B)	-0.256	-0.956	0.248	-1.831	-16.602	-1.404	-73.87	11.73	-110.18	-65.170	-54.978	-3.234	0.48984	-0.23846	0.55032	-0.63263	30.7	13111	100
2025-3-27 17:54:59.711	WT901BLE68-01(48591DE3C19B)	-0.264	-0.956	0.248	-1.831	-16.602	-1.404	-73.86	11.69	-110.02	-65.170	-54.978	-3.234	0.48984	-0.23846	0.55032	-0.63263	30.7	13111	100
2025-3-27 17:54:59.711	WT901BLE68-01(48591DE3C19B)	-0.264	-0.939	0.243	-2.747	-22.095	-1.587	-73.85	11.64	-109.80	-65.170	-54.978	-3.234	0.48984	-0.23846	0.55032	-0.63263	30.7	13111	100
2025-3-27 17:54:59.711	WT901BLE68-01(48591DE3C19B)	-0.254	-0.939	0.243	-2.747	-22.095	-1.587	-73.84	11.58	-109.58	-65.170	-54.978	-3.234	0.48984	-0.23846	0.55032	-0.63263	30.7	13111	100
2025-3-27 17:54:59.744	WT901BLE68-01(48591DE3C19B)	-0.254	-0.932	0.247	-4.150	-28.442	-2.380	-73.83	11.50	-109.30	-65.170	-54.978	-3.234	0.48984	-0.23846	0.55032	-0.63263	30.7	13111	100
2025-3-27 17:54:59.744	WT901BLE68-01(48591DE3C19B)	-0.253	-0.932	0.247	-4.150	-28.442	-2.380	-73.83	11.41	-109.03	-65.170	-54.978	-3.234	0.48984	-0.23846	0.55032	-0.63263	30.7	13111	100
2025-3-27 17:54:59.744	WT901BLE68-01(48591DE3C19B)	-0.253	-0.919	0.246	-5.310	-34.607	-3.296	-73.82	11.31	-108.69	-65.170	-54.978	-3.234	0.48984	-0.23846	0.55032	-0.63263	30.7	13111	100
2025-3-27 17:54:59.744	WT901BLE68-01(48591DE3C19B)	-0.246	-0.919	0.246	-5.310	-34.607	-3.296	-73.82	11.21	-108.36	-65.170	-54.978	-3.234	0.48984	-0.23846	0.55032	-0.63263	30.7	13111	100
2025-3-27 17:54:59.801	WT901BLE68-01(48591DE3C19B)	-0.246	-0.919	0.240	-6.531	-40.649	-4.944	-73.82	11.06	-107.98	-65.170	-54.978	-3.234	0.48984	-0.23846	0.55032	-0.63263	30.7	13111	100
2025-3-27 17:54:59.802	WT901BLE68-01(48591DE3C19B)	-0.244	-0.919	0.240	-6.531	-40.649	-4.944	-73.82	10.93	-107.60	-65.170	-54.978	-3.234	0.51700	-0.29303	0.52652	-0.60785	30.7	13111	100
2025-3-27 17:54:59.802	WT901BLE68-01(48591DE3C19B)	-0.244	-0.920	0.242	-6.958	-45.044	-6.653	-73.82	10.76	-107.18	-65.170	-54.978	-3.234	0.51700	-0.29303	0.52652	-0.60785	30.7	13111	100
2025-3-27 17:54:59.802	WT901BLE68-01(48591DE3C19B)	-0.255	-0.920	0.242	-6.958	-45.044	-6.653	-73.81	10.60	-106.77	-65.170	-54.978	-3.234	0.51700	-0.29303	0.52652	-0.60785	30.7	13111	100
2025-3-27 17:54:59.831	WT901BLE68-01(48591DE3C19B)	-0.255	-0.926	0.249	-6.958	-50.049	-7.935	-73.81	10.41	-106.30	-65.170	-54.978	-3.234	0.51700	-0.29303	0.52652	-0.60785	30.7	13111	100
2025-3-27 17:54:59.832	WT901BLE68-01(48591DE3C19B)	-0.260	-0.926	0.249	-6.958	-50.049	-7.935	-73.80	10.22	-105.85	-65.170	-54.978	-3.234	0.51700	-0.29303	0.52652	-0.60785	30.7	13111	100
2025-3-27 17:54:59.832	WT901BLE68-01(48591DE3C19B)	-0.260	-0.953	0.249	-7.202	-55.115	-8.850	-73.79	10.01	-105.35	-65.170	-54.978	-3.234	0.51700	-0.29303	0.52652	-0.60785	30.7	13111	100
2025-3-27 17:54:59.832	WT901BLE68-01(48591DE3C19B)	-0.270	-0.953	0.249	-7.202	-55.115	-8.850	-73.78	9.80	-104.85	-65.170	-54.978	-3.234	0.51700	-0.29303	0.52652	-0.60785	30.7	13111	100
2025-3-27 17:54:59.861	WT901BLE68-01(48591DE3C19B)	-0.270	-0.993	0.250	-6.775	-60.242	-9.644	-73.76	9.57	-104.30	-65.170	-54.978	-3.234	0.51700	-0.29303	0.52652	-0.60785	30.7	13111	100
2025-3-27 17:54:59.861	WT901BLE68-01(48591DE3C19B)	-0.281	-0.993	0.250	-6.775	-60.242	-9.644	-73.75	9.34	-103.75	-65.170	-54.978	-3.234	0.51700	-0.29303	0.52652	-0.60785	30.7	13111	100
2025-3-27 17:54:59.861	WT901BLE68-01(48591DE3C19B)	-0.281	-1.013	0.261	-5.920	-65.918	-10.742	-73.71	9.09	-103.16	-65.170	-54.978	-3.234	0.51700	-0.29303	0.52652	-0.60785	30.7	13111	100
2025-3-27 17:54:59.861	WT901BLE68-01(48591DE3C19B)	-0.289	-1.013	0.261	-5.920	-65.918	-10.742	-73.69	8.83	-102.57	-65.170	-54.978	-3.234	0.51700	-0.29303	0.52652	-0.60785	30.7	13111	100
2025-3-27 17:54:59.921	WT901BLE68-01(48591DE3C19B)	-0.289	-1.007	0.274	-5.676	-72.083	-11.536	-73.65	8.56	-101.93	-65.170	-54.978	-3.234	0.51700	-0.29303	0.52652	-0.60785	30.7	13111	100
2025-3-27 17:54:59.921	WT901BLE68-01(48591DE3C19B)	-0.290	-1.007	0.274	-5.676	-72.083	-11.536	-73.62	8.28	-101.29	-65.170	-54.978	-3.234	0.51700	-0.29303	0.52652	-0.60785	30.7	13111	100
2025-3-27 17:54:59.922	WT901BLE68-01(48591DE3C19B)	-0.290	-0.977	0.283	-5.676	-77.942	-11.719	-73.58	8.00	-100.60	-65.170	-54.978	-3.234	0.51700	-0.29303	0.52652	-0.60785	30.7	13111	100
2025-3-27 17:54:59.922	WT901BLE68-01(48591DE3C19B)	-0.274	-0.977	0.283	-5.676	-77.942	-11.719	-73.54	7.71	-99.91	-65.170	-54.978	-3.234	0.51700	-0.29303	0.52652	-0.60785	30.7	13111	100
2025-3-27 17:54:59.953	WT901BLE68-01(48591DE3C19B)	-0.274	-0.934	0.286	-6.348	-81.787	-10.864	-73.52	7.42	-99.18	-65.170	-54.978	-3.234	0.51700	-0.29303	0.52652	-0.60785	30.7	13111	100
2025-3-27 17:54:59.953	WT901BLE68-01(48591DE3C19B)	-0.265	-0.934	0.286	-6.348	-81.787	-10.864	-73.49	7.13	-98.46	-65.170	-54.978	-3.234	0.51700	-0.29303	0.52652	-0.60785	30.7	13111	100
2025-3-27 17:54:59.954	WT901BLE68-01(48591DE3C19B)	-0.265	-0.905	0.290	-7.751	-83.069	-9.399	-73.47	6.86	-97.73	-65.170	-54.978	-3.234	0.51700	-0.29303	0.52652	-0.60785	30.7	13111	100
2025-3-27 17:54:59.954	WT901BLE68-01(48591DE3C19B)	-0.273	-0.905	0.290	-7.751	-83.069	-9.399	-73.46	6.58	-97.00	-65.170	-54.978	-3.234	0.51700	-0.29303	0.52652	-0.60785	30.7	13111	100
2025-3-27 17:54:59.983	WT901BLE68-01(48591DE3C19B)	-0.273	-0.894	0.301	-8.545	-85.449	-7.263	-73.45	6.32	-96.25	-65.170	-54.978	-3.234	0.51700	-0.29303	0.52652	-0.60785	30.7	13111	100
2025-3-27 17:54:59.984	WT901BLE68-01(48591DE3C19B)	-0.271	-0.894	0.301	-8.545	-85.449	-7.263	-73.45	6.06	-95.50	-65.170	-54.978	-3.234	0.51700	-0.29303	0.52652	-0.60785	30.7	13111	100
2025-3-27 17:54:59.984	WT901BLE68-01(48591DE3C19B)	-0.255	-0.881	0.321	-8.606	-88.867	-4.395	-73.44	5.83	-94.72	-75.656	-54.194	-0.098	0.51700	-0.29303	0.52652	-0.60785	30.7	13111	100
2025-3-27 17:54:59.984	WT901BLE68-01(48591DE3C19B)	-0.255	-0.870	0.331	-7.751	-90.332	-0.488	-73.43	5.60	-93.93	-75.656	-54.194	-0.098	0.51700	-0.29303	0.52652	-0.60785	30.7	13111	100
2025-3-27 17:55:0.41	WT901BLE68-01(48591DE3C19B)	-0.242	-0.870	0.331	-7.751	-90.332	-0.488	-73.42	5.41	-93.13	-75.656	-54.194	-0.098	0.51700	-0.29303	0.52652	-0.60785	30.7	13111	100
2025-3-27 17:55:0.42	WT901BLE68-01(48591DE3C19B)	-0.242	-0.861	0.323	-6.165	-90.515	4.700	-73.39	5.22	-92.32	-75.656	-54.194	-0.098	0.51700	-0.29303	0.52652	-0.60785	30.7	13111	100
2025-3-27 17:55:0.42	WT901BLE68-01(48591DE3C19B)	-0.222	-0.861	0.323	-6.165	-90.515	4.700	-73.36	5.07	-91.52	-75.656	-54.194	-0.098	0.51700	-0.29303	0.52652	-0.60785	30.7	13111	100
2025-3-27 17:55:0.42	WT901BLE68-01(48591DE3C19B)	-0.222	-0.849	0.322	-5.310	-89.722	10.803	-73.32	4.95	-90.71	-75.656	-54.194	-0.098	0.51700	-0.29303	0.52652	-0.60785	30.7	13111	100
2025-3-27 17:55:0.71	WT901BLE68-01(48591DE3C19B)	-0.208	-0.849	0.322	-5.310	-89.722	10.803	-73.28	4.86	-89.90	-75.656	-54.194	-0.098	0.51700	-0.29303	0.52652	-0.60785	30.7	13111	100
2025-3-27 17:55:0.72	WT901BLE68-01(48591DE3C19B)	-0.208	-0.854	0.339	-4.944	-87.952	18.005	-73.24	4.80	-89.09	-75.656	-54.194	-0.098	0.51700	-0.29303	0.52652	-0.60785	30.7	13111	100
2025-3-27 17:55:0.72	WT901BLE68-01(48591DE3C19B)	-0.170	-0.854	0.339	-4.944	-87.952	18.005	-73.19	4.77	-88.29	-75.656	-54.194	-0.098	0.51700	-0.29303	0.52652	-0.60785	30.7	13111	100
2025-3-27 17:55:0.72	WT901BLE68-01(48591DE3C19B)	-0.170	-0.875	0.364	-5.066	-84.534	25.818	-73.15	4.79	-87.50	-75.656	-54.194	-0.098	0.51700	-0.29303	0.52652	-0.60785	30.7	13111	100
2025-3-27 17:55:0.104	WT901BLE68-01(48591DE3C19B)	-0.112	-0.875	0.364	-5.066	-84.534	25.818	-73.10	4.84	-86.70	-75.656	-54.194	-0.098	0.51700	-0.29303	0.52652	-0.60785	30.7	13111	100
2025-3-27 17:55:0.104	WT901BLE68-01(48591DE3C19B)	-0.112	-0.923	0.381	-3.906	-74.524	32.288	-73.05	4.94	-85.96	-75.656	-54.194	-0.098	0.51700	-0.29303	0.52652	-0.60785	30.7	13111	100
2025-3-27 17:55:0.104	WT901BLE68-01(48591DE3C19B)	-0.081	-0.923	0.381	-3.906	-74.524	32.288	-72.99	5.08	-85.25	-75.656	-54.194	-0.098	0.51700	-0.29303	0.52652	-0.60785	30.7	13111	100
2025-3-27 17:55:0.104	WT901BLE68-01(48591DE3C19B)	-0.081	-0.965	0.387	-1.648	-60.486	35.278	-72.93	5.24	-84.61	-75.656	-54.194	-0.098	0.51700	-0.29303	0.52652	-0.60785	30.7	13111	100
2025-3-27 17:55:0.163	WT901BLE68-01(48591DE3C19B)	-0.080	-0.965	0.387	-1.648	-60.486	35.278	-72.85	5.43	-84.03	-75.656	-54.194	-0.098	0.51700	-0.29303	0.52652	-0.60785	30.7	13111	100
2025-3-27 17:55:0.163	WT901BLE68-01(48591DE3C19B)	-0.080	-1.021	0.389	1.099	-49.072	35.095	-72.77	5.64	-83.51	-75.656	-54.194	-0.098	0.51700	-0.29303	0.52652	-0.60785	30.7	13111	100
2025-3-27 17:55:0.163	WT901BLE68-01(48591DE3C19B)	-0.047	-1.021	0.389	1.099	-49.072	35.095	-72.68	5.84	-83.04	-75.656	-54.194	-0.098	0.51700	-0.29303	0.52652	-0.60785	30.7	13111	100
2025-3-27 17:55:0.163	WT901BLE68-01(48591DE3C19B)	-0.047	-1.032	0.393	6.714	-38.208	33.203	-72.56	6.06	-82.63	-75.656	-54.194	-0.098	0.51700	-0.29303	0.52652	-0.60785	30.7	13111	100
2025-3-27 17:55:0.221	WT901BLE68-01(48591DE3C19B)	-0.006	-1.032	0.393	6.714	-38.208	33.203	-72.42	6.27	-82.27	-75.656	-54.194	-0.098	0.51700	-0.29303	0.52652	-0.60785	30.7	13111	100
2025-3-27 17:55:0.221	WT901BLE68-01(48591DE3C19B)	-0.006	-1.000	0.380	11.230	-25.879	31.616	-72.27	6.49	-81.97	-75.656	-54.194	-0.098	0.51700	-0.29303	0.52652	-0.60785	30.7	13111	100
2025-3-27 17:55:0.221	WT901BLE68-01(48591DE3C19B)	0.037	-1.000	0.380	11.230	-25.879	31.616	-72.10	6.71	-81.73	-75.656	-54.194	-0.098	0.51700	-0.29303	0.52652	-0.60785	30.7	13111	100
2025-3-27 17:55:0.221	WT901BLE68-01(48591DE3C19B)	0.037	-0.968	0.343	14.893	-10.742	30.823	-71.92	6.95	-81.57	-75.656	-54.194	-0.098	0.63586	-0.41080	0.42007	-0.50034	30.7	13111	100
2025-3-27 17:55:0.222	WT901BLE68-01(48591DE3C19B)	0.080	-0.968	0.343	14.893	-10.742	30.823	-71.74	7.20	-81.47	-75.656	-54.194	-0.098	0.63586	-0.41080	0.42007	-0.50034	30.7	13111	100
2025-3-27 17:55:0.222	WT901BLE68-01(48591DE3C19B)	0.080	-0.926	0.305	17.822	4.639	30.945	-71.55	7.46	-81.45	-75.656	-54.194	-0.098	0.63586	-0.41080	0.42007	-0.50034	30.7	13111	100
2025-3-27 17:55:0.222	WT901BLE68-01(48591DE3C19B)	0.143	-0.926	0.305	17.822	4.639	30.945	-71.36	7.75	-81.50	-75.656	-54.194	-0.098	0.63586	-0.41080	0.42007	-0.50034	30.7	13111	100
2025-3-27 17:55:0.222	WT901BLE68-01(48591DE3C19B)	0.143	-0.879	0.286	18.494	23.621	31.006	-71.17	8.05	-81.63	-75.656	-54.194	-0.098	0.63586	-0.41080	0.42007	-0.50034	30.7	13111	100
2025-3-27 17:55:0.281	WT901BLE68-01(48591DE3C19B)	0.175	-0.879	0.286	18.494	23.621	31.006	-71.00	8.38	-81.85	-75.656	-54.194	-0.098	0.63586	-0.41080	0.42007	-0.50034	30.7	13111	100
2025-3-27 17:55:0.282	WT901BLE68-01(48591DE3C19B)	0.175	-0.880	0.269	17.517	44.312	31.128	-70.86	8.75	-82.17	-75.656	-54.194	-0.098	0.63586	-0.41080	0.42007	-0.50034	30.7	13111	100
2025-3-27 17:55:0.282	WT901BLE68-01(48591DE3C19B)	0.199	-0.880	0.269	17.517	44.312	31.128	-70.75	9.13	-82.58	-75.656	-54.194	-0.098	0.63586	-0.41080	0.42007	-0.50034	30.7	13111	100
2025-3-27 17:55:0.282	WT901BLE68-01(48591DE3C19B)	0.199	-0.920	0.247	16.968	64.636	30.884	-70.65	9.54	-83.08	-75.656	-54.194	-0.098	0.63586	-0.41080	0.42007	-0.50034	30.7	13111	100
2025-3-27 17:55:0.340	WT901BLE68-01(48591DE3C19B)	0.207	-0.920	0.247	16.968	64.636	30.884	-70.58	9.97	-83.68	-75.656	-54.194	-0.098	0.63586	-0.41080	0.42007	-0.50034	30.7	13111	100
2025-3-27 17:55:0.341	WT901BLE68-01(48591DE3C19B)	0.207	-0.958	0.223	17.029	86.121	29.602	-70.53	10.43	-84.38	-75.656	-54.194	-0.098	0.63586	-0.41080	0.42007	-0.50034	30.7	13111	100
2025-3-27 17:55:0.341	WT901BLE68-01(48591DE3C19B)	0.205	-0.958	0.223	17.029	86.121	29.602	-70.52	10.91	-85.18	-75.656	-54.194	-0.098	0.63586	-0.41080	0.42007	-0.50034	30.7	13111	100
2025-3-27 17:55:0.341	WT901BLE68-01(48591DE3C19B)	0.205	-0.991	0.221	16.602	103.394	26.001	-70.53	11.39	-86.06	-75.656	-54.194	-0.098	0.63586	-0.41080	0.42007	-0.50034	30.7	13111	100
2025-3-27 17:55:0.341	WT901BLE68-01(48591DE3C19B)	0.145	-0.991	0.221	16.602	103.394	26.001	-70.57	11.88	-87.03	-75.656	-54.194	-0.098	0.63586	-0.41080	0.42007	-0.50034	30.7	13111	100
2025-3-27 17:55:0.341	WT901BLE68-01(48591DE3C19B)	0.145	-1.027	0.240	15.625	110.779	20.020	-70.64	12.34	-88.04	-75.656	-54.194	-0.098	0.63586	-0.41080	0.42007	-0.50034	30.7	13111	100
2025-3-27 17:55:0.342	WT901BLE68-01(48591DE3C19B)	0.089	-1.027	0.240	15.625	110.779	20.020	-70.73	12.79	-89.09	-75.656	-54.194	-0.098	0.63586	-0.41080	0.42007	-0.50034	30.7	13111	100
2025-3-27 17:55:0.342	WT901BLE68-01(48591DE3C19B)	0.089	-1.040	0.259	16.174	109.924	12.939	-70.82	13.19	-90.15	-75.656	-54.194	-0.098	0.63586	-0.41080	0.42007	-0.50034	30.7	13111	100
2025-3-27 17:55:0.400	WT901BLE68-01(48591DE3C19B)	-0.013	-1.040	0.259	16.174	109.924	12.939	-70.93	13.56	-91.21	-75.656	-54.194	-0.098	0.63586	-0.41080	0.42007	-0.50034	30.7	13111	100
2025-3-27 17:55:0.401	WT901BLE68-01(48591DE3C19B)	-0.013	-1.036	0.282	16.724	105.103	4.639	-71.03	13.88	-92.26	-75.656	-54.194	-0.098	0.63586	-0.41080	0.42007	-0.50034	30.7	13111	100
2025-3-27 17:55:0.401	WT901BLE68-01(48591DE3C19B)	-0.069	-1.036	0.282	16.724	105.103	4.639	-71.14	14.14	-93.30	-75.656	-54.194	-0.098	0.63586	-0.41080	0.42007	-0.50034	30.7	13111	100
2025-3-27 17:55:0.401	WT901BLE68-01(48591DE3C19B)	-0.069	-1.060	0.295	15.015	92.041	-6.165	-71.24	14.34	-94.28	-75.656	-54.194	-0.098	0.63586	-0.41080	0.42007	-0.50034	30.7	13111	100
2025-3-27 17:55:0.431	WT901BLE68-01(48591DE3C19B)	-0.099	-1.060	0.295	15.015	92.041	-6.165	-71.34	14.47	-95.22	-82.418	-51.156	2.156	0.63586	-0.41080	0.42007	-0.50034	30.7	13111	100
2025-3-27 17:55:0.432	WT901BLE68-01(48591DE3C19B)	-0.099	-1.062	0.311	15.869	78.613	-14.038	-71.43	14.55	-96.11	-82.418	-51.156	2.156	0.63586	-0.41080	0.42007	-0.50034	30.7	13111	100
2025-3-27 17:55:0.432	WT901BLE68-01(48591DE3C19B)	-0.127	-1.062	0.311	15.869	78.613	-14.038	-71.49	14.56	-96.94	-82.418	-51.156	2.156	0.63586	-0.41080	0.42007	-0.50034	30.7	13111	100
2025-3-27 17:55:0.432	WT901BLE68-01(48591DE3C19B)	-0.127	-1.089	0.320	14.893	62.317	-20.142	-71.54	14.53	-97.70	-82.418	-51.156	2.156	0.63586	-0.41080	0.42007	-0.50034	30.7	13111	100
2025-3-27 17:55:0.460	WT901BLE68-01(48591DE3C19B)	-0.157	-1.089	0.320	14.893	62.317	-20.142	-71.58	14.45	-98.38	-82.418	-51.156	2.156	0.63586	-0.41080	0.42007	-0.50034	30.7	13111	100
2025-3-27 17:55:0.460	WT901BLE68-01(48591DE3C19B)	-0.157	-1.122	0.313	17.212	48.340	-24.658	-71.56	14.28	-98.94	-82.418	-51.156	2.156	0.63586	-0.41080	0.42007	-0.50034	30.7	13111	100
2025-3-27 17:55:0.461	WT901BLE68-01(48591DE3C19B)	-0.149	-1.122	0.313	17.212	48.340	-24.658	-71.54	14.12	-99.49	-82.418	-51.156	2.156	0.63586	-0.41080	0.42007	-0.50034	30.7	13111	100
2025-3-27 17:55:0.461	WT901BLE68-01(48591DE3C19B)	-0.149	-1.070	0.296	20.691	42.053	-27.588	-71.48	13.93	-100.00	-82.418	-51.156	2.156	0.63586	-0.41080	0.42007	-0.50034	30.7	13111	100
2025-3-27 17:55:0.553	WT901BLE68-01(48591DE3C19B)	-0.136	-1.070	0.296	20.691	42.053	-27.588	-71.41	13.73	-100.50	-82.418	-51.156	2.156	0.63586	-0.41080	0.42007	-0.50034	30.7	13111	100
2025-3-27 17:55:0.553	WT901BLE68-01(48591DE3C19B)	-0.136	-0.980	0.272	21.729	44.739	-28.809	-71.33	13.54	-101.02	-82.418	-51.156	2.156	0.63586	-0.41080	0.42007	-0.50034	30.7	13111	100
2025-3-27 17:55:0.553	WT901BLE68-01(48591DE3C19B)	-0.142	-0.980	0.272	21.729	44.739	-28.809	-71.26	13.34	-101.55	-82.418	-51.156	2.156	0.63586	-0.41080	0.42007	-0.50034	30.7	13111	100
2025-3-27 17:55:0.553	WT901BLE68-01(48591DE3C19B)	-0.142	-0.899	0.249	21.362	51.270	-28.931	-71.20	13.18	-102.15	-82.418	-51.156	2.156	0.63586	-0.41080	0.42007	-0.50034	30.7	13111	100
2025-3-27 17:55:0.554	WT901BLE68-01(48591DE3C19B)	-0.163	-0.899	0.249	21.362	51.270	-28.931	-71.14	13.01	-102.73	-82.418	-51.156	2.156	0.63586	-0.41080	0.42007	-0.50034	30.7	13111	100
2025-3-27 17:55:0.554	WT901BLE68-01(48591DE3C19B)	-0.163	-0.847	0.231	20.081	57.678	-26.550	-71.10	12.90	-103.36	-82.418	-51.156	2.156	0.63586	-0.41080	0.42007	-0.50034	30.7	13111	100
2025-3-27 17:55:0.554	WT901BLE68-01(48591DE3C19B)	-0.185	-0.847	0.231	20.081	57.678	-26.550	-71.07	12.79	-104.00	-82.418	-51.156	2.156	0.63586	-0.41080	0.42007	-0.50034	30.7	13111	100
2025-3-27 17:55:0.554	WT901BLE68-01(48591DE3C19B)	-0.185	-0.793	0.216	19.287	61.279	-22.339	-71.04	12.73	-104.66	-82.418	-51.156	2.156	0.63586	-0.41080	0.42007	-0.50034	30.7	13111	100
2025-3-27 17:55:0.611	WT901BLE68-01(48591DE3C19B)	-0.199	-0.793	0.216	19.287	61.279	-22.339	-71.02	12.68	-105.30	-82.418	-51.156	2.156	0.63586	-0.41080	0.42007	-0.50034	30.7	13111	100
2025-3-27 17:55:0.611	WT901BLE68-01(48591DE3C19B)	-0.199	-0.767	0.194	16.541	63.171	-19.775	-71.02	12.67	-105.96	-82.418	-51.156	2.156	0.63586	-0.41080	0.42007	-0.50034	30.7	13111	100
2025-3-27 17:55:0.611	WT901BLE68-01(48591DE3C19B)	-0.243	-0.767	0.194	16.541	63.171	-19.775	-71.02	12.66	-106.62	-82.418	-51.156	2.156	0.53470	-0.27298	0.51654	-0.61044	30.7	13111	100
2025-3-27 17:55:0.611	WT901BLE68-01(48591DE3C19B)	-0.243	-0.817	0.161	13.855	65.247	-20.325	-71.06	12.65	-107.29	-82.418	-51.156	2.156	0.53470	-0.27298	0.51654	-0.61044	30.7	13111	100
2025-3-27 17:55:0.640	WT901BLE68-01(48591DE3C19B)	-0.309	-0.817	0.161	13.855	65.247	-20.325	-71.10	12.65	-107.96	-82.418	-51.156	2.156	0.53470	-0.27298	0.51654	-0.61044	30.7	13111	100
2025-3-27 17:55:0.641	WT901BLE68-01(48591DE3C19B)	-0.309	-0.883	0.144	15.564	64.758	-25.085	-71.13	12.60	-108.64	-82.418	-51.156	2.156	0.53470	-0.27298	0.51654	-0.61044	30.7	13111	100
2025-3-27 17:55:0.641	WT901BLE68-01(48591DE3C19B)	-0.340	-0.883	0.144	15.564	64.758	-25.085	-71.16	12.56	-109.31	-82.418	-51.156	2.156	0.53470	-0.27298	0.51654	-0.61044	30.7	13111	100
2025-3-27 17:55:0.641	WT901BLE68-01(48591DE3C19B)	-0.340	-0.882	0.134	18.860	59.937	-32.593	-71.15	12.44	-109.96	-82.418	-51.156	2.156	0.53470	-0.27298	0.51654	-0.61044	30.7	13111	100
2025-3-27 17:55:0.671	WT901BLE68-01(48591DE3C19B)	-0.345	-0.882	0.134	18.860	59.937	-32.593	-71.15	12.32	-110.60	-82.418	-51.156	2.156	0.53470	-0.27298	0.51654	-0.61044	30.7	13111	100
2025-3-27 17:55:0.671	WT901BLE68-01(48591DE3C19B)	-0.345	-0.845	0.118	20.081	54.810	-39.917	-71.13	12.13	-111.21	-82.418	-51.156	2.156	0.53470	-0.27298	0.51654	-0.61044	30.7	13111	100
2025-3-27 17:55:0.671	WT901BLE68-01(48591DE3C19B)	-0.339	-0.845	0.118	20.081	54.810	-39.917	-71.10	11.94	-111.82	-82.418	-51.156	2.156	0.53470	-0.27298	0.51654	-0.61044	30.7	13111	100
2025-3-27 17:55:0.671	WT901BLE68-01(48591DE3C19B)	-0.339	-0.822	0.084	18.311	52.917	-46.570	-71.10	11.68	-112.43	-82.418	-51.156	2.156	0.53470	-0.27298	0.51654	-0.61044	30.7	13111	100
2025-3-27 17:55:0.701	WT901BLE68-01(48591DE3C19B)	-0.334	-0.822	0.084	18.311	52.917	-46.570	-71.10	11.44	-113.04	-82.418	-51.156	2.156	0.53470	-0.27298	0.51654	-0.61044	30.7	13111	100
2025-3-27 17:55:0.701	WT901BLE68-01(48591DE3C19B)	-0.334	-0.833	0.059	14.282	56.580	-52.795	-71.15	11.15	-113.69	-82.418	-51.156	2.156	0.53470	-0.27298	0.51654	-0.61044	30.7	13111	100
2025-3-27 17:55:0.701	WT901BLE68-01(48591DE3C19B)	-0.349	-0.833	0.059	14.282	56.580	-52.795	-71.20	10.86	-114.33	-82.418	-51.156	2.156	0.53470	-0.27298	0.51654	-0.61044	30.7	13111	100
2025-3-27 17:55:0.701	WT901BLE68-01(48591DE3C19B)	-0.349	-0.844	0.084	9.644	60.974	-57.312	-71.31	10.55	-115.03	-82.418	-51.156	2.156	0.53470	-0.27298	0.51654	-0.61044	30.7	13111	100
2025-3-27 17:55:0.763	WT901BLE68-01(48591DE3C19B)	-0.376	-0.844	0.084	9.644	60.974	-57.312	-71.42	10.24	-115.72	-82.418	-51.156	2.156	0.53470	-0.27298	0.51654	-0.61044	30.7	13111	100
2025-3-27 17:55:0.763	WT901BLE68-01(48591DE3C19B)	-0.376	-0.817	0.144	5.432	59.570	-59.570	-71.56	9.91	-116.41	-82.418	-51.156	2.156	0.53470	-0.27298	0.51654	-0.61044	30.7	13111	100
2025-3-27 17:55:0.763	WT901BLE68-01(48591DE3C19B)	-0.400	-0.817	0.144	5.432	59.570	-59.570	-71.69	9.58	-117.09	-82.418	-51.156	2.156	0.53470	-0.27298	0.51654	-0.61044	30.7	13111	100
2025-3-27 17:55:0.763	WT901BLE68-01(48591DE3C19B)	-0.400	-0.799	0.173	-0.427	52.795	-60.730	-71.87	9.22	-117.71	-82.418	-51.156	2.156	0.53470	-0.27298	0.51654	-0.61044	30.7	13111	100
2025-3-27 17:55:0.791	WT901BLE68-01(48591DE3C19B)	-0.426	-0.799	0.173	-0.427	52.795	-60.730	-72.04	8.87	-118.32	-82.418	-51.156	2.156	0.53470	-0.27298	0.51654	-0.61044	30.7	13111	100
2025-3-27 17:55:0.791	WT901BLE68-01(48591DE3C19B)	-0.426	-0.813	0.150	-6.287	42.480	-61.584	-72.25	8.49	-118.84	-82.418	-51.156	2.156	0.53470	-0.27298	0.51654	-0.61044	30.7	13111	100
2025-3-27 17:55:0.791	WT901BLE68-01(48591DE3C19B)	-0.469	-0.813	0.150	-6.287	42.480	-61.584	-72.45	8.10	-119.36	-82.418	-51.156	2.156	0.53470	-0.27298	0.51654	-0.61044	30.7	13111	100
2025-3-27 17:55:0.791	WT901BLE68-01(48591DE3C19B)	-0.469	-0.843	0.128	-12.573	23.132	-61.401	-72.69	7.67	-119.69	-61.740	-57.134	-1.372	0.53470	-0.27298	0.51654	-0.61044	30.7	13111	100
2025-3-27 17:55:0.821	WT901BLE68-01(48591DE3C19B)	-0.525	-0.843	0.128	-12.573	23.132	-61.401	-72.92	7.24	-120.01	-61.740	-57.134	-1.372	0.53470	-0.27298	0.51654	-0.61044	30.7	13111	100
2025-3-27 17:55:0.822	WT901BLE68-01(48591DE3C19B)	-0.525	-0.896	0.145	-18.616	-10.742	-59.570	-73.17	6.73	-120.01	-61.740	-57.134	-1.372	0.53470	-0.27298	0.51654	-0.61044	30.7	13111	100
2025-3-27 17:55:0.822	WT901BLE68-01(48591DE3C19B)	-0.573	-0.896	0.145	-18.616	-10.742	-59.570	-73.42	6.23	-120.01	-61.740	-57.134	-1.372	0.53470	-0.27298	0.51654	-0.61044	30.7	13111	100
2025-3-27 17:55:0.822	WT901BLE68-01(48591DE3C19B)	-0.573	-0.986	0.181	-23.743	-54.932	-55.054	-73.66	5.66	-119.57	-61.740	-57.134	-1.372	0.53470	-0.27298	0.51654	-0.61044	30.7	13111	100
2025-3-27 17:55:0.881	WT901BLE68-01(48591DE3C19B)	-0.582	-0.986	0.181	-23.743	-54.932	-55.054	-73.91	5.10	-119.14	-61.740	-57.134	-1.372	0.53470	-0.27298	0.51654	-0.61044	30.7	13111	100
2025-3-27 17:55:0.881	WT901BLE68-01(48591DE3C19B)	-0.582	-1.072	0.242	-24.963	-98.267	-47.607	-74.14	4.49	-118.27	-61.740	-57.134	-1.372	0.53470	-0.27298	0.51654	-0.61044	30.7	13111	100
2025-3-27 17:55:0.882	WT901BLE68-01(48591DE3C19B)	-0.570	-1.072	0.242	-24.963	-98.267	-47.607	-74.37	3.90	-117.41	-61.740	-57.134	-1.372	0.53470	-0.27298	0.51654	-0.61044	30.7	13111	100
2025-3-27 17:55:0.882	WT901BLE68-01(48591DE3C19B)	-0.570	-1.156	0.310	-21.973	-138.306	-35.217	-74.54	3.32	-116.14	-61.740	-57.134	-1.372	0.53470	-0.27298	0.51654	-0.61044	30.7	13111	100
2025-3-27 17:55:0.910	WT901BLE68-01(48591DE3C19B)	-0.487	-1.156	0.310	-21.973	-138.306	-35.217	-74.72	2.75	-114.87	-61.740	-57.134	-1.372	0.53470	-0.27298	0.51654	-0.61044	30.7	13111	100
2025-3-27 17:55:0.910	WT901BLE68-01(48591DE3C19B)	-0.339	-1.175	0.327	-15.442	-161.621	-20.142	-74.83	2.27	-113.35	-61.740	-57.134	-1.372	0.53470	-0.27298	0.51654	-0.61044	30.7	13111	100
2025-3-27 17:55:0.910	WT901BLE68-01(48591DE3C19B)	-0.339	-1.158	0.316	-9.155	-158.081	-3.296	-74.92	1.88	-111.84	-61.740	-57.134	-1.372	0.53470	-0.27298	0.51654	-0.61044	30.7	13111	100
2025-3-27 17:55:0.910	WT901BLE68-01(48591DE3C19B)	-0.238	-1.158	0.316	-9.155	-158.081	-3.296	-74.98	1.58	-110.31	-61.740	-57.134	-1.372	0.53470	-0.27298	0.51654	-0.61044	30.7	13111	100
2025-3-27 17:55:0.941	WT901BLE68-01(48591DE3C19B)	-0.238	-1.173	0.319	0.122	-132.629	13.306	-75.00	1.38	-108.90	-61.740	-57.134	-1.372	0.53470	-0.27298	0.51654	-0.61044	30.7	13111	100
2025-3-27 17:55:0.942	WT901BLE68-01(48591DE3C19B)	-0.138	-1.173	0.319	0.122	-132.629	13.306	-74.98	1.29	-107.59	-61.740	-57.134	-1.372	0.53470	-0.27298	0.51654	-0.61044	30.7	13111	100
2025-3-27 17:55:0.942	WT901BLE68-01(48591DE3C19B)	-0.138	-1.151	0.333	11.169	-96.313	29.602	-74.90	1.31	-106.44	-61.740	-57.134	-1.372	0.53470	-0.27298	0.51654	-0.61044	30.7	13111	100
2025-3-27 17:55:0.942	WT901BLE68-01(48591DE3C19B)	-0.093	-1.151	0.333	11.169	-96.313	29.602	-74.78	1.45	-105.44	-61.740	-57.134	-1.372	0.53470	-0.27298	0.51654	-0.61044	30.7	13111	100
2025-3-27 17:55:1.1	WT901BLE68-01(48591DE3C19B)	-0.093	-1.126	0.319	17.700	-56.152	42.480	-74.62	1.70	-104.62	-61.740	-57.134	-1.372	0.53470	-0.27298	0.51654	-0.61044	30.7	13111	100
2025-3-27 17:55:1.1	WT901BLE68-01(48591DE3C19B)	-0.083	-1.126	0.319	17.700	-56.152	42.480	-74.43	2.04	-103.98	-61.740	-57.134	-1.372	0.53470	-0.27298	0.51654	-0.61044	30.7	13111	100
2025-3-27 17:55:1.2	WT901BLE68-01(48591DE3C19B)	-0.083	-1.119	0.265	20.874	-17.944	53.711	-74.22	2.48	-103.50	-61.740	-57.134	-1.372	0.53470	-0.27298	0.51654	-0.61044	30.7	13111	100
2025-3-27 17:55:1.2	WT901BLE68-01(48591DE3C19B)	-0.118	-1.119	0.265	20.874	-17.944	53.711	-74.01	3.02	-103.19	-61.740	-57.134	-1.372	0.53470	-0.27298	0.51654	-0.61044	30.7	13111	100
2025-3-27 17:55:1.34	WT901BLE68-01(48591DE3C19B)	-0.118	-1.232	0.151	12.268	11.902	58.167	-73.84	3.61	-103.01	-61.740	-57.134	-1.372	0.51212	-0.35400	0.48563	-0.61359	30.7	13111	100
2025-3-27 17:55:1.34	WT901BLE68-01(48591DE3C19B)	-0.226	-1.232	0.151	12.268	11.902	58.167	-73.73	4.25	-102.96	-61.740	-57.134	-1.372	0.51212	-0.35400	0.48563	-0.61359	30.7	13111	100
2025-3-27 17:55:1.34	WT901BLE68-01(48591DE3C19B)	-0.903	-1.531	0.176	3.296	19.897	58.655	-73.68	4.90	-102.94	-61.740	-57.134	-1.372	0.51212	-0.35400	0.48563	-0.61359	30.7	13111	100
2025-3-27 17:55:1.34	WT901BLE68-01(48591DE3C19B)	-0.395	-6.124	0.704	3.296	19.897	58.655	-73.69	5.55	-102.95	-61.740	-57.134	-1.372	0.51212	-0.35400	0.48563	-0.61359	30.7	13111	100
2025-3-27 17:55:1.91	WT901BLE68-01(48591DE3C19B)	-0.395	-1.541	0.349	11.047	2.441	58.411	-73.65	6.17	-102.86	-61.740	-57.134	-1.372	0.51212	-0.35400	0.48563	-0.61359	30.7	13111	100
2025-3-27 17:55:1.91	WT901BLE68-01(48591DE3C19B)	-0.459	-1.541	0.349	11.047	2.441	58.411	-73.56	6.76	-102.70	-61.740	-57.134	-1.372	0.51212	-0.35400	0.48563	-0.61359	30.7	13111	100
2025-3-27 17:55:1.91	WT901BLE68-01(48591DE3C19B)	-0.459	-1.060	0.507	9.705	-25.391	59.326	-73.47	7.31	-102.40	-61.740	-57.134	-1.372	0.51212	-0.35400	0.48563	-0.61359	30.7	13111	100
2025-3-27 17:55:1.91	WT901BLE68-01(48591DE3C19B)	-0.455	-1.060	0.507	9.705	-25.391	59.326	-73.34	7.83	-101.97	-61.740	-57.134	-1.372	0.51212	-0.35400	0.48563	-0.61359	30.7	13111	100
2025-3-27 17:55:1.121	WT901BLE68-01(48591DE3C19B)	-0.455	-0.616	0.532	0.366	-54.016	68.665	-73.25	8.35	-101.39	-61.740	-57.134	-1.372	0.51212	-0.35400	0.48563	-0.61359	30.7	13111	100
2025-3-27 17:55:1.122	WT901BLE68-01(48591DE3C19B)	-0.427	-0.616	0.532	0.366	-54.016	68.665	-73.15	8.88	-100.67	-61.740	-57.134	-1.372	0.51212	-0.35400	0.48563	-0.61359	30.7	13111	100
2025-3-27 17:55:1.122	WT901BLE68-01(48591DE3C19B)	-0.427	-0.404	0.469	-20.081	-84.595	80.688	-73.12	9.42	-99.80	-61.740	-57.134	-1.372	0.51212	-0.35400	0.48563	-0.61359	30.7	13111	100
2025-3-27 17:55:1.122	WT901BLE68-01(48591DE3C19B)	-0.464	-0.404	0.469	-20.081	-84.595	80.688	-73.15	9.98	-98.77	-61.740	-57.134	-1.372	0.51212	-0.35400	0.48563	-0.61359	30.7	13111	100
2025-3-27 17:55:1.152	WT901BLE68-01(48591DE3C19B)	-0.464	-0.462	0.389	-40.710	-129.883	86.914	-73.22	10.51	-97.53	-61.740	-57.134	-1.372	0.51212	-0.35400	0.48563	-0.61359	30.7	13111	100
2025-3-27 17:55:1.152	WT901BLE68-01(48591DE3C19B)	-0.455	-0.462	0.389	-40.710	-129.883	86.914	-73.33	11.00	-96.06	-61.740	-57.134	-1.372	0.51212	-0.35400	0.48563	-0.61359	30.7	13111	100
2025-3-27 17:55:1.152	WT901BLE68-01(48591DE3C19B)	-0.455	-0.688	0.280	-54.077	-185.608	90.149	-73.43	11.44	-94.33	-61.740	-57.134	-1.372	0.51212	-0.35400	0.48563	-0.61359	30.7	13111	100
2025-3-27 17:55:1.152	WT901BLE68-01(48591DE3C19B)	-0.383	-0.688	0.280	-54.077	-185.608	90.149	-73.53	11.83	-92.33	-61.740	-57.134	-1.372	0.51212	-0.35400	0.48563	-0.61359	30.7	13111	100
2025-3-27 17:55:1.211	WT901BLE68-01(48591DE3C19B)	-0.383	-0.903	0.167	-52.307	-231.506	88.684	-73.56	12.14	-90.11	-61.740	-57.134	-1.372	0.51212	-0.35400	0.48563	-0.61359	30.7	13111	100
2025-3-27 17:55:1.211	WT901BLE68-01(48591DE3C19B)	-0.257	-0.903	0.167	-52.307	-231.506	88.684	-73.53	12.38	-87.67	-81.830	-52.430	3.430	0.51212	-0.35400	0.48563	-0.61359	30.7	13111	100
2025-3-27 17:55:1.211	WT901BLE68-01(48591DE3C19B)	-0.257	-1.080	0.049	-40.161	-250.061	83.435	-73.41	12.57	-85.16	-81.830	-52.430	3.430	0.51212	-0.35400	0.48563	-0.61359	30.7	13111	100
2025-3-27 17:55:1.211	WT901BLE68-01(48591DE3C19B)	-0.180	-1.080	0.049	-40.161	-250.061	83.435	-73.22	12.69	-82.55	-81.830	-52.430	3.430	0.51212	-0.35400	0.48563	-0.61359	30.7	13111	100
2025-3-27 17:55:1.240	WT901BLE68-01(48591DE3C19B)	-0.180	-1.188	0.032	-19.531	-244.385	75.806	-72.94	12.77	-79.98	-81.830	-52.430	3.430	0.51212	-0.35400	0.48563	-0.61359	30.7	13111	100
2025-3-27 17:55:1.241	WT901BLE68-01(48591DE3C19B)	-0.160	-1.188	0.032	-19.531	-244.385	75.806	-72.57	12.81	-77.46	-81.830	-52.430	3.430	0.51212	-0.35400	0.48563	-0.61359	30.7	13111	100
2025-3-27 17:55:1.241	WT901BLE68-01(48591DE3C19B)	-0.160	-1.266	0.102	1.343	-231.323	70.740	-72.13	12.82	-75.00	-81.830	-52.430	3.430	0.51212	-0.35400	0.48563	-0.61359	30.7	13111	100
2025-3-27 17:55:1.241	WT901BLE68-01(48591DE3C19B)	-0.029	-1.266	0.102	1.343	-231.323	70.740	-71.60	12.79	-72.63	-81.830	-52.430	3.430	0.51212	-0.35400	0.48563	-0.61359	30.7	13111	100
2025-3-27 17:55:1.301	WT901BLE68-01(48591DE3C19B)	-0.029	-1.283	0.178	27.283	-199.097	68.909	-70.99	12.79	-70.42	-81.830	-52.430	3.430	0.51212	-0.35400	0.48563	-0.61359	30.7	13111	100
2025-3-27 17:55:1.301	WT901BLE68-01(48591DE3C19B)	0.121	-1.283	0.178	27.283	-199.097	68.909	-70.29	12.79	-68.38	-81.830	-52.430	3.430	0.51212	-0.35400	0.48563	-0.61359	30.7	13111	100
2025-3-27 17:55:1.301	WT901BLE68-01(48591DE3C19B)	0.121	-1.179	0.212	50.415	-138.733	71.655	-69.54	12.88	-66.63	-81.830	-52.430	3.430	0.51212	-0.35400	0.48563	-0.61359	30.7	13111	100
2025-3-27 17:55:1.301	WT901BLE68-01(48591DE3C19B)	0.160	-1.179	0.212	50.415	-138.733	71.655	-68.75	13.05	-65.16	-81.830	-52.430	3.430	0.51212	-0.35400	0.48563	-0.61359	30.7	13111	100
2025-3-27 17:55:1.331	WT901BLE68-01(48591DE3C19B)	0.160	-1.044	0.209	64.636	-63.660	76.538	-67.96	13.35	-64.03	-81.830	-52.430	3.430	0.51212	-0.35400	0.48563	-0.61359	30.7	13111	100
2025-3-27 17:55:1.331	WT901BLE68-01(48591DE3C19B)	0.142	-1.044	0.209	64.636	-63.660	76.538	-67.19	13.79	-63.26	-81.830	-52.430	3.430	0.51212	-0.35400	0.48563	-0.61359	30.7	13111	100
2025-3-27 17:55:1.331	WT901BLE68-01(48591DE3C19B)	0.142	-0.938	0.189	68.848	3.174	80.811	-66.46	14.36	-62.78	-81.830	-52.430	3.430	0.51212	-0.35400	0.48563	-0.61359	30.7	13111	100
2025-3-27 17:55:1.331	WT901BLE68-01(48591DE3C19B)	0.096	-0.938	0.189	68.848	3.174	80.811	-65.79	15.06	-62.60	-81.830	-52.430	3.430	0.51212	-0.35400	0.48563	-0.61359	30.7	13111	100
2025-3-27 17:55:1.363	WT901BLE68-01(48591DE3C19B)	0.096	-0.933	0.187	64.453	55.908	87.830	-65.19	15.90	-62.65	-81.830	-52.430	3.430	0.51212	-0.35400	0.48563	-0.61359	30.7	13111	100
2025-3-27 17:55:1.363	WT901BLE68-01(48591DE3C19B)	0.085	-0.933	0.187	64.453	55.908	87.830	-64.69	16.86	-62.93	-81.830	-52.430	3.430	0.51212	-0.35400	0.48563	-0.61359	30.7	13111	100
2025-3-27 17:55:1.363	WT901BLE68-01(48591DE3C19B)	0.085	-1.006	0.174	59.937	95.215	95.398	-64.27	17.95	-63.37	-81.830	-52.430	3.430	0.51212	-0.35400	0.48563	-0.61359	30.7	13111	100
2025-3-27 17:55:1.363	WT901BLE68-01(48591DE3C19B)	0.072	-1.006	0.174	59.937	95.215	95.398	-63.93	19.13	-63.97	-81.830	-52.430	3.430	0.51212	-0.35400	0.48563	-0.61359	30.7	13111	100
2025-3-27 17:55:1.390	WT901BLE68-01(48591DE3C19B)	0.072	-0.940	0.188	56.030	125.854	103.516	-63.73	20.52	-64.84	-81.830	-52.430	3.430	0.51212	-0.35400	0.48563	-0.61359	30.7	13111	100
2025-3-27 17:55:1.390	WT901BLE68-01(48591DE3C19B)	0.012	-0.940	0.188	56.030	125.854	103.516	-63.56	21.90	-65.70	-81.830	-52.430	3.430	0.51212	-0.35400	0.48563	-0.61359	30.7	13111	100
2025-3-27 17:55:1.391	WT901BLE68-01(48591DE3C19B)	0.012	-0.853	0.218	46.448	140.259	105.591	-63.54	23.36	-66.71	-81.830	-52.430	3.430	0.75320	-0.33069	0.43277	-0.36868	30.7	13111	100
2025-3-27 17:55:1.391	WT901BLE68-01(48591DE3C19B)	-0.104	-0.853	0.218	46.448	140.259	105.591	-63.56	24.81	-67.73	-81.830	-52.430	3.430	0.75320	-0.33069	0.43277	-0.36868	30.7	13111	100
2025-3-27 17:55:1.451	WT901BLE68-01(48591DE3C19B)	-0.104	-0.812	0.287	37.292	138.977	100.952	-63.68	26.20	-68.76	-81.830	-52.430	3.430	0.75320	-0.33069	0.43277	-0.36868	30.7	13111	100
2025-3-27 17:55:1.451	WT901BLE68-01(48591DE3C19B)	-0.214	-0.812	0.287	37.292	138.977	100.952	-63.83	27.58	-69.79	-81.830	-52.430	3.430	0.75320	-0.33069	0.43277	-0.36868	30.7	13111	100
2025-3-27 17:55:1.451	WT901BLE68-01(48591DE3C19B)	-0.214	-0.875	0.323	29.663	128.296	92.957	-64.04	28.83	-70.76	-81.830	-52.430	3.430	0.75320	-0.33069	0.43277	-0.36868	30.7	13111	100
2025-3-27 17:55:1.451	WT901BLE68-01(48591DE3C19B)	-0.277	-0.875	0.323	29.663	128.296	92.957	-64.28	30.08	-71.75	-81.830	-52.430	3.430	0.75320	-0.33069	0.43277	-0.36868	30.7	13111	100
2025-3-27 17:55:1.480	WT901BLE68-01(48591DE3C19B)	-0.277	-0.925	0.306	26.367	106.995	80.811	-64.48	31.12	-72.59	-81.830	-52.430	3.430	0.75320	-0.33069	0.43277	-0.36868	30.7	13111	100
2025-3-27 17:55:1.480	WT901BLE68-01(48591DE3C19B)	-0.256	-0.925	0.306	26.367	106.995	80.811	-64.69	32.17	-73.44	-81.830	-52.430	3.430	0.75320	-0.33069	0.43277	-0.36868	30.7	13111	100
2025-3-27 17:55:1.481	WT901BLE68-01(48591DE3C19B)	-0.256	-0.898	0.305	25.085	69.336	70.251	-64.75	32.95	-73.95	-81.830	-52.430	3.430	0.75320	-0.33069	0.43277	-0.36868	30.7	13111	100
2025-3-27 17:55:1.481	WT901BLE68-01(48591DE3C19B)	-0.180	-0.898	0.305	25.085	69.336	70.251	-64.80	33.73	-74.47	-81.830	-52.430	3.430	0.75320	-0.33069	0.43277	-0.36868	30.7	13111	100
2025-3-27 17:55:1.510	WT901BLE68-01(48591DE3C19B)	-0.180	-0.881	0.298	22.522	32.837	59.814	-64.70	34.27	-74.64	-81.830	-52.430	3.430	0.75320	-0.33069	0.43277	-0.36868	30.7	13111	100
2025-3-27 17:55:1.510	WT901BLE68-01(48591DE3C19B)	-0.087	-0.881	0.298	22.522	32.837	59.814	-64.59	34.80	-74.81	-81.830	-52.430	3.430	0.75320	-0.33069	0.43277	-0.36868	30.7	13111	100
2025-3-27 17:55:1.510	WT901BLE68-01(48591DE3C19B)	-0.087	-0.813	0.258	19.775	5.249	49.927	-64.36	35.12	-74.73	-81.830	-52.430	3.430	0.75320	-0.33069	0.43277	-0.36868	30.7	13111	100
2025-3-27 17:55:1.510	WT901BLE68-01(48591DE3C19B)	-0.035	-0.813	0.258	19.775	5.249	49.927	-64.14	35.44	-74.65	-81.830	-52.430	3.430	0.75320	-0.33069	0.43277	-0.36868	30.7	13111	100
2025-3-27 17:55:1.601	WT901BLE68-01(48591DE3C19B)	-0.035	-0.776	0.241	13.245	-5.554	39.368	-63.95	35.61	-74.51	-81.830	-52.430	3.430	0.75320	-0.33069	0.43277	-0.36868	30.7	13111	100
2025-3-27 17:55:1.601	WT901BLE68-01(48591DE3C19B)	-0.032	-0.776	0.241	13.245	-5.554	39.368	-63.75	35.78	-74.37	-81.830	-52.430	3.430	0.75320	-0.33069	0.43277	-0.36868	30.7	13111	100
2025-3-27 17:55:1.601	WT901BLE68-01(48591DE3C19B)	-0.032	-0.783	0.277	7.324	-3.296	25.818	-63.67	35.83	-74.32	-81.830	-52.430	3.430	0.75320	-0.33069	0.43277	-0.36868	30.7	13111	100
2025-3-27 17:55:1.601	WT901BLE68-01(48591DE3C19B)	-0.049	-0.783	0.277	7.324	-3.296	25.818	-63.59	35.88	-74.28	-81.830	-52.430	3.430	0.75320	-0.33069	0.43277	-0.36868	30.7	13111	100
2025-3-27 17:55:1.602	WT901BLE68-01(48591DE3C19B)	-0.049	-0.811	0.339	3.479	5.005	8.057	-63.65	35.81	-74.43	-81.830	-52.430	3.430	0.75320	-0.33069	0.43277	-0.36868	30.7	13111	100
2025-3-27 17:55:1.602	WT901BLE68-01(48591DE3C19B)	-0.060	-0.811	0.339	3.479	5.005	8.057	-63.72	35.73	-74.57	-81.830	-52.430	3.430	0.75320	-0.33069	0.43277	-0.36868	30.7	13111	100
2025-3-27 17:55:1.602	WT901BLE68-01(48591DE3C19B)	-0.060	-0.826	0.376	1.526	18.005	-13.489	-63.94	35.52	-74.98	-81.830	-52.430	3.430	0.75320	-0.33069	0.43277	-0.36868	30.7	13111	100
2025-3-27 17:55:1.602	WT901BLE68-01(48591DE3C19B)	-0.085	-0.826	0.376	1.526	18.005	-13.489	-64.17	35.31	-75.37	-96.334	-35.378	8.232	0.75320	-0.33069	0.43277	-0.36868	30.7	13111	100
2025-3-27 17:55:1.631	WT901BLE68-01(48591DE3C19B)	-0.085	-0.845	0.378	-0.610	33.203	-38.025	-64.57	34.94	-76.07	-96.334	-35.378	8.232	0.75320	-0.33069	0.43277	-0.36868	30.7	13111	100
2025-3-27 17:55:1.631	WT901BLE68-01(48591DE3C19B)	-0.129	-0.845	0.378	-0.610	33.203	-38.025	-64.96	34.57	-76.75	-96.334	-35.378	8.232	0.75320	-0.33069	0.43277	-0.36868	30.7	13111	100
2025-3-27 17:55:1.631	WT901BLE68-01(48591DE3C19B)	-0.129	-0.880	0.367	-2.502	43.396	-62.744	-65.49	34.01	-77.66	-96.334	-35.378	8.232	0.75320	-0.33069	0.43277	-0.36868	30.7	13111	100
2025-3-27 17:55:1.631	WT901BLE68-01(48591DE3C19B)	-0.153	-0.880	0.367	-2.502	43.396	-62.744	-66.01	33.46	-78.55	-96.334	-35.378	8.232	0.75320	-0.33069	0.43277	-0.36868	30.7	13111	100
2025-3-27 17:55:1.690	WT901BLE68-01(48591DE3C19B)	-0.153	-0.917	0.349	-3.113	48.218	-84.839	-66.59	32.72	-79.59	-96.334	-35.378	8.232	0.75320	-0.33069	0.43277	-0.36868	30.7	13111	100
2025-3-27 17:55:1.690	WT901BLE68-01(48591DE3C19B)	-0.166	-0.917	0.349	-3.113	48.218	-84.839	-67.15	31.98	-80.60	-96.334	-35.378	8.232	0.75320	-0.33069	0.43277	-0.36868	30.7	13111	100
2025-3-27 17:55:1.690	WT901BLE68-01(48591DE3C19B)	-0.166	-0.926	0.318	-2.563	53.772	-102.356	-67.75	31.09	-81.73	-96.334	-35.378	8.232	0.75320	-0.33069	0.43277	-0.36868	30.7	13111	100
2025-3-27 17:55:1.691	WT901BLE68-01(48591DE3C19B)	-0.188	-0.926	0.318	-2.563	53.772	-102.356	-68.33	30.20	-82.84	-96.334	-35.378	8.232	0.75320	-0.33069	0.43277	-0.36868	30.7	13111	100
2025-3-27 17:55:1.751	WT901BLE68-01(48591DE3C19B)	-0.188	-0.926	0.278	-3.418	59.387	-115.906	-68.94	29.21	-84.03	-96.334	-35.378	8.232	0.75320	-0.33069	0.43277	-0.36868	30.7	13111	100
2025-3-27 17:55:1.751	WT901BLE68-01(48591DE3C19B)	-0.197	-0.926	0.278	-3.418	59.387	-115.906	-69.52	28.21	-85.20	-96.334	-35.378	8.232	0.75320	-0.33069	0.43277	-0.36868	30.7	13111	100
2025-3-27 17:55:1.751	WT901BLE68-01(48591DE3C19B)	-0.197	-0.952	0.237	-7.080	63.965	-126.648	-70.15	27.13	-86.43	-96.334	-35.378	8.232	0.75320	-0.33069	0.43277	-0.36868	30.7	13111	100
2025-3-27 17:55:1.751	WT901BLE68-01(48591DE3C19B)	-0.191	-0.952	0.237	-7.080	63.965	-126.648	-70.75	26.04	-87.63	-96.334	-35.378	8.232	0.75320	-0.33069	0.43277	-0.36868	30.7	13111	100
2025-3-27 17:55:1.753	WT901BLE68-01(48591DE3C19B)	-0.191	-1.063	0.226	-12.939	67.627	-134.827	-71.41	24.88	-88.86	-96.334	-35.378	8.232	0.75320	-0.33069	0.43277	-0.36868	30.7	13111	100
2025-3-27 17:55:1.753	WT901BLE68-01(48591DE3C19B)	-0.223	-1.063	0.226	-12.939	67.627	-134.827	-72.03	23.72	-90.07	-96.334	-35.378	8.232	0.75320	-0.33069	0.43277	-0.36868	30.7	13111	100
2025-3-27 17:55:1.753	WT901BLE68-01(48591DE3C19B)	-0.223	-1.254	0.230	-15.625	70.129	-142.273	-72.66	22.50	-91.29	-96.334	-35.378	8.232	0.75320	-0.33069	0.43277	-0.36868	30.7	13111	100
2025-3-27 17:55:1.753	WT901BLE68-01(48591DE3C19B)	-0.273	-1.254	0.230	-15.625	70.129	-142.273	-73.26	21.27	-92.48	-96.334	-35.378	8.232	0.75320	-0.33069	0.43277	-0.36868	30.7	13111	100
2025-3-27 17:55:1.811	WT901BLE68-01(48591DE3C19B)	-0.273	-1.356	0.242	-9.094	72.266	-144.958	-73.78	20.02	-93.67	-96.334	-35.378	8.232	0.75320	-0.33069	0.43277	-0.36868	30.7	13111	100
2025-3-27 17:55:1.811	WT901BLE68-01(48591DE3C19B)	-0.301	-1.356	0.242	-9.094	72.266	-144.958	-74.27	18.76	-94.84	-96.334	-35.378	8.232	0.75320	-0.33069	0.43277	-0.36868	30.7	13111	100
2025-3-27 17:55:1.812	WT901BLE68-01(48591DE3C19B)	-0.301	-1.263	0.249	2.625	72.876	-139.465	-74.60	17.57	-95.97	-96.334	-35.378	8.232	0.75320	-0.33069	0.43277	-0.36868	30.7	13111	100
2025-3-27 17:55:1.812	WT901BLE68-01(48591DE3C19B)	-0.258	-1.263	0.249	2.625	72.876	-139.465	-74.91	16.38	-97.09	-96.334	-35.378	8.232	0.75320	-0.33069	0.43277	-0.36868	30.7	13111	100
2025-3-27 17:55:1.843	WT901BLE68-01(48591DE3C19B)	-0.258	-1.118	0.212	10.376	77.637	-127.747	-75.12	15.31	-98.20	-96.334	-35.378	8.232	0.57574	-0.31570	0.52582	-0.54059	30.7	13111	100
2025-3-27 17:55:1.843	WT901BLE68-01(48591DE3C19B)	-0.220	-1.118	0.212	10.376	77.637	-127.747	-75.31	14.25	-99.30	-96.334	-35.378	8.232	0.57574	-0.31570	0.52582	-0.54059	30.7	13111	100
2025-3-27 17:55:1.843	WT901BLE68-01(48591DE3C19B)	-0.186	-1.065	0.112	17.700	94.116	-115.051	-75.44	13.36	-100.51	-96.334	-35.378	8.232	0.57574	-0.31570	0.52582	-0.54059	30.7	13111	100
2025-3-27 17:55:1.844	WT901BLE68-01(48591DE3C19B)	-0.186	-1.107	-0.029	24.902	109.375	-104.309	-75.53	12.55	-101.78	-96.334	-35.378	8.232	0.57574	-0.31570	0.52582	-0.54059	30.7	13111	100
2025-3-27 17:55:1.871	WT901BLE68-01(48591DE3C19B)	-0.132	-1.107	-0.029	24.902	109.375	-104.309	-75.59	11.80	-103.09	-96.334	-35.378	8.232	0.57574	-0.31570	0.52582	-0.54059	30.7	13111	100
2025-3-27 17:55:1.871	WT901BLE68-01(48591DE3C19B)	-0.132	-1.176	-0.115	32.654	122.681	-95.581	-75.61	11.11	-104.44	-96.334	-35.378	8.232	0.57574	-0.31570	0.52582	-0.54059	30.7	13111	100
2025-3-27 17:55:1.871	WT901BLE68-01(48591DE3C19B)	-0.122	-1.176	-0.115	32.654	122.681	-95.581	-75.60	10.49	-105.83	-96.334	-35.378	8.232	0.57574	-0.31570	0.52582	-0.54059	30.7	13111	100
2025-3-27 17:55:1.872	WT901BLE68-01(48591DE3C19B)	-0.122	-1.193	-0.122	38.818	142.395	-91.858	-75.56	9.90	-107.30	-96.334	-35.378	8.232	0.57574	-0.31570	0.52582	-0.54059	30.7	13111	100
2025-3-27 17:55:1.931	WT901BLE68-01(48591DE3C19B)	-0.196	-1.193	-0.122	38.818	142.395	-91.858	-75.50	9.36	-108.84	-96.334	-35.378	8.232	0.57574	-0.31570	0.52582	-0.54059	30.7	13111	100
2025-3-27 17:55:1.931	WT901BLE68-01(48591DE3C19B)	-0.196	-1.175	-0.083	40.955	161.011	-90.088	-75.44	8.85	-110.46	-96.334	-35.378	8.232	0.57574	-0.31570	0.52582	-0.54059	30.7	13111	100
2025-3-27 17:55:1.931	WT901BLE68-01(48591DE3C19B)	-0.323	-1.175	-0.083	40.955	161.011	-90.088	-75.37	8.38	-112.15	-96.334	-35.378	8.232	0.57574	-0.31570	0.52582	-0.54059	30.7	13111	100
2025-3-27 17:55:1.931	WT901BLE68-01(48591DE3C19B)	-0.323	-1.145	-0.023	41.687	172.302	-92.407	-75.29	7.92	-113.89	-96.334	-35.378	8.232	0.57574	-0.31570	0.52582	-0.54059	30.7	13111	100
2025-3-27 17:55:1.962	WT901BLE68-01(48591DE3C19B)	-0.433	-1.145	-0.023	41.687	172.302	-92.407	-75.21	7.46	-115.68	-96.334	-35.378	8.232	0.57574	-0.31570	0.52582	-0.54059	30.7	13111	100
2025-3-27 17:55:1.962	WT901BLE68-01(48591DE3C19B)	-0.433	-1.125	0.036	43.030	170.776	-96.802	-75.10	6.99	-117.44	-96.334	-35.378	8.232	0.57574	-0.31570	0.52582	-0.54059	30.7	13111	100
2025-3-27 17:55:1.962	WT901BLE68-01(48591DE3C19B)	-0.480	-1.125	0.036	43.030	170.776	-96.802	-74.98	6.51	-119.20	-96.334	-35.378	8.232	0.57574	-0.31570	0.52582	-0.54059	30.7	13111	100
2025-3-27 17:55:1.962	WT901BLE68-01(48591DE3C19B)	-0.480	-1.122	0.069	46.204	160.767	-101.563	-74.82	6.00	-120.91	-96.334	-35.378	8.232	0.57574	-0.31570	0.52582	-0.54059	30.7	13111	100
2025-3-27 17:55:1.990	WT901BLE68-01(48591DE3C19B)	-0.470	-1.122	0.069	46.204	160.767	-101.563	-74.64	5.48	-122.56	-96.334	-35.378	8.232	0.57574	-0.31570	0.52582	-0.54059	30.7	13111	100
2025-3-27 17:55:1.991	WT901BLE68-01(48591DE3C19B)	-0.470	-1.098	0.063	49.011	143.250	-104.736	-74.40	4.93	-124.13	-96.334	-35.378	8.232	0.57574	-0.31570	0.52582	-0.54059	30.7	13111	100
2025-3-27 17:55:1.991	WT901BLE68-01(48591DE3C19B)	-0.429	-1.098	0.063	49.011	143.250	-104.736	-74.15	4.35	-125.61	-63.210	-55.174	-1.372	0.57574	-0.31570	0.52582	-0.54059	30.7	13111	100
2025-3-27 17:55:1.991	WT901BLE68-01(48591DE3C19B)	-0.429	-1.073	0.022	47.974	123.169	-105.408	-73.87	3.76	-127.00	-63.210	-55.174	-1.372	0.57574	-0.31570	0.52582	-0.54059	30.7	13111	100
2025-3-27 17:55:2.51	WT901BLE68-01(48591DE3C19B)	-0.403	-1.073	0.022	47.974	123.169	-105.408	-73.58	3.14	-128.27	-63.210	-55.174	-1.372	0.57574	-0.31570	0.52582	-0.54059	30.7	13111	100
2025-3-27 17:55:2.51	WT901BLE68-01(48591DE3C19B)	-0.403	-1.030	-0.003	44.434	108.765	-102.844	-73.30	2.53	-129.47	-63.210	-55.174	-1.372	0.57574	-0.31570	0.52582	-0.54059	30.7	13111	100
2025-3-27 17:55:2.52	WT901BLE68-01(48591DE3C19B)	-0.410	-1.030	-0.003	44.434	108.765	-102.844	-73.02	1.92	-130.59	-63.210	-55.174	-1.372	0.57574	-0.31570	0.52582	-0.54059	30.7	13111	100
2025-3-27 17:55:2.52	WT901BLE68-01(48591DE3C19B)	-0.410	-0.980	-0.008	38.147	96.313	-99.304	-72.76	1.32	-131.64	-63.210	-55.174	-1.372	0.57574	-0.31570	0.52582	-0.54059	30.7	13111	100
2025-3-27 17:55:2.80	WT901BLE68-01(48591DE3C19B)	-0.427	-0.980	-0.008	38.147	96.313	-99.304	-72.53	0.73	-132.62	-63.210	-55.174	-1.372	0.57574	-0.31570	0.52582	-0.54059	30.7	13111	100
2025-3-27 17:55:2.80	WT901BLE68-01(48591DE3C19B)	-0.427	-0.961	0.007	30.090	80.811	-94.360	-72.32	0.15	-133.51	-63.210	-55.174	-1.372	0.57574	-0.31570	0.52582	-0.54059	30.7	13111	100
2025-3-27 17:55:2.80	WT901BLE68-01(48591DE3C19B)	-0.453	-0.961	0.007	30.090	80.811	-94.360	-72.15	-0.43	-134.31	-63.210	-55.174	-1.372	0.57574	-0.31570	0.52582	-0.54059	30.7	13111	100
2025-3-27 17:55:2.81	WT901BLE68-01(48591DE3C19B)	-0.453	-0.964	0.043	23.010	60.547	-87.646	-72.00	-0.99	-135.00	-63.210	-55.174	-1.372	0.57574	-0.31570	0.52582	-0.54059	30.7	13111	100
2025-3-27 17:55:2.111	WT901BLE68-01(48591DE3C19B)	-0.479	-0.964	0.043	23.010	60.547	-87.646	-71.89	-1.56	-135.58	-63.210	-55.174	-1.372	0.57574	-0.31570	0.52582	-0.54059	30.7	13111	100
2025-3-27 17:55:2.111	WT901BLE68-01(48591DE3C19B)	-0.479	-0.972	0.070	17.151	36.499	-80.261	-71.81	-2.11	-136.04	-63.210	-55.174	-1.372	0.57574	-0.31570	0.52582	-0.54059	30.7	13111	100
2025-3-27 17:55:2.111	WT901BLE68-01(48591DE3C19B)	-0.485	-0.972	0.070	17.151	36.499	-80.261	-71.76	-2.67	-136.37	-63.210	-55.174	-1.372	0.57574	-0.31570	0.52582	-0.54059	30.7	13111	100
2025-3-27 17:55:2.111	WT901BLE68-01(48591DE3C19B)	-0.485	-0.988	0.065	12.573	14.954	-72.754	-71.73	-3.21	-136.58	-63.210	-55.174	-1.372	0.57574	-0.31570	0.52582	-0.54059	30.7	13111	100
2025-3-27 17:55:2.201	WT901BLE68-01(48591DE3C19B)	-0.468	-0.988	0.065	12.573	14.954	-72.754	-71.73	-3.75	-136.68	-63.210	-55.174	-1.372	0.57574	-0.31570	0.52582	-0.54059	30.7	13111	100
2025-3-27 17:55:2.201	WT901BLE68-01(48591DE3C19B)	-0.468	-0.994	0.053	8.728	1.221	-65.308	-71.75	-4.27	-136.70	-63.210	-55.174	-1.372	0.57574	-0.31570	0.52582	-0.54059	30.7	13111	100
2025-3-27 17:55:2.202	WT901BLE68-01(48591DE3C19B)	-0.467	-0.994	0.053	8.728	1.221	-65.308	-71.79	-4.77	-136.65	-63.210	-55.174	-1.372	0.57574	-0.31570	0.52582	-0.54059	30.7	13111	100
2025-3-27 17:55:2.202	WT901BLE68-01(48591DE3C19B)	-0.467	-0.974	0.069	4.639	-9.460	-57.068	-71.86	-5.25	-136.53	-63.210	-55.174	-1.372	0.57574	-0.31570	0.52582	-0.54059	30.7	13111	100
2025-3-27 17:55:2.203	WT901BLE68-01(48591DE3C19B)	-0.475	-0.974	0.069	4.639	-9.460	-57.068	-71.95	-5.70	-136.35	-63.210	-55.174	-1.372	0.57574	-0.31570	0.52582	-0.54059	30.7	13111	100
2025-3-27 17:55:2.203	WT901BLE68-01(48591DE3C19B)	-0.475	-0.961	0.098	-1.709	-21.790	-47.119	-72.09	-6.11	-136.09	-63.210	-55.174	-1.372	0.57574	-0.31570	0.52582	-0.54059	30.7	13111	100
2025-3-27 17:55:2.203	WT901BLE68-01(48591DE3C19B)	-0.474	-0.961	0.098	-1.709	-21.790	-47.119	-72.25	-6.49	-135.77	-63.210	-55.174	-1.372	0.57574	-0.31570	0.52582	-0.54059	30.7	13111	100
2025-3-27 17:55:2.203	WT901BLE68-01(48591DE3C19B)	-0.474	-1.000	0.140	-8.179	-35.034	-35.095	-72.46	-6.82	-135.38	-63.210	-55.174	-1.372	0.27310	-0.26837	0.52759	-0.75824	30.7	13111	100
2025-3-27 17:55:2.234	WT901BLE68-01(48591DE3C19B)	-0.474	-1.000	0.140	-8.179	-35.034	-35.095	-72.71	-7.11	-134.91	-63.210	-55.174	-1.372	0.27310	-0.26837	0.52759	-0.75824	30.7	13111	100
2025-3-27 17:55:2.234	WT901BLE68-01(48591DE3C19B)	-0.474	-1.012	0.175	-11.658	-48.523	-21.912	-72.98	-7.36	-134.37	-63.210	-55.174	-1.372	0.27310	-0.26837	0.52759	-0.75824	30.7	13111	100
2025-3-27 17:55:2.234	WT901BLE68-01(48591DE3C19B)	-0.460	-1.012	0.175	-11.658	-48.523	-21.912	-73.27	-7.54	-133.75	-63.210	-55.174	-1.372	0.27310	-0.26837	0.52759	-0.75824	30.7	13111	100
2025-3-27 17:55:2.235	WT901BLE68-01(48591DE3C19B)	-0.460	-0.972	0.209	-14.526	-62.073	-8.545	-73.58	-7.68	-133.07	-63.210	-55.174	-1.372	0.27310	-0.26837	0.52759	-0.75824	30.7	13111	100
2025-3-27 17:55:2.290	WT901BLE68-01(48591DE3C19B)	-0.438	-0.972	0.209	-14.526	-62.073	-8.545	-73.90	-7.77	-132.32	-63.210	-55.174	-1.372	0.27310	-0.26837	0.52759	-0.75824	30.7	13111	100
2025-3-27 17:55:2.291	WT901BLE68-01(48591DE3C19B)	-0.438	-0.952	0.251	-16.296	-73.059	6.287	-74.23	-7.78	-131.52	-63.210	-55.174	-1.372	0.27310	-0.26837	0.52759	-0.75824	30.7	13111	100
2025-3-27 17:55:2.291	WT901BLE68-01(48591DE3C19B)	-0.420	-0.952	0.251	-16.296	-73.059	6.287	-74.58	-7.75	-130.65	-63.210	-55.174	-1.372	0.27310	-0.26837	0.52759	-0.75824	30.7	13111	100
2025-3-27 17:55:2.291	WT901BLE68-01(48591DE3C19B)	-0.420	-0.949	0.289	-15.137	-80.444	20.996	-74.91	-7.63	-129.76	-63.210	-55.174	-1.372	0.27310	-0.26837	0.52759	-0.75824	30.7	13111	100
2025-3-27 17:55:2.322	WT901BLE68-01(48591DE3C19B)	-0.379	-0.949	0.289	-15.137	-80.444	20.996	-75.23	-7.45	-128.83	-63.210	-55.174	-1.372	0.27310	-0.26837	0.52759	-0.75824	30.7	13111	100
2025-3-27 17:55:2.323	WT901BLE68-01(48591DE3C19B)	-0.379	-0.989	0.286	-13.550	-80.322	33.691	-75.53	-7.15	-127.88	-63.210	-55.174	-1.372	0.27310	-0.26837	0.52759	-0.75824	30.7	13111	100
2025-3-27 17:55:2.323	WT901BLE68-01(48591DE3C19B)	-0.339	-0.989	0.286	-13.550	-80.322	33.691	-75.81	-6.84	-126.94	-63.210	-55.174	-1.372	0.27310	-0.26837	0.52759	-0.75824	30.7	13111	100
2025-3-27 17:55:2.323	WT901BLE68-01(48591DE3C19B)	-0.339	-1.016	0.259	-9.277	-71.960	45.166	-76.03	-6.41	-126.06	-63.210	-55.174	-1.372	0.27310	-0.26837	0.52759	-0.75824	30.7	13111	100
2025-3-27 17:55:2.351	WT901BLE68-01(48591DE3C19B)	-0.335	-1.016	0.259	-9.277	-71.960	45.166	-76.24	-5.97	-125.18	-63.210	-55.174	-1.372	0.27310	-0.26837	0.52759	-0.75824	30.7	13111	100
2025-3-27 17:55:2.351	WT901BLE68-01(48591DE3C19B)	-0.335	-1.026	0.237	-6.470	-64.392	55.542	-76.41	-5.42	-124.37	-63.210	-55.174	-1.372	0.27310	-0.26837	0.52759	-0.75824	30.7	13111	100
2025-3-27 17:55:2.352	WT901BLE68-01(48591DE3C19B)	-0.355	-1.026	0.237	-6.470	-64.392	55.542	-76.56	-4.87	-123.55	-63.210	-55.174	-1.372	0.27310	-0.26837	0.52759	-0.75824	30.7	13111	100
2025-3-27 17:55:2.352	WT901BLE68-01(48591DE3C19B)	-0.355	-1.076	0.200	-7.263	-64.636	64.819	-76.72	-4.24	-122.72	-63.210	-55.174	-1.372	0.27310	-0.26837	0.52759	-0.75824	30.7	13111	100
2025-3-27 17:55:2.441	WT901BLE68-01(48591DE3C19B)	-0.385	-1.076	0.200	-7.263	-64.636	64.819	-76.87	-3.61	-121.89	-63.210	-55.174	-1.372	0.27310	-0.26837	0.52759	-0.75824	30.7	13111	100
2025-3-27 17:55:2.441	WT901BLE68-01(48591DE3C19B)	-0.385	-1.227	0.175	-10.681	-75.989	71.899	-77.05	-2.94	-120.93	-63.210	-55.174	-1.372	0.27310	-0.26837	0.52759	-0.75824	30.7	13111	100
2025-3-27 17:55:2.441	WT901BLE68-01(48591DE3C19B)	-0.420	-1.227	0.175	-10.681	-75.989	71.899	-77.22	-2.27	-119.98	-63.210	-55.174	-1.372	0.27310	-0.26837	0.52759	-0.75824	30.7	13111	100
2025-3-27 17:55:2.441	WT901BLE68-01(48591DE3C19B)	-0.420	-1.371	0.198	-9.033	-97.107	78.308	-77.37	-1.60	-118.80	-63.210	-55.174	-1.372	0.27310	-0.26837	0.52759	-0.75824	30.7	13111	100
2025-3-27 17:55:2.442	WT901BLE68-01(48591DE3C19B)	-0.409	-1.371	0.198	-9.033	-97.107	78.308	-77.51	-0.92	-117.63	-53.998	-56.448	-1.176	0.27310	-0.26837	0.52759	-0.75824	30.7	13111	100
2025-3-27 17:55:2.442	WT901BLE68-01(48591DE3C19B)	-0.409	-1.252	0.246	-1.526	-121.582	86.731	-77.56	-0.22	-116.20	-53.998	-56.448	-1.176	0.27310	-0.26837	0.52759	-0.75824	30.7	13111	100
2025-3-27 17:55:2.442	WT901BLE68-01(48591DE3C19B)	-0.343	-1.252	0.246	-1.526	-121.582	86.731	-77.60	0.47	-114.79	-53.998	-56.448	-1.176	0.27310	-0.26837	0.52759	-0.75824	30.7	13111	100
2025-3-27 17:55:2.442	WT901BLE68-01(48591DE3C19B)	-0.343	-0.966	0.261	-3.845	-139.709	98.755	-77.62	1.24	-113.17	-53.998	-56.448	-1.176	0.27310	-0.26837	0.52759	-0.75824	30.7	13111	100
2025-3-27 17:55:2.561	WT901BLE68-01(48591DE3C19B)	-0.302	-0.966	0.261	-3.845	-139.709	98.755	-77.63	2.01	-111.57	-53.998	-56.448	-1.176	0.27310	-0.26837	0.52759	-0.75824	30.7	13111	100
2025-3-27 17:55:2.562	WT901BLE68-01(48591DE3C19B)	-0.302	-0.786	0.231	-9.644	-150.635	112.000	-77.66	2.88	-109.84	-53.998	-56.448	-1.176	0.27310	-0.26837	0.52759	-0.75824	30.7	13111	100
2025-3-27 17:55:2.562	WT901BLE68-01(48591DE3C19B)	-0.299	-0.786	0.231	-9.644	-150.635	112.000	-77.66	3.75	-108.12	-53.998	-56.448	-1.176	0.27310	-0.26837	0.52759	-0.75824	30.7	13111	100
2025-3-27 17:55:2.562	WT901BLE68-01(48591DE3C19B)	-0.299	-0.752	0.211	-17.395	-160.889	125.977	-77.71	4.72	-106.28	-53.998	-56.448	-1.176	0.27310	-0.26837	0.52759	-0.75824	30.7	13111	100
2025-3-27 17:55:2.563	WT901BLE68-01(48591DE3C19B)	-0.279	-0.752	0.211	-17.395	-160.889	125.977	-77.71	5.70	-104.45	-53.998	-56.448	-1.176	0.27310	-0.26837	0.52759	-0.75824	30.7	13111	100
2025-3-27 17:55:2.563	WT901BLE68-01(48591DE3C19B)	-0.279	-0.889	0.188	-22.339	-172.607	137.390	-77.71	6.75	-102.47	-53.998	-56.448	-1.176	0.27310	-0.26837	0.52759	-0.75824	30.7	13111	100
2025-3-27 17:55:2.563	WT901BLE68-01(48591DE3C19B)	-0.233	-0.889	0.188	-22.339	-172.607	137.390	-77.68	7.79	-100.50	-53.998	-56.448	-1.176	0.27310	-0.26837	0.52759	-0.75824	30.7	13111	100
2025-3-27 17:55:2.563	WT901BLE68-01(48591DE3C19B)	-0.233	-1.087	0.194	-17.883	-179.382	145.081	-77.56	8.89	-98.45	-53.998	-56.448	-1.176	0.27310	-0.26837	0.52759	-0.75824	30.7	13111	100
2025-3-27 17:55:2.593	WT901BLE68-01(48591DE3C19B)	-0.194	-1.087	0.194	-17.883	-179.382	145.081	-77.39	9.96	-96.39	-53.998	-56.448	-1.176	0.27310	-0.26837	0.52759	-0.75824	30.7	13111	100
2025-3-27 17:55:2.594	WT901BLE68-01(48591DE3C19B)	-0.194	-1.239	0.175	-4.883	-177.246	148.132	-77.07	11.05	-94.33	-53.998	-56.448	-1.176	0.27310	-0.26837	0.52759	-0.75824	30.7	13111	100
2025-3-27 17:55:2.594	WT901BLE68-01(48591DE3C19B)	-0.166	-1.239	0.175	-4.883	-177.246	148.132	-76.71	12.12	-92.27	-53.998	-56.448	-1.176	0.27310	-0.26837	0.52759	-0.75824	30.7	13111	100
2025-3-27 17:55:2.594	WT901BLE68-01(48591DE3C19B)	-0.166	-1.316	0.168	12.085	-168.091	146.545	-76.16	13.16	-90.29	-53.998	-56.448	-1.176	0.27310	-0.26837	0.52759	-0.75824	30.7	13111	100
2025-3-27 17:55:2.623	WT901BLE68-01(48591DE3C19B)	-0.139	-1.316	0.168	12.085	-168.091	146.545	-75.57	14.18	-88.29	-53.998	-56.448	-1.176	0.27310	-0.26837	0.52759	-0.75824	30.7	13111	100
2025-3-27 17:55:2.623	WT901BLE68-01(48591DE3C19B)	-0.139	-1.333	0.223	31.006	-151.245	139.648	-74.82	15.13	-86.46	-53.998	-56.448	-1.176	0.27310	-0.26837	0.52759	-0.75824	30.7	13111	100
2025-3-27 17:55:2.623	WT901BLE68-01(48591DE3C19B)	-0.127	-1.333	0.223	31.006	-151.245	139.648	-74.04	16.06	-84.62	-53.998	-56.448	-1.176	0.27310	-0.26837	0.52759	-0.75824	30.7	13111	100
2025-3-27 17:55:2.623	WT901BLE68-01(48591DE3C19B)	-0.127	-1.383	0.251	45.776	-127.808	130.432	-73.15	16.92	-83.03	-53.998	-56.448	-1.176	0.27310	-0.26837	0.52759	-0.75824	30.7	13111	100
2025-3-27 17:55:2.653	WT901BLE68-01(48591DE3C19B)	-0.059	-1.383	0.251	45.776	-127.808	130.432	-72.24	17.75	-81.42	-53.998	-56.448	-1.176	0.66925	-0.35776	0.47247	-0.44806	30.7	13111	100
2025-3-27 17:55:2.653	WT901BLE68-01(48591DE3C19B)	-0.059	-1.366	0.278	61.951	-92.590	123.108	-71.26	18.58	-80.17	-53.998	-56.448	-1.176	0.66925	-0.35776	0.47247	-0.44806	30.7	13111	100
2025-3-27 17:55:2.653	WT901BLE68-01(48591DE3C19B)	-0.011	-1.366	0.278	61.951	-92.590	123.108	-70.26	19.39	-78.90	-53.998	-56.448	-1.176	0.66925	-0.35776	0.47247	-0.44806	30.7	13111	100
2025-3-27 17:55:2.653	WT901BLE68-01(48591DE3C19B)	-0.011	-1.220	0.307	73.853	-49.011	118.347	-69.28	20.26	-78.07	-53.998	-56.448	-1.176	0.66925	-0.35776	0.47247	-0.44806	30.7	13111	100
2025-3-27 17:55:2.711	WT901BLE68-01(48591DE3C19B)	0.051	-1.220	0.307	73.853	-49.011	118.347	-68.28	21.12	-77.22	-53.998	-56.448	-1.176	0.66925	-0.35776	0.47247	-0.44806	30.7	13111	100
2025-3-27 17:55:2.711	WT901BLE68-01(48591DE3C19B)	0.051	-1.044	0.321	77.698	-1.526	112.549	-67.41	22.07	-76.85	-53.998	-56.448	-1.176	0.66925	-0.35776	0.47247	-0.44806	30.7	13111	100
2025-3-27 17:55:2.711	WT901BLE68-01(48591DE3C19B)	0.057	-1.044	0.321	77.698	-1.526	112.549	-66.53	23.01	-76.46	-53.998	-56.448	-1.176	0.66925	-0.35776	0.47247	-0.44806	30.7	13111	100
2025-3-27 17:55:2.711	WT901BLE68-01(48591DE3C19B)	0.057	-0.895	0.318	75.195	43.579	108.154	-65.85	24.08	-76.53	-53.998	-56.448	-1.176	0.66925	-0.35776	0.47247	-0.44806	30.7	13111	100
2025-3-27 17:55:2.740	WT901BLE68-01(48591DE3C19B)	-0.019	-0.895	0.318	75.195	43.579	108.154	-65.17	25.13	-76.58	-53.998	-56.448	-1.176	0.66925	-0.35776	0.47247	-0.44806	30.7	13111	100
2025-3-27 17:55:2.741	WT901BLE68-01(48591DE3C19B)	-0.019	-0.792	0.265	67.322	73.669	102.783	-64.69	26.25	-76.95	-53.998	-56.448	-1.176	0.66925	-0.35776	0.47247	-0.44806	30.7	13111	100
2025-3-27 17:55:2.741	WT901BLE68-01(48591DE3C19B)	-0.080	-0.792	0.265	67.322	73.669	102.783	-64.23	27.37	-77.31	-53.998	-56.448	-1.176	0.66925	-0.35776	0.47247	-0.44806	30.7	13111	100
2025-3-27 17:55:2.741	WT901BLE68-01(48591DE3C19B)	-0.080	-0.755	0.211	57.129	88.806	96.191	-63.96	28.49	-77.85	-53.998	-56.448	-1.176	0.66925	-0.35776	0.47247	-0.44806	30.7	13111	100
2025-3-27 17:55:2.773	WT901BLE68-01(48591DE3C19B)	-0.170	-0.755	0.211	57.129	88.806	96.191	-63.69	29.61	-78.38	-53.998	-56.448	-1.176	0.66925	-0.35776	0.47247	-0.44806	30.7	13111	100
2025-3-27 17:55:2.773	WT901BLE68-01(48591DE3C19B)	-0.277	-0.760	0.199	47.119	86.182	90.698	-63.54	30.66	-78.91	-53.998	-56.448	-1.176	0.66925	-0.35776	0.47247	-0.44806	30.7	13111	100
2025-3-27 17:55:2.773	WT901BLE68-01(48591DE3C19B)	-0.277	-0.907	0.213	32.715	63.293	87.036	-63.40	31.64	-79.34	-53.998	-56.448	-1.176	0.66925	-0.35776	0.47247	-0.44806	30.7	13111	100
2025-3-27 17:55:2.773	WT901BLE68-01(48591DE3C19B)	-0.303	-0.907	0.213	32.715	63.293	87.036	-63.29	32.56	-79.65	-53.998	-56.448	-1.176	0.66925	-0.35776	0.47247	-0.44806	30.7	13111	100
2025-3-27 17:55:2.803	WT901BLE68-01(48591DE3C19B)	-0.303	-1.011	0.220	27.832	33.630	84.473	-63.12	33.40	-79.81	-53.998	-56.448	-1.176	0.66925	-0.35776	0.47247	-0.44806	30.7	13111	100
2025-3-27 17:55:2.803	WT901BLE68-01(48591DE3C19B)	-0.252	-1.011	0.220	27.832	33.630	84.473	-62.90	34.16	-79.82	-53.998	-56.448	-1.176	0.66925	-0.35776	0.47247	-0.44806	30.7	13111	100
2025-3-27 17:55:2.803	WT901BLE68-01(48591DE3C19B)	-0.252	-0.988	0.231	23.621	7.019	82.581	-62.61	34.85	-79.67	-91.238	-43.610	7.252	0.66925	-0.35776	0.47247	-0.44806	30.7	13111	100
2025-3-27 17:55:2.803	WT901BLE68-01(48591DE3C19B)	-0.168	-0.988	0.231	23.621	7.019	82.581	-62.27	35.47	-79.39	-91.238	-43.610	7.252	0.66925	-0.35776	0.47247	-0.44806	30.7	13111	100
2025-3-27 17:55:2.861	WT901BLE68-01(48591DE3C19B)	-0.168	-0.937	0.237	16.846	-8.484	77.698	-61.91	36.04	-79.04	-91.238	-43.610	7.252	0.66925	-0.35776	0.47247	-0.44806	30.7	13111	100
2025-3-27 17:55:2.861	WT901BLE68-01(48591DE3C19B)	-0.121	-0.937	0.237	16.846	-8.484	77.698	-61.53	36.54	-78.60	-91.238	-43.610	7.252	0.66925	-0.35776	0.47247	-0.44806	30.7	13111	100
2025-3-27 17:55:2.861	WT901BLE68-01(48591DE3C19B)	-0.121	-0.908	0.255	8.545	-14.343	72.937	-61.19	36.99	-78.15	-91.238	-43.610	7.252	0.66925	-0.35776	0.47247	-0.44806	30.7	13111	100
2025-3-27 17:55:2.862	WT901BLE68-01(48591DE3C19B)	-0.078	-0.908	0.255	8.545	-14.343	72.937	-60.87	37.41	-77.67	-91.238	-43.610	7.252	0.66925	-0.35776	0.47247	-0.44806	30.7	13111	100
2025-3-27 17:55:2.890	WT901BLE68-01(48591DE3C19B)	-0.078	-0.889	0.265	2.563	-11.353	68.115	-60.60	37.80	-77.22	-91.238	-43.610	7.252	0.66925	-0.35776	0.47247	-0.44806	30.7	13111	100
2025-3-27 17:55:2.890	WT901BLE68-01(48591DE3C19B)	-0.020	-0.889	0.265	2.563	-11.353	68.115	-60.36	38.18	-76.81	-91.238	-43.610	7.252	0.66925	-0.35776	0.47247	-0.44806	30.7	13111	100
2025-3-27 17:55:2.890	WT901BLE68-01(48591DE3C19B)	-0.020	-0.814	0.250	-2.869	3.906	61.646	-60.22	38.56	-76.49	-91.238	-43.610	7.252	0.66925	-0.35776	0.47247	-0.44806	30.7	13111	100
2025-3-27 17:55:2.890	WT901BLE68-01(48591DE3C19B)	0.002	-0.814	0.250	-2.869	3.906	61.646	-60.17	38.95	-76.28	-91.238	-43.610	7.252	0.66925	-0.35776	0.47247	-0.44806	30.7	13111	100
2025-3-27 17:55:2.922	WT901BLE68-01(48591DE3C19B)	0.002	-0.743	0.218	-8.728	21.545	52.673	-60.22	39.33	-76.20	-91.238	-43.610	7.252	0.66925	-0.35776	0.47247	-0.44806	30.7	13111	100
2025-3-27 17:55:2.922	WT901BLE68-01(48591DE3C19B)	-0.037	-0.743	0.218	-8.728	21.545	52.673	-60.39	39.72	-76.25	-91.238	-43.610	7.252	0.66925	-0.35776	0.47247	-0.44806	30.7	13111	100
2025-3-27 17:55:2.922	WT901BLE68-01(48591DE3C19B)	-0.037	-0.715	0.197	-16.663	31.921	41.199	-60.65	40.07	-76.40	-91.238	-43.610	7.252	0.66925	-0.35776	0.47247	-0.44806	30.7	13111	100
2025-3-27 17:55:2.922	WT901BLE68-01(48591DE3C19B)	-0.076	-0.715	0.197	-16.663	31.921	41.199	-61.02	40.39	-76.64	-91.238	-43.610	7.252	0.66925	-0.35776	0.47247	-0.44806	30.7	13111	100
2025-3-27 17:55:2.983	WT901BLE68-01(48591DE3C19B)	-0.076	-0.757	0.210	-25.146	35.461	26.855	-61.47	40.66	-76.96	-91.238	-43.610	7.252	0.66925	-0.35776	0.47247	-0.44806	30.7	13111	100
2025-3-27 17:55:2.983	WT901BLE68-01(48591DE3C19B)	-0.130	-0.757	0.210	-25.146	35.461	26.855	-62.01	40.87	-77.34	-91.238	-43.610	7.252	0.66925	-0.35776	0.47247	-0.44806	30.7	13111	100
2025-3-27 17:55:2.983	WT901BLE68-01(48591DE3C19B)	-0.130	-0.866	0.208	-32.410	33.081	10.071	-62.62	41.00	-77.77	-91.238	-43.610	7.252	0.66925	-0.35776	0.47247	-0.44806	30.7	13111	100
2025-3-27 17:55:2.983	WT901BLE68-01(48591DE3C19B)	-0.171	-0.866	0.208	-32.410	33.081	10.071	-63.28	41.04	-78.22	-91.238	-43.610	7.252	0.66925	-0.35776	0.47247	-0.44806	30.7	13111	100
2025-3-27 17:55:3.13	WT901BLE68-01(48591DE3C19B)	-0.171	-1.008	0.182	-40.039	26.733	-10.376	-63.98	40.97	-78.71	-91.238	-43.610	7.252	0.66925	-0.35776	0.47247	-0.44806	30.7	13111	100
2025-3-27 17:55:3.13	WT901BLE68-01(48591DE3C19B)	-0.216	-1.008	0.182	-40.039	26.733	-10.376	-64.74	40.80	-79.21	-91.238	-43.610	7.252	0.66925	-0.35776	0.47247	-0.44806	30.7	13111	100
2025-3-27 17:55:3.13	WT901BLE68-01(48591DE3C19B)	-0.216	-1.172	0.188	-43.579	16.235	-34.546	-65.52	40.50	-79.70	-91.238	-43.610	7.252	0.66925	-0.35776	0.47247	-0.44806	30.7	13111	100
2025-3-27 17:55:3.13	WT901BLE68-01(48591DE3C19B)	-0.278	-1.172	0.188	-43.579	16.235	-34.546	-66.30	40.06	-80.19	-91.238	-43.610	7.252	0.72064	-0.21082	0.55103	-0.36398	30.7	13111	100
2025-3-27 17:55:3.43	WT901BLE68-01(48591DE3C19B)	-0.278	-1.188	0.247	-39.429	1.160	-57.129	-67.03	39.50	-80.63	-91.238	-43.610	7.252	0.72064	-0.21082	0.55103	-0.36398	30.7	13111	100
2025-3-27 17:55:3.43	WT901BLE68-01(48591DE3C19B)	-0.282	-1.188	0.247	-39.429	1.160	-57.129	-67.71	38.80	-81.02	-91.238	-43.610	7.252	0.72064	-0.21082	0.55103	-0.36398	30.7	13111	100
2025-3-27 17:55:3.43	WT901BLE68-01(48591DE3C19B)	-0.282	-1.014	0.327	-34.485	-13.611	-73.853	-68.31	38.00	-81.35	-91.238	-43.610	7.252	0.72064	-0.21082	0.55103	-0.36398	30.7	13111	100
2025-3-27 17:55:3.43	WT901BLE68-01(48591DE3C19B)	-0.229	-1.014	0.327	-34.485	-13.611	-73.853	-68.84	37.10	-81.62	-91.238	-43.610	7.252	0.72064	-0.21082	0.55103	-0.36398	30.7	13111	100
2025-3-27 17:55:3.131	WT901BLE68-01(48591DE3C19B)	-0.114	-0.897	0.358	-30.640	-18.738	-84.229	-69.33	36.16	-81.87	-91.238	-43.610	7.252	0.72064	-0.21082	0.55103	-0.36398	30.7	13111	100
2025-3-27 17:55:3.131	WT901BLE68-01(48591DE3C19B)	-0.188	-0.448	0.179	-30.640	-18.738	-84.229	-69.77	35.16	-82.10	-91.238	-43.610	7.252	0.72064	-0.21082	0.55103	-0.36398	30.7	13111	100
2025-3-27 17:55:3.131	WT901BLE68-01(48591DE3C19B)	-0.188	-0.843	0.330	-24.231	-9.399	-90.820	-70.21	34.15	-82.38	-91.238	-43.610	7.252	0.72064	-0.21082	0.55103	-0.36398	30.7	13111	100
2025-3-27 17:55:3.132	WT901BLE68-01(48591DE3C19B)	-0.146	-0.843	0.330	-24.231	-9.399	-90.820	-70.64	33.12	-82.72	-91.238	-43.610	7.252	0.72064	-0.21082	0.55103	-0.36398	30.7	13111	100
2025-3-27 17:55:3.133	WT901BLE68-01(48591DE3C19B)	-0.146	-0.869	0.255	-17.029	9.705	-104.431	-71.09	32.07	-83.17	-91.238	-43.610	7.252	0.72064	-0.21082	0.55103	-0.36398	30.7	13111	100
2025-3-27 17:55:3.133	WT901BLE68-01(48591DE3C19B)	-0.040	-0.869	0.255	-17.029	9.705	-104.431	-71.55	31.00	-83.74	-91.238	-43.610	7.252	0.72064	-0.21082	0.55103	-0.36398	30.7	13111	100
2025-3-27 17:55:3.133	WT901BLE68-01(48591DE3C19B)	-0.040	-0.980	0.163	-10.010	37.598	-121.033	-72.05	29.88	-84.48	-91.238	-43.610	7.252	0.72064	-0.21082	0.55103	-0.36398	30.7	13111	100
2025-3-27 17:55:3.133	WT901BLE68-01(48591DE3C19B)	-0.013	-0.980	0.163	-10.010	37.598	-121.033	-72.59	28.72	-85.37	-91.238	-43.610	7.252	0.72064	-0.21082	0.55103	-0.36398	30.7	13111	100
2025-3-27 17:55:3.163	WT901BLE68-01(48591DE3C19B)	-0.013	-1.110	0.093	-3.357	70.984	-139.282	-73.16	27.53	-86.44	-91.238	-43.610	7.252	0.72064	-0.21082	0.55103	-0.36398	30.7	13111	100
2025-3-27 17:55:3.163	WT901BLE68-01(48591DE3C19B)	-0.104	-1.110	0.093	-3.357	70.984	-139.282	-73.77	26.28	-87.69	-91.238	-43.610	7.252	0.72064	-0.21082	0.55103	-0.36398	30.7	13111	100
2025-3-27 17:55:3.163	WT901BLE68-01(48591DE3C19B)	-0.104	-1.228	0.087	4.700	98.633	-157.776	-74.37	24.98	-89.08	-91.238	-43.610	7.252	0.72064	-0.21082	0.55103	-0.36398	30.7	13111	100
2025-3-27 17:55:3.163	WT901BLE68-01(48591DE3C19B)	-0.189	-1.228	0.087	4.700	98.633	-157.776	-74.97	23.62	-90.60	-91.238	-43.610	7.252	0.72064	-0.21082	0.55103	-0.36398	30.7	13111	100
2025-3-27 17:55:3.220	WT901BLE68-01(48591DE3C19B)	-0.189	-1.279	0.123	14.648	123.962	-174.255	-75.54	22.20	-92.24	-91.238	-43.610	7.252	0.72064	-0.21082	0.55103	-0.36398	30.7	13111	100
2025-3-27 17:55:3.220	WT901BLE68-01(48591DE3C19B)	-0.269	-1.279	0.123	14.648	123.962	-174.255	-76.05	20.73	-93.99	-91.238	-43.610	7.252	0.72064	-0.21082	0.55103	-0.36398	30.7	13111	100
2025-3-27 17:55:3.220	WT901BLE68-01(48591DE3C19B)	-0.269	-1.280	0.145	19.653	151.367	-183.594	-76.55	19.24	-95.86	-91.238	-43.610	7.252	0.72064	-0.21082	0.55103	-0.36398	30.7	13111	100
2025-3-27 17:55:3.220	WT901BLE68-01(48591DE3C19B)	-0.366	-1.280	0.145	19.653	151.367	-183.594	-77.01	17.74	-97.84	-91.238	-43.610	7.252	0.72064	-0.21082	0.55103	-0.36398	30.7	13111	100
2025-3-27 17:55:3.251	WT901BLE68-01(48591DE3C19B)	-0.366	-1.299	0.168	24.780	171.875	-188.232	-77.42	16.23	-99.99	-82.614	-44.982	1.176	0.72064	-0.21082	0.55103	-0.36398	30.7	13111	100
2025-3-27 17:55:3.251	WT901BLE68-01(48591DE3C19B)	-0.437	-1.299	0.168	24.780	171.875	-188.232	-77.77	14.73	-102.12	-82.614	-44.982	1.176	0.72064	-0.21082	0.55103	-0.36398	30.7	13111	100
2025-3-27 17:55:3.251	WT901BLE68-01(48591DE3C19B)	-0.437	-1.299	0.189	28.870	176.941	-187.927	-78.03	13.24	-104.25	-82.614	-44.982	1.176	0.72064	-0.21082	0.55103	-0.36398	30.7	13111	100
2025-3-27 17:55:3.251	WT901BLE68-01(48591DE3C19B)	-0.491	-1.299	0.189	28.870	176.941	-187.927	-78.23	11.76	-106.36	-82.614	-44.982	1.176	0.72064	-0.21082	0.55103	-0.36398	30.7	13111	100
2025-3-27 17:55:3.310	WT901BLE68-01(48591DE3C19B)	-0.491	-1.307	0.215	32.043	160.828	-183.167	-78.31	10.30	-108.28	-82.614	-44.982	1.176	0.72064	-0.21082	0.55103	-0.36398	30.7	13111	100
2025-3-27 17:55:3.310	WT901BLE68-01(48591DE3C19B)	-0.499	-1.307	0.215	32.043	160.828	-183.167	-78.34	8.85	-110.18	-82.614	-44.982	1.176	0.72064	-0.21082	0.55103	-0.36398	30.7	13111	100
2025-3-27 17:55:3.310	WT901BLE68-01(48591DE3C19B)	-0.499	-1.292	0.231	33.569	128.906	-174.927	-78.25	7.44	-111.74	-82.614	-44.982	1.176	0.72064	-0.21082	0.55103	-0.36398	30.7	13111	100
2025-3-27 17:55:3.310	WT901BLE68-01(48591DE3C19B)	-0.466	-1.292	0.231	33.569	128.906	-174.927	-78.13	6.04	-113.28	-82.614	-44.982	1.176	0.72064	-0.21082	0.55103	-0.36398	30.7	13111	100
2025-3-27 17:55:3.371	WT901BLE68-01(48591DE3C19B)	-0.466	-1.281	0.181	32.776	96.252	-161.621	-77.95	4.71	-114.48	-82.614	-44.982	1.176	0.72064	-0.21082	0.55103	-0.36398	30.7	13111	100
2025-3-27 17:55:3.371	WT901BLE68-01(48591DE3C19B)	-0.446	-1.281	0.181	32.776	96.252	-161.621	-77.74	3.41	-115.67	-82.614	-44.982	1.176	0.72064	-0.21082	0.55103	-0.36398	30.7	13111	100
2025-3-27 17:55:3.371	WT901BLE68-01(48591DE3C19B)	-0.446	-1.239	0.114	30.884	67.688	-145.142	-77.51	2.21	-116.54	-82.614	-44.982	1.176	0.72064	-0.21082	0.55103	-0.36398	30.7	13111	100
2025-3-27 17:55:3.371	WT901BLE68-01(48591DE3C19B)	-0.424	-1.239	0.114	30.884	67.688	-145.142	-77.27	1.03	-117.42	-82.614	-44.982	1.176	0.72064	-0.21082	0.55103	-0.36398	30.7	13111	100
2025-3-27 17:55:3.372	WT901BLE68-01(48591DE3C19B)	-0.424	-1.181	0.096	27.039	40.039	-129.517	-77.05	-0.04	-117.99	-82.614	-44.982	1.176	0.72064	-0.21082	0.55103	-0.36398	30.7	13111	100
2025-3-27 17:55:3.372	WT901BLE68-01(48591DE3C19B)	-0.369	-1.181	0.096	27.039	40.039	-129.517	-76.82	-1.12	-118.56	-82.614	-44.982	1.176	0.72064	-0.21082	0.55103	-0.36398	30.7	13111	100
2025-3-27 17:55:3.372	WT901BLE68-01(48591DE3C19B)	-0.369	-1.157	0.120	22.827	22.217	-115.723	-76.64	-2.08	-118.93	-82.614	-44.982	1.176	0.72064	-0.21082	0.55103	-0.36398	30.7	13111	100
2025-3-27 17:55:3.372	WT901BLE68-01(48591DE3C19B)	-0.346	-1.157	0.120	22.827	22.217	-115.723	-76.44	-3.04	-119.30	-82.614	-44.982	1.176	0.72064	-0.21082	0.55103	-0.36398	30.7	13111	100
2025-3-27 17:55:3.401	WT901BLE68-01(48591DE3C19B)	-0.346	-1.143	0.148	20.935	15.686	-104.919	-76.26	-3.91	-119.59	-82.614	-44.982	1.176	0.72064	-0.21082	0.55103	-0.36398	30.7	13111	100
2025-3-27 17:55:3.401	WT901BLE68-01(48591DE3C19B)	-0.370	-1.143	0.148	20.935	15.686	-104.919	-76.08	-4.77	-119.87	-82.614	-44.982	1.176	0.72064	-0.21082	0.55103	-0.36398	30.7	13111	100
2025-3-27 17:55:3.401	WT901BLE68-01(48591DE3C19B)	-0.370	-1.143	0.158	21.362	14.648	-97.534	-75.90	-5.55	-120.13	-82.614	-44.982	1.176	0.72064	-0.21082	0.55103	-0.36398	30.7	13111	100
2025-3-27 17:55:3.402	WT901BLE68-01(48591DE3C19B)	-0.390	-1.143	0.158	21.362	14.648	-97.534	-75.71	-6.33	-120.39	-82.614	-44.982	1.176	0.72064	-0.21082	0.55103	-0.36398	30.7	13111	100
2025-3-27 17:55:3.461	WT901BLE68-01(48591DE3C19B)	-0.390	-1.131	0.167	23.376	14.282	-92.896	-75.49	-7.06	-120.65	-82.614	-44.982	1.176	0.72064	-0.21082	0.55103	-0.36398	30.7	13111	100
2025-3-27 17:55:3.461	WT901BLE68-01(48591DE3C19B)	-0.409	-1.131	0.167	23.376	14.282	-92.896	-75.28	-7.78	-120.90	-82.614	-44.982	1.176	0.35352	-0.34723	0.50351	-0.70770	30.7	13111	100
2025-3-27 17:55:3.461	WT901BLE68-01(48591DE3C19B)	-0.409	-1.127	0.147	24.414	13.184	-89.111	-75.05	-8.46	-121.14	-82.614	-44.982	1.176	0.35352	-0.34723	0.50351	-0.70770	30.7	13111	100
2025-3-27 17:55:3.461	WT901BLE68-01(48591DE3C19B)	-0.410	-1.127	0.147	24.414	13.184	-89.111	-74.82	-9.14	-121.38	-82.614	-44.982	1.176	0.35352	-0.34723	0.50351	-0.70770	30.7	13111	100
2025-3-27 17:55:3.490	WT901BLE68-01(48591DE3C19B)	-0.410	-1.125	0.127	26.001	11.597	-86.426	-74.58	-9.79	-121.60	-82.614	-44.982	1.176	0.35352	-0.34723	0.50351	-0.70770	30.7	13111	100
2025-3-27 17:55:3.490	WT901BLE68-01(48591DE3C19B)	-0.414	-1.125	0.127	26.001	11.597	-86.426	-74.34	-10.43	-121.82	-82.614	-44.982	1.176	0.35352	-0.34723	0.50351	-0.70770	30.7	13111	100
2025-3-27 17:55:3.490	WT901BLE68-01(48591DE3C19B)	-0.414	-1.103	0.127	27.588	6.897	-83.801	-74.09	-11.06	-121.99	-82.614	-44.982	1.176	0.35352	-0.34723	0.50351	-0.70770	30.7	13111	100
2025-3-27 17:55:3.490	WT901BLE68-01(48591DE3C19B)	-0.417	-1.103	0.127	27.588	6.897	-83.801	-73.83	-11.67	-122.16	-82.614	-44.982	1.176	0.35352	-0.34723	0.50351	-0.70770	30.7	13111	100
2025-3-27 17:55:3.552	WT901BLE68-01(48591DE3C19B)	-0.417	-1.048	0.152	27.832	-0.610	-80.078	-73.60	-12.27	-122.26	-82.614	-44.982	1.176	0.35352	-0.34723	0.50351	-0.70770	30.7	13111	100
2025-3-27 17:55:3.552	WT901BLE68-01(48591DE3C19B)	-0.377	-1.048	0.152	27.832	-0.610	-80.078	-73.36	-12.86	-122.35	-82.614	-44.982	1.176	0.35352	-0.34723	0.50351	-0.70770	30.7	13111	100
2025-3-27 17:55:3.552	WT901BLE68-01(48591DE3C19B)	-0.377	-0.968	0.194	27.222	0.488	-74.036	-73.12	-13.39	-122.44	-82.614	-44.982	1.176	0.35352	-0.34723	0.50351	-0.70770	30.7	13111	100
2025-3-27 17:55:3.552	WT901BLE68-01(48591DE3C19B)	-0.348	-0.968	0.194	27.222	0.488	-74.036	-72.88	-13.91	-122.55	-82.614	-44.982	1.176	0.35352	-0.34723	0.50351	-0.70770	30.7	13111	100
2025-3-27 17:55:3.581	WT901BLE68-01(48591DE3C19B)	-0.348	-0.885	0.200	25.757	11.719	-63.660	-72.64	-14.30	-122.73	-82.614	-44.982	1.176	0.35352	-0.34723	0.50351	-0.70770	30.7	13111	100
2025-3-27 17:55:3.581	WT901BLE68-01(48591DE3C19B)	-0.315	-0.885	0.200	25.757	11.719	-63.660	-72.38	-14.68	-122.93	-82.614	-44.982	1.176	0.35352	-0.34723	0.50351	-0.70770	30.7	13111	100
2025-3-27 17:55:3.581	WT901BLE68-01(48591DE3C19B)	-0.315	-0.801	0.183	23.682	26.428	-51.819	-72.13	-14.89	-123.23	-82.614	-44.982	1.176	0.35352	-0.34723	0.50351	-0.70770	30.7	13111	100
2025-3-27 17:55:3.581	WT901BLE68-01(48591DE3C19B)	-0.309	-0.801	0.183	23.682	26.428	-51.819	-71.86	-15.11	-123.54	-82.614	-44.982	1.176	0.35352	-0.34723	0.50351	-0.70770	30.7	13111	100
2025-3-27 17:55:3.610	WT901BLE68-01(48591DE3C19B)	-0.309	-0.776	0.184	19.653	40.222	-39.185	-71.61	-15.16	-123.95	-82.614	-44.982	1.176	0.35352	-0.34723	0.50351	-0.70770	30.7	13111	100
2025-3-27 17:55:3.610	WT901BLE68-01(48591DE3C19B)	-0.328	-0.776	0.184	19.653	40.222	-39.185	-71.36	-15.20	-124.35	-82.614	-44.982	1.176	0.35352	-0.34723	0.50351	-0.70770	30.7	13111	100
2025-3-27 17:55:3.610	WT901BLE68-01(48591DE3C19B)	-0.328	-0.877	0.200	15.381	49.744	-25.757	-71.14	-15.08	-124.82	-82.614	-44.982	1.176	0.35352	-0.34723	0.50351	-0.70770	30.7	13111	100
2025-3-27 17:55:3.610	WT901BLE68-01(48591DE3C19B)	-0.341	-0.877	0.200	15.381	49.744	-25.757	-70.92	-14.97	-125.28	-48.608	-57.330	1.078	0.35352	-0.34723	0.50351	-0.70770	30.7	13111	100
2025-3-27 17:55:3.640	WT901BLE68-01(48591DE3C19B)	-0.341	-0.982	0.154	16.235	55.359	-12.634	-70.69	-14.71	-125.74	-48.608	-57.330	1.078	0.35352	-0.34723	0.50351	-0.70770	30.7	13111	100
2025-3-27 17:55:3.641	WT901BLE68-01(48591DE3C19B)	-0.363	-0.982	0.154	16.235	55.359	-12.634	-70.47	-14.45	-126.21	-48.608	-57.330	1.078	0.35352	-0.34723	0.50351	-0.70770	30.7	13111	100
2025-3-27 17:55:3.641	WT901BLE68-01(48591DE3C19B)	-0.363	-1.141	0.083	8.545	58.350	-1.831	-70.33	-14.08	-126.65	-48.608	-57.330	1.078	0.35352	-0.34723	0.50351	-0.70770	30.7	13111	100
2025-3-27 17:55:3.641	WT901BLE68-01(48591DE3C19B)	-0.422	-1.141	0.083	8.545	58.350	-1.831	-70.21	-13.72	-127.08	-48.608	-57.330	1.078	0.35352	-0.34723	0.50351	-0.70770	30.7	13111	100
2025-3-27 17:55:3.701	WT901BLE68-01(48591DE3C19B)	-0.422	-1.444	0.057	2.319	55.786	6.775	-70.18	-13.29	-127.44	-48.608	-57.330	1.078	0.35352	-0.34723	0.50351	-0.70770	30.7	13111	100
2025-3-27 17:55:3.701	WT901BLE68-01(48591DE3C19B)	-0.492	-1.444	0.057	2.319	55.786	6.775	-70.15	-12.88	-127.78	-48.608	-57.330	1.078	0.35352	-0.34723	0.50351	-0.70770	30.7	13111	100
2025-3-27 17:55:3.701	WT901BLE68-01(48591DE3C19B)	-0.460	-1.441	0.119	8.606	44.373	16.296	-70.10	-12.41	-127.97	-48.608	-57.330	1.078	0.35352	-0.34723	0.50351	-0.70770	30.7	13111	100
2025-3-27 17:55:3.701	WT901BLE68-01(48591DE3C19B)	-0.460	-0.987	0.198	0.549	23.499	34.973	-70.13	-11.89	-128.02	-48.608	-57.330	1.078	0.35352	-0.34723	0.50351	-0.70770	30.7	13111	100
2025-3-27 17:55:3.731	WT901BLE68-01(48591DE3C19B)	-0.388	-0.987	0.198	0.549	23.499	34.973	-70.22	-11.33	-127.95	-48.608	-57.330	1.078	0.35352	-0.34723	0.50351	-0.70770	30.7	13111	100
2025-3-27 17:55:3.731	WT901BLE68-01(48591DE3C19B)	-0.388	-0.691	0.257	-18.433	3.906	57.007	-70.42	-10.68	-127.75	-48.608	-57.330	1.078	0.35352	-0.34723	0.50351	-0.70770	30.7	13111	100
2025-3-27 17:55:3.731	WT901BLE68-01(48591DE3C19B)	-0.365	-0.691	0.257	-18.433	3.906	57.007	-70.74	-9.96	-127.45	-48.608	-57.330	1.078	0.35352	-0.34723	0.50351	-0.70770	30.7	13111	100
2025-3-27 17:55:3.731	WT901BLE68-01(48591DE3C19B)	-0.365	-0.630	0.295	-36.133	-18.311	78.186	-71.14	-9.18	-127.03	-48.608	-57.330	1.078	0.35352	-0.34723	0.50351	-0.70770	30.7	13111	100
2025-3-27 17:55:3.760	WT901BLE68-01(48591DE3C19B)	-0.354	-0.630	0.295	-36.133	-18.311	78.186	-71.64	-8.33	-126.50	-48.608	-57.330	1.078	0.35352	-0.34723	0.50351	-0.70770	30.7	13111	100
2025-3-27 17:55:3.760	WT901BLE68-01(48591DE3C19B)	-0.354	-0.636	0.312	-44.800	-46.814	98.083	-72.19	-7.42	-125.83	-48.608	-57.330	1.078	0.35352	-0.34723	0.50351	-0.70770	30.7	13111	100
2025-3-27 17:55:3.761	WT901BLE68-01(48591DE3C19B)	-0.334	-0.636	0.312	-44.800	-46.814	98.083	-72.76	-6.45	-125.02	-48.608	-57.330	1.078	0.35352	-0.34723	0.50351	-0.70770	30.7	13111	100
2025-3-27 17:55:3.761	WT901BLE68-01(48591DE3C19B)	-0.334	-0.660	0.319	-50.354	-79.346	115.234	-73.36	-5.45	-124.06	-48.608	-57.330	1.078	0.35352	-0.34723	0.50351	-0.70770	30.7	13111	100
2025-3-27 17:55:3.821	WT901BLE68-01(48591DE3C19B)	-0.330	-0.660	0.319	-50.354	-79.346	115.234	-73.98	-4.41	-122.95	-48.608	-57.330	1.078	0.35352	-0.34723	0.50351	-0.70770	30.7	13111	100
2025-3-27 17:55:3.821	WT901BLE68-01(48591DE3C19B)	-0.330	-0.788	0.294	-52.612	-111.755	127.319	-74.58	-3.33	-121.70	-48.608	-57.330	1.078	0.35352	-0.34723	0.50351	-0.70770	30.7	13111	100
2025-3-27 17:55:3.821	WT901BLE68-01(48591DE3C19B)	-0.282	-0.788	0.294	-52.612	-111.755	127.319	-75.16	-2.25	-120.29	-48.608	-57.330	1.078	0.35352	-0.34723	0.50351	-0.70770	30.7	13111	100
2025-3-27 17:55:3.821	WT901BLE68-01(48591DE3C19B)	-0.282	-0.929	0.216	-48.035	-135.376	136.719	-75.70	-1.14	-118.77	-48.608	-57.330	1.078	0.35352	-0.34723	0.50351	-0.70770	30.7	13111	100
2025-3-27 17:55:3.850	WT901BLE68-01(48591DE3C19B)	-0.187	-0.929	0.216	-48.035	-135.376	136.719	-76.19	-0.01	-117.13	-48.608	-57.330	1.078	0.41034	-0.32178	0.52637	-0.67148	30.7	13111	100
2025-3-27 17:55:3.851	WT901BLE68-01(48591DE3C19B)	-0.187	-1.060	0.135	-42.603	-143.066	143.250	-76.61	1.14	-115.46	-48.608	-57.330	1.078	0.41034	-0.32178	0.52637	-0.67148	30.7	13111	100
2025-3-27 17:55:3.851	WT901BLE68-01(48591DE3C19B)	-0.120	-1.060	0.135	-42.603	-143.066	143.250	-76.98	2.32	-113.73	-48.608	-57.330	1.078	0.41034	-0.32178	0.52637	-0.67148	30.7	13111	100
2025-3-27 17:55:3.851	WT901BLE68-01(48591DE3C19B)	-0.120	-1.180	0.097	-33.997	-141.724	144.226	-77.28	3.50	-112.01	-48.608	-57.330	1.078	0.41034	-0.32178	0.52637	-0.67148	30.7	13111	100
2025-3-27 17:55:3.911	WT901BLE68-01(48591DE3C19B)	-0.158	-1.180	0.097	-33.997	-141.724	144.226	-77.50	4.67	-110.29	-48.608	-57.330	1.078	0.41034	-0.32178	0.52637	-0.67148	30.7	13111	100
2025-3-27 17:55:3.911	WT901BLE68-01(48591DE3C19B)	-0.158	-1.289	0.188	-24.963	-145.142	142.212	-77.64	5.83	-108.55	-48.608	-57.330	1.078	0.41034	-0.32178	0.52637	-0.67148	30.7	13111	100
2025-3-27 17:55:3.911	WT901BLE68-01(48591DE3C19B)	-0.172	-1.289	0.188	-24.963	-145.142	142.212	-77.71	6.95	-106.80	-48.608	-57.330	1.078	0.41034	-0.32178	0.52637	-0.67148	30.7	13111	100
2025-3-27 17:55:3.911	WT901BLE68-01(48591DE3C19B)	-0.172	-1.518	0.295	-19.897	-159.058	140.564	-77.70	8.05	-104.99	-48.608	-57.330	1.078	0.41034	-0.32178	0.52637	-0.67148	30.7	13111	100
2025-3-27 17:55:3.971	WT901BLE68-01(48591DE3C19B)	-0.030	-1.518	0.295	-19.897	-159.058	140.564	-77.63	9.11	-103.10	-48.608	-57.330	1.078	0.41034	-0.32178	0.52637	-0.67148	30.7	13111	100
2025-3-27 17:55:3.971	WT901BLE68-01(48591DE3C19B)	-0.030	-1.527	0.363	-1.953	-162.659	141.724	-77.43	10.15	-101.20	-48.608	-57.330	1.078	0.41034	-0.32178	0.52637	-0.67148	30.7	13111	100
2025-3-27 17:55:3.972	WT901BLE68-01(48591DE3C19B)	0.042	-1.527	0.363	-1.953	-162.659	141.724	-77.10	11.17	-99.27	-48.608	-57.330	1.078	0.41034	-0.32178	0.52637	-0.67148	30.7	13111	100
2025-3-27 17:55:3.972	WT901BLE68-01(48591DE3C19B)	0.042	-1.313	0.376	7.080	-144.226	147.217	-76.71	12.22	-97.43	-48.608	-57.330	1.078	0.41034	-0.32178	0.52637	-0.67148	30.7	13111	100
2025-3-27 17:55:3.973	WT901BLE68-01(48591DE3C19B)	0.047	-1.313	0.376	7.080	-144.226	147.217	-76.25	13.28	-95.66	-48.608	-57.330	1.078	0.41034	-0.32178	0.52637	-0.67148	30.7	13111	100
2025-3-27 17:55:3.973	WT901BLE68-01(48591DE3C19B)	0.047	-1.108	0.349	9.033	-115.906	146.057	-75.78	14.35	-94.03	-48.608	-57.330	1.078	0.41034	-0.32178	0.52637	-0.67148	30.7	13111	100
2025-3-27 17:55:3.973	WT901BLE68-01(48591DE3C19B)	0.042	-1.108	0.349	9.033	-115.906	146.057	-75.31	15.42	-92.53	-48.608	-57.330	1.078	0.41034	-0.32178	0.52637	-0.67148	30.7	13111	100
2025-3-27 17:55:3.973	WT901BLE68-01(48591DE3C19B)	0.042	-0.944	0.358	11.597	-92.285	144.287	-74.83	16.49	-91.14	-48.608	-57.330	1.078	0.41034	-0.32178	0.52637	-0.67148	30.7	13111	100
2025-3-27 17:55:4.32	WT901BLE68-01(48591DE3C19B)	0.040	-0.944	0.358	11.597	-92.285	144.287	-74.34	17.56	-89.87	-48.608	-57.330	1.078	0.41034	-0.32178	0.52637	-0.67148	30.7	13111	100
2025-3-27 17:55:4.32	WT901BLE68-01(48591DE3C19B)	0.040	-1.007	0.375	9.216	-70.068	142.456	-73.87	18.64	-88.69	-48.608	-57.330	1.078	0.41034	-0.32178	0.52637	-0.67148	30.7	13111	100
2025-3-27 17:55:4.32	WT901BLE68-01(48591DE3C19B)	0.003	-1.007	0.375	9.216	-70.068	142.456	-73.42	19.71	-87.63	-48.608	-57.330	1.078	0.41034	-0.32178	0.52637	-0.67148	30.7	13111	100
2025-3-27 17:55:4.32	WT901BLE68-01(48591DE3C19B)	0.003	-1.045	0.364	23.071	-46.509	142.395	-72.92	20.80	-86.67	-48.608	-57.330	1.078	0.41034	-0.32178	0.52637	-0.67148	30.7	13111	100
2025-3-27 17:55:4.61	WT901BLE68-01(48591DE3C19B)	-0.022	-1.045	0.364	23.071	-46.509	142.395	-72.37	21.91	-85.81	-81.830	-49.098	2.548	0.41034	-0.32178	0.52637	-0.67148	30.7	13111	100
2025-3-27 17:55:4.61	WT901BLE68-01(48591DE3C19B)	-0.022	-0.907	0.348	31.311	-29.602	141.296	-71.79	23.03	-85.03	-81.830	-49.098	2.548	0.41034	-0.32178	0.52637	-0.67148	30.7	13111	100
2025-3-27 17:55:4.61	WT901BLE68-01(48591DE3C19B)	-0.068	-0.907	0.348	31.311	-29.602	141.296	-71.19	24.15	-84.32	-81.830	-49.098	2.548	0.41034	-0.32178	0.52637	-0.67148	30.7	13111	100
2025-3-27 17:55:4.61	WT901BLE68-01(48591DE3C19B)	-0.068	-0.854	0.360	33.997	-18.860	134.338	-70.58	25.24	-83.67	-81.830	-49.098	2.548	0.41034	-0.32178	0.52637	-0.67148	30.7	13111	100
2025-3-27 17:55:4.91	WT901BLE68-01(48591DE3C19B)	-0.132	-0.854	0.360	33.997	-18.860	134.338	-69.97	26.30	-83.06	-81.830	-49.098	2.548	0.41034	-0.32178	0.52637	-0.67148	30.7	13111	100
2025-3-27 17:55:4.91	WT901BLE68-01(48591DE3C19B)	-0.132	-0.898	0.379	32.837	-17.822	122.925	-69.36	27.31	-82.47	-81.830	-49.098	2.548	0.41034	-0.32178	0.52637	-0.67148	30.7	13111	100
2025-3-27 17:55:4.91	WT901BLE68-01(48591DE3C19B)	-0.120	-0.898	0.379	32.837	-17.822	122.925	-68.75	28.25	-81.89	-81.830	-49.098	2.548	0.41034	-0.32178	0.52637	-0.67148	30.7	13111	100
2025-3-27 17:55:4.91	WT901BLE68-01(48591DE3C19B)	-0.120	-1.034	0.375	34.363	-15.381	110.474	-68.14	29.12	-81.34	-81.830	-49.098	2.548	0.41034	-0.32178	0.52637	-0.67148	30.7	13111	100
2025-3-27 17:55:4.151	WT901BLE68-01(48591DE3C19B)	-0.108	-1.034	0.375	34.363	-15.381	110.474	-67.53	29.94	-80.80	-81.830	-49.098	2.548	0.41034	-0.32178	0.52637	-0.67148	30.7	13111	100
2025-3-27 17:55:4.151	WT901BLE68-01(48591DE3C19B)	-0.108	-1.017	0.328	41.626	-4.150	100.769	-66.91	30.72	-80.35	-81.830	-49.098	2.548	0.41034	-0.32178	0.52637	-0.67148	30.7	13111	100
2025-3-27 17:55:4.151	WT901BLE68-01(48591DE3C19B)	-0.122	-1.017	0.328	41.626	-4.150	100.769	-66.29	31.48	-79.95	-81.830	-49.098	2.548	0.41034	-0.32178	0.52637	-0.67148	30.7	13111	100
2025-3-27 17:55:4.152	WT901BLE68-01(48591DE3C19B)	-0.122	-0.978	0.285	37.842	2.991	93.323	-65.70	32.20	-79.61	-81.830	-49.098	2.548	0.41034	-0.32178	0.52637	-0.67148	30.7	13111	100
2025-3-27 17:55:4.219	WT901BLE68-01(48591DE3C19B)	-0.104	-0.978	0.285	37.842	2.991	93.323	-65.17	32.90	-79.30	-81.830	-49.098	2.548	0.41034	-0.32178	0.52637	-0.67148	30.7	13111	100
2025-3-27 17:55:4.219	WT901BLE68-01(48591DE3C19B)	-0.104	-0.984	0.282	35.950	10.376	85.815	-64.71	33.56	-79.11	-81.830	-49.098	2.548	0.41034	-0.32178	0.52637	-0.67148	30.7	13111	100
2025-3-27 17:55:4.219	WT901BLE68-01(48591DE3C19B)	-0.107	-0.984	0.282	35.950	10.376	85.815	-64.24	34.22	-78.90	-81.830	-49.098	2.548	0.41034	-0.32178	0.52637	-0.67148	30.7	13111	100
2025-3-27 17:55:4.220	WT901BLE68-01(48591DE3C19B)	-0.107	-0.866	0.307	34.058	21.729	79.773	-63.89	34.86	-78.84	-81.830	-49.098	2.548	0.41034	-0.32178	0.52637	-0.67148	30.7	13111	100
2025-3-27 17:55:4.220	WT901BLE68-01(48591DE3C19B)	-0.146	-0.866	0.307	34.058	21.729	79.773	-63.52	35.50	-78.78	-81.830	-49.098	2.548	0.41034	-0.32178	0.52637	-0.67148	30.7	13111	100
2025-3-27 17:55:4.220	WT901BLE68-01(48591DE3C19B)	-0.146	-0.765	0.308	26.001	28.992	73.669	-63.30	36.12	-78.83	-81.830	-49.098	2.548	0.41034	-0.32178	0.52637	-0.67148	30.7	13111	100
2025-3-27 17:55:4.220	WT901BLE68-01(48591DE3C19B)	-0.158	-0.765	0.308	26.001	28.992	73.669	-63.07	36.73	-78.88	-81.830	-49.098	2.548	0.41034	-0.32178	0.52637	-0.67148	30.7	13111	100
2025-3-27 17:55:4.220	WT901BLE68-01(48591DE3C19B)	-0.158	-0.756	0.271	18.005	32.959	65.491	-62.98	37.29	-79.00	-81.830	-49.098	2.548	0.41034	-0.32178	0.52637	-0.67148	30.7	13111	100
2025-3-27 17:55:4.270	WT901BLE68-01(48591DE3C19B)	-0.133	-0.756	0.271	18.005	32.959	65.491	-62.89	37.85	-79.13	-81.830	-49.098	2.548	0.41034	-0.32178	0.52637	-0.67148	30.7	13111	100
2025-3-27 17:55:4.271	WT901BLE68-01(48591DE3C19B)	-0.133	-0.786	0.221	12.756	41.870	54.321	-62.95	38.35	-79.43	-81.830	-49.098	2.548	0.72885	-0.19849	0.53204	-0.38232	30.7	13111	100
2025-3-27 17:55:4.271	WT901BLE68-01(48591DE3C19B)	-0.142	-0.786	0.221	12.756	41.870	54.321	-63.02	38.84	-79.72	-81.830	-49.098	2.548	0.72885	-0.19849	0.53204	-0.38232	30.7	13111	100
2025-3-27 17:55:4.271	WT901BLE68-01(48591DE3C19B)	-0.142	-0.853	0.161	6.409	56.580	39.368	-63.31	39.27	-80.27	-81.830	-49.098	2.548	0.72885	-0.19849	0.53204	-0.38232	30.7	13111	100
2025-3-27 17:55:4.300	WT901BLE68-01(48591DE3C19B)	-0.160	-0.853	0.161	6.409	56.580	39.368	-63.62	39.69	-80.83	-81.830	-49.098	2.548	0.72885	-0.19849	0.53204	-0.38232	30.7	13111	100
2025-3-27 17:55:4.300	WT901BLE68-01(48591DE3C19B)	-0.160	-1.027	0.107	0.122	70.862	14.954	-64.20	39.96	-81.69	-81.830	-49.098	2.548	0.72885	-0.19849	0.53204	-0.38232	30.7	13111	100
2025-3-27 17:55:4.300	WT901BLE68-01(48591DE3C19B)	-0.224	-1.027	0.107	0.122	70.862	14.954	-64.78	40.21	-82.56	-81.830	-49.098	2.548	0.72885	-0.19849	0.53204	-0.38232	30.7	13111	100
2025-3-27 17:55:4.300	WT901BLE68-01(48591DE3C19B)	-0.224	-1.229	0.100	2.502	79.834	-13.794	-65.52	40.24	-83.68	-81.830	-49.098	2.548	0.72885	-0.19849	0.53204	-0.38232	30.7	13111	100
2025-3-27 17:55:4.333	WT901BLE68-01(48591DE3C19B)	-0.330	-1.229	0.100	2.502	79.834	-13.794	-66.26	40.26	-84.81	-81.830	-49.098	2.548	0.72885	-0.19849	0.53204	-0.38232	30.7	13111	100
2025-3-27 17:55:4.333	WT901BLE68-01(48591DE3C19B)	-0.330	-1.193	0.130	15.381	79.590	-36.926	-66.95	40.06	-86.04	-81.830	-49.098	2.548	0.72885	-0.19849	0.53204	-0.38232	30.7	13111	100
2025-3-27 17:55:4.334	WT901BLE68-01(48591DE3C19B)	-0.351	-1.193	0.130	15.381	79.590	-36.926	-67.63	39.85	-87.26	-81.830	-49.098	2.548	0.72885	-0.19849	0.53204	-0.38232	30.7	13111	100
2025-3-27 17:55:4.334	WT901BLE68-01(48591DE3C19B)	-0.351	-1.049	0.153	19.714	71.411	-51.697	-68.23	39.47	-88.44	-81.830	-49.098	2.548	0.72885	-0.19849	0.53204	-0.38232	30.7	13111	100
2025-3-27 17:55:4.393	WT901BLE68-01(48591DE3C19B)	-0.302	-1.049	0.153	19.714	71.411	-51.697	-68.82	39.09	-89.60	-81.830	-49.098	2.548	0.72885	-0.19849	0.53204	-0.38232	30.7	13111	100
2025-3-27 17:55:4.393	WT901BLE68-01(48591DE3C19B)	-0.302	-1.047	0.131	22.705	68.115	-62.561	-69.36	38.59	-90.75	-81.830	-49.098	2.548	0.72885	-0.19849	0.53204	-0.38232	30.7	13111	100
2025-3-27 17:55:4.393	WT901BLE68-01(48591DE3C19B)	-0.273	-1.047	0.131	22.705	68.115	-62.561	-69.89	38.09	-91.88	-81.830	-49.098	2.548	0.72885	-0.19849	0.53204	-0.38232	30.7	13111	100
2025-3-27 17:55:4.393	WT901BLE68-01(48591DE3C19B)	-0.273	-1.083	0.074	29.236	71.289	-68.848	-70.37	37.54	-93.06	-81.830	-49.098	2.548	0.72885	-0.19849	0.53204	-0.38232	30.7	13111	100
2025-3-27 17:55:4.423	WT901BLE68-01(48591DE3C19B)	-0.227	-1.083	0.074	29.236	71.289	-68.848	-70.84	36.98	-94.22	-81.830	-49.098	2.548	0.72885	-0.19849	0.53204	-0.38232	30.7	13111	100
2025-3-27 17:55:4.423	WT901BLE68-01(48591DE3C19B)	-0.227	-1.104	-0.016	34.912	69.885	-75.256	-71.24	36.35	-95.36	-81.830	-49.098	2.548	0.72885	-0.19849	0.53204	-0.38232	30.7	13111	100
2025-3-27 17:55:4.424	WT901BLE68-01(48591DE3C19B)	-0.146	-1.104	-0.016	34.912	69.885	-75.256	-71.62	35.73	-96.48	-81.830	-49.098	2.548	0.72885	-0.19849	0.53204	-0.38232	30.7	13111	100
2025-3-27 17:55:4.424	WT901BLE68-01(48591DE3C19B)	-0.146	-1.066	-0.061	38.452	68.481	-81.177	-71.95	35.03	-97.59	-82.516	-43.022	-0.882	0.72885	-0.19849	0.53204	-0.38232	30.7	13111	100
2025-3-27 17:55:4.453	WT901BLE68-01(48591DE3C19B)	-0.106	-1.066	-0.061	38.452	68.481	-81.177	-72.27	34.33	-98.67	-82.516	-43.022	-0.882	0.72885	-0.19849	0.53204	-0.38232	30.7	13111	100
2025-3-27 17:55:4.453	WT901BLE68-01(48591DE3C19B)	-0.106	-0.989	-0.044	35.217	83.435	-89.722	-72.72	33.59	-99.93	-82.516	-43.022	-0.882	0.72885	-0.19849	0.53204	-0.38232	30.7	13111	100
2025-3-27 17:55:4.453	WT901BLE68-01(48591DE3C19B)	-0.169	-0.989	-0.044	35.217	83.435	-89.722	-73.14	32.84	-101.17	-82.516	-43.022	-0.882	0.72885	-0.19849	0.53204	-0.38232	30.7	13111	100
2025-3-27 17:55:4.453	WT901BLE68-01(48591DE3C19B)	-0.169	-0.970	-0.029	27.161	105.774	-100.098	-73.77	32.05	-102.67	-82.516	-43.022	-0.882	0.72885	-0.19849	0.53204	-0.38232	30.7	13111	100
2025-3-27 17:55:4.511	WT901BLE68-01(48591DE3C19B)	-0.289	-0.970	-0.029	27.161	105.774	-100.098	-74.37	31.25	-104.13	-82.516	-43.022	-0.882	0.72885	-0.19849	0.53204	-0.38232	30.7	13111	100
2025-3-27 17:55:4.511	WT901BLE68-01(48591DE3C19B)	-0.289	-0.967	0.005	20.203	116.760	-109.558	-75.08	30.38	-105.72	-82.516	-43.022	-0.882	0.72885	-0.19849	0.53204	-0.38232	30.7	13111	100
2025-3-27 17:55:4.511	WT901BLE68-01(48591DE3C19B)	-0.340	-0.967	0.005	20.203	116.760	-109.558	-75.75	29.49	-107.27	-82.516	-43.022	-0.882	0.72885	-0.19849	0.53204	-0.38232	30.7	13111	100
2025-3-27 17:55:4.511	WT901BLE68-01(48591DE3C19B)	-0.340	-0.955	0.076	14.832	112.915	-120.605	-76.43	28.49	-108.78	-82.516	-43.022	-0.882	0.72885	-0.19849	0.53204	-0.38232	30.7	13111	100
2025-3-27 17:55:4.540	WT901BLE68-01(48591DE3C19B)	-0.362	-0.955	0.076	14.832	112.915	-120.605	-77.06	27.48	-110.25	-82.516	-43.022	-0.882	0.72885	-0.19849	0.53204	-0.38232	30.7	13111	100
2025-3-27 17:55:4.541	WT901BLE68-01(48591DE3C19B)	-0.362	-0.945	0.146	8.423	98.877	-130.798	-77.66	26.33	-111.56	-82.516	-43.022	-0.882	0.72885	-0.19849	0.53204	-0.38232	30.7	13111	100
2025-3-27 17:55:4.541	WT901BLE68-01(48591DE3C19B)	-0.417	-0.945	0.146	8.423	98.877	-130.798	-78.22	25.19	-112.84	-82.516	-43.022	-0.882	0.72885	-0.19849	0.53204	-0.38232	30.7	13111	100
2025-3-27 17:55:4.541	WT901BLE68-01(48591DE3C19B)	-0.417	-0.980	0.171	3.235	73.853	-141.602	-78.68	23.90	-113.85	-82.516	-43.022	-0.882	0.72885	-0.19849	0.53204	-0.38232	30.7	13111	100
2025-3-27 17:55:4.570	WT901BLE68-01(48591DE3C19B)	-0.464	-0.980	0.171	3.235	73.853	-141.602	-79.11	22.60	-114.83	-82.516	-43.022	-0.882	0.72885	-0.19849	0.53204	-0.38232	30.7	13111	100
2025-3-27 17:55:4.570	WT901BLE68-01(48591DE3C19B)	-0.464	-1.025	0.156	-1.038	36.865	-151.672	-79.40	21.14	-115.43	-82.516	-43.022	-0.882	0.72885	-0.19849	0.53204	-0.38232	30.7	13111	100
2025-3-27 17:55:4.570	WT901BLE68-01(48591DE3C19B)	-0.468	-1.025	0.156	-1.038	36.865	-151.672	-79.68	19.70	-116.01	-82.516	-43.022	-0.882	0.72885	-0.19849	0.53204	-0.38232	30.7	13111	100
2025-3-27 17:55:4.570	WT901BLE68-01(48591DE3C19B)	-0.468	-1.072	0.134	-4.700	-5.493	-159.973	-79.83	18.11	-116.16	-82.516	-43.022	-0.882	0.72885	-0.19849	0.53204	-0.38232	30.7	13111	100
2025-3-27 17:55:4.661	WT901BLE68-01(48591DE3C19B)	-0.426	-1.072	0.134	-4.700	-5.493	-159.973	-79.97	16.53	-116.30	-82.516	-43.022	-0.882	0.72885	-0.19849	0.53204	-0.38232	30.7	13111	100
2025-3-27 17:55:4.661	WT901BLE68-01(48591DE3C19B)	-0.402	-1.087	0.116	-6.531	-41.260	-164.917	-80.04	14.86	-116.09	-82.516	-43.022	-0.882	0.72885	-0.19849	0.53204	-0.38232	30.7	13111	100
2025-3-27 17:55:4.661	WT901BLE68-01(48591DE3C19B)	-0.402	-1.083	0.100	-10.010	-68.726	-166.809	-80.08	13.16	-115.74	-82.516	-43.022	-0.882	0.72885	-0.19849	0.53204	-0.38232	30.7	13111	100
2025-3-27 17:55:4.661	WT901BLE68-01(48591DE3C19B)	-0.390	-1.083	0.100	-10.010	-68.726	-166.809	-80.13	11.44	-115.25	-82.516	-43.022	-0.882	0.72885	-0.19849	0.53204	-0.38232	30.7	13111	100
2025-3-27 17:55:4.662	WT901BLE68-01(48591DE3C19B)	-0.390	-1.096	0.112	-14.282	-89.050	-167.297	-80.19	9.72	-114.67	-82.516	-43.022	-0.882	0.45728	-0.29178	0.57520	-0.61221	30.7	13111	100
2025-3-27 17:55:4.662	WT901BLE68-01(48591DE3C19B)	-0.381	-1.096	0.112	-14.282	-89.050	-167.297	-80.27	7.98	-113.99	-82.516	-43.022	-0.882	0.45728	-0.29178	0.57520	-0.61221	30.7	13111	100
2025-3-27 17:55:4.662	WT901BLE68-01(48591DE3C19B)	-0.381	-1.131	0.160	-17.578	-101.135	-165.894	-80.38	6.25	-113.26	-82.516	-43.022	-0.882	0.45728	-0.29178	0.57520	-0.61221	30.7	13111	100
2025-3-27 17:55:4.662	WT901BLE68-01(48591DE3C19B)	-0.370	-1.131	0.160	-17.578	-101.135	-165.894	-80.51	4.53	-112.47	-82.516	-43.022	-0.882	0.45728	-0.29178	0.57520	-0.61221	30.7	13111	100
2025-3-27 17:55:4.690	WT901BLE68-01(48591DE3C19B)	-0.370	-1.184	0.212	-18.860	-103.821	-163.025	-80.67	2.83	-111.66	-82.516	-43.022	-0.882	0.45728	-0.29178	0.57520	-0.61221	30.7	13111	100
2025-3-27 17:55:4.690	WT901BLE68-01(48591DE3C19B)	-0.338	-1.184	0.212	-18.860	-103.821	-163.025	-80.86	1.16	-110.84	-82.516	-43.022	-0.882	0.45728	-0.29178	0.57520	-0.61221	30.7	13111	100
2025-3-27 17:55:4.690	WT901BLE68-01(48591DE3C19B)	-0.338	-1.228	0.242	-16.663	-94.238	-156.433	-81.05	-0.46	-110.07	-82.516	-43.022	-0.882	0.45728	-0.29178	0.57520	-0.61221	30.7	13111	100
2025-3-27 17:55:4.690	WT901BLE68-01(48591DE3C19B)	-0.308	-1.228	0.242	-16.663	-94.238	-156.433	-81.24	-2.03	-109.34	-82.516	-43.022	-0.882	0.45728	-0.29178	0.57520	-0.61221	30.7	13111	100
2025-3-27 17:55:4.781	WT901BLE68-01(48591DE3C19B)	-0.308	-1.217	0.236	-12.329	-70.984	-146.362	-81.43	-3.52	-108.72	-82.516	-43.022	-0.882	0.45728	-0.29178	0.57520	-0.61221	30.7	13111	100
2025-3-27 17:55:4.781	WT901BLE68-01(48591DE3C19B)	-0.280	-1.217	0.236	-12.329	-70.984	-146.362	-81.60	-4.94	-108.20	-82.516	-43.022	-0.882	0.45728	-0.29178	0.57520	-0.61221	30.7	13111	100
2025-3-27 17:55:4.782	WT901BLE68-01(48591DE3C19B)	-0.280	-1.155	0.217	-7.446	-39.001	-134.155	-81.73	-6.27	-107.83	-82.516	-43.022	-0.882	0.45728	-0.29178	0.57520	-0.61221	30.7	13111	100
2025-3-27 17:55:4.782	WT901BLE68-01(48591DE3C19B)	-0.247	-1.155	0.217	-7.446	-39.001	-134.155	-81.83	-7.51	-107.62	-82.516	-43.022	-0.882	0.45728	-0.29178	0.57520	-0.61221	30.7	13111	100
2025-3-27 17:55:4.783	WT901BLE68-01(48591DE3C19B)	-0.247	-1.076	0.207	-4.028	-2.014	-117.249	-81.89	-8.64	-107.57	-82.516	-43.022	-0.882	0.45728	-0.29178	0.57520	-0.61221	30.7	13111	100
2025-3-27 17:55:4.783	WT901BLE68-01(48591DE3C19B)	-0.234	-1.076	0.207	-4.028	-2.014	-117.249	-81.90	-9.65	-107.69	-82.516	-43.022	-0.882	0.45728	-0.29178	0.57520	-0.61221	30.7	13111	100
2025-3-27 17:55:4.783	WT901BLE68-01(48591DE3C19B)	-0.234	-1.035	0.214	-1.648	32.959	-98.083	-81.88	-10.54	-107.98	-82.516	-43.022	-0.882	0.45728	-0.29178	0.57520	-0.61221	30.7	13111	100
2025-3-27 17:55:4.783	WT901BLE68-01(48591DE3C19B)	-0.253	-1.035	0.214	-1.648	32.959	-98.083	-81.80	-11.30	-108.44	-82.516	-43.022	-0.882	0.45728	-0.29178	0.57520	-0.61221	30.7	13111	100
2025-3-27 17:55:4.841	WT901BLE68-01(48591DE3C19B)	-0.253	-1.065	0.228	0.183	58.716	-77.698	-81.68	-11.94	-109.01	-82.516	-43.022	-0.882	0.45728	-0.29178	0.57520	-0.61221	30.7	13111	100
2025-3-27 17:55:4.841	WT901BLE68-01(48591DE3C19B)	-0.304	-1.065	0.228	0.183	58.716	-77.698	-81.52	-12.46	-109.70	-82.516	-43.022	-0.882	0.45728	-0.29178	0.57520	-0.61221	30.7	13111	100
2025-3-27 17:55:4.841	WT901BLE68-01(48591DE3C19B)	-0.304	-1.130	0.222	2.930	72.998	-57.678	-81.34	-12.87	-110.44	-82.516	-43.022	-0.882	0.45728	-0.29178	0.57520	-0.61221	30.7	13111	100
2025-3-27 17:55:4.842	WT901BLE68-01(48591DE3C19B)	-0.346	-1.130	0.222	2.930	72.998	-57.678	-81.12	-13.16	-111.24	-82.516	-43.022	-0.882	0.45728	-0.29178	0.57520	-0.61221	30.7	13111	100
2025-3-27 17:55:4.870	WT901BLE68-01(48591DE3C19B)	-0.346	-1.174	0.228	7.568	83.862	-39.734	-80.86	-13.35	-112.09	-82.516	-43.022	-0.882	0.45728	-0.29178	0.57520	-0.61221	30.7	13111	100
2025-3-27 17:55:4.870	WT901BLE68-01(48591DE3C19B)	-0.384	-1.174	0.228	7.568	83.862	-39.734	-80.58	-13.44	-112.97	-58.604	-52.724	-3.724	0.45728	-0.29178	0.57520	-0.61221	30.7	13111	100
2025-3-27 17:55:4.870	WT901BLE68-01(48591DE3C19B)	-0.384	-1.193	0.228	11.902	88.501	-22.522	-80.27	-13.43	-113.86	-58.604	-52.724	-3.724	0.45728	-0.29178	0.57520	-0.61221	30.7	13111	100
2025-3-27 17:55:4.870	WT901BLE68-01(48591DE3C19B)	-0.399	-1.193	0.228	11.902	88.501	-22.522	-79.94	-13.33	-114.75	-58.604	-52.724	-3.724	0.45728	-0.29178	0.57520	-0.61221	30.7	13111	100
2025-3-27 17:55:4.900	WT901BLE68-01(48591DE3C19B)	-0.399	-1.126	0.209	17.029	85.999	-7.690	-79.60	-13.15	-115.61	-58.604	-52.724	-3.724	0.45728	-0.29178	0.57520	-0.61221	30.7	13111	100
2025-3-27 17:55:4.900	WT901BLE68-01(48591DE3C19B)	-0.414	-1.126	0.209	17.029	85.999	-7.690	-79.24	-12.90	-116.45	-58.604	-52.724	-3.724	0.45728	-0.29178	0.57520	-0.61221	30.7	13111	100
2025-3-27 17:55:4.900	WT901BLE68-01(48591DE3C19B)	-0.414	-0.998	0.249	19.226	75.928	6.348	-78.89	-12.58	-117.21	-58.604	-52.724	-3.724	0.45728	-0.29178	0.57520	-0.61221	30.7	13111	100
2025-3-27 17:55:4.900	WT901BLE68-01(48591DE3C19B)	-0.442	-0.998	0.249	19.226	75.928	6.348	-78.56	-12.19	-117.91	-58.604	-52.724	-3.724	0.45728	-0.29178	0.57520	-0.61221	30.7	13111	100
2025-3-27 17:55:4.931	WT901BLE68-01(48591DE3C19B)	-0.442	-0.911	0.271	19.531	56.519	20.447	-78.24	-11.76	-118.50	-58.604	-52.724	-3.724	0.45728	-0.29178	0.57520	-0.61221	30.7	13111	100
2025-3-27 17:55:4.931	WT901BLE68-01(48591DE3C19B)	-0.427	-0.911	0.271	19.531	56.519	20.447	-77.96	-11.26	-118.98	-58.604	-52.724	-3.724	0.45728	-0.29178	0.57520	-0.61221	30.7	13111	100
2025-3-27 17:55:4.931	WT901BLE68-01(48591DE3C19B)	-0.427	-0.889	0.282	19.104	31.921	35.034	-77.70	-10.72	-119.32	-58.604	-52.724	-3.724	0.45728	-0.29178	0.57520	-0.61221	30.7	13111	100
2025-3-27 17:55:4.931	WT901BLE68-01(48591DE3C19B)	-0.349	-0.889	0.282	19.104	31.921	35.034	-77.48	-10.13	-119.53	-58.604	-52.724	-3.724	0.45728	-0.29178	0.57520	-0.61221	30.7	13111	100
2025-3-27 17:55:4.990	WT901BLE68-01(48591DE3C19B)	-0.349	-0.939	0.217	15.625	15.869	45.959	-77.28	-9.51	-119.64	-58.604	-52.724	-3.724	0.45728	-0.29178	0.57520	-0.61221	30.7	13111	100
2025-3-27 17:55:4.990	WT901BLE68-01(48591DE3C19B)	-0.320	-0.939	0.217	15.625	15.869	45.959	-77.12	-8.86	-119.66	-58.604	-52.724	-3.724	0.45728	-0.29178	0.57520	-0.61221	30.7	13111	100
2025-3-27 17:55:4.990	WT901BLE68-01(48591DE3C19B)	-0.320	-1.187	0.168	8.240	8.972	47.546	-77.01	-8.21	-119.65	-58.604	-52.724	-3.724	0.45728	-0.29178	0.57520	-0.61221	30.7	13111	100
2025-3-27 17:55:4.991	WT901BLE68-01(48591DE3C19B)	-0.365	-1.187	0.168	8.240	8.972	47.546	-76.95	-7.57	-119.59	-58.604	-52.724	-3.724	0.45728	-0.29178	0.57520	-0.61221	30.7	13111	100
2025-3-27 17:55:5.21	WT901BLE68-01(48591DE3C19B)	-0.365	-1.335	0.209	11.353	0.732	46.631	-76.87	-6.95	-119.48	-58.604	-52.724	-3.724	0.45728	-0.29178	0.57520	-0.61221	30.7	13111	100
2025-3-27 17:55:5.21	WT901BLE68-01(48591DE3C19B)	-0.395	-1.335	0.209	11.353	0.732	46.631	-76.79	-6.34	-119.33	-58.604	-52.724	-3.724	0.45728	-0.29178	0.57520	-0.61221	30.7	13111	100
2025-3-27 17:55:5.21	WT901BLE68-01(48591DE3C19B)	-0.395	-1.104	0.380	18.311	-13.977	48.767	-76.68	-5.76	-119.11	-58.604	-52.724	-3.724	0.45728	-0.29178	0.57520	-0.61221	30.7	13111	100
