time	DeviceName	AccX(g)	AccY(g)	AccZ(g)	AsX(°/s)	AsY(°/s)	AsZ(°/s)	AngleX(°)	AngleY(°)	AngleZ(°)	HX(uT)	HY(uT)	HZ(uT)	Q0()	Q1()	Q2()	Q3()	Temperature(°C)	Version()	Battery level(%)
2025-3-27 17:57:23.895	WT901BLE68-01(48591DE3C19B)	-0.266	-0.915	0.283	0.183	3.296	-3.662	-72.99	18.59	-104.61	-105.252	-48.216	20.972	-0.55566	0.25330	-0.54544	0.57401	30.8	13111	100
2025-3-27 17:57:23.895	WT901BLE68-01(48591DE3C19B)	-0.269	-0.915	0.283	0.183	3.296	-3.662	-73.00	18.54	-104.51	-105.252	-48.216	20.972	-0.55566	0.25330	-0.54544	0.57401	30.8	13111	100
2025-3-27 17:57:23.895	WT901BLE68-01(48591DE3C19B)	-0.269	-0.919	0.284	-0.122	0.854	-5.737	-73.02	18.48	-104.40	-105.252	-48.216	20.972	-0.55566	0.25330	-0.54544	0.57401	30.8	13111	100
2025-3-27 17:57:23.895	WT901BLE68-01(48591DE3C19B)	-0.272	-0.919	0.284	-0.122	0.854	-5.737	-73.02	18.41	-104.28	-105.252	-48.216	20.972	-0.55566	0.25330	-0.54544	0.57401	30.8	13111	100
2025-3-27 17:57:23.955	WT901BLE68-01(48591DE3C19B)	-0.272	-0.911	0.287	-0.366	-1.465	-7.629	-73.03	18.33	-104.16	-105.252	-48.216	20.972	-0.55566	0.25330	-0.54544	0.57401	30.8	13111	100
2025-3-27 17:57:23.955	WT901BLE68-01(48591DE3C19B)	-0.277	-0.911	0.287	-0.366	-1.465	-7.629	-73.03	18.23	-104.02	-105.252	-48.216	20.972	-0.55566	0.25330	-0.54544	0.57401	30.8	13111	100
2025-3-27 17:57:23.955	WT901BLE68-01(48591DE3C19B)	-0.277	-0.906	0.290	-0.732	-3.357	-9.338	-73.03	18.12	-103.89	-105.252	-48.216	20.972	-0.55566	0.25330	-0.54544	0.57401	30.8	13111	100
2025-3-27 17:57:23.955	WT901BLE68-01(48591DE3C19B)	-0.287	-0.906	0.290	-0.732	-3.357	-9.338	-73.03	18.01	-103.74	-105.252	-48.216	20.972	-0.55566	0.25330	-0.54544	0.57401	30.8	13111	100
2025-3-27 17:57:23.956	WT901BLE68-01(48591DE3C19B)	-0.287	-0.907	0.292	-0.732	-5.066	-10.742	-73.03	17.88	-103.59	-105.252	-48.216	20.972	-0.55566	0.25330	-0.54544	0.57401	30.8	13111	100
2025-3-27 17:57:23.956	WT901BLE68-01(48591DE3C19B)	-0.292	-0.907	0.292	-0.732	-5.066	-10.742	-73.03	17.75	-103.44	-105.252	-48.216	20.972	-0.55566	0.25330	-0.54544	0.57401	30.8	13111	100
2025-3-27 17:57:23.956	WT901BLE68-01(48591DE3C19B)	-0.292	-0.906	0.290	-0.610	-6.531	-11.414	-73.03	17.62	-103.27	-105.938	-45.570	19.796	-0.55566	0.25330	-0.54544	0.57401	30.8	13111	100
2025-3-27 17:57:23.956	WT901BLE68-01(48591DE3C19B)	-0.292	-0.906	0.290	-0.610	-6.531	-11.414	-73.02	17.47	-103.11	-105.938	-45.570	19.796	-0.55566	0.25330	-0.54544	0.57401	30.8	13111	100
2025-3-27 17:57:24.45	WT901BLE68-01(48591DE3C19B)	-0.292	-0.913	0.287	-0.671	-7.446	-11.414	-73.01	17.34	-102.94	-105.938	-45.570	19.796	-0.55566	0.25330	-0.54544	0.57401	30.8	13111	100
2025-3-27 17:57:24.45	WT901BLE68-01(48591DE3C19B)	-0.294	-0.913	0.287	-0.671	-7.446	-11.414	-73.00	17.20	-102.76	-105.938	-45.570	19.796	-0.55566	0.25330	-0.54544	0.57401	30.8	13111	100
2025-3-27 17:57:24.45	WT901BLE68-01(48591DE3C19B)	-0.294	-0.910	0.282	-0.061	-7.751	-11.108	-72.99	17.06	-102.58	-105.938	-45.570	19.796	-0.55566	0.25330	-0.54544	0.57401	30.8	13111	100
2025-3-27 17:57:24.45	WT901BLE68-01(48591DE3C19B)	-0.295	-0.910	0.282	-0.061	-7.751	-11.108	-72.98	16.93	-102.41	-105.938	-45.570	19.796	-0.55566	0.25330	-0.54544	0.57401	30.8	13111	100
2025-3-27 17:57:24.46	WT901BLE68-01(48591DE3C19B)	-0.295	-0.902	0.275	0.000	-7.385	-10.559	-72.96	16.80	-102.24	-105.938	-45.570	19.796	-0.55566	0.25330	-0.54544	0.57401	30.8	13111	100
2025-3-27 17:57:24.46	WT901BLE68-01(48591DE3C19B)	-0.295	-0.902	0.275	0.000	-7.385	-10.559	-72.95	16.68	-102.06	-105.938	-45.570	19.796	-0.55566	0.25330	-0.54544	0.57401	30.8	13111	100
2025-3-27 17:57:24.46	WT901BLE68-01(48591DE3C19B)	-0.295	-0.906	0.269	-0.183	-7.080	-9.888	-72.94	16.56	-101.89	-105.938	-45.570	19.796	-0.55566	0.25330	-0.54544	0.57401	30.8	13111	100
2025-3-27 17:57:24.46	WT901BLE68-01(48591DE3C19B)	-0.295	-0.906	0.269	-0.183	-7.080	-9.888	-72.93	16.44	-101.72	-105.938	-45.570	19.796	-0.55566	0.25330	-0.54544	0.57401	30.8	13111	100
2025-3-27 17:57:24.135	WT901BLE68-01(48591DE3C19B)	-0.295	-0.935	0.272	-0.244	-6.042	-9.155	-72.92	16.34	-101.56	-105.938	-45.570	19.796	-0.55566	0.25330	-0.54544	0.57401	30.8	13111	100
2025-3-27 17:57:24.135	WT901BLE68-01(48591DE3C19B)	-0.294	-0.935	0.272	-0.244	-6.042	-9.155	-72.91	16.23	-101.40	-105.938	-45.570	19.796	-0.55566	0.25330	-0.54544	0.57401	30.8	13111	100
2025-3-27 17:57:24.135	WT901BLE68-01(48591DE3C19B)	-0.294	-0.956	0.275	1.099	-4.456	-8.057	-72.90	16.14	-101.26	-105.938	-45.570	19.796	-0.55566	0.25330	-0.54544	0.57401	30.8	13111	100
2025-3-27 17:57:24.135	WT901BLE68-01(48591DE3C19B)	-0.291	-0.956	0.275	1.099	-4.456	-8.057	-72.88	16.06	-101.11	-105.938	-45.570	19.796	-0.55566	0.25330	-0.54544	0.57401	30.8	13111	100
2025-3-27 17:57:24.136	WT901BLE68-01(48591DE3C19B)	-0.291	-0.942	0.274	2.075	-2.869	-6.531	-72.86	15.99	-100.98	-105.938	-45.570	19.796	-0.55566	0.25330	-0.54544	0.57401	30.8	13111	100
2025-3-27 17:57:24.136	WT901BLE68-01(48591DE3C19B)	-0.285	-0.942	0.274	2.075	-2.869	-6.531	-72.84	15.92	-100.84	-105.938	-45.570	19.796	-0.55566	0.25330	-0.54544	0.57401	30.8	13111	100
2025-3-27 17:57:24.136	WT901BLE68-01(48591DE3C19B)	-0.285	-0.938	0.270	2.380	-0.732	-4.944	-72.82	15.88	-100.72	-105.938	-45.570	19.796	-0.55566	0.25330	-0.54544	0.57401	30.8	13111	100
2025-3-27 17:57:24.136	WT901BLE68-01(48591DE3C19B)	-0.286	-0.938	0.270	2.380	-0.732	-4.944	-72.81	15.83	-100.61	-105.938	-45.570	19.796	-0.55566	0.25330	-0.54544	0.57401	30.8	13111	100
2025-3-27 17:57:24.286	WT901BLE68-01(48591DE3C19B)	-0.286	-0.934	0.268	2.930	1.282	-3.113	-72.79	15.81	-100.51	-105.938	-45.570	19.796	-0.55566	0.25330	-0.54544	0.57401	30.8	13111	100
2025-3-27 17:57:24.286	WT901BLE68-01(48591DE3C19B)	-0.283	-0.934	0.268	2.930	1.282	-3.113	-72.77	15.79	-100.41	-105.938	-45.570	19.796	-0.55566	0.25330	-0.54544	0.57401	30.8	13111	100
2025-3-27 17:57:24.286	WT901BLE68-01(48591DE3C19B)	-0.283	-0.930	0.270	3.174	2.258	-1.465	-72.75	15.78	-100.32	-105.938	-45.570	19.796	-0.55566	0.25330	-0.54544	0.57401	30.8	13111	100
2025-3-27 17:57:24.286	WT901BLE68-01(48591DE3C19B)	-0.278	-0.930	0.270	3.174	2.258	-1.465	-72.73	15.78	-100.22	-105.938	-45.570	19.796	-0.57416	0.29193	-0.52142	0.55957	30.8	13111	100
2025-3-27 17:57:24.287	WT901BLE68-01(48591DE3C19B)	-0.278	-0.926	0.271	3.113	3.357	-0.305	-72.72	15.79	-100.14	-105.938	-45.570	19.796	-0.57416	0.29193	-0.52142	0.55957	30.8	13111	100
2025-3-27 17:57:24.287	WT901BLE68-01(48591DE3C19B)	-0.277	-0.926	0.271	3.113	3.357	-0.305	-72.70	15.80	-100.05	-105.938	-45.570	19.796	-0.57416	0.29193	-0.52142	0.55957	30.8	13111	100
2025-3-27 17:57:24.287	WT901BLE68-01(48591DE3C19B)	-0.277	-0.938	0.275	3.052	4.211	0.305	-72.69	15.81	-99.98	-105.938	-45.570	19.796	-0.57416	0.29193	-0.52142	0.55957	30.8	13111	100
2025-3-27 17:57:24.287	WT901BLE68-01(48591DE3C19B)	-0.276	-0.938	0.275	3.052	4.211	0.305	-72.67	15.83	-99.90	-105.938	-45.570	19.796	-0.57416	0.29193	-0.52142	0.55957	30.8	13111	100
2025-3-27 17:57:24.435	WT901BLE68-01(48591DE3C19B)	-0.276	-0.927	0.277	3.540	4.639	0.793	-72.66	15.86	-99.83	-105.938	-45.570	19.796	-0.57416	0.29193	-0.52142	0.55957	30.8	13111	100
2025-3-27 17:57:24.436	WT901BLE68-01(48591DE3C19B)	-0.273	-0.927	0.277	3.540	4.639	0.793	-72.64	15.88	-99.76	-105.938	-45.570	19.796	-0.57416	0.29193	-0.52142	0.55957	30.8	13111	100
2025-3-27 17:57:24.436	WT901BLE68-01(48591DE3C19B)	-0.273	-0.918	0.273	3.174	4.700	0.977	-72.63	15.90	-99.68	-105.938	-45.570	19.796	-0.57416	0.29193	-0.52142	0.55957	30.8	13111	100
2025-3-27 17:57:24.436	WT901BLE68-01(48591DE3C19B)	-0.270	-0.918	0.273	3.174	4.700	0.977	-72.61	15.92	-99.61	-105.938	-45.570	19.796	-0.57416	0.29193	-0.52142	0.55957	30.8	13111	100
2025-3-27 17:57:24.437	WT901BLE68-01(48591DE3C19B)	-0.270	-0.914	0.271	2.808	4.272	0.732	-72.60	15.95	-99.54	-105.938	-45.570	19.796	-0.57416	0.29193	-0.52142	0.55957	30.8	13111	100
2025-3-27 17:57:24.437	WT901BLE68-01(48591DE3C19B)	-0.271	-0.914	0.271	2.808	4.272	0.732	-72.59	15.97	-99.46	-105.938	-45.570	19.796	-0.57416	0.29193	-0.52142	0.55957	30.8	13111	100
2025-3-27 17:57:24.437	WT901BLE68-01(48591DE3C19B)	-0.271	-0.909	0.272	1.953	3.174	-0.061	-72.58	15.97	-99.38	-105.938	-45.570	19.796	-0.57416	0.29193	-0.52142	0.55957	30.8	13111	100
2025-3-27 17:57:24.437	WT901BLE68-01(48591DE3C19B)	-0.275	-0.909	0.272	1.953	3.174	-0.061	-72.58	15.99	-99.30	-105.938	-45.570	19.796	-0.57416	0.29193	-0.52142	0.55957	30.8	13111	100
2025-3-27 17:57:24.437	WT901BLE68-01(48591DE3C19B)	-0.275	-0.909	0.276	1.160	0.977	-1.404	-72.58	15.97	-99.21	-105.938	-45.570	19.796	-0.57416	0.29193	-0.52142	0.55957	30.8	13111	100
2025-3-27 17:57:24.438	WT901BLE68-01(48591DE3C19B)	-0.278	-0.909	0.276	1.160	0.977	-1.404	-72.58	15.96	-99.11	-105.938	-45.570	19.796	-0.57416	0.29193	-0.52142	0.55957	30.8	13111	100
2025-3-27 17:57:24.438	WT901BLE68-01(48591DE3C19B)	-0.278	-0.907	0.279	0.488	-1.648	-2.930	-72.57	15.93	-98.99	-105.938	-45.570	19.796	-0.57416	0.29193	-0.52142	0.55957	30.8	13111	100
2025-3-27 17:57:24.438	WT901BLE68-01(48591DE3C19B)	-0.275	-0.907	0.279	0.488	-1.648	-2.930	-72.57	15.90	-98.87	-105.938	-45.570	19.796	-0.57416	0.29193	-0.52142	0.55957	30.8	13111	100
2025-3-27 17:57:24.438	WT901BLE68-01(48591DE3C19B)	-0.275	-0.895	0.276	-0.183	-4.089	-4.456	-72.57	15.84	-98.74	-105.938	-45.570	19.796	-0.57416	0.29193	-0.52142	0.55957	30.8	13111	100
2025-3-27 17:57:24.438	WT901BLE68-01(48591DE3C19B)	-0.272	-0.895	0.276	-0.183	-4.089	-4.456	-72.57	15.79	-98.60	-105.938	-45.570	19.796	-0.57416	0.29193	-0.52142	0.55957	30.8	13111	100
2025-3-27 17:57:24.438	WT901BLE68-01(48591DE3C19B)	-0.272	-0.891	0.271	-1.221	-6.348	-5.859	-72.57	15.72	-98.45	-105.938	-45.570	19.796	-0.57416	0.29193	-0.52142	0.55957	30.8	13111	100
2025-3-27 17:57:24.438	WT901BLE68-01(48591DE3C19B)	-0.271	-0.891	0.271	-1.221	-6.348	-5.859	-72.58	15.64	-98.30	-105.938	-45.570	19.796	-0.57416	0.29193	-0.52142	0.55957	30.8	13111	100
2025-3-27 17:57:24.439	WT901BLE68-01(48591DE3C19B)	-0.271	-0.884	0.272	-1.892	-8.362	-6.897	-72.58	15.56	-98.14	-105.938	-45.570	19.796	-0.57416	0.29193	-0.52142	0.55957	30.8	13111	100
2025-3-27 17:57:24.439	WT901BLE68-01(48591DE3C19B)	-0.257	-0.884	0.272	-1.892	-8.362	-6.897	-72.59	15.47	-97.97	-105.938	-45.570	19.796	-0.57416	0.29193	-0.52142	0.55957	30.8	13111	100
2025-3-27 17:57:24.439	WT901BLE68-01(48591DE3C19B)	-0.257	-0.909	0.268	-3.540	-8.423	-7.690	-72.61	15.38	-97.80	-105.938	-45.570	19.796	-0.57416	0.29193	-0.52142	0.55957	30.8	13111	100
2025-3-27 17:57:24.439	WT901BLE68-01(48591DE3C19B)	-0.250	-0.909	0.268	-3.540	-8.423	-7.690	-72.64	15.28	-97.64	-105.938	-45.570	19.796	-0.57416	0.29193	-0.52142	0.55957	30.8	13111	100
2025-3-27 17:57:24.440	WT901BLE68-01(48591DE3C19B)	-0.250	-0.927	0.271	-2.991	-6.531	-8.362	-72.66	15.19	-97.49	-105.938	-45.570	19.796	-0.57416	0.29193	-0.52142	0.55957	30.8	13111	100
2025-3-27 17:57:24.440	WT901BLE68-01(48591DE3C19B)	-0.249	-0.927	0.271	-2.991	-6.531	-8.362	-72.69	15.09	-97.36	-105.938	-45.570	19.796	-0.57416	0.29193	-0.52142	0.55957	30.8	13111	100
2025-3-27 17:57:24.440	WT901BLE68-01(48591DE3C19B)	-0.249	-0.908	0.270	-2.747	-4.211	-9.705	-72.71	14.99	-97.24	-105.938	-45.570	19.796	-0.57416	0.29193	-0.52142	0.55957	30.8	13111	100
2025-3-27 17:57:24.440	WT901BLE68-01(48591DE3C19B)	-0.254	-0.908	0.270	-2.747	-4.211	-9.705	-72.74	14.89	-97.12	-105.938	-45.570	19.796	-0.57416	0.29193	-0.52142	0.55957	30.8	13111	100
2025-3-27 17:57:24.495	WT901BLE68-01(48591DE3C19B)	-0.254	-0.896	0.265	-4.089	-4.700	-10.742	-72.78	14.78	-97.01	-105.938	-45.570	19.796	-0.57416	0.29193	-0.52142	0.55957	30.8	13111	100
2025-3-27 17:57:24.495	WT901BLE68-01(48591DE3C19B)	-0.264	-0.896	0.265	-4.089	-4.700	-10.742	-72.82	14.66	-96.89	-105.350	-47.824	20.776	-0.57416	0.29193	-0.52142	0.55957	30.8	13111	100
2025-3-27 17:57:24.495	WT901BLE68-01(48591DE3C19B)	-0.264	-0.904	0.275	-5.859	-7.507	-11.475	-72.88	14.53	-96.76	-105.350	-47.824	20.776	-0.57416	0.29193	-0.52142	0.55957	30.8	13111	100
2025-3-27 17:57:24.495	WT901BLE68-01(48591DE3C19B)	-0.283	-0.904	0.275	-5.859	-7.507	-11.475	-72.93	14.41	-96.62	-105.350	-47.824	20.776	-0.57416	0.29193	-0.52142	0.55957	30.8	13111	100
2025-3-27 17:57:24.526	WT901BLE68-01(48591DE3C19B)	-0.283	-0.923	0.277	-6.836	-13.000	-11.292	-72.98	14.27	-96.43	-105.350	-47.824	20.776	-0.57416	0.29193	-0.52142	0.55957	30.8	13111	100
2025-3-27 17:57:24.527	WT901BLE68-01(48591DE3C19B)	-0.271	-0.923	0.277	-6.836	-13.000	-11.292	-73.03	14.13	-96.23	-105.350	-47.824	20.776	-0.57416	0.29193	-0.52142	0.55957	30.8	13111	100
2025-3-27 17:57:24.527	WT901BLE68-01(48591DE3C19B)	-0.256	-0.923	0.270	-7.568	-18.677	-10.803	-73.07	13.99	-95.98	-105.350	-47.824	20.776	-0.57416	0.29193	-0.52142	0.55957	30.8	13111	100
2025-3-27 17:57:24.527	WT901BLE68-01(48591DE3C19B)	-0.256	-0.925	0.270	-8.301	-21.667	-10.254	-73.11	13.84	-95.72	-105.350	-47.824	20.776	-0.57416	0.29193	-0.52142	0.55957	30.8	13111	100
2025-3-27 17:57:24.557	WT901BLE68-01(48591DE3C19B)	-0.265	-0.925	0.270	-8.301	-21.667	-10.254	-73.15	13.69	-95.44	-105.350	-47.824	20.776	-0.57416	0.29193	-0.52142	0.55957	30.8	13111	100
2025-3-27 17:57:24.557	WT901BLE68-01(48591DE3C19B)	-0.265	-0.928	0.279	-8.484	-23.071	-9.644	-73.20	13.54	-95.15	-105.350	-47.824	20.776	-0.57416	0.29193	-0.52142	0.55957	30.8	13111	100
2025-3-27 17:57:24.557	WT901BLE68-01(48591DE3C19B)	-0.267	-0.928	0.279	-8.484	-23.071	-9.644	-73.23	13.39	-94.86	-105.350	-47.824	20.776	-0.59045	0.33182	-0.49960	0.53998	30.8	13111	100
2025-3-27 17:57:24.557	WT901BLE68-01(48591DE3C19B)	-0.267	-0.928	0.286	-8.423	-23.804	-8.911	-73.28	13.25	-94.56	-105.350	-47.824	20.776	-0.59045	0.33182	-0.49960	0.53998	30.8	13111	100
2025-3-27 17:57:24.616	WT901BLE68-01(48591DE3C19B)	-0.258	-0.928	0.286	-8.423	-23.804	-8.911	-73.32	13.11	-94.26	-105.350	-47.824	20.776	-0.59045	0.33182	-0.49960	0.53998	30.8	13111	100
2025-3-27 17:57:24.617	WT901BLE68-01(48591DE3C19B)	-0.258	-0.928	0.292	-8.057	-23.743	-8.179	-73.36	12.97	-93.96	-105.350	-47.824	20.776	-0.59045	0.33182	-0.49960	0.53998	30.8	13111	100
2025-3-27 17:57:24.617	WT901BLE68-01(48591DE3C19B)	-0.284	-0.928	0.292	-8.057	-23.743	-8.179	-73.39	12.84	-93.65	-105.350	-47.824	20.776	-0.59045	0.33182	-0.49960	0.53998	30.8	13111	100
2025-3-27 17:57:24.617	WT901BLE68-01(48591DE3C19B)	-0.284	-0.933	0.287	-8.240	-23.926	-6.470	-73.42	12.72	-93.35	-105.350	-47.824	20.776	-0.59045	0.33182	-0.49960	0.53998	30.8	13111	100
2025-3-27 17:57:24.644	WT901BLE68-01(48591DE3C19B)	-0.281	-0.933	0.287	-8.240	-23.926	-6.470	-73.46	12.61	-93.04	-105.350	-47.824	20.776	-0.59045	0.33182	-0.49960	0.53998	30.8	13111	100
2025-3-27 17:57:24.644	WT901BLE68-01(48591DE3C19B)	-0.281	-0.941	0.284	-7.263	-23.804	-6.775	-73.49	12.49	-92.74	-105.350	-47.824	20.776	-0.59045	0.33182	-0.49960	0.53998	30.8	13111	100
2025-3-27 17:57:24.644	WT901BLE68-01(48591DE3C19B)	-0.271	-0.941	0.284	-7.263	-23.804	-6.775	-73.52	12.38	-92.43	-105.350	-47.824	20.776	-0.59045	0.33182	-0.49960	0.53998	30.8	13111	100
2025-3-27 17:57:24.645	WT901BLE68-01(48591DE3C19B)	-0.271	-0.937	0.276	-6.409	-23.804	-6.531	-73.54	12.27	-92.13	-105.350	-47.824	20.776	-0.59045	0.33182	-0.49960	0.53998	30.8	13111	100
2025-3-27 17:57:24.675	WT901BLE68-01(48591DE3C19B)	-0.268	-0.937	0.276	-6.409	-23.804	-6.531	-73.56	12.16	-91.82	-105.350	-47.824	20.776	-0.59045	0.33182	-0.49960	0.53998	30.8	13111	100
2025-3-27 17:57:24.675	WT901BLE68-01(48591DE3C19B)	-0.268	-0.936	0.273	-5.310	-22.949	-5.737	-73.58	12.06	-91.52	-105.350	-47.824	20.776	-0.59045	0.33182	-0.49960	0.53998	30.8	13111	100
2025-3-27 17:57:24.675	WT901BLE68-01(48591DE3C19B)	-0.272	-0.936	0.273	-5.310	-22.949	-5.737	-73.59	11.96	-91.22	-105.350	-47.824	20.776	-0.59045	0.33182	-0.49960	0.53998	30.8	13111	100
2025-3-27 17:57:24.675	WT901BLE68-01(48591DE3C19B)	-0.272	-0.946	0.278	-5.066	-22.156	-4.700	-73.60	11.87	-90.93	-105.350	-47.824	20.776	-0.59045	0.33182	-0.49960	0.53998	30.8	13111	100
2025-3-27 17:57:24.737	WT901BLE68-01(48591DE3C19B)	-0.268	-0.946	0.278	-5.066	-22.156	-4.700	-73.60	11.78	-90.64	-105.350	-47.824	20.776	-0.59045	0.33182	-0.49960	0.53998	30.8	13111	100
2025-3-27 17:57:24.737	WT901BLE68-01(48591DE3C19B)	-0.268	-0.963	0.279	-3.784	-21.729	-3.662	-73.61	11.70	-90.35	-105.350	-47.824	20.776	-0.59045	0.33182	-0.49960	0.53998	30.8	13111	100
2025-3-27 17:57:24.737	WT901BLE68-01(48591DE3C19B)	-0.263	-0.963	0.279	-3.784	-21.729	-3.662	-73.61	11.63	-90.06	-105.350	-47.824	20.776	-0.59045	0.33182	-0.49960	0.53998	30.8	13111	100
2025-3-27 17:57:24.737	WT901BLE68-01(48591DE3C19B)	-0.263	-0.944	0.270	-2.930	-21.118	-2.747	-73.60	11.56	-89.77	-105.350	-47.824	20.776	-0.59045	0.33182	-0.49960	0.53998	30.8	13111	100
2025-3-27 17:57:24.795	WT901BLE68-01(48591DE3C19B)	-0.274	-0.944	0.270	-2.930	-21.118	-2.747	-73.60	11.50	-89.49	-105.350	-47.824	20.776	-0.59045	0.33182	-0.49960	0.53998	30.8	13111	100
2025-3-27 17:57:24.795	WT901BLE68-01(48591DE3C19B)	-0.274	-0.933	0.262	-2.747	-23.010	-1.648	-73.59	11.44	-89.19	-105.350	-47.824	20.776	-0.59045	0.33182	-0.49960	0.53998	30.8	13111	100
2025-3-27 17:57:24.795	WT901BLE68-01(48591DE3C19B)	-0.275	-0.933	0.262	-2.747	-23.010	-1.648	-73.58	11.38	-88.89	-105.350	-47.824	20.776	-0.59045	0.33182	-0.49960	0.53998	30.8	13111	100
2025-3-27 17:57:24.795	WT901BLE68-01(48591DE3C19B)	-0.275	-0.940	0.255	-3.418	-26.917	-0.671	-73.56	11.32	-88.57	-105.840	-49.490	24.696	-0.59045	0.33182	-0.49960	0.53998	30.8	13111	100
2025-3-27 17:57:24.855	WT901BLE68-01(48591DE3C19B)	-0.268	-0.940	0.255	-3.418	-26.917	-0.671	-73.55	11.26	-88.22	-105.840	-49.490	24.696	-0.59045	0.33182	-0.49960	0.53998	30.8	13111	100
2025-3-27 17:57:24.855	WT901BLE68-01(48591DE3C19B)	-0.268	-0.949	0.249	-3.235	-31.677	0.122	-73.53	11.20	-87.85	-105.840	-49.490	24.696	-0.59045	0.33182	-0.49960	0.53998	30.8	13111	100
2025-3-27 17:57:24.855	WT901BLE68-01(48591DE3C19B)	-0.253	-0.949	0.249	-3.235	-31.677	0.122	-73.51	11.14	-87.46	-105.840	-49.490	24.696	-0.59045	0.33182	-0.49960	0.53998	30.8	13111	100
2025-3-27 17:57:24.855	WT901BLE68-01(48591DE3C19B)	-0.253	-0.950	0.242	-3.601	-34.790	-0.549	-73.49	11.07	-87.05	-105.840	-49.490	24.696	-0.59045	0.33182	-0.49960	0.53998	30.8	13111	100
2025-3-27 17:57:24.856	WT901BLE68-01(48591DE3C19B)	-0.250	-0.950	0.242	-3.601	-34.790	-0.549	-73.47	10.99	-86.63	-105.840	-49.490	24.696	-0.59045	0.33182	-0.49960	0.53998	30.8	13111	100
2025-3-27 17:57:24.857	WT901BLE68-01(48591DE3C19B)	-0.250	-0.954	0.237	-3.967	-37.415	-2.380	-73.45	10.90	-86.20	-105.840	-49.490	24.696	-0.59045	0.33182	-0.49960	0.53998	30.8	13111	100
2025-3-27 17:57:24.857	WT901BLE68-01(48591DE3C19B)	-0.253	-0.954	0.237	-3.967	-37.415	-2.380	-73.43	10.79	-85.76	-105.840	-49.490	24.696	-0.59045	0.33182	-0.49960	0.53998	30.8	13111	100
2025-3-27 17:57:24.857	WT901BLE68-01(48591DE3C19B)	-0.253	-0.935	0.236	-4.333	-41.138	-4.578	-73.42	10.67	-85.31	-105.840	-49.490	24.696	-0.59045	0.33182	-0.49960	0.53998	30.8	13111	100
2025-3-27 17:57:24.886	WT901BLE68-01(48591DE3C19B)	-0.259	-0.935	0.236	-4.333	-41.138	-4.578	-73.40	10.54	-84.84	-105.840	-49.490	24.696	-0.59045	0.33182	-0.49960	0.53998	30.8	13111	100
2025-3-27 17:57:24.886	WT901BLE68-01(48591DE3C19B)	-0.259	-0.919	0.239	-5.554	-45.288	-6.897	-73.39	10.39	-84.35	-105.840	-49.490	24.696	-0.59045	0.33182	-0.49960	0.53998	30.8	13111	100
2025-3-27 17:57:24.886	WT901BLE68-01(48591DE3C19B)	-0.263	-0.919	0.239	-5.554	-45.288	-6.897	-73.38	10.22	-83.85	-105.840	-49.490	24.696	-0.59045	0.33182	-0.49960	0.53998	30.8	13111	100
2025-3-27 17:57:24.887	WT901BLE68-01(48591DE3C19B)	-0.263	-0.925	0.246	-6.836	-48.584	-8.423	-73.38	10.04	-83.34	-105.840	-49.490	24.696	-0.59045	0.33182	-0.49960	0.53998	30.8	13111	100
2025-3-27 17:57:24.976	WT901BLE68-01(48591DE3C19B)	-0.255	-0.925	0.246	-6.836	-48.584	-8.423	-73.38	9.85	-82.81	-105.840	-49.490	24.696	-0.59045	0.33182	-0.49960	0.53998	30.8	13111	100
2025-3-27 17:57:24.976	WT901BLE68-01(48591DE3C19B)	-0.255	-0.929	0.242	-7.324	-50.903	-9.399	-73.39	9.65	-82.28	-105.840	-49.490	24.696	-0.59045	0.33182	-0.49960	0.53998	30.8	13111	100
2025-3-27 17:57:24.976	WT901BLE68-01(48591DE3C19B)	-0.258	-0.929	0.242	-7.324	-50.903	-9.399	-73.40	9.45	-81.73	-105.840	-49.490	24.696	-0.59045	0.33182	-0.49960	0.53998	30.8	13111	100
2025-3-27 17:57:24.977	WT901BLE68-01(48591DE3C19B)	-0.258	-0.917	0.239	-8.423	-51.453	-9.399	-73.42	9.24	-81.18	-105.840	-49.490	24.696	-0.59045	0.33182	-0.49960	0.53998	30.8	13111	100
2025-3-27 17:57:24.977	WT901BLE68-01(48591DE3C19B)	-0.273	-0.917	0.239	-8.423	-51.453	-9.399	-73.44	9.04	-80.63	-105.840	-49.490	24.696	-0.64053	0.41516	-0.43240	0.47986	30.8	13111	100
2025-3-27 17:57:24.977	WT901BLE68-01(48591DE3C19B)	-0.273	-0.897	0.248	-9.827	-51.941	-9.094	-73.47	8.84	-80.08	-105.840	-49.490	24.696	-0.64053	0.41516	-0.43240	0.47986	30.8	13111	100
2025-3-27 17:57:24.978	WT901BLE68-01(48591DE3C19B)	-0.282	-0.897	0.248	-9.827	-51.941	-9.094	-73.52	8.65	-79.52	-105.840	-49.490	24.696	-0.64053	0.41516	-0.43240	0.47986	30.8	13111	100
2025-3-27 17:57:24.978	WT901BLE68-01(48591DE3C19B)	-0.282	-0.892	0.265	-11.292	-54.077	-7.690	-73.56	8.46	-78.96	-105.840	-49.490	24.696	-0.64053	0.41516	-0.43240	0.47986	30.8	13111	100
2025-3-27 17:57:25.35	WT901BLE68-01(48591DE3C19B)	-0.277	-0.892	0.265	-11.292	-54.077	-7.690	-73.61	8.27	-78.38	-105.840	-49.490	24.696	-0.64053	0.41516	-0.43240	0.47986	30.8	13111	100
2025-3-27 17:57:25.35	WT901BLE68-01(48591DE3C19B)	-0.277	-0.879	0.278	-11.353	-55.542	-5.432	-73.66	8.11	-77.78	-105.840	-49.490	24.696	-0.64053	0.41516	-0.43240	0.47986	30.8	13111	100
2025-3-27 17:57:25.35	WT901BLE68-01(48591DE3C19B)	-0.282	-0.879	0.278	-11.353	-55.542	-5.432	-73.71	7.94	-77.18	-105.840	-49.490	24.696	-0.64053	0.41516	-0.43240	0.47986	30.8	13111	100
2025-3-27 17:57:25.35	WT901BLE68-01(48591DE3C19B)	-0.282	-0.868	0.273	-11.108	-56.702	-2.808	-73.76	7.81	-76.57	-105.840	-49.490	24.696	-0.64053	0.41516	-0.43240	0.47986	30.8	13111	100
2025-3-27 17:57:25.64	WT901BLE68-01(48591DE3C19B)	-0.292	-0.868	0.273	-11.108	-56.702	-2.808	-73.80	7.67	-75.95	-105.840	-49.490	24.696	-0.64053	0.41516	-0.43240	0.47986	30.8	13111	100
2025-3-27 17:57:25.65	WT901BLE68-01(48591DE3C19B)	-0.292	-0.865	0.271	-10.986	-59.875	-0.671	-73.84	7.55	-75.30	-105.840	-49.490	24.696	-0.64053	0.41516	-0.43240	0.47986	30.8	13111	100
2025-3-27 17:57:25.65	WT901BLE68-01(48591DE3C19B)	-0.295	-0.865	0.271	-10.986	-59.875	-0.671	-73.88	7.43	-74.65	-105.840	-49.490	24.696	-0.64053	0.41516	-0.43240	0.47986	30.8	13111	100
2025-3-27 17:57:25.65	WT901BLE68-01(48591DE3C19B)	-0.295	-0.874	0.276	-10.437	-63.171	1.831	-73.91	7.33	-73.96	-105.840	-49.490	24.696	-0.64053	0.41516	-0.43240	0.47986	30.8	13111	100
2025-3-27 17:57:25.127	WT901BLE68-01(48591DE3C19B)	-0.297	-0.874	0.276	-10.437	-63.171	1.831	-73.94	7.22	-73.27	-105.840	-49.490	24.696	-0.64053	0.41516	-0.43240	0.47986	30.8	13111	100
2025-3-27 17:57:25.127	WT901BLE68-01(48591DE3C19B)	-0.297	-0.881	0.281	-9.705	-66.284	4.822	-73.96	7.15	-72.54	-105.840	-49.490	24.696	-0.64053	0.41516	-0.43240	0.47986	30.8	13111	100
2025-3-27 17:57:25.127	WT901BLE68-01(48591DE3C19B)	-0.291	-0.881	0.281	-9.705	-66.284	4.822	-73.98	7.07	-71.81	-105.840	-49.490	24.696	-0.64053	0.41516	-0.43240	0.47986	30.8	13111	100
2025-3-27 17:57:25.127	WT901BLE68-01(48591DE3C19B)	-0.291	-0.895	0.287	-8.972	-69.275	8.240	-73.99	7.01	-71.05	-105.840	-49.490	24.696	-0.64053	0.41516	-0.43240	0.47986	30.8	13111	100
2025-3-27 17:57:25.127	WT901BLE68-01(48591DE3C19B)	-0.282	-0.895	0.287	-8.972	-69.275	8.240	-73.99	6.97	-70.29	-105.840	-49.490	24.696	-0.64053	0.41516	-0.43240	0.47986	30.8	13111	100
2025-3-27 17:57:25.127	WT901BLE68-01(48591DE3C19B)	-0.282	-0.917	0.317	-8.301	-70.374	11.902	-73.99	6.94	-69.50	-105.840	-49.490	24.696	-0.64053	0.41516	-0.43240	0.47986	30.8	13111	100
2025-3-27 17:57:25.127	WT901BLE68-01(48591DE3C19B)	-0.278	-0.917	0.317	-8.301	-70.374	11.902	-73.99	6.92	-68.71	-105.840	-49.490	24.696	-0.64053	0.41516	-0.43240	0.47986	30.8	13111	100
2025-3-27 17:57:25.128	WT901BLE68-01(48591DE3C19B)	-0.278	-0.962	0.367	-5.920	-68.787	16.174	-73.95	6.95	-67.93	-105.840	-49.490	24.696	-0.64053	0.41516	-0.43240	0.47986	30.8	13111	100
2025-3-27 17:57:25.186	WT901BLE68-01(48591DE3C19B)	-0.261	-0.962	0.367	-5.920	-68.787	16.174	-73.93	6.97	-67.15	-105.840	-49.490	24.696	-0.64053	0.41516	-0.43240	0.47986	30.8	13111	100
2025-3-27 17:57:25.186	WT901BLE68-01(48591DE3C19B)	-0.261	-0.968	0.378	-2.380	-62.256	20.447	-73.86	7.05	-66.42	-106.722	-50.470	39.886	-0.64053	0.41516	-0.43240	0.47986	30.8	13111	100
2025-3-27 17:57:25.186	WT901BLE68-01(48591DE3C19B)	-0.267	-0.968	0.378	-2.380	-62.256	20.447	-73.80	7.13	-65.69	-106.722	-50.470	39.886	-0.64053	0.41516	-0.43240	0.47986	30.8	13111	100
2025-3-27 17:57:25.186	WT901BLE68-01(48591DE3C19B)	-0.267	-0.970	0.348	-0.549	-55.908	24.048	-73.71	7.26	-65.02	-106.722	-50.470	39.886	-0.64053	0.41516	-0.43240	0.47986	30.8	13111	100
2025-3-27 17:57:25.245	WT901BLE68-01(48591DE3C19B)	-0.289	-0.970	0.348	-0.549	-55.908	24.048	-73.63	7.38	-64.34	-106.722	-50.470	39.886	-0.64053	0.41516	-0.43240	0.47986	30.8	13111	100
2025-3-27 17:57:25.245	WT901BLE68-01(48591DE3C19B)	-0.289	-0.994	0.337	-0.244	-55.237	26.062	-73.55	7.53	-63.67	-106.722	-50.470	39.886	-0.64053	0.41516	-0.43240	0.47986	30.8	13111	100
2025-3-27 17:57:25.245	WT901BLE68-01(48591DE3C19B)	-0.322	-0.994	0.337	-0.244	-55.237	26.062	-73.46	7.67	-62.98	-106.722	-50.470	39.886	-0.64053	0.41516	-0.43240	0.47986	30.8	13111	100
2025-3-27 17:57:25.245	WT901BLE68-01(48591DE3C19B)	-0.322	-0.978	0.354	0.977	-61.218	27.954	-73.35	7.81	-62.25	-106.722	-50.470	39.886	-0.64053	0.41516	-0.43240	0.47986	30.8	13111	100
2025-3-27 17:57:25.246	WT901BLE68-01(48591DE3C19B)	-0.322	-0.978	0.354	0.977	-61.218	27.954	-73.24	7.95	-61.51	-106.722	-50.470	39.886	-0.64053	0.41516	-0.43240	0.47986	30.8	13111	100
2025-3-27 17:57:25.246	WT901BLE68-01(48591DE3C19B)	-0.322	-0.913	0.366	1.526	-70.618	30.762	-73.11	8.09	-60.67	-106.722	-50.470	39.886	-0.64053	0.41516	-0.43240	0.47986	30.8	13111	100
2025-3-27 17:57:25.246	WT901BLE68-01(48591DE3C19B)	-0.293	-0.913	0.366	1.526	-70.618	30.762	-72.97	8.23	-59.83	-106.722	-50.470	39.886	-0.64053	0.41516	-0.43240	0.47986	30.8	13111	100
2025-3-27 17:57:25.246	WT901BLE68-01(48591DE3C19B)	-0.293	-0.834	0.328	2.258	-76.294	34.424	-72.82	8.39	-58.92	-106.722	-50.470	39.886	-0.64053	0.41516	-0.43240	0.47986	30.8	13111	100
2025-3-27 17:57:25.305	WT901BLE68-01(48591DE3C19B)	-0.276	-0.834	0.328	2.258	-76.294	34.424	-72.66	8.54	-58.01	-106.722	-50.470	39.886	-0.64053	0.41516	-0.43240	0.47986	30.8	13111	100
2025-3-27 17:57:25.305	WT901BLE68-01(48591DE3C19B)	-0.276	-0.780	0.299	2.197	-79.041	39.185	-72.50	8.72	-57.07	-106.722	-50.470	39.886	-0.64053	0.41516	-0.43240	0.47986	30.8	13111	100
2025-3-27 17:57:25.305	WT901BLE68-01(48591DE3C19B)	-0.265	-0.780	0.299	2.197	-79.041	39.185	-72.33	8.91	-56.12	-106.722	-50.470	39.886	-0.64053	0.41516	-0.43240	0.47986	30.8	13111	100
2025-3-27 17:57:25.305	WT901BLE68-01(48591DE3C19B)	-0.265	-0.817	0.292	0.610	-80.688	46.082	-72.17	9.15	-55.13	-106.722	-50.470	39.886	-0.64053	0.41516	-0.43240	0.47986	30.8	13111	100
2025-3-27 17:57:25.337	WT901BLE68-01(48591DE3C19B)	-0.194	-0.817	0.292	0.610	-80.688	46.082	-72.01	9.39	-54.15	-106.722	-50.470	39.886	-0.64053	0.41516	-0.43240	0.47986	30.8	13111	100
2025-3-27 17:57:25.337	WT901BLE68-01(48591DE3C19B)	-0.194	-0.883	0.267	4.333	-75.806	53.711	-71.81	9.71	-53.18	-106.722	-50.470	39.886	-0.64053	0.41516	-0.43240	0.47986	30.8	13111	100
2025-3-27 17:57:25.337	WT901BLE68-01(48591DE3C19B)	-0.082	-0.883	0.267	4.333	-75.806	53.711	-71.61	10.01	-52.21	-106.722	-50.470	39.886	-0.64053	0.41516	-0.43240	0.47986	30.8	13111	100
2025-3-27 17:57:25.337	WT901BLE68-01(48591DE3C19B)	-0.082	-0.856	0.233	8.179	-56.274	60.547	-71.40	10.44	-51.41	-106.722	-50.470	39.886	-0.64053	0.41516	-0.43240	0.47986	30.8	13111	100
2025-3-27 17:57:25.367	WT901BLE68-01(48591DE3C19B)	-0.022	-0.856	0.233	8.179	-56.274	60.547	-71.19	10.85	-50.60	-106.722	-50.470	39.886	-0.64053	0.41516	-0.43240	0.47986	30.8	13111	100
2025-3-27 17:57:25.367	WT901BLE68-01(48591DE3C19B)	-0.022	-0.890	0.225	8.240	-28.076	63.782	-71.02	11.38	-50.05	-106.722	-50.470	39.886	-0.64053	0.41516	-0.43240	0.47986	30.8	13111	100
2025-3-27 17:57:25.367	WT901BLE68-01(48591DE3C19B)	-0.008	-0.890	0.225	8.240	-28.076	63.782	-70.84	11.89	-49.50	-106.722	-50.470	39.886	-0.76224	0.48712	-0.31906	0.28250	30.8	13111	100
2025-3-27 17:57:25.367	WT901BLE68-01(48591DE3C19B)	-0.008	-0.970	0.230	7.813	-3.296	64.270	-70.72	12.48	-49.19	-106.722	-50.470	39.886	-0.76224	0.48712	-0.31906	0.28250	30.8	13111	100
2025-3-27 17:57:25.424	WT901BLE68-01(48591DE3C19B)	0.025	-0.970	0.230	7.813	-3.296	64.270	-70.60	13.06	-48.88	-106.722	-50.470	39.886	-0.76224	0.48712	-0.31906	0.28250	30.8	13111	100
2025-3-27 17:57:25.424	WT901BLE68-01(48591DE3C19B)	0.025	-1.008	0.250	7.874	20.142	63.110	-70.53	13.69	-48.79	-106.722	-50.470	39.886	-0.76224	0.48712	-0.31906	0.28250	30.8	13111	100
2025-3-27 17:57:25.424	WT901BLE68-01(48591DE3C19B)	0.050	-1.008	0.250	7.874	20.142	63.110	-70.46	14.31	-48.71	-106.722	-50.470	39.886	-0.76224	0.48712	-0.31906	0.28250	30.8	13111	100
2025-3-27 17:57:25.424	WT901BLE68-01(48591DE3C19B)	0.050	-1.026	0.246	6.409	41.443	61.768	-70.46	14.98	-48.83	-106.722	-50.470	39.886	-0.76224	0.48712	-0.31906	0.28250	30.8	13111	100
2025-3-27 17:57:25.455	WT901BLE68-01(48591DE3C19B)	0.069	-1.026	0.246	6.409	41.443	61.768	-70.46	15.64	-48.97	-106.722	-50.470	39.886	-0.76224	0.48712	-0.31906	0.28250	30.8	13111	100
2025-3-27 17:57:25.455	WT901BLE68-01(48591DE3C19B)	0.069	-1.039	0.220	3.601	55.542	58.472	-70.54	16.31	-49.25	-106.722	-50.470	39.886	-0.76224	0.48712	-0.31906	0.28250	30.8	13111	100
2025-3-27 17:57:25.455	WT901BLE68-01(48591DE3C19B)	0.101	-1.039	0.220	3.601	55.542	58.472	-70.62	16.96	-49.53	-106.722	-50.470	39.886	-0.76224	0.48712	-0.31906	0.28250	30.8	13111	100
2025-3-27 17:57:25.455	WT901BLE68-01(48591DE3C19B)	0.068	-1.053	0.212	1.404	68.909	55.725	-70.77	17.63	-49.96	-106.722	-50.470	39.886	-0.76224	0.48712	-0.31906	0.28250	30.8	13111	100
2025-3-27 17:57:25.515	WT901BLE68-01(48591DE3C19B)	0.068	-1.051	0.212	-1.953	74.890	52.856	-70.96	18.28	-50.43	-106.722	-50.470	39.886	-0.76224	0.48712	-0.31906	0.28250	30.8	13111	100
2025-3-27 17:57:25.515	WT901BLE68-01(48591DE3C19B)	0.065	-1.051	0.212	-1.953	74.890	52.856	-71.18	18.92	-50.94	-106.722	-50.470	39.886	-0.76224	0.48712	-0.31906	0.28250	30.8	13111	100
2025-3-27 17:57:25.515	WT901BLE68-01(48591DE3C19B)	0.065	-1.110	0.223	-7.324	73.914	45.593	-71.44	19.51	-51.46	-106.722	-50.470	39.886	-0.76224	0.48712	-0.31906	0.28250	30.8	13111	100
2025-3-27 17:57:25.515	WT901BLE68-01(48591DE3C19B)	0.029	-1.110	0.223	-7.324	73.914	45.593	-71.73	20.06	-51.99	-106.722	-50.470	39.886	-0.76224	0.48712	-0.31906	0.28250	30.8	13111	100
2025-3-27 17:57:25.547	WT901BLE68-01(48591DE3C19B)	0.029	-1.275	0.256	-11.841	67.810	37.415	-72.05	20.55	-52.52	-106.722	-50.470	39.886	-0.76224	0.48712	-0.31906	0.28250	30.8	13111	100
2025-3-27 17:57:25.547	WT901BLE68-01(48591DE3C19B)	-0.020	-1.275	0.256	-11.841	67.810	37.415	-72.38	20.99	-53.03	-106.722	-50.470	39.886	-0.76224	0.48712	-0.31906	0.28250	30.8	13111	100
2025-3-27 17:57:25.547	WT901BLE68-01(48591DE3C19B)	-0.078	-1.443	0.293	-6.165	53.833	27.771	-72.68	21.35	-53.50	-106.722	-50.470	39.886	-0.76224	0.48712	-0.31906	0.28250	30.8	13111	100
2025-3-27 17:57:25.547	WT901BLE68-01(48591DE3C19B)	0.041	-5.771	1.175	-6.165	53.833	27.771	-72.93	21.64	-53.90	-106.722	-50.470	39.886	-0.76224	0.48712	-0.31906	0.28250	30.8	13111	100
2025-3-27 17:57:25.576	WT901BLE68-01(48591DE3C19B)	0.041	-1.314	0.304	9.888	42.969	22.522	-73.09	21.90	-54.27	-106.722	-50.470	39.886	-0.76224	0.48712	-0.31906	0.28250	30.8	13111	100
2025-3-27 17:57:25.577	WT901BLE68-01(48591DE3C19B)	0.168	-1.314	0.304	9.888	42.969	22.522	-73.15	22.10	-54.59	-106.722	-50.470	39.886	-0.76224	0.48712	-0.31906	0.28250	30.8	13111	100
2025-3-27 17:57:25.577	WT901BLE68-01(48591DE3C19B)	0.168	-1.080	0.248	16.846	52.734	16.113	-73.19	22.29	-54.97	-106.722	-50.470	39.886	-0.76224	0.48712	-0.31906	0.28250	30.8	13111	100
2025-3-27 17:57:25.577	WT901BLE68-01(48591DE3C19B)	0.205	-1.080	0.248	16.846	52.734	16.113	-73.23	22.46	-55.42	-110.152	-34.692	44.394	-0.76224	0.48712	-0.31906	0.28250	30.8	13111	100
2025-3-27 17:57:25.606	WT901BLE68-01(48591DE3C19B)	0.205	-0.993	0.182	18.555	76.538	8.484	-73.31	22.62	-55.99	-110.152	-34.692	44.394	-0.76224	0.48712	-0.31906	0.28250	30.8	13111	100
2025-3-27 17:57:25.606	WT901BLE68-01(48591DE3C19B)	0.137	-0.993	0.182	18.555	76.538	8.484	-73.44	22.77	-56.71	-110.152	-34.692	44.394	-0.76224	0.48712	-0.31906	0.28250	30.8	13111	100
2025-3-27 17:57:25.607	WT901BLE68-01(48591DE3C19B)	0.137	-1.002	0.141	20.874	97.412	-1.160	-73.60	22.90	-57.55	-110.152	-34.692	44.394	-0.76224	0.48712	-0.31906	0.28250	30.8	13111	100
2025-3-27 17:57:25.607	WT901BLE68-01(48591DE3C19B)	0.046	-1.002	0.141	20.874	97.412	-1.160	-73.81	23.01	-58.51	-110.152	-34.692	44.394	-0.76224	0.48712	-0.31906	0.28250	30.8	13111	100
2025-3-27 17:57:25.664	WT901BLE68-01(48591DE3C19B)	0.046	-1.041	0.134	25.085	108.582	-9.766	-74.02	23.09	-59.55	-110.152	-34.692	44.394	-0.76224	0.48712	-0.31906	0.28250	30.8	13111	100
2025-3-27 17:57:25.664	WT901BLE68-01(48591DE3C19B)	-0.040	-1.041	0.134	25.085	108.582	-9.766	-74.25	23.13	-60.67	-110.152	-34.692	44.394	-0.76224	0.48712	-0.31906	0.28250	30.8	13111	100
2025-3-27 17:57:25.664	WT901BLE68-01(48591DE3C19B)	-0.040	-1.048	0.128	29.907	112.671	-15.686	-74.46	23.15	-61.81	-110.152	-34.692	44.394	-0.76224	0.48712	-0.31906	0.28250	30.8	13111	100
2025-3-27 17:57:25.664	WT901BLE68-01(48591DE3C19B)	-0.131	-1.048	0.128	29.907	112.671	-15.686	-74.66	23.15	-62.98	-110.152	-34.692	44.394	-0.76224	0.48712	-0.31906	0.28250	30.8	13111	100
2025-3-27 17:57:25.694	WT901BLE68-01(48591DE3C19B)	-0.131	-1.010	0.108	31.921	108.704	-19.592	-74.84	23.12	-64.14	-110.152	-34.692	44.394	-0.76224	0.48712	-0.31906	0.28250	30.8	13111	100
2025-3-27 17:57:25.695	WT901BLE68-01(48591DE3C19B)	-0.192	-1.010	0.108	31.921	108.704	-19.592	-75.01	23.06	-65.29	-110.152	-34.692	44.394	-0.76224	0.48712	-0.31906	0.28250	30.8	13111	100
2025-3-27 17:57:25.695	WT901BLE68-01(48591DE3C19B)	-0.192	-0.982	0.077	31.128	97.961	-22.705	-75.17	22.98	-66.37	-110.152	-34.692	44.394	-0.76224	0.48712	-0.31906	0.28250	30.8	13111	100
2025-3-27 17:57:25.695	WT901BLE68-01(48591DE3C19B)	-0.209	-0.982	0.077	31.128	97.961	-22.705	-75.31	22.87	-67.41	-110.152	-34.692	44.394	-0.76224	0.48712	-0.31906	0.28250	30.8	13111	100
2025-3-27 17:57:25.725	WT901BLE68-01(48591DE3C19B)	-0.209	-0.991	0.052	28.931	84.412	-25.635	-75.43	22.74	-68.38	-110.152	-34.692	44.394	-0.76224	0.48712	-0.31906	0.28250	30.8	13111	100
2025-3-27 17:57:25.725	WT901BLE68-01(48591DE3C19B)	-0.205	-0.991	0.052	28.931	84.412	-25.635	-75.54	22.58	-69.29	-110.152	-34.692	44.394	-0.76224	0.48712	-0.31906	0.28250	30.8	13111	100
2025-3-27 17:57:25.725	WT901BLE68-01(48591DE3C19B)	-0.205	-1.036	0.042	27.222	74.707	-29.724	-75.64	22.39	-70.14	-110.152	-34.692	44.394	-0.76224	0.48712	-0.31906	0.28250	30.8	13111	100
2025-3-27 17:57:25.725	WT901BLE68-01(48591DE3C19B)	-0.220	-1.036	0.042	27.222	74.707	-29.724	-75.72	22.17	-70.95	-110.152	-34.692	44.394	-0.76224	0.48712	-0.31906	0.28250	30.8	13111	100
2025-3-27 17:57:25.785	WT901BLE68-01(48591DE3C19B)	-0.220	-1.076	0.053	27.222	70.374	-35.217	-75.80	21.93	-71.74	-110.152	-34.692	44.394	-0.76224	0.48712	-0.31906	0.28250	30.8	13111	100
2025-3-27 17:57:25.785	WT901BLE68-01(48591DE3C19B)	-0.230	-1.076	0.053	27.222	70.374	-35.217	-75.88	21.65	-72.52	-110.152	-34.692	44.394	-0.76224	0.48712	-0.31906	0.28250	30.8	13111	100
2025-3-27 17:57:25.785	WT901BLE68-01(48591DE3C19B)	-0.230	-1.073	0.059	29.602	71.716	-41.504	-75.94	21.36	-73.30	-110.152	-34.692	44.394	-0.76224	0.48712	-0.31906	0.28250	30.8	13111	100
2025-3-27 17:57:25.785	WT901BLE68-01(48591DE3C19B)	-0.235	-1.073	0.059	29.602	71.716	-41.504	-76.00	21.04	-74.10	-110.152	-34.692	44.394	-0.76224	0.48712	-0.31906	0.28250	30.8	13111	100
2025-3-27 17:57:25.817	WT901BLE68-01(48591DE3C19B)	-0.235	-0.990	0.043	31.860	77.698	-46.753	-76.05	20.70	-74.94	-110.152	-34.692	44.394	-0.68231	0.39484	-0.48099	0.38351	30.8	13111	100
2025-3-27 17:57:25.817	WT901BLE68-01(48591DE3C19B)	-0.234	-0.990	0.043	31.860	77.698	-46.753	-76.10	20.35	-75.81	-110.152	-34.692	44.394	-0.68231	0.39484	-0.48099	0.38351	30.8	13111	100
2025-3-27 17:57:25.817	WT901BLE68-01(48591DE3C19B)	-0.234	-0.924	0.009	31.677	85.266	-51.453	-76.17	20.00	-76.72	-110.152	-34.692	44.394	-0.68231	0.39484	-0.48099	0.38351	30.8	13111	100
2025-3-27 17:57:25.817	WT901BLE68-01(48591DE3C19B)	-0.249	-0.924	0.009	31.677	85.266	-51.453	-76.25	19.63	-77.67	-110.152	-34.692	44.394	-0.68231	0.39484	-0.48099	0.38351	30.8	13111	100
2025-3-27 17:57:25.847	WT901BLE68-01(48591DE3C19B)	-0.249	-0.912	-0.019	31.372	91.675	-56.458	-76.33	19.25	-78.67	-110.152	-34.692	44.394	-0.68231	0.39484	-0.48099	0.38351	30.8	13111	100
2025-3-27 17:57:25.847	WT901BLE68-01(48591DE3C19B)	-0.266	-0.912	-0.019	31.372	91.675	-56.458	-76.42	18.85	-79.69	-110.152	-34.692	44.394	-0.68231	0.39484	-0.48099	0.38351	30.8	13111	100
2025-3-27 17:57:25.847	WT901BLE68-01(48591DE3C19B)	-0.266	-0.937	-0.018	30.762	94.971	-62.317	-76.52	18.44	-80.74	-110.152	-34.692	44.394	-0.68231	0.39484	-0.48099	0.38351	30.8	13111	100
2025-3-27 17:57:25.847	WT901BLE68-01(48591DE3C19B)	-0.287	-0.937	-0.018	30.762	94.971	-62.317	-76.62	18.01	-81.81	-110.152	-34.692	44.394	-0.68231	0.39484	-0.48099	0.38351	30.8	13111	100
2025-3-27 17:57:25.937	WT901BLE68-01(48591DE3C19B)	-0.287	-0.970	0.032	32.349	98.022	-68.604	-76.72	17.55	-82.89	-110.152	-34.692	44.394	-0.68231	0.39484	-0.48099	0.38351	30.8	13111	100
2025-3-27 17:57:25.937	WT901BLE68-01(48591DE3C19B)	-0.323	-0.970	0.032	32.349	98.022	-68.604	-76.81	17.06	-84.00	-110.152	-34.692	44.394	-0.68231	0.39484	-0.48099	0.38351	30.8	13111	100
2025-3-27 17:57:25.937	WT901BLE68-01(48591DE3C19B)	-0.323	-1.003	0.043	35.828	102.112	-75.012	-76.87	16.56	-85.13	-110.152	-34.692	44.394	-0.68231	0.39484	-0.48099	0.38351	30.8	13111	100
2025-3-27 17:57:25.937	WT901BLE68-01(48591DE3C19B)	-0.338	-1.003	0.043	35.828	102.112	-75.012	-76.92	16.03	-86.28	-110.152	-34.692	44.394	-0.68231	0.39484	-0.48099	0.38351	30.8	13111	100
2025-3-27 17:57:25.938	WT901BLE68-01(48591DE3C19B)	-0.338	-1.000	0.006	38.574	105.591	-81.970	-76.94	15.49	-87.45	-110.152	-34.692	44.394	-0.68231	0.39484	-0.48099	0.38351	30.8	13111	100
2025-3-27 17:57:25.938	WT901BLE68-01(48591DE3C19B)	-0.358	-1.000	0.006	38.574	105.591	-81.970	-76.95	14.91	-88.65	-110.152	-34.692	44.394	-0.68231	0.39484	-0.48099	0.38351	30.8	13111	100
2025-3-27 17:57:25.938	WT901BLE68-01(48591DE3C19B)	-0.358	-0.959	-0.012	37.964	106.873	-88.013	-76.95	14.29	-89.87	-110.152	-34.692	44.394	-0.68231	0.39484	-0.48099	0.38351	30.8	13111	100
2025-3-27 17:57:25.938	WT901BLE68-01(48591DE3C19B)	-0.419	-0.959	-0.012	37.964	106.873	-88.013	-76.95	13.67	-91.08	-110.152	-34.692	44.394	-0.68231	0.39484	-0.48099	0.38351	30.8	13111	100
2025-3-27 17:57:25.966	WT901BLE68-01(48591DE3C19B)	-0.419	-0.920	0.002	33.813	101.013	-91.553	-76.96	13.02	-92.24	-110.152	-34.692	44.394	-0.68231	0.39484	-0.48099	0.38351	30.8	13111	100
2025-3-27 17:57:25.966	WT901BLE68-01(48591DE3C19B)	-0.465	-0.920	0.002	33.813	101.013	-91.553	-76.96	12.38	-93.39	-110.152	-34.692	44.394	-0.68231	0.39484	-0.48099	0.38351	30.8	13111	100
2025-3-27 17:57:25.967	WT901BLE68-01(48591DE3C19B)	-0.465	-0.889	0.032	27.527	86.182	-93.262	-76.99	11.69	-94.39	-102.998	-47.824	15.778	-0.68231	0.39484	-0.48099	0.38351	30.8	13111	100
2025-3-27 17:57:25.967	WT901BLE68-01(48591DE3C19B)	-0.500	-0.889	0.032	27.527	86.182	-93.262	-76.99	11.01	-95.39	-102.998	-47.824	15.778	-0.68231	0.39484	-0.48099	0.38351	30.8	13111	100
2025-3-27 17:57:26.25	WT901BLE68-01(48591DE3C19B)	-0.500	-0.900	0.069	20.264	65.796	-93.628	-77.03	10.29	-96.19	-102.998	-47.824	15.778	-0.68231	0.39484	-0.48099	0.38351	30.8	13111	100
2025-3-27 17:57:26.25	WT901BLE68-01(48591DE3C19B)	-0.535	-0.900	0.069	20.264	65.796	-93.628	-77.04	9.59	-96.98	-102.998	-47.824	15.778	-0.68231	0.39484	-0.48099	0.38351	30.8	13111	100
2025-3-27 17:57:26.25	WT901BLE68-01(48591DE3C19B)	-0.535	-0.950	0.109	14.160	40.588	-92.224	-77.07	8.84	-97.51	-102.998	-47.824	15.778	-0.68231	0.39484	-0.48099	0.38351	30.8	13111	100
2025-3-27 17:57:26.25	WT901BLE68-01(48591DE3C19B)	-0.543	-0.950	0.109	14.160	40.588	-92.224	-77.09	8.11	-98.01	-102.998	-47.824	15.778	-0.68231	0.39484	-0.48099	0.38351	30.8	13111	100
2025-3-27 17:57:26.54	WT901BLE68-01(48591DE3C19B)	-0.543	-0.992	0.134	10.315	15.991	-88.257	-77.10	7.37	-98.27	-102.998	-47.824	15.778	-0.68231	0.39484	-0.48099	0.38351	30.8	13111	100
2025-3-27 17:57:26.54	WT901BLE68-01(48591DE3C19B)	-0.556	-0.992	0.134	10.315	15.991	-88.257	-77.11	6.64	-98.53	-102.998	-47.824	15.778	-0.68231	0.39484	-0.48099	0.38351	30.8	13111	100
2025-3-27 17:57:26.54	WT901BLE68-01(48591DE3C19B)	-0.556	-1.021	0.141	7.019	-6.897	-82.703	-77.11	5.91	-98.54	-102.998	-47.824	15.778	-0.68231	0.39484	-0.48099	0.38351	30.8	13111	100
2025-3-27 17:57:26.54	WT901BLE68-01(48591DE3C19B)	-0.544	-1.021	0.141	7.019	-6.897	-82.703	-77.12	5.20	-98.56	-102.998	-47.824	15.778	-0.68231	0.39484	-0.48099	0.38351	30.8	13111	100
2025-3-27 17:57:26.84	WT901BLE68-01(48591DE3C19B)	-0.544	-1.048	0.136	3.723	-26.489	-75.928	-77.14	4.51	-98.38	-102.998	-47.824	15.778	-0.68231	0.39484	-0.48099	0.38351	30.8	13111	100
2025-3-27 17:57:26.84	WT901BLE68-01(48591DE3C19B)	-0.524	-1.048	0.136	3.723	-26.489	-75.928	-77.15	3.83	-98.20	-102.998	-47.824	15.778	-0.68231	0.39484	-0.48099	0.38351	30.8	13111	100
2025-3-27 17:57:26.84	WT901BLE68-01(48591DE3C19B)	-0.524	-1.063	0.142	0.610	-39.612	-67.749	-77.20	3.21	-97.87	-102.998	-47.824	15.778	-0.68231	0.39484	-0.48099	0.38351	30.8	13111	100
2025-3-27 17:57:26.84	WT901BLE68-01(48591DE3C19B)	-0.503	-1.063	0.142	0.610	-39.612	-67.749	-77.23	2.59	-97.54	-102.998	-47.824	15.778	-0.68231	0.39484	-0.48099	0.38351	30.8	13111	100
2025-3-27 17:57:26.146	WT901BLE68-01(48591DE3C19B)	-0.503	-1.061	0.158	-1.648	-49.011	-57.556	-77.29	2.05	-97.10	-102.998	-47.824	15.778	-0.68231	0.39484	-0.48099	0.38351	30.8	13111	100
2025-3-27 17:57:26.147	WT901BLE68-01(48591DE3C19B)	-0.472	-1.061	0.158	-1.648	-49.011	-57.556	-77.35	1.52	-96.67	-102.998	-47.824	15.778	-0.68231	0.39484	-0.48099	0.38351	30.8	13111	100
2025-3-27 17:57:26.147	WT901BLE68-01(48591DE3C19B)	-0.472	-1.039	0.171	-3.906	-54.871	-46.387	-77.43	1.08	-96.16	-102.998	-47.824	15.778	-0.68231	0.39484	-0.48099	0.38351	30.8	13111	100
2025-3-27 17:57:26.147	WT901BLE68-01(48591DE3C19B)	-0.429	-1.039	0.171	-3.906	-54.871	-46.387	-77.51	0.65	-95.65	-102.998	-47.824	15.778	-0.68231	0.39484	-0.48099	0.38351	30.8	13111	100
2025-3-27 17:57:26.176	WT901BLE68-01(48591DE3C19B)	-0.429	-1.020	0.176	-5.920	-56.396	-35.645	-77.61	0.32	-95.10	-102.998	-47.824	15.778	-0.68231	0.39484	-0.48099	0.38351	30.8	13111	100
2025-3-27 17:57:26.176	WT901BLE68-01(48591DE3C19B)	-0.416	-1.020	0.176	-5.920	-56.396	-35.645	-77.71	0.00	-94.56	-102.998	-47.824	15.778	-0.68231	0.39484	-0.48099	0.38351	30.8	13111	100
2025-3-27 17:57:26.176	WT901BLE68-01(48591DE3C19B)	-0.416	-0.991	0.178	-7.690	-55.420	-25.757	-77.83	-0.22	-94.01	-102.998	-47.824	15.778	-0.68231	0.39484	-0.48099	0.38351	30.8	13111	100
2025-3-27 17:57:26.177	WT901BLE68-01(48591DE3C19B)	-0.445	-0.991	0.178	-7.690	-55.420	-25.757	-77.95	-0.44	-93.47	-102.998	-47.824	15.778	-0.53101	0.43329	-0.45590	0.56775	30.8	13111	100
2025-3-27 17:57:26.205	WT901BLE68-01(48591DE3C19B)	-0.445	-0.977	0.186	-9.888	-59.387	-17.944	-78.09	-0.60	-92.87	-102.998	-47.824	15.778	-0.53101	0.43329	-0.45590	0.56775	30.8	13111	100
2025-3-27 17:57:26.205	WT901BLE68-01(48591DE3C19B)	-0.482	-0.977	0.186	-9.888	-59.387	-17.944	-78.22	-0.75	-92.27	-102.998	-47.824	15.778	-0.53101	0.43329	-0.45590	0.56775	30.8	13111	100
2025-3-27 17:57:26.205	WT901BLE68-01(48591DE3C19B)	-0.482	-0.975	0.194	-11.353	-72.693	-11.963	-78.38	-0.86	-91.54	-102.998	-47.824	15.778	-0.53101	0.43329	-0.45590	0.56775	30.8	13111	100
2025-3-27 17:57:26.205	WT901BLE68-01(48591DE3C19B)	-0.494	-0.975	0.194	-11.353	-72.693	-11.963	-78.52	-0.98	-90.80	-102.998	-47.824	15.778	-0.53101	0.43329	-0.45590	0.56775	30.8	13111	100
2025-3-27 17:57:26.264	WT901BLE68-01(48591DE3C19B)	-0.494	-0.958	0.207	-12.329	-90.881	-6.958	-78.68	-1.07	-89.89	-102.998	-47.824	15.778	-0.53101	0.43329	-0.45590	0.56775	30.8	13111	100
2025-3-27 17:57:26.264	WT901BLE68-01(48591DE3C19B)	-0.499	-0.958	0.207	-12.329	-90.881	-6.958	-78.84	-1.16	-88.98	-102.998	-47.824	15.778	-0.53101	0.43329	-0.45590	0.56775	30.8	13111	100
2025-3-27 17:57:26.264	WT901BLE68-01(48591DE3C19B)	-0.499	-0.966	0.220	-12.878	-111.267	-1.892	-79.01	-1.24	-87.87	-102.998	-47.824	15.778	-0.53101	0.43329	-0.45590	0.56775	30.8	13111	100
2025-3-27 17:57:26.265	WT901BLE68-01(48591DE3C19B)	-0.486	-0.966	0.220	-12.878	-111.267	-1.892	-79.17	-1.31	-86.76	-102.998	-47.824	15.778	-0.53101	0.43329	-0.45590	0.56775	30.8	13111	100
2025-3-27 17:57:26.294	WT901BLE68-01(48591DE3C19B)	-0.486	-0.982	0.230	-11.719	-130.127	2.991	-79.33	-1.36	-85.46	-102.998	-47.824	15.778	-0.53101	0.43329	-0.45590	0.56775	30.8	13111	100
2025-3-27 17:57:26.294	WT901BLE68-01(48591DE3C19B)	-0.456	-0.982	0.230	-11.719	-130.127	2.991	-79.48	-1.42	-84.16	-102.998	-47.824	15.778	-0.53101	0.43329	-0.45590	0.56775	30.8	13111	100
2025-3-27 17:57:26.294	WT901BLE68-01(48591DE3C19B)	-0.456	-1.000	0.226	-9.705	-143.738	7.935	-79.61	-1.44	-82.72	-102.998	-47.824	15.778	-0.53101	0.43329	-0.45590	0.56775	30.8	13111	100
2025-3-27 17:57:26.294	WT901BLE68-01(48591DE3C19B)	-0.444	-1.000	0.226	-9.705	-143.738	7.935	-79.74	-1.46	-81.27	-102.998	-47.824	15.778	-0.53101	0.43329	-0.45590	0.56775	30.8	13111	100
2025-3-27 17:57:26.355	WT901BLE68-01(48591DE3C19B)	-0.444	-1.038	0.221	-7.202	-154.541	13.550	-79.85	-1.44	-79.71	-102.998	-47.824	15.778	-0.53101	0.43329	-0.45590	0.56775	30.8	13111	100
2025-3-27 17:57:26.355	WT901BLE68-01(48591DE3C19B)	-0.430	-1.038	0.221	-7.202	-154.541	13.550	-79.96	-1.42	-78.15	-102.998	-47.824	15.778	-0.53101	0.43329	-0.45590	0.56775	30.8	13111	100
2025-3-27 17:57:26.355	WT901BLE68-01(48591DE3C19B)	-0.430	-1.109	0.229	-2.136	-163.086	19.958	-80.02	-1.36	-76.49	-102.998	-47.824	15.778	-0.53101	0.43329	-0.45590	0.56775	30.8	13111	100
2025-3-27 17:57:26.355	WT901BLE68-01(48591DE3C19B)	-0.389	-1.109	0.229	-2.136	-163.086	19.958	-80.08	-1.29	-74.83	-102.998	-47.824	15.778	-0.53101	0.43329	-0.45590	0.56775	30.8	13111	100
2025-3-27 17:57:26.414	WT901BLE68-01(48591DE3C19B)	-0.389	-1.122	0.224	5.554	-165.161	27.039	-80.06	-1.16	-73.14	-102.998	-47.824	15.778	-0.53101	0.43329	-0.45590	0.56775	30.8	13111	100
2025-3-27 17:57:26.414	WT901BLE68-01(48591DE3C19B)	-0.344	-1.122	0.224	5.554	-165.161	27.039	-80.03	-1.04	-71.44	-102.998	-47.824	15.778	-0.53101	0.43329	-0.45590	0.56775	30.8	13111	100
2025-3-27 17:57:26.415	WT901BLE68-01(48591DE3C19B)	-0.308	-1.079	0.220	13.672	-159.790	35.400	-79.92	-0.82	-69.79	-102.998	-47.824	15.778	-0.53101	0.43329	-0.45590	0.56775	30.8	13111	100
2025-3-27 17:57:26.415	WT901BLE68-01(48591DE3C19B)	-0.308	-0.993	0.224	21.790	-149.109	45.044	-79.76	-0.57	-68.18	-100.842	-59.388	29.400	-0.53101	0.43329	-0.45590	0.56775	30.8	13111	100
2025-3-27 17:57:26.416	WT901BLE68-01(48591DE3C19B)	-0.265	-0.993	0.224	21.790	-149.109	45.044	-79.55	-0.26	-66.60	-100.842	-59.388	29.400	-0.53101	0.43329	-0.45590	0.56775	30.8	13111	100
2025-3-27 17:57:26.416	WT901BLE68-01(48591DE3C19B)	-0.265	-0.914	0.215	28.259	-133.606	56.335	-79.30	0.10	-65.10	-100.842	-59.388	29.400	-0.53101	0.43329	-0.45590	0.56775	30.8	13111	100
2025-3-27 17:57:26.416	WT901BLE68-01(48591DE3C19B)	-0.246	-0.914	0.215	28.259	-133.606	56.335	-79.01	0.52	-63.66	-100.842	-59.388	29.400	-0.53101	0.43329	-0.45590	0.56775	30.8	13111	100
2025-3-27 17:57:26.416	WT901BLE68-01(48591DE3C19B)	-0.246	-0.880	0.199	33.325	-116.455	70.374	-78.69	1.02	-62.29	-100.842	-59.388	29.400	-0.53101	0.43329	-0.45590	0.56775	30.8	13111	100
2025-3-27 17:57:26.474	WT901BLE68-01(48591DE3C19B)	-0.234	-0.880	0.199	33.325	-116.455	70.374	-78.33	1.59	-60.98	-100.842	-59.388	29.400	-0.53101	0.43329	-0.45590	0.56775	30.8	13111	100
2025-3-27 17:57:26.474	WT901BLE68-01(48591DE3C19B)	-0.234	-0.896	0.170	37.598	-103.210	84.290	-77.94	2.22	-59.72	-100.842	-59.388	29.400	-0.53101	0.43329	-0.45590	0.56775	30.8	13111	100
2025-3-27 17:57:26.474	WT901BLE68-01(48591DE3C19B)	-0.205	-0.896	0.170	37.598	-103.210	84.290	-77.51	2.92	-58.51	-100.842	-59.388	29.400	-0.53101	0.43329	-0.45590	0.56775	30.8	13111	100
2025-3-27 17:57:26.474	WT901BLE68-01(48591DE3C19B)	-0.205	-0.974	0.151	41.565	-93.445	97.107	-77.06	3.68	-57.32	-100.842	-59.388	29.400	-0.53101	0.43329	-0.45590	0.56775	30.8	13111	100
2025-3-27 17:57:26.503	WT901BLE68-01(48591DE3C19B)	-0.186	-0.974	0.151	41.565	-93.445	97.107	-76.58	4.49	-56.16	-100.842	-59.388	29.400	-0.53101	0.43329	-0.45590	0.56775	30.8	13111	100
2025-3-27 17:57:26.503	WT901BLE68-01(48591DE3C19B)	-0.186	-1.089	0.151	45.837	-84.656	107.056	-76.07	5.34	-55.02	-100.842	-59.388	29.400	-0.53101	0.43329	-0.45590	0.56775	30.8	13111	100
2025-3-27 17:57:26.503	WT901BLE68-01(48591DE3C19B)	-0.151	-1.089	0.151	45.837	-84.656	107.056	-75.53	6.24	-53.90	-100.842	-59.388	29.400	-0.53101	0.43329	-0.45590	0.56775	30.8	13111	100
2025-3-27 17:57:26.503	WT901BLE68-01(48591DE3C19B)	-0.151	-1.207	0.158	51.636	-76.172	112.976	-74.94	7.15	-52.81	-100.842	-59.388	29.400	-0.53101	0.43329	-0.45590	0.56775	30.8	13111	100
2025-3-27 17:57:26.565	WT901BLE68-01(48591DE3C19B)	-0.100	-1.207	0.158	51.636	-76.172	112.976	-74.32	8.07	-51.74	-100.842	-59.388	29.400	-0.53101	0.43329	-0.45590	0.56775	30.8	13111	100
2025-3-27 17:57:26.565	WT901BLE68-01(48591DE3C19B)	-0.100	-1.289	0.180	58.777	-58.777	117.920	-73.66	9.03	-50.74	-100.842	-59.388	29.400	-0.53101	0.43329	-0.45590	0.56775	30.8	13111	100
2025-3-27 17:57:26.565	WT901BLE68-01(48591DE3C19B)	-0.080	-1.289	0.180	58.777	-58.777	117.920	-72.97	10.00	-49.80	-100.842	-59.388	29.400	-0.53101	0.43329	-0.45590	0.56775	30.8	13111	100
2025-3-27 17:57:26.566	WT901BLE68-01(48591DE3C19B)	-0.080	-1.322	0.208	65.308	-31.311	123.047	-72.25	11.02	-48.97	-100.842	-59.388	29.400	-0.53101	0.43329	-0.45590	0.56775	30.8	13111	100
2025-3-27 17:57:26.594	WT901BLE68-01(48591DE3C19B)	-0.091	-1.322	0.208	65.308	-31.311	123.047	-71.51	12.09	-48.26	-100.842	-59.388	29.400	-0.53101	0.43329	-0.45590	0.56775	30.8	13111	100
2025-3-27 17:57:26.594	WT901BLE68-01(48591DE3C19B)	-0.091	-1.345	0.210	67.749	-4.150	130.493	-70.77	13.21	-47.65	-100.842	-59.388	29.400	-0.53101	0.43329	-0.45590	0.56775	30.8	13111	100
2025-3-27 17:57:26.594	WT901BLE68-01(48591DE3C19B)	-0.120	-1.345	0.210	67.749	-4.150	130.493	-70.04	14.40	-47.14	-100.842	-59.388	29.400	-0.53101	0.43329	-0.45590	0.56775	30.8	13111	100
2025-3-27 17:57:26.594	WT901BLE68-01(48591DE3C19B)	-0.120	-1.347	0.224	66.467	20.630	137.939	-69.33	15.64	-46.72	-100.842	-59.388	29.400	-0.53101	0.43329	-0.45590	0.56775	30.8	13111	100
2025-3-27 17:57:26.624	WT901BLE68-01(48591DE3C19B)	-0.175	-1.347	0.224	66.467	20.630	137.939	-68.65	16.96	-46.40	-100.842	-59.388	29.400	-0.78580	0.46054	-0.33429	0.24200	30.8	13111	100
2025-3-27 17:57:26.624	WT901BLE68-01(48591DE3C19B)	-0.175	-1.311	0.239	62.317	34.729	145.630	-68.00	18.31	-46.11	-100.842	-59.388	29.400	-0.78580	0.46054	-0.33429	0.24200	30.8	13111	100
2025-3-27 17:57:26.624	WT901BLE68-01(48591DE3C19B)	-0.165	-1.311	0.239	62.317	34.729	145.630	-67.38	19.73	-45.86	-100.842	-59.388	29.400	-0.78580	0.46054	-0.33429	0.24200	30.8	13111	100
2025-3-27 17:57:26.624	WT901BLE68-01(48591DE3C19B)	-0.165	-1.195	0.243	56.152	34.302	151.245	-66.77	21.15	-45.59	-100.842	-59.388	29.400	-0.78580	0.46054	-0.33429	0.24200	30.8	13111	100
2025-3-27 17:57:26.654	WT901BLE68-01(48591DE3C19B)	-0.079	-1.195	0.243	56.152	34.302	151.245	-66.18	22.59	-45.27	-100.842	-59.388	29.400	-0.78580	0.46054	-0.33429	0.24200	30.8	13111	100
2025-3-27 17:57:26.654	WT901BLE68-01(48591DE3C19B)	-0.079	-1.021	0.230	49.438	31.433	154.297	-65.60	24.02	-44.93	-100.842	-59.388	29.400	-0.78580	0.46054	-0.33429	0.24200	30.8	13111	100
2025-3-27 17:57:26.654	WT901BLE68-01(48591DE3C19B)	-0.087	-1.021	0.230	49.438	31.433	154.297	-65.03	25.45	-44.55	-100.842	-59.388	29.400	-0.78580	0.46054	-0.33429	0.24200	30.8	13111	100
2025-3-27 17:57:26.654	WT901BLE68-01(48591DE3C19B)	-0.087	-0.944	0.206	40.161	30.640	154.785	-64.50	26.87	-44.14	-100.842	-59.388	29.400	-0.78580	0.46054	-0.33429	0.24200	30.8	13111	100
2025-3-27 17:57:26.715	WT901BLE68-01(48591DE3C19B)	-0.114	-0.944	0.206	40.161	30.640	154.785	-63.98	28.27	-43.72	-100.842	-59.388	29.400	-0.78580	0.46054	-0.33429	0.24200	30.8	13111	100
2025-3-27 17:57:26.715	WT901BLE68-01(48591DE3C19B)	-0.114	-0.943	0.201	32.532	24.353	153.320	-63.48	29.64	-43.25	-100.842	-59.388	29.400	-0.78580	0.46054	-0.33429	0.24200	30.8	13111	100
2025-3-27 17:57:26.715	WT901BLE68-01(48591DE3C19B)	-0.104	-0.943	0.201	32.532	24.353	153.320	-62.99	30.98	-42.73	-100.842	-59.388	29.400	-0.78580	0.46054	-0.33429	0.24200	30.8	13111	100
2025-3-27 17:57:26.716	WT901BLE68-01(48591DE3C19B)	-0.104	-0.948	0.208	27.283	14.160	147.217	-62.48	32.26	-42.17	-100.842	-59.388	29.400	-0.78580	0.46054	-0.33429	0.24200	30.8	13111	100
2025-3-27 17:57:26.745	WT901BLE68-01(48591DE3C19B)	-0.048	-0.948	0.208	27.283	14.160	147.217	-61.96	33.48	-41.54	-100.842	-59.388	29.400	-0.78580	0.46054	-0.33429	0.24200	30.8	13111	100
2025-3-27 17:57:26.745	WT901BLE68-01(48591DE3C19B)	-0.048	-0.905	0.200	23.743	5.859	137.634	-61.44	34.61	-40.88	-100.842	-59.388	29.400	-0.78580	0.46054	-0.33429	0.24200	30.8	13111	100
2025-3-27 17:57:26.745	WT901BLE68-01(48591DE3C19B)	-0.058	-0.905	0.200	23.743	5.859	137.634	-60.89	35.68	-40.18	-100.842	-59.388	29.400	-0.78580	0.46054	-0.33429	0.24200	30.8	13111	100
2025-3-27 17:57:26.745	WT901BLE68-01(48591DE3C19B)	-0.058	-0.880	0.192	18.188	3.479	126.221	-60.37	36.68	-39.50	-100.842	-59.388	29.400	-0.78580	0.46054	-0.33429	0.24200	30.8	13111	100
2025-3-27 17:57:26.774	WT901BLE68-01(48591DE3C19B)	-0.082	-0.880	0.192	18.188	3.479	126.221	-59.88	37.61	-38.81	-100.842	-59.388	29.400	-0.78580	0.46054	-0.33429	0.24200	30.8	13111	100
2025-3-27 17:57:26.774	WT901BLE68-01(48591DE3C19B)	-0.082	-0.882	0.191	12.634	1.648	110.962	-59.41	38.46	-38.15	-100.842	-59.388	29.400	-0.78580	0.46054	-0.33429	0.24200	30.8	13111	100
2025-3-27 17:57:26.774	WT901BLE68-01(48591DE3C19B)	-0.083	-0.882	0.191	12.634	1.648	110.962	-58.99	39.23	-37.52	-105.154	-17.542	45.276	-0.78580	0.46054	-0.33429	0.24200	30.8	13111	100
2025-3-27 17:57:26.774	WT901BLE68-01(48591DE3C19B)	-0.083	-0.867	0.204	8.118	0.427	92.957	-58.61	39.91	-36.93	-105.154	-17.542	45.276	-0.78580	0.46054	-0.33429	0.24200	30.8	13111	100
2025-3-27 17:57:26.834	WT901BLE68-01(48591DE3C19B)	-0.063	-0.867	0.204	8.118	0.427	92.957	-58.27	40.51	-36.39	-105.154	-17.542	45.276	-0.78580	0.46054	-0.33429	0.24200	30.8	13111	100
2025-3-27 17:57:26.834	WT901BLE68-01(48591DE3C19B)	-0.063	-0.811	0.224	3.235	1.099	73.181	-58.00	41.02	-35.91	-105.154	-17.542	45.276	-0.78580	0.46054	-0.33429	0.24200	30.8	13111	100
2025-3-27 17:57:26.834	WT901BLE68-01(48591DE3C19B)	-0.055	-0.811	0.224	3.235	1.099	73.181	-57.80	41.45	-35.50	-105.154	-17.542	45.276	-0.78580	0.46054	-0.33429	0.24200	30.8	13111	100
2025-3-27 17:57:26.834	WT901BLE68-01(48591DE3C19B)	-0.055	-0.741	0.229	-2.258	4.639	53.162	-57.68	41.79	-35.18	-105.154	-17.542	45.276	-0.78580	0.46054	-0.33429	0.24200	30.8	13111	100
2025-3-27 17:57:26.894	WT901BLE68-01(48591DE3C19B)	-0.076	-0.741	0.229	-2.258	4.639	53.162	-57.64	42.06	-34.95	-105.154	-17.542	45.276	-0.78580	0.46054	-0.33429	0.24200	30.8	13111	100
2025-3-27 17:57:26.894	WT901BLE68-01(48591DE3C19B)	-0.076	-0.705	0.219	-9.521	9.033	33.081	-57.80	42.18	-34.91	-105.154	-17.542	45.276	-0.78580	0.46054	-0.33429	0.24200	30.8	13111	100
2025-3-27 17:57:26.894	WT901BLE68-01(48591DE3C19B)	-0.091	-0.705	0.219	-9.521	9.033	33.081	-57.96	42.30	-34.88	-105.154	-17.542	45.276	-0.78580	0.46054	-0.33429	0.24200	30.8	13111	100
2025-3-27 17:57:26.894	WT901BLE68-01(48591DE3C19B)	-0.091	-0.674	0.210	-16.541	11.597	12.024	-58.31	42.25	-35.02	-105.154	-17.542	45.276	-0.78580	0.46054	-0.33429	0.24200	30.8	13111	100
2025-3-27 17:57:26.895	WT901BLE68-01(48591DE3C19B)	-0.099	-0.674	0.210	-16.541	11.597	12.024	-58.65	42.20	-35.17	-105.154	-17.542	45.276	-0.78580	0.46054	-0.33429	0.24200	30.8	13111	100
2025-3-27 17:57:26.895	WT901BLE68-01(48591DE3C19B)	-0.099	-0.671	0.202	-23.499	14.465	-9.155	-59.18	42.00	-35.49	-105.154	-17.542	45.276	-0.78580	0.46054	-0.33429	0.24200	30.8	13111	100
2025-3-27 17:57:26.895	WT901BLE68-01(48591DE3C19B)	-0.122	-0.671	0.202	-23.499	14.465	-9.155	-59.71	41.79	-35.81	-105.154	-17.542	45.276	-0.78580	0.46054	-0.33429	0.24200	30.8	13111	100
2025-3-27 17:57:26.895	WT901BLE68-01(48591DE3C19B)	-0.122	-0.687	0.182	-29.785	16.968	-31.128	-60.40	41.40	-36.30	-105.154	-17.542	45.276	-0.78580	0.46054	-0.33429	0.24200	30.8	13111	100
2025-3-27 17:57:26.955	WT901BLE68-01(48591DE3C19B)	-0.150	-0.687	0.182	-29.785	16.968	-31.128	-61.08	41.01	-36.78	-105.154	-17.542	45.276	-0.78580	0.46054	-0.33429	0.24200	30.8	13111	100
2025-3-27 17:57:26.955	WT901BLE68-01(48591DE3C19B)	-0.150	-0.731	0.164	-35.706	17.151	-53.162	-61.90	40.44	-37.39	-105.154	-17.542	45.276	-0.78580	0.46054	-0.33429	0.24200	30.8	13111	100
2025-3-27 17:57:26.955	WT901BLE68-01(48591DE3C19B)	-0.165	-0.731	0.164	-35.706	17.151	-53.162	-62.70	39.85	-37.98	-105.154	-17.542	45.276	-0.78580	0.46054	-0.33429	0.24200	30.8	13111	100
2025-3-27 17:57:26.955	WT901BLE68-01(48591DE3C19B)	-0.165	-0.807	0.167	-40.405	16.724	-75.073	-63.61	39.08	-38.68	-105.154	-17.542	45.276	-0.78580	0.46054	-0.33429	0.24200	30.8	13111	100
2025-3-27 17:57:26.984	WT901BLE68-01(48591DE3C19B)	-0.170	-0.807	0.167	-40.405	16.724	-75.073	-64.49	38.30	-39.35	-105.154	-17.542	45.276	-0.78580	0.46054	-0.33429	0.24200	30.8	13111	100
2025-3-27 17:57:26.984	WT901BLE68-01(48591DE3C19B)	-0.170	-0.921	0.198	-42.175	20.020	-99.304	-65.47	37.32	-40.17	-105.154	-17.542	45.276	-0.78580	0.46054	-0.33429	0.24200	30.8	13111	100
2025-3-27 17:57:26.984	WT901BLE68-01(48591DE3C19B)	-0.223	-0.921	0.198	-42.175	20.020	-99.304	-66.41	36.33	-40.95	-105.154	-17.542	45.276	-0.78580	0.46054	-0.33429	0.24200	30.8	13111	100
2025-3-27 17:57:26.984	WT901BLE68-01(48591DE3C19B)	-0.223	-1.018	0.240	-38.940	24.048	-126.282	-67.38	35.10	-41.87	-105.154	-17.542	45.276	-0.79868	0.40826	-0.42184	0.13174	30.8	13111	100
2025-3-27 17:57:27.15	WT901BLE68-01(48591DE3C19B)	-0.288	-1.018	0.240	-38.940	24.048	-126.282	-68.32	33.88	-42.76	-105.154	-17.542	45.276	-0.79868	0.40826	-0.42184	0.13174	30.8	13111	100
2025-3-27 17:57:27.15	WT901BLE68-01(48591DE3C19B)	-0.288	-1.076	0.272	-32.898	22.705	-150.879	-69.20	32.42	-43.70	-105.154	-17.542	45.276	-0.79868	0.40826	-0.42184	0.13174	30.8	13111	100
2025-3-27 17:57:27.15	WT901BLE68-01(48591DE3C19B)	-0.286	-1.076	0.272	-32.898	22.705	-150.879	-70.03	30.96	-44.60	-105.154	-17.542	45.276	-0.79868	0.40826	-0.42184	0.13174	30.8	13111	100
2025-3-27 17:57:27.15	WT901BLE68-01(48591DE3C19B)	-0.286	-1.093	0.273	-25.024	20.691	-167.603	-70.76	29.34	-45.49	-105.154	-17.542	45.276	-0.79868	0.40826	-0.42184	0.13174	30.8	13111	100
2025-3-27 17:57:27.74	WT901BLE68-01(48591DE3C19B)	-0.278	-1.093	0.273	-25.024	20.691	-167.603	-71.45	27.72	-46.36	-105.154	-17.542	45.276	-0.79868	0.40826	-0.42184	0.13174	30.8	13111	100
2025-3-27 17:57:27.74	WT901BLE68-01(48591DE3C19B)	-0.278	-1.099	0.253	-17.822	24.536	-174.927	-72.05	26.05	-47.25	-105.154	-17.542	45.276	-0.79868	0.40826	-0.42184	0.13174	30.8	13111	100
2025-3-27 17:57:27.74	WT901BLE68-01(48591DE3C19B)	-0.269	-1.099	0.253	-17.822	24.536	-174.927	-72.62	24.38	-48.11	-105.154	-17.542	45.276	-0.79868	0.40826	-0.42184	0.13174	30.8	13111	100
2025-3-27 17:57:27.74	WT901BLE68-01(48591DE3C19B)	-0.269	-1.131	0.204	-13.245	35.767	-181.946	-73.16	22.68	-49.08	-105.154	-17.542	45.276	-0.79868	0.40826	-0.42184	0.13174	30.8	13111	100
2025-3-27 17:57:27.134	WT901BLE68-01(48591DE3C19B)	-0.245	-1.131	0.204	-13.245	35.767	-181.946	-73.66	20.98	-50.02	-105.154	-17.542	45.276	-0.79868	0.40826	-0.42184	0.13174	30.8	13111	100
2025-3-27 17:57:27.134	WT901BLE68-01(48591DE3C19B)	-0.245	-1.184	0.148	-10.071	48.157	-187.927	-74.14	19.26	-51.08	-105.154	-17.542	45.276	-0.79868	0.40826	-0.42184	0.13174	30.8	13111	100
2025-3-27 17:57:27.135	WT901BLE68-01(48591DE3C19B)	-0.233	-1.184	0.148	-10.071	48.157	-187.927	-74.59	17.55	-52.11	-105.154	-17.542	45.276	-0.79868	0.40826	-0.42184	0.13174	30.8	13111	100
2025-3-27 17:57:27.135	WT901BLE68-01(48591DE3C19B)	-0.233	-1.222	0.131	-7.263	57.556	-189.575	-75.00	15.84	-53.22	-105.154	-17.542	45.276	-0.79868	0.40826	-0.42184	0.13174	30.8	13111	100
2025-3-27 17:57:27.194	WT901BLE68-01(48591DE3C19B)	-0.266	-1.222	0.131	-7.263	57.556	-189.575	-75.38	14.14	-54.30	-105.154	-17.542	45.276	-0.79868	0.40826	-0.42184	0.13174	30.8	13111	100
2025-3-27 17:57:27.194	WT901BLE68-01(48591DE3C19B)	-0.266	-1.227	0.211	-5.981	63.416	-188.354	-75.72	12.47	-55.42	-105.154	-17.542	45.276	-0.79868	0.40826	-0.42184	0.13174	30.8	13111	100
2025-3-27 17:57:27.194	WT901BLE68-01(48591DE3C19B)	-0.288	-1.227	0.211	-5.981	63.416	-188.354	-76.02	10.81	-56.52	-105.154	-17.542	45.276	-0.79868	0.40826	-0.42184	0.13174	30.8	13111	100
2025-3-27 17:57:27.194	WT901BLE68-01(48591DE3C19B)	-0.288	-1.227	0.301	-6.104	72.144	-187.012	-76.31	9.17	-57.69	-105.154	-17.542	45.276	-0.79868	0.40826	-0.42184	0.13174	30.8	13111	100
2025-3-27 17:57:27.195	WT901BLE68-01(48591DE3C19B)	-0.371	-1.227	0.301	-6.104	72.144	-187.012	-76.55	7.55	-58.84	-105.154	-17.542	45.276	-0.79868	0.40826	-0.42184	0.13174	30.8	13111	100
2025-3-27 17:57:27.195	WT901BLE68-01(48591DE3C19B)	-0.371	-1.210	0.349	-4.883	83.313	-179.932	-76.75	6.03	-60.08	-105.154	-17.542	45.276	-0.79868	0.40826	-0.42184	0.13174	30.8	13111	100
2025-3-27 17:57:27.195	WT901BLE68-01(48591DE3C19B)	-0.475	-1.210	0.349	-4.883	83.313	-179.932	-76.92	4.52	-61.31	-105.154	-17.542	45.276	-0.79868	0.40826	-0.42184	0.13174	30.8	13111	100
2025-3-27 17:57:27.195	WT901BLE68-01(48591DE3C19B)	-0.475	-1.188	0.356	-1.526	90.271	-169.189	-77.03	3.13	-62.57	-105.154	-17.542	45.276	-0.79868	0.40826	-0.42184	0.13174	30.8	13111	100
2025-3-27 17:57:27.224	WT901BLE68-01(48591DE3C19B)	-0.527	-1.188	0.356	-1.526	90.271	-169.189	-77.09	1.76	-63.84	-105.154	-17.542	45.276	-0.79868	0.40826	-0.42184	0.13174	30.8	13111	100
2025-3-27 17:57:27.225	WT901BLE68-01(48591DE3C19B)	-0.527	-1.176	0.331	3.357	89.722	-156.860	-77.08	0.52	-65.06	-105.154	-17.542	45.276	-0.79868	0.40826	-0.42184	0.13174	30.8	13111	100
2025-3-27 17:57:27.225	WT901BLE68-01(48591DE3C19B)	-0.551	-1.176	0.331	3.357	89.722	-156.860	-77.04	-0.71	-66.29	-105.154	-17.542	45.276	-0.79868	0.40826	-0.42184	0.13174	30.8	13111	100
2025-3-27 17:57:27.225	WT901BLE68-01(48591DE3C19B)	-0.551	-1.166	0.275	7.568	82.275	-139.832	-76.94	-1.77	-67.41	-103.880	-46.354	35.084	-0.79868	0.40826	-0.42184	0.13174	30.8	13111	100
2025-3-27 17:57:27.254	WT901BLE68-01(48591DE3C19B)	-0.563	-1.166	0.275	7.568	82.275	-139.832	-76.82	-2.83	-68.54	-103.880	-46.354	35.084	-0.79868	0.40826	-0.42184	0.13174	30.8	13111	100
2025-3-27 17:57:27.254	WT901BLE68-01(48591DE3C19B)	-0.563	-1.125	0.205	10.559	70.313	-118.530	-76.65	-3.69	-69.50	-103.880	-46.354	35.084	-0.79868	0.40826	-0.42184	0.13174	30.8	13111	100
2025-3-27 17:57:27.254	WT901BLE68-01(48591DE3C19B)	-0.561	-1.125	0.205	10.559	70.313	-118.530	-76.48	-4.54	-70.47	-103.880	-46.354	35.084	-0.79868	0.40826	-0.42184	0.13174	30.8	13111	100
2025-3-27 17:57:27.254	WT901BLE68-01(48591DE3C19B)	-0.561	-1.096	0.160	12.390	52.551	-90.942	-76.30	-5.15	-71.20	-103.880	-46.354	35.084	-0.79868	0.40826	-0.42184	0.13174	30.8	13111	100
2025-3-27 17:57:27.317	WT901BLE68-01(48591DE3C19B)	-0.504	-1.096	0.160	12.390	52.551	-90.942	-76.11	-5.75	-71.93	-103.880	-46.354	35.084	-0.79868	0.40826	-0.42184	0.13174	30.8	13111	100
2025-3-27 17:57:27.317	WT901BLE68-01(48591DE3C19B)	-0.504	-1.062	0.162	10.620	35.522	-63.843	-75.97	-6.12	-72.43	-103.880	-46.354	35.084	-0.79868	0.40826	-0.42184	0.13174	30.8	13111	100
2025-3-27 17:57:27.317	WT901BLE68-01(48591DE3C19B)	-0.454	-1.062	0.162	10.620	35.522	-63.843	-75.82	-6.49	-72.93	-103.880	-46.354	35.084	-0.79868	0.40826	-0.42184	0.13174	30.8	13111	100
2025-3-27 17:57:27.317	WT901BLE68-01(48591DE3C19B)	-0.450	-1.057	0.171	9.338	30.273	-37.964	-75.70	-6.61	-73.32	-103.880	-46.354	35.084	-0.79868	0.40826	-0.42184	0.13174	30.8	13111	100
2025-3-27 17:57:27.346	WT901BLE68-01(48591DE3C19B)	-0.450	-1.025	0.176	7.507	29.968	-16.907	-75.59	-6.63	-73.69	-103.880	-46.354	35.084	-0.79868	0.40826	-0.42184	0.13174	30.8	13111	100
2025-3-27 17:57:27.346	WT901BLE68-01(48591DE3C19B)	-0.442	-1.025	0.176	7.507	29.968	-16.907	-75.50	-6.55	-74.02	-103.880	-46.354	35.084	-0.79868	0.40826	-0.42184	0.13174	30.8	13111	100
2025-3-27 17:57:27.346	WT901BLE68-01(48591DE3C19B)	-0.442	-0.994	0.174	5.188	27.954	-1.282	-75.42	-6.39	-74.33	-103.880	-46.354	35.084	-0.79868	0.40826	-0.42184	0.13174	30.8	13111	100
2025-3-27 17:57:27.346	WT901BLE68-01(48591DE3C19B)	-0.417	-0.994	0.174	5.188	27.954	-1.282	-75.36	-6.17	-74.60	-103.880	-46.354	35.084	-0.79868	0.40826	-0.42184	0.13174	30.8	13111	100
2025-3-27 17:57:27.374	WT901BLE68-01(48591DE3C19B)	-0.417	-0.949	0.173	3.662	25.452	10.620	-75.31	-5.88	-74.85	-103.880	-46.354	35.084	-0.79868	0.40826	-0.42184	0.13174	30.8	13111	100
2025-3-27 17:57:27.374	WT901BLE68-01(48591DE3C19B)	-0.405	-0.949	0.173	3.662	25.452	10.620	-75.27	-5.55	-75.07	-103.880	-46.354	35.084	-0.79868	0.40826	-0.42184	0.13174	30.8	13111	100
2025-3-27 17:57:27.374	WT901BLE68-01(48591DE3C19B)	-0.405	-0.916	0.168	1.770	21.912	19.897	-75.25	-5.17	-75.26	-103.880	-46.354	35.084	-0.79868	0.40826	-0.42184	0.13174	30.8	13111	100
2025-3-27 17:57:27.374	WT901BLE68-01(48591DE3C19B)	-0.429	-0.916	0.168	1.770	21.912	19.897	-75.24	-4.76	-75.42	-103.880	-46.354	35.084	-0.79868	0.40826	-0.42184	0.13174	30.8	13111	100
2025-3-27 17:57:27.435	WT901BLE68-01(48591DE3C19B)	-0.429	-0.884	0.187	0.610	13.733	26.550	-75.25	-4.33	-75.54	-103.880	-46.354	35.084	-0.79868	0.40826	-0.42184	0.13174	30.8	13111	100
2025-3-27 17:57:27.435	WT901BLE68-01(48591DE3C19B)	-0.452	-0.884	0.187	0.610	13.733	26.550	-75.26	-3.88	-75.60	-103.880	-46.354	35.084	-0.61270	0.49854	-0.35278	0.50146	30.8	13111	100
2025-3-27 17:57:27.435	WT901BLE68-01(48591DE3C19B)	-0.452	-0.851	0.182	-0.793	-1.953	31.494	-75.28	-3.42	-75.59	-103.880	-46.354	35.084	-0.61270	0.49854	-0.35278	0.50146	30.8	13111	100
2025-3-27 17:57:27.435	WT901BLE68-01(48591DE3C19B)	-0.451	-0.851	0.182	-0.793	-1.953	31.494	-75.31	-2.97	-75.49	-103.880	-46.354	35.084	-0.61270	0.49854	-0.35278	0.50146	30.8	13111	100
2025-3-27 17:57:27.464	WT901BLE68-01(48591DE3C19B)	-0.451	-0.871	0.169	-3.967	-21.851	34.790	-75.37	-2.52	-75.29	-103.880	-46.354	35.084	-0.61270	0.49854	-0.35278	0.50146	30.8	13111	100
2025-3-27 17:57:27.464	WT901BLE68-01(48591DE3C19B)	-0.449	-0.871	0.169	-3.967	-21.851	34.790	-75.44	-2.08	-74.99	-103.880	-46.354	35.084	-0.61270	0.49854	-0.35278	0.50146	30.8	13111	100
2025-3-27 17:57:27.464	WT901BLE68-01(48591DE3C19B)	-0.449	-0.948	0.185	-4.883	-43.762	38.696	-75.51	-1.65	-74.59	-103.880	-46.354	35.084	-0.61270	0.49854	-0.35278	0.50146	30.8	13111	100
2025-3-27 17:57:27.464	WT901BLE68-01(48591DE3C19B)	-0.429	-0.948	0.185	-4.883	-43.762	38.696	-75.59	-1.22	-74.07	-103.880	-46.354	35.084	-0.61270	0.49854	-0.35278	0.50146	30.8	13111	100
2025-3-27 17:57:27.523	WT901BLE68-01(48591DE3C19B)	-0.429	-1.006	0.202	-3.235	-67.139	43.701	-75.66	-0.81	-73.43	-103.880	-46.354	35.084	-0.61270	0.49854	-0.35278	0.50146	30.8	13111	100
2025-3-27 17:57:27.524	WT901BLE68-01(48591DE3C19B)	-0.389	-1.006	0.202	-3.235	-67.139	43.701	-75.72	-0.41	-72.67	-103.880	-46.354	35.084	-0.61270	0.49854	-0.35278	0.50146	30.8	13111	100
2025-3-27 17:57:27.524	WT901BLE68-01(48591DE3C19B)	-0.389	-1.014	0.226	-0.061	-87.402	50.232	-75.76	0.00	-71.81	-103.880	-46.354	35.084	-0.61270	0.49854	-0.35278	0.50146	30.8	13111	100
2025-3-27 17:57:27.524	WT901BLE68-01(48591DE3C19B)	-0.336	-1.014	0.226	-0.061	-87.402	50.232	-75.77	0.41	-70.84	-103.880	-46.354	35.084	-0.61270	0.49854	-0.35278	0.50146	30.8	13111	100
2025-3-27 17:57:27.556	WT901BLE68-01(48591DE3C19B)	-0.336	-0.996	0.226	2.930	-97.778	57.800	-75.76	0.84	-69.81	-103.880	-46.354	35.084	-0.61270	0.49854	-0.35278	0.50146	30.8	13111	100
2025-3-27 17:57:27.556	WT901BLE68-01(48591DE3C19B)	-0.274	-0.996	0.226	2.930	-97.778	57.800	-75.73	1.29	-68.72	-103.880	-46.354	35.084	-0.61270	0.49854	-0.35278	0.50146	30.8	13111	100
2025-3-27 17:57:27.557	WT901BLE68-01(48591DE3C19B)	-0.274	-1.087	0.187	0.366	-95.459	63.904	-75.70	1.76	-67.64	-103.880	-46.354	35.084	-0.61270	0.49854	-0.35278	0.50146	30.8	13111	100
2025-3-27 17:57:27.557	WT901BLE68-01(48591DE3C19B)	-0.222	-1.087	0.187	0.366	-95.459	63.904	-75.67	2.26	-66.55	-103.880	-46.354	35.084	-0.61270	0.49854	-0.35278	0.50146	30.8	13111	100
2025-3-27 17:57:27.615	WT901BLE68-01(48591DE3C19B)	-0.111	-1.326	0.155	-2.625	-81.787	65.491	-75.66	2.77	-65.53	-103.880	-46.354	35.084	-0.61270	0.49854	-0.35278	0.50146	30.8	13111	100
2025-3-27 17:57:27.615	WT901BLE68-01(48591DE3C19B)	-0.232	-0.663	0.077	-2.625	-81.787	65.491	-75.66	3.31	-64.58	-103.880	-46.354	35.084	-0.61270	0.49854	-0.35278	0.50146	30.8	13111	100
2025-3-27 17:57:27.615	WT901BLE68-01(48591DE3C19B)	-0.232	-1.531	0.167	0.183	-64.087	66.101	-75.64	3.85	-63.70	-103.880	-46.354	35.084	-0.61270	0.49854	-0.35278	0.50146	30.8	13111	100
2025-3-27 17:57:27.615	WT901BLE68-01(48591DE3C19B)	-0.241	-1.531	0.167	0.183	-64.087	66.101	-75.61	4.41	-62.91	-101.920	-49.588	35.084	-0.61270	0.49854	-0.35278	0.50146	30.8	13111	100
2025-3-27 17:57:27.617	WT901BLE68-01(48591DE3C19B)	-0.241	-1.348	0.237	11.169	-54.382	72.083	-75.52	5.00	-62.17	-101.920	-49.588	35.084	-0.61270	0.49854	-0.35278	0.50146	30.8	13111	100
2025-3-27 17:57:27.617	WT901BLE68-01(48591DE3C19B)	-0.133	-1.348	0.237	11.169	-54.382	72.083	-75.38	5.62	-61.46	-101.920	-49.588	35.084	-0.61270	0.49854	-0.35278	0.50146	30.8	13111	100
2025-3-27 17:57:27.617	WT901BLE68-01(48591DE3C19B)	-0.133	-0.972	0.263	6.531	-45.044	83.008	-75.25	6.30	-60.78	-101.920	-49.588	35.084	-0.61270	0.49854	-0.35278	0.50146	30.8	13111	100
2025-3-27 17:57:27.617	WT901BLE68-01(48591DE3C19B)	-0.053	-0.972	0.263	6.531	-45.044	83.008	-75.14	7.03	-60.13	-101.920	-49.588	35.084	-0.61270	0.49854	-0.35278	0.50146	30.8	13111	100
2025-3-27 17:57:27.675	WT901BLE68-01(48591DE3C19B)	-0.053	-0.753	0.272	-4.211	-32.043	95.276	-75.07	7.83	-59.52	-101.920	-49.588	35.084	-0.61270	0.49854	-0.35278	0.50146	30.8	13111	100
2025-3-27 17:57:27.675	WT901BLE68-01(48591DE3C19B)	-0.003	-0.753	0.272	-4.211	-32.043	95.276	-75.05	8.69	-58.96	-101.920	-49.588	35.084	-0.61270	0.49854	-0.35278	0.50146	30.8	13111	100
2025-3-27 17:57:27.675	WT901BLE68-01(48591DE3C19B)	-0.003	-0.699	0.292	-13.672	-25.085	101.929	-75.08	9.59	-58.43	-101.920	-49.588	35.084	-0.61270	0.49854	-0.35278	0.50146	30.8	13111	100
2025-3-27 17:57:27.675	WT901BLE68-01(48591DE3C19B)	0.032	-0.699	0.292	-13.672	-25.085	101.929	-75.14	10.51	-57.92	-101.920	-49.588	35.084	-0.61270	0.49854	-0.35278	0.50146	30.8	13111	100
2025-3-27 17:57:27.704	WT901BLE68-01(48591DE3C19B)	0.032	-0.756	0.298	-18.860	-27.710	102.051	-75.21	11.43	-57.40	-101.920	-49.588	35.084	-0.61270	0.49854	-0.35278	0.50146	30.8	13111	100
2025-3-27 17:57:27.704	WT901BLE68-01(48591DE3C19B)	0.088	-0.756	0.298	-18.860	-27.710	102.051	-75.29	12.33	-56.87	-101.920	-49.588	35.084	-0.61270	0.49854	-0.35278	0.50146	30.8	13111	100
2025-3-27 17:57:27.704	WT901BLE68-01(48591DE3C19B)	0.088	-0.863	0.274	-18.250	-31.677	96.130	-75.35	13.19	-56.32	-101.920	-49.588	35.084	-0.61270	0.49854	-0.35278	0.50146	30.8	13111	100
2025-3-27 17:57:27.704	WT901BLE68-01(48591DE3C19B)	0.088	-0.863	0.274	-18.250	-31.677	96.130	-75.40	14.00	-55.76	-101.920	-49.588	35.084	-0.61270	0.49854	-0.35278	0.50146	30.8	13111	100
2025-3-27 17:57:27.767	WT901BLE68-01(48591DE3C19B)	0.088	-0.983	0.234	-11.414	-22.766	89.783	-75.42	14.78	-55.25	-101.920	-49.588	35.084	-0.61270	0.49854	-0.35278	0.50146	30.8	13111	100
2025-3-27 17:57:27.767	WT901BLE68-01(48591DE3C19B)	0.086	-0.983	0.234	-11.414	-22.766	89.783	-75.41	15.53	-54.79	-101.920	-49.588	35.084	-0.61270	0.49854	-0.35278	0.50146	30.8	13111	100
2025-3-27 17:57:27.767	WT901BLE68-01(48591DE3C19B)	0.086	-1.123	0.169	-2.441	-9.216	76.172	-75.38	16.22	-54.42	-101.920	-49.588	35.084	-0.61270	0.49854	-0.35278	0.50146	30.8	13111	100
2025-3-27 17:57:27.767	WT901BLE68-01(48591DE3C19B)	0.116	-1.123	0.169	-2.441	-9.216	76.172	-75.32	16.85	-54.13	-101.920	-49.588	35.084	-0.61270	0.49854	-0.35278	0.50146	30.8	13111	100
2025-3-27 17:57:27.796	WT901BLE68-01(48591DE3C19B)	0.116	-1.189	0.122	9.216	-0.610	61.829	-75.23	17.41	-53.90	-101.920	-49.588	35.084	-0.61270	0.49854	-0.35278	0.50146	30.8	13111	100
2025-3-27 17:57:27.796	WT901BLE68-01(48591DE3C19B)	0.149	-1.189	0.122	9.216	-0.610	61.829	-75.10	17.91	-53.74	-101.920	-49.588	35.084	-0.61270	0.49854	-0.35278	0.50146	30.8	13111	100
2025-3-27 17:57:27.796	WT901BLE68-01(48591DE3C19B)	0.149	-1.202	0.127	14.709	1.526	50.903	-74.94	18.30	-53.62	-101.920	-49.588	35.084	-0.61270	0.49854	-0.35278	0.50146	30.8	13111	100
2025-3-27 17:57:27.797	WT901BLE68-01(48591DE3C19B)	0.154	-1.202	0.127	14.709	1.526	50.903	-74.78	18.68	-53.51	-101.920	-49.588	35.084	-0.74493	0.47607	-0.38528	0.26428	30.8	13111	100
2025-3-27 17:57:27.825	WT901BLE68-01(48591DE3C19B)	0.154	-1.178	0.180	15.564	2.502	37.781	-74.62	18.93	-53.44	-101.920	-49.588	35.084	-0.74493	0.47607	-0.38528	0.26428	30.8	13111	100
2025-3-27 17:57:27.825	WT901BLE68-01(48591DE3C19B)	0.132	-1.178	0.180	15.564	2.502	37.781	-74.48	19.18	-53.37	-101.920	-49.588	35.084	-0.74493	0.47607	-0.38528	0.26428	30.8	13111	100
2025-3-27 17:57:27.825	WT901BLE68-01(48591DE3C19B)	0.132	-1.096	0.238	12.756	1.709	27.771	-74.36	19.32	-53.32	-101.920	-49.588	35.084	-0.74493	0.47607	-0.38528	0.26428	30.8	13111	100
2025-3-27 17:57:27.825	WT901BLE68-01(48591DE3C19B)	0.062	-1.096	0.238	12.756	1.709	27.771	-74.25	19.46	-53.27	-101.920	-49.588	35.084	-0.74493	0.47607	-0.38528	0.26428	30.8	13111	100
2025-3-27 17:57:27.884	WT901BLE68-01(48591DE3C19B)	0.062	-0.978	0.284	5.432	-5.127	18.677	-74.19	19.49	-53.18	-101.920	-49.588	35.084	-0.74493	0.47607	-0.38528	0.26428	30.8	13111	100
2025-3-27 17:57:27.884	WT901BLE68-01(48591DE3C19B)	0.035	-0.978	0.284	5.432	-5.127	18.677	-74.12	19.52	-53.09	-101.920	-49.588	35.084	-0.74493	0.47607	-0.38528	0.26428	30.8	13111	100
2025-3-27 17:57:27.884	WT901BLE68-01(48591DE3C19B)	0.035	-0.901	0.288	-1.526	-19.836	9.521	-74.09	19.42	-52.87	-101.920	-49.588	35.084	-0.74493	0.47607	-0.38528	0.26428	30.8	13111	100
2025-3-27 17:57:27.884	WT901BLE68-01(48591DE3C19B)	0.054	-0.901	0.288	-1.526	-19.836	9.521	-74.05	19.33	-52.65	-101.920	-49.588	35.084	-0.74493	0.47607	-0.38528	0.26428	30.8	13111	100
2025-3-27 17:57:27.915	WT901BLE68-01(48591DE3C19B)	0.054	-0.868	0.254	-7.996	-32.959	1.831	-74.04	19.12	-52.32	-101.920	-49.588	35.084	-0.74493	0.47607	-0.38528	0.26428	30.8	13111	100
2025-3-27 17:57:27.915	WT901BLE68-01(48591DE3C19B)	0.082	-0.868	0.254	-7.996	-32.959	1.831	-74.03	18.92	-51.98	-101.920	-49.588	35.084	-0.74493	0.47607	-0.38528	0.26428	30.8	13111	100
2025-3-27 17:57:27.915	WT901BLE68-01(48591DE3C19B)	0.082	-0.858	0.218	-11.658	-36.865	-4.517	-74.04	18.64	-51.63	-101.920	-49.588	35.084	-0.74493	0.47607	-0.38528	0.26428	30.8	13111	100
2025-3-27 17:57:27.916	WT901BLE68-01(48591DE3C19B)	0.082	-0.858	0.218	-11.658	-36.865	-4.517	-74.06	18.37	-51.28	-101.920	-49.588	35.084	-0.74493	0.47607	-0.38528	0.26428	30.8	13111	100
2025-3-27 17:57:27.977	WT901BLE68-01(48591DE3C19B)	0.082	-0.878	0.194	-13.184	-31.494	-11.475	-74.12	18.05	-51.00	-101.920	-49.588	35.084	-0.74493	0.47607	-0.38528	0.26428	30.8	13111	100
2025-3-27 17:57:27.977	WT901BLE68-01(48591DE3C19B)	0.086	-0.878	0.194	-13.184	-31.494	-11.475	-74.18	17.72	-50.73	-101.920	-49.588	35.084	-0.74493	0.47607	-0.38528	0.26428	30.8	13111	100
2025-3-27 17:57:27.977	WT901BLE68-01(48591DE3C19B)	0.086	-0.876	0.179	-11.292	-21.240	-19.714	-74.26	17.34	-50.58	-101.920	-49.588	35.084	-0.74493	0.47607	-0.38528	0.26428	30.8	13111	100
2025-3-27 17:57:27.977	WT901BLE68-01(48591DE3C19B)	0.081	-0.876	0.179	-11.292	-21.240	-19.714	-74.34	16.97	-50.43	-101.920	-49.588	35.084	-0.74493	0.47607	-0.38528	0.26428	30.8	13111	100
2025-3-27 17:57:28.6	WT901BLE68-01(48591DE3C19B)	0.081	-0.860	0.166	-10.254	-4.089	-28.931	-74.48	16.56	-50.48	-101.920	-49.588	35.084	-0.74493	0.47607	-0.38528	0.26428	30.8	13111	100
2025-3-27 17:57:28.6	WT901BLE68-01(48591DE3C19B)	0.042	-0.860	0.166	-10.254	-4.089	-28.931	-74.61	16.14	-50.53	-101.920	-49.588	35.084	-0.74493	0.47607	-0.38528	0.26428	30.8	13111	100
2025-3-27 17:57:28.6	WT901BLE68-01(48591DE3C19B)	0.042	-0.885	0.151	-9.155	13.733	-39.978	-74.79	15.68	-50.78	-101.920	-49.588	35.084	-0.74493	0.47607	-0.38528	0.26428	30.8	13111	100
2025-3-27 17:57:28.6	WT901BLE68-01(48591DE3C19B)	-0.033	-0.885	0.151	-9.155	13.733	-39.978	-74.97	15.21	-51.04	-101.920	-49.588	35.084	-0.74493	0.47607	-0.38528	0.26428	30.8	13111	100
2025-3-27 17:57:28.37	WT901BLE68-01(48591DE3C19B)	-0.033	-0.905	0.142	-7.263	23.132	-49.866	-75.15	14.68	-51.41	-102.116	-32.928	42.042	-0.74493	0.47607	-0.38528	0.26428	30.8	13111	100
2025-3-27 17:57:28.37	WT901BLE68-01(48591DE3C19B)	-0.106	-0.905	0.142	-7.263	23.132	-49.866	-75.33	14.16	-51.78	-102.116	-32.928	42.042	-0.74493	0.47607	-0.38528	0.26428	30.8	13111	100
2025-3-27 17:57:28.37	WT901BLE68-01(48591DE3C19B)	-0.106	-0.910	0.148	-5.798	23.926	-58.105	-75.50	13.56	-52.18	-102.116	-32.928	42.042	-0.74493	0.47607	-0.38528	0.26428	30.8	13111	100
2025-3-27 17:57:28.37	WT901BLE68-01(48591DE3C19B)	-0.158	-0.910	0.148	-5.798	23.926	-58.105	-75.67	12.97	-52.58	-102.116	-32.928	42.042	-0.74493	0.47607	-0.38528	0.26428	30.8	13111	100
2025-3-27 17:57:28.65	WT901BLE68-01(48591DE3C19B)	-0.158	-0.876	0.179	-5.554	19.287	-64.758	-75.82	12.31	-52.93	-102.116	-32.928	42.042	-0.74493	0.47607	-0.38528	0.26428	30.8	13111	100
2025-3-27 17:57:28.65	WT901BLE68-01(48591DE3C19B)	-0.220	-0.876	0.179	-5.554	19.287	-64.758	-75.97	11.66	-53.29	-102.116	-32.928	42.042	-0.74493	0.47607	-0.38528	0.26428	30.8	13111	100
2025-3-27 17:57:28.65	WT901BLE68-01(48591DE3C19B)	-0.220	-0.848	0.215	-7.751	11.169	-69.763	-76.12	10.96	-53.58	-102.116	-32.928	42.042	-0.74493	0.47607	-0.38528	0.26428	30.8	13111	100
2025-3-27 17:57:28.65	WT901BLE68-01(48591DE3C19B)	-0.271	-0.848	0.215	-7.751	11.169	-69.763	-76.26	10.26	-53.87	-102.116	-32.928	42.042	-0.74493	0.47607	-0.38528	0.26428	30.8	13111	100
2025-3-27 17:57:28.155	WT901BLE68-01(48591DE3C19B)	-0.271	-0.847	0.249	-11.230	-0.305	-72.571	-76.41	9.53	-54.04	-102.116	-32.928	42.042	-0.74493	0.47607	-0.38528	0.26428	30.8	13111	100
2025-3-27 17:57:28.155	WT901BLE68-01(48591DE3C19B)	-0.282	-0.847	0.249	-11.230	-0.305	-72.571	-76.56	8.79	-54.21	-102.116	-32.928	42.042	-0.74493	0.47607	-0.38528	0.26428	30.8	13111	100
2025-3-27 17:57:28.155	WT901BLE68-01(48591DE3C19B)	-0.282	-0.855	0.269	-13.794	-10.071	-73.547	-76.71	8.05	-54.28	-102.116	-32.928	42.042	-0.74493	0.47607	-0.38528	0.26428	30.8	13111	100
2025-3-27 17:57:28.155	WT901BLE68-01(48591DE3C19B)	-0.278	-0.855	0.269	-13.794	-10.071	-73.547	-76.85	7.31	-54.36	-102.116	-32.928	42.042	-0.74493	0.47607	-0.38528	0.26428	30.8	13111	100
2025-3-27 17:57:28.156	WT901BLE68-01(48591DE3C19B)	-0.278	-0.839	0.289	-16.235	-14.221	-72.388	-77.01	6.59	-54.39	-102.116	-32.928	42.042	-0.74493	0.47607	-0.38528	0.26428	30.8	13111	100
2025-3-27 17:57:28.156	WT901BLE68-01(48591DE3C19B)	-0.270	-0.839	0.289	-16.235	-14.221	-72.388	-77.17	5.87	-54.42	-102.116	-32.928	42.042	-0.74493	0.47607	-0.38528	0.26428	30.8	13111	100
2025-3-27 17:57:28.157	WT901BLE68-01(48591DE3C19B)	-0.270	-0.875	0.308	-19.409	-13.123	-71.472	-77.35	5.17	-54.45	-102.116	-32.928	42.042	-0.74493	0.47607	-0.38528	0.26428	30.8	13111	100
2025-3-27 17:57:28.157	WT901BLE68-01(48591DE3C19B)	-0.254	-0.875	0.308	-19.409	-13.123	-71.472	-77.54	4.48	-54.48	-102.116	-32.928	42.042	-0.74493	0.47607	-0.38528	0.26428	30.8	13111	100
2025-3-27 17:57:28.185	WT901BLE68-01(48591DE3C19B)	-0.254	-1.037	0.328	-20.813	-9.094	-70.618	-77.73	3.82	-54.55	-102.116	-32.928	42.042	-0.74493	0.47607	-0.38528	0.26428	30.8	13111	100
2025-3-27 17:57:28.185	WT901BLE68-01(48591DE3C19B)	-0.264	-1.037	0.328	-20.813	-9.094	-70.618	-77.92	3.16	-54.61	-102.116	-32.928	42.042	-0.74493	0.47607	-0.38528	0.26428	30.8	13111	100
2025-3-27 17:57:28.185	WT901BLE68-01(48591DE3C19B)	-0.264	-1.201	0.366	-13.062	-2.625	-67.749	-78.03	2.54	-54.73	-102.116	-32.928	42.042	-0.74493	0.47607	-0.38528	0.26428	30.8	13111	100
2025-3-27 17:57:28.185	WT901BLE68-01(48591DE3C19B)	-0.261	-1.201	0.366	-13.062	-2.625	-67.749	-78.14	1.93	-54.85	-102.116	-32.928	42.042	-0.74493	0.47607	-0.38528	0.26428	30.8	13111	100
2025-3-27 17:57:28.245	WT901BLE68-01(48591DE3C19B)	-0.261	-1.200	0.367	2.502	11.230	-60.608	-78.10	1.42	-55.10	-102.116	-32.928	42.042	-0.74493	0.47607	-0.38528	0.26428	30.8	13111	100
2025-3-27 17:57:28.245	WT901BLE68-01(48591DE3C19B)	-0.205	-1.200	0.367	2.502	11.230	-60.608	-78.05	0.92	-55.34	-102.116	-32.928	42.042	-0.68958	0.55405	-0.29782	0.35876	30.8	13111	100
2025-3-27 17:57:28.245	WT901BLE68-01(48591DE3C19B)	-0.118	-1.036	0.306	16.174	39.307	-48.279	-77.87	0.59	-55.83	-102.116	-32.928	42.042	-0.68958	0.55405	-0.29782	0.35876	30.8	13111	100
2025-3-27 17:57:28.245	WT901BLE68-01(48591DE3C19B)	-0.118	-0.884	0.224	24.048	81.238	-32.104	-77.65	0.39	-56.51	-102.116	-32.928	42.042	-0.68958	0.55405	-0.29782	0.35876	30.8	13111	100
2025-3-27 17:57:28.274	WT901BLE68-01(48591DE3C19B)	-0.099	-0.884	0.224	24.048	81.238	-32.104	-77.39	0.32	-57.38	-102.116	-32.928	42.042	-0.68958	0.55405	-0.29782	0.35876	30.8	13111	100
2025-3-27 17:57:28.274	WT901BLE68-01(48591DE3C19B)	-0.099	-0.844	0.155	24.780	120.911	-11.902	-77.13	0.39	-58.43	-102.116	-32.928	42.042	-0.68958	0.55405	-0.29782	0.35876	30.8	13111	100
2025-3-27 17:57:28.274	WT901BLE68-01(48591DE3C19B)	-0.131	-0.844	0.155	24.780	120.911	-11.902	-76.88	0.60	-59.63	-102.116	-32.928	42.042	-0.68958	0.55405	-0.29782	0.35876	30.8	13111	100
2025-3-27 17:57:28.274	WT901BLE68-01(48591DE3C19B)	-0.131	-0.953	0.166	22.095	140.381	3.845	-76.65	0.92	-60.92	-102.116	-32.928	42.042	-0.68958	0.55405	-0.29782	0.35876	30.8	13111	100
2025-3-27 17:57:28.305	WT901BLE68-01(48591DE3C19B)	-0.184	-0.953	0.166	22.095	140.381	3.845	-76.45	1.33	-62.29	-102.116	-32.928	42.042	-0.68958	0.55405	-0.29782	0.35876	30.8	13111	100
2025-3-27 17:57:28.305	WT901BLE68-01(48591DE3C19B)	-0.184	-1.137	0.219	20.569	142.944	20.325	-76.27	1.83	-63.64	-102.116	-32.928	42.042	-0.68958	0.55405	-0.29782	0.35876	30.8	13111	100
2025-3-27 17:57:28.305	WT901BLE68-01(48591DE3C19B)	-0.213	-1.137	0.219	20.569	142.944	20.325	-76.11	2.42	-64.98	-102.116	-32.928	42.042	-0.68958	0.55405	-0.29782	0.35876	30.8	13111	100
2025-3-27 17:57:28.305	WT901BLE68-01(48591DE3C19B)	-0.213	-1.280	0.215	23.987	149.780	32.837	-75.96	3.07	-66.35	-102.116	-32.928	42.042	-0.68958	0.55405	-0.29782	0.35876	30.8	13111	100
2025-3-27 17:57:28.366	WT901BLE68-01(48591DE3C19B)	-0.275	-1.280	0.215	23.987	149.780	32.837	-75.81	3.79	-67.73	-102.116	-32.928	42.042	-0.68958	0.55405	-0.29782	0.35876	30.8	13111	100
2025-3-27 17:57:28.367	WT901BLE68-01(48591DE3C19B)	-0.275	-1.228	0.177	29.602	160.034	43.640	-75.65	4.57	-69.15	-102.116	-32.928	42.042	-0.68958	0.55405	-0.29782	0.35876	30.8	13111	100
2025-3-27 17:57:28.367	WT901BLE68-01(48591DE3C19B)	-0.351	-1.228	0.177	29.602	160.034	43.640	-75.50	5.42	-70.60	-102.116	-32.928	42.042	-0.68958	0.55405	-0.29782	0.35876	30.8	13111	100
2025-3-27 17:57:28.367	WT901BLE68-01(48591DE3C19B)	-0.351	-1.101	0.158	26.123	161.987	49.927	-75.38	6.31	-72.05	-102.116	-32.928	42.042	-0.68958	0.55405	-0.29782	0.35876	30.8	13111	100
2025-3-27 17:57:28.424	WT901BLE68-01(48591DE3C19B)	-0.420	-1.101	0.158	26.123	161.987	49.927	-75.32	7.22	-73.51	-102.116	-32.928	42.042	-0.68958	0.55405	-0.29782	0.35876	30.8	13111	100
2025-3-27 17:57:28.425	WT901BLE68-01(48591DE3C19B)	-0.420	-1.027	0.170	17.944	148.315	55.908	-75.30	8.15	-74.89	-102.116	-32.928	42.042	-0.68958	0.55405	-0.29782	0.35876	30.8	13111	100
2025-3-27 17:57:28.425	WT901BLE68-01(48591DE3C19B)	-0.455	-1.027	0.170	17.944	148.315	55.908	-75.34	9.09	-76.21	-102.116	-32.928	42.042	-0.68958	0.55405	-0.29782	0.35876	30.8	13111	100
2025-3-27 17:57:28.425	WT901BLE68-01(48591DE3C19B)	-0.455	-0.977	0.200	10.559	118.347	58.105	-75.41	10.00	-77.38	-98.784	-42.630	28.224	-0.68958	0.55405	-0.29782	0.35876	30.8	13111	100
2025-3-27 17:57:28.426	WT901BLE68-01(48591DE3C19B)	-0.432	-0.977	0.200	10.559	118.347	58.105	-75.51	10.89	-78.40	-98.784	-42.630	28.224	-0.68958	0.55405	-0.29782	0.35876	30.8	13111	100
2025-3-27 17:57:28.426	WT901BLE68-01(48591DE3C19B)	-0.432	-0.901	0.214	4.150	80.688	58.960	-75.62	11.73	-79.24	-98.784	-42.630	28.224	-0.68958	0.55405	-0.29782	0.35876	30.8	13111	100
2025-3-27 17:57:28.426	WT901BLE68-01(48591DE3C19B)	-0.413	-0.901	0.214	4.150	80.688	58.960	-75.73	12.52	-79.89	-98.784	-42.630	28.224	-0.68958	0.55405	-0.29782	0.35876	30.8	13111	100
2025-3-27 17:57:28.426	WT901BLE68-01(48591DE3C19B)	-0.413	-0.813	0.195	-3.235	43.396	56.458	-75.86	13.27	-80.35	-98.784	-42.630	28.224	-0.68958	0.55405	-0.29782	0.35876	30.8	13111	100
2025-3-27 17:57:28.635	WT901BLE68-01(48591DE3C19B)	-0.401	-0.813	0.195	-3.235	43.396	56.458	-75.97	13.94	-80.63	-98.784	-42.630	28.224	-0.68958	0.55405	-0.29782	0.35876	30.8	13111	100
2025-3-27 17:57:28.635	WT901BLE68-01(48591DE3C19B)	-0.401	-0.762	0.158	-10.620	7.629	51.025	-76.09	14.55	-80.73	-98.784	-42.630	28.224	-0.68958	0.55405	-0.29782	0.35876	30.8	13111	100
2025-3-27 17:57:28.635	WT901BLE68-01(48591DE3C19B)	-0.375	-0.762	0.158	-10.620	7.629	51.025	-76.19	15.09	-80.67	-98.784	-42.630	28.224	-0.68958	0.55405	-0.29782	0.35876	30.8	13111	100
2025-3-27 17:57:28.636	WT901BLE68-01(48591DE3C19B)	-0.375	-0.742	0.120	-16.602	-25.391	43.457	-76.28	15.56	-80.45	-98.784	-42.630	28.224	-0.68958	0.55405	-0.29782	0.35876	30.8	13111	100
2025-3-27 17:57:28.636	WT901BLE68-01(48591DE3C19B)	-0.333	-0.742	0.120	-16.602	-25.391	43.457	-76.37	15.95	-80.07	-98.784	-42.630	28.224	-0.68958	0.55405	-0.29782	0.35876	30.8	13111	100
2025-3-27 17:57:28.636	WT901BLE68-01(48591DE3C19B)	-0.333	-0.744	0.110	-21.240	-50.842	34.424	-76.44	16.27	-79.58	-98.784	-42.630	28.224	-0.68958	0.55405	-0.29782	0.35876	30.8	13111	100
2025-3-27 17:57:28.636	WT901BLE68-01(48591DE3C19B)	-0.294	-0.744	0.110	-21.240	-50.842	34.424	-76.50	16.51	-78.97	-98.784	-42.630	28.224	-0.68958	0.55405	-0.29782	0.35876	30.8	13111	100
2025-3-27 17:57:28.636	WT901BLE68-01(48591DE3C19B)	-0.294	-0.835	0.141	-24.048	-64.697	25.208	-76.55	16.69	-78.30	-98.784	-42.630	28.224	-0.68958	0.55405	-0.29782	0.35876	30.8	13111	100
2025-3-27 17:57:28.694	WT901BLE68-01(48591DE3C19B)	-0.276	-0.835	0.141	-24.048	-64.697	25.208	-76.60	16.81	-77.56	-98.784	-42.630	28.224	-0.68958	0.55405	-0.29782	0.35876	30.8	13111	100
2025-3-27 17:57:28.694	WT901BLE68-01(48591DE3C19B)	-0.276	-0.867	0.153	-19.653	-72.144	16.418	-76.62	16.89	-76.81	-98.784	-42.630	28.224	-0.68958	0.55405	-0.29782	0.35876	30.8	13111	100
2025-3-27 17:57:28.694	WT901BLE68-01(48591DE3C19B)	-0.235	-0.867	0.153	-19.653	-72.144	16.418	-76.61	16.90	-76.02	-98.784	-42.630	28.224	-0.68958	0.55405	-0.29782	0.35876	30.8	13111	100
2025-3-27 17:57:28.694	WT901BLE68-01(48591DE3C19B)	-0.235	-0.834	0.144	-17.517	-70.801	7.507	-76.59	16.87	-75.25	-98.784	-42.630	28.224	-0.68958	0.55405	-0.29782	0.35876	30.8	13111	100
2025-3-27 17:57:28.695	WT901BLE68-01(48591DE3C19B)	-0.242	-0.834	0.144	-17.517	-70.801	7.507	-76.57	16.80	-74.50	-98.784	-42.630	28.224	-0.68958	0.55405	-0.29782	0.35876	30.8	13111	100
2025-3-27 17:57:28.696	WT901BLE68-01(48591DE3C19B)	-0.242	-0.871	0.175	-17.334	-63.904	-2.075	-76.56	16.68	-73.80	-98.784	-42.630	28.224	-0.68958	0.55405	-0.29782	0.35876	30.8	13111	100
2025-3-27 17:57:28.696	WT901BLE68-01(48591DE3C19B)	-0.272	-0.871	0.175	-17.334	-63.904	-2.075	-76.57	16.53	-73.14	-98.784	-42.630	28.224	-0.68958	0.55405	-0.29782	0.35876	30.8	13111	100
2025-3-27 17:57:28.696	WT901BLE68-01(48591DE3C19B)	-0.272	-1.011	0.191	-14.343	-59.570	-10.681	-76.57	16.34	-72.52	-98.784	-42.630	28.224	-0.68958	0.55405	-0.29782	0.35876	30.8	13111	100
2025-3-27 17:57:28.696	WT901BLE68-01(48591DE3C19B)	-0.236	-1.011	0.191	-14.343	-59.570	-10.681	-76.57	16.11	-71.93	-98.784	-42.630	28.224	-0.68958	0.55405	-0.29782	0.35876	30.8	13111	100
2025-3-27 17:57:28.696	WT901BLE68-01(48591DE3C19B)	-0.236	-1.021	0.189	-7.263	-52.002	-17.822	-76.55	15.85	-71.38	-98.784	-42.630	28.224	-0.68958	0.55405	-0.29782	0.35876	30.8	13111	100
2025-3-27 17:57:28.696	WT901BLE68-01(48591DE3C19B)	-0.211	-1.021	0.189	-7.263	-52.002	-17.822	-76.51	15.56	-70.89	-98.784	-42.630	28.224	-0.68958	0.55405	-0.29782	0.35876	30.8	13111	100
2025-3-27 17:57:28.696	WT901BLE68-01(48591DE3C19B)	-0.211	-1.018	0.169	-5.249	-38.757	-23.804	-76.49	15.27	-70.47	-98.784	-42.630	28.224	-0.68958	0.55405	-0.29782	0.35876	30.8	13111	100
2025-3-27 17:57:28.698	WT901BLE68-01(48591DE3C19B)	-0.230	-1.018	0.169	-5.249	-38.757	-23.804	-76.47	14.95	-70.12	-98.784	-42.630	28.224	-0.68958	0.55405	-0.29782	0.35876	30.8	13111	100
2025-3-27 17:57:28.698	WT901BLE68-01(48591DE3C19B)	-0.230	-1.024	0.164	-3.723	-26.855	-29.663	-76.46	14.62	-69.84	-98.784	-42.630	28.224	-0.68958	0.55405	-0.29782	0.35876	30.8	13111	100
2025-3-27 17:57:28.698	WT901BLE68-01(48591DE3C19B)	-0.276	-1.024	0.164	-3.723	-26.855	-29.663	-76.48	14.27	-69.63	-98.784	-42.630	28.224	-0.68372	0.44846	-0.43076	0.38181	30.8	13111	100
2025-3-27 17:57:28.698	WT901BLE68-01(48591DE3C19B)	-0.276	-0.980	0.196	-3.540	-23.254	-33.264	-76.49	13.91	-69.44	-98.784	-42.630	28.224	-0.68372	0.44846	-0.43076	0.38181	30.8	13111	100
2025-3-27 17:57:28.726	WT901BLE68-01(48591DE3C19B)	-0.326	-0.980	0.196	-3.540	-23.254	-33.264	-76.51	13.55	-69.27	-98.784	-42.630	28.224	-0.68372	0.44846	-0.43076	0.38181	30.8	13111	100
2025-3-27 17:57:28.726	WT901BLE68-01(48591DE3C19B)	-0.326	-0.959	0.244	-6.104	-29.724	-33.875	-76.54	13.16	-69.07	-98.784	-42.630	28.224	-0.68372	0.44846	-0.43076	0.38181	30.8	13111	100
2025-3-27 17:57:28.726	WT901BLE68-01(48591DE3C19B)	-0.355	-0.959	0.244	-6.104	-29.724	-33.875	-76.56	12.78	-68.89	-98.784	-42.630	28.224	-0.68372	0.44846	-0.43076	0.38181	30.8	13111	100
2025-3-27 17:57:28.726	WT901BLE68-01(48591DE3C19B)	-0.355	-0.927	0.257	-6.409	-43.457	-31.555	-76.56	12.40	-68.57	-98.784	-42.630	28.224	-0.68372	0.44846	-0.43076	0.38181	30.8	13111	100
2025-3-27 17:57:28.786	WT901BLE68-01(48591DE3C19B)	-0.365	-0.927	0.257	-6.409	-43.457	-31.555	-76.56	12.01	-68.25	-98.784	-42.630	28.224	-0.68372	0.44846	-0.43076	0.38181	30.8	13111	100
2025-3-27 17:57:28.787	WT901BLE68-01(48591DE3C19B)	-0.365	-0.894	0.234	-8.301	-58.777	-27.771	-76.54	11.64	-67.77	-98.784	-42.630	28.224	-0.68372	0.44846	-0.43076	0.38181	30.8	13111	100
2025-3-27 17:57:28.787	WT901BLE68-01(48591DE3C19B)	-0.360	-0.894	0.234	-8.301	-58.777	-27.771	-76.53	11.27	-67.29	-98.784	-42.630	28.224	-0.68372	0.44846	-0.43076	0.38181	30.8	13111	100
2025-3-27 17:57:28.787	WT901BLE68-01(48591DE3C19B)	-0.360	-0.921	0.193	-11.230	-71.655	-24.719	-76.51	10.90	-66.69	-98.784	-42.630	28.224	-0.68372	0.44846	-0.43076	0.38181	30.8	13111	100
2025-3-27 17:57:28.787	WT901BLE68-01(48591DE3C19B)	-0.356	-0.921	0.193	-11.230	-71.655	-24.719	-76.51	10.54	-66.08	-98.784	-42.630	28.224	-0.68372	0.44846	-0.43076	0.38181	30.8	13111	100
2025-3-27 17:57:28.787	WT901BLE68-01(48591DE3C19B)	-0.356	-1.063	0.138	-17.212	-80.078	-24.231	-76.56	10.17	-65.39	-98.784	-42.630	28.224	-0.68372	0.44846	-0.43076	0.38181	30.8	13111	100
2025-3-27 17:57:28.787	WT901BLE68-01(48591DE3C19B)	-0.376	-1.063	0.138	-17.212	-80.078	-24.231	-76.61	9.80	-64.70	-98.784	-42.630	28.224	-0.68372	0.44846	-0.43076	0.38181	30.8	13111	100
2025-3-27 17:57:28.788	WT901BLE68-01(48591DE3C19B)	-0.376	-1.358	0.112	-23.560	-87.891	-27.588	-76.72	9.38	-63.95	-98.784	-42.630	28.224	-0.68372	0.44846	-0.43076	0.38181	30.8	13111	100
2025-3-27 17:57:28.846	WT901BLE68-01(48591DE3C19B)	-0.427	-1.358	0.112	-23.560	-87.891	-27.588	-76.85	8.96	-63.19	-98.784	-42.630	28.224	-0.68372	0.44846	-0.43076	0.38181	30.8	13111	100
2025-3-27 17:57:28.846	WT901BLE68-01(48591DE3C19B)	-0.427	-1.499	0.149	-20.264	-99.548	-29.419	-76.93	8.50	-62.33	-97.412	-39.494	34.300	-0.68372	0.44846	-0.43076	0.38181	30.8	13111	100
2025-3-27 17:57:28.846	WT901BLE68-01(48591DE3C19B)	-0.442	-1.499	0.149	-20.264	-99.548	-29.419	-77.03	8.05	-61.46	-97.412	-39.494	34.300	-0.68372	0.44846	-0.43076	0.38181	30.8	13111	100
2025-3-27 17:57:28.846	WT901BLE68-01(48591DE3C19B)	-0.442	-1.196	0.232	-16.174	-117.554	-25.757	-77.06	7.59	-60.42	-97.412	-39.494	34.300	-0.68372	0.44846	-0.43076	0.38181	30.8	13111	100
2025-3-27 17:57:28.874	WT901BLE68-01(48591DE3C19B)	-0.432	-1.196	0.232	-16.174	-117.554	-25.757	-77.09	7.15	-59.38	-97.412	-39.494	34.300	-0.68372	0.44846	-0.43076	0.38181	30.8	13111	100
2025-3-27 17:57:28.874	WT901BLE68-01(48591DE3C19B)	-0.432	-0.924	0.296	-26.611	-133.179	-9.949	-77.22	6.82	-58.16	-97.412	-39.494	34.300	-0.68372	0.44846	-0.43076	0.38181	30.8	13111	100
2025-3-27 17:57:28.874	WT901BLE68-01(48591DE3C19B)	-0.431	-0.924	0.296	-26.611	-133.179	-9.949	-77.34	6.50	-56.94	-97.412	-39.494	34.300	-0.68372	0.44846	-0.43076	0.38181	30.8	13111	100
2025-3-27 17:57:28.874	WT901BLE68-01(48591DE3C19B)	-0.431	-0.788	0.326	-30.701	-147.217	6.226	-77.48	6.32	-55.55	-97.412	-39.494	34.300	-0.68372	0.44846	-0.43076	0.38181	30.8	13111	100
2025-3-27 17:57:28.903	WT901BLE68-01(48591DE3C19B)	-0.409	-0.788	0.326	-30.701	-147.217	6.226	-77.62	6.15	-54.17	-97.412	-39.494	34.300	-0.68372	0.44846	-0.43076	0.38181	30.8	13111	100
2025-3-27 17:57:28.904	WT901BLE68-01(48591DE3C19B)	-0.409	-0.740	0.302	-32.776	-163.391	25.208	-77.76	6.13	-52.60	-97.412	-39.494	34.300	-0.68372	0.44846	-0.43076	0.38181	30.8	13111	100
2025-3-27 17:57:28.904	WT901BLE68-01(48591DE3C19B)	-0.337	-0.740	0.302	-32.776	-163.391	25.208	-77.89	6.12	-51.04	-97.412	-39.494	34.300	-0.68372	0.44846	-0.43076	0.38181	30.8	13111	100
2025-3-27 17:57:28.904	WT901BLE68-01(48591DE3C19B)	-0.337	-0.756	0.234	-30.579	-174.866	42.358	-77.98	6.26	-49.33	-97.412	-39.494	34.300	-0.68372	0.44846	-0.43076	0.38181	30.8	13111	100
2025-3-27 17:57:28.964	WT901BLE68-01(48591DE3C19B)	-0.283	-0.756	0.234	-30.579	-174.866	42.358	-78.06	6.39	-47.63	-97.412	-39.494	34.300	-0.68372	0.44846	-0.43076	0.38181	30.8	13111	100
2025-3-27 17:57:28.965	WT901BLE68-01(48591DE3C19B)	-0.283	-0.841	0.178	-24.170	-175.354	55.603	-78.06	6.66	-45.90	-97.412	-39.494	34.300	-0.68372	0.44846	-0.43076	0.38181	30.8	13111	100
2025-3-27 17:57:28.965	WT901BLE68-01(48591DE3C19B)	-0.257	-0.841	0.178	-24.170	-175.354	55.603	-78.06	6.93	-44.18	-97.412	-39.494	34.300	-0.68372	0.44846	-0.43076	0.38181	30.8	13111	100
2025-3-27 17:57:28.965	WT901BLE68-01(48591DE3C19B)	-0.257	-0.975	0.131	-15.076	-165.649	61.340	-77.97	7.26	-42.54	-97.412	-39.494	34.300	-0.68372	0.44846	-0.43076	0.38181	30.8	13111	100
2025-3-27 17:57:28.996	WT901BLE68-01(48591DE3C19B)	-0.248	-0.975	0.131	-15.076	-165.649	61.340	-77.88	7.59	-40.90	-97.412	-39.494	34.300	-0.68372	0.44846	-0.43076	0.38181	30.8	13111	100
2025-3-27 17:57:28.996	WT901BLE68-01(48591DE3C19B)	-0.248	-1.079	0.138	-2.319	-151.062	63.599	-77.66	7.95	-39.41	-97.412	-39.494	34.300	-0.68372	0.44846	-0.43076	0.38181	30.8	13111	100
2025-3-27 17:57:28.997	WT901BLE68-01(48591DE3C19B)	-0.237	-1.079	0.138	-2.319	-151.062	63.599	-77.45	8.31	-37.92	-97.412	-39.494	34.300	-0.68372	0.44846	-0.43076	0.38181	30.8	13111	100
2025-3-27 17:57:28.997	WT901BLE68-01(48591DE3C19B)	-0.237	-1.127	0.186	13.000	-136.658	65.063	-77.10	8.70	-36.57	-97.412	-39.494	34.300	-0.68372	0.44846	-0.43076	0.38181	30.8	13111	100
2025-3-27 17:57:29.27	WT901BLE68-01(48591DE3C19B)	-0.185	-1.127	0.186	13.000	-136.658	65.063	-76.73	9.07	-35.23	-97.412	-39.494	34.300	-0.68372	0.44846	-0.43076	0.38181	30.8	13111	100
2025-3-27 17:57:29.27	WT901BLE68-01(48591DE3C19B)	-0.185	-1.145	0.267	28.259	-122.742	67.200	-76.23	9.49	-34.01	-97.412	-39.494	34.300	-0.68372	0.44846	-0.43076	0.38181	30.8	13111	100
2025-3-27 17:57:29.27	WT901BLE68-01(48591DE3C19B)	-0.103	-1.145	0.267	28.259	-122.742	67.200	-75.73	9.88	-32.81	-97.412	-39.494	34.300	-0.76941	0.56741	-0.23788	0.17139	30.8	13111	100
2025-3-27 17:57:29.27	WT901BLE68-01(48591DE3C19B)	-0.103	-1.144	0.329	41.443	-96.924	72.998	-75.12	10.37	-31.83	-97.412	-39.494	34.300	-0.76941	0.56741	-0.23788	0.17139	30.8	13111	100
2025-3-27 17:57:29.84	WT901BLE68-01(48591DE3C19B)	-0.058	-1.144	0.329	41.443	-96.924	72.998	-74.51	10.84	-30.86	-97.412	-39.494	34.300	-0.76941	0.56741	-0.23788	0.17139	30.8	13111	100
2025-3-27 17:57:29.85	WT901BLE68-01(48591DE3C19B)	-0.058	-1.121	0.325	52.063	-54.749	79.529	-73.86	11.47	-30.28	-97.412	-39.494	34.300	-0.76941	0.56741	-0.23788	0.17139	30.8	13111	100
2025-3-27 17:57:29.85	WT901BLE68-01(48591DE3C19B)	-0.043	-1.121	0.325	52.063	-54.749	79.529	-73.20	12.08	-29.70	-97.412	-39.494	34.300	-0.76941	0.56741	-0.23788	0.17139	30.8	13111	100
2025-3-27 17:57:29.85	WT901BLE68-01(48591DE3C19B)	-0.043	-1.071	0.301	57.861	-5.920	84.290	-72.59	12.86	-29.58	-97.412	-39.494	34.300	-0.76941	0.56741	-0.23788	0.17139	30.8	13111	100
2025-3-27 17:57:29.114	WT901BLE68-01(48591DE3C19B)	-0.074	-1.071	0.301	57.861	-5.920	84.290	-71.96	13.63	-29.45	-97.412	-39.494	34.300	-0.76941	0.56741	-0.23788	0.17139	30.8	13111	100
2025-3-27 17:57:29.115	WT901BLE68-01(48591DE3C19B)	-0.074	-1.052	0.284	58.350	37.354	89.294	-71.43	14.57	-29.72	-97.412	-39.494	34.300	-0.76941	0.56741	-0.23788	0.17139	30.8	13111	100
2025-3-27 17:57:29.115	WT901BLE68-01(48591DE3C19B)	-0.131	-1.052	0.284	58.350	37.354	89.294	-70.91	15.51	-29.98	-97.412	-39.494	34.300	-0.76941	0.56741	-0.23788	0.17139	30.8	13111	100
2025-3-27 17:57:29.115	WT901BLE68-01(48591DE3C19B)	-0.131	-1.023	0.258	56.519	64.209	95.642	-70.47	16.59	-30.47	-97.412	-39.494	34.300	-0.76941	0.56741	-0.23788	0.17139	30.8	13111	100
2025-3-27 17:57:29.205	WT901BLE68-01(48591DE3C19B)	-0.147	-1.023	0.258	56.519	64.209	95.642	-70.04	17.67	-30.95	-97.412	-39.494	34.300	-0.76941	0.56741	-0.23788	0.17139	30.8	13111	100
2025-3-27 17:57:29.205	WT901BLE68-01(48591DE3C19B)	-0.147	-0.980	0.263	52.979	77.576	102.844	-69.69	18.85	-31.54	-97.412	-39.494	34.300	-0.76941	0.56741	-0.23788	0.17139	30.8	13111	100
2025-3-27 17:57:29.205	WT901BLE68-01(48591DE3C19B)	-0.163	-0.980	0.263	52.979	77.576	102.844	-69.35	20.02	-32.11	-97.412	-39.494	34.300	-0.76941	0.56741	-0.23788	0.17139	30.8	13111	100
2025-3-27 17:57:29.205	WT901BLE68-01(48591DE3C19B)	-0.174	-0.940	0.247	49.194	81.421	108.887	-69.06	21.27	-32.70	-97.412	-39.494	34.300	-0.76941	0.56741	-0.23788	0.17139	30.8	13111	100
2025-3-27 17:57:29.206	WT901BLE68-01(48591DE3C19B)	-0.174	-0.892	0.215	45.715	78.247	111.572	-68.79	22.52	-33.26	-97.412	-39.494	34.300	-0.76941	0.56741	-0.23788	0.17139	30.8	13111	100
2025-3-27 17:57:29.206	WT901BLE68-01(48591DE3C19B)	-0.146	-0.892	0.215	45.715	78.247	111.572	-68.54	23.76	-33.79	-97.412	-39.494	34.300	-0.76941	0.56741	-0.23788	0.17139	30.8	13111	100
2025-3-27 17:57:29.206	WT901BLE68-01(48591DE3C19B)	-0.146	-0.843	0.203	40.649	70.679	109.680	-68.31	24.98	-34.28	-97.412	-39.494	34.300	-0.76941	0.56741	-0.23788	0.17139	30.8	13111	100
2025-3-27 17:57:29.207	WT901BLE68-01(48591DE3C19B)	-0.113	-0.843	0.203	40.649	70.679	109.680	-68.09	26.17	-34.74	-92.022	-27.636	52.626	-0.76941	0.56741	-0.23788	0.17139	30.8	13111	100
2025-3-27 17:57:29.237	WT901BLE68-01(48591DE3C19B)	-0.113	-0.841	0.215	35.706	63.477	102.966	-67.90	27.32	-35.17	-92.022	-27.636	52.626	-0.76941	0.56741	-0.23788	0.17139	30.8	13111	100
2025-3-27 17:57:29.237	WT901BLE68-01(48591DE3C19B)	-0.097	-0.841	0.215	35.706	63.477	102.966	-67.73	28.41	-35.58	-92.022	-27.636	52.626	-0.76941	0.56741	-0.23788	0.17139	30.8	13111	100
2025-3-27 17:57:29.237	WT901BLE68-01(48591DE3C19B)	-0.097	-0.843	0.223	33.020	59.265	92.834	-67.58	29.44	-35.99	-92.022	-27.636	52.626	-0.76941	0.56741	-0.23788	0.17139	30.8	13111	100
2025-3-27 17:57:29.237	WT901BLE68-01(48591DE3C19B)	-0.091	-0.843	0.223	33.020	59.265	92.834	-67.45	30.41	-36.39	-92.022	-27.636	52.626	-0.76941	0.56741	-0.23788	0.17139	30.8	13111	100
2025-3-27 17:57:29.294	WT901BLE68-01(48591DE3C19B)	-0.091	-0.830	0.215	29.968	58.533	80.261	-67.35	31.32	-36.83	-92.022	-27.636	52.626	-0.76941	0.56741	-0.23788	0.17139	30.8	13111	100
2025-3-27 17:57:29.295	WT901BLE68-01(48591DE3C19B)	-0.058	-0.830	0.215	29.968	58.533	80.261	-67.29	32.15	-37.28	-92.022	-27.636	52.626	-0.76941	0.56741	-0.23788	0.17139	30.8	13111	100
2025-3-27 17:57:29.295	WT901BLE68-01(48591DE3C19B)	-0.058	-0.799	0.207	26.367	58.838	64.758	-67.27	32.92	-37.78	-92.022	-27.636	52.626	-0.76941	0.56741	-0.23788	0.17139	30.8	13111	100
2025-3-27 17:57:29.295	WT901BLE68-01(48591DE3C19B)	-0.032	-0.799	0.207	26.367	58.838	64.758	-67.30	33.60	-38.31	-92.022	-27.636	52.626	-0.76941	0.56741	-0.23788	0.17139	30.8	13111	100
2025-3-27 17:57:29.324	WT901BLE68-01(48591DE3C19B)	-0.032	-0.786	0.202	21.606	60.120	47.913	-67.37	34.21	-38.90	-92.022	-27.636	52.626	-0.76941	0.56741	-0.23788	0.17139	30.8	13111	100
2025-3-27 17:57:29.324	WT901BLE68-01(48591DE3C19B)	-0.041	-0.786	0.202	21.606	60.120	47.913	-67.51	34.73	-39.53	-92.022	-27.636	52.626	-0.76941	0.56741	-0.23788	0.17139	30.8	13111	100
2025-3-27 17:57:29.324	WT901BLE68-01(48591DE3C19B)	-0.041	-0.801	0.207	17.517	59.143	29.785	-67.70	35.16	-40.20	-92.022	-27.636	52.626	-0.76941	0.56741	-0.23788	0.17139	30.8	13111	100
2025-3-27 17:57:29.324	WT901BLE68-01(48591DE3C19B)	-0.055	-0.801	0.207	17.517	59.143	29.785	-67.93	35.49	-40.92	-92.022	-27.636	52.626	-0.76941	0.56741	-0.23788	0.17139	30.8	13111	100
2025-3-27 17:57:29.385	WT901BLE68-01(48591DE3C19B)	-0.055	-0.804	0.228	13.794	54.810	11.353	-68.19	35.73	-41.65	-92.022	-27.636	52.626	-0.76941	0.56741	-0.23788	0.17139	30.8	13111	100
2025-3-27 17:57:29.385	WT901BLE68-01(48591DE3C19B)	-0.090	-0.804	0.228	13.794	54.810	11.353	-68.49	35.87	-42.40	-92.022	-27.636	52.626	-0.76941	0.56741	-0.23788	0.17139	30.8	13111	100
2025-3-27 17:57:29.385	WT901BLE68-01(48591DE3C19B)	-0.090	-0.816	0.240	10.376	48.218	-7.324	-68.80	35.91	-43.15	-92.022	-27.636	52.626	-0.76941	0.56741	-0.23788	0.17139	30.8	13111	100
2025-3-27 17:57:29.385	WT901BLE68-01(48591DE3C19B)	-0.134	-0.816	0.240	10.376	48.218	-7.324	-69.12	35.84	-43.91	-92.022	-27.636	52.626	-0.76941	0.56741	-0.23788	0.17139	30.8	13111	100
2025-3-27 17:57:29.414	WT901BLE68-01(48591DE3C19B)	-0.134	-0.824	0.240	7.080	39.307	-26.184	-69.46	35.67	-44.64	-92.022	-27.636	52.626	-0.76941	0.56741	-0.23788	0.17139	30.8	13111	100
2025-3-27 17:57:29.414	WT901BLE68-01(48591DE3C19B)	-0.161	-0.824	0.240	7.080	39.307	-26.184	-69.79	35.40	-45.36	-92.022	-27.636	52.626	-0.76941	0.56741	-0.23788	0.17139	30.8	13111	100
2025-3-27 17:57:29.414	WT901BLE68-01(48591DE3C19B)	-0.161	-0.839	0.245	3.723	27.222	-44.617	-70.11	35.01	-46.04	-92.022	-27.636	52.626	-0.76941	0.56741	-0.23788	0.17139	30.8	13111	100
2025-3-27 17:57:29.414	WT901BLE68-01(48591DE3C19B)	-0.175	-0.839	0.245	3.723	27.222	-44.617	-70.42	34.52	-46.68	-92.022	-27.636	52.626	-0.76941	0.56741	-0.23788	0.17139	30.8	13111	100
2025-3-27 17:57:29.445	WT901BLE68-01(48591DE3C19B)	-0.175	-0.896	0.248	0.977	15.930	-62.073	-70.71	33.94	-47.29	-92.022	-27.636	52.626	-0.78134	0.41284	-0.43930	0.16122	30.8	13111	100
2025-3-27 17:57:29.445	WT901BLE68-01(48591DE3C19B)	-0.202	-0.896	0.248	0.977	15.930	-62.073	-71.00	33.26	-47.84	-92.022	-27.636	52.626	-0.78134	0.41284	-0.43930	0.16122	30.8	13111	100
2025-3-27 17:57:29.446	WT901BLE68-01(48591DE3C19B)	-0.202	-0.988	0.226	-2.014	5.981	-80.872	-71.27	32.47	-48.37	-92.022	-27.636	52.626	-0.78134	0.41284	-0.43930	0.16122	30.8	13111	100
2025-3-27 17:57:29.446	WT901BLE68-01(48591DE3C19B)	-0.227	-0.988	0.226	-2.014	5.981	-80.872	-71.54	31.59	-48.87	-92.022	-27.636	52.626	-0.78134	0.41284	-0.43930	0.16122	30.8	13111	100
2025-3-27 17:57:29.474	WT901BLE68-01(48591DE3C19B)	-0.227	-1.135	0.217	-4.150	-0.427	-103.027	-71.81	30.60	-49.35	-92.022	-27.636	52.626	-0.78134	0.41284	-0.43930	0.16122	30.8	13111	100
2025-3-27 17:57:29.474	WT901BLE68-01(48591DE3C19B)	-0.299	-1.135	0.217	-4.150	-0.427	-103.027	-72.08	29.49	-49.83	-92.022	-27.636	52.626	-0.78134	0.41284	-0.43930	0.16122	30.8	13111	100
2025-3-27 17:57:29.474	WT901BLE68-01(48591DE3C19B)	-0.299	-1.220	0.253	-1.221	-4.822	-123.962	-72.32	28.30	-50.31	-92.022	-27.636	52.626	-0.78134	0.41284	-0.43930	0.16122	30.8	13111	100
2025-3-27 17:57:29.474	WT901BLE68-01(48591DE3C19B)	-0.365	-1.220	0.253	-1.221	-4.822	-123.962	-72.55	26.99	-50.78	-92.022	-27.636	52.626	-0.78134	0.41284	-0.43930	0.16122	30.8	13111	100
2025-3-27 17:57:29.534	WT901BLE68-01(48591DE3C19B)	-0.365	-1.136	0.284	3.174	-10.193	-135.620	-72.73	25.64	-51.24	-92.022	-27.636	52.626	-0.78134	0.41284	-0.43930	0.16122	30.8	13111	100
2025-3-27 17:57:29.534	WT901BLE68-01(48591DE3C19B)	-0.374	-1.136	0.284	3.174	-10.193	-135.620	-72.88	24.24	-51.67	-92.022	-27.636	52.626	-0.78134	0.41284	-0.43930	0.16122	30.8	13111	100
2025-3-27 17:57:29.534	WT901BLE68-01(48591DE3C19B)	-0.374	-1.031	0.278	1.648	-11.780	-137.634	-73.01	22.84	-52.09	-92.022	-27.636	52.626	-0.78134	0.41284	-0.43930	0.16122	30.8	13111	100
2025-3-27 17:57:29.535	WT901BLE68-01(48591DE3C19B)	-0.360	-1.031	0.278	1.648	-11.780	-137.634	-73.14	21.43	-52.48	-92.022	-27.636	52.626	-0.78134	0.41284	-0.43930	0.16122	30.8	13111	100
2025-3-27 17:57:29.565	WT901BLE68-01(48591DE3C19B)	-0.360	-1.011	0.238	-0.916	-5.493	-135.803	-73.28	20.06	-52.90	-92.022	-27.636	52.626	-0.78134	0.41284	-0.43930	0.16122	30.8	13111	100
2025-3-27 17:57:29.565	WT901BLE68-01(48591DE3C19B)	-0.354	-1.011	0.238	-0.916	-5.493	-135.803	-73.43	18.72	-53.33	-92.022	-27.636	52.626	-0.78134	0.41284	-0.43930	0.16122	30.8	13111	100
2025-3-27 17:57:29.565	WT901BLE68-01(48591DE3C19B)	-0.354	-1.054	0.180	-2.930	-0.366	-134.583	-73.58	17.39	-53.78	-92.022	-27.636	52.626	-0.78134	0.41284	-0.43930	0.16122	30.8	13111	100
2025-3-27 17:57:29.565	WT901BLE68-01(48591DE3C19B)	-0.323	-1.054	0.180	-2.930	-0.366	-134.583	-73.74	16.09	-54.24	-92.022	-27.636	52.626	-0.78134	0.41284	-0.43930	0.16122	30.8	13111	100
2025-3-27 17:57:29.595	WT901BLE68-01(48591DE3C19B)	-0.323	-1.083	0.154	-3.601	-0.671	-130.859	-73.89	14.82	-54.69	-92.022	-27.636	52.626	-0.78134	0.41284	-0.43930	0.16122	30.8	13111	100
2025-3-27 17:57:29.595	WT901BLE68-01(48591DE3C19B)	-0.307	-1.083	0.154	-3.601	-0.671	-130.859	-74.04	13.57	-55.12	-92.022	-27.636	52.626	-0.78134	0.41284	-0.43930	0.16122	30.8	13111	100
2025-3-27 17:57:29.595	WT901BLE68-01(48591DE3C19B)	-0.307	-1.055	0.180	-4.395	4.761	-124.634	-74.19	12.36	-55.56	-92.022	-27.636	52.626	-0.78134	0.41284	-0.43930	0.16122	30.8	13111	100
2025-3-27 17:57:29.595	WT901BLE68-01(48591DE3C19B)	-0.323	-1.055	0.180	-4.395	4.761	-124.634	-74.33	11.20	-56.00	-92.022	-27.636	52.626	-0.78134	0.41284	-0.43930	0.16122	30.8	13111	100
2025-3-27 17:57:29.744	WT901BLE68-01(48591DE3C19B)	-0.323	-1.010	0.218	-5.920	25.024	-118.774	-74.49	10.10	-56.54	-92.022	-27.636	52.626	-0.78134	0.41284	-0.43930	0.16122	30.8	13111	100
2025-3-27 17:57:29.744	WT901BLE68-01(48591DE3C19B)	-0.388	-1.010	0.218	-5.920	25.024	-118.774	-74.66	9.06	-57.15	-94.080	-34.300	44.198	-0.78134	0.41284	-0.43930	0.16122	30.8	13111	100
2025-3-27 17:57:29.744	WT901BLE68-01(48591DE3C19B)	-0.388	-0.971	0.230	-7.019	47.729	-111.389	-74.87	8.16	-57.95	-94.080	-34.300	44.198	-0.78134	0.41284	-0.43930	0.16122	30.8	13111	100
2025-3-27 17:57:29.744	WT901BLE68-01(48591DE3C19B)	-0.421	-0.971	0.230	-7.019	47.729	-111.389	-75.05	7.26	-58.75	-94.080	-34.300	44.198	-0.78134	0.41284	-0.43930	0.16122	30.8	13111	100
2025-3-27 17:57:29.745	WT901BLE68-01(48591DE3C19B)	-0.421	-0.957	0.217	-7.874	64.880	-103.394	-75.25	6.49	-59.68	-94.080	-34.300	44.198	-0.78134	0.41284	-0.43930	0.16122	30.8	13111	100
2025-3-27 17:57:29.745	WT901BLE68-01(48591DE3C19B)	-0.443	-0.957	0.217	-7.874	64.880	-103.394	-75.44	5.73	-60.60	-94.080	-34.300	44.198	-0.78134	0.41284	-0.43930	0.16122	30.8	13111	100
2025-3-27 17:57:29.745	WT901BLE68-01(48591DE3C19B)	-0.443	-0.978	0.195	-8.972	74.463	-95.703	-75.63	5.07	-61.58	-94.080	-34.300	44.198	-0.78134	0.41284	-0.43930	0.16122	30.8	13111	100
2025-3-27 17:57:29.745	WT901BLE68-01(48591DE3C19B)	-0.491	-0.978	0.195	-8.972	74.463	-95.703	-75.81	4.41	-62.56	-94.080	-34.300	44.198	-0.78134	0.41284	-0.43930	0.16122	30.8	13111	100
2025-3-27 17:57:29.746	WT901BLE68-01(48591DE3C19B)	-0.491	-1.032	0.182	-8.667	73.669	-88.989	-75.98	3.82	-63.51	-94.080	-34.300	44.198	-0.78134	0.41284	-0.43930	0.16122	30.8	13111	100
2025-3-27 17:57:29.746	WT901BLE68-01(48591DE3C19B)	-0.550	-1.032	0.182	-8.667	73.669	-88.989	-76.13	3.24	-64.44	-94.080	-34.300	44.198	-0.78134	0.41284	-0.43930	0.16122	30.8	13111	100
2025-3-27 17:57:29.746	WT901BLE68-01(48591DE3C19B)	-0.550	-1.073	0.168	-7.019	63.171	-82.275	-76.26	2.70	-65.25	-94.080	-34.300	44.198	-0.78134	0.41284	-0.43930	0.16122	30.8	13111	100
2025-3-27 17:57:29.746	WT901BLE68-01(48591DE3C19B)	-0.576	-1.073	0.168	-7.019	63.171	-82.275	-76.38	2.16	-66.04	-94.080	-34.300	44.198	-0.78134	0.41284	-0.43930	0.16122	30.8	13111	100
2025-3-27 17:57:29.773	WT901BLE68-01(48591DE3C19B)	-0.576	-1.070	0.148	-4.639	44.922	-73.608	-76.46	1.67	-66.64	-94.080	-34.300	44.198	-0.78134	0.41284	-0.43930	0.16122	30.8	13111	100
2025-3-27 17:57:29.773	WT901BLE68-01(48591DE3C19B)	-0.545	-1.070	0.148	-4.639	44.922	-73.608	-76.54	1.19	-67.23	-94.080	-34.300	44.198	-0.78134	0.41284	-0.43930	0.16122	30.8	13111	100
2025-3-27 17:57:29.773	WT901BLE68-01(48591DE3C19B)	-0.545	-1.006	0.125	-3.723	25.818	-62.439	-76.61	0.77	-67.60	-94.080	-34.300	44.198	-0.78134	0.41284	-0.43930	0.16122	30.8	13111	100
2025-3-27 17:57:29.773	WT901BLE68-01(48591DE3C19B)	-0.491	-1.006	0.125	-3.723	25.818	-62.439	-76.67	0.36	-67.97	-94.080	-34.300	44.198	-0.78134	0.41284	-0.43930	0.16122	30.8	13111	100
2025-3-27 17:57:29.804	WT901BLE68-01(48591DE3C19B)	-0.491	-0.922	0.114	-6.348	11.292	-48.767	-76.77	0.06	-68.16	-94.080	-34.300	44.198	-0.78134	0.41284	-0.43930	0.16122	30.8	13111	100
2025-3-27 17:57:29.804	WT901BLE68-01(48591DE3C19B)	-0.444	-0.922	0.114	-6.348	11.292	-48.767	-76.85	-0.24	-68.35	-94.080	-34.300	44.198	-0.78134	0.41284	-0.43930	0.16122	30.8	13111	100
2025-3-27 17:57:29.804	WT901BLE68-01(48591DE3C19B)	-0.444	-0.857	0.142	-10.620	3.479	-34.729	-76.99	-0.42	-68.42	-94.080	-34.300	44.198	-0.78134	0.41284	-0.43930	0.16122	30.8	13111	100
2025-3-27 17:57:29.804	WT901BLE68-01(48591DE3C19B)	-0.401	-0.857	0.142	-10.620	3.479	-34.729	-77.12	-0.60	-68.50	-94.080	-34.300	44.198	-0.78134	0.41284	-0.43930	0.16122	30.8	13111	100
2025-3-27 17:57:29.833	WT901BLE68-01(48591DE3C19B)	-0.401	-0.834	0.191	-14.832	0.793	-22.095	-77.29	-0.66	-68.52	-94.080	-34.300	44.198	-0.78134	0.41284	-0.43930	0.16122	30.8	13111	100
2025-3-27 17:57:29.833	WT901BLE68-01(48591DE3C19B)	-0.393	-0.834	0.191	-14.832	0.793	-22.095	-77.46	-0.73	-68.54	-94.080	-34.300	44.198	-0.78134	0.41284	-0.43930	0.16122	30.8	13111	100
2025-3-27 17:57:29.833	WT901BLE68-01(48591DE3C19B)	-0.393	-0.843	0.215	-17.151	0.488	-11.414	-77.66	-0.68	-68.54	-94.080	-34.300	44.198	-0.64124	0.52115	-0.34970	0.44138	30.8	13111	100
2025-3-27 17:57:29.833	WT901BLE68-01(48591DE3C19B)	-0.400	-0.843	0.215	-17.151	0.488	-11.414	-77.84	-0.64	-68.54	-94.080	-34.300	44.198	-0.64124	0.52115	-0.34970	0.44138	30.8	13111	100
2025-3-27 17:57:29.894	WT901BLE68-01(48591DE3C19B)	-0.400	-0.862	0.218	-17.517	-1.770	-3.540	-78.03	-0.53	-68.51	-94.080	-34.300	44.198	-0.64124	0.52115	-0.34970	0.44138	30.8	13111	100
2025-3-27 17:57:29.894	WT901BLE68-01(48591DE3C19B)	-0.429	-0.862	0.218	-17.517	-1.770	-3.540	-78.21	-0.41	-68.47	-94.080	-34.300	44.198	-0.64124	0.52115	-0.34970	0.44138	30.8	13111	100
2025-3-27 17:57:29.894	WT901BLE68-01(48591DE3C19B)	-0.429	-0.902	0.227	-17.639	-10.437	2.991	-78.40	-0.26	-68.34	-94.080	-34.300	44.198	-0.64124	0.52115	-0.34970	0.44138	30.8	13111	100
2025-3-27 17:57:29.894	WT901BLE68-01(48591DE3C19B)	-0.458	-0.902	0.227	-17.639	-10.437	2.991	-78.57	-0.10	-68.21	-94.080	-34.300	44.198	-0.64124	0.52115	-0.34970	0.44138	30.8	13111	100
2025-3-27 17:57:29.923	WT901BLE68-01(48591DE3C19B)	-0.458	-0.945	0.248	-15.503	-26.367	8.850	-78.73	0.08	-67.92	-94.080	-34.300	44.198	-0.64124	0.52115	-0.34970	0.44138	30.8	13111	100
2025-3-27 17:57:29.923	WT901BLE68-01(48591DE3C19B)	-0.450	-0.945	0.248	-15.503	-26.367	8.850	-78.88	0.26	-67.63	-94.080	-34.300	44.198	-0.64124	0.52115	-0.34970	0.44138	30.8	13111	100
2025-3-27 17:57:29.923	WT901BLE68-01(48591DE3C19B)	-0.450	-0.972	0.274	-12.756	-45.349	13.672	-79.00	0.46	-67.15	-94.080	-34.300	44.198	-0.64124	0.52115	-0.34970	0.44138	30.8	13111	100
2025-3-27 17:57:29.923	WT901BLE68-01(48591DE3C19B)	-0.440	-0.972	0.274	-12.756	-45.349	13.672	-79.11	0.65	-66.68	-94.080	-34.300	44.198	-0.64124	0.52115	-0.34970	0.44138	30.8	13111	100
2025-3-27 17:57:29.953	WT901BLE68-01(48591DE3C19B)	-0.440	-1.030	0.313	-8.667	-64.148	20.203	-79.18	0.87	-66.01	-94.080	-34.300	44.198	-0.64124	0.52115	-0.34970	0.44138	30.8	13111	100
2025-3-27 17:57:29.953	WT901BLE68-01(48591DE3C19B)	-0.381	-1.030	0.313	-8.667	-64.148	20.203	-79.23	1.08	-65.35	-94.080	-34.300	44.198	-0.64124	0.52115	-0.34970	0.44138	30.8	13111	100
2025-3-27 17:57:29.953	WT901BLE68-01(48591DE3C19B)	-0.381	-1.057	0.322	-1.587	-74.524	26.672	-79.21	1.34	-64.58	-94.080	-34.300	44.198	-0.64124	0.52115	-0.34970	0.44138	30.8	13111	100
2025-3-27 17:57:29.953	WT901BLE68-01(48591DE3C19B)	-0.311	-1.057	0.322	-1.587	-74.524	26.672	-79.18	1.59	-63.81	-94.080	-34.300	44.198	-0.64124	0.52115	-0.34970	0.44138	30.8	13111	100
2025-3-27 17:57:30.13	WT901BLE68-01(48591DE3C19B)	-0.311	-1.032	0.321	4.822	-72.632	33.081	-79.09	1.91	-63.06	-94.080	-34.300	44.198	-0.64124	0.52115	-0.34970	0.44138	30.8	13111	100
2025-3-27 17:57:30.13	WT901BLE68-01(48591DE3C19B)	-0.272	-1.032	0.321	4.822	-72.632	33.081	-78.99	2.21	-62.31	-94.080	-34.300	44.198	-0.64124	0.52115	-0.34970	0.44138	30.8	13111	100
2025-3-27 17:57:30.13	WT901BLE68-01(48591DE3C19B)	-0.272	-1.035	0.329	10.376	-63.049	37.964	-78.82	2.57	-61.66	-94.080	-34.300	44.198	-0.64124	0.52115	-0.34970	0.44138	30.8	13111	100
2025-3-27 17:57:30.13	WT901BLE68-01(48591DE3C19B)	-0.254	-1.035	0.329	10.376	-63.049	37.964	-78.66	2.93	-61.00	-94.080	-34.300	44.198	-0.64124	0.52115	-0.34970	0.44138	30.8	13111	100
2025-3-27 17:57:30.73	WT901BLE68-01(48591DE3C19B)	-0.254	-1.055	0.327	14.771	-51.575	41.382	-78.44	3.33	-60.46	-91.140	-45.178	41.846	-0.64124	0.52115	-0.34970	0.44138	30.8	13111	100
2025-3-27 17:57:30.73	WT901BLE68-01(48591DE3C19B)	-0.229	-1.055	0.327	14.771	-51.575	41.382	-78.23	3.72	-59.91	-91.140	-45.178	41.846	-0.64124	0.52115	-0.34970	0.44138	30.8	13111	100
2025-3-27 17:57:30.73	WT901BLE68-01(48591DE3C19B)	-0.229	-1.177	0.274	11.963	-36.621	41.138	-78.05	4.13	-59.52	-91.140	-45.178	41.846	-0.64124	0.52115	-0.34970	0.44138	30.8	13111	100
2025-3-27 17:57:30.73	WT901BLE68-01(48591DE3C19B)	-0.296	-1.177	0.274	11.963	-36.621	41.138	-77.88	4.53	-59.12	-91.140	-45.178	41.846	-0.64124	0.52115	-0.34970	0.44138	30.8	13111	100
2025-3-27 17:57:30.74	WT901BLE68-01(48591DE3C19B)	-0.296	-1.483	0.244	7.629	-31.494	35.828	-77.74	4.89	-58.79	-91.140	-45.178	41.846	-0.64124	0.52115	-0.34970	0.44138	30.8	13111	100
2025-3-27 17:57:30.74	WT901BLE68-01(48591DE3C19B)	-0.379	-1.483	0.244	7.629	-31.494	35.828	-77.62	5.23	-58.46	-91.140	-45.178	41.846	-0.64124	0.52115	-0.34970	0.44138	30.8	13111	100
2025-3-27 17:57:30.74	WT901BLE68-01(48591DE3C19B)	-0.366	-1.632	0.292	17.761	-39.856	34.851	-77.39	5.55	-58.04	-91.140	-45.178	41.846	-0.64124	0.52115	-0.34970	0.44138	30.8	13111	100
2025-3-27 17:57:30.74	WT901BLE68-01(48591DE3C19B)	-0.366	-1.182	0.373	28.931	-53.528	42.969	-77.10	5.88	-57.55	-91.140	-45.178	41.846	-0.64124	0.52115	-0.34970	0.44138	30.8	13111	100
2025-3-27 17:57:30.134	WT901BLE68-01(48591DE3C19B)	-0.275	-1.182	0.373	28.931	-53.528	42.969	-76.73	6.23	-56.98	-91.140	-45.178	41.846	-0.64124	0.52115	-0.34970	0.44138	30.8	13111	100
2025-3-27 17:57:30.134	WT901BLE68-01(48591DE3C19B)	-0.275	-0.780	0.375	18.066	-60.974	60.913	-76.42	6.66	-56.35	-91.140	-45.178	41.846	-0.64124	0.52115	-0.34970	0.44138	30.8	13111	100
2025-3-27 17:57:30.134	WT901BLE68-01(48591DE3C19B)	-0.256	-0.780	0.375	18.066	-60.974	60.913	-76.14	7.16	-55.67	-91.140	-45.178	41.846	-0.64124	0.52115	-0.34970	0.44138	30.8	13111	100
2025-3-27 17:57:30.134	WT901BLE68-01(48591DE3C19B)	-0.256	-0.588	0.356	8.118	-66.711	79.102	-75.88	7.73	-54.94	-91.140	-45.178	41.846	-0.64124	0.52115	-0.34970	0.44138	30.8	13111	100
2025-3-27 17:57:30.163	WT901BLE68-01(48591DE3C19B)	-0.247	-0.588	0.356	8.118	-66.711	79.102	-75.66	8.38	-54.17	-91.140	-45.178	41.846	-0.64124	0.52115	-0.34970	0.44138	30.8	13111	100
2025-3-27 17:57:30.163	WT901BLE68-01(48591DE3C19B)	-0.247	-0.642	0.309	-4.150	-78.613	93.018	-75.48	9.08	-53.32	-91.140	-45.178	41.846	-0.64124	0.52115	-0.34970	0.44138	30.8	13111	100
2025-3-27 17:57:30.163	WT901BLE68-01(48591DE3C19B)	-0.168	-0.642	0.309	-4.150	-78.613	93.018	-75.33	9.82	-52.39	-91.140	-45.178	41.846	-0.64124	0.52115	-0.34970	0.44138	30.8	13111	100
2025-3-27 17:57:30.163	WT901BLE68-01(48591DE3C19B)	-0.168	-0.767	0.254	-6.287	-92.163	101.563	-75.16	10.58	-51.39	-91.140	-45.178	41.846	-0.64124	0.52115	-0.34970	0.44138	30.8	13111	100
2025-3-27 17:57:30.223	WT901BLE68-01(48591DE3C19B)	-0.088	-0.767	0.254	-6.287	-92.163	101.563	-74.98	11.35	-50.31	-91.140	-45.178	41.846	-0.64124	0.52115	-0.34970	0.44138	30.8	13111	100
2025-3-27 17:57:30.223	WT901BLE68-01(48591DE3C19B)	-0.088	-0.889	0.206	-2.075	-93.384	102.722	-74.76	12.12	-49.22	-91.140	-45.178	41.846	-0.64124	0.52115	-0.34970	0.44138	30.8	13111	100
2025-3-27 17:57:30.223	WT901BLE68-01(48591DE3C19B)	-0.039	-0.889	0.206	-2.075	-93.384	102.722	-74.50	12.87	-48.11	-91.140	-45.178	41.846	-0.64124	0.52115	-0.34970	0.44138	30.8	13111	100
2025-3-27 17:57:30.223	WT901BLE68-01(48591DE3C19B)	-0.039	-1.004	0.160	7.507	-79.163	97.229	-74.20	13.60	-47.09	-91.140	-45.178	41.846	-0.64124	0.52115	-0.34970	0.44138	30.8	13111	100
2025-3-27 17:57:30.253	WT901BLE68-01(48591DE3C19B)	-0.020	-1.004	0.160	7.507	-79.163	97.229	-73.87	14.31	-46.14	-91.140	-45.178	41.846	-0.64124	0.52115	-0.34970	0.44138	30.8	13111	100
2025-3-27 17:57:30.253	WT901BLE68-01(48591DE3C19B)	-0.020	-1.094	0.128	21.179	-56.091	88.684	-73.50	15.00	-45.31	-91.140	-45.178	41.846	-0.76312	0.50711	-0.32501	0.23395	30.8	13111	100
2025-3-27 17:57:30.253	WT901BLE68-01(48591DE3C19B)	-0.015	-1.094	0.128	21.179	-56.091	88.684	-73.09	15.66	-44.61	-91.140	-45.178	41.846	-0.76312	0.50711	-0.32501	0.23395	30.8	13111	100
2025-3-27 17:57:30.253	WT901BLE68-01(48591DE3C19B)	-0.015	-1.145	0.127	34.058	-28.076	77.271	-72.65	16.29	-44.06	-91.140	-45.178	41.846	-0.76312	0.50711	-0.32501	0.23395	30.8	13111	100
2025-3-27 17:57:30.283	WT901BLE68-01(48591DE3C19B)	0.013	-1.145	0.127	34.058	-28.076	77.271	-72.20	16.90	-43.65	-91.140	-45.178	41.846	-0.76312	0.50711	-0.32501	0.23395	30.8	13111	100
2025-3-27 17:57:30.283	WT901BLE68-01(48591DE3C19B)	0.013	-1.183	0.153	42.419	3.174	67.322	-71.76	17.50	-43.41	-91.140	-45.178	41.846	-0.76312	0.50711	-0.32501	0.23395	30.8	13111	100
2025-3-27 17:57:30.283	WT901BLE68-01(48591DE3C19B)	0.020	-1.183	0.153	42.419	3.174	67.322	-71.33	18.08	-43.35	-91.140	-45.178	41.846	-0.76312	0.50711	-0.32501	0.23395	30.8	13111	100
2025-3-27 17:57:30.283	WT901BLE68-01(48591DE3C19B)	0.020	-1.146	0.188	48.767	35.400	60.852	-70.93	18.69	-43.44	-91.140	-45.178	41.846	-0.76312	0.50711	-0.32501	0.23395	30.8	13111	100
2025-3-27 17:57:30.313	WT901BLE68-01(48591DE3C19B)	-0.020	-1.146	0.188	48.767	35.400	60.852	-70.55	19.30	-43.71	-91.140	-45.178	41.846	-0.76312	0.50711	-0.32501	0.23395	30.8	13111	100
2025-3-27 17:57:30.313	WT901BLE68-01(48591DE3C19B)	-0.020	-1.038	0.210	47.852	62.561	57.739	-70.23	19.95	-44.11	-91.140	-45.178	41.846	-0.76312	0.50711	-0.32501	0.23395	30.8	13111	100
2025-3-27 17:57:30.313	WT901BLE68-01(48591DE3C19B)	-0.045	-1.038	0.210	47.852	62.561	57.739	-69.97	20.62	-44.65	-91.140	-45.178	41.846	-0.76312	0.50711	-0.32501	0.23395	30.8	13111	100
