time	DeviceName	AccX(g)	AccY(g)	AccZ(g)	AsX(°/s)	AsY(°/s)	AsZ(°/s)	AngleX(°)	AngleY(°)	AngleZ(°)	HX(uT)	HY(uT)	HZ(uT)	Q0()	Q1()	Q2()	Q3()	Temperature(°C)	Version()	Battery level(%)
2025-3-27 20:33:57.960	WT901BLE68-01(48591DE3C19B)	-0.455	-0.863	0.215	-2.869	-5.310	-4.822	-77.39	25.71	-25.14	-56.056	-30.478	78.008	-0.77319	0.55347	-0.30814	0.02765	30.6	13111	100
2025-3-27 20:33:57.960	WT901BLE68-01(48591DE3C19B)	-0.455	-0.869	0.211	-2.075	-4.639	-4.761	-77.39	25.65	-25.09	-56.056	-30.478	78.008	-0.77319	0.55347	-0.30814	0.02765	30.6	13111	100
2025-3-27 20:33:57.960	WT901BLE68-01(48591DE3C19B)	-0.464	-0.869	0.211	-2.075	-4.639	-4.761	-77.38	25.60	-25.04	-56.056	-30.478	78.008	-0.77319	0.55347	-0.30814	0.02765	30.6	13111	100
2025-3-27 20:33:57.960	WT901BLE68-01(48591DE3C19B)	-0.464	-0.879	0.207	-1.404	-4.272	-4.761	-77.38	25.54	-25.00	-56.154	-31.262	77.812	-0.77319	0.55347	-0.30814	0.02765	30.6	13111	100
2025-3-27 20:33:57.989	WT901BLE68-01(48591DE3C19B)	-0.473	-0.879	0.207	-1.404	-4.272	-4.761	-77.37	25.49	-24.95	-56.154	-31.262	77.812	-0.77319	0.55347	-0.30814	0.02765	30.6	13111	100
2025-3-27 20:33:57.989	WT901BLE68-01(48591DE3C19B)	-0.484	-0.889	0.203	-0.977	-4.089	-4.761	-77.35	25.44	-24.91	-56.154	-31.262	77.812	-0.77319	0.55347	-0.30814	0.02765	30.6	13111	100
2025-3-27 20:33:57.989	WT901BLE68-01(48591DE3C19B)	-0.484	-0.901	0.202	-0.549	-4.395	-4.517	-77.34	25.39	-24.86	-56.154	-31.262	77.812	-0.77319	0.55347	-0.30814	0.02765	30.6	13111	100
2025-3-27 20:33:57.989	WT901BLE68-01(48591DE3C19B)	-0.481	-0.901	0.202	-0.549	-4.395	-4.517	-77.32	25.35	-24.81	-56.154	-31.262	77.812	-0.77319	0.55347	-0.30814	0.02765	30.6	13111	100
2025-3-27 20:33:58.49	WT901BLE68-01(48591DE3C19B)	-0.481	-0.893	0.198	-0.244	-4.883	-3.784	-77.31	25.31	-24.75	-56.154	-31.262	77.812	-0.77319	0.55347	-0.30814	0.02765	30.6	13111	100
2025-3-27 20:33:58.49	WT901BLE68-01(48591DE3C19B)	-0.480	-0.893	0.198	-0.244	-4.883	-3.784	-77.28	25.27	-24.70	-56.154	-31.262	77.812	-0.77319	0.55347	-0.30814	0.02765	30.6	13111	100
2025-3-27 20:33:58.49	WT901BLE68-01(48591DE3C19B)	-0.480	-0.875	0.192	-0.549	-4.089	-2.686	-77.27	25.24	-24.64	-56.154	-31.262	77.812	-0.77319	0.55347	-0.30814	0.02765	30.6	13111	100
2025-3-27 20:33:58.49	WT901BLE68-01(48591DE3C19B)	-0.484	-0.875	0.192	-0.549	-4.089	-2.686	-77.26	25.21	-24.59	-56.154	-31.262	77.812	-0.77319	0.55347	-0.30814	0.02765	30.6	13111	100
2025-3-27 20:33:58.77	WT901BLE68-01(48591DE3C19B)	-0.484	-0.855	0.190	-1.282	-3.540	-1.465	-77.24	25.20	-24.54	-56.154	-31.262	77.812	-0.77319	0.55347	-0.30814	0.02765	30.6	13111	100
2025-3-27 20:33:58.77	WT901BLE68-01(48591DE3C19B)	-0.498	-0.855	0.190	-1.282	-3.540	-1.465	-77.24	25.19	-24.49	-56.154	-31.262	77.812	-0.77319	0.55347	-0.30814	0.02765	30.6	13111	100
2025-3-27 20:33:58.77	WT901BLE68-01(48591DE3C19B)	-0.498	-0.834	0.185	-2.319	-5.005	-0.427	-77.24	25.18	-24.43	-56.154	-31.262	77.812	-0.77319	0.55347	-0.30814	0.02765	30.6	13111	100
2025-3-27 20:33:58.77	WT901BLE68-01(48591DE3C19B)	-0.494	-0.834	0.185	-2.319	-5.005	-0.427	-77.24	25.18	-24.36	-56.154	-31.262	77.812	-0.77319	0.55347	-0.30814	0.02765	30.6	13111	100
2025-3-27 20:33:58.107	WT901BLE68-01(48591DE3C19B)	-0.494	-0.837	0.178	-3.906	-8.057	-0.061	-77.24	25.18	-24.27	-56.154	-31.262	77.812	-0.77319	0.55347	-0.30814	0.02765	30.6	13111	100
2025-3-27 20:33:58.108	WT901BLE68-01(48591DE3C19B)	-0.493	-0.837	0.178	-3.906	-8.057	-0.061	-77.24	25.18	-24.17	-56.154	-31.262	77.812	-0.77319	0.55347	-0.30814	0.02765	30.6	13111	100
2025-3-27 20:33:58.108	WT901BLE68-01(48591DE3C19B)	-0.493	-0.847	0.174	-3.784	-9.338	-0.183	-77.24	25.18	-24.06	-56.154	-31.262	77.812	-0.77319	0.55347	-0.30814	0.02765	30.6	13111	100
2025-3-27 20:33:58.108	WT901BLE68-01(48591DE3C19B)	-0.492	-0.847	0.174	-3.784	-9.338	-0.183	-77.23	25.18	-23.94	-56.154	-31.262	77.812	-0.77319	0.55347	-0.30814	0.02765	30.6	13111	100
2025-3-27 20:33:58.174	WT901BLE68-01(48591DE3C19B)	-0.492	-0.841	0.172	-3.174	-9.888	-0.549	-77.23	25.18	-23.82	-56.154	-31.262	77.812	-0.77319	0.55347	-0.30814	0.02765	30.6	13111	100
2025-3-27 20:33:58.174	WT901BLE68-01(48591DE3C19B)	-0.492	-0.841	0.172	-3.174	-9.888	-0.549	-77.22	25.17	-23.70	-56.154	-31.262	77.812	-0.77319	0.55347	-0.30814	0.02765	30.6	13111	100
2025-3-27 20:33:58.174	WT901BLE68-01(48591DE3C19B)	-0.492	-0.840	0.167	-3.357	-10.132	-0.854	-77.21	25.16	-23.58	-56.154	-31.262	77.812	-0.77319	0.55347	-0.30814	0.02765	30.6	13111	100
2025-3-27 20:33:58.174	WT901BLE68-01(48591DE3C19B)	-0.496	-0.840	0.167	-3.357	-10.132	-0.854	-77.20	25.15	-23.45	-56.154	-31.262	77.812	-0.77319	0.55347	-0.30814	0.02765	30.6	13111	100
2025-3-27 20:33:58.198	WT901BLE68-01(48591DE3C19B)	-0.496	-0.842	0.161	-3.540	-9.766	-0.977	-77.20	25.14	-23.33	-56.154	-31.262	77.812	-0.77448	0.56204	-0.28940	0.02081	30.6	13111	100
2025-3-27 20:33:58.198	WT901BLE68-01(48591DE3C19B)	-0.501	-0.842	0.161	-3.540	-9.766	-0.977	-77.19	25.14	-23.21	-56.154	-31.262	77.812	-0.77448	0.56204	-0.28940	0.02081	30.6	13111	100
2025-3-27 20:33:58.198	WT901BLE68-01(48591DE3C19B)	-0.501	-0.833	0.156	-4.395	-10.376	-0.916	-77.20	25.13	-23.08	-56.154	-31.262	77.812	-0.77448	0.56204	-0.28940	0.02081	30.6	13111	100
2025-3-27 20:33:58.198	WT901BLE68-01(48591DE3C19B)	-0.501	-0.833	0.156	-4.395	-10.376	-0.916	-77.20	25.13	-22.96	-56.154	-31.262	77.812	-0.77448	0.56204	-0.28940	0.02081	30.6	13111	100
2025-3-27 20:33:58.229	WT901BLE68-01(48591DE3C19B)	-0.501	-0.825	0.152	-5.981	-12.207	-0.610	-77.21	25.11	-22.82	-56.154	-31.262	77.812	-0.77448	0.56204	-0.28940	0.02081	30.6	13111	100
2025-3-27 20:33:58.229	WT901BLE68-01(48591DE3C19B)	-0.504	-0.825	0.152	-5.981	-12.207	-0.610	-77.22	25.11	-22.67	-56.154	-31.262	77.812	-0.77448	0.56204	-0.28940	0.02081	30.6	13111	100
2025-3-27 20:33:58.229	WT901BLE68-01(48591DE3C19B)	-0.504	-0.817	0.154	-7.507	-14.465	0.061	-77.23	25.11	-22.51	-56.154	-31.262	77.812	-0.77448	0.56204	-0.28940	0.02081	30.6	13111	100
2025-3-27 20:33:58.229	WT901BLE68-01(48591DE3C19B)	-0.507	-0.817	0.154	-7.507	-14.465	0.061	-77.25	25.10	-22.34	-56.154	-31.262	77.812	-0.77448	0.56204	-0.28940	0.02081	30.6	13111	100
2025-3-27 20:33:58.288	WT901BLE68-01(48591DE3C19B)	-0.507	-0.830	0.166	-9.399	-17.090	1.282	-77.27	25.10	-22.15	-56.154	-31.262	77.812	-0.77448	0.56204	-0.28940	0.02081	30.6	13111	100
2025-3-27 20:33:58.288	WT901BLE68-01(48591DE3C19B)	-0.502	-0.830	0.166	-9.399	-17.090	1.282	-77.29	25.11	-21.94	-56.154	-31.262	77.812	-0.77448	0.56204	-0.28940	0.02081	30.6	13111	100
2025-3-27 20:33:58.288	WT901BLE68-01(48591DE3C19B)	-0.502	-0.842	0.168	-10.315	-18.860	3.113	-77.32	25.12	-21.73	-56.154	-31.262	77.812	-0.77448	0.56204	-0.28940	0.02081	30.6	13111	100
2025-3-27 20:33:58.288	WT901BLE68-01(48591DE3C19B)	-0.494	-0.842	0.168	-10.315	-18.860	3.113	-77.34	25.14	-21.49	-56.154	-31.262	77.812	-0.77448	0.56204	-0.28940	0.02081	30.6	13111	100
2025-3-27 20:33:58.318	WT901BLE68-01(48591DE3C19B)	-0.494	-0.848	0.165	-11.047	-18.677	5.066	-77.37	25.17	-21.27	-56.154	-31.262	77.812	-0.77448	0.56204	-0.28940	0.02081	30.6	13111	100
2025-3-27 20:33:58.318	WT901BLE68-01(48591DE3C19B)	-0.491	-0.848	0.165	-11.047	-18.677	5.066	-77.39	25.21	-21.04	-56.154	-31.262	77.812	-0.77448	0.56204	-0.28940	0.02081	30.6	13111	100
2025-3-27 20:33:58.318	WT901BLE68-01(48591DE3C19B)	-0.491	-0.857	0.170	-11.108	-17.822	6.714	-77.43	25.25	-20.82	-56.154	-31.262	77.812	-0.77448	0.56204	-0.28940	0.02081	30.6	13111	100
2025-3-27 20:33:58.318	WT901BLE68-01(48591DE3C19B)	-0.485	-0.857	0.170	-11.108	-17.822	6.714	-77.45	25.31	-20.59	-56.154	-31.262	77.812	-0.77448	0.56204	-0.28940	0.02081	30.6	13111	100
2025-3-27 20:33:58.351	WT901BLE68-01(48591DE3C19B)	-0.485	-0.889	0.186	-11.658	-16.907	8.301	-77.49	25.37	-20.38	-56.154	-31.262	77.812	-0.77448	0.56204	-0.28940	0.02081	30.6	13111	100
2025-3-27 20:33:58.351	WT901BLE68-01(48591DE3C19B)	-0.470	-0.889	0.186	-11.658	-16.907	8.301	-77.53	25.44	-20.17	-56.154	-31.262	77.812	-0.77448	0.56204	-0.28940	0.02081	30.6	13111	100
2025-3-27 20:33:58.351	WT901BLE68-01(48591DE3C19B)	-0.470	-0.908	0.190	-9.644	-13.794	10.254	-77.56	25.53	-19.97	-56.154	-31.262	77.812	-0.77448	0.56204	-0.28940	0.02081	30.6	13111	100
2025-3-27 20:33:58.351	WT901BLE68-01(48591DE3C19B)	-0.452	-0.908	0.190	-9.644	-13.794	10.254	-77.59	25.62	-19.79	-56.154	-31.262	77.812	-0.77448	0.56204	-0.28940	0.02081	30.6	13111	100
2025-3-27 20:33:58.409	WT901BLE68-01(48591DE3C19B)	-0.452	-0.900	0.187	-7.874	-8.484	12.207	-77.61	25.72	-19.63	-56.154	-31.262	77.812	-0.77448	0.56204	-0.28940	0.02081	30.6	13111	100
2025-3-27 20:33:58.409	WT901BLE68-01(48591DE3C19B)	-0.440	-0.900	0.187	-7.874	-8.484	12.207	-77.65	25.84	-19.51	-53.312	-32.438	77.812	-0.77448	0.56204	-0.28940	0.02081	30.6	13111	100
2025-3-27 20:33:58.409	WT901BLE68-01(48591DE3C19B)	-0.440	-0.893	0.193	-6.409	-2.808	13.794	-77.68	25.97	-19.42	-53.312	-32.438	77.812	-0.77448	0.56204	-0.28940	0.02081	30.6	13111	100
2025-3-27 20:33:58.409	WT901BLE68-01(48591DE3C19B)	-0.446	-0.893	0.193	-6.409	-2.808	13.794	-77.72	26.11	-19.35	-53.312	-32.438	77.812	-0.77448	0.56204	-0.28940	0.02081	30.6	13111	100
2025-3-27 20:33:58.475	WT901BLE68-01(48591DE3C19B)	-0.446	-0.896	0.197	-5.127	0.671	15.076	-77.76	26.26	-19.31	-53.312	-32.438	77.812	-0.77448	0.56204	-0.28940	0.02081	30.6	13111	100
2025-3-27 20:33:58.475	WT901BLE68-01(48591DE3C19B)	-0.447	-0.896	0.197	-5.127	0.671	15.076	-77.81	26.42	-19.28	-53.312	-32.438	77.812	-0.77448	0.56204	-0.28940	0.02081	30.6	13111	100
2025-3-27 20:33:58.475	WT901BLE68-01(48591DE3C19B)	-0.447	-0.880	0.196	-4.028	1.282	15.503	-77.84	26.58	-19.26	-53.312	-32.438	77.812	-0.77448	0.56204	-0.28940	0.02081	30.6	13111	100
2025-3-27 20:33:58.475	WT901BLE68-01(48591DE3C19B)	-0.438	-0.880	0.196	-4.028	1.282	15.503	-77.87	26.74	-19.24	-53.312	-32.438	77.812	-0.77448	0.56204	-0.28940	0.02081	30.6	13111	100
2025-3-27 20:33:58.476	WT901BLE68-01(48591DE3C19B)	-0.438	-0.863	0.195	-3.601	0.061	14.893	-77.89	26.88	-19.20	-53.312	-32.438	77.812	-0.77448	0.56204	-0.28940	0.02081	30.6	13111	100
2025-3-27 20:33:58.476	WT901BLE68-01(48591DE3C19B)	-0.433	-0.863	0.195	-3.601	0.061	14.893	-77.92	27.03	-19.18	-53.312	-32.438	77.812	-0.77448	0.56204	-0.28940	0.02081	30.6	13111	100
2025-3-27 20:33:58.476	WT901BLE68-01(48591DE3C19B)	-0.433	-0.856	0.196	-2.563	-1.587	13.550	-77.92	27.16	-19.13	-53.312	-32.438	77.812	-0.77448	0.56204	-0.28940	0.02081	30.6	13111	100
2025-3-27 20:33:58.476	WT901BLE68-01(48591DE3C19B)	-0.419	-0.856	0.196	-2.563	-1.587	13.550	-77.92	27.29	-19.08	-53.312	-32.438	77.812	-0.77448	0.56204	-0.28940	0.02081	30.6	13111	100
2025-3-27 20:33:58.560	WT901BLE68-01(48591DE3C19B)	-0.419	-0.845	0.189	-1.343	-3.418	11.963	-77.90	27.40	-19.02	-53.312	-32.438	77.812	-0.77448	0.56204	-0.28940	0.02081	30.6	13111	100
2025-3-27 20:33:58.561	WT901BLE68-01(48591DE3C19B)	-0.394	-0.845	0.189	-1.343	-3.418	11.963	-77.88	27.50	-18.96	-53.312	-32.438	77.812	-0.77448	0.56204	-0.28940	0.02081	30.6	13111	100
2025-3-27 20:33:58.561	WT901BLE68-01(48591DE3C19B)	-0.394	-0.820	0.183	0.488	-2.991	10.437	-77.85	27.59	-18.91	-53.312	-32.438	77.812	-0.77448	0.56204	-0.28940	0.02081	30.6	13111	100
2025-3-27 20:33:58.561	WT901BLE68-01(48591DE3C19B)	-0.381	-0.820	0.183	0.488	-2.991	10.437	-77.82	27.69	-18.86	-53.312	-32.438	77.812	-0.77448	0.56204	-0.28940	0.02081	30.6	13111	100
2025-3-27 20:33:58.561	WT901BLE68-01(48591DE3C19B)	-0.381	-0.785	0.183	2.197	-0.671	8.667	-77.78	27.76	-18.84	-53.312	-32.438	77.812	-0.77448	0.56204	-0.28940	0.02081	30.6	13111	100
2025-3-27 20:33:58.561	WT901BLE68-01(48591DE3C19B)	-0.376	-0.785	0.183	2.197	-0.671	8.667	-77.74	27.83	-18.82	-53.312	-32.438	77.812	-0.77448	0.56204	-0.28940	0.02081	30.6	13111	100
2025-3-27 20:33:58.561	WT901BLE68-01(48591DE3C19B)	-0.376	-0.762	0.185	3.479	1.465	6.775	-77.71	27.89	-18.83	-53.312	-32.438	77.812	-0.77448	0.56204	-0.28940	0.02081	30.6	13111	100
2025-3-27 20:33:58.561	WT901BLE68-01(48591DE3C19B)	-0.366	-0.762	0.185	3.479	1.465	6.775	-77.67	27.95	-18.84	-53.312	-32.438	77.812	-0.77448	0.56204	-0.28940	0.02081	30.6	13111	100
2025-3-27 20:33:58.618	WT901BLE68-01(48591DE3C19B)	-0.366	-0.742	0.183	5.127	3.540	5.188	-77.63	28.00	-18.87	-53.312	-32.438	77.812	-0.77448	0.56204	-0.28940	0.02081	30.6	13111	100
2025-3-27 20:33:58.619	WT901BLE68-01(48591DE3C19B)	-0.357	-0.742	0.183	5.127	3.540	5.188	-77.59	28.05	-18.91	-53.312	-32.438	77.812	-0.77448	0.56204	-0.28940	0.02081	30.6	13111	100
2025-3-27 20:33:58.619	WT901BLE68-01(48591DE3C19B)	-0.357	-0.726	0.176	7.324	5.615	4.028	-77.54	28.09	-18.97	-53.312	-32.438	77.812	-0.77103	0.56796	-0.28671	-0.02521	30.6	13111	100
2025-3-27 20:33:58.619	WT901BLE68-01(48591DE3C19B)	-0.351	-0.726	0.176	7.324	5.615	4.028	-77.49	28.13	-19.03	-53.312	-32.438	77.812	-0.77103	0.56796	-0.28671	-0.02521	30.6	13111	100
2025-3-27 20:33:58.647	WT901BLE68-01(48591DE3C19B)	-0.351	-0.719	0.165	8.972	7.751	2.441	-77.43	28.15	-19.12	-53.312	-32.438	77.812	-0.77103	0.56796	-0.28671	-0.02521	30.6	13111	100
2025-3-27 20:33:58.647	WT901BLE68-01(48591DE3C19B)	-0.344	-0.719	0.165	8.972	7.751	2.441	-77.38	28.18	-19.20	-53.312	-32.438	77.812	-0.77103	0.56796	-0.28671	-0.02521	30.6	13111	100
2025-3-27 20:33:58.647	WT901BLE68-01(48591DE3C19B)	-0.344	-0.734	0.156	11.108	10.376	-0.122	-77.32	28.19	-19.33	-53.312	-32.438	77.812	-0.77103	0.56796	-0.28671	-0.02521	30.6	13111	100
2025-3-27 20:33:58.647	WT901BLE68-01(48591DE3C19B)	-0.343	-0.734	0.156	11.108	10.376	-0.122	-77.26	28.19	-19.45	-53.312	-32.438	77.812	-0.77103	0.56796	-0.28671	-0.02521	30.6	13111	100
2025-3-27 20:33:58.678	WT901BLE68-01(48591DE3C19B)	-0.343	-0.757	0.148	13.245	12.939	-3.967	-77.21	28.17	-19.61	-53.312	-32.438	77.812	-0.77103	0.56796	-0.28671	-0.02521	30.6	13111	100
2025-3-27 20:33:58.678	WT901BLE68-01(48591DE3C19B)	-0.348	-0.757	0.148	13.245	12.939	-3.967	-77.15	28.14	-19.77	-53.312	-32.438	77.812	-0.77103	0.56796	-0.28671	-0.02521	30.6	13111	100
2025-3-27 20:33:58.678	WT901BLE68-01(48591DE3C19B)	-0.348	-0.793	0.146	15.320	15.991	-9.888	-77.09	28.06	-19.98	-53.312	-32.438	77.812	-0.77103	0.56796	-0.28671	-0.02521	30.6	13111	100
2025-3-27 20:33:58.678	WT901BLE68-01(48591DE3C19B)	-0.356	-0.793	0.146	15.320	15.991	-9.888	-77.04	27.99	-20.19	-53.312	-32.438	77.812	-0.77103	0.56796	-0.28671	-0.02521	30.6	13111	100
2025-3-27 20:33:58.707	WT901BLE68-01(48591DE3C19B)	-0.356	-0.821	0.143	18.433	18.921	-16.785	-76.98	27.84	-20.45	-53.312	-32.438	77.812	-0.77103	0.56796	-0.28671	-0.02521	30.6	13111	100
2025-3-27 20:33:58.708	WT901BLE68-01(48591DE3C19B)	-0.364	-0.821	0.143	18.433	18.921	-16.785	-76.92	27.71	-20.71	-53.312	-32.438	77.812	-0.77103	0.56796	-0.28671	-0.02521	30.6	13111	100
2025-3-27 20:33:58.708	WT901BLE68-01(48591DE3C19B)	-0.364	-0.826	0.132	20.691	21.545	-23.376	-76.86	27.51	-21.02	-53.312	-32.438	77.812	-0.77103	0.56796	-0.28671	-0.02521	30.6	13111	100
2025-3-27 20:33:58.708	WT901BLE68-01(48591DE3C19B)	-0.369	-0.826	0.132	20.691	21.545	-23.376	-76.80	27.31	-21.32	-53.312	-32.438	77.812	-0.77103	0.56796	-0.28671	-0.02521	30.6	13111	100
2025-3-27 20:33:58.773	WT901BLE68-01(48591DE3C19B)	-0.369	-0.830	0.129	22.705	22.583	-29.358	-76.73	27.06	-21.65	-53.312	-32.438	77.812	-0.77103	0.56796	-0.28671	-0.02521	30.6	13111	100
2025-3-27 20:33:58.773	WT901BLE68-01(48591DE3C19B)	-0.372	-0.830	0.129	22.705	22.583	-29.358	-76.67	26.82	-21.97	-53.312	-32.438	77.812	-0.77103	0.56796	-0.28671	-0.02521	30.6	13111	100
2025-3-27 20:33:58.773	WT901BLE68-01(48591DE3C19B)	-0.372	-0.836	0.131	24.231	23.193	-33.630	-76.60	26.53	-22.32	-53.312	-32.438	77.812	-0.77103	0.56796	-0.28671	-0.02521	30.6	13111	100
2025-3-27 20:33:58.773	WT901BLE68-01(48591DE3C19B)	-0.381	-0.836	0.131	24.231	23.193	-33.630	-76.53	26.24	-22.66	-53.312	-32.438	77.812	-0.77103	0.56796	-0.28671	-0.02521	30.6	13111	100
2025-3-27 20:33:58.797	WT901BLE68-01(48591DE3C19B)	-0.381	-0.787	0.142	26.367	22.034	-35.217	-76.43	25.94	-22.99	-53.900	-30.674	79.870	-0.77103	0.56796	-0.28671	-0.02521	30.6	13111	100
2025-3-27 20:33:58.798	WT901BLE68-01(48591DE3C19B)	-0.377	-0.787	0.142	26.367	22.034	-35.217	-76.33	25.64	-23.32	-53.900	-30.674	79.870	-0.77103	0.56796	-0.28671	-0.02521	30.6	13111	100
2025-3-27 20:33:58.798	WT901BLE68-01(48591DE3C19B)	-0.377	-0.700	0.149	25.452	17.700	-33.813	-76.21	25.35	-23.59	-53.900	-30.674	79.870	-0.77103	0.56796	-0.28671	-0.02521	30.6	13111	100
2025-3-27 20:33:58.798	WT901BLE68-01(48591DE3C19B)	-0.366	-0.700	0.149	25.452	17.700	-33.813	-76.10	25.07	-23.86	-53.900	-30.674	79.870	-0.77103	0.56796	-0.28671	-0.02521	30.6	13111	100
2025-3-27 20:33:58.828	WT901BLE68-01(48591DE3C19B)	-0.366	-0.642	0.147	22.583	15.076	-31.494	-75.99	24.80	-24.10	-53.900	-30.674	79.870	-0.77103	0.56796	-0.28671	-0.02521	30.6	13111	100
2025-3-27 20:33:58.828	WT901BLE68-01(48591DE3C19B)	-0.389	-0.642	0.147	22.583	15.076	-31.494	-75.89	24.53	-24.33	-53.900	-30.674	79.870	-0.77103	0.56796	-0.28671	-0.02521	30.6	13111	100
2025-3-27 20:33:58.828	WT901BLE68-01(48591DE3C19B)	-0.389	-0.635	0.155	18.921	11.536	-28.198	-75.80	24.30	-24.52	-53.900	-30.674	79.870	-0.77103	0.56796	-0.28671	-0.02521	30.6	13111	100
2025-3-27 20:33:58.828	WT901BLE68-01(48591DE3C19B)	-0.404	-0.635	0.155	18.921	11.536	-28.198	-75.71	24.07	-24.70	-53.900	-30.674	79.870	-0.77103	0.56796	-0.28671	-0.02521	30.6	13111	100
2025-3-27 20:33:58.888	WT901BLE68-01(48591DE3C19B)	-0.404	-0.706	0.172	12.695	7.874	-26.001	-75.66	23.85	-24.83	-53.900	-30.674	79.870	-0.77103	0.56796	-0.28671	-0.02521	30.6	13111	100
2025-3-27 20:33:58.888	WT901BLE68-01(48591DE3C19B)	-0.402	-0.706	0.172	12.695	7.874	-26.001	-75.61	23.64	-24.96	-53.900	-30.674	79.870	-0.77103	0.56796	-0.28671	-0.02521	30.6	13111	100
2025-3-27 20:33:58.888	WT901BLE68-01(48591DE3C19B)	-0.402	-0.870	0.203	8.118	12.024	-29.358	-75.63	23.40	-25.15	-53.900	-30.674	79.870	-0.77103	0.56796	-0.28671	-0.02521	30.6	13111	100
2025-3-27 20:33:58.888	WT901BLE68-01(48591DE3C19B)	-0.484	-0.870	0.203	8.118	12.024	-29.358	-75.64	23.16	-25.33	-53.900	-30.674	79.870	-0.77103	0.56796	-0.28671	-0.02521	30.6	13111	100
2025-3-27 20:33:58.917	WT901BLE68-01(48591DE3C19B)	-0.671	-1.085	0.228	7.202	23.926	-45.166	-75.73	22.81	-25.68	-53.900	-30.674	79.870	-0.77103	0.56796	-0.28671	-0.02521	30.6	13111	100
2025-3-27 20:33:58.917	WT901BLE68-01(48591DE3C19B)	-2.685	-1.304	0.352	4.150	24.719	-68.115	-75.84	22.34	-26.07	-53.900	-30.674	79.870	-0.77103	0.56796	-0.28671	-0.02521	30.6	13111	100
2025-3-27 20:33:58.917	WT901BLE68-01(48591DE3C19B)	-0.817	-5.216	1.406	4.150	24.719	-68.115	-75.97	21.76	-26.48	-53.900	-30.674	79.870	-0.77103	0.56796	-0.28671	-0.02521	30.6	13111	100
2025-3-27 20:33:58.917	WT901BLE68-01(48591DE3C19B)	-0.817	-1.441	0.503	1.465	11.902	-81.421	-76.09	21.11	-26.83	-53.900	-30.674	79.870	-0.77103	0.56796	-0.28671	-0.02521	30.6	13111	100
2025-3-27 20:33:58.978	WT901BLE68-01(48591DE3C19B)	-0.732	-1.441	0.503	1.465	11.902	-81.421	-76.18	20.39	-27.13	-53.900	-30.674	79.870	-0.77103	0.56796	-0.28671	-0.02521	30.6	13111	100
2025-3-27 20:33:58.978	WT901BLE68-01(48591DE3C19B)	-0.732	-1.200	0.528	-5.127	-2.075	-75.745	-76.28	19.68	-27.35	-53.900	-30.674	79.870	-0.77103	0.56796	-0.28671	-0.02521	30.6	13111	100
2025-3-27 20:33:58.978	WT901BLE68-01(48591DE3C19B)	-0.631	-1.200	0.528	-5.127	-2.075	-75.745	-76.38	18.98	-27.48	-53.900	-30.674	79.870	-0.77103	0.56796	-0.28671	-0.02521	30.6	13111	100
2025-3-27 20:33:58.978	WT901BLE68-01(48591DE3C19B)	-0.631	-0.973	0.500	-11.292	-1.709	-53.345	-76.50	18.40	-27.59	-53.900	-30.674	79.870	-0.77103	0.56796	-0.28671	-0.02521	30.6	13111	100
2025-3-27 20:33:59.8	WT901BLE68-01(48591DE3C19B)	-0.660	-0.973	0.500	-11.292	-1.709	-53.345	-76.62	17.94	-27.66	-53.900	-30.674	79.870	-0.77524	0.56628	-0.26392	0.09277	30.6	13111	100
2025-3-27 20:33:59.8	WT901BLE68-01(48591DE3C19B)	-0.660	-0.803	0.483	-13.000	-6.531	-31.311	-76.74	17.58	-27.68	-53.900	-30.674	79.870	-0.77524	0.56628	-0.26392	0.09277	30.6	13111	100
2025-3-27 20:33:59.8	WT901BLE68-01(48591DE3C19B)	-0.647	-0.803	0.483	-13.000	-6.531	-31.311	-76.85	17.32	-27.64	-53.900	-30.674	79.870	-0.77524	0.56628	-0.26392	0.09277	30.6	13111	100
2025-3-27 20:33:59.8	WT901BLE68-01(48591DE3C19B)	-0.647	-0.725	0.432	-22.461	-32.166	-9.399	-76.95	17.16	-27.45	-53.900	-30.674	79.870	-0.77524	0.56628	-0.26392	0.09277	30.6	13111	100
2025-3-27 20:33:59.38	WT901BLE68-01(48591DE3C19B)	-0.549	-0.725	0.432	-22.461	-32.166	-9.399	-77.05	17.07	-27.09	-53.900	-30.674	79.870	-0.77524	0.56628	-0.26392	0.09277	30.6	13111	100
2025-3-27 20:33:59.39	WT901BLE68-01(48591DE3C19B)	-0.549	-0.794	0.368	-25.757	-56.091	10.071	-77.12	17.05	-26.59	-53.900	-30.674	79.870	-0.77524	0.56628	-0.26392	0.09277	30.6	13111	100
2025-3-27 20:33:59.39	WT901BLE68-01(48591DE3C19B)	-0.485	-0.794	0.368	-25.757	-56.091	10.071	-77.16	17.11	-25.95	-53.900	-30.674	79.870	-0.77524	0.56628	-0.26392	0.09277	30.6	13111	100
2025-3-27 20:33:59.39	WT901BLE68-01(48591DE3C19B)	-0.485	-0.844	0.309	-10.315	-54.871	26.611	-77.12	17.24	-25.30	-53.900	-30.674	79.870	-0.77524	0.56628	-0.26392	0.09277	30.6	13111	100
2025-3-27 20:33:59.99	WT901BLE68-01(48591DE3C19B)	-0.480	-0.844	0.309	-10.315	-54.871	26.611	-77.00	17.46	-24.63	-53.900	-30.674	79.870	-0.77524	0.56628	-0.26392	0.09277	30.6	13111	100
2025-3-27 20:33:59.100	WT901BLE68-01(48591DE3C19B)	-0.480	-0.798	0.279	4.761	-37.537	36.255	-76.82	17.74	-24.04	-53.900	-30.674	79.870	-0.77524	0.56628	-0.26392	0.09277	30.6	13111	100
2025-3-27 20:33:59.100	WT901BLE68-01(48591DE3C19B)	-0.429	-0.798	0.279	4.761	-37.537	36.255	-76.59	18.08	-23.53	-53.900	-30.674	79.870	-0.77524	0.56628	-0.26392	0.09277	30.6	13111	100
2025-3-27 20:33:59.100	WT901BLE68-01(48591DE3C19B)	-0.429	-0.781	0.268	15.442	-17.883	41.992	-76.33	18.46	-23.12	-53.900	-30.674	79.870	-0.77524	0.56628	-0.26392	0.09277	30.6	13111	100
2025-3-27 20:33:59.128	WT901BLE68-01(48591DE3C19B)	-0.414	-0.781	0.268	15.442	-17.883	41.992	-76.05	18.90	-22.79	-53.900	-30.674	79.870	-0.77524	0.56628	-0.26392	0.09277	30.6	13111	100
2025-3-27 20:33:59.128	WT901BLE68-01(48591DE3C19B)	-0.414	-0.769	0.273	21.423	3.113	44.434	-75.77	19.36	-22.57	-53.900	-30.674	79.870	-0.77524	0.56628	-0.26392	0.09277	30.6	13111	100
2025-3-27 20:33:59.128	WT901BLE68-01(48591DE3C19B)	-0.456	-0.769	0.273	21.423	3.113	44.434	-75.49	19.86	-22.45	-53.900	-30.674	79.870	-0.77524	0.56628	-0.26392	0.09277	30.6	13111	100
2025-3-27 20:33:59.128	WT901BLE68-01(48591DE3C19B)	-0.456	-0.799	0.259	20.630	20.325	42.542	-75.26	20.36	-22.42	-53.900	-30.674	79.870	-0.77524	0.56628	-0.26392	0.09277	30.6	13111	100
2025-3-27 20:33:59.160	WT901BLE68-01(48591DE3C19B)	-0.521	-0.799	0.259	20.630	20.325	42.542	-75.05	20.88	-22.48	-53.900	-30.674	79.870	-0.77524	0.56628	-0.26392	0.09277	30.6	13111	100
2025-3-27 20:33:59.160	WT901BLE68-01(48591DE3C19B)	-0.521	-0.794	0.243	19.348	27.771	38.940	-74.88	21.38	-22.59	-53.900	-30.674	79.870	-0.77524	0.56628	-0.26392	0.09277	30.6	13111	100
2025-3-27 20:33:59.160	WT901BLE68-01(48591DE3C19B)	-0.537	-0.794	0.243	19.348	27.771	38.940	-74.73	21.88	-22.73	-53.900	-30.674	79.870	-0.77524	0.56628	-0.26392	0.09277	30.6	13111	100
2025-3-27 20:33:59.161	WT901BLE68-01(48591DE3C19B)	-0.537	-0.729	0.218	13.733	25.208	35.217	-74.60	22.35	-22.86	-53.900	-30.674	79.870	-0.77524	0.56628	-0.26392	0.09277	30.6	13111	100
2025-3-27 20:33:59.219	WT901BLE68-01(48591DE3C19B)	-0.521	-0.729	0.218	13.733	25.208	35.217	-74.51	22.80	-22.98	-53.900	-30.674	79.870	-0.77524	0.56628	-0.26392	0.09277	30.6	13111	100
2025-3-27 20:33:59.219	WT901BLE68-01(48591DE3C19B)	-0.521	-0.655	0.185	5.066	18.860	33.447	-74.45	23.24	-23.07	-53.508	-27.244	82.516	-0.77524	0.56628	-0.26392	0.09277	30.6	13111	100
2025-3-27 20:33:59.219	WT901BLE68-01(48591DE3C19B)	-0.519	-0.655	0.185	5.066	18.860	33.447	-74.42	23.66	-23.13	-53.508	-27.244	82.516	-0.77524	0.56628	-0.26392	0.09277	30.6	13111	100
2025-3-27 20:33:59.219	WT901BLE68-01(48591DE3C19B)	-0.519	-0.611	0.155	-6.104	8.667	32.410	-74.43	24.06	-23.13	-53.508	-27.244	82.516	-0.77524	0.56628	-0.26392	0.09277	30.6	13111	100
2025-3-27 20:33:59.247	WT901BLE68-01(48591DE3C19B)	-0.537	-0.611	0.155	-6.104	8.667	32.410	-74.48	24.44	-23.07	-53.508	-27.244	82.516	-0.77524	0.56628	-0.26392	0.09277	30.6	13111	100
2025-3-27 20:33:59.248	WT901BLE68-01(48591DE3C19B)	-0.537	-0.612	0.150	-18.982	-8.484	31.250	-74.56	24.80	-22.93	-53.508	-27.244	82.516	-0.77524	0.56628	-0.26392	0.09277	30.6	13111	100
2025-3-27 20:33:59.248	WT901BLE68-01(48591DE3C19B)	-0.552	-0.612	0.150	-18.982	-8.484	31.250	-74.66	25.13	-22.69	-53.508	-27.244	82.516	-0.77524	0.56628	-0.26392	0.09277	30.6	13111	100
2025-3-27 20:33:59.248	WT901BLE68-01(48591DE3C19B)	-0.552	-0.636	0.165	-30.457	-31.067	30.579	-74.78	25.43	-22.34	-53.508	-27.244	82.516	-0.77524	0.56628	-0.26392	0.09277	30.6	13111	100
2025-3-27 20:33:59.278	WT901BLE68-01(48591DE3C19B)	-0.538	-0.636	0.165	-30.457	-31.067	30.579	-74.89	25.70	-21.86	-53.508	-27.244	82.516	-0.77524	0.56628	-0.26392	0.09277	30.6	13111	100
2025-3-27 20:33:59.278	WT901BLE68-01(48591DE3C19B)	-0.538	-0.647	0.184	-39.124	-52.551	31.921	-75.00	25.95	-21.26	-53.508	-27.244	82.516	-0.77524	0.56628	-0.26392	0.09277	30.6	13111	100
2025-3-27 20:33:59.278	WT901BLE68-01(48591DE3C19B)	-0.485	-0.647	0.184	-39.124	-52.551	31.921	-75.10	26.18	-20.55	-53.508	-27.244	82.516	-0.77524	0.56628	-0.26392	0.09277	30.6	13111	100
2025-3-27 20:33:59.278	WT901BLE68-01(48591DE3C19B)	-0.485	-0.603	0.195	-42.419	-66.528	37.720	-75.17	26.42	-19.75	-53.508	-27.244	82.516	-0.77524	0.56628	-0.26392	0.09277	30.6	13111	100
2025-3-27 20:33:59.337	WT901BLE68-01(48591DE3C19B)	-0.399	-0.603	0.195	-42.419	-66.528	37.720	-75.22	26.67	-18.88	-53.508	-27.244	82.516	-0.77524	0.56628	-0.26392	0.09277	30.6	13111	100
2025-3-27 20:33:59.338	WT901BLE68-01(48591DE3C19B)	-0.399	-0.479	0.182	-43.213	-73.792	49.255	-75.24	26.97	-17.95	-53.508	-27.244	82.516	-0.77524	0.56628	-0.26392	0.09277	30.6	13111	100
2025-3-27 20:33:59.338	WT901BLE68-01(48591DE3C19B)	-0.303	-0.479	0.182	-43.213	-73.792	49.255	-75.23	27.31	-16.96	-53.508	-27.244	82.516	-0.77524	0.56628	-0.26392	0.09277	30.6	13111	100
2025-3-27 20:33:59.338	WT901BLE68-01(48591DE3C19B)	-0.303	-0.365	0.160	-44.800	-72.998	62.866	-75.22	27.72	-15.95	-53.508	-27.244	82.516	-0.77524	0.56628	-0.26392	0.09277	30.6	13111	100
2025-3-27 20:33:59.374	WT901BLE68-01(48591DE3C19B)	-0.227	-0.365	0.160	-44.800	-72.998	62.866	-75.19	28.20	-14.92	-53.508	-27.244	82.516	-0.77524	0.56628	-0.26392	0.09277	30.6	13111	100
2025-3-27 20:33:59.374	WT901BLE68-01(48591DE3C19B)	-0.227	-0.334	0.139	-48.401	-66.467	76.904	-75.18	28.74	-13.91	-53.508	-27.244	82.516	-0.77524	0.56628	-0.26392	0.09277	30.6	13111	100
2025-3-27 20:33:59.375	WT901BLE68-01(48591DE3C19B)	-0.189	-0.334	0.139	-48.401	-66.467	76.904	-75.18	29.36	-12.92	-53.508	-27.244	82.516	-0.77524	0.56628	-0.26392	0.09277	30.6	13111	100
2025-3-27 20:33:59.375	WT901BLE68-01(48591DE3C19B)	-0.189	-0.426	0.124	-50.598	-57.434	84.656	-75.20	30.01	-11.96	-53.508	-27.244	82.516	-0.77524	0.56628	-0.26392	0.09277	30.6	13111	100
2025-3-27 20:33:59.399	WT901BLE68-01(48591DE3C19B)	-0.207	-0.426	0.124	-50.598	-57.434	84.656	-75.23	30.71	-11.04	-53.508	-27.244	82.516	-0.77524	0.56628	-0.26392	0.09277	30.6	13111	100
2025-3-27 20:33:59.399	WT901BLE68-01(48591DE3C19B)	-0.207	-0.622	0.159	-47.119	-45.593	84.473	-75.28	31.43	-10.26	-53.508	-27.244	82.516	-0.77524	0.56628	-0.26392	0.09277	30.6	13111	100
2025-3-27 20:33:59.399	WT901BLE68-01(48591DE3C19B)	-0.300	-0.622	0.159	-47.119	-45.593	84.473	-75.33	32.13	-9.49	-53.508	-27.244	82.516	-0.77115	0.56738	-0.26709	-0.10941	30.6	13111	100
2025-3-27 20:33:59.399	WT901BLE68-01(48591DE3C19B)	-0.300	-0.980	0.169	-41.199	-40.039	71.533	-75.37	32.71	-8.83	-53.508	-27.244	82.516	-0.77115	0.56738	-0.26709	-0.10941	30.6	13111	100
2025-3-27 20:33:59.458	WT901BLE68-01(48591DE3C19B)	-0.404	-0.980	0.169	-41.199	-40.039	71.533	-75.41	33.27	-8.18	-53.508	-27.244	82.516	-0.77115	0.56738	-0.26709	-0.10941	30.6	13111	100
2025-3-27 20:33:59.459	WT901BLE68-01(48591DE3C19B)	-0.404	-1.437	0.094	-28.076	-35.461	49.194	-75.39	33.61	-7.66	-53.508	-27.244	82.516	-0.77115	0.56738	-0.26709	-0.10941	30.6	13111	100
2025-3-27 20:33:59.459	WT901BLE68-01(48591DE3C19B)	-0.386	-1.437	0.094	-28.076	-35.461	49.194	-75.38	33.94	-7.16	-53.508	-27.244	82.516	-0.77115	0.56738	-0.26709	-0.10941	30.6	13111	100
2025-3-27 20:33:59.459	WT901BLE68-01(48591DE3C19B)	-0.386	-1.824	0.036	-10.315	-32.288	22.644	-75.27	34.01	-6.79	-53.508	-27.244	82.516	-0.77115	0.56738	-0.26709	-0.10941	30.6	13111	100
2025-3-27 20:33:59.487	WT901BLE68-01(48591DE3C19B)	-0.341	-1.824	0.036	-10.315	-32.288	22.644	-75.18	34.07	-6.43	-53.508	-27.244	82.516	-0.77115	0.56738	-0.26709	-0.10941	30.6	13111	100
2025-3-27 20:33:59.487	WT901BLE68-01(48591DE3C19B)	-0.341	-2.002	0.042	8.606	-12.329	-0.977	-75.08	33.94	-6.39	-53.508	-27.244	82.516	-0.77115	0.56738	-0.26709	-0.10941	30.6	13111	100
2025-3-27 20:33:59.487	WT901BLE68-01(48591DE3C19B)	-0.333	-2.002	0.042	8.606	-12.329	-0.977	-74.99	33.81	-6.35	-53.508	-27.244	82.516	-0.77115	0.56738	-0.26709	-0.10941	30.6	13111	100
2025-3-27 20:33:59.487	WT901BLE68-01(48591DE3C19B)	-0.333	-1.842	0.034	31.494	24.780	-16.113	-74.94	33.62	-6.80	-53.508	-27.244	82.516	-0.77115	0.56738	-0.26709	-0.10941	30.6	13111	100
2025-3-27 20:33:59.518	WT901BLE68-01(48591DE3C19B)	-0.246	-1.842	0.034	31.494	24.780	-16.113	-74.90	33.43	-7.25	-53.508	-27.244	82.516	-0.77115	0.56738	-0.26709	-0.10941	30.6	13111	100
2025-3-27 20:33:59.518	WT901BLE68-01(48591DE3C19B)	-0.246	-1.463	0.071	37.720	53.650	-25.208	-74.99	33.23	-8.06	-53.508	-27.244	82.516	-0.77115	0.56738	-0.26709	-0.10941	30.6	13111	100
2025-3-27 20:33:59.518	WT901BLE68-01(48591DE3C19B)	-0.115	-1.463	0.071	37.720	53.650	-25.208	-75.08	33.02	-8.86	-53.508	-27.244	82.516	-0.77115	0.56738	-0.26709	-0.10941	30.6	13111	100
2025-3-27 20:33:59.518	WT901BLE68-01(48591DE3C19B)	-0.115	-1.132	0.109	32.654	75.134	-25.879	-75.36	32.85	-9.91	-53.508	-27.244	82.516	-0.77115	0.56738	-0.26709	-0.10941	30.6	13111	100
2025-3-27 20:33:59.578	WT901BLE68-01(48591DE3C19B)	-0.113	-1.132	0.109	32.654	75.134	-25.879	-75.62	32.68	-10.95	-53.508	-27.244	82.516	-0.77115	0.56738	-0.26709	-0.10941	30.6	13111	100
2025-3-27 20:33:59.578	WT901BLE68-01(48591DE3C19B)	-0.113	-0.900	0.181	20.874	86.609	-31.128	-76.07	32.48	-12.13	-53.508	-27.244	82.516	-0.77115	0.56738	-0.26709	-0.10941	30.6	13111	100
2025-3-27 20:33:59.578	WT901BLE68-01(48591DE3C19B)	-0.208	-0.900	0.181	20.874	86.609	-31.128	-76.51	32.27	-13.30	-53.508	-27.244	82.516	-0.77115	0.56738	-0.26709	-0.10941	30.6	13111	100
2025-3-27 20:33:59.578	WT901BLE68-01(48591DE3C19B)	-0.208	-0.863	0.203	5.920	79.285	-42.908	-77.06	31.92	-14.41	-53.508	-27.244	82.516	-0.77115	0.56738	-0.26709	-0.10941	30.6	13111	100
2025-3-27 20:33:59.607	WT901BLE68-01(48591DE3C19B)	-0.258	-0.863	0.203	5.920	79.285	-42.908	-77.60	31.56	-15.51	-48.412	-31.948	84.868	-0.77115	0.56738	-0.26709	-0.10941	30.6	13111	100
2025-3-27 20:33:59.607	WT901BLE68-01(48591DE3C19B)	-0.258	-0.845	0.174	1.770	60.486	-53.528	-78.05	31.05	-16.40	-48.412	-31.948	84.868	-0.77115	0.56738	-0.26709	-0.10941	30.6	13111	100
2025-3-27 20:33:59.607	WT901BLE68-01(48591DE3C19B)	-0.288	-0.845	0.174	1.770	60.486	-53.528	-78.49	30.55	-17.28	-48.412	-31.948	84.868	-0.77115	0.56738	-0.26709	-0.10941	30.6	13111	100
2025-3-27 20:33:59.608	WT901BLE68-01(48591DE3C19B)	-0.288	-0.794	0.127	3.845	42.358	-59.021	-78.79	29.95	-17.95	-48.412	-31.948	84.868	-0.77115	0.56738	-0.26709	-0.10941	30.6	13111	100
2025-3-27 20:33:59.638	WT901BLE68-01(48591DE3C19B)	-0.327	-0.794	0.127	3.845	42.358	-59.021	-79.09	29.36	-18.60	-48.412	-31.948	84.868	-0.77115	0.56738	-0.26709	-0.10941	30.6	13111	100
2025-3-27 20:33:59.638	WT901BLE68-01(48591DE3C19B)	-0.327	-0.728	0.104	8.667	27.466	-63.599	-79.24	28.70	-19.09	-48.412	-31.948	84.868	-0.77115	0.56738	-0.26709	-0.10941	30.6	13111	100
2025-3-27 20:33:59.638	WT901BLE68-01(48591DE3C19B)	-0.332	-0.728	0.104	8.667	27.466	-63.599	-79.39	28.05	-19.57	-48.412	-31.948	84.868	-0.77115	0.56738	-0.26709	-0.10941	30.6	13111	100
2025-3-27 20:33:59.638	WT901BLE68-01(48591DE3C19B)	-0.332	-0.604	0.104	15.259	9.827	-60.730	-79.37	27.41	-19.84	-48.412	-31.948	84.868	-0.77115	0.56738	-0.26709	-0.10941	30.6	13111	100
2025-3-27 20:33:59.698	WT901BLE68-01(48591DE3C19B)	-0.305	-0.604	0.104	15.259	9.827	-60.730	-79.34	26.76	-20.10	-48.412	-31.948	84.868	-0.77115	0.56738	-0.26709	-0.10941	30.6	13111	100
2025-3-27 20:33:59.698	WT901BLE68-01(48591DE3C19B)	-0.305	-0.458	0.139	19.165	0.122	-50.964	-79.22	26.21	-20.23	-48.412	-31.948	84.868	-0.77115	0.56738	-0.26709	-0.10941	30.6	13111	100
2025-3-27 20:33:59.699	WT901BLE68-01(48591DE3C19B)	-0.311	-0.458	0.139	19.165	0.122	-50.964	-79.09	25.67	-20.36	-48.412	-31.948	84.868	-0.77115	0.56738	-0.26709	-0.10941	30.6	13111	100
2025-3-27 20:33:59.699	WT901BLE68-01(48591DE3C19B)	-0.311	-0.373	0.167	18.921	1.404	-39.551	-78.95	25.25	-20.47	-48.412	-31.948	84.868	-0.77115	0.56738	-0.26709	-0.10941	30.6	13111	100
2025-3-27 20:33:59.731	WT901BLE68-01(48591DE3C19B)	-0.353	-0.373	0.167	18.921	1.404	-39.551	-78.81	24.84	-20.58	-48.412	-31.948	84.868	-0.77115	0.56738	-0.26709	-0.10941	30.6	13111	100
2025-3-27 20:33:59.731	WT901BLE68-01(48591DE3C19B)	-0.353	-0.448	0.180	14.832	6.897	-22.217	-78.72	24.62	-20.70	-48.412	-31.948	84.868	-0.77115	0.56738	-0.26709	-0.10941	30.6	13111	100
2025-3-27 20:33:59.731	WT901BLE68-01(48591DE3C19B)	-0.396	-0.448	0.180	14.832	6.897	-22.217	-78.62	24.41	-20.82	-48.412	-31.948	84.868	-0.77115	0.56738	-0.26709	-0.10941	30.6	13111	100
2025-3-27 20:33:59.731	WT901BLE68-01(48591DE3C19B)	-0.396	-0.624	0.130	10.010	6.714	-11.780	-78.56	24.30	-20.92	-48.412	-31.948	84.868	-0.77115	0.56738	-0.26709	-0.10941	30.6	13111	100
2025-3-27 20:33:59.760	WT901BLE68-01(48591DE3C19B)	-0.400	-0.624	0.130	10.010	6.714	-11.780	-78.49	24.20	-21.01	-48.412	-31.948	84.868	-0.77115	0.56738	-0.26709	-0.10941	30.6	13111	100
2025-3-27 20:33:59.760	WT901BLE68-01(48591DE3C19B)	-0.400	-0.897	0.101	5.188	18.799	-21.362	-78.55	24.03	-21.25	-48.412	-31.948	84.868	-0.77115	0.56738	-0.26709	-0.10941	30.6	13111	100
2025-3-27 20:33:59.760	WT901BLE68-01(48591DE3C19B)	-0.606	-0.897	0.101	5.188	18.799	-21.362	-78.60	23.87	-21.48	-48.412	-31.948	84.868	-0.77115	0.56738	-0.26709	-0.10941	30.6	13111	100
2025-3-27 20:33:59.760	WT901BLE68-01(48591DE3C19B)	-0.606	-1.171	0.193	19.226	41.016	-45.227	-78.63	23.51	-22.01	-48.412	-31.948	84.868	-0.77115	0.56738	-0.26709	-0.10941	30.6	13111	100
2025-3-27 20:33:59.819	WT901BLE68-01(48591DE3C19B)	-0.898	-1.171	0.193	19.226	41.016	-45.227	-78.65	23.16	-22.53	-48.412	-31.948	84.868	-0.77115	0.56738	-0.26709	-0.10941	30.6	13111	100
2025-3-27 20:33:59.819	WT901BLE68-01(48591DE3C19B)	-0.898	-1.243	0.395	21.606	34.180	-71.533	-78.64	22.55	-23.02	-48.412	-31.948	84.868	-0.76810	0.57870	-0.27222	0.02997	30.6	13111	100
2025-3-27 20:33:59.819	WT901BLE68-01(48591DE3C19B)	-1.071	-1.243	0.395	21.606	34.180	-71.533	-78.62	21.95	-23.51	-48.412	-31.948	84.868	-0.76810	0.57870	-0.27222	0.02997	30.6	13111	100
2025-3-27 20:33:59.819	WT901BLE68-01(48591DE3C19B)	-1.071	-1.496	0.486	4.578	25.085	-85.144	-78.73	21.21	-23.91	-48.412	-31.948	84.868	-0.76810	0.57870	-0.27222	0.02997	30.6	13111	100
2025-3-27 20:33:59.847	WT901BLE68-01(48591DE3C19B)	-1.108	-1.496	0.486	4.578	25.085	-85.144	-78.83	20.48	-24.31	-48.412	-31.948	84.868	-0.76810	0.57870	-0.27222	0.02997	30.6	13111	100
2025-3-27 20:33:59.847	WT901BLE68-01(48591DE3C19B)	-1.058	-1.595	0.455	20.813	52.429	-84.656	-78.85	19.81	-24.98	-48.412	-31.948	84.868	-0.76810	0.57870	-0.27222	0.02997	30.6	13111	100
2025-3-27 20:33:59.847	WT901BLE68-01(48591DE3C19B)	-1.058	-1.334	0.378	23.926	58.777	-77.759	-78.87	19.19	-25.67	-48.412	-31.948	84.868	-0.76810	0.57870	-0.27222	0.02997	30.6	13111	100
2025-3-27 20:33:59.847	WT901BLE68-01(48591DE3C19B)	-0.920	-1.334	0.378	23.926	58.777	-77.759	-78.87	18.62	-26.38	-48.412	-31.948	84.868	-0.76810	0.57870	-0.27222	0.02997	30.6	13111	100
2025-3-27 20:33:59.878	WT901BLE68-01(48591DE3C19B)	-0.920	-1.044	0.292	17.639	20.996	-58.472	-78.82	18.12	-26.87	-48.412	-31.948	84.868	-0.76810	0.57870	-0.27222	0.02997	30.6	13111	100
2025-3-27 20:33:59.878	WT901BLE68-01(48591DE3C19B)	-0.834	-1.044	0.292	17.639	20.996	-58.472	-78.74	17.68	-27.14	-48.412	-31.948	84.868	-0.76810	0.57870	-0.27222	0.02997	30.6	13111	100
2025-3-27 20:33:59.878	WT901BLE68-01(48591DE3C19B)	-0.834	-0.857	0.267	3.540	-31.860	-33.142	-78.64	17.32	-27.10	-48.412	-31.948	84.868	-0.76810	0.57870	-0.27222	0.02997	30.6	13111	100
2025-3-27 20:33:59.878	WT901BLE68-01(48591DE3C19B)	-0.708	-0.857	0.267	3.540	-31.860	-33.142	-78.52	17.04	-26.77	-48.412	-31.948	84.868	-0.76810	0.57870	-0.27222	0.02997	30.6	13111	100
2025-3-27 20:33:59.938	WT901BLE68-01(48591DE3C19B)	-0.708	-0.772	0.271	-12.878	-62.988	-15.381	-78.43	16.82	-26.27	-48.412	-31.948	84.868	-0.76810	0.57870	-0.27222	0.02997	30.6	13111	100
2025-3-27 20:33:59.938	WT901BLE68-01(48591DE3C19B)	-0.549	-0.772	0.271	-12.878	-62.988	-15.381	-78.38	16.66	-25.59	-48.412	-31.948	84.868	-0.76810	0.57870	-0.27222	0.02997	30.6	13111	100
2025-3-27 20:33:59.938	WT901BLE68-01(48591DE3C19B)	-0.549	-0.718	0.302	-12.268	-53.284	7.019	-78.33	16.62	-24.93	-48.412	-31.948	84.868	-0.76810	0.57870	-0.27222	0.02997	30.6	13111	100
2025-3-27 20:33:59.938	WT901BLE68-01(48591DE3C19B)	-0.473	-0.718	0.302	-12.268	-53.284	7.019	-78.28	16.70	-24.31	-48.412	-31.948	84.868	-0.76810	0.57870	-0.27222	0.02997	30.6	13111	100
2025-3-27 20:33:59.973	WT901BLE68-01(48591DE3C19B)	-0.473	-0.557	0.308	-6.775	-24.353	26.306	-78.23	16.90	-23.81	-48.412	-31.948	84.868	-0.76810	0.57870	-0.27222	0.02997	30.6	13111	100
2025-3-27 20:33:59.973	WT901BLE68-01(48591DE3C19B)	-0.419	-0.557	0.308	-6.775	-24.353	26.306	-78.19	17.23	-23.44	-48.412	-31.948	84.868	-0.76810	0.57870	-0.27222	0.02997	30.6	13111	100
2025-3-27 20:33:59.973	WT901BLE68-01(48591DE3C19B)	-0.419	-0.364	0.263	-4.517	-0.610	41.870	-78.16	17.65	-23.18	-48.412	-31.948	84.868	-0.76810	0.57870	-0.27222	0.02997	30.6	13111	100
2025-3-27 20:33:59.973	WT901BLE68-01(48591DE3C19B)	-0.438	-0.364	0.263	-4.517	-0.610	41.870	-78.15	18.18	-23.01	-48.412	-31.948	84.868	-0.76810	0.57870	-0.27222	0.02997	30.6	13111	100
2025-3-27 20:34:0.59	WT901BLE68-01(48591DE3C19B)	-0.438	-0.246	0.230	-4.822	14.954	53.833	-78.16	18.78	-22.91	-48.412	-31.948	84.868	-0.76810	0.57870	-0.27222	0.02997	30.6	13111	100
2025-3-27 20:34:0.59	WT901BLE68-01(48591DE3C19B)	-0.464	-0.246	0.230	-4.822	14.954	53.833	-78.18	19.45	-22.87	-48.412	-31.948	84.868	-0.76810	0.57870	-0.27222	0.02997	30.6	13111	100
2025-3-27 20:34:0.59	WT901BLE68-01(48591DE3C19B)	-0.464	-0.143	0.214	-8.728	11.719	65.918	-78.21	20.19	-22.79	-54.978	-24.892	87.416	-0.76810	0.57870	-0.27222	0.02997	30.6	13111	100
2025-3-27 20:34:0.59	WT901BLE68-01(48591DE3C19B)	-0.437	-0.143	0.214	-8.728	11.719	65.918	-78.25	20.98	-22.68	-54.978	-24.892	87.416	-0.76810	0.57870	-0.27222	0.02997	30.6	13111	100
2025-3-27 20:34:0.60	WT901BLE68-01(48591DE3C19B)	-0.437	-0.079	0.178	-17.944	-6.958	78.796	-78.29	21.83	-22.45	-54.978	-24.892	87.416	-0.76810	0.57870	-0.27222	0.02997	30.6	13111	100
2025-3-27 20:34:0.60	WT901BLE68-01(48591DE3C19B)	-0.394	-0.079	0.178	-17.944	-6.958	78.796	-78.33	22.73	-22.09	-54.978	-24.892	87.416	-0.76810	0.57870	-0.27222	0.02997	30.6	13111	100
2025-3-27 20:34:0.60	WT901BLE68-01(48591DE3C19B)	-0.394	-0.114	0.091	-31.738	-31.128	89.233	-78.38	23.65	-21.58	-54.978	-24.892	87.416	-0.76810	0.57870	-0.27222	0.02997	30.6	13111	100
2025-3-27 20:34:0.60	WT901BLE68-01(48591DE3C19B)	-0.366	-0.114	0.091	-31.738	-31.128	89.233	-78.43	24.61	-20.92	-54.978	-24.892	87.416	-0.76810	0.57870	-0.27222	0.02997	30.6	13111	100
2025-3-27 20:34:0.118	WT901BLE68-01(48591DE3C19B)	-0.366	-0.285	0.020	-48.706	-56.335	93.567	-78.50	25.57	-20.12	-54.978	-24.892	87.416	-0.76810	0.57870	-0.27222	0.02997	30.6	13111	100
2025-3-27 20:34:0.118	WT901BLE68-01(48591DE3C19B)	-0.365	-0.285	0.020	-48.706	-56.335	93.567	-78.59	26.51	-19.17	-54.978	-24.892	87.416	-0.76810	0.57870	-0.27222	0.02997	30.6	13111	100
2025-3-27 20:34:0.118	WT901BLE68-01(48591DE3C19B)	-0.365	-0.580	-0.007	-63.293	-84.229	92.041	-78.67	27.42	-18.08	-54.978	-24.892	87.416	-0.76810	0.57870	-0.27222	0.02997	30.6	13111	100
2025-3-27 20:34:0.118	WT901BLE68-01(48591DE3C19B)	-0.375	-0.580	-0.007	-63.293	-84.229	92.041	-78.74	28.27	-16.84	-54.978	-24.892	87.416	-0.76810	0.57870	-0.27222	0.02997	30.6	13111	100
2025-3-27 20:34:0.119	WT901BLE68-01(48591DE3C19B)	-0.375	-1.040	0.003	-72.571	-102.661	81.787	-78.80	29.04	-15.53	-54.978	-24.892	87.416	-0.76810	0.57870	-0.27222	0.02997	30.6	13111	100
2025-3-27 20:34:0.119	WT901BLE68-01(48591DE3C19B)	-0.395	-1.040	0.003	-72.571	-102.661	81.787	-78.86	29.72	-14.14	-54.978	-24.892	87.416	-0.76810	0.57870	-0.27222	0.02997	30.6	13111	100
2025-3-27 20:34:0.119	WT901BLE68-01(48591DE3C19B)	-0.395	-1.801	-0.022	-59.998	-103.943	61.646	-78.86	30.27	-12.80	-54.978	-24.892	87.416	-0.76810	0.57870	-0.27222	0.02997	30.6	13111	100
2025-3-27 20:34:0.119	WT901BLE68-01(48591DE3C19B)	-0.392	-1.801	-0.022	-59.998	-103.943	61.646	-78.80	30.68	-11.50	-54.978	-24.892	87.416	-0.76810	0.57870	-0.27222	0.02997	30.6	13111	100
2025-3-27 20:34:0.177	WT901BLE68-01(48591DE3C19B)	-0.392	-2.116	0.049	-18.616	-91.003	36.804	-78.60	30.96	-10.32	-54.978	-24.892	87.416	-0.76810	0.57870	-0.27222	0.02997	30.6	13111	100
2025-3-27 20:34:0.177	WT901BLE68-01(48591DE3C19B)	-0.435	-2.116	0.049	-18.616	-91.003	36.804	-78.25	31.10	-9.26	-54.978	-24.892	87.416	-0.76810	0.57870	-0.27222	0.02997	30.6	13111	100
2025-3-27 20:34:0.177	WT901BLE68-01(48591DE3C19B)	-0.435	-1.916	0.155	5.859	-69.824	39.307	-77.84	31.26	-8.33	-54.978	-24.892	87.416	-0.76810	0.57870	-0.27222	0.02997	30.6	13111	100
2025-3-27 20:34:0.177	WT901BLE68-01(48591DE3C19B)	-0.339	-1.916	0.155	5.859	-69.824	39.307	-77.37	31.44	-7.53	-54.978	-24.892	87.416	-0.76810	0.57870	-0.27222	0.02997	30.6	13111	100
2025-3-27 20:34:0.208	WT901BLE68-01(48591DE3C19B)	-0.339	-1.831	0.080	16.113	-28.381	26.733	-76.99	31.58	-6.98	-54.978	-24.892	87.416	-0.76810	0.57870	-0.27222	0.02997	30.6	13111	100
2025-3-27 20:34:0.208	WT901BLE68-01(48591DE3C19B)	-0.195	-1.831	0.080	16.113	-28.381	26.733	-76.69	31.71	-6.69	-54.978	-24.892	87.416	-0.76810	0.57870	-0.27222	0.02997	30.6	13111	100
2025-3-27 20:34:0.208	WT901BLE68-01(48591DE3C19B)	-0.195	-1.685	0.057	36.011	18.555	22.217	-76.44	31.85	-6.69	-54.978	-24.892	87.416	-0.76810	0.57870	-0.27222	0.02997	30.6	13111	100
2025-3-27 20:34:0.209	WT901BLE68-01(48591DE3C19B)	-0.087	-1.685	0.057	36.011	18.555	22.217	-76.24	32.03	-6.95	-54.978	-24.892	87.416	-0.76508	0.57907	-0.25259	-0.12411	30.6	13111	100
2025-3-27 20:34:0.237	WT901BLE68-01(48591DE3C19B)	-0.087	-1.351	0.065	42.908	59.387	22.949	-76.13	32.24	-7.45	-54.978	-24.892	87.416	-0.76508	0.57907	-0.25259	-0.12411	30.6	13111	100
2025-3-27 20:34:0.237	WT901BLE68-01(48591DE3C19B)	-0.041	-1.351	0.065	42.908	59.387	22.949	-76.12	32.51	-8.20	-54.978	-24.892	87.416	-0.76508	0.57907	-0.25259	-0.12411	30.6	13111	100
2025-3-27 20:34:0.237	WT901BLE68-01(48591DE3C19B)	-0.041	-1.036	0.071	43.030	89.966	19.287	-76.21	32.78	-9.12	-54.978	-24.892	87.416	-0.76508	0.57907	-0.25259	-0.12411	30.6	13111	100
2025-3-27 20:34:0.237	WT901BLE68-01(48591DE3C19B)	-0.125	-1.036	0.071	43.030	89.966	19.287	-76.40	33.07	-10.22	-54.978	-24.892	87.416	-0.76508	0.57907	-0.25259	-0.12411	30.6	13111	100
2025-3-27 20:34:0.298	WT901BLE68-01(48591DE3C19B)	-0.125	-0.726	0.078	42.297	100.708	11.108	-76.65	33.32	-11.40	-54.978	-24.892	87.416	-0.76508	0.57907	-0.25259	-0.12411	30.6	13111	100
2025-3-27 20:34:0.298	WT901BLE68-01(48591DE3C19B)	-0.202	-0.726	0.078	42.297	100.708	11.108	-76.94	33.54	-12.66	-54.978	-24.892	87.416	-0.76508	0.57907	-0.25259	-0.12411	30.6	13111	100
2025-3-27 20:34:0.299	WT901BLE68-01(48591DE3C19B)	-0.202	-0.472	0.070	35.645	89.050	5.737	-77.23	33.70	-13.84	-54.978	-24.892	87.416	-0.76508	0.57907	-0.25259	-0.12411	30.6	13111	100
2025-3-27 20:34:0.299	WT901BLE68-01(48591DE3C19B)	-0.161	-0.472	0.070	35.645	89.050	5.737	-77.52	33.83	-14.97	-54.978	-24.892	87.416	-0.76508	0.57907	-0.25259	-0.12411	30.6	13111	100
2025-3-27 20:34:0.327	WT901BLE68-01(48591DE3C19B)	-0.161	-0.273	0.090	26.794	68.359	8.423	-77.76	33.94	-15.84	-54.978	-24.892	87.416	-0.76508	0.57907	-0.25259	-0.12411	30.6	13111	100
2025-3-27 20:34:0.327	WT901BLE68-01(48591DE3C19B)	-0.105	-0.273	0.090	26.794	68.359	8.423	-77.99	34.04	-16.70	-54.978	-24.892	87.416	-0.76508	0.57907	-0.25259	-0.12411	30.6	13111	100
2025-3-27 20:34:0.327	WT901BLE68-01(48591DE3C19B)	-0.105	-0.160	0.116	18.250	55.115	13.794	-78.21	34.17	-17.40	-54.978	-24.892	87.416	-0.76508	0.57907	-0.25259	-0.12411	30.6	13111	100
2025-3-27 20:34:0.327	WT901BLE68-01(48591DE3C19B)	-0.136	-0.160	0.116	18.250	55.115	13.794	-78.43	34.30	-18.09	-54.978	-24.892	87.416	-0.76508	0.57907	-0.25259	-0.12411	30.6	13111	100
2025-3-27 20:34:0.388	WT901BLE68-01(48591DE3C19B)	-0.136	-0.151	0.127	13.428	41.870	19.897	-78.59	34.46	-18.61	-54.978	-24.892	87.416	-0.76508	0.57907	-0.25259	-0.12411	30.6	13111	100
2025-3-27 20:34:0.389	WT901BLE68-01(48591DE3C19B)	-0.209	-0.151	0.127	13.428	41.870	19.897	-78.74	34.62	-19.12	-54.978	-24.892	87.416	-0.76508	0.57907	-0.25259	-0.12411	30.6	13111	100
2025-3-27 20:34:0.389	WT901BLE68-01(48591DE3C19B)	-0.209	-0.186	0.120	6.836	21.545	25.269	-78.81	34.80	-19.37	-54.978	-24.892	87.416	-0.76508	0.57907	-0.25259	-0.12411	30.6	13111	100
2025-3-27 20:34:0.389	WT901BLE68-01(48591DE3C19B)	-0.270	-0.186	0.120	6.836	21.545	25.269	-78.88	34.99	-19.62	-54.978	-24.892	87.416	-0.76508	0.57907	-0.25259	-0.12411	30.6	13111	100
2025-3-27 20:34:0.417	WT901BLE68-01(48591DE3C19B)	-0.270	-0.311	0.098	-1.343	-1.587	26.001	-78.86	35.15	-19.58	-55.272	-23.814	86.534	-0.76508	0.57907	-0.25259	-0.12411	30.6	13111	100
2025-3-27 20:34:0.417	WT901BLE68-01(48591DE3C19B)	-0.307	-0.311	0.098	-1.343	-1.587	26.001	-78.83	35.30	-19.54	-55.272	-23.814	86.534	-0.76508	0.57907	-0.25259	-0.12411	30.6	13111	100
2025-3-27 20:34:0.417	WT901BLE68-01(48591DE3C19B)	-0.307	-0.558	0.056	-12.146	-19.226	15.686	-78.81	35.34	-19.30	-55.272	-23.814	86.534	-0.76508	0.57907	-0.25259	-0.12411	30.6	13111	100
2025-3-27 20:34:0.417	WT901BLE68-01(48591DE3C19B)	-0.366	-0.558	0.056	-12.146	-19.226	15.686	-78.79	35.38	-19.07	-55.272	-23.814	86.534	-0.76508	0.57907	-0.25259	-0.12411	30.6	13111	100
2025-3-27 20:34:0.448	WT901BLE68-01(48591DE3C19B)	-0.366	-0.990	0.032	-20.264	-22.644	-11.414	-78.88	35.15	-18.87	-55.272	-23.814	86.534	-0.76508	0.57907	-0.25259	-0.12411	30.6	13111	100
2025-3-27 20:34:0.448	WT901BLE68-01(48591DE3C19B)	-0.458	-0.990	0.032	-20.264	-22.644	-11.414	-78.96	34.91	-18.67	-55.272	-23.814	86.534	-0.76508	0.57907	-0.25259	-0.12411	30.6	13111	100
2025-3-27 20:34:0.448	WT901BLE68-01(48591DE3C19B)	-0.458	-1.462	0.043	-11.963	-21.667	-53.955	-79.04	34.26	-18.58	-55.272	-23.814	86.534	-0.76508	0.57907	-0.25259	-0.12411	30.6	13111	100
2025-3-27 20:34:0.448	WT901BLE68-01(48591DE3C19B)	-0.509	-1.462	0.043	-11.963	-21.667	-53.955	-79.13	33.61	-18.50	-55.272	-23.814	86.534	-0.76508	0.57907	-0.25259	-0.12411	30.6	13111	100
2025-3-27 20:34:0.508	WT901BLE68-01(48591DE3C19B)	-0.509	-1.786	0.136	-12.634	-16.907	-117.065	-79.33	32.35	-18.62	-55.272	-23.814	86.534	-0.76508	0.57907	-0.25259	-0.12411	30.6	13111	100
2025-3-27 20:34:0.508	WT901BLE68-01(48591DE3C19B)	-0.883	-1.786	0.136	-12.634	-16.907	-117.065	-79.53	31.10	-18.73	-55.272	-23.814	86.534	-0.76508	0.57907	-0.25259	-0.12411	30.6	13111	100
2025-3-27 20:34:0.509	WT901BLE68-01(48591DE3C19B)	-0.883	-2.160	0.311	-18.860	4.333	-151.489	-79.94	29.56	-19.15	-55.272	-23.814	86.534	-0.76508	0.57907	-0.25259	-0.12411	30.6	13111	100
2025-3-27 20:34:0.509	WT901BLE68-01(48591DE3C19B)	-1.172	-2.160	0.311	-18.860	4.333	-151.489	-80.32	28.02	-19.54	-55.272	-23.814	86.534	-0.76508	0.57907	-0.25259	-0.12411	30.6	13111	100
2025-3-27 20:34:0.599	WT901BLE68-01(48591DE3C19B)	-1.172	-1.693	0.595	4.578	37.048	-164.185	-80.61	26.43	-20.29	-55.272	-23.814	86.534	-0.76508	0.57907	-0.25259	-0.12411	30.6	13111	100
2025-3-27 20:34:0.599	WT901BLE68-01(48591DE3C19B)	-1.050	-1.693	0.595	4.578	37.048	-164.185	-80.87	24.86	-21.01	-55.272	-23.814	86.534	-0.76508	0.57907	-0.25259	-0.12411	30.6	13111	100
2025-3-27 20:34:0.599	WT901BLE68-01(48591DE3C19B)	-1.050	-1.092	0.743	9.155	47.241	-141.479	-81.07	23.54	-21.78	-55.272	-23.814	86.534	-0.76508	0.57907	-0.25259	-0.12411	30.6	13111	100
2025-3-27 20:34:0.599	WT901BLE68-01(48591DE3C19B)	-0.638	-1.092	0.743	9.155	47.241	-141.479	-81.24	22.24	-22.52	-55.272	-23.814	86.534	-0.76508	0.57907	-0.25259	-0.12411	30.6	13111	100
2025-3-27 20:34:0.600	WT901BLE68-01(48591DE3C19B)	-0.638	-0.673	0.490	-1.892	52.917	-114.929	-81.50	21.23	-23.26	-55.272	-23.814	86.534	-0.76508	0.57907	-0.25259	-0.12411	30.6	13111	100
2025-3-27 20:34:0.600	WT901BLE68-01(48591DE3C19B)	-0.391	-0.673	0.490	-1.892	52.917	-114.929	-81.74	20.21	-23.98	-55.272	-23.814	86.534	-0.76508	0.57907	-0.25259	-0.12411	30.6	13111	100
2025-3-27 20:34:0.600	WT901BLE68-01(48591DE3C19B)	-0.391	-0.523	0.172	-20.874	5.249	-74.585	-81.95	19.54	-24.14	-55.272	-23.814	86.534	-0.76508	0.57907	-0.25259	-0.12411	30.6	13111	100
2025-3-27 20:34:0.600	WT901BLE68-01(48591DE3C19B)	-0.354	-0.523	0.172	-20.874	5.249	-74.585	-82.17	18.87	-24.29	-55.272	-23.814	86.534	-0.76508	0.57907	-0.25259	-0.12411	30.6	13111	100
2025-3-27 20:34:0.630	WT901BLE68-01(48591DE3C19B)	-0.354	-0.504	0.101	-36.438	-75.134	-40.527	-82.25	18.44	-23.54	-55.272	-23.814	86.534	-0.76508	0.57907	-0.25259	-0.12411	30.6	13111	100
2025-3-27 20:34:0.630	WT901BLE68-01(48591DE3C19B)	-0.234	-0.504	0.101	-36.438	-75.134	-40.527	-82.34	18.01	-22.80	-55.272	-23.814	86.534	-0.76508	0.57907	-0.25259	-0.12411	30.6	13111	100
2025-3-27 20:34:0.630	WT901BLE68-01(48591DE3C19B)	-0.234	-0.472	0.144	-39.673	-97.961	-12.390	-82.38	17.83	-21.79	-55.272	-23.814	86.534	-0.76508	0.57907	-0.25259	-0.12411	30.6	13111	100
2025-3-27 20:34:0.631	WT901BLE68-01(48591DE3C19B)	-0.240	-0.472	0.144	-39.673	-97.961	-12.390	-82.41	17.65	-20.79	-55.272	-23.814	86.534	-0.76508	0.57907	-0.25259	-0.12411	30.6	13111	100
2025-3-27 20:34:0.660	WT901BLE68-01(48591DE3C19B)	-0.240	-0.347	0.207	-26.428	-40.833	4.272	-82.50	17.71	-20.36	-55.272	-23.814	86.534	-0.74896	0.62134	-0.22809	0.02972	30.6	13111	100
2025-3-27 20:34:0.660	WT901BLE68-01(48591DE3C19B)	-0.273	-0.347	0.207	-26.428	-40.833	4.272	-82.57	17.77	-19.93	-55.272	-23.814	86.534	-0.74896	0.62134	-0.22809	0.02972	30.6	13111	100
2025-3-27 20:34:0.660	WT901BLE68-01(48591DE3C19B)	-0.273	-0.180	0.239	-13.672	22.949	17.395	-82.71	18.05	-20.14	-55.272	-23.814	86.534	-0.74896	0.62134	-0.22809	0.02972	30.6	13111	100
2025-3-27 20:34:0.660	WT901BLE68-01(48591DE3C19B)	-0.396	-0.180	0.239	-13.672	22.949	17.395	-82.84	18.33	-20.35	-55.272	-23.814	86.534	-0.74896	0.62134	-0.22809	0.02972	30.6	13111	100
2025-3-27 20:34:0.690	WT901BLE68-01(48591DE3C19B)	-0.396	-0.184	0.250	-8.911	53.467	28.381	-83.02	18.76	-20.85	-55.272	-23.814	86.534	-0.74896	0.62134	-0.22809	0.02972	30.6	13111	100
2025-3-27 20:34:0.691	WT901BLE68-01(48591DE3C19B)	-0.533	-0.184	0.250	-8.911	53.467	28.381	-83.19	19.20	-21.35	-55.272	-23.814	86.534	-0.74896	0.62134	-0.22809	0.02972	30.6	13111	100
2025-3-27 20:34:0.691	WT901BLE68-01(48591DE3C19B)	-0.533	-0.384	0.264	-5.066	56.885	26.733	-83.34	19.63	-21.87	-55.272	-23.814	86.534	-0.74896	0.62134	-0.22809	0.02972	30.6	13111	100
2025-3-27 20:34:0.691	WT901BLE68-01(48591DE3C19B)	-0.658	-0.384	0.264	-5.066	56.885	26.733	-83.49	20.07	-22.40	-55.272	-23.814	86.534	-0.74896	0.62134	-0.22809	0.02972	30.6	13111	100
2025-3-27 20:34:0.748	WT901BLE68-01(48591DE3C19B)	-0.658	-0.579	0.290	7.202	36.560	18.616	-83.45	20.41	-22.70	-55.272	-23.814	86.534	-0.74896	0.62134	-0.22809	0.02972	30.6	13111	100
2025-3-27 20:34:0.748	WT901BLE68-01(48591DE3C19B)	-0.804	-0.579	0.290	7.202	36.560	18.616	-83.42	20.75	-23.01	-55.272	-23.814	86.534	-0.74896	0.62134	-0.22809	0.02972	30.6	13111	100
2025-3-27 20:34:0.748	WT901BLE68-01(48591DE3C19B)	-0.804	-0.897	0.345	13.367	3.052	9.094	-83.21	20.96	-22.96	-55.272	-23.814	86.534	-0.74896	0.62134	-0.22809	0.02972	30.6	13111	100
2025-3-27 20:34:0.748	WT901BLE68-01(48591DE3C19B)	-0.990	-0.897	0.345	13.367	3.052	9.094	-83.00	21.18	-22.92	-55.272	-23.814	86.534	-0.74896	0.62134	-0.22809	0.02972	30.6	13111	100
2025-3-27 20:34:0.780	WT901BLE68-01(48591DE3C19B)	-0.899	-1.649	0.285	15.137	-32.471	0.977	-82.66	21.25	-22.52	-55.272	-23.814	86.534	-0.74896	0.62134	-0.22809	0.02972	30.6	13111	100
2025-3-27 20:34:0.780	WT901BLE68-01(48591DE3C19B)	-0.899	-2.490	0.037	23.987	-39.063	-8.362	-82.27	21.26	-22.11	-55.272	-23.814	86.534	-0.74896	0.62134	-0.22809	0.02972	30.6	13111	100
2025-3-27 20:34:0.780	WT901BLE68-01(48591DE3C19B)	-0.699	-2.490	0.037	23.987	-39.063	-8.362	-81.85	21.19	-21.69	-55.272	-23.814	86.534	-0.74896	0.62134	-0.22809	0.02972	30.6	13111	100
2025-3-27 20:34:0.780	WT901BLE68-01(48591DE3C19B)	-0.699	-2.189	-0.089	72.937	-18.982	17.761	-81.23	21.25	-21.37	-55.272	-23.814	86.534	-0.74896	0.62134	-0.22809	0.02972	30.6	13111	100
2025-3-27 20:34:0.810	WT901BLE68-01(48591DE3C19B)	-0.431	-2.189	-0.089	72.937	-18.982	17.761	-80.42	21.44	-21.15	-55.272	-23.814	86.534	-0.74896	0.62134	-0.22809	0.02972	30.6	13111	100
2025-3-27 20:34:0.810	WT901BLE68-01(48591DE3C19B)	-0.431	-1.452	0.011	57.617	16.479	39.856	-79.76	21.75	-21.11	-55.272	-23.814	86.534	-0.74896	0.62134	-0.22809	0.02972	30.6	13111	100
2025-3-27 20:34:0.810	WT901BLE68-01(48591DE3C19B)	-0.172	-1.452	0.011	57.617	16.479	39.856	-79.24	22.20	-21.23	-59.682	-21.756	86.534	-0.74896	0.62134	-0.22809	0.02972	30.6	13111	100
2025-3-27 20:34:0.810	WT901BLE68-01(48591DE3C19B)	-0.172	-1.176	0.217	40.100	55.359	66.895	-78.89	22.81	-21.53	-59.682	-21.756	86.534	-0.74896	0.62134	-0.22809	0.02972	30.6	13111	100
2025-3-27 20:34:0.873	WT901BLE68-01(48591DE3C19B)	-0.061	-1.176	0.217	40.100	55.359	66.895	-78.69	23.57	-22.01	-59.682	-21.756	86.534	-0.74896	0.62134	-0.22809	0.02972	30.6	13111	100
2025-3-27 20:34:0.873	WT901BLE68-01(48591DE3C19B)	-0.061	-0.861	0.355	33.020	76.965	89.111	-78.57	24.46	-22.58	-59.682	-21.756	86.534	-0.74896	0.62134	-0.22809	0.02972	30.6	13111	100
2025-3-27 20:34:0.874	WT901BLE68-01(48591DE3C19B)	-0.106	-0.861	0.355	33.020	76.965	89.111	-78.53	25.46	-23.25	-59.682	-21.756	86.534	-0.74896	0.62134	-0.22809	0.02972	30.6	13111	100
2025-3-27 20:34:0.874	WT901BLE68-01(48591DE3C19B)	-0.106	-0.499	0.379	24.109	56.702	81.970	-78.50	26.39	-23.82	-59.682	-21.756	86.534	-0.74896	0.62134	-0.22809	0.02972	30.6	13111	100
2025-3-27 20:34:0.897	WT901BLE68-01(48591DE3C19B)	-0.101	-0.499	0.379	24.109	56.702	81.970	-78.46	27.27	-24.30	-59.682	-21.756	86.534	-0.74896	0.62134	-0.22809	0.02972	30.6	13111	100
2025-3-27 20:34:0.898	WT901BLE68-01(48591DE3C19B)	-0.101	-0.276	0.327	17.456	26.550	83.801	-78.38	28.11	-24.60	-59.682	-21.756	86.534	-0.74896	0.62134	-0.22809	0.02972	30.6	13111	100
2025-3-27 20:34:0.898	WT901BLE68-01(48591DE3C19B)	-0.149	-0.276	0.327	17.456	26.550	83.801	-78.24	28.93	-24.73	-59.682	-21.756	86.534	-0.74896	0.62134	-0.22809	0.02972	30.6	13111	100
2025-3-27 20:34:0.898	WT901BLE68-01(48591DE3C19B)	-0.149	-0.170	0.154	13.550	49.500	94.360	-78.18	29.81	-24.98	-59.682	-21.756	86.534	-0.74896	0.62134	-0.22809	0.02972	30.6	13111	100
2025-3-27 20:34:0.928	WT901BLE68-01(48591DE3C19B)	-0.259	-0.170	0.154	13.550	49.500	94.360	-78.19	30.77	-25.34	-59.682	-21.756	86.534	-0.74896	0.62134	-0.22809	0.02972	30.6	13111	100
2025-3-27 20:34:0.928	WT901BLE68-01(48591DE3C19B)	-0.259	-0.182	0.063	13.184	79.651	100.159	-78.29	31.79	-25.87	-59.682	-21.756	86.534	-0.74896	0.62134	-0.22809	0.02972	30.6	13111	100
2025-3-27 20:34:0.928	WT901BLE68-01(48591DE3C19B)	-0.434	-0.182	0.063	13.184	79.651	100.159	-78.50	32.87	-26.57	-59.682	-21.756	86.534	-0.74896	0.62134	-0.22809	0.02972	30.6	13111	100
2025-3-27 20:34:0.928	WT901BLE68-01(48591DE3C19B)	-0.434	-0.306	0.006	6.714	75.439	106.201	-78.74	33.96	-27.24	-59.682	-21.756	86.534	-0.74896	0.62134	-0.22809	0.02972	30.6	13111	100
2025-3-27 20:34:0.988	WT901BLE68-01(48591DE3C19B)	-0.467	-0.306	0.006	6.714	75.439	106.201	-79.01	35.10	-27.88	-59.682	-21.756	86.534	-0.74896	0.62134	-0.22809	0.02972	30.6	13111	100
2025-3-27 20:34:0.988	WT901BLE68-01(48591DE3C19B)	-0.467	-0.516	-0.029	-3.906	31.921	108.032	-79.21	36.19	-28.27	-59.682	-21.756	86.534	-0.74896	0.62134	-0.22809	0.02972	30.6	13111	100
2025-3-27 20:34:0.988	WT901BLE68-01(48591DE3C19B)	-0.432	-0.516	-0.029	-3.906	31.921	108.032	-79.31	37.27	-28.39	-59.682	-21.756	86.534	-0.74896	0.62134	-0.22809	0.02972	30.6	13111	100
2025-3-27 20:34:0.989	WT901BLE68-01(48591DE3C19B)	-0.432	-0.769	-0.055	-15.747	-9.277	97.778	-79.34	38.25	-28.27	-59.682	-21.756	86.534	-0.74896	0.62134	-0.22809	0.02972	30.6	13111	100
2025-3-27 20:34:1.17	WT901BLE68-01(48591DE3C19B)	-0.484	-0.769	-0.055	-15.747	-9.277	97.778	-79.28	39.14	-27.91	-59.682	-21.756	86.534	-0.74896	0.62134	-0.22809	0.02972	30.6	13111	100
2025-3-27 20:34:1.17	WT901BLE68-01(48591DE3C19B)	-0.484	-1.127	-0.037	-18.738	-35.645	72.754	-79.16	39.87	-27.42	-59.682	-21.756	86.534	-0.74896	0.62134	-0.22809	0.02972	30.6	13111	100
2025-3-27 20:34:1.18	WT901BLE68-01(48591DE3C19B)	-0.601	-1.127	-0.037	-18.738	-35.645	72.754	-78.96	40.45	-26.78	-59.682	-21.756	86.534	-0.74896	0.62134	-0.22809	0.02972	30.6	13111	100
2025-3-27 20:34:1.18	WT901BLE68-01(48591DE3C19B)	-0.601	-1.541	0.016	-5.371	-56.458	23.254	-78.66	40.75	-26.08	-59.682	-21.756	86.534	-0.75690	0.51788	-0.39490	-0.05328	30.6	13111	100
2025-3-27 20:34:1.48	WT901BLE68-01(48591DE3C19B)	-0.672	-1.541	0.016	-5.371	-56.458	23.254	-78.24	40.79	-25.31	-59.682	-21.756	86.534	-0.75690	0.51788	-0.39490	-0.05328	30.6	13111	100
2025-3-27 20:34:1.48	WT901BLE68-01(48591DE3C19B)	-0.672	-1.717	0.153	12.085	-70.374	-33.630	-77.74	40.52	-24.55	-59.682	-21.756	86.534	-0.75690	0.51788	-0.39490	-0.05328	30.6	13111	100
2025-3-27 20:34:1.48	WT901BLE68-01(48591DE3C19B)	-0.795	-1.717	0.153	12.085	-70.374	-33.630	-77.17	39.95	-23.79	-59.682	-21.756	86.534	-0.75690	0.51788	-0.39490	-0.05328	30.6	13111	100
2025-3-27 20:34:1.48	WT901BLE68-01(48591DE3C19B)	-0.795	-1.537	0.339	21.545	-63.721	-68.481	-76.61	39.21	-23.14	-59.682	-21.756	86.534	-0.75690	0.51788	-0.39490	-0.05328	30.6	13111	100
2025-3-27 20:34:1.109	WT901BLE68-01(48591DE3C19B)	-0.679	-1.537	0.339	21.545	-63.721	-68.481	-76.09	38.31	-22.59	-59.682	-21.756	86.534	-0.75690	0.51788	-0.39490	-0.05328	30.6	13111	100
2025-3-27 20:34:1.109	WT901BLE68-01(48591DE3C19B)	-0.679	-1.209	0.459	23.621	-18.066	-83.801	-75.75	37.41	-22.37	-59.682	-21.756	86.534	-0.75690	0.51788	-0.39490	-0.05328	30.6	13111	100
2025-3-27 20:34:1.109	WT901BLE68-01(48591DE3C19B)	-0.372	-1.209	0.459	23.621	-18.066	-83.801	-75.58	36.49	-22.45	-59.682	-21.756	86.534	-0.75690	0.51788	-0.39490	-0.05328	30.6	13111	100
2025-3-27 20:34:1.109	WT901BLE68-01(48591DE3C19B)	-0.372	-0.945	0.467	25.696	45.898	-79.773	-75.61	35.67	-22.90	-59.682	-21.756	86.534	-0.75690	0.51788	-0.39490	-0.05328	30.6	13111	100
2025-3-27 20:34:1.174	WT901BLE68-01(48591DE3C19B)	-0.236	-0.945	0.467	25.696	45.898	-79.773	-75.83	34.95	-23.71	-59.682	-21.756	86.534	-0.75690	0.51788	-0.39490	-0.05328	30.6	13111	100
2025-3-27 20:34:1.174	WT901BLE68-01(48591DE3C19B)	-0.236	-0.753	0.380	24.597	101.318	-76.111	-76.22	34.31	-24.83	-59.682	-21.756	86.534	-0.75690	0.51788	-0.39490	-0.05328	30.6	13111	100
2025-3-27 20:34:1.174	WT901BLE68-01(48591DE3C19B)	-0.389	-0.753	0.380	24.597	101.318	-76.111	-76.76	33.75	-26.25	-59.682	-21.756	86.534	-0.75690	0.51788	-0.39490	-0.05328	30.6	13111	100
2025-3-27 20:34:1.174	WT901BLE68-01(48591DE3C19B)	-0.389	-0.563	0.282	15.869	105.103	-67.322	-77.32	33.23	-27.66	-59.682	-21.756	86.534	-0.75690	0.51788	-0.39490	-0.05328	30.6	13111	100
2025-3-27 20:34:1.174	WT901BLE68-01(48591DE3C19B)	-0.518	-0.563	0.282	15.869	105.103	-67.322	-77.90	32.74	-29.05	-59.682	-21.756	86.534	-0.75690	0.51788	-0.39490	-0.05328	30.6	13111	100
2025-3-27 20:34:1.174	WT901BLE68-01(48591DE3C19B)	-0.518	-0.532	0.180	-10.925	42.175	-66.467	-78.39	32.20	-30.06	-59.682	-21.756	86.534	-0.75690	0.51788	-0.39490	-0.05328	30.6	13111	100
2025-3-27 20:34:1.174	WT901BLE68-01(48591DE3C19B)	-0.392	-0.532	0.180	-10.925	42.175	-66.467	-78.82	31.60	-30.68	-59.682	-21.756	86.534	-0.75690	0.51788	-0.39490	-0.05328	30.6	13111	100
2025-3-27 20:34:1.174	WT901BLE68-01(48591DE3C19B)	-0.392	-0.510	0.131	-21.423	-14.832	-60.913	-79.10	30.98	-30.96	-59.682	-21.756	86.534	-0.75690	0.51788	-0.39490	-0.05328	30.6	13111	100
2025-3-27 20:34:1.228	WT901BLE68-01(48591DE3C19B)	-0.350	-0.510	0.131	-21.423	-14.832	-60.913	-79.26	30.33	-30.90	-59.682	-21.756	86.534	-0.75690	0.51788	-0.39490	-0.05328	30.6	13111	100
2025-3-27 20:34:1.229	WT901BLE68-01(48591DE3C19B)	-0.350	-0.307	0.124	-17.456	-35.950	-53.284	-79.34	29.72	-30.71	-65.072	-14.602	84.084	-0.75690	0.51788	-0.39490	-0.05328	30.6	13111	100
2025-3-27 20:34:1.229	WT901BLE68-01(48591DE3C19B)	-0.302	-0.307	0.124	-17.456	-35.950	-53.284	-79.34	29.14	-30.39	-65.072	-14.602	84.084	-0.75690	0.51788	-0.39490	-0.05328	30.6	13111	100
2025-3-27 20:34:1.229	WT901BLE68-01(48591DE3C19B)	-0.302	-0.104	0.104	-24.536	-37.476	-43.701	-79.39	28.65	-30.04	-65.072	-14.602	84.084	-0.75690	0.51788	-0.39490	-0.05328	30.6	13111	100
2025-3-27 20:34:1.257	WT901BLE68-01(48591DE3C19B)	-0.322	-0.104	0.104	-24.536	-37.476	-43.701	-79.44	28.17	-29.68	-65.072	-14.602	84.084	-0.75690	0.51788	-0.39490	-0.05328	30.6	13111	100
2025-3-27 20:34:1.257	WT901BLE68-01(48591DE3C19B)	-0.322	-0.157	0.105	-33.691	-28.198	-25.940	-79.61	27.91	-29.38	-65.072	-14.602	84.084	-0.75690	0.51788	-0.39490	-0.05328	30.6	13111	100
2025-3-27 20:34:1.257	WT901BLE68-01(48591DE3C19B)	-0.411	-0.157	0.105	-33.691	-28.198	-25.940	-79.79	27.65	-29.09	-65.072	-14.602	84.084	-0.75690	0.51788	-0.39490	-0.05328	30.6	13111	100
2025-3-27 20:34:1.257	WT901BLE68-01(48591DE3C19B)	-0.411	-0.346	0.111	-37.964	-28.442	-15.808	-79.99	27.49	-28.76	-65.072	-14.602	84.084	-0.75690	0.51788	-0.39490	-0.05328	30.6	13111	100
2025-3-27 20:34:1.287	WT901BLE68-01(48591DE3C19B)	-0.501	-0.346	0.111	-37.964	-28.442	-15.808	-80.19	27.35	-28.43	-65.072	-14.602	84.084	-0.75690	0.51788	-0.39490	-0.05328	30.6	13111	100
2025-3-27 20:34:1.287	WT901BLE68-01(48591DE3C19B)	-0.501	-0.539	0.136	-40.039	-40.466	-17.090	-80.36	27.18	-27.97	-65.072	-14.602	84.084	-0.75690	0.51788	-0.39490	-0.05328	30.6	13111	100
2025-3-27 20:34:1.287	WT901BLE68-01(48591DE3C19B)	-0.531	-0.539	0.136	-40.039	-40.466	-17.090	-80.54	27.02	-27.50	-65.072	-14.602	84.084	-0.75690	0.51788	-0.39490	-0.05328	30.6	13111	100
2025-3-27 20:34:1.287	WT901BLE68-01(48591DE3C19B)	-0.531	-0.783	0.090	-45.471	-62.134	-20.752	-80.66	26.77	-26.81	-65.072	-14.602	84.084	-0.75690	0.51788	-0.39490	-0.05328	30.6	13111	100
2025-3-27 20:34:1.347	WT901BLE68-01(48591DE3C19B)	-0.521	-0.783	0.090	-45.471	-62.134	-20.752	-80.79	26.54	-26.13	-65.072	-14.602	84.084	-0.75690	0.51788	-0.39490	-0.05328	30.6	13111	100
2025-3-27 20:34:1.347	WT901BLE68-01(48591DE3C19B)	-0.521	-1.324	0.069	-49.377	-82.214	-35.889	-80.90	26.11	-25.27	-65.072	-14.602	84.084	-0.75690	0.51788	-0.39490	-0.05328	30.6	13111	100
2025-3-27 20:34:1.347	WT901BLE68-01(48591DE3C19B)	-0.653	-1.324	0.069	-49.377	-82.214	-35.889	-81.01	25.67	-24.42	-65.072	-14.602	84.084	-0.75690	0.51788	-0.39490	-0.05328	30.6	13111	100
2025-3-27 20:34:1.348	WT901BLE68-01(48591DE3C19B)	-0.653	-2.321	0.087	-33.203	-86.731	-54.993	-80.98	25.02	-23.58	-65.072	-14.602	84.084	-0.75690	0.51788	-0.39490	-0.05328	30.6	13111	100
2025-3-27 20:34:1.378	WT901BLE68-01(48591DE3C19B)	-0.792	-2.321	0.087	-33.203	-86.731	-54.993	-80.96	24.35	-22.76	-65.072	-14.602	84.084	-0.75690	0.51788	-0.39490	-0.05328	30.6	13111	100
2025-3-27 20:34:1.378	WT901BLE68-01(48591DE3C19B)	-0.792	-2.828	0.086	18.982	-81.665	-49.438	-80.47	23.73	-22.01	-65.072	-14.602	84.084	-0.75690	0.51788	-0.39490	-0.05328	30.6	13111	100
2025-3-27 20:34:1.378	WT901BLE68-01(48591DE3C19B)	-0.625	-2.828	0.086	18.982	-81.665	-49.438	-80.00	23.10	-21.26	-65.072	-14.602	84.084	-0.75690	0.51788	-0.39490	-0.05328	30.6	13111	100
2025-3-27 20:34:1.379	WT901BLE68-01(48591DE3C19B)	-0.625	-1.684	0.180	46.692	-45.471	-48.584	-79.41	22.54	-20.92	-65.072	-14.602	84.084	-0.75690	0.51788	-0.39490	-0.05328	30.6	13111	100
2025-3-27 20:34:1.407	WT901BLE68-01(48591DE3C19B)	-0.305	-1.684	0.180	46.692	-45.471	-48.584	-78.83	21.98	-20.59	-65.072	-14.602	84.084	-0.75690	0.51788	-0.39490	-0.05328	30.6	13111	100
2025-3-27 20:34:1.407	WT901BLE68-01(48591DE3C19B)	-0.305	-1.289	0.203	30.457	22.461	-26.611	-78.67	21.76	-20.94	-65.072	-14.602	84.084	-0.75690	0.51788	-0.39490	-0.05328	30.6	13111	100
2025-3-27 20:34:1.407	WT901BLE68-01(48591DE3C19B)	-0.244	-1.289	0.203	30.457	22.461	-26.611	-78.51	21.54	-21.29	-65.072	-14.602	84.084	-0.76938	0.58420	-0.25702	0.02426	30.6	13111	100
2025-3-27 20:34:1.407	WT901BLE68-01(48591DE3C19B)	-0.244	-1.028	0.307	33.081	89.661	-9.033	-78.57	21.62	-22.30	-65.072	-14.602	84.084	-0.76938	0.58420	-0.25702	0.02426	30.6	13111	100
2025-3-27 20:34:1.474	WT901BLE68-01(48591DE3C19B)	-0.395	-1.028	0.307	33.081	89.661	-9.033	-78.62	21.70	-23.31	-65.072	-14.602	84.084	-0.76938	0.58420	-0.25702	0.02426	30.6	13111	100
2025-3-27 20:34:1.474	WT901BLE68-01(48591DE3C19B)	-0.395	-0.648	0.386	29.907	89.661	6.592	-78.68	21.93	-24.28	-65.072	-14.602	84.084	-0.76938	0.58420	-0.25702	0.02426	30.6	13111	100
2025-3-27 20:34:1.474	WT901BLE68-01(48591DE3C19B)	-0.422	-0.648	0.386	29.907	89.661	6.592	-78.74	22.16	-25.24	-65.072	-14.602	84.084	-0.76938	0.58420	-0.25702	0.02426	30.6	13111	100
2025-3-27 20:34:1.474	WT901BLE68-01(48591DE3C19B)	-0.422	-0.432	0.405	1.526	31.555	5.676	-78.85	22.27	-25.59	-65.072	-14.602	84.084	-0.76938	0.58420	-0.25702	0.02426	30.6	13111	100
2025-3-27 20:34:1.498	WT901BLE68-01(48591DE3C19B)	-0.307	-0.432	0.405	1.526	31.555	5.676	-78.95	22.38	-25.93	-65.072	-14.602	84.084	-0.76938	0.58420	-0.25702	0.02426	30.6	13111	100
2025-3-27 20:34:1.498	WT901BLE68-01(48591DE3C19B)	-0.307	-0.360	0.331	-6.836	-8.789	16.052	-78.95	22.53	-25.82	-65.072	-14.602	84.084	-0.76938	0.58420	-0.25702	0.02426	30.6	13111	100
2025-3-27 20:34:1.498	WT901BLE68-01(48591DE3C19B)	-0.247	-0.360	0.331	-6.836	-8.789	16.052	-78.94	22.67	-25.71	-65.072	-14.602	84.084	-0.76938	0.58420	-0.25702	0.02426	30.6	13111	100
2025-3-27 20:34:1.498	WT901BLE68-01(48591DE3C19B)	-0.247	-0.192	0.186	-4.944	-4.822	35.645	-78.91	23.02	-25.60	-65.072	-14.602	84.084	-0.76938	0.58420	-0.25702	0.02426	30.6	13111	100
2025-3-27 20:34:1.527	WT901BLE68-01(48591DE3C19B)	-0.287	-0.192	0.186	-4.944	-4.822	35.645	-78.87	23.37	-25.49	-65.072	-14.602	84.084	-0.76938	0.58420	-0.25702	0.02426	30.6	13111	100
2025-3-27 20:34:1.527	WT901BLE68-01(48591DE3C19B)	-0.287	-0.079	0.090	-6.348	4.150	53.650	-78.87	23.92	-25.42	-65.072	-14.602	84.084	-0.76938	0.58420	-0.25702	0.02426	30.6	13111	100
2025-3-27 20:34:1.527	WT901BLE68-01(48591DE3C19B)	-0.301	-0.079	0.090	-6.348	4.150	53.650	-78.86	24.47	-25.36	-65.072	-14.602	84.084	-0.76938	0.58420	-0.25702	0.02426	30.6	13111	100
2025-3-27 20:34:1.527	WT901BLE68-01(48591DE3C19B)	-0.301	-0.126	0.065	-14.709	-4.028	72.815	-78.88	25.20	-25.15	-65.072	-14.602	84.084	-0.76938	0.58420	-0.25702	0.02426	30.6	13111	100
2025-3-27 20:34:1.619	WT901BLE68-01(48591DE3C19B)	-0.274	-0.126	0.065	-14.709	-4.028	72.815	-78.89	25.94	-24.94	-65.072	-14.602	84.084	-0.76938	0.58420	-0.25702	0.02426	30.6	13111	100
2025-3-27 20:34:1.619	WT901BLE68-01(48591DE3C19B)	-0.274	-0.296	0.101	-18.677	-9.766	80.933	-78.91	26.75	-24.64	-65.072	-14.602	84.084	-0.76938	0.58420	-0.25702	0.02426	30.6	13111	100
2025-3-27 20:34:1.619	WT901BLE68-01(48591DE3C19B)	-0.345	-0.296	0.101	-18.677	-9.766	80.933	-78.93	27.55	-24.35	-65.072	-14.602	84.084	-0.76938	0.58420	-0.25702	0.02426	30.6	13111	100
2025-3-27 20:34:1.619	WT901BLE68-01(48591DE3C19B)	-0.345	-0.484	0.077	-20.752	-15.747	74.951	-78.93	28.29	-23.99	-65.072	-14.602	84.084	-0.76938	0.58420	-0.25702	0.02426	30.6	13111	100
2025-3-27 20:34:1.620	WT901BLE68-01(48591DE3C19B)	-0.392	-0.484	0.077	-20.752	-15.747	74.951	-78.94	29.02	-23.64	-65.072	-14.602	84.084	-0.76938	0.58420	-0.25702	0.02426	30.6	13111	100
2025-3-27 20:34:1.620	WT901BLE68-01(48591DE3C19B)	-0.392	-0.768	0.042	-27.832	-25.330	48.279	-79.00	29.47	-23.24	-65.072	-14.602	84.084	-0.76938	0.58420	-0.25702	0.02426	30.6	13111	100
2025-3-27 20:34:1.620	WT901BLE68-01(48591DE3C19B)	-0.482	-0.768	0.042	-27.832	-25.330	48.279	-79.06	29.90	-22.84	-65.072	-14.602	84.084	-0.76938	0.58420	-0.25702	0.02426	30.6	13111	100
2025-3-27 20:34:1.620	WT901BLE68-01(48591DE3C19B)	-0.482	-1.393	0.088	-25.208	-31.067	-1.587	-79.13	29.83	-22.49	-65.072	-14.602	84.084	-0.76938	0.58420	-0.25702	0.02426	30.6	13111	100
2025-3-27 20:34:1.648	WT901BLE68-01(48591DE3C19B)	-0.560	-1.393	0.088	-25.208	-31.067	-1.587	-79.22	29.74	-22.16	-65.072	-14.602	84.084	-0.76938	0.58420	-0.25702	0.02426	30.6	13111	100
2025-3-27 20:34:1.648	WT901BLE68-01(48591DE3C19B)	-0.560	-2.120	0.043	-4.700	-23.865	-67.444	-79.22	29.01	-22.07	-65.072	-14.602	84.084	-0.76938	0.58420	-0.25702	0.02426	30.6	13111	100
2025-3-27 20:34:1.648	WT901BLE68-01(48591DE3C19B)	-0.851	-2.120	0.043	-4.700	-23.865	-67.444	-79.23	28.27	-21.99	-59.976	-18.620	84.966	-0.76938	0.58420	-0.25702	0.02426	30.6	13111	100
2025-3-27 20:34:1.648	WT901BLE68-01(48591DE3C19B)	-0.851	-2.157	0.102	29.236	-4.089	-91.003	-79.04	27.34	-22.18	-59.976	-18.620	84.966	-0.76938	0.58420	-0.25702	0.02426	30.6	13111	100
2025-3-27 20:34:1.799	WT901BLE68-01(48591DE3C19B)	-0.915	-2.157	0.102	29.236	-4.089	-91.003	-78.85	26.42	-22.37	-59.976	-18.620	84.966	-0.76938	0.58420	-0.25702	0.02426	30.6	13111	100
2025-3-27 20:34:1.799	WT901BLE68-01(48591DE3C19B)	-0.922	-1.339	0.235	29.785	57.617	-102.234	-78.96	25.52	-23.25	-59.976	-18.620	84.966	-0.76938	0.58420	-0.25702	0.02426	30.6	13111	100
2025-3-27 20:34:1.799	WT901BLE68-01(48591DE3C19B)	-0.922	-0.913	0.476	17.273	102.356	-81.055	-79.20	24.77	-24.33	-59.976	-18.620	84.966	-0.76938	0.58420	-0.25702	0.02426	30.6	13111	100
2025-3-27 20:34:1.799	WT901BLE68-01(48591DE3C19B)	-0.889	-0.913	0.476	17.273	102.356	-81.055	-79.57	24.18	-25.61	-59.976	-18.620	84.966	-0.76938	0.58420	-0.25702	0.02426	30.6	13111	100
2025-3-27 20:34:1.800	WT901BLE68-01(48591DE3C19B)	-0.889	-0.579	0.601	6.226	87.158	-62.866	-79.93	23.66	-26.76	-59.976	-18.620	84.966	-0.76938	0.58420	-0.25702	0.02426	30.6	13111	100
2025-3-27 20:34:1.800	WT901BLE68-01(48591DE3C19B)	-0.643	-0.579	0.601	6.226	87.158	-62.866	-80.27	23.24	-27.80	-59.976	-18.620	84.966	-0.76938	0.58420	-0.25702	0.02426	30.6	13111	100
2025-3-27 20:34:1.800	WT901BLE68-01(48591DE3C19B)	-0.643	-0.418	0.566	-29.968	10.132	-29.297	-80.60	22.92	-28.37	-59.976	-18.620	84.966	-0.76938	0.58420	-0.25702	0.02426	30.6	13111	100
2025-3-27 20:34:1.800	WT901BLE68-01(48591DE3C19B)	-0.294	-0.418	0.566	-29.968	10.132	-29.297	-80.91	22.71	-28.49	-59.976	-18.620	84.966	-0.76938	0.58420	-0.25702	0.02426	30.6	13111	100
2025-3-27 20:34:1.801	WT901BLE68-01(48591DE3C19B)	-0.294	-0.523	0.318	-54.688	-95.215	-8.972	-81.12	22.53	-28.03	-59.976	-18.620	84.966	-0.76938	0.58420	-0.25702	0.02426	30.6	13111	100
2025-3-27 20:34:1.801	WT901BLE68-01(48591DE3C19B)	-0.129	-0.523	0.318	-54.688	-95.215	-8.972	-81.22	22.36	-26.99	-59.976	-18.620	84.966	-0.76938	0.58420	-0.25702	0.02426	30.6	13111	100
2025-3-27 20:34:1.801	WT901BLE68-01(48591DE3C19B)	-0.129	-0.550	0.206	-50.354	-149.292	14.526	-81.19	22.27	-25.66	-59.976	-18.620	84.966	-0.76938	0.58420	-0.25702	0.02426	30.6	13111	100
2025-3-27 20:34:1.801	WT901BLE68-01(48591DE3C19B)	-0.117	-0.550	0.206	-50.354	-149.292	14.526	-81.01	22.24	-24.02	-59.976	-18.620	84.966	-0.76938	0.58420	-0.25702	0.02426	30.6	13111	100
2025-3-27 20:34:1.830	WT901BLE68-01(48591DE3C19B)	-0.117	-0.370	0.188	-32.410	-132.324	36.499	-80.78	22.32	-22.47	-59.976	-18.620	84.966	-0.76938	0.58420	-0.25702	0.02426	30.6	13111	100
2025-3-27 20:34:1.830	WT901BLE68-01(48591DE3C19B)	-0.220	-0.370	0.188	-32.410	-132.324	36.499	-80.47	22.51	-21.00	-59.976	-18.620	84.966	-0.76938	0.58420	-0.25702	0.02426	30.6	13111	100
2025-3-27 20:34:1.830	WT901BLE68-01(48591DE3C19B)	-0.220	-0.131	0.128	-20.020	-65.247	56.763	-80.23	22.85	-19.87	-59.976	-18.620	84.966	-0.76938	0.58420	-0.25702	0.02426	30.6	13111	100
2025-3-27 20:34:1.830	WT901BLE68-01(48591DE3C19B)	-0.144	-0.131	0.128	-20.020	-65.247	56.763	-80.04	23.34	-19.07	-59.976	-18.620	84.966	-0.76938	0.58420	-0.25702	0.02426	30.6	13111	100
2025-3-27 20:34:1.860	WT901BLE68-01(48591DE3C19B)	-0.144	-0.102	0.114	-19.531	-4.639	64.209	-79.97	23.92	-18.58	-59.976	-18.620	84.966	-0.76120	0.59473	-0.25818	-0.01038	30.6	13111	100
2025-3-27 20:34:1.860	WT901BLE68-01(48591DE3C19B)	-0.166	-0.102	0.114	-19.531	-4.639	64.209	-80.02	24.59	-18.41	-59.976	-18.620	84.966	-0.76120	0.59473	-0.25818	-0.01038	30.6	13111	100
2025-3-27 20:34:1.860	WT901BLE68-01(48591DE3C19B)	-0.166	-0.271	0.092	-20.996	26.855	61.829	-80.14	25.26	-18.40	-59.976	-18.620	84.966	-0.76120	0.59473	-0.25818	-0.01038	30.6	13111	100
2025-3-27 20:34:1.860	WT901BLE68-01(48591DE3C19B)	-0.360	-0.271	0.092	-20.996	26.855	61.829	-80.35	25.96	-18.57	-59.976	-18.620	84.966	-0.76120	0.59473	-0.25818	-0.01038	30.6	13111	100
2025-3-27 20:34:1.918	WT901BLE68-01(48591DE3C19B)	-0.360	-0.564	0.094	-25.635	16.052	47.974	-80.57	26.56	-18.69	-59.976	-18.620	84.966	-0.76120	0.59473	-0.25818	-0.01038	30.6	13111	100
2025-3-27 20:34:1.918	WT901BLE68-01(48591DE3C19B)	-0.498	-0.564	0.094	-25.635	16.052	47.974	-80.79	27.10	-18.77	-59.976	-18.620	84.966	-0.76120	0.59473	-0.25818	-0.01038	30.6	13111	100
2025-3-27 20:34:1.919	WT901BLE68-01(48591DE3C19B)	-0.498	-1.032	0.098	-33.569	-24.658	30.884	-80.97	27.50	-18.64	-59.976	-18.620	84.966	-0.76120	0.59473	-0.25818	-0.01038	30.6	13111	100
2025-3-27 20:34:1.919	WT901BLE68-01(48591DE3C19B)	-0.599	-1.032	0.098	-33.569	-24.658	30.884	-81.11	27.79	-18.31	-59.976	-18.620	84.966	-0.76120	0.59473	-0.25818	-0.01038	30.6	13111	100
2025-3-27 20:34:1.947	WT901BLE68-01(48591DE3C19B)	-0.599	-1.941	0.005	-34.851	-59.875	4.089	-81.18	27.91	-17.81	-59.976	-18.620	84.966	-0.76120	0.59473	-0.25818	-0.01038	30.6	13111	100
2025-3-27 20:34:1.947	WT901BLE68-01(48591DE3C19B)	-0.656	-1.941	0.005	-34.851	-59.875	4.089	-81.19	27.85	-17.16	-59.976	-18.620	84.966	-0.76120	0.59473	-0.25818	-0.01038	30.6	13111	100
2025-3-27 20:34:1.947	WT901BLE68-01(48591DE3C19B)	-0.656	-2.809	-0.035	2.930	-88.623	-27.161	-80.99	27.60	-16.39	-59.976	-18.620	84.966	-0.76120	0.59473	-0.25818	-0.01038	30.6	13111	100
2025-3-27 20:34:1.947	WT901BLE68-01(48591DE3C19B)	-0.683	-2.809	-0.035	2.930	-88.623	-27.161	-80.55	27.16	-15.51	-59.976	-18.620	84.966	-0.76120	0.59473	-0.25818	-0.01038	30.6	13111	100
2025-3-27 20:34:1.980	WT901BLE68-01(48591DE3C19B)	-0.683	-2.278	0.081	47.058	-111.389	-31.250	-79.85	26.66	-14.53	-59.976	-18.620	84.966	-0.76120	0.59473	-0.25818	-0.01038	30.6	13111	100
2025-3-27 20:34:1.980	WT901BLE68-01(48591DE3C19B)	-0.438	-2.278	0.081	47.058	-111.389	-31.250	-78.91	26.11	-13.44	-59.976	-18.620	84.966	-0.76120	0.59473	-0.25818	-0.01038	30.6	13111	100
2025-3-27 20:34:1.980	WT901BLE68-01(48591DE3C19B)	-0.438	-1.775	0.011	34.058	-97.900	-27.405	-78.09	25.59	-12.45	-59.976	-18.620	84.966	-0.76120	0.59473	-0.25818	-0.01038	30.6	13111	100
2025-3-27 20:34:1.981	WT901BLE68-01(48591DE3C19B)	-0.152	-1.775	0.011	34.058	-97.900	-27.405	-77.39	25.08	-11.54	-59.976	-18.620	84.966	-0.76120	0.59473	-0.25818	-0.01038	30.6	13111	100
2025-3-27 20:34:2.38	WT901BLE68-01(48591DE3C19B)	-0.152	-1.361	0.101	43.579	-42.725	-9.521	-76.77	24.70	-10.92	-59.976	-18.620	84.966	-0.76120	0.59473	-0.25818	-0.01038	30.6	13111	100
2025-3-27 20:34:2.39	WT901BLE68-01(48591DE3C19B)	-0.013	-1.361	0.101	43.579	-42.725	-9.521	-76.22	24.47	-10.59	-50.078	-26.362	83.790	-0.76120	0.59473	-0.25818	-0.01038	30.6	13111	100
2025-3-27 20:34:2.39	WT901BLE68-01(48591DE3C19B)	-0.013	-0.857	0.197	42.297	14.282	12.878	-75.79	24.41	-10.52	-50.078	-26.362	83.790	-0.76120	0.59473	-0.25818	-0.01038	30.6	13111	100
2025-3-27 20:34:2.39	WT901BLE68-01(48591DE3C19B)	-0.034	-0.857	0.197	42.297	14.282	12.878	-75.49	24.53	-10.74	-50.078	-26.362	83.790	-0.76120	0.59473	-0.25818	-0.01038	30.6	13111	100
2025-3-27 20:34:2.74	WT901BLE68-01(48591DE3C19B)	-0.034	-0.568	0.226	27.466	39.185	22.400	-75.31	24.71	-11.08	-50.078	-26.362	83.790	-0.76120	0.59473	-0.25818	-0.01038	30.6	13111	100
2025-3-27 20:34:2.74	WT901BLE68-01(48591DE3C19B)	-0.102	-0.568	0.226	27.466	39.185	22.400	-75.26	24.97	-11.53	-50.078	-26.362	83.790	-0.76120	0.59473	-0.25818	-0.01038	30.6	13111	100
2025-3-27 20:34:2.74	WT901BLE68-01(48591DE3C19B)	-0.102	-0.534	0.211	15.625	29.236	13.855	-75.23	25.16	-11.94	-50.078	-26.362	83.790	-0.76120	0.59473	-0.25818	-0.01038	30.6	13111	100
2025-3-27 20:34:2.74	WT901BLE68-01(48591DE3C19B)	-0.161	-0.534	0.211	15.625	29.236	13.855	-75.25	25.31	-12.31	-50.078	-26.362	83.790	-0.76120	0.59473	-0.25818	-0.01038	30.6	13111	100
2025-3-27 20:34:2.97	WT901BLE68-01(48591DE3C19B)	-0.161	-0.494	0.196	23.560	22.278	16.479	-75.21	25.45	-12.63	-50.078	-26.362	83.790	-0.76120	0.59473	-0.25818	-0.01038	30.6	13111	100
2025-3-27 20:34:2.98	WT901BLE68-01(48591DE3C19B)	-0.223	-0.494	0.196	23.560	22.278	16.479	-75.11	25.60	-12.91	-50.078	-26.362	83.790	-0.76120	0.59473	-0.25818	-0.01038	30.6	13111	100
2025-3-27 20:34:2.98	WT901BLE68-01(48591DE3C19B)	-0.223	-0.365	0.175	34.424	38.574	18.433	-74.98	25.78	-13.28	-50.078	-26.362	83.790	-0.76120	0.59473	-0.25818	-0.01038	30.6	13111	100
2025-3-27 20:34:2.98	WT901BLE68-01(48591DE3C19B)	-0.276	-0.365	0.175	34.424	38.574	18.433	-74.83	25.99	-13.72	-50.078	-26.362	83.790	-0.76120	0.59473	-0.25818	-0.01038	30.6	13111	100
2025-3-27 20:34:2.158	WT901BLE68-01(48591DE3C19B)	-0.276	-0.302	0.170	43.518	59.814	26.489	-74.69	26.27	-14.26	-50.078	-26.362	83.790	-0.76120	0.59473	-0.25818	-0.01038	30.6	13111	100
2025-3-27 20:34:2.158	WT901BLE68-01(48591DE3C19B)	-0.309	-0.302	0.170	43.518	59.814	26.489	-74.53	26.63	-14.89	-50.078	-26.362	83.790	-0.76120	0.59473	-0.25818	-0.01038	30.6	13111	100
2025-3-27 20:34:2.158	WT901BLE68-01(48591DE3C19B)	-0.309	-0.299	0.180	51.941	69.214	37.537	-74.36	27.06	-15.55	-50.078	-26.362	83.790	-0.76120	0.59473	-0.25818	-0.01038	30.6	13111	100
2025-3-27 20:34:2.158	WT901BLE68-01(48591DE3C19B)	-0.314	-0.299	0.180	51.941	69.214	37.537	-74.15	27.56	-16.23	-50.078	-26.362	83.790	-0.76120	0.59473	-0.25818	-0.01038	30.6	13111	100
2025-3-27 20:34:2.190	WT901BLE68-01(48591DE3C19B)	-0.314	-0.326	0.185	53.894	68.542	45.410	-73.91	28.14	-16.88	-50.078	-26.362	83.790	-0.76120	0.59473	-0.25818	-0.01038	30.6	13111	100
2025-3-27 20:34:2.191	WT901BLE68-01(48591DE3C19B)	-0.390	-0.326	0.185	53.894	68.542	45.410	-73.66	28.73	-17.51	-50.078	-26.362	83.790	-0.76120	0.59473	-0.25818	-0.01038	30.6	13111	100
2025-3-27 20:34:2.191	WT901BLE68-01(48591DE3C19B)	-0.390	-0.439	0.131	46.021	55.725	43.213	-73.44	29.27	-18.01	-50.078	-26.362	83.790	-0.76120	0.59473	-0.25818	-0.01038	30.6	13111	100
2025-3-27 20:34:2.191	WT901BLE68-01(48591DE3C19B)	-0.459	-0.439	0.131	46.021	55.725	43.213	-73.22	29.81	-18.49	-50.078	-26.362	83.790	-0.76120	0.59473	-0.25818	-0.01038	30.6	13111	100
2025-3-27 20:34:2.220	WT901BLE68-01(48591DE3C19B)	-0.459	-0.646	0.006	25.391	28.687	33.264	-73.09	30.19	-18.70	-50.078	-26.362	83.790	-0.76120	0.59473	-0.25818	-0.01038	30.6	13111	100
2025-3-27 20:34:2.220	WT901BLE68-01(48591DE3C19B)	-0.472	-0.646	0.006	25.391	28.687	33.264	-72.97	30.57	-18.91	-50.078	-26.362	83.790	-0.76120	0.59473	-0.25818	-0.01038	30.6	13111	100
2025-3-27 20:34:2.220	WT901BLE68-01(48591DE3C19B)	-0.472	-1.036	-0.024	3.845	3.662	10.315	-72.97	30.66	-18.93	-50.078	-26.362	83.790	-0.79059	0.53058	-0.30429	-0.02774	30.6	13111	100
2025-3-27 20:34:2.220	WT901BLE68-01(48591DE3C19B)	-0.590	-1.036	-0.024	3.845	3.662	10.315	-72.98	30.75	-18.95	-50.078	-26.362	83.790	-0.79059	0.53058	-0.30429	-0.02774	30.6	13111	100
2025-3-27 20:34:2.278	WT901BLE68-01(48591DE3C19B)	-0.590	-1.474	0.042	8.911	-12.268	-21.851	-72.92	30.48	-18.90	-50.078	-26.362	83.790	-0.79059	0.53058	-0.30429	-0.02774	30.6	13111	100
2025-3-27 20:34:2.278	WT901BLE68-01(48591DE3C19B)	-0.780	-1.474	0.042	8.911	-12.268	-21.851	-72.87	30.21	-18.87	-50.078	-26.362	83.790	-0.79059	0.53058	-0.30429	-0.02774	30.6	13111	100
2025-3-27 20:34:2.278	WT901BLE68-01(48591DE3C19B)	-0.780	-1.865	0.288	8.301	-32.715	-57.861	-72.77	29.53	-18.73	-50.078	-26.362	83.790	-0.79059	0.53058	-0.30429	-0.02774	30.6	13111	100
2025-3-27 20:34:2.278	WT901BLE68-01(48591DE3C19B)	-0.970	-1.865	0.288	8.301	-32.715	-57.861	-72.67	28.86	-18.60	-50.078	-26.362	83.790	-0.79059	0.53058	-0.30429	-0.02774	30.6	13111	100
2025-3-27 20:34:2.307	WT901BLE68-01(48591DE3C19B)	-0.970	-2.098	0.551	16.357	-42.236	-82.458	-72.48	27.92	-18.45	-50.078	-26.362	83.790	-0.79059	0.53058	-0.30429	-0.02774	30.6	13111	100
2025-3-27 20:34:2.307	WT901BLE68-01(48591DE3C19B)	-0.853	-2.098	0.551	16.357	-42.236	-82.458	-72.29	26.99	-18.30	-50.078	-26.362	83.790	-0.79059	0.53058	-0.30429	-0.02774	30.6	13111	100
2025-3-27 20:34:2.308	WT901BLE68-01(48591DE3C19B)	-0.853	-1.524	0.646	30.396	3.296	-76.660	-72.16	26.26	-18.62	-50.078	-26.362	83.790	-0.79059	0.53058	-0.30429	-0.02774	30.6	13111	100
2025-3-27 20:34:2.308	WT901BLE68-01(48591DE3C19B)	-0.762	-1.524	0.646	30.396	3.296	-76.660	-72.02	25.54	-18.93	-50.078	-26.362	83.790	-0.79059	0.53058	-0.30429	-0.02774	30.6	13111	100
2025-3-27 20:34:2.338	WT901BLE68-01(48591DE3C19B)	-0.762	-0.970	0.594	35.950	65.613	-60.425	-72.06	25.17	-19.84	-50.078	-26.362	83.790	-0.79059	0.53058	-0.30429	-0.02774	30.6	13111	100
2025-3-27 20:34:2.338	WT901BLE68-01(48591DE3C19B)	-0.654	-0.970	0.594	35.950	65.613	-60.425	-72.10	24.81	-20.73	-50.078	-26.362	83.790	-0.79059	0.53058	-0.30429	-0.02774	30.6	13111	100
2025-3-27 20:34:2.338	WT901BLE68-01(48591DE3C19B)	-0.654	-0.570	0.452	28.992	80.322	-43.518	-72.23	24.65	-21.70	-50.078	-26.362	83.790	-0.79059	0.53058	-0.30429	-0.02774	30.6	13111	100
2025-3-27 20:34:2.339	WT901BLE68-01(48591DE3C19B)	-0.519	-0.570	0.452	28.992	80.322	-43.518	-72.35	24.51	-22.66	-50.078	-26.362	83.790	-0.79059	0.53058	-0.30429	-0.02774	30.6	13111	100
2025-3-27 20:34:2.400	WT901BLE68-01(48591DE3C19B)	-0.519	-0.401	0.319	-0.061	36.133	-27.649	-72.54	24.39	-23.09	-50.078	-26.362	83.790	-0.79059	0.53058	-0.30429	-0.02774	30.6	13111	100
2025-3-27 20:34:2.400	WT901BLE68-01(48591DE3C19B)	-0.358	-0.401	0.319	-0.061	36.133	-27.649	-72.72	24.27	-23.52	-50.078	-26.362	83.790	-0.79059	0.53058	-0.30429	-0.02774	30.6	13111	100
2025-3-27 20:34:2.401	WT901BLE68-01(48591DE3C19B)	-0.358	-0.536	0.214	-24.353	-29.236	-21.973	-72.85	24.02	-23.24	-50.078	-26.362	83.790	-0.79059	0.53058	-0.30429	-0.02774	30.6	13111	100
2025-3-27 20:34:2.401	WT901BLE68-01(48591DE3C19B)	-0.273	-0.536	0.214	-24.353	-29.236	-21.973	-72.98	23.76	-22.97	-50.078	-26.362	83.790	-0.79059	0.53058	-0.30429	-0.02774	30.6	13111	100
2025-3-27 20:34:2.430	WT901BLE68-01(48591DE3C19B)	-0.273	-0.613	0.167	-27.710	-54.077	-11.475	-73.03	23.54	-22.40	-50.078	-26.362	83.790	-0.79059	0.53058	-0.30429	-0.02774	30.6	13111	100
2025-3-27 20:34:2.430	WT901BLE68-01(48591DE3C19B)	-0.417	-0.613	0.167	-27.710	-54.077	-11.475	-73.09	23.31	-21.84	-50.078	-26.362	83.790	-0.79059	0.53058	-0.30429	-0.02774	30.6	13111	100
2025-3-27 20:34:2.430	WT901BLE68-01(48591DE3C19B)	-0.417	-0.599	0.197	-19.592	-41.687	3.540	-73.09	23.27	-21.37	-50.078	-26.362	83.790	-0.79059	0.53058	-0.30429	-0.02774	30.6	13111	100
2025-3-27 20:34:2.430	WT901BLE68-01(48591DE3C19B)	-0.487	-0.599	0.197	-19.592	-41.687	3.540	-73.10	23.23	-20.89	-52.430	-27.636	79.282	-0.79059	0.53058	-0.30429	-0.02774	30.6	13111	100
2025-3-27 20:34:2.460	WT901BLE68-01(48591DE3C19B)	-0.487	-0.548	0.173	-16.541	-13.672	4.822	-73.19	23.28	-20.70	-52.430	-27.636	79.282	-0.79059	0.53058	-0.30429	-0.02774	30.6	13111	100
2025-3-27 20:34:2.460	WT901BLE68-01(48591DE3C19B)	-0.474	-0.548	0.173	-16.541	-13.672	4.822	-73.28	23.34	-20.51	-52.430	-27.636	79.282	-0.79059	0.53058	-0.30429	-0.02774	30.6	13111	100
2025-3-27 20:34:2.460	WT901BLE68-01(48591DE3C19B)	-0.474	-0.526	0.152	-10.193	17.578	7.324	-73.44	23.52	-20.63	-52.430	-27.636	79.282	-0.79059	0.53058	-0.30429	-0.02774	30.6	13111	100
2025-3-27 20:34:2.460	WT901BLE68-01(48591DE3C19B)	-0.554	-0.526	0.152	-10.193	17.578	7.324	-73.60	23.70	-20.75	-52.430	-27.636	79.282	-0.79059	0.53058	-0.30429	-0.02774	30.6	13111	100
2025-3-27 20:34:2.548	WT901BLE68-01(48591DE3C19B)	-0.554	-0.496	0.154	-5.310	29.541	7.507	-73.76	23.91	-20.98	-52.430	-27.636	79.282	-0.79059	0.53058	-0.30429	-0.02774	30.6	13111	100
2025-3-27 20:34:2.549	WT901BLE68-01(48591DE3C19B)	-0.580	-0.496	0.154	-5.310	29.541	7.507	-73.92	24.14	-21.21	-52.430	-27.636	79.282	-0.79059	0.53058	-0.30429	-0.02774	30.6	13111	100
2025-3-27 20:34:2.549	WT901BLE68-01(48591DE3C19B)	-0.580	-0.455	0.182	-8.118	10.132	9.460	-74.03	24.33	-21.22	-52.430	-27.636	79.282	-0.79059	0.53058	-0.30429	-0.02774	30.6	13111	100
2025-3-27 20:34:2.549	WT901BLE68-01(48591DE3C19B)	-0.520	-0.455	0.182	-8.118	10.132	9.460	-74.13	24.53	-21.22	-52.430	-27.636	79.282	-0.79059	0.53058	-0.30429	-0.02774	30.6	13111	100
2025-3-27 20:34:2.550	WT901BLE68-01(48591DE3C19B)	-0.520	-0.409	0.221	-14.282	-14.832	17.639	-74.18	24.74	-20.93	-52.430	-27.636	79.282	-0.79059	0.53058	-0.30429	-0.02774	30.6	13111	100
2025-3-27 20:34:2.550	WT901BLE68-01(48591DE3C19B)	-0.476	-0.409	0.221	-14.282	-14.832	17.639	-74.22	24.96	-20.63	-52.430	-27.636	79.282	-0.79059	0.53058	-0.30429	-0.02774	30.6	13111	100
2025-3-27 20:34:2.550	WT901BLE68-01(48591DE3C19B)	-0.476	-0.376	0.224	-22.583	-27.649	33.691	-74.27	25.30	-20.14	-52.430	-27.636	79.282	-0.79059	0.53058	-0.30429	-0.02774	30.6	13111	100
2025-3-27 20:34:2.550	WT901BLE68-01(48591DE3C19B)	-0.490	-0.376	0.224	-22.583	-27.649	33.691	-74.31	25.65	-19.64	-52.430	-27.636	79.282	-0.79059	0.53058	-0.30429	-0.02774	30.6	13111	100
2025-3-27 20:34:2.579	WT901BLE68-01(48591DE3C19B)	-0.490	-0.424	0.201	-38.879	-45.959	49.744	-74.40	26.10	-18.90	-52.430	-27.636	79.282	-0.79059	0.53058	-0.30429	-0.02774	30.6	13111	100
2025-3-27 20:34:2.579	WT901BLE68-01(48591DE3C19B)	-0.489	-0.424	0.201	-38.879	-45.959	49.744	-74.48	26.55	-18.16	-52.430	-27.636	79.282	-0.79059	0.53058	-0.30429	-0.02774	30.6	13111	100
2025-3-27 20:34:2.579	WT901BLE68-01(48591DE3C19B)	-0.489	-0.615	0.186	-59.204	-74.768	56.824	-74.62	26.99	-17.08	-52.430	-27.636	79.282	-0.79059	0.53058	-0.30429	-0.02774	30.6	13111	100
2025-3-27 20:34:2.579	WT901BLE68-01(48591DE3C19B)	-0.498	-0.615	0.186	-59.204	-74.768	56.824	-74.74	27.42	-16.01	-52.430	-27.636	79.282	-0.79059	0.53058	-0.30429	-0.02774	30.6	13111	100
2025-3-27 20:34:2.638	WT901BLE68-01(48591DE3C19B)	-0.577	-0.922	0.189	-74.097	-99.060	50.781	-74.90	27.73	-14.71	-52.430	-27.636	79.282	-0.79059	0.53058	-0.30429	-0.02774	30.6	13111	100
2025-3-27 20:34:2.638	WT901BLE68-01(48591DE3C19B)	-0.577	-1.558	0.258	-76.599	-109.009	39.124	-75.04	27.95	-13.38	-52.430	-27.636	79.282	-0.79059	0.53058	-0.30429	-0.02774	30.6	13111	100
2025-3-27 20:34:2.638	WT901BLE68-01(48591DE3C19B)	-0.660	-1.558	0.258	-76.599	-109.009	39.124	-75.18	28.09	-12.05	-52.430	-27.636	79.282	-0.79059	0.53058	-0.30429	-0.02774	30.6	13111	100
2025-3-27 20:34:2.639	WT901BLE68-01(48591DE3C19B)	-0.660	-2.302	0.196	-59.387	-108.459	21.057	-75.26	28.13	-10.78	-52.430	-27.636	79.282	-0.79059	0.53058	-0.30429	-0.02774	30.6	13111	100
2025-3-27 20:34:2.673	WT901BLE68-01(48591DE3C19B)	-0.607	-2.302	0.196	-59.387	-108.459	21.057	-75.28	28.06	-9.56	-52.430	-27.636	79.282	-0.79059	0.53058	-0.30429	-0.02774	30.6	13111	100
2025-3-27 20:34:2.673	WT901BLE68-01(48591DE3C19B)	-0.607	-2.439	0.129	-21.057	-89.966	18.311	-75.17	27.99	-8.48	-52.430	-27.636	79.282	-0.79059	0.53058	-0.30429	-0.02774	30.6	13111	100
2025-3-27 20:34:2.673	WT901BLE68-01(48591DE3C19B)	-0.539	-2.439	0.129	-21.057	-89.966	18.311	-74.93	27.91	-7.51	-52.430	-27.636	79.282	-0.79059	0.53058	-0.30429	-0.02774	30.6	13111	100
2025-3-27 20:34:2.673	WT901BLE68-01(48591DE3C19B)	-0.539	-1.816	0.229	-3.479	-29.907	17.273	-74.77	27.89	-6.90	-52.430	-27.636	79.282	-0.77850	0.57663	-0.22665	-0.09964	30.6	13111	100
2025-3-27 20:34:2.698	WT901BLE68-01(48591DE3C19B)	-0.519	-1.816	0.229	-3.479	-29.907	17.273	-74.67	27.95	-6.62	-52.430	-27.636	79.282	-0.77850	0.57663	-0.22665	-0.09964	30.6	13111	100
2025-3-27 20:34:2.698	WT901BLE68-01(48591DE3C19B)	-0.519	-1.633	0.229	-3.540	20.264	24.658	-74.71	28.11	-6.61	-52.430	-27.636	79.282	-0.77850	0.57663	-0.22665	-0.09964	30.6	13111	100
2025-3-27 20:34:2.698	WT901BLE68-01(48591DE3C19B)	-0.409	-1.633	0.229	-3.540	20.264	24.658	-74.86	28.36	-6.86	-52.430	-27.636	79.282	-0.77850	0.57663	-0.22665	-0.09964	30.6	13111	100
2025-3-27 20:34:2.698	WT901BLE68-01(48591DE3C19B)	-0.409	-1.261	0.274	0.732	46.082	35.034	-75.06	28.69	-7.25	-52.430	-27.636	79.282	-0.77850	0.57663	-0.22665	-0.09964	30.6	13111	100
2025-3-27 20:34:2.758	WT901BLE68-01(48591DE3C19B)	-0.381	-1.261	0.274	0.732	46.082	35.034	-75.29	29.10	-7.76	-52.430	-27.636	79.282	-0.77850	0.57663	-0.22665	-0.09964	30.6	13111	100
2025-3-27 20:34:2.758	WT901BLE68-01(48591DE3C19B)	-0.381	-0.927	0.283	-9.338	39.307	44.922	-75.55	29.54	-8.22	-52.430	-27.636	79.282	-0.77850	0.57663	-0.22665	-0.09964	30.6	13111	100
2025-3-27 20:34:2.758	WT901BLE68-01(48591DE3C19B)	-0.442	-0.927	0.283	-9.338	39.307	44.922	-75.84	30.02	-8.64	-52.430	-27.636	79.282	-0.77850	0.57663	-0.22665	-0.09964	30.6	13111	100
2025-3-27 20:34:2.758	WT901BLE68-01(48591DE3C19B)	-0.442	-0.837	0.256	-27.771	5.432	41.443	-76.12	30.44	-8.87	-52.430	-27.636	79.282	-0.77850	0.57663	-0.22665	-0.09964	30.6	13111	100
2025-3-27 20:34:2.818	WT901BLE68-01(48591DE3C19B)	-0.446	-0.837	0.256	-27.771	5.432	41.443	-76.40	30.79	-8.92	-52.430	-27.636	79.282	-0.77850	0.57663	-0.22665	-0.09964	30.6	13111	100
2025-3-27 20:34:2.819	WT901BLE68-01(48591DE3C19B)	-0.446	-0.862	0.192	-37.170	-23.682	40.588	-76.65	31.11	-8.80	-52.430	-27.636	79.282	-0.77850	0.57663	-0.22665	-0.09964	30.6	13111	100
2025-3-27 20:34:2.819	WT901BLE68-01(48591DE3C19B)	-0.453	-0.862	0.192	-37.170	-23.682	40.588	-76.84	31.40	-8.53	-52.430	-27.636	79.282	-0.77850	0.57663	-0.22665	-0.09964	30.6	13111	100
2025-3-27 20:34:2.819	WT901BLE68-01(48591DE3C19B)	-0.453	-0.772	0.133	-35.706	-34.973	41.870	-77.00	31.68	-8.18	-52.430	-27.636	79.282	-0.77850	0.57663	-0.22665	-0.09964	30.6	13111	100
2025-3-27 20:34:2.820	WT901BLE68-01(48591DE3C19B)	-0.462	-0.772	0.133	-35.706	-34.973	41.870	-77.11	31.95	-7.77	-52.430	-27.636	79.282	-0.77850	0.57663	-0.22665	-0.09964	30.6	13111	100
2025-3-27 20:34:2.820	WT901BLE68-01(48591DE3C19B)	-0.462	-0.642	0.115	-37.170	-44.495	42.114	-77.19	32.22	-7.30	-52.430	-27.636	79.282	-0.77850	0.57663	-0.22665	-0.09964	30.6	13111	100
2025-3-27 20:34:2.820	WT901BLE68-01(48591DE3C19B)	-0.404	-0.642	0.115	-37.170	-44.495	42.114	-77.24	32.49	-6.77	-49.784	-44.884	64.190	-0.77850	0.57663	-0.22665	-0.09964	30.6	13111	100
2025-3-27 20:34:2.820	WT901BLE68-01(48591DE3C19B)	-0.404	-0.586	0.120	-41.321	-51.147	41.748	-77.30	32.74	-6.21	-49.784	-44.884	64.190	-0.77850	0.57663	-0.22665	-0.09964	30.6	13111	100
2025-3-27 20:34:2.878	WT901BLE68-01(48591DE3C19B)	-0.352	-0.586	0.120	-41.321	-51.147	41.748	-77.35	33.00	-5.60	-49.784	-44.884	64.190	-0.77850	0.57663	-0.22665	-0.09964	30.6	13111	100
2025-3-27 20:34:2.878	WT901BLE68-01(48591DE3C19B)	-0.352	-0.584	0.132	-40.588	-50.598	39.124	-77.39	33.24	-5.00	-49.784	-44.884	64.190	-0.77850	0.57663	-0.22665	-0.09964	30.6	13111	100
2025-3-27 20:34:2.878	WT901BLE68-01(48591DE3C19B)	-0.356	-0.584	0.132	-40.588	-50.598	39.124	-77.44	33.47	-4.41	-49.784	-44.884	64.190	-0.77850	0.57663	-0.22665	-0.09964	30.6	13111	100
2025-3-27 20:34:2.878	WT901BLE68-01(48591DE3C19B)	-0.356	-0.566	0.141	-37.903	-52.185	33.691	-77.46	33.67	-3.81	-49.784	-44.884	64.190	-0.77850	0.57663	-0.22665	-0.09964	30.6	13111	100
2025-3-27 20:34:2.907	WT901BLE68-01(48591DE3C19B)	-0.349	-0.566	0.141	-37.903	-52.185	33.691	-77.46	33.85	-3.22	-49.784	-44.884	64.190	-0.77850	0.57663	-0.22665	-0.09964	30.6	13111	100
2025-3-27 20:34:2.908	WT901BLE68-01(48591DE3C19B)	-0.349	-0.566	0.143	-36.743	-56.885	27.771	-77.44	33.99	-2.60	-49.784	-44.884	64.190	-0.77850	0.57663	-0.22665	-0.09964	30.6	13111	100
2025-3-27 20:34:2.908	WT901BLE68-01(48591DE3C19B)	-0.345	-0.566	0.143	-36.743	-56.885	27.771	-77.41	34.10	-1.97	-49.784	-44.884	64.190	-0.77850	0.57663	-0.22665	-0.09964	30.6	13111	100
2025-3-27 20:34:2.908	WT901BLE68-01(48591DE3C19B)	-0.345	-0.659	0.145	-35.034	-58.777	22.949	-77.36	34.18	-1.33	-49.784	-44.884	64.190	-0.77850	0.57663	-0.22665	-0.09964	30.6	13111	100
