time	DeviceName	AccX(g)	AccY(g)	AccZ(g)	AsX(°/s)	AsY(°/s)	AsZ(°/s)	AngleX(°)	AngleY(°)	AngleZ(°)	HX(uT)	HY(uT)	HZ(uT)	Q0()	Q1()	Q2()	Q3()	Temperature(°C)	Version()	Battery level(%)
2025-3-27 20:32:14.641	WT901BLE68-01(48591DE3C19B)	-0.382	-0.906	0.161	0.305	5.005	-1.404	-80.92	24.23	-86.73	-66.444	-37.142	-1.666	-0.64255	0.36420	-0.54269	0.39987	30.6	13111	100
2025-3-27 20:32:14.641	WT901BLE68-01(48591DE3C19B)	-0.386	-0.906	0.161	0.305	5.005	-1.404	-80.94	24.21	-86.86	-66.444	-37.142	-1.666	-0.64255	0.36420	-0.54269	0.39987	30.6	13111	100
2025-3-27 20:32:14.641	WT901BLE68-01(48591DE3C19B)	-0.386	-0.899	0.162	-0.366	5.371	-1.648	-80.95	24.20	-87.00	-66.444	-37.142	-1.666	-0.64255	0.36420	-0.54269	0.39987	30.6	13111	100
2025-3-27 20:32:14.641	WT901BLE68-01(48591DE3C19B)	-0.391	-0.899	0.162	-0.366	5.371	-1.648	-80.97	24.18	-87.13	-66.444	-37.142	-1.666	-0.64255	0.36420	-0.54269	0.39987	30.6	13111	100
2025-3-27 20:32:14.667	WT901BLE68-01(48591DE3C19B)	-0.391	-0.898	0.165	-1.282	4.456	-1.831	-81.00	24.16	-87.26	-66.444	-37.142	-1.666	-0.64255	0.36420	-0.54269	0.39987	30.6	13111	100
2025-3-27 20:32:14.667	WT901BLE68-01(48591DE3C19B)	-0.391	-0.898	0.165	-1.282	4.456	-1.831	-81.03	24.14	-87.40	-66.444	-37.142	-1.666	-0.64255	0.36420	-0.54269	0.39987	30.6	13111	100
2025-3-27 20:32:14.667	WT901BLE68-01(48591DE3C19B)	-0.391	-0.896	0.169	-1.831	3.479	-2.197	-81.06	24.12	-87.52	-66.444	-37.142	-1.666	-0.64255	0.36420	-0.54269	0.39987	30.6	13111	100
2025-3-27 20:32:14.667	WT901BLE68-01(48591DE3C19B)	-0.391	-0.896	0.169	-1.831	3.479	-2.197	-81.08	24.09	-87.63	-66.444	-37.142	-1.666	-0.64255	0.36420	-0.54269	0.39987	30.6	13111	100
2025-3-27 20:32:14.727	WT901BLE68-01(48591DE3C19B)	-0.391	-0.893	0.173	-1.770	2.930	-2.869	-81.11	24.07	-87.75	-66.444	-37.142	-1.666	-0.64255	0.36420	-0.54269	0.39987	30.6	13111	100
2025-3-27 20:32:14.727	WT901BLE68-01(48591DE3C19B)	-0.390	-0.893	0.173	-1.770	2.930	-2.869	-81.13	24.03	-87.86	-66.444	-37.142	-1.666	-0.64255	0.36420	-0.54269	0.39987	30.6	13111	100
2025-3-27 20:32:14.727	WT901BLE68-01(48591DE3C19B)	-0.390	-0.892	0.178	-1.465	2.380	-3.784	-81.16	24.00	-87.96	-66.444	-37.142	-1.666	-0.64255	0.36420	-0.54269	0.39987	30.6	13111	100
2025-3-27 20:32:14.727	WT901BLE68-01(48591DE3C19B)	-0.393	-0.892	0.178	-1.465	2.380	-3.784	-81.17	23.96	-88.07	-66.444	-37.142	-1.666	-0.64255	0.36420	-0.54269	0.39987	30.6	13111	100
2025-3-27 20:32:14.759	WT901BLE68-01(48591DE3C19B)	-0.393	-0.890	0.180	-0.916	2.869	-4.272	-81.19	23.91	-88.18	-66.444	-37.142	-1.666	-0.64255	0.36420	-0.54269	0.39987	30.6	13111	100
2025-3-27 20:32:14.759	WT901BLE68-01(48591DE3C19B)	-0.403	-0.890	0.180	-0.916	2.869	-4.272	-81.21	23.87	-88.29	-66.444	-37.142	-1.666	-0.64255	0.36420	-0.54269	0.39987	30.6	13111	100
2025-3-27 20:32:14.759	WT901BLE68-01(48591DE3C19B)	-0.403	-0.892	0.181	-0.366	4.028	-4.761	-81.22	23.82	-88.40	-66.444	-37.142	-1.666	-0.64255	0.36420	-0.54269	0.39987	30.6	13111	100
2025-3-27 20:32:14.759	WT901BLE68-01(48591DE3C19B)	-0.415	-0.892	0.181	-0.366	4.028	-4.761	-81.23	23.78	-88.53	-66.444	-37.142	-1.666	-0.64255	0.36420	-0.54269	0.39987	30.6	13111	100
2025-3-27 20:32:14.789	WT901BLE68-01(48591DE3C19B)	-0.415	-0.894	0.183	-0.427	3.113	-5.005	-81.24	23.73	-88.64	-66.444	-37.142	-1.666	-0.64255	0.36420	-0.54269	0.39987	30.6	13111	100
2025-3-27 20:32:14.789	WT901BLE68-01(48591DE3C19B)	-0.419	-0.894	0.183	-0.427	3.113	-5.005	-81.25	23.68	-88.76	-66.444	-37.142	-1.666	-0.64255	0.36420	-0.54269	0.39987	30.6	13111	100
2025-3-27 20:32:14.789	WT901BLE68-01(48591DE3C19B)	-0.419	-0.894	0.184	-0.366	1.831	-4.822	-81.25	23.64	-88.86	-66.444	-37.142	-1.666	-0.62384	0.34625	-0.55713	0.42477	30.6	13111	100
2025-3-27 20:32:14.789	WT901BLE68-01(48591DE3C19B)	-0.423	-0.894	0.184	-0.366	1.831	-4.822	-81.25	23.59	-88.96	-66.444	-37.142	-1.666	-0.62384	0.34625	-0.55713	0.42477	30.6	13111	100
2025-3-27 20:32:14.848	WT901BLE68-01(48591DE3C19B)	-0.423	-0.873	0.186	-0.549	-0.061	-4.395	-81.24	23.55	-89.03	-66.444	-37.142	-1.666	-0.62384	0.34625	-0.55713	0.42477	30.6	13111	100
2025-3-27 20:32:14.848	WT901BLE68-01(48591DE3C19B)	-0.418	-0.873	0.186	-0.549	-0.061	-4.395	-81.23	23.51	-89.11	-66.444	-37.142	-1.666	-0.62384	0.34625	-0.55713	0.42477	30.6	13111	100
2025-3-27 20:32:14.848	WT901BLE68-01(48591DE3C19B)	-0.418	-0.849	0.184	-1.587	-2.502	-3.967	-81.23	23.46	-89.17	-66.444	-37.142	-1.666	-0.62384	0.34625	-0.55713	0.42477	30.6	13111	100
2025-3-27 20:32:14.848	WT901BLE68-01(48591DE3C19B)	-0.428	-0.849	0.184	-1.587	-2.502	-3.967	-81.22	23.42	-89.21	-66.444	-37.142	-1.666	-0.62384	0.34625	-0.55713	0.42477	30.6	13111	100
2025-3-27 20:32:14.878	WT901BLE68-01(48591DE3C19B)	-0.428	-0.843	0.182	-3.052	-5.371	-3.784	-81.21	23.38	-89.24	-66.444	-37.142	-1.666	-0.62384	0.34625	-0.55713	0.42477	30.6	13111	100
2025-3-27 20:32:14.879	WT901BLE68-01(48591DE3C19B)	-0.438	-0.843	0.182	-3.052	-5.371	-3.784	-81.21	23.34	-89.26	-66.444	-37.142	-1.666	-0.62384	0.34625	-0.55713	0.42477	30.6	13111	100
2025-3-27 20:32:14.879	WT901BLE68-01(48591DE3C19B)	-0.438	-0.844	0.180	-4.211	-9.521	-4.150	-81.19	23.30	-89.23	-66.444	-37.142	-1.666	-0.62384	0.34625	-0.55713	0.42477	30.6	13111	100
2025-3-27 20:32:14.879	WT901BLE68-01(48591DE3C19B)	-0.446	-0.844	0.180	-4.211	-9.521	-4.150	-81.18	23.25	-89.21	-66.444	-37.142	-1.666	-0.62384	0.34625	-0.55713	0.42477	30.6	13111	100
2025-3-27 20:32:14.907	WT901BLE68-01(48591DE3C19B)	-0.446	-0.852	0.179	-6.042	-15.137	-4.578	-81.16	23.19	-89.13	-66.444	-37.142	-1.666	-0.62384	0.34625	-0.55713	0.42477	30.6	13111	100
2025-3-27 20:32:14.907	WT901BLE68-01(48591DE3C19B)	-0.454	-0.852	0.179	-6.042	-15.137	-4.578	-81.14	23.13	-89.05	-66.444	-37.142	-1.666	-0.62384	0.34625	-0.55713	0.42477	30.6	13111	100
2025-3-27 20:32:14.908	WT901BLE68-01(48591DE3C19B)	-0.454	-0.883	0.175	-6.836	-20.752	-5.798	-81.11	23.05	-88.91	-66.444	-37.142	-1.666	-0.62384	0.34625	-0.55713	0.42477	30.6	13111	100
2025-3-27 20:32:14.908	WT901BLE68-01(48591DE3C19B)	-0.464	-0.883	0.175	-6.836	-20.752	-5.798	-81.07	22.98	-88.77	-66.444	-37.142	-1.666	-0.62384	0.34625	-0.55713	0.42477	30.6	13111	100
2025-3-27 20:32:14.976	WT901BLE68-01(48591DE3C19B)	-0.464	-0.903	0.172	-6.775	-25.879	-7.751	-81.02	22.88	-88.58	-66.444	-37.142	-1.666	-0.62384	0.34625	-0.55713	0.42477	30.6	13111	100
2025-3-27 20:32:14.977	WT901BLE68-01(48591DE3C19B)	-0.469	-0.903	0.172	-6.775	-25.879	-7.751	-80.97	22.78	-88.40	-66.444	-37.142	-1.666	-0.62384	0.34625	-0.55713	0.42477	30.6	13111	100
2025-3-27 20:32:14.977	WT901BLE68-01(48591DE3C19B)	-0.469	-0.937	0.172	-6.775	-29.724	-10.193	-80.90	22.65	-88.17	-66.444	-37.142	-1.666	-0.62384	0.34625	-0.55713	0.42477	30.6	13111	100
2025-3-27 20:32:14.977	WT901BLE68-01(48591DE3C19B)	-0.465	-0.937	0.172	-6.775	-29.724	-10.193	-80.84	22.52	-87.95	-66.444	-37.142	-1.666	-0.62384	0.34625	-0.55713	0.42477	30.6	13111	100
2025-3-27 20:32:14.999	WT901BLE68-01(48591DE3C19B)	-0.465	-0.969	0.173	-4.700	-30.579	-12.329	-80.76	22.37	-87.72	-66.444	-37.142	-1.666	-0.62384	0.34625	-0.55713	0.42477	30.6	13111	100
2025-3-27 20:32:14.999	WT901BLE68-01(48591DE3C19B)	-0.460	-0.969	0.173	-4.700	-30.579	-12.329	-80.68	22.22	-87.49	-66.444	-37.142	-1.666	-0.62384	0.34625	-0.55713	0.42477	30.6	13111	100
2025-3-27 20:32:14.999	WT901BLE68-01(48591DE3C19B)	-0.460	-0.991	0.172	-2.014	-26.794	-13.306	-80.58	22.07	-87.31	-66.444	-37.142	-1.666	-0.62384	0.34625	-0.55713	0.42477	30.6	13111	100
2025-3-27 20:32:15.0	WT901BLE68-01(48591DE3C19B)	-0.449	-0.991	0.172	-2.014	-26.794	-13.306	-80.50	21.91	-87.12	-67.718	-36.652	-1.274	-0.62384	0.34625	-0.55713	0.42477	30.6	13111	100
2025-3-27 20:32:15.29	WT901BLE68-01(48591DE3C19B)	-0.449	-0.979	0.167	2.075	-19.226	-12.146	-80.40	21.78	-87.02	-67.718	-36.652	-1.274	-0.62384	0.34625	-0.55713	0.42477	30.6	13111	100
2025-3-27 20:32:15.29	WT901BLE68-01(48591DE3C19B)	-0.443	-0.979	0.167	2.075	-19.226	-12.146	-80.30	21.65	-86.91	-67.718	-36.652	-1.274	-0.62384	0.34625	-0.55713	0.42477	30.6	13111	100
2025-3-27 20:32:15.29	WT901BLE68-01(48591DE3C19B)	-0.443	-0.930	0.152	4.517	-11.292	-9.155	-80.21	21.57	-86.88	-67.718	-36.652	-1.274	-0.62384	0.34625	-0.55713	0.42477	30.6	13111	100
2025-3-27 20:32:15.29	WT901BLE68-01(48591DE3C19B)	-0.443	-0.930	0.152	4.517	-11.292	-9.155	-80.12	21.48	-86.85	-67.718	-36.652	-1.274	-0.62384	0.34625	-0.55713	0.42477	30.6	13111	100
2025-3-27 20:32:15.87	WT901BLE68-01(48591DE3C19B)	-0.443	-0.884	0.141	4.089	-6.348	-5.615	-80.06	21.43	-86.87	-67.718	-36.652	-1.274	-0.62384	0.34625	-0.55713	0.42477	30.6	13111	100
2025-3-27 20:32:15.87	WT901BLE68-01(48591DE3C19B)	-0.446	-0.884	0.141	4.089	-6.348	-5.615	-79.99	21.39	-86.89	-67.718	-36.652	-1.274	-0.62384	0.34625	-0.55713	0.42477	30.6	13111	100
2025-3-27 20:32:15.87	WT901BLE68-01(48591DE3C19B)	-0.446	-0.854	0.140	1.892	-5.554	-2.075	-79.95	21.38	-86.90	-67.718	-36.652	-1.274	-0.62384	0.34625	-0.55713	0.42477	30.6	13111	100
2025-3-27 20:32:15.87	WT901BLE68-01(48591DE3C19B)	-0.450	-0.854	0.140	1.892	-5.554	-2.075	-79.91	21.38	-86.92	-67.718	-36.652	-1.274	-0.62384	0.34625	-0.55713	0.42477	30.6	13111	100
2025-3-27 20:32:15.117	WT901BLE68-01(48591DE3C19B)	-0.450	-0.835	0.144	-1.160	-7.813	0.671	-79.89	21.40	-86.91	-67.718	-36.652	-1.274	-0.62384	0.34625	-0.55713	0.42477	30.6	13111	100
2025-3-27 20:32:15.117	WT901BLE68-01(48591DE3C19B)	-0.448	-0.835	0.144	-1.160	-7.813	0.671	-79.87	21.42	-86.90	-67.718	-36.652	-1.274	-0.62384	0.34625	-0.55713	0.42477	30.6	13111	100
2025-3-27 20:32:15.117	WT901BLE68-01(48591DE3C19B)	-0.448	-0.829	0.146	-4.089	-12.817	2.563	-79.85	21.46	-86.82	-67.718	-36.652	-1.274	-0.62384	0.34625	-0.55713	0.42477	30.6	13111	100
2025-3-27 20:32:15.117	WT901BLE68-01(48591DE3C19B)	-0.438	-0.829	0.146	-4.089	-12.817	2.563	-79.84	21.49	-86.76	-67.718	-36.652	-1.274	-0.62384	0.34625	-0.55713	0.42477	30.6	13111	100
2025-3-27 20:32:15.149	WT901BLE68-01(48591DE3C19B)	-0.438	-0.835	0.145	-5.676	-18.250	3.845	-79.82	21.53	-86.63	-67.718	-36.652	-1.274	-0.62384	0.34625	-0.55713	0.42477	30.6	13111	100
2025-3-27 20:32:15.150	WT901BLE68-01(48591DE3C19B)	-0.420	-0.835	0.145	-5.676	-18.250	3.845	-79.80	21.56	-86.50	-67.718	-36.652	-1.274	-0.62384	0.34625	-0.55713	0.42477	30.6	13111	100
2025-3-27 20:32:15.150	WT901BLE68-01(48591DE3C19B)	-0.420	-0.844	0.144	-5.371	-21.240	4.517	-79.77	21.60	-86.34	-67.718	-36.652	-1.274	-0.62384	0.34625	-0.55713	0.42477	30.6	13111	100
2025-3-27 20:32:15.150	WT901BLE68-01(48591DE3C19B)	-0.401	-0.844	0.144	-5.371	-21.240	4.517	-79.73	21.64	-86.18	-67.718	-36.652	-1.274	-0.62384	0.34625	-0.55713	0.42477	30.6	13111	100
2025-3-27 20:32:15.208	WT901BLE68-01(48591DE3C19B)	-0.401	-0.858	0.147	-4.089	-20.813	4.761	-79.69	21.68	-86.02	-67.718	-36.652	-1.274	-0.62384	0.34625	-0.55713	0.42477	30.6	13111	100
2025-3-27 20:32:15.208	WT901BLE68-01(48591DE3C19B)	-0.389	-0.858	0.147	-4.089	-20.813	4.761	-79.65	21.71	-85.87	-67.718	-36.652	-1.274	-0.62384	0.34625	-0.55713	0.42477	30.6	13111	100
2025-3-27 20:32:15.208	WT901BLE68-01(48591DE3C19B)	-0.389	-0.860	0.156	-1.587	-18.066	5.005	-79.58	21.75	-85.74	-67.718	-36.652	-1.274	-0.62384	0.34625	-0.55713	0.42477	30.6	13111	100
2025-3-27 20:32:15.208	WT901BLE68-01(48591DE3C19B)	-0.370	-0.860	0.156	-1.587	-18.066	5.005	-79.53	21.80	-85.62	-67.718	-36.652	-1.274	-0.62384	0.34625	-0.55713	0.42477	30.6	13111	100
2025-3-27 20:32:15.236	WT901BLE68-01(48591DE3C19B)	-0.370	-0.839	0.156	0.427	-13.794	5.493	-79.46	21.85	-85.53	-67.718	-36.652	-1.274	-0.63654	0.36176	-0.53317	0.42377	30.6	13111	100
2025-3-27 20:32:15.236	WT901BLE68-01(48591DE3C19B)	-0.354	-0.839	0.156	0.427	-13.794	5.493	-79.40	21.90	-85.45	-67.718	-36.652	-1.274	-0.63654	0.36176	-0.53317	0.42377	30.6	13111	100
2025-3-27 20:32:15.236	WT901BLE68-01(48591DE3C19B)	-0.352	-0.823	0.148	1.770	-8.484	6.287	-79.35	21.96	-85.43	-67.718	-36.652	-1.274	-0.63654	0.36176	-0.53317	0.42377	30.6	13111	100
2025-3-27 20:32:15.236	WT901BLE68-01(48591DE3C19B)	-0.352	-0.824	0.143	2.502	-3.906	6.836	-79.30	22.03	-85.42	-67.718	-36.652	-1.274	-0.63654	0.36176	-0.53317	0.42377	30.6	13111	100
2025-3-27 20:32:15.267	WT901BLE68-01(48591DE3C19B)	-0.356	-0.824	0.143	2.502	-3.906	6.836	-79.26	22.11	-85.44	-67.718	-36.652	-1.274	-0.63654	0.36176	-0.53317	0.42377	30.6	13111	100
2025-3-27 20:32:15.267	WT901BLE68-01(48591DE3C19B)	-0.356	-0.837	0.139	2.625	-1.282	6.531	-79.22	22.19	-85.47	-67.718	-36.652	-1.274	-0.63654	0.36176	-0.53317	0.42377	30.6	13111	100
2025-3-27 20:32:15.267	WT901BLE68-01(48591DE3C19B)	-0.364	-0.837	0.139	2.625	-1.282	6.531	-79.18	22.26	-85.52	-67.718	-36.652	-1.274	-0.63654	0.36176	-0.53317	0.42377	30.6	13111	100
2025-3-27 20:32:15.267	WT901BLE68-01(48591DE3C19B)	-0.364	-0.854	0.140	3.113	-0.305	5.432	-79.15	22.33	-85.57	-67.718	-36.652	-1.274	-0.63654	0.36176	-0.53317	0.42377	30.6	13111	100
2025-3-27 20:32:15.327	WT901BLE68-01(48591DE3C19B)	-0.360	-0.854	0.140	3.113	-0.305	5.432	-79.12	22.40	-85.63	-67.718	-36.652	-1.274	-0.63654	0.36176	-0.53317	0.42377	30.6	13111	100
2025-3-27 20:32:15.328	WT901BLE68-01(48591DE3C19B)	-0.360	-0.859	0.143	3.723	-0.244	3.845	-79.09	22.45	-85.69	-67.718	-36.652	-1.274	-0.63654	0.36176	-0.53317	0.42377	30.6	13111	100
2025-3-27 20:32:15.328	WT901BLE68-01(48591DE3C19B)	-0.348	-0.859	0.143	3.723	-0.244	3.845	-79.05	22.50	-85.74	-67.718	-36.652	-1.274	-0.63654	0.36176	-0.53317	0.42377	30.6	13111	100
2025-3-27 20:32:15.328	WT901BLE68-01(48591DE3C19B)	-0.348	-0.855	0.144	5.127	1.709	2.380	-79.01	22.54	-85.81	-67.718	-36.652	-1.274	-0.63654	0.36176	-0.53317	0.42377	30.6	13111	100
2025-3-27 20:32:15.357	WT901BLE68-01(48591DE3C19B)	-0.339	-0.855	0.144	5.127	1.709	2.380	-78.98	22.57	-85.90	-67.718	-36.652	-1.274	-0.63654	0.36176	-0.53317	0.42377	30.6	13111	100
2025-3-27 20:32:15.357	WT901BLE68-01(48591DE3C19B)	-0.339	-0.834	0.139	7.141	5.371	1.526	-78.94	22.60	-86.00	-67.718	-36.652	-1.274	-0.63654	0.36176	-0.53317	0.42377	30.6	13111	100
2025-3-27 20:32:15.357	WT901BLE68-01(48591DE3C19B)	-0.330	-0.834	0.139	7.141	5.371	1.526	-78.89	22.63	-86.12	-67.718	-36.652	-1.274	-0.63654	0.36176	-0.53317	0.42377	30.6	13111	100
2025-3-27 20:32:15.357	WT901BLE68-01(48591DE3C19B)	-0.330	-0.820	0.129	8.301	9.460	0.854	-78.85	22.66	-86.26	-67.718	-36.652	-1.274	-0.63654	0.36176	-0.53317	0.42377	30.6	13111	100
2025-3-27 20:32:15.387	WT901BLE68-01(48591DE3C19B)	-0.332	-0.820	0.129	8.301	9.460	0.854	-78.82	22.69	-86.42	-67.718	-36.652	-1.274	-0.63654	0.36176	-0.53317	0.42377	30.6	13111	100
2025-3-27 20:32:15.387	WT901BLE68-01(48591DE3C19B)	-0.332	-0.815	0.126	9.949	14.343	-0.122	-78.79	22.72	-86.61	-67.718	-36.652	-1.274	-0.63654	0.36176	-0.53317	0.42377	30.6	13111	100
2025-3-27 20:32:15.387	WT901BLE68-01(48591DE3C19B)	-0.341	-0.815	0.126	9.949	14.343	-0.122	-78.76	22.75	-86.82	-67.718	-36.652	-1.274	-0.63654	0.36176	-0.53317	0.42377	30.6	13111	100
2025-3-27 20:32:15.387	WT901BLE68-01(48591DE3C19B)	-0.341	-0.807	0.130	10.498	17.456	-1.465	-78.73	22.77	-87.06	-67.718	-36.652	-1.274	-0.63654	0.36176	-0.53317	0.42377	30.6	13111	100
2025-3-27 20:32:15.538	WT901BLE68-01(48591DE3C19B)	-0.343	-0.807	0.130	10.498	17.456	-1.465	-78.71	22.79	-87.30	-67.718	-36.652	-1.274	-0.63654	0.36176	-0.53317	0.42377	30.6	13111	100
2025-3-27 20:32:15.538	WT901BLE68-01(48591DE3C19B)	-0.343	-0.803	0.131	10.559	18.921	-3.296	-78.70	22.80	-87.56	-70.462	-36.064	-0.392	-0.63654	0.36176	-0.53317	0.42377	30.6	13111	100
2025-3-27 20:32:15.538	WT901BLE68-01(48591DE3C19B)	-0.348	-0.803	0.131	10.559	18.921	-3.296	-78.68	22.81	-87.82	-70.462	-36.064	-0.392	-0.63654	0.36176	-0.53317	0.42377	30.6	13111	100
2025-3-27 20:32:15.538	WT901BLE68-01(48591DE3C19B)	-0.348	-0.795	0.128	10.803	20.325	-5.310	-78.67	22.80	-88.09	-70.462	-36.064	-0.392	-0.63654	0.36176	-0.53317	0.42377	30.6	13111	100
2025-3-27 20:32:15.539	WT901BLE68-01(48591DE3C19B)	-0.346	-0.795	0.128	10.803	20.325	-5.310	-78.66	22.79	-88.37	-70.462	-36.064	-0.392	-0.63654	0.36176	-0.53317	0.42377	30.6	13111	100
2025-3-27 20:32:15.539	WT901BLE68-01(48591DE3C19B)	-0.346	-0.776	0.121	10.925	21.179	-7.324	-78.66	22.77	-88.66	-70.462	-36.064	-0.392	-0.63654	0.36176	-0.53317	0.42377	30.6	13111	100
2025-3-27 20:32:15.539	WT901BLE68-01(48591DE3C19B)	-0.342	-0.776	0.121	10.925	21.179	-7.324	-78.65	22.74	-88.95	-70.462	-36.064	-0.392	-0.63654	0.36176	-0.53317	0.42377	30.6	13111	100
2025-3-27 20:32:15.539	WT901BLE68-01(48591DE3C19B)	-0.342	-0.768	0.112	10.437	22.461	-9.277	-78.66	22.71	-89.25	-70.462	-36.064	-0.392	-0.63654	0.36176	-0.53317	0.42377	30.6	13111	100
2025-3-27 20:32:15.540	WT901BLE68-01(48591DE3C19B)	-0.356	-0.768	0.112	10.437	22.461	-9.277	-78.66	22.66	-89.55	-70.462	-36.064	-0.392	-0.63654	0.36176	-0.53317	0.42377	30.6	13111	100
2025-3-27 20:32:15.540	WT901BLE68-01(48591DE3C19B)	-0.356	-0.797	0.106	9.644	23.376	-11.536	-78.68	22.61	-89.86	-70.462	-36.064	-0.392	-0.63654	0.36176	-0.53317	0.42377	30.6	13111	100
2025-3-27 20:32:15.540	WT901BLE68-01(48591DE3C19B)	-0.378	-0.797	0.106	9.644	23.376	-11.536	-78.70	22.55	-90.17	-70.462	-36.064	-0.392	-0.63654	0.36176	-0.53317	0.42377	30.6	13111	100
2025-3-27 20:32:15.540	WT901BLE68-01(48591DE3C19B)	-0.378	-0.815	0.107	10.681	23.193	-14.404	-78.72	22.47	-90.48	-70.462	-36.064	-0.392	-0.63654	0.36176	-0.53317	0.42377	30.6	13111	100
2025-3-27 20:32:15.577	WT901BLE68-01(48591DE3C19B)	-0.396	-0.815	0.107	10.681	23.193	-14.404	-78.73	22.38	-90.80	-70.462	-36.064	-0.392	-0.63654	0.36176	-0.53317	0.42377	30.6	13111	100
2025-3-27 20:32:15.577	WT901BLE68-01(48591DE3C19B)	-0.396	-0.803	0.117	10.986	20.508	-17.212	-78.74	22.28	-91.10	-70.462	-36.064	-0.392	-0.63654	0.36176	-0.53317	0.42377	30.6	13111	100
2025-3-27 20:32:15.577	WT901BLE68-01(48591DE3C19B)	-0.403	-0.803	0.117	10.986	20.508	-17.212	-78.74	22.16	-91.38	-70.462	-36.064	-0.392	-0.63654	0.36176	-0.53317	0.42377	30.6	13111	100
2025-3-27 20:32:15.577	WT901BLE68-01(48591DE3C19B)	-0.403	-0.778	0.125	11.597	15.503	-18.433	-78.73	22.03	-91.65	-70.462	-36.064	-0.392	-0.63654	0.36176	-0.53317	0.42377	30.6	13111	100
2025-3-27 20:32:15.599	WT901BLE68-01(48591DE3C19B)	-0.394	-0.778	0.125	11.597	15.503	-18.433	-78.71	21.90	-91.88	-70.462	-36.064	-0.392	-0.63654	0.36176	-0.53317	0.42377	30.6	13111	100
2025-3-27 20:32:15.600	WT901BLE68-01(48591DE3C19B)	-0.394	-0.742	0.122	12.329	12.207	-17.578	-78.67	21.77	-92.09	-70.462	-36.064	-0.392	-0.63654	0.36176	-0.53317	0.42377	30.6	13111	100
2025-3-27 20:32:15.600	WT901BLE68-01(48591DE3C19B)	-0.372	-0.742	0.122	12.329	12.207	-17.578	-78.62	21.64	-92.29	-70.462	-36.064	-0.392	-0.61172	0.32611	-0.54929	0.46649	30.6	13111	100
2025-3-27 20:32:15.600	WT901BLE68-01(48591DE3C19B)	-0.372	-0.716	0.132	13.916	13.855	-14.465	-78.57	21.53	-92.49	-70.462	-36.064	-0.392	-0.61172	0.32611	-0.54929	0.46649	30.6	13111	100
2025-3-27 20:32:15.657	WT901BLE68-01(48591DE3C19B)	-0.366	-0.716	0.132	13.916	13.855	-14.465	-78.51	21.44	-92.70	-70.462	-36.064	-0.392	-0.61172	0.32611	-0.54929	0.46649	30.6	13111	100
2025-3-27 20:32:15.658	WT901BLE68-01(48591DE3C19B)	-0.366	-0.652	0.148	14.771	16.174	-8.911	-78.45	21.38	-92.91	-70.462	-36.064	-0.392	-0.61172	0.32611	-0.54929	0.46649	30.6	13111	100
2025-3-27 20:32:15.658	WT901BLE68-01(48591DE3C19B)	-0.357	-0.652	0.148	14.771	16.174	-8.911	-78.38	21.36	-93.13	-70.462	-36.064	-0.392	-0.61172	0.32611	-0.54929	0.46649	30.6	13111	100
2025-3-27 20:32:15.658	WT901BLE68-01(48591DE3C19B)	-0.357	-0.644	0.178	9.583	17.456	-2.869	-78.34	21.36	-93.35	-70.462	-36.064	-0.392	-0.61172	0.32611	-0.54929	0.46649	30.6	13111	100
2025-3-27 20:32:15.687	WT901BLE68-01(48591DE3C19B)	-0.367	-0.644	0.178	9.583	17.456	-2.869	-78.32	21.40	-93.57	-70.462	-36.064	-0.392	-0.61172	0.32611	-0.54929	0.46649	30.6	13111	100
2025-3-27 20:32:15.687	WT901BLE68-01(48591DE3C19B)	-0.367	-0.766	0.214	4.578	23.804	1.892	-78.33	21.46	-93.82	-70.462	-36.064	-0.392	-0.61172	0.32611	-0.54929	0.46649	30.6	13111	100
2025-3-27 20:32:15.687	WT901BLE68-01(48591DE3C19B)	-0.382	-0.766	0.214	4.578	23.804	1.892	-78.38	21.56	-94.11	-70.462	-36.064	-0.392	-0.61172	0.32611	-0.54929	0.46649	30.6	13111	100
2025-3-27 20:32:15.687	WT901BLE68-01(48591DE3C19B)	-0.382	-0.834	0.238	4.883	34.973	5.371	-78.44	21.68	-94.44	-70.462	-36.064	-0.392	-0.61172	0.32611	-0.54929	0.46649	30.6	13111	100
2025-3-27 20:32:15.717	WT901BLE68-01(48591DE3C19B)	-0.384	-0.834	0.238	4.883	34.973	5.371	-78.51	21.82	-94.84	-70.462	-36.064	-0.392	-0.61172	0.32611	-0.54929	0.46649	30.6	13111	100
2025-3-27 20:32:15.717	WT901BLE68-01(48591DE3C19B)	-0.384	-0.851	0.229	-1.770	41.748	5.676	-78.68	21.98	-95.30	-70.462	-36.064	-0.392	-0.61172	0.32611	-0.54929	0.46649	30.6	13111	100
2025-3-27 20:32:15.717	WT901BLE68-01(48591DE3C19B)	-0.452	-0.851	0.229	-1.770	41.748	5.676	-78.85	22.14	-95.77	-70.462	-36.064	-0.392	-0.61172	0.32611	-0.54929	0.46649	30.6	13111	100
2025-3-27 20:32:15.717	WT901BLE68-01(48591DE3C19B)	-0.452	-0.938	0.252	-11.658	42.236	-0.671	-79.12	22.23	-96.25	-70.462	-36.064	-0.392	-0.61172	0.32611	-0.54929	0.46649	30.6	13111	100
2025-3-27 20:32:15.779	WT901BLE68-01(48591DE3C19B)	-0.596	-0.938	0.252	-11.658	42.236	-0.671	-79.40	22.32	-96.73	-70.462	-36.064	-0.392	-0.61172	0.32611	-0.54929	0.46649	30.6	13111	100
2025-3-27 20:32:15.779	WT901BLE68-01(48591DE3C19B)	-0.596	-1.078	0.340	-21.851	26.794	-10.925	-79.71	22.28	-97.07	-70.462	-36.064	-0.392	-0.61172	0.32611	-0.54929	0.46649	30.6	13111	100
2025-3-27 20:32:15.780	WT901BLE68-01(48591DE3C19B)	-1.356	-1.078	0.340	-21.851	26.794	-10.925	-80.02	22.24	-97.41	-70.462	-36.064	-0.392	-0.61172	0.32611	-0.54929	0.46649	30.6	13111	100
2025-3-27 20:32:15.780	WT901BLE68-01(48591DE3C19B)	-5.425	-2.445	0.792	-30.029	-5.371	-21.667	-80.28	22.04	-97.43	-70.462	-36.064	-0.392	-0.61172	0.32611	-0.54929	0.46649	30.6	13111	100
2025-3-27 20:32:15.809	WT901BLE68-01(48591DE3C19B)	-0.656	-9.781	3.167	-30.029	-5.371	-21.667	-80.54	21.85	-97.46	-70.462	-36.064	-0.392	-0.61172	0.32611	-0.54929	0.46649	30.6	13111	100
2025-3-27 20:32:15.809	WT901BLE68-01(48591DE3C19B)	-0.656	-1.300	0.388	-30.090	-33.752	-28.198	-80.68	21.54	-97.20	-70.462	-36.064	-0.392	-0.61172	0.32611	-0.54929	0.46649	30.6	13111	100
2025-3-27 20:32:15.809	WT901BLE68-01(48591DE3C19B)	-0.601	-1.300	0.388	-30.090	-33.752	-28.198	-80.82	21.24	-96.94	-70.462	-36.064	-0.392	-0.61172	0.32611	-0.54929	0.46649	30.6	13111	100
2025-3-27 20:32:15.809	WT901BLE68-01(48591DE3C19B)	-0.601	-1.285	0.353	-23.315	-46.814	-28.442	-80.85	20.91	-96.55	-67.816	-39.984	-0.392	-0.61172	0.32611	-0.54929	0.46649	30.6	13111	100
2025-3-27 20:32:15.839	WT901BLE68-01(48591DE3C19B)	-0.577	-1.285	0.353	-23.315	-46.814	-28.442	-80.88	20.59	-96.15	-67.816	-39.984	-0.392	-0.61172	0.32611	-0.54929	0.46649	30.6	13111	100
2025-3-27 20:32:15.839	WT901BLE68-01(48591DE3C19B)	-0.577	-1.216	0.313	-16.052	-57.800	-22.217	-80.79	20.31	-95.64	-67.816	-39.984	-0.392	-0.61172	0.32611	-0.54929	0.46649	30.6	13111	100
2025-3-27 20:32:15.840	WT901BLE68-01(48591DE3C19B)	-0.481	-1.216	0.313	-16.052	-57.800	-22.217	-80.72	20.03	-95.12	-67.816	-39.984	-0.392	-0.61172	0.32611	-0.54929	0.46649	30.6	13111	100
2025-3-27 20:32:15.840	WT901BLE68-01(48591DE3C19B)	-0.481	-1.128	0.299	-10.071	-58.960	-13.672	-80.57	19.84	-94.58	-67.816	-39.984	-0.392	-0.61172	0.32611	-0.54929	0.46649	30.6	13111	100
2025-3-27 20:32:15.898	WT901BLE68-01(48591DE3C19B)	-0.365	-1.128	0.299	-10.071	-58.960	-13.672	-80.43	19.64	-94.04	-67.816	-39.984	-0.392	-0.61172	0.32611	-0.54929	0.46649	30.6	13111	100
2025-3-27 20:32:15.898	WT901BLE68-01(48591DE3C19B)	-0.365	-1.086	0.282	-3.357	-43.274	-2.319	-80.28	19.57	-93.65	-67.816	-39.984	-0.392	-0.61172	0.32611	-0.54929	0.46649	30.6	13111	100
2025-3-27 20:32:15.898	WT901BLE68-01(48591DE3C19B)	-0.290	-1.086	0.282	-3.357	-43.274	-2.319	-80.12	19.50	-93.26	-67.816	-39.984	-0.392	-0.61172	0.32611	-0.54929	0.46649	30.6	13111	100
2025-3-27 20:32:15.898	WT901BLE68-01(48591DE3C19B)	-0.290	-1.006	0.271	6.287	-15.076	8.179	-79.97	19.58	-93.14	-67.816	-39.984	-0.392	-0.61172	0.32611	-0.54929	0.46649	30.6	13111	100
2025-3-27 20:32:15.958	WT901BLE68-01(48591DE3C19B)	-0.271	-1.006	0.271	6.287	-15.076	8.179	-79.82	19.65	-93.03	-67.816	-39.984	-0.392	-0.61172	0.32611	-0.54929	0.46649	30.6	13111	100
2025-3-27 20:32:15.958	WT901BLE68-01(48591DE3C19B)	-0.271	-0.911	0.241	12.085	13.123	14.587	-79.70	19.84	-93.19	-67.816	-39.984	-0.392	-0.61172	0.32611	-0.54929	0.46649	30.6	13111	100
2025-3-27 20:32:15.958	WT901BLE68-01(48591DE3C19B)	-0.325	-0.911	0.241	12.085	13.123	14.587	-79.58	20.02	-93.35	-67.816	-39.984	-0.392	-0.61172	0.32611	-0.54929	0.46649	30.6	13111	100
2025-3-27 20:32:15.958	WT901BLE68-01(48591DE3C19B)	-0.325	-0.845	0.208	13.428	27.771	15.381	-79.51	20.23	-93.66	-67.816	-39.984	-0.392	-0.61172	0.32611	-0.54929	0.46649	30.6	13111	100
2025-3-27 20:32:15.959	WT901BLE68-01(48591DE3C19B)	-0.349	-0.845	0.208	13.428	27.771	15.381	-79.44	20.44	-93.96	-67.816	-39.984	-0.392	-0.61172	0.32611	-0.54929	0.46649	30.6	13111	100
2025-3-27 20:32:15.959	WT901BLE68-01(48591DE3C19B)	-0.349	-0.795	0.196	12.634	32.471	14.832	-79.39	20.65	-94.32	-67.816	-39.984	-0.392	-0.61172	0.32611	-0.54929	0.46649	30.6	13111	100
2025-3-27 20:32:15.959	WT901BLE68-01(48591DE3C19B)	-0.371	-0.795	0.196	12.634	32.471	14.832	-79.35	20.86	-94.67	-67.816	-39.984	-0.392	-0.61172	0.32611	-0.54929	0.46649	30.6	13111	100
2025-3-27 20:32:15.959	WT901BLE68-01(48591DE3C19B)	-0.371	-0.737	0.182	11.292	32.227	13.672	-79.32	21.07	-95.02	-67.816	-39.984	-0.392	-0.61172	0.32611	-0.54929	0.46649	30.6	13111	100
2025-3-27 20:32:16.18	WT901BLE68-01(48591DE3C19B)	-0.384	-0.737	0.182	11.292	32.227	13.672	-79.29	21.27	-95.37	-67.816	-39.984	-0.392	-0.61172	0.32611	-0.54929	0.46649	30.6	13111	100
2025-3-27 20:32:16.18	WT901BLE68-01(48591DE3C19B)	-0.384	-0.651	0.181	7.446	23.315	10.498	-79.28	21.42	-95.63	-67.816	-39.984	-0.392	-0.61172	0.32611	-0.54929	0.46649	30.6	13111	100
2025-3-27 20:32:16.18	WT901BLE68-01(48591DE3C19B)	-0.374	-0.651	0.181	7.446	23.315	10.498	-79.26	21.58	-95.89	-67.816	-39.984	-0.392	-0.61172	0.32611	-0.54929	0.46649	30.6	13111	100
2025-3-27 20:32:16.18	WT901BLE68-01(48591DE3C19B)	-0.374	-0.578	0.185	1.282	10.193	7.324	-79.26	21.68	-96.02	-67.816	-39.984	-0.392	-0.61172	0.32611	-0.54929	0.46649	30.6	13111	100
2025-3-27 20:32:16.77	WT901BLE68-01(48591DE3C19B)	-0.375	-0.578	0.185	1.282	10.193	7.324	-79.25	21.79	-96.15	-67.816	-39.984	-0.392	-0.59509	0.31003	-0.56329	0.48199	30.6	13111	100
2025-3-27 20:32:16.78	WT901BLE68-01(48591DE3C19B)	-0.375	-0.540	0.169	-6.165	-4.700	3.540	-79.26	21.84	-96.13	-67.816	-39.984	-0.392	-0.59509	0.31003	-0.56329	0.48199	30.6	13111	100
2025-3-27 20:32:16.78	WT901BLE68-01(48591DE3C19B)	-0.379	-0.540	0.169	-6.165	-4.700	3.540	-79.27	21.88	-96.11	-67.816	-39.984	-0.392	-0.59509	0.31003	-0.56329	0.48199	30.6	13111	100
2025-3-27 20:32:16.78	WT901BLE68-01(48591DE3C19B)	-0.379	-0.544	0.164	-11.475	-19.348	0.610	-79.28	21.88	-95.95	-67.816	-39.984	-0.392	-0.59509	0.31003	-0.56329	0.48199	30.6	13111	100
2025-3-27 20:32:16.78	WT901BLE68-01(48591DE3C19B)	-0.378	-0.544	0.164	-11.475	-19.348	0.610	-79.29	21.87	-95.78	-67.816	-39.984	-0.392	-0.59509	0.31003	-0.56329	0.48199	30.6	13111	100
2025-3-27 20:32:16.78	WT901BLE68-01(48591DE3C19B)	-0.378	-0.522	0.167	-12.268	-31.494	1.465	-79.25	21.86	-95.49	-67.816	-39.984	-0.392	-0.59509	0.31003	-0.56329	0.48199	30.6	13111	100
2025-3-27 20:32:16.78	WT901BLE68-01(48591DE3C19B)	-0.329	-0.522	0.167	-12.268	-31.494	1.465	-79.22	21.85	-95.20	-67.816	-39.984	-0.392	-0.59509	0.31003	-0.56329	0.48199	30.6	13111	100
2025-3-27 20:32:16.78	WT901BLE68-01(48591DE3C19B)	-0.329	-0.439	0.165	-11.353	-39.001	7.263	-79.13	21.89	-94.82	-67.816	-39.984	-0.392	-0.59509	0.31003	-0.56329	0.48199	30.6	13111	100
2025-3-27 20:32:16.138	WT901BLE68-01(48591DE3C19B)	-0.281	-0.439	0.165	-11.353	-39.001	7.263	-79.05	21.93	-94.45	-67.816	-39.984	-0.392	-0.59509	0.31003	-0.56329	0.48199	30.6	13111	100
2025-3-27 20:32:16.138	WT901BLE68-01(48591DE3C19B)	-0.281	-0.386	0.168	-12.451	-40.405	16.663	-78.96	22.06	-94.04	-67.816	-39.984	-0.392	-0.59509	0.31003	-0.56329	0.48199	30.6	13111	100
2025-3-27 20:32:16.138	WT901BLE68-01(48591DE3C19B)	-0.275	-0.386	0.168	-12.451	-40.405	16.663	-78.88	22.18	-93.64	-67.816	-39.984	-0.392	-0.59509	0.31003	-0.56329	0.48199	30.6	13111	100
2025-3-27 20:32:16.138	WT901BLE68-01(48591DE3C19B)	-0.275	-0.453	0.178	-16.357	-40.588	25.818	-78.82	22.40	-93.22	-67.816	-39.984	-0.392	-0.59509	0.31003	-0.56329	0.48199	30.6	13111	100
2025-3-27 20:32:16.166	WT901BLE68-01(48591DE3C19B)	-0.286	-0.453	0.178	-16.357	-40.588	25.818	-78.75	22.61	-92.80	-67.816	-39.984	-0.392	-0.59509	0.31003	-0.56329	0.48199	30.6	13111	100
2025-3-27 20:32:16.166	WT901BLE68-01(48591DE3C19B)	-0.292	-0.650	0.172	-19.958	-44.434	29.907	-78.70	22.85	-92.32	-67.816	-39.984	-0.392	-0.59509	0.31003	-0.56329	0.48199	30.6	13111	100
2025-3-27 20:32:16.166	WT901BLE68-01(48591DE3C19B)	-0.292	-0.880	0.127	-20.142	-45.898	27.222	-78.65	23.07	-91.84	-67.816	-39.984	-0.392	-0.59509	0.31003	-0.56329	0.48199	30.6	13111	100
2025-3-27 20:32:16.166	WT901BLE68-01(48591DE3C19B)	-0.356	-0.880	0.127	-20.142	-45.898	27.222	-78.61	23.27	-91.34	-67.816	-39.984	-0.392	-0.59509	0.31003	-0.56329	0.48199	30.6	13111	100
2025-3-27 20:32:16.197	WT901BLE68-01(48591DE3C19B)	-0.356	-1.205	0.130	-16.541	-47.119	17.517	-78.56	23.41	-90.84	-67.816	-39.984	-0.392	-0.59509	0.31003	-0.56329	0.48199	30.6	13111	100
2025-3-27 20:32:16.197	WT901BLE68-01(48591DE3C19B)	-0.479	-1.205	0.130	-16.541	-47.119	17.517	-78.49	23.49	-90.34	-67.816	-39.984	-0.392	-0.59509	0.31003	-0.56329	0.48199	30.6	13111	100
2025-3-27 20:32:16.197	WT901BLE68-01(48591DE3C19B)	-0.479	-1.719	0.131	-10.071	-51.086	4.395	-78.40	23.50	-89.82	-67.816	-39.984	-0.392	-0.59509	0.31003	-0.56329	0.48199	30.6	13111	100
2025-3-27 20:32:16.197	WT901BLE68-01(48591DE3C19B)	-0.499	-1.719	0.131	-10.071	-51.086	4.395	-78.29	23.43	-89.30	-67.816	-39.984	-0.392	-0.59509	0.31003	-0.56329	0.48199	30.6	13111	100
2025-3-27 20:32:16.258	WT901BLE68-01(48591DE3C19B)	-0.499	-2.042	0.125	10.620	-50.415	-12.756	-78.09	23.27	-88.79	-67.816	-39.984	-0.392	-0.59509	0.31003	-0.56329	0.48199	30.6	13111	100
2025-3-27 20:32:16.258	WT901BLE68-01(48591DE3C19B)	-0.415	-2.042	0.125	10.620	-50.415	-12.756	-77.81	23.02	-88.30	-73.794	-37.338	3.724	-0.59509	0.31003	-0.56329	0.48199	30.6	13111	100
2025-3-27 20:32:16.258	WT901BLE68-01(48591DE3C19B)	-0.415	-1.768	0.136	37.842	-36.011	-8.911	-77.43	22.80	-87.89	-73.794	-37.338	3.724	-0.59509	0.31003	-0.56329	0.48199	30.6	13111	100
2025-3-27 20:32:16.258	WT901BLE68-01(48591DE3C19B)	-0.254	-1.768	0.136	37.842	-36.011	-8.911	-76.95	22.60	-87.55	-73.794	-37.338	3.724	-0.59509	0.31003	-0.56329	0.48199	30.6	13111	100
2025-3-27 20:32:16.286	WT901BLE68-01(48591DE3C19B)	-0.254	-1.380	0.158	37.354	-8.606	-5.310	-76.53	22.45	-87.35	-73.794	-37.338	3.724	-0.59509	0.31003	-0.56329	0.48199	30.6	13111	100
2025-3-27 20:32:16.287	WT901BLE68-01(48591DE3C19B)	-0.076	-1.380	0.158	37.354	-8.606	-5.310	-76.17	22.35	-87.30	-73.794	-37.338	3.724	-0.59509	0.31003	-0.56329	0.48199	30.6	13111	100
2025-3-27 20:32:16.287	WT901BLE68-01(48591DE3C19B)	-0.076	-1.144	0.130	35.461	27.710	1.404	-75.89	22.31	-87.42	-73.794	-37.338	3.724	-0.59509	0.31003	-0.56329	0.48199	30.6	13111	100
2025-3-27 20:32:16.287	WT901BLE68-01(48591DE3C19B)	0.001	-1.144	0.130	35.461	27.710	1.404	-75.69	22.35	-87.72	-73.794	-37.338	3.724	-0.59509	0.31003	-0.56329	0.48199	30.6	13111	100
2025-3-27 20:32:16.347	WT901BLE68-01(48591DE3C19B)	0.001	-0.847	0.130	33.020	62.134	6.226	-75.57	22.45	-88.20	-73.794	-37.338	3.724	-0.59509	0.31003	-0.56329	0.48199	30.6	13111	100
2025-3-27 20:32:16.347	WT901BLE68-01(48591DE3C19B)	-0.096	-0.847	0.130	33.020	62.134	6.226	-75.53	22.60	-88.85	-73.794	-37.338	3.724	-0.59509	0.31003	-0.56329	0.48199	30.6	13111	100
2025-3-27 20:32:16.347	WT901BLE68-01(48591DE3C19B)	-0.096	-0.700	0.139	18.982	75.378	-2.197	-75.60	22.73	-89.57	-73.794	-37.338	3.724	-0.59509	0.31003	-0.56329	0.48199	30.6	13111	100
2025-3-27 20:32:16.347	WT901BLE68-01(48591DE3C19B)	-0.208	-0.700	0.139	18.982	75.378	-2.197	-75.76	22.83	-90.37	-73.794	-37.338	3.724	-0.59509	0.31003	-0.56329	0.48199	30.6	13111	100
2025-3-27 20:32:16.379	WT901BLE68-01(48591DE3C19B)	-0.208	-0.736	0.172	10.864	66.467	-11.597	-75.95	22.87	-91.14	-73.794	-37.338	3.724	-0.59509	0.31003	-0.56329	0.48199	30.6	13111	100
2025-3-27 20:32:16.379	WT901BLE68-01(48591DE3C19B)	-0.239	-0.736	0.172	10.864	66.467	-11.597	-76.16	22.85	-91.86	-73.794	-37.338	3.724	-0.59509	0.31003	-0.56329	0.48199	30.6	13111	100
2025-3-27 20:32:16.379	WT901BLE68-01(48591DE3C19B)	-0.239	-0.656	0.167	13.733	53.894	-13.123	-76.33	22.81	-92.53	-73.794	-37.338	3.724	-0.59509	0.31003	-0.56329	0.48199	30.6	13111	100
2025-3-27 20:32:16.379	WT901BLE68-01(48591DE3C19B)	-0.237	-0.656	0.167	13.733	53.894	-13.123	-76.45	22.75	-93.12	-73.794	-37.338	3.724	-0.59509	0.31003	-0.56329	0.48199	30.6	13111	100
2025-3-27 20:32:16.409	WT901BLE68-01(48591DE3C19B)	-0.237	-0.506	0.140	18.860	43.518	-10.620	-76.53	22.69	-93.65	-73.794	-37.338	3.724	-0.59509	0.31003	-0.56329	0.48199	30.6	13111	100
2025-3-27 20:32:16.409	WT901BLE68-01(48591DE3C19B)	-0.225	-0.506	0.140	18.860	43.518	-10.620	-76.55	22.63	-94.13	-73.794	-37.338	3.724	-0.59509	0.31003	-0.56329	0.48199	30.6	13111	100
2025-3-27 20:32:16.410	WT901BLE68-01(48591DE3C19B)	-0.225	-0.389	0.130	20.142	27.771	-1.892	-76.53	22.60	-94.51	-73.794	-37.338	3.724	-0.59509	0.31003	-0.56329	0.48199	30.6	13111	100
2025-3-27 20:32:16.410	WT901BLE68-01(48591DE3C19B)	-0.179	-0.389	0.130	20.142	27.771	-1.892	-76.45	22.61	-94.80	-73.794	-37.338	3.724	-0.61069	0.29736	-0.55087	0.48486	30.6	13111	100
2025-3-27 20:32:16.439	WT901BLE68-01(48591DE3C19B)	-0.179	-0.377	0.109	19.287	17.822	8.911	-76.37	22.66	-95.02	-73.794	-37.338	3.724	-0.61069	0.29736	-0.55087	0.48486	30.6	13111	100
2025-3-27 20:32:16.439	WT901BLE68-01(48591DE3C19B)	-0.133	-0.377	0.109	19.287	17.822	8.911	-76.25	22.75	-95.17	-73.794	-37.338	3.724	-0.61069	0.29736	-0.55087	0.48486	30.6	13111	100
2025-3-27 20:32:16.439	WT901BLE68-01(48591DE3C19B)	-0.133	-0.363	0.100	19.836	16.541	17.700	-76.13	22.88	-95.31	-73.794	-37.338	3.724	-0.61069	0.29736	-0.55087	0.48486	30.6	13111	100
2025-3-27 20:32:16.439	WT901BLE68-01(48591DE3C19B)	-0.158	-0.363	0.100	19.836	16.541	17.700	-75.99	23.05	-95.42	-73.794	-37.338	3.724	-0.61069	0.29736	-0.55087	0.48486	30.6	13111	100
2025-3-27 20:32:16.497	WT901BLE68-01(48591DE3C19B)	-0.158	-0.425	0.132	16.174	16.357	31.372	-75.87	23.30	-95.52	-73.794	-37.338	3.724	-0.61069	0.29736	-0.55087	0.48486	30.6	13111	100
2025-3-27 20:32:16.498	WT901BLE68-01(48591DE3C19B)	-0.290	-0.425	0.132	16.174	16.357	31.372	-75.76	23.60	-95.60	-73.794	-37.338	3.724	-0.61069	0.29736	-0.55087	0.48486	30.6	13111	100
2025-3-27 20:32:16.498	WT901BLE68-01(48591DE3C19B)	-0.290	-0.626	0.198	9.827	8.484	43.213	-75.65	23.96	-95.63	-73.794	-37.338	3.724	-0.61069	0.29736	-0.55087	0.48486	30.6	13111	100
2025-3-27 20:32:16.498	WT901BLE68-01(48591DE3C19B)	-0.438	-0.626	0.198	9.827	8.484	43.213	-75.55	24.36	-95.59	-73.794	-37.338	3.724	-0.61069	0.29736	-0.55087	0.48486	30.6	13111	100
2025-3-27 20:32:16.526	WT901BLE68-01(48591DE3C19B)	-0.438	-0.958	0.225	-3.479	0.916	48.401	-75.49	24.79	-95.51	-73.794	-37.338	3.724	-0.61069	0.29736	-0.55087	0.48486	30.6	13111	100
2025-3-27 20:32:16.526	WT901BLE68-01(48591DE3C19B)	-0.536	-0.958	0.225	-3.479	0.916	48.401	-75.48	25.22	-95.38	-73.794	-37.338	3.724	-0.61069	0.29736	-0.55087	0.48486	30.6	13111	100
2025-3-27 20:32:16.526	WT901BLE68-01(48591DE3C19B)	-0.536	-1.529	0.212	-18.616	-0.366	39.185	-75.55	25.61	-95.26	-73.794	-37.338	3.724	-0.61069	0.29736	-0.55087	0.48486	30.6	13111	100
2025-3-27 20:32:16.527	WT901BLE68-01(48591DE3C19B)	-0.545	-1.529	0.212	-18.616	-0.366	39.185	-75.70	25.96	-95.14	-73.794	-37.338	3.724	-0.61069	0.29736	-0.55087	0.48486	30.6	13111	100
2025-3-27 20:32:16.557	WT901BLE68-01(48591DE3C19B)	-0.545	-1.972	0.203	-2.686	11.719	17.761	-75.82	26.21	-95.11	-73.794	-37.338	3.724	-0.61069	0.29736	-0.55087	0.48486	30.6	13111	100
2025-3-27 20:32:16.557	WT901BLE68-01(48591DE3C19B)	-0.633	-1.972	0.203	-2.686	11.719	17.761	-75.90	26.36	-95.17	-73.794	-37.338	3.724	-0.61069	0.29736	-0.55087	0.48486	30.6	13111	100
2025-3-27 20:32:16.558	WT901BLE68-01(48591DE3C19B)	-0.633	-1.856	0.297	3.723	12.756	4.456	-75.97	26.45	-95.26	-73.794	-37.338	3.724	-0.61069	0.29736	-0.55087	0.48486	30.6	13111	100
2025-3-27 20:32:16.558	WT901BLE68-01(48591DE3C19B)	-0.719	-1.856	0.297	3.723	12.756	4.456	-76.01	26.48	-95.36	-73.794	-37.338	3.724	-0.61069	0.29736	-0.55087	0.48486	30.6	13111	100
2025-3-27 20:32:16.618	WT901BLE68-01(48591DE3C19B)	-0.719	-1.494	0.455	-7.385	11.230	-22.461	-76.12	26.37	-95.49	-73.794	-37.338	3.724	-0.61069	0.29736	-0.55087	0.48486	30.6	13111	100
2025-3-27 20:32:16.618	WT901BLE68-01(48591DE3C19B)	-0.724	-1.494	0.455	-7.385	11.230	-22.461	-76.30	26.14	-95.66	-73.794	-37.338	3.724	-0.61069	0.29736	-0.55087	0.48486	30.6	13111	100
2025-3-27 20:32:16.618	WT901BLE68-01(48591DE3C19B)	-0.724	-1.154	0.577	-9.460	21.362	-27.100	-76.50	25.90	-95.88	-73.794	-37.338	3.724	-0.61069	0.29736	-0.55087	0.48486	30.6	13111	100
2025-3-27 20:32:16.618	WT901BLE68-01(48591DE3C19B)	-0.703	-1.154	0.577	-9.460	21.362	-27.100	-76.73	25.66	-96.18	-73.794	-37.338	3.724	-0.61069	0.29736	-0.55087	0.48486	30.6	13111	100
2025-3-27 20:32:16.646	WT901BLE68-01(48591DE3C19B)	-0.703	-0.890	0.558	-11.597	24.231	-23.865	-76.96	25.44	-96.49	-69.776	-43.218	5.586	-0.61069	0.29736	-0.55087	0.48486	30.6	13111	100
2025-3-27 20:32:16.646	WT901BLE68-01(48591DE3C19B)	-0.597	-0.890	0.558	-11.597	24.231	-23.865	-77.20	25.25	-96.81	-69.776	-43.218	5.586	-0.61069	0.29736	-0.55087	0.48486	30.6	13111	100
2025-3-27 20:32:16.646	WT901BLE68-01(48591DE3C19B)	-0.597	-0.751	0.400	-22.827	11.780	-26.062	-77.48	25.02	-97.01	-69.776	-43.218	5.586	-0.61069	0.29736	-0.55087	0.48486	30.6	13111	100
2025-3-27 20:32:16.647	WT901BLE68-01(48591DE3C19B)	-0.509	-0.751	0.400	-22.827	11.780	-26.062	-77.76	24.79	-97.22	-69.776	-43.218	5.586	-0.61069	0.29736	-0.55087	0.48486	30.6	13111	100
2025-3-27 20:32:16.707	WT901BLE68-01(48591DE3C19B)	-0.509	-0.837	0.189	-35.583	-16.296	-31.250	-78.04	24.46	-97.14	-69.776	-43.218	5.586	-0.61069	0.29736	-0.55087	0.48486	30.6	13111	100
2025-3-27 20:32:16.708	WT901BLE68-01(48591DE3C19B)	-0.503	-0.837	0.189	-35.583	-16.296	-31.250	-78.32	24.13	-97.05	-69.776	-43.218	5.586	-0.61069	0.29736	-0.55087	0.48486	30.6	13111	100
2025-3-27 20:32:16.708	WT901BLE68-01(48591DE3C19B)	-0.503	-0.841	0.057	-27.710	-40.100	-33.142	-78.42	23.74	-96.70	-69.776	-43.218	5.586	-0.61069	0.29736	-0.55087	0.48486	30.6	13111	100
2025-3-27 20:32:16.708	WT901BLE68-01(48591DE3C19B)	-0.491	-0.841	0.057	-27.710	-40.100	-33.142	-78.53	23.35	-96.36	-69.776	-43.218	5.586	-0.61069	0.29736	-0.55087	0.48486	30.6	13111	100
2025-3-27 20:32:16.737	WT901BLE68-01(48591DE3C19B)	-0.491	-0.659	0.080	-19.226	-49.500	-31.555	-78.52	22.97	-95.91	-69.776	-43.218	5.586	-0.61069	0.29736	-0.55087	0.48486	30.6	13111	100
2025-3-27 20:32:16.738	WT901BLE68-01(48591DE3C19B)	-0.409	-0.659	0.080	-19.226	-49.500	-31.555	-78.52	22.59	-95.46	-69.776	-43.218	5.586	-0.61069	0.29736	-0.55087	0.48486	30.6	13111	100
2025-3-27 20:32:16.738	WT901BLE68-01(48591DE3C19B)	-0.409	-0.455	0.174	-15.808	-42.969	-34.424	-78.51	22.21	-95.09	-69.776	-43.218	5.586	-0.61069	0.29736	-0.55087	0.48486	30.6	13111	100
2025-3-27 20:32:16.738	WT901BLE68-01(48591DE3C19B)	-0.276	-0.455	0.174	-15.808	-42.969	-34.424	-78.51	21.84	-94.74	-69.776	-43.218	5.586	-0.61069	0.29736	-0.55087	0.48486	30.6	13111	100
2025-3-27 20:32:16.768	WT901BLE68-01(48591DE3C19B)	-0.276	-0.265	0.245	-9.338	-15.198	-26.550	-78.54	21.59	-94.66	-69.776	-43.218	5.586	-0.61069	0.29736	-0.55087	0.48486	30.6	13111	100
2025-3-27 20:32:16.768	WT901BLE68-01(48591DE3C19B)	-0.238	-0.265	0.245	-9.338	-15.198	-26.550	-78.56	21.35	-94.59	-69.776	-43.218	5.586	-0.61069	0.29736	-0.55087	0.48486	30.6	13111	100
2025-3-27 20:32:16.768	WT901BLE68-01(48591DE3C19B)	-0.238	-0.118	0.288	-0.977	14.099	-14.771	-78.59	21.29	-94.82	-69.776	-43.218	5.586	-0.61069	0.29736	-0.55087	0.48486	30.6	13111	100
2025-3-27 20:32:16.768	WT901BLE68-01(48591DE3C19B)	-0.236	-0.118	0.288	-0.977	14.099	-14.771	-78.61	21.24	-95.06	-69.776	-43.218	5.586	-0.61069	0.29736	-0.55087	0.48486	30.6	13111	100
2025-3-27 20:32:16.799	WT901BLE68-01(48591DE3C19B)	-0.118	-0.017	0.273	-0.671	27.710	-2.808	-78.65	21.32	-95.44	-69.776	-43.218	5.586	-0.61069	0.29736	-0.55087	0.48486	30.6	13111	100
2025-3-27 20:32:16.800	WT901BLE68-01(48591DE3C19B)	-0.242	-0.008	0.137	-0.671	27.710	-2.808	-78.68	21.41	-95.83	-69.776	-43.218	5.586	-0.61069	0.29736	-0.55087	0.48486	30.6	13111	100
2025-3-27 20:32:16.800	WT901BLE68-01(48591DE3C19B)	-0.242	-0.039	0.240	-6.348	29.358	7.141	-78.76	21.60	-96.23	-69.776	-43.218	5.586	-0.61069	0.29736	-0.55087	0.48486	30.6	13111	100
2025-3-27 20:32:16.800	WT901BLE68-01(48591DE3C19B)	-0.298	-0.039	0.240	-6.348	29.358	7.141	-78.82	21.80	-96.65	-69.776	-43.218	5.586	-0.61069	0.29736	-0.55087	0.48486	30.6	13111	100
2025-3-27 20:32:16.858	WT901BLE68-01(48591DE3C19B)	-0.298	-0.197	0.191	-13.977	25.513	13.062	-78.93	22.04	-97.03	-69.776	-43.218	5.586	-0.61069	0.29736	-0.55087	0.48486	30.6	13111	100
2025-3-27 20:32:16.858	WT901BLE68-01(48591DE3C19B)	-0.390	-0.197	0.191	-13.977	25.513	13.062	-79.02	22.29	-97.42	-69.776	-43.218	5.586	-0.59186	0.29990	-0.56741	0.48752	30.6	13111	100
2025-3-27 20:32:16.858	WT901BLE68-01(48591DE3C19B)	-0.390	-0.475	0.149	-20.081	13.123	14.893	-79.15	22.52	-97.66	-69.776	-43.218	5.586	-0.59186	0.29990	-0.56741	0.48752	30.6	13111	100
2025-3-27 20:32:16.858	WT901BLE68-01(48591DE3C19B)	-0.410	-0.475	0.149	-20.081	13.123	14.893	-79.27	22.76	-97.90	-69.776	-43.218	5.586	-0.59186	0.29990	-0.56741	0.48752	30.6	13111	100
2025-3-27 20:32:16.887	WT901BLE68-01(48591DE3C19B)	-0.410	-0.835	0.104	-24.719	-11.169	9.460	-79.37	22.91	-97.87	-69.776	-43.218	5.586	-0.59186	0.29990	-0.56741	0.48752	30.6	13111	100
2025-3-27 20:32:16.887	WT901BLE68-01(48591DE3C19B)	-0.467	-0.835	0.104	-24.719	-11.169	9.460	-79.49	23.04	-97.81	-69.776	-43.218	5.586	-0.59186	0.29990	-0.56741	0.48752	30.6	13111	100
2025-3-27 20:32:16.887	WT901BLE68-01(48591DE3C19B)	-0.467	-1.441	0.103	-19.165	-28.687	-6.592	-79.51	22.98	-97.56	-69.776	-43.218	5.586	-0.59186	0.29990	-0.56741	0.48752	30.6	13111	100
2025-3-27 20:32:16.887	WT901BLE68-01(48591DE3C19B)	-0.571	-1.441	0.103	-19.165	-28.687	-6.592	-79.56	22.91	-97.27	-69.776	-43.218	5.586	-0.59186	0.29990	-0.56741	0.48752	30.6	13111	100
2025-3-27 20:32:16.948	WT901BLE68-01(48591DE3C19B)	-0.571	-2.468	0.026	-13.855	-29.358	-25.696	-79.58	22.62	-96.99	-69.776	-43.218	5.586	-0.59186	0.29990	-0.56741	0.48752	30.6	13111	100
2025-3-27 20:32:16.948	WT901BLE68-01(48591DE3C19B)	-0.561	-2.468	0.026	-13.855	-29.358	-25.696	-79.63	22.32	-96.70	-69.776	-43.218	5.586	-0.59186	0.29990	-0.56741	0.48752	30.6	13111	100
2025-3-27 20:32:16.948	WT901BLE68-01(48591DE3C19B)	-0.561	-2.833	-0.055	48.584	-7.935	-25.391	-79.16	22.04	-96.61	-69.776	-43.218	5.586	-0.59186	0.29990	-0.56741	0.48752	30.6	13111	100
2025-3-27 20:32:16.948	WT901BLE68-01(48591DE3C19B)	-0.196	-2.833	-0.055	48.584	-7.935	-25.391	-78.70	21.76	-96.52	-69.776	-43.218	5.586	-0.59186	0.29990	-0.56741	0.48752	30.6	13111	100
2025-3-27 20:32:17.8	WT901BLE68-01(48591DE3C19B)	-0.196	-1.643	-0.005	70.374	42.603	-35.706	-78.23	21.47	-96.98	-69.776	-43.218	5.586	-0.59186	0.29990	-0.56741	0.48752	30.6	13111	100
2025-3-27 20:32:17.9	WT901BLE68-01(48591DE3C19B)	0.064	-1.643	-0.005	70.374	42.603	-35.706	-77.76	21.17	-97.44	-69.776	-43.218	5.586	-0.59186	0.29990	-0.56741	0.48752	30.6	13111	100
2025-3-27 20:32:17.9	WT901BLE68-01(48591DE3C19B)	0.064	-1.189	0.041	42.725	97.534	-26.672	-77.77	21.07	-98.45	-69.776	-43.218	5.586	-0.59186	0.29990	-0.56741	0.48752	30.6	13111	100
2025-3-27 20:32:17.9	WT901BLE68-01(48591DE3C19B)	-0.152	-1.189	0.041	42.725	97.534	-26.672	-77.78	20.97	-99.45	-69.776	-43.218	5.586	-0.59186	0.29990	-0.56741	0.48752	30.6	13111	100
2025-3-27 20:32:17.9	WT901BLE68-01(48591DE3C19B)	-0.152	-0.956	0.232	25.146	120.605	-21.362	-78.04	20.96	-100.67	-69.776	-43.218	5.586	-0.59186	0.29990	-0.56741	0.48752	30.6	13111	100
2025-3-27 20:32:17.9	WT901BLE68-01(48591DE3C19B)	-0.483	-0.956	0.232	25.146	120.605	-21.362	-78.29	20.94	-101.89	-69.776	-43.218	5.586	-0.59186	0.29990	-0.56741	0.48752	30.6	13111	100
2025-3-27 20:32:17.10	WT901BLE68-01(48591DE3C19B)	-0.483	-0.800	0.390	15.320	74.463	-38.208	-78.48	20.67	-102.67	-69.776	-43.218	5.586	-0.59186	0.29990	-0.56741	0.48752	30.6	13111	100
2025-3-27 20:32:17.10	WT901BLE68-01(48591DE3C19B)	-0.398	-0.800	0.390	15.320	74.463	-38.208	-78.65	20.40	-103.44	-69.776	-43.218	5.586	-0.59186	0.29990	-0.56741	0.48752	30.6	13111	100
2025-3-27 20:32:17.248	WT901BLE68-01(48591DE3C19B)	-0.398	-0.622	0.399	5.859	18.250	-37.842	-78.69	20.04	-103.63	-69.776	-43.218	5.586	-0.59186	0.29990	-0.56741	0.48752	30.6	13111	100
2025-3-27 20:32:17.248	WT901BLE68-01(48591DE3C19B)	-0.226	-0.622	0.399	5.859	18.250	-37.842	-78.73	19.68	-103.83	-62.720	-48.608	7.252	-0.59186	0.29990	-0.56741	0.48752	30.6	13111	100
2025-3-27 20:32:17.248	WT901BLE68-01(48591DE3C19B)	-0.226	-0.418	0.270	8.728	11.719	-30.457	-78.70	19.40	-103.95	-62.720	-48.608	7.252	-0.59186	0.29990	-0.56741	0.48752	30.6	13111	100
2025-3-27 20:32:17.248	WT901BLE68-01(48591DE3C19B)	-0.179	-0.418	0.270	8.728	11.719	-30.457	-78.67	19.11	-104.07	-62.720	-48.608	7.252	-0.59186	0.29990	-0.56741	0.48752	30.6	13111	100
2025-3-27 20:32:17.249	WT901BLE68-01(48591DE3C19B)	-0.179	-0.311	0.117	11.292	27.527	-19.714	-78.65	18.96	-104.35	-62.720	-48.608	7.252	-0.59186	0.29990	-0.56741	0.48752	30.6	13111	100
2025-3-27 20:32:17.249	WT901BLE68-01(48591DE3C19B)	-0.120	-0.311	0.117	11.292	27.527	-19.714	-78.63	18.83	-104.62	-62.720	-48.608	7.252	-0.59186	0.29990	-0.56741	0.48752	30.6	13111	100
2025-3-27 20:32:17.249	WT901BLE68-01(48591DE3C19B)	-0.149	-0.360	0.055	13.855	45.105	-4.639	-78.63	18.86	-105.04	-62.720	-48.608	7.252	-0.59186	0.29990	-0.56741	0.48752	30.6	13111	100
2025-3-27 20:32:17.249	WT901BLE68-01(48591DE3C19B)	-0.149	-0.393	0.043	20.081	65.796	7.568	-78.64	18.99	-105.55	-62.720	-48.608	7.252	-0.59186	0.29990	-0.56741	0.48752	30.6	13111	100
2025-3-27 20:32:17.250	WT901BLE68-01(48591DE3C19B)	-0.278	-0.393	0.043	20.081	65.796	7.568	-78.65	19.19	-106.16	-62.720	-48.608	7.252	-0.59186	0.29990	-0.56741	0.48752	30.6	13111	100
2025-3-27 20:32:17.250	WT901BLE68-01(48591DE3C19B)	-0.278	-0.297	0.054	23.621	75.745	32.104	-78.66	19.52	-106.78	-62.720	-48.608	7.252	-0.59186	0.29990	-0.56741	0.48752	30.6	13111	100
2025-3-27 20:32:17.250	WT901BLE68-01(48591DE3C19B)	-0.341	-0.297	0.054	23.621	75.745	32.104	-78.66	19.99	-107.43	-62.720	-48.608	7.252	-0.59186	0.29990	-0.56741	0.48752	30.6	13111	100
2025-3-27 20:32:17.250	WT901BLE68-01(48591DE3C19B)	-0.341	-0.304	0.022	7.751	60.242	49.438	-78.72	20.53	-107.98	-62.720	-48.608	7.252	-0.59186	0.29990	-0.56741	0.48752	30.6	13111	100
2025-3-27 20:32:17.250	WT901BLE68-01(48591DE3C19B)	-0.340	-0.304	0.022	7.751	60.242	49.438	-78.83	21.15	-108.43	-62.720	-48.608	7.252	-0.59186	0.29990	-0.56741	0.48752	30.6	13111	100
2025-3-27 20:32:17.251	WT901BLE68-01(48591DE3C19B)	-0.340	-0.523	0.011	-8.667	41.931	64.819	-78.99	21.82	-108.76	-62.720	-48.608	7.252	-0.59186	0.29990	-0.56741	0.48752	30.6	13111	100
2025-3-27 20:32:17.251	WT901BLE68-01(48591DE3C19B)	-0.364	-0.523	0.011	-8.667	41.931	64.819	-79.19	22.56	-108.98	-62.720	-48.608	7.252	-0.59186	0.29990	-0.56741	0.48752	30.6	13111	100
2025-3-27 20:32:17.251	WT901BLE68-01(48591DE3C19B)	-0.364	-0.768	-0.017	-20.935	33.447	70.129	-79.46	23.31	-109.15	-62.720	-48.608	7.252	-0.59186	0.29990	-0.56741	0.48752	30.6	13111	100
2025-3-27 20:32:17.251	WT901BLE68-01(48591DE3C19B)	-0.442	-0.768	-0.017	-20.935	33.447	70.129	-79.78	24.08	-109.25	-62.720	-48.608	7.252	-0.59186	0.29990	-0.56741	0.48752	30.6	13111	100
2025-3-27 20:32:17.251	WT901BLE68-01(48591DE3C19B)	-0.442	-1.186	0.004	-32.654	27.832	53.894	-80.15	24.74	-109.34	-62.720	-48.608	7.252	-0.59186	0.29990	-0.56741	0.48752	30.6	13111	100
2025-3-27 20:32:17.251	WT901BLE68-01(48591DE3C19B)	-0.630	-1.186	0.004	-32.654	27.832	53.894	-80.58	25.32	-109.40	-62.720	-48.608	7.252	-0.59186	0.29990	-0.56741	0.48752	30.6	13111	100
2025-3-27 20:32:17.251	WT901BLE68-01(48591DE3C19B)	-0.630	-1.777	0.166	-19.165	21.301	17.029	-80.96	25.69	-109.46	-62.720	-48.608	7.252	-0.59186	0.29990	-0.56741	0.48752	30.6	13111	100
2025-3-27 20:32:17.252	WT901BLE68-01(48591DE3C19B)	-0.923	-1.777	0.166	-19.165	21.301	17.029	-81.25	25.87	-109.52	-62.720	-48.608	7.252	-0.59186	0.29990	-0.56741	0.48752	30.6	13111	100
2025-3-27 20:32:17.252	WT901BLE68-01(48591DE3C19B)	-0.923	-2.108	0.380	-5.371	-1.404	-19.836	-81.44	25.85	-109.49	-62.720	-48.608	7.252	-0.59186	0.29990	-0.56741	0.48752	30.6	13111	100
2025-3-27 20:32:17.252	WT901BLE68-01(48591DE3C19B)	-1.005	-2.108	0.380	-5.371	-1.404	-19.836	-81.51	25.64	-109.38	-62.720	-48.608	7.252	-0.59186	0.29990	-0.56741	0.48752	30.6	13111	100
2025-3-27 20:32:17.252	WT901BLE68-01(48591DE3C19B)	-1.005	-1.675	0.482	20.813	-5.737	-45.166	-81.45	25.30	-109.28	-62.720	-48.608	7.252	-0.59186	0.29990	-0.56741	0.48752	30.6	13111	100
2025-3-27 20:32:17.308	WT901BLE68-01(48591DE3C19B)	-0.799	-1.675	0.482	20.813	-5.737	-45.166	-81.24	24.83	-109.19	-62.720	-48.608	7.252	-0.59186	0.29990	-0.56741	0.48752	30.6	13111	100
2025-3-27 20:32:17.308	WT901BLE68-01(48591DE3C19B)	-0.799	-1.151	0.452	20.020	24.536	-37.231	-81.11	24.44	-109.27	-62.720	-48.608	7.252	-0.54089	0.23666	-0.61093	0.52731	30.6	13111	100
2025-3-27 20:32:17.309	WT901BLE68-01(48591DE3C19B)	-0.674	-1.151	0.452	20.020	24.536	-37.231	-81.04	24.13	-109.53	-62.720	-48.608	7.252	-0.54089	0.23666	-0.61093	0.52731	30.6	13111	100
2025-3-27 20:32:17.309	WT901BLE68-01(48591DE3C19B)	-0.674	-1.001	0.372	10.376	41.382	-26.367	-81.04	23.88	-109.87	-62.720	-48.608	7.252	-0.54089	0.23666	-0.61093	0.52731	30.6	13111	100
2025-3-27 20:32:17.336	WT901BLE68-01(48591DE3C19B)	-0.520	-1.001	0.372	10.376	41.382	-26.367	-81.11	23.71	-110.31	-62.720	-48.608	7.252	-0.54089	0.23666	-0.61093	0.52731	30.6	13111	100
2025-3-27 20:32:17.336	WT901BLE68-01(48591DE3C19B)	-0.520	-0.961	0.256	-2.197	19.897	-23.193	-81.19	23.54	-110.64	-62.720	-48.608	7.252	-0.54089	0.23666	-0.61093	0.52731	30.6	13111	100
2025-3-27 20:32:17.337	WT901BLE68-01(48591DE3C19B)	-0.499	-0.961	0.256	-2.197	19.897	-23.193	-81.29	23.36	-110.86	-62.720	-48.608	7.252	-0.54089	0.23666	-0.61093	0.52731	30.6	13111	100
2025-3-27 20:32:17.337	WT901BLE68-01(48591DE3C19B)	-0.499	-0.888	0.210	-12.451	-26.794	-8.728	-81.34	23.23	-110.81	-62.720	-48.608	7.252	-0.54089	0.23666	-0.61093	0.52731	30.6	13111	100
2025-3-27 20:32:17.457	WT901BLE68-01(48591DE3C19B)	-0.488	-0.888	0.210	-12.451	-26.794	-8.728	-81.33	23.13	-110.50	-62.720	-48.608	7.252	-0.54089	0.23666	-0.61093	0.52731	30.6	13111	100
2025-3-27 20:32:17.458	WT901BLE68-01(48591DE3C19B)	-0.488	-0.859	0.201	-20.935	-78.308	1.465	-81.25	23.04	-109.91	-62.720	-48.608	7.252	-0.54089	0.23666	-0.61093	0.52731	30.6	13111	100
2025-3-27 20:32:17.458	WT901BLE68-01(48591DE3C19B)	-0.325	-0.859	0.201	-20.935	-78.308	1.465	-81.11	22.97	-109.04	-62.720	-48.608	7.252	-0.54089	0.23666	-0.61093	0.52731	30.6	13111	100
2025-3-27 20:32:17.458	WT901BLE68-01(48591DE3C19B)	-0.325	-0.729	0.200	-13.306	-90.027	10.620	-80.90	22.93	-108.12	-62.720	-48.608	7.252	-0.54089	0.23666	-0.61093	0.52731	30.6	13111	100
2025-3-27 20:32:17.459	WT901BLE68-01(48591DE3C19B)	-0.152	-0.729	0.200	-13.306	-90.027	10.620	-80.62	22.92	-107.13	-62.720	-48.608	7.252	-0.54089	0.23666	-0.61093	0.52731	30.6	13111	100
2025-3-27 20:32:17.459	WT901BLE68-01(48591DE3C19B)	-0.152	-0.466	0.196	-1.587	-56.763	18.921	-80.36	22.97	-106.31	-62.720	-48.608	7.252	-0.54089	0.23666	-0.61093	0.52731	30.6	13111	100
2025-3-27 20:32:17.459	WT901BLE68-01(48591DE3C19B)	-0.041	-0.466	0.196	-1.587	-56.763	18.921	-80.10	23.08	-105.67	-62.720	-48.608	7.252	-0.54089	0.23666	-0.61093	0.52731	30.6	13111	100
2025-3-27 20:32:17.459	WT901BLE68-01(48591DE3C19B)	-0.041	-0.218	0.220	9.338	-4.028	33.203	-79.88	23.30	-105.31	-62.720	-48.608	7.252	-0.54089	0.23666	-0.61093	0.52731	30.6	13111	100
2025-3-27 20:32:17.489	WT901BLE68-01(48591DE3C19B)	-0.093	-0.218	0.220	9.338	-4.028	33.203	-79.71	23.63	-105.23	-62.720	-48.608	7.252	-0.54089	0.23666	-0.61093	0.52731	30.6	13111	100
2025-3-27 20:32:17.490	WT901BLE68-01(48591DE3C19B)	-0.093	-0.117	0.204	11.475	35.461	43.945	-79.61	24.04	-105.36	-62.720	-48.608	7.252	-0.54089	0.23666	-0.61093	0.52731	30.6	13111	100
2025-3-27 20:32:17.490	WT901BLE68-01(48591DE3C19B)	-0.200	-0.117	0.204	11.475	35.461	43.945	-79.57	24.54	-105.70	-62.720	-48.608	7.252	-0.54089	0.23666	-0.61093	0.52731	30.6	13111	100
2025-3-27 20:32:17.490	WT901BLE68-01(48591DE3C19B)	-0.200	-0.197	0.125	2.319	44.739	47.119	-79.59	25.07	-106.09	-62.720	-48.608	7.252	-0.54089	0.23666	-0.61093	0.52731	30.6	13111	100
2025-3-27 20:32:17.490	WT901BLE68-01(48591DE3C19B)	-0.321	-0.197	0.125	2.319	44.739	47.119	-79.68	25.61	-106.56	-62.720	-48.608	7.252	-0.54089	0.23666	-0.61093	0.52731	30.6	13111	100
2025-3-27 20:32:17.490	WT901BLE68-01(48591DE3C19B)	-0.321	-0.406	0.045	-11.353	32.349	44.678	-79.81	26.13	-106.96	-62.720	-48.608	7.252	-0.54089	0.23666	-0.61093	0.52731	30.6	13111	100
2025-3-27 20:32:17.490	WT901BLE68-01(48591DE3C19B)	-0.368	-0.406	0.045	-11.353	32.349	44.678	-79.99	26.63	-107.29	-57.330	-57.330	5.390	-0.54089	0.23666	-0.61093	0.52731	30.6	13111	100
2025-3-27 20:32:17.490	WT901BLE68-01(48591DE3C19B)	-0.368	-0.707	-0.030	-31.677	0.366	36.316	-80.21	27.06	-107.46	-57.330	-57.330	5.390	-0.54089	0.23666	-0.61093	0.52731	30.6	13111	100
2025-3-27 20:32:17.547	WT901BLE68-01(48591DE3C19B)	-0.312	-0.707	-0.030	-31.677	0.366	36.316	-80.46	27.43	-107.43	-57.330	-57.330	5.390	-0.54089	0.23666	-0.61093	0.52731	30.6	13111	100
2025-3-27 20:32:17.547	WT901BLE68-01(48591DE3C19B)	-0.312	-1.156	-0.060	-35.461	-39.856	23.315	-80.65	27.69	-107.16	-57.330	-57.330	5.390	-0.54089	0.23666	-0.61093	0.52731	30.6	13111	100
2025-3-27 20:32:17.548	WT901BLE68-01(48591DE3C19B)	-0.517	-1.156	-0.060	-35.461	-39.856	23.315	-80.77	27.84	-106.64	-57.330	-57.330	5.390	-0.54089	0.23666	-0.61093	0.52731	30.6	13111	100
2025-3-27 20:32:17.548	WT901BLE68-01(48591DE3C19B)	-0.517	-1.856	0.021	-26.611	-62.500	1.770	-80.80	27.87	-106.00	-57.330	-57.330	5.390	-0.54089	0.23666	-0.61093	0.52731	30.6	13111	100
2025-3-27 20:32:17.637	WT901BLE68-01(48591DE3C19B)	-0.693	-1.856	0.021	-26.611	-62.500	1.770	-80.76	27.75	-105.23	-57.330	-57.330	5.390	-0.54089	0.23666	-0.61093	0.52731	30.6	13111	100
2025-3-27 20:32:17.637	WT901BLE68-01(48591DE3C19B)	-0.693	-2.516	0.198	-2.625	-85.327	-17.395	-80.38	27.40	-104.24	-57.330	-57.330	5.390	-0.54089	0.23666	-0.61093	0.52731	30.6	13111	100
2025-3-27 20:32:17.638	WT901BLE68-01(48591DE3C19B)	-0.561	-2.516	0.198	-2.625	-85.327	-17.395	-80.01	27.04	-103.26	-57.330	-57.330	5.390	-0.54089	0.23666	-0.61093	0.52731	30.6	13111	100
2025-3-27 20:32:17.638	WT901BLE68-01(48591DE3C19B)	-0.561	-1.996	0.285	39.429	-80.750	-21.301	-79.26	26.63	-102.36	-57.330	-57.330	5.390	-0.54089	0.23666	-0.61093	0.52731	30.6	13111	100
2025-3-27 20:32:17.639	WT901BLE68-01(48591DE3C19B)	-0.186	-1.996	0.285	39.429	-80.750	-21.301	-78.51	26.22	-101.48	-57.330	-57.330	5.390	-0.54089	0.23666	-0.61093	0.52731	30.6	13111	100
2025-3-27 20:32:17.639	WT901BLE68-01(48591DE3C19B)	-0.186	-1.429	0.187	33.569	-13.184	-23.193	-78.17	25.91	-101.34	-57.330	-57.330	5.390	-0.54089	0.23666	-0.61093	0.52731	30.6	13111	100
2025-3-27 20:32:17.639	WT901BLE68-01(48591DE3C19B)	-0.138	-1.429	0.187	33.569	-13.184	-23.193	-77.83	25.60	-101.21	-57.330	-57.330	5.390	-0.54089	0.23666	-0.61093	0.52731	30.6	13111	100
2025-3-27 20:32:17.639	WT901BLE68-01(48591DE3C19B)	-0.138	-1.132	0.165	33.264	58.777	-21.362	-77.82	25.46	-101.85	-57.330	-57.330	5.390	-0.54089	0.23666	-0.61093	0.52731	30.6	13111	100
2025-3-27 20:32:17.728	WT901BLE68-01(48591DE3C19B)	-0.229	-1.132	0.165	33.264	58.777	-21.362	-77.81	25.31	-102.49	-57.330	-57.330	5.390	-0.54089	0.23666	-0.61093	0.52731	30.6	13111	100
2025-3-27 20:32:17.728	WT901BLE68-01(48591DE3C19B)	-0.229	-0.809	0.234	30.762	88.135	-17.395	-77.95	25.26	-103.44	-57.330	-57.330	5.390	-0.54089	0.23666	-0.61093	0.52731	30.6	13111	100
2025-3-27 20:32:17.728	WT901BLE68-01(48591DE3C19B)	-0.352	-0.809	0.234	30.762	88.135	-17.395	-78.09	25.20	-104.39	-57.330	-57.330	5.390	-0.54089	0.23666	-0.61093	0.52731	30.6	13111	100
2025-3-27 20:32:17.728	WT901BLE68-01(48591DE3C19B)	-0.352	-0.588	0.332	19.897	74.280	-21.973	-78.27	25.08	-105.19	-57.330	-57.330	5.390	-0.54089	0.23666	-0.61093	0.52731	30.6	13111	100
2025-3-27 20:32:17.729	WT901BLE68-01(48591DE3C19B)	-0.410	-0.588	0.332	19.897	74.280	-21.973	-78.44	24.97	-106.01	-57.330	-57.330	5.390	-0.56293	0.23718	-0.59418	0.52316	30.6	13111	100
2025-3-27 20:32:17.729	WT901BLE68-01(48591DE3C19B)	-0.410	-0.483	0.368	13.855	38.879	-19.409	-78.49	24.81	-106.45	-57.330	-57.330	5.390	-0.56293	0.23718	-0.59418	0.52316	30.6	13111	100
2025-3-27 20:32:17.729	WT901BLE68-01(48591DE3C19B)	-0.354	-0.483	0.368	13.855	38.879	-19.409	-78.54	24.66	-106.91	-57.330	-57.330	5.390	-0.56293	0.23718	-0.59418	0.52316	30.6	13111	100
2025-3-27 20:32:17.729	WT901BLE68-01(48591DE3C19B)	-0.354	-0.307	0.315	16.724	17.212	-7.263	-78.44	24.59	-107.12	-57.330	-57.330	5.390	-0.56293	0.23718	-0.59418	0.52316	30.6	13111	100
2025-3-27 20:32:17.729	WT901BLE68-01(48591DE3C19B)	-0.261	-0.307	0.315	16.724	17.212	-7.263	-78.33	24.53	-107.35	-57.330	-57.330	5.390	-0.56293	0.23718	-0.59418	0.52316	30.6	13111	100
2025-3-27 20:32:17.729	WT901BLE68-01(48591DE3C19B)	-0.261	-0.169	0.182	16.968	15.076	9.888	-78.20	24.64	-107.55	-57.330	-57.330	5.390	-0.56293	0.23718	-0.59418	0.52316	30.6	13111	100
2025-3-27 20:32:17.730	WT901BLE68-01(48591DE3C19B)	-0.229	-0.169	0.182	16.968	15.076	9.888	-78.05	24.76	-107.75	-57.330	-57.330	5.390	-0.56293	0.23718	-0.59418	0.52316	30.6	13111	100
2025-3-27 20:32:17.730	WT901BLE68-01(48591DE3C19B)	-0.229	-0.158	0.102	14.343	19.836	27.283	-77.93	25.05	-107.97	-57.330	-57.330	5.390	-0.56293	0.23718	-0.59418	0.52316	30.6	13111	100
2025-3-27 20:32:17.819	WT901BLE68-01(48591DE3C19B)	-0.239	-0.158	0.102	14.343	19.836	27.283	-77.82	25.36	-108.22	-57.330	-57.330	5.390	-0.56293	0.23718	-0.59418	0.52316	30.6	13111	100
2025-3-27 20:32:17.819	WT901BLE68-01(48591DE3C19B)	-0.239	-0.233	0.063	10.315	20.264	37.292	-77.73	25.76	-108.45	-57.330	-57.330	5.390	-0.56293	0.23718	-0.59418	0.52316	30.6	13111	100
2025-3-27 20:32:17.819	WT901BLE68-01(48591DE3C19B)	-0.278	-0.233	0.063	10.315	20.264	37.292	-77.65	26.17	-108.69	-57.330	-57.330	5.390	-0.56293	0.23718	-0.59418	0.52316	30.6	13111	100
2025-3-27 20:32:17.819	WT901BLE68-01(48591DE3C19B)	-0.278	-0.344	0.022	3.967	20.874	51.636	-77.62	26.72	-108.90	-57.330	-57.330	5.390	-0.56293	0.23718	-0.59418	0.52316	30.6	13111	100
2025-3-27 20:32:17.820	WT901BLE68-01(48591DE3C19B)	-0.394	-0.344	0.022	3.967	20.874	51.636	-77.60	27.28	-109.12	-57.330	-57.330	5.390	-0.56293	0.23718	-0.59418	0.52316	30.6	13111	100
2025-3-27 20:32:17.820	WT901BLE68-01(48591DE3C19B)	-0.394	-0.542	0.000	-4.700	5.249	49.988	-77.60	27.78	-109.17	-57.330	-57.330	5.390	-0.56293	0.23718	-0.59418	0.52316	30.6	13111	100
2025-3-27 20:32:17.820	WT901BLE68-01(48591DE3C19B)	-0.497	-0.542	0.000	-4.700	5.249	49.988	-77.61	28.30	-109.20	-57.330	-57.330	5.390	-0.56293	0.23718	-0.59418	0.52316	30.6	13111	100
2025-3-27 20:32:17.820	WT901BLE68-01(48591DE3C19B)	-0.497	-0.756	0.027	-14.343	-18.005	43.396	-77.60	28.70	-108.99	-57.330	-57.330	5.390	-0.56293	0.23718	-0.59418	0.52316	30.6	13111	100
2025-3-27 20:32:17.849	WT901BLE68-01(48591DE3C19B)	-0.541	-0.756	0.027	-14.343	-18.005	43.396	-77.60	29.09	-108.76	-57.330	-57.330	5.390	-0.56293	0.23718	-0.59418	0.52316	30.6	13111	100
2025-3-27 20:32:17.849	WT901BLE68-01(48591DE3C19B)	-0.541	-1.112	0.082	-24.231	-41.321	24.902	-77.61	29.26	-108.29	-57.330	-57.330	5.390	-0.56293	0.23718	-0.59418	0.52316	30.6	13111	100
2025-3-27 20:32:17.849	WT901BLE68-01(48591DE3C19B)	-0.614	-1.112	0.082	-24.231	-41.321	24.902	-77.61	29.42	-107.80	-57.526	-65.660	2.548	-0.56293	0.23718	-0.59418	0.52316	30.6	13111	100
2025-3-27 20:32:17.849	WT901BLE68-01(48591DE3C19B)	-0.614	-1.813	0.210	-16.724	-51.147	-22.827	-77.55	29.08	-107.30	-57.526	-65.660	2.548	-0.56293	0.23718	-0.59418	0.52316	30.6	13111	100
2025-3-27 20:32:17.907	WT901BLE68-01(48591DE3C19B)	-0.813	-1.813	0.210	-16.724	-51.147	-22.827	-77.50	28.72	-106.79	-57.526	-65.660	2.548	-0.56293	0.23718	-0.59418	0.52316	30.6	13111	100
2025-3-27 20:32:17.908	WT901BLE68-01(48591DE3C19B)	-0.813	-2.328	0.356	0.916	-51.880	-51.331	-77.31	28.09	-106.34	-57.526	-65.660	2.548	-0.56293	0.23718	-0.59418	0.52316	30.6	13111	100
2025-3-27 20:32:17.908	WT901BLE68-01(48591DE3C19B)	-0.949	-2.328	0.356	0.916	-51.880	-51.331	-77.11	27.45	-105.90	-57.526	-65.660	2.548	-0.56293	0.23718	-0.59418	0.52316	30.6	13111	100
2025-3-27 20:32:17.908	WT901BLE68-01(48591DE3C19B)	-0.949	-1.796	0.461	31.372	-24.536	-66.895	-76.78	26.72	-105.82	-57.526	-65.660	2.548	-0.56293	0.23718	-0.59418	0.52316	30.6	13111	100
2025-3-27 20:32:17.936	WT901BLE68-01(48591DE3C19B)	-0.681	-1.796	0.461	31.372	-24.536	-66.895	-76.45	26.00	-105.76	-57.526	-65.660	2.548	-0.56293	0.23718	-0.59418	0.52316	30.6	13111	100
2025-3-27 20:32:17.936	WT901BLE68-01(48591DE3C19B)	-0.681	-1.088	0.465	28.503	23.071	-59.265	-76.36	25.48	-106.22	-57.526	-65.660	2.548	-0.56293	0.23718	-0.59418	0.52316	30.6	13111	100
2025-3-27 20:32:17.936	WT901BLE68-01(48591DE3C19B)	-0.517	-1.088	0.465	28.503	23.071	-59.265	-76.26	24.96	-106.69	-57.526	-65.660	2.548	-0.56293	0.23718	-0.59418	0.52316	30.6	13111	100
2025-3-27 20:32:17.936	WT901BLE68-01(48591DE3C19B)	-0.517	-0.769	0.471	19.287	62.134	-48.645	-76.40	24.64	-107.57	-57.526	-65.660	2.548	-0.56293	0.23718	-0.59418	0.52316	30.6	13111	100
2025-3-27 20:32:17.967	WT901BLE68-01(48591DE3C19B)	-0.488	-0.769	0.471	19.287	62.134	-48.645	-76.53	24.32	-108.46	-57.526	-65.660	2.548	-0.56293	0.23718	-0.59418	0.52316	30.6	13111	100
2025-3-27 20:32:17.967	WT901BLE68-01(48591DE3C19B)	-0.488	-0.499	0.402	12.939	60.181	-32.043	-76.67	24.16	-109.31	-57.526	-65.660	2.548	-0.56293	0.23718	-0.59418	0.52316	30.6	13111	100
2025-3-27 20:32:17.967	WT901BLE68-01(48591DE3C19B)	-0.499	-0.499	0.402	12.939	60.181	-32.043	-76.81	24.01	-110.18	-57.526	-65.660	2.548	-0.56293	0.23718	-0.59418	0.52316	30.6	13111	100
2025-3-27 20:32:17.967	WT901BLE68-01(48591DE3C19B)	-0.499	-0.398	0.308	-16.479	-5.493	-26.123	-76.94	23.76	-110.36	-57.526	-65.660	2.548	-0.56293	0.23718	-0.59418	0.52316	30.6	13111	100
2025-3-27 20:32:18.27	WT901BLE68-01(48591DE3C19B)	-0.315	-0.398	0.308	-16.479	-5.493	-26.123	-77.06	23.52	-110.56	-57.526	-65.660	2.548	-0.56293	0.23718	-0.59418	0.52316	30.6	13111	100
2025-3-27 20:32:18.27	WT901BLE68-01(48591DE3C19B)	-0.198	-0.519	0.192	-37.903	-67.261	-16.296	-77.12	23.24	-110.08	-57.526	-65.660	2.548	-0.56293	0.23718	-0.59418	0.52316	30.6	13111	100
2025-3-27 20:32:18.27	WT901BLE68-01(48591DE3C19B)	-0.198	-0.549	0.130	-22.400	-58.472	-3.052	-77.12	23.03	-109.64	-57.526	-65.660	2.548	-0.56293	0.23718	-0.59418	0.52316	30.6	13111	100
2025-3-27 20:32:18.27	WT901BLE68-01(48591DE3C19B)	-0.210	-0.549	0.130	-22.400	-58.472	-3.052	-77.06	22.90	-109.23	-57.526	-65.660	2.548	-0.56293	0.23718	-0.59418	0.52316	30.6	13111	100
2025-3-27 20:32:18.58	WT901BLE68-01(48591DE3C19B)	-0.210	-0.347	0.086	-9.460	-20.264	4.028	-77.02	22.84	-109.00	-57.526	-65.660	2.548	-0.54572	0.22827	-0.58682	0.55283	30.6	13111	100
2025-3-27 20:32:18.58	WT901BLE68-01(48591DE3C19B)	-0.154	-0.347	0.086	-9.460	-20.264	4.028	-76.99	22.86	-108.97	-57.526	-65.660	2.548	-0.54572	0.22827	-0.58682	0.55283	30.6	13111	100
2025-3-27 20:32:18.58	WT901BLE68-01(48591DE3C19B)	-0.154	-0.173	0.042	-7.629	11.047	13.184	-77.00	22.96	-109.09	-57.526	-65.660	2.548	-0.54572	0.22827	-0.58682	0.55283	30.6	13111	100
2025-3-27 20:32:18.58	WT901BLE68-01(48591DE3C19B)	-0.169	-0.173	0.042	-7.629	11.047	13.184	-77.07	23.14	-109.37	-57.526	-65.660	2.548	-0.54572	0.22827	-0.58682	0.55283	30.6	13111	100
2025-3-27 20:32:18.86	WT901BLE68-01(48591DE3C19B)	-0.169	-0.198	0.044	-16.235	31.738	18.494	-77.23	23.37	-109.76	-57.526	-65.660	2.548	-0.54572	0.22827	-0.58682	0.55283	30.6	13111	100
2025-3-27 20:32:18.87	WT901BLE68-01(48591DE3C19B)	-0.332	-0.198	0.044	-16.235	31.738	18.494	-77.46	23.64	-110.26	-57.526	-65.660	2.548	-0.54572	0.22827	-0.58682	0.55283	30.6	13111	100
2025-3-27 20:32:18.87	WT901BLE68-01(48591DE3C19B)	-0.332	-0.489	0.072	-25.513	26.855	16.479	-77.74	23.91	-110.74	-57.526	-65.660	2.548	-0.54572	0.22827	-0.58682	0.55283	30.6	13111	100
2025-3-27 20:32:18.87	WT901BLE68-01(48591DE3C19B)	-0.472	-0.489	0.072	-25.513	26.855	16.479	-78.06	24.15	-111.20	-57.526	-65.660	2.548	-0.54572	0.22827	-0.58682	0.55283	30.6	13111	100
2025-3-27 20:32:18.147	WT901BLE68-01(48591DE3C19B)	-0.472	-0.779	0.073	-31.860	-3.723	14.465	-78.34	24.36	-111.50	-57.526	-65.660	2.548	-0.54572	0.22827	-0.58682	0.55283	30.6	13111	100
2025-3-27 20:32:18.147	WT901BLE68-01(48591DE3C19B)	-0.442	-0.779	0.073	-31.860	-3.723	14.465	-78.61	24.53	-111.63	-57.526	-65.660	2.548	-0.54572	0.22827	-0.58682	0.55283	30.6	13111	100
2025-3-27 20:32:18.147	WT901BLE68-01(48591DE3C19B)	-0.442	-1.127	0.005	-42.786	-38.330	10.254	-78.85	24.64	-111.57	-57.526	-65.660	2.548	-0.54572	0.22827	-0.58682	0.55283	30.6	13111	100
2025-3-27 20:32:18.147	WT901BLE68-01(48591DE3C19B)	-0.481	-1.127	0.005	-42.786	-38.330	10.254	-79.09	24.70	-111.28	-57.526	-65.660	2.548	-0.54572	0.22827	-0.58682	0.55283	30.6	13111	100
2025-3-27 20:32:18.176	WT901BLE68-01(48591DE3C19B)	-0.481	-1.799	0.055	-37.415	-54.810	-5.249	-79.29	24.65	-110.89	-57.526	-65.660	2.548	-0.54572	0.22827	-0.58682	0.55283	30.6	13111	100
2025-3-27 20:32:18.176	WT901BLE68-01(48591DE3C19B)	-0.654	-1.799	0.055	-37.415	-54.810	-5.249	-79.44	24.51	-110.37	-57.526	-65.660	2.548	-0.54572	0.22827	-0.58682	0.55283	30.6	13111	100
2025-3-27 20:32:18.176	WT901BLE68-01(48591DE3C19B)	-0.654	-2.515	0.150	-16.846	-69.214	-9.644	-79.46	24.31	-109.76	-57.526	-65.660	2.548	-0.54572	0.22827	-0.58682	0.55283	30.6	13111	100
2025-3-27 20:32:18.176	WT901BLE68-01(48591DE3C19B)	-0.667	-2.515	0.150	-16.846	-69.214	-9.644	-79.37	24.08	-109.06	-57.526	-65.660	2.548	-0.54572	0.22827	-0.58682	0.55283	30.6	13111	100
2025-3-27 20:32:18.209	WT901BLE68-01(48591DE3C19B)	-0.667	-2.077	0.276	26.489	-81.970	-16.296	-79.03	23.79	-108.30	-57.526	-65.660	2.548	-0.54572	0.22827	-0.58682	0.55283	30.6	13111	100
2025-3-27 20:32:18.209	WT901BLE68-01(48591DE3C19B)	-0.229	-2.077	0.276	26.489	-81.970	-16.296	-78.46	23.44	-107.49	-57.526	-65.660	2.548	-0.54572	0.22827	-0.58682	0.55283	30.6	13111	100
2025-3-27 20:32:18.210	WT901BLE68-01(48591DE3C19B)	-0.229	-1.456	0.270	18.433	-50.659	-9.583	-78.01	23.16	-106.85	-57.526	-65.660	2.548	-0.54572	0.22827	-0.58682	0.55283	30.6	13111	100
2025-3-27 20:32:18.210	WT901BLE68-01(48591DE3C19B)	-0.053	-1.456	0.270	18.433	-50.659	-9.583	-77.66	22.93	-106.38	-57.526	-65.660	2.548	-0.54572	0.22827	-0.58682	0.55283	30.6	13111	100
2025-3-27 20:32:18.298	WT901BLE68-01(48591DE3C19B)	-0.053	-1.196	0.279	18.982	22.278	-1.526	-77.45	22.82	-106.28	-57.526	-65.660	2.548	-0.54572	0.22827	-0.58682	0.55283	30.6	13111	100
2025-3-27 20:32:18.298	WT901BLE68-01(48591DE3C19B)	-0.150	-1.196	0.279	18.982	22.278	-1.526	-77.39	22.81	-106.56	-58.800	-69.678	-6.664	-0.54572	0.22827	-0.58682	0.55283	30.6	13111	100
2025-3-27 20:32:18.298	WT901BLE68-01(48591DE3C19B)	-0.150	-0.949	0.292	18.921	75.195	0.549	-77.43	22.87	-107.12	-58.800	-69.678	-6.664	-0.54572	0.22827	-0.58682	0.55283	30.6	13111	100
2025-3-27 20:32:18.298	WT901BLE68-01(48591DE3C19B)	-0.323	-0.949	0.292	18.921	75.195	0.549	-77.57	22.99	-107.95	-58.800	-69.678	-6.664	-0.54572	0.22827	-0.58682	0.55283	30.6	13111	100
2025-3-27 20:32:18.299	WT901BLE68-01(48591DE3C19B)	-0.323	-0.697	0.329	13.733	74.890	-3.845	-77.75	23.08	-108.79	-58.800	-69.678	-6.664	-0.54572	0.22827	-0.58682	0.55283	30.6	13111	100
2025-3-27 20:32:18.299	WT901BLE68-01(48591DE3C19B)	-0.380	-0.697	0.329	13.733	74.890	-3.845	-77.94	23.15	-109.64	-58.800	-69.678	-6.664	-0.54572	0.22827	-0.58682	0.55283	30.6	13111	100
2025-3-27 20:32:18.299	WT901BLE68-01(48591DE3C19B)	-0.380	-0.550	0.352	4.395	39.795	-9.888	-78.10	23.16	-110.32	-58.800	-69.678	-6.664	-0.54572	0.22827	-0.58682	0.55283	30.6	13111	100
2025-3-27 20:32:18.299	WT901BLE68-01(48591DE3C19B)	-0.306	-0.550	0.352	4.395	39.795	-9.888	-78.23	23.10	-110.83	-58.800	-69.678	-6.664	-0.54572	0.22827	-0.58682	0.55283	30.6	13111	100
2025-3-27 20:32:18.357	WT901BLE68-01(48591DE3C19B)	-0.306	-0.422	0.283	3.174	18.250	-8.179	-78.32	23.04	-111.24	-58.800	-69.678	-6.664	-0.54572	0.22827	-0.58682	0.55283	30.6	13111	100
2025-3-27 20:32:18.358	WT901BLE68-01(48591DE3C19B)	-0.282	-0.422	0.283	3.174	18.250	-8.179	-78.35	22.97	-111.54	-58.800	-69.678	-6.664	-0.54572	0.22827	-0.58682	0.55283	30.6	13111	100
2025-3-27 20:32:18.358	WT901BLE68-01(48591DE3C19B)	-0.282	-0.293	0.200	7.629	11.780	1.953	-78.34	22.94	-111.81	-58.800	-69.678	-6.664	-0.54572	0.22827	-0.58682	0.55283	30.6	13111	100
2025-3-27 20:32:18.358	WT901BLE68-01(48591DE3C19B)	-0.290	-0.293	0.200	7.629	11.780	1.953	-78.29	22.96	-112.05	-58.800	-69.678	-6.664	-0.54572	0.22827	-0.58682	0.55283	30.6	13111	100
2025-3-27 20:32:18.386	WT901BLE68-01(48591DE3C19B)	-0.290	-0.176	0.203	10.498	1.709	13.916	-78.19	23.03	-112.23	-58.800	-69.678	-6.664	-0.54572	0.22827	-0.58682	0.55283	30.6	13111	100
2025-3-27 20:32:18.386	WT901BLE68-01(48591DE3C19B)	-0.255	-0.176	0.203	10.498	1.709	13.916	-78.05	23.16	-112.36	-58.800	-69.678	-6.664	-0.54572	0.22827	-0.58682	0.55283	30.6	13111	100
2025-3-27 20:32:18.386	WT901BLE68-01(48591DE3C19B)	-0.255	-0.119	0.266	10.010	-7.324	25.757	-77.87	23.34	-112.45	-58.800	-69.678	-6.664	-0.54572	0.22827	-0.58682	0.55283	30.6	13111	100
2025-3-27 20:32:18.386	WT901BLE68-01(48591DE3C19B)	-0.216	-0.119	0.266	10.010	-7.324	25.757	-77.66	23.57	-112.49	-58.800	-69.678	-6.664	-0.54572	0.22827	-0.58682	0.55283	30.6	13111	100
2025-3-27 20:32:18.477	WT901BLE68-01(48591DE3C19B)	-0.216	-0.199	0.274	7.874	-10.864	28.076	-77.44	23.81	-112.53	-58.800	-69.678	-6.664	-0.54572	0.22827	-0.58682	0.55283	30.6	13111	100
2025-3-27 20:32:18.477	WT901BLE68-01(48591DE3C19B)	-0.203	-0.199	0.274	7.874	-10.864	28.076	-77.22	24.05	-112.55	-58.800	-69.678	-6.664	-0.54572	0.22827	-0.58682	0.55283	30.6	13111	100
2025-3-27 20:32:18.477	WT901BLE68-01(48591DE3C19B)	-0.203	-0.355	0.184	9.094	-6.775	28.442	-76.99	24.30	-112.60	-58.800	-69.678	-6.664	-0.54572	0.22827	-0.58682	0.55283	30.6	13111	100
2025-3-27 20:32:18.477	WT901BLE68-01(48591DE3C19B)	-0.271	-0.355	0.184	9.094	-6.775	28.442	-76.76	24.55	-112.67	-58.800	-69.678	-6.664	-0.54572	0.22827	-0.58682	0.55283	30.6	13111	100
2025-3-27 20:32:18.479	WT901BLE68-01(48591DE3C19B)	-0.271	-0.604	0.065	2.502	-3.418	20.081	-76.59	24.77	-112.76	-58.800	-69.678	-6.664	-0.54572	0.22827	-0.58682	0.55283	30.6	13111	100
2025-3-27 20:32:18.479	WT901BLE68-01(48591DE3C19B)	-0.422	-0.604	0.065	2.502	-3.418	20.081	-76.46	24.95	-112.88	-58.800	-69.678	-6.664	-0.53549	0.19150	-0.59735	0.56537	30.6	13111	100
2025-3-27 20:32:18.479	WT901BLE68-01(48591DE3C19B)	-0.422	-1.109	0.003	-13.550	-9.644	4.639	-76.43	25.05	-112.97	-58.800	-69.678	-6.664	-0.53549	0.19150	-0.59735	0.56537	30.6	13111	100
2025-3-27 20:32:18.479	WT901BLE68-01(48591DE3C19B)	-0.642	-1.109	0.003	-13.550	-9.644	4.639	-76.49	25.07	-113.03	-58.800	-69.678	-6.664	-0.53549	0.19150	-0.59735	0.56537	30.6	13111	100
2025-3-27 20:32:18.568	WT901BLE68-01(48591DE3C19B)	-0.642	-1.888	0.058	-4.211	-23.315	-19.287	-76.45	24.82	-112.98	-58.800	-69.678	-6.664	-0.53549	0.19150	-0.59735	0.56537	30.6	13111	100
2025-3-27 20:32:18.568	WT901BLE68-01(48591DE3C19B)	-0.744	-1.888	0.058	-4.211	-23.315	-19.287	-76.43	24.57	-112.90	-58.800	-69.678	-6.664	-0.53549	0.19150	-0.59735	0.56537	30.6	13111	100
2025-3-27 20:32:18.568	WT901BLE68-01(48591DE3C19B)	-0.744	-2.306	0.189	13.733	-43.762	-45.837	-76.17	24.02	-112.65	-58.800	-69.678	-6.664	-0.53549	0.19150	-0.59735	0.56537	30.6	13111	100
2025-3-27 20:32:18.568	WT901BLE68-01(48591DE3C19B)	-0.815	-2.306	0.189	13.733	-43.762	-45.837	-75.93	23.45	-112.39	-58.800	-69.678	-6.664	-0.53549	0.19150	-0.59735	0.56537	30.6	13111	100
2025-3-27 20:32:18.568	WT901BLE68-01(48591DE3C19B)	-0.815	-1.795	0.427	31.616	-46.997	-57.312	-75.52	22.77	-112.14	-58.800	-69.678	-6.664	-0.53549	0.19150	-0.59735	0.56537	30.6	13111	100
2025-3-27 20:32:18.568	WT901BLE68-01(48591DE3C19B)	-0.664	-1.795	0.427	31.616	-46.997	-57.312	-75.11	22.10	-111.91	-58.800	-69.678	-6.664	-0.53549	0.19150	-0.59735	0.56537	30.6	13111	100
2025-3-27 20:32:18.569	WT901BLE68-01(48591DE3C19B)	-0.664	-1.335	0.484	19.165	-20.142	-52.185	-74.92	21.56	-111.96	-58.800	-69.678	-6.664	-0.53549	0.19150	-0.59735	0.56537	30.6	13111	100
2025-3-27 20:32:18.569	WT901BLE68-01(48591DE3C19B)	-0.592	-1.335	0.484	19.165	-20.142	-52.185	-74.72	21.01	-112.02	-58.800	-69.678	-6.664	-0.53549	0.19150	-0.59735	0.56537	30.6	13111	100
2025-3-27 20:32:18.657	WT901BLE68-01(48591DE3C19B)	-0.592	-1.101	0.467	14.282	14.709	-39.490	-74.69	20.68	-112.42	-58.800	-69.678	-6.664	-0.53549	0.19150	-0.59735	0.56537	30.6	13111	100
2025-3-27 20:32:18.657	WT901BLE68-01(48591DE3C19B)	-0.494	-1.101	0.467	14.282	14.709	-39.490	-74.65	20.36	-112.83	-58.800	-69.678	-6.664	-0.53549	0.19150	-0.59735	0.56537	30.6	13111	100
2025-3-27 20:32:18.657	WT901BLE68-01(48591DE3C19B)	-0.494	-0.813	0.409	11.414	22.644	-24.780	-74.64	20.20	-113.29	-58.800	-69.678	-6.664	-0.53549	0.19150	-0.59735	0.56537	30.6	13111	100
2025-3-27 20:32:18.657	WT901BLE68-01(48591DE3C19B)	-0.414	-0.813	0.409	11.414	22.644	-24.780	-74.62	20.04	-113.75	-58.800	-69.678	-6.664	-0.53549	0.19150	-0.59735	0.56537	30.6	13111	100
2025-3-27 20:32:18.659	WT901BLE68-01(48591DE3C19B)	-0.414	-0.584	0.405	-1.526	1.160	-8.667	-74.64	19.99	-113.96	-58.800	-69.678	-6.664	-0.53549	0.19150	-0.59735	0.56537	30.6	13111	100
2025-3-27 20:32:18.659	WT901BLE68-01(48591DE3C19B)	-0.296	-0.584	0.405	-1.526	1.160	-8.667	-74.64	19.93	-114.18	-58.800	-69.678	-6.664	-0.53549	0.19150	-0.59735	0.56537	30.6	13111	100
2025-3-27 20:32:18.659	WT901BLE68-01(48591DE3C19B)	-0.296	-0.520	0.344	-14.954	-32.654	0.183	-74.65	19.87	-114.03	-58.800	-69.678	-6.664	-0.53549	0.19150	-0.59735	0.56537	30.6	13111	100
2025-3-27 20:32:18.659	WT901BLE68-01(48591DE3C19B)	-0.193	-0.520	0.344	-14.954	-32.654	0.183	-74.65	19.81	-113.88	-58.800	-69.678	-6.664	-0.53549	0.19150	-0.59735	0.56537	30.6	13111	100
2025-3-27 20:32:18.690	WT901BLE68-01(48591DE3C19B)	-0.193	-0.469	0.207	-14.648	-34.363	11.047	-74.64	19.85	-113.69	-58.800	-69.678	-6.664	-0.53549	0.19150	-0.59735	0.56537	30.6	13111	100
2025-3-27 20:32:18.690	WT901BLE68-01(48591DE3C19B)	-0.226	-0.469	0.207	-14.648	-34.363	11.047	-74.61	19.89	-113.49	-58.800	-69.678	-6.664	-0.53549	0.19150	-0.59735	0.56537	30.6	13111	100
2025-3-27 20:32:18.690	WT901BLE68-01(48591DE3C19B)	-0.226	-0.301	0.087	1.038	1.587	23.376	-74.55	20.14	-113.64	-58.800	-69.678	-6.664	-0.53549	0.19150	-0.59735	0.56537	30.6	13111	100
2025-3-27 20:32:18.690	WT901BLE68-01(48591DE3C19B)	-0.295	-0.301	0.087	1.038	1.587	23.376	-74.49	20.39	-113.78	-58.800	-69.678	-6.664	-0.53549	0.19150	-0.59735	0.56537	30.6	13111	100
2025-3-27 20:32:18.719	WT901BLE68-01(48591DE3C19B)	-0.295	-0.068	0.057	7.446	30.273	33.264	-74.46	20.82	-114.20	-58.800	-69.678	-6.664	-0.53549	0.19150	-0.59735	0.56537	30.6	13111	100
2025-3-27 20:32:18.719	WT901BLE68-01(48591DE3C19B)	-0.279	-0.068	0.057	7.446	30.273	33.264	-74.42	21.25	-114.64	-58.702	-75.166	-12.544	-0.53549	0.19150	-0.59735	0.56537	30.6	13111	100
2025-3-27 20:32:18.719	WT901BLE68-01(48591DE3C19B)	-0.279	0.002	0.068	1.221	30.701	43.274	-74.43	21.79	-115.06	-58.702	-75.166	-12.544	-0.53549	0.19150	-0.59735	0.56537	30.6	13111	100
2025-3-27 20:32:18.719	WT901BLE68-01(48591DE3C19B)	-0.239	0.002	0.068	1.221	30.701	43.274	-74.44	22.34	-115.50	-58.702	-75.166	-12.544	-0.53549	0.19150	-0.59735	0.56537	30.6	13111	100
2025-3-27 20:32:18.748	WT901BLE68-01(48591DE3C19B)	-0.239	-0.109	0.063	-7.935	20.264	43.701	-74.49	22.86	-115.85	-58.702	-75.166	-12.544	-0.53549	0.19150	-0.59735	0.56537	30.6	13111	100
2025-3-27 20:32:18.748	WT901BLE68-01(48591DE3C19B)	-0.302	-0.109	0.063	-7.935	20.264	43.701	-74.54	23.38	-116.20	-58.702	-75.166	-12.544	-0.53549	0.19150	-0.59735	0.56537	30.6	13111	100
2025-3-27 20:32:18.748	WT901BLE68-01(48591DE3C19B)	-0.302	-0.377	0.078	-18.494	6.897	35.889	-74.65	23.80	-116.44	-58.702	-75.166	-12.544	-0.53549	0.19150	-0.59735	0.56537	30.6	13111	100
2025-3-27 20:32:18.748	WT901BLE68-01(48591DE3C19B)	-0.430	-0.377	0.078	-18.494	6.897	35.889	-74.76	24.21	-116.69	-58.702	-75.166	-12.544	-0.53549	0.19150	-0.59735	0.56537	30.6	13111	100
2025-3-27 20:32:18.777	WT901BLE68-01(48591DE3C19B)	-0.430	-0.765	0.090	-30.640	-16.724	28.503	-74.92	24.49	-116.69	-58.702	-75.166	-12.544	-0.53549	0.19150	-0.59735	0.56537	30.6	13111	100
2025-3-27 20:32:18.777	WT901BLE68-01(48591DE3C19B)	-0.480	-0.765	0.090	-30.640	-16.724	28.503	-75.08	24.77	-116.69	-58.702	-75.166	-12.544	-0.53549	0.19150	-0.59735	0.56537	30.6	13111	100
2025-3-27 20:32:18.777	WT901BLE68-01(48591DE3C19B)	-0.480	-1.321	0.083	-38.757	-43.884	15.808	-75.24	24.86	-116.39	-58.702	-75.166	-12.544	-0.53549	0.19150	-0.59735	0.56537	30.6	13111	100
2025-3-27 20:32:18.777	WT901BLE68-01(48591DE3C19B)	-0.539	-1.321	0.083	-38.757	-43.884	15.808	-75.42	24.93	-116.08	-58.702	-75.166	-12.544	-0.53549	0.19150	-0.59735	0.56537	30.6	13111	100
2025-3-27 20:32:18.837	WT901BLE68-01(48591DE3C19B)	-0.539	-2.030	0.151	-26.062	-59.143	-10.864	-75.44	24.69	-115.63	-58.702	-75.166	-12.544	-0.53549	0.19150	-0.59735	0.56537	30.6	13111	100
2025-3-27 20:32:18.837	WT901BLE68-01(48591DE3C19B)	-0.626	-2.030	0.151	-26.062	-59.143	-10.864	-75.49	24.44	-115.15	-58.702	-75.166	-12.544	-0.53549	0.19150	-0.59735	0.56537	30.6	13111	100
2025-3-27 20:32:18.837	WT901BLE68-01(48591DE3C19B)	-0.626	-2.436	0.239	-9.949	-67.017	-4.150	-75.34	24.23	-114.55	-58.702	-75.166	-12.544	-0.53549	0.19150	-0.59735	0.56537	30.6	13111	100
2025-3-27 20:32:18.837	WT901BLE68-01(48591DE3C19B)	-0.584	-2.436	0.239	-9.949	-67.017	-4.150	-75.20	24.00	-113.93	-58.702	-75.166	-12.544	-0.53549	0.19150	-0.59735	0.56537	30.6	13111	100
2025-3-27 20:32:18.897	WT901BLE68-01(48591DE3C19B)	-0.584	-1.961	0.322	14.404	-63.965	-2.869	-74.83	23.79	-113.35	-58.702	-75.166	-12.544	-0.53296	0.19113	-0.58502	0.58057	30.6	13111	100
2025-3-27 20:32:18.898	WT901BLE68-01(48591DE3C19B)	-0.294	-1.961	0.322	14.404	-63.965	-2.869	-74.47	23.57	-112.77	-58.702	-75.166	-12.544	-0.53296	0.19113	-0.58502	0.58057	30.6	13111	100
2025-3-27 20:32:18.898	WT901BLE68-01(48591DE3C19B)	-0.294	-1.683	0.286	7.813	-38.574	5.371	-74.27	23.49	-112.43	-58.702	-75.166	-12.544	-0.53296	0.19113	-0.58502	0.58057	30.6	13111	100
2025-3-27 20:32:18.898	WT901BLE68-01(48591DE3C19B)	-0.118	-1.683	0.286	7.813	-38.574	5.371	-74.08	23.41	-112.09	-58.702	-75.166	-12.544	-0.53296	0.19113	-0.58502	0.58057	30.6	13111	100
2025-3-27 20:32:18.899	WT901BLE68-01(48591DE3C19B)	-0.118	-1.458	0.248	7.202	2.441	13.977	-74.05	23.51	-112.14	-58.702	-75.166	-12.544	-0.53296	0.19113	-0.58502	0.58057	30.6	13111	100
2025-3-27 20:32:18.899	WT901BLE68-01(48591DE3C19B)	-0.073	-1.458	0.248	7.202	2.441	13.977	-74.03	23.61	-112.19	-58.702	-75.166	-12.544	-0.53296	0.19113	-0.58502	0.58057	30.6	13111	100
2025-3-27 20:32:18.899	WT901BLE68-01(48591DE3C19B)	-0.073	-1.139	0.212	4.089	33.081	20.447	-74.15	23.84	-112.54	-58.702	-75.166	-12.544	-0.53296	0.19113	-0.58502	0.58057	30.6	13111	100
2025-3-27 20:32:18.899	WT901BLE68-01(48591DE3C19B)	-0.180	-1.139	0.212	4.089	33.081	20.447	-74.27	24.07	-112.88	-58.702	-75.166	-12.544	-0.53296	0.19113	-0.58502	0.58057	30.6	13111	100
2025-3-27 20:32:18.957	WT901BLE68-01(48591DE3C19B)	-0.180	-0.908	0.203	-3.174	39.795	10.925	-74.50	24.21	-113.32	-58.702	-75.166	-12.544	-0.53296	0.19113	-0.58502	0.58057	30.6	13111	100
2025-3-27 20:32:18.958	WT901BLE68-01(48591DE3C19B)	-0.279	-0.908	0.203	-3.174	39.795	10.925	-74.74	24.36	-113.76	-58.702	-75.166	-12.544	-0.53296	0.19113	-0.58502	0.58057	30.6	13111	100
2025-3-27 20:32:18.958	WT901BLE68-01(48591DE3C19B)	-0.295	-0.752	0.210	-5.249	29.785	-0.732	-74.97	24.37	-114.13	-58.702	-75.166	-12.544	-0.53296	0.19113	-0.58502	0.58057	30.6	13111	100
2025-3-27 20:32:18.958	WT901BLE68-01(48591DE3C19B)	-0.295	-0.583	0.222	-2.808	21.851	-6.409	-75.16	24.33	-114.47	-58.702	-75.166	-12.544	-0.53296	0.19113	-0.58502	0.58057	30.6	13111	100
2025-3-27 20:32:19.19	WT901BLE68-01(48591DE3C19B)	-0.286	-0.583	0.222	-2.808	21.851	-6.409	-75.32	24.27	-114.77	-58.702	-75.166	-12.544	-0.53296	0.19113	-0.58502	0.58057	30.6	13111	100
2025-3-27 20:32:19.19	WT901BLE68-01(48591DE3C19B)	-0.286	-0.415	0.215	2.075	21.362	-7.324	-75.45	24.21	-115.09	-58.702	-75.166	-12.544	-0.53296	0.19113	-0.58502	0.58057	30.6	13111	100
2025-3-27 20:32:19.20	WT901BLE68-01(48591DE3C19B)	-0.275	-0.415	0.215	2.075	21.362	-7.324	-75.55	24.14	-115.40	-58.702	-75.166	-12.544	-0.53296	0.19113	-0.58502	0.58057	30.6	13111	100
2025-3-27 20:32:19.20	WT901BLE68-01(48591DE3C19B)	-0.275	-0.236	0.193	7.813	20.874	0.671	-75.61	24.12	-115.71	-58.702	-75.166	-12.544	-0.53296	0.19113	-0.58502	0.58057	30.6	13111	100
2025-3-27 20:32:19.20	WT901BLE68-01(48591DE3C19B)	-0.255	-0.236	0.193	7.813	20.874	0.671	-75.63	24.14	-116.01	-58.702	-75.166	-12.544	-0.53296	0.19113	-0.58502	0.58057	30.6	13111	100
2025-3-27 20:32:19.20	WT901BLE68-01(48591DE3C19B)	-0.255	-0.107	0.160	7.385	11.230	11.780	-75.62	24.21	-116.26	-58.702	-75.166	-12.544	-0.53296	0.19113	-0.58502	0.58057	30.6	13111	100
2025-3-27 20:32:19.20	WT901BLE68-01(48591DE3C19B)	-0.219	-0.107	0.160	7.385	11.230	11.780	-75.58	24.33	-116.44	-58.702	-75.166	-12.544	-0.53296	0.19113	-0.58502	0.58057	30.6	13111	100
2025-3-27 20:32:19.21	WT901BLE68-01(48591DE3C19B)	-0.219	-0.083	0.127	0.671	1.160	18.921	-75.54	24.47	-116.58	-58.702	-75.166	-12.544	-0.53296	0.19113	-0.58502	0.58057	30.6	13111	100
2025-3-27 20:32:19.108	WT901BLE68-01(48591DE3C19B)	-0.206	-0.083	0.127	0.671	1.160	18.921	-75.50	24.65	-116.66	-58.702	-75.166	-12.544	-0.53296	0.19113	-0.58502	0.58057	30.6	13111	100
2025-3-27 20:32:19.108	WT901BLE68-01(48591DE3C19B)	-0.206	-0.170	0.092	-6.775	-11.414	24.231	-75.47	24.83	-116.69	-66.052	-70.854	-19.404	-0.53296	0.19113	-0.58502	0.58057	30.6	13111	100
2025-3-27 20:32:19.108	WT901BLE68-01(48591DE3C19B)	-0.210	-0.170	0.092	-6.775	-11.414	24.231	-75.43	25.04	-116.64	-66.052	-70.854	-19.404	-0.53296	0.19113	-0.58502	0.58057	30.6	13111	100
2025-3-27 20:32:19.108	WT901BLE68-01(48591DE3C19B)	-0.210	-0.316	0.056	-14.587	-27.588	27.161	-75.40	25.24	-116.50	-66.052	-70.854	-19.404	-0.53296	0.19113	-0.58502	0.58057	30.6	13111	100
2025-3-27 20:32:19.109	WT901BLE68-01(48591DE3C19B)	-0.259	-0.316	0.056	-14.587	-27.588	27.161	-75.36	25.43	-116.28	-66.052	-70.854	-19.404	-0.53296	0.19113	-0.58502	0.58057	30.6	13111	100
2025-3-27 20:32:19.109	WT901BLE68-01(48591DE3C19B)	-0.259	-0.606	0.070	-22.827	-36.987	20.874	-75.36	25.59	-116.02	-66.052	-70.854	-19.404	-0.53296	0.19113	-0.58502	0.58057	30.6	13111	100
2025-3-27 20:32:19.109	WT901BLE68-01(48591DE3C19B)	-0.387	-0.606	0.070	-22.827	-36.987	20.874	-75.38	25.70	-115.70	-66.052	-70.854	-19.404	-0.53296	0.19113	-0.58502	0.58057	30.6	13111	100
2025-3-27 20:32:19.109	WT901BLE68-01(48591DE3C19B)	-0.387	-1.032	0.145	-23.315	-42.175	6.104	-75.40	25.73	-115.37	-66.052	-70.854	-19.404	-0.53296	0.19113	-0.58502	0.58057	30.6	13111	100
2025-3-27 20:32:19.139	WT901BLE68-01(48591DE3C19B)	-0.574	-1.032	0.145	-23.315	-42.175	6.104	-75.44	25.68	-115.02	-66.052	-70.854	-19.404	-0.53296	0.19113	-0.58502	0.58057	30.6	13111	100
2025-3-27 20:32:19.139	WT901BLE68-01(48591DE3C19B)	-0.574	-1.479	0.255	-11.597	-47.974	-12.512	-75.42	25.53	-114.66	-66.052	-70.854	-19.404	-0.53296	0.19113	-0.58502	0.58057	30.6	13111	100
2025-3-27 20:32:19.139	WT901BLE68-01(48591DE3C19B)	-0.555	-1.479	0.255	-11.597	-47.974	-12.512	-75.35	25.28	-114.29	-66.052	-70.854	-19.404	-0.53296	0.19113	-0.58502	0.58057	30.6	13111	100
2025-3-27 20:32:19.139	WT901BLE68-01(48591DE3C19B)	-0.555	-1.627	0.350	4.456	-47.119	-33.569	-75.22	24.93	-113.95	-66.052	-70.854	-19.404	-0.53296	0.19113	-0.58502	0.58057	30.6	13111	100
2025-3-27 20:32:19.198	WT901BLE68-01(48591DE3C19B)	-0.526	-1.627	0.350	4.456	-47.119	-33.569	-75.03	24.47	-113.64	-66.052	-70.854	-19.404	-0.53296	0.19113	-0.58502	0.58057	30.6	13111	100
2025-3-27 20:32:19.198	WT901BLE68-01(48591DE3C19B)	-0.526	-1.660	0.414	9.583	-23.499	-33.203	-74.86	24.04	-113.46	-66.052	-70.854	-19.404	-0.53296	0.19113	-0.58502	0.58057	30.6	13111	100
2025-3-27 20:32:19.198	WT901BLE68-01(48591DE3C19B)	-0.595	-1.660	0.414	9.583	-23.499	-33.203	-74.72	23.64	-113.40	-66.052	-70.854	-19.404	-0.53296	0.19113	-0.58502	0.58057	30.6	13111	100
2025-3-27 20:32:19.198	WT901BLE68-01(48591DE3C19B)	-0.595	-1.710	0.455	13.550	15.259	-45.349	-74.65	23.24	-113.55	-66.052	-70.854	-19.404	-0.53296	0.19113	-0.58502	0.58057	30.6	13111	100
2025-3-27 20:32:19.229	WT901BLE68-01(48591DE3C19B)	-0.649	-1.710	0.455	13.550	15.259	-45.349	-74.65	22.82	-113.93	-66.052	-70.854	-19.404	-0.53296	0.19113	-0.58502	0.58057	30.6	13111	100
2025-3-27 20:32:19.229	WT901BLE68-01(48591DE3C19B)	-0.649	-1.500	0.481	20.386	34.180	-46.509	-74.64	22.43	-114.41	-66.052	-70.854	-19.404	-0.53296	0.19113	-0.58502	0.58057	30.6	13111	100
2025-3-27 20:32:19.229	WT901BLE68-01(48591DE3C19B)	-0.599	-1.500	0.481	20.386	34.180	-46.509	-74.64	22.07	-114.99	-66.052	-70.854	-19.404	-0.53296	0.19113	-0.58502	0.58057	30.6	13111	100
2025-3-27 20:32:19.230	WT901BLE68-01(48591DE3C19B)	-0.599	-1.153	0.461	16.235	30.823	-39.307	-74.63	21.73	-115.54	-66.052	-70.854	-19.404	-0.53296	0.19113	-0.58502	0.58057	30.6	13111	100
2025-3-27 20:32:19.259	WT901BLE68-01(48591DE3C19B)	-0.518	-1.153	0.461	16.235	30.823	-39.307	-74.63	21.43	-116.06	-66.052	-70.854	-19.404	-0.53296	0.19113	-0.58502	0.58057	30.6	13111	100
2025-3-27 20:32:19.260	WT901BLE68-01(48591DE3C19B)	-0.518	-0.925	0.360	4.028	22.339	-29.663	-74.66	21.17	-116.53	-66.052	-70.854	-19.404	-0.53296	0.19113	-0.58502	0.58057	30.6	13111	100
2025-3-27 20:32:19.260	WT901BLE68-01(48591DE3C19B)	-0.490	-0.925	0.360	4.028	22.339	-29.663	-74.73	20.95	-116.94	-66.052	-70.854	-19.404	-0.50272	0.18884	-0.58423	0.60843	30.6	13111	100
2025-3-27 20:32:19.260	WT901BLE68-01(48591DE3C19B)	-0.490	-0.849	0.239	-7.996	13.062	-20.935	-74.83	20.76	-117.30	-66.052	-70.854	-19.404	-0.50272	0.18884	-0.58423	0.60843	30.6	13111	100
2025-3-27 20:32:19.318	WT901BLE68-01(48591DE3C19B)	-0.506	-0.849	0.239	-7.996	13.062	-20.935	-74.97	20.61	-117.59	-66.052	-70.854	-19.404	-0.50272	0.18884	-0.58423	0.60843	30.6	13111	100
2025-3-27 20:32:19.318	WT901BLE68-01(48591DE3C19B)	-0.506	-0.864	0.191	-14.465	1.831	-15.198	-75.11	20.47	-117.82	-66.052	-70.854	-19.404	-0.50272	0.18884	-0.58423	0.60843	30.6	13111	100
2025-3-27 20:32:19.318	WT901BLE68-01(48591DE3C19B)	-0.502	-0.864	0.191	-14.465	1.831	-15.198	-75.27	20.35	-117.99	-66.052	-70.854	-19.404	-0.50272	0.18884	-0.58423	0.60843	30.6	13111	100
2025-3-27 20:32:19.318	WT901BLE68-01(48591DE3C19B)	-0.502	-0.923	0.199	-13.245	-4.578	-12.329	-75.40	20.24	-118.12	-66.052	-70.854	-19.404	-0.50272	0.18884	-0.58423	0.60843	30.6	13111	100
2025-3-27 20:32:19.346	WT901BLE68-01(48591DE3C19B)	-0.467	-0.923	0.199	-13.245	-4.578	-12.329	-75.52	20.13	-118.21	-66.052	-70.854	-19.404	-0.50272	0.18884	-0.58423	0.60843	30.6	13111	100
2025-3-27 20:32:19.346	WT901BLE68-01(48591DE3C19B)	-0.467	-0.901	0.206	-4.089	0.183	-12.451	-75.60	20.03	-118.33	-66.052	-70.854	-19.404	-0.50272	0.18884	-0.58423	0.60843	30.6	13111	100
2025-3-27 20:32:19.347	WT901BLE68-01(48591DE3C19B)	-0.438	-0.901	0.206	-4.089	0.183	-12.451	-75.65	19.95	-118.47	-66.052	-70.854	-19.404	-0.50272	0.18884	-0.58423	0.60843	30.6	13111	100
2025-3-27 20:32:19.347	WT901BLE68-01(48591DE3C19B)	-0.438	-0.767	0.184	3.662	12.146	-11.108	-75.67	19.88	-118.67	-66.052	-70.854	-19.404	-0.50272	0.18884	-0.58423	0.60843	30.6	13111	100
2025-3-27 20:32:19.377	WT901BLE68-01(48591DE3C19B)	-0.387	-0.767	0.184	3.662	12.146	-11.108	-75.68	19.84	-118.93	-66.052	-70.854	-19.404	-0.50272	0.18884	-0.58423	0.60843	30.6	13111	100
2025-3-27 20:32:19.377	WT901BLE68-01(48591DE3C19B)	-0.387	-0.582	0.148	7.751	25.879	-3.296	-75.69	19.85	-119.25	-66.052	-70.854	-19.404	-0.50272	0.18884	-0.58423	0.60843	30.6	13111	100
2025-3-27 20:32:19.377	WT901BLE68-01(48591DE3C19B)	-0.365	-0.582	0.148	7.751	25.879	-3.296	-75.70	19.92	-119.64	-66.052	-70.854	-19.404	-0.50272	0.18884	-0.58423	0.60843	30.6	13111	100
2025-3-27 20:32:19.377	WT901BLE68-01(48591DE3C19B)	-0.365	-0.360	0.158	7.202	35.400	8.545	-75.72	20.06	-120.05	-66.052	-70.854	-19.404	-0.50272	0.18884	-0.58423	0.60843	30.6	13111	100
2025-3-27 20:32:19.439	WT901BLE68-01(48591DE3C19B)	-0.388	-0.360	0.158	7.202	35.400	8.545	-75.75	20.28	-120.51	-66.052	-70.854	-19.404	-0.50272	0.18884	-0.58423	0.60843	30.6	13111	100
2025-3-27 20:32:19.439	WT901BLE68-01(48591DE3C19B)	-0.388	-0.176	0.174	-2.625	29.846	23.560	-75.84	20.63	-120.88	-66.052	-70.854	-19.404	-0.50272	0.18884	-0.58423	0.60843	30.6	13111	100
2025-3-27 20:32:19.439	WT901BLE68-01(48591DE3C19B)	-0.400	-0.176	0.174	-2.625	29.846	23.560	-75.93	20.98	-121.26	-66.052	-70.854	-19.404	-0.50272	0.18884	-0.58423	0.60843	30.6	13111	100
2025-3-27 20:32:19.439	WT901BLE68-01(48591DE3C19B)	-0.400	-0.158	0.163	-22.827	6.470	38.208	-76.11	21.43	-121.38	-66.052	-70.854	-19.404	-0.50272	0.18884	-0.58423	0.60843	30.6	13111	100
2025-3-27 20:32:19.476	WT901BLE68-01(48591DE3C19B)	-0.360	-0.158	0.163	-22.827	6.470	38.208	-76.28	21.88	-121.51	-66.052	-70.854	-19.404	-0.50272	0.18884	-0.58423	0.60843	30.6	13111	100
2025-3-27 20:32:19.476	WT901BLE68-01(48591DE3C19B)	-0.360	-0.357	0.146	-41.260	-23.376	43.091	-76.51	22.31	-121.32	-66.052	-70.854	-19.404	-0.50272	0.18884	-0.58423	0.60843	30.6	13111	100
2025-3-27 20:32:19.476	WT901BLE68-01(48591DE3C19B)	-0.413	-0.357	0.146	-41.260	-23.376	43.091	-76.73	22.74	-121.14	-66.052	-70.854	-19.404	-0.50272	0.18884	-0.58423	0.60843	30.6	13111	100
2025-3-27 20:32:19.476	WT901BLE68-01(48591DE3C19B)	-0.413	-0.683	0.178	-49.927	-45.105	35.645	-76.96	23.05	-120.74	-68.404	-65.170	-21.462	-0.50272	0.18884	-0.58423	0.60843	30.6	13111	100
2025-3-27 20:32:19.500	WT901BLE68-01(48591DE3C19B)	-0.581	-0.683	0.178	-49.927	-45.105	35.645	-77.19	23.36	-120.33	-68.404	-65.170	-21.462	-0.50272	0.18884	-0.58423	0.60843	30.6	13111	100
2025-3-27 20:32:19.500	WT901BLE68-01(48591DE3C19B)	-0.581	-1.104	0.231	-45.898	-68.726	24.841	-77.29	23.50	-119.70	-68.404	-65.170	-21.462	-0.50272	0.18884	-0.58423	0.60843	30.6	13111	100
2025-3-27 20:32:19.500	WT901BLE68-01(48591DE3C19B)	-0.730	-1.104	0.231	-45.898	-68.726	24.841	-77.40	23.64	-119.04	-68.404	-65.170	-21.462	-0.50272	0.18884	-0.58423	0.60843	30.6	13111	100
2025-3-27 20:32:19.500	WT901BLE68-01(48591DE3C19B)	-0.730	-1.722	0.280	-41.687	-88.989	12.085	-77.40	23.60	-118.19	-68.404	-65.170	-21.462	-0.50272	0.18884	-0.58423	0.60843	30.6	13111	100
2025-3-27 20:32:19.558	WT901BLE68-01(48591DE3C19B)	-0.682	-1.722	0.280	-41.687	-88.989	12.085	-77.42	23.57	-117.32	-68.404	-65.170	-21.462	-0.50272	0.18884	-0.58423	0.60843	30.6	13111	100
2025-3-27 20:32:19.558	WT901BLE68-01(48591DE3C19B)	-0.682	-2.505	0.179	-35.339	-92.529	12.695	-77.37	23.51	-116.38	-68.404	-65.170	-21.462	-0.50272	0.18884	-0.58423	0.60843	30.6	13111	100
2025-3-27 20:32:19.558	WT901BLE68-01(48591DE3C19B)	-0.565	-2.505	0.179	-35.339	-92.529	12.695	-77.33	23.44	-115.43	-68.404	-65.170	-21.462	-0.50272	0.18884	-0.58423	0.60843	30.6	13111	100
2025-3-27 20:32:19.558	WT901BLE68-01(48591DE3C19B)	-0.565	-2.330	0.145	12.634	-70.435	25.208	-76.90	23.52	-114.68	-68.404	-65.170	-21.462	-0.50272	0.18884	-0.58423	0.60843	30.6	13111	100
2025-3-27 20:32:19.586	WT901BLE68-01(48591DE3C19B)	-0.321	-2.330	0.145	12.634	-70.435	25.208	-76.48	23.59	-113.91	-68.404	-65.170	-21.462	-0.50272	0.18884	-0.58423	0.60843	30.6	13111	100
2025-3-27 20:32:19.587	WT901BLE68-01(48591DE3C19B)	-0.321	-1.632	0.192	12.573	-24.170	36.865	-76.25	23.88	-113.59	-68.404	-65.170	-21.462	-0.50272	0.18884	-0.58423	0.60843	30.6	13111	100
2025-3-27 20:32:19.587	WT901BLE68-01(48591DE3C19B)	-0.240	-1.632	0.192	12.573	-24.170	36.865	-76.02	24.15	-113.26	-68.404	-65.170	-21.462	-0.50272	0.18884	-0.58423	0.60843	30.6	13111	100
2025-3-27 20:32:19.587	WT901BLE68-01(48591DE3C19B)	-0.240	-1.381	0.263	5.554	19.714	55.176	-76.03	24.70	-113.35	-68.404	-65.170	-21.462	-0.50272	0.18884	-0.58423	0.60843	30.6	13111	100
2025-3-27 20:32:19.619	WT901BLE68-01(48591DE3C19B)	-0.272	-1.381	0.263	5.554	19.714	55.176	-76.04	25.24	-113.43	-68.404	-65.170	-21.462	-0.50272	0.18884	-0.58423	0.60843	30.6	13111	100
2025-3-27 20:32:19.619	WT901BLE68-01(48591DE3C19B)	-0.272	-1.164	0.317	-5.798	31.189	64.758	-76.20	25.89	-113.62	-68.404	-65.170	-21.462	-0.50272	0.18884	-0.58423	0.60843	30.6	13111	100
2025-3-27 20:32:19.619	WT901BLE68-01(48591DE3C19B)	-0.301	-1.164	0.317	-5.798	31.189	64.758	-76.36	26.53	-113.80	-68.404	-65.170	-21.462	-0.50272	0.18884	-0.58423	0.60843	30.6	13111	100
2025-3-27 20:32:19.619	WT901BLE68-01(48591DE3C19B)	-0.301	-1.014	0.300	-17.090	21.484	57.739	-76.59	27.08	-113.90	-68.404	-65.170	-21.462	-0.50272	0.18884	-0.58423	0.60843	30.6	13111	100
2025-3-27 20:32:19.677	WT901BLE68-01(48591DE3C19B)	-0.363	-1.014	0.300	-17.090	21.484	57.739	-76.82	27.63	-114.00	-68.404	-65.170	-21.462	-0.50272	0.18884	-0.58423	0.60843	30.6	13111	100
2025-3-27 20:32:19.677	WT901BLE68-01(48591DE3C19B)	-0.363	-0.901	0.247	-20.020	9.583	51.270	-77.03	28.09	-113.99	-68.404	-65.170	-21.462	-0.54016	0.16980	-0.61002	0.55423	30.6	13111	100
2025-3-27 20:32:19.677	WT901BLE68-01(48591DE3C19B)	-0.386	-0.901	0.247	-20.020	9.583	51.270	-77.23	28.54	-113.98	-68.404	-65.170	-21.462	-0.54016	0.16980	-0.61002	0.55423	30.6	13111	100
2025-3-27 20:32:19.678	WT901BLE68-01(48591DE3C19B)	-0.386	-0.765	0.183	-22.522	0.610	43.579	-77.42	28.90	-113.90	-68.404	-65.170	-21.462	-0.54016	0.16980	-0.61002	0.55423	30.6	13111	100
2025-3-27 20:32:19.706	WT901BLE68-01(48591DE3C19B)	-0.418	-0.765	0.183	-22.522	0.610	43.579	-77.60	29.26	-113.81	-68.404	-65.170	-21.462	-0.54016	0.16980	-0.61002	0.55423	30.6	13111	100
2025-3-27 20:32:19.707	WT901BLE68-01(48591DE3C19B)	-0.418	-0.676	0.141	-23.071	-7.751	36.621	-77.75	29.54	-113.66	-68.404	-65.170	-21.462	-0.54016	0.16980	-0.61002	0.55423	30.6	13111	100
2025-3-27 20:32:19.707	WT901BLE68-01(48591DE3C19B)	-0.434	-0.676	0.141	-23.071	-7.751	36.621	-77.90	29.82	-113.50	-68.404	-65.170	-21.462	-0.54016	0.16980	-0.61002	0.55423	30.6	13111	100
2025-3-27 20:32:19.707	WT901BLE68-01(48591DE3C19B)	-0.434	-0.600	0.131	-23.193	-23.743	31.555	-77.96	30.03	-113.18	-68.404	-65.170	-21.462	-0.54016	0.16980	-0.61002	0.55423	30.6	13111	100
2025-3-27 20:32:19.767	WT901BLE68-01(48591DE3C19B)	-0.366	-0.600	0.131	-23.193	-23.743	31.555	-78.03	30.23	-112.86	-68.404	-65.170	-21.462	-0.54016	0.16980	-0.61002	0.55423	30.6	13111	100
2025-3-27 20:32:19.768	WT901BLE68-01(48591DE3C19B)	-0.366	-0.563	0.136	-23.315	-41.138	27.893	-78.00	30.38	-112.36	-68.404	-65.170	-21.462	-0.54016	0.16980	-0.61002	0.55423	30.6	13111	100
2025-3-27 20:32:19.768	WT901BLE68-01(48591DE3C19B)	-0.309	-0.563	0.136	-23.315	-41.138	27.893	-77.96	30.52	-111.86	-68.404	-65.170	-21.462	-0.54016	0.16980	-0.61002	0.55423	30.6	13111	100
2025-3-27 20:32:19.768	WT901BLE68-01(48591DE3C19B)	-0.309	-0.582	0.129	-21.423	-48.523	21.729	-77.88	30.59	-111.29	-68.404	-65.170	-21.462	-0.54016	0.16980	-0.61002	0.55423	30.6	13111	100
2025-3-27 20:32:19.797	WT901BLE68-01(48591DE3C19B)	-0.315	-0.582	0.129	-21.423	-48.523	21.729	-77.79	30.66	-110.71	-68.404	-65.170	-21.462	-0.54016	0.16980	-0.61002	0.55423	30.6	13111	100
2025-3-27 20:32:19.797	WT901BLE68-01(48591DE3C19B)	-0.315	-0.638	0.118	-17.700	-51.270	15.686	-77.65	30.66	-110.13	-68.404	-65.170	-21.462	-0.54016	0.16980	-0.61002	0.55423	30.6	13111	100
2025-3-27 20:32:19.797	WT901BLE68-01(48591DE3C19B)	-0.319	-0.638	0.118	-17.700	-51.270	15.686	-77.52	30.66	-109.54	-68.404	-65.170	-21.462	-0.54016	0.16980	-0.61002	0.55423	30.6	13111	100
2025-3-27 20:32:19.797	WT901BLE68-01(48591DE3C19B)	-0.319	-0.714	0.103	-11.536	-52.490	9.766	-77.33	30.61	-108.96	-68.404	-65.170	-21.462	-0.54016	0.16980	-0.61002	0.55423	30.6	13111	100
2025-3-27 20:32:19.829	WT901BLE68-01(48591DE3C19B)	-0.280	-0.714	0.103	-11.536	-52.490	9.766	-77.14	30.55	-108.38	-68.404	-65.170	-21.462	-0.54016	0.16980	-0.61002	0.55423	30.6	13111	100
2025-3-27 20:32:19.829	WT901BLE68-01(48591DE3C19B)	-0.280	-0.759	0.091	-3.601	-42.664	4.456	-76.94	30.46	-107.92	-68.404	-65.170	-21.462	-0.54016	0.16980	-0.61002	0.55423	30.6	13111	100
2025-3-27 20:32:19.829	WT901BLE68-01(48591DE3C19B)	-0.269	-0.759	0.091	-3.601	-42.664	4.456	-76.74	30.36	-107.46	-68.404	-65.170	-21.462	-0.54016	0.16980	-0.61002	0.55423	30.6	13111	100
2025-3-27 20:32:19.829	WT901BLE68-01(48591DE3C19B)	-0.269	-0.796	0.091	4.456	-23.865	0.488	-76.59	30.27	-107.22	-68.404	-65.170	-21.462	-0.54016	0.16980	-0.61002	0.55423	30.6	13111	100
