time	DeviceName	AccX(g)	AccY(g)	AccZ(g)	AsX(°/s)	AsY(°/s)	AsZ(°/s)	AngleX(°)	AngleY(°)	AngleZ(°)	HX(uT)	HY(uT)	HZ(uT)	Q0()	Q1()	Q2()	Q3()	Temperature(°C)	Version()	Battery level(%)
2025-3-27 20:57:4.32	WT901BLE68-01(48591DE3C19B)	-0.233	-0.922	0.309	5.493	12.146	-6.226	-74.96	18.19	-5.51	-40.768	-27.832	94.472	0.78207	-0.60162	0.14069	0.08063	30.5	13111	100
2025-3-27 20:57:4.32	WT901BLE68-01(48591DE3C19B)	-0.250	-0.922	0.309	5.493	12.146	-6.226	-74.93	18.14	-5.74	-40.768	-27.832	94.472	0.78207	-0.60162	0.14069	0.08063	30.5	13111	100
2025-3-27 20:57:4.32	WT901BLE68-01(48591DE3C19B)	-0.250	-0.942	0.319	5.310	14.465	-7.690	-74.90	18.09	-5.99	-40.768	-27.832	94.472	0.78207	-0.60162	0.14069	0.08063	30.5	13111	100
2025-3-27 20:57:4.32	WT901BLE68-01(48591DE3C19B)	-0.261	-0.942	0.319	5.310	14.465	-7.690	-74.88	18.03	-6.25	-40.768	-27.832	94.472	0.78207	-0.60162	0.14069	0.08063	30.5	13111	100
2025-3-27 20:57:4.32	WT901BLE68-01(48591DE3C19B)	-0.261	-0.949	0.316	5.554	16.785	-9.644	-74.86	17.97	-6.52	-40.768	-27.832	94.472	0.78207	-0.60162	0.14069	0.08063	30.5	13111	100
2025-3-27 20:57:4.32	WT901BLE68-01(48591DE3C19B)	-0.271	-0.949	0.316	5.554	16.785	-9.644	-74.85	17.90	-6.81	-40.768	-27.832	94.472	0.78207	-0.60162	0.14069	0.08063	30.5	13111	100
2025-3-27 20:57:4.32	WT901BLE68-01(48591DE3C19B)	-0.271	-0.942	0.308	5.310	18.555	-11.963	-74.84	17.82	-7.10	-40.768	-27.832	94.472	0.78207	-0.60162	0.14069	0.08063	30.5	13111	100
2025-3-27 20:57:4.32	WT901BLE68-01(48591DE3C19B)	-0.278	-0.942	0.308	5.310	18.555	-11.963	-74.83	17.73	-7.41	-40.768	-27.832	94.472	0.78207	-0.60162	0.14069	0.08063	30.5	13111	100
2025-3-27 20:57:4.90	WT901BLE68-01(48591DE3C19B)	-0.278	-0.931	0.303	3.845	18.616	-14.709	-74.84	17.63	-7.72	-40.768	-27.832	94.472	0.78207	-0.60162	0.14069	0.08063	30.5	13111	100
2025-3-27 20:57:4.90	WT901BLE68-01(48591DE3C19B)	-0.293	-0.931	0.303	3.845	18.616	-14.709	-74.85	17.52	-8.03	-49.098	-24.696	95.942	0.78207	-0.60162	0.14069	0.08063	30.5	13111	100
2025-3-27 20:57:4.90	WT901BLE68-01(48591DE3C19B)	-0.293	-0.927	0.302	1.587	18.433	-17.822	-74.87	17.40	-8.34	-49.098	-24.696	95.942	0.78207	-0.60162	0.14069	0.08063	30.5	13111	100
2025-3-27 20:57:4.90	WT901BLE68-01(48591DE3C19B)	-0.313	-0.927	0.302	1.587	18.433	-17.822	-74.91	17.26	-8.66	-49.098	-24.696	95.942	0.78207	-0.60162	0.14069	0.08063	30.5	13111	100
2025-3-27 20:57:4.129	WT901BLE68-01(48591DE3C19B)	-0.313	-0.925	0.310	-1.038	16.418	-21.240	-74.95	17.10	-8.96	-49.098	-24.696	95.942	0.78207	-0.60162	0.14069	0.08063	30.5	13111	100
2025-3-27 20:57:4.129	WT901BLE68-01(48591DE3C19B)	-0.326	-0.925	0.310	-1.038	16.418	-21.240	-75.01	16.93	-9.27	-49.098	-24.696	95.942	0.78207	-0.60162	0.14069	0.08063	30.5	13111	100
2025-3-27 20:57:4.129	WT901BLE68-01(48591DE3C19B)	-0.326	-0.929	0.321	-3.845	13.123	-24.780	-75.08	16.74	-9.55	-49.098	-24.696	95.942	0.78207	-0.60162	0.14069	0.08063	30.5	13111	100
2025-3-27 20:57:4.129	WT901BLE68-01(48591DE3C19B)	-0.339	-0.929	0.321	-3.845	13.123	-24.780	-75.15	16.53	-9.82	-49.098	-24.696	95.942	0.78207	-0.60162	0.14069	0.08063	30.5	13111	100
2025-3-27 20:57:4.181	WT901BLE68-01(48591DE3C19B)	-0.339	-0.926	0.324	-5.615	10.071	-28.137	-75.22	16.30	-10.08	-49.098	-24.696	95.942	0.78207	-0.60162	0.14069	0.08063	30.5	13111	100
2025-3-27 20:57:4.182	WT901BLE68-01(48591DE3C19B)	-0.340	-0.926	0.324	-5.615	10.071	-28.137	-75.31	16.05	-10.32	-49.098	-24.696	95.942	0.78207	-0.60162	0.14069	0.08063	30.5	13111	100
2025-3-27 20:57:4.182	WT901BLE68-01(48591DE3C19B)	-0.340	-0.896	0.316	-6.958	7.507	-31.006	-75.39	15.79	-10.55	-49.098	-24.696	95.942	0.78207	-0.60162	0.14069	0.08063	30.5	13111	100
2025-3-27 20:57:4.182	WT901BLE68-01(48591DE3C19B)	-0.333	-0.896	0.316	-6.958	7.507	-31.006	-75.48	15.52	-10.77	-49.098	-24.696	95.942	0.78207	-0.60162	0.14069	0.08063	30.5	13111	100
2025-3-27 20:57:4.210	WT901BLE68-01(48591DE3C19B)	-0.333	-0.871	0.310	-8.240	6.165	-33.203	-75.56	15.24	-10.99	-49.098	-24.696	95.942	0.78207	-0.60162	0.14069	0.08063	30.5	13111	100
2025-3-27 20:57:4.210	WT901BLE68-01(48591DE3C19B)	-0.330	-0.871	0.310	-8.240	6.165	-33.203	-75.66	14.94	-11.20	-49.098	-24.696	95.942	0.78207	-0.60162	0.14069	0.08063	30.5	13111	100
2025-3-27 20:57:4.210	WT901BLE68-01(48591DE3C19B)	-0.330	-0.854	0.299	-8.972	5.920	-34.302	-75.75	14.64	-11.40	-49.098	-24.696	95.942	0.78207	-0.60162	0.14069	0.08063	30.5	13111	100
2025-3-27 20:57:4.210	WT901BLE68-01(48591DE3C19B)	-0.326	-0.854	0.299	-8.972	5.920	-34.302	-75.84	14.35	-11.60	-49.098	-24.696	95.942	0.78207	-0.60162	0.14069	0.08063	30.5	13111	100
2025-3-27 20:57:4.243	WT901BLE68-01(48591DE3C19B)	-0.326	-0.836	0.290	-9.583	5.920	-34.790	-75.94	14.05	-11.80	-49.098	-24.696	95.942	0.78207	-0.60162	0.14069	0.08063	30.5	13111	100
2025-3-27 20:57:4.243	WT901BLE68-01(48591DE3C19B)	-0.328	-0.836	0.290	-9.583	5.920	-34.790	-76.04	13.75	-12.00	-49.098	-24.696	95.942	0.78207	-0.60162	0.14069	0.08063	30.5	13111	100
2025-3-27 20:57:4.243	WT901BLE68-01(48591DE3C19B)	-0.328	-0.827	0.292	-10.193	6.165	-35.400	-76.15	13.45	-12.20	-49.098	-24.696	95.942	0.78207	-0.60162	0.14069	0.08063	30.5	13111	100
2025-3-27 20:57:4.244	WT901BLE68-01(48591DE3C19B)	-0.335	-0.827	0.292	-10.193	6.165	-35.400	-76.25	13.15	-12.40	-49.098	-24.696	95.942	0.78207	-0.60162	0.14069	0.08063	30.5	13111	100
2025-3-27 20:57:4.331	WT901BLE68-01(48591DE3C19B)	-0.335	-0.843	0.313	-10.498	6.409	-36.072	-76.35	12.85	-12.60	-49.098	-24.696	95.942	0.78207	-0.60162	0.14069	0.08063	30.5	13111	100
2025-3-27 20:57:4.331	WT901BLE68-01(48591DE3C19B)	-0.344	-0.843	0.313	-10.498	6.409	-36.072	-76.45	12.55	-12.80	-49.098	-24.696	95.942	0.78207	-0.60162	0.14069	0.08063	30.5	13111	100
2025-3-27 20:57:4.332	WT901BLE68-01(48591DE3C19B)	-0.344	-0.869	0.332	-9.705	7.324	-36.743	-76.55	12.25	-13.00	-49.098	-24.696	95.942	0.78299	-0.60242	0.15298	-0.02271	30.5	13111	100
2025-3-27 20:57:4.332	WT901BLE68-01(48591DE3C19B)	-0.350	-0.869	0.332	-9.705	7.324	-36.743	-76.64	11.95	-13.21	-49.098	-24.696	95.942	0.78299	-0.60242	0.15298	-0.02271	30.5	13111	100
2025-3-27 20:57:4.332	WT901BLE68-01(48591DE3C19B)	-0.350	-0.879	0.340	-8.118	9.705	-37.292	-76.72	11.66	-13.43	-49.098	-24.696	95.942	0.78299	-0.60242	0.15298	-0.02271	30.5	13111	100
2025-3-27 20:57:4.333	WT901BLE68-01(48591DE3C19B)	-0.357	-0.879	0.340	-8.118	9.705	-37.292	-76.79	11.36	-13.66	-49.098	-24.696	95.942	0.78299	-0.60242	0.15298	-0.02271	30.5	13111	100
2025-3-27 20:57:4.333	WT901BLE68-01(48591DE3C19B)	-0.357	-0.875	0.350	-6.836	11.353	-37.170	-76.85	11.07	-13.90	-49.098	-24.696	95.942	0.78299	-0.60242	0.15298	-0.02271	30.5	13111	100
2025-3-27 20:57:4.333	WT901BLE68-01(48591DE3C19B)	-0.361	-0.875	0.350	-6.836	11.353	-37.170	-76.92	10.79	-14.13	-49.098	-24.696	95.942	0.78299	-0.60242	0.15298	-0.02271	30.5	13111	100
2025-3-27 20:57:4.363	WT901BLE68-01(48591DE3C19B)	-0.361	-0.860	0.365	-6.042	11.719	-36.011	-76.96	10.52	-14.37	-49.098	-24.696	95.942	0.78299	-0.60242	0.15298	-0.02271	30.5	13111	100
2025-3-27 20:57:4.364	WT901BLE68-01(48591DE3C19B)	-0.368	-0.860	0.365	-6.042	11.719	-36.011	-77.01	10.25	-14.61	-49.098	-24.696	95.942	0.78299	-0.60242	0.15298	-0.02271	30.5	13111	100
2025-3-27 20:57:4.364	WT901BLE68-01(48591DE3C19B)	-0.368	-0.844	0.377	-5.859	11.230	-33.936	-77.06	10.00	-14.83	-49.098	-24.696	95.942	0.78299	-0.60242	0.15298	-0.02271	30.5	13111	100
2025-3-27 20:57:4.364	WT901BLE68-01(48591DE3C19B)	-0.378	-0.844	0.377	-5.859	11.230	-33.936	-77.10	9.76	-15.05	-49.098	-24.696	95.942	0.78299	-0.60242	0.15298	-0.02271	30.5	13111	100
2025-3-27 20:57:4.453	WT901BLE68-01(48591DE3C19B)	-0.378	-0.823	0.385	-5.798	9.338	-30.823	-77.12	9.54	-15.24	-49.098	-24.696	95.942	0.78299	-0.60242	0.15298	-0.02271	30.5	13111	100
2025-3-27 20:57:4.453	WT901BLE68-01(48591DE3C19B)	-0.389	-0.823	0.385	-5.798	9.338	-30.823	-77.15	9.33	-15.43	-49.098	-24.696	95.942	0.78299	-0.60242	0.15298	-0.02271	30.5	13111	100
2025-3-27 20:57:4.453	WT901BLE68-01(48591DE3C19B)	-0.389	-0.807	0.391	-5.920	6.470	-26.855	-77.17	9.15	-15.58	-49.098	-24.696	95.942	0.78299	-0.60242	0.15298	-0.02271	30.5	13111	100
2025-3-27 20:57:4.453	WT901BLE68-01(48591DE3C19B)	-0.409	-0.807	0.391	-5.920	6.470	-26.855	-77.20	8.97	-15.73	-49.098	-24.696	95.942	0.78299	-0.60242	0.15298	-0.02271	30.5	13111	100
2025-3-27 20:57:4.454	WT901BLE68-01(48591DE3C19B)	-0.409	-0.798	0.394	-5.676	3.052	-21.729	-77.20	8.84	-15.84	-49.098	-24.696	95.942	0.78299	-0.60242	0.15298	-0.02271	30.5	13111	100
2025-3-27 20:57:4.454	WT901BLE68-01(48591DE3C19B)	-0.414	-0.798	0.394	-5.676	3.052	-21.729	-77.21	8.71	-15.94	-49.098	-24.696	95.942	0.78299	-0.60242	0.15298	-0.02271	30.5	13111	100
2025-3-27 20:57:4.454	WT901BLE68-01(48591DE3C19B)	-0.414	-0.790	0.384	-5.798	-0.671	-16.357	-77.21	8.63	-15.99	-49.098	-24.696	95.942	0.78299	-0.60242	0.15298	-0.02271	30.5	13111	100
2025-3-27 20:57:4.454	WT901BLE68-01(48591DE3C19B)	-0.413	-0.790	0.384	-5.798	-0.671	-16.357	-77.20	8.55	-16.04	-49.098	-24.696	95.942	0.78299	-0.60242	0.15298	-0.02271	30.5	13111	100
2025-3-27 20:57:4.483	WT901BLE68-01(48591DE3C19B)	-0.413	-0.786	0.374	-5.798	-3.784	-10.010	-77.19	8.53	-16.04	-49.098	-24.696	95.942	0.78299	-0.60242	0.15298	-0.02271	30.5	13111	100
2025-3-27 20:57:4.483	WT901BLE68-01(48591DE3C19B)	-0.412	-0.786	0.374	-5.798	-3.784	-10.010	-77.18	8.51	-16.04	-49.098	-24.696	95.942	0.78299	-0.60242	0.15298	-0.02271	30.5	13111	100
2025-3-27 20:57:4.484	WT901BLE68-01(48591DE3C19B)	-0.412	-0.790	0.361	-6.409	-5.920	-4.272	-77.17	8.54	-16.01	-53.116	-26.068	96.824	0.78299	-0.60242	0.15298	-0.02271	30.5	13111	100
2025-3-27 20:57:4.484	WT901BLE68-01(48591DE3C19B)	-0.410	-0.790	0.361	-6.409	-5.920	-4.272	-77.16	8.57	-15.97	-53.116	-26.068	96.824	0.78299	-0.60242	0.15298	-0.02271	30.5	13111	100
2025-3-27 20:57:4.541	WT901BLE68-01(48591DE3C19B)	-0.410	-0.812	0.360	-6.531	-5.127	1.282	-77.15	8.67	-15.94	-53.116	-26.068	96.824	0.78299	-0.60242	0.15298	-0.02271	30.5	13111	100
2025-3-27 20:57:4.541	WT901BLE68-01(48591DE3C19B)	-0.411	-0.812	0.360	-6.531	-5.127	1.282	-77.14	8.76	-15.89	-53.116	-26.068	96.824	0.78299	-0.60242	0.15298	-0.02271	30.5	13111	100
2025-3-27 20:57:4.541	WT901BLE68-01(48591DE3C19B)	-0.411	-0.822	0.360	-5.127	-0.488	7.019	-77.12	8.91	-15.88	-53.116	-26.068	96.824	0.78299	-0.60242	0.15298	-0.02271	30.5	13111	100
2025-3-27 20:57:4.541	WT901BLE68-01(48591DE3C19B)	-0.420	-0.822	0.360	-5.127	-0.488	7.019	-77.10	9.07	-15.88	-53.116	-26.068	96.824	0.78299	-0.60242	0.15298	-0.02271	30.5	13111	100
2025-3-27 20:57:4.601	WT901BLE68-01(48591DE3C19B)	-0.420	-0.793	0.366	-2.563	7.080	13.000	-77.07	9.30	-15.92	-53.116	-26.068	96.824	0.78299	-0.60242	0.15298	-0.02271	30.5	13111	100
2025-3-27 20:57:4.601	WT901BLE68-01(48591DE3C19B)	-0.416	-0.793	0.366	-2.563	7.080	13.000	-77.04	9.53	-15.97	-53.116	-26.068	96.824	0.78299	-0.60242	0.15298	-0.02271	30.5	13111	100
2025-3-27 20:57:4.601	WT901BLE68-01(48591DE3C19B)	-0.416	-0.744	0.349	-0.244	14.526	18.738	-76.99	9.83	-16.08	-53.116	-26.068	96.824	0.78299	-0.60242	0.15298	-0.02271	30.5	13111	100
2025-3-27 20:57:4.601	WT901BLE68-01(48591DE3C19B)	-0.429	-0.744	0.349	-0.244	14.526	18.738	-76.95	10.13	-16.19	-53.116	-26.068	96.824	0.78299	-0.60242	0.15298	-0.02271	30.5	13111	100
2025-3-27 20:57:4.603	WT901BLE68-01(48591DE3C19B)	-0.429	-0.712	0.325	2.747	21.301	25.940	-76.88	10.52	-16.35	-53.116	-26.068	96.824	0.78299	-0.60242	0.15298	-0.02271	30.5	13111	100
2025-3-27 20:57:4.603	WT901BLE68-01(48591DE3C19B)	-0.456	-0.712	0.325	2.747	21.301	25.940	-76.82	10.91	-16.50	-53.116	-26.068	96.824	0.78299	-0.60242	0.15298	-0.02271	30.5	13111	100
2025-3-27 20:57:4.603	WT901BLE68-01(48591DE3C19B)	-0.456	-0.675	0.304	7.141	29.236	33.020	-76.72	11.39	-16.72	-53.116	-26.068	96.824	0.78299	-0.60242	0.15298	-0.02271	30.5	13111	100
2025-3-27 20:57:4.603	WT901BLE68-01(48591DE3C19B)	-0.476	-0.675	0.304	7.141	29.236	33.020	-76.63	11.86	-16.94	-53.116	-26.068	96.824	0.78299	-0.60242	0.15298	-0.02271	30.5	13111	100
2025-3-27 20:57:4.660	WT901BLE68-01(48591DE3C19B)	-0.476	-0.629	0.287	9.277	34.912	40.100	-76.53	12.42	-17.19	-53.116	-26.068	96.824	0.78299	-0.60242	0.15298	-0.02271	30.5	13111	100
2025-3-27 20:57:4.660	WT901BLE68-01(48591DE3C19B)	-0.479	-0.629	0.287	9.277	34.912	40.100	-76.43	12.98	-17.45	-53.116	-26.068	96.824	0.78299	-0.60242	0.15298	-0.02271	30.5	13111	100
2025-3-27 20:57:4.660	WT901BLE68-01(48591DE3C19B)	-0.479	-0.604	0.258	7.935	37.292	45.959	-76.35	13.61	-17.72	-53.116	-26.068	96.824	0.78299	-0.60242	0.15298	-0.02271	30.5	13111	100
2025-3-27 20:57:4.661	WT901BLE68-01(48591DE3C19B)	-0.480	-0.604	0.258	7.935	37.292	45.959	-76.27	14.23	-17.98	-53.116	-26.068	96.824	0.78299	-0.60242	0.15298	-0.02271	30.5	13111	100
2025-3-27 20:57:4.692	WT901BLE68-01(48591DE3C19B)	-0.501	-0.617	0.237	5.737	35.706	50.293	-76.21	14.89	-18.22	-53.116	-26.068	96.824	0.78299	-0.60242	0.15298	-0.02271	30.5	13111	100
2025-3-27 20:57:4.693	WT901BLE68-01(48591DE3C19B)	-0.501	-0.657	0.236	1.953	29.236	52.002	-76.17	15.56	-18.42	-53.116	-26.068	96.824	0.78299	-0.60242	0.15298	-0.02271	30.5	13111	100
2025-3-27 20:57:4.693	WT901BLE68-01(48591DE3C19B)	-0.526	-0.657	0.236	1.953	29.236	52.002	-76.15	16.22	-18.58	-53.116	-26.068	96.824	0.78299	-0.60242	0.15298	-0.02271	30.5	13111	100
2025-3-27 20:57:4.693	WT901BLE68-01(48591DE3C19B)	-0.526	-0.727	0.249	0.183	19.531	53.955	-76.11	16.88	-18.70	-53.116	-26.068	96.824	0.78320	-0.58209	0.21539	-0.03568	30.5	13111	100
2025-3-27 20:57:4.724	WT901BLE68-01(48591DE3C19B)	-0.514	-0.727	0.249	0.183	19.531	53.955	-76.09	17.53	-18.76	-53.116	-26.068	96.824	0.78320	-0.58209	0.21539	-0.03568	30.5	13111	100
2025-3-27 20:57:4.724	WT901BLE68-01(48591DE3C19B)	-0.514	-0.724	0.262	1.282	9.094	58.594	-76.03	18.20	-18.76	-53.116	-26.068	96.824	0.78320	-0.58209	0.21539	-0.03568	30.5	13111	100
2025-3-27 20:57:4.724	WT901BLE68-01(48591DE3C19B)	-0.448	-0.724	0.262	1.282	9.094	58.594	-75.95	18.87	-18.70	-53.116	-26.068	96.824	0.78320	-0.58209	0.21539	-0.03568	30.5	13111	100
2025-3-27 20:57:4.724	WT901BLE68-01(48591DE3C19B)	-0.448	-0.638	0.258	2.625	4.822	67.383	-75.86	19.58	-18.61	-53.116	-26.068	96.824	0.78320	-0.58209	0.21539	-0.03568	30.5	13111	100
2025-3-27 20:57:4.781	WT901BLE68-01(48591DE3C19B)	-0.375	-0.638	0.258	2.625	4.822	67.383	-75.75	20.31	-18.47	-53.116	-26.068	96.824	0.78320	-0.58209	0.21539	-0.03568	30.5	13111	100
2025-3-27 20:57:4.781	WT901BLE68-01(48591DE3C19B)	-0.375	-0.527	0.253	5.981	7.324	80.627	-75.62	21.12	-18.33	-53.116	-26.068	96.824	0.78320	-0.58209	0.21539	-0.03568	30.5	13111	100
2025-3-27 20:57:4.781	WT901BLE68-01(48591DE3C19B)	-0.305	-0.527	0.253	5.981	7.324	80.627	-75.47	21.98	-18.18	-53.116	-26.068	96.824	0.78320	-0.58209	0.21539	-0.03568	30.5	13111	100
2025-3-27 20:57:4.781	WT901BLE68-01(48591DE3C19B)	-0.305	-0.430	0.229	6.409	10.376	94.482	-75.30	22.91	-18.03	-53.116	-26.068	96.824	0.78320	-0.58209	0.21539	-0.03568	30.5	13111	100
2025-3-27 20:57:4.810	WT901BLE68-01(48591DE3C19B)	-0.232	-0.430	0.229	6.409	10.376	94.482	-75.13	23.90	-17.86	-53.116	-26.068	96.824	0.78320	-0.58209	0.21539	-0.03568	30.5	13111	100
2025-3-27 20:57:4.810	WT901BLE68-01(48591DE3C19B)	-0.232	-0.480	0.201	1.892	11.353	102.295	-74.98	24.93	-17.69	-53.116	-26.068	96.824	0.78320	-0.58209	0.21539	-0.03568	30.5	13111	100
2025-3-27 20:57:4.810	WT901BLE68-01(48591DE3C19B)	-0.211	-0.480	0.201	1.892	11.353	102.295	-74.83	25.98	-17.50	-53.116	-26.068	96.824	0.78320	-0.58209	0.21539	-0.03568	30.5	13111	100
2025-3-27 20:57:4.810	WT901BLE68-01(48591DE3C19B)	-0.211	-0.632	0.172	-2.197	9.460	101.624	-74.71	27.02	-17.30	-53.116	-26.068	96.824	0.78320	-0.58209	0.21539	-0.03568	30.5	13111	100
2025-3-27 20:57:4.843	WT901BLE68-01(48591DE3C19B)	-0.291	-0.632	0.172	-2.197	9.460	101.624	-74.60	28.04	-17.08	-53.116	-26.068	96.824	0.78320	-0.58209	0.21539	-0.03568	30.5	13111	100
2025-3-27 20:57:4.843	WT901BLE68-01(48591DE3C19B)	-0.291	-0.968	0.217	-11.658	2.930	85.938	-74.53	28.95	-16.85	-53.116	-26.068	96.824	0.78320	-0.58209	0.21539	-0.03568	30.5	13111	100
2025-3-27 20:57:4.843	WT901BLE68-01(48591DE3C19B)	-0.506	-0.968	0.217	-11.658	2.930	85.938	-74.50	29.77	-16.59	-53.116	-26.068	96.824	0.78320	-0.58209	0.21539	-0.03568	30.5	13111	100
2025-3-27 20:57:4.843	WT901BLE68-01(48591DE3C19B)	-2.023	-1.787	0.164	-23.254	-15.869	49.561	-74.52	30.38	-16.29	-53.116	-26.068	96.824	0.78320	-0.58209	0.21539	-0.03568	30.5	13111	100
2025-3-27 20:57:4.901	WT901BLE68-01(48591DE3C19B)	-0.527	-7.149	0.654	-23.254	-15.869	49.561	-74.59	30.77	-15.95	-53.116	-26.068	96.824	0.78320	-0.58209	0.21539	-0.03568	30.5	13111	100
2025-3-27 20:57:4.901	WT901BLE68-01(48591DE3C19B)	-0.527	-2.328	0.146	-1.831	-33.752	29.724	-74.55	31.01	-15.53	-57.232	-24.010	104.370	0.78320	-0.58209	0.21539	-0.03568	30.5	13111	100
2025-3-27 20:57:4.901	WT901BLE68-01(48591DE3C19B)	-0.494	-2.328	0.146	-1.831	-33.752	29.724	-74.36	31.13	-15.04	-57.232	-24.010	104.370	0.78320	-0.58209	0.21539	-0.03568	30.5	13111	100
2025-3-27 20:57:4.901	WT901BLE68-01(48591DE3C19B)	-0.494	-2.042	0.167	31.250	-31.433	30.273	-74.02	31.25	-14.57	-57.232	-24.010	104.370	0.78320	-0.58209	0.21539	-0.03568	30.5	13111	100
2025-3-27 20:57:4.930	WT901BLE68-01(48591DE3C19B)	-0.245	-2.042	0.167	31.250	-31.433	30.273	-73.53	31.36	-14.10	-57.232	-24.010	104.370	0.78320	-0.58209	0.21539	-0.03568	30.5	13111	100
2025-3-27 20:57:4.930	WT901BLE68-01(48591DE3C19B)	-0.245	-1.373	0.136	33.325	-6.836	12.024	-73.11	31.42	-13.81	-57.232	-24.010	104.370	0.78320	-0.58209	0.21539	-0.03568	30.5	13111	100
2025-3-27 20:57:4.930	WT901BLE68-01(48591DE3C19B)	-0.026	-1.373	0.136	33.325	-6.836	12.024	-72.78	31.43	-13.68	-57.232	-24.010	104.370	0.78320	-0.58209	0.21539	-0.03568	30.5	13111	100
2025-3-27 20:57:4.930	WT901BLE68-01(48591DE3C19B)	-0.026	-0.967	0.171	28.137	37.537	10.681	-72.60	31.49	-13.80	-57.232	-24.010	104.370	0.78320	-0.58209	0.21539	-0.03568	30.5	13111	100
2025-3-27 20:57:4.961	WT901BLE68-01(48591DE3C19B)	0.031	-0.967	0.171	28.137	37.537	10.681	-72.58	31.60	-14.18	-57.232	-24.010	104.370	0.78320	-0.58209	0.21539	-0.03568	30.5	13111	100
2025-3-27 20:57:4.961	WT901BLE68-01(48591DE3C19B)	0.031	-0.747	0.238	5.737	67.627	14.160	-72.76	31.77	-14.72	-57.232	-24.010	104.370	0.78320	-0.58209	0.21539	-0.03568	30.5	13111	100
2025-3-27 20:57:4.961	WT901BLE68-01(48591DE3C19B)	0.009	-0.747	0.238	5.737	67.627	14.160	-73.14	31.99	-15.42	-57.232	-24.010	104.370	0.78320	-0.58209	0.21539	-0.03568	30.5	13111	100
2025-3-27 20:57:4.961	WT901BLE68-01(48591DE3C19B)	0.009	-0.801	0.271	-18.921	65.002	4.517	-73.63	32.16	-16.13	-57.232	-24.010	104.370	0.78320	-0.58209	0.21539	-0.03568	30.5	13111	100
2025-3-27 20:57:5.26	WT901BLE68-01(48591DE3C19B)	-0.038	-0.801	0.271	-18.921	65.002	4.517	-74.25	32.26	-16.85	-57.232	-24.010	104.370	0.78320	-0.58209	0.21539	-0.03568	30.5	13111	100
2025-3-27 20:57:5.26	WT901BLE68-01(48591DE3C19B)	-0.038	-0.942	0.271	-29.114	53.955	-12.634	-74.89	32.26	-17.52	-57.232	-24.010	104.370	0.78320	-0.58209	0.21539	-0.03568	30.5	13111	100
2025-3-27 20:57:5.26	WT901BLE68-01(48591DE3C19B)	-0.192	-0.942	0.271	-29.114	53.955	-12.634	-75.55	32.14	-18.17	-57.232	-24.010	104.370	0.78320	-0.58209	0.21539	-0.03568	30.5	13111	100
2025-3-27 20:57:5.26	WT901BLE68-01(48591DE3C19B)	-0.192	-0.929	0.239	-26.489	41.809	-28.442	-76.17	31.93	-18.76	-57.232	-24.010	104.370	0.78320	-0.58209	0.21539	-0.03568	30.5	13111	100
2025-3-27 20:57:5.53	WT901BLE68-01(48591DE3C19B)	-0.328	-0.929	0.239	-26.489	41.809	-28.442	-76.74	31.62	-19.30	-57.232	-24.010	104.370	0.78320	-0.58209	0.21539	-0.03568	30.5	13111	100
2025-3-27 20:57:5.53	WT901BLE68-01(48591DE3C19B)	-0.328	-0.838	0.180	-21.912	34.119	-50.842	-77.27	31.20	-19.81	-57.232	-24.010	104.370	0.78320	-0.58209	0.21539	-0.03568	30.5	13111	100
2025-3-27 20:57:5.53	WT901BLE68-01(48591DE3C19B)	-0.398	-0.838	0.180	-21.912	34.119	-50.842	-77.76	30.66	-20.31	-57.232	-24.010	104.370	0.78320	-0.58209	0.21539	-0.03568	30.5	13111	100
2025-3-27 20:57:5.53	WT901BLE68-01(48591DE3C19B)	-0.398	-0.684	0.116	-7.874	21.057	-61.707	-78.14	30.06	-20.74	-57.232	-24.010	104.370	0.78320	-0.58209	0.21539	-0.03568	30.5	13111	100
2025-3-27 20:57:5.83	WT901BLE68-01(48591DE3C19B)	-0.390	-0.684	0.116	-7.874	21.057	-61.707	-78.40	29.40	-21.10	-57.232	-24.010	104.370	0.78320	-0.58209	0.21539	-0.03568	30.5	13111	100
2025-3-27 20:57:5.83	WT901BLE68-01(48591DE3C19B)	-0.390	-0.459	0.106	2.502	-8.179	-63.293	-78.54	28.71	-21.30	-57.232	-24.010	104.370	0.78320	-0.58209	0.21539	-0.03568	30.5	13111	100
2025-3-27 20:57:5.83	WT901BLE68-01(48591DE3C19B)	-0.259	-0.459	0.106	2.502	-8.179	-63.293	-78.54	28.00	-21.32	-57.232	-24.010	104.370	0.76651	-0.56885	0.29773	0.01151	30.5	13111	100
2025-3-27 20:57:5.84	WT901BLE68-01(48591DE3C19B)	-0.259	-0.245	0.131	6.653	-30.762	-56.458	-78.45	27.32	-21.23	-57.232	-24.010	104.370	0.76651	-0.56885	0.29773	0.01151	30.5	13111	100
2025-3-27 20:57:5.141	WT901BLE68-01(48591DE3C19B)	-0.246	-0.245	0.131	6.653	-30.762	-56.458	-78.29	26.65	-20.99	-57.232	-24.010	104.370	0.76651	-0.56885	0.29773	0.01151	30.5	13111	100
2025-3-27 20:57:5.141	WT901BLE68-01(48591DE3C19B)	-0.246	-0.161	0.164	5.981	-40.100	-49.622	-78.10	26.02	-20.70	-57.232	-24.010	104.370	0.76651	-0.56885	0.29773	0.01151	30.5	13111	100
2025-3-27 20:57:5.141	WT901BLE68-01(48591DE3C19B)	-0.344	-0.161	0.164	5.981	-40.100	-49.622	-77.89	25.42	-20.36	-57.232	-24.010	104.370	0.76651	-0.56885	0.29773	0.01151	30.5	13111	100
2025-3-27 20:57:5.141	WT901BLE68-01(48591DE3C19B)	-0.344	-0.284	0.165	-0.061	-56.641	-40.100	-77.66	24.89	-19.83	-57.232	-24.010	104.370	0.76651	-0.56885	0.29773	0.01151	30.5	13111	100
2025-3-27 20:57:5.172	WT901BLE68-01(48591DE3C19B)	-0.428	-0.284	0.165	-0.061	-56.641	-40.100	-77.43	24.37	-19.30	-57.232	-24.010	104.370	0.76651	-0.56885	0.29773	0.01151	30.5	13111	100
2025-3-27 20:57:5.172	WT901BLE68-01(48591DE3C19B)	-0.428	-0.544	0.120	-10.132	-82.214	-33.875	-77.20	23.86	-18.48	-57.232	-24.010	104.370	0.76651	-0.56885	0.29773	0.01151	30.5	13111	100
2025-3-27 20:57:5.172	WT901BLE68-01(48591DE3C19B)	-0.313	-0.544	0.120	-10.132	-82.214	-33.875	-76.97	23.36	-17.67	-57.232	-24.010	104.370	0.76651	-0.56885	0.29773	0.01151	30.5	13111	100
2025-3-27 20:57:5.172	WT901BLE68-01(48591DE3C19B)	-0.313	-0.792	0.050	-23.010	-79.407	-33.142	-76.90	22.88	-16.89	-57.232	-24.010	104.370	0.76651	-0.56885	0.29773	0.01151	30.5	13111	100
2025-3-27 20:57:5.200	WT901BLE68-01(48591DE3C19B)	-0.237	-0.792	0.050	-23.010	-79.407	-33.142	-76.84	22.39	-16.12	-57.232	-24.010	104.370	0.76651	-0.56885	0.29773	0.01151	30.5	13111	100
2025-3-27 20:57:5.200	WT901BLE68-01(48591DE3C19B)	-0.237	-1.113	0.011	-34.058	-45.410	-49.744	-77.06	21.82	-15.74	-57.232	-24.010	104.370	0.76651	-0.56885	0.29773	0.01151	30.5	13111	100
2025-3-27 20:57:5.200	WT901BLE68-01(48591DE3C19B)	-0.453	-1.113	0.011	-34.058	-45.410	-49.744	-77.29	21.24	-15.37	-57.232	-24.010	104.370	0.76651	-0.56885	0.29773	0.01151	30.5	13111	100
2025-3-27 20:57:5.200	WT901BLE68-01(48591DE3C19B)	-0.453	-1.646	0.192	-29.907	-8.057	-83.679	-77.65	20.40	-15.46	-57.232	-24.010	104.370	0.76651	-0.56885	0.29773	0.01151	30.5	13111	100
2025-3-27 20:57:5.291	WT901BLE68-01(48591DE3C19B)	-0.817	-1.646	0.192	-29.907	-8.057	-83.679	-78.01	19.57	-15.55	-57.232	-24.010	104.370	0.76651	-0.56885	0.29773	0.01151	30.5	13111	100
2025-3-27 20:57:5.292	WT901BLE68-01(48591DE3C19B)	-0.817	-1.815	0.565	-9.766	8.118	-95.825	-78.22	18.65	-15.81	-57.232	-24.010	104.370	0.76651	-0.56885	0.29773	0.01151	30.5	13111	100
2025-3-27 20:57:5.292	WT901BLE68-01(48591DE3C19B)	-1.068	-1.815	0.565	-9.766	8.118	-95.825	-78.41	17.75	-16.08	-57.232	-24.010	104.370	0.76651	-0.56885	0.29773	0.01151	30.5	13111	100
2025-3-27 20:57:5.292	WT901BLE68-01(48591DE3C19B)	-1.068	-1.650	0.795	2.502	20.691	-106.262	-78.51	16.78	-16.50	-57.232	-24.010	104.370	0.76651	-0.56885	0.29773	0.01151	30.5	13111	100
2025-3-27 20:57:5.292	WT901BLE68-01(48591DE3C19B)	-0.839	-1.650	0.795	2.502	20.691	-106.262	-78.59	15.83	-16.92	-57.232	-24.010	104.370	0.76651	-0.56885	0.29773	0.01151	30.5	13111	100
2025-3-27 20:57:5.293	WT901BLE68-01(48591DE3C19B)	-0.839	-1.371	0.704	19.714	74.524	-105.286	-78.62	15.00	-17.87	-57.232	-24.010	104.370	0.76651	-0.56885	0.29773	0.01151	30.5	13111	100
2025-3-27 20:57:5.293	WT901BLE68-01(48591DE3C19B)	-0.724	-1.371	0.704	19.714	74.524	-105.286	-78.63	14.18	-18.84	-57.232	-24.010	104.370	0.76651	-0.56885	0.29773	0.01151	30.5	13111	100
2025-3-27 20:57:5.293	WT901BLE68-01(48591DE3C19B)	-0.724	-1.184	0.399	24.536	121.094	-84.167	-78.68	13.66	-20.21	-57.232	-24.010	104.370	0.76651	-0.56885	0.29773	0.01151	30.5	13111	100
2025-3-27 20:57:5.326	WT901BLE68-01(48591DE3C19B)	-0.598	-1.184	0.399	24.536	121.094	-84.167	-78.72	13.15	-21.60	-57.232	-24.010	104.370	0.76651	-0.56885	0.29773	0.01151	30.5	13111	100
2025-3-27 20:57:5.326	WT901BLE68-01(48591DE3C19B)	-0.598	-0.896	0.247	24.719	106.750	-51.025	-78.71	12.94	-22.76	-57.232	-24.010	104.370	0.76651	-0.56885	0.29773	0.01151	30.5	13111	100
2025-3-27 20:57:5.326	WT901BLE68-01(48591DE3C19B)	-0.661	-0.896	0.247	24.719	106.750	-51.025	-78.68	12.73	-23.93	-59.388	-24.304	109.662	0.76651	-0.56885	0.29773	0.01151	30.5	13111	100
2025-3-27 20:57:5.326	WT901BLE68-01(48591DE3C19B)	-0.661	-0.681	0.280	1.648	43.701	-21.729	-78.73	12.69	-24.41	-59.388	-24.304	109.662	0.76651	-0.56885	0.29773	0.01151	30.5	13111	100
2025-3-27 20:57:5.381	WT901BLE68-01(48591DE3C19B)	-0.590	-0.681	0.280	1.648	43.701	-21.729	-78.79	12.66	-24.89	-59.388	-24.304	109.662	0.76651	-0.56885	0.29773	0.01151	30.5	13111	100
2025-3-27 20:57:5.382	WT901BLE68-01(48591DE3C19B)	-0.590	-0.729	0.301	-22.827	-24.170	1.770	-78.92	12.73	-24.64	-59.388	-24.304	109.662	0.76651	-0.56885	0.29773	0.01151	30.5	13111	100
2025-3-27 20:57:5.382	WT901BLE68-01(48591DE3C19B)	-0.484	-0.729	0.301	-22.827	-24.170	1.770	-79.05	12.81	-24.39	-59.388	-24.304	109.662	0.76651	-0.56885	0.29773	0.01151	30.5	13111	100
2025-3-27 20:57:5.382	WT901BLE68-01(48591DE3C19B)	-0.484	-0.740	0.316	-22.156	-43.762	28.320	-79.12	13.11	-23.89	-59.388	-24.304	109.662	0.76651	-0.56885	0.29773	0.01151	30.5	13111	100
2025-3-27 20:57:5.410	WT901BLE68-01(48591DE3C19B)	-0.412	-0.740	0.316	-22.156	-43.762	28.320	-79.18	13.41	-23.39	-59.388	-24.304	109.662	0.76651	-0.56885	0.29773	0.01151	30.5	13111	100
2025-3-27 20:57:5.410	WT901BLE68-01(48591DE3C19B)	-0.412	-0.578	0.302	-13.977	-38.147	43.457	-79.16	13.86	-22.91	-59.388	-24.304	109.662	0.76651	-0.56885	0.29773	0.01151	30.5	13111	100
2025-3-27 20:57:5.410	WT901BLE68-01(48591DE3C19B)	-0.292	-0.578	0.302	-13.977	-38.147	43.457	-79.13	14.32	-22.44	-59.388	-24.304	109.662	0.76651	-0.56885	0.29773	0.01151	30.5	13111	100
2025-3-27 20:57:5.411	WT901BLE68-01(48591DE3C19B)	-0.292	-0.379	0.266	-8.362	-20.447	51.819	-79.09	14.89	-22.13	-59.388	-24.304	109.662	0.76651	-0.56885	0.29773	0.01151	30.5	13111	100
2025-3-27 20:57:5.440	WT901BLE68-01(48591DE3C19B)	-0.154	-0.379	0.266	-8.362	-20.447	51.819	-79.02	15.45	-21.81	-59.388	-24.304	109.662	0.76651	-0.56885	0.29773	0.01151	30.5	13111	100
2025-3-27 20:57:5.440	WT901BLE68-01(48591DE3C19B)	-0.154	-0.206	0.222	-3.418	5.981	58.777	-78.98	16.13	-21.75	-59.388	-24.304	109.662	0.76651	-0.56885	0.29773	0.01151	30.5	13111	100
2025-3-27 20:57:5.440	WT901BLE68-01(48591DE3C19B)	-0.127	-0.206	0.222	-3.418	5.981	58.777	-78.93	16.80	-21.69	-59.388	-24.304	109.662	0.76651	-0.56885	0.29773	0.01151	30.5	13111	100
2025-3-27 20:57:5.441	WT901BLE68-01(48591DE3C19B)	-0.127	-0.154	0.196	-4.639	23.804	65.247	-78.94	17.57	-21.79	-59.388	-24.304	109.662	0.76651	-0.56885	0.29773	0.01151	30.5	13111	100
2025-3-27 20:57:5.501	WT901BLE68-01(48591DE3C19B)	-0.178	-0.154	0.196	-4.639	23.804	65.247	-78.94	18.34	-21.90	-59.388	-24.304	109.662	0.76651	-0.56885	0.29773	0.01151	30.5	13111	100
2025-3-27 20:57:5.502	WT901BLE68-01(48591DE3C19B)	-0.178	-0.319	0.171	-14.282	21.973	65.002	-79.02	19.08	-21.98	-59.388	-24.304	109.662	0.76651	-0.56885	0.29773	0.01151	30.5	13111	100
2025-3-27 20:57:5.502	WT901BLE68-01(48591DE3C19B)	-0.234	-0.319	0.171	-14.282	21.973	65.002	-79.12	19.83	-22.07	-59.388	-24.304	109.662	0.76651	-0.56885	0.29773	0.01151	30.5	13111	100
2025-3-27 20:57:5.502	WT901BLE68-01(48591DE3C19B)	-0.234	-0.583	0.105	-22.766	7.874	61.096	-79.25	20.51	-22.02	-59.388	-24.304	109.662	0.76651	-0.56885	0.29773	0.01151	30.5	13111	100
2025-3-27 20:57:5.533	WT901BLE68-01(48591DE3C19B)	-0.309	-0.583	0.105	-22.766	7.874	61.096	-79.39	21.17	-21.96	-59.388	-24.304	109.662	0.76480	-0.58942	0.25836	-0.02890	30.5	13111	100
2025-3-27 20:57:5.533	WT901BLE68-01(48591DE3C19B)	-0.309	-0.947	0.092	-34.424	-17.944	50.293	-79.57	21.67	-21.65	-59.388	-24.304	109.662	0.76480	-0.58942	0.25836	-0.02890	30.5	13111	100
2025-3-27 20:57:5.533	WT901BLE68-01(48591DE3C19B)	-0.482	-0.947	0.092	-34.424	-17.944	50.293	-79.76	22.16	-21.35	-59.388	-24.304	109.662	0.76480	-0.58942	0.25836	-0.02890	30.5	13111	100
2025-3-27 20:57:5.533	WT901BLE68-01(48591DE3C19B)	-0.482	-1.788	0.052	-51.025	-51.392	30.090	-80.01	22.38	-20.72	-59.388	-24.304	109.662	0.76480	-0.58942	0.25836	-0.02890	30.5	13111	100
2025-3-27 20:57:5.591	WT901BLE68-01(48591DE3C19B)	-0.474	-1.788	0.052	-51.025	-51.392	30.090	-80.27	22.59	-20.09	-59.388	-24.304	109.662	0.76480	-0.58942	0.25836	-0.02890	30.5	13111	100
2025-3-27 20:57:5.591	WT901BLE68-01(48591DE3C19B)	-0.474	-2.561	0.018	-16.907	-73.669	8.118	-80.13	22.53	-19.26	-59.388	-24.304	109.662	0.76480	-0.58942	0.25836	-0.02890	30.5	13111	100
2025-3-27 20:57:5.591	WT901BLE68-01(48591DE3C19B)	-0.400	-2.561	0.018	-16.907	-73.669	8.118	-80.01	22.46	-18.44	-59.388	-24.304	109.662	0.76480	-0.58942	0.25836	-0.02890	30.5	13111	100
2025-3-27 20:57:5.591	WT901BLE68-01(48591DE3C19B)	-0.179	-1.933	0.109	46.082	-70.313	16.663	-79.27	22.47	-17.64	-59.388	-24.304	109.662	0.76480	-0.58942	0.25836	-0.02890	30.5	13111	100
2025-3-27 20:57:5.626	WT901BLE68-01(48591DE3C19B)	-0.179	-1.245	0.114	39.490	-47.546	4.272	-78.62	22.42	-16.97	-59.388	-24.304	109.662	0.76480	-0.58942	0.25836	-0.02890	30.5	13111	100
2025-3-27 20:57:5.626	WT901BLE68-01(48591DE3C19B)	-0.001	-1.245	0.114	39.490	-47.546	4.272	-78.06	22.32	-16.44	-59.388	-24.304	109.662	0.76480	-0.58942	0.25836	-0.02890	30.5	13111	100
2025-3-27 20:57:5.627	WT901BLE68-01(48591DE3C19B)	-0.001	-0.981	0.145	36.682	5.676	4.456	-77.63	22.27	-16.18	-59.388	-24.304	109.662	0.76480	-0.58942	0.25836	-0.02890	30.5	13111	100
2025-3-27 20:57:5.627	WT901BLE68-01(48591DE3C19B)	-0.001	-0.981	0.145	36.682	5.676	4.456	-77.32	22.28	-16.21	-59.388	-24.304	109.662	0.76480	-0.58942	0.25836	-0.02890	30.5	13111	100
2025-3-27 20:57:5.653	WT901BLE68-01(48591DE3C19B)	-0.001	-0.836	0.187	23.743	49.866	11.475	-77.16	22.36	-16.47	-59.388	-24.304	109.662	0.76480	-0.58942	0.25836	-0.02890	30.5	13111	100
2025-3-27 20:57:5.653	WT901BLE68-01(48591DE3C19B)	-0.083	-0.836	0.187	23.743	49.866	11.475	-77.15	22.52	-16.95	-59.388	-24.304	109.662	0.76480	-0.58942	0.25836	-0.02890	30.5	13111	100
2025-3-27 20:57:5.653	WT901BLE68-01(48591DE3C19B)	-0.083	-0.735	0.227	12.146	55.908	12.024	-77.20	22.68	-17.46	-59.388	-24.304	109.662	0.76480	-0.58942	0.25836	-0.02890	30.5	13111	100
2025-3-27 20:57:5.653	WT901BLE68-01(48591DE3C19B)	-0.152	-0.735	0.227	12.146	55.908	12.024	-77.32	22.85	-18.00	-59.388	-24.304	109.662	0.76480	-0.58942	0.25836	-0.02890	30.5	13111	100
2025-3-27 20:57:5.682	WT901BLE68-01(48591DE3C19B)	-0.152	-0.667	0.264	4.272	42.847	7.446	-77.46	22.97	-18.48	-59.388	-24.304	109.662	0.76480	-0.58942	0.25836	-0.02890	30.5	13111	100
2025-3-27 20:57:5.683	WT901BLE68-01(48591DE3C19B)	-0.270	-0.667	0.264	4.272	42.847	7.446	-77.60	23.07	-18.89	-59.388	-24.304	109.662	0.76480	-0.58942	0.25836	-0.02890	30.5	13111	100
2025-3-27 20:57:5.683	WT901BLE68-01(48591DE3C19B)	-0.270	-0.601	0.260	7.019	32.532	2.441	-77.71	23.12	-19.26	-55.272	-21.756	108.682	0.76480	-0.58942	0.25836	-0.02890	30.5	13111	100
2025-3-27 20:57:5.683	WT901BLE68-01(48591DE3C19B)	-0.344	-0.601	0.260	7.019	32.532	2.441	-77.77	23.14	-19.58	-55.272	-21.756	108.682	0.76480	-0.58942	0.25836	-0.02890	30.5	13111	100
2025-3-27 20:57:5.741	WT901BLE68-01(48591DE3C19B)	-0.344	-0.521	0.189	14.465	20.630	4.028	-77.77	23.17	-19.83	-55.272	-21.756	108.682	0.76480	-0.58942	0.25836	-0.02890	30.5	13111	100
2025-3-27 20:57:5.741	WT901BLE68-01(48591DE3C19B)	-0.306	-0.521	0.189	14.465	20.630	4.028	-77.71	23.20	-20.02	-55.272	-21.756	108.682	0.76480	-0.58942	0.25836	-0.02890	30.5	13111	100
2025-3-27 20:57:5.741	WT901BLE68-01(48591DE3C19B)	-0.306	-0.437	0.116	22.278	7.019	13.245	-77.56	23.26	-20.12	-55.272	-21.756	108.682	0.76480	-0.58942	0.25836	-0.02890	30.5	13111	100
2025-3-27 20:57:5.741	WT901BLE68-01(48591DE3C19B)	-0.202	-0.437	0.116	22.278	7.019	13.245	-77.35	23.37	-20.14	-55.272	-21.756	108.682	0.76480	-0.58942	0.25836	-0.02890	30.5	13111	100
2025-3-27 20:57:5.771	WT901BLE68-01(48591DE3C19B)	-0.202	-0.396	0.068	24.231	-1.648	22.827	-77.11	23.51	-20.10	-55.272	-21.756	108.682	0.76480	-0.58942	0.25836	-0.02890	30.5	13111	100
2025-3-27 20:57:5.771	WT901BLE68-01(48591DE3C19B)	-0.209	-0.396	0.068	24.231	-1.648	22.827	-76.84	23.69	-20.01	-55.272	-21.756	108.682	0.76480	-0.58942	0.25836	-0.02890	30.5	13111	100
2025-3-27 20:57:5.771	WT901BLE68-01(48591DE3C19B)	-0.209	-0.517	0.077	19.653	-8.240	26.306	-76.58	23.89	-19.87	-55.272	-21.756	108.682	0.76480	-0.58942	0.25836	-0.02890	30.5	13111	100
2025-3-27 20:57:5.771	WT901BLE68-01(48591DE3C19B)	-0.350	-0.517	0.077	19.653	-8.240	26.306	-76.32	24.09	-19.69	-55.272	-21.756	108.682	0.76480	-0.58942	0.25836	-0.02890	30.5	13111	100
2025-3-27 20:57:5.830	WT901BLE68-01(48591DE3C19B)	-0.350	-0.710	0.139	17.090	-23.254	28.870	-76.05	24.29	-19.43	-55.272	-21.756	108.682	0.76480	-0.58942	0.25836	-0.02890	30.5	13111	100
2025-3-27 20:57:5.831	WT901BLE68-01(48591DE3C19B)	-0.406	-0.710	0.139	17.090	-23.254	28.870	-75.76	24.48	-19.09	-55.272	-21.756	108.682	0.76480	-0.58942	0.25836	-0.02890	30.5	13111	100
2025-3-27 20:57:5.831	WT901BLE68-01(48591DE3C19B)	-0.406	-0.895	0.119	-2.991	-40.100	17.212	-75.54	24.60	-18.67	-55.272	-21.756	108.682	0.76480	-0.58942	0.25836	-0.02890	30.5	13111	100
2025-3-27 20:57:5.831	WT901BLE68-01(48591DE3C19B)	-0.478	-0.895	0.119	-2.991	-40.100	17.212	-75.39	24.65	-18.17	-55.272	-21.756	108.682	0.76480	-0.58942	0.25836	-0.02890	30.5	13111	100
2025-3-27 20:57:5.862	WT901BLE68-01(48591DE3C19B)	-0.478	-1.588	0.215	-30.212	-46.204	-24.963	-75.39	24.48	-17.70	-55.272	-21.756	108.682	0.76480	-0.58942	0.25836	-0.02890	30.5	13111	100
2025-3-27 20:57:5.863	WT901BLE68-01(48591DE3C19B)	-0.635	-1.588	0.215	-30.212	-46.204	-24.963	-75.54	24.09	-17.27	-55.272	-21.756	108.682	0.76480	-0.58942	0.25836	-0.02890	30.5	13111	100
2025-3-27 20:57:5.863	WT901BLE68-01(48591DE3C19B)	-0.635	-2.236	0.411	-8.301	-39.795	-54.504	-75.62	23.58	-16.90	-55.272	-21.756	108.682	0.76480	-0.58942	0.25836	-0.02890	30.5	13111	100
2025-3-27 20:57:5.863	WT901BLE68-01(48591DE3C19B)	-0.781	-2.236	0.411	-8.301	-39.795	-54.504	-75.62	22.92	-16.61	-55.272	-21.756	108.682	0.76480	-0.58942	0.25836	-0.02890	30.5	13111	100
2025-3-27 20:57:5.951	WT901BLE68-01(48591DE3C19B)	-0.781	-1.708	0.674	19.226	-42.847	-53.650	-75.48	22.27	-16.30	-55.272	-21.756	108.682	0.76480	-0.58942	0.25836	-0.02890	30.5	13111	100
2025-3-27 20:57:5.951	WT901BLE68-01(48591DE3C19B)	-0.644	-1.708	0.674	19.226	-42.847	-53.650	-75.19	21.63	-15.97	-55.272	-21.756	108.682	0.76480	-0.58942	0.25836	-0.02890	30.5	13111	100
2025-3-27 20:57:5.951	WT901BLE68-01(48591DE3C19B)	-0.644	-1.155	0.703	10.010	-16.174	-70.190	-75.00	20.95	-15.82	-55.272	-21.756	108.682	0.78827	-0.57346	0.22284	0.00018	30.5	13111	100
2025-3-27 20:57:5.951	WT901BLE68-01(48591DE3C19B)	-0.458	-1.155	0.703	10.010	-16.174	-70.190	-74.92	20.23	-15.83	-55.272	-21.756	108.682	0.78827	-0.57346	0.22284	0.00018	30.5	13111	100
2025-3-27 20:57:5.952	WT901BLE68-01(48591DE3C19B)	-0.458	-0.969	0.606	13.672	53.589	-58.838	-74.91	19.65	-16.18	-55.272	-21.756	108.682	0.78827	-0.57346	0.22284	0.00018	30.5	13111	100
2025-3-27 20:57:5.952	WT901BLE68-01(48591DE3C19B)	-0.320	-0.969	0.606	13.672	53.589	-58.838	-74.99	19.24	-16.87	-55.272	-21.756	108.682	0.78827	-0.57346	0.22284	0.00018	30.5	13111	100
2025-3-27 20:57:5.952	WT901BLE68-01(48591DE3C19B)	-0.320	-0.764	0.396	14.832	89.966	-29.053	-75.10	19.01	-17.70	-55.272	-21.756	108.682	0.78827	-0.57346	0.22284	0.00018	30.5	13111	100
2025-3-27 20:57:5.952	WT901BLE68-01(48591DE3C19B)	-0.345	-0.764	0.396	14.832	89.966	-29.053	-75.25	18.97	-18.68	-55.272	-21.756	108.682	0.78827	-0.57346	0.22284	0.00018	30.5	13111	100
2025-3-27 20:57:5.981	WT901BLE68-01(48591DE3C19B)	-0.345	-0.507	0.310	-3.479	48.157	-8.484	-75.40	18.98	-19.42	-55.272	-21.756	108.682	0.78827	-0.57346	0.22284	0.00018	30.5	13111	100
2025-3-27 20:57:5.981	WT901BLE68-01(48591DE3C19B)	-0.362	-0.507	0.310	-3.479	48.157	-8.484	-75.57	19.04	-19.92	-55.272	-21.756	108.682	0.78827	-0.57346	0.22284	0.00018	30.5	13111	100
2025-3-27 20:57:5.981	WT901BLE68-01(48591DE3C19B)	-0.362	-0.657	0.255	-36.377	-32.471	-4.333	-75.76	19.02	-20.00	-55.272	-21.756	108.682	0.78827	-0.57346	0.22284	0.00018	30.5	13111	100
2025-3-27 20:57:5.981	WT901BLE68-01(48591DE3C19B)	-0.345	-0.657	0.255	-36.377	-32.471	-4.333	-75.97	18.92	-19.66	-55.272	-21.756	108.682	0.78827	-0.57346	0.22284	0.00018	30.5	13111	100
2025-3-27 20:57:6.10	WT901BLE68-01(48591DE3C19B)	-0.345	-0.842	0.218	-34.912	-54.932	10.925	-76.14	18.87	-19.19	-55.272	-21.756	108.682	0.78827	-0.57346	0.22284	0.00018	30.5	13111	100
2025-3-27 20:57:6.10	WT901BLE68-01(48591DE3C19B)	-0.430	-0.842	0.218	-34.912	-54.932	10.925	-76.26	18.87	-18.58	-55.272	-21.756	108.682	0.78827	-0.57346	0.22284	0.00018	30.5	13111	100
2025-3-27 20:57:6.10	WT901BLE68-01(48591DE3C19B)	-0.430	-0.776	0.201	-17.334	-42.053	17.212	-76.31	18.91	-18.03	-55.272	-21.756	108.682	0.78827	-0.57346	0.22284	0.00018	30.5	13111	100
2025-3-27 20:57:6.10	WT901BLE68-01(48591DE3C19B)	-0.363	-0.776	0.201	-17.334	-42.053	17.212	-76.29	19.01	-17.54	-55.272	-21.756	108.682	0.78827	-0.57346	0.22284	0.00018	30.5	13111	100
2025-3-27 20:57:6.73	WT901BLE68-01(48591DE3C19B)	-0.363	-0.574	0.209	-6.226	-23.438	14.771	-76.25	19.12	-17.14	-55.272	-21.756	108.682	0.78827	-0.57346	0.22284	0.00018	30.5	13111	100
2025-3-27 20:57:6.73	WT901BLE68-01(48591DE3C19B)	-0.195	-0.574	0.209	-6.226	-23.438	14.771	-76.19	19.23	-16.85	-55.272	-21.756	108.682	0.78827	-0.57346	0.22284	0.00018	30.5	13111	100
2025-3-27 20:57:6.73	WT901BLE68-01(48591DE3C19B)	-0.195	-0.379	0.222	2.869	8.545	12.878	-76.15	19.41	-16.89	-55.272	-21.756	108.682	0.78827	-0.57346	0.22284	0.00018	30.5	13111	100
2025-3-27 20:57:6.74	WT901BLE68-01(48591DE3C19B)	-0.119	-0.379	0.222	2.869	8.545	12.878	-76.10	19.58	-16.92	-55.272	-21.756	108.682	0.78827	-0.57346	0.22284	0.00018	30.5	13111	100
2025-3-27 20:57:6.102	WT901BLE68-01(48591DE3C19B)	-0.119	-0.239	0.196	11.047	37.964	18.005	-76.06	19.88	-17.25	-55.272	-21.756	108.682	0.78827	-0.57346	0.22284	0.00018	30.5	13111	100
2025-3-27 20:57:6.103	WT901BLE68-01(48591DE3C19B)	-0.138	-0.239	0.196	11.047	37.964	18.005	-76.03	20.17	-17.58	-55.272	-21.756	108.682	0.78827	-0.57346	0.22284	0.00018	30.5	13111	100
2025-3-27 20:57:6.103	WT901BLE68-01(48591DE3C19B)	-0.138	-0.198	0.188	10.071	52.490	24.719	-76.04	20.56	-18.05	-55.272	-21.756	108.682	0.78827	-0.57346	0.22284	0.00018	30.5	13111	100
2025-3-27 20:57:6.103	WT901BLE68-01(48591DE3C19B)	-0.209	-0.198	0.188	10.071	52.490	24.719	-76.05	20.95	-18.51	-52.234	-15.092	100.352	0.78827	-0.57346	0.22284	0.00018	30.5	13111	100
2025-3-27 20:57:6.161	WT901BLE68-01(48591DE3C19B)	-0.209	-0.269	0.165	-0.793	48.401	29.419	-76.16	21.37	-18.92	-52.234	-15.092	100.352	0.78827	-0.57346	0.22284	0.00018	30.5	13111	100
2025-3-27 20:57:6.161	WT901BLE68-01(48591DE3C19B)	-0.131	-0.269	0.165	-0.793	48.401	29.419	-76.26	21.80	-19.34	-52.234	-15.092	100.352	0.78827	-0.57346	0.22284	0.00018	30.5	13111	100
2025-3-27 20:57:6.161	WT901BLE68-01(48591DE3C19B)	-0.131	-0.466	0.161	-13.611	25.696	23.743	-76.41	22.11	-19.53	-52.234	-15.092	100.352	0.78827	-0.57346	0.22284	0.00018	30.5	13111	100
2025-3-27 20:57:6.161	WT901BLE68-01(48591DE3C19B)	-0.102	-0.466	0.161	-13.611	25.696	23.743	-76.56	22.41	-19.71	-52.234	-15.092	100.352	0.78827	-0.57346	0.22284	0.00018	30.5	13111	100
2025-3-27 20:57:6.190	WT901BLE68-01(48591DE3C19B)	-0.102	-0.778	0.127	-22.827	20.996	5.493	-76.82	22.52	-19.92	-52.234	-15.092	100.352	0.78827	-0.57346	0.22284	0.00018	30.5	13111	100
2025-3-27 20:57:6.190	WT901BLE68-01(48591DE3C19B)	-0.371	-0.778	0.127	-22.827	20.996	5.493	-77.08	22.60	-20.13	-52.234	-15.092	100.352	0.78827	-0.57346	0.22284	0.00018	30.5	13111	100
2025-3-27 20:57:6.190	WT901BLE68-01(48591DE3C19B)	-0.371	-1.352	0.123	-26.917	19.043	-16.418	-77.42	22.47	-20.37	-52.234	-15.092	100.352	0.78827	-0.57346	0.22284	0.00018	30.5	13111	100
2025-3-27 20:57:6.190	WT901BLE68-01(48591DE3C19B)	-0.628	-1.352	0.123	-26.917	19.043	-16.418	-77.76	22.33	-20.63	-52.234	-15.092	100.352	0.78827	-0.57346	0.22284	0.00018	30.5	13111	100
2025-3-27 20:57:6.225	WT901BLE68-01(48591DE3C19B)	-0.628	-2.068	0.145	-11.902	1.770	-42.114	-77.91	21.90	-20.75	-52.234	-15.092	100.352	0.78827	-0.57346	0.22284	0.00018	30.5	13111	100
2025-3-27 20:57:6.225	WT901BLE68-01(48591DE3C19B)	-0.642	-2.068	0.145	-11.902	1.770	-42.114	-78.08	21.47	-20.89	-52.234	-15.092	100.352	0.78827	-0.57346	0.22284	0.00018	30.5	13111	100
2025-3-27 20:57:6.225	WT901BLE68-01(48591DE3C19B)	-0.642	-1.958	0.217	30.884	-8.545	-46.814	-77.79	20.97	-20.92	-52.234	-15.092	100.352	0.78827	-0.57346	0.22284	0.00018	30.5	13111	100
2025-3-27 20:57:6.225	WT901BLE68-01(48591DE3C19B)	-0.489	-1.958	0.217	30.884	-8.545	-46.814	-77.50	20.48	-20.96	-52.234	-15.092	100.352	0.78827	-0.57346	0.22284	0.00018	30.5	13111	100
2025-3-27 20:57:6.250	WT901BLE68-01(48591DE3C19B)	-0.489	-1.347	0.234	44.434	-0.244	-50.415	-77.12	19.98	-21.09	-52.234	-15.092	100.352	0.78827	-0.57346	0.22284	0.00018	30.5	13111	100
2025-3-27 20:57:6.250	WT901BLE68-01(48591DE3C19B)	-0.337	-1.347	0.234	44.434	-0.244	-50.415	-76.74	19.48	-21.23	-52.234	-15.092	100.352	0.78827	-0.57346	0.22284	0.00018	30.5	13111	100
2025-3-27 20:57:6.250	WT901BLE68-01(48591DE3C19B)	-0.337	-1.125	0.228	36.377	25.208	-47.791	-76.53	19.07	-21.62	-52.234	-15.092	100.352	0.78827	-0.57346	0.22284	0.00018	30.5	13111	100
2025-3-27 20:57:6.250	WT901BLE68-01(48591DE3C19B)	-0.212	-1.125	0.228	36.377	25.208	-47.791	-76.31	18.66	-22.02	-52.234	-15.092	100.352	0.78827	-0.57346	0.22284	0.00018	30.5	13111	100
2025-3-27 20:57:6.310	WT901BLE68-01(48591DE3C19B)	-0.212	-0.996	0.278	22.461	39.734	-32.654	-76.26	18.44	-22.52	-52.234	-15.092	100.352	0.78827	-0.57346	0.22284	0.00018	30.5	13111	100
2025-3-27 20:57:6.311	WT901BLE68-01(48591DE3C19B)	-0.184	-0.996	0.278	22.461	39.734	-32.654	-76.21	18.20	-23.03	-52.234	-15.092	100.352	0.78827	-0.57346	0.22284	0.00018	30.5	13111	100
2025-3-27 20:57:6.311	WT901BLE68-01(48591DE3C19B)	-0.184	-0.845	0.331	6.897	34.912	-13.550	-76.27	18.15	-23.43	-52.234	-15.092	100.352	0.78827	-0.57346	0.22284	0.00018	30.5	13111	100
2025-3-27 20:57:6.311	WT901BLE68-01(48591DE3C19B)	-0.266	-0.845	0.331	6.897	34.912	-13.550	-76.33	18.09	-23.83	-52.234	-15.092	100.352	0.78827	-0.57346	0.22284	0.00018	30.5	13111	100
2025-3-27 20:57:6.340	WT901BLE68-01(48591DE3C19B)	-0.266	-0.681	0.343	-7.690	1.038	-7.263	-76.42	18.01	-23.88	-52.234	-15.092	100.352	0.77902	-0.57260	0.24661	-0.06604	30.5	13111	100
2025-3-27 20:57:6.340	WT901BLE68-01(48591DE3C19B)	-0.279	-0.681	0.343	-7.690	1.038	-7.263	-76.51	17.94	-23.92	-52.234	-15.092	100.352	0.77902	-0.57260	0.24661	-0.06604	30.5	13111	100
2025-3-27 20:57:6.340	WT901BLE68-01(48591DE3C19B)	-0.279	-0.564	0.316	-12.268	-27.039	4.761	-76.53	17.91	-23.64	-52.234	-15.092	100.352	0.77902	-0.57260	0.24661	-0.06604	30.5	13111	100
2025-3-27 20:57:6.340	WT901BLE68-01(48591DE3C19B)	-0.273	-0.564	0.316	-12.268	-27.039	4.761	-76.55	17.89	-23.37	-52.234	-15.092	100.352	0.77902	-0.57260	0.24661	-0.06604	30.5	13111	100
2025-3-27 20:57:6.371	WT901BLE68-01(48591DE3C19B)	-0.273	-0.463	0.247	-6.836	-27.649	17.151	-76.50	18.00	-23.05	-52.234	-15.092	100.352	0.77902	-0.57260	0.24661	-0.06604	30.5	13111	100
2025-3-27 20:57:6.371	WT901BLE68-01(48591DE3C19B)	-0.221	-0.463	0.247	-6.836	-27.649	17.151	-76.44	18.10	-22.74	-52.234	-15.092	100.352	0.77902	-0.57260	0.24661	-0.06604	30.5	13111	100
2025-3-27 20:57:6.371	WT901BLE68-01(48591DE3C19B)	-0.221	-0.381	0.178	1.648	-16.052	30.701	-76.33	18.37	-22.52	-52.234	-15.092	100.352	0.77902	-0.57260	0.24661	-0.06604	30.5	13111	100
2025-3-27 20:57:6.371	WT901BLE68-01(48591DE3C19B)	-0.160	-0.381	0.178	1.648	-16.052	30.701	-76.21	18.63	-22.29	-52.234	-15.092	100.352	0.77902	-0.57260	0.24661	-0.06604	30.5	13111	100
2025-3-27 20:57:6.430	WT901BLE68-01(48591DE3C19B)	-0.160	-0.391	0.132	6.409	5.554	41.199	-76.10	19.05	-22.25	-52.234	-15.092	100.352	0.77902	-0.57260	0.24661	-0.06604	30.5	13111	100
2025-3-27 20:57:6.430	WT901BLE68-01(48591DE3C19B)	-0.223	-0.391	0.132	6.409	5.554	41.199	-76.00	19.47	-22.21	-52.234	-15.092	100.352	0.77902	-0.57260	0.24661	-0.06604	30.5	13111	100
2025-3-27 20:57:6.430	WT901BLE68-01(48591DE3C19B)	-0.223	-0.573	0.133	5.920	25.024	40.466	-75.96	19.92	-22.37	-52.234	-15.092	100.352	0.77902	-0.57260	0.24661	-0.06604	30.5	13111	100
2025-3-27 20:57:6.431	WT901BLE68-01(48591DE3C19B)	-0.410	-0.573	0.133	5.920	25.024	40.466	-75.94	20.37	-22.54	-52.234	-15.092	100.352	0.77902	-0.57260	0.24661	-0.06604	30.5	13111	100
2025-3-27 20:57:6.462	WT901BLE68-01(48591DE3C19B)	-0.410	-0.813	0.207	3.601	21.606	33.264	-75.93	20.75	-22.68	-52.234	-15.092	100.352	0.77902	-0.57260	0.24661	-0.06604	30.5	13111	100
2025-3-27 20:57:6.462	WT901BLE68-01(48591DE3C19B)	-0.566	-0.813	0.207	3.601	21.606	33.264	-75.93	21.12	-22.82	-52.234	-15.092	100.352	0.77902	-0.57260	0.24661	-0.06604	30.5	13111	100
2025-3-27 20:57:6.463	WT901BLE68-01(48591DE3C19B)	-0.566	-1.085	0.280	-6.775	-4.395	18.555	-75.95	21.30	-22.74	-52.234	-15.092	100.352	0.77902	-0.57260	0.24661	-0.06604	30.5	13111	100
2025-3-27 20:57:6.463	WT901BLE68-01(48591DE3C19B)	-0.613	-1.085	0.280	-6.775	-4.395	18.555	-75.97	21.47	-22.64	-52.234	-15.092	100.352	0.77902	-0.57260	0.24661	-0.06604	30.5	13111	100
2025-3-27 20:57:6.492	WT901BLE68-01(48591DE3C19B)	-0.613	-1.463	0.362	-15.991	-33.813	-10.681	-76.00	21.30	-22.32	-52.234	-15.092	100.352	0.77902	-0.57260	0.24661	-0.06604	30.5	13111	100
2025-3-27 20:57:6.492	WT901BLE68-01(48591DE3C19B)	-0.699	-1.463	0.362	-15.991	-33.813	-10.681	-76.03	21.12	-22.00	-52.234	-15.092	100.352	0.77902	-0.57260	0.24661	-0.06604	30.5	13111	100
2025-3-27 20:57:6.492	WT901BLE68-01(48591DE3C19B)	-0.777	-1.836	0.505	-13.000	-56.091	-32.532	-75.98	20.68	-21.51	-51.646	-9.506	88.788	0.77902	-0.57260	0.24661	-0.06604	30.5	13111	100
2025-3-27 20:57:6.493	WT901BLE68-01(48591DE3C19B)	-0.777	-1.755	0.651	0.305	-64.575	-50.293	-75.85	20.14	-21.01	-51.646	-9.506	88.788	0.77902	-0.57260	0.24661	-0.06604	30.5	13111	100
2025-3-27 20:57:6.551	WT901BLE68-01(48591DE3C19B)	-0.637	-1.755	0.651	0.305	-64.575	-50.293	-75.65	19.51	-20.48	-51.646	-9.506	88.788	0.77902	-0.57260	0.24661	-0.06604	30.5	13111	100
2025-3-27 20:57:6.551	WT901BLE68-01(48591DE3C19B)	-0.637	-1.389	0.649	8.301	-47.363	-49.988	-75.45	18.90	-20.06	-51.646	-9.506	88.788	0.77902	-0.57260	0.24661	-0.06604	30.5	13111	100
2025-3-27 20:57:6.551	WT901BLE68-01(48591DE3C19B)	-0.403	-1.389	0.649	8.301	-47.363	-49.988	-75.23	18.32	-19.73	-51.646	-9.506	88.788	0.77902	-0.57260	0.24661	-0.06604	30.5	13111	100
2025-3-27 20:57:6.551	WT901BLE68-01(48591DE3C19B)	-0.403	-1.078	0.535	10.681	-5.859	-38.330	-75.06	17.85	-19.59	-51.646	-9.506	88.788	0.77902	-0.57260	0.24661	-0.06604	30.5	13111	100
2025-3-27 20:57:6.579	WT901BLE68-01(48591DE3C19B)	-0.162	-1.078	0.535	10.681	-5.859	-38.330	-74.95	17.49	-19.65	-51.646	-9.506	88.788	0.77902	-0.57260	0.24661	-0.06604	30.5	13111	100
2025-3-27 20:57:6.580	WT901BLE68-01(48591DE3C19B)	-0.162	-0.758	0.376	10.010	25.513	-10.803	-74.86	17.30	-19.83	-51.646	-9.506	88.788	0.77902	-0.57260	0.24661	-0.06604	30.5	13111	100
2025-3-27 20:57:6.580	WT901BLE68-01(48591DE3C19B)	-0.217	-0.758	0.376	10.010	25.513	-10.803	-74.82	17.29	-20.13	-51.646	-9.506	88.788	0.77902	-0.57260	0.24661	-0.06604	30.5	13111	100
2025-3-27 20:57:6.580	WT901BLE68-01(48591DE3C19B)	-0.217	-0.437	0.292	-7.080	18.677	7.935	-74.83	17.35	-20.37	-51.646	-9.506	88.788	0.77902	-0.57260	0.24661	-0.06604	30.5	13111	100
2025-3-27 20:57:6.610	WT901BLE68-01(48591DE3C19B)	-0.237	-0.437	0.292	-7.080	18.677	7.935	-74.92	17.49	-20.56	-51.646	-9.506	88.788	0.77902	-0.57260	0.24661	-0.06604	30.5	13111	100
2025-3-27 20:57:6.610	WT901BLE68-01(48591DE3C19B)	-0.237	-0.412	0.232	-38.452	-30.212	15.686	-75.07	17.61	-20.48	-51.646	-9.506	88.788	0.77902	-0.57260	0.24661	-0.06604	30.5	13111	100
2025-3-27 20:57:6.610	WT901BLE68-01(48591DE3C19B)	-0.192	-0.412	0.232	-38.452	-30.212	15.686	-75.31	17.70	-20.14	-51.646	-9.506	88.788	0.77902	-0.57260	0.24661	-0.06604	30.5	13111	100
2025-3-27 20:57:6.611	WT901BLE68-01(48591DE3C19B)	-0.192	-0.538	0.271	-41.443	-44.373	28.809	-75.52	17.84	-19.72	-51.646	-9.506	88.788	0.77902	-0.57260	0.24661	-0.06604	30.5	13111	100
2025-3-27 20:57:6.701	WT901BLE68-01(48591DE3C19B)	-0.206	-0.538	0.271	-41.443	-44.373	28.809	-75.72	18.03	-19.21	-51.646	-9.506	88.788	0.77902	-0.57260	0.24661	-0.06604	30.5	13111	100
2025-3-27 20:57:6.701	WT901BLE68-01(48591DE3C19B)	-0.206	-0.523	0.308	-26.245	-34.058	38.513	-75.85	18.27	-18.74	-51.646	-9.506	88.788	0.77902	-0.57260	0.24661	-0.06604	30.5	13111	100
2025-3-27 20:57:6.701	WT901BLE68-01(48591DE3C19B)	-0.122	-0.523	0.308	-26.245	-34.058	38.513	-75.92	18.57	-18.31	-51.646	-9.506	88.788	0.77902	-0.57260	0.24661	-0.06604	30.5	13111	100
2025-3-27 20:57:6.701	WT901BLE68-01(48591DE3C19B)	-0.122	-0.403	0.259	-14.709	-11.292	39.429	-75.95	18.90	-18.00	-51.646	-9.506	88.788	0.77902	-0.57260	0.24661	-0.06604	30.5	13111	100
2025-3-27 20:57:6.702	WT901BLE68-01(48591DE3C19B)	0.021	-0.403	0.259	-14.709	-11.292	39.429	-75.96	19.26	-17.81	-51.646	-9.506	88.788	0.77902	-0.57260	0.24661	-0.06604	30.5	13111	100
2025-3-27 20:57:6.703	WT901BLE68-01(48591DE3C19B)	0.021	-0.251	0.185	-2.930	27.283	40.466	-75.98	19.67	-17.81	-51.646	-9.506	88.788	0.77902	-0.57260	0.24661	-0.06604	30.5	13111	100
2025-3-27 20:57:6.703	WT901BLE68-01(48591DE3C19B)	-0.046	-0.251	0.185	-2.930	27.283	40.466	-75.99	20.12	-18.01	-51.646	-9.506	88.788	0.77902	-0.57260	0.24661	-0.06604	30.5	13111	100
2025-3-27 20:57:6.703	WT901BLE68-01(48591DE3C19B)	-0.046	-0.312	0.107	-3.235	60.913	35.339	-76.07	20.57	-18.39	-51.646	-9.506	88.788	0.78250	-0.57599	0.23572	-0.01523	30.5	13111	100
2025-3-27 20:57:6.732	WT901BLE68-01(48591DE3C19B)	-0.210	-0.312	0.107	-3.235	60.913	35.339	-76.23	21.03	-18.96	-51.646	-9.506	88.788	0.78250	-0.57599	0.23572	-0.01523	30.5	13111	100
2025-3-27 20:57:6.732	WT901BLE68-01(48591DE3C19B)	-0.210	-0.558	0.066	-7.751	66.650	26.794	-76.43	21.46	-19.57	-51.646	-9.506	88.788	0.78250	-0.57599	0.23572	-0.01523	30.5	13111	100
2025-3-27 20:57:6.732	WT901BLE68-01(48591DE3C19B)	-0.322	-0.558	0.066	-7.751	66.650	26.794	-76.68	21.85	-20.21	-51.646	-9.506	88.788	0.78250	-0.57599	0.23572	-0.01523	30.5	13111	100
2025-3-27 20:57:6.732	WT901BLE68-01(48591DE3C19B)	-0.322	-0.817	0.046	-14.771	46.509	19.165	-76.94	22.18	-20.76	-51.646	-9.506	88.788	0.78250	-0.57599	0.23572	-0.01523	30.5	13111	100
2025-3-27 20:57:6.791	WT901BLE68-01(48591DE3C19B)	-0.345	-0.817	0.046	-14.771	46.509	19.165	-77.22	22.44	-21.21	-51.646	-9.506	88.788	0.78250	-0.57599	0.23572	-0.01523	30.5	13111	100
2025-3-27 20:57:6.791	WT901BLE68-01(48591DE3C19B)	-0.345	-1.095	0.002	-23.010	20.386	10.803	-77.50	22.64	-21.54	-51.646	-9.506	88.788	0.78250	-0.57599	0.23572	-0.01523	30.5	13111	100
2025-3-27 20:57:6.791	WT901BLE68-01(48591DE3C19B)	-0.434	-1.095	0.002	-23.010	20.386	10.803	-77.79	22.76	-21.75	-51.646	-9.506	88.788	0.78250	-0.57599	0.23572	-0.01523	30.5	13111	100
2025-3-27 20:57:6.791	WT901BLE68-01(48591DE3C19B)	-0.434	-1.627	0.108	-23.560	-8.850	-13.184	-78.05	22.74	-21.82	-51.646	-9.506	88.788	0.78250	-0.57599	0.23572	-0.01523	30.5	13111	100
2025-3-27 20:57:6.851	WT901BLE68-01(48591DE3C19B)	-0.522	-1.627	0.108	-23.560	-8.850	-13.184	-78.27	22.56	-21.77	-51.646	-9.506	88.788	0.78250	-0.57599	0.23572	-0.01523	30.5	13111	100
2025-3-27 20:57:6.851	WT901BLE68-01(48591DE3C19B)	-0.522	-2.042	0.211	-3.418	-42.969	-25.208	-78.33	22.29	-21.56	-51.646	-9.506	88.788	0.78250	-0.57599	0.23572	-0.01523	30.5	13111	100
2025-3-27 20:57:6.851	WT901BLE68-01(48591DE3C19B)	-0.463	-2.042	0.211	-3.418	-42.969	-25.208	-78.23	21.92	-21.19	-51.646	-9.506	88.788	0.78250	-0.57599	0.23572	-0.01523	30.5	13111	100
2025-3-27 20:57:6.851	WT901BLE68-01(48591DE3C19B)	-0.463	-1.652	0.278	25.085	-53.650	-30.762	-77.98	21.52	-20.77	-51.646	-9.506	88.788	0.78250	-0.57599	0.23572	-0.01523	30.5	13111	100
2025-3-27 20:57:6.852	WT901BLE68-01(48591DE3C19B)	-0.282	-1.652	0.278	25.085	-53.650	-30.762	-77.57	21.08	-20.30	-51.646	-9.506	88.788	0.78250	-0.57599	0.23572	-0.01523	30.5	13111	100
2025-3-27 20:57:6.853	WT901BLE68-01(48591DE3C19B)	-0.282	-1.275	0.212	25.940	-33.936	-33.691	-77.21	20.64	-19.96	-51.646	-9.506	88.788	0.78250	-0.57599	0.23572	-0.01523	30.5	13111	100
2025-3-27 20:57:6.853	WT901BLE68-01(48591DE3C19B)	-0.185	-1.275	0.212	25.940	-33.936	-33.691	-76.88	20.21	-19.72	-51.646	-9.506	88.788	0.78250	-0.57599	0.23572	-0.01523	30.5	13111	100
2025-3-27 20:57:6.853	WT901BLE68-01(48591DE3C19B)	-0.185	-1.052	0.161	22.705	12.207	-32.898	-76.66	19.83	-19.73	-51.646	-9.506	88.788	0.78250	-0.57599	0.23572	-0.01523	30.5	13111	100
2025-3-27 20:57:6.910	WT901BLE68-01(48591DE3C19B)	-0.162	-1.052	0.161	22.705	12.207	-32.898	-76.53	19.51	-19.97	-51.646	-9.506	88.788	0.78250	-0.57599	0.23572	-0.01523	30.5	13111	100
2025-3-27 20:57:6.910	WT901BLE68-01(48591DE3C19B)	-0.081	-0.895	0.152	9.583	43.396	-30.457	-76.52	19.24	-20.37	-51.646	-9.506	88.788	0.78250	-0.57599	0.23572	-0.01523	30.5	13111	100
2025-3-27 20:57:6.911	WT901BLE68-01(48591DE3C19B)	-0.205	-0.447	0.076	9.583	43.396	-30.457	-76.62	19.02	-20.93	-51.646	-9.506	88.788	0.78250	-0.57599	0.23572	-0.01523	30.5	13111	100
2025-3-27 20:57:6.911	WT901BLE68-01(48591DE3C19B)	-0.205	-0.828	0.175	-4.333	40.649	-29.053	-76.79	18.80	-21.46	-51.646	-9.506	88.788	0.78250	-0.57599	0.23572	-0.01523	30.5	13111	100
2025-3-27 20:57:6.940	WT901BLE68-01(48591DE3C19B)	-0.285	-0.828	0.175	-4.333	40.649	-29.053	-77.01	18.58	-21.98	-44.884	-9.212	78.890	0.78250	-0.57599	0.23572	-0.01523	30.5	13111	100
2025-3-27 20:57:6.941	WT901BLE68-01(48591DE3C19B)	-0.285	-0.790	0.235	-12.634	17.944	-27.405	-77.23	18.34	-22.37	-44.884	-9.212	78.890	0.78250	-0.57599	0.23572	-0.01523	30.5	13111	100
2025-3-27 20:57:6.941	WT901BLE68-01(48591DE3C19B)	-0.378	-0.790	0.235	-12.634	17.944	-27.405	-77.45	18.09	-22.65	-44.884	-9.212	78.890	0.78250	-0.57599	0.23572	-0.01523	30.5	13111	100
2025-3-27 20:57:6.941	WT901BLE68-01(48591DE3C19B)	-0.378	-0.689	0.270	-8.606	-1.892	-20.020	-77.61	17.86	-22.81	-44.884	-9.212	78.890	0.78250	-0.57599	0.23572	-0.01523	30.5	13111	100
2025-3-27 20:57:6.971	WT901BLE68-01(48591DE3C19B)	-0.374	-0.689	0.270	-8.606	-1.892	-20.020	-77.71	17.66	-22.85	-44.884	-9.212	78.890	0.78250	-0.57599	0.23572	-0.01523	30.5	13111	100
2025-3-27 20:57:6.971	WT901BLE68-01(48591DE3C19B)	-0.374	-0.499	0.271	1.343	-14.771	-3.723	-77.66	17.58	-22.73	-44.884	-9.212	78.890	0.78250	-0.57599	0.23572	-0.01523	30.5	13111	100
2025-3-27 20:57:6.971	WT901BLE68-01(48591DE3C19B)	-0.259	-0.499	0.271	1.343	-14.771	-3.723	-77.59	17.52	-22.60	-44.884	-9.212	78.890	0.78250	-0.57599	0.23572	-0.01523	30.5	13111	100
2025-3-27 20:57:6.971	WT901BLE68-01(48591DE3C19B)	-0.259	-0.279	0.186	7.263	-14.771	17.578	-77.45	17.67	-22.42	-44.884	-9.212	78.890	0.78250	-0.57599	0.23572	-0.01523	30.5	13111	100
2025-3-27 20:57:7.30	WT901BLE68-01(48591DE3C19B)	-0.166	-0.279	0.186	7.263	-14.771	17.578	-77.31	17.82	-22.24	-44.884	-9.212	78.890	0.78250	-0.57599	0.23572	-0.01523	30.5	13111	100
2025-3-27 20:57:7.30	WT901BLE68-01(48591DE3C19B)	-0.166	-0.280	0.124	-2.563	-7.141	30.884	-77.27	18.12	-22.11	-44.884	-9.212	78.890	0.78250	-0.57599	0.23572	-0.01523	30.5	13111	100
2025-3-27 20:57:7.30	WT901BLE68-01(48591DE3C19B)	-0.226	-0.280	0.124	-2.563	-7.141	30.884	-77.23	18.42	-21.97	-44.884	-9.212	78.890	0.78250	-0.57599	0.23572	-0.01523	30.5	13111	100
2025-3-27 20:57:7.30	WT901BLE68-01(48591DE3C19B)	-0.226	-0.583	0.140	-12.085	-6.348	34.790	-77.29	18.76	-21.84	-44.884	-9.212	78.890	0.78250	-0.57599	0.23572	-0.01523	30.5	13111	100
2025-3-27 20:57:7.60	WT901BLE68-01(48591DE3C19B)	-0.367	-0.583	0.140	-12.085	-6.348	34.790	-77.34	19.10	-21.70	-44.884	-9.212	78.890	0.78250	-0.57599	0.23572	-0.01523	30.5	13111	100
2025-3-27 20:57:7.60	WT901BLE68-01(48591DE3C19B)	-0.367	-0.782	0.199	-16.724	-14.771	36.316	-77.42	19.43	-21.47	-44.884	-9.212	78.890	0.78250	-0.57599	0.23572	-0.01523	30.5	13111	100
2025-3-27 20:57:7.60	WT901BLE68-01(48591DE3C19B)	-0.428	-0.782	0.199	-16.724	-14.771	36.316	-77.49	19.77	-21.25	-44.884	-9.212	78.890	0.78250	-0.57599	0.23572	-0.01523	30.5	13111	100
2025-3-27 20:57:7.60	WT901BLE68-01(48591DE3C19B)	-0.428	-1.045	0.246	-32.227	-31.006	25.146	-77.66	19.96	-20.88	-44.884	-9.212	78.890	0.78250	-0.57599	0.23572	-0.01523	30.5	13111	100
2025-3-27 20:57:7.125	WT901BLE68-01(48591DE3C19B)	-0.499	-1.045	0.246	-32.227	-31.006	25.146	-77.84	20.15	-20.51	-44.884	-9.212	78.890	0.78250	-0.57599	0.23572	-0.01523	30.5	13111	100
2025-3-27 20:57:7.125	WT901BLE68-01(48591DE3C19B)	-0.499	-1.626	0.376	-40.283	-42.297	-4.333	-78.08	20.02	-20.09	-44.884	-9.212	78.890	0.78250	-0.57599	0.23572	-0.01523	30.5	13111	100
2025-3-27 20:57:7.125	WT901BLE68-01(48591DE3C19B)	-0.587	-1.626	0.376	-40.283	-42.297	-4.333	-78.32	19.90	-19.69	-44.884	-9.212	78.890	0.78250	-0.57599	0.23572	-0.01523	30.5	13111	100
2025-3-27 20:57:7.125	WT901BLE68-01(48591DE3C19B)	-0.587	-2.100	0.474	-25.879	-38.940	-25.513	-78.45	19.57	-19.36	-44.884	-9.212	78.890	0.78250	-0.57599	0.23572	-0.01523	30.5	13111	100
2025-3-27 20:57:7.211	WT901BLE68-01(48591DE3C19B)	-0.653	-2.100	0.474	-25.879	-38.940	-25.513	-78.57	19.23	-19.03	-44.884	-9.212	78.890	0.78250	-0.57599	0.23572	-0.01523	30.5	13111	100
2025-3-27 20:57:7.211	WT901BLE68-01(48591DE3C19B)	-0.653	-1.697	0.604	5.554	-32.837	-38.086	-78.42	18.79	-18.80	-44.884	-9.212	78.890	0.77097	-0.59460	0.22672	-0.02304	30.5	13111	100
2025-3-27 20:57:7.211	WT901BLE68-01(48591DE3C19B)	-0.480	-1.697	0.604	5.554	-32.837	-38.086	-78.26	18.35	-18.57	-44.884	-9.212	78.890	0.77097	-0.59460	0.22672	-0.02304	30.5	13111	100
2025-3-27 20:57:7.211	WT901BLE68-01(48591DE3C19B)	-0.480	-1.244	0.567	8.850	-12.634	-45.776	-78.14	17.89	-18.57	-44.884	-9.212	78.890	0.77097	-0.59460	0.22672	-0.02304	30.5	13111	100
2025-3-27 20:57:7.213	WT901BLE68-01(48591DE3C19B)	-0.335	-1.244	0.567	8.850	-12.634	-45.776	-78.01	17.42	-18.57	-44.884	-9.212	78.890	0.77097	-0.59460	0.22672	-0.02304	30.5	13111	100
2025-3-27 20:57:7.213	WT901BLE68-01(48591DE3C19B)	-0.335	-0.999	0.444	12.756	25.146	-39.734	-77.95	17.09	-18.93	-44.884	-9.212	78.890	0.77097	-0.59460	0.22672	-0.02304	30.5	13111	100
2025-3-27 20:57:7.213	WT901BLE68-01(48591DE3C19B)	-0.252	-0.999	0.444	12.756	25.146	-39.734	-77.89	16.77	-19.30	-44.884	-9.212	78.890	0.77097	-0.59460	0.22672	-0.02304	30.5	13111	100
2025-3-27 20:57:7.213	WT901BLE68-01(48591DE3C19B)	-0.252	-0.751	0.316	7.629	39.612	-23.193	-77.90	16.63	-19.78	-44.884	-9.212	78.890	0.77097	-0.59460	0.22672	-0.02304	30.5	13111	100
2025-3-27 20:57:7.214	WT901BLE68-01(48591DE3C19B)	-0.298	-0.751	0.316	7.629	39.612	-23.193	-77.92	16.50	-20.26	-44.884	-9.212	78.890	0.77097	-0.59460	0.22672	-0.02304	30.5	13111	100
2025-3-27 20:57:7.214	WT901BLE68-01(48591DE3C19B)	-0.298	-0.585	0.273	-7.385	10.925	-7.690	-77.99	16.46	-20.41	-44.884	-9.212	78.890	0.77097	-0.59460	0.22672	-0.02304	30.5	13111	100
2025-3-27 20:57:7.214	WT901BLE68-01(48591DE3C19B)	-0.285	-0.585	0.273	-7.385	10.925	-7.690	-78.05	16.42	-20.55	-44.884	-9.212	78.890	0.77097	-0.59460	0.22672	-0.02304	30.5	13111	100
2025-3-27 20:57:7.214	WT901BLE68-01(48591DE3C19B)	-0.285	-0.556	0.259	-24.353	-40.649	4.089	-78.13	16.40	-20.15	-44.884	-9.212	78.890	0.77097	-0.59460	0.22672	-0.02304	30.5	13111	100
2025-3-27 20:57:7.273	WT901BLE68-01(48591DE3C19B)	-0.199	-0.556	0.259	-24.353	-40.649	4.089	-78.21	16.38	-19.74	-44.884	-9.212	78.890	0.77097	-0.59460	0.22672	-0.02304	30.5	13111	100
2025-3-27 20:57:7.273	WT901BLE68-01(48591DE3C19B)	-0.199	-0.530	0.256	-20.508	-57.007	21.179	-78.18	16.48	-19.14	-44.884	-9.212	78.890	0.77097	-0.59460	0.22672	-0.02304	30.5	13111	100
2025-3-27 20:57:7.273	WT901BLE68-01(48591DE3C19B)	-0.122	-0.530	0.256	-20.508	-57.007	21.179	-78.15	16.59	-18.53	-44.884	-9.212	78.890	0.77097	-0.59460	0.22672	-0.02304	30.5	13111	100
2025-3-27 20:57:7.273	WT901BLE68-01(48591DE3C19B)	-0.122	-0.345	0.206	-6.592	-42.542	31.616	-78.02	16.83	-18.06	-44.884	-9.212	78.890	0.77097	-0.59460	0.22672	-0.02304	30.5	13111	100
2025-3-27 20:57:7.330	WT901BLE68-01(48591DE3C19B)	-0.016	-0.345	0.206	-6.592	-42.542	31.616	-77.88	17.06	-17.58	-44.884	-9.212	78.890	0.77097	-0.59460	0.22672	-0.02304	30.5	13111	100
2025-3-27 20:57:7.330	WT901BLE68-01(48591DE3C19B)	-0.016	-0.140	0.159	-2.075	-15.015	34.729	-77.77	17.38	-17.39	-44.884	-9.212	78.890	0.77097	-0.59460	0.22672	-0.02304	30.5	13111	100
2025-3-27 20:57:7.330	WT901BLE68-01(48591DE3C19B)	0.035	-0.140	0.159	-2.075	-15.015	34.729	-77.66	17.69	-17.18	-39.984	-7.448	73.010	0.77097	-0.59460	0.22672	-0.02304	30.5	13111	100
2025-3-27 20:57:7.330	WT901BLE68-01(48591DE3C19B)	0.035	-0.216	0.144	-3.662	14.282	33.142	-77.65	18.05	-17.29	-39.984	-7.448	73.010	0.77097	-0.59460	0.22672	-0.02304	30.5	13111	100
2025-3-27 20:57:7.360	WT901BLE68-01(48591DE3C19B)	-0.111	-0.216	0.144	-3.662	14.282	33.142	-77.64	18.39	-17.40	-39.984	-7.448	73.010	0.77097	-0.59460	0.22672	-0.02304	30.5	13111	100
2025-3-27 20:57:7.360	WT901BLE68-01(48591DE3C19B)	-0.111	-0.548	0.146	-3.296	32.532	27.283	-77.70	18.71	-17.70	-39.984	-7.448	73.010	0.77097	-0.59460	0.22672	-0.02304	30.5	13111	100
2025-3-27 20:57:7.360	WT901BLE68-01(48591DE3C19B)	-0.223	-0.548	0.146	-3.296	32.532	27.283	-77.76	19.03	-18.01	-39.984	-7.448	73.010	0.77097	-0.59460	0.22672	-0.02304	30.5	13111	100
2025-3-27 20:57:7.360	WT901BLE68-01(48591DE3C19B)	-0.223	-0.816	0.114	-4.272	27.832	20.142	-77.83	19.26	-18.29	-39.984	-7.448	73.010	0.77097	-0.59460	0.22672	-0.02304	30.5	13111	100
2025-3-27 20:57:7.391	WT901BLE68-01(48591DE3C19B)	-0.271	-0.816	0.114	-4.272	27.832	20.142	-77.91	19.49	-18.57	-39.984	-7.448	73.010	0.77097	-0.59460	0.22672	-0.02304	30.5	13111	100
2025-3-27 20:57:7.391	WT901BLE68-01(48591DE3C19B)	-0.271	-1.158	0.070	-11.963	17.761	7.446	-78.05	19.58	-18.76	-39.984	-7.448	73.010	0.77097	-0.59460	0.22672	-0.02304	30.5	13111	100
2025-3-27 20:57:7.391	WT901BLE68-01(48591DE3C19B)	-0.466	-1.158	0.070	-11.963	17.761	7.446	-78.21	19.66	-18.97	-39.984	-7.448	73.010	0.77097	-0.59460	0.22672	-0.02304	30.5	13111	100
2025-3-27 20:57:7.391	WT901BLE68-01(48591DE3C19B)	-0.466	-1.956	0.100	-21.118	2.869	-14.343	-78.44	19.50	-19.06	-39.984	-7.448	73.010	0.77097	-0.59460	0.22672	-0.02304	30.5	13111	100
2025-3-27 20:57:7.426	WT901BLE68-01(48591DE3C19B)	-0.500	-1.956	0.100	-21.118	2.869	-14.343	-78.68	19.34	-19.16	-39.984	-7.448	73.010	0.77097	-0.59460	0.22672	-0.02304	30.5	13111	100
2025-3-27 20:57:7.427	WT901BLE68-01(48591DE3C19B)	-0.398	-2.532	0.061	17.151	-12.756	-19.409	-78.50	19.09	-19.11	-39.984	-7.448	73.010	0.77097	-0.59460	0.22672	-0.02304	30.5	13111	100
2025-3-27 20:57:7.427	WT901BLE68-01(48591DE3C19B)	-0.398	-1.833	0.130	57.312	-15.198	-13.550	-78.12	18.87	-19.04	-39.984	-7.448	73.010	0.77097	-0.59460	0.22672	-0.02304	30.5	13111	100
2025-3-27 20:57:7.427	WT901BLE68-01(48591DE3C19B)	-0.165	-1.833	0.130	57.312	-15.198	-13.550	-77.54	18.67	-18.96	-39.984	-7.448	73.010	0.77097	-0.59460	0.22672	-0.02304	30.5	13111	100
2025-3-27 20:57:7.482	WT901BLE68-01(48591DE3C19B)	-0.165	-1.438	0.124	47.180	9.033	-20.752	-77.06	18.47	-19.02	-39.984	-7.448	73.010	0.77097	-0.59460	0.22672	-0.02304	30.5	13111	100
2025-3-27 20:57:7.482	WT901BLE68-01(48591DE3C19B)	-0.088	-1.438	0.124	47.180	9.033	-20.752	-76.67	18.25	-19.20	-39.984	-7.448	73.010	0.77097	-0.59460	0.22672	-0.02304	30.5	13111	100
2025-3-27 20:57:7.482	WT901BLE68-01(48591DE3C19B)	-0.088	-1.250	0.165	42.969	50.903	-16.724	-76.38	18.11	-19.61	-39.984	-7.448	73.010	0.77097	-0.59460	0.22672	-0.02304	30.5	13111	100
2025-3-27 20:57:7.483	WT901BLE68-01(48591DE3C19B)	-0.092	-1.250	0.165	42.969	50.903	-16.724	-76.17	18.03	-20.21	-39.984	-7.448	73.010	0.77097	-0.59460	0.22672	-0.02304	30.5	13111	100
2025-3-27 20:57:7.541	WT901BLE68-01(48591DE3C19B)	-0.092	-1.017	0.224	30.884	73.975	-7.629	-76.06	18.02	-20.93	-39.984	-7.448	73.010	0.77097	-0.59460	0.22672	-0.02304	30.5	13111	100
2025-3-27 20:57:7.541	WT901BLE68-01(48591DE3C19B)	-0.130	-1.017	0.224	30.884	73.975	-7.629	-76.04	18.07	-21.74	-39.984	-7.448	73.010	0.77097	-0.59460	0.22672	-0.02304	30.5	13111	100
2025-3-27 20:57:7.541	WT901BLE68-01(48591DE3C19B)	-0.130	-0.744	0.275	19.531	71.411	-5.371	-76.06	18.14	-22.54	-39.984	-7.448	73.010	0.77097	-0.59460	0.22672	-0.02304	30.5	13111	100
2025-3-27 20:57:7.541	WT901BLE68-01(48591DE3C19B)	-0.168	-0.744	0.275	19.531	71.411	-5.371	-76.14	18.21	-23.32	-39.984	-7.448	73.010	0.78061	-0.57037	0.24719	-0.06390	30.5	13111	100
2025-3-27 20:57:7.542	WT901BLE68-01(48591DE3C19B)	-0.168	-0.493	0.292	12.268	57.312	-4.028	-76.22	18.26	-24.02	-39.984	-7.448	73.010	0.78061	-0.57037	0.24719	-0.06390	30.5	13111	100
2025-3-27 20:57:7.542	WT901BLE68-01(48591DE3C19B)	-0.165	-0.493	0.292	12.268	57.312	-4.028	-76.30	18.31	-24.64	-39.984	-7.448	73.010	0.78061	-0.57037	0.24719	-0.06390	30.5	13111	100
2025-3-27 20:57:7.542	WT901BLE68-01(48591DE3C19B)	-0.165	-0.265	0.250	8.606	43.640	2.258	-76.38	18.38	-25.18	-39.984	-7.448	73.010	0.78061	-0.57037	0.24719	-0.06390	30.5	13111	100
2025-3-27 20:57:7.542	WT901BLE68-01(48591DE3C19B)	-0.179	-0.265	0.250	8.606	43.640	2.258	-76.44	18.46	-25.64	-39.984	-7.448	73.010	0.78061	-0.57037	0.24719	-0.06390	30.5	13111	100
2025-3-27 20:57:7.600	WT901BLE68-01(48591DE3C19B)	-0.179	-0.133	0.192	5.615	25.208	16.296	-76.47	18.59	-25.99	-39.984	-7.448	73.010	0.78061	-0.57037	0.24719	-0.06390	30.5	13111	100
2025-3-27 20:57:7.600	WT901BLE68-01(48591DE3C19B)	-0.151	-0.133	0.192	5.615	25.208	16.296	-76.48	18.77	-26.22	-39.984	-7.448	73.010	0.78061	-0.57037	0.24719	-0.06390	30.5	13111	100
2025-3-27 20:57:7.600	WT901BLE68-01(48591DE3C19B)	-0.151	-0.176	0.142	1.953	3.906	28.320	-76.46	18.99	-26.32	-39.984	-7.448	73.010	0.78061	-0.57037	0.24719	-0.06390	30.5	13111	100
2025-3-27 20:57:7.600	WT901BLE68-01(48591DE3C19B)	-0.160	-0.176	0.142	1.953	3.906	28.320	-76.42	19.25	-26.30	-39.984	-7.448	73.010	0.78061	-0.57037	0.24719	-0.06390	30.5	13111	100
2025-3-27 20:57:7.630	WT901BLE68-01(48591DE3C19B)	-0.160	-0.351	0.127	-0.793	-9.888	34.973	-76.35	19.52	-26.20	-39.984	-7.448	73.010	0.78061	-0.57037	0.24719	-0.06390	30.5	13111	100
2025-3-27 20:57:7.630	WT901BLE68-01(48591DE3C19B)	-0.272	-0.351	0.127	-0.793	-9.888	34.973	-76.27	19.81	-26.02	-39.984	-7.448	73.010	0.78061	-0.57037	0.24719	-0.06390	30.5	13111	100
2025-3-27 20:57:7.630	WT901BLE68-01(48591DE3C19B)	-0.272	-0.623	0.136	-0.488	-19.287	33.325	-76.18	20.08	-25.78	-39.984	-7.448	73.010	0.78061	-0.57037	0.24719	-0.06390	30.5	13111	100
2025-3-27 20:57:7.630	WT901BLE68-01(48591DE3C19B)	-0.379	-0.623	0.136	-0.488	-19.287	33.325	-76.07	20.34	-25.50	-39.984	-7.448	73.010	0.78061	-0.57037	0.24719	-0.06390	30.5	13111	100
2025-3-27 20:57:7.660	WT901BLE68-01(48591DE3C19B)	-0.379	-0.862	0.155	-0.488	-31.372	27.649	-75.94	20.56	-25.17	-39.984	-7.448	73.010	0.78061	-0.57037	0.24719	-0.06390	30.5	13111	100
2025-3-27 20:57:7.660	WT901BLE68-01(48591DE3C19B)	-0.415	-0.862	0.155	-0.488	-31.372	27.649	-75.80	20.74	-24.77	-39.984	-7.448	73.010	0.78061	-0.57037	0.24719	-0.06390	30.5	13111	100
2025-3-27 20:57:7.661	WT901BLE68-01(48591DE3C19B)	-0.415	-1.176	0.181	-10.132	-40.894	4.517	-75.71	20.79	-24.37	-39.984	-7.448	73.010	0.78061	-0.57037	0.24719	-0.06390	30.5	13111	100
2025-3-27 20:57:7.661	WT901BLE68-01(48591DE3C19B)	-0.600	-1.176	0.181	-10.132	-40.894	4.517	-75.66	20.73	-23.94	-39.984	-7.448	73.010	0.78061	-0.57037	0.24719	-0.06390	30.5	13111	100
2025-3-27 20:57:7.751	WT901BLE68-01(48591DE3C19B)	-0.600	-1.900	0.365	-16.663	-52.124	-45.654	-75.65	20.40	-23.53	-39.984	-7.448	73.010	0.78061	-0.57037	0.24719	-0.06390	30.5	13111	100
2025-3-27 20:57:7.751	WT901BLE68-01(48591DE3C19B)	-0.605	-1.900	0.365	-16.663	-52.124	-45.654	-75.68	19.82	-23.12	-39.984	-7.448	73.010	0.78061	-0.57037	0.24719	-0.06390	30.5	13111	100
2025-3-27 20:57:7.751	WT901BLE68-01(48591DE3C19B)	-0.605	-2.199	0.519	10.742	-44.800	-68.420	-75.61	19.14	-22.79	-39.984	-7.448	73.010	0.78061	-0.57037	0.24719	-0.06390	30.5	13111	100
2025-3-27 20:57:7.751	WT901BLE68-01(48591DE3C19B)	-0.672	-2.199	0.519	10.742	-44.800	-68.420	-75.42	18.36	-22.54	-39.984	-7.448	73.010	0.78061	-0.57037	0.24719	-0.06390	30.5	13111	100
2025-3-27 20:57:7.752	WT901BLE68-01(48591DE3C19B)	-0.672	-1.515	0.726	30.029	-20.325	-80.139	-75.18	17.56	-22.42	-40.376	-1.372	70.266	0.78061	-0.57037	0.24719	-0.06390	30.5	13111	100
2025-3-27 20:57:7.752	WT901BLE68-01(48591DE3C19B)	-0.493	-1.515	0.726	30.029	-20.325	-80.139	-74.89	16.74	-22.46	-40.376	-1.372	70.266	0.78061	-0.57037	0.24719	-0.06390	30.5	13111	100
2025-3-27 20:57:7.753	WT901BLE68-01(48591DE3C19B)	-0.493	-1.159	0.693	30.396	30.762	-83.435	-74.66	15.98	-22.75	-40.376	-1.372	70.266	0.78061	-0.57037	0.24719	-0.06390	30.5	13111	100
2025-3-27 20:57:7.753	WT901BLE68-01(48591DE3C19B)	-0.282	-1.159	0.693	30.396	30.762	-83.435	-74.49	15.27	-23.30	-40.376	-1.372	70.266	0.78061	-0.57037	0.24719	-0.06390	30.5	13111	100
2025-3-27 20:57:7.782	WT901BLE68-01(48591DE3C19B)	-0.282	-0.972	0.528	28.870	94.727	-67.444	-74.39	14.74	-24.15	-40.376	-1.372	70.266	0.78061	-0.57037	0.24719	-0.06390	30.5	13111	100
2025-3-27 20:57:7.782	WT901BLE68-01(48591DE3C19B)	-0.262	-0.972	0.528	28.870	94.727	-67.444	-74.36	14.37	-25.29	-40.376	-1.372	70.266	0.78061	-0.57037	0.24719	-0.06390	30.5	13111	100
2025-3-27 20:57:7.782	WT901BLE68-01(48591DE3C19B)	-0.262	-0.767	0.372	24.902	111.511	-33.813	-74.35	14.18	-26.45	-40.376	-1.372	70.266	0.78061	-0.57037	0.24719	-0.06390	30.5	13111	100
2025-3-27 20:57:7.782	WT901BLE68-01(48591DE3C19B)	-0.458	-0.767	0.372	24.902	111.511	-33.813	-74.37	14.18	-27.65	-40.376	-1.372	70.266	0.78061	-0.57037	0.24719	-0.06390	30.5	13111	100
2025-3-27 20:57:7.840	WT901BLE68-01(48591DE3C19B)	-0.458	-0.701	0.314	-5.737	48.279	-24.719	-74.45	14.14	-28.52	-40.376	-1.372	70.266	0.78061	-0.57037	0.24719	-0.06390	30.5	13111	100
2025-3-27 20:57:7.840	WT901BLE68-01(48591DE3C19B)	-0.367	-0.701	0.314	-5.737	48.279	-24.719	-74.61	14.06	-29.06	-40.376	-1.372	70.266	0.78061	-0.57037	0.24719	-0.06390	30.5	13111	100
2025-3-27 20:57:7.841	WT901BLE68-01(48591DE3C19B)	-0.367	-0.809	0.300	-23.010	-14.526	-5.798	-74.77	13.99	-29.26	-40.376	-1.372	70.266	0.78061	-0.57037	0.24719	-0.06390	30.5	13111	100
2025-3-27 20:57:7.841	WT901BLE68-01(48591DE3C19B)	-0.381	-0.809	0.300	-23.010	-14.526	-5.798	-74.93	13.94	-29.12	-40.376	-1.372	70.266	0.78061	-0.57037	0.24719	-0.06390	30.5	13111	100
2025-3-27 20:57:7.870	WT901BLE68-01(48591DE3C19B)	-0.381	-0.771	0.300	-11.414	-21.362	11.414	-75.02	13.96	-28.92	-40.376	-1.372	70.266	0.78061	-0.57037	0.24719	-0.06390	30.5	13111	100
2025-3-27 20:57:7.870	WT901BLE68-01(48591DE3C19B)	-0.393	-0.771	0.300	-11.414	-21.362	11.414	-75.04	14.05	-28.67	-40.376	-1.372	70.266	0.78061	-0.57037	0.24719	-0.06390	30.5	13111	100
2025-3-27 20:57:7.870	WT901BLE68-01(48591DE3C19B)	-0.393	-0.583	0.288	-2.625	-18.005	10.254	-75.02	14.15	-28.44	-40.376	-1.372	70.266	0.78061	-0.57037	0.24719	-0.06390	30.5	13111	100
2025-3-27 20:57:7.870	WT901BLE68-01(48591DE3C19B)	-0.236	-0.583	0.288	-2.625	-18.005	10.254	-74.95	14.25	-28.22	-40.376	-1.372	70.266	0.78061	-0.57037	0.24719	-0.06390	30.5	13111	100
2025-3-27 20:57:7.899	WT901BLE68-01(48591DE3C19B)	-0.236	-0.409	0.262	4.822	2.380	7.751	-74.87	14.38	-28.22	-40.376	-1.372	70.266	0.78061	-0.57037	0.24719	-0.06390	30.5	13111	100
2025-3-27 20:57:7.899	WT901BLE68-01(48591DE3C19B)	-0.187	-0.409	0.262	4.822	2.380	7.751	-74.78	14.51	-28.21	-40.376	-1.372	70.266	0.78061	-0.57037	0.24719	-0.06390	30.5	13111	100
2025-3-27 20:57:7.900	WT901BLE68-01(48591DE3C19B)	-0.187	-0.266	0.235	14.771	33.630	14.343	-74.66	14.78	-28.50	-40.376	-1.372	70.266	0.78061	-0.57037	0.24719	-0.06390	30.5	13111	100
2025-3-27 20:57:7.900	WT901BLE68-01(48591DE3C19B)	-0.219	-0.266	0.235	14.771	33.630	14.343	-74.54	15.06	-28.78	-40.376	-1.372	70.266	0.78061	-0.57037	0.24719	-0.06390	30.5	13111	100
2025-3-27 20:57:7.961	WT901BLE68-01(48591DE3C19B)	-0.219	-0.154	0.236	18.311	40.039	24.292	-74.38	15.45	-29.09	-40.376	-1.372	70.266	0.78061	-0.57037	0.24719	-0.06390	30.5	13111	100
2025-3-27 20:57:7.961	WT901BLE68-01(48591DE3C19B)	-0.269	-0.154	0.236	18.311	40.039	24.292	-74.23	15.85	-29.40	-40.376	-1.372	70.266	0.78500	-0.55017	0.25803	-0.11996	30.5	13111	100
2025-3-27 20:57:7.961	WT901BLE68-01(48591DE3C19B)	-0.269	-0.145	0.233	10.315	18.982	35.828	-74.09	16.30	-29.47	-40.376	-1.372	70.266	0.78500	-0.55017	0.25803	-0.11996	30.5	13111	100
2025-3-27 20:57:7.961	WT901BLE68-01(48591DE3C19B)	-0.264	-0.145	0.233	10.315	18.982	35.828	-73.94	16.77	-29.52	-40.376	-1.372	70.266	0.78500	-0.55017	0.25803	-0.11996	30.5	13111	100
2025-3-27 20:57:8.26	WT901BLE68-01(48591DE3C19B)	-0.264	-0.334	0.206	-8.301	-11.597	42.114	-73.88	17.20	-29.25	-40.376	-1.372	70.266	0.78500	-0.55017	0.25803	-0.11996	30.5	13111	100
2025-3-27 20:57:8.26	WT901BLE68-01(48591DE3C19B)	-0.324	-0.334	0.206	-8.301	-11.597	42.114	-73.81	17.64	-28.97	-40.376	-1.372	70.266	0.78500	-0.55017	0.25803	-0.11996	30.5	13111	100
2025-3-27 20:57:8.27	WT901BLE68-01(48591DE3C19B)	-0.324	-0.718	0.180	-22.827	-30.029	46.631	-73.84	18.07	-28.50	-40.376	-1.372	70.266	0.78500	-0.55017	0.25803	-0.11996	30.5	13111	100
2025-3-27 20:57:8.27	WT901BLE68-01(48591DE3C19B)	-0.432	-0.718	0.180	-22.827	-30.029	46.631	-73.87	18.48	-28.03	-40.376	-1.372	70.266	0.78500	-0.55017	0.25803	-0.11996	30.5	13111	100
2025-3-27 20:57:8.27	WT901BLE68-01(48591DE3C19B)	-0.432	-1.119	0.165	-23.621	-42.664	41.626	-73.89	18.81	-27.45	-40.376	-1.372	70.266	0.78500	-0.55017	0.25803	-0.11996	30.5	13111	100
2025-3-27 20:57:8.27	WT901BLE68-01(48591DE3C19B)	-0.515	-1.119	0.165	-23.621	-42.664	41.626	-73.92	19.14	-26.88	-40.376	-1.372	70.266	0.78500	-0.55017	0.25803	-0.11996	30.5	13111	100
2025-3-27 20:57:8.27	WT901BLE68-01(48591DE3C19B)	-0.515	-1.609	0.258	-21.118	-52.917	23.193	-73.92	19.24	-26.27	-40.376	-1.372	70.266	0.78500	-0.55017	0.25803	-0.11996	30.5	13111	100
2025-3-27 20:57:8.27	WT901BLE68-01(48591DE3C19B)	-0.557	-1.609	0.258	-21.118	-52.917	23.193	-73.92	19.34	-25.66	-40.376	-1.372	70.266	0.78500	-0.55017	0.25803	-0.11996	30.5	13111	100
2025-3-27 20:57:8.82	WT901BLE68-01(48591DE3C19B)	-0.557	-2.263	0.316	-6.042	-44.617	-4.395	-73.84	19.19	-25.22	-40.376	-1.372	70.266	0.78500	-0.55017	0.25803	-0.11996	30.5	13111	100
2025-3-27 20:57:8.82	WT901BLE68-01(48591DE3C19B)	-0.640	-2.263	0.316	-6.042	-44.617	-4.395	-73.77	19.03	-24.80	-40.376	-1.372	70.266	0.78500	-0.55017	0.25803	-0.11996	30.5	13111	100
2025-3-27 20:57:8.82	WT901BLE68-01(48591DE3C19B)	-0.640	-2.220	0.358	38.452	-21.301	-17.395	-73.36	18.80	-24.65	-40.376	-1.372	70.266	0.78500	-0.55017	0.25803	-0.11996	30.5	13111	100
2025-3-27 20:57:8.82	WT901BLE68-01(48591DE3C19B)	-0.534	-2.220	0.358	38.452	-21.301	-17.395	-72.95	18.57	-24.50	-40.376	-1.372	70.266	0.78500	-0.55017	0.25803	-0.11996	30.5	13111	100
2025-3-27 20:57:8.111	WT901BLE68-01(48591DE3C19B)	-0.534	-1.693	0.310	51.514	13.062	-28.442	-72.54	18.34	-24.74	-40.376	-1.372	70.266	0.78500	-0.55017	0.25803	-0.11996	30.5	13111	100
2025-3-27 20:57:8.111	WT901BLE68-01(48591DE3C19B)	-0.388	-1.693	0.310	51.514	13.062	-28.442	-72.13	18.11	-24.98	-40.376	-1.372	70.266	0.78500	-0.55017	0.25803	-0.11996	30.5	13111	100
2025-3-27 20:57:8.111	WT901BLE68-01(48591DE3C19B)	-0.388	-1.425	0.283	54.688	62.744	-30.640	-71.85	18.01	-25.72	-40.376	-1.372	70.266	0.78500	-0.55017	0.25803	-0.11996	30.5	13111	100
2025-3-27 20:57:8.111	WT901BLE68-01(48591DE3C19B)	-0.319	-1.425	0.283	54.688	62.744	-30.640	-71.56	17.92	-26.47	-41.748	0.980	66.934	0.78500	-0.55017	0.25803	-0.11996	30.5	13111	100
2025-3-27 20:57:8.142	WT901BLE68-01(48591DE3C19B)	-0.319	-1.113	0.271	55.420	104.248	-15.564	-71.39	18.10	-27.56	-41.748	0.980	66.934	0.78500	-0.55017	0.25803	-0.11996	30.5	13111	100
2025-3-27 20:57:8.142	WT901BLE68-01(48591DE3C19B)	-0.351	-1.113	0.271	55.420	104.248	-15.564	-71.22	18.28	-28.66	-41.748	0.980	66.934	0.78500	-0.55017	0.25803	-0.11996	30.5	13111	100
2025-3-27 20:57:8.143	WT901BLE68-01(48591DE3C19B)	-0.351	-0.808	0.239	41.077	107.300	0.916	-71.19	18.63	-29.73	-41.748	0.980	66.934	0.78500	-0.55017	0.25803	-0.11996	30.5	13111	100
2025-3-27 20:57:8.143	WT901BLE68-01(48591DE3C19B)	-0.352	-0.808	0.239	41.077	107.300	0.916	-71.16	18.98	-30.80	-41.748	0.980	66.934	0.78500	-0.55017	0.25803	-0.11996	30.5	13111	100
2025-3-27 20:57:8.200	WT901BLE68-01(48591DE3C19B)	-0.352	-0.612	0.239	19.348	73.608	9.033	-71.23	19.30	-31.50	-41.748	0.980	66.934	0.78500	-0.55017	0.25803	-0.11996	30.5	13111	100
2025-3-27 20:57:8.200	WT901BLE68-01(48591DE3C19B)	-0.360	-0.612	0.239	19.348	73.608	9.033	-71.31	19.62	-32.20	-41.748	0.980	66.934	0.78500	-0.55017	0.25803	-0.11996	30.5	13111	100
2025-3-27 20:57:8.200	WT901BLE68-01(48591DE3C19B)	-0.360	-0.536	0.254	4.150	47.241	14.771	-71.44	19.90	-32.60	-41.748	0.980	66.934	0.78500	-0.55017	0.25803	-0.11996	30.5	13111	100
2025-3-27 20:57:8.201	WT901BLE68-01(48591DE3C19B)	-0.425	-0.536	0.254	4.150	47.241	14.771	-71.56	20.19	-33.01	-41.748	0.980	66.934	0.78500	-0.55017	0.25803	-0.11996	30.5	13111	100
2025-3-27 20:57:8.229	WT901BLE68-01(48591DE3C19B)	-0.425	-0.481	0.267	-2.808	26.123	19.897	-71.68	20.47	-33.19	-41.748	0.980	66.934	0.78500	-0.55017	0.25803	-0.11996	30.5	13111	100
2025-3-27 20:57:8.229	WT901BLE68-01(48591DE3C19B)	-0.442	-0.481	0.267	-2.808	26.123	19.897	-71.79	20.75	-33.37	-41.748	0.980	66.934	0.78500	-0.55017	0.25803	-0.11996	30.5	13111	100
2025-3-27 20:57:8.229	WT901BLE68-01(48591DE3C19B)	-0.442	-0.443	0.275	-9.888	1.648	19.104	-71.88	20.96	-33.29	-41.748	0.980	66.934	0.78500	-0.55017	0.25803	-0.11996	30.5	13111	100
2025-3-27 20:57:8.229	WT901BLE68-01(48591DE3C19B)	-0.381	-0.443	0.275	-9.888	1.648	19.104	-71.97	21.17	-33.21	-41.748	0.980	66.934	0.78500	-0.55017	0.25803	-0.11996	30.5	13111	100
2025-3-27 20:57:8.261	WT901BLE68-01(48591DE3C19B)	-0.381	-0.424	0.259	-11.719	-17.883	19.287	-71.99	21.32	-32.94	-41.748	0.980	66.934	0.78500	-0.55017	0.25803	-0.11996	30.5	13111	100
2025-3-27 20:57:8.261	WT901BLE68-01(48591DE3C19B)	-0.342	-0.424	0.259	-11.719	-17.883	19.287	-72.02	21.48	-32.66	-41.748	0.980	66.934	0.78500	-0.55017	0.25803	-0.11996	30.5	13111	100
2025-3-27 20:57:8.261	WT901BLE68-01(48591DE3C19B)	-0.342	-0.458	0.203	-11.658	-28.809	19.104	-71.99	21.60	-32.27	-41.748	0.980	66.934	0.78500	-0.55017	0.25803	-0.11996	30.5	13111	100
2025-3-27 20:57:8.261	WT901BLE68-01(48591DE3C19B)	-0.288	-0.458	0.203	-11.658	-28.809	19.104	-71.97	21.73	-31.87	-41.748	0.980	66.934	0.78500	-0.55017	0.25803	-0.11996	30.5	13111	100
2025-3-27 20:57:8.326	WT901BLE68-01(48591DE3C19B)	-0.288	-0.563	0.165	-10.071	-35.889	18.494	-71.90	21.84	-31.42	-41.748	0.980	66.934	0.78500	-0.55017	0.25803	-0.11996	30.5	13111	100
2025-3-27 20:57:8.326	WT901BLE68-01(48591DE3C19B)	-0.246	-0.563	0.165	-10.071	-35.889	18.494	-71.83	21.93	-30.96	-41.748	0.980	66.934	0.78500	-0.55017	0.25803	-0.11996	30.5	13111	100
2025-3-27 20:57:8.326	WT901BLE68-01(48591DE3C19B)	-0.246	-0.699	0.161	-5.188	-37.109	18.799	-71.72	22.02	-30.49	-41.748	0.980	66.934	0.78500	-0.55017	0.25803	-0.11996	30.5	13111	100
2025-3-27 20:57:8.327	WT901BLE68-01(48591DE3C19B)	-0.212	-0.699	0.161	-5.188	-37.109	18.799	-71.60	22.11	-30.03	-41.748	0.980	66.934	0.78500	-0.55017	0.25803	-0.11996	30.5	13111	100
2025-3-27 20:57:8.350	WT901BLE68-01(48591DE3C19B)	-0.166	-0.786	0.192	0.793	-32.959	21.118	-71.44	22.23	-29.61	-41.748	0.980	66.934	0.79889	-0.51389	0.29767	-0.09476	30.5	13111	100
2025-3-27 20:57:8.350	WT901BLE68-01(48591DE3C19B)	-0.166	-0.802	0.234	6.042	-18.188	24.719	-71.29	22.37	-29.26	-41.748	0.980	66.934	0.79889	-0.51389	0.29767	-0.09476	30.5	13111	100
2025-3-27 20:57:8.350	WT901BLE68-01(48591DE3C19B)	-0.167	-0.802	0.234	6.042	-18.188	24.719	-71.13	22.54	-28.99	-41.748	0.980	66.934	0.79889	-0.51389	0.29767	-0.09476	30.5	13111	100
2025-3-27 20:57:8.350	WT901BLE68-01(48591DE3C19B)	-0.167	-0.744	0.270	10.559	3.601	29.602	-70.99	22.77	-28.82	-41.748	0.980	66.934	0.79889	-0.51389	0.29767	-0.09476	30.5	13111	100
2025-3-27 20:57:8.380	WT901BLE68-01(48591DE3C19B)	-0.160	-0.744	0.270	10.559	3.601	29.602	-70.87	23.05	-28.76	-41.748	0.980	66.934	0.79889	-0.51389	0.29767	-0.09476	30.5	13111	100
2025-3-27 20:57:8.380	WT901BLE68-01(48591DE3C19B)	-0.160	-0.655	0.275	9.338	23.438	35.339	-70.79	23.38	-28.79	-41.748	0.980	66.934	0.79889	-0.51389	0.29767	-0.09476	30.5	13111	100
2025-3-27 20:57:8.380	WT901BLE68-01(48591DE3C19B)	-0.194	-0.655	0.275	9.338	23.438	35.339	-70.75	23.76	-28.91	-41.748	0.980	66.934	0.79889	-0.51389	0.29767	-0.09476	30.5	13111	100
2025-3-27 20:57:8.380	WT901BLE68-01(48591DE3C19B)	-0.194	-0.922	0.254	-0.549	36.865	31.311	-70.78	24.15	-29.11	-41.748	0.980	66.934	0.79889	-0.51389	0.29767	-0.09476	30.5	13111	100
2025-3-27 20:57:8.501	WT901BLE68-01(48591DE3C19B)	-0.270	-0.922	0.254	-0.549	36.865	31.311	-70.91	24.52	-29.39	-41.748	0.980	66.934	0.79889	-0.51389	0.29767	-0.09476	30.5	13111	100
2025-3-27 20:57:8.501	WT901BLE68-01(48591DE3C19B)	-0.270	-1.151	0.213	-2.502	40.955	21.179	-71.07	24.85	-29.71	-41.748	0.980	66.934	0.79889	-0.51389	0.29767	-0.09476	30.5	13111	100
2025-3-27 20:57:8.501	WT901BLE68-01(48591DE3C19B)	-0.350	-1.151	0.213	-2.502	40.955	21.179	-71.25	25.13	-30.08	-41.748	0.980	66.934	0.79889	-0.51389	0.29767	-0.09476	30.5	13111	100
2025-3-27 20:57:8.501	WT901BLE68-01(48591DE3C19B)	-0.350	-1.449	0.172	-19.775	40.710	-0.366	-71.55	25.31	-30.48	-41.748	0.980	66.934	0.79889	-0.51389	0.29767	-0.09476	30.5	13111	100
2025-3-27 20:57:8.502	WT901BLE68-01(48591DE3C19B)	-0.673	-1.449	0.172	-19.775	40.710	-0.366	-71.95	25.37	-30.92	-41.748	0.980	66.934	0.79889	-0.51389	0.29767	-0.09476	30.5	13111	100
2025-3-27 20:57:8.502	WT901BLE68-01(48591DE3C19B)	-0.673	-2.265	0.374	-33.325	21.667	-26.611	-72.41	25.28	-31.29	-41.748	0.980	66.934	0.79889	-0.51389	0.29767	-0.09476	30.5	13111	100
2025-3-27 20:57:8.502	WT901BLE68-01(48591DE3C19B)	-0.810	-2.265	0.374	-33.325	21.667	-26.611	-72.91	25.03	-31.62	-41.748	0.980	66.934	0.79889	-0.51389	0.29767	-0.09476	30.5	13111	100
2025-3-27 20:57:8.502	WT901BLE68-01(48591DE3C19B)	-0.810	-2.348	0.528	1.953	-13.184	-34.607	-73.15	24.70	-31.77	-41.748	0.980	66.934	0.79889	-0.51389	0.29767	-0.09476	30.5	13111	100
2025-3-27 20:57:8.502	WT901BLE68-01(48591DE3C19B)	-0.540	-2.348	0.528	1.953	-13.184	-34.607	-73.15	24.28	-31.75	-41.748	0.980	66.934	0.79889	-0.51389	0.29767	-0.09476	30.5	13111	100
2025-3-27 20:57:8.502	WT901BLE68-01(48591DE3C19B)	-0.540	-1.399	0.644	7.446	-45.532	-27.344	-73.05	23.86	-31.55	-41.748	0.980	66.934	0.79889	-0.51389	0.29767	-0.09476	30.5	13111	100
2025-3-27 20:57:8.502	WT901BLE68-01(48591DE3C19B)	-0.199	-1.399	0.644	7.446	-45.532	-27.344	-72.84	23.42	-31.17	-41.748	0.980	66.934	0.79889	-0.51389	0.29767	-0.09476	30.5	13111	100
2025-3-27 20:57:8.502	WT901BLE68-01(48591DE3C19B)	-0.199	-0.935	0.618	-3.723	-34.912	-10.498	-72.69	23.09	-30.82	-41.748	0.980	66.934	0.79889	-0.51389	0.29767	-0.09476	30.5	13111	100
2025-3-27 20:57:8.561	WT901BLE68-01(48591DE3C19B)	-0.152	-0.935	0.618	-3.723	-34.912	-10.498	-72.61	22.85	-30.50	-41.748	0.980	66.934	0.79889	-0.51389	0.29767	-0.09476	30.5	13111	100
2025-3-27 20:57:8.561	WT901BLE68-01(48591DE3C19B)	-0.152	-0.745	0.561	-17.334	1.648	3.845	-72.65	22.73	-30.36	-47.530	-3.626	64.974	0.79889	-0.51389	0.29767	-0.09476	30.5	13111	100
2025-3-27 20:57:8.561	WT901BLE68-01(48591DE3C19B)	-0.322	-0.745	0.561	-17.334	1.648	3.845	-72.81	22.73	-30.38	-47.530	-3.626	64.974	0.79889	-0.51389	0.29767	-0.09476	30.5	13111	100
2025-3-27 20:57:8.561	WT901BLE68-01(48591DE3C19B)	-0.322	-0.877	0.469	-33.081	0.305	13.428	-73.04	22.76	-30.38	-47.530	-3.626	64.974	0.79889	-0.51389	0.29767	-0.09476	30.5	13111	100
2025-3-27 20:57:8.590	WT901BLE68-01(48591DE3C19B)	-0.290	-0.877	0.469	-33.081	0.305	13.428	-73.33	22.85	-30.35	-47.530	-3.626	64.974	0.79889	-0.51389	0.29767	-0.09476	30.5	13111	100
2025-3-27 20:57:8.590	WT901BLE68-01(48591DE3C19B)	-0.290	-1.094	0.404	-32.654	-25.208	19.165	-73.56	22.93	-30.18	-47.530	-3.626	64.974	0.79889	-0.51389	0.29767	-0.09476	30.5	13111	100
2025-3-27 20:57:8.590	WT901BLE68-01(48591DE3C19B)	-0.230	-1.094	0.404	-32.654	-25.208	19.165	-73.73	23.00	-29.88	-47.530	-3.626	64.974	0.79889	-0.51389	0.29767	-0.09476	30.5	13111	100
2025-3-27 20:57:8.590	WT901BLE68-01(48591DE3C19B)	-0.230	-1.089	0.352	-13.733	-22.217	22.156	-73.82	23.08	-29.60	-47.530	-3.626	64.974	0.79889	-0.51389	0.29767	-0.09476	30.5	13111	100
2025-3-27 20:57:8.651	WT901BLE68-01(48591DE3C19B)	-0.255	-1.089	0.352	-13.733	-22.217	22.156	-73.81	23.19	-29.32	-47.530	-3.626	64.974	0.79889	-0.51389	0.29767	-0.09476	30.5	13111	100
2025-3-27 20:57:8.651	WT901BLE68-01(48591DE3C19B)	-0.255	-0.959	0.298	1.953	-4.089	14.832	-73.77	23.27	-29.15	-47.530	-3.626	64.974	0.79889	-0.51389	0.29767	-0.09476	30.5	13111	100
2025-3-27 20:57:8.651	WT901BLE68-01(48591DE3C19B)	-0.284	-0.959	0.298	1.953	-4.089	14.832	-73.69	23.35	-29.09	-47.530	-3.626	64.974	0.79889	-0.51389	0.29767	-0.09476	30.5	13111	100
2025-3-27 20:57:8.651	WT901BLE68-01(48591DE3C19B)	-0.284	-0.808	0.288	10.864	15.259	3.601	-73.62	23.41	-29.15	-47.530	-3.626	64.974	0.79889	-0.51389	0.29767	-0.09476	30.5	13111	100
2025-3-27 20:57:8.679	WT901BLE68-01(48591DE3C19B)	-0.308	-0.808	0.288	10.864	15.259	3.601	-73.55	23.43	-29.32	-47.530	-3.626	64.974	0.79889	-0.51389	0.29767	-0.09476	30.5	13111	100
2025-3-27 20:57:8.679	WT901BLE68-01(48591DE3C19B)	-0.308	-0.693	0.330	13.672	25.879	-4.272	-73.49	23.44	-29.56	-47.530	-3.626	64.974	0.79889	-0.51389	0.29767	-0.09476	30.5	13111	100
2025-3-27 20:57:8.679	WT901BLE68-01(48591DE3C19B)	-0.342	-0.693	0.330	13.672	25.879	-4.272	-73.45	23.42	-29.87	-47.530	-3.626	64.974	0.79889	-0.51389	0.29767	-0.09476	30.5	13111	100
2025-3-27 20:57:8.679	WT901BLE68-01(48591DE3C19B)	-0.342	-0.614	0.373	11.169	30.151	-9.155	-73.42	23.40	-30.20	-47.530	-3.626	64.974	0.79889	-0.51389	0.29767	-0.09476	30.5	13111	100
