time	DeviceName	AccX(g)	AccY(g)	AccZ(g)	AsX(°/s)	AsY(°/s)	AsZ(°/s)	AngleX(°)	AngleY(°)	AngleZ(°)	HX(uT)	HY(uT)	HZ(uT)	Q0()	Q1()	Q2()	Q3()	Temperature(°C)	Version()	Battery level(%)
2025-3-27 20:21:37.910	WT901BLE68-01(48591DE3C19B)	-0.375	-0.895	0.251	-0.122	0.671	-1.648	-75.83	22.01	-96.31	-45.276	-7.644	-2.842	-0.60583	0.29050	-0.54922	0.49677	29.8	13111	100
2025-3-27 20:21:37.911	WT901BLE68-01(48591DE3C19B)	-0.375	-0.896	0.253	0.000	0.793	-2.197	-75.83	21.99	-96.33	-45.276	-7.644	-2.842	-0.60583	0.29050	-0.54922	0.49677	29.8	13111	100
2025-3-27 20:21:37.911	WT901BLE68-01(48591DE3C19B)	-0.375	-0.896	0.253	0.000	0.793	-2.197	-75.83	21.97	-96.34	-45.276	-7.644	-2.842	-0.60583	0.29050	-0.54922	0.49677	29.8	13111	100
2025-3-27 20:21:37.911	WT901BLE68-01(48591DE3C19B)	-0.375	-0.899	0.254	-0.061	0.671	-2.502	-75.83	21.95	-96.36	-45.276	-7.644	-2.842	-0.60583	0.29050	-0.54922	0.49677	29.8	13111	100
2025-3-27 20:21:37.970	WT901BLE68-01(48591DE3C19B)	-0.374	-0.899	0.254	-0.061	0.671	-2.502	-75.82	21.92	-96.38	-45.276	-7.644	-2.842	-0.60583	0.29050	-0.54922	0.49677	29.8	13111	100
2025-3-27 20:21:37.971	WT901BLE68-01(48591DE3C19B)	-0.374	-0.895	0.252	-0.183	0.854	-2.747	-75.82	21.90	-96.40	-45.276	-7.644	-2.842	-0.60583	0.29050	-0.54922	0.49677	29.8	13111	100
2025-3-27 20:21:37.971	WT901BLE68-01(48591DE3C19B)	-0.377	-0.895	0.252	-0.183	0.854	-2.747	-75.82	21.87	-96.42	-45.276	-7.644	-2.842	-0.60583	0.29050	-0.54922	0.49677	29.8	13111	100
2025-3-27 20:21:37.971	WT901BLE68-01(48591DE3C19B)	-0.377	-0.889	0.253	-0.488	0.793	-2.869	-75.82	21.85	-96.44	-45.276	-7.644	-2.842	-0.60583	0.29050	-0.54922	0.49677	29.8	13111	100
2025-3-27 20:21:38.3	WT901BLE68-01(48591DE3C19B)	-0.381	-0.889	0.253	-0.488	0.793	-2.869	-75.83	21.82	-96.46	-45.276	-7.644	-2.842	-0.60583	0.29050	-0.54922	0.49677	29.8	13111	100
2025-3-27 20:21:38.3	WT901BLE68-01(48591DE3C19B)	-0.383	-0.888	0.253	-1.160	-0.366	-3.113	-75.83	21.79	-96.47	-45.276	-7.644	-2.842	-0.60583	0.29050	-0.54922	0.49677	29.8	13111	100
2025-3-27 20:21:38.3	WT901BLE68-01(48591DE3C19B)	-0.383	-0.888	0.254	-1.709	-1.709	-3.357	-75.83	21.76	-96.47	-45.276	-7.644	-2.842	-0.60583	0.29050	-0.54922	0.49677	29.8	13111	100
2025-3-27 20:21:38.3	WT901BLE68-01(48591DE3C19B)	-0.380	-0.888	0.254	-1.709	-1.709	-3.357	-75.84	21.73	-96.47	-45.276	-7.644	-2.842	-0.60583	0.29050	-0.54922	0.49677	29.8	13111	100
2025-3-27 20:21:38.33	WT901BLE68-01(48591DE3C19B)	-0.380	-0.885	0.253	-2.136	-3.052	-3.601	-75.84	21.69	-96.45	-45.276	-7.644	-2.842	-0.60583	0.29050	-0.54922	0.49677	29.8	13111	100
2025-3-27 20:21:38.33	WT901BLE68-01(48591DE3C19B)	-0.378	-0.885	0.253	-2.136	-3.052	-3.601	-75.84	21.65	-96.43	-45.276	-7.644	-2.842	-0.60583	0.29050	-0.54922	0.49677	29.8	13111	100
2025-3-27 20:21:38.33	WT901BLE68-01(48591DE3C19B)	-0.378	-0.883	0.251	-2.808	-4.089	-3.967	-75.85	21.61	-96.41	-45.276	-7.644	-2.842	-0.60226	0.29230	-0.54852	0.50085	29.8	13111	100
2025-3-27 20:21:38.33	WT901BLE68-01(48591DE3C19B)	-0.384	-0.883	0.251	-2.808	-4.089	-3.967	-75.86	21.56	-96.38	-45.276	-7.644	-2.842	-0.60226	0.29230	-0.54852	0.50085	29.8	13111	100
2025-3-27 20:21:38.91	WT901BLE68-01(48591DE3C19B)	-0.384	-0.887	0.252	-3.479	-5.188	-4.578	-75.86	21.52	-96.34	-45.276	-7.644	-2.842	-0.60226	0.29230	-0.54852	0.50085	29.8	13111	100
2025-3-27 20:21:38.91	WT901BLE68-01(48591DE3C19B)	-0.390	-0.887	0.252	-3.479	-5.188	-4.578	-75.87	21.46	-96.31	-45.276	-7.644	-2.842	-0.60226	0.29230	-0.54852	0.50085	29.8	13111	100
2025-3-27 20:21:38.91	WT901BLE68-01(48591DE3C19B)	-0.390	-0.884	0.254	-4.272	-7.263	-4.944	-75.88	21.41	-96.26	-45.276	-7.644	-2.842	-0.60226	0.29230	-0.54852	0.50085	29.8	13111	100
2025-3-27 20:21:38.91	WT901BLE68-01(48591DE3C19B)	-0.389	-0.884	0.254	-4.272	-7.263	-4.944	-75.89	21.35	-96.20	-45.276	-7.644	-2.842	-0.60226	0.29230	-0.54852	0.50085	29.8	13111	100
2025-3-27 20:21:38.121	WT901BLE68-01(48591DE3C19B)	-0.389	-0.869	0.255	-5.432	-9.827	-4.883	-75.90	21.29	-96.13	-45.276	-7.644	-2.842	-0.60226	0.29230	-0.54852	0.50085	29.8	13111	100
2025-3-27 20:21:38.121	WT901BLE68-01(48591DE3C19B)	-0.387	-0.869	0.255	-5.432	-9.827	-4.883	-75.91	21.22	-96.04	-45.276	-7.644	-2.842	-0.60226	0.29230	-0.54852	0.50085	29.8	13111	100
2025-3-27 20:21:38.121	WT901BLE68-01(48591DE3C19B)	-0.387	-0.854	0.252	-6.714	-12.207	-4.395	-75.92	21.16	-95.95	-45.276	-7.644	-2.842	-0.60226	0.29230	-0.54852	0.50085	29.8	13111	100
2025-3-27 20:21:38.121	WT901BLE68-01(48591DE3C19B)	-0.386	-0.854	0.252	-6.714	-12.207	-4.395	-75.94	21.09	-95.84	-45.276	-7.644	-2.842	-0.60226	0.29230	-0.54852	0.50085	29.8	13111	100
2025-3-27 20:21:38.151	WT901BLE68-01(48591DE3C19B)	-0.386	-0.845	0.252	-7.874	-14.648	-3.906	-75.95	21.03	-95.71	-45.276	-7.644	-2.842	-0.60226	0.29230	-0.54852	0.50085	29.8	13111	100
2025-3-27 20:21:38.151	WT901BLE68-01(48591DE3C19B)	-0.387	-0.845	0.252	-7.874	-14.648	-3.906	-75.96	20.97	-95.58	-45.276	-7.644	-2.842	-0.60226	0.29230	-0.54852	0.50085	29.8	13111	100
2025-3-27 20:21:38.151	WT901BLE68-01(48591DE3C19B)	-0.387	-0.847	0.251	-8.972	-17.334	-3.723	-75.98	20.91	-95.43	-45.276	-7.644	-2.842	-0.60226	0.29230	-0.54852	0.50085	29.8	13111	100
2025-3-27 20:21:38.151	WT901BLE68-01(48591DE3C19B)	-0.396	-0.847	0.251	-8.972	-17.334	-3.723	-76.00	20.84	-95.27	-45.276	-7.644	-2.842	-0.60226	0.29230	-0.54852	0.50085	29.8	13111	100
2025-3-27 20:21:38.213	WT901BLE68-01(48591DE3C19B)	-0.396	-0.848	0.251	-9.277	-20.203	-3.967	-76.01	20.77	-95.09	-45.276	-7.644	-2.842	-0.60226	0.29230	-0.54852	0.50085	29.8	13111	100
2025-3-27 20:21:38.213	WT901BLE68-01(48591DE3C19B)	-0.405	-0.848	0.251	-9.277	-20.203	-3.967	-76.02	20.70	-94.91	-45.276	-7.644	-2.842	-0.60226	0.29230	-0.54852	0.50085	29.8	13111	100
2025-3-27 20:21:38.213	WT901BLE68-01(48591DE3C19B)	-0.405	-0.847	0.250	-10.132	-23.560	-4.089	-76.03	20.62	-94.70	-45.276	-7.644	-2.842	-0.60226	0.29230	-0.54852	0.50085	29.8	13111	100
2025-3-27 20:21:38.213	WT901BLE68-01(48591DE3C19B)	-0.406	-0.847	0.250	-10.132	-23.560	-4.089	-76.03	20.54	-94.48	-45.276	-7.644	-2.842	-0.60226	0.29230	-0.54852	0.50085	29.8	13111	100
2025-3-27 20:21:38.242	WT901BLE68-01(48591DE3C19B)	-0.406	-0.840	0.242	-11.047	-27.283	-3.784	-76.03	20.46	-94.24	-45.276	-7.644	-2.842	-0.60226	0.29230	-0.54852	0.50085	29.8	13111	100
2025-3-27 20:21:38.242	WT901BLE68-01(48591DE3C19B)	-0.419	-0.840	0.242	-11.047	-27.283	-3.784	-76.03	20.38	-93.98	-45.276	-7.644	-2.842	-0.60226	0.29230	-0.54852	0.50085	29.8	13111	100
2025-3-27 20:21:38.242	WT901BLE68-01(48591DE3C19B)	-0.419	-0.842	0.236	-12.695	-31.128	-3.662	-76.04	20.29	-93.71	-45.276	-7.644	-2.842	-0.60226	0.29230	-0.54852	0.50085	29.8	13111	100
2025-3-27 20:21:38.243	WT901BLE68-01(48591DE3C19B)	-0.425	-0.842	0.236	-12.695	-31.128	-3.662	-76.04	20.20	-93.41	-47.824	-6.468	-3.136	-0.60226	0.29230	-0.54852	0.50085	29.8	13111	100
2025-3-27 20:21:38.301	WT901BLE68-01(48591DE3C19B)	-0.425	-0.858	0.232	-14.343	-35.339	-4.639	-76.05	20.10	-93.10	-47.824	-6.468	-3.136	-0.60226	0.29230	-0.54852	0.50085	29.8	13111	100
2025-3-27 20:21:38.301	WT901BLE68-01(48591DE3C19B)	-0.436	-0.858	0.232	-14.343	-35.339	-4.639	-76.06	20.00	-92.77	-47.824	-6.468	-3.136	-0.60226	0.29230	-0.54852	0.50085	29.8	13111	100
2025-3-27 20:21:38.302	WT901BLE68-01(48591DE3C19B)	-0.436	-0.896	0.234	-15.442	-39.307	-6.409	-76.06	19.89	-92.42	-47.824	-6.468	-3.136	-0.60226	0.29230	-0.54852	0.50085	29.8	13111	100
2025-3-27 20:21:38.302	WT901BLE68-01(48591DE3C19B)	-0.442	-0.896	0.234	-15.442	-39.307	-6.409	-76.07	19.75	-92.05	-47.824	-6.468	-3.136	-0.60226	0.29230	-0.54852	0.50085	29.8	13111	100
2025-3-27 20:21:38.330	WT901BLE68-01(48591DE3C19B)	-0.442	-0.938	0.236	-15.198	-41.443	-8.484	-76.09	19.62	-91.68	-47.824	-6.468	-3.136	-0.60226	0.29230	-0.54852	0.50085	29.8	13111	100
2025-3-27 20:21:38.330	WT901BLE68-01(48591DE3C19B)	-0.434	-0.938	0.236	-15.198	-41.443	-8.484	-76.09	19.46	-91.31	-47.824	-6.468	-3.136	-0.60226	0.29230	-0.54852	0.50085	29.8	13111	100
2025-3-27 20:21:38.330	WT901BLE68-01(48591DE3C19B)	-0.434	-0.965	0.238	-13.794	-40.405	-10.315	-76.09	19.30	-90.94	-47.824	-6.468	-3.136	-0.60226	0.29230	-0.54852	0.50085	29.8	13111	100
2025-3-27 20:21:38.330	WT901BLE68-01(48591DE3C19B)	-0.428	-0.965	0.238	-13.794	-40.405	-10.315	-76.09	19.14	-90.58	-47.824	-6.468	-3.136	-0.60226	0.29230	-0.54852	0.50085	29.8	13111	100
2025-3-27 20:21:38.361	WT901BLE68-01(48591DE3C19B)	-0.428	-0.973	0.240	-11.108	-34.241	-10.864	-76.09	18.98	-90.25	-47.824	-6.468	-3.136	-0.60226	0.29230	-0.54852	0.50085	29.8	13111	100
2025-3-27 20:21:38.361	WT901BLE68-01(48591DE3C19B)	-0.429	-0.973	0.240	-11.108	-34.241	-10.864	-76.09	18.82	-89.97	-47.824	-6.468	-3.136	-0.60226	0.29230	-0.54852	0.50085	29.8	13111	100
2025-3-27 20:21:38.361	WT901BLE68-01(48591DE3C19B)	-0.429	-0.942	0.235	-8.362	-26.855	-9.216	-76.09	18.68	-89.71	-47.824	-6.468	-3.136	-0.60226	0.29230	-0.54852	0.50085	29.8	13111	100
2025-3-27 20:21:38.361	WT901BLE68-01(48591DE3C19B)	-0.428	-0.942	0.235	-8.362	-26.855	-9.216	-76.09	18.56	-89.49	-47.824	-6.468	-3.136	-0.60226	0.29230	-0.54852	0.50085	29.8	13111	100
2025-3-27 20:21:38.391	WT901BLE68-01(48591DE3C19B)	-0.428	-0.898	0.226	-7.507	-22.217	-6.042	-76.09	18.46	-89.30	-47.824	-6.468	-3.136	-0.60226	0.29230	-0.54852	0.50085	29.8	13111	100
2025-3-27 20:21:38.391	WT901BLE68-01(48591DE3C19B)	-0.432	-0.898	0.226	-7.507	-22.217	-6.042	-76.09	18.39	-89.13	-47.824	-6.468	-3.136	-0.60226	0.29230	-0.54852	0.50085	29.8	13111	100
2025-3-27 20:21:38.391	WT901BLE68-01(48591DE3C19B)	-0.432	-0.864	0.222	-8.240	-20.874	-2.075	-76.09	18.33	-88.96	-47.824	-6.468	-3.136	-0.60226	0.29230	-0.54852	0.50085	29.8	13111	100
2025-3-27 20:21:38.391	WT901BLE68-01(48591DE3C19B)	-0.426	-0.864	0.222	-8.240	-20.874	-2.075	-76.10	18.29	-88.79	-47.824	-6.468	-3.136	-0.60226	0.29230	-0.54852	0.50085	29.8	13111	100
2025-3-27 20:21:38.451	WT901BLE68-01(48591DE3C19B)	-0.426	-0.834	0.222	-9.583	-22.705	2.136	-76.12	18.28	-88.60	-47.824	-6.468	-3.136	-0.60226	0.29230	-0.54852	0.50085	29.8	13111	100
2025-3-27 20:21:38.451	WT901BLE68-01(48591DE3C19B)	-0.414	-0.834	0.222	-9.583	-22.705	2.136	-76.13	18.28	-88.41	-47.824	-6.468	-3.136	-0.60226	0.29230	-0.54852	0.50085	29.8	13111	100
2025-3-27 20:21:38.451	WT901BLE68-01(48591DE3C19B)	-0.414	-0.824	0.219	-10.925	-24.597	5.798	-76.15	18.30	-88.20	-47.824	-6.468	-3.136	-0.60226	0.29230	-0.54852	0.50085	29.8	13111	100
2025-3-27 20:21:38.451	WT901BLE68-01(48591DE3C19B)	-0.409	-0.824	0.219	-10.925	-24.597	5.798	-76.17	18.34	-87.97	-47.824	-6.468	-3.136	-0.60226	0.29230	-0.54852	0.50085	29.8	13111	100
2025-3-27 20:21:38.480	WT901BLE68-01(48591DE3C19B)	-0.409	-0.820	0.218	-10.986	-26.123	8.606	-76.18	18.40	-87.73	-47.824	-6.468	-3.136	-0.62848	0.35181	-0.51270	0.46722	29.8	13111	100
2025-3-27 20:21:38.480	WT901BLE68-01(48591DE3C19B)	-0.395	-0.820	0.218	-10.986	-26.123	8.606	-76.19	18.46	-87.48	-47.824	-6.468	-3.136	-0.62848	0.35181	-0.51270	0.46722	29.8	13111	100
2025-3-27 20:21:38.480	WT901BLE68-01(48591DE3C19B)	-0.395	-0.819	0.217	-10.864	-27.893	10.559	-76.19	18.54	-87.21	-47.824	-6.468	-3.136	-0.62848	0.35181	-0.51270	0.46722	29.8	13111	100
2025-3-27 20:21:38.480	WT901BLE68-01(48591DE3C19B)	-0.381	-0.819	0.217	-10.864	-27.893	10.559	-76.19	18.61	-86.95	-47.824	-6.468	-3.136	-0.62848	0.35181	-0.51270	0.46722	29.8	13111	100
2025-3-27 20:21:38.510	WT901BLE68-01(48591DE3C19B)	-0.381	-0.832	0.218	-10.498	-28.076	11.963	-76.18	18.70	-86.68	-47.824	-6.468	-3.136	-0.62848	0.35181	-0.51270	0.46722	29.8	13111	100
2025-3-27 20:21:38.510	WT901BLE68-01(48591DE3C19B)	-0.369	-0.832	0.218	-10.498	-28.076	11.963	-76.18	18.78	-86.41	-47.824	-6.468	-3.136	-0.62848	0.35181	-0.51270	0.46722	29.8	13111	100
2025-3-27 20:21:38.510	WT901BLE68-01(48591DE3C19B)	-0.369	-0.854	0.223	-8.911	-26.062	13.000	-76.16	18.88	-86.16	-47.824	-6.468	-3.136	-0.62848	0.35181	-0.51270	0.46722	29.8	13111	100
2025-3-27 20:21:38.510	WT901BLE68-01(48591DE3C19B)	-0.351	-0.854	0.223	-8.911	-26.062	13.000	-76.15	18.98	-85.91	-47.824	-6.468	-3.136	-0.62848	0.35181	-0.51270	0.46722	29.8	13111	100
2025-3-27 20:21:38.570	WT901BLE68-01(48591DE3C19B)	-0.351	-0.861	0.222	-6.653	-21.790	13.916	-76.12	19.09	-85.71	-47.824	-6.468	-3.136	-0.62848	0.35181	-0.51270	0.46722	29.8	13111	100
2025-3-27 20:21:38.570	WT901BLE68-01(48591DE3C19B)	-0.336	-0.861	0.222	-6.653	-21.790	13.916	-76.10	19.20	-85.50	-47.824	-6.468	-3.136	-0.62848	0.35181	-0.51270	0.46722	29.8	13111	100
2025-3-27 20:21:38.571	WT901BLE68-01(48591DE3C19B)	-0.336	-0.862	0.217	-4.272	-15.686	14.832	-76.07	19.34	-85.36	-47.824	-6.468	-3.136	-0.62848	0.35181	-0.51270	0.46722	29.8	13111	100
2025-3-27 20:21:38.571	WT901BLE68-01(48591DE3C19B)	-0.333	-0.862	0.217	-4.272	-15.686	14.832	-76.04	19.47	-85.21	-47.824	-6.468	-3.136	-0.62848	0.35181	-0.51270	0.46722	29.8	13111	100
2025-3-27 20:21:38.603	WT901BLE68-01(48591DE3C19B)	-0.333	-0.866	0.218	-1.648	-9.521	15.869	-76.00	19.62	-85.13	-47.824	-6.468	-3.136	-0.62848	0.35181	-0.51270	0.46722	29.8	13111	100
2025-3-27 20:21:38.603	WT901BLE68-01(48591DE3C19B)	-0.333	-0.866	0.218	-1.648	-9.521	15.869	-75.97	19.77	-85.05	-47.824	-6.468	-3.136	-0.62848	0.35181	-0.51270	0.46722	29.8	13111	100
2025-3-27 20:21:38.603	WT901BLE68-01(48591DE3C19B)	-0.333	-0.855	0.223	0.732	-5.310	17.212	-75.93	19.94	-85.00	-47.824	-6.468	-3.136	-0.62848	0.35181	-0.51270	0.46722	29.8	13111	100
2025-3-27 20:21:38.603	WT901BLE68-01(48591DE3C19B)	-0.318	-0.855	0.223	0.732	-5.310	17.212	-75.88	20.10	-84.96	-47.824	-6.468	-3.136	-0.62848	0.35181	-0.51270	0.46722	29.8	13111	100
2025-3-27 20:21:38.632	WT901BLE68-01(48591DE3C19B)	-0.318	-0.828	0.222	2.319	-2.258	18.616	-75.83	20.29	-84.94	-47.824	-6.468	-3.136	-0.62848	0.35181	-0.51270	0.46722	29.8	13111	100
2025-3-27 20:21:38.632	WT901BLE68-01(48591DE3C19B)	-0.307	-0.828	0.222	2.319	-2.258	18.616	-75.78	20.48	-84.92	-47.824	-6.468	-3.136	-0.62848	0.35181	-0.51270	0.46722	29.8	13111	100
2025-3-27 20:21:38.632	WT901BLE68-01(48591DE3C19B)	-0.307	-0.796	0.215	3.967	0.427	19.775	-75.72	20.68	-84.93	-53.900	-5.880	-2.058	-0.62848	0.35181	-0.51270	0.46722	29.8	13111	100
2025-3-27 20:21:38.632	WT901BLE68-01(48591DE3C19B)	-0.296	-0.796	0.215	3.967	0.427	19.775	-75.66	20.88	-84.94	-53.900	-5.880	-2.058	-0.62848	0.35181	-0.51270	0.46722	29.8	13111	100
2025-3-27 20:21:38.690	WT901BLE68-01(48591DE3C19B)	-0.296	-0.782	0.212	5.127	2.075	21.118	-75.59	21.09	-84.96	-53.900	-5.880	-2.058	-0.62848	0.35181	-0.51270	0.46722	29.8	13111	100
2025-3-27 20:21:38.690	WT901BLE68-01(48591DE3C19B)	-0.292	-0.782	0.212	5.127	2.075	21.118	-75.53	21.30	-84.98	-53.900	-5.880	-2.058	-0.62848	0.35181	-0.51270	0.46722	29.8	13111	100
2025-3-27 20:21:38.690	WT901BLE68-01(48591DE3C19B)	-0.292	-0.773	0.209	6.165	3.052	22.095	-75.45	21.52	-85.01	-53.900	-5.880	-2.058	-0.62848	0.35181	-0.51270	0.46722	29.8	13111	100
2025-3-27 20:21:38.690	WT901BLE68-01(48591DE3C19B)	-0.289	-0.773	0.209	6.165	3.052	22.095	-75.38	21.74	-85.03	-53.900	-5.880	-2.058	-0.62848	0.35181	-0.51270	0.46722	29.8	13111	100
2025-3-27 20:21:38.720	WT901BLE68-01(48591DE3C19B)	-0.289	-0.759	0.202	7.019	3.296	22.339	-75.30	21.96	-85.06	-53.900	-5.880	-2.058	-0.62848	0.35181	-0.51270	0.46722	29.8	13111	100
2025-3-27 20:21:38.720	WT901BLE68-01(48591DE3C19B)	-0.277	-0.759	0.202	7.019	3.296	22.339	-75.22	22.18	-85.09	-53.900	-5.880	-2.058	-0.62848	0.35181	-0.51270	0.46722	29.8	13111	100
2025-3-27 20:21:38.720	WT901BLE68-01(48591DE3C19B)	-0.277	-0.748	0.196	6.531	2.502	21.729	-75.14	22.39	-85.11	-53.900	-5.880	-2.058	-0.62848	0.35181	-0.51270	0.46722	29.8	13111	100
2025-3-27 20:21:38.721	WT901BLE68-01(48591DE3C19B)	-0.268	-0.748	0.196	6.531	2.502	21.729	-75.06	22.59	-85.13	-53.900	-5.880	-2.058	-0.62848	0.35181	-0.51270	0.46722	29.8	13111	100
2025-3-27 20:21:38.749	WT901BLE68-01(48591DE3C19B)	-0.268	-0.758	0.187	5.981	3.479	19.714	-75.00	22.78	-85.17	-53.900	-5.880	-2.058	-0.62848	0.35181	-0.51270	0.46722	29.8	13111	100
2025-3-27 20:21:38.750	WT901BLE68-01(48591DE3C19B)	-0.282	-0.758	0.187	5.981	3.479	19.714	-74.94	22.97	-85.20	-53.900	-5.880	-2.058	-0.62848	0.35181	-0.51270	0.46722	29.8	13111	100
2025-3-27 20:21:38.750	WT901BLE68-01(48591DE3C19B)	-0.282	-0.809	0.189	5.066	4.761	15.381	-74.89	23.11	-85.26	-53.900	-5.880	-2.058	-0.62848	0.35181	-0.51270	0.46722	29.8	13111	100
2025-3-27 20:21:38.750	WT901BLE68-01(48591DE3C19B)	-0.305	-0.809	0.189	5.066	4.761	15.381	-74.85	23.25	-85.32	-53.900	-5.880	-2.058	-0.62848	0.35181	-0.51270	0.46722	29.8	13111	100
2025-3-27 20:21:38.812	WT901BLE68-01(48591DE3C19B)	-0.305	-0.878	0.201	4.211	4.578	8.362	-74.82	23.33	-85.40	-53.900	-5.880	-2.058	-0.62848	0.35181	-0.51270	0.46722	29.8	13111	100
2025-3-27 20:21:38.812	WT901BLE68-01(48591DE3C19B)	-0.337	-0.878	0.201	4.211	4.578	8.362	-74.80	23.40	-85.47	-53.900	-5.880	-2.058	-0.62848	0.35181	-0.51270	0.46722	29.8	13111	100
2025-3-27 20:21:38.812	WT901BLE68-01(48591DE3C19B)	-0.337	-0.944	0.229	3.784	2.258	-0.122	-74.78	23.38	-85.55	-53.900	-5.880	-2.058	-0.62848	0.35181	-0.51270	0.46722	29.8	13111	100
2025-3-27 20:21:38.813	WT901BLE68-01(48591DE3C19B)	-0.362	-0.944	0.229	3.784	2.258	-0.122	-74.76	23.37	-85.63	-53.900	-5.880	-2.058	-0.62848	0.35181	-0.51270	0.46722	29.8	13111	100
2025-3-27 20:21:38.842	WT901BLE68-01(48591DE3C19B)	-0.362	-0.976	0.257	5.005	-1.099	-9.338	-74.73	23.25	-85.69	-53.900	-5.880	-2.058	-0.62848	0.35181	-0.51270	0.46722	29.8	13111	100
2025-3-27 20:21:38.842	WT901BLE68-01(48591DE3C19B)	-0.357	-0.976	0.257	5.005	-1.099	-9.338	-74.69	23.14	-85.76	-53.900	-5.880	-2.058	-0.62848	0.35181	-0.51270	0.46722	29.8	13111	100
2025-3-27 20:21:38.842	WT901BLE68-01(48591DE3C19B)	-0.357	-0.959	0.266	7.324	-1.099	-17.090	-74.64	22.96	-85.85	-53.900	-5.880	-2.058	-0.65247	0.32742	-0.52014	0.44321	29.8	13111	100
2025-3-27 20:21:38.842	WT901BLE68-01(48591DE3C19B)	-0.331	-0.959	0.266	7.324	-1.099	-17.090	-74.59	22.77	-85.94	-53.900	-5.880	-2.058	-0.65247	0.32742	-0.52014	0.44321	29.8	13111	100
2025-3-27 20:21:38.901	WT901BLE68-01(48591DE3C19B)	-0.331	-0.923	0.255	10.925	2.686	-22.217	-74.53	22.54	-86.08	-53.900	-5.880	-2.058	-0.65247	0.32742	-0.52014	0.44321	29.8	13111	100
2025-3-27 20:21:38.901	WT901BLE68-01(48591DE3C19B)	-0.312	-0.923	0.255	10.925	2.686	-22.217	-74.45	22.32	-86.22	-53.900	-5.880	-2.058	-0.65247	0.32742	-0.52014	0.44321	29.8	13111	100
2025-3-27 20:21:38.901	WT901BLE68-01(48591DE3C19B)	-0.312	-0.857	0.222	14.465	12.146	-24.475	-74.39	22.10	-86.46	-53.900	-5.880	-2.058	-0.65247	0.32742	-0.52014	0.44321	29.8	13111	100
2025-3-27 20:21:38.901	WT901BLE68-01(48591DE3C19B)	-0.314	-0.857	0.222	14.465	12.146	-24.475	-74.33	21.88	-86.71	-53.900	-5.880	-2.058	-0.65247	0.32742	-0.52014	0.44321	29.8	13111	100
2025-3-27 20:21:38.930	WT901BLE68-01(48591DE3C19B)	-0.358	-0.799	0.198	16.357	22.339	-25.330	-74.29	21.69	-87.06	-53.900	-5.880	-2.058	-0.65247	0.32742	-0.52014	0.44321	29.8	13111	100
2025-3-27 20:21:38.930	WT901BLE68-01(48591DE3C19B)	-0.358	-0.765	0.197	14.832	26.794	-25.757	-74.26	21.50	-87.42	-53.900	-5.880	-2.058	-0.65247	0.32742	-0.52014	0.44321	29.8	13111	100
2025-3-27 20:21:38.930	WT901BLE68-01(48591DE3C19B)	-0.405	-0.765	0.197	14.832	26.794	-25.757	-74.25	21.32	-87.81	-53.900	-5.880	-2.058	-0.65247	0.32742	-0.52014	0.44321	29.8	13111	100
2025-3-27 20:21:38.931	WT901BLE68-01(48591DE3C19B)	-0.405	-0.806	0.218	10.315	25.452	-26.794	-74.26	21.13	-88.20	-53.900	-5.880	-2.058	-0.65247	0.32742	-0.52014	0.44321	29.8	13111	100
2025-3-27 20:21:38.960	WT901BLE68-01(48591DE3C19B)	-0.453	-0.806	0.218	10.315	25.452	-26.794	-74.28	20.95	-88.57	-53.900	-5.880	-2.058	-0.65247	0.32742	-0.52014	0.44321	29.8	13111	100
2025-3-27 20:21:38.961	WT901BLE68-01(48591DE3C19B)	-0.453	-0.843	0.261	10.559	26.245	-26.428	-74.31	20.76	-88.95	-53.900	-5.880	-2.058	-0.65247	0.32742	-0.52014	0.44321	29.8	13111	100
2025-3-27 20:21:38.961	WT901BLE68-01(48591DE3C19B)	-0.467	-0.843	0.261	10.559	26.245	-26.428	-74.33	20.59	-89.32	-53.900	-5.880	-2.058	-0.65247	0.32742	-0.52014	0.44321	29.8	13111	100
2025-3-27 20:21:38.961	WT901BLE68-01(48591DE3C19B)	-0.467	-0.797	0.285	10.864	27.649	-22.644	-74.34	20.45	-89.70	-53.900	-5.880	-2.058	-0.65247	0.32742	-0.52014	0.44321	29.8	13111	100
2025-3-27 20:21:39.23	WT901BLE68-01(48591DE3C19B)	-0.434	-0.797	0.285	10.864	27.649	-22.644	-74.36	20.32	-90.07	-53.900	-5.880	-2.058	-0.65247	0.32742	-0.52014	0.44321	29.8	13111	100
2025-3-27 20:21:39.23	WT901BLE68-01(48591DE3C19B)	-0.434	-0.703	0.281	9.094	31.799	-14.709	-74.38	20.24	-90.46	-53.900	-5.880	-2.058	-0.65247	0.32742	-0.52014	0.44321	29.8	13111	100
2025-3-27 20:21:39.23	WT901BLE68-01(48591DE3C19B)	-0.458	-0.703	0.281	9.094	31.799	-14.709	-74.40	20.21	-90.85	-53.900	-5.880	-2.058	-0.65247	0.32742	-0.52014	0.44321	29.8	13111	100
2025-3-27 20:21:39.23	WT901BLE68-01(48591DE3C19B)	-0.458	-0.665	0.282	2.686	33.203	-6.775	-74.47	20.22	-91.24	-53.900	-5.880	-2.058	-0.65247	0.32742	-0.52014	0.44321	29.8	13111	100
2025-3-27 20:21:39.52	WT901BLE68-01(48591DE3C19B)	-0.501	-0.665	0.282	2.686	33.203	-6.775	-74.55	20.28	-91.61	-53.900	-5.880	-2.058	-0.65247	0.32742	-0.52014	0.44321	29.8	13111	100
2025-3-27 20:21:39.53	WT901BLE68-01(48591DE3C19B)	-0.501	-0.770	0.288	-10.010	20.935	-1.953	-74.67	20.34	-91.92	-53.900	-5.880	-2.058	-0.65247	0.32742	-0.52014	0.44321	29.8	13111	100
2025-3-27 20:21:39.53	WT901BLE68-01(48591DE3C19B)	-0.541	-0.770	0.288	-10.010	20.935	-1.953	-74.83	20.42	-92.16	-53.900	-5.880	-2.058	-0.65247	0.32742	-0.52014	0.44321	29.8	13111	100
2025-3-27 20:21:39.53	WT901BLE68-01(48591DE3C19B)	-0.541	-1.047	0.346	-20.386	5.432	-1.831	-75.01	20.47	-92.32	-45.178	-10.388	0.392	-0.65247	0.32742	-0.52014	0.44321	29.8	13111	100
2025-3-27 20:21:39.83	WT901BLE68-01(48591DE3C19B)	-0.625	-1.047	0.346	-20.386	5.432	-1.831	-75.21	20.51	-92.40	-45.178	-10.388	0.392	-0.65247	0.32742	-0.52014	0.44321	29.8	13111	100
2025-3-27 20:21:39.83	WT901BLE68-01(48591DE3C19B)	-2.500	-1.284	0.442	-16.479	-11.292	-1.282	-75.37	20.52	-92.38	-45.178	-10.388	0.392	-0.65247	0.32742	-0.52014	0.44321	29.8	13111	100
2025-3-27 20:21:39.83	WT901BLE68-01(48591DE3C19B)	-0.561	-5.138	1.771	-16.479	-11.292	-1.282	-75.47	20.52	-92.28	-45.178	-10.388	0.392	-0.65247	0.32742	-0.52014	0.44321	29.8	13111	100
2025-3-27 20:21:39.83	WT901BLE68-01(48591DE3C19B)	-0.561	-1.213	0.454	-9.094	-23.438	5.737	-75.50	20.53	-92.11	-45.178	-10.388	0.392	-0.65247	0.32742	-0.52014	0.44321	29.8	13111	100
2025-3-27 20:21:39.141	WT901BLE68-01(48591DE3C19B)	-0.417	-1.213	0.454	-9.094	-23.438	5.737	-75.48	20.55	-91.86	-45.178	-10.388	0.392	-0.65247	0.32742	-0.52014	0.44321	29.8	13111	100
2025-3-27 20:21:39.141	WT901BLE68-01(48591DE3C19B)	-0.417	-1.014	0.385	-4.883	-19.775	17.944	-75.43	20.64	-91.63	-45.178	-10.388	0.392	-0.65247	0.32742	-0.52014	0.44321	29.8	13111	100
2025-3-27 20:21:39.141	WT901BLE68-01(48591DE3C19B)	-0.358	-1.014	0.385	-4.883	-19.775	17.944	-75.36	20.79	-91.39	-45.178	-10.388	0.392	-0.65247	0.32742	-0.52014	0.44321	29.8	13111	100
2025-3-27 20:21:39.141	WT901BLE68-01(48591DE3C19B)	-0.358	-0.902	0.333	-1.465	-7.568	30.945	-75.29	21.01	-91.20	-45.178	-10.388	0.392	-0.65247	0.32742	-0.52014	0.44321	29.8	13111	100
2025-3-27 20:21:39.170	WT901BLE68-01(48591DE3C19B)	-0.302	-0.902	0.333	-1.465	-7.568	30.945	-75.22	21.31	-91.05	-45.178	-10.388	0.392	-0.65247	0.32742	-0.52014	0.44321	29.8	13111	100
2025-3-27 20:21:39.170	WT901BLE68-01(48591DE3C19B)	-0.302	-0.737	0.312	-0.549	-0.244	39.917	-75.15	21.66	-90.93	-45.178	-10.388	0.392	-0.65247	0.32742	-0.52014	0.44321	29.8	13111	100
2025-3-27 20:21:39.170	WT901BLE68-01(48591DE3C19B)	-0.289	-0.737	0.312	-0.549	-0.244	39.917	-75.09	22.06	-90.85	-45.178	-10.388	0.392	-0.65247	0.32742	-0.52014	0.44321	29.8	13111	100
2025-3-27 20:21:39.170	WT901BLE68-01(48591DE3C19B)	-0.289	-0.646	0.305	-4.822	2.319	43.823	-75.04	22.47	-90.76	-45.178	-10.388	0.392	-0.65247	0.32742	-0.52014	0.44321	29.8	13111	100
2025-3-27 20:21:39.201	WT901BLE68-01(48591DE3C19B)	-0.326	-0.646	0.305	-4.822	2.319	43.823	-75.02	22.91	-90.69	-45.178	-10.388	0.392	-0.65247	0.32742	-0.52014	0.44321	29.8	13111	100
2025-3-27 20:21:39.201	WT901BLE68-01(48591DE3C19B)	-0.326	-0.668	0.297	-6.287	5.493	40.649	-75.01	23.32	-90.63	-45.178	-10.388	0.392	-0.65247	0.32742	-0.52014	0.44321	29.8	13111	100
2025-3-27 20:21:39.202	WT901BLE68-01(48591DE3C19B)	-0.385	-0.668	0.297	-6.287	5.493	40.649	-75.02	23.73	-90.60	-45.178	-10.388	0.392	-0.65247	0.32742	-0.52014	0.44321	29.8	13111	100
2025-3-27 20:21:39.202	WT901BLE68-01(48591DE3C19B)	-0.385	-0.731	0.273	-4.395	3.357	32.776	-75.01	24.09	-90.57	-45.178	-10.388	0.392	-0.65247	0.32742	-0.52014	0.44321	29.8	13111	100
2025-3-27 20:21:39.261	WT901BLE68-01(48591DE3C19B)	-0.404	-0.731	0.273	-4.395	3.357	32.776	-75.00	24.42	-90.53	-45.178	-10.388	0.392	-0.65247	0.32742	-0.52014	0.44321	29.8	13111	100
2025-3-27 20:21:39.261	WT901BLE68-01(48591DE3C19B)	-0.404	-0.731	0.233	-0.183	-0.122	21.179	-74.97	24.68	-90.50	-45.178	-10.388	0.392	-0.65247	0.32742	-0.52014	0.44321	29.8	13111	100
2025-3-27 20:21:39.261	WT901BLE68-01(48591DE3C19B)	-0.392	-0.731	0.233	-0.183	-0.122	21.179	-74.91	24.88	-90.46	-45.178	-10.388	0.392	-0.65247	0.32742	-0.52014	0.44321	29.8	13111	100
2025-3-27 20:21:39.261	WT901BLE68-01(48591DE3C19B)	-0.392	-0.691	0.188	2.625	-0.793	8.240	-74.84	25.02	-90.44	-45.178	-10.388	0.392	-0.65247	0.32742	-0.52014	0.44321	29.8	13111	100
2025-3-27 20:21:39.290	WT901BLE68-01(48591DE3C19B)	-0.383	-0.691	0.188	2.625	-0.793	8.240	-74.78	25.09	-90.43	-45.178	-10.388	0.392	-0.64011	0.29462	-0.54227	0.45746	29.8	13111	100
2025-3-27 20:21:39.290	WT901BLE68-01(48591DE3C19B)	-0.383	-0.666	0.164	2.563	-1.160	-5.310	-74.72	25.10	-90.44	-45.178	-10.388	0.392	-0.64011	0.29462	-0.54227	0.45746	29.8	13111	100
2025-3-27 20:21:39.291	WT901BLE68-01(48591DE3C19B)	-0.396	-0.666	0.164	2.563	-1.160	-5.310	-74.67	25.05	-90.47	-45.178	-10.388	0.392	-0.64011	0.29462	-0.54227	0.45746	29.8	13111	100
2025-3-27 20:21:39.291	WT901BLE68-01(48591DE3C19B)	-0.396	-0.668	0.196	2.441	1.160	-16.418	-74.64	24.95	-90.52	-45.178	-10.388	0.392	-0.64011	0.29462	-0.54227	0.45746	29.8	13111	100
2025-3-27 20:21:39.320	WT901BLE68-01(48591DE3C19B)	-0.414	-0.668	0.196	2.441	1.160	-16.418	-74.62	24.80	-90.60	-45.178	-10.388	0.392	-0.64011	0.29462	-0.54227	0.45746	29.8	13111	100
2025-3-27 20:21:39.320	WT901BLE68-01(48591DE3C19B)	-0.414	-0.611	0.267	4.700	3.967	-19.897	-74.60	24.64	-90.70	-45.178	-10.388	0.392	-0.64011	0.29462	-0.54227	0.45746	29.8	13111	100
2025-3-27 20:21:39.321	WT901BLE68-01(48591DE3C19B)	-0.381	-0.611	0.267	4.700	3.967	-19.897	-74.58	24.48	-90.82	-45.178	-10.388	0.392	-0.64011	0.29462	-0.54227	0.45746	29.8	13111	100
2025-3-27 20:21:39.321	WT901BLE68-01(48591DE3C19B)	-0.381	-0.460	0.286	6.042	3.723	-15.259	-74.54	24.33	-90.94	-45.178	-10.388	0.392	-0.64011	0.29462	-0.54227	0.45746	29.8	13111	100
2025-3-27 20:21:39.380	WT901BLE68-01(48591DE3C19B)	-0.318	-0.460	0.286	6.042	3.723	-15.259	-74.48	24.22	-91.05	-45.178	-10.388	0.392	-0.64011	0.29462	-0.54227	0.45746	29.8	13111	100
2025-3-27 20:21:39.380	WT901BLE68-01(48591DE3C19B)	-0.318	-0.364	0.240	3.174	5.859	-5.676	-74.43	24.16	-91.16	-45.178	-10.388	0.392	-0.64011	0.29462	-0.54227	0.45746	29.8	13111	100
2025-3-27 20:21:39.380	WT901BLE68-01(48591DE3C19B)	-0.302	-0.364	0.240	3.174	5.859	-5.676	-74.39	24.15	-91.27	-45.178	-10.388	0.392	-0.64011	0.29462	-0.54227	0.45746	29.8	13111	100
2025-3-27 20:21:39.380	WT901BLE68-01(48591DE3C19B)	-0.302	-0.394	0.155	-5.005	5.005	2.563	-74.39	24.18	-91.37	-45.178	-10.388	0.392	-0.64011	0.29462	-0.54227	0.45746	29.8	13111	100
2025-3-27 20:21:39.411	WT901BLE68-01(48591DE3C19B)	-0.339	-0.394	0.155	-5.005	5.005	2.563	-74.42	24.25	-91.44	-45.178	-10.388	0.392	-0.64011	0.29462	-0.54227	0.45746	29.8	13111	100
2025-3-27 20:21:39.411	WT901BLE68-01(48591DE3C19B)	-0.339	-0.631	0.077	-20.325	-6.287	5.554	-74.55	24.32	-91.39	-45.178	-10.388	0.392	-0.64011	0.29462	-0.54227	0.45746	29.8	13111	100
2025-3-27 20:21:39.411	WT901BLE68-01(48591DE3C19B)	-0.411	-0.631	0.077	-20.325	-6.287	5.554	-74.70	24.38	-91.33	-45.178	-10.388	0.392	-0.64011	0.29462	-0.54227	0.45746	29.8	13111	100
2025-3-27 20:21:39.411	WT901BLE68-01(48591DE3C19B)	-0.411	-1.033	0.066	-33.813	-23.743	2.136	-74.91	24.37	-91.08	-45.178	-10.388	0.392	-0.64011	0.29462	-0.54227	0.45746	29.8	13111	100
2025-3-27 20:21:39.440	WT901BLE68-01(48591DE3C19B)	-0.548	-1.033	0.066	-33.813	-23.743	2.136	-75.14	24.36	-90.83	-45.178	-10.388	0.392	-0.64011	0.29462	-0.54227	0.45746	29.8	13111	100
2025-3-27 20:21:39.440	WT901BLE68-01(48591DE3C19B)	-0.548	-1.580	0.145	-36.682	-52.917	-7.324	-75.29	24.16	-90.30	-45.178	-10.388	0.392	-0.64011	0.29462	-0.54227	0.45746	29.8	13111	100
2025-3-27 20:21:39.440	WT901BLE68-01(48591DE3C19B)	-0.568	-1.580	0.145	-36.682	-52.917	-7.324	-75.45	23.97	-89.75	-45.178	-10.388	0.392	-0.64011	0.29462	-0.54227	0.45746	29.8	13111	100
2025-3-27 20:21:39.440	WT901BLE68-01(48591DE3C19B)	-0.568	-2.105	0.220	-24.902	-76.782	-21.179	-75.42	23.57	-88.99	-45.178	-10.388	0.392	-0.64011	0.29462	-0.54227	0.45746	29.8	13111	100
2025-3-27 20:21:39.500	WT901BLE68-01(48591DE3C19B)	-0.397	-2.105	0.220	-24.902	-76.782	-21.179	-75.39	23.16	-88.25	-45.178	-10.388	0.392	-0.64011	0.29462	-0.54227	0.45746	29.8	13111	100
2025-3-27 20:21:39.501	WT901BLE68-01(48591DE3C19B)	-0.397	-2.052	0.243	3.967	-64.758	-20.142	-75.14	22.79	-87.63	-40.474	-18.032	3.920	-0.64011	0.29462	-0.54227	0.45746	29.8	13111	100
2025-3-27 20:21:39.501	WT901BLE68-01(48591DE3C19B)	-0.190	-2.052	0.243	3.967	-64.758	-20.142	-74.90	22.41	-87.01	-40.474	-18.032	3.920	-0.64011	0.29462	-0.54227	0.45746	29.8	13111	100
2025-3-27 20:21:39.501	WT901BLE68-01(48591DE3C19B)	-0.190	-1.456	0.211	22.217	-20.447	-12.085	-74.65	22.21	-86.84	-40.474	-18.032	3.920	-0.64011	0.29462	-0.54227	0.45746	29.8	13111	100
2025-3-27 20:21:39.561	WT901BLE68-01(48591DE3C19B)	-0.047	-1.456	0.211	22.217	-20.447	-12.085	-74.40	22.01	-86.68	-40.474	-18.032	3.920	-0.64011	0.29462	-0.54227	0.45746	29.8	13111	100
2025-3-27 20:21:39.561	WT901BLE68-01(48591DE3C19B)	-0.047	-1.104	0.162	20.020	32.776	-2.014	-74.37	22.04	-87.03	-40.474	-18.032	3.920	-0.64011	0.29462	-0.54227	0.45746	29.8	13111	100
2025-3-27 20:21:39.561	WT901BLE68-01(48591DE3C19B)	-0.067	-1.104	0.162	20.020	32.776	-2.014	-74.35	22.06	-87.39	-40.474	-18.032	3.920	-0.64011	0.29462	-0.54227	0.45746	29.8	13111	100
2025-3-27 20:21:39.561	WT901BLE68-01(48591DE3C19B)	-0.067	-0.926	0.181	15.808	68.604	2.991	-74.50	22.23	-88.10	-40.474	-18.032	3.920	-0.64011	0.29462	-0.54227	0.45746	29.8	13111	100
2025-3-27 20:21:39.562	WT901BLE68-01(48591DE3C19B)	-0.137	-0.926	0.181	15.808	68.604	2.991	-74.65	22.38	-88.81	-40.474	-18.032	3.920	-0.64011	0.29462	-0.54227	0.45746	29.8	13111	100
2025-3-27 20:21:39.562	WT901BLE68-01(48591DE3C19B)	-0.137	-0.887	0.220	3.418	75.745	-0.183	-74.95	22.52	-89.59	-40.474	-18.032	3.920	-0.64011	0.29462	-0.54227	0.45746	29.8	13111	100
2025-3-27 20:21:39.562	WT901BLE68-01(48591DE3C19B)	-0.188	-0.887	0.220	3.418	75.745	-0.183	-75.25	22.65	-90.37	-40.474	-18.032	3.920	-0.64011	0.29462	-0.54227	0.45746	29.8	13111	100
2025-3-27 20:21:39.562	WT901BLE68-01(48591DE3C19B)	-0.188	-0.778	0.264	7.446	71.228	-7.385	-75.50	22.69	-91.13	-40.474	-18.032	3.920	-0.64011	0.29462	-0.54227	0.45746	29.8	13111	100
2025-3-27 20:21:39.621	WT901BLE68-01(48591DE3C19B)	-0.188	-0.778	0.264	7.446	71.228	-7.385	-75.74	22.74	-91.87	-40.474	-18.032	3.920	-0.64011	0.29462	-0.54227	0.45746	29.8	13111	100
2025-3-27 20:21:39.621	WT901BLE68-01(48591DE3C19B)	-0.188	-0.485	0.235	14.038	66.589	-7.813	-75.89	22.76	-92.57	-40.474	-18.032	3.920	-0.64011	0.29462	-0.54227	0.45746	29.8	13111	100
2025-3-27 20:21:39.621	WT901BLE68-01(48591DE3C19B)	-0.220	-0.485	0.235	14.038	66.589	-7.813	-76.04	22.79	-93.26	-40.474	-18.032	3.920	-0.64011	0.29462	-0.54227	0.45746	29.8	13111	100
2025-3-27 20:21:39.621	WT901BLE68-01(48591DE3C19B)	-0.220	-0.309	0.166	11.780	62.866	-5.676	-76.18	22.82	-93.91	-40.474	-18.032	3.920	-0.64011	0.29462	-0.54227	0.45746	29.8	13111	100
2025-3-27 20:21:39.680	WT901BLE68-01(48591DE3C19B)	-0.277	-0.309	0.166	11.780	62.866	-5.676	-76.33	22.87	-94.55	-40.474	-18.032	3.920	-0.64011	0.29462	-0.54227	0.45746	29.8	13111	100
2025-3-27 20:21:39.680	WT901BLE68-01(48591DE3C19B)	-0.277	-0.321	0.131	13.428	46.631	-2.136	-76.38	22.92	-95.00	-40.474	-18.032	3.920	-0.64011	0.29462	-0.54227	0.45746	29.8	13111	100
2025-3-27 20:21:39.681	WT901BLE68-01(48591DE3C19B)	-0.280	-0.321	0.131	13.428	46.631	-2.136	-76.44	22.97	-95.45	-40.474	-18.032	3.920	-0.64011	0.29462	-0.54227	0.45746	29.8	13111	100
2025-3-27 20:21:39.681	WT901BLE68-01(48591DE3C19B)	-0.280	-0.322	0.183	19.470	24.963	5.371	-76.33	23.05	-95.66	-40.474	-18.032	3.920	-0.60864	0.29004	-0.55420	0.48804	29.8	13111	100
2025-3-27 20:21:39.681	WT901BLE68-01(48591DE3C19B)	-0.280	-0.322	0.183	19.470	24.963	5.371	-76.22	23.14	-95.86	-40.474	-18.032	3.920	-0.60864	0.29004	-0.55420	0.48804	29.8	13111	100
2025-3-27 20:21:39.681	WT901BLE68-01(48591DE3C19B)	-0.280	-0.309	0.208	24.475	10.193	14.893	-75.99	23.29	-95.89	-40.474	-18.032	3.920	-0.60864	0.29004	-0.55420	0.48804	29.8	13111	100
2025-3-27 20:21:39.681	WT901BLE68-01(48591DE3C19B)	-0.265	-0.309	0.208	24.475	10.193	14.893	-75.75	23.44	-95.92	-40.474	-18.032	3.920	-0.60864	0.29004	-0.55420	0.48804	29.8	13111	100
2025-3-27 20:21:39.681	WT901BLE68-01(48591DE3C19B)	-0.265	-0.353	0.190	23.743	7.935	22.949	-75.49	23.68	-95.91	-40.474	-18.032	3.920	-0.60864	0.29004	-0.55420	0.48804	29.8	13111	100
2025-3-27 20:21:39.739	WT901BLE68-01(48591DE3C19B)	-0.301	-0.353	0.190	23.743	7.935	22.949	-75.24	23.92	-95.90	-40.474	-18.032	3.920	-0.60864	0.29004	-0.55420	0.48804	29.8	13111	100
2025-3-27 20:21:39.740	WT901BLE68-01(48591DE3C19B)	-0.301	-0.542	0.143	18.860	13.428	28.809	-75.05	24.23	-95.93	-40.474	-18.032	3.920	-0.60864	0.29004	-0.55420	0.48804	29.8	13111	100
2025-3-27 20:21:39.740	WT901BLE68-01(48591DE3C19B)	-0.354	-0.542	0.143	18.860	13.428	28.809	-74.87	24.54	-95.96	-40.474	-18.032	3.920	-0.60864	0.29004	-0.55420	0.48804	29.8	13111	100
2025-3-27 20:21:39.740	WT901BLE68-01(48591DE3C19B)	-0.354	-0.798	0.104	9.521	23.071	27.405	-74.83	24.87	-96.08	-40.474	-18.032	3.920	-0.60864	0.29004	-0.55420	0.48804	29.8	13111	100
2025-3-27 20:21:39.769	WT901BLE68-01(48591DE3C19B)	-0.458	-0.798	0.104	9.521	23.071	27.405	-74.80	25.19	-96.20	-40.474	-18.032	3.920	-0.60864	0.29004	-0.55420	0.48804	29.8	13111	100
2025-3-27 20:21:39.770	WT901BLE68-01(48591DE3C19B)	-0.458	-1.200	0.136	-4.211	25.330	11.414	-74.95	25.35	-96.37	-40.474	-18.032	3.920	-0.60864	0.29004	-0.55420	0.48804	29.8	13111	100
2025-3-27 20:21:39.770	WT901BLE68-01(48591DE3C19B)	-0.585	-1.200	0.136	-4.211	25.330	11.414	-75.10	25.52	-96.52	-40.474	-18.032	3.920	-0.60864	0.29004	-0.55420	0.48804	29.8	13111	100
2025-3-27 20:21:39.770	WT901BLE68-01(48591DE3C19B)	-0.585	-1.606	0.263	0.061	23.682	-12.268	-75.23	25.44	-96.72	-40.474	-18.032	3.920	-0.60864	0.29004	-0.55420	0.48804	29.8	13111	100
2025-3-27 20:21:39.800	WT901BLE68-01(48591DE3C19B)	-0.703	-1.606	0.263	0.061	23.682	-12.268	-75.37	25.36	-96.90	-40.474	-18.032	3.920	-0.60864	0.29004	-0.55420	0.48804	29.8	13111	100
2025-3-27 20:21:39.800	WT901BLE68-01(48591DE3C19B)	-0.703	-1.774	0.486	-0.244	23.315	-48.157	-75.55	24.93	-97.19	-40.474	-18.032	3.920	-0.60864	0.29004	-0.55420	0.48804	29.8	13111	100
2025-3-27 20:21:39.800	WT901BLE68-01(48591DE3C19B)	-0.824	-1.774	0.486	-0.244	23.315	-48.157	-75.72	24.51	-97.47	-40.474	-18.032	3.920	-0.60864	0.29004	-0.55420	0.48804	29.8	13111	100
2025-3-27 20:21:39.800	WT901BLE68-01(48591DE3C19B)	-0.824	-1.642	0.590	9.583	43.396	-62.988	-75.88	23.99	-98.00	-40.474	-18.032	3.920	-0.60864	0.29004	-0.55420	0.48804	29.8	13111	100
2025-3-27 20:21:39.860	WT901BLE68-01(48591DE3C19B)	-0.829	-1.642	0.590	9.583	43.396	-62.988	-76.04	23.48	-98.53	-40.474	-18.032	3.920	-0.60864	0.29004	-0.55420	0.48804	29.8	13111	100
2025-3-27 20:21:39.860	WT901BLE68-01(48591DE3C19B)	-0.772	-1.341	0.547	13.428	65.674	-65.613	-76.23	23.00	-99.29	-40.474	-18.032	3.920	-0.60864	0.29004	-0.55420	0.48804	29.8	13111	100
2025-3-27 20:21:39.860	WT901BLE68-01(48591DE3C19B)	-0.772	-1.156	0.416	10.132	60.669	-58.594	-76.42	22.55	-100.00	-40.474	-18.032	3.920	-0.60864	0.29004	-0.55420	0.48804	29.8	13111	100
2025-3-27 20:21:39.860	WT901BLE68-01(48591DE3C19B)	-0.641	-1.156	0.416	10.132	60.669	-58.594	-76.60	22.15	-100.67	-40.474	-18.032	3.920	-0.60864	0.29004	-0.55420	0.48804	29.8	13111	100
2025-3-27 20:21:39.890	WT901BLE68-01(48591DE3C19B)	-0.641	-0.912	0.314	4.822	27.344	-43.701	-76.73	21.78	-101.13	-31.850	-26.852	11.074	-0.60864	0.29004	-0.55420	0.48804	29.8	13111	100
2025-3-27 20:21:39.890	WT901BLE68-01(48591DE3C19B)	-0.571	-0.912	0.314	4.822	27.344	-43.701	-76.82	21.45	-101.40	-31.850	-26.852	11.074	-0.60864	0.29004	-0.55420	0.48804	29.8	13111	100
2025-3-27 20:21:39.890	WT901BLE68-01(48591DE3C19B)	-0.571	-0.696	0.257	-10.132	-18.860	-25.818	-76.88	21.16	-101.40	-31.850	-26.852	11.074	-0.60864	0.29004	-0.55420	0.48804	29.8	13111	100
2025-3-27 20:21:39.890	WT901BLE68-01(48591DE3C19B)	-0.477	-0.696	0.257	-10.132	-18.860	-25.818	-76.92	20.91	-101.13	-31.850	-26.852	11.074	-0.60864	0.29004	-0.55420	0.48804	29.8	13111	100
2025-3-27 20:21:39.919	WT901BLE68-01(48591DE3C19B)	-0.477	-0.631	0.205	-28.442	-52.734	-13.000	-76.98	20.69	-100.67	-31.850	-26.852	11.074	-0.60864	0.29004	-0.55420	0.48804	29.8	13111	100
2025-3-27 20:21:39.920	WT901BLE68-01(48591DE3C19B)	-0.383	-0.631	0.205	-28.442	-52.734	-13.000	-77.06	20.50	-100.03	-31.850	-26.852	11.074	-0.60864	0.29004	-0.55420	0.48804	29.8	13111	100
2025-3-27 20:21:39.920	WT901BLE68-01(48591DE3C19B)	-0.383	-0.652	0.202	-28.931	-57.190	-2.075	-77.14	20.36	-99.34	-31.850	-26.852	11.074	-0.60864	0.29004	-0.55420	0.48804	29.8	13111	100
2025-3-27 20:21:39.920	WT901BLE68-01(48591DE3C19B)	-0.345	-0.652	0.202	-28.931	-57.190	-2.075	-77.21	20.28	-98.64	-31.850	-26.852	11.074	-0.60864	0.29004	-0.55420	0.48804	29.8	13111	100
2025-3-27 20:21:39.980	WT901BLE68-01(48591DE3C19B)	-0.345	-0.515	0.252	-17.700	-40.955	2.441	-77.25	20.23	-98.01	-31.850	-26.852	11.074	-0.60864	0.29004	-0.55420	0.48804	29.8	13111	100
2025-3-27 20:21:39.980	WT901BLE68-01(48591DE3C19B)	-0.302	-0.515	0.252	-17.700	-40.955	2.441	-77.26	20.22	-97.48	-31.850	-26.852	11.074	-0.60864	0.29004	-0.55420	0.48804	29.8	13111	100
2025-3-27 20:21:39.980	WT901BLE68-01(48591DE3C19B)	-0.302	-0.292	0.270	-10.437	-21.179	7.996	-77.26	20.26	-97.06	-31.850	-26.852	11.074	-0.60864	0.29004	-0.55420	0.48804	29.8	13111	100
2025-3-27 20:21:39.980	WT901BLE68-01(48591DE3C19B)	-0.239	-0.292	0.270	-10.437	-21.179	7.996	-77.24	20.36	-96.75	-31.850	-26.852	11.074	-0.60864	0.29004	-0.55420	0.48804	29.8	13111	100
2025-3-27 20:21:40.9	WT901BLE68-01(48591DE3C19B)	-0.239	-0.112	0.247	-7.202	-6.775	20.508	-77.22	20.53	-96.52	-31.850	-26.852	11.074	-0.60864	0.29004	-0.55420	0.48804	29.8	13111	100
2025-3-27 20:21:40.10	WT901BLE68-01(48591DE3C19B)	-0.206	-0.112	0.247	-7.202	-6.775	20.508	-77.20	20.78	-96.37	-31.850	-26.852	11.074	-0.60864	0.29004	-0.55420	0.48804	29.8	13111	100
2025-3-27 20:21:40.10	WT901BLE68-01(48591DE3C19B)	-0.206	-0.104	0.179	-12.695	0.122	33.081	-77.20	21.10	-96.27	-31.850	-26.852	11.074	-0.60864	0.29004	-0.55420	0.48804	29.8	13111	100
2025-3-27 20:21:40.10	WT901BLE68-01(48591DE3C19B)	-0.237	-0.104	0.179	-12.695	0.122	33.081	-77.23	21.49	-96.21	-31.850	-26.852	11.074	-0.60864	0.29004	-0.55420	0.48804	29.8	13111	100
2025-3-27 20:21:40.41	WT901BLE68-01(48591DE3C19B)	-0.237	-0.272	0.137	-20.752	-1.587	36.926	-77.28	21.90	-96.15	-31.850	-26.852	11.074	-0.60864	0.29004	-0.55420	0.48804	29.8	13111	100
2025-3-27 20:21:40.41	WT901BLE68-01(48591DE3C19B)	-0.340	-0.272	0.137	-20.752	-1.587	36.926	-77.38	22.32	-96.08	-31.850	-26.852	11.074	-0.60864	0.29004	-0.55420	0.48804	29.8	13111	100
2025-3-27 20:21:40.41	WT901BLE68-01(48591DE3C19B)	-0.340	-0.566	0.110	-34.668	-15.991	33.752	-77.50	22.71	-95.94	-31.850	-26.852	11.074	-0.60864	0.29004	-0.55420	0.48804	29.8	13111	100
2025-3-27 20:21:40.41	WT901BLE68-01(48591DE3C19B)	-0.436	-0.566	0.110	-34.668	-15.991	33.752	-77.69	23.07	-95.71	-31.850	-26.852	11.074	-0.60864	0.29004	-0.55420	0.48804	29.8	13111	100
2025-3-27 20:21:40.100	WT901BLE68-01(48591DE3C19B)	-0.436	-1.081	0.115	-53.528	-46.387	22.461	-77.92	23.33	-95.31	-31.850	-26.852	11.074	-0.60864	0.29004	-0.55420	0.48804	29.8	13111	100
2025-3-27 20:21:40.101	WT901BLE68-01(48591DE3C19B)	-0.520	-1.081	0.115	-53.528	-46.387	22.461	-78.20	23.51	-94.72	-31.850	-26.852	11.074	-0.60913	0.30188	-0.56125	0.47192	29.8	13111	100
2025-3-27 20:21:40.101	WT901BLE68-01(48591DE3C19B)	-0.520	-2.000	0.108	-56.763	-71.777	3.540	-78.45	23.55	-94.00	-31.850	-26.852	11.074	-0.60913	0.30188	-0.56125	0.47192	29.8	13111	100
2025-3-27 20:21:40.101	WT901BLE68-01(48591DE3C19B)	-0.555	-2.000	0.108	-56.763	-71.777	3.540	-78.70	23.46	-93.14	-31.850	-26.852	11.074	-0.60913	0.30188	-0.56125	0.47192	29.8	13111	100
2025-3-27 20:21:40.132	WT901BLE68-01(48591DE3C19B)	-0.555	-2.624	0.153	-16.907	-80.750	-14.343	-78.75	23.26	-92.25	-31.850	-26.852	11.074	-0.60913	0.30188	-0.56125	0.47192	29.8	13111	100
2025-3-27 20:21:40.132	WT901BLE68-01(48591DE3C19B)	-0.554	-2.624	0.153	-16.907	-80.750	-14.343	-78.60	22.95	-91.33	-31.850	-26.852	11.074	-0.60913	0.30188	-0.56125	0.47192	29.8	13111	100
2025-3-27 20:21:40.132	WT901BLE68-01(48591DE3C19B)	-0.554	-2.145	0.261	25.024	-81.970	-9.460	-78.26	22.65	-90.40	-31.850	-26.852	11.074	-0.60913	0.30188	-0.56125	0.47192	29.8	13111	100
2025-3-27 20:21:40.132	WT901BLE68-01(48591DE3C19B)	-0.274	-2.145	0.261	25.024	-81.970	-9.460	-77.70	22.36	-89.48	-31.850	-26.852	11.074	-0.60913	0.30188	-0.56125	0.47192	29.8	13111	100
2025-3-27 20:21:40.162	WT901BLE68-01(48591DE3C19B)	-0.274	-1.703	0.200	21.973	-47.302	-5.249	-77.24	22.12	-88.75	-31.850	-26.852	11.074	-0.60913	0.30188	-0.56125	0.47192	29.8	13111	100
2025-3-27 20:21:40.162	WT901BLE68-01(48591DE3C19B)	-0.050	-1.703	0.200	21.973	-47.302	-5.249	-76.87	21.93	-88.21	-31.850	-26.852	11.074	-0.60913	0.30188	-0.56125	0.47192	29.8	13111	100
2025-3-27 20:21:40.162	WT901BLE68-01(48591DE3C19B)	-0.050	-1.472	0.136	31.128	16.663	1.526	-76.58	21.84	-88.01	-31.850	-26.852	11.074	-0.60913	0.30188	-0.56125	0.47192	29.8	13111	100
2025-3-27 20:21:40.162	WT901BLE68-01(48591DE3C19B)	0.001	-1.472	0.136	31.128	16.663	1.526	-76.37	21.84	-88.13	-31.850	-26.852	11.074	-0.60913	0.30188	-0.56125	0.47192	29.8	13111	100
2025-3-27 20:21:40.221	WT901BLE68-01(48591DE3C19B)	0.001	-1.060	0.120	37.842	64.209	15.015	-76.21	21.97	-88.48	-31.850	-26.852	11.074	-0.60913	0.30188	-0.56125	0.47192	29.8	13111	100
2025-3-27 20:21:40.221	WT901BLE68-01(48591DE3C19B)	-0.035	-1.060	0.120	37.842	64.209	15.015	-76.10	22.20	-89.06	-31.850	-26.852	11.074	-0.60913	0.30188	-0.56125	0.47192	29.8	13111	100
2025-3-27 20:21:40.221	WT901BLE68-01(48591DE3C19B)	-0.035	-0.693	0.131	25.452	78.003	13.184	-76.09	22.45	-89.71	-31.850	-26.852	11.074	-0.60913	0.30188	-0.56125	0.47192	29.8	13111	100
2025-3-27 20:21:40.221	WT901BLE68-01(48591DE3C19B)	-0.121	-0.693	0.131	25.452	78.003	13.184	-76.17	22.69	-90.44	-31.850	-26.852	11.074	-0.60913	0.30188	-0.56125	0.47192	29.8	13111	100
2025-3-27 20:21:40.249	WT901BLE68-01(48591DE3C19B)	-0.121	-0.499	0.187	14.343	66.650	3.967	-76.29	22.86	-91.12	-31.850	-26.852	11.074	-0.60913	0.30188	-0.56125	0.47192	29.8	13111	100
2025-3-27 20:21:40.250	WT901BLE68-01(48591DE3C19B)	-0.152	-0.499	0.187	14.343	66.650	3.967	-76.44	22.98	-91.75	-31.850	-26.852	11.074	-0.60913	0.30188	-0.56125	0.47192	29.8	13111	100
2025-3-27 20:21:40.250	WT901BLE68-01(48591DE3C19B)	-0.152	-0.314	0.192	9.705	52.734	5.066	-76.59	23.09	-92.30	-31.850	-26.852	11.074	-0.60913	0.30188	-0.56125	0.47192	29.8	13111	100
2025-3-27 20:21:40.250	WT901BLE68-01(48591DE3C19B)	-0.170	-0.314	0.192	9.705	52.734	5.066	-76.72	23.19	-92.77	-37.632	-32.046	10.192	-0.60913	0.30188	-0.56125	0.47192	29.8	13111	100
2025-3-27 20:21:40.311	WT901BLE68-01(48591DE3C19B)	-0.170	-0.232	0.160	8.057	48.035	5.920	-76.84	23.29	-93.22	-37.632	-32.046	10.192	-0.60913	0.30188	-0.56125	0.47192	29.8	13111	100
2025-3-27 20:21:40.311	WT901BLE68-01(48591DE3C19B)	-0.250	-0.232	0.160	8.057	48.035	5.920	-76.96	23.40	-93.65	-37.632	-32.046	10.192	-0.60913	0.30188	-0.56125	0.47192	29.8	13111	100
2025-3-27 20:21:40.311	WT901BLE68-01(48591DE3C19B)	-0.250	-0.336	0.146	9.888	38.391	8.911	-77.05	23.51	-94.02	-37.632	-32.046	10.192	-0.60913	0.30188	-0.56125	0.47192	29.8	13111	100
2025-3-27 20:21:40.311	WT901BLE68-01(48591DE3C19B)	-0.301	-0.336	0.146	9.888	38.391	8.911	-77.11	23.62	-94.34	-37.632	-32.046	10.192	-0.60913	0.30188	-0.56125	0.47192	29.8	13111	100
2025-3-27 20:21:40.340	WT901BLE68-01(48591DE3C19B)	-0.301	-0.487	0.138	18.433	16.174	9.155	-76.98	23.70	-94.42	-37.632	-32.046	10.192	-0.60913	0.30188	-0.56125	0.47192	29.8	13111	100
2025-3-27 20:21:40.340	WT901BLE68-01(48591DE3C19B)	-0.275	-0.487	0.138	18.433	16.174	9.155	-76.85	23.79	-94.49	-37.632	-32.046	10.192	-0.60913	0.30188	-0.56125	0.47192	29.8	13111	100
2025-3-27 20:21:40.340	WT901BLE68-01(48591DE3C19B)	-0.275	-0.472	0.114	30.518	-2.136	11.292	-76.53	23.85	-94.37	-37.632	-32.046	10.192	-0.60913	0.30188	-0.56125	0.47192	29.8	13111	100
2025-3-27 20:21:40.340	WT901BLE68-01(48591DE3C19B)	-0.208	-0.472	0.114	30.518	-2.136	11.292	-76.20	23.93	-94.24	-37.632	-32.046	10.192	-0.60913	0.30188	-0.56125	0.47192	29.8	13111	100
2025-3-27 20:21:40.370	WT901BLE68-01(48591DE3C19B)	-0.208	-0.379	0.083	36.377	-10.193	17.578	-75.77	24.04	-94.01	-37.632	-32.046	10.192	-0.60913	0.30188	-0.56125	0.47192	29.8	13111	100
2025-3-27 20:21:40.370	WT901BLE68-01(48591DE3C19B)	-0.156	-0.379	0.083	36.377	-10.193	17.578	-75.36	24.16	-93.78	-37.632	-32.046	10.192	-0.60913	0.30188	-0.56125	0.47192	29.8	13111	100
2025-3-27 20:21:40.370	WT901BLE68-01(48591DE3C19B)	-0.156	-0.368	0.055	32.471	-0.671	23.987	-75.01	24.37	-93.63	-37.632	-32.046	10.192	-0.60913	0.30188	-0.56125	0.47192	29.8	13111	100
2025-3-27 20:21:40.370	WT901BLE68-01(48591DE3C19B)	-0.149	-0.368	0.055	32.471	-0.671	23.987	-74.66	24.57	-93.47	-37.632	-32.046	10.192	-0.60913	0.30188	-0.56125	0.47192	29.8	13111	100
2025-3-27 20:21:40.432	WT901BLE68-01(48591DE3C19B)	-0.149	-0.507	0.041	23.193	20.081	22.095	-74.51	24.81	-93.53	-37.632	-32.046	10.192	-0.60913	0.30188	-0.56125	0.47192	29.8	13111	100
2025-3-27 20:21:40.432	WT901BLE68-01(48591DE3C19B)	-0.196	-0.507	0.041	23.193	20.081	22.095	-74.37	25.04	-93.59	-37.632	-32.046	10.192	-0.60913	0.30188	-0.56125	0.47192	29.8	13111	100
2025-3-27 20:21:40.433	WT901BLE68-01(48591DE3C19B)	-0.196	-0.737	0.090	14.282	41.992	10.071	-74.42	25.21	-93.91	-37.632	-32.046	10.192	-0.60913	0.30188	-0.56125	0.47192	29.8	13111	100
2025-3-27 20:21:40.433	WT901BLE68-01(48591DE3C19B)	-0.311	-0.737	0.090	14.282	41.992	10.071	-74.48	25.38	-94.22	-37.632	-32.046	10.192	-0.60913	0.30188	-0.56125	0.47192	29.8	13111	100
2025-3-27 20:21:40.462	WT901BLE68-01(48591DE3C19B)	-0.311	-1.080	0.161	7.019	61.890	-13.489	-74.74	25.37	-94.81	-37.632	-32.046	10.192	-0.60913	0.30188	-0.56125	0.47192	29.8	13111	100
2025-3-27 20:21:40.462	WT901BLE68-01(48591DE3C19B)	-0.565	-1.080	0.161	7.019	61.890	-13.489	-74.99	25.35	-95.39	-37.632	-32.046	10.192	-0.60913	0.30188	-0.56125	0.47192	29.8	13111	100
2025-3-27 20:21:40.462	WT901BLE68-01(48591DE3C19B)	-0.565	-1.589	0.308	9.216	67.139	-56.580	-75.29	24.93	-96.14	-37.632	-32.046	10.192	-0.60913	0.30188	-0.56125	0.47192	29.8	13111	100
2025-3-27 20:21:40.462	WT901BLE68-01(48591DE3C19B)	-0.907	-1.589	0.308	9.216	67.139	-56.580	-75.59	24.51	-96.88	-37.632	-32.046	10.192	-0.60663	0.27283	-0.55945	0.49445	29.8	13111	100
2025-3-27 20:21:40.492	WT901BLE68-01(48591DE3C19B)	-0.907	-1.941	0.430	10.681	59.143	-87.646	-75.85	23.77	-97.60	-37.632	-32.046	10.192	-0.60663	0.27283	-0.55945	0.49445	29.8	13111	100
2025-3-27 20:21:40.493	WT901BLE68-01(48591DE3C19B)	-1.030	-1.941	0.430	10.681	59.143	-87.646	-76.10	23.04	-98.30	-37.632	-32.046	10.192	-0.60663	0.27283	-0.55945	0.49445	29.8	13111	100
2025-3-27 20:21:40.493	WT901BLE68-01(48591DE3C19B)	-1.030	-1.690	0.443	30.457	63.904	-95.642	-76.16	22.26	-99.06	-37.632	-32.046	10.192	-0.60663	0.27283	-0.55945	0.49445	29.8	13111	100
2025-3-27 20:21:40.493	WT901BLE68-01(48591DE3C19B)	-0.854	-1.690	0.443	30.457	63.904	-95.642	-76.21	21.49	-99.80	-37.632	-32.046	10.192	-0.60663	0.27283	-0.55945	0.49445	29.8	13111	100
2025-3-27 20:21:40.550	WT901BLE68-01(48591DE3C19B)	-0.854	-1.275	0.348	23.132	66.772	-84.839	-76.32	20.84	-100.52	-37.632	-32.046	10.192	-0.60663	0.27283	-0.55945	0.49445	29.8	13111	100
2025-3-27 20:21:40.550	WT901BLE68-01(48591DE3C19B)	-0.651	-1.275	0.348	23.132	66.772	-84.839	-76.43	20.20	-101.23	-37.632	-32.046	10.192	-0.60663	0.27283	-0.55945	0.49445	29.8	13111	100
2025-3-27 20:21:40.550	WT901BLE68-01(48591DE3C19B)	-0.651	-1.149	0.266	4.456	41.443	-70.679	-76.60	19.64	-101.62	-37.632	-32.046	10.192	-0.60663	0.27283	-0.55945	0.49445	29.8	13111	100
2025-3-27 20:21:40.551	WT901BLE68-01(48591DE3C19B)	-0.557	-1.149	0.266	4.456	41.443	-70.679	-76.77	19.09	-101.99	-37.632	-32.046	10.192	-0.60663	0.27283	-0.55945	0.49445	29.8	13111	100
2025-3-27 20:21:40.580	WT901BLE68-01(48591DE3C19B)	-0.557	-0.949	0.270	-4.272	-11.841	-40.466	-76.83	18.71	-101.74	-37.632	-32.046	10.192	-0.60663	0.27283	-0.55945	0.49445	29.8	13111	100
2025-3-27 20:21:40.580	WT901BLE68-01(48591DE3C19B)	-0.589	-0.949	0.270	-4.272	-11.841	-40.466	-76.88	18.33	-101.49	-37.632	-32.046	10.192	-0.60663	0.27283	-0.55945	0.49445	29.8	13111	100
2025-3-27 20:21:40.580	WT901BLE68-01(48591DE3C19B)	-0.589	-0.761	0.298	-29.175	-80.505	-21.545	-76.94	18.00	-100.50	-37.632	-32.046	10.192	-0.60663	0.27283	-0.55945	0.49445	29.8	13111	100
2025-3-27 20:21:40.580	WT901BLE68-01(48591DE3C19B)	-0.482	-0.761	0.298	-29.175	-80.505	-21.545	-77.01	17.66	-99.53	-37.632	-32.046	10.192	-0.60663	0.27283	-0.55945	0.49445	29.8	13111	100
2025-3-27 20:21:40.610	WT901BLE68-01(48591DE3C19B)	-0.482	-0.771	0.326	-42.236	-120.361	-1.892	-77.07	17.44	-98.13	-37.632	-32.046	10.192	-0.60663	0.27283	-0.55945	0.49445	29.8	13111	100
2025-3-27 20:21:40.610	WT901BLE68-01(48591DE3C19B)	-0.381	-0.771	0.326	-42.236	-120.361	-1.892	-77.14	17.22	-96.75	-37.632	-32.046	10.192	-0.60663	0.27283	-0.55945	0.49445	29.8	13111	100
2025-3-27 20:21:40.610	WT901BLE68-01(48591DE3C19B)	-0.381	-0.706	0.316	-35.950	-102.478	12.451	-77.17	17.18	-95.56	-37.632	-32.046	10.192	-0.60663	0.27283	-0.55945	0.49445	29.8	13111	100
2025-3-27 20:21:40.611	WT901BLE68-01(48591DE3C19B)	-0.341	-0.706	0.316	-35.950	-102.478	12.451	-77.20	17.14	-94.39	-37.632	-32.046	10.192	-0.60663	0.27283	-0.55945	0.49445	29.8	13111	100
2025-3-27 20:21:40.669	WT901BLE68-01(48591DE3C19B)	-0.341	-0.573	0.322	-26.489	-66.650	20.569	-77.23	17.27	-93.61	-37.632	-32.046	10.192	-0.60663	0.27283	-0.55945	0.49445	29.8	13111	100
2025-3-27 20:21:40.670	WT901BLE68-01(48591DE3C19B)	-0.332	-0.573	0.322	-26.489	-66.650	20.569	-77.25	17.39	-92.85	-37.632	-32.046	10.192	-0.60663	0.27283	-0.55945	0.49445	29.8	13111	100
2025-3-27 20:21:40.670	WT901BLE68-01(48591DE3C19B)	-0.332	-0.422	0.324	-18.433	-38.208	31.128	-77.26	17.67	-92.38	-37.632	-32.046	10.192	-0.60663	0.27283	-0.55945	0.49445	29.8	13111	100
2025-3-27 20:21:40.670	WT901BLE68-01(48591DE3C19B)	-0.266	-0.422	0.324	-18.433	-38.208	31.128	-77.25	17.95	-91.94	-37.632	-32.046	10.192	-0.60663	0.27283	-0.55945	0.49445	29.8	13111	100
2025-3-27 20:21:40.703	WT901BLE68-01(48591DE3C19B)	-0.266	-0.238	0.308	-12.207	-23.376	41.260	-77.21	18.36	-91.66	-37.534	-37.534	12.054	-0.60663	0.27283	-0.55945	0.49445	29.8	13111	100
2025-3-27 20:21:40.703	WT901BLE68-01(48591DE3C19B)	-0.186	-0.238	0.308	-12.207	-23.376	41.260	-77.16	18.77	-91.41	-37.534	-37.534	12.054	-0.60663	0.27283	-0.55945	0.49445	29.8	13111	100
2025-3-27 20:21:40.703	WT901BLE68-01(48591DE3C19B)	-0.186	-0.141	0.234	-14.221	-12.146	50.964	-77.15	19.29	-91.28	-37.534	-37.534	12.054	-0.60663	0.27283	-0.55945	0.49445	29.8	13111	100
2025-3-27 20:21:40.703	WT901BLE68-01(48591DE3C19B)	-0.201	-0.141	0.234	-14.221	-12.146	50.964	-77.12	19.81	-91.18	-37.534	-37.534	12.054	-0.60663	0.27283	-0.55945	0.49445	29.8	13111	100
2025-3-27 20:21:40.732	WT901BLE68-01(48591DE3C19B)	-0.201	-0.246	0.175	-23.865	-6.287	53.345	-77.20	20.36	-91.14	-37.534	-37.534	12.054	-0.60663	0.27283	-0.55945	0.49445	29.8	13111	100
2025-3-27 20:21:40.732	WT901BLE68-01(48591DE3C19B)	-0.293	-0.246	0.175	-23.865	-6.287	53.345	-77.28	20.90	-91.11	-37.534	-37.534	12.054	-0.60663	0.27283	-0.55945	0.49445	29.8	13111	100
2025-3-27 20:21:40.732	WT901BLE68-01(48591DE3C19B)	-0.293	-0.590	0.140	-39.001	-15.747	45.227	-77.49	21.35	-90.99	-37.534	-37.534	12.054	-0.60663	0.27283	-0.55945	0.49445	29.8	13111	100
2025-3-27 20:21:40.732	WT901BLE68-01(48591DE3C19B)	-0.384	-0.590	0.140	-39.001	-15.747	45.227	-77.70	21.79	-90.87	-37.534	-37.534	12.054	-0.60663	0.27283	-0.55945	0.49445	29.8	13111	100
2025-3-27 20:21:40.791	WT901BLE68-01(48591DE3C19B)	-0.496	-1.061	0.115	-48.950	-37.354	32.715	-77.94	22.06	-90.50	-37.534	-37.534	12.054	-0.60663	0.27283	-0.55945	0.49445	29.8	13111	100
2025-3-27 20:21:40.791	WT901BLE68-01(48591DE3C19B)	-0.496	-1.659	0.151	-44.006	-61.829	18.555	-78.14	22.24	-89.98	-37.534	-37.534	12.054	-0.60663	0.27283	-0.55945	0.49445	29.8	13111	100
2025-3-27 20:21:40.791	WT901BLE68-01(48591DE3C19B)	-0.560	-1.659	0.151	-44.006	-61.829	18.555	-78.29	22.31	-89.32	-37.534	-37.534	12.054	-0.60663	0.27283	-0.55945	0.49445	29.8	13111	100
2025-3-27 20:21:40.791	WT901BLE68-01(48591DE3C19B)	-0.560	-2.032	0.221	-19.348	-83.618	-9.338	-78.29	22.21	-88.55	-37.534	-37.534	12.054	-0.60663	0.27283	-0.55945	0.49445	29.8	13111	100
2025-3-27 20:21:40.819	WT901BLE68-01(48591DE3C19B)	-0.457	-2.032	0.221	-19.348	-83.618	-9.338	-78.16	21.95	-87.69	-37.534	-37.534	12.054	-0.60663	0.27283	-0.55945	0.49445	29.8	13111	100
2025-3-27 20:21:40.819	WT901BLE68-01(48591DE3C19B)	-0.457	-1.869	0.229	4.639	-84.839	-1.038	-77.91	21.72	-86.81	-37.534	-37.534	12.054	-0.60663	0.27283	-0.55945	0.49445	29.8	13111	100
2025-3-27 20:21:40.820	WT901BLE68-01(48591DE3C19B)	-0.229	-1.869	0.229	4.639	-84.839	-1.038	-77.55	21.52	-85.92	-37.534	-37.534	12.054	-0.60663	0.27283	-0.55945	0.49445	29.8	13111	100
2025-3-27 20:21:40.820	WT901BLE68-01(48591DE3C19B)	-0.229	-1.543	0.128	12.085	-49.744	0.427	-77.22	21.36	-85.23	-37.534	-37.534	12.054	-0.60663	0.27283	-0.55945	0.49445	29.8	13111	100
2025-3-27 20:21:40.852	WT901BLE68-01(48591DE3C19B)	-0.042	-1.543	0.128	12.085	-49.744	0.427	-76.93	21.23	-84.72	-37.534	-37.534	12.054	-0.60663	0.27283	-0.55945	0.49445	29.8	13111	100
2025-3-27 20:21:40.852	WT901BLE68-01(48591DE3C19B)	-0.042	-1.395	0.048	19.958	7.813	5.005	-76.72	21.18	-84.50	-37.534	-37.534	12.054	-0.60663	0.27283	-0.55945	0.49445	29.8	13111	100
2025-3-27 20:21:40.852	WT901BLE68-01(48591DE3C19B)	-0.045	-1.395	0.048	19.958	7.813	5.005	-76.57	21.20	-84.58	-37.534	-37.534	12.054	-0.60663	0.27283	-0.55945	0.49445	29.8	13111	100
2025-3-27 20:21:40.852	WT901BLE68-01(48591DE3C19B)	-0.045	-1.134	0.058	24.963	47.363	14.587	-76.48	21.32	-84.85	-37.534	-37.534	12.054	-0.60663	0.27283	-0.55945	0.49445	29.8	13111	100
2025-3-27 20:21:40.911	WT901BLE68-01(48591DE3C19B)	-0.113	-1.134	0.058	24.963	47.363	14.587	-76.44	21.52	-85.31	-37.534	-37.534	12.054	-0.60663	0.27283	-0.55945	0.49445	29.8	13111	100
2025-3-27 20:21:40.911	WT901BLE68-01(48591DE3C19B)	-0.113	-0.922	0.102	16.113	49.561	17.029	-76.45	21.73	-85.78	-37.534	-37.534	12.054	-0.64389	0.34290	-0.52332	0.44025	29.8	13111	100
2025-3-27 20:21:40.911	WT901BLE68-01(48591DE3C19B)	-0.169	-0.922	0.102	16.113	49.561	17.029	-76.51	21.95	-86.25	-37.534	-37.534	12.054	-0.64389	0.34290	-0.52332	0.44025	29.8	13111	100
2025-3-27 20:21:40.911	WT901BLE68-01(48591DE3C19B)	-0.169	-0.747	0.128	14.587	39.001	11.597	-76.55	22.13	-86.67	-37.534	-37.534	12.054	-0.64389	0.34290	-0.52332	0.44025	29.8	13111	100
2025-3-27 20:21:40.939	WT901BLE68-01(48591DE3C19B)	-0.193	-0.747	0.128	14.587	39.001	11.597	-76.59	22.26	-87.04	-37.534	-37.534	12.054	-0.64389	0.34290	-0.52332	0.44025	29.8	13111	100
2025-3-27 20:21:40.939	WT901BLE68-01(48591DE3C19B)	-0.193	-0.461	0.136	18.799	28.992	16.724	-76.59	22.41	-87.36	-37.534	-37.534	12.054	-0.64389	0.34290	-0.52332	0.44025	29.8	13111	100
2025-3-27 20:21:40.940	WT901BLE68-01(48591DE3C19B)	-0.145	-0.461	0.136	18.799	28.992	16.724	-76.53	22.58	-87.62	-37.534	-37.534	12.054	-0.64389	0.34290	-0.52332	0.44025	29.8	13111	100
2025-3-27 20:21:40.940	WT901BLE68-01(48591DE3C19B)	-0.145	-0.210	0.126	18.066	23.010	27.771	-76.46	22.80	-87.83	-37.534	-37.534	12.054	-0.64389	0.34290	-0.52332	0.44025	29.8	13111	100
2025-3-27 20:21:40.970	WT901BLE68-01(48591DE3C19B)	-0.063	-0.210	0.126	18.066	23.010	27.771	-76.38	23.06	-88.00	-37.534	-37.534	12.054	-0.64389	0.34290	-0.52332	0.44025	29.8	13111	100
2025-3-27 20:21:40.970	WT901BLE68-01(48591DE3C19B)	-0.063	-0.108	0.120	16.418	24.902	42.664	-76.30	23.40	-88.17	-37.534	-37.534	12.054	-0.64389	0.34290	-0.52332	0.44025	29.8	13111	100
2025-3-27 20:21:40.970	WT901BLE68-01(48591DE3C19B)	0.004	-0.108	0.120	16.418	24.902	42.664	-76.22	23.81	-88.32	-37.534	-37.534	12.054	-0.64389	0.34290	-0.52332	0.44025	29.8	13111	100
2025-3-27 20:21:40.970	WT901BLE68-01(48591DE3C19B)	0.004	-0.098	0.104	16.968	36.072	56.641	-76.15	24.31	-88.52	-37.534	-37.534	12.054	-0.64389	0.34290	-0.52332	0.44025	29.8	13111	100
2025-3-27 20:21:41.32	WT901BLE68-01(48591DE3C19B)	-0.064	-0.098	0.104	16.968	36.072	56.641	-76.10	24.88	-88.78	-37.534	-37.534	12.054	-0.64389	0.34290	-0.52332	0.44025	29.8	13111	100
2025-3-27 20:21:41.32	WT901BLE68-01(48591DE3C19B)	-0.064	-0.225	0.108	14.160	52.429	56.763	-76.09	25.47	-89.12	-37.534	-37.534	12.054	-0.64389	0.34290	-0.52332	0.44025	29.8	13111	100
2025-3-27 20:21:41.32	WT901BLE68-01(48591DE3C19B)	-0.264	-0.225	0.108	14.160	52.429	56.763	-76.14	26.07	-89.55	-37.534	-37.534	12.054	-0.64389	0.34290	-0.52332	0.44025	29.8	13111	100
2025-3-27 20:21:41.32	WT901BLE68-01(48591DE3C19B)	-0.264	-0.513	0.134	8.301	53.894	46.021	-76.22	26.62	-90.01	-37.534	-37.534	12.054	-0.64389	0.34290	-0.52332	0.44025	29.8	13111	100
2025-3-27 20:21:41.62	WT901BLE68-01(48591DE3C19B)	-0.472	-0.513	0.134	8.301	53.894	46.021	-76.35	27.12	-90.49	-37.534	-37.534	12.054	-0.64389	0.34290	-0.52332	0.44025	29.8	13111	100
2025-3-27 20:21:41.62	WT901BLE68-01(48591DE3C19B)	-0.472	-0.832	0.134	3.479	40.100	26.611	-76.49	27.52	-90.93	-37.534	-37.534	12.054	-0.64389	0.34290	-0.52332	0.44025	29.8	13111	100
2025-3-27 20:21:41.62	WT901BLE68-01(48591DE3C19B)	-0.630	-0.832	0.134	3.479	40.100	26.611	-76.64	27.82	-91.31	-37.534	-37.534	12.054	-0.64389	0.34290	-0.52332	0.44025	29.8	13111	100
2025-3-27 20:21:41.62	WT901BLE68-01(48591DE3C19B)	-0.630	-1.205	0.128	-0.427	17.456	2.563	-76.76	27.98	-91.59	-45.864	-47.138	9.212	-0.64389	0.34290	-0.52332	0.44025	29.8	13111	100
2025-3-27 20:21:41.93	WT901BLE68-01(48591DE3C19B)	-0.681	-1.205	0.128	-0.427	17.456	2.563	-76.86	28.00	-91.76	-45.864	-47.138	9.212	-0.64389	0.34290	-0.52332	0.44025	29.8	13111	100
2025-3-27 20:21:41.93	WT901BLE68-01(48591DE3C19B)	-0.681	-1.654	0.226	4.700	2.686	-46.936	-76.94	27.78	-91.91	-45.864	-47.138	9.212	-0.64389	0.34290	-0.52332	0.44025	29.8	13111	100
2025-3-27 20:21:41.93	WT901BLE68-01(48591DE3C19B)	-0.777	-1.654	0.226	4.700	2.686	-46.936	-76.98	27.30	-92.03	-45.864	-47.138	9.212	-0.64389	0.34290	-0.52332	0.44025	29.8	13111	100
2025-3-27 20:21:41.93	WT901BLE68-01(48591DE3C19B)	-0.777	-1.935	0.319	10.864	8.850	-73.792	-77.01	26.69	-92.22	-45.864	-47.138	9.212	-0.64389	0.34290	-0.52332	0.44025	29.8	13111	100
2025-3-27 20:21:41.150	WT901BLE68-01(48591DE3C19B)	-0.891	-1.935	0.319	10.864	8.850	-73.792	-77.05	25.97	-92.47	-45.864	-47.138	9.212	-0.64389	0.34290	-0.52332	0.44025	29.8	13111	100
2025-3-27 20:21:41.151	WT901BLE68-01(48591DE3C19B)	-0.891	-1.559	0.386	29.541	40.771	-81.970	-77.07	25.24	-92.90	-45.864	-47.138	9.212	-0.64389	0.34290	-0.52332	0.44025	29.8	13111	100
2025-3-27 20:21:41.151	WT901BLE68-01(48591DE3C19B)	-0.723	-1.559	0.386	29.541	40.771	-81.970	-77.06	24.53	-93.52	-45.864	-47.138	9.212	-0.64389	0.34290	-0.52332	0.44025	29.8	13111	100
2025-3-27 20:21:41.151	WT901BLE68-01(48591DE3C19B)	-0.723	-1.130	0.432	27.222	69.702	-70.618	-77.11	23.91	-94.26	-45.864	-47.138	9.212	-0.64389	0.34290	-0.52332	0.44025	29.8	13111	100
2025-3-27 20:21:41.180	WT901BLE68-01(48591DE3C19B)	-0.525	-1.130	0.432	27.222	69.702	-70.618	-77.21	23.38	-95.16	-45.864	-47.138	9.212	-0.64389	0.34290	-0.52332	0.44025	29.8	13111	100
2025-3-27 20:21:41.180	WT901BLE68-01(48591DE3C19B)	-0.525	-0.954	0.384	16.296	82.336	-54.077	-77.37	22.95	-96.11	-45.864	-47.138	9.212	-0.64389	0.34290	-0.52332	0.44025	29.8	13111	100
2025-3-27 20:21:41.180	WT901BLE68-01(48591DE3C19B)	-0.552	-0.954	0.384	16.296	82.336	-54.077	-77.58	22.62	-97.10	-45.864	-47.138	9.212	-0.64389	0.34290	-0.52332	0.44025	29.8	13111	100
2025-3-27 20:21:41.180	WT901BLE68-01(48591DE3C19B)	-0.552	-0.886	0.286	2.686	56.580	-32.776	-77.79	22.36	-97.94	-45.864	-47.138	9.212	-0.64389	0.34290	-0.52332	0.44025	29.8	13111	100
2025-3-27 20:21:41.210	WT901BLE68-01(48591DE3C19B)	-0.585	-0.886	0.286	2.686	56.580	-32.776	-78.01	22.18	-98.61	-45.864	-47.138	9.212	-0.64389	0.34290	-0.52332	0.44025	29.8	13111	100
2025-3-27 20:21:41.211	WT901BLE68-01(48591DE3C19B)	-0.585	-0.924	0.212	-16.968	-4.211	-21.606	-78.19	22.00	-98.96	-45.864	-47.138	9.212	-0.64389	0.34290	-0.52332	0.44025	29.8	13111	100
2025-3-27 20:21:41.211	WT901BLE68-01(48591DE3C19B)	-0.501	-0.924	0.212	-16.968	-4.211	-21.606	-78.34	21.81	-98.96	-45.864	-47.138	9.212	-0.64389	0.34290	-0.52332	0.44025	29.8	13111	100
2025-3-27 20:21:41.211	WT901BLE68-01(48591DE3C19B)	-0.501	-0.853	0.237	-17.700	-44.128	-7.996	-78.34	21.68	-98.53	-45.864	-47.138	9.212	-0.64389	0.34290	-0.52332	0.44025	29.8	13111	100
2025-3-27 20:21:41.271	WT901BLE68-01(48591DE3C19B)	-0.361	-0.853	0.237	-17.700	-44.128	-7.996	-78.33	21.54	-98.10	-45.864	-47.138	9.212	-0.64389	0.34290	-0.52332	0.44025	29.8	13111	100
2025-3-27 20:21:41.271	WT901BLE68-01(48591DE3C19B)	-0.361	-0.600	0.321	-13.123	-46.143	-7.202	-78.27	21.41	-97.67	-45.864	-47.138	9.212	-0.64389	0.34290	-0.52332	0.44025	29.8	13111	100
2025-3-27 20:21:41.271	WT901BLE68-01(48591DE3C19B)	-0.245	-0.600	0.321	-13.123	-46.143	-7.202	-78.20	21.29	-97.26	-45.864	-47.138	9.212	-0.64389	0.34290	-0.52332	0.44025	29.8	13111	100
2025-3-27 20:21:41.271	WT901BLE68-01(48591DE3C19B)	-0.245	-0.291	0.362	-8.972	-30.823	4.333	-78.13	21.30	-97.01	-45.864	-47.138	9.212	-0.64389	0.34290	-0.52332	0.44025	29.8	13111	100
2025-3-27 20:21:41.303	WT901BLE68-01(48591DE3C19B)	-0.164	-0.291	0.362	-8.972	-30.823	4.333	-78.05	21.31	-96.80	-45.864	-47.138	9.212	-0.59390	0.30334	-0.55811	0.49362	29.8	13111	100
2025-3-27 20:21:41.303	WT901BLE68-01(48591DE3C19B)	-0.164	-0.103	0.320	-11.475	-17.029	16.846	-78.02	21.47	-96.74	-45.864	-47.138	9.212	-0.59390	0.30334	-0.55811	0.49362	29.8	13111	100
2025-3-27 20:21:41.303	WT901BLE68-01(48591DE3C19B)	-0.143	-0.103	0.320	-11.475	-17.029	16.846	-77.98	21.62	-96.70	-45.864	-47.138	9.212	-0.59390	0.30334	-0.55811	0.49362	29.8	13111	100
2025-3-27 20:21:41.303	WT901BLE68-01(48591DE3C19B)	-0.143	-0.123	0.244	-17.334	-11.841	16.357	-78.01	21.78	-96.74	-45.864	-47.138	9.212	-0.59390	0.30334	-0.55811	0.49362	29.8	13111	100
2025-3-27 20:21:41.332	WT901BLE68-01(48591DE3C19B)	-0.231	-0.123	0.244	-17.334	-11.841	16.357	-78.04	21.93	-96.80	-45.864	-47.138	9.212	-0.59390	0.30334	-0.55811	0.49362	29.8	13111	100
2025-3-27 20:21:41.332	WT901BLE68-01(48591DE3C19B)	-0.231	-0.334	0.173	-24.841	-18.677	4.517	-78.11	21.95	-96.81	-45.864	-47.138	9.212	-0.59390	0.30334	-0.55811	0.49362	29.8	13111	100
2025-3-27 20:21:41.332	WT901BLE68-01(48591DE3C19B)	-0.368	-0.334	0.173	-24.841	-18.677	4.517	-78.18	21.97	-96.82	-45.864	-47.138	9.212	-0.59390	0.30334	-0.55811	0.49362	29.8	13111	100
2025-3-27 20:21:41.332	WT901BLE68-01(48591DE3C19B)	-0.368	-0.642	0.108	-34.607	-41.687	-5.005	-78.28	21.86	-96.61	-45.864	-47.138	9.212	-0.59390	0.30334	-0.55811	0.49362	29.8	13111	100
2025-3-27 20:21:41.421	WT901BLE68-01(48591DE3C19B)	-0.425	-0.642	0.108	-34.607	-41.687	-5.005	-78.39	21.75	-96.38	-45.864	-47.138	9.212	-0.59390	0.30334	-0.55811	0.49362	29.8	13111	100
2025-3-27 20:21:41.421	WT901BLE68-01(48591DE3C19B)	-0.425	-1.107	0.059	-46.448	-72.388	-4.456	-78.51	21.59	-95.79	-45.864	-47.138	9.212	-0.59390	0.30334	-0.55811	0.49362	29.8	13111	100
2025-3-27 20:21:41.421	WT901BLE68-01(48591DE3C19B)	-0.487	-1.107	0.059	-46.448	-72.388	-4.456	-78.66	21.43	-95.16	-45.864	-47.138	9.212	-0.59390	0.30334	-0.55811	0.49362	29.8	13111	100
2025-3-27 20:21:41.421	WT901BLE68-01(48591DE3C19B)	-0.487	-1.994	0.029	-44.006	-88.318	-17.212	-78.75	21.11	-94.33	-45.864	-47.138	9.212	-0.59390	0.30334	-0.55811	0.49362	29.8	13111	100
2025-3-27 20:21:41.422	WT901BLE68-01(48591DE3C19B)	-0.397	-1.994	0.029	-44.006	-88.318	-17.212	-78.87	20.79	-93.47	-45.864	-47.138	9.212	-0.59390	0.30334	-0.55811	0.49362	29.8	13111	100
2025-3-27 20:21:41.422	WT901BLE68-01(48591DE3C19B)	-0.397	-2.561	-0.015	-9.033	-92.041	-23.987	-78.66	20.37	-92.55	-45.864	-47.138	9.212	-0.59390	0.30334	-0.55811	0.49362	29.8	13111	100
2025-3-27 20:21:41.422	WT901BLE68-01(48591DE3C19B)	-0.250	-2.561	-0.015	-9.033	-92.041	-23.987	-78.46	19.93	-91.63	-45.864	-47.138	9.212	-0.59390	0.30334	-0.55811	0.49362	29.8	13111	100
2025-3-27 20:21:41.423	WT901BLE68-01(48591DE3C19B)	-0.250	-1.854	0.072	38.635	-60.181	-15.808	-77.91	19.64	-91.02	-45.864	-47.138	9.212	-0.59390	0.30334	-0.55811	0.49362	29.8	13111	100
2025-3-27 20:21:41.452	WT901BLE68-01(48591DE3C19B)	-0.050	-1.854	0.072	38.635	-60.181	-15.808	-77.37	19.33	-90.42	-45.864	-47.138	9.212	-0.59390	0.30334	-0.55811	0.49362	29.8	13111	100
2025-3-27 20:21:41.452	WT901BLE68-01(48591DE3C19B)	-0.050	-1.319	0.072	24.658	0.061	-9.033	-77.17	19.21	-90.43	-45.864	-47.138	9.212	-0.59390	0.30334	-0.55811	0.49362	29.8	13111	100
2025-3-27 20:21:41.452	WT901BLE68-01(48591DE3C19B)	-0.048	-1.319	0.072	24.658	0.061	-9.033	-76.98	19.08	-90.44	-45.864	-47.138	9.212	-0.59390	0.30334	-0.55811	0.49362	29.8	13111	100
2025-3-27 20:21:41.452	WT901BLE68-01(48591DE3C19B)	-0.048	-1.148	0.104	22.705	61.157	2.808	-77.01	19.20	-91.05	-45.864	-47.138	9.212	-0.59390	0.30334	-0.55811	0.49362	29.8	13111	100
2025-3-27 20:21:41.511	WT901BLE68-01(48591DE3C19B)	-0.153	-1.148	0.104	22.705	61.157	2.808	-77.04	19.32	-91.65	-45.864	-47.138	9.212	-0.59390	0.30334	-0.55811	0.49362	29.8	13111	100
2025-3-27 20:21:41.511	WT901BLE68-01(48591DE3C19B)	-0.153	-0.902	0.172	22.095	87.158	5.737	-77.16	19.52	-92.52	-49.980	-53.018	6.076	-0.59390	0.30334	-0.55811	0.49362	29.8	13111	100
2025-3-27 20:21:41.511	WT901BLE68-01(48591DE3C19B)	-0.189	-0.902	0.172	22.095	87.158	5.737	-77.27	19.71	-93.38	-49.980	-53.018	6.076	-0.59390	0.30334	-0.55811	0.49362	29.8	13111	100
2025-3-27 20:21:41.511	WT901BLE68-01(48591DE3C19B)	-0.189	-0.587	0.243	18.860	79.895	4.272	-77.40	19.87	-94.18	-49.980	-53.018	6.076	-0.59390	0.30334	-0.55811	0.49362	29.8	13111	100
2025-3-27 20:21:41.601	WT901BLE68-01(48591DE3C19B)	-0.188	-0.587	0.243	18.860	79.895	4.272	-77.52	20.04	-94.98	-49.980	-53.018	6.076	-0.59390	0.30334	-0.55811	0.49362	29.8	13111	100
2025-3-27 20:21:41.601	WT901BLE68-01(48591DE3C19B)	-0.188	-0.303	0.250	12.085	60.791	5.920	-77.63	20.18	-95.58	-49.980	-53.018	6.076	-0.59390	0.30334	-0.55811	0.49362	29.8	13111	100
2025-3-27 20:21:41.601	WT901BLE68-01(48591DE3C19B)	-0.190	-0.303	0.250	12.085	60.791	5.920	-77.74	20.32	-96.18	-49.980	-53.018	6.076	-0.59390	0.30334	-0.55811	0.49362	29.8	13111	100
2025-3-27 20:21:41.601	WT901BLE68-01(48591DE3C19B)	-0.190	-0.182	0.202	5.859	43.152	13.733	-77.84	20.50	-96.60	-49.980	-53.018	6.076	-0.59390	0.30334	-0.55811	0.49362	29.8	13111	100
2025-3-27 20:21:41.602	WT901BLE68-01(48591DE3C19B)	-0.240	-0.182	0.202	5.859	43.152	13.733	-77.93	20.69	-97.02	-49.980	-53.018	6.076	-0.59390	0.30334	-0.55811	0.49362	29.8	13111	100
2025-3-27 20:21:41.602	WT901BLE68-01(48591DE3C19B)	-0.240	-0.177	0.137	6.165	27.161	23.499	-77.95	20.94	-97.26	-49.980	-53.018	6.076	-0.59390	0.30334	-0.55811	0.49362	29.8	13111	100
2025-3-27 20:21:41.603	WT901BLE68-01(48591DE3C19B)	-0.267	-0.177	0.137	6.165	27.161	23.499	-77.97	21.20	-97.51	-49.980	-53.018	6.076	-0.59390	0.30334	-0.55811	0.49362	29.8	13111	100
2025-3-27 20:21:41.603	WT901BLE68-01(48591DE3C19B)	-0.267	-0.188	0.116	7.996	4.639	34.302	-77.87	21.53	-97.51	-49.980	-53.018	6.076	-0.59390	0.30334	-0.55811	0.49362	29.8	13111	100
2025-3-27 20:21:41.631	WT901BLE68-01(48591DE3C19B)	-0.255	-0.188	0.116	7.996	4.639	34.302	-77.77	21.86	-97.53	-49.980	-53.018	6.076	-0.59390	0.30334	-0.55811	0.49362	29.8	13111	100
2025-3-27 20:21:41.631	WT901BLE68-01(48591DE3C19B)	-0.255	-0.230	0.129	7.629	-13.184	44.006	-77.58	22.25	-97.34	-49.980	-53.018	6.076	-0.59390	0.30334	-0.55811	0.49362	29.8	13111	100
2025-3-27 20:21:41.632	WT901BLE68-01(48591DE3C19B)	-0.284	-0.230	0.129	7.629	-13.184	44.006	-77.39	22.65	-97.17	-49.980	-53.018	6.076	-0.59390	0.30334	-0.55811	0.49362	29.8	13111	100
2025-3-27 20:21:41.632	WT901BLE68-01(48591DE3C19B)	-0.284	-0.418	0.109	2.625	-16.785	42.419	-77.24	23.03	-96.98	-49.980	-53.018	6.076	-0.59390	0.30334	-0.55811	0.49362	29.8	13111	100
2025-3-27 20:21:41.662	WT901BLE68-01(48591DE3C19B)	-0.387	-0.418	0.109	2.625	-16.785	42.419	-77.09	23.41	-96.78	-49.980	-53.018	6.076	-0.59390	0.30334	-0.55811	0.49362	29.8	13111	100
2025-3-27 20:21:41.662	WT901BLE68-01(48591DE3C19B)	-0.387	-0.723	0.105	-2.930	-15.198	36.438	-77.00	23.74	-96.62	-49.980	-53.018	6.076	-0.59390	0.30334	-0.55811	0.49362	29.8	13111	100
2025-3-27 20:21:41.662	WT901BLE68-01(48591DE3C19B)	-0.496	-0.723	0.105	-2.930	-15.198	36.438	-76.92	24.07	-96.44	-49.980	-53.018	6.076	-0.59390	0.30334	-0.55811	0.49362	29.8	13111	100
2025-3-27 20:21:41.663	WT901BLE68-01(48591DE3C19B)	-0.496	-1.085	0.094	-15.808	-21.851	23.987	-76.96	24.26	-96.21	-49.980	-53.018	6.076	-0.59390	0.30334	-0.55811	0.49362	29.8	13111	100
2025-3-27 20:21:41.721	WT901BLE68-01(48591DE3C19B)	-0.561	-1.085	0.094	-15.808	-21.851	23.987	-77.01	24.45	-95.96	-49.980	-53.018	6.076	-0.59390	0.30334	-0.55811	0.49362	29.8	13111	100
2025-3-27 20:21:41.721	WT901BLE68-01(48591DE3C19B)	-0.697	-1.700	0.120	-24.109	-26.917	-11.719	-77.16	24.27	-95.72	-49.980	-53.018	6.076	-0.61002	0.28867	-0.56204	0.47809	29.8	13111	100
2025-3-27 20:21:41.721	WT901BLE68-01(48591DE3C19B)	-0.697	-2.414	0.260	-16.296	-25.269	-50.781	-77.30	23.90	-95.53	-49.980	-53.018	6.076	-0.61002	0.28867	-0.56204	0.47809	29.8	13111	100
2025-3-27 20:21:41.721	WT901BLE68-01(48591DE3C19B)	-0.942	-2.414	0.260	-16.296	-25.269	-50.781	-77.43	23.34	-95.38	-49.980	-53.018	6.076	-0.61002	0.28867	-0.56204	0.47809	29.8	13111	100
2025-3-27 20:21:41.781	WT901BLE68-01(48591DE3C19B)	-0.942	-2.140	0.472	15.564	-17.944	-74.036	-77.43	22.67	-95.29	-49.980	-53.018	6.076	-0.61002	0.28867	-0.56204	0.47809	29.8	13111	100
2025-3-27 20:21:41.781	WT901BLE68-01(48591DE3C19B)	-0.813	-2.140	0.472	15.564	-17.944	-74.036	-77.29	21.90	-95.28	-49.980	-53.018	6.076	-0.61002	0.28867	-0.56204	0.47809	29.8	13111	100
2025-3-27 20:21:41.781	WT901BLE68-01(48591DE3C19B)	-0.813	-1.376	0.545	11.047	10.193	-73.975	-77.23	21.17	-95.44	-49.980	-53.018	6.076	-0.61002	0.28867	-0.56204	0.47809	29.8	13111	100
2025-3-27 20:21:41.781	WT901BLE68-01(48591DE3C19B)	-0.618	-1.376	0.545	11.047	10.193	-73.975	-77.23	20.48	-95.76	-49.980	-53.018	6.076	-0.61002	0.28867	-0.56204	0.47809	29.8	13111	100
2025-3-27 20:21:41.782	WT901BLE68-01(48591DE3C19B)	-0.618	-1.002	0.491	9.216	51.636	-52.856	-77.29	19.95	-96.29	-49.980	-53.018	6.076	-0.61002	0.28867	-0.56204	0.47809	29.8	13111	100
2025-3-27 20:21:41.782	WT901BLE68-01(48591DE3C19B)	-0.477	-1.002	0.491	9.216	51.636	-52.856	-77.42	19.57	-97.03	-49.980	-53.018	6.076	-0.61002	0.28867	-0.56204	0.47809	29.8	13111	100
2025-3-27 20:21:41.782	WT901BLE68-01(48591DE3C19B)	-0.477	-0.748	0.358	0.732	50.537	-31.006	-77.56	19.30	-97.74	-49.980	-53.018	6.076	-0.61002	0.28867	-0.56204	0.47809	29.8	13111	100
2025-3-27 20:21:41.782	WT901BLE68-01(48591DE3C19B)	-0.479	-0.748	0.358	0.732	50.537	-31.006	-77.72	19.14	-98.44	-49.980	-53.018	6.076	-0.61002	0.28867	-0.56204	0.47809	29.8	13111	100
2025-3-27 20:21:41.870	WT901BLE68-01(48591DE3C19B)	-0.479	-0.718	0.270	-23.926	-5.798	-12.329	-77.90	19.01	-98.83	-49.980	-53.018	6.076	-0.61002	0.28867	-0.56204	0.47809	29.8	13111	100
2025-3-27 20:21:41.870	WT901BLE68-01(48591DE3C19B)	-0.460	-0.718	0.270	-23.926	-5.798	-12.329	-78.10	18.91	-98.92	-49.980	-53.018	6.076	-0.61002	0.28867	-0.56204	0.47809	29.8	13111	100
2025-3-27 20:21:41.871	WT901BLE68-01(48591DE3C19B)	-0.460	-0.870	0.207	-36.255	-60.364	3.906	-78.26	18.84	-98.71	-49.980	-53.018	6.076	-0.61002	0.28867	-0.56204	0.47809	29.8	13111	100
2025-3-27 20:21:41.871	WT901BLE68-01(48591DE3C19B)	-0.484	-0.870	0.207	-36.255	-60.364	3.906	-78.39	18.79	-98.21	-49.980	-53.018	6.076	-0.61002	0.28867	-0.56204	0.47809	29.8	13111	100
2025-3-27 20:21:41.872	WT901BLE68-01(48591DE3C19B)	-0.484	-0.844	0.197	-25.574	-74.036	20.447	-78.43	18.81	-97.62	-49.980	-53.018	6.076	-0.61002	0.28867	-0.56204	0.47809	29.8	13111	100
2025-3-27 20:21:41.872	WT901BLE68-01(48591DE3C19B)	-0.442	-0.844	0.197	-25.574	-74.036	20.447	-78.39	18.91	-96.94	-49.980	-53.018	6.076	-0.61002	0.28867	-0.56204	0.47809	29.8	13111	100
2025-3-27 20:21:41.872	WT901BLE68-01(48591DE3C19B)	-0.442	-0.588	0.187	-13.184	-65.002	22.522	-78.31	19.02	-96.31	-49.980	-53.018	6.076	-0.61002	0.28867	-0.56204	0.47809	29.8	13111	100
2025-3-27 20:21:41.872	WT901BLE68-01(48591DE3C19B)	-0.292	-0.588	0.187	-13.184	-65.002	22.522	-78.17	19.15	-95.73	-49.980	-53.018	6.076	-0.61002	0.28867	-0.56204	0.47809	29.8	13111	100
2025-3-27 20:21:41.903	WT901BLE68-01(48591DE3C19B)	-0.292	-0.259	0.231	-10.254	-47.607	30.823	-78.04	19.34	-95.25	-49.980	-53.018	6.076	-0.61002	0.28867	-0.56204	0.47809	29.8	13111	100
2025-3-27 20:21:41.903	WT901BLE68-01(48591DE3C19B)	-0.182	-0.259	0.231	-10.254	-47.607	30.823	-77.92	19.59	-94.87	-49.980	-53.018	6.076	-0.61002	0.28867	-0.56204	0.47809	29.8	13111	100
2025-3-27 20:21:41.903	WT901BLE68-01(48591DE3C19B)	-0.182	-0.043	0.284	-9.460	-34.058	44.006	-77.79	19.91	-94.56	-54.292	-60.956	4.606	-0.61002	0.28867	-0.56204	0.47809	29.8	13111	100
2025-3-27 20:21:41.903	WT901BLE68-01(48591DE3C19B)	-0.164	-0.043	0.284	-9.460	-34.058	44.006	-77.67	20.31	-94.32	-54.292	-60.956	4.606	-0.61002	0.28867	-0.56204	0.47809	29.8	13111	100
2025-3-27 20:21:41.960	WT901BLE68-01(48591DE3C19B)	-0.164	0.033	0.290	-12.329	-33.752	52.185	-77.54	20.74	-94.10	-54.292	-60.956	4.606	-0.61002	0.28867	-0.56204	0.47809	29.8	13111	100
2025-3-27 20:21:41.960	WT901BLE68-01(48591DE3C19B)	-0.219	0.033	0.290	-12.329	-33.752	52.185	-77.40	21.21	-93.89	-54.292	-60.956	4.606	-0.61002	0.28867	-0.56204	0.47809	29.8	13111	100
2025-3-27 20:21:41.960	WT901BLE68-01(48591DE3C19B)	-0.219	-0.047	0.241	-21.484	-47.180	50.354	-77.27	21.64	-93.63	-54.292	-60.956	4.606	-0.61002	0.28867	-0.56204	0.47809	29.8	13111	100
2025-3-27 20:21:41.960	WT901BLE68-01(48591DE3C19B)	-0.287	-0.047	0.241	-21.484	-47.180	50.354	-77.15	22.05	-93.31	-54.292	-60.956	4.606	-0.61002	0.28867	-0.56204	0.47809	29.8	13111	100
2025-3-27 20:21:41.990	WT901BLE68-01(48591DE3C19B)	-0.287	-0.306	0.195	-36.011	-69.519	42.175	-77.04	22.39	-92.89	-54.292	-60.956	4.606	-0.61002	0.28867	-0.56204	0.47809	29.8	13111	100
2025-3-27 20:21:41.990	WT901BLE68-01(48591DE3C19B)	-0.343	-0.306	0.195	-36.011	-69.519	42.175	-76.95	22.66	-92.37	-54.292	-60.956	4.606	-0.61002	0.28867	-0.56204	0.47809	29.8	13111	100
2025-3-27 20:21:41.990	WT901BLE68-01(48591DE3C19B)	-0.343	-0.762	0.151	-51.514	-92.407	25.269	-76.91	22.82	-91.74	-54.292	-60.956	4.606	-0.61002	0.28867	-0.56204	0.47809	29.8	13111	100
2025-3-27 20:21:41.990	WT901BLE68-01(48591DE3C19B)	-0.399	-0.762	0.151	-51.514	-92.407	25.269	-76.92	22.88	-90.98	-54.292	-60.956	4.606	-0.61002	0.28867	-0.56204	0.47809	29.8	13111	100
2025-3-27 20:21:42.21	WT901BLE68-01(48591DE3C19B)	-0.399	-1.562	0.109	-65.125	-99.426	6.470	-77.01	22.84	-90.19	-54.292	-60.956	4.606	-0.61002	0.28867	-0.56204	0.47809	29.8	13111	100
2025-3-27 20:21:42.21	WT901BLE68-01(48591DE3C19B)	-0.409	-1.562	0.109	-65.125	-99.426	6.470	-77.20	22.70	-89.31	-54.292	-60.956	4.606	-0.61002	0.28867	-0.56204	0.47809	29.8	13111	100
2025-3-27 20:21:42.21	WT901BLE68-01(48591DE3C19B)	-0.409	-2.690	-0.031	-29.541	-88.257	-28.931	-77.28	22.40	-88.49	-54.292	-60.956	4.606	-0.61002	0.28867	-0.56204	0.47809	29.8	13111	100
2025-3-27 20:21:42.21	WT901BLE68-01(48591DE3C19B)	-0.487	-2.690	-0.031	-29.541	-88.257	-28.931	-77.27	21.91	-87.73	-54.292	-60.956	4.606	-0.61002	0.28867	-0.56204	0.47809	29.8	13111	100
2025-3-27 20:21:42.81	WT901BLE68-01(48591DE3C19B)	-0.487	-2.611	0.059	41.260	-64.941	-23.193	-76.96	21.47	-87.06	-54.292	-60.956	4.606	-0.61002	0.28867	-0.56204	0.47809	29.8	13111	100
2025-3-27 20:21:42.81	WT901BLE68-01(48591DE3C19B)	-0.407	-2.611	0.059	41.260	-64.941	-23.193	-76.37	21.07	-86.50	-54.292	-60.956	4.606	-0.61002	0.28867	-0.56204	0.47809	29.8	13111	100
2025-3-27 20:21:42.81	WT901BLE68-01(48591DE3C19B)	-0.407	-1.681	0.049	44.067	-21.790	-28.931	-75.86	20.69	-86.17	-54.292	-60.956	4.606	-0.61002	0.28867	-0.56204	0.47809	29.8	13111	100
2025-3-27 20:21:42.81	WT901BLE68-01(48591DE3C19B)	-0.168	-1.681	0.049	44.067	-21.790	-28.931	-75.42	20.32	-86.07	-54.292	-60.956	4.606	-0.61002	0.28867	-0.56204	0.47809	29.8	13111	100
2025-3-27 20:21:42.112	WT901BLE68-01(48591DE3C19B)	-0.168	-1.402	0.055	40.466	50.476	-15.442	-75.13	20.12	-86.32	-54.292	-60.956	4.606	-0.64108	0.34152	-0.51212	0.45825	29.8	13111	100
2025-3-27 20:21:42.112	WT901BLE68-01(48591DE3C19B)	-0.142	-1.402	0.055	40.466	50.476	-15.442	-74.98	20.07	-86.91	-54.292	-60.956	4.606	-0.64108	0.34152	-0.51212	0.45825	29.8	13111	100
2025-3-27 20:21:42.112	WT901BLE68-01(48591DE3C19B)	-0.142	-1.061	0.150	41.931	107.666	1.831	-74.92	20.17	-87.78	-54.292	-60.956	4.606	-0.64108	0.34152	-0.51212	0.45825	29.8	13111	100
2025-3-27 20:21:42.112	WT901BLE68-01(48591DE3C19B)	-0.271	-1.061	0.150	41.931	107.666	1.831	-74.95	20.43	-88.91	-54.292	-60.956	4.606	-0.64108	0.34152	-0.51212	0.45825	29.8	13111	100
2025-3-27 20:21:42.170	WT901BLE68-01(48591DE3C19B)	-0.271	-0.875	0.223	16.052	97.534	7.263	-75.09	20.69	-89.97	-54.292	-60.956	4.606	-0.64108	0.34152	-0.51212	0.45825	29.8	13111	100
2025-3-27 20:21:42.170	WT901BLE68-01(48591DE3C19B)	-0.278	-0.875	0.223	16.052	97.534	7.263	-75.33	20.97	-90.98	-54.292	-60.956	4.606	-0.64108	0.34152	-0.51212	0.45825	29.8	13111	100
2025-3-27 20:21:42.170	WT901BLE68-01(48591DE3C19B)	-0.278	-0.927	0.274	-4.211	43.091	-5.676	-75.59	21.11	-91.72	-54.292	-60.956	4.606	-0.64108	0.34152	-0.51212	0.45825	29.8	13111	100
2025-3-27 20:21:42.170	WT901BLE68-01(48591DE3C19B)	-0.341	-0.927	0.274	-4.211	43.091	-5.676	-75.84	21.12	-92.21	-54.292	-60.956	4.606	-0.64108	0.34152	-0.51212	0.45825	29.8	13111	100
2025-3-27 20:21:42.231	WT901BLE68-01(48591DE3C19B)	-0.341	-0.871	0.241	-1.343	12.268	-6.165	-75.94	21.04	-92.37	-54.292	-60.956	4.606	-0.64108	0.34152	-0.51212	0.45825	29.8	13111	100
2025-3-27 20:21:42.231	WT901BLE68-01(48591DE3C19B)	-0.372	-0.871	0.241	-1.343	12.268	-6.165	-76.04	20.98	-92.54	-54.292	-60.956	4.606	-0.64108	0.34152	-0.51212	0.45825	29.8	13111	100
2025-3-27 20:21:42.231	WT901BLE68-01(48591DE3C19B)	-0.372	-0.646	0.144	5.432	10.315	-11.902	-76.07	20.86	-92.71	-54.292	-60.956	4.606	-0.64108	0.34152	-0.51212	0.45825	29.8	13111	100
2025-3-27 20:21:42.231	WT901BLE68-01(48591DE3C19B)	-0.346	-0.646	0.144	5.432	10.315	-11.902	-76.10	20.74	-92.88	-54.292	-60.956	4.606	-0.64108	0.34152	-0.51212	0.45825	29.8	13111	100
2025-3-27 20:21:42.232	WT901BLE68-01(48591DE3C19B)	-0.346	-0.364	0.063	10.925	18.250	-6.470	-76.09	20.70	-93.11	-54.292	-60.956	4.606	-0.64108	0.34152	-0.51212	0.45825	29.8	13111	100
2025-3-27 20:21:42.232	WT901BLE68-01(48591DE3C19B)	-0.305	-0.364	0.063	10.925	18.250	-6.470	-76.09	20.68	-93.35	-54.292	-60.956	4.606	-0.64108	0.34152	-0.51212	0.45825	29.8	13111	100
2025-3-27 20:21:42.232	WT901BLE68-01(48591DE3C19B)	-0.305	-0.207	0.032	7.568	17.151	7.385	-76.09	20.79	-93.54	-54.292	-60.956	4.606	-0.64108	0.34152	-0.51212	0.45825	29.8	13111	100
2025-3-27 20:21:42.232	WT901BLE68-01(48591DE3C19B)	-0.200	-0.207	0.032	7.568	17.151	7.385	-76.10	20.90	-93.74	-54.292	-60.956	4.606	-0.64108	0.34152	-0.51212	0.45825	29.8	13111	100
2025-3-27 20:21:42.262	WT901BLE68-01(48591DE3C19B)	-0.200	-0.169	0.045	4.395	9.766	18.860	-76.10	21.12	-93.82	-54.292	-60.956	4.606	-0.64108	0.34152	-0.51212	0.45825	29.8	13111	100
2025-3-27 20:21:42.262	WT901BLE68-01(48591DE3C19B)	-0.158	-0.169	0.045	4.395	9.766	18.860	-76.11	21.34	-93.91	-54.292	-60.956	4.606	-0.64108	0.34152	-0.51212	0.45825	29.8	13111	100
2025-3-27 20:21:42.262	WT901BLE68-01(48591DE3C19B)	-0.158	-0.161	0.071	4.150	2.319	24.353	-76.07	21.59	-93.92	-54.292	-60.956	4.606	-0.64108	0.34152	-0.51212	0.45825	29.8	13111	100
2025-3-27 20:21:42.262	WT901BLE68-01(48591DE3C19B)	-0.192	-0.161	0.071	4.150	2.319	24.353	-76.04	21.86	-93.92	-54.292	-60.956	4.606	-0.64108	0.34152	-0.51212	0.45825	29.8	13111	100
2025-3-27 20:21:42.321	WT901BLE68-01(48591DE3C19B)	-0.192	-0.151	0.088	1.892	-8.911	34.180	-75.97	22.19	-93.80	-54.292	-60.956	4.606	-0.64108	0.34152	-0.51212	0.45825	29.8	13111	100
2025-3-27 20:21:42.321	WT901BLE68-01(48591DE3C19B)	-0.200	-0.151	0.088	1.892	-8.911	34.180	-75.90	22.52	-93.68	-67.032	-67.326	5.096	-0.64108	0.34152	-0.51212	0.45825	29.8	13111	100
2025-3-27 20:21:42.321	WT901BLE68-01(48591DE3C19B)	-0.200	-0.219	0.093	-5.554	-19.714	44.128	-75.84	22.93	-93.43	-67.032	-67.326	5.096	-0.64108	0.34152	-0.51212	0.45825	29.8	13111	100
2025-3-27 20:21:42.321	WT901BLE68-01(48591DE3C19B)	-0.180	-0.219	0.093	-5.554	-19.714	44.128	-75.77	23.34	-93.20	-67.032	-67.326	5.096	-0.64108	0.34152	-0.51212	0.45825	29.8	13111	100
2025-3-27 20:21:42.349	WT901BLE68-01(48591DE3C19B)	-0.180	-0.405	0.114	-10.498	-17.029	48.828	-75.76	23.80	-92.98	-67.032	-67.326	5.096	-0.64108	0.34152	-0.51212	0.45825	29.8	13111	100
2025-3-27 20:21:42.350	WT901BLE68-01(48591DE3C19B)	-0.240	-0.405	0.114	-10.498	-17.029	48.828	-75.74	24.25	-92.76	-67.032	-67.326	5.096	-0.64108	0.34152	-0.51212	0.45825	29.8	13111	100
2025-3-27 20:21:42.350	WT901BLE68-01(48591DE3C19B)	-0.240	-0.672	0.139	-13.550	-1.526	47.791	-75.82	24.72	-92.71	-67.032	-67.326	5.096	-0.64108	0.34152	-0.51212	0.45825	29.8	13111	100
2025-3-27 20:21:42.350	WT901BLE68-01(48591DE3C19B)	-0.432	-0.672	0.139	-13.550	-1.526	47.791	-75.90	25.19	-92.64	-67.032	-67.326	5.096	-0.64108	0.34152	-0.51212	0.45825	29.8	13111	100
2025-3-27 20:21:42.381	WT901BLE68-01(48591DE3C19B)	-0.432	-1.148	0.246	-15.503	8.179	35.522	-76.06	25.54	-92.71	-67.032	-67.326	5.096	-0.64108	0.34152	-0.51212	0.45825	29.8	13111	100
2025-3-27 20:21:42.381	WT901BLE68-01(48591DE3C19B)	-0.736	-1.148	0.246	-15.503	8.179	35.522	-76.22	25.89	-92.79	-67.032	-67.326	5.096	-0.64108	0.34152	-0.51212	0.45825	29.8	13111	100
2025-3-27 20:21:42.381	WT901BLE68-01(48591DE3C19B)	-0.736	-2.056	0.370	-14.526	7.690	-4.517	-76.42	25.85	-92.94	-67.032	-67.326	5.096	-0.64108	0.34152	-0.51212	0.45825	29.8	13111	100
2025-3-27 20:21:42.381	WT901BLE68-01(48591DE3C19B)	-1.632	-2.056	0.370	-14.526	7.690	-4.517	-76.62	25.81	-93.10	-67.032	-67.326	5.096	-0.64108	0.34152	-0.51212	0.45825	29.8	13111	100
2025-3-27 20:21:42.440	WT901BLE68-01(48591DE3C19B)	-3.265	-5.886	0.600	-0.061	9.460	-35.767	-76.73	25.45	-93.33	-67.032	-67.326	5.096	-0.64108	0.34152	-0.51212	0.45825	29.8	13111	100
2025-3-27 20:21:42.440	WT901BLE68-01(48591DE3C19B)	-0.885	-11.772	1.199	-0.061	9.460	-35.767	-76.84	25.08	-93.54	-67.032	-67.326	5.096	-0.64108	0.34152	-0.51212	0.45825	29.8	13111	100
2025-3-27 20:21:42.440	WT901BLE68-01(48591DE3C19B)	-0.885	-2.009	0.349	56.335	45.654	-47.607	-76.57	24.68	-94.17	-67.032	-67.326	5.096	-0.64108	0.34152	-0.51212	0.45825	29.8	13111	100
2025-3-27 20:21:42.441	WT901BLE68-01(48591DE3C19B)	-0.682	-2.009	0.349	56.335	45.654	-47.607	-76.30	24.29	-94.79	-67.032	-67.326	5.096	-0.64108	0.34152	-0.51212	0.45825	29.8	13111	100
2025-3-27 20:21:42.472	WT901BLE68-01(48591DE3C19B)	-0.682	-1.218	0.361	37.598	81.482	-35.828	-76.35	24.10	-95.76	-67.032	-67.326	5.096	-0.64108	0.34152	-0.51212	0.45825	29.8	13111	100
2025-3-27 20:21:42.472	WT901BLE68-01(48591DE3C19B)	-0.448	-1.218	0.361	37.598	81.482	-35.828	-76.39	23.92	-96.73	-67.032	-67.326	5.096	-0.64108	0.34152	-0.51212	0.45825	29.8	13111	100
2025-3-27 20:21:42.472	WT901BLE68-01(48591DE3C19B)	-0.448	-0.844	0.475	26.245	95.642	-18.738	-76.59	23.94	-97.81	-67.032	-67.326	5.096	-0.64108	0.34152	-0.51212	0.45825	29.8	13111	100
2025-3-27 20:21:42.472	WT901BLE68-01(48591DE3C19B)	-0.328	-0.844	0.475	26.245	95.642	-18.738	-76.77	23.96	-98.88	-67.032	-67.326	5.096	-0.64108	0.34152	-0.51212	0.45825	29.8	13111	100
2025-3-27 20:21:42.503	WT901BLE68-01(48591DE3C19B)	-0.328	-0.594	0.489	7.996	73.914	-0.427	-77.02	24.10	-99.70	-67.032	-67.326	5.096	-0.64108	0.34152	-0.51212	0.45825	29.8	13111	100
2025-3-27 20:21:42.503	WT901BLE68-01(48591DE3C19B)	-0.426	-0.594	0.489	7.996	73.914	-0.427	-77.27	24.24	-100.52	-67.032	-67.326	5.096	-0.64108	0.34152	-0.51212	0.45825	29.8	13111	100
2025-3-27 20:21:42.503	WT901BLE68-01(48591DE3C19B)	-0.426	-0.695	0.495	-22.949	7.080	3.906	-77.51	24.27	-100.62	-67.032	-67.326	5.096	-0.58810	0.26465	-0.57565	0.50259	29.8	13111	100
2025-3-27 20:21:42.503	WT901BLE68-01(48591DE3C19B)	-0.360	-0.695	0.495	-22.949	7.080	3.906	-77.76	24.31	-100.74	-67.032	-67.326	5.096	-0.58810	0.26465	-0.57565	0.50259	29.8	13111	100
2025-3-27 20:21:42.560	WT901BLE68-01(48591DE3C19B)	-0.360	-0.929	0.355	-23.743	-47.607	15.625	-77.74	24.34	-100.26	-67.032	-67.326	5.096	-0.58810	0.26465	-0.57565	0.50259	29.8	13111	100
2025-3-27 20:21:42.560	WT901BLE68-01(48591DE3C19B)	-0.337	-0.929	0.355	-23.743	-47.607	15.625	-77.73	24.37	-99.77	-67.032	-67.326	5.096	-0.58810	0.26465	-0.57565	0.50259	29.8	13111	100
2025-3-27 20:21:42.561	WT901BLE68-01(48591DE3C19B)	-0.337	-0.904	0.193	3.784	-35.583	9.277	-77.51	24.37	-99.43	-67.032	-67.326	5.096	-0.58810	0.26465	-0.57565	0.50259	29.8	13111	100
2025-3-27 20:21:42.561	WT901BLE68-01(48591DE3C19B)	-0.388	-0.904	0.193	3.784	-35.583	9.277	-77.29	24.36	-99.09	-67.032	-67.326	5.096	-0.58810	0.26465	-0.57565	0.50259	29.8	13111	100
2025-3-27 20:21:42.590	WT901BLE68-01(48591DE3C19B)	-0.388	-0.789	0.094	18.005	8.606	-4.333	-77.14	24.32	-99.25	-67.032	-67.326	5.096	-0.58810	0.26465	-0.57565	0.50259	29.8	13111	100
2025-3-27 20:21:42.590	WT901BLE68-01(48591DE3C19B)	-0.419	-0.789	0.094	18.005	8.606	-4.333	-76.99	24.28	-99.40	-67.032	-67.326	5.096	-0.58810	0.26465	-0.57565	0.50259	29.8	13111	100
2025-3-27 20:21:42.590	WT901BLE68-01(48591DE3C19B)	-0.419	-0.741	0.076	23.071	46.753	-11.719	-76.97	24.26	-99.98	-67.032	-67.326	5.096	-0.58810	0.26465	-0.57565	0.50259	29.8	13111	100
2025-3-27 20:21:42.590	WT901BLE68-01(48591DE3C19B)	-0.447	-0.741	0.076	23.071	46.753	-11.719	-76.95	24.24	-100.55	-67.032	-67.326	5.096	-0.58810	0.26465	-0.57565	0.50259	29.8	13111	100
2025-3-27 20:21:42.620	WT901BLE68-01(48591DE3C19B)	-0.447	-0.601	0.124	25.085	66.345	-15.015	-77.00	24.24	-101.33	-67.032	-67.326	5.096	-0.58810	0.26465	-0.57565	0.50259	29.8	13111	100
2025-3-27 20:21:42.620	WT901BLE68-01(48591DE3C19B)	-0.447	-0.479	0.158	23.743	72.327	-15.869	-77.07	24.24	-102.14	-67.032	-67.326	5.096	-0.58810	0.26465	-0.57565	0.50259	29.8	13111	100
2025-3-27 20:21:42.620	WT901BLE68-01(48591DE3C19B)	-0.472	-0.479	0.158	23.743	72.327	-15.869	-77.17	24.25	-102.99	-67.032	-67.326	5.096	-0.58810	0.26465	-0.57565	0.50259	29.8	13111	100
2025-3-27 20:21:42.620	WT901BLE68-01(48591DE3C19B)	-0.472	-0.357	0.175	21.118	62.195	-13.611	-77.24	24.27	-103.78	-67.032	-67.326	5.096	-0.58810	0.26465	-0.57565	0.50259	29.8	13111	100
2025-3-27 20:21:42.681	WT901BLE68-01(48591DE3C19B)	-0.530	-0.357	0.175	21.118	62.195	-13.611	-77.31	24.30	-104.53	-67.032	-67.326	5.096	-0.58810	0.26465	-0.57565	0.50259	29.8	13111	100
2025-3-27 20:21:42.682	WT901BLE68-01(48591DE3C19B)	-0.530	-0.275	0.185	8.545	21.545	-8.911	-77.34	24.31	-105.08	-67.032	-67.326	5.096	-0.58810	0.26465	-0.57565	0.50259	29.8	13111	100
2025-3-27 20:21:42.682	WT901BLE68-01(48591DE3C19B)	-0.440	-0.275	0.185	8.545	21.545	-8.911	-77.33	24.31	-105.42	-67.032	-67.326	5.096	-0.58810	0.26465	-0.57565	0.50259	29.8	13111	100
2025-3-27 20:21:42.682	WT901BLE68-01(48591DE3C19B)	-0.440	-0.326	0.195	-8.911	-29.114	-4.150	-77.29	24.29	-105.53	-67.032	-67.326	5.096	-0.58810	0.26465	-0.57565	0.50259	29.8	13111	100
2025-3-27 20:21:42.710	WT901BLE68-01(48591DE3C19B)	-0.294	-0.326	0.195	-8.911	-29.114	-4.150	-77.21	24.23	-105.38	-68.894	-72.716	7.056	-0.58810	0.26465	-0.57565	0.50259	29.8	13111	100
2025-3-27 20:21:42.710	WT901BLE68-01(48591DE3C19B)	-0.294	-0.393	0.192	-15.015	-49.988	4.028	-77.11	24.20	-105.13	-68.894	-72.716	7.056	-0.58810	0.26465	-0.57565	0.50259	29.8	13111	100
2025-3-27 20:21:42.710	WT901BLE68-01(48591DE3C19B)	-0.261	-0.393	0.192	-15.015	-49.988	4.028	-76.99	24.18	-104.76	-68.894	-72.716	7.056	-0.58810	0.26465	-0.57565	0.50259	29.8	13111	100
2025-3-27 20:21:42.710	WT901BLE68-01(48591DE3C19B)	-0.261	-0.474	0.188	-18.738	-39.978	15.503	-76.90	24.22	-104.43	-68.894	-72.716	7.056	-0.58810	0.26465	-0.57565	0.50259	29.8	13111	100
2025-3-27 20:21:42.740	WT901BLE68-01(48591DE3C19B)	-0.333	-0.474	0.188	-18.738	-39.978	15.503	-76.84	24.33	-104.14	-68.894	-72.716	7.056	-0.58810	0.26465	-0.57565	0.50259	29.8	13111	100
2025-3-27 20:21:42.740	WT901BLE68-01(48591DE3C19B)	-0.333	-0.731	0.140	-28.198	-26.489	20.508	-76.87	24.48	-103.90	-68.894	-72.716	7.056	-0.58810	0.26465	-0.57565	0.50259	29.8	13111	100
2025-3-27 20:21:42.740	WT901BLE68-01(48591DE3C19B)	-0.475	-0.731	0.140	-28.198	-26.489	20.508	-76.97	24.66	-103.69	-68.894	-72.716	7.056	-0.58810	0.26465	-0.57565	0.50259	29.8	13111	100
2025-3-27 20:21:42.740	WT901BLE68-01(48591DE3C19B)	-0.475	-1.259	0.187	-35.461	-17.700	8.423	-77.14	24.79	-103.53	-68.894	-72.716	7.056	-0.58810	0.26465	-0.57565	0.50259	29.8	13111	100
2025-3-27 20:21:42.801	WT901BLE68-01(48591DE3C19B)	-0.822	-1.259	0.187	-35.461	-17.700	8.423	-77.39	24.86	-103.39	-68.894	-72.716	7.056	-0.58810	0.26465	-0.57565	0.50259	29.8	13111	100
2025-3-27 20:21:42.801	WT901BLE68-01(48591DE3C19B)	-0.822	-2.279	0.288	-32.593	-26.489	-27.954	-77.62	24.73	-103.22	-68.894	-72.716	7.056	-0.58810	0.26465	-0.57565	0.50259	29.8	13111	100
2025-3-27 20:21:42.801	WT901BLE68-01(48591DE3C19B)	-1.041	-2.279	0.288	-32.593	-26.489	-27.954	-77.86	24.41	-103.01	-68.894	-72.716	7.056	-0.58810	0.26465	-0.57565	0.50259	29.8	13111	100
2025-3-27 20:21:42.801	WT901BLE68-01(48591DE3C19B)	-1.041	-3.120	0.201	-10.803	-68.054	-31.372	-77.90	24.03	-102.56	-68.894	-72.716	7.056	-0.58810	0.26465	-0.57565	0.50259	29.8	13111	100
2025-3-27 20:21:42.829	WT901BLE68-01(48591DE3C19B)	-0.784	-3.120	0.201	-10.803	-68.054	-31.372	-77.76	23.57	-101.87	-68.894	-72.716	7.056	-0.58810	0.26465	-0.57565	0.50259	29.8	13111	100
2025-3-27 20:21:42.830	WT901BLE68-01(48591DE3C19B)	-0.784	-2.031	0.216	33.752	-86.914	-25.574	-77.37	23.12	-101.07	-68.894	-72.716	7.056	-0.58810	0.26465	-0.57565	0.50259	29.8	13111	100
2025-3-27 20:21:42.830	WT901BLE68-01(48591DE3C19B)	-0.264	-2.031	0.216	33.752	-86.914	-25.574	-76.73	22.67	-100.17	-68.894	-72.716	7.056	-0.58810	0.26465	-0.57565	0.50259	29.8	13111	100
2025-3-27 20:21:42.830	WT901BLE68-01(48591DE3C19B)	-0.264	-1.488	0.140	10.254	-44.373	0.000	-76.29	22.39	-99.47	-68.894	-72.716	7.056	-0.58810	0.26465	-0.57565	0.50259	29.8	13111	100
2025-3-27 20:21:42.862	WT901BLE68-01(48591DE3C19B)	0.013	-1.488	0.140	10.254	-44.373	0.000	-76.05	22.27	-98.96	-68.894	-72.716	7.056	-0.58810	0.26465	-0.57565	0.50259	29.8	13111	100
2025-3-27 20:21:42.863	WT901BLE68-01(48591DE3C19B)	0.013	-1.241	0.225	13.306	25.879	23.376	-75.93	22.35	-98.79	-68.894	-72.716	7.056	-0.58810	0.26465	-0.57565	0.50259	29.8	13111	100
2025-3-27 20:21:42.863	WT901BLE68-01(48591DE3C19B)	-0.071	-1.241	0.225	13.306	25.879	23.376	-75.91	22.60	-98.95	-68.894	-72.716	7.056	-0.58810	0.26465	-0.57565	0.50259	29.8	13111	100
2025-3-27 20:21:42.863	WT901BLE68-01(48591DE3C19B)	-0.071	-0.854	0.271	1.221	48.096	42.603	-75.99	22.98	-99.21	-68.894	-72.716	7.056	-0.58810	0.26465	-0.57565	0.50259	29.8	13111	100
2025-3-27 20:21:42.921	WT901BLE68-01(48591DE3C19B)	-0.185	-0.854	0.271	1.221	48.096	42.603	-76.16	23.46	-99.57	-68.894	-72.716	7.056	-0.58810	0.26465	-0.57565	0.50259	29.8	13111	100
2025-3-27 20:21:42.921	WT901BLE68-01(48591DE3C19B)	-0.185	-1.001	0.321	-34.058	5.188	37.231	-76.42	23.86	-99.71	-68.894	-72.716	7.056	-0.59335	0.26602	-0.56732	0.50516	29.8	13111	100
2025-3-27 20:21:42.921	WT901BLE68-01(48591DE3C19B)	-0.214	-1.001	0.321	-34.058	5.188	37.231	-76.77	24.18	-99.64	-68.894	-72.716	7.056	-0.59335	0.26602	-0.56732	0.50516	29.8	13111	100
2025-3-27 20:21:42.921	WT901BLE68-01(48591DE3C19B)	-0.214	-1.131	0.325	-25.757	-22.827	32.776	-77.00	24.44	-99.42	-68.894	-72.716	7.056	-0.59335	0.26602	-0.56732	0.50516	29.8	13111	100
2025-3-27 20:21:42.949	WT901BLE68-01(48591DE3C19B)	-0.248	-1.131	0.325	-25.757	-22.827	32.776	-77.14	24.65	-99.07	-68.894	-72.716	7.056	-0.59335	0.26602	-0.56732	0.50516	29.8	13111	100
2025-3-27 20:21:42.950	WT901BLE68-01(48591DE3C19B)	-0.248	-0.870	0.299	-17.273	-15.320	20.081	-77.24	24.80	-98.78	-68.894	-72.716	7.056	-0.59335	0.26602	-0.56732	0.50516	29.8	13111	100
2025-3-27 20:21:42.950	WT901BLE68-01(48591DE3C19B)	-0.273	-0.870	0.299	-17.273	-15.320	20.081	-77.33	24.90	-98.56	-68.894	-72.716	7.056	-0.59335	0.26602	-0.56732	0.50516	29.8	13111	100
2025-3-27 20:21:42.950	WT901BLE68-01(48591DE3C19B)	-0.273	-0.636	0.209	-13.489	5.676	15.381	-77.44	24.99	-98.45	-68.894	-72.716	7.056	-0.59335	0.26602	-0.56732	0.50516	29.8	13111	100
2025-3-27 20:21:42.981	WT901BLE68-01(48591DE3C19B)	-0.284	-0.636	0.209	-13.489	5.676	15.381	-77.59	25.09	-98.46	-68.894	-72.716	7.056	-0.59335	0.26602	-0.56732	0.50516	29.8	13111	100
2025-3-27 20:21:42.981	WT901BLE68-01(48591DE3C19B)	-0.284	-0.483	0.166	-14.221	10.864	17.822	-77.74	25.21	-98.51	-68.894	-72.716	7.056	-0.59335	0.26602	-0.56732	0.50516	29.8	13111	100
2025-3-27 20:21:42.981	WT901BLE68-01(48591DE3C19B)	-0.177	-0.483	0.166	-14.221	10.864	17.822	-77.91	25.36	-98.58	-68.894	-72.716	7.056	-0.59335	0.26602	-0.56732	0.50516	29.8	13111	100
2025-3-27 20:21:42.981	WT901BLE68-01(48591DE3C19B)	-0.177	-0.465	0.167	-19.226	-0.977	16.846	-78.07	25.48	-98.59	-68.894	-72.716	7.056	-0.59335	0.26602	-0.56732	0.50516	29.8	13111	100
2025-3-27 20:21:43.40	WT901BLE68-01(48591DE3C19B)	-0.146	-0.465	0.167	-19.226	-0.977	16.846	-78.23	25.59	-98.54	-68.894	-72.716	7.056	-0.59335	0.26602	-0.56732	0.50516	29.8	13111	100
2025-3-27 20:21:43.41	WT901BLE68-01(48591DE3C19B)	-0.146	-0.568	0.165	-20.508	-7.446	10.193	-78.38	25.66	-98.47	-68.894	-72.716	7.056	-0.59335	0.26602	-0.56732	0.50516	29.8	13111	100
2025-3-27 20:21:43.41	WT901BLE68-01(48591DE3C19B)	-0.245	-0.568	0.165	-20.508	-7.446	10.193	-78.52	25.69	-98.37	-68.894	-72.716	7.056	-0.59335	0.26602	-0.56732	0.50516	29.8	13111	100
2025-3-27 20:21:43.41	WT901BLE68-01(48591DE3C19B)	-0.245	-0.687	0.143	-16.357	-19.958	4.211	-78.61	25.68	-98.21	-68.894	-72.716	7.056	-0.59335	0.26602	-0.56732	0.50516	29.8	13111	100
2025-3-27 20:21:43.72	WT901BLE68-01(48591DE3C19B)	-0.317	-0.687	0.143	-16.357	-19.958	4.211	-78.66	25.63	-97.99	-68.894	-72.716	7.056	-0.59335	0.26602	-0.56732	0.50516	29.8	13111	100
2025-3-27 20:21:43.72	WT901BLE68-01(48591DE3C19B)	-0.317	-0.809	0.111	-14.709	-41.016	-0.793	-78.66	25.54	-97.66	-68.894	-72.716	7.056	-0.59335	0.26602	-0.56732	0.50516	29.8	13111	100
2025-3-27 20:21:43.72	WT901BLE68-01(48591DE3C19B)	-0.280	-0.809	0.111	-14.709	-41.016	-0.793	-78.60	25.40	-97.21	-68.894	-72.716	7.056	-0.59335	0.26602	-0.56732	0.50516	29.8	13111	100
2025-3-27 20:21:43.72	WT901BLE68-01(48591DE3C19B)	-0.280	-0.984	0.082	-9.644	-54.321	-4.333	-78.45	25.20	-96.64	-68.894	-72.716	7.056	-0.59335	0.26602	-0.56732	0.50516	29.8	13111	100
2025-3-27 20:21:43.131	WT901BLE68-01(48591DE3C19B)	-0.217	-0.984	0.082	-9.644	-54.321	-4.333	-78.30	25.00	-96.05	-68.894	-72.716	7.056	-0.59335	0.26602	-0.56732	0.50516	29.8	13111	100
2025-3-27 20:21:43.131	WT901BLE68-01(48591DE3C19B)	-0.217	-1.081	0.086	3.784	-44.983	-5.676	-78.07	24.81	-95.57	-68.894	-72.716	7.056	-0.59335	0.26602	-0.56732	0.50516	29.8	13111	100
2025-3-27 20:21:43.131	WT901BLE68-01(48591DE3C19B)	-0.169	-1.081	0.086	3.784	-44.983	-5.676	-77.84	24.60	-95.09	-79.772	-65.170	8.036	-0.59335	0.26602	-0.56732	0.50516	29.8	13111	100
2025-3-27 20:21:43.131	WT901BLE68-01(48591DE3C19B)	-0.169	-1.029	0.128	13.489	-15.991	-8.057	-77.66	24.44	-94.92	-79.772	-65.170	8.036	-0.59335	0.26602	-0.56732	0.50516	29.8	13111	100
2025-3-27 20:21:43.161	WT901BLE68-01(48591DE3C19B)	-0.194	-1.029	0.128	13.489	-15.991	-8.057	-77.48	24.27	-94.76	-79.772	-65.170	8.036	-0.59335	0.26602	-0.56732	0.50516	29.8	13111	100
2025-3-27 20:21:43.161	WT901BLE68-01(48591DE3C19B)	-0.194	-0.973	0.151	14.038	18.860	-6.287	-77.45	24.19	-94.95	-79.772	-65.170	8.036	-0.59335	0.26602	-0.56732	0.50516	29.8	13111	100
2025-3-27 20:21:43.161	WT901BLE68-01(48591DE3C19B)	-0.307	-0.973	0.151	14.038	18.860	-6.287	-77.42	24.10	-95.16	-79.772	-65.170	8.036	-0.59335	0.26602	-0.56732	0.50516	29.8	13111	100
2025-3-27 20:21:43.161	WT901BLE68-01(48591DE3C19B)	-0.307	-0.981	0.176	14.038	41.748	-9.155	-77.49	24.05	-95.60	-79.772	-65.170	8.036	-0.59335	0.26602	-0.56732	0.50516	29.8	13111	100
2025-3-27 20:21:43.190	WT901BLE68-01(48591DE3C19B)	-0.409	-0.981	0.176	14.038	41.748	-9.155	-77.55	23.99	-96.05	-79.772	-65.170	8.036	-0.59335	0.26602	-0.56732	0.50516	29.8	13111	100
2025-3-27 20:21:43.191	WT901BLE68-01(48591DE3C19B)	-0.409	-0.994	0.192	12.878	41.809	-13.489	-77.63	23.90	-96.50	-79.772	-65.170	8.036	-0.59335	0.26602	-0.56732	0.50516	29.8	13111	100
2025-3-27 20:21:43.191	WT901BLE68-01(48591DE3C19B)	-0.419	-0.994	0.192	12.878	41.809	-13.489	-77.71	23.80	-96.95	-79.772	-65.170	8.036	-0.59335	0.26602	-0.56732	0.50516	29.8	13111	100
2025-3-27 20:21:43.191	WT901BLE68-01(48591DE3C19B)	-0.419	-0.984	0.191	9.888	33.325	-16.663	-77.79	23.67	-97.32	-79.772	-65.170	8.036	-0.59335	0.26602	-0.56732	0.50516	29.8	13111	100
