time	DeviceName	AccX(g)	AccY(g)	AccZ(g)	AsX(°/s)	AsY(°/s)	AsZ(°/s)	AngleX(°)	AngleY(°)	AngleZ(°)	HX(uT)	HY(uT)	HZ(uT)	Q0()	Q1()	Q2()	Q3()	Temperature(°C)	Version()	Battery level(%)
2025-3-27 20:26:59.694	WT901BLE68-01(48591DE3C19B)	-0.322	-0.904	0.261	4.028	3.235	-1.953	-74.72	19.07	-18.63	-46.256	-26.264	86.730	-0.78754	0.57358	-0.22397	0.02216	30.2	13111	100
2025-3-27 20:26:59.695	WT901BLE68-01(48591DE3C19B)	-0.322	-0.905	0.260	4.272	4.089	-2.441	-74.69	19.06	-18.69	-46.256	-26.264	86.730	-0.78754	0.57358	-0.22397	0.02216	30.2	13111	100
2025-3-27 20:26:59.695	WT901BLE68-01(48591DE3C19B)	-0.330	-0.905	0.260	4.272	4.089	-2.441	-74.66	19.05	-18.75	-46.256	-26.264	86.730	-0.78754	0.57358	-0.22397	0.02216	30.2	13111	100
2025-3-27 20:26:59.695	WT901BLE68-01(48591DE3C19B)	-0.330	-0.909	0.263	4.578	4.211	-3.113	-74.62	19.03	-18.81	-46.256	-26.264	86.730	-0.78754	0.57358	-0.22397	0.02216	30.2	13111	100
2025-3-27 20:26:59.723	WT901BLE68-01(48591DE3C19B)	-0.330	-0.909	0.263	4.578	4.211	-3.113	-74.59	19.01	-18.87	-47.236	-25.480	86.926	-0.78754	0.57358	-0.22397	0.02216	30.2	13111	100
2025-3-27 20:26:59.724	WT901BLE68-01(48591DE3C19B)	-0.325	-0.911	0.268	4.639	3.418	-3.540	-74.55	18.98	-18.93	-47.236	-25.480	86.926	-0.78754	0.57358	-0.22397	0.02216	30.2	13111	100
2025-3-27 20:26:59.724	WT901BLE68-01(48591DE3C19B)	-0.325	-0.908	0.264	5.005	3.296	-3.906	-74.51	18.96	-18.98	-47.236	-25.480	86.926	-0.78754	0.57358	-0.22397	0.02216	30.2	13111	100
2025-3-27 20:26:59.724	WT901BLE68-01(48591DE3C19B)	-0.321	-0.908	0.264	5.005	3.296	-3.906	-74.48	18.93	-19.04	-47.236	-25.480	86.926	-0.78754	0.57358	-0.22397	0.02216	30.2	13111	100
2025-3-27 20:26:59.755	WT901BLE68-01(48591DE3C19B)	-0.321	-0.910	0.261	5.676	3.784	-4.028	-74.43	18.90	-19.09	-47.236	-25.480	86.926	-0.78754	0.57358	-0.22397	0.02216	30.2	13111	100
2025-3-27 20:26:59.755	WT901BLE68-01(48591DE3C19B)	-0.322	-0.910	0.261	5.676	3.784	-4.028	-74.39	18.87	-19.15	-47.236	-25.480	86.926	-0.78754	0.57358	-0.22397	0.02216	30.2	13111	100
2025-3-27 20:26:59.755	WT901BLE68-01(48591DE3C19B)	-0.322	-0.901	0.261	6.470	4.333	-3.906	-74.34	18.85	-19.22	-47.236	-25.480	86.926	-0.78754	0.57358	-0.22397	0.02216	30.2	13111	100
2025-3-27 20:26:59.755	WT901BLE68-01(48591DE3C19B)	-0.317	-0.901	0.261	6.470	4.333	-3.906	-74.29	18.83	-19.28	-47.236	-25.480	86.926	-0.78754	0.57358	-0.22397	0.02216	30.2	13111	100
2025-3-27 20:26:59.814	WT901BLE68-01(48591DE3C19B)	-0.317	-0.892	0.258	6.531	4.272	-3.540	-74.24	18.80	-19.35	-47.236	-25.480	86.926	-0.78754	0.57358	-0.22397	0.02216	30.2	13111	100
2025-3-27 20:26:59.815	WT901BLE68-01(48591DE3C19B)	-0.313	-0.892	0.258	6.531	4.272	-3.540	-74.19	18.78	-19.41	-47.236	-25.480	86.926	-0.78754	0.57358	-0.22397	0.02216	30.2	13111	100
2025-3-27 20:26:59.815	WT901BLE68-01(48591DE3C19B)	-0.313	-0.894	0.252	6.592	4.578	-2.991	-74.14	18.76	-19.47	-47.236	-25.480	86.926	-0.78754	0.57358	-0.22397	0.02216	30.2	13111	100
2025-3-27 20:26:59.815	WT901BLE68-01(48591DE3C19B)	-0.307	-0.894	0.252	6.592	4.578	-2.991	-74.09	18.75	-19.53	-47.236	-25.480	86.926	-0.78754	0.57358	-0.22397	0.02216	30.2	13111	100
2025-3-27 20:26:59.844	WT901BLE68-01(48591DE3C19B)	-0.307	-0.892	0.251	6.775	5.127	-2.502	-74.04	18.73	-19.60	-47.236	-25.480	86.926	-0.78754	0.57358	-0.22397	0.02216	30.2	13111	100
2025-3-27 20:26:59.844	WT901BLE68-01(48591DE3C19B)	-0.299	-0.892	0.251	6.775	5.127	-2.502	-73.99	18.73	-19.67	-47.236	-25.480	86.926	-0.78754	0.57358	-0.22397	0.02216	30.2	13111	100
2025-3-27 20:26:59.845	WT901BLE68-01(48591DE3C19B)	-0.299	-0.897	0.251	6.775	6.287	-1.831	-73.95	18.72	-19.74	-47.236	-25.480	86.926	-0.78754	0.57358	-0.22397	0.02216	30.2	13111	100
2025-3-27 20:26:59.845	WT901BLE68-01(48591DE3C19B)	-0.290	-0.897	0.251	6.775	6.287	-1.831	-73.90	18.72	-19.82	-47.236	-25.480	86.926	-0.78754	0.57358	-0.22397	0.02216	30.2	13111	100
2025-3-27 20:26:59.877	WT901BLE68-01(48591DE3C19B)	-0.290	-0.906	0.250	7.019	8.545	-0.916	-73.86	18.73	-19.91	-47.236	-25.480	86.926	-0.78754	0.57358	-0.22397	0.02216	30.2	13111	100
2025-3-27 20:26:59.877	WT901BLE68-01(48591DE3C19B)	-0.279	-0.906	0.250	7.019	8.545	-0.916	-73.82	18.74	-20.01	-47.236	-25.480	86.926	-0.78754	0.57358	-0.22397	0.02216	30.2	13111	100
2025-3-27 20:26:59.877	WT901BLE68-01(48591DE3C19B)	-0.279	-0.895	0.246	7.263	11.536	0.183	-73.78	18.76	-20.12	-47.236	-25.480	86.926	-0.78754	0.57358	-0.22397	0.02216	30.2	13111	100
2025-3-27 20:26:59.877	WT901BLE68-01(48591DE3C19B)	-0.275	-0.895	0.246	7.263	11.536	0.183	-73.75	18.79	-20.25	-47.236	-25.480	86.926	-0.78754	0.57358	-0.22397	0.02216	30.2	13111	100
2025-3-27 20:26:59.935	WT901BLE68-01(48591DE3C19B)	-0.275	-0.892	0.243	6.042	14.465	0.916	-73.73	18.83	-20.39	-47.236	-25.480	86.926	-0.78754	0.57358	-0.22397	0.02216	30.2	13111	100
2025-3-27 20:26:59.935	WT901BLE68-01(48591DE3C19B)	-0.287	-0.892	0.243	6.042	14.465	0.916	-73.72	18.87	-20.54	-47.236	-25.480	86.926	-0.79410	0.55862	-0.23511	0.04437	30.2	13111	100
2025-3-27 20:26:59.935	WT901BLE68-01(48591DE3C19B)	-0.287	-0.911	0.245	4.089	15.747	0.793	-73.72	18.91	-20.70	-47.236	-25.480	86.926	-0.79410	0.55862	-0.23511	0.04437	30.2	13111	100
2025-3-27 20:26:59.935	WT901BLE68-01(48591DE3C19B)	-0.308	-0.911	0.245	4.089	15.747	0.793	-73.73	18.96	-20.87	-47.236	-25.480	86.926	-0.79410	0.55862	-0.23511	0.04437	30.2	13111	100
2025-3-27 20:26:59.965	WT901BLE68-01(48591DE3C19B)	-0.308	-0.948	0.254	1.587	14.709	-0.916	-73.76	18.99	-21.03	-47.236	-25.480	86.926	-0.79410	0.55862	-0.23511	0.04437	30.2	13111	100
2025-3-27 20:26:59.966	WT901BLE68-01(48591DE3C19B)	-0.327	-0.948	0.254	1.587	14.709	-0.916	-73.80	19.02	-21.19	-47.236	-25.480	86.926	-0.79410	0.55862	-0.23511	0.04437	30.2	13111	100
2025-3-27 20:26:59.966	WT901BLE68-01(48591DE3C19B)	-0.327	-0.990	0.272	-0.244	11.841	-4.150	-73.84	19.02	-21.35	-47.236	-25.480	86.926	-0.79410	0.55862	-0.23511	0.04437	30.2	13111	100
2025-3-27 20:26:59.966	WT901BLE68-01(48591DE3C19B)	-0.334	-0.990	0.272	-0.244	11.841	-4.150	-73.89	19.01	-21.48	-47.236	-25.480	86.926	-0.79410	0.55862	-0.23511	0.04437	30.2	13111	100
2025-3-27 20:26:59.994	WT901BLE68-01(48591DE3C19B)	-0.334	-0.990	0.291	-0.549	8.911	-7.629	-73.94	18.97	-21.62	-47.236	-25.480	86.926	-0.79410	0.55862	-0.23511	0.04437	30.2	13111	100
2025-3-27 20:26:59.994	WT901BLE68-01(48591DE3C19B)	-0.323	-0.990	0.291	-0.549	8.911	-7.629	-73.99	18.91	-21.74	-47.236	-25.480	86.926	-0.79410	0.55862	-0.23511	0.04437	30.2	13111	100
2025-3-27 20:26:59.994	WT901BLE68-01(48591DE3C19B)	-0.323	-0.942	0.296	-0.122	8.423	-10.925	-74.03	18.84	-21.86	-47.236	-25.480	86.926	-0.79410	0.55862	-0.23511	0.04437	30.2	13111	100
2025-3-27 20:26:59.995	WT901BLE68-01(48591DE3C19B)	-0.313	-0.942	0.296	-0.122	8.423	-10.925	-74.07	18.75	-21.98	-47.236	-25.480	86.926	-0.79410	0.55862	-0.23511	0.04437	30.2	13111	100
2025-3-27 20:27:0.54	WT901BLE68-01(48591DE3C19B)	-0.313	-0.888	0.289	0.061	10.010	-13.794	-74.11	18.65	-22.11	-47.236	-25.480	86.926	-0.79410	0.55862	-0.23511	0.04437	30.2	13111	100
2025-3-27 20:27:0.54	WT901BLE68-01(48591DE3C19B)	-0.311	-0.888	0.289	0.061	10.010	-13.794	-74.15	18.54	-22.26	-47.236	-25.480	86.926	-0.79410	0.55862	-0.23511	0.04437	30.2	13111	100
2025-3-27 20:27:0.54	WT901BLE68-01(48591DE3C19B)	-0.311	-0.843	0.282	0.488	12.817	-16.235	-74.20	18.42	-22.42	-47.236	-25.480	86.926	-0.79410	0.55862	-0.23511	0.04437	30.2	13111	100
2025-3-27 20:27:0.54	WT901BLE68-01(48591DE3C19B)	-0.315	-0.843	0.282	0.488	12.817	-16.235	-74.25	18.30	-22.60	-47.236	-25.480	86.926	-0.79410	0.55862	-0.23511	0.04437	30.2	13111	100
2025-3-27 20:27:0.115	WT901BLE68-01(48591DE3C19B)	-0.315	-0.813	0.283	0.732	15.198	-18.555	-74.29	18.17	-22.79	-47.236	-25.480	86.926	-0.79410	0.55862	-0.23511	0.04437	30.2	13111	100
2025-3-27 20:27:0.115	WT901BLE68-01(48591DE3C19B)	-0.328	-0.813	0.283	0.732	15.198	-18.555	-74.34	18.04	-22.99	-47.236	-25.480	86.926	-0.79410	0.55862	-0.23511	0.04437	30.2	13111	100
2025-3-27 20:27:0.115	WT901BLE68-01(48591DE3C19B)	-0.328	-0.802	0.292	1.099	16.113	-20.813	-74.39	17.90	-23.20	-47.236	-25.480	86.926	-0.79410	0.55862	-0.23511	0.04437	30.2	13111	100
2025-3-27 20:27:0.115	WT901BLE68-01(48591DE3C19B)	-0.349	-0.802	0.292	1.099	16.113	-20.813	-74.43	17.74	-23.42	-47.236	-25.480	86.926	-0.79410	0.55862	-0.23511	0.04437	30.2	13111	100
2025-3-27 20:27:0.116	WT901BLE68-01(48591DE3C19B)	-0.349	-0.802	0.300	1.648	15.808	-22.644	-74.47	17.58	-23.64	-47.236	-25.480	86.926	-0.79410	0.55862	-0.23511	0.04437	30.2	13111	100
2025-3-27 20:27:0.116	WT901BLE68-01(48591DE3C19B)	-0.359	-0.802	0.300	1.648	15.808	-22.644	-74.51	17.42	-23.85	-47.236	-25.480	86.926	-0.79410	0.55862	-0.23511	0.04437	30.2	13111	100
2025-3-27 20:27:0.116	WT901BLE68-01(48591DE3C19B)	-0.359	-0.812	0.306	1.831	14.954	-23.865	-74.54	17.25	-24.06	-50.568	-23.520	87.612	-0.79410	0.55862	-0.23511	0.04437	30.2	13111	100
2025-3-27 20:27:0.116	WT901BLE68-01(48591DE3C19B)	-0.362	-0.812	0.306	1.831	14.954	-23.865	-74.57	17.08	-24.27	-50.568	-23.520	87.612	-0.79410	0.55862	-0.23511	0.04437	30.2	13111	100
2025-3-27 20:27:0.175	WT901BLE68-01(48591DE3C19B)	-0.362	-0.819	0.313	2.258	14.587	-24.231	-74.59	16.90	-24.47	-50.568	-23.520	87.612	-0.79410	0.55862	-0.23511	0.04437	30.2	13111	100
2025-3-27 20:27:0.175	WT901BLE68-01(48591DE3C19B)	-0.373	-0.819	0.313	2.258	14.587	-24.231	-74.61	16.73	-24.66	-50.568	-23.520	87.612	-0.79410	0.55862	-0.23511	0.04437	30.2	13111	100
2025-3-27 20:27:0.175	WT901BLE68-01(48591DE3C19B)	-0.373	-0.815	0.321	2.625	14.709	-23.926	-74.63	16.56	-24.86	-50.568	-23.520	87.612	-0.79410	0.55862	-0.23511	0.04437	30.2	13111	100
2025-3-27 20:27:0.175	WT901BLE68-01(48591DE3C19B)	-0.377	-0.815	0.321	2.625	14.709	-23.926	-74.64	16.40	-25.06	-50.568	-23.520	87.612	-0.79410	0.55862	-0.23511	0.04437	30.2	13111	100
2025-3-27 20:27:0.204	WT901BLE68-01(48591DE3C19B)	-0.377	-0.801	0.325	2.197	14.221	-23.071	-74.65	16.24	-25.25	-50.568	-23.520	87.612	-0.79410	0.55862	-0.23511	0.04437	30.2	13111	100
2025-3-27 20:27:0.204	WT901BLE68-01(48591DE3C19B)	-0.375	-0.801	0.325	2.197	14.221	-23.071	-74.66	16.08	-25.43	-50.568	-23.520	87.612	-0.79410	0.55862	-0.23511	0.04437	30.2	13111	100
2025-3-27 20:27:0.204	WT901BLE68-01(48591DE3C19B)	-0.375	-0.795	0.321	1.221	14.221	-22.156	-74.68	15.94	-25.61	-50.568	-23.520	87.612	-0.79410	0.55862	-0.23511	0.04437	30.2	13111	100
2025-3-27 20:27:0.204	WT901BLE68-01(48591DE3C19B)	-0.375	-0.795	0.321	1.221	14.221	-22.156	-74.70	15.80	-25.79	-50.568	-23.520	87.612	-0.79410	0.55862	-0.23511	0.04437	30.2	13111	100
2025-3-27 20:27:0.234	WT901BLE68-01(48591DE3C19B)	-0.375	-0.795	0.317	0.671	14.526	-21.790	-74.72	15.67	-25.97	-50.568	-23.520	87.612	-0.79410	0.55862	-0.23511	0.04437	30.2	13111	100
2025-3-27 20:27:0.234	WT901BLE68-01(48591DE3C19B)	-0.379	-0.795	0.317	0.671	14.526	-21.790	-74.73	15.54	-26.15	-50.568	-23.520	87.612	-0.79410	0.55862	-0.23511	0.04437	30.2	13111	100
2025-3-27 20:27:0.234	WT901BLE68-01(48591DE3C19B)	-0.379	-0.793	0.320	0.427	13.123	-21.973	-74.75	15.40	-26.31	-50.568	-23.520	87.612	-0.79410	0.55862	-0.23511	0.04437	30.2	13111	100
2025-3-27 20:27:0.234	WT901BLE68-01(48591DE3C19B)	-0.395	-0.793	0.320	0.427	13.123	-21.973	-74.77	15.27	-26.47	-50.568	-23.520	87.612	-0.79410	0.55862	-0.23511	0.04437	30.2	13111	100
2025-3-27 20:27:0.294	WT901BLE68-01(48591DE3C19B)	-0.395	-0.782	0.323	0.305	10.315	-22.644	-74.78	15.12	-26.60	-50.568	-23.520	87.612	-0.79410	0.55862	-0.23511	0.04437	30.2	13111	100
2025-3-27 20:27:0.295	WT901BLE68-01(48591DE3C19B)	-0.408	-0.782	0.323	0.305	10.315	-22.644	-74.78	14.98	-26.74	-50.568	-23.520	87.612	-0.79410	0.55862	-0.23511	0.04437	30.2	13111	100
2025-3-27 20:27:0.295	WT901BLE68-01(48591DE3C19B)	-0.408	-0.785	0.323	-0.488	5.432	-23.254	-74.79	14.83	-26.82	-50.568	-23.520	87.612	-0.79410	0.55862	-0.23511	0.04437	30.2	13111	100
2025-3-27 20:27:0.295	WT901BLE68-01(48591DE3C19B)	-0.418	-0.785	0.323	-0.488	5.432	-23.254	-74.79	14.67	-26.90	-50.568	-23.520	87.612	-0.79410	0.55862	-0.23511	0.04437	30.2	13111	100
2025-3-27 20:27:0.323	WT901BLE68-01(48591DE3C19B)	-0.418	-0.792	0.324	-0.732	-1.038	-22.766	-74.78	14.50	-26.92	-50.568	-23.520	87.612	-0.78433	0.56247	-0.23770	0.10886	30.2	13111	100
2025-3-27 20:27:0.323	WT901BLE68-01(48591DE3C19B)	-0.417	-0.792	0.324	-0.732	-1.038	-22.766	-74.77	14.34	-26.93	-50.568	-23.520	87.612	-0.78433	0.56247	-0.23770	0.10886	30.2	13111	100
2025-3-27 20:27:0.323	WT901BLE68-01(48591DE3C19B)	-0.417	-0.783	0.324	-0.549	-6.409	-20.996	-74.73	14.18	-26.88	-50.568	-23.520	87.612	-0.78433	0.56247	-0.23770	0.10886	30.2	13111	100
2025-3-27 20:27:0.323	WT901BLE68-01(48591DE3C19B)	-0.394	-0.783	0.324	-0.549	-6.409	-20.996	-74.71	14.02	-26.84	-50.568	-23.520	87.612	-0.78433	0.56247	-0.23770	0.10886	30.2	13111	100
2025-3-27 20:27:0.354	WT901BLE68-01(48591DE3C19B)	-0.394	-0.739	0.317	0.122	-7.080	-17.029	-74.66	13.91	-26.77	-50.568	-23.520	87.612	-0.78433	0.56247	-0.23770	0.10886	30.2	13111	100
2025-3-27 20:27:0.354	WT901BLE68-01(48591DE3C19B)	-0.383	-0.739	0.317	0.122	-7.080	-17.029	-74.62	13.79	-26.71	-50.568	-23.520	87.612	-0.78433	0.56247	-0.23770	0.10886	30.2	13111	100
2025-3-27 20:27:0.355	WT901BLE68-01(48591DE3C19B)	-0.383	-0.693	0.301	0.671	-4.395	-11.414	-74.58	13.74	-26.66	-50.568	-23.520	87.612	-0.78433	0.56247	-0.23770	0.10886	30.2	13111	100
2025-3-27 20:27:0.355	WT901BLE68-01(48591DE3C19B)	-0.372	-0.693	0.301	0.671	-4.395	-11.414	-74.54	13.68	-26.60	-50.568	-23.520	87.612	-0.78433	0.56247	-0.23770	0.10886	30.2	13111	100
2025-3-27 20:27:0.414	WT901BLE68-01(48591DE3C19B)	-0.372	-0.656	0.287	0.000	-3.418	-4.944	-74.50	13.70	-26.54	-50.568	-23.520	87.612	-0.78433	0.56247	-0.23770	0.10886	30.2	13111	100
2025-3-27 20:27:0.415	WT901BLE68-01(48591DE3C19B)	-0.367	-0.656	0.287	0.000	-3.418	-4.944	-74.46	13.72	-26.48	-50.568	-23.520	87.612	-0.78433	0.56247	-0.23770	0.10886	30.2	13111	100
2025-3-27 20:27:0.415	WT901BLE68-01(48591DE3C19B)	-0.367	-0.638	0.264	-1.404	-4.517	1.099	-74.43	13.79	-26.38	-50.568	-23.520	87.612	-0.78433	0.56247	-0.23770	0.10886	30.2	13111	100
2025-3-27 20:27:0.415	WT901BLE68-01(48591DE3C19B)	-0.371	-0.638	0.264	-1.404	-4.517	1.099	-74.39	13.86	-26.30	-50.568	-23.520	87.612	-0.78433	0.56247	-0.23770	0.10886	30.2	13111	100
2025-3-27 20:27:0.444	WT901BLE68-01(48591DE3C19B)	-0.371	-0.646	0.250	-3.540	-5.920	5.676	-74.38	13.97	-26.17	-50.568	-23.520	87.612	-0.78433	0.56247	-0.23770	0.10886	30.2	13111	100
2025-3-27 20:27:0.444	WT901BLE68-01(48591DE3C19B)	-0.383	-0.646	0.250	-3.540	-5.920	5.676	-74.36	14.09	-26.05	-50.568	-23.520	87.612	-0.78433	0.56247	-0.23770	0.10886	30.2	13111	100
2025-3-27 20:27:0.444	WT901BLE68-01(48591DE3C19B)	-0.383	-0.686	0.247	-5.249	-8.301	7.629	-74.36	14.22	-25.91	-50.568	-23.520	87.612	-0.78433	0.56247	-0.23770	0.10886	30.2	13111	100
2025-3-27 20:27:0.444	WT901BLE68-01(48591DE3C19B)	-0.400	-0.686	0.247	-5.249	-8.301	7.629	-74.36	14.34	-25.76	-50.568	-23.520	87.612	-0.78433	0.56247	-0.23770	0.10886	30.2	13111	100
2025-3-27 20:27:0.476	WT901BLE68-01(48591DE3C19B)	-0.400	-0.741	0.249	-6.653	-13.062	7.507	-74.36	14.45	-25.56	-50.568	-23.520	87.612	-0.78433	0.56247	-0.23770	0.10886	30.2	13111	100
2025-3-27 20:27:0.476	WT901BLE68-01(48591DE3C19B)	-0.409	-0.741	0.249	-6.653	-13.062	7.507	-74.36	14.57	-25.36	-50.568	-23.520	87.612	-0.78433	0.56247	-0.23770	0.10886	30.2	13111	100
2025-3-27 20:27:0.476	WT901BLE68-01(48591DE3C19B)	-0.409	-0.810	0.254	-7.935	-18.005	5.981	-74.36	14.65	-25.12	-50.568	-23.520	87.612	-0.78433	0.56247	-0.23770	0.10886	30.2	13111	100
2025-3-27 20:27:0.476	WT901BLE68-01(48591DE3C19B)	-0.416	-0.810	0.254	-7.935	-18.005	5.981	-74.37	14.73	-24.88	-50.568	-23.520	87.612	-0.78433	0.56247	-0.23770	0.10886	30.2	13111	100
2025-3-27 20:27:0.534	WT901BLE68-01(48591DE3C19B)	-0.416	-0.897	0.266	-7.996	-19.653	3.784	-74.38	14.78	-24.64	-50.568	-23.520	87.612	-0.78433	0.56247	-0.23770	0.10886	30.2	13111	100
2025-3-27 20:27:0.534	WT901BLE68-01(48591DE3C19B)	-0.413	-0.897	0.266	-7.996	-19.653	3.784	-74.38	14.84	-24.39	-50.274	-22.344	87.024	-0.78433	0.56247	-0.23770	0.10886	30.2	13111	100
2025-3-27 20:27:0.534	WT901BLE68-01(48591DE3C19B)	-0.413	-0.957	0.275	-6.104	-17.029	2.014	-74.38	14.88	-24.18	-50.274	-22.344	87.024	-0.78433	0.56247	-0.23770	0.10886	30.2	13111	100
2025-3-27 20:27:0.535	WT901BLE68-01(48591DE3C19B)	-0.401	-0.957	0.275	-6.104	-17.029	2.014	-74.38	14.91	-23.97	-50.274	-22.344	87.024	-0.78433	0.56247	-0.23770	0.10886	30.2	13111	100
2025-3-27 20:27:0.565	WT901BLE68-01(48591DE3C19B)	-0.401	-0.960	0.271	-3.296	-11.780	3.723	-74.37	14.98	-23.81	-50.274	-22.344	87.024	-0.78433	0.56247	-0.23770	0.10886	30.2	13111	100
2025-3-27 20:27:0.565	WT901BLE68-01(48591DE3C19B)	-0.364	-0.960	0.271	-3.296	-11.780	3.723	-74.36	15.04	-23.65	-50.274	-22.344	87.024	-0.78433	0.56247	-0.23770	0.10886	30.2	13111	100
2025-3-27 20:27:0.565	WT901BLE68-01(48591DE3C19B)	-0.364	-0.865	0.255	-1.282	-3.662	9.827	-74.34	15.18	-23.55	-50.274	-22.344	87.024	-0.78433	0.56247	-0.23770	0.10886	30.2	13111	100
2025-3-27 20:27:0.565	WT901BLE68-01(48591DE3C19B)	-0.335	-0.865	0.255	-1.282	-3.662	9.827	-74.33	15.32	-23.46	-50.274	-22.344	87.024	-0.78433	0.56247	-0.23770	0.10886	30.2	13111	100
2025-3-27 20:27:0.594	WT901BLE68-01(48591DE3C19B)	-0.335	-0.756	0.250	-1.587	3.845	18.860	-74.33	15.56	-23.42	-50.274	-22.344	87.024	-0.78433	0.56247	-0.23770	0.10886	30.2	13111	100
2025-3-27 20:27:0.594	WT901BLE68-01(48591DE3C19B)	-0.319	-0.756	0.250	-1.587	3.845	18.860	-74.33	15.80	-23.37	-50.274	-22.344	87.024	-0.78433	0.56247	-0.23770	0.10886	30.2	13111	100
2025-3-27 20:27:0.594	WT901BLE68-01(48591DE3C19B)	-0.319	-0.652	0.252	-3.479	4.883	29.785	-74.34	16.15	-23.31	-50.274	-22.344	87.024	-0.78433	0.56247	-0.23770	0.10886	30.2	13111	100
2025-3-27 20:27:0.595	WT901BLE68-01(48591DE3C19B)	-0.305	-0.652	0.252	-3.479	4.883	29.785	-74.36	16.50	-23.25	-50.274	-22.344	87.024	-0.78433	0.56247	-0.23770	0.10886	30.2	13111	100
2025-3-27 20:27:0.655	WT901BLE68-01(48591DE3C19B)	-0.305	-0.596	0.228	-10.620	-1.953	39.978	-74.40	16.92	-23.08	-50.274	-22.344	87.024	-0.78433	0.56247	-0.23770	0.10886	30.2	13111	100
2025-3-27 20:27:0.655	WT901BLE68-01(48591DE3C19B)	-0.303	-0.596	0.228	-10.620	-1.953	39.978	-74.45	17.34	-22.92	-50.274	-22.344	87.024	-0.78433	0.56247	-0.23770	0.10886	30.2	13111	100
2025-3-27 20:27:0.655	WT901BLE68-01(48591DE3C19B)	-0.386	-0.700	0.197	-20.996	-13.062	44.250	-74.58	17.78	-22.64	-50.274	-22.344	87.024	-0.78433	0.56247	-0.23770	0.10886	30.2	13111	100
2025-3-27 20:27:0.655	WT901BLE68-01(48591DE3C19B)	-0.386	-1.002	0.238	-31.067	-33.325	36.804	-74.71	18.14	-22.26	-50.274	-22.344	87.024	-0.78433	0.56247	-0.23770	0.10886	30.2	13111	100
2025-3-27 20:27:0.684	WT901BLE68-01(48591DE3C19B)	-0.569	-1.002	0.238	-31.067	-33.325	36.804	-74.87	18.44	-21.80	-50.274	-22.344	87.024	-0.78433	0.56247	-0.23770	0.10886	30.2	13111	100
2025-3-27 20:27:0.684	WT901BLE68-01(48591DE3C19B)	-2.278	-1.549	0.325	-32.776	-64.575	24.536	-74.99	18.63	-21.19	-50.274	-22.344	87.024	-0.78433	0.56247	-0.23770	0.10886	30.2	13111	100
2025-3-27 20:27:0.684	WT901BLE68-01(48591DE3C19B)	-0.504	-6.198	1.299	-32.776	-64.575	24.536	-75.09	18.73	-20.46	-50.274	-22.344	87.024	-0.78433	0.56247	-0.23770	0.10886	30.2	13111	100
2025-3-27 20:27:0.684	WT901BLE68-01(48591DE3C19B)	-0.504	-1.824	0.331	-12.756	-86.365	18.494	-75.05	18.75	-19.62	-50.274	-22.344	87.024	-0.78433	0.56247	-0.23770	0.10886	30.2	13111	100
2025-3-27 20:27:0.715	WT901BLE68-01(48591DE3C19B)	-0.290	-1.824	0.331	-12.756	-86.365	18.494	-74.89	18.72	-18.69	-50.274	-22.344	87.024	-0.78433	0.56247	-0.23770	0.10886	30.2	13111	100
2025-3-27 20:27:0.715	WT901BLE68-01(48591DE3C19B)	-0.290	-1.678	0.223	5.493	-70.190	20.508	-74.67	18.71	-17.85	-50.274	-22.344	87.024	-0.78433	0.56247	-0.23770	0.10886	30.2	13111	100
2025-3-27 20:27:0.715	WT901BLE68-01(48591DE3C19B)	-0.195	-1.678	0.223	5.493	-70.190	20.508	-74.38	18.72	-17.09	-50.274	-22.344	87.024	-0.79184	0.57053	-0.21674	0.01956	30.2	13111	100
2025-3-27 20:27:0.715	WT901BLE68-01(48591DE3C19B)	-0.195	-1.460	0.133	21.362	-30.640	24.170	-74.09	18.79	-16.53	-50.274	-22.344	87.024	-0.79184	0.57053	-0.21674	0.01956	30.2	13111	100
2025-3-27 20:27:0.774	WT901BLE68-01(48591DE3C19B)	-0.158	-1.460	0.133	21.362	-30.640	24.170	-73.78	18.93	-16.18	-50.274	-22.344	87.024	-0.79184	0.57053	-0.21674	0.01956	30.2	13111	100
2025-3-27 20:27:0.775	WT901BLE68-01(48591DE3C19B)	-0.158	-1.240	0.112	24.475	6.958	30.945	-73.52	19.15	-16.00	-50.274	-22.344	87.024	-0.79184	0.57053	-0.21674	0.01956	30.2	13111	100
2025-3-27 20:27:0.775	WT901BLE68-01(48591DE3C19B)	-0.120	-1.240	0.112	24.475	6.958	30.945	-73.30	19.45	-16.01	-50.274	-22.344	87.024	-0.79184	0.57053	-0.21674	0.01956	30.2	13111	100
2025-3-27 20:27:0.775	WT901BLE68-01(48591DE3C19B)	-0.120	-1.053	0.139	15.198	27.466	38.635	-73.17	19.80	-16.11	-50.274	-22.344	87.024	-0.79184	0.57053	-0.21674	0.01956	30.2	13111	100
2025-3-27 20:27:0.804	WT901BLE68-01(48591DE3C19B)	-0.078	-1.053	0.139	15.198	27.466	38.635	-73.11	20.23	-16.30	-50.274	-22.344	87.024	-0.79184	0.57053	-0.21674	0.01956	30.2	13111	100
2025-3-27 20:27:0.804	WT901BLE68-01(48591DE3C19B)	-0.078	-0.962	0.187	2.380	40.833	38.330	-73.15	20.65	-16.56	-50.274	-22.344	87.024	-0.79184	0.57053	-0.21674	0.01956	30.2	13111	100
2025-3-27 20:27:0.804	WT901BLE68-01(48591DE3C19B)	-0.144	-0.962	0.187	2.380	40.833	38.330	-73.28	21.10	-16.90	-50.274	-22.344	87.024	-0.79184	0.57053	-0.21674	0.01956	30.2	13111	100
2025-3-27 20:27:0.804	WT901BLE68-01(48591DE3C19B)	-0.144	-0.908	0.210	-3.052	54.749	32.654	-73.46	21.53	-17.31	-50.274	-22.344	87.024	-0.79184	0.57053	-0.21674	0.01956	30.2	13111	100
2025-3-27 20:27:0.864	WT901BLE68-01(48591DE3C19B)	-0.227	-0.908	0.210	-3.052	54.749	32.654	-73.71	21.94	-17.81	-50.274	-22.344	87.024	-0.79184	0.57053	-0.21674	0.01956	30.2	13111	100
2025-3-27 20:27:0.864	WT901BLE68-01(48591DE3C19B)	-0.227	-0.849	0.198	-7.080	56.519	25.757	-73.98	22.32	-18.33	-50.274	-22.344	87.024	-0.79184	0.57053	-0.21674	0.01956	30.2	13111	100
2025-3-27 20:27:0.864	WT901BLE68-01(48591DE3C19B)	-0.271	-0.849	0.198	-7.080	56.519	25.757	-74.28	22.66	-18.87	-50.274	-22.344	87.024	-0.79184	0.57053	-0.21674	0.01956	30.2	13111	100
2025-3-27 20:27:0.864	WT901BLE68-01(48591DE3C19B)	-0.271	-0.773	0.171	-7.874	52.734	18.372	-74.58	22.96	-19.40	-50.274	-22.344	87.024	-0.79184	0.57053	-0.21674	0.01956	30.2	13111	100
2025-3-27 20:27:0.896	WT901BLE68-01(48591DE3C19B)	-0.331	-0.773	0.171	-7.874	52.734	18.372	-74.88	23.22	-19.92	-50.274	-22.344	87.024	-0.79184	0.57053	-0.21674	0.01956	30.2	13111	100
2025-3-27 20:27:0.896	WT901BLE68-01(48591DE3C19B)	-0.331	-0.690	0.138	-8.667	37.048	9.827	-75.16	23.42	-20.37	-50.274	-22.344	87.024	-0.79184	0.57053	-0.21674	0.01956	30.2	13111	100
2025-3-27 20:27:0.896	WT901BLE68-01(48591DE3C19B)	-0.334	-0.690	0.138	-8.667	37.048	9.827	-75.42	23.55	-20.75	-50.274	-22.344	87.024	-0.79184	0.57053	-0.21674	0.01956	30.2	13111	100
2025-3-27 20:27:0.896	WT901BLE68-01(48591DE3C19B)	-0.334	-0.646	0.121	-11.536	6.775	4.456	-75.62	23.63	-20.97	-50.274	-22.344	87.024	-0.79184	0.57053	-0.21674	0.01956	30.2	13111	100
2025-3-27 20:27:0.926	WT901BLE68-01(48591DE3C19B)	-0.292	-0.646	0.121	-11.536	6.775	4.456	-75.78	23.64	-21.03	-50.274	-22.344	87.024	-0.79184	0.57053	-0.21674	0.01956	30.2	13111	100
2025-3-27 20:27:0.927	WT901BLE68-01(48591DE3C19B)	-0.292	-0.640	0.114	-11.536	-22.400	2.808	-75.88	23.62	-20.94	-50.274	-22.344	87.024	-0.79184	0.57053	-0.21674	0.01956	30.2	13111	100
2025-3-27 20:27:0.927	WT901BLE68-01(48591DE3C19B)	-0.259	-0.640	0.114	-11.536	-22.400	2.808	-75.92	23.55	-20.70	-44.688	-28.420	84.966	-0.79184	0.57053	-0.21674	0.01956	30.2	13111	100
2025-3-27 20:27:0.927	WT901BLE68-01(48591DE3C19B)	-0.259	-0.631	0.125	-9.399	-40.771	3.296	-75.91	23.47	-20.36	-44.688	-28.420	84.966	-0.79184	0.57053	-0.21674	0.01956	30.2	13111	100
2025-3-27 20:27:0.984	WT901BLE68-01(48591DE3C19B)	-0.252	-0.631	0.125	-9.399	-40.771	3.296	-75.85	23.37	-19.92	-44.688	-28.420	84.966	-0.79184	0.57053	-0.21674	0.01956	30.2	13111	100
2025-3-27 20:27:0.984	WT901BLE68-01(48591DE3C19B)	-0.252	-0.649	0.133	-5.859	-51.270	4.578	-75.75	23.26	-19.42	-44.688	-28.420	84.966	-0.79184	0.57053	-0.21674	0.01956	30.2	13111	100
2025-3-27 20:27:0.985	WT901BLE68-01(48591DE3C19B)	-0.213	-0.649	0.133	-5.859	-51.270	4.578	-75.61	23.15	-18.87	-44.688	-28.420	84.966	-0.79184	0.57053	-0.21674	0.01956	30.2	13111	100
2025-3-27 20:27:0.985	WT901BLE68-01(48591DE3C19B)	-0.213	-0.690	0.128	-0.610	-53.406	6.958	-75.44	23.05	-18.31	-44.688	-28.420	84.966	-0.79184	0.57053	-0.21674	0.01956	30.2	13111	100
2025-3-27 20:27:1.15	WT901BLE68-01(48591DE3C19B)	-0.149	-0.690	0.128	-0.610	-53.406	6.958	-75.24	22.96	-17.74	-44.688	-28.420	84.966	-0.79184	0.57053	-0.21674	0.01956	30.2	13111	100
2025-3-27 20:27:1.15	WT901BLE68-01(48591DE3C19B)	-0.149	-0.718	0.129	8.850	-41.016	11.108	-75.03	22.90	-17.24	-44.688	-28.420	84.966	-0.79184	0.57053	-0.21674	0.01956	30.2	13111	100
2025-3-27 20:27:1.15	WT901BLE68-01(48591DE3C19B)	-0.115	-0.718	0.129	8.850	-41.016	11.108	-74.78	22.86	-16.79	-44.688	-28.420	84.966	-0.79184	0.57053	-0.21674	0.01956	30.2	13111	100
2025-3-27 20:27:1.15	WT901BLE68-01(48591DE3C19B)	-0.115	-0.680	0.138	21.851	-16.724	16.663	-74.53	22.89	-16.47	-44.688	-28.420	84.966	-0.79184	0.57053	-0.21674	0.01956	30.2	13111	100
2025-3-27 20:27:1.44	WT901BLE68-01(48591DE3C19B)	-0.113	-0.680	0.138	21.851	-16.724	16.663	-74.25	22.97	-16.27	-44.688	-28.420	84.966	-0.79184	0.57053	-0.21674	0.01956	30.2	13111	100
2025-3-27 20:27:1.44	WT901BLE68-01(48591DE3C19B)	-0.113	-0.570	0.168	33.569	12.085	23.865	-73.97	23.11	-16.21	-44.688	-28.420	84.966	-0.79184	0.57053	-0.21674	0.01956	30.2	13111	100
2025-3-27 20:27:1.44	WT901BLE68-01(48591DE3C19B)	-0.144	-0.570	0.168	33.569	12.085	23.865	-73.69	23.33	-16.29	-44.688	-28.420	84.966	-0.79184	0.57053	-0.21674	0.01956	30.2	13111	100
2025-3-27 20:27:1.44	WT901BLE68-01(48591DE3C19B)	-0.144	-0.488	0.212	39.001	38.208	32.532	-73.43	23.62	-16.50	-44.688	-28.420	84.966	-0.79184	0.57053	-0.21674	0.01956	30.2	13111	100
2025-3-27 20:27:1.135	WT901BLE68-01(48591DE3C19B)	-0.222	-0.488	0.212	39.001	38.208	32.532	-73.19	23.99	-16.81	-44.688	-28.420	84.966	-0.79184	0.57053	-0.21674	0.01956	30.2	13111	100
2025-3-27 20:27:1.135	WT901BLE68-01(48591DE3C19B)	-0.222	-0.524	0.225	34.851	57.190	39.551	-72.99	24.42	-17.22	-44.688	-28.420	84.966	-0.79184	0.57053	-0.21674	0.01956	30.2	13111	100
2025-3-27 20:27:1.135	WT901BLE68-01(48591DE3C19B)	-0.303	-0.524	0.225	34.851	57.190	39.551	-72.86	24.92	-17.71	-44.688	-28.420	84.966	-0.79184	0.57053	-0.21674	0.01956	30.2	13111	100
2025-3-27 20:27:1.135	WT901BLE68-01(48591DE3C19B)	-0.303	-0.740	0.198	24.902	70.801	39.307	-72.81	25.43	-18.27	-44.688	-28.420	84.966	-0.79184	0.57053	-0.21674	0.01956	30.2	13111	100
2025-3-27 20:27:1.136	WT901BLE68-01(48591DE3C19B)	-0.398	-0.740	0.198	24.902	70.801	39.307	-72.84	25.96	-18.90	-44.688	-28.420	84.966	-0.79184	0.57053	-0.21674	0.01956	30.2	13111	100
2025-3-27 20:27:1.136	WT901BLE68-01(48591DE3C19B)	-0.398	-1.061	0.194	14.587	83.130	23.132	-73.08	26.37	-19.70	-44.688	-28.420	84.966	-0.79184	0.57053	-0.21674	0.01956	30.2	13111	100
2025-3-27 20:27:1.136	WT901BLE68-01(48591DE3C19B)	-0.458	-1.061	0.194	14.587	83.130	23.132	-73.31	26.78	-20.52	-44.688	-28.420	84.966	-0.79184	0.57053	-0.21674	0.01956	30.2	13111	100
2025-3-27 20:27:1.136	WT901BLE68-01(48591DE3C19B)	-0.458	-1.377	0.272	16.846	110.046	0.305	-73.70	27.04	-21.69	-44.688	-28.420	84.966	-0.78943	0.53696	-0.29703	0.01154	30.2	13111	100
2025-3-27 20:27:1.166	WT901BLE68-01(48591DE3C19B)	-0.521	-1.377	0.272	16.846	110.046	0.305	-74.09	27.29	-22.86	-44.688	-28.420	84.966	-0.78943	0.53696	-0.29703	0.01154	30.2	13111	100
2025-3-27 20:27:1.166	WT901BLE68-01(48591DE3C19B)	-0.521	-1.505	0.357	24.963	145.142	-21.057	-74.60	27.43	-24.47	-44.688	-28.420	84.966	-0.78943	0.53696	-0.29703	0.01154	30.2	13111	100
2025-3-27 20:27:1.166	WT901BLE68-01(48591DE3C19B)	-0.703	-1.505	0.357	24.963	145.142	-21.057	-75.12	27.54	-26.09	-44.688	-28.420	84.966	-0.78943	0.53696	-0.29703	0.01154	30.2	13111	100
2025-3-27 20:27:1.167	WT901BLE68-01(48591DE3C19B)	-0.703	-1.687	0.332	24.841	165.222	-43.884	-75.77	27.48	-27.97	-44.688	-28.420	84.966	-0.78943	0.53696	-0.29703	0.01154	30.2	13111	100
2025-3-27 20:27:1.224	WT901BLE68-01(48591DE3C19B)	-0.921	-1.687	0.332	24.841	165.222	-43.884	-76.41	27.40	-29.84	-44.688	-28.420	84.966	-0.78943	0.53696	-0.29703	0.01154	30.2	13111	100
2025-3-27 20:27:1.224	WT901BLE68-01(48591DE3C19B)	-0.921	-1.490	0.306	35.461	165.161	-57.068	-76.95	27.19	-31.73	-44.688	-28.420	84.966	-0.78943	0.53696	-0.29703	0.01154	30.2	13111	100
2025-3-27 20:27:1.224	WT901BLE68-01(48591DE3C19B)	-0.909	-1.490	0.306	35.461	165.161	-57.068	-77.49	26.97	-33.61	-44.688	-28.420	84.966	-0.78943	0.53696	-0.29703	0.01154	30.2	13111	100
2025-3-27 20:27:1.224	WT901BLE68-01(48591DE3C19B)	-0.909	-1.119	0.287	32.837	133.362	-50.842	-77.87	26.74	-35.10	-44.688	-28.420	84.966	-0.78943	0.53696	-0.29703	0.01154	30.2	13111	100
2025-3-27 20:27:1.254	WT901BLE68-01(48591DE3C19B)	-0.780	-1.119	0.287	32.837	133.362	-50.842	-78.24	26.50	-36.57	-44.688	-28.420	84.966	-0.78943	0.53696	-0.29703	0.01154	30.2	13111	100
2025-3-27 20:27:1.254	WT901BLE68-01(48591DE3C19B)	-0.780	-0.796	0.246	21.179	84.595	-37.170	-78.47	26.31	-37.47	-44.688	-28.420	84.966	-0.78943	0.53696	-0.29703	0.01154	30.2	13111	100
2025-3-27 20:27:1.254	WT901BLE68-01(48591DE3C19B)	-0.700	-0.796	0.246	21.179	84.595	-37.170	-78.70	26.13	-38.36	-44.688	-28.420	84.966	-0.78943	0.53696	-0.29703	0.01154	30.2	13111	100
2025-3-27 20:27:1.254	WT901BLE68-01(48591DE3C19B)	-0.700	-0.632	0.177	1.953	27.161	-27.283	-78.82	25.94	-38.59	-44.688	-28.420	84.966	-0.78943	0.53696	-0.29703	0.01154	30.2	13111	100
2025-3-27 20:27:1.285	WT901BLE68-01(48591DE3C19B)	-0.692	-0.632	0.177	1.953	27.161	-27.283	-78.95	25.75	-38.82	-44.688	-28.420	84.966	-0.78943	0.53696	-0.29703	0.01154	30.2	13111	100
2025-3-27 20:27:1.285	WT901BLE68-01(48591DE3C19B)	-0.692	-0.646	0.117	-17.700	-32.227	-22.400	-78.99	25.51	-38.39	-44.688	-28.420	84.966	-0.78943	0.53696	-0.29703	0.01154	30.2	13111	100
2025-3-27 20:27:1.285	WT901BLE68-01(48591DE3C19B)	-0.634	-0.646	0.117	-17.700	-32.227	-22.400	-79.04	25.28	-37.96	-44.688	-28.420	84.966	-0.78943	0.53696	-0.29703	0.01154	30.2	13111	100
2025-3-27 20:27:1.285	WT901BLE68-01(48591DE3C19B)	-0.634	-0.745	0.122	-27.893	-76.965	-20.996	-78.98	24.98	-37.04	-44.688	-28.420	84.966	-0.78943	0.53696	-0.29703	0.01154	30.2	13111	100
2025-3-27 20:27:1.343	WT901BLE68-01(48591DE3C19B)	-0.550	-0.745	0.122	-27.893	-76.965	-20.996	-78.93	24.69	-36.12	-44.688	-28.420	84.966	-0.78943	0.53696	-0.29703	0.01154	30.2	13111	100
2025-3-27 20:27:1.344	WT901BLE68-01(48591DE3C19B)	-0.550	-0.788	0.186	-23.254	-93.384	-20.081	-78.77	24.37	-35.04	-55.174	-27.048	87.318	-0.78943	0.53696	-0.29703	0.01154	30.2	13111	100
2025-3-27 20:27:1.344	WT901BLE68-01(48591DE3C19B)	-0.442	-0.788	0.186	-23.254	-93.384	-20.081	-78.61	24.05	-33.96	-55.174	-27.048	87.318	-0.78943	0.53696	-0.29703	0.01154	30.2	13111	100
2025-3-27 20:27:1.344	WT901BLE68-01(48591DE3C19B)	-0.442	-0.712	0.208	-16.296	-80.750	-21.606	-78.45	23.74	-33.04	-55.174	-27.048	87.318	-0.78943	0.53696	-0.29703	0.01154	30.2	13111	100
2025-3-27 20:27:1.373	WT901BLE68-01(48591DE3C19B)	-0.383	-0.712	0.208	-16.296	-80.750	-21.606	-78.28	23.43	-32.11	-55.174	-27.048	87.318	-0.78943	0.53696	-0.29703	0.01154	30.2	13111	100
2025-3-27 20:27:1.373	WT901BLE68-01(48591DE3C19B)	-0.383	-0.594	0.212	-9.399	-54.749	-14.709	-78.16	23.24	-31.46	-55.174	-27.048	87.318	-0.78943	0.53696	-0.29703	0.01154	30.2	13111	100
2025-3-27 20:27:1.373	WT901BLE68-01(48591DE3C19B)	-0.352	-0.594	0.212	-9.399	-54.749	-14.709	-78.04	23.04	-30.81	-55.174	-27.048	87.318	-0.78943	0.53696	-0.29703	0.01154	30.2	13111	100
2025-3-27 20:27:1.373	WT901BLE68-01(48591DE3C19B)	-0.352	-0.438	0.221	-4.272	-33.813	-3.235	-77.94	23.01	-30.36	-55.174	-27.048	87.318	-0.78943	0.53696	-0.29703	0.01154	30.2	13111	100
2025-3-27 20:27:1.403	WT901BLE68-01(48591DE3C19B)	-0.290	-0.438	0.221	-4.272	-33.813	-3.235	-77.84	22.97	-29.90	-55.174	-27.048	87.318	-0.78943	0.53696	-0.29703	0.01154	30.2	13111	100
2025-3-27 20:27:1.404	WT901BLE68-01(48591DE3C19B)	-0.290	-0.258	0.226	-4.456	-19.226	8.728	-77.78	23.09	-29.57	-55.174	-27.048	87.318	-0.78943	0.53696	-0.29703	0.01154	30.2	13111	100
2025-3-27 20:27:1.404	WT901BLE68-01(48591DE3C19B)	-0.277	-0.258	0.226	-4.456	-19.226	8.728	-77.72	23.20	-29.24	-55.174	-27.048	87.318	-0.78943	0.53696	-0.29703	0.01154	30.2	13111	100
2025-3-27 20:27:1.404	WT901BLE68-01(48591DE3C19B)	-0.277	-0.153	0.217	-13.062	-14.832	24.048	-77.74	23.48	-28.92	-55.174	-27.048	87.318	-0.78943	0.53696	-0.29703	0.01154	30.2	13111	100
2025-3-27 20:27:1.495	WT901BLE68-01(48591DE3C19B)	-0.299	-0.153	0.217	-13.062	-14.832	24.048	-77.76	23.77	-28.58	-55.174	-27.048	87.318	-0.78943	0.53696	-0.29703	0.01154	30.2	13111	100
2025-3-27 20:27:1.495	WT901BLE68-01(48591DE3C19B)	-0.299	-0.231	0.188	-27.954	-26.245	35.645	-77.85	24.14	-28.10	-55.174	-27.048	87.318	-0.78943	0.53696	-0.29703	0.01154	30.2	13111	100
2025-3-27 20:27:1.495	WT901BLE68-01(48591DE3C19B)	-0.358	-0.231	0.188	-27.954	-26.245	35.645	-77.94	24.52	-27.60	-55.174	-27.048	87.318	-0.78943	0.53696	-0.29703	0.01154	30.2	13111	100
2025-3-27 20:27:1.495	WT901BLE68-01(48591DE3C19B)	-0.358	-0.505	0.178	-37.476	-42.419	42.786	-78.05	24.94	-26.93	-55.174	-27.048	87.318	-0.78943	0.53696	-0.29703	0.01154	30.2	13111	100
2025-3-27 20:27:1.496	WT901BLE68-01(48591DE3C19B)	-0.371	-0.505	0.178	-37.476	-42.419	42.786	-78.14	25.35	-26.25	-55.174	-27.048	87.318	-0.78943	0.53696	-0.29703	0.01154	30.2	13111	100
2025-3-27 20:27:1.496	WT901BLE68-01(48591DE3C19B)	-0.371	-0.775	0.124	-39.612	-49.988	46.204	-78.22	25.76	-25.49	-55.174	-27.048	87.318	-0.78943	0.53696	-0.29703	0.01154	30.2	13111	100
2025-3-27 20:27:1.496	WT901BLE68-01(48591DE3C19B)	-0.357	-0.775	0.124	-39.612	-49.988	46.204	-78.30	26.17	-24.74	-55.174	-27.048	87.318	-0.78943	0.53696	-0.29703	0.01154	30.2	13111	100
2025-3-27 20:27:1.496	WT901BLE68-01(48591DE3C19B)	-0.357	-1.141	0.082	-37.476	-49.255	38.330	-78.37	26.49	-24.03	-55.174	-27.048	87.318	-0.78943	0.53696	-0.29703	0.01154	30.2	13111	100
2025-3-27 20:27:1.523	WT901BLE68-01(48591DE3C19B)	-0.422	-1.141	0.082	-37.476	-49.255	38.330	-78.45	26.78	-23.34	-55.174	-27.048	87.318	-0.78943	0.53696	-0.29703	0.01154	30.2	13111	100
2025-3-27 20:27:1.523	WT901BLE68-01(48591DE3C19B)	-0.422	-1.719	0.084	-23.438	-43.030	15.564	-78.45	26.86	-22.79	-55.174	-27.048	87.318	-0.78943	0.53696	-0.29703	0.01154	30.2	13111	100
2025-3-27 20:27:1.523	WT901BLE68-01(48591DE3C19B)	-0.461	-1.719	0.084	-23.438	-43.030	15.564	-78.46	26.91	-22.25	-55.174	-27.048	87.318	-0.76797	0.56879	-0.29419	0.00055	30.2	13111	100
2025-3-27 20:27:1.523	WT901BLE68-01(48591DE3C19B)	-0.461	-2.006	0.100	4.395	-29.297	-9.277	-78.30	26.74	-21.93	-55.174	-27.048	87.318	-0.76797	0.56879	-0.29419	0.00055	30.2	13111	100
2025-3-27 20:27:1.584	WT901BLE68-01(48591DE3C19B)	-0.492	-2.006	0.100	4.395	-29.297	-9.277	-78.15	26.55	-21.62	-55.174	-27.048	87.318	-0.76797	0.56879	-0.29419	0.00055	30.2	13111	100
2025-3-27 20:27:1.585	WT901BLE68-01(48591DE3C19B)	-0.408	-1.698	0.143	29.480	-9.644	-13.977	-77.84	26.36	-21.54	-55.174	-27.048	87.318	-0.76797	0.56879	-0.29419	0.00055	30.2	13111	100
2025-3-27 20:27:1.585	WT901BLE68-01(48591DE3C19B)	-0.408	-1.381	0.150	28.198	19.226	-19.653	-77.63	26.16	-21.63	-55.174	-27.048	87.318	-0.76797	0.56879	-0.29419	0.00055	30.2	13111	100
2025-3-27 20:27:1.585	WT901BLE68-01(48591DE3C19B)	-0.386	-1.381	0.150	28.198	19.226	-19.653	-77.50	25.97	-21.88	-55.174	-27.048	87.318	-0.76797	0.56879	-0.29419	0.00055	30.2	13111	100
2025-3-27 20:27:1.613	WT901BLE68-01(48591DE3C19B)	-0.386	-1.211	0.205	26.611	44.189	-18.311	-77.43	25.81	-22.27	-55.174	-27.048	87.318	-0.76797	0.56879	-0.29419	0.00055	30.2	13111	100
2025-3-27 20:27:1.613	WT901BLE68-01(48591DE3C19B)	-0.394	-1.211	0.205	26.611	44.189	-18.311	-77.42	25.69	-22.79	-55.174	-27.048	87.318	-0.76797	0.56879	-0.29419	0.00055	30.2	13111	100
2025-3-27 20:27:1.613	WT901BLE68-01(48591DE3C19B)	-0.394	-0.987	0.276	25.391	43.091	-11.597	-77.41	25.60	-23.29	-55.174	-27.048	87.318	-0.76797	0.56879	-0.29419	0.00055	30.2	13111	100
2025-3-27 20:27:1.613	WT901BLE68-01(48591DE3C19B)	-0.368	-0.987	0.276	25.391	43.091	-11.597	-77.40	25.54	-23.77	-55.174	-27.048	87.318	-0.76797	0.56879	-0.29419	0.00055	30.2	13111	100
2025-3-27 20:27:1.644	WT901BLE68-01(48591DE3C19B)	-0.368	-0.753	0.288	17.761	21.545	-5.127	-77.36	25.49	-24.13	-55.174	-27.048	87.318	-0.76797	0.56879	-0.29419	0.00055	30.2	13111	100
2025-3-27 20:27:1.644	WT901BLE68-01(48591DE3C19B)	-0.296	-0.753	0.288	17.761	21.545	-5.127	-77.31	25.45	-24.36	-55.174	-27.048	87.318	-0.76797	0.56879	-0.29419	0.00055	30.2	13111	100
2025-3-27 20:27:1.644	WT901BLE68-01(48591DE3C19B)	-0.296	-0.645	0.244	8.118	2.319	0.854	-77.25	25.42	-24.47	-55.174	-27.048	87.318	-0.76797	0.56879	-0.29419	0.00055	30.2	13111	100
2025-3-27 20:27:1.644	WT901BLE68-01(48591DE3C19B)	-0.267	-0.645	0.244	8.118	2.319	0.854	-77.18	25.41	-24.47	-55.174	-27.048	87.318	-0.76797	0.56879	-0.29419	0.00055	30.2	13111	100
2025-3-27 20:27:1.764	WT901BLE68-01(48591DE3C19B)	-0.267	-0.597	0.185	10.193	1.526	5.493	-77.11	25.41	-24.46	-55.174	-27.048	87.318	-0.76797	0.56879	-0.29419	0.00055	30.2	13111	100
2025-3-27 20:27:1.765	WT901BLE68-01(48591DE3C19B)	-0.277	-0.597	0.185	10.193	1.526	5.493	-77.01	25.44	-24.44	-55.174	-27.048	87.318	-0.76797	0.56879	-0.29419	0.00055	30.2	13111	100
2025-3-27 20:27:1.765	WT901BLE68-01(48591DE3C19B)	-0.277	-0.529	0.152	16.418	8.789	10.864	-76.89	25.50	-24.45	-55.174	-27.048	87.318	-0.76797	0.56879	-0.29419	0.00055	30.2	13111	100
2025-3-27 20:27:1.765	WT901BLE68-01(48591DE3C19B)	-0.282	-0.529	0.152	16.418	8.789	10.864	-76.76	25.60	-24.49	-55.174	-27.048	87.318	-0.76797	0.56879	-0.29419	0.00055	30.2	13111	100
2025-3-27 20:27:1.766	WT901BLE68-01(48591DE3C19B)	-0.282	-0.462	0.150	24.719	14.954	19.897	-76.60	25.75	-24.55	-55.174	-27.048	87.318	-0.76797	0.56879	-0.29419	0.00055	30.2	13111	100
2025-3-27 20:27:1.766	WT901BLE68-01(48591DE3C19B)	-0.267	-0.462	0.150	24.719	14.954	19.897	-76.40	25.96	-24.64	-55.174	-27.048	87.318	-0.76797	0.56879	-0.29419	0.00055	30.2	13111	100
2025-3-27 20:27:1.766	WT901BLE68-01(48591DE3C19B)	-0.267	-0.331	0.149	33.691	23.132	32.654	-76.17	26.24	-24.74	-55.174	-27.048	87.318	-0.76797	0.56879	-0.29419	0.00055	30.2	13111	100
2025-3-27 20:27:1.766	WT901BLE68-01(48591DE3C19B)	-0.270	-0.331	0.149	33.691	23.132	32.654	-75.90	26.59	-24.87	-50.274	-32.340	84.476	-0.76797	0.56879	-0.29419	0.00055	30.2	13111	100
2025-3-27 20:27:1.767	WT901BLE68-01(48591DE3C19B)	-0.270	-0.258	0.146	33.203	31.006	47.180	-75.65	27.03	-25.01	-50.274	-32.340	84.476	-0.76797	0.56879	-0.29419	0.00055	30.2	13111	100
2025-3-27 20:27:1.767	WT901BLE68-01(48591DE3C19B)	-0.323	-0.258	0.146	33.203	31.006	47.180	-75.41	27.55	-25.17	-50.274	-32.340	84.476	-0.76797	0.56879	-0.29419	0.00055	30.2	13111	100
2025-3-27 20:27:1.767	WT901BLE68-01(48591DE3C19B)	-0.323	-0.366	0.110	24.658	34.546	56.702	-75.21	28.13	-25.33	-50.274	-32.340	84.476	-0.76797	0.56879	-0.29419	0.00055	30.2	13111	100
2025-3-27 20:27:1.767	WT901BLE68-01(48591DE3C19B)	-0.395	-0.366	0.110	24.658	34.546	56.702	-75.06	28.75	-25.49	-50.274	-32.340	84.476	-0.76797	0.56879	-0.29419	0.00055	30.2	13111	100
2025-3-27 20:27:1.824	WT901BLE68-01(48591DE3C19B)	-0.395	-0.532	0.102	17.090	30.090	59.570	-74.94	29.39	-25.61	-50.274	-32.340	84.476	-0.76797	0.56879	-0.29419	0.00055	30.2	13111	100
2025-3-27 20:27:1.824	WT901BLE68-01(48591DE3C19B)	-0.497	-0.532	0.102	17.090	30.090	59.570	-74.84	30.04	-25.70	-50.274	-32.340	84.476	-0.76797	0.56879	-0.29419	0.00055	30.2	13111	100
2025-3-27 20:27:1.824	WT901BLE68-01(48591DE3C19B)	-0.497	-0.732	0.083	2.441	15.015	49.561	-74.79	30.62	-25.72	-50.274	-32.340	84.476	-0.76797	0.56879	-0.29419	0.00055	30.2	13111	100
2025-3-27 20:27:1.824	WT901BLE68-01(48591DE3C19B)	-0.604	-0.732	0.083	2.441	15.015	49.561	-74.78	31.13	-25.67	-50.274	-32.340	84.476	-0.76797	0.56879	-0.29419	0.00055	30.2	13111	100
2025-3-27 20:27:1.884	WT901BLE68-01(48591DE3C19B)	-0.604	-1.088	0.163	-7.324	-1.709	26.367	-74.80	31.51	-25.57	-50.274	-32.340	84.476	-0.76797	0.56879	-0.29419	0.00055	30.2	13111	100
2025-3-27 20:27:1.884	WT901BLE68-01(48591DE3C19B)	-0.703	-1.088	0.163	-7.324	-1.709	26.367	-74.84	31.75	-25.40	-50.274	-32.340	84.476	-0.76797	0.56879	-0.29419	0.00055	30.2	13111	100
2025-3-27 20:27:1.884	WT901BLE68-01(48591DE3C19B)	-0.703	-1.479	0.298	-5.493	-12.634	-20.264	-74.87	31.74	-25.25	-50.274	-32.340	84.476	-0.76797	0.56879	-0.29419	0.00055	30.2	13111	100
2025-3-27 20:27:1.884	WT901BLE68-01(48591DE3C19B)	-0.847	-1.479	0.298	-5.493	-12.634	-20.264	-74.90	31.50	-25.12	-50.274	-32.340	84.476	-0.76797	0.56879	-0.29419	0.00055	30.2	13111	100
2025-3-27 20:27:1.885	WT901BLE68-01(48591DE3C19B)	-0.847	-1.674	0.385	-6.470	-10.498	-55.664	-74.98	31.09	-25.05	-50.274	-32.340	84.476	-0.76797	0.56879	-0.29419	0.00055	30.2	13111	100
2025-3-27 20:27:1.885	WT901BLE68-01(48591DE3C19B)	-1.054	-1.674	0.385	-6.470	-10.498	-55.664	-75.09	30.50	-25.06	-50.274	-32.340	84.476	-0.76797	0.56879	-0.29419	0.00055	30.2	13111	100
2025-3-27 20:27:1.885	WT901BLE68-01(48591DE3C19B)	-1.054	-1.561	0.450	4.517	21.667	-68.604	-75.23	29.90	-25.26	-50.274	-32.340	84.476	-0.76797	0.56879	-0.29419	0.00055	30.2	13111	100
2025-3-27 20:27:1.885	WT901BLE68-01(48591DE3C19B)	-0.886	-1.561	0.450	4.517	21.667	-68.604	-75.42	29.29	-25.64	-50.274	-32.340	84.476	-0.76797	0.56879	-0.29419	0.00055	30.2	13111	100
2025-3-27 20:27:1.974	WT901BLE68-01(48591DE3C19B)	-0.886	-1.167	0.482	3.662	46.143	-68.726	-75.66	28.71	-26.15	-50.274	-32.340	84.476	-0.76797	0.56879	-0.29419	0.00055	30.2	13111	100
2025-3-27 20:27:1.974	WT901BLE68-01(48591DE3C19B)	-0.605	-1.167	0.482	3.662	46.143	-68.726	-75.95	28.17	-26.78	-50.274	-32.340	84.476	-0.76797	0.56879	-0.29419	0.00055	30.2	13111	100
2025-3-27 20:27:1.974	WT901BLE68-01(48591DE3C19B)	-0.605	-0.918	0.410	-5.554	48.279	-64.087	-76.28	27.66	-27.41	-50.274	-32.340	84.476	-0.76797	0.56879	-0.29419	0.00055	30.2	13111	100
2025-3-27 20:27:1.974	WT901BLE68-01(48591DE3C19B)	-0.483	-0.918	0.410	-5.554	48.279	-64.087	-76.65	27.17	-28.03	-50.274	-32.340	84.476	-0.76797	0.56879	-0.29419	0.00055	30.2	13111	100
2025-3-27 20:27:1.976	WT901BLE68-01(48591DE3C19B)	-0.483	-0.588	0.301	-6.592	20.325	-45.532	-76.93	26.74	-28.47	-50.274	-32.340	84.476	-0.77371	0.54205	-0.32428	0.04785	30.2	13111	100
2025-3-27 20:27:1.976	WT901BLE68-01(48591DE3C19B)	-0.481	-0.588	0.301	-6.592	20.325	-45.532	-77.12	26.37	-28.71	-50.274	-32.340	84.476	-0.77371	0.54205	-0.32428	0.04785	30.2	13111	100
2025-3-27 20:27:1.976	WT901BLE68-01(48591DE3C19B)	-0.481	-0.394	0.214	-32.593	-40.710	-34.180	-77.29	25.99	-28.61	-50.274	-32.340	84.476	-0.77371	0.54205	-0.32428	0.04785	30.2	13111	100
2025-3-27 20:27:1.976	WT901BLE68-01(48591DE3C19B)	-0.325	-0.394	0.214	-32.593	-40.710	-34.180	-77.43	25.61	-28.17	-50.274	-32.340	84.476	-0.77371	0.54205	-0.32428	0.04785	30.2	13111	100
2025-3-27 20:27:2.34	WT901BLE68-01(48591DE3C19B)	-0.325	-0.497	0.157	-53.284	-84.167	-23.682	-77.57	25.25	-27.47	-50.274	-32.340	84.476	-0.77371	0.54205	-0.32428	0.04785	30.2	13111	100
2025-3-27 20:27:2.34	WT901BLE68-01(48591DE3C19B)	-0.226	-0.497	0.157	-53.284	-84.167	-23.682	-77.71	24.89	-26.53	-50.274	-32.340	84.476	-0.77371	0.54205	-0.32428	0.04785	30.2	13111	100
2025-3-27 20:27:2.34	WT901BLE68-01(48591DE3C19B)	-0.226	-0.563	0.150	-42.419	-67.505	-10.681	-77.84	24.61	-25.68	-50.274	-32.340	84.476	-0.77371	0.54205	-0.32428	0.04785	30.2	13111	100
2025-3-27 20:27:2.35	WT901BLE68-01(48591DE3C19B)	-0.269	-0.563	0.150	-42.419	-67.505	-10.681	-77.94	24.42	-24.90	-50.274	-32.340	84.476	-0.77371	0.54205	-0.32428	0.04785	30.2	13111	100
2025-3-27 20:27:2.64	WT901BLE68-01(48591DE3C19B)	-0.269	-0.443	0.166	-28.015	-32.959	-6.042	-78.05	24.28	-24.31	-50.274	-32.340	84.476	-0.77371	0.54205	-0.32428	0.04785	30.2	13111	100
2025-3-27 20:27:2.64	WT901BLE68-01(48591DE3C19B)	-0.307	-0.443	0.166	-28.015	-32.959	-6.042	-78.16	24.20	-23.91	-50.274	-32.340	84.476	-0.77371	0.54205	-0.32428	0.04785	30.2	13111	100
2025-3-27 20:27:2.64	WT901BLE68-01(48591DE3C19B)	-0.307	-0.299	0.176	-25.452	-19.104	1.709	-78.29	24.22	-23.63	-50.274	-32.340	84.476	-0.77371	0.54205	-0.32428	0.04785	30.2	13111	100
2025-3-27 20:27:2.64	WT901BLE68-01(48591DE3C19B)	-0.286	-0.299	0.176	-25.452	-19.104	1.709	-78.42	24.26	-23.35	-50.274	-32.340	84.476	-0.77371	0.54205	-0.32428	0.04785	30.2	13111	100
2025-3-27 20:27:2.96	WT901BLE68-01(48591DE3C19B)	-0.286	-0.303	0.166	-30.823	-19.653	13.184	-78.59	24.41	-23.04	-50.274	-32.340	84.476	-0.77371	0.54205	-0.32428	0.04785	30.2	13111	100
2025-3-27 20:27:2.96	WT901BLE68-01(48591DE3C19B)	-0.315	-0.303	0.166	-30.823	-19.653	13.184	-78.75	24.55	-22.73	-50.274	-32.340	84.476	-0.77371	0.54205	-0.32428	0.04785	30.2	13111	100
2025-3-27 20:27:2.96	WT901BLE68-01(48591DE3C19B)	-0.315	-0.481	0.141	-33.691	-27.100	25.024	-78.90	24.80	-22.30	-50.274	-32.340	84.476	-0.77371	0.54205	-0.32428	0.04785	30.2	13111	100
2025-3-27 20:27:2.96	WT901BLE68-01(48591DE3C19B)	-0.396	-0.481	0.141	-33.691	-27.100	25.024	-79.05	25.05	-21.88	-50.274	-32.340	84.476	-0.77371	0.54205	-0.32428	0.04785	30.2	13111	100
2025-3-27 20:27:2.126	WT901BLE68-01(48591DE3C19B)	-0.396	-0.703	0.102	-37.170	-46.326	31.006	-79.13	25.32	-21.25	-50.274	-32.340	84.476	-0.77371	0.54205	-0.32428	0.04785	30.2	13111	100
2025-3-27 20:27:2.126	WT901BLE68-01(48591DE3C19B)	-0.401	-0.703	0.102	-37.170	-46.326	31.006	-79.23	25.58	-20.62	-50.274	-32.340	84.476	-0.77371	0.54205	-0.32428	0.04785	30.2	13111	100
2025-3-27 20:27:2.126	WT901BLE68-01(48591DE3C19B)	-0.401	-0.973	0.021	-48.767	-76.721	29.114	-79.30	25.76	-19.68	-51.156	-36.554	80.850	-0.77371	0.54205	-0.32428	0.04785	30.2	13111	100
2025-3-27 20:27:2.126	WT901BLE68-01(48591DE3C19B)	-0.394	-0.973	0.021	-48.767	-76.721	29.114	-79.38	25.93	-18.75	-51.156	-36.554	80.850	-0.77371	0.54205	-0.32428	0.04785	30.2	13111	100
2025-3-27 20:27:2.184	WT901BLE68-01(48591DE3C19B)	-0.394	-1.540	0.048	-53.223	-96.680	16.235	-79.44	25.93	-17.64	-51.156	-36.554	80.850	-0.77371	0.54205	-0.32428	0.04785	30.2	13111	100
2025-3-27 20:27:2.185	WT901BLE68-01(48591DE3C19B)	-0.489	-1.540	0.048	-53.223	-96.680	16.235	-79.50	25.91	-16.56	-51.156	-36.554	80.850	-0.77371	0.54205	-0.32428	0.04785	30.2	13111	100
2025-3-27 20:27:2.185	WT901BLE68-01(48591DE3C19B)	-0.489	-2.115	0.168	-26.001	-106.323	-2.197	-79.27	25.68	-15.42	-51.156	-36.554	80.850	-0.77371	0.54205	-0.32428	0.04785	30.2	13111	100
2025-3-27 20:27:2.185	WT901BLE68-01(48591DE3C19B)	-0.523	-2.115	0.168	-26.001	-106.323	-2.197	-79.05	25.43	-14.31	-51.156	-36.554	80.850	-0.77371	0.54205	-0.32428	0.04785	30.2	13111	100
2025-3-27 20:27:2.214	WT901BLE68-01(48591DE3C19B)	-0.523	-1.949	0.282	8.301	-112.671	-0.244	-78.47	25.18	-13.13	-51.156	-36.554	80.850	-0.77371	0.54205	-0.32428	0.04785	30.2	13111	100
2025-3-27 20:27:2.214	WT901BLE68-01(48591DE3C19B)	-0.289	-1.949	0.282	8.301	-112.671	-0.244	-77.90	24.92	-11.98	-51.156	-36.554	80.850	-0.77371	0.54205	-0.32428	0.04785	30.2	13111	100
2025-3-27 20:27:2.214	WT901BLE68-01(48591DE3C19B)	-0.289	-1.546	0.231	8.911	-85.876	-3.967	-77.46	24.66	-11.13	-51.156	-36.554	80.850	-0.77371	0.54205	-0.32428	0.04785	30.2	13111	100
2025-3-27 20:27:2.214	WT901BLE68-01(48591DE3C19B)	-0.102	-1.546	0.231	8.911	-85.876	-3.967	-77.03	24.39	-10.29	-51.156	-36.554	80.850	-0.77371	0.54205	-0.32428	0.04785	30.2	13111	100
2025-3-27 20:27:2.274	WT901BLE68-01(48591DE3C19B)	-0.102	-1.440	0.156	13.306	-17.029	-4.272	-76.87	24.26	-10.20	-51.156	-36.554	80.850	-0.77371	0.54205	-0.32428	0.04785	30.2	13111	100
2025-3-27 20:27:2.274	WT901BLE68-01(48591DE3C19B)	-0.159	-1.440	0.156	13.306	-17.029	-4.272	-76.70	24.14	-10.11	-51.156	-36.554	80.850	-0.77371	0.54205	-0.32428	0.04785	30.2	13111	100
2025-3-27 20:27:2.274	WT901BLE68-01(48591DE3C19B)	-0.159	-1.208	0.180	23.438	46.021	-6.042	-76.72	24.13	-10.71	-51.156	-36.554	80.850	-0.77371	0.54205	-0.32428	0.04785	30.2	13111	100
2025-3-27 20:27:2.274	WT901BLE68-01(48591DE3C19B)	-0.288	-1.208	0.180	23.438	46.021	-6.042	-76.73	24.11	-11.30	-51.156	-36.554	80.850	-0.77371	0.54205	-0.32428	0.04785	30.2	13111	100
2025-3-27 20:27:2.306	WT901BLE68-01(48591DE3C19B)	-0.288	-0.952	0.243	15.076	61.584	-9.033	-76.90	24.11	-12.06	-51.156	-36.554	80.850	-0.77371	0.54205	-0.32428	0.04785	30.2	13111	100
2025-3-27 20:27:2.306	WT901BLE68-01(48591DE3C19B)	-0.314	-0.952	0.243	15.076	61.584	-9.033	-77.06	24.10	-12.82	-51.156	-36.554	80.850	-0.77371	0.54205	-0.32428	0.04785	30.2	13111	100
2025-3-27 20:27:2.306	WT901BLE68-01(48591DE3C19B)	-0.314	-0.812	0.305	5.249	50.110	-17.151	-77.27	23.99	-13.47	-51.156	-36.554	80.850	-0.77371	0.54205	-0.32428	0.04785	30.2	13111	100
2025-3-27 20:27:2.306	WT901BLE68-01(48591DE3C19B)	-0.303	-0.812	0.305	5.249	50.110	-17.151	-77.48	23.88	-14.11	-51.156	-36.554	80.850	-0.77371	0.54205	-0.32428	0.04785	30.2	13111	100
2025-3-27 20:27:2.336	WT901BLE68-01(48591DE3C19B)	-0.303	-0.652	0.291	8.606	44.617	-18.433	-77.61	23.74	-14.69	-51.156	-36.554	80.850	-0.77371	0.54205	-0.32428	0.04785	30.2	13111	100
2025-3-27 20:27:2.336	WT901BLE68-01(48591DE3C19B)	-0.282	-0.652	0.291	8.606	44.617	-18.433	-77.74	23.61	-15.26	-51.156	-36.554	80.850	-0.77371	0.54205	-0.32428	0.04785	30.2	13111	100
2025-3-27 20:27:2.337	WT901BLE68-01(48591DE3C19B)	-0.282	-0.459	0.214	14.893	47.058	-12.268	-77.81	23.55	-15.84	-51.156	-36.554	80.850	-0.77209	0.58670	-0.24326	-0.01990	30.2	13111	100
2025-3-27 20:27:2.337	WT901BLE68-01(48591DE3C19B)	-0.292	-0.459	0.214	14.893	47.058	-12.268	-77.87	23.49	-16.41	-51.156	-36.554	80.850	-0.77209	0.58670	-0.24326	-0.01990	30.2	13111	100
2025-3-27 20:27:2.394	WT901BLE68-01(48591DE3C19B)	-0.292	-0.313	0.129	20.996	43.518	-3.479	-77.84	23.51	-16.92	-51.156	-36.554	80.850	-0.77209	0.58670	-0.24326	-0.01990	30.2	13111	100
2025-3-27 20:27:2.395	WT901BLE68-01(48591DE3C19B)	-0.290	-0.313	0.129	20.996	43.518	-3.479	-77.81	23.54	-17.42	-51.156	-36.554	80.850	-0.77209	0.58670	-0.24326	-0.01990	30.2	13111	100
2025-3-27 20:27:2.395	WT901BLE68-01(48591DE3C19B)	-0.290	-0.194	0.087	23.621	27.649	10.132	-77.67	23.68	-17.71	-51.156	-36.554	80.850	-0.77209	0.58670	-0.24326	-0.01990	30.2	13111	100
2025-3-27 20:27:2.395	WT901BLE68-01(48591DE3C19B)	-0.312	-0.194	0.087	23.621	27.649	10.132	-77.53	23.83	-17.99	-51.156	-36.554	80.850	-0.77209	0.58670	-0.24326	-0.01990	30.2	13111	100
2025-3-27 20:27:2.424	WT901BLE68-01(48591DE3C19B)	-0.312	-0.189	0.102	19.958	11.902	23.926	-77.35	24.08	-18.07	-51.156	-36.554	80.850	-0.77209	0.58670	-0.24326	-0.01990	30.2	13111	100
2025-3-27 20:27:2.424	WT901BLE68-01(48591DE3C19B)	-0.379	-0.189	0.102	19.958	11.902	23.926	-77.16	24.35	-18.13	-51.156	-36.554	80.850	-0.77209	0.58670	-0.24326	-0.01990	30.2	13111	100
2025-3-27 20:27:2.424	WT901BLE68-01(48591DE3C19B)	-0.379	-0.354	0.107	13.611	-2.563	31.921	-76.97	24.66	-18.01	-51.156	-36.554	80.850	-0.77209	0.58670	-0.24326	-0.01990	30.2	13111	100
2025-3-27 20:27:2.424	WT901BLE68-01(48591DE3C19B)	-0.431	-0.354	0.107	13.611	-2.563	31.921	-76.77	24.98	-17.88	-51.156	-36.554	80.850	-0.77209	0.58670	-0.24326	-0.01990	30.2	13111	100
2025-3-27 20:27:2.453	WT901BLE68-01(48591DE3C19B)	-0.431	-0.544	0.128	12.634	-18.982	38.513	-76.51	25.34	-17.55	-51.156	-36.554	80.850	-0.77209	0.58670	-0.24326	-0.01990	30.2	13111	100
2025-3-27 20:27:2.454	WT901BLE68-01(48591DE3C19B)	-0.440	-0.544	0.128	12.634	-18.982	38.513	-76.25	25.70	-17.22	-51.156	-36.554	80.850	-0.77209	0.58670	-0.24326	-0.01990	30.2	13111	100
2025-3-27 20:27:2.454	WT901BLE68-01(48591DE3C19B)	-0.440	-0.735	0.126	5.371	-31.250	34.851	-76.00	25.98	-16.76	-51.156	-36.554	80.850	-0.77209	0.58670	-0.24326	-0.01990	30.2	13111	100
2025-3-27 20:27:2.454	WT901BLE68-01(48591DE3C19B)	-0.429	-0.735	0.126	5.371	-31.250	34.851	-75.76	26.27	-16.30	-51.156	-36.554	80.850	-0.77209	0.58670	-0.24326	-0.01990	30.2	13111	100
2025-3-27 20:27:2.516	WT901BLE68-01(48591DE3C19B)	-0.429	-1.072	0.164	-7.202	-30.212	12.451	-75.68	26.33	-15.92	-51.156	-36.554	80.850	-0.77209	0.58670	-0.24326	-0.01990	30.2	13111	100
2025-3-27 20:27:2.516	WT901BLE68-01(48591DE3C19B)	-0.553	-1.072	0.164	-7.202	-30.212	12.451	-75.60	26.39	-15.56	-51.156	-36.554	80.850	-0.77209	0.58670	-0.24326	-0.01990	30.2	13111	100
2025-3-27 20:27:2.516	WT901BLE68-01(48591DE3C19B)	-0.804	-1.751	0.272	-8.911	-26.062	-37.292	-75.63	25.96	-15.39	-51.156	-36.554	80.850	-0.77209	0.58670	-0.24326	-0.01990	30.2	13111	100
2025-3-27 20:27:2.516	WT901BLE68-01(48591DE3C19B)	-0.804	-2.226	0.446	-2.014	-16.785	-72.327	-75.67	25.37	-15.32	-51.156	-36.554	80.850	-0.77209	0.58670	-0.24326	-0.01990	30.2	13111	100
2025-3-27 20:27:2.574	WT901BLE68-01(48591DE3C19B)	-0.932	-2.226	0.446	-2.014	-16.785	-72.327	-75.71	24.63	-15.36	-51.156	-36.554	80.850	-0.77209	0.58670	-0.24326	-0.01990	30.2	13111	100
2025-3-27 20:27:2.574	WT901BLE68-01(48591DE3C19B)	-0.932	-1.714	0.598	21.729	16.174	-81.482	-75.71	23.87	-15.59	-51.156	-36.554	80.850	-0.77209	0.58670	-0.24326	-0.01990	30.2	13111	100
2025-3-27 20:27:2.574	WT901BLE68-01(48591DE3C19B)	-0.704	-1.714	0.598	21.729	16.174	-81.482	-75.66	23.13	-15.99	-51.156	-36.554	80.850	-0.77209	0.58670	-0.24326	-0.01990	30.2	13111	100
2025-3-27 20:27:2.574	WT901BLE68-01(48591DE3C19B)	-0.704	-1.062	0.634	21.790	67.017	-66.467	-75.69	22.52	-16.63	-49.490	-37.632	80.556	-0.77209	0.58670	-0.24326	-0.01990	30.2	13111	100
2025-3-27 20:27:2.576	WT901BLE68-01(48591DE3C19B)	-0.547	-1.062	0.634	21.790	67.017	-66.467	-75.80	22.06	-17.51	-49.490	-37.632	80.556	-0.77209	0.58670	-0.24326	-0.01990	30.2	13111	100
2025-3-27 20:27:2.576	WT901BLE68-01(48591DE3C19B)	-0.547	-0.825	0.523	10.925	101.440	-54.016	-76.00	21.70	-18.54	-49.490	-37.632	80.556	-0.77209	0.58670	-0.24326	-0.01990	30.2	13111	100
2025-3-27 20:27:2.576	WT901BLE68-01(48591DE3C19B)	-0.533	-0.825	0.523	10.925	101.440	-54.016	-76.31	21.45	-19.72	-49.490	-37.632	80.556	-0.77209	0.58670	-0.24326	-0.01990	30.2	13111	100
2025-3-27 20:27:2.576	WT901BLE68-01(48591DE3C19B)	-0.533	-0.704	0.331	0.244	68.909	-36.194	-76.59	21.24	-20.69	-49.490	-37.632	80.556	-0.77209	0.58670	-0.24326	-0.01990	30.2	13111	100
2025-3-27 20:27:2.634	WT901BLE68-01(48591DE3C19B)	-0.477	-0.704	0.331	0.244	68.909	-36.194	-76.84	21.08	-21.47	-49.490	-37.632	80.556	-0.77209	0.58670	-0.24326	-0.01990	30.2	13111	100
2025-3-27 20:27:2.634	WT901BLE68-01(48591DE3C19B)	-0.477	-0.692	0.207	-26.123	-21.362	-22.461	-77.05	20.89	-21.75	-49.490	-37.632	80.556	-0.77209	0.58670	-0.24326	-0.01990	30.2	13111	100
2025-3-27 20:27:2.634	WT901BLE68-01(48591DE3C19B)	-0.309	-0.692	0.207	-26.123	-21.362	-22.461	-77.21	20.67	-21.54	-49.490	-37.632	80.556	-0.77209	0.58670	-0.24326	-0.01990	30.2	13111	100
2025-3-27 20:27:2.634	WT901BLE68-01(48591DE3C19B)	-0.309	-0.779	0.135	-32.959	-73.669	-2.563	-77.31	20.49	-21.04	-49.490	-37.632	80.556	-0.77209	0.58670	-0.24326	-0.01990	30.2	13111	100
2025-3-27 20:27:2.664	WT901BLE68-01(48591DE3C19B)	-0.294	-0.779	0.135	-32.959	-73.669	-2.563	-77.34	20.35	-20.25	-49.490	-37.632	80.556	-0.77209	0.58670	-0.24326	-0.01990	30.2	13111	100
2025-3-27 20:27:2.664	WT901BLE68-01(48591DE3C19B)	-0.294	-0.693	0.141	-16.724	-55.725	15.076	-77.32	20.31	-19.54	-49.490	-37.632	80.556	-0.77209	0.58670	-0.24326	-0.01990	30.2	13111	100
2025-3-27 20:27:2.664	WT901BLE68-01(48591DE3C19B)	-0.168	-0.693	0.141	-16.724	-55.725	15.076	-77.25	20.37	-18.91	-49.490	-37.632	80.556	-0.77209	0.58670	-0.24326	-0.01990	30.2	13111	100
2025-3-27 20:27:2.664	WT901BLE68-01(48591DE3C19B)	-0.168	-0.375	0.139	-7.202	-14.038	20.081	-77.20	20.51	-18.49	-49.490	-37.632	80.556	-0.77209	0.58670	-0.24326	-0.01990	30.2	13111	100
2025-3-27 20:27:2.695	WT901BLE68-01(48591DE3C19B)	-0.058	-0.375	0.139	-7.202	-14.038	20.081	-77.18	20.70	-18.28	-49.490	-37.632	80.556	-0.77209	0.58670	-0.24326	-0.01990	30.2	13111	100
2025-3-27 20:27:2.695	WT901BLE68-01(48591DE3C19B)	-0.058	-0.103	0.150	-8.423	31.189	37.354	-77.24	21.03	-18.29	-49.490	-37.632	80.556	-0.77209	0.58670	-0.24326	-0.01990	30.2	13111	100
2025-3-27 20:27:2.695	WT901BLE68-01(48591DE3C19B)	-0.076	-0.103	0.150	-8.423	31.189	37.354	-77.38	21.49	-18.52	-49.490	-37.632	80.556	-0.77209	0.58670	-0.24326	-0.01990	30.2	13111	100
2025-3-27 20:27:2.695	WT901BLE68-01(48591DE3C19B)	-0.076	-0.087	0.169	-16.602	55.664	47.913	-77.60	22.03	-18.86	-49.490	-37.632	80.556	-0.77209	0.58670	-0.24326	-0.01990	30.2	13111	100
2025-3-27 20:27:2.787	WT901BLE68-01(48591DE3C19B)	-0.198	-0.087	0.169	-16.602	55.664	47.913	-77.89	22.64	-19.32	-49.490	-37.632	80.556	-0.77209	0.58670	-0.24326	-0.01990	30.2	13111	100
2025-3-27 20:27:2.787	WT901BLE68-01(48591DE3C19B)	-0.198	-0.204	0.181	-23.987	48.767	51.147	-78.21	23.26	-19.75	-49.490	-37.632	80.556	-0.77209	0.58670	-0.24326	-0.01990	30.2	13111	100
2025-3-27 20:27:2.787	WT901BLE68-01(48591DE3C19B)	-0.326	-0.204	0.181	-23.987	48.767	51.147	-78.55	23.88	-20.13	-49.490	-37.632	80.556	-0.77209	0.58670	-0.24326	-0.01990	30.2	13111	100
2025-3-27 20:27:2.787	WT901BLE68-01(48591DE3C19B)	-0.326	-0.425	0.165	-36.133	19.409	54.810	-78.89	24.49	-20.36	-49.490	-37.632	80.556	-0.77209	0.58670	-0.24326	-0.01990	30.2	13111	100
2025-3-27 20:27:2.787	WT901BLE68-01(48591DE3C19B)	-0.398	-0.425	0.165	-36.133	19.409	54.810	-79.22	25.09	-20.41	-49.490	-37.632	80.556	-0.76364	0.58313	-0.27695	-0.00485	30.2	13111	100
2025-3-27 20:27:2.788	WT901BLE68-01(48591DE3C19B)	-0.398	-0.763	0.114	-46.387	-17.639	54.565	-79.51	25.65	-20.28	-49.490	-37.632	80.556	-0.76364	0.58313	-0.27695	-0.00485	30.2	13111	100
2025-3-27 20:27:2.788	WT901BLE68-01(48591DE3C19B)	-0.409	-0.763	0.114	-46.387	-17.639	54.565	-79.79	26.17	-19.94	-49.490	-37.632	80.556	-0.76364	0.58313	-0.27695	-0.00485	30.2	13111	100
2025-3-27 20:27:2.788	WT901BLE68-01(48591DE3C19B)	-0.409	-1.148	0.082	-51.819	-52.124	48.340	-80.01	26.63	-19.43	-49.490	-37.632	80.556	-0.76364	0.58313	-0.27695	-0.00485	30.2	13111	100
2025-3-27 20:27:2.816	WT901BLE68-01(48591DE3C19B)	-0.419	-1.148	0.082	-51.819	-52.124	48.340	-80.19	27.02	-18.75	-49.490	-37.632	80.556	-0.76364	0.58313	-0.27695	-0.00485	30.2	13111	100
2025-3-27 20:27:2.816	WT901BLE68-01(48591DE3C19B)	-0.419	-1.915	0.036	-51.453	-69.885	22.888	-80.34	27.25	-18.01	-49.490	-37.632	80.556	-0.76364	0.58313	-0.27695	-0.00485	30.2	13111	100
2025-3-27 20:27:2.816	WT901BLE68-01(48591DE3C19B)	-0.397	-1.915	0.036	-51.453	-69.885	22.888	-80.47	27.33	-17.21	-49.490	-37.632	80.556	-0.76364	0.58313	-0.27695	-0.00485	30.2	13111	100
2025-3-27 20:27:2.816	WT901BLE68-01(48591DE3C19B)	-0.397	-2.503	-0.002	-12.085	-66.895	2.808	-80.44	27.30	-16.47	-49.490	-37.632	80.556	-0.76364	0.58313	-0.27695	-0.00485	30.2	13111	100
2025-3-27 20:27:2.874	WT901BLE68-01(48591DE3C19B)	-0.426	-2.503	-0.002	-12.085	-66.895	2.808	-80.24	27.16	-15.78	-49.490	-37.632	80.556	-0.76364	0.58313	-0.27695	-0.00485	30.2	13111	100
2025-3-27 20:27:2.874	WT901BLE68-01(48591DE3C19B)	-0.426	-1.880	0.133	37.598	-50.720	-4.395	-79.85	26.99	-15.19	-49.490	-37.632	80.556	-0.76364	0.58313	-0.27695	-0.00485	30.2	13111	100
2025-3-27 20:27:2.874	WT901BLE68-01(48591DE3C19B)	-0.248	-1.880	0.133	37.598	-50.720	-4.395	-79.27	26.80	-14.72	-49.490	-37.632	80.556	-0.76364	0.58313	-0.27695	-0.00485	30.2	13111	100
2025-3-27 20:27:2.874	WT901BLE68-01(48591DE3C19B)	-0.248	-1.373	0.147	31.616	-22.156	-7.996	-78.79	26.60	-14.41	-49.490	-37.632	80.556	-0.76364	0.58313	-0.27695	-0.00485	30.2	13111	100
2025-3-27 20:27:2.906	WT901BLE68-01(48591DE3C19B)	-0.081	-1.373	0.147	31.616	-22.156	-7.996	-78.43	26.42	-14.26	-49.490	-37.632	80.556	-0.76364	0.58313	-0.27695	-0.00485	30.2	13111	100
2025-3-27 20:27:2.906	WT901BLE68-01(48591DE3C19B)	-0.081	-1.111	0.184	38.147	35.583	-5.859	-78.16	26.30	-14.43	-49.490	-37.632	80.556	-0.76364	0.58313	-0.27695	-0.00485	30.2	13111	100
2025-3-27 20:27:2.906	WT901BLE68-01(48591DE3C19B)	-0.102	-1.111	0.184	38.147	35.583	-5.859	-78.01	26.24	-14.91	-49.490	-37.632	80.556	-0.76364	0.58313	-0.27695	-0.00485	30.2	13111	100
2025-3-27 20:27:2.906	WT901BLE68-01(48591DE3C19B)	-0.102	-0.808	0.210	43.579	85.205	-0.366	-77.94	26.26	-15.67	-49.490	-37.632	80.556	-0.76364	0.58313	-0.27695	-0.00485	30.2	13111	100
2025-3-27 20:27:2.936	WT901BLE68-01(48591DE3C19B)	-0.178	-0.808	0.210	43.579	85.205	-0.366	-77.96	26.35	-16.67	-49.490	-37.632	80.556	-0.76364	0.58313	-0.27695	-0.00485	30.2	13111	100
2025-3-27 20:27:2.936	WT901BLE68-01(48591DE3C19B)	-0.178	-0.568	0.220	35.828	92.957	0.305	-78.04	26.46	-17.72	-49.490	-37.632	80.556	-0.76364	0.58313	-0.27695	-0.00485	30.2	13111	100
2025-3-27 20:27:2.936	WT901BLE68-01(48591DE3C19B)	-0.181	-0.568	0.220	35.828	92.957	0.305	-78.16	26.56	-18.80	-53.900	-41.552	81.340	-0.76364	0.58313	-0.27695	-0.00485	30.2	13111	100
2025-3-27 20:27:2.936	WT901BLE68-01(48591DE3C19B)	-0.181	-0.480	0.212	26.245	74.951	-4.639	-78.29	26.64	-19.79	-53.900	-41.552	81.340	-0.76364	0.58313	-0.27695	-0.00485	30.2	13111	100
2025-3-27 20:27:2.994	WT901BLE68-01(48591DE3C19B)	-0.152	-0.480	0.212	26.245	74.951	-4.639	-78.43	26.66	-20.68	-53.900	-41.552	81.340	-0.76364	0.58313	-0.27695	-0.00485	30.2	13111	100
2025-3-27 20:27:2.995	WT901BLE68-01(48591DE3C19B)	-0.152	-0.387	0.163	31.067	68.665	-2.136	-78.47	26.70	-21.49	-53.900	-41.552	81.340	-0.76364	0.58313	-0.27695	-0.00485	30.2	13111	100
2025-3-27 20:27:2.995	WT901BLE68-01(48591DE3C19B)	-0.246	-0.387	0.163	31.067	68.665	-2.136	-78.51	26.74	-22.29	-53.900	-41.552	81.340	-0.76364	0.58313	-0.27695	-0.00485	30.2	13111	100
2025-3-27 20:27:2.995	WT901BLE68-01(48591DE3C19B)	-0.246	-0.230	0.134	39.673	67.993	9.033	-78.45	26.89	-23.05	-53.900	-41.552	81.340	-0.76364	0.58313	-0.27695	-0.00485	30.2	13111	100
2025-3-27 20:27:3.23	WT901BLE68-01(48591DE3C19B)	-0.349	-0.230	0.134	39.673	67.993	9.033	-78.38	27.05	-23.81	-53.900	-41.552	81.340	-0.76364	0.58313	-0.27695	-0.00485	30.2	13111	100
2025-3-27 20:27:3.23	WT901BLE68-01(48591DE3C19B)	-0.349	-0.131	0.123	35.095	56.274	25.696	-78.29	27.36	-24.40	-53.900	-41.552	81.340	-0.76364	0.58313	-0.27695	-0.00485	30.2	13111	100
2025-3-27 20:27:3.23	WT901BLE68-01(48591DE3C19B)	-0.387	-0.131	0.123	35.095	56.274	25.696	-78.18	27.67	-24.96	-53.900	-41.552	81.340	-0.76364	0.58313	-0.27695	-0.00485	30.2	13111	100
2025-3-27 20:27:3.24	WT901BLE68-01(48591DE3C19B)	-0.387	-0.251	0.146	22.583	44.189	37.354	-78.13	28.10	-25.36	-53.900	-41.552	81.340	-0.76364	0.58313	-0.27695	-0.00485	30.2	13111	100
2025-3-27 20:27:3.54	WT901BLE68-01(48591DE3C19B)	-0.514	-0.251	0.146	22.583	44.189	37.354	-78.08	28.53	-25.74	-53.900	-41.552	81.340	-0.76364	0.58313	-0.27695	-0.00485	30.2	13111	100
2025-3-27 20:27:3.55	WT901BLE68-01(48591DE3C19B)	-0.514	-0.552	0.192	13.062	33.142	36.011	-78.07	28.93	-25.99	-53.900	-41.552	81.340	-0.76364	0.58313	-0.27695	-0.00485	30.2	13111	100
2025-3-27 20:27:3.55	WT901BLE68-01(48591DE3C19B)	-0.731	-0.552	0.192	13.062	33.142	36.011	-78.05	29.35	-26.24	-53.900	-41.552	81.340	-0.76364	0.58313	-0.27695	-0.00485	30.2	13111	100
2025-3-27 20:27:3.55	WT901BLE68-01(48591DE3C19B)	-0.731	-0.923	0.224	3.906	12.634	20.569	-78.04	29.58	-26.28	-53.900	-41.552	81.340	-0.76364	0.58313	-0.27695	-0.00485	30.2	13111	100
2025-3-27 20:27:3.116	WT901BLE68-01(48591DE3C19B)	-0.795	-0.923	0.224	3.906	12.634	20.569	-78.02	29.81	-26.32	-53.900	-41.552	81.340	-0.76364	0.58313	-0.27695	-0.00485	30.2	13111	100
2025-3-27 20:27:3.116	WT901BLE68-01(48591DE3C19B)	-0.795	-1.405	0.224	2.197	-8.789	-14.954	-77.96	29.66	-26.20	-53.900	-41.552	81.340	-0.76364	0.58313	-0.27695	-0.00485	30.2	13111	100
2025-3-27 20:27:3.116	WT901BLE68-01(48591DE3C19B)	-0.889	-1.405	0.224	2.197	-8.789	-14.954	-77.90	29.50	-26.09	-53.900	-41.552	81.340	-0.76364	0.58313	-0.27695	-0.00485	30.2	13111	100
2025-3-27 20:27:3.116	WT901BLE68-01(48591DE3C19B)	-0.889	-1.803	0.331	14.954	-16.418	-63.538	-77.73	28.84	-26.02	-53.900	-41.552	81.340	-0.76364	0.58313	-0.27695	-0.00485	30.2	13111	100
2025-3-27 20:27:3.174	WT901BLE68-01(48591DE3C19B)	-1.238	-1.803	0.331	14.954	-16.418	-63.538	-77.57	28.20	-25.95	-53.900	-41.552	81.340	-0.76364	0.58313	-0.27695	-0.00485	30.2	13111	100
2025-3-27 20:27:3.174	WT901BLE68-01(48591DE3C19B)	-1.238	-2.049	0.456	20.630	-10.193	-79.651	-77.40	27.41	-25.99	-53.900	-41.552	81.340	-0.76364	0.58313	-0.27695	-0.00485	30.2	13111	100
2025-3-27 20:27:3.174	WT901BLE68-01(48591DE3C19B)	-1.000	-2.049	0.456	20.630	-10.193	-79.651	-77.24	26.62	-26.04	-53.900	-41.552	81.340	-0.76364	0.58313	-0.27695	-0.00485	30.2	13111	100
2025-3-27 20:27:3.174	WT901BLE68-01(48591DE3C19B)	-1.000	-1.405	0.505	37.537	31.799	-76.538	-77.10	25.97	-26.53	-53.900	-41.552	81.340	-0.77380	0.55075	-0.31036	0.03854	30.2	13111	100
2025-3-27 20:27:3.176	WT901BLE68-01(48591DE3C19B)	-0.637	-1.405	0.505	37.537	31.799	-76.538	-76.96	25.32	-27.01	-53.900	-41.552	81.340	-0.77380	0.55075	-0.31036	0.03854	30.2	13111	100
2025-3-27 20:27:3.176	WT901BLE68-01(48591DE3C19B)	-0.637	-0.803	0.586	28.992	64.270	-53.894	-77.01	24.98	-27.78	-53.900	-41.552	81.340	-0.77380	0.55075	-0.31036	0.03854	30.2	13111	100
2025-3-27 20:27:3.176	WT901BLE68-01(48591DE3C19B)	-0.413	-0.803	0.586	28.992	64.270	-53.894	-77.04	24.64	-28.54	-53.900	-41.552	81.340	-0.77380	0.55075	-0.31036	0.03854	30.2	13111	100
2025-3-27 20:27:3.176	WT901BLE68-01(48591DE3C19B)	-0.413	-0.629	0.478	3.662	54.016	-31.677	-77.25	24.49	-29.13	-53.900	-41.552	81.340	-0.77380	0.55075	-0.31036	0.03854	30.2	13111	100
2025-3-27 20:27:3.265	WT901BLE68-01(48591DE3C19B)	-0.614	-0.629	0.478	3.662	54.016	-31.677	-77.45	24.34	-29.72	-53.900	-41.552	81.340	-0.77380	0.55075	-0.31036	0.03854	30.2	13111	100
2025-3-27 20:27:3.265	WT901BLE68-01(48591DE3C19B)	-0.614	-0.814	0.359	-16.724	3.845	-24.658	-77.62	24.15	-29.75	-53.900	-41.552	81.340	-0.77380	0.55075	-0.31036	0.03854	30.2	13111	100
2025-3-27 20:27:3.265	WT901BLE68-01(48591DE3C19B)	-0.521	-0.814	0.359	-16.724	3.845	-24.658	-77.78	23.97	-29.77	-53.900	-41.552	81.340	-0.77380	0.55075	-0.31036	0.03854	30.2	13111	100
2025-3-27 20:27:3.265	WT901BLE68-01(48591DE3C19B)	-0.521	-0.969	0.225	-20.996	-53.772	-10.315	-77.73	23.80	-29.15	-53.900	-41.552	81.340	-0.77380	0.55075	-0.31036	0.03854	30.2	13111	100
2025-3-27 20:27:3.266	WT901BLE68-01(48591DE3C19B)	-0.373	-0.969	0.225	-20.996	-53.772	-10.315	-77.68	23.63	-28.54	-53.900	-41.552	81.340	-0.77380	0.55075	-0.31036	0.03854	30.2	13111	100
2025-3-27 20:27:3.266	WT901BLE68-01(48591DE3C19B)	-0.373	-0.785	0.153	-4.272	-60.730	4.700	-77.43	23.59	-27.82	-53.900	-41.552	81.340	-0.77380	0.55075	-0.31036	0.03854	30.2	13111	100
2025-3-27 20:27:3.266	WT901BLE68-01(48591DE3C19B)	-0.220	-0.785	0.153	-4.272	-60.730	4.700	-77.18	23.55	-27.11	-53.900	-41.552	81.340	-0.77380	0.55075	-0.31036	0.03854	30.2	13111	100
2025-3-27 20:27:3.266	WT901BLE68-01(48591DE3C19B)	-0.220	-0.532	0.144	3.479	-27.100	1.709	-77.00	23.54	-26.77	-53.900	-41.552	81.340	-0.77380	0.55075	-0.31036	0.03854	30.2	13111	100
2025-3-27 20:27:3.327	WT901BLE68-01(48591DE3C19B)	-0.143	-0.532	0.144	3.479	-27.100	1.709	-76.83	23.53	-26.44	-53.900	-41.552	81.340	-0.77380	0.55075	-0.31036	0.03854	30.2	13111	100
2025-3-27 20:27:3.327	WT901BLE68-01(48591DE3C19B)	-0.143	-0.300	0.154	5.615	26.550	5.920	-76.85	23.69	-26.67	-53.900	-41.552	81.340	-0.77380	0.55075	-0.31036	0.03854	30.2	13111	100
2025-3-27 20:27:3.327	WT901BLE68-01(48591DE3C19B)	-0.219	-0.300	0.154	5.615	26.550	5.920	-76.88	23.83	-26.89	-53.900	-41.552	81.340	-0.77380	0.55075	-0.31036	0.03854	30.2	13111	100
2025-3-27 20:27:3.327	WT901BLE68-01(48591DE3C19B)	-0.219	-0.169	0.167	6.042	66.528	21.240	-77.05	24.22	-27.51	-53.900	-41.552	81.340	-0.77380	0.55075	-0.31036	0.03854	30.2	13111	100
2025-3-27 20:27:3.385	WT901BLE68-01(48591DE3C19B)	-0.353	-0.169	0.167	6.042	66.528	21.240	-77.23	24.61	-28.12	-53.900	-41.552	81.340	-0.77380	0.55075	-0.31036	0.03854	30.2	13111	100
2025-3-27 20:27:3.385	WT901BLE68-01(48591DE3C19B)	-0.353	-0.130	0.166	-0.366	53.650	27.588	-77.40	25.04	-28.56	-53.900	-41.552	81.340	-0.77380	0.55075	-0.31036	0.03854	30.2	13111	100
2025-3-27 20:27:3.385	WT901BLE68-01(48591DE3C19B)	-0.416	-0.130	0.166	-0.366	53.650	27.588	-77.57	25.48	-29.00	-53.900	-41.552	81.340	-0.77380	0.55075	-0.31036	0.03854	30.2	13111	100
2025-3-27 20:27:3.385	WT901BLE68-01(48591DE3C19B)	-0.416	-0.167	0.133	-13.977	5.554	32.104	-77.66	25.86	-28.90	-53.900	-41.552	81.340	-0.77380	0.55075	-0.31036	0.03854	30.2	13111	100
2025-3-27 20:27:3.386	WT901BLE68-01(48591DE3C19B)	-0.400	-0.167	0.133	-13.977	5.554	32.104	-77.74	26.26	-28.78	-63.406	-38.514	82.810	-0.77380	0.55075	-0.31036	0.03854	30.2	13111	100
2025-3-27 20:27:3.386	WT901BLE68-01(48591DE3C19B)	-0.400	-0.405	0.100	-29.724	-50.171	37.231	-77.71	26.59	-28.04	-63.406	-38.514	82.810	-0.77380	0.55075	-0.31036	0.03854	30.2	13111	100
2025-3-27 20:27:3.386	WT901BLE68-01(48591DE3C19B)	-0.307	-0.405	0.100	-29.724	-50.171	37.231	-77.68	26.92	-27.30	-63.406	-38.514	82.810	-0.77380	0.55075	-0.31036	0.03854	30.2	13111	100
2025-3-27 20:27:3.386	WT901BLE68-01(48591DE3C19B)	-0.307	-0.738	0.161	-29.846	-95.032	36.804	-77.43	27.14	-26.08	-63.406	-38.514	82.810	-0.77380	0.55075	-0.31036	0.03854	30.2	13111	100
2025-3-27 20:27:3.413	WT901BLE68-01(48591DE3C19B)	-0.188	-0.738	0.161	-29.846	-95.032	36.804	-77.17	27.33	-24.88	-63.406	-38.514	82.810	-0.77380	0.55075	-0.31036	0.03854	30.2	13111	100
2025-3-27 20:27:3.413	WT901BLE68-01(48591DE3C19B)	-0.166	-1.024	0.187	-15.747	-112.671	28.320	-76.70	27.39	-23.53	-63.406	-38.514	82.810	-0.77380	0.55075	-0.31036	0.03854	30.2	13111	100
2025-3-27 20:27:3.413	WT901BLE68-01(48591DE3C19B)	-0.166	-1.592	0.138	-3.357	-84.839	4.761	-76.26	27.32	-22.39	-63.406	-38.514	82.810	-0.77380	0.55075	-0.31036	0.03854	30.2	13111	100
2025-3-27 20:27:3.413	WT901BLE68-01(48591DE3C19B)	-0.212	-1.592	0.138	-3.357	-84.839	4.761	-75.87	27.15	-21.47	-63.406	-38.514	82.810	-0.77380	0.55075	-0.31036	0.03854	30.2	13111	100
2025-3-27 20:27:3.474	WT901BLE68-01(48591DE3C19B)	-0.212	-2.352	-0.049	16.113	-17.334	-29.236	-75.59	26.87	-20.98	-63.406	-38.514	82.810	-0.77380	0.55075	-0.31036	0.03854	30.2	13111	100
2025-3-27 20:27:3.474	WT901BLE68-01(48591DE3C19B)	-0.356	-2.352	-0.049	16.113	-17.334	-29.236	-75.42	26.49	-20.93	-63.406	-38.514	82.810	-0.77380	0.55075	-0.31036	0.03854	30.2	13111	100
2025-3-27 20:27:3.475	WT901BLE68-01(48591DE3C19B)	-0.356	-2.264	-0.099	66.406	49.255	-43.701	-75.18	26.11	-21.28	-63.406	-38.514	82.810	-0.77380	0.55075	-0.31036	0.03854	30.2	13111	100
2025-3-27 20:27:3.475	WT901BLE68-01(48591DE3C19B)	-0.414	-2.264	-0.099	66.406	49.255	-43.701	-74.87	25.76	-21.99	-63.406	-38.514	82.810	-0.77380	0.55075	-0.31036	0.03854	30.2	13111	100
2025-3-27 20:27:3.505	WT901BLE68-01(48591DE3C19B)	-0.414	-1.389	0.112	64.270	80.688	-56.824	-74.66	25.37	-22.90	-63.406	-38.514	82.810	-0.77380	0.55075	-0.31036	0.03854	30.2	13111	100
2025-3-27 20:27:3.505	WT901BLE68-01(48591DE3C19B)	-0.414	-1.389	0.112	64.270	80.688	-56.824	-74.53	24.98	-23.98	-63.406	-38.514	82.810	-0.77380	0.55075	-0.31036	0.03854	30.2	13111	100
2025-3-27 20:27:3.505	WT901BLE68-01(48591DE3C19B)	-0.414	-1.108	0.323	37.109	86.853	-48.157	-74.54	24.64	-25.07	-63.406	-38.514	82.810	-0.77380	0.55075	-0.31036	0.03854	30.2	13111	100
2025-3-27 20:27:3.505	WT901BLE68-01(48591DE3C19B)	-0.445	-1.108	0.323	37.109	86.853	-48.157	-74.67	24.35	-26.16	-63.406	-38.514	82.810	-0.77380	0.55075	-0.31036	0.03854	30.2	13111	100
2025-3-27 20:27:3.533	WT901BLE68-01(48591DE3C19B)	-0.445	-0.972	0.505	17.456	73.486	-38.696	-74.85	24.09	-27.17	-63.406	-38.514	82.810	-0.77380	0.55075	-0.31036	0.03854	30.2	13111	100
2025-3-27 20:27:3.533	WT901BLE68-01(48591DE3C19B)	-0.400	-0.972	0.505	17.456	73.486	-38.696	-75.08	23.86	-28.08	-63.406	-38.514	82.810	-0.77380	0.55075	-0.31036	0.03854	30.2	13111	100
2025-3-27 20:27:3.534	WT901BLE68-01(48591DE3C19B)	-0.400	-0.840	0.488	2.747	34.668	-32.593	-75.28	23.61	-28.77	-63.406	-38.514	82.810	-0.77380	0.55075	-0.31036	0.03854	30.2	13111	100
2025-3-27 20:27:3.534	WT901BLE68-01(48591DE3C19B)	-0.337	-0.840	0.488	2.747	34.668	-32.593	-75.45	23.35	-29.23	-63.406	-38.514	82.810	-0.77380	0.55075	-0.31036	0.03854	30.2	13111	100
2025-3-27 20:27:3.595	WT901BLE68-01(48591DE3C19B)	-0.337	-0.721	0.361	-8.606	-7.324	-32.837	-75.59	23.03	-29.48	-63.406	-38.514	82.810	-0.77380	0.55075	-0.31036	0.03854	30.2	13111	100
2025-3-27 20:27:3.595	WT901BLE68-01(48591DE3C19B)	-0.337	-0.721	0.361	-8.606	-7.324	-32.837	-75.68	22.66	-29.50	-63.406	-38.514	82.810	-0.77945	0.54211	-0.30322	0.08057	30.2	13111	100
2025-3-27 20:27:3.595	WT901BLE68-01(48591DE3C19B)	-0.337	-0.650	0.218	-6.409	-30.518	-29.602	-75.71	22.29	-29.39	-63.406	-38.514	82.810	-0.77945	0.54211	-0.30322	0.08057	30.2	13111	100
2025-3-27 20:27:3.595	WT901BLE68-01(48591DE3C19B)	-0.357	-0.650	0.218	-6.409	-30.518	-29.602	-75.68	21.91	-29.16	-63.406	-38.514	82.810	-0.77945	0.54211	-0.30322	0.08057	30.2	13111	100
2025-3-27 20:27:3.623	WT901BLE68-01(48591DE3C19B)	-0.357	-0.537	0.119	3.967	-32.837	-25.940	-75.59	21.55	-28.91	-63.406	-38.514	82.810	-0.77945	0.54211	-0.30322	0.08057	30.2	13111	100
2025-3-27 20:27:3.623	WT901BLE68-01(48591DE3C19B)	-0.314	-0.537	0.119	3.967	-32.837	-25.940	-75.45	21.21	-28.64	-63.406	-38.514	82.810	-0.77945	0.54211	-0.30322	0.08057	30.2	13111	100
2025-3-27 20:27:3.624	WT901BLE68-01(48591DE3C19B)	-0.314	-0.339	0.031	14.038	-20.813	-13.184	-75.28	20.96	-28.42	-63.406	-38.514	82.810	-0.77945	0.54211	-0.30322	0.08057	30.2	13111	100
2025-3-27 20:27:3.624	WT901BLE68-01(48591DE3C19B)	-0.235	-0.339	0.031	14.038	-20.813	-13.184	-75.08	20.79	-28.23	-63.406	-38.514	82.810	-0.77945	0.54211	-0.30322	0.08057	30.2	13111	100
2025-3-27 20:27:3.685	WT901BLE68-01(48591DE3C19B)	-0.235	-0.165	0.028	19.531	5.249	7.813	-74.89	20.75	-28.15	-63.406	-38.514	82.810	-0.77945	0.54211	-0.30322	0.08057	30.2	13111	100
2025-3-27 20:27:3.685	WT901BLE68-01(48591DE3C19B)	-0.253	-0.165	0.028	19.531	5.249	7.813	-74.72	20.86	-28.17	-63.406	-38.514	82.810	-0.77945	0.54211	-0.30322	0.08057	30.2	13111	100
2025-3-27 20:27:3.685	WT901BLE68-01(48591DE3C19B)	-0.253	-0.132	0.070	16.541	25.574	25.085	-74.59	21.09	-28.26	-63.406	-38.514	82.810	-0.77945	0.54211	-0.30322	0.08057	30.2	13111	100
2025-3-27 20:27:3.685	WT901BLE68-01(48591DE3C19B)	-0.332	-0.132	0.070	16.541	25.574	25.085	-74.50	21.43	-28.43	-63.406	-38.514	82.810	-0.77945	0.54211	-0.30322	0.08057	30.2	13111	100
2025-3-27 20:27:3.716	WT901BLE68-01(48591DE3C19B)	-0.332	-0.257	0.113	7.263	25.513	39.978	-74.45	21.85	-28.56	-63.406	-38.514	82.810	-0.77945	0.54211	-0.30322	0.08057	30.2	13111	100
2025-3-27 20:27:3.716	WT901BLE68-01(48591DE3C19B)	-0.374	-0.257	0.113	7.263	25.513	39.978	-74.44	22.35	-28.67	-63.406	-38.514	82.810	-0.77945	0.54211	-0.30322	0.08057	30.2	13111	100
2025-3-27 20:27:3.716	WT901BLE68-01(48591DE3C19B)	-0.374	-0.511	0.109	-6.409	6.104	43.030	-74.46	22.84	-28.66	-63.406	-38.514	82.810	-0.77945	0.54211	-0.30322	0.08057	30.2	13111	100
2025-3-27 20:27:3.716	WT901BLE68-01(48591DE3C19B)	-0.413	-0.511	0.109	-6.409	6.104	43.030	-74.50	23.31	-28.55	-63.406	-38.514	82.810	-0.77945	0.54211	-0.30322	0.08057	30.2	13111	100
2025-3-27 20:27:3.746	WT901BLE68-01(48591DE3C19B)	-0.413	-0.877	0.088	-17.822	-6.165	34.302	-74.59	23.73	-28.38	-63.406	-38.514	82.810	-0.77945	0.54211	-0.30322	0.08057	30.2	13111	100
2025-3-27 20:27:3.746	WT901BLE68-01(48591DE3C19B)	-0.501	-0.877	0.088	-17.822	-6.165	34.302	-74.72	24.08	-28.17	-63.406	-38.514	82.810	-0.77945	0.54211	-0.30322	0.08057	30.2	13111	100
2025-3-27 20:27:3.746	WT901BLE68-01(48591DE3C19B)	-0.501	-1.231	0.121	-15.625	-10.498	17.151	-74.84	24.34	-27.98	-65.366	-38.514	83.594	-0.77945	0.54211	-0.30322	0.08057	30.2	13111	100
2025-3-27 20:27:3.746	WT901BLE68-01(48591DE3C19B)	-0.593	-1.231	0.121	-15.625	-10.498	17.151	-74.95	24.50	-27.78	-65.366	-38.514	83.594	-0.77945	0.54211	-0.30322	0.08057	30.2	13111	100
2025-3-27 20:27:3.804	WT901BLE68-01(48591DE3C19B)	-0.593	-1.512	0.262	-14.771	-19.226	-25.269	-75.08	24.44	-27.62	-65.366	-38.514	83.594	-0.77945	0.54211	-0.30322	0.08057	30.2	13111	100
2025-3-27 20:27:3.805	WT901BLE68-01(48591DE3C19B)	-0.833	-1.512	0.262	-14.771	-19.226	-25.269	-75.20	24.15	-27.47	-65.366	-38.514	83.594	-0.77945	0.54211	-0.30322	0.08057	30.2	13111	100
2025-3-27 20:27:3.805	WT901BLE68-01(48591DE3C19B)	-0.833	-1.909	0.459	-18.921	-10.315	-45.349	-75.37	23.79	-27.41	-65.366	-38.514	83.594	-0.77945	0.54211	-0.30322	0.08057	30.2	13111	100
2025-3-27 20:27:3.805	WT901BLE68-01(48591DE3C19B)	-0.902	-1.909	0.459	-18.921	-10.315	-45.349	-75.59	23.33	-27.41	-65.366	-38.514	83.594	-0.77945	0.54211	-0.30322	0.08057	30.2	13111	100
2025-3-27 20:27:3.925	WT901BLE68-01(48591DE3C19B)	-0.902	-1.717	0.550	5.432	15.015	-49.316	-75.73	22.88	-27.55	-65.366	-38.514	83.594	-0.77945	0.54211	-0.30322	0.08057	30.2	13111	100
2025-3-27 20:27:3.925	WT901BLE68-01(48591DE3C19B)	-0.658	-1.717	0.550	5.432	15.015	-49.316	-75.79	22.46	-27.83	-65.366	-38.514	83.594	-0.77945	0.54211	-0.30322	0.08057	30.2	13111	100
2025-3-27 20:27:3.926	WT901BLE68-01(48591DE3C19B)	-0.658	-1.158	0.545	9.155	38.086	-41.748	-75.88	22.10	-28.21	-65.366	-38.514	83.594	-0.77945	0.54211	-0.30322	0.08057	30.2	13111	100
2025-3-27 20:27:3.926	WT901BLE68-01(48591DE3C19B)	-0.385	-1.158	0.545	9.155	38.086	-41.748	-75.98	21.81	-28.70	-65.366	-38.514	83.594	-0.77945	0.54211	-0.30322	0.08057	30.2	13111	100
2025-3-27 20:27:3.926	WT901BLE68-01(48591DE3C19B)	-0.385	-0.924	0.391	-6.714	45.288	-27.771	-76.15	21.60	-29.21	-65.366	-38.514	83.594	-0.77945	0.54211	-0.30322	0.08057	30.2	13111	100
2025-3-27 20:27:3.926	WT901BLE68-01(48591DE3C19B)	-0.341	-0.924	0.391	-6.714	45.288	-27.771	-76.40	21.46	-29.73	-65.366	-38.514	83.594	-0.77945	0.54211	-0.30322	0.08057	30.2	13111	100
2025-3-27 20:27:3.926	WT901BLE68-01(48591DE3C19B)	-0.341	-0.862	0.291	-10.498	25.635	-10.254	-76.62	21.38	-30.12	-65.366	-38.514	83.594	-0.77945	0.54211	-0.30322	0.08057	30.2	13111	100
2025-3-27 20:27:3.926	WT901BLE68-01(48591DE3C19B)	-0.414	-0.862	0.291	-10.498	25.635	-10.254	-76.81	21.36	-30.40	-65.366	-38.514	83.594	-0.77945	0.54211	-0.30322	0.08057	30.2	13111	100
2025-3-27 20:27:3.927	WT901BLE68-01(48591DE3C19B)	-0.414	-0.733	0.262	-19.409	-21.790	2.563	-76.90	21.36	-30.15	-65.366	-38.514	83.594	-0.77945	0.54211	-0.30322	0.08057	30.2	13111	100
2025-3-27 20:27:3.927	WT901BLE68-01(48591DE3C19B)	-0.278	-0.733	0.262	-19.409	-21.790	2.563	-76.99	21.35	-29.89	-65.366	-38.514	83.594	-0.77945	0.54211	-0.30322	0.08057	30.2	13111	100
2025-3-27 20:27:3.927	WT901BLE68-01(48591DE3C19B)	-0.278	-0.641	0.256	-26.184	-53.833	22.705	-77.00	21.47	-29.26	-65.366	-38.514	83.594	-0.77945	0.54211	-0.30322	0.08057	30.2	13111	100
2025-3-27 20:27:3.927	WT901BLE68-01(48591DE3C19B)	-0.172	-0.641	0.256	-26.184	-53.833	22.705	-77.00	21.59	-28.63	-65.366	-38.514	83.594	-0.77945	0.54211	-0.30322	0.08057	30.2	13111	100
2025-3-27 20:27:3.985	WT901BLE68-01(48591DE3C19B)	-0.172	-0.598	0.232	-18.921	-32.288	33.875	-77.00	21.86	-28.20	-65.366	-38.514	83.594	-0.77945	0.54211	-0.30322	0.08057	30.2	13111	100
2025-3-27 20:27:3.985	WT901BLE68-01(48591DE3C19B)	-0.179	-0.598	0.232	-18.921	-32.288	33.875	-77.01	22.13	-27.78	-65.366	-38.514	83.594	-0.77945	0.54211	-0.30322	0.08057	30.2	13111	100
2025-3-27 20:27:3.985	WT901BLE68-01(48591DE3C19B)	-0.179	-0.497	0.213	-6.653	10.437	40.588	-77.04	22.55	-27.80	-65.366	-38.514	83.594	-0.77945	0.54211	-0.30322	0.08057	30.2	13111	100
2025-3-27 20:27:3.985	WT901BLE68-01(48591DE3C19B)	-0.245	-0.497	0.213	-6.653	10.437	40.588	-77.08	22.97	-27.82	-65.366	-38.514	83.594	-0.77347	0.55441	-0.30045	0.06317	30.2	13111	100
2025-3-27 20:27:3.989	WT901BLE68-01(48591DE3C19B)	-0.245	-0.355	0.226	-2.136	39.001	47.363	-77.18	23.52	-28.12	-65.366	-38.514	83.594	-0.77347	0.55441	-0.30045	0.06317	30.2	13111	100
2025-3-27 20:27:3.989	WT901BLE68-01(48591DE3C19B)	-0.310	-0.355	0.226	-2.136	39.001	47.363	-77.28	24.07	-28.42	-65.366	-38.514	83.594	-0.77347	0.55441	-0.30045	0.06317	30.2	13111	100
2025-3-27 20:27:3.989	WT901BLE68-01(48591DE3C19B)	-0.310	-0.290	0.236	-7.019	42.358	54.932	-77.43	24.70	-28.74	-65.366	-38.514	83.594	-0.77347	0.55441	-0.30045	0.06317	30.2	13111	100
2025-3-27 20:27:3.989	WT901BLE68-01(48591DE3C19B)	-0.404	-0.290	0.236	-7.019	42.358	54.932	-77.59	25.33	-29.06	-65.366	-38.514	83.594	-0.77347	0.55441	-0.30045	0.06317	30.2	13111	100
2025-3-27 20:27:4.44	WT901BLE68-01(48591DE3C19B)	-0.404	-0.414	0.207	-18.311	25.635	60.181	-77.77	25.98	-29.17	-65.366	-38.514	83.594	-0.77347	0.55441	-0.30045	0.06317	30.2	13111	100
2025-3-27 20:27:4.44	WT901BLE68-01(48591DE3C19B)	-0.499	-0.414	0.207	-18.311	25.635	60.181	-77.95	26.63	-29.29	-65.366	-38.514	83.594	-0.77347	0.55441	-0.30045	0.06317	30.2	13111	100
2025-3-27 20:27:4.44	WT901BLE68-01(48591DE3C19B)	-0.499	-0.688	0.206	-30.579	-7.629	60.608	-78.09	27.21	-29.04	-65.366	-38.514	83.594	-0.77347	0.55441	-0.30045	0.06317	30.2	13111	100
2025-3-27 20:27:4.44	WT901BLE68-01(48591DE3C19B)	-0.567	-0.688	0.206	-30.579	-7.629	60.608	-78.24	27.81	-28.78	-65.366	-38.514	83.594	-0.77347	0.55441	-0.30045	0.06317	30.2	13111	100
2025-3-27 20:27:4.74	WT901BLE68-01(48591DE3C19B)	-0.567	-1.156	0.179	-46.387	-45.105	56.702	-78.35	28.28	-28.12	-65.366	-38.514	83.594	-0.77347	0.55441	-0.30045	0.06317	30.2	13111	100
2025-3-27 20:27:4.74	WT901BLE68-01(48591DE3C19B)	-0.562	-1.156	0.179	-46.387	-45.105	56.702	-78.48	28.75	-27.47	-65.366	-38.514	83.594	-0.77347	0.55441	-0.30045	0.06317	30.2	13111	100
2025-3-27 20:27:4.74	WT901BLE68-01(48591DE3C19B)	-0.562	-1.892	0.146	-43.518	-65.613	38.330	-78.49	28.98	-26.64	-65.366	-38.514	83.594	-0.77347	0.55441	-0.30045	0.06317	30.2	13111	100
2025-3-27 20:27:4.74	WT901BLE68-01(48591DE3C19B)	-0.546	-1.892	0.146	-43.518	-65.613	38.330	-78.51	29.20	-25.83	-65.366	-38.514	83.594	-0.77347	0.55441	-0.30045	0.06317	30.2	13111	100
2025-3-27 20:27:4.103	WT901BLE68-01(48591DE3C19B)	-0.546	-2.475	0.139	-19.714	-66.345	21.179	-78.33	29.23	-25.07	-65.366	-38.514	83.594	-0.77347	0.55441	-0.30045	0.06317	30.2	13111	100
2025-3-27 20:27:4.104	WT901BLE68-01(48591DE3C19B)	-0.611	-2.475	0.139	-19.714	-66.345	21.179	-78.15	29.25	-24.31	-65.366	-38.514	83.594	-0.77347	0.55441	-0.30045	0.06317	30.2	13111	100
2025-3-27 20:27:4.104	WT901BLE68-01(48591DE3C19B)	-0.611	-1.994	0.251	18.677	-50.232	13.123	-77.70	29.22	-23.77	-65.366	-38.514	83.594	-0.77347	0.55441	-0.30045	0.06317	30.2	13111	100
2025-3-27 20:27:4.104	WT901BLE68-01(48591DE3C19B)	-0.475	-1.994	0.251	18.677	-50.232	13.123	-77.25	29.19	-23.23	-65.366	-38.514	83.594	-0.77347	0.55441	-0.30045	0.06317	30.2	13111	100
2025-3-27 20:27:4.164	WT901BLE68-01(48591DE3C19B)	-0.475	-1.515	0.277	10.803	-19.836	14.160	-77.05	29.22	-23.03	-65.366	-38.514	83.594	-0.77347	0.55441	-0.30045	0.06317	30.2	13111	100
2025-3-27 20:27:4.164	WT901BLE68-01(48591DE3C19B)	-0.330	-1.515	0.277	10.803	-19.836	14.160	-76.84	29.25	-22.84	-65.366	-38.514	83.594	-0.77347	0.55441	-0.30045	0.06317	30.2	13111	100
2025-3-27 20:27:4.165	WT901BLE68-01(48591DE3C19B)	-0.330	-1.367	0.273	12.024	29.785	20.325	-76.89	29.45	-23.18	-65.366	-38.514	83.594	-0.77347	0.55441	-0.30045	0.06317	30.2	13111	100
2025-3-27 20:27:4.165	WT901BLE68-01(48591DE3C19B)	-0.312	-1.367	0.273	12.024	29.785	20.325	-76.94	29.65	-23.52	-65.366	-38.514	83.594	-0.77347	0.55441	-0.30045	0.06317	30.2	13111	100
2025-3-27 20:27:4.196	WT901BLE68-01(48591DE3C19B)	-0.312	-1.116	0.233	15.503	64.270	22.339	-77.14	29.94	-24.25	-70.952	-45.766	83.202	-0.77347	0.55441	-0.30045	0.06317	30.2	13111	100
2025-3-27 20:27:4.196	WT901BLE68-01(48591DE3C19B)	-0.396	-1.116	0.233	15.503	64.270	22.339	-77.35	30.23	-24.98	-70.952	-45.766	83.202	-0.77347	0.55441	-0.30045	0.06317	30.2	13111	100
2025-3-27 20:27:4.197	WT901BLE68-01(48591DE3C19B)	-0.396	-0.851	0.195	8.423	64.636	20.630	-77.63	30.50	-25.71	-70.952	-45.766	83.202	-0.77347	0.55441	-0.30045	0.06317	30.2	13111	100
2025-3-27 20:27:4.197	WT901BLE68-01(48591DE3C19B)	-0.500	-0.851	0.195	8.423	64.636	20.630	-77.91	30.76	-26.44	-70.952	-45.766	83.202	-0.77347	0.55441	-0.30045	0.06317	30.2	13111	100
2025-3-27 20:27:4.226	WT901BLE68-01(48591DE3C19B)	-0.500	-0.770	0.167	-6.775	38.025	11.475	-78.20	30.89	-26.89	-70.952	-45.766	83.202	-0.77347	0.55441	-0.30045	0.06317	30.2	13111	100
2025-3-27 20:27:4.226	WT901BLE68-01(48591DE3C19B)	-0.531	-0.770	0.167	-6.775	38.025	11.475	-78.49	31.01	-27.34	-70.952	-45.766	83.202	-0.77347	0.55441	-0.30045	0.06317	30.2	13111	100
2025-3-27 20:27:4.226	WT901BLE68-01(48591DE3C19B)	-0.531	-0.817	0.157	-13.367	12.756	5.249	-78.70	31.03	-27.50	-70.952	-45.766	83.202	-0.77347	0.55441	-0.30045	0.06317	30.2	13111	100
2025-3-27 20:27:4.226	WT901BLE68-01(48591DE3C19B)	-0.575	-0.817	0.157	-13.367	12.756	5.249	-78.91	31.05	-27.66	-70.952	-45.766	83.202	-0.77347	0.55441	-0.30045	0.06317	30.2	13111	100
2025-3-27 20:27:4.344	WT901BLE68-01(48591DE3C19B)	-0.575	-0.808	0.176	-8.789	-4.456	-2.380	-78.98	30.97	-27.64	-70.952	-45.766	83.202	-0.77347	0.55441	-0.30045	0.06317	30.2	13111	100
2025-3-27 20:27:4.345	WT901BLE68-01(48591DE3C19B)	-0.564	-0.808	0.176	-8.789	-4.456	-2.380	-79.05	30.89	-27.61	-70.952	-45.766	83.202	-0.77347	0.55441	-0.30045	0.06317	30.2	13111	100
2025-3-27 20:27:4.345	WT901BLE68-01(48591DE3C19B)	-0.564	-0.695	0.183	-5.066	-22.888	-8.911	-78.98	30.73	-27.38	-70.952	-45.766	83.202	-0.77347	0.55441	-0.30045	0.06317	30.2	13111	100
2025-3-27 20:27:4.345	WT901BLE68-01(48591DE3C19B)	-0.481	-0.695	0.183	-5.066	-22.888	-8.911	-78.90	30.57	-27.15	-70.952	-45.766	83.202	-0.77347	0.55441	-0.30045	0.06317	30.2	13111	100
2025-3-27 20:27:4.346	WT901BLE68-01(48591DE3C19B)	-0.481	-0.610	0.182	-3.784	-32.654	-9.888	-78.76	30.39	-26.81	-70.952	-45.766	83.202	-0.77347	0.55441	-0.30045	0.06317	30.2	13111	100
2025-3-27 20:27:4.346	WT901BLE68-01(48591DE3C19B)	-0.434	-0.610	0.182	-3.784	-32.654	-9.888	-78.62	30.21	-26.47	-70.952	-45.766	83.202	-0.77347	0.55441	-0.30045	0.06317	30.2	13111	100
2025-3-27 20:27:4.346	WT901BLE68-01(48591DE3C19B)	-0.434	-0.573	0.161	0.000	-31.982	-8.789	-78.44	30.05	-26.13	-70.952	-45.766	83.202	-0.77347	0.55441	-0.30045	0.06317	30.2	13111	100
2025-3-27 20:27:4.346	WT901BLE68-01(48591DE3C19B)	-0.417	-0.573	0.161	0.000	-31.982	-8.789	-78.27	29.89	-25.78	-70.952	-45.766	83.202	-0.77347	0.55441	-0.30045	0.06317	30.2	13111	100
2025-3-27 20:27:4.347	WT901BLE68-01(48591DE3C19B)	-0.417	-0.558	0.136	2.991	-24.597	-7.690	-78.10	29.77	-25.52	-70.952	-45.766	83.202	-0.77347	0.55441	-0.30045	0.06317	30.2	13111	100
2025-3-27 20:27:4.347	WT901BLE68-01(48591DE3C19B)	-0.404	-0.558	0.136	2.991	-24.597	-7.690	-77.94	29.64	-25.26	-70.952	-45.766	83.202	-0.77347	0.55441	-0.30045	0.06317	30.2	13111	100
2025-3-27 20:27:4.347	WT901BLE68-01(48591DE3C19B)	-0.395	-0.563	0.105	3.784	-18.005	-5.676	-77.81	29.55	-25.07	-70.952	-45.766	83.202	-0.77347	0.55441	-0.30045	0.06317	30.2	13111	100
2025-3-27 20:27:4.347	WT901BLE68-01(48591DE3C19B)	-0.395	-0.589	0.099	4.395	-15.137	-4.028	-77.68	29.48	-24.88	-70.952	-45.766	83.202	-0.77347	0.55441	-0.30045	0.06317	30.2	13111	100
2025-3-27 20:27:4.405	WT901BLE68-01(48591DE3C19B)	-0.414	-0.589	0.099	4.395	-15.137	-4.028	-77.56	29.41	-24.72	-70.952	-45.766	83.202	-0.77347	0.55441	-0.30045	0.06317	30.2	13111	100
2025-3-27 20:27:4.405	WT901BLE68-01(48591DE3C19B)	-0.414	-0.633	0.111	4.944	-13.977	-4.822	-77.44	29.35	-24.56	-70.952	-45.766	83.202	-0.77142	0.54913	-0.32126	0.00549	30.2	13111	100
2025-3-27 20:27:4.405	WT901BLE68-01(48591DE3C19B)	-0.445	-0.633	0.111	4.944	-13.977	-4.822	-77.33	29.28	-24.41	-70.952	-45.766	83.202	-0.77142	0.54913	-0.32126	0.00549	30.2	13111	100
2025-3-27 20:27:4.405	WT901BLE68-01(48591DE3C19B)	-0.445	-0.667	0.127	6.592	-9.644	-5.981	-77.22	29.22	-24.28	-70.952	-45.766	83.202	-0.77142	0.54913	-0.32126	0.00549	30.2	13111	100
2025-3-27 20:27:4.433	WT901BLE68-01(48591DE3C19B)	-0.472	-0.667	0.127	6.592	-9.644	-5.981	-77.11	29.15	-24.18	-70.952	-45.766	83.202	-0.77142	0.54913	-0.32126	0.00549	30.2	13111	100
2025-3-27 20:27:4.433	WT901BLE68-01(48591DE3C19B)	-0.472	-0.707	0.132	7.813	-2.502	-5.859	-77.03	29.09	-24.11	-70.952	-45.766	83.202	-0.77142	0.54913	-0.32126	0.00549	30.2	13111	100
2025-3-27 20:27:4.433	WT901BLE68-01(48591DE3C19B)	-0.479	-0.707	0.132	7.813	-2.502	-5.859	-76.95	29.05	-24.09	-70.952	-45.766	83.202	-0.77142	0.54913	-0.32126	0.00549	30.2	13111	100
2025-3-27 20:27:4.434	WT901BLE68-01(48591DE3C19B)	-0.479	-0.704	0.132	11.353	4.700	-6.226	-76.88	29.01	-24.11	-70.952	-45.766	83.202	-0.77142	0.54913	-0.32126	0.00549	30.2	13111	100
2025-3-27 20:27:4.464	WT901BLE68-01(48591DE3C19B)	-0.464	-0.704	0.132	11.353	4.700	-6.226	-76.81	28.98	-24.16	-70.952	-45.766	83.202	-0.77142	0.54913	-0.32126	0.00549	30.2	13111	100
2025-3-27 20:27:4.464	WT901BLE68-01(48591DE3C19B)	-0.464	-0.655	0.115	12.207	10.376	-6.226	-76.76	28.95	-24.25	-70.952	-45.766	83.202	-0.77142	0.54913	-0.32126	0.00549	30.2	13111	100
2025-3-27 20:27:4.464	WT901BLE68-01(48591DE3C19B)	-0.453	-0.655	0.115	12.207	10.376	-6.226	-76.71	28.94	-24.36	-70.952	-45.766	83.202	-0.77142	0.54913	-0.32126	0.00549	30.2	13111	100
2025-3-27 20:27:4.464	WT901BLE68-01(48591DE3C19B)	-0.453	-0.636	0.089	10.925	14.954	-6.775	-76.68	28.93	-24.51	-70.952	-45.766	83.202	-0.77142	0.54913	-0.32126	0.00549	30.2	13111	100
2025-3-27 20:27:4.526	WT901BLE68-01(48591DE3C19B)	-0.459	-0.636	0.089	10.925	14.954	-6.775	-76.68	28.92	-24.67	-70.952	-45.766	83.202	-0.77142	0.54913	-0.32126	0.00549	30.2	13111	100
2025-3-27 20:27:4.526	WT901BLE68-01(48591DE3C19B)	-0.459	-0.641	0.070	9.338	16.785	-8.057	-76.70	28.91	-24.85	-70.952	-45.766	83.202	-0.77142	0.54913	-0.32126	0.00549	30.2	13111	100
2025-3-27 20:27:4.526	WT901BLE68-01(48591DE3C19B)	-0.479	-0.641	0.070	9.338	16.785	-8.057	-76.72	28.90	-25.03	-70.952	-45.766	83.202	-0.77142	0.54913	-0.32126	0.00549	30.2	13111	100
2025-3-27 20:27:4.526	WT901BLE68-01(48591DE3C19B)	-0.479	-0.665	0.072	7.935	15.686	-9.216	-76.76	28.88	-25.21	-70.952	-45.766	83.202	-0.77142	0.54913	-0.32126	0.00549	30.2	13111	100
2025-3-27 20:27:4.563	WT901BLE68-01(48591DE3C19B)	-0.503	-0.665	0.072	7.935	15.686	-9.216	-76.79	28.86	-25.38	-70.952	-45.766	83.202	-0.77142	0.54913	-0.32126	0.00549	30.2	13111	100
2025-3-27 20:27:4.564	WT901BLE68-01(48591DE3C19B)	-0.503	-0.682	0.101	7.385	9.766	-8.850	-76.82	28.83	-25.52	-70.952	-45.766	83.202	-0.77142	0.54913	-0.32126	0.00549	30.2	13111	100
2025-3-27 20:27:4.564	WT901BLE68-01(48591DE3C19B)	-0.483	-0.682	0.101	7.385	9.766	-8.850	-76.84	28.80	-25.62	-70.952	-45.766	83.202	-0.77142	0.54913	-0.32126	0.00549	30.2	13111	100
2025-3-27 20:27:4.564	WT901BLE68-01(48591DE3C19B)	-0.483	-0.650	0.149	8.240	5.920	-5.127	-76.84	28.78	-25.70	-74.872	-46.256	83.202	-0.77142	0.54913	-0.32126	0.00549	30.2	13111	100
2025-3-27 20:27:4.615	WT901BLE68-01(48591DE3C19B)	-0.461	-0.650	0.149	8.240	5.920	-5.127	-76.82	28.77	-25.75	-74.872	-46.256	83.202	-0.77142	0.54913	-0.32126	0.00549	30.2	13111	100
2025-3-27 20:27:4.615	WT901BLE68-01(48591DE3C19B)	-0.461	-0.599	0.192	9.644	3.967	2.991	-76.78	28.81	-25.77	-74.872	-46.256	83.202	-0.77142	0.54913	-0.32126	0.00549	30.2	13111	100
2025-3-27 20:27:4.615	WT901BLE68-01(48591DE3C19B)	-0.428	-0.599	0.192	9.644	3.967	2.991	-76.72	28.88	-25.77	-74.872	-46.256	83.202	-0.77142	0.54913	-0.32126	0.00549	30.2	13111	100
2025-3-27 20:27:4.615	WT901BLE68-01(48591DE3C19B)	-0.428	-0.556	0.215	11.597	4.517	15.198	-76.64	29.02	-25.76	-74.872	-46.256	83.202	-0.77142	0.54913	-0.32126	0.00549	30.2	13111	100
2025-3-27 20:27:4.643	WT901BLE68-01(48591DE3C19B)	-0.369	-0.556	0.215	11.597	4.517	15.198	-76.53	29.21	-25.74	-74.872	-46.256	83.202	-0.77142	0.54913	-0.32126	0.00549	30.2	13111	100
2025-3-27 20:27:4.643	WT901BLE68-01(48591DE3C19B)	-0.369	-0.600	0.183	8.911	8.301	23.315	-76.44	29.45	-25.72	-74.872	-46.256	83.202	-0.77142	0.54913	-0.32126	0.00549	30.2	13111	100
2025-3-27 20:27:4.643	WT901BLE68-01(48591DE3C19B)	-0.404	-0.600	0.183	8.911	8.301	23.315	-76.37	29.72	-25.72	-74.872	-46.256	83.202	-0.77142	0.54913	-0.32126	0.00549	30.2	13111	100
2025-3-27 20:27:4.643	WT901BLE68-01(48591DE3C19B)	-0.404	-0.797	0.166	7.935	19.470	23.376	-76.34	30.01	-25.78	-74.872	-46.256	83.202	-0.77142	0.54913	-0.32126	0.00549	30.2	13111	100
2025-3-27 20:27:4.704	WT901BLE68-01(48591DE3C19B)	-0.477	-0.797	0.166	7.935	19.470	23.376	-76.34	30.30	-25.92	-74.872	-46.256	83.202	-0.77142	0.54913	-0.32126	0.00549	30.2	13111	100
2025-3-27 20:27:4.705	WT901BLE68-01(48591DE3C19B)	-0.477	-1.010	0.132	5.432	23.865	16.907	-76.37	30.56	-26.09	-74.872	-46.256	83.202	-0.77142	0.54913	-0.32126	0.00549	30.2	13111	100
2025-3-27 20:27:4.705	WT901BLE68-01(48591DE3C19B)	-0.534	-1.010	0.132	5.432	23.865	16.907	-76.44	30.78	-26.31	-74.872	-46.256	83.202	-0.77142	0.54913	-0.32126	0.00549	30.2	13111	100
2025-3-27 20:27:4.705	WT901BLE68-01(48591DE3C19B)	-0.534	-1.428	0.208	-2.808	23.682	0.122	-76.56	30.92	-26.55	-74.872	-46.256	83.202	-0.77142	0.54913	-0.32126	0.00549	30.2	13111	100
2025-3-27 20:27:4.706	WT901BLE68-01(48591DE3C19B)	-0.780	-1.428	0.208	-2.808	23.682	0.122	-76.74	30.96	-26.83	-74.872	-46.256	83.202	-0.77142	0.54913	-0.32126	0.00549	30.2	13111	100
2025-3-27 20:27:4.706	WT901BLE68-01(48591DE3C19B)	-0.780	-2.202	0.349	-6.226	22.522	-31.982	-76.96	30.84	-27.15	-74.872	-46.256	83.202	-0.77142	0.54913	-0.32126	0.00549	30.2	13111	100
2025-3-27 20:27:4.706	WT901BLE68-01(48591DE3C19B)	-0.989	-2.202	0.349	-6.226	22.522	-31.982	-77.22	30.55	-27.52	-74.872	-46.256	83.202	-0.77142	0.54913	-0.32126	0.00549	30.2	13111	100
2025-3-27 20:27:4.706	WT901BLE68-01(48591DE3C19B)	-0.989	-2.491	0.412	6.226	7.813	-38.025	-77.37	30.21	-27.81	-74.872	-46.256	83.202	-0.77142	0.54913	-0.32126	0.00549	30.2	13111	100
2025-3-27 20:27:4.764	WT901BLE68-01(48591DE3C19B)	-0.763	-2.491	0.412	6.226	7.813	-38.025	-77.42	29.82	-28.02	-74.872	-46.256	83.202	-0.77142	0.54913	-0.32126	0.00549	30.2	13111	100
2025-3-27 20:27:4.764	WT901BLE68-01(48591DE3C19B)	-0.763	-1.563	0.522	14.893	0.549	-36.133	-77.39	29.43	-28.20	-74.872	-46.256	83.202	-0.77142	0.54913	-0.32126	0.00549	30.2	13111	100
2025-3-27 20:27:4.764	WT901BLE68-01(48591DE3C19B)	-0.506	-1.563	0.522	14.893	0.549	-36.133	-77.31	29.05	-28.33	-74.872	-46.256	83.202	-0.77142	0.54913	-0.32126	0.00549	30.2	13111	100
2025-3-27 20:27:4.764	WT901BLE68-01(48591DE3C19B)	-0.506	-1.083	0.543	-5.859	24.780	-10.193	-77.36	28.82	-28.56	-74.872	-46.256	83.202	-0.77142	0.54913	-0.32126	0.00549	30.2	13111	100
2025-3-27 20:27:4.794	WT901BLE68-01(48591DE3C19B)	-0.521	-1.083	0.543	-5.859	24.780	-10.193	-77.56	28.75	-28.89	-74.872	-46.256	83.202	-0.76999	0.53928	-0.33875	0.03775	30.2	13111	100
2025-3-27 20:27:4.794	WT901BLE68-01(48591DE3C19B)	-0.521	-0.901	0.471	-15.198	32.288	4.578	-77.82	28.75	-29.25	-74.872	-46.256	83.202	-0.76999	0.53928	-0.33875	0.03775	30.2	13111	100
2025-3-27 20:27:4.794	WT901BLE68-01(48591DE3C19B)	-0.554	-0.901	0.471	-15.198	32.288	4.578	-78.11	28.83	-29.62	-74.872	-46.256	83.202	-0.76999	0.53928	-0.33875	0.03775	30.2	13111	100
2025-3-27 20:27:4.794	WT901BLE68-01(48591DE3C19B)	-0.554	-0.788	0.361	-31.006	-3.845	14.404	-78.39	28.93	-29.78	-74.872	-46.256	83.202	-0.76999	0.53928	-0.33875	0.03775	30.2	13111	100
2025-3-27 20:27:4.824	WT901BLE68-01(48591DE3C19B)	-0.518	-0.788	0.361	-31.006	-3.845	14.404	-78.63	29.04	-29.73	-74.872	-46.256	83.202	-0.76999	0.53928	-0.33875	0.03775	30.2	13111	100
2025-3-27 20:27:4.824	WT901BLE68-01(48591DE3C19B)	-0.518	-1.012	0.294	-46.814	-48.523	24.292	-78.77	29.16	-29.16	-74.872	-46.256	83.202	-0.76999	0.53928	-0.33875	0.03775	30.2	13111	100
2025-3-27 20:27:4.824	WT901BLE68-01(48591DE3C19B)	-0.476	-1.012	0.294	-46.814	-48.523	24.292	-78.91	29.28	-28.59	-74.872	-46.256	83.202	-0.76999	0.53928	-0.33875	0.03775	30.2	13111	100
2025-3-27 20:27:4.824	WT901BLE68-01(48591DE3C19B)	-0.476	-1.098	0.259	-29.236	-58.350	28.625	-78.82	29.42	-27.90	-74.872	-46.256	83.202	-0.76999	0.53928	-0.33875	0.03775	30.2	13111	100
2025-3-27 20:27:4.915	WT901BLE68-01(48591DE3C19B)	-0.394	-1.098	0.259	-29.236	-58.350	28.625	-78.73	29.56	-27.21	-74.872	-46.256	83.202	-0.76999	0.53928	-0.33875	0.03775	30.2	13111	100
2025-3-27 20:27:4.915	WT901BLE68-01(48591DE3C19B)	-0.394	-0.893	0.228	-14.038	-46.692	26.917	-78.55	29.70	-26.66	-74.872	-46.256	83.202	-0.76999	0.53928	-0.33875	0.03775	30.2	13111	100
2025-3-27 20:27:4.915	WT901BLE68-01(48591DE3C19B)	-0.319	-0.893	0.228	-14.038	-46.692	26.917	-78.38	29.84	-26.12	-74.872	-46.256	83.202	-0.76999	0.53928	-0.33875	0.03775	30.2	13111	100
2025-3-27 20:27:4.915	WT901BLE68-01(48591DE3C19B)	-0.319	-0.723	0.208	-7.751	-19.104	26.428	-78.29	30.03	-25.89	-74.872	-46.256	83.202	-0.76999	0.53928	-0.33875	0.03775	30.2	13111	100
2025-3-27 20:27:4.945	WT901BLE68-01(48591DE3C19B)	-0.320	-0.723	0.208	-7.751	-19.104	26.428	-78.21	30.21	-25.66	-74.872	-46.256	83.202	-0.76999	0.53928	-0.33875	0.03775	30.2	13111	100
2025-3-27 20:27:4.945	WT901BLE68-01(48591DE3C19B)	-0.320	-0.625	0.231	-4.395	5.798	24.658	-78.23	30.43	-25.71	-74.872	-46.256	83.202	-0.76999	0.53928	-0.33875	0.03775	30.2	13111	100
2025-3-27 20:27:4.946	WT901BLE68-01(48591DE3C19B)	-0.350	-0.625	0.231	-4.395	5.798	24.658	-78.25	30.65	-25.77	-74.872	-46.256	83.202	-0.76999	0.53928	-0.33875	0.03775	30.2	13111	100
2025-3-27 20:27:4.946	WT901BLE68-01(48591DE3C19B)	-0.350	-0.571	0.257	-3.418	14.648	19.104	-78.32	30.83	-25.93	-74.872	-46.256	83.202	-0.76999	0.53928	-0.33875	0.03775	30.2	13111	100
2025-3-27 20:27:4.946	WT901BLE68-01(48591DE3C19B)	-0.383	-0.571	0.257	-3.418	14.648	19.104	-78.38	31.01	-26.10	-74.872	-46.256	83.202	-0.76999	0.53928	-0.33875	0.03775	30.2	13111	100
2025-3-27 20:27:4.946	WT901BLE68-01(48591DE3C19B)	-0.383	-0.555	0.270	-3.235	14.648	13.367	-78.45	31.13	-26.28	-74.872	-46.256	83.202	-0.76999	0.53928	-0.33875	0.03775	30.2	13111	100
2025-3-27 20:27:4.946	WT901BLE68-01(48591DE3C19B)	-0.434	-0.555	0.270	-3.235	14.648	13.367	-78.51	31.26	-26.46	-74.872	-46.256	83.202	-0.76999	0.53928	-0.33875	0.03775	30.2	13111	100
2025-3-27 20:27:4.946	WT901BLE68-01(48591DE3C19B)	-0.434	-0.557	0.252	-4.822	7.324	7.874	-78.55	31.32	-26.55	-74.872	-46.256	83.202	-0.76999	0.53928	-0.33875	0.03775	30.2	13111	100
