time	DeviceName	AccX(g)	AccY(g)	AccZ(g)	AsX(°/s)	AsY(°/s)	AsZ(°/s)	AngleX(°)	AngleY(°)	AngleZ(°)	HX(uT)	HY(uT)	HZ(uT)	Q0()	Q1()	Q2()	Q3()	Temperature(°C)	Version()	Battery level(%)
2025-3-27 20:22:58.493	WT901BLE68-01(48591DE3C19B)	-0.348	-0.872	0.287	0.183	0.671	-2.869	-72.78	20.51	-58.47	-50.666	-51.450	35.182	-0.74338	0.43915	-0.41116	0.29218	29.9	13111	100
2025-3-27 20:22:58.493	WT901BLE68-01(48591DE3C19B)	-0.348	-0.870	0.288	-0.061	-0.061	-2.930	-72.78	20.48	-58.47	-50.470	-51.646	35.182	-0.74338	0.43915	-0.41116	0.29218	29.9	13111	100
2025-3-27 20:22:58.493	WT901BLE68-01(48591DE3C19B)	-0.345	-0.870	0.288	-0.061	-0.061	-2.930	-72.78	20.46	-58.47	-50.470	-51.646	35.182	-0.74338	0.43915	-0.41116	0.29218	29.9	13111	100
2025-3-27 20:22:58.493	WT901BLE68-01(48591DE3C19B)	-0.345	-0.880	0.289	-0.305	-0.244	-3.052	-72.78	20.43	-58.46	-50.470	-51.646	35.182	-0.74338	0.43915	-0.41116	0.29218	29.9	13111	100
2025-3-27 20:22:58.521	WT901BLE68-01(48591DE3C19B)	-0.341	-0.880	0.289	-0.305	-0.244	-3.052	-72.78	20.40	-58.46	-50.470	-51.646	35.182	-0.74338	0.43915	-0.41116	0.29218	29.9	13111	100
2025-3-27 20:22:58.521	WT901BLE68-01(48591DE3C19B)	-0.341	-0.894	0.289	0.061	0.793	-3.052	-72.78	20.37	-58.46	-50.470	-51.646	35.182	-0.74338	0.43915	-0.41116	0.29218	29.9	13111	100
2025-3-27 20:22:58.521	WT901BLE68-01(48591DE3C19B)	-0.342	-0.894	0.289	0.061	0.793	-3.052	-72.78	20.35	-58.46	-50.470	-51.646	35.182	-0.74338	0.43915	-0.41116	0.29218	29.9	13111	100
2025-3-27 20:22:58.521	WT901BLE68-01(48591DE3C19B)	-0.342	-0.904	0.292	0.366	2.319	-2.808	-72.78	20.32	-58.48	-50.470	-51.646	35.182	-0.74338	0.43915	-0.41116	0.29218	29.9	13111	100
2025-3-27 20:22:58.551	WT901BLE68-01(48591DE3C19B)	-0.341	-0.904	0.292	0.366	2.319	-2.808	-72.78	20.30	-58.50	-50.470	-51.646	35.182	-0.74338	0.43915	-0.41116	0.29218	29.9	13111	100
2025-3-27 20:22:58.551	WT901BLE68-01(48591DE3C19B)	-0.341	-0.907	0.294	1.038	3.662	-2.197	-72.78	20.29	-58.52	-50.470	-51.646	35.182	-0.74338	0.43915	-0.41116	0.29218	29.9	13111	100
2025-3-27 20:22:58.551	WT901BLE68-01(48591DE3C19B)	-0.344	-0.907	0.294	1.038	3.662	-2.197	-72.78	20.28	-58.56	-50.470	-51.646	35.182	-0.74338	0.43915	-0.41116	0.29218	29.9	13111	100
2025-3-27 20:22:58.552	WT901BLE68-01(48591DE3C19B)	-0.344	-0.902	0.298	1.404	4.578	-1.038	-72.78	20.28	-58.60	-50.470	-51.646	35.182	-0.74338	0.43915	-0.41116	0.29218	29.9	13111	100
2025-3-27 20:22:58.611	WT901BLE68-01(48591DE3C19B)	-0.341	-0.902	0.298	1.404	4.578	-1.038	-72.78	20.28	-58.63	-50.470	-51.646	35.182	-0.74338	0.43915	-0.41116	0.29218	29.9	13111	100
2025-3-27 20:22:58.612	WT901BLE68-01(48591DE3C19B)	-0.341	-0.898	0.299	1.221	4.333	0.061	-72.77	20.29	-58.67	-50.470	-51.646	35.182	-0.74338	0.43915	-0.41116	0.29218	29.9	13111	100
2025-3-27 20:22:58.612	WT901BLE68-01(48591DE3C19B)	-0.338	-0.898	0.299	1.221	4.333	0.061	-72.77	20.30	-58.70	-50.470	-51.646	35.182	-0.74338	0.43915	-0.41116	0.29218	29.9	13111	100
2025-3-27 20:22:58.612	WT901BLE68-01(48591DE3C19B)	-0.338	-0.898	0.301	1.038	3.723	0.793	-72.77	20.31	-58.73	-50.470	-51.646	35.182	-0.74338	0.43915	-0.41116	0.29218	29.9	13111	100
2025-3-27 20:22:58.643	WT901BLE68-01(48591DE3C19B)	-0.336	-0.898	0.301	1.038	3.723	0.793	-72.77	20.33	-58.75	-50.470	-51.646	35.182	-0.74338	0.43915	-0.41116	0.29218	29.9	13111	100
2025-3-27 20:22:58.644	WT901BLE68-01(48591DE3C19B)	-0.336	-0.899	0.309	0.610	2.625	0.854	-72.76	20.35	-58.78	-50.470	-51.646	35.182	-0.74338	0.43915	-0.41116	0.29218	29.9	13111	100
2025-3-27 20:22:58.644	WT901BLE68-01(48591DE3C19B)	-0.333	-0.899	0.309	0.610	2.625	0.854	-72.76	20.36	-58.79	-50.470	-51.646	35.182	-0.74338	0.43915	-0.41116	0.29218	29.9	13111	100
2025-3-27 20:22:58.644	WT901BLE68-01(48591DE3C19B)	-0.333	-0.905	0.316	0.305	1.770	0.244	-72.75	20.37	-58.81	-50.470	-51.646	35.182	-0.74338	0.43915	-0.41116	0.29218	29.9	13111	100
2025-3-27 20:22:58.674	WT901BLE68-01(48591DE3C19B)	-0.331	-0.905	0.316	0.305	1.770	0.244	-72.75	20.37	-58.82	-50.470	-51.646	35.182	-0.74338	0.43915	-0.41116	0.29218	29.9	13111	100
2025-3-27 20:22:58.675	WT901BLE68-01(48591DE3C19B)	-0.331	-0.905	0.317	0.366	1.099	-0.854	-72.75	20.37	-58.83	-50.470	-51.646	35.182	-0.74338	0.43915	-0.41116	0.29218	29.9	13111	100
2025-3-27 20:22:58.675	WT901BLE68-01(48591DE3C19B)	-0.326	-0.905	0.317	0.366	1.099	-0.854	-72.73	20.36	-58.84	-50.470	-51.646	35.182	-0.74176	0.43842	-0.41064	0.29797	29.9	13111	100
2025-3-27 20:22:58.675	WT901BLE68-01(48591DE3C19B)	-0.326	-0.916	0.320	0.244	0.793	-2.625	-72.73	20.34	-58.85	-50.470	-51.646	35.182	-0.74176	0.43842	-0.41064	0.29797	29.9	13111	100
2025-3-27 20:22:58.732	WT901BLE68-01(48591DE3C19B)	-0.325	-0.916	0.320	0.244	0.793	-2.625	-72.72	20.31	-58.86	-50.470	-51.646	35.182	-0.74176	0.43842	-0.41064	0.29797	29.9	13111	100
2025-3-27 20:22:58.732	WT901BLE68-01(48591DE3C19B)	-0.325	-0.928	0.326	0.854	1.709	-4.639	-72.72	20.28	-58.89	-50.470	-51.646	35.182	-0.74176	0.43842	-0.41064	0.29797	29.9	13111	100
2025-3-27 20:22:58.732	WT901BLE68-01(48591DE3C19B)	-0.327	-0.928	0.326	0.854	1.709	-4.639	-72.71	20.23	-58.92	-50.470	-51.646	35.182	-0.74176	0.43842	-0.41064	0.29797	29.9	13111	100
2025-3-27 20:22:58.732	WT901BLE68-01(48591DE3C19B)	-0.327	-0.937	0.330	1.770	2.441	-6.775	-72.70	20.18	-58.96	-50.470	-51.646	35.182	-0.74176	0.43842	-0.41064	0.29797	29.9	13111	100
2025-3-27 20:22:58.763	WT901BLE68-01(48591DE3C19B)	-0.318	-0.937	0.330	1.770	2.441	-6.775	-72.69	20.12	-59.01	-50.470	-51.646	35.182	-0.74176	0.43842	-0.41064	0.29797	29.9	13111	100
2025-3-27 20:22:58.763	WT901BLE68-01(48591DE3C19B)	-0.318	-0.923	0.330	3.540	4.211	-8.545	-72.67	20.04	-59.07	-50.470	-51.646	35.182	-0.74176	0.43842	-0.41064	0.29797	29.9	13111	100
2025-3-27 20:22:58.763	WT901BLE68-01(48591DE3C19B)	-0.314	-0.923	0.330	3.540	4.211	-8.545	-72.65	19.97	-59.14	-50.470	-51.646	35.182	-0.74176	0.43842	-0.41064	0.29797	29.9	13111	100
2025-3-27 20:22:58.763	WT901BLE68-01(48591DE3C19B)	-0.314	-0.900	0.324	5.127	6.531	-9.888	-72.63	19.89	-59.23	-50.470	-51.646	35.182	-0.74176	0.43842	-0.41064	0.29797	29.9	13111	100
2025-3-27 20:22:58.791	WT901BLE68-01(48591DE3C19B)	-0.314	-0.900	0.324	5.127	6.531	-9.888	-72.60	19.81	-59.33	-50.470	-51.646	35.182	-0.74176	0.43842	-0.41064	0.29797	29.9	13111	100
2025-3-27 20:22:58.791	WT901BLE68-01(48591DE3C19B)	-0.314	-0.874	0.320	6.226	8.545	-10.986	-72.56	19.73	-59.44	-50.470	-51.646	35.182	-0.74176	0.43842	-0.41064	0.29797	29.9	13111	100
2025-3-27 20:22:58.792	WT901BLE68-01(48591DE3C19B)	-0.317	-0.874	0.320	6.226	8.545	-10.986	-72.53	19.64	-59.56	-50.470	-51.646	35.182	-0.74176	0.43842	-0.41064	0.29797	29.9	13111	100
2025-3-27 20:22:58.792	WT901BLE68-01(48591DE3C19B)	-0.317	-0.861	0.318	6.531	9.583	-12.207	-72.50	19.56	-59.69	-50.470	-51.646	35.182	-0.74176	0.43842	-0.41064	0.29797	29.9	13111	100
2025-3-27 20:22:58.861	WT901BLE68-01(48591DE3C19B)	-0.320	-0.861	0.318	6.531	9.583	-12.207	-72.47	19.46	-59.83	-50.470	-51.646	35.182	-0.74176	0.43842	-0.41064	0.29797	29.9	13111	100
2025-3-27 20:22:58.861	WT901BLE68-01(48591DE3C19B)	-0.320	-0.848	0.314	6.897	9.766	-13.550	-72.43	19.36	-59.97	-50.470	-51.646	35.182	-0.74176	0.43842	-0.41064	0.29797	29.9	13111	100
2025-3-27 20:22:58.861	WT901BLE68-01(48591DE3C19B)	-0.325	-0.848	0.314	6.897	9.766	-13.550	-72.40	19.26	-60.11	-50.470	-51.646	35.182	-0.74176	0.43842	-0.41064	0.29797	29.9	13111	100
2025-3-27 20:22:58.861	WT901BLE68-01(48591DE3C19B)	-0.325	-0.838	0.313	6.714	9.216	-15.381	-72.37	19.15	-60.25	-50.470	-51.646	35.182	-0.74176	0.43842	-0.41064	0.29797	29.9	13111	100
2025-3-27 20:22:58.884	WT901BLE68-01(48591DE3C19B)	-0.336	-0.838	0.313	6.714	9.216	-15.381	-72.33	19.03	-60.39	-50.470	-51.646	35.182	-0.74176	0.43842	-0.41064	0.29797	29.9	13111	100
2025-3-27 20:22:58.884	WT901BLE68-01(48591DE3C19B)	-0.336	-0.826	0.314	7.080	8.728	-17.029	-72.30	18.90	-60.52	-50.470	-51.646	35.182	-0.74176	0.43842	-0.41064	0.29797	29.9	13111	100
2025-3-27 20:22:58.884	WT901BLE68-01(48591DE3C19B)	-0.338	-0.826	0.314	7.080	8.728	-17.029	-72.26	18.76	-60.66	-50.470	-51.646	35.182	-0.74176	0.43842	-0.41064	0.29797	29.9	13111	100
2025-3-27 20:22:58.884	WT901BLE68-01(48591DE3C19B)	-0.338	-0.812	0.310	6.653	8.240	-18.188	-72.22	18.62	-60.79	-49.588	-51.646	35.770	-0.74176	0.43842	-0.41064	0.29797	29.9	13111	100
2025-3-27 20:22:58.914	WT901BLE68-01(48591DE3C19B)	-0.352	-0.812	0.310	6.653	8.240	-18.188	-72.19	18.48	-60.92	-49.588	-51.646	35.770	-0.74176	0.43842	-0.41064	0.29797	29.9	13111	100
2025-3-27 20:22:58.914	WT901BLE68-01(48591DE3C19B)	-0.352	-0.807	0.310	6.409	9.094	-18.921	-72.16	18.34	-61.06	-49.588	-51.646	35.770	-0.74176	0.43842	-0.41064	0.29797	29.9	13111	100
2025-3-27 20:22:58.914	WT901BLE68-01(48591DE3C19B)	-0.382	-0.807	0.310	6.409	9.094	-18.921	-72.13	18.20	-61.19	-49.588	-51.646	35.770	-0.74176	0.43842	-0.41064	0.29797	29.9	13111	100
2025-3-27 20:22:58.914	WT901BLE68-01(48591DE3C19B)	-0.382	-0.806	0.315	5.737	8.972	-18.860	-72.10	18.06	-61.31	-49.588	-51.646	35.770	-0.74176	0.43842	-0.41064	0.29797	29.9	13111	100
2025-3-27 20:22:58.975	WT901BLE68-01(48591DE3C19B)	-0.404	-0.806	0.315	5.737	8.972	-18.860	-72.08	17.92	-61.44	-49.588	-51.646	35.770	-0.74176	0.43842	-0.41064	0.29797	29.9	13111	100
2025-3-27 20:22:58.976	WT901BLE68-01(48591DE3C19B)	-0.404	-0.813	0.311	4.639	7.080	-17.395	-72.05	17.80	-61.54	-49.588	-51.646	35.770	-0.74176	0.43842	-0.41064	0.29797	29.9	13111	100
2025-3-27 20:22:58.976	WT901BLE68-01(48591DE3C19B)	-0.414	-0.813	0.311	4.639	7.080	-17.395	-72.03	17.68	-61.63	-49.588	-51.646	35.770	-0.74176	0.43842	-0.41064	0.29797	29.9	13111	100
2025-3-27 20:22:58.976	WT901BLE68-01(48591DE3C19B)	-0.414	-0.812	0.306	3.967	5.127	-15.015	-72.01	17.58	-61.69	-49.588	-51.646	35.770	-0.74176	0.43842	-0.41064	0.29797	29.9	13111	100
2025-3-27 20:22:59.33	WT901BLE68-01(48591DE3C19B)	-0.417	-0.812	0.306	3.967	5.127	-15.015	-71.99	17.48	-61.75	-49.588	-51.646	35.770	-0.74176	0.43842	-0.41064	0.29797	29.9	13111	100
2025-3-27 20:22:59.33	WT901BLE68-01(48591DE3C19B)	-0.417	-0.807	0.307	2.869	2.686	-12.390	-71.97	17.41	-61.78	-49.588	-51.646	35.770	-0.74176	0.43842	-0.41064	0.29797	29.9	13111	100
2025-3-27 20:22:59.33	WT901BLE68-01(48591DE3C19B)	-0.422	-0.807	0.307	2.869	2.686	-12.390	-71.94	17.33	-61.79	-49.588	-51.646	35.770	-0.74176	0.43842	-0.41064	0.29797	29.9	13111	100
2025-3-27 20:22:59.33	WT901BLE68-01(48591DE3C19B)	-0.422	-0.799	0.311	1.892	2.380	-9.521	-71.93	17.29	-61.80	-49.588	-51.646	35.770	-0.74176	0.43842	-0.41064	0.29797	29.9	13111	100
2025-3-27 20:22:59.34	WT901BLE68-01(48591DE3C19B)	-0.420	-0.799	0.311	1.892	2.380	-9.521	-71.91	17.24	-61.79	-49.588	-51.646	35.770	-0.74176	0.43842	-0.41064	0.29797	29.9	13111	100
2025-3-27 20:22:59.34	WT901BLE68-01(48591DE3C19B)	-0.420	-0.795	0.305	0.793	3.113	-6.836	-71.91	17.23	-61.79	-49.588	-51.646	35.770	-0.74176	0.43842	-0.41064	0.29797	29.9	13111	100
2025-3-27 20:22:59.34	WT901BLE68-01(48591DE3C19B)	-0.424	-0.795	0.305	0.793	3.113	-6.836	-71.91	17.21	-61.78	-49.588	-51.646	35.770	-0.74176	0.43842	-0.41064	0.29797	29.9	13111	100
2025-3-27 20:22:59.34	WT901BLE68-01(48591DE3C19B)	-0.424	-0.800	0.298	-0.549	4.456	-4.333	-71.92	17.23	-61.78	-49.588	-51.646	35.770	-0.74176	0.43842	-0.41064	0.29797	29.9	13111	100
2025-3-27 20:22:59.122	WT901BLE68-01(48591DE3C19B)	-0.437	-0.800	0.298	-0.549	4.456	-4.333	-71.93	17.24	-61.77	-49.588	-51.646	35.770	-0.74176	0.43842	-0.41064	0.29797	29.9	13111	100
2025-3-27 20:22:59.122	WT901BLE68-01(48591DE3C19B)	-0.437	-0.803	0.301	-1.526	4.089	-2.441	-71.95	17.28	-61.75	-49.588	-51.646	35.770	-0.74176	0.43842	-0.41064	0.29797	29.9	13111	100
2025-3-27 20:22:59.122	WT901BLE68-01(48591DE3C19B)	-0.441	-0.803	0.301	-1.526	4.089	-2.441	-71.97	17.31	-61.72	-49.588	-51.646	35.770	-0.74176	0.43842	-0.41064	0.29797	29.9	13111	100
2025-3-27 20:22:59.123	WT901BLE68-01(48591DE3C19B)	-0.441	-0.799	0.307	-3.662	1.831	-0.732	-72.00	17.36	-61.67	-49.588	-51.646	35.770	-0.74176	0.43842	-0.41064	0.29797	29.9	13111	100
2025-3-27 20:22:59.123	WT901BLE68-01(48591DE3C19B)	-0.435	-0.799	0.307	-3.662	1.831	-0.732	-72.03	17.41	-61.61	-49.588	-51.646	35.770	-0.73227	0.43649	-0.40283	0.33298	29.9	13111	100
2025-3-27 20:22:59.123	WT901BLE68-01(48591DE3C19B)	-0.435	-0.801	0.310	-5.066	-0.061	1.099	-72.07	17.47	-61.52	-49.588	-51.646	35.770	-0.73227	0.43649	-0.40283	0.33298	29.9	13111	100
2025-3-27 20:22:59.123	WT901BLE68-01(48591DE3C19B)	-0.429	-0.801	0.310	-5.066	-0.061	1.099	-72.11	17.53	-61.44	-49.588	-51.646	35.770	-0.73227	0.43649	-0.40283	0.33298	29.9	13111	100
2025-3-27 20:22:59.124	WT901BLE68-01(48591DE3C19B)	-0.429	-0.797	0.304	-5.676	-0.488	3.418	-72.15	17.61	-61.34	-49.588	-51.646	35.770	-0.73227	0.43649	-0.40283	0.33298	29.9	13111	100
2025-3-27 20:22:59.153	WT901BLE68-01(48591DE3C19B)	-0.414	-0.797	0.304	-5.676	-0.488	3.418	-72.19	17.69	-61.24	-49.588	-51.646	35.770	-0.73227	0.43649	-0.40283	0.33298	29.9	13111	100
2025-3-27 20:22:59.154	WT901BLE68-01(48591DE3C19B)	-0.414	-0.765	0.295	-5.920	-0.244	6.226	-72.23	17.80	-61.13	-49.588	-51.646	35.770	-0.73227	0.43649	-0.40283	0.33298	29.9	13111	100
2025-3-27 20:22:59.154	WT901BLE68-01(48591DE3C19B)	-0.409	-0.765	0.295	-5.920	-0.244	6.226	-72.27	17.91	-61.03	-49.588	-51.646	35.770	-0.73227	0.43649	-0.40283	0.33298	29.9	13111	100
2025-3-27 20:22:59.154	WT901BLE68-01(48591DE3C19B)	-0.409	-0.750	0.287	-7.202	0.366	8.362	-72.32	18.05	-60.92	-49.588	-51.646	35.770	-0.73227	0.43649	-0.40283	0.33298	29.9	13111	100
2025-3-27 20:22:59.212	WT901BLE68-01(48591DE3C19B)	-0.421	-0.750	0.287	-7.202	0.366	8.362	-72.38	18.18	-60.81	-49.588	-51.646	35.770	-0.73227	0.43649	-0.40283	0.33298	29.9	13111	100
2025-3-27 20:22:59.212	WT901BLE68-01(48591DE3C19B)	-0.421	-0.749	0.287	-8.423	-0.122	9.766	-72.44	18.32	-60.69	-49.588	-51.646	35.770	-0.73227	0.43649	-0.40283	0.33298	29.9	13111	100
2025-3-27 20:22:59.212	WT901BLE68-01(48591DE3C19B)	-0.432	-0.749	0.287	-8.423	-0.122	9.766	-72.50	18.46	-60.57	-49.588	-51.646	35.770	-0.73227	0.43649	-0.40283	0.33298	29.9	13111	100
2025-3-27 20:22:59.212	WT901BLE68-01(48591DE3C19B)	-0.432	-0.740	0.289	-9.460	-2.808	10.437	-72.56	18.61	-60.42	-49.588	-51.646	35.770	-0.73227	0.43649	-0.40283	0.33298	29.9	13111	100
2025-3-27 20:22:59.243	WT901BLE68-01(48591DE3C19B)	-0.423	-0.740	0.289	-9.460	-2.808	10.437	-72.63	18.74	-60.28	-49.588	-51.646	35.770	-0.73227	0.43649	-0.40283	0.33298	29.9	13111	100
2025-3-27 20:22:59.243	WT901BLE68-01(48591DE3C19B)	-0.423	-0.717	0.281	-10.315	-4.944	10.559	-72.69	18.88	-60.11	-49.588	-51.646	35.770	-0.73227	0.43649	-0.40283	0.33298	29.9	13111	100
2025-3-27 20:22:59.243	WT901BLE68-01(48591DE3C19B)	-0.408	-0.717	0.281	-10.315	-4.944	10.559	-72.75	19.02	-59.94	-49.588	-51.646	35.770	-0.73227	0.43649	-0.40283	0.33298	29.9	13111	100
2025-3-27 20:22:59.243	WT901BLE68-01(48591DE3C19B)	-0.408	-0.689	0.268	-10.803	-5.188	10.681	-72.81	19.16	-59.77	-49.588	-51.646	35.770	-0.73227	0.43649	-0.40283	0.33298	29.9	13111	100
2025-3-27 20:22:59.333	WT901BLE68-01(48591DE3C19B)	-0.402	-0.689	0.268	-10.803	-5.188	10.681	-72.87	19.30	-59.59	-49.588	-51.646	35.770	-0.73227	0.43649	-0.40283	0.33298	29.9	13111	100
2025-3-27 20:22:59.333	WT901BLE68-01(48591DE3C19B)	-0.402	-0.673	0.249	-12.268	-4.211	9.766	-72.96	19.43	-59.43	-49.588	-51.646	35.770	-0.73227	0.43649	-0.40283	0.33298	29.9	13111	100
2025-3-27 20:22:59.333	WT901BLE68-01(48591DE3C19B)	-0.414	-0.673	0.249	-12.268	-4.211	9.766	-73.04	19.56	-59.25	-46.648	-53.018	34.692	-0.73227	0.43649	-0.40283	0.33298	29.9	13111	100
2025-3-27 20:22:59.333	WT901BLE68-01(48591DE3C19B)	-0.414	-0.691	0.235	-14.709	-3.479	5.981	-73.15	19.66	-59.11	-46.648	-53.018	34.692	-0.73227	0.43649	-0.40283	0.33298	29.9	13111	100
2025-3-27 20:22:59.334	WT901BLE68-01(48591DE3C19B)	-0.444	-0.691	0.235	-14.709	-3.479	5.981	-73.27	19.76	-58.95	-46.648	-53.018	34.692	-0.73227	0.43649	-0.40283	0.33298	29.9	13111	100
2025-3-27 20:22:59.334	WT901BLE68-01(48591DE3C19B)	-0.470	-0.747	0.246	-17.517	-3.845	-1.404	-73.42	19.79	-58.82	-46.648	-53.018	34.692	-0.73227	0.43649	-0.40283	0.33298	29.9	13111	100
2025-3-27 20:22:59.334	WT901BLE68-01(48591DE3C19B)	-0.470	-0.849	0.281	-19.104	-7.996	-10.193	-73.58	19.77	-58.67	-46.648	-53.018	34.692	-0.73227	0.43649	-0.40283	0.33298	29.9	13111	100
2025-3-27 20:22:59.334	WT901BLE68-01(48591DE3C19B)	-0.467	-0.849	0.281	-19.104	-7.996	-10.193	-73.73	19.70	-58.51	-46.648	-53.018	34.692	-0.73227	0.43649	-0.40283	0.33298	29.9	13111	100
2025-3-27 20:22:59.362	WT901BLE68-01(48591DE3C19B)	-0.467	-0.920	0.303	-16.418	-8.301	-16.113	-73.89	19.61	-58.36	-46.648	-53.018	34.692	-0.73227	0.43649	-0.40283	0.33298	29.9	13111	100
2025-3-27 20:22:59.362	WT901BLE68-01(48591DE3C19B)	-0.430	-0.920	0.303	-16.418	-8.301	-16.113	-74.03	19.48	-58.22	-46.648	-53.018	34.692	-0.73227	0.43649	-0.40283	0.33298	29.9	13111	100
2025-3-27 20:22:59.362	WT901BLE68-01(48591DE3C19B)	-0.430	-0.927	0.283	-11.658	-0.610	-18.677	-74.16	19.36	-58.13	-46.648	-53.018	34.692	-0.73227	0.43649	-0.40283	0.33298	29.9	13111	100
2025-3-27 20:22:59.362	WT901BLE68-01(48591DE3C19B)	-0.407	-0.927	0.283	-11.658	-0.610	-18.677	-74.27	19.23	-58.08	-46.648	-53.018	34.692	-0.73227	0.43649	-0.40283	0.33298	29.9	13111	100
2025-3-27 20:22:59.422	WT901BLE68-01(48591DE3C19B)	-0.407	-0.897	0.273	-7.080	13.000	-18.860	-74.39	19.11	-58.11	-46.648	-53.018	34.692	-0.73227	0.43649	-0.40283	0.33298	29.9	13111	100
2025-3-27 20:22:59.422	WT901BLE68-01(48591DE3C19B)	-0.416	-0.897	0.273	-7.080	13.000	-18.860	-74.51	19.01	-58.22	-46.648	-53.018	34.692	-0.73227	0.43649	-0.40283	0.33298	29.9	13111	100
2025-3-27 20:22:59.422	WT901BLE68-01(48591DE3C19B)	-0.416	-0.804	0.293	-2.502	23.987	-14.587	-74.62	18.94	-58.36	-46.648	-53.018	34.692	-0.73227	0.43649	-0.40283	0.33298	29.9	13111	100
2025-3-27 20:22:59.422	WT901BLE68-01(48591DE3C19B)	-0.403	-0.804	0.293	-2.502	23.987	-14.587	-74.73	18.91	-58.57	-46.648	-53.018	34.692	-0.73227	0.43649	-0.40283	0.33298	29.9	13111	100
2025-3-27 20:22:59.453	WT901BLE68-01(48591DE3C19B)	-0.403	-0.610	0.322	-1.038	23.560	-4.883	-74.82	18.92	-58.75	-46.648	-53.018	34.692	-0.73227	0.43649	-0.40283	0.33298	29.9	13111	100
2025-3-27 20:22:59.453	WT901BLE68-01(48591DE3C19B)	-0.386	-0.610	0.322	-1.038	23.560	-4.883	-74.89	18.99	-58.93	-46.648	-53.018	34.692	-0.73227	0.43649	-0.40283	0.33298	29.9	13111	100
2025-3-27 20:22:59.453	WT901BLE68-01(48591DE3C19B)	-0.386	-0.412	0.339	-2.441	17.212	9.155	-74.95	19.11	-59.05	-46.648	-53.018	34.692	-0.73227	0.43649	-0.40283	0.33298	29.9	13111	100
2025-3-27 20:22:59.454	WT901BLE68-01(48591DE3C19B)	-0.407	-0.412	0.339	-2.441	17.212	9.155	-74.99	19.30	-59.13	-46.648	-53.018	34.692	-0.73227	0.43649	-0.40283	0.33298	29.9	13111	100
2025-3-27 20:22:59.484	WT901BLE68-01(48591DE3C19B)	-0.407	-0.332	0.323	-9.705	-3.357	23.376	-75.01	19.53	-59.09	-46.648	-53.018	34.692	-0.73227	0.43649	-0.40283	0.33298	29.9	13111	100
2025-3-27 20:22:59.484	WT901BLE68-01(48591DE3C19B)	-0.437	-0.332	0.323	-9.705	-3.357	23.376	-75.03	19.81	-58.93	-46.648	-53.018	34.692	-0.73227	0.43649	-0.40283	0.33298	29.9	13111	100
2025-3-27 20:22:59.484	WT901BLE68-01(48591DE3C19B)	-0.437	-0.445	0.292	-25.513	-38.147	33.508	-75.05	20.10	-58.59	-46.648	-53.018	34.692	-0.73383	0.45578	-0.41400	0.28680	29.9	13111	100
2025-3-27 20:22:59.484	WT901BLE68-01(48591DE3C19B)	-0.443	-0.445	0.292	-25.513	-38.147	33.508	-75.09	20.40	-58.06	-46.648	-53.018	34.692	-0.73383	0.45578	-0.41400	0.28680	29.9	13111	100
2025-3-27 20:22:59.542	WT901BLE68-01(48591DE3C19B)	-0.443	-0.692	0.296	-29.541	-67.688	29.297	-75.08	20.64	-57.40	-46.648	-53.018	34.692	-0.73383	0.45578	-0.41400	0.28680	29.9	13111	100
2025-3-27 20:22:59.542	WT901BLE68-01(48591DE3C19B)	-0.484	-0.692	0.296	-29.541	-67.688	29.297	-75.04	20.81	-56.60	-46.648	-53.018	34.692	-0.73383	0.45578	-0.41400	0.28680	29.9	13111	100
2025-3-27 20:22:59.542	WT901BLE68-01(48591DE3C19B)	-0.484	-1.106	0.286	-28.381	-91.064	20.203	-74.95	20.91	-55.70	-46.648	-53.018	34.692	-0.73383	0.45578	-0.41400	0.28680	29.9	13111	100
2025-3-27 20:22:59.542	WT901BLE68-01(48591DE3C19B)	-0.396	-1.106	0.286	-28.381	-91.064	20.203	-74.83	20.92	-54.70	-46.648	-53.018	34.692	-0.73383	0.45578	-0.41400	0.28680	29.9	13111	100
2025-3-27 20:22:59.571	WT901BLE68-01(48591DE3C19B)	-1.584	-1.603	0.154	-14.099	-97.473	9.460	-74.65	20.86	-53.68	-46.648	-53.018	34.692	-0.73383	0.45578	-0.41400	0.28680	29.9	13111	100
2025-3-27 20:22:59.571	WT901BLE68-01(48591DE3C19B)	-0.258	-6.411	0.619	-14.099	-97.473	9.460	-74.41	20.71	-52.64	-46.648	-53.018	34.692	-0.73383	0.45578	-0.41400	0.28680	29.9	13111	100
2025-3-27 20:22:59.571	WT901BLE68-01(48591DE3C19B)	-0.258	-1.801	0.098	15.747	-75.562	1.099	-74.11	20.53	-51.73	-46.648	-53.018	34.692	-0.73383	0.45578	-0.41400	0.28680	29.9	13111	100
2025-3-27 20:22:59.571	WT901BLE68-01(48591DE3C19B)	-0.212	-1.801	0.098	15.747	-75.562	1.099	-73.72	20.32	-50.97	-46.648	-53.018	34.692	-0.73383	0.45578	-0.41400	0.28680	29.9	13111	100
2025-3-27 20:22:59.602	WT901BLE68-01(48591DE3C19B)	-0.212	-1.607	0.103	36.194	-26.978	5.920	-73.32	20.19	-50.45	-46.648	-53.018	34.692	-0.73383	0.45578	-0.41400	0.28680	29.9	13111	100
2025-3-27 20:22:59.602	WT901BLE68-01(48591DE3C19B)	-0.222	-1.607	0.103	36.194	-26.978	5.920	-72.90	20.15	-50.19	-46.648	-53.018	34.692	-0.73383	0.45578	-0.41400	0.28680	29.9	13111	100
2025-3-27 20:22:59.602	WT901BLE68-01(48591DE3C19B)	-0.222	-1.290	0.117	41.077	22.949	22.827	-72.54	20.26	-50.16	-46.648	-53.018	34.692	-0.73383	0.45578	-0.41400	0.28680	29.9	13111	100
2025-3-27 20:22:59.602	WT901BLE68-01(48591DE3C19B)	-0.174	-1.290	0.117	41.077	22.949	22.827	-72.25	20.52	-50.36	-46.648	-53.018	34.692	-0.73383	0.45578	-0.41400	0.28680	29.9	13111	100
2025-3-27 20:22:59.664	WT901BLE68-01(48591DE3C19B)	-0.174	-1.051	0.187	31.921	53.772	45.837	-72.04	20.93	-50.67	-46.648	-53.018	34.692	-0.73383	0.45578	-0.41400	0.28680	29.9	13111	100
2025-3-27 20:22:59.664	WT901BLE68-01(48591DE3C19B)	-0.112	-1.051	0.187	31.921	53.772	45.837	-71.93	21.50	-51.11	-46.648	-53.018	34.692	-0.73383	0.45578	-0.41400	0.28680	29.9	13111	100
2025-3-27 20:22:59.664	WT901BLE68-01(48591DE3C19B)	-0.112	-1.025	0.188	14.648	70.496	60.120	-71.93	22.15	-51.62	-46.648	-53.018	34.692	-0.73383	0.45578	-0.41400	0.28680	29.9	13111	100
2025-3-27 20:22:59.664	WT901BLE68-01(48591DE3C19B)	-0.101	-1.025	0.188	14.648	70.496	60.120	-72.04	22.89	-52.19	-46.648	-53.018	34.692	-0.73383	0.45578	-0.41400	0.28680	29.9	13111	100
2025-3-27 20:22:59.694	WT901BLE68-01(48591DE3C19B)	-0.101	-1.021	0.124	6.653	80.994	66.772	-72.22	23.67	-52.82	-46.648	-53.018	34.692	-0.73383	0.45578	-0.41400	0.28680	29.9	13111	100
2025-3-27 20:22:59.694	WT901BLE68-01(48591DE3C19B)	-0.138	-1.021	0.124	6.653	80.994	66.772	-72.47	24.49	-53.49	-46.648	-53.018	34.692	-0.73383	0.45578	-0.41400	0.28680	29.9	13111	100
2025-3-27 20:22:59.694	WT901BLE68-01(48591DE3C19B)	-0.138	-0.908	0.069	5.066	83.252	66.833	-72.74	25.30	-54.18	-46.648	-53.018	34.692	-0.73383	0.45578	-0.41400	0.28680	29.9	13111	100
2025-3-27 20:22:59.694	WT901BLE68-01(48591DE3C19B)	-0.165	-0.908	0.069	5.066	83.252	66.833	-73.04	26.10	-54.89	-42.630	-59.878	24.990	-0.73383	0.45578	-0.41400	0.28680	29.9	13111	100
2025-3-27 20:22:59.782	WT901BLE68-01(48591DE3C19B)	-0.165	-0.765	0.046	6.470	76.904	64.880	-73.33	26.88	-55.57	-42.630	-59.878	24.990	-0.73383	0.45578	-0.41400	0.28680	29.9	13111	100
2025-3-27 20:22:59.782	WT901BLE68-01(48591DE3C19B)	-0.186	-0.765	0.046	6.470	76.904	64.880	-73.61	27.63	-56.22	-42.630	-59.878	24.990	-0.73383	0.45578	-0.41400	0.28680	29.9	13111	100
2025-3-27 20:22:59.782	WT901BLE68-01(48591DE3C19B)	-0.186	-0.640	0.039	8.606	70.496	60.181	-73.88	28.33	-56.85	-42.630	-59.878	24.990	-0.73383	0.45578	-0.41400	0.28680	29.9	13111	100
2025-3-27 20:22:59.782	WT901BLE68-01(48591DE3C19B)	-0.204	-0.640	0.039	8.606	70.496	60.181	-74.13	29.01	-57.45	-42.630	-59.878	24.990	-0.73383	0.45578	-0.41400	0.28680	29.9	13111	100
2025-3-27 20:22:59.783	WT901BLE68-01(48591DE3C19B)	-0.204	-0.604	0.046	8.606	62.683	54.565	-74.37	29.64	-58.02	-42.630	-59.878	24.990	-0.73383	0.45578	-0.41400	0.28680	29.9	13111	100
2025-3-27 20:22:59.783	WT901BLE68-01(48591DE3C19B)	-0.249	-0.604	0.046	8.606	62.683	54.565	-74.60	30.23	-58.55	-42.630	-59.878	24.990	-0.73383	0.45578	-0.41400	0.28680	29.9	13111	100
2025-3-27 20:22:59.783	WT901BLE68-01(48591DE3C19B)	-0.249	-0.697	0.053	12.390	54.321	47.119	-74.81	30.77	-59.04	-42.630	-59.878	24.990	-0.73383	0.45578	-0.41400	0.28680	29.9	13111	100
2025-3-27 20:22:59.783	WT901BLE68-01(48591DE3C19B)	-0.287	-0.697	0.053	12.390	54.321	47.119	-74.98	31.26	-59.49	-42.630	-59.878	24.990	-0.73383	0.45578	-0.41400	0.28680	29.9	13111	100
2025-3-27 20:22:59.814	WT901BLE68-01(48591DE3C19B)	-0.287	-0.755	0.081	20.630	38.086	35.950	-74.99	31.60	-59.79	-42.630	-59.878	24.990	-0.73383	0.45578	-0.41400	0.28680	29.9	13111	100
2025-3-27 20:22:59.814	WT901BLE68-01(48591DE3C19B)	-0.282	-0.755	0.081	20.630	38.086	35.950	-75.00	31.94	-60.08	-42.630	-59.878	24.990	-0.73383	0.45578	-0.41400	0.28680	29.9	13111	100
2025-3-27 20:22:59.814	WT901BLE68-01(48591DE3C19B)	-0.282	-0.747	0.111	28.320	22.461	25.208	-74.86	32.14	-60.23	-42.630	-59.878	24.990	-0.73383	0.45578	-0.41400	0.28680	29.9	13111	100
2025-3-27 20:22:59.814	WT901BLE68-01(48591DE3C19B)	-0.246	-0.747	0.111	28.320	22.461	25.208	-74.72	32.34	-60.37	-42.630	-59.878	24.990	-0.73383	0.45578	-0.41400	0.28680	29.9	13111	100
2025-3-27 20:22:59.872	WT901BLE68-01(48591DE3C19B)	-0.246	-0.708	0.118	35.522	13.367	17.456	-74.47	32.44	-60.42	-42.630	-59.878	24.990	-0.73383	0.45578	-0.41400	0.28680	29.9	13111	100
2025-3-27 20:22:59.872	WT901BLE68-01(48591DE3C19B)	-0.255	-0.708	0.118	35.522	13.367	17.456	-74.21	32.55	-60.48	-42.630	-59.878	24.990	-0.73383	0.45578	-0.41400	0.28680	29.9	13111	100
2025-3-27 20:22:59.872	WT901BLE68-01(48591DE3C19B)	-0.255	-0.661	0.123	41.992	14.893	12.146	-73.91	32.61	-60.56	-42.630	-59.878	24.990	-0.73383	0.45578	-0.41400	0.28680	29.9	13111	100
2025-3-27 20:22:59.872	WT901BLE68-01(48591DE3C19B)	-0.332	-0.661	0.123	41.992	14.893	12.146	-73.61	32.67	-60.64	-42.630	-59.878	24.990	-0.73383	0.45578	-0.41400	0.28680	29.9	13111	100
2025-3-27 20:22:59.932	WT901BLE68-01(48591DE3C19B)	-0.332	-0.655	0.143	42.908	23.132	7.202	-73.35	32.71	-60.83	-42.630	-59.878	24.990	-0.73383	0.45578	-0.41400	0.28680	29.9	13111	100
2025-3-27 20:22:59.933	WT901BLE68-01(48591DE3C19B)	-0.373	-0.655	0.143	42.908	23.132	7.202	-73.10	32.75	-61.00	-42.630	-59.878	24.990	-0.73383	0.45578	-0.41400	0.28680	29.9	13111	100
2025-3-27 20:22:59.933	WT901BLE68-01(48591DE3C19B)	-0.373	-0.751	0.150	33.081	35.706	-4.150	-73.04	32.73	-61.35	-42.630	-59.878	24.990	-0.73383	0.45578	-0.41400	0.28680	29.9	13111	100
2025-3-27 20:22:59.933	WT901BLE68-01(48591DE3C19B)	-0.467	-0.751	0.150	33.081	35.706	-4.150	-72.97	32.71	-61.68	-42.630	-59.878	24.990	-0.73383	0.45578	-0.41400	0.28680	29.9	13111	100
2025-3-27 20:22:59.934	WT901BLE68-01(48591DE3C19B)	-0.467	-0.938	0.241	26.611	56.580	-29.663	-73.14	32.51	-62.33	-42.630	-59.878	24.990	-0.74493	0.37271	-0.48914	0.25845	29.9	13111	100
2025-3-27 20:22:59.934	WT901BLE68-01(48591DE3C19B)	-0.670	-0.938	0.241	26.611	56.580	-29.663	-73.31	32.32	-62.96	-42.630	-59.878	24.990	-0.74493	0.37271	-0.48914	0.25845	29.9	13111	100
2025-3-27 20:22:59.934	WT901BLE68-01(48591DE3C19B)	-0.670	-0.980	0.409	21.606	69.275	-59.570	-73.64	31.89	-63.81	-42.630	-59.878	24.990	-0.74493	0.37271	-0.48914	0.25845	29.9	13111	100
2025-3-27 20:22:59.934	WT901BLE68-01(48591DE3C19B)	-0.757	-0.980	0.409	21.606	69.275	-59.570	-73.94	31.46	-64.64	-42.630	-59.878	24.990	-0.74493	0.37271	-0.48914	0.25845	29.9	13111	100
2025-3-27 20:22:59.964	WT901BLE68-01(48591DE3C19B)	-0.757	-0.847	0.513	4.517	67.566	-80.933	-74.42	30.83	-65.47	-42.630	-59.878	24.990	-0.74493	0.37271	-0.48914	0.25845	29.9	13111	100
2025-3-27 20:22:59.964	WT901BLE68-01(48591DE3C19B)	-0.946	-0.847	0.513	4.517	67.566	-80.933	-74.87	30.21	-66.25	-42.630	-59.878	24.990	-0.74493	0.37271	-0.48914	0.25845	29.9	13111	100
2025-3-27 20:22:59.964	WT901BLE68-01(48591DE3C19B)	-0.946	-0.974	0.542	-13.672	54.504	-88.623	-75.42	29.49	-66.82	-42.630	-59.878	24.990	-0.74493	0.37271	-0.48914	0.25845	29.9	13111	100
2025-3-27 20:22:59.964	WT901BLE68-01(48591DE3C19B)	-1.101	-0.974	0.542	-13.672	54.504	-88.623	-75.95	28.80	-67.26	-42.630	-59.878	24.990	-0.74493	0.37271	-0.48914	0.25845	29.9	13111	100
2025-3-27 20:23:0.22	WT901BLE68-01(48591DE3C19B)	-1.101	-1.160	0.503	-19.653	31.433	-88.013	-76.43	28.05	-67.33	-42.630	-59.878	24.990	-0.74493	0.37271	-0.48914	0.25845	29.9	13111	100
2025-3-27 20:23:0.22	WT901BLE68-01(48591DE3C19B)	-1.058	-1.160	0.503	-19.653	31.433	-88.013	-76.90	27.32	-67.34	-42.630	-59.878	24.990	-0.74493	0.37271	-0.48914	0.25845	29.9	13111	100
2025-3-27 20:23:0.22	WT901BLE68-01(48591DE3C19B)	-1.058	-1.075	0.462	-21.545	-13.550	-77.881	-77.16	26.58	-66.79	-42.630	-59.878	24.990	-0.74493	0.37271	-0.48914	0.25845	29.9	13111	100
2025-3-27 20:23:0.22	WT901BLE68-01(48591DE3C19B)	-0.921	-1.075	0.462	-21.545	-13.550	-77.881	-77.44	25.86	-66.23	-42.630	-59.878	24.990	-0.74493	0.37271	-0.48914	0.25845	29.9	13111	100
2025-3-27 20:23:0.53	WT901BLE68-01(48591DE3C19B)	-0.921	-0.880	0.399	-24.353	-60.974	-57.983	-77.50	25.22	-65.10	-42.630	-59.878	24.990	-0.74493	0.37271	-0.48914	0.25845	29.9	13111	100
2025-3-27 20:23:0.54	WT901BLE68-01(48591DE3C19B)	-0.819	-0.880	0.399	-24.353	-60.974	-57.983	-77.59	24.59	-63.98	-42.630	-59.878	24.990	-0.74493	0.37271	-0.48914	0.25845	29.9	13111	100
2025-3-27 20:23:0.54	WT901BLE68-01(48591DE3C19B)	-0.819	-0.725	0.326	-28.259	-91.736	-38.147	-77.57	24.09	-62.48	-42.630	-59.878	24.990	-0.74493	0.37271	-0.48914	0.25845	29.9	13111	100
2025-3-27 20:23:0.54	WT901BLE68-01(48591DE3C19B)	-0.628	-0.725	0.326	-28.259	-91.736	-38.147	-77.56	23.60	-60.98	-42.630	-59.878	24.990	-0.74493	0.37271	-0.48914	0.25845	29.9	13111	100
2025-3-27 20:23:0.84	WT901BLE68-01(48591DE3C19B)	-0.628	-0.655	0.259	-31.555	-93.262	-24.658	-77.59	23.23	-59.44	-42.630	-59.878	24.990	-0.74493	0.37271	-0.48914	0.25845	29.9	13111	100
2025-3-27 20:23:0.84	WT901BLE68-01(48591DE3C19B)	-0.506	-0.655	0.259	-31.555	-93.262	-24.658	-77.62	22.86	-57.89	-42.630	-59.878	24.990	-0.74493	0.37271	-0.48914	0.25845	29.9	13111	100
2025-3-27 20:23:0.84	WT901BLE68-01(48591DE3C19B)	-0.506	-0.611	0.249	-24.658	-65.063	-17.700	-77.71	22.63	-56.64	-35.182	-59.780	24.304	-0.74493	0.37271	-0.48914	0.25845	29.9	13111	100
2025-3-27 20:23:0.84	WT901BLE68-01(48591DE3C19B)	-0.558	-0.611	0.249	-24.658	-65.063	-17.700	-77.79	22.40	-55.38	-35.182	-59.780	24.304	-0.74493	0.37271	-0.48914	0.25845	29.9	13111	100
2025-3-27 20:23:0.142	WT901BLE68-01(48591DE3C19B)	-0.558	-0.553	0.267	-19.409	-41.992	-17.334	-77.92	22.21	-54.37	-35.182	-59.780	24.304	-0.74493	0.37271	-0.48914	0.25845	29.9	13111	100
2025-3-27 20:23:0.142	WT901BLE68-01(48591DE3C19B)	-0.585	-0.553	0.267	-19.409	-41.992	-17.334	-78.05	22.03	-53.35	-35.182	-59.780	24.304	-0.74493	0.37271	-0.48914	0.25845	29.9	13111	100
2025-3-27 20:23:0.142	WT901BLE68-01(48591DE3C19B)	-0.585	-0.544	0.290	-18.250	-32.349	-18.555	-78.22	21.86	-52.43	-35.182	-59.780	24.304	-0.74493	0.37271	-0.48914	0.25845	29.9	13111	100
2025-3-27 20:23:0.142	WT901BLE68-01(48591DE3C19B)	-0.597	-0.544	0.290	-18.250	-32.349	-18.555	-78.39	21.70	-51.51	-35.182	-59.780	24.304	-0.74493	0.37271	-0.48914	0.25845	29.9	13111	100
2025-3-27 20:23:0.170	WT901BLE68-01(48591DE3C19B)	-0.597	-0.551	0.300	-14.099	-21.973	-17.639	-78.56	21.57	-50.70	-35.182	-59.780	24.304	-0.74493	0.37271	-0.48914	0.25845	29.9	13111	100
2025-3-27 20:23:0.170	WT901BLE68-01(48591DE3C19B)	-0.618	-0.551	0.300	-14.099	-21.973	-17.639	-78.74	21.43	-49.89	-35.182	-59.780	24.304	-0.74493	0.37271	-0.48914	0.25845	29.9	13111	100
2025-3-27 20:23:0.171	WT901BLE68-01(48591DE3C19B)	-0.618	-0.503	0.278	-7.874	-18.066	-8.667	-78.87	21.40	-49.10	-35.182	-59.780	24.304	-0.74493	0.37271	-0.48914	0.25845	29.9	13111	100
2025-3-27 20:23:0.171	WT901BLE68-01(48591DE3C19B)	-0.580	-0.503	0.278	-7.874	-18.066	-8.667	-79.00	21.36	-48.31	-35.182	-59.780	24.304	-0.74493	0.37271	-0.48914	0.25845	29.9	13111	100
2025-3-27 20:23:0.201	WT901BLE68-01(48591DE3C19B)	-0.580	-0.381	0.232	-5.432	-26.917	6.592	-79.07	21.47	-47.40	-35.182	-59.780	24.304	-0.74493	0.37271	-0.48914	0.25845	29.9	13111	100
2025-3-27 20:23:0.202	WT901BLE68-01(48591DE3C19B)	-0.508	-0.381	0.232	-5.432	-26.917	6.592	-79.14	21.57	-46.48	-35.182	-59.780	24.304	-0.74493	0.37271	-0.48914	0.25845	29.9	13111	100
2025-3-27 20:23:0.202	WT901BLE68-01(48591DE3C19B)	-0.508	-0.290	0.189	-9.949	-40.161	24.719	-79.19	21.83	-45.40	-35.182	-59.780	24.304	-0.74493	0.37271	-0.48914	0.25845	29.9	13111	100
2025-3-27 20:23:0.202	WT901BLE68-01(48591DE3C19B)	-0.450	-0.290	0.189	-9.949	-40.161	24.719	-79.25	22.09	-44.31	-35.182	-59.780	24.304	-0.74493	0.37271	-0.48914	0.25845	29.9	13111	100
2025-3-27 20:23:0.264	WT901BLE68-01(48591DE3C19B)	-0.375	-0.361	0.129	-22.400	-57.373	39.917	-79.34	22.47	-43.02	-35.182	-59.780	24.304	-0.74493	0.37271	-0.48914	0.25845	29.9	13111	100
2025-3-27 20:23:0.264	WT901BLE68-01(48591DE3C19B)	-0.375	-0.602	0.052	-34.729	-72.449	49.316	-79.46	22.88	-41.63	-35.182	-59.780	24.304	-0.74493	0.37271	-0.48914	0.25845	29.9	13111	100
2025-3-27 20:23:0.264	WT901BLE68-01(48591DE3C19B)	-0.347	-0.602	0.052	-34.729	-72.449	49.316	-79.58	23.32	-40.16	-35.182	-59.780	24.304	-0.74493	0.37271	-0.48914	0.25845	29.9	13111	100
2025-3-27 20:23:0.264	WT901BLE68-01(48591DE3C19B)	-0.347	-0.977	0.013	-43.274	-81.116	51.208	-79.72	23.75	-38.62	-35.182	-59.780	24.304	-0.74493	0.37271	-0.48914	0.25845	29.9	13111	100
2025-3-27 20:23:0.294	WT901BLE68-01(48591DE3C19B)	-0.400	-0.977	0.013	-43.274	-81.116	51.208	-79.85	24.18	-37.03	-35.182	-59.780	24.304	-0.74493	0.37271	-0.48914	0.25845	29.9	13111	100
2025-3-27 20:23:0.294	WT901BLE68-01(48591DE3C19B)	-0.400	-1.458	0.037	-41.382	-86.060	49.316	-79.94	24.57	-35.41	-35.182	-59.780	24.304	-0.74493	0.37271	-0.48914	0.25845	29.9	13111	100
2025-3-27 20:23:0.294	WT901BLE68-01(48591DE3C19B)	-0.406	-1.458	0.037	-41.382	-86.060	49.316	-79.97	24.93	-33.75	-35.182	-59.780	24.304	-0.74493	0.37271	-0.48914	0.25845	29.9	13111	100
2025-3-27 20:23:0.294	WT901BLE68-01(48591DE3C19B)	-0.406	-2.010	0.044	-35.950	-87.524	43.823	-79.90	25.27	-32.95	-35.182	-59.780	24.304	-0.75708	0.55328	-0.33853	0.07745	29.9	13111	100
2025-3-27 20:23:0.323	WT901BLE68-01(48591DE3C19B)	-0.279	-2.010	0.044	-35.950	-87.524	43.823	-79.82	25.56	-32.17	-35.182	-59.780	24.304	-0.75708	0.55328	-0.33853	0.07745	29.9	13111	100
2025-3-27 20:23:0.323	WT901BLE68-01(48591DE3C19B)	-0.279	-2.263	0.044	-13.306	-61.035	39.612	-79.70	25.84	-31.54	-35.182	-59.780	24.304	-0.75708	0.55328	-0.33853	0.07745	29.9	13111	100
2025-3-27 20:23:0.323	WT901BLE68-01(48591DE3C19B)	-0.233	-2.263	0.044	-13.306	-61.035	39.612	-79.55	26.10	-31.08	-35.182	-59.780	24.304	-0.75708	0.55328	-0.33853	0.07745	29.9	13111	100
2025-3-27 20:23:0.324	WT901BLE68-01(48591DE3C19B)	-0.233	-1.926	0.094	13.123	-17.151	40.039	-79.37	26.39	-30.87	-35.182	-59.780	24.304	-0.75708	0.55328	-0.33853	0.07745	29.9	13111	100
2025-3-27 20:23:0.412	WT901BLE68-01(48591DE3C19B)	-0.160	-1.926	0.094	13.123	-17.151	40.039	-79.18	26.72	-30.90	-35.182	-59.780	24.304	-0.75708	0.55328	-0.33853	0.07745	29.9	13111	100
2025-3-27 20:23:0.412	WT901BLE68-01(48591DE3C19B)	-0.160	-1.502	0.109	13.855	16.418	44.556	-79.07	27.09	-31.12	-35.182	-59.780	24.304	-0.75708	0.55328	-0.33853	0.07745	29.9	13111	100
2025-3-27 20:23:0.412	WT901BLE68-01(48591DE3C19B)	-0.001	-1.502	0.109	13.855	16.418	44.556	-79.05	27.50	-31.53	-35.182	-59.780	24.304	-0.75708	0.55328	-0.33853	0.07745	29.9	13111	100
2025-3-27 20:23:0.412	WT901BLE68-01(48591DE3C19B)	-0.001	-1.130	0.122	12.390	45.166	42.725	-79.11	27.93	-32.10	-35.182	-59.780	24.304	-0.75708	0.55328	-0.33853	0.07745	29.9	13111	100
2025-3-27 20:23:0.413	WT901BLE68-01(48591DE3C19B)	0.041	-1.130	0.122	12.390	45.166	42.725	-79.26	28.37	-32.84	-35.182	-59.780	24.304	-0.75708	0.55328	-0.33853	0.07745	29.9	13111	100
2025-3-27 20:23:0.413	WT901BLE68-01(48591DE3C19B)	0.041	-0.825	0.165	8.545	76.599	39.673	-79.52	28.81	-33.76	-35.182	-59.780	24.304	-0.75708	0.55328	-0.33853	0.07745	29.9	13111	100
2025-3-27 20:23:0.413	WT901BLE68-01(48591DE3C19B)	-0.145	-0.825	0.165	8.545	76.599	39.673	-79.90	29.25	-34.87	-35.182	-59.780	24.304	-0.75708	0.55328	-0.33853	0.07745	29.9	13111	100
2025-3-27 20:23:0.413	WT901BLE68-01(48591DE3C19B)	-0.145	-0.732	0.226	4.822	87.952	25.696	-80.34	29.62	-36.06	-35.182	-59.780	24.304	-0.75708	0.55328	-0.33853	0.07745	29.9	13111	100
2025-3-27 20:23:0.444	WT901BLE68-01(48591DE3C19B)	-0.258	-0.732	0.226	4.822	87.952	25.696	-80.84	29.92	-37.34	-35.182	-59.780	24.304	-0.75708	0.55328	-0.33853	0.07745	29.9	13111	100
2025-3-27 20:23:0.444	WT901BLE68-01(48591DE3C19B)	-0.258	-0.682	0.312	10.559	67.505	14.771	-81.25	30.14	-38.52	-35.182	-59.780	24.304	-0.75708	0.55328	-0.33853	0.07745	29.9	13111	100
2025-3-27 20:23:0.444	WT901BLE68-01(48591DE3C19B)	-0.242	-0.682	0.312	10.559	67.505	14.771	-81.58	30.29	-39.60	-35.182	-59.780	24.304	-0.75708	0.55328	-0.33853	0.07745	29.9	13111	100
2025-3-27 20:23:0.444	WT901BLE68-01(48591DE3C19B)	-0.242	-0.539	0.340	23.132	48.950	10.071	-81.79	30.39	-40.58	-35.182	-59.780	24.304	-0.75708	0.55328	-0.33853	0.07745	29.9	13111	100
2025-3-27 20:23:0.502	WT901BLE68-01(48591DE3C19B)	-0.155	-0.539	0.340	23.132	48.950	10.071	-81.88	30.46	-41.47	-35.182	-59.780	24.304	-0.75708	0.55328	-0.33853	0.07745	29.9	13111	100
2025-3-27 20:23:0.502	WT901BLE68-01(48591DE3C19B)	-0.155	-0.378	0.287	36.072	58.289	13.489	-81.93	30.55	-42.42	-35.182	-59.780	24.304	-0.75708	0.55328	-0.33853	0.07745	29.9	13111	100
2025-3-27 20:23:0.502	WT901BLE68-01(48591DE3C19B)	-0.065	-0.378	0.287	36.072	58.289	13.489	-81.93	30.66	-43.42	-35.182	-59.780	24.304	-0.75708	0.55328	-0.33853	0.07745	29.9	13111	100
2025-3-27 20:23:0.502	WT901BLE68-01(48591DE3C19B)	-0.065	-0.260	0.246	53.223	102.234	21.240	-81.96	30.83	-44.68	-35.182	-59.780	24.304	-0.75708	0.55328	-0.33853	0.07745	29.9	13111	100
2025-3-27 20:23:0.534	WT901BLE68-01(48591DE3C19B)	-0.126	-0.260	0.246	53.223	102.234	21.240	-82.03	31.07	-46.19	-44.982	-60.172	8.526	-0.75708	0.55328	-0.33853	0.07745	29.9	13111	100
2025-3-27 20:23:0.534	WT901BLE68-01(48591DE3C19B)	-0.126	-0.150	0.195	61.584	134.338	30.273	-82.16	31.37	-47.88	-44.982	-60.172	8.526	-0.75708	0.55328	-0.33853	0.07745	29.9	13111	100
2025-3-27 20:23:0.534	WT901BLE68-01(48591DE3C19B)	-0.269	-0.150	0.195	61.584	134.338	30.273	-82.34	31.73	-49.76	-44.982	-60.172	8.526	-0.75708	0.55328	-0.33853	0.07745	29.9	13111	100
2025-3-27 20:23:0.534	WT901BLE68-01(48591DE3C19B)	-0.269	-0.155	0.140	53.040	131.348	42.786	-82.56	32.15	-51.62	-44.982	-60.172	8.526	-0.75708	0.55328	-0.33853	0.07745	29.9	13111	100
2025-3-27 20:23:0.564	WT901BLE68-01(48591DE3C19B)	-0.410	-0.155	0.140	53.040	131.348	42.786	-82.80	32.62	-53.47	-44.982	-60.172	8.526	-0.75708	0.55328	-0.33853	0.07745	29.9	13111	100
2025-3-27 20:23:0.564	WT901BLE68-01(48591DE3C19B)	-0.410	-0.316	0.051	36.377	106.018	48.767	-83.06	33.11	-55.18	-44.982	-60.172	8.526	-0.75708	0.55328	-0.33853	0.07745	29.9	13111	100
2025-3-27 20:23:0.564	WT901BLE68-01(48591DE3C19B)	-0.560	-0.316	0.051	36.377	106.018	48.767	-83.33	33.63	-56.76	-44.982	-60.172	8.526	-0.75708	0.55328	-0.33853	0.07745	29.9	13111	100
2025-3-27 20:23:0.564	WT901BLE68-01(48591DE3C19B)	-0.560	-0.561	-0.060	18.005	79.041	43.945	-83.62	34.11	-58.18	-44.982	-60.172	8.526	-0.75708	0.55328	-0.33853	0.07745	29.9	13111	100
2025-3-27 20:23:0.622	WT901BLE68-01(48591DE3C19B)	-0.743	-0.561	-0.060	18.005	79.041	43.945	-83.91	34.56	-59.44	-44.982	-60.172	8.526	-0.75708	0.55328	-0.33853	0.07745	29.9	13111	100
2025-3-27 20:23:0.622	WT901BLE68-01(48591DE3C19B)	-0.743	-0.916	-0.072	6.897	50.049	28.137	-84.19	34.94	-60.50	-44.982	-60.172	8.526	-0.75708	0.55328	-0.33853	0.07745	29.9	13111	100
2025-3-27 20:23:0.622	WT901BLE68-01(48591DE3C19B)	-0.857	-0.916	-0.072	6.897	50.049	28.137	-84.42	35.24	-61.22	-44.982	-60.172	8.526	-0.75708	0.55328	-0.33853	0.07745	29.9	13111	100
2025-3-27 20:23:0.622	WT901BLE68-01(48591DE3C19B)	-0.857	-1.347	0.052	9.766	16.663	-16.113	-84.55	35.32	-61.45	-44.982	-60.172	8.526	-0.75708	0.55328	-0.33853	0.07745	29.9	13111	100
2025-3-27 20:23:0.652	WT901BLE68-01(48591DE3C19B)	-0.997	-1.347	0.052	9.766	16.663	-16.113	-84.56	35.16	-61.42	-44.982	-60.172	8.526	-0.75708	0.55328	-0.33853	0.07745	29.9	13111	100
2025-3-27 20:23:0.652	WT901BLE68-01(48591DE3C19B)	-0.997	-1.651	0.253	7.263	-23.682	-71.411	-84.46	34.71	-61.17	-44.982	-60.172	8.526	-0.75708	0.55328	-0.33853	0.07745	29.9	13111	100
2025-3-27 20:23:0.652	WT901BLE68-01(48591DE3C19B)	-1.369	-1.651	0.253	7.263	-23.682	-71.411	-84.26	33.96	-60.72	-44.982	-60.172	8.526	-0.75708	0.55328	-0.33853	0.07745	29.9	13111	100
2025-3-27 20:23:0.652	WT901BLE68-01(48591DE3C19B)	-1.369	-1.939	0.360	15.259	-7.874	-94.604	-84.08	33.11	-60.38	-44.982	-60.172	8.526	-0.75708	0.55328	-0.33853	0.07745	29.9	13111	100
2025-3-27 20:23:0.681	WT901BLE68-01(48591DE3C19B)	-1.296	-1.939	0.360	15.259	-7.874	-94.604	-83.94	32.17	-60.08	-44.982	-60.172	8.526	-0.75708	0.55328	-0.33853	0.07745	29.9	13111	100
2025-3-27 20:23:0.681	WT901BLE68-01(48591DE3C19B)	-1.296	-1.355	0.458	33.386	-3.540	-95.337	-83.72	31.23	-59.73	-44.982	-60.172	8.526	-0.75708	0.55328	-0.33853	0.07745	29.9	13111	100
2025-3-27 20:23:0.681	WT901BLE68-01(48591DE3C19B)	-0.979	-1.355	0.458	33.386	-3.540	-95.337	-83.44	30.31	-59.26	-44.982	-60.172	8.526	-0.75708	0.55328	-0.33853	0.07745	29.9	13111	100
2025-3-27 20:23:0.681	WT901BLE68-01(48591DE3C19B)	-0.979	-0.867	0.396	19.592	-9.705	-78.979	-83.27	29.55	-58.63	-44.982	-60.172	8.526	-0.75708	0.55328	-0.33853	0.07745	29.9	13111	100
2025-3-27 20:23:0.742	WT901BLE68-01(48591DE3C19B)	-0.627	-0.867	0.396	19.592	-9.705	-78.979	-83.11	28.79	-57.98	-44.982	-60.172	8.526	-0.75708	0.55328	-0.33853	0.07745	29.9	13111	100
2025-3-27 20:23:0.742	WT901BLE68-01(48591DE3C19B)	-0.627	-0.544	0.213	-1.038	-34.607	-49.316	-83.02	28.30	-57.01	-44.982	-60.172	8.526	-0.71536	0.47733	-0.46756	0.20416	29.9	13111	100
2025-3-27 20:23:0.742	WT901BLE68-01(48591DE3C19B)	-0.500	-0.544	0.213	-1.038	-34.607	-49.316	-82.94	27.81	-56.05	-44.982	-60.172	8.526	-0.71536	0.47733	-0.46756	0.20416	29.9	13111	100
2025-3-27 20:23:0.742	WT901BLE68-01(48591DE3C19B)	-0.500	-0.463	0.093	-22.034	-94.299	-22.278	-82.75	27.51	-54.39	-44.982	-60.172	8.526	-0.71536	0.47733	-0.46756	0.20416	29.9	13111	100
2025-3-27 20:23:0.773	WT901BLE68-01(48591DE3C19B)	-0.405	-0.463	0.093	-22.034	-94.299	-22.278	-82.57	27.21	-52.73	-44.982	-60.172	8.526	-0.71536	0.47733	-0.46756	0.20416	29.9	13111	100
2025-3-27 20:23:0.773	WT901BLE68-01(48591DE3C19B)	-0.405	-0.495	0.074	-39.490	-145.752	-7.874	-82.30	26.98	-50.49	-44.982	-60.172	8.526	-0.71536	0.47733	-0.46756	0.20416	29.9	13111	100
2025-3-27 20:23:0.773	WT901BLE68-01(48591DE3C19B)	-0.251	-0.495	0.074	-39.490	-145.752	-7.874	-82.05	26.75	-48.25	-44.982	-60.172	8.526	-0.71536	0.47733	-0.46756	0.20416	29.9	13111	100
2025-3-27 20:23:0.773	WT901BLE68-01(48591DE3C19B)	-0.251	-0.519	0.171	-41.382	-135.559	9.216	-81.85	26.68	-46.09	-44.982	-60.172	8.526	-0.71536	0.47733	-0.46756	0.20416	29.9	13111	100
2025-3-27 20:23:0.832	WT901BLE68-01(48591DE3C19B)	-0.205	-0.519	0.171	-41.382	-135.559	9.216	-81.66	26.61	-43.92	-44.982	-60.172	8.526	-0.71536	0.47733	-0.46756	0.20416	29.9	13111	100
2025-3-27 20:23:0.832	WT901BLE68-01(48591DE3C19B)	-0.205	-0.378	0.232	-29.480	-79.651	21.667	-81.47	26.69	-43.65	-44.982	-60.172	8.526	-0.71536	0.47733	-0.46756	0.20416	29.9	13111	100
2025-3-27 20:23:0.832	WT901BLE68-01(48591DE3C19B)	-0.200	-0.378	0.232	-29.480	-79.651	21.667	-81.28	26.76	-43.37	-44.982	-60.172	8.526	-0.71536	0.47733	-0.46756	0.20416	29.9	13111	100
2025-3-27 20:23:0.832	WT901BLE68-01(48591DE3C19B)	-0.200	-0.151	0.240	-22.400	-27.771	29.846	-81.27	26.99	-43.63	-44.982	-60.172	8.526	-0.71536	0.47733	-0.46756	0.20416	29.9	13111	100
2025-3-27 20:23:0.864	WT901BLE68-01(48591DE3C19B)	-0.241	-0.151	0.240	-22.400	-27.771	29.846	-81.25	27.22	-43.88	-44.982	-60.172	8.526	-0.71536	0.47733	-0.46756	0.20416	29.9	13111	100
2025-3-27 20:23:0.864	WT901BLE68-01(48591DE3C19B)	-0.241	-0.089	0.215	-27.588	5.127	38.940	-81.44	27.58	-44.49	-44.982	-60.172	8.526	-0.71536	0.47733	-0.46756	0.20416	29.9	13111	100
2025-3-27 20:23:0.864	WT901BLE68-01(48591DE3C19B)	-0.342	-0.089	0.215	-27.588	5.127	38.940	-81.62	27.93	-45.09	-44.982	-60.172	8.526	-0.71536	0.47733	-0.46756	0.20416	29.9	13111	100
2025-3-27 20:23:0.864	WT901BLE68-01(48591DE3C19B)	-0.342	-0.275	0.184	-34.180	17.883	38.330	-81.93	28.29	-45.83	-44.982	-60.172	8.526	-0.71536	0.47733	-0.46756	0.20416	29.9	13111	100
2025-3-27 20:23:0.894	WT901BLE68-01(48591DE3C19B)	-0.467	-0.275	0.184	-34.180	17.883	38.330	-82.24	28.65	-46.58	-44.982	-60.172	8.526	-0.71536	0.47733	-0.46756	0.20416	29.9	13111	100
2025-3-27 20:23:0.894	WT901BLE68-01(48591DE3C19B)	-0.467	-0.522	0.177	-37.170	6.592	29.541	-82.52	28.90	-47.21	-44.982	-60.172	8.526	-0.71536	0.47733	-0.46756	0.20416	29.9	13111	100
2025-3-27 20:23:0.894	WT901BLE68-01(48591DE3C19B)	-0.582	-0.522	0.177	-37.170	6.592	29.541	-82.81	29.15	-47.85	-45.080	-57.526	6.664	-0.71536	0.47733	-0.46756	0.20416	29.9	13111	100
2025-3-27 20:23:0.894	WT901BLE68-01(48591DE3C19B)	-0.582	-0.887	0.162	-43.152	-26.062	14.099	-83.00	29.22	-48.13	-45.080	-57.526	6.664	-0.71536	0.47733	-0.46756	0.20416	29.9	13111	100
2025-3-27 20:23:0.951	WT901BLE68-01(48591DE3C19B)	-0.670	-0.887	0.162	-43.152	-26.062	14.099	-83.19	29.30	-48.40	-45.080	-57.526	6.664	-0.71536	0.47733	-0.46756	0.20416	29.9	13111	100
2025-3-27 20:23:0.951	WT901BLE68-01(48591DE3C19B)	-0.670	-1.576	0.125	-43.518	-67.078	-11.536	-83.19	29.08	-48.20	-45.080	-57.526	6.664	-0.71536	0.47733	-0.46756	0.20416	29.9	13111	100
2025-3-27 20:23:0.952	WT901BLE68-01(48591DE3C19B)	-0.585	-1.576	0.125	-43.518	-67.078	-11.536	-83.21	28.88	-47.93	-45.080	-57.526	6.664	-0.71536	0.47733	-0.46756	0.20416	29.9	13111	100
2025-3-27 20:23:0.952	WT901BLE68-01(48591DE3C19B)	-0.585	-2.243	0.059	-21.667	-80.139	-26.672	-82.98	28.52	-47.45	-45.080	-57.526	6.664	-0.71536	0.47733	-0.46756	0.20416	29.9	13111	100
2025-3-27 20:23:0.980	WT901BLE68-01(48591DE3C19B)	-0.537	-2.243	0.059	-21.667	-80.139	-26.672	-82.78	28.14	-46.91	-45.080	-57.526	6.664	-0.71536	0.47733	-0.46756	0.20416	29.9	13111	100
2025-3-27 20:23:0.981	WT901BLE68-01(48591DE3C19B)	-0.537	-2.004	0.097	22.522	-70.374	-16.296	-82.21	27.87	-46.45	-45.080	-57.526	6.664	-0.71536	0.47733	-0.46756	0.20416	29.9	13111	100
2025-3-27 20:23:0.981	WT901BLE68-01(48591DE3C19B)	-0.407	-2.004	0.097	22.522	-70.374	-16.296	-81.64	27.59	-45.98	-45.080	-57.526	6.664	-0.71536	0.47733	-0.46756	0.20416	29.9	13111	100
2025-3-27 20:23:0.981	WT901BLE68-01(48591DE3C19B)	-0.407	-1.439	0.097	22.888	-37.598	-10.803	-81.25	27.40	-45.87	-45.080	-57.526	6.664	-0.71536	0.47733	-0.46756	0.20416	29.9	13111	100
2025-3-27 20:23:1.73	WT901BLE68-01(48591DE3C19B)	-0.228	-1.439	0.097	22.888	-37.598	-10.803	-80.88	27.21	-45.76	-45.080	-57.526	6.664	-0.71536	0.47733	-0.46756	0.20416	29.9	13111	100
2025-3-27 20:23:1.74	WT901BLE68-01(48591DE3C19B)	-0.228	-1.259	0.126	22.583	2.747	0.427	-80.69	27.19	-46.08	-45.080	-57.526	6.664	-0.71536	0.47733	-0.46756	0.20416	29.9	13111	100
2025-3-27 20:23:1.74	WT901BLE68-01(48591DE3C19B)	-0.154	-1.259	0.126	22.583	2.747	0.427	-80.52	27.16	-46.40	-45.080	-57.526	6.664	-0.71536	0.47733	-0.46756	0.20416	29.9	13111	100
2025-3-27 20:23:1.74	WT901BLE68-01(48591DE3C19B)	-0.154	-0.994	0.207	21.606	35.034	11.536	-80.51	27.30	-47.05	-45.080	-57.526	6.664	-0.71536	0.47733	-0.46756	0.20416	29.9	13111	100
2025-3-27 20:23:1.74	WT901BLE68-01(48591DE3C19B)	-0.185	-0.994	0.207	21.606	35.034	11.536	-80.51	27.42	-47.70	-45.080	-57.526	6.664	-0.71536	0.47733	-0.46756	0.20416	29.9	13111	100
2025-3-27 20:23:1.74	WT901BLE68-01(48591DE3C19B)	-0.185	-0.833	0.245	14.099	51.208	8.606	-80.66	27.54	-48.54	-45.080	-57.526	6.664	-0.71536	0.47733	-0.46756	0.20416	29.9	13111	100
2025-3-27 20:23:1.74	WT901BLE68-01(48591DE3C19B)	-0.319	-0.833	0.245	14.099	51.208	8.606	-80.81	27.65	-49.39	-45.080	-57.526	6.664	-0.71536	0.47733	-0.46756	0.20416	29.9	13111	100
2025-3-27 20:23:1.74	WT901BLE68-01(48591DE3C19B)	-0.319	-0.729	0.247	19.409	55.176	-1.221	-80.93	27.67	-50.30	-45.080	-57.526	6.664	-0.71536	0.47733	-0.46756	0.20416	29.9	13111	100
2025-3-27 20:23:1.104	WT901BLE68-01(48591DE3C19B)	-0.388	-0.729	0.247	19.409	55.176	-1.221	-81.05	27.69	-51.21	-45.080	-57.526	6.664	-0.71536	0.47733	-0.46756	0.20416	29.9	13111	100
2025-3-27 20:23:1.104	WT901BLE68-01(48591DE3C19B)	-0.388	-0.513	0.221	30.701	53.955	-0.610	-81.04	27.72	-52.11	-45.080	-57.526	6.664	-0.71536	0.47733	-0.46756	0.20416	29.9	13111	100
2025-3-27 20:23:1.104	WT901BLE68-01(48591DE3C19B)	-0.373	-0.513	0.221	30.701	53.955	-0.610	-81.03	27.75	-53.01	-45.080	-57.526	6.664	-0.71536	0.47733	-0.46756	0.20416	29.9	13111	100
2025-3-27 20:23:1.104	WT901BLE68-01(48591DE3C19B)	-0.373	-0.210	0.183	37.781	52.795	11.719	-80.92	27.91	-53.89	-45.080	-57.526	6.664	-0.72867	0.47583	-0.45105	0.19766	29.9	13111	100
2025-3-27 20:23:1.134	WT901BLE68-01(48591DE3C19B)	-0.332	-0.210	0.183	37.781	52.795	11.719	-80.80	28.06	-54.77	-45.080	-57.526	6.664	-0.72867	0.47583	-0.45105	0.19766	29.9	13111	100
2025-3-27 20:23:1.134	WT901BLE68-01(48591DE3C19B)	-0.332	-0.009	0.173	33.264	44.556	32.104	-80.67	28.42	-55.55	-45.080	-57.526	6.664	-0.72867	0.47583	-0.45105	0.19766	29.9	13111	100
2025-3-27 20:23:1.134	WT901BLE68-01(48591DE3C19B)	-0.257	-0.009	0.173	33.264	44.556	32.104	-80.53	28.78	-56.36	-45.080	-57.526	6.664	-0.72867	0.47583	-0.45105	0.19766	29.9	13111	100
2025-3-27 20:23:1.134	WT901BLE68-01(48591DE3C19B)	-0.257	0.012	0.203	25.818	37.170	44.678	-80.40	29.26	-57.10	-45.080	-57.526	6.664	-0.72867	0.47583	-0.45105	0.19766	29.9	13111	100
2025-3-27 20:23:1.191	WT901BLE68-01(48591DE3C19B)	-0.313	0.012	0.203	25.818	37.170	44.678	-80.27	29.73	-57.88	-45.080	-57.526	6.664	-0.72867	0.47583	-0.45105	0.19766	29.9	13111	100
2025-3-27 20:23:1.191	WT901BLE68-01(48591DE3C19B)	-0.563	-0.034	0.253	23.132	39.063	39.978	-80.16	30.16	-58.72	-45.080	-57.526	6.664	-0.72867	0.47583	-0.45105	0.19766	29.9	13111	100
2025-3-27 20:23:1.191	WT901BLE68-01(48591DE3C19B)	-0.563	-0.241	0.222	13.550	30.518	24.780	-80.08	30.50	-59.57	-45.080	-57.526	6.664	-0.72867	0.47583	-0.45105	0.19766	29.9	13111	100
2025-3-27 20:23:1.191	WT901BLE68-01(48591DE3C19B)	-0.804	-0.241	0.222	13.550	30.518	24.780	-80.01	30.76	-60.41	-45.080	-57.526	6.664	-0.72867	0.47583	-0.45105	0.19766	29.9	13111	100
2025-3-27 20:23:1.251	WT901BLE68-01(48591DE3C19B)	-0.804	-0.707	0.181	2.197	8.850	3.906	-79.95	30.89	-61.18	-45.080	-57.526	6.664	-0.72867	0.47583	-0.45105	0.19766	29.9	13111	100
2025-3-27 20:23:1.251	WT901BLE68-01(48591DE3C19B)	-0.968	-0.707	0.181	2.197	8.850	3.906	-79.88	30.91	-61.86	-45.080	-57.526	6.664	-0.72867	0.47583	-0.45105	0.19766	29.9	13111	100
2025-3-27 20:23:1.251	WT901BLE68-01(48591DE3C19B)	-0.968	-1.458	0.210	-3.235	-20.020	-31.677	-79.78	30.74	-62.42	-45.080	-57.526	6.664	-0.72867	0.47583	-0.45105	0.19766	29.9	13111	100
2025-3-27 20:23:1.251	WT901BLE68-01(48591DE3C19B)	-1.072	-1.458	0.210	-3.235	-20.020	-31.677	-79.65	30.38	-62.85	-45.080	-57.526	6.664	-0.72867	0.47583	-0.45105	0.19766	29.9	13111	100
2025-3-27 20:23:1.253	WT901BLE68-01(48591DE3C19B)	-1.072	-2.113	0.297	10.437	-43.701	-74.707	-79.43	29.79	-63.18	-45.080	-57.526	6.664	-0.72867	0.47583	-0.45105	0.19766	29.9	13111	100
2025-3-27 20:23:1.253	WT901BLE68-01(48591DE3C19B)	-1.171	-2.113	0.297	10.437	-43.701	-74.707	-79.11	28.99	-63.36	-45.080	-57.526	6.664	-0.72867	0.47583	-0.45105	0.19766	29.9	13111	100
2025-3-27 20:23:1.253	WT901BLE68-01(48591DE3C19B)	-1.171	-2.008	0.389	28.687	-18.738	-67.383	-78.79	28.25	-63.63	-45.080	-57.526	6.664	-0.72867	0.47583	-0.45105	0.19766	29.9	13111	100
2025-3-27 20:23:1.253	WT901BLE68-01(48591DE3C19B)	-1.038	-2.008	0.389	28.687	-18.738	-67.383	-78.45	27.57	-64.01	-45.080	-57.526	6.664	-0.72867	0.47583	-0.45105	0.19766	29.9	13111	100
2025-3-27 20:23:1.432	WT901BLE68-01(48591DE3C19B)	-1.038	-1.233	0.586	33.203	14.587	-49.683	-78.16	27.02	-64.55	-45.080	-57.526	6.664	-0.72867	0.47583	-0.45105	0.19766	29.9	13111	100
2025-3-27 20:23:1.432	WT901BLE68-01(48591DE3C19B)	-0.848	-1.233	0.586	33.203	14.587	-49.683	-77.91	26.58	-65.30	-45.080	-57.526	6.664	-0.72867	0.47583	-0.45105	0.19766	29.9	13111	100
2025-3-27 20:23:1.432	WT901BLE68-01(48591DE3C19B)	-0.848	-0.811	0.615	17.700	24.475	-23.010	-77.73	26.28	-66.10	-45.080	-57.526	6.664	-0.72867	0.47583	-0.45105	0.19766	29.9	13111	100
2025-3-27 20:23:1.433	WT901BLE68-01(48591DE3C19B)	-0.739	-0.811	0.615	17.700	24.475	-23.010	-77.63	26.12	-66.95	-45.080	-57.526	6.664	-0.72867	0.47583	-0.45105	0.19766	29.9	13111	100
2025-3-27 20:23:1.433	WT901BLE68-01(48591DE3C19B)	-0.739	-0.506	0.457	-3.174	5.310	12.085	-77.56	26.10	-67.67	-44.296	-62.524	8.036	-0.72867	0.47583	-0.45105	0.19766	29.9	13111	100
2025-3-27 20:23:1.434	WT901BLE68-01(48591DE3C19B)	-0.669	-0.506	0.457	-3.174	5.310	12.085	-77.53	26.23	-68.25	-44.296	-62.524	8.036	-0.72867	0.47583	-0.45105	0.19766	29.9	13111	100
2025-3-27 20:23:1.434	WT901BLE68-01(48591DE3C19B)	-0.669	-0.481	0.211	-37.415	-65.063	26.184	-77.48	26.35	-68.44	-44.296	-62.524	8.036	-0.72867	0.47583	-0.45105	0.19766	29.9	13111	100
2025-3-27 20:23:1.434	WT901BLE68-01(48591DE3C19B)	-0.476	-0.481	0.211	-37.415	-65.063	26.184	-77.42	26.46	-68.24	-44.296	-62.524	8.036	-0.72867	0.47583	-0.45105	0.19766	29.9	13111	100
2025-3-27 20:23:1.463	WT901BLE68-01(48591DE3C19B)	-0.476	-0.565	0.063	-54.138	-110.535	37.354	-77.31	26.57	-67.79	-44.296	-62.524	8.036	-0.72867	0.47583	-0.45105	0.19766	29.9	13111	100
2025-3-27 20:23:1.463	WT901BLE68-01(48591DE3C19B)	-0.492	-0.565	0.063	-54.138	-110.535	37.354	-77.18	26.69	-67.07	-44.296	-62.524	8.036	-0.72867	0.47583	-0.45105	0.19766	29.9	13111	100
2025-3-27 20:23:1.463	WT901BLE68-01(48591DE3C19B)	-0.492	-0.488	0.088	-47.180	-111.694	51.086	-77.00	26.87	-66.32	-44.296	-62.524	8.036	-0.72867	0.47583	-0.45105	0.19766	29.9	13111	100
2025-3-27 20:23:1.463	WT901BLE68-01(48591DE3C19B)	-0.493	-0.488	0.088	-47.180	-111.694	51.086	-76.76	27.13	-65.55	-44.296	-62.524	8.036	-0.72867	0.47583	-0.45105	0.19766	29.9	13111	100
2025-3-27 20:23:1.463	WT901BLE68-01(48591DE3C19B)	-0.493	-0.278	0.202	-48.035	-101.685	53.467	-76.55	27.39	-64.83	-44.296	-62.524	8.036	-0.72867	0.47583	-0.45105	0.19766	29.9	13111	100
2025-3-27 20:23:1.463	WT901BLE68-01(48591DE3C19B)	-0.379	-0.278	0.202	-48.035	-101.685	53.467	-76.35	27.69	-64.16	-44.296	-62.524	8.036	-0.72867	0.47583	-0.45105	0.19766	29.9	13111	100
2025-3-27 20:23:1.463	WT901BLE68-01(48591DE3C19B)	-0.379	-0.082	0.276	-48.767	-90.576	67.932	-76.17	28.05	-63.52	-44.296	-62.524	8.036	-0.72867	0.47583	-0.45105	0.19766	29.9	13111	100
2025-3-27 20:23:1.464	WT901BLE68-01(48591DE3C19B)	-0.319	-0.082	0.276	-48.767	-90.576	67.932	-75.98	28.49	-62.92	-44.296	-62.524	8.036	-0.72867	0.47583	-0.45105	0.19766	29.9	13111	100
2025-3-27 20:23:1.492	WT901BLE68-01(48591DE3C19B)	-0.319	-0.082	0.300	-45.532	-76.782	83.191	-75.79	29.01	-62.35	-44.296	-62.524	8.036	-0.72867	0.47583	-0.45105	0.19766	29.9	13111	100
2025-3-27 20:23:1.492	WT901BLE68-01(48591DE3C19B)	-0.376	-0.082	0.300	-45.532	-76.782	83.191	-75.59	29.61	-61.83	-44.296	-62.524	8.036	-0.72867	0.47583	-0.45105	0.19766	29.9	13111	100
2025-3-27 20:23:1.492	WT901BLE68-01(48591DE3C19B)	-0.376	-0.320	0.247	-41.260	-71.472	85.632	-75.36	30.22	-61.32	-44.296	-62.524	8.036	-0.72867	0.47583	-0.45105	0.19766	29.9	13111	100
2025-3-27 20:23:1.493	WT901BLE68-01(48591DE3C19B)	-0.396	-0.320	0.247	-41.260	-71.472	85.632	-75.11	30.85	-60.82	-44.296	-62.524	8.036	-0.72867	0.47583	-0.45105	0.19766	29.9	13111	100
2025-3-27 20:23:1.493	WT901BLE68-01(48591DE3C19B)	-0.396	-0.626	0.136	-40.100	-71.228	77.576	-74.86	31.43	-60.32	-44.296	-62.524	8.036	-0.72867	0.47583	-0.45105	0.19766	29.9	13111	100
2025-3-27 20:23:1.493	WT901BLE68-01(48591DE3C19B)	-0.383	-0.626	0.136	-40.100	-71.228	77.576	-74.60	31.98	-59.82	-44.296	-62.524	8.036	-0.72867	0.47583	-0.45105	0.19766	29.9	13111	100
2025-3-27 20:23:1.493	WT901BLE68-01(48591DE3C19B)	-0.383	-1.083	0.043	-43.640	-70.435	57.495	-74.39	32.44	-59.34	-44.296	-62.524	8.036	-0.74902	0.39383	-0.48062	0.22974	29.9	13111	100
2025-3-27 20:23:1.493	WT901BLE68-01(48591DE3C19B)	-0.358	-1.083	0.043	-43.640	-70.435	57.495	-74.23	32.80	-58.86	-44.296	-62.524	8.036	-0.74902	0.39383	-0.48062	0.22974	29.9	13111	100
2025-3-27 20:23:1.551	WT901BLE68-01(48591DE3C19B)	-0.358	-1.821	-0.067	-41.504	-59.021	32.654	-74.16	33.06	-58.45	-44.296	-62.524	8.036	-0.74902	0.39383	-0.48062	0.22974	29.9	13111	100
2025-3-27 20:23:1.552	WT901BLE68-01(48591DE3C19B)	-0.366	-1.821	-0.067	-41.504	-59.021	32.654	-74.17	33.21	-58.05	-44.296	-62.524	8.036	-0.74902	0.39383	-0.48062	0.22974	29.9	13111	100
2025-3-27 20:23:1.552	WT901BLE68-01(48591DE3C19B)	-0.366	-2.427	-0.131	-4.211	-31.921	13.550	-74.12	33.29	-57.79	-44.296	-62.524	8.036	-0.74902	0.39383	-0.48062	0.22974	29.9	13111	100
2025-3-27 20:23:1.552	WT901BLE68-01(48591DE3C19B)	-0.501	-2.427	-0.131	-4.211	-31.921	13.550	-74.02	33.31	-57.67	-44.296	-62.524	8.036	-0.74902	0.39383	-0.48062	0.22974	29.9	13111	100
2025-3-27 20:23:1.611	WT901BLE68-01(48591DE3C19B)	-0.501	-2.042	0.008	33.447	-7.324	10.376	-73.83	33.32	-57.68	-44.296	-62.524	8.036	-0.74902	0.39383	-0.48062	0.22974	29.9	13111	100
2025-3-27 20:23:1.611	WT901BLE68-01(48591DE3C19B)	-0.357	-2.042	0.008	33.447	-7.324	10.376	-73.54	33.34	-57.83	-44.296	-62.524	8.036	-0.74902	0.39383	-0.48062	0.22974	29.9	13111	100
2025-3-27 20:23:1.611	WT901BLE68-01(48591DE3C19B)	-0.357	-1.569	0.090	18.677	26.917	4.456	-73.44	33.38	-58.18	-44.296	-62.524	8.036	-0.74902	0.39383	-0.48062	0.22974	29.9	13111	100
2025-3-27 20:23:1.611	WT901BLE68-01(48591DE3C19B)	-0.223	-1.569	0.090	18.677	26.917	4.456	-73.53	33.44	-58.74	-44.296	-62.524	8.036	-0.74902	0.39383	-0.48062	0.22974	29.9	13111	100
2025-3-27 20:23:1.635	WT901BLE68-01(48591DE3C19B)	-0.223	-1.331	0.177	16.785	81.360	6.165	-73.80	33.58	-59.60	-44.296	-62.524	8.036	-0.74902	0.39383	-0.48062	0.22974	29.9	13111	100
2025-3-27 20:23:1.635	WT901BLE68-01(48591DE3C19B)	-0.208	-1.331	0.177	16.785	81.360	6.165	-74.26	33.79	-60.78	-44.296	-62.524	8.036	-0.74902	0.39383	-0.48062	0.22974	29.9	13111	100
2025-3-27 20:23:1.635	WT901BLE68-01(48591DE3C19B)	-0.208	-0.970	0.212	14.038	101.868	4.272	-74.80	34.00	-62.08	-44.296	-62.524	8.036	-0.74902	0.39383	-0.48062	0.22974	29.9	13111	100
2025-3-27 20:23:1.635	WT901BLE68-01(48591DE3C19B)	-0.163	-0.970	0.212	14.038	101.868	4.272	-75.42	34.22	-63.51	-44.296	-62.524	8.036	-0.74902	0.39383	-0.48062	0.22974	29.9	13111	100
2025-3-27 20:23:1.672	WT901BLE68-01(48591DE3C19B)	-0.163	-0.647	0.245	-0.366	95.581	-8.667	-76.16	34.28	-64.91	-44.296	-62.524	8.036	-0.74902	0.39383	-0.48062	0.22974	29.9	13111	100
2025-3-27 20:23:1.672	WT901BLE68-01(48591DE3C19B)	-0.177	-0.647	0.245	-0.366	95.581	-8.667	-76.90	34.32	-66.31	-44.296	-62.524	8.036	-0.74902	0.39383	-0.48062	0.22974	29.9	13111	100
2025-3-27 20:23:1.672	WT901BLE68-01(48591DE3C19B)	-0.177	-0.532	0.284	-8.057	87.341	-26.794	-77.68	34.16	-67.66	-44.296	-62.524	8.036	-0.74902	0.39383	-0.48062	0.22974	29.9	13111	100
2025-3-27 20:23:1.672	WT901BLE68-01(48591DE3C19B)	-0.305	-0.532	0.284	-8.057	87.341	-26.794	-78.44	33.98	-69.01	-44.296	-62.524	8.036	-0.74902	0.39383	-0.48062	0.22974	29.9	13111	100
2025-3-27 20:23:1.700	WT901BLE68-01(48591DE3C19B)	-0.305	-0.542	0.229	-7.141	79.529	-39.246	-79.13	33.65	-70.29	-44.296	-62.524	8.036	-0.74902	0.39383	-0.48062	0.22974	29.9	13111	100
2025-3-27 20:23:1.700	WT901BLE68-01(48591DE3C19B)	-0.447	-0.542	0.229	-7.141	79.529	-39.246	-79.81	33.32	-71.57	-44.296	-62.524	8.036	-0.74902	0.39383	-0.48062	0.22974	29.9	13111	100
2025-3-27 20:23:1.700	WT901BLE68-01(48591DE3C19B)	-0.447	-0.534	0.148	2.380	67.200	-48.035	-80.30	32.88	-72.71	-44.296	-62.524	8.036	-0.74902	0.39383	-0.48062	0.22974	29.9	13111	100
2025-3-27 20:23:1.700	WT901BLE68-01(48591DE3C19B)	-0.527	-0.534	0.148	2.380	67.200	-48.035	-80.78	32.44	-73.86	-57.330	-63.112	-3.528	-0.74902	0.39383	-0.48062	0.22974	29.9	13111	100
2025-3-27 20:23:1.733	WT901BLE68-01(48591DE3C19B)	-0.527	-0.441	0.082	10.437	29.968	-49.500	-80.92	31.94	-74.56	-57.330	-63.112	-3.528	-0.74902	0.39383	-0.48062	0.22974	29.9	13111	100
2025-3-27 20:23:1.733	WT901BLE68-01(48591DE3C19B)	-0.518	-0.441	0.082	10.437	29.968	-49.500	-81.06	31.45	-75.28	-57.330	-63.112	-3.528	-0.74902	0.39383	-0.48062	0.22974	29.9	13111	100
2025-3-27 20:23:1.733	WT901BLE68-01(48591DE3C19B)	-0.518	-0.391	0.121	13.367	-20.813	-38.696	-80.84	31.00	-75.40	-57.330	-63.112	-3.528	-0.74902	0.39383	-0.48062	0.22974	29.9	13111	100
2025-3-27 20:23:1.733	WT901BLE68-01(48591DE3C19B)	-0.433	-0.391	0.121	13.367	-20.813	-38.696	-80.62	30.56	-75.54	-57.330	-63.112	-3.528	-0.74902	0.39383	-0.48062	0.22974	29.9	13111	100
2025-3-27 20:23:1.822	WT901BLE68-01(48591DE3C19B)	-0.433	-0.335	0.176	15.808	-55.237	-30.212	-80.16	30.16	-75.30	-57.330	-63.112	-3.528	-0.74902	0.39383	-0.48062	0.22974	29.9	13111	100
2025-3-27 20:23:1.822	WT901BLE68-01(48591DE3C19B)	-0.343	-0.335	0.176	15.808	-55.237	-30.212	-79.70	29.76	-75.09	-57.330	-63.112	-3.528	-0.74902	0.39383	-0.48062	0.22974	29.9	13111	100
2025-3-27 20:23:1.822	WT901BLE68-01(48591DE3C19B)	-0.343	-0.334	0.204	13.733	-49.744	-21.240	-79.28	29.46	-74.94	-57.330	-63.112	-3.528	-0.74902	0.39383	-0.48062	0.22974	29.9	13111	100
2025-3-27 20:23:1.822	WT901BLE68-01(48591DE3C19B)	-0.381	-0.334	0.204	13.733	-49.744	-21.240	-78.86	29.16	-74.81	-57.330	-63.112	-3.528	-0.74902	0.39383	-0.48062	0.22974	29.9	13111	100
2025-3-27 20:23:1.823	WT901BLE68-01(48591DE3C19B)	-0.381	-0.500	0.220	10.559	-21.667	-21.729	-78.62	28.91	-75.01	-57.330	-63.112	-3.528	-0.74902	0.39383	-0.48062	0.22974	29.9	13111	100
2025-3-27 20:23:1.823	WT901BLE68-01(48591DE3C19B)	-0.528	-0.500	0.220	10.559	-21.667	-21.729	-78.38	28.66	-75.21	-57.330	-63.112	-3.528	-0.74902	0.39383	-0.48062	0.22974	29.9	13111	100
2025-3-27 20:23:1.823	WT901BLE68-01(48591DE3C19B)	-0.528	-0.748	0.233	8.118	2.258	-31.067	-78.31	28.36	-75.71	-57.330	-63.112	-3.528	-0.74902	0.39383	-0.48062	0.22974	29.9	13111	100
2025-3-27 20:23:1.823	WT901BLE68-01(48591DE3C19B)	-0.676	-0.748	0.233	8.118	2.258	-31.067	-78.22	28.07	-76.20	-57.330	-63.112	-3.528	-0.74902	0.39383	-0.48062	0.22974	29.9	13111	100
2025-3-27 20:23:1.853	WT901BLE68-01(48591DE3C19B)	-0.676	-1.055	0.317	3.540	6.714	-49.500	-78.23	27.61	-76.78	-57.330	-63.112	-3.528	-0.74902	0.39383	-0.48062	0.22974	29.9	13111	100
2025-3-27 20:23:1.853	WT901BLE68-01(48591DE3C19B)	-0.825	-1.055	0.317	3.540	6.714	-49.500	-78.24	27.15	-77.36	-57.330	-63.112	-3.528	-0.74902	0.39383	-0.48062	0.22974	29.9	13111	100
2025-3-27 20:23:1.853	WT901BLE68-01(48591DE3C19B)	-0.825	-1.396	0.459	-1.221	-1.038	-71.838	-78.27	26.46	-77.90	-57.330	-63.112	-3.528	-0.74902	0.39383	-0.48062	0.22974	29.9	13111	100
2025-3-27 20:23:1.854	WT901BLE68-01(48591DE3C19B)	-1.040	-1.396	0.459	-1.221	-1.038	-71.838	-78.30	25.76	-78.43	-57.330	-63.112	-3.528	-0.74902	0.39383	-0.48062	0.22974	29.9	13111	100
2025-3-27 20:23:1.912	WT901BLE68-01(48591DE3C19B)	-1.040	-1.630	0.565	-9.705	-4.395	-88.440	-78.41	24.91	-78.95	-57.330	-63.112	-3.528	-0.74902	0.39383	-0.48062	0.22974	29.9	13111	100
2025-3-27 20:23:1.912	WT901BLE68-01(48591DE3C19B)	-1.081	-1.630	0.565	-9.705	-4.395	-88.440	-78.51	24.04	-79.48	-57.330	-63.112	-3.528	-0.74902	0.39383	-0.48062	0.22974	29.9	13111	100
2025-3-27 20:23:1.912	WT901BLE68-01(48591DE3C19B)	-1.081	-1.463	0.603	2.441	7.080	-79.163	-78.52	23.30	-80.11	-57.330	-63.112	-3.528	-0.74902	0.39383	-0.48062	0.22974	29.9	13111	100
2025-3-27 20:23:1.912	WT901BLE68-01(48591DE3C19B)	-0.932	-1.463	0.603	2.441	7.080	-79.163	-78.52	22.57	-80.74	-57.330	-63.112	-3.528	-0.74902	0.39383	-0.48062	0.22974	29.9	13111	100
2025-3-27 20:23:1.941	WT901BLE68-01(48591DE3C19B)	-0.932	-1.091	0.593	0.000	11.536	-62.439	-78.54	22.00	-81.38	-57.330	-63.112	-3.528	-0.65491	0.37476	-0.51712	0.40387	29.9	13111	100
2025-3-27 20:23:1.941	WT901BLE68-01(48591DE3C19B)	-0.742	-1.091	0.593	0.000	11.536	-62.439	-78.55	21.44	-82.03	-57.330	-63.112	-3.528	-0.65491	0.37476	-0.51712	0.40387	29.9	13111	100
2025-3-27 20:23:1.941	WT901BLE68-01(48591DE3C19B)	-0.742	-0.929	0.444	-11.108	-7.141	-43.823	-78.57	21.02	-82.45	-57.330	-63.112	-3.528	-0.65491	0.37476	-0.51712	0.40387	29.9	13111	100
2025-3-27 20:23:1.941	WT901BLE68-01(48591DE3C19B)	-0.668	-0.929	0.444	-11.108	-7.141	-43.823	-78.59	20.60	-82.86	-57.330	-63.112	-3.528	-0.65491	0.37476	-0.51712	0.40387	29.9	13111	100
2025-3-27 20:23:2.2	WT901BLE68-01(48591DE3C19B)	-0.668	-0.850	0.319	-18.677	-46.692	-20.935	-78.52	20.34	-82.82	-57.330	-63.112	-3.528	-0.65491	0.37476	-0.51712	0.40387	29.9	13111	100
2025-3-27 20:23:2.2	WT901BLE68-01(48591DE3C19B)	-0.578	-0.850	0.319	-18.677	-46.692	-20.935	-78.46	20.08	-82.78	-57.330	-63.112	-3.528	-0.65491	0.37476	-0.51712	0.40387	29.9	13111	100
2025-3-27 20:23:2.2	WT901BLE68-01(48591DE3C19B)	-0.578	-0.814	0.251	-25.330	-78.796	0.305	-78.33	19.96	-82.35	-57.330	-63.112	-3.528	-0.65491	0.37476	-0.51712	0.40387	29.9	13111	100
2025-3-27 20:23:2.2	WT901BLE68-01(48591DE3C19B)	-0.479	-0.814	0.251	-25.330	-78.796	0.305	-78.21	19.84	-81.93	-57.330	-63.112	-3.528	-0.65491	0.37476	-0.51712	0.40387	29.9	13111	100
2025-3-27 20:23:2.31	WT901BLE68-01(48591DE3C19B)	-0.479	-0.786	0.244	-22.156	-76.172	18.311	-78.05	19.90	-81.50	-57.330	-63.112	-3.528	-0.65491	0.37476	-0.51712	0.40387	29.9	13111	100
2025-3-27 20:23:2.31	WT901BLE68-01(48591DE3C19B)	-0.399	-0.786	0.244	-22.156	-76.172	18.311	-77.90	19.96	-81.05	-57.330	-63.112	-3.528	-0.65491	0.37476	-0.51712	0.40387	29.9	13111	100
2025-3-27 20:23:2.31	WT901BLE68-01(48591DE3C19B)	-0.399	-0.685	0.272	-9.521	-49.805	26.917	-77.71	20.16	-80.86	-57.330	-63.112	-3.528	-0.65491	0.37476	-0.51712	0.40387	29.9	13111	100
2025-3-27 20:23:2.31	WT901BLE68-01(48591DE3C19B)	-0.354	-0.685	0.272	-9.521	-49.805	26.917	-77.52	20.35	-80.66	-57.330	-63.112	-3.528	-0.65491	0.37476	-0.51712	0.40387	29.9	13111	100
2025-3-27 20:23:2.62	WT901BLE68-01(48591DE3C19B)	-0.354	-0.505	0.302	4.639	-13.000	30.396	-77.32	20.65	-80.83	-57.330	-63.112	-3.528	-0.65491	0.37476	-0.51712	0.40387	29.9	13111	100
2025-3-27 20:23:2.62	WT901BLE68-01(48591DE3C19B)	-0.339	-0.505	0.302	4.639	-13.000	30.396	-77.11	20.96	-80.99	-57.330	-63.112	-3.528	-0.65491	0.37476	-0.51712	0.40387	29.9	13111	100
2025-3-27 20:23:2.62	WT901BLE68-01(48591DE3C19B)	-0.339	-0.278	0.301	14.526	12.268	40.527	-76.89	21.41	-81.40	-57.330	-63.112	-3.528	-0.65491	0.37476	-0.51712	0.40387	29.9	13111	100
2025-3-27 20:23:2.62	WT901BLE68-01(48591DE3C19B)	-0.308	-0.278	0.301	14.526	12.268	40.527	-76.66	21.86	-81.80	-57.330	-63.112	-3.528	-0.65491	0.37476	-0.51712	0.40387	29.9	13111	100
2025-3-27 20:23:2.94	WT901BLE68-01(48591DE3C19B)	-0.262	-0.068	0.282	18.677	15.381	56.458	-76.38	22.46	-82.20	-57.330	-63.112	-3.528	-0.65491	0.37476	-0.51712	0.40387	29.9	13111	100
2025-3-27 20:23:2.94	WT901BLE68-01(48591DE3C19B)	-0.262	-0.029	0.224	11.108	8.423	67.078	-76.11	23.11	-82.55	-57.330	-63.112	-3.528	-0.65491	0.37476	-0.51712	0.40387	29.9	13111	100
2025-3-27 20:23:2.94	WT901BLE68-01(48591DE3C19B)	-0.261	-0.029	0.224	11.108	8.423	67.078	-75.85	23.80	-82.85	-57.330	-63.112	-3.528	-0.65491	0.37476	-0.51712	0.40387	29.9	13111	100
2025-3-27 20:23:2.94	WT901BLE68-01(48591DE3C19B)	-0.261	-0.261	0.143	-0.671	5.188	63.538	-75.64	24.46	-83.13	-57.330	-63.112	-3.528	-0.65491	0.37476	-0.51712	0.40387	29.9	13111	100
2025-3-27 20:23:2.151	WT901BLE68-01(48591DE3C19B)	-0.370	-0.261	0.143	-0.671	5.188	63.538	-75.47	25.10	-83.40	-57.330	-63.112	-3.528	-0.65491	0.37476	-0.51712	0.40387	29.9	13111	100
2025-3-27 20:23:2.152	WT901BLE68-01(48591DE3C19B)	-0.370	-0.703	0.104	-14.893	-8.850	48.401	-75.36	25.65	-83.61	-62.916	-63.602	-9.800	-0.65491	0.37476	-0.51712	0.40387	29.9	13111	100
2025-3-27 20:23:2.152	WT901BLE68-01(48591DE3C19B)	-0.456	-0.703	0.104	-14.893	-8.850	48.401	-75.31	26.11	-83.75	-62.916	-63.602	-9.800	-0.65491	0.37476	-0.51712	0.40387	29.9	13111	100
2025-3-27 20:23:2.152	WT901BLE68-01(48591DE3C19B)	-0.456	-1.353	0.080	-31.677	-38.086	32.898	-75.31	26.47	-83.73	-62.916	-63.602	-9.800	-0.65491	0.37476	-0.51712	0.40387	29.9	13111	100
2025-3-27 20:23:2.181	WT901BLE68-01(48591DE3C19B)	-0.449	-1.353	0.080	-31.677	-38.086	32.898	-75.36	26.71	-83.56	-62.916	-63.602	-9.800	-0.65491	0.37476	-0.51712	0.40387	29.9	13111	100
2025-3-27 20:23:2.181	WT901BLE68-01(48591DE3C19B)	-0.449	-2.228	0.022	-13.184	-53.223	6.531	-75.31	26.79	-83.30	-62.916	-63.602	-9.800	-0.65491	0.37476	-0.51712	0.40387	29.9	13111	100
2025-3-27 20:23:2.181	WT901BLE68-01(48591DE3C19B)	-0.402	-2.228	0.022	-13.184	-53.223	6.531	-75.19	26.72	-82.95	-62.916	-63.602	-9.800	-0.65491	0.37476	-0.51712	0.40387	29.9	13111	100
2025-3-27 20:23:2.181	WT901BLE68-01(48591DE3C19B)	-0.402	-2.409	0.055	32.654	-36.621	-5.798	-74.92	26.59	-82.68	-62.916	-63.602	-9.800	-0.65491	0.37476	-0.51712	0.40387	29.9	13111	100
2025-3-27 20:23:2.241	WT901BLE68-01(48591DE3C19B)	-0.447	-2.409	0.055	32.654	-36.621	-5.798	-74.48	26.42	-82.51	-62.916	-63.602	-9.800	-0.65491	0.37476	-0.51712	0.40387	29.9	13111	100
2025-3-27 20:23:2.242	WT901BLE68-01(48591DE3C19B)	-0.447	-1.873	0.112	47.729	0.610	-5.310	-74.06	26.28	-82.52	-62.916	-63.602	-9.800	-0.65491	0.37476	-0.51712	0.40387	29.9	13111	100
2025-3-27 20:23:2.242	WT901BLE68-01(48591DE3C19B)	-0.294	-1.873	0.112	47.729	0.610	-5.310	-73.66	26.20	-82.72	-62.916	-63.602	-9.800	-0.65491	0.37476	-0.51712	0.40387	29.9	13111	100
2025-3-27 20:23:2.242	WT901BLE68-01(48591DE3C19B)	-0.294	-1.540	0.096	45.349	38.513	-0.854	-73.37	26.19	-83.11	-62.916	-63.602	-9.800	-0.65491	0.37476	-0.51712	0.40387	29.9	13111	100
2025-3-27 20:23:2.271	WT901BLE68-01(48591DE3C19B)	-0.140	-1.540	0.096	45.349	38.513	-0.854	-73.19	26.24	-83.69	-62.916	-63.602	-9.800	-0.65491	0.37476	-0.51712	0.40387	29.9	13111	100
2025-3-27 20:23:2.271	WT901BLE68-01(48591DE3C19B)	-0.140	-1.142	0.186	46.997	83.557	7.446	-73.09	26.41	-84.50	-62.916	-63.602	-9.800	-0.65491	0.37476	-0.51712	0.40387	29.9	13111	100
2025-3-27 20:23:2.271	WT901BLE68-01(48591DE3C19B)	-0.168	-1.142	0.186	46.997	83.557	7.446	-73.09	26.66	-85.52	-62.916	-63.602	-9.800	-0.65491	0.37476	-0.51712	0.40387	29.9	13111	100
2025-3-27 20:23:2.271	WT901BLE68-01(48591DE3C19B)	-0.168	-0.772	0.250	32.837	96.802	17.151	-73.19	26.98	-86.60	-62.916	-63.602	-9.800	-0.65491	0.37476	-0.51712	0.40387	29.9	13111	100
2025-3-27 20:23:2.302	WT901BLE68-01(48591DE3C19B)	-0.204	-0.772	0.250	32.837	96.802	17.151	-73.39	27.36	-87.74	-62.916	-63.602	-9.800	-0.65491	0.37476	-0.51712	0.40387	29.9	13111	100
2025-3-27 20:23:2.302	WT901BLE68-01(48591DE3C19B)	-0.204	-0.651	0.264	10.132	72.754	5.920	-73.65	27.65	-88.76	-62.916	-63.602	-9.800	-0.65491	0.37476	-0.51712	0.40387	29.9	13111	100
2025-3-27 20:23:2.302	WT901BLE68-01(48591DE3C19B)	-0.230	-0.651	0.264	10.132	72.754	5.920	-73.98	27.83	-89.68	-62.916	-63.602	-9.800	-0.65491	0.37476	-0.51712	0.40387	29.9	13111	100
2025-3-27 20:23:2.302	WT901BLE68-01(48591DE3C19B)	-0.230	-0.568	0.265	7.568	45.898	-5.920	-74.25	27.93	-90.48	-62.916	-63.602	-9.800	-0.65491	0.37476	-0.51712	0.40387	29.9	13111	100
2025-3-27 20:23:2.362	WT901BLE68-01(48591DE3C19B)	-0.282	-0.568	0.265	7.568	45.898	-5.920	-74.47	27.93	-91.15	-62.916	-63.602	-9.800	-0.65491	0.37476	-0.51712	0.40387	29.9	13111	100
2025-3-27 20:23:2.363	WT901BLE68-01(48591DE3C19B)	-0.282	-0.412	0.232	11.047	27.466	-13.489	-74.62	27.86	-91.73	-62.916	-63.602	-9.800	-0.64102	0.27155	-0.55609	0.45389	29.9	13111	100
2025-3-27 20:23:2.363	WT901BLE68-01(48591DE3C19B)	-0.303	-0.412	0.232	11.047	27.466	-13.489	-74.70	27.74	-92.23	-62.916	-63.602	-9.800	-0.64102	0.27155	-0.55609	0.45389	29.9	13111	100
2025-3-27 20:23:2.363	WT901BLE68-01(48591DE3C19B)	-0.303	-0.297	0.157	14.893	25.452	-14.343	-74.76	27.62	-92.72	-62.916	-63.602	-9.800	-0.64102	0.27155	-0.55609	0.45389	29.9	13111	100
2025-3-27 20:23:2.391	WT901BLE68-01(48591DE3C19B)	-0.310	-0.297	0.157	14.893	25.452	-14.343	-74.78	27.49	-93.22	-62.916	-63.602	-9.800	-0.64102	0.27155	-0.55609	0.45389	29.9	13111	100
2025-3-27 20:23:2.391	WT901BLE68-01(48591DE3C19B)	-0.310	-0.227	0.101	22.766	27.588	-7.202	-74.76	27.42	-93.71	-62.916	-63.602	-9.800	-0.64102	0.27155	-0.55609	0.45389	29.9	13111	100
2025-3-27 20:23:2.391	WT901BLE68-01(48591DE3C19B)	-0.280	-0.227	0.101	22.766	27.588	-7.202	-74.70	27.39	-94.22	-62.916	-63.602	-9.800	-0.64102	0.27155	-0.55609	0.45389	29.9	13111	100
2025-3-27 20:23:2.391	WT901BLE68-01(48591DE3C19B)	-0.280	-0.155	0.102	28.015	23.499	4.395	-74.59	27.42	-94.69	-62.916	-63.602	-9.800	-0.64102	0.27155	-0.55609	0.45389	29.9	13111	100
2025-3-27 20:23:2.421	WT901BLE68-01(48591DE3C19B)	-0.250	-0.155	0.102	28.015	23.499	4.395	-74.43	27.50	-95.14	-62.916	-63.602	-9.800	-0.64102	0.27155	-0.55609	0.45389	29.9	13111	100
2025-3-27 20:23:2.421	WT901BLE68-01(48591DE3C19B)	-0.250	-0.144	0.093	25.391	14.954	9.644	-74.25	27.61	-95.53	-62.916	-63.602	-9.800	-0.64102	0.27155	-0.55609	0.45389	29.9	13111	100
2025-3-27 20:23:2.421	WT901BLE68-01(48591DE3C19B)	-0.246	-0.144	0.093	25.391	14.954	9.644	-74.06	27.74	-95.89	-62.916	-63.602	-9.800	-0.64102	0.27155	-0.55609	0.45389	29.9	13111	100
2025-3-27 20:23:2.422	WT901BLE68-01(48591DE3C19B)	-0.246	-0.275	0.092	18.677	12.878	7.507	-73.89	27.86	-96.24	-62.916	-63.602	-9.800	-0.64102	0.27155	-0.55609	0.45389	29.9	13111	100
2025-3-27 20:23:2.484	WT901BLE68-01(48591DE3C19B)	-0.347	-0.275	0.092	18.677	12.878	7.507	-73.76	27.97	-96.59	-62.916	-63.602	-9.800	-0.64102	0.27155	-0.55609	0.45389	29.9	13111	100
2025-3-27 20:23:2.484	WT901BLE68-01(48591DE3C19B)	-0.347	-0.586	0.084	12.024	17.090	-4.456	-73.67	28.04	-96.99	-62.916	-63.602	-9.800	-0.64102	0.27155	-0.55609	0.45389	29.9	13111	100
2025-3-27 20:23:2.484	WT901BLE68-01(48591DE3C19B)	-0.535	-0.586	0.084	12.024	17.090	-4.456	-73.65	28.05	-97.42	-62.916	-63.602	-9.800	-0.64102	0.27155	-0.55609	0.45389	29.9	13111	100
2025-3-27 20:23:2.484	WT901BLE68-01(48591DE3C19B)	-0.535	-0.937	0.127	10.864	17.212	-21.484	-73.65	27.99	-97.87	-62.916	-63.602	-9.800	-0.64102	0.27155	-0.55609	0.45389	29.9	13111	100
2025-3-27 20:23:2.513	WT901BLE68-01(48591DE3C19B)	-0.644	-0.937	0.127	10.864	17.212	-21.484	-73.67	27.85	-98.34	-62.916	-63.602	-9.800	-0.64102	0.27155	-0.55609	0.45389	29.9	13111	100
2025-3-27 20:23:2.513	WT901BLE68-01(48591DE3C19B)	-0.644	-1.264	0.221	18.555	12.695	-47.058	-73.66	27.58	-98.82	-62.916	-63.602	-9.800	-0.64102	0.27155	-0.55609	0.45389	29.9	13111	100
2025-3-27 20:23:2.514	WT901BLE68-01(48591DE3C19B)	-0.708	-1.264	0.221	18.555	12.695	-47.058	-73.63	27.18	-99.31	-62.916	-63.602	-9.800	-0.64102	0.27155	-0.55609	0.45389	29.9	13111	100
2025-3-27 20:23:2.514	WT901BLE68-01(48591DE3C19B)	-0.708	-1.515	0.365	20.142	13.489	-90.820	-73.62	26.58	-99.87	-64.680	-66.934	-11.466	-0.64102	0.27155	-0.55609	0.45389	29.9	13111	100
2025-3-27 20:23:2.543	WT901BLE68-01(48591DE3C19B)	-1.040	-1.515	0.365	20.142	13.489	-90.820	-73.63	25.76	-100.48	-64.680	-66.934	-11.466	-0.64102	0.27155	-0.55609	0.45389	29.9	13111	100
2025-3-27 20:23:2.544	WT901BLE68-01(48591DE3C19B)	-1.040	-1.972	0.421	7.568	41.992	-103.577	-73.77	24.92	-101.27	-64.680	-66.934	-11.466	-0.64102	0.27155	-0.55609	0.45389	29.9	13111	100
2025-3-27 20:23:2.544	WT901BLE68-01(48591DE3C19B)	-1.099	-1.972	0.421	7.568	41.992	-103.577	-74.02	24.07	-102.21	-64.680	-66.934	-11.466	-0.64102	0.27155	-0.55609	0.45389	29.9	13111	100
2025-3-27 20:23:2.544	WT901BLE68-01(48591DE3C19B)	-1.099	-1.747	0.499	27.405	72.205	-106.995	-74.19	23.26	-103.47	-64.680	-66.934	-11.466	-0.64102	0.27155	-0.55609	0.45389	29.9	13111	100
2025-3-27 20:23:2.602	WT901BLE68-01(48591DE3C19B)	-0.904	-1.747	0.499	27.405	72.205	-106.995	-74.33	22.47	-104.73	-64.680	-66.934	-11.466	-0.64102	0.27155	-0.55609	0.45389	29.9	13111	100
2025-3-27 20:23:2.602	WT901BLE68-01(48591DE3C19B)	-0.904	-1.100	0.653	26.306	79.285	-91.492	-74.47	21.84	-106.02	-64.680	-66.934	-11.466	-0.64102	0.27155	-0.55609	0.45389	29.9	13111	100
2025-3-27 20:23:2.602	WT901BLE68-01(48591DE3C19B)	-0.708	-1.100	0.653	26.306	79.285	-91.492	-74.58	21.21	-107.33	-64.680	-66.934	-11.466	-0.64102	0.27155	-0.55609	0.45389	29.9	13111	100
2025-3-27 20:23:2.602	WT901BLE68-01(48591DE3C19B)	-0.708	-0.699	0.566	12.085	64.453	-66.406	-74.73	20.80	-108.41	-64.680	-66.934	-11.466	-0.64102	0.27155	-0.55609	0.45389	29.9	13111	100
2025-3-27 20:23:2.632	WT901BLE68-01(48591DE3C19B)	-0.736	-0.699	0.566	12.085	64.453	-66.406	-74.86	20.38	-109.50	-64.680	-66.934	-11.466	-0.64102	0.27155	-0.55609	0.45389	29.9	13111	100
2025-3-27 20:23:2.632	WT901BLE68-01(48591DE3C19B)	-0.736	-0.604	0.362	-11.108	18.677	-46.875	-75.03	20.03	-110.07	-64.680	-66.934	-11.466	-0.64102	0.27155	-0.55609	0.45389	29.9	13111	100
2025-3-27 20:23:2.632	WT901BLE68-01(48591DE3C19B)	-0.717	-0.604	0.362	-11.108	18.677	-46.875	-75.17	19.69	-110.65	-64.680	-66.934	-11.466	-0.64102	0.27155	-0.55609	0.45389	29.9	13111	100
2025-3-27 20:23:2.632	WT901BLE68-01(48591DE3C19B)	-0.717	-0.631	0.230	-27.527	-34.790	-35.095	-75.29	19.33	-110.67	-64.680	-66.934	-11.466	-0.64102	0.27155	-0.55609	0.45389	29.9	13111	100
2025-3-27 20:23:2.661	WT901BLE68-01(48591DE3C19B)	-0.684	-0.631	0.230	-27.527	-34.790	-35.095	-75.40	18.97	-110.69	-64.680	-66.934	-11.466	-0.64102	0.27155	-0.55609	0.45389	29.9	13111	100
2025-3-27 20:23:2.661	WT901BLE68-01(48591DE3C19B)	-0.684	-0.680	0.238	-29.236	-55.298	-18.555	-75.44	18.74	-110.47	-64.680	-66.934	-11.466	-0.64102	0.27155	-0.55609	0.45389	29.9	13111	100
2025-3-27 20:23:2.661	WT901BLE68-01(48591DE3C19B)	-0.619	-0.680	0.238	-29.236	-55.298	-18.555	-75.49	18.50	-110.25	-64.680	-66.934	-11.466	-0.64102	0.27155	-0.55609	0.45389	29.9	13111	100
2025-3-27 20:23:2.661	WT901BLE68-01(48591DE3C19B)	-0.619	-0.643	0.341	-20.630	-44.800	-16.602	-75.48	18.31	-110.13	-64.680	-66.934	-11.466	-0.64102	0.27155	-0.55609	0.45389	29.9	13111	100
2025-3-27 20:23:2.722	WT901BLE68-01(48591DE3C19B)	-0.545	-0.643	0.341	-20.630	-44.800	-16.602	-75.46	18.12	-110.02	-64.680	-66.934	-11.466	-0.64102	0.27155	-0.55609	0.45389	29.9	13111	100
2025-3-27 20:23:2.722	WT901BLE68-01(48591DE3C19B)	-0.545	-0.477	0.379	-8.911	-15.137	-8.362	-75.41	18.09	-110.18	-64.680	-66.934	-11.466	-0.64102	0.27155	-0.55609	0.45389	29.9	13111	100
2025-3-27 20:23:2.722	WT901BLE68-01(48591DE3C19B)	-0.545	-0.477	0.379	-8.911	-15.137	-8.362	-75.36	18.06	-110.35	-64.680	-66.934	-11.466	-0.64102	0.27155	-0.55609	0.45389	29.9	13111	100
2025-3-27 20:23:2.722	WT901BLE68-01(48591DE3C19B)	-0.545	-0.257	0.330	3.906	9.277	9.644	-75.23	18.25	-110.72	-64.680	-66.934	-11.466	-0.64102	0.27155	-0.55609	0.45389	29.9	13111	100
2025-3-27 20:23:2.753	WT901BLE68-01(48591DE3C19B)	-0.486	-0.257	0.330	3.906	9.277	9.644	-75.09	18.46	-111.09	-64.680	-66.934	-11.466	-0.52344	0.23303	-0.56833	0.59042	29.9	13111	100
2025-3-27 20:23:2.753	WT901BLE68-01(48591DE3C19B)	-0.486	-0.030	0.277	6.165	6.409	28.992	-74.89	18.84	-111.39	-64.680	-66.934	-11.466	-0.52344	0.23303	-0.56833	0.59042	29.9	13111	100
2025-3-27 20:23:2.753	WT901BLE68-01(48591DE3C19B)	-0.429	-0.030	0.277	6.165	6.409	28.992	-74.68	19.23	-111.69	-64.680	-66.934	-11.466	-0.52344	0.23303	-0.56833	0.59042	29.9	13111	100
2025-3-27 20:23:2.753	WT901BLE68-01(48591DE3C19B)	-0.429	0.093	0.244	-1.709	-7.507	43.274	-74.47	19.71	-111.81	-64.680	-66.934	-11.466	-0.52344	0.23303	-0.56833	0.59042	29.9	13111	100
2025-3-27 20:23:2.784	WT901BLE68-01(48591DE3C19B)	-0.452	0.093	0.244	-1.709	-7.507	43.274	-74.25	20.20	-111.93	-64.680	-66.934	-11.466	-0.52344	0.23303	-0.56833	0.59042	29.9	13111	100
2025-3-27 20:23:2.784	WT901BLE68-01(48591DE3C19B)	-0.452	0.004	0.194	-18.616	-33.447	52.856	-74.08	20.70	-111.76	-64.680	-66.934	-11.466	-0.52344	0.23303	-0.56833	0.59042	29.9	13111	100
2025-3-27 20:23:2.784	WT901BLE68-01(48591DE3C19B)	-0.483	0.004	0.194	-18.616	-33.447	52.856	-73.89	21.21	-111.58	-64.680	-66.934	-11.466	-0.52344	0.23303	-0.56833	0.59042	29.9	13111	100
2025-3-27 20:23:2.784	WT901BLE68-01(48591DE3C19B)	-0.483	-0.311	0.142	-36.499	-64.209	54.382	-73.76	21.65	-111.09	-64.680	-66.934	-11.466	-0.52344	0.23303	-0.56833	0.59042	29.9	13111	100
2025-3-27 20:23:2.841	WT901BLE68-01(48591DE3C19B)	-0.611	-0.311	0.142	-36.499	-64.209	54.382	-73.62	22.09	-110.58	-64.680	-66.934	-11.466	-0.52344	0.23303	-0.56833	0.59042	29.9	13111	100
2025-3-27 20:23:2.842	WT901BLE68-01(48591DE3C19B)	-0.611	-0.777	0.199	-46.692	-89.722	53.223	-73.50	22.44	-109.81	-64.680	-66.934	-11.466	-0.52344	0.23303	-0.56833	0.59042	29.9	13111	100
2025-3-27 20:23:2.842	WT901BLE68-01(48591DE3C19B)	-0.748	-0.777	0.199	-46.692	-89.722	53.223	-73.40	22.80	-109.03	-64.680	-66.934	-11.466	-0.52344	0.23303	-0.56833	0.59042	29.9	13111	100
2025-3-27 20:23:2.842	WT901BLE68-01(48591DE3C19B)	-0.748	-1.639	0.232	-60.608	-116.089	45.288	-73.37	22.99	-107.98	-64.680	-66.934	-11.466	-0.52344	0.23303	-0.56833	0.59042	29.9	13111	100
2025-3-27 20:23:2.871	WT901BLE68-01(48591DE3C19B)	-0.688	-1.639	0.232	-60.608	-116.089	45.288	-73.38	23.19	-106.88	-64.680	-66.934	-11.466	-0.52344	0.23303	-0.56833	0.59042	29.9	13111	100
2025-3-27 20:23:2.871	WT901BLE68-01(48591DE3C19B)	-0.688	-2.482	0.197	-30.701	-118.652	32.410	-73.13	23.23	-105.75	-64.680	-66.934	-11.466	-0.52344	0.23303	-0.56833	0.59042	29.9	13111	100
2025-3-27 20:23:2.871	WT901BLE68-01(48591DE3C19B)	-0.617	-2.482	0.197	-30.701	-118.652	32.410	-72.91	23.24	-104.57	-64.680	-66.934	-11.466	-0.52344	0.23303	-0.56833	0.59042	29.9	13111	100
2025-3-27 20:23:2.871	WT901BLE68-01(48591DE3C19B)	-0.617	-2.231	0.253	23.926	-86.670	49.805	-72.27	23.49	-103.64	-64.680	-66.934	-11.466	-0.52344	0.23303	-0.56833	0.59042	29.9	13111	100
2025-3-27 20:23:2.903	WT901BLE68-01(48591DE3C19B)	-0.533	-2.231	0.253	23.926	-86.670	49.805	-71.64	23.72	-102.69	-64.680	-66.934	-11.466	-0.52344	0.23303	-0.56833	0.59042	29.9	13111	100
2025-3-27 20:23:2.903	WT901BLE68-01(48591DE3C19B)	-0.533	-1.696	0.254	22.705	-48.645	55.115	-71.18	24.10	-102.10	-64.680	-66.934	-11.466	-0.52344	0.23303	-0.56833	0.59042	29.9	13111	100
2025-3-27 20:23:2.904	WT901BLE68-01(48591DE3C19B)	-0.313	-1.696	0.254	22.705	-48.645	55.115	-70.71	24.47	-101.50	-64.680	-66.934	-11.466	-0.52344	0.23303	-0.56833	0.59042	29.9	13111	100
2025-3-27 20:23:2.904	WT901BLE68-01(48591DE3C19B)	-0.313	-1.595	0.261	27.222	-5.859	67.688	-70.37	25.09	-101.28	-64.680	-66.934	-11.466	-0.52344	0.23303	-0.56833	0.59042	29.9	13111	100
2025-3-27 20:23:2.962	WT901BLE68-01(48591DE3C19B)	-0.254	-1.595	0.261	27.222	-5.859	67.688	-70.02	25.69	-101.06	-64.680	-66.934	-11.466	-0.52344	0.23303	-0.56833	0.59042	29.9	13111	100
2025-3-27 20:23:2.962	WT901BLE68-01(48591DE3C19B)	-0.254	-1.240	0.240	30.640	32.104	83.740	-69.79	26.56	-101.16	-80.164	-54.978	-16.366	-0.52344	0.23303	-0.56833	0.59042	29.9	13111	100
2025-3-27 20:23:2.962	WT901BLE68-01(48591DE3C19B)	-0.327	-1.240	0.240	30.640	32.104	83.740	-69.55	27.42	-101.26	-80.164	-54.978	-16.366	-0.52344	0.23303	-0.56833	0.59042	29.9	13111	100
2025-3-27 20:23:2.962	WT901BLE68-01(48591DE3C19B)	-0.327	-0.991	0.182	18.677	42.786	79.163	-69.50	28.27	-101.48	-80.164	-54.978	-16.366	-0.52344	0.23303	-0.56833	0.59042	29.9	13111	100
2025-3-27 20:23:3.22	WT901BLE68-01(48591DE3C19B)	-0.376	-0.991	0.182	18.677	42.786	79.163	-69.45	29.11	-101.69	-80.164	-54.978	-16.366	-0.52344	0.23303	-0.56833	0.59042	29.9	13111	100
2025-3-27 20:23:3.22	WT901BLE68-01(48591DE3C19B)	-0.376	-0.860	0.161	14.771	43.823	69.702	-69.47	29.86	-101.96	-80.164	-54.978	-16.366	-0.52344	0.23303	-0.56833	0.59042	29.9	13111	100
2025-3-27 20:23:3.22	WT901BLE68-01(48591DE3C19B)	-0.413	-0.860	0.161	14.771	43.823	69.702	-69.48	30.61	-102.23	-80.164	-54.978	-16.366	-0.52344	0.23303	-0.56833	0.59042	29.9	13111	100
2025-3-27 20:23:3.22	WT901BLE68-01(48591DE3C19B)	-0.405	-0.767	0.140	9.705	49.255	61.462	-69.60	31.30	-102.58	-80.164	-54.978	-16.366	-0.52344	0.23303	-0.56833	0.59042	29.9	13111	100
2025-3-27 20:23:3.23	WT901BLE68-01(48591DE3C19B)	-0.405	-0.652	0.130	9.216	56.458	47.058	-69.77	31.93	-103.02	-80.164	-54.978	-16.366	-0.52344	0.23303	-0.56833	0.59042	29.9	13111	100
2025-3-27 20:23:3.23	WT901BLE68-01(48591DE3C19B)	-0.424	-0.652	0.130	9.216	56.458	47.058	-69.98	32.51	-103.52	-80.164	-54.978	-16.366	-0.52344	0.23303	-0.56833	0.59042	29.9	13111	100
2025-3-27 20:23:3.23	WT901BLE68-01(48591DE3C19B)	-0.424	-0.479	0.146	10.193	58.411	33.569	-70.20	33.02	-104.07	-80.164	-54.978	-16.366	-0.52344	0.23303	-0.56833	0.59042	29.9	13111	100
2025-3-27 20:23:3.23	WT901BLE68-01(48591DE3C19B)	-0.469	-0.479	0.146	10.193	58.411	33.569	-70.45	33.48	-104.67	-80.164	-54.978	-16.366	-0.52344	0.23303	-0.56833	0.59042	29.9	13111	100
2025-3-27 20:23:3.83	WT901BLE68-01(48591DE3C19B)	-0.469	-0.366	0.163	6.592	46.936	21.790	-70.69	33.87	-105.22	-80.164	-54.978	-16.366	-0.52344	0.23303	-0.56833	0.59042	29.9	13111	100
2025-3-27 20:23:3.83	WT901BLE68-01(48591DE3C19B)	-0.472	-0.366	0.163	6.592	46.936	21.790	-70.93	34.18	-105.74	-80.164	-54.978	-16.366	-0.52344	0.23303	-0.56833	0.59042	29.9	13111	100
2025-3-27 20:23:3.83	WT901BLE68-01(48591DE3C19B)	-0.472	-0.356	0.161	1.770	25.208	10.925	-71.13	34.42	-106.17	-80.164	-54.978	-16.366	-0.52344	0.23303	-0.56833	0.59042	29.9	13111	100
2025-3-27 20:23:3.84	WT901BLE68-01(48591DE3C19B)	-0.448	-0.356	0.161	1.770	25.208	10.925	-71.29	34.57	-106.50	-80.164	-54.978	-16.366	-0.52344	0.23303	-0.56833	0.59042	29.9	13111	100
2025-3-27 20:23:3.111	WT901BLE68-01(48591DE3C19B)	-0.448	-0.450	0.128	-1.892	5.432	0.671	-71.42	34.66	-106.73	-80.164	-54.978	-16.366	-0.52344	0.23303	-0.56833	0.59042	29.9	13111	100
2025-3-27 20:23:3.111	WT901BLE68-01(48591DE3C19B)	-0.418	-0.450	0.128	-1.892	5.432	0.671	-71.50	34.66	-106.88	-80.164	-54.978	-16.366	-0.52344	0.23303	-0.56833	0.59042	29.9	13111	100
2025-3-27 20:23:3.112	WT901BLE68-01(48591DE3C19B)	-0.418	-0.534	0.115	-0.671	-12.146	-4.944	-71.53	34.62	-106.93	-80.164	-54.978	-16.366	-0.52344	0.23303	-0.56833	0.59042	29.9	13111	100
2025-3-27 20:23:3.112	WT901BLE68-01(48591DE3C19B)	-0.400	-0.534	0.115	-0.671	-12.146	-4.944	-71.50	34.52	-106.89	-80.164	-54.978	-16.366	-0.52344	0.23303	-0.56833	0.59042	29.9	13111	100
2025-3-27 20:23:3.141	WT901BLE68-01(48591DE3C19B)	-0.400	-0.585	0.134	0.366	-27.954	-4.883	-71.41	34.41	-106.77	-80.164	-54.978	-16.366	-0.52344	0.23303	-0.56833	0.59042	29.9	13111	100
2025-3-27 20:23:3.141	WT901BLE68-01(48591DE3C19B)	-0.350	-0.585	0.134	0.366	-27.954	-4.883	-71.27	34.27	-106.54	-80.164	-54.978	-16.366	-0.52344	0.23303	-0.56833	0.59042	29.9	13111	100
2025-3-27 20:23:3.141	WT901BLE68-01(48591DE3C19B)	-0.350	-0.596	0.185	3.662	-36.621	0.000	-71.08	34.13	-106.26	-80.164	-54.978	-16.366	-0.60315	0.14230	-0.58783	0.51990	29.9	13111	100
2025-3-27 20:23:3.141	WT901BLE68-01(48591DE3C19B)	-0.305	-0.596	0.185	3.662	-36.621	0.000	-70.85	34.01	-105.92	-80.164	-54.978	-16.366	-0.60315	0.14230	-0.58783	0.51990	29.9	13111	100
2025-3-27 20:23:3.202	WT901BLE68-01(48591DE3C19B)	-0.305	-0.627	0.236	3.479	-36.316	7.019	-70.60	33.91	-105.57	-80.164	-54.978	-16.366	-0.60315	0.14230	-0.58783	0.51990	29.9	13111	100
2025-3-27 20:23:3.202	WT901BLE68-01(48591DE3C19B)	-0.362	-0.627	0.236	3.479	-36.316	7.019	-70.35	33.85	-105.21	-80.164	-54.978	-16.366	-0.60315	0.14230	-0.58783	0.51990	29.9	13111	100
2025-3-27 20:23:3.202	WT901BLE68-01(48591DE3C19B)	-0.362	-0.780	0.299	4.639	-31.555	11.230	-70.10	33.80	-104.86	-80.164	-54.978	-16.366	-0.60315	0.14230	-0.58783	0.51990	29.9	13111	100
2025-3-27 20:23:3.202	WT901BLE68-01(48591DE3C19B)	-0.421	-0.780	0.299	4.639	-31.555	11.230	-69.86	33.78	-104.53	-80.164	-54.978	-16.366	-0.60315	0.14230	-0.58783	0.51990	29.9	13111	100
2025-3-27 20:23:3.232	WT901BLE68-01(48591DE3C19B)	-0.421	-0.956	0.314	5.554	-27.527	7.690	-69.63	33.74	-104.23	-80.164	-54.978	-16.366	-0.60315	0.14230	-0.58783	0.51990	29.9	13111	100
2025-3-27 20:23:3.232	WT901BLE68-01(48591DE3C19B)	-0.428	-0.956	0.314	5.554	-27.527	7.690	-69.41	33.69	-103.95	-80.164	-54.978	-16.366	-0.60315	0.14230	-0.58783	0.51990	29.9	13111	100
2025-3-27 20:23:3.232	WT901BLE68-01(48591DE3C19B)	-0.428	-1.191	0.285	2.319	-14.709	-1.465	-69.26	33.61	-103.77	-80.164	-54.978	-16.366	-0.60315	0.14230	-0.58783	0.51990	29.9	13111	100
2025-3-27 20:23:3.232	WT901BLE68-01(48591DE3C19B)	-0.466	-1.191	0.285	2.319	-14.709	-1.465	-69.18	33.50	-103.66	-80.164	-54.978	-16.366	-0.60315	0.14230	-0.58783	0.51990	29.9	13111	100
2025-3-27 20:23:3.261	WT901BLE68-01(48591DE3C19B)	-0.466	-1.398	0.267	1.648	7.996	-17.334	-69.20	33.35	-103.72	-80.164	-54.978	-16.366	-0.60315	0.14230	-0.58783	0.51990	29.9	13111	100
2025-3-27 20:23:3.261	WT901BLE68-01(48591DE3C19B)	-0.628	-1.398	0.267	1.648	7.996	-17.334	-69.31	33.17	-103.93	-80.164	-54.978	-16.366	-0.60315	0.14230	-0.58783	0.51990	29.9	13111	100
2025-3-27 20:23:3.261	WT901BLE68-01(48591DE3C19B)	-0.628	-1.579	0.326	-5.676	18.311	-31.311	-69.51	32.93	-104.22	-80.164	-54.978	-16.366	-0.60315	0.14230	-0.58783	0.51990	29.9	13111	100
2025-3-27 20:23:3.261	WT901BLE68-01(48591DE3C19B)	-0.792	-1.579	0.326	-5.676	18.311	-31.311	-69.79	32.65	-104.58	-80.164	-54.978	-16.366	-0.60315	0.14230	-0.58783	0.51990	29.9	13111	100
2025-3-27 20:23:3.352	WT901BLE68-01(48591DE3C19B)	-0.792	-1.729	0.458	-12.512	12.634	-45.715	-70.10	32.28	-104.95	-80.164	-54.978	-16.366	-0.60315	0.14230	-0.58783	0.51990	29.9	13111	100
2025-3-27 20:23:3.352	WT901BLE68-01(48591DE3C19B)	-0.806	-1.729	0.458	-12.512	12.634	-45.715	-70.43	31.84	-105.29	-80.164	-54.978	-16.366	-0.60315	0.14230	-0.58783	0.51990	29.9	13111	100
2025-3-27 20:23:3.352	WT901BLE68-01(48591DE3C19B)	-0.806	-1.618	0.590	-17.639	2.014	-47.607	-70.75	31.38	-105.58	-80.164	-54.978	-16.366	-0.60315	0.14230	-0.58783	0.51990	29.9	13111	100
2025-3-27 20:23:3.352	WT901BLE68-01(48591DE3C19B)	-0.739	-1.618	0.590	-17.639	2.014	-47.607	-71.06	30.89	-105.81	-80.164	-54.978	-16.366	-0.60315	0.14230	-0.58783	0.51990	29.9	13111	100
2025-3-27 20:23:3.353	WT901BLE68-01(48591DE3C19B)	-0.739	-1.443	0.623	-23.560	-12.878	-40.527	-71.34	30.42	-105.94	-88.004	-37.632	-14.210	-0.60315	0.14230	-0.58783	0.51990	29.9	13111	100
2025-3-27 20:23:3.353	WT901BLE68-01(48591DE3C19B)	-0.604	-1.443	0.623	-23.560	-12.878	-40.527	-71.59	29.96	-105.97	-88.004	-37.632	-14.210	-0.60315	0.14230	-0.58783	0.51990	29.9	13111	100
2025-3-27 20:23:3.353	WT901BLE68-01(48591DE3C19B)	-0.604	-1.292	0.560	-26.978	-30.518	-34.546	-71.80	29.50	-105.90	-88.004	-37.632	-14.210	-0.60315	0.14230	-0.58783	0.51990	29.9	13111	100
2025-3-27 20:23:3.354	WT901BLE68-01(48591DE3C19B)	-0.494	-1.292	0.560	-26.978	-30.518	-34.546	-71.97	29.05	-105.71	-88.004	-37.632	-14.210	-0.60315	0.14230	-0.58783	0.51990	29.9	13111	100
2025-3-27 20:23:3.384	WT901BLE68-01(48591DE3C19B)	-0.494	-1.110	0.490	-24.109	-40.649	-22.827	-72.09	28.64	-105.45	-88.004	-37.632	-14.210	-0.60315	0.14230	-0.58783	0.51990	29.9	13111	100
2025-3-27 20:23:3.384	WT901BLE68-01(48591DE3C19B)	-0.417	-1.110	0.490	-24.109	-40.649	-22.827	-72.15	28.26	-105.12	-88.004	-37.632	-14.210	-0.60315	0.14230	-0.58783	0.51990	29.9	13111	100
2025-3-27 20:23:3.384	WT901BLE68-01(48591DE3C19B)	-0.417	-0.918	0.440	-19.409	-37.476	-15.503	-72.19	27.94	-104.79	-88.004	-37.632	-14.210	-0.60315	0.14230	-0.58783	0.51990	29.9	13111	100
2025-3-27 20:23:3.384	WT901BLE68-01(48591DE3C19B)	-0.332	-0.918	0.440	-19.409	-37.476	-15.503	-72.21	27.65	-104.46	-88.004	-37.632	-14.210	-0.60315	0.14230	-0.58783	0.51990	29.9	13111	100
2025-3-27 20:23:3.441	WT901BLE68-01(48591DE3C19B)	-0.332	-0.765	0.377	-14.404	-19.226	-14.038	-72.25	27.39	-104.24	-88.004	-37.632	-14.210	-0.60315	0.14230	-0.58783	0.51990	29.9	13111	100
2025-3-27 20:23:3.442	WT901BLE68-01(48591DE3C19B)	-0.308	-0.765	0.377	-14.404	-19.226	-14.038	-72.30	27.18	-104.11	-88.004	-37.632	-14.210	-0.60315	0.14230	-0.58783	0.51990	29.9	13111	100
2025-3-27 20:23:3.442	WT901BLE68-01(48591DE3C19B)	-0.308	-0.655	0.313	-6.104	6.714	-16.846	-72.38	26.99	-104.13	-88.004	-37.632	-14.210	-0.60315	0.14230	-0.58783	0.51990	29.9	13111	100
2025-3-27 20:23:3.442	WT901BLE68-01(48591DE3C19B)	-0.339	-0.655	0.313	-6.104	6.714	-16.846	-72.48	26.82	-104.29	-88.004	-37.632	-14.210	-0.60315	0.14230	-0.58783	0.51990	29.9	13111	100
2025-3-27 20:23:3.470	WT901BLE68-01(48591DE3C19B)	-0.339	-0.565	0.293	0.549	27.283	-21.545	-72.59	26.67	-104.56	-88.004	-37.632	-14.210	-0.60315	0.14230	-0.58783	0.51990	29.9	13111	100
2025-3-27 20:23:3.470	WT901BLE68-01(48591DE3C19B)	-0.407	-0.565	0.293	0.549	27.283	-21.545	-72.72	26.53	-104.95	-88.004	-37.632	-14.210	-0.60315	0.14230	-0.58783	0.51990	29.9	13111	100
2025-3-27 20:23:3.471	WT901BLE68-01(48591DE3C19B)	-0.407	-0.531	0.311	5.371	32.349	-26.489	-72.83	26.37	-105.37	-88.004	-37.632	-14.210	-0.60315	0.14230	-0.58783	0.51990	29.9	13111	100
2025-3-27 20:23:3.471	WT901BLE68-01(48591DE3C19B)	-0.459	-0.531	0.311	5.371	32.349	-26.489	-72.94	26.20	-105.83	-88.004	-37.632	-14.210	-0.60315	0.14230	-0.58783	0.51990	29.9	13111	100
2025-3-27 20:23:3.503	WT901BLE68-01(48591DE3C19B)	-0.459	-0.544	0.319	7.507	28.137	-31.189	-73.00	25.98	-106.25	-88.004	-37.632	-14.210	-0.60315	0.14230	-0.58783	0.51990	29.9	13111	100
2025-3-27 20:23:3.503	WT901BLE68-01(48591DE3C19B)	-0.496	-0.544	0.319	7.507	28.137	-31.189	-73.06	25.76	-106.68	-88.004	-37.632	-14.210	-0.60315	0.14230	-0.58783	0.51990	29.9	13111	100
2025-3-27 20:23:3.504	WT901BLE68-01(48591DE3C19B)	-0.496	-0.587	0.312	10.498	21.423	-34.546	-73.05	25.50	-107.05	-88.004	-37.632	-14.210	-0.60315	0.14230	-0.58783	0.51990	29.9	13111	100
2025-3-27 20:23:3.504	WT901BLE68-01(48591DE3C19B)	-0.526	-0.587	0.312	10.498	21.423	-34.546	-73.05	25.25	-107.41	-88.004	-37.632	-14.210	-0.60315	0.14230	-0.58783	0.51990	29.9	13111	100
2025-3-27 20:23:3.562	WT901BLE68-01(48591DE3C19B)	-0.526	-0.610	0.294	11.719	9.949	-36.804	-72.98	24.94	-107.66	-88.004	-37.632	-14.210	-0.60315	0.14230	-0.58783	0.51990	29.9	13111	100
2025-3-27 20:23:3.562	WT901BLE68-01(48591DE3C19B)	-0.549	-0.610	0.294	11.719	9.949	-36.804	-72.91	24.65	-107.91	-88.004	-37.632	-14.210	-0.56485	0.20270	-0.57040	0.56067	29.9	13111	100
2025-3-27 20:23:3.562	WT901BLE68-01(48591DE3C19B)	-0.549	-0.636	0.285	8.789	-5.676	-37.354	-72.81	24.31	-108.01	-88.004	-37.632	-14.210	-0.56485	0.20270	-0.57040	0.56067	29.9	13111	100
2025-3-27 20:23:3.562	WT901BLE68-01(48591DE3C19B)	-0.536	-0.636	0.285	8.789	-5.676	-37.354	-72.70	23.98	-108.10	-88.004	-37.632	-14.210	-0.56485	0.20270	-0.57040	0.56067	29.9	13111	100
2025-3-27 20:23:3.622	WT901BLE68-01(48591DE3C19B)	-0.536	-0.695	0.297	4.883	-21.729	-36.133	-72.56	23.61	-108.02	-88.004	-37.632	-14.210	-0.56485	0.20270	-0.57040	0.56067	29.9	13111	100
2025-3-27 20:23:3.622	WT901BLE68-01(48591DE3C19B)	-0.498	-0.695	0.297	4.883	-21.729	-36.133	-72.43	23.25	-107.95	-88.004	-37.632	-14.210	-0.56485	0.20270	-0.57040	0.56067	29.9	13111	100
2025-3-27 20:23:3.622	WT901BLE68-01(48591DE3C19B)	-0.498	-0.741	0.308	2.014	-28.503	-32.654	-72.29	22.91	-107.80	-88.004	-37.632	-14.210	-0.56485	0.20270	-0.57040	0.56067	29.9	13111	100
2025-3-27 20:23:3.622	WT901BLE68-01(48591DE3C19B)	-0.503	-0.741	0.308	2.014	-28.503	-32.654	-72.16	22.56	-107.65	-88.004	-37.632	-14.210	-0.56485	0.20270	-0.57040	0.56067	29.9	13111	100
