time	DeviceName	AccX(g)	AccY(g)	AccZ(g)	AsX(°/s)	AsY(°/s)	AsZ(°/s)	AngleX(°)	AngleY(°)	AngleZ(°)	HX(uT)	HY(uT)	HZ(uT)	Q0()	Q1()	Q2()	Q3()	Temperature(°C)	Version()	Battery level(%)
2025-3-27 20:4:23.927	WT901BLE68-01(48591DE3C19B)	-0.193	-0.939	0.231	-2.930	18.188	0.732	-77.51	16.35	-34.80	-65.562	-33.908	76.930	-0.76556	0.55988	-0.28421	0.13995	23.7	13111	100
2025-3-27 20:4:23.927	WT901BLE68-01(48591DE3C19B)	-0.258	-0.945	0.241	0.000	38.330	1.404	-77.61	16.44	-35.20	-65.562	-33.908	76.930	-0.76556	0.55988	-0.28421	0.13995	23.7	13111	100
2025-3-27 20:4:23.927	WT901BLE68-01(48591DE3C19B)	-0.258	-0.942	0.234	2.380	51.208	2.563	-77.72	16.54	-35.67	-65.562	-33.908	76.930	-0.76556	0.55988	-0.28421	0.13995	23.7	13111	100
2025-3-27 20:4:23.928	WT901BLE68-01(48591DE3C19B)	-0.297	-0.942	0.234	2.380	51.208	2.563	-77.83	16.66	-36.19	-65.562	-33.908	76.930	-0.76556	0.55988	-0.28421	0.13995	23.7	13111	100
2025-3-27 20:4:23.950	WT901BLE68-01(48591DE3C19B)	-0.297	-0.936	0.220	2.563	50.354	2.563	-77.94	16.78	-36.72	-65.562	-33.908	76.930	-0.76556	0.55988	-0.28421	0.13995	23.7	13111	100
2025-3-27 20:4:23.950	WT901BLE68-01(48591DE3C19B)	-0.329	-0.936	0.220	2.563	50.354	2.563	-78.05	16.89	-37.23	-65.562	-33.908	76.930	-0.76556	0.55988	-0.28421	0.13995	23.7	13111	100
2025-3-27 20:4:23.950	WT901BLE68-01(48591DE3C19B)	-0.329	-0.932	0.218	3.052	42.053	2.747	-78.15	17.00	-37.70	-65.562	-33.908	76.930	-0.76556	0.55988	-0.28421	0.13995	23.7	13111	100
2025-3-27 20:4:23.950	WT901BLE68-01(48591DE3C19B)	-0.364	-0.932	0.218	3.052	42.053	2.747	-78.23	17.10	-38.12	-65.562	-33.908	76.930	-0.76556	0.55988	-0.28421	0.13995	23.7	13111	100
2025-3-27 20:4:23.982	WT901BLE68-01(48591DE3C19B)	-0.364	-0.929	0.223	1.953	25.024	1.953	-78.29	17.18	-38.46	-65.562	-33.908	76.930	-0.76556	0.55988	-0.28421	0.13995	23.7	13111	100
2025-3-27 20:4:23.982	WT901BLE68-01(48591DE3C19B)	-0.345	-0.929	0.223	1.953	25.024	1.953	-78.33	17.25	-38.70	-65.562	-33.908	76.930	-0.76556	0.55988	-0.28421	0.13995	23.7	13111	100
2025-3-27 20:4:23.982	WT901BLE68-01(48591DE3C19B)	-0.345	-0.933	0.224	-0.549	5.859	0.854	-78.36	17.29	-38.85	-65.562	-33.908	76.930	-0.76556	0.55988	-0.28421	0.13995	23.7	13111	100
2025-3-27 20:4:23.982	WT901BLE68-01(48591DE3C19B)	-0.301	-0.933	0.224	-0.549	5.859	0.854	-78.37	17.31	-38.90	-65.562	-33.908	76.930	-0.76556	0.55988	-0.28421	0.13995	23.7	13111	100
2025-3-27 20:4:24.40	WT901BLE68-01(48591DE3C19B)	-0.301	-0.942	0.224	-1.221	-4.028	0.183	-78.37	17.31	-38.90	-65.562	-33.908	76.930	-0.76556	0.55988	-0.28421	0.13995	23.7	13111	100
2025-3-27 20:4:24.40	WT901BLE68-01(48591DE3C19B)	-0.277	-0.942	0.224	-1.221	-4.028	0.183	-78.35	17.31	-38.85	-65.562	-33.908	76.930	-0.75430	0.55017	-0.31769	0.16519	23.7	13111	100
2025-3-27 20:4:24.40	WT901BLE68-01(48591DE3C19B)	-0.277	-0.941	0.224	-0.732	-4.578	-0.732	-78.34	17.30	-38.79	-65.562	-33.908	76.930	-0.75430	0.55017	-0.31769	0.16519	23.7	13111	100
2025-3-27 20:4:24.40	WT901BLE68-01(48591DE3C19B)	-0.268	-0.941	0.224	-0.732	-4.578	-0.732	-78.32	17.28	-38.74	-65.562	-33.908	76.930	-0.75430	0.55017	-0.31769	0.16519	23.7	13111	100
2025-3-27 20:4:24.69	WT901BLE68-01(48591DE3C19B)	-0.268	-0.940	0.224	0.183	-1.831	-1.526	-78.31	17.26	-38.70	-65.562	-33.908	76.930	-0.75430	0.55017	-0.31769	0.16519	23.7	13111	100
2025-3-27 20:4:24.69	WT901BLE68-01(48591DE3C19B)	-0.278	-0.940	0.224	0.183	-1.831	-1.526	-78.29	17.24	-38.68	-65.562	-33.908	76.930	-0.75430	0.55017	-0.31769	0.16519	23.7	13111	100
2025-3-27 20:4:24.70	WT901BLE68-01(48591DE3C19B)	-0.278	-0.941	0.220	1.160	1.587	-2.075	-78.27	17.22	-38.68	-65.562	-33.908	76.930	-0.75430	0.55017	-0.31769	0.16519	23.7	13111	100
2025-3-27 20:4:24.70	WT901BLE68-01(48591DE3C19B)	-0.293	-0.941	0.220	1.160	1.587	-2.075	-78.26	17.20	-38.69	-65.562	-33.908	76.930	-0.75430	0.55017	-0.31769	0.16519	23.7	13111	100
2025-3-27 20:4:24.100	WT901BLE68-01(48591DE3C19B)	-0.293	-0.940	0.217	1.587	2.075	-2.869	-78.24	17.17	-38.71	-65.562	-33.908	76.930	-0.75430	0.55017	-0.31769	0.16519	23.7	13111	100
2025-3-27 20:4:24.100	WT901BLE68-01(48591DE3C19B)	-0.301	-0.940	0.217	1.587	2.075	-2.869	-78.22	17.14	-38.73	-65.562	-33.908	76.930	-0.75430	0.55017	-0.31769	0.16519	23.7	13111	100
2025-3-27 20:4:24.101	WT901BLE68-01(48591DE3C19B)	-0.301	-0.937	0.216	1.770	0.183	-3.540	-78.20	17.12	-38.74	-65.562	-33.908	76.930	-0.75430	0.55017	-0.31769	0.16519	23.7	13111	100
2025-3-27 20:4:24.101	WT901BLE68-01(48591DE3C19B)	-0.308	-0.937	0.216	1.770	0.183	-3.540	-78.17	17.08	-38.75	-65.562	-33.908	76.930	-0.75430	0.55017	-0.31769	0.16519	23.7	13111	100
2025-3-27 20:4:24.159	WT901BLE68-01(48591DE3C19B)	-0.308	-0.932	0.215	1.587	-3.662	-4.272	-78.15	17.03	-38.73	-65.562	-33.908	76.930	-0.75430	0.55017	-0.31769	0.16519	23.7	13111	100
2025-3-27 20:4:24.160	WT901BLE68-01(48591DE3C19B)	-0.311	-0.932	0.215	1.587	-3.662	-4.272	-78.11	16.98	-38.70	-65.562	-33.908	76.930	-0.75430	0.55017	-0.31769	0.16519	23.7	13111	100
2025-3-27 20:4:24.160	WT901BLE68-01(48591DE3C19B)	-0.311	-0.927	0.213	0.793	-9.216	-4.578	-78.07	16.93	-38.63	-65.562	-33.908	76.930	-0.75430	0.55017	-0.31769	0.16519	23.7	13111	100
2025-3-27 20:4:24.160	WT901BLE68-01(48591DE3C19B)	-0.304	-0.927	0.213	0.793	-9.216	-4.578	-78.04	16.86	-38.55	-65.562	-33.908	76.930	-0.75430	0.55017	-0.31769	0.16519	23.7	13111	100
2025-3-27 20:4:24.191	WT901BLE68-01(48591DE3C19B)	-0.304	-0.926	0.213	-0.244	-14.160	-4.578	-78.00	16.80	-38.43	-65.562	-33.908	76.930	-0.75430	0.55017	-0.31769	0.16519	23.7	13111	100
2025-3-27 20:4:24.192	WT901BLE68-01(48591DE3C19B)	-0.295	-0.926	0.213	-0.244	-14.160	-4.578	-77.95	16.73	-38.29	-65.562	-33.908	76.930	-0.75430	0.55017	-0.31769	0.16519	23.7	13111	100
2025-3-27 20:4:24.192	WT901BLE68-01(48591DE3C19B)	-0.295	-0.928	0.211	-1.099	-17.334	-4.333	-77.91	16.66	-38.13	-65.562	-33.908	76.930	-0.75430	0.55017	-0.31769	0.16519	23.7	13111	100
2025-3-27 20:4:24.192	WT901BLE68-01(48591DE3C19B)	-0.285	-0.928	0.211	-1.099	-17.334	-4.333	-77.87	16.58	-37.96	-65.562	-33.908	76.930	-0.75430	0.55017	-0.31769	0.16519	23.7	13111	100
2025-3-27 20:4:24.222	WT901BLE68-01(48591DE3C19B)	-0.285	-0.924	0.210	-2.014	-18.921	-3.662	-77.83	16.51	-37.78	-65.562	-33.908	76.930	-0.75430	0.55017	-0.31769	0.16519	23.7	13111	100
2025-3-27 20:4:24.222	WT901BLE68-01(48591DE3C19B)	-0.279	-0.924	0.210	-2.014	-18.921	-3.662	-77.79	16.44	-37.59	-65.562	-33.908	76.930	-0.75430	0.55017	-0.31769	0.16519	23.7	13111	100
2025-3-27 20:4:24.222	WT901BLE68-01(48591DE3C19B)	-0.279	-0.929	0.213	-2.808	-18.982	-3.357	-77.76	16.37	-37.40	-68.012	-33.614	76.244	-0.75430	0.55017	-0.31769	0.16519	23.7	13111	100
2025-3-27 20:4:24.222	WT901BLE68-01(48591DE3C19B)	-0.276	-0.929	0.213	-2.808	-18.982	-3.357	-77.73	16.30	-37.22	-68.012	-33.614	76.244	-0.75430	0.55017	-0.31769	0.16519	23.7	13111	100
2025-3-27 20:4:24.310	WT901BLE68-01(48591DE3C19B)	-0.276	-0.933	0.219	-3.174	-17.944	-3.174	-77.70	16.23	-37.03	-68.012	-33.614	76.244	-0.75430	0.55017	-0.31769	0.16519	23.7	13111	100
2025-3-27 20:4:24.310	WT901BLE68-01(48591DE3C19B)	-0.268	-0.933	0.219	-3.174	-17.944	-3.174	-77.68	16.17	-36.86	-68.012	-33.614	76.244	-0.75430	0.55017	-0.31769	0.16519	23.7	13111	100
2025-3-27 20:4:24.310	WT901BLE68-01(48591DE3C19B)	-0.268	-0.931	0.219	-3.052	-16.113	-3.540	-77.66	16.10	-36.69	-68.012	-33.614	76.244	-0.75430	0.55017	-0.31769	0.16519	23.7	13111	100
2025-3-27 20:4:24.310	WT901BLE68-01(48591DE3C19B)	-0.269	-0.931	0.219	-3.052	-16.113	-3.540	-77.65	16.03	-36.54	-68.012	-33.614	76.244	-0.75430	0.55017	-0.31769	0.16519	23.7	13111	100
2025-3-27 20:4:24.311	WT901BLE68-01(48591DE3C19B)	-0.269	-0.935	0.222	-3.113	-12.939	-3.967	-77.63	15.97	-36.40	-68.012	-33.614	76.244	-0.75430	0.55017	-0.31769	0.16519	23.7	13111	100
2025-3-27 20:4:24.311	WT901BLE68-01(48591DE3C19B)	-0.276	-0.935	0.222	-3.113	-12.939	-3.967	-77.62	15.91	-36.28	-68.012	-33.614	76.244	-0.75430	0.55017	-0.31769	0.16519	23.7	13111	100
2025-3-27 20:4:24.311	WT901BLE68-01(48591DE3C19B)	-0.276	-0.938	0.224	-2.197	-10.315	-4.761	-77.62	15.85	-36.18	-68.012	-33.614	76.244	-0.75430	0.55017	-0.31769	0.16519	23.7	13111	100
2025-3-27 20:4:24.311	WT901BLE68-01(48591DE3C19B)	-0.282	-0.938	0.224	-2.197	-10.315	-4.761	-77.61	15.78	-36.09	-68.012	-33.614	76.244	-0.75430	0.55017	-0.31769	0.16519	23.7	13111	100
2025-3-27 20:4:24.402	WT901BLE68-01(48591DE3C19B)	-0.282	-0.928	0.227	-2.197	-9.644	-5.066	-77.60	15.72	-36.00	-68.012	-33.614	76.244	-0.75430	0.55017	-0.31769	0.16519	23.7	13111	100
2025-3-27 20:4:24.402	WT901BLE68-01(48591DE3C19B)	-0.273	-0.928	0.227	-2.197	-9.644	-5.066	-77.60	15.65	-35.92	-68.012	-33.614	76.244	-0.75430	0.55017	-0.31769	0.16519	23.7	13111	100
2025-3-27 20:4:24.402	WT901BLE68-01(48591DE3C19B)	-0.273	-0.925	0.228	-2.380	-9.888	-5.798	-77.59	15.58	-35.84	-68.012	-33.614	76.244	-0.75430	0.55017	-0.31769	0.16519	23.7	13111	100
2025-3-27 20:4:24.402	WT901BLE68-01(48591DE3C19B)	-0.271	-0.925	0.228	-2.380	-9.888	-5.798	-77.58	15.51	-35.76	-68.012	-33.614	76.244	-0.75430	0.55017	-0.31769	0.16519	23.7	13111	100
2025-3-27 20:4:24.403	WT901BLE68-01(48591DE3C19B)	-0.271	-0.922	0.228	-1.953	-8.484	-6.165	-77.57	15.44	-35.69	-68.012	-33.614	76.244	-0.75430	0.55017	-0.31769	0.16519	23.7	13111	100
2025-3-27 20:4:24.403	WT901BLE68-01(48591DE3C19B)	-0.271	-0.922	0.228	-1.953	-8.484	-6.165	-77.57	15.36	-35.62	-68.012	-33.614	76.244	-0.75430	0.55017	-0.31769	0.16519	23.7	13111	100
2025-3-27 20:4:24.403	WT901BLE68-01(48591DE3C19B)	-0.271	-0.931	0.229	-1.831	-8.118	-6.653	-77.56	15.28	-35.56	-68.012	-33.614	76.244	-0.75430	0.55017	-0.31769	0.16519	23.7	13111	100
2025-3-27 20:4:24.403	WT901BLE68-01(48591DE3C19B)	-0.269	-0.931	0.229	-1.831	-8.118	-6.653	-77.56	15.21	-35.50	-68.012	-33.614	76.244	-0.75430	0.55017	-0.31769	0.16519	23.7	13111	100
2025-3-27 20:4:24.430	WT901BLE68-01(48591DE3C19B)	-0.269	-0.936	0.230	-1.282	-7.690	-6.775	-77.55	15.13	-35.45	-68.012	-33.614	76.244	-0.75430	0.55017	-0.31769	0.16519	23.7	13111	100
2025-3-27 20:4:24.430	WT901BLE68-01(48591DE3C19B)	-0.273	-0.936	0.230	-1.282	-7.690	-6.775	-77.54	15.05	-35.39	-68.012	-33.614	76.244	-0.75430	0.55017	-0.31769	0.16519	23.7	13111	100
2025-3-27 20:4:24.430	WT901BLE68-01(48591DE3C19B)	-0.273	-0.936	0.231	-1.099	-7.629	-7.202	-77.53	14.97	-35.34	-68.012	-33.614	76.244	-0.75430	0.55017	-0.31769	0.16519	23.7	13111	100
2025-3-27 20:4:24.430	WT901BLE68-01(48591DE3C19B)	-0.278	-0.936	0.231	-1.099	-7.629	-7.202	-77.51	14.89	-35.28	-68.012	-33.614	76.244	-0.76138	0.56091	-0.28442	0.15701	23.7	13111	100
2025-3-27 20:4:24.490	WT901BLE68-01(48591DE3C19B)	-0.278	-0.934	0.234	-1.221	-9.155	-7.263	-77.50	14.81	-35.22	-68.012	-33.614	76.244	-0.76138	0.56091	-0.28442	0.15701	23.7	13111	100
2025-3-27 20:4:24.491	WT901BLE68-01(48591DE3C19B)	-0.275	-0.934	0.234	-1.221	-9.155	-7.263	-77.49	14.73	-35.15	-68.012	-33.614	76.244	-0.76138	0.56091	-0.28442	0.15701	23.7	13111	100
2025-3-27 20:4:24.491	WT901BLE68-01(48591DE3C19B)	-0.275	-0.933	0.236	-1.282	-11.230	-7.202	-77.46	14.64	-35.06	-68.012	-33.614	76.244	-0.76138	0.56091	-0.28442	0.15701	23.7	13111	100
2025-3-27 20:4:24.491	WT901BLE68-01(48591DE3C19B)	-0.268	-0.933	0.236	-1.282	-11.230	-7.202	-77.45	14.55	-34.97	-68.012	-33.614	76.244	-0.76138	0.56091	-0.28442	0.15701	23.7	13111	100
2025-3-27 20:4:24.519	WT901BLE68-01(48591DE3C19B)	-0.268	-0.932	0.233	-0.916	-12.695	-7.019	-77.42	14.46	-34.87	-68.012	-33.614	76.244	-0.76138	0.56091	-0.28442	0.15701	23.7	13111	100
2025-3-27 20:4:24.519	WT901BLE68-01(48591DE3C19B)	-0.252	-0.932	0.233	-0.916	-12.695	-7.019	-77.39	14.38	-34.76	-68.012	-33.614	76.244	-0.76138	0.56091	-0.28442	0.15701	23.7	13111	100
2025-3-27 20:4:24.519	WT901BLE68-01(48591DE3C19B)	-0.252	-0.923	0.230	-0.061	-12.756	-6.653	-77.36	14.29	-34.66	-68.012	-33.614	76.244	-0.76138	0.56091	-0.28442	0.15701	23.7	13111	100
2025-3-27 20:4:24.519	WT901BLE68-01(48591DE3C19B)	-0.241	-0.923	0.230	-0.061	-12.756	-6.653	-77.32	14.21	-34.56	-68.012	-33.614	76.244	-0.76138	0.56091	-0.28442	0.15701	23.7	13111	100
2025-3-27 20:4:24.550	WT901BLE68-01(48591DE3C19B)	-0.241	-0.922	0.228	1.099	-10.315	-6.287	-77.28	14.13	-34.48	-68.012	-33.614	76.244	-0.76138	0.56091	-0.28442	0.15701	23.7	13111	100
2025-3-27 20:4:24.550	WT901BLE68-01(48591DE3C19B)	-0.238	-0.922	0.228	1.099	-10.315	-6.287	-77.24	14.06	-34.40	-68.012	-33.614	76.244	-0.76138	0.56091	-0.28442	0.15701	23.7	13111	100
2025-3-27 20:4:24.550	WT901BLE68-01(48591DE3C19B)	-0.238	-0.919	0.227	3.052	-6.104	-5.920	-77.20	14.00	-34.37	-68.012	-33.614	76.244	-0.76138	0.56091	-0.28442	0.15701	23.7	13111	100
2025-3-27 20:4:24.550	WT901BLE68-01(48591DE3C19B)	-0.242	-0.919	0.227	3.052	-6.104	-5.920	-77.15	13.94	-34.33	-68.012	-33.614	76.244	-0.76138	0.56091	-0.28442	0.15701	23.7	13111	100
2025-3-27 20:4:24.610	WT901BLE68-01(48591DE3C19B)	-0.242	-0.905	0.223	4.211	-3.479	-5.249	-77.09	13.88	-34.32	-68.012	-33.614	76.244	-0.76138	0.56091	-0.28442	0.15701	23.7	13111	100
2025-3-27 20:4:24.610	WT901BLE68-01(48591DE3C19B)	-0.245	-0.905	0.223	4.211	-3.479	-5.249	-77.04	13.83	-34.31	-68.012	-33.614	76.244	-0.76138	0.56091	-0.28442	0.15701	23.7	13111	100
2025-3-27 20:4:24.610	WT901BLE68-01(48591DE3C19B)	-0.245	-0.892	0.220	4.822	-2.563	-4.089	-76.98	13.79	-34.30	-68.012	-33.614	76.244	-0.76138	0.56091	-0.28442	0.15701	23.7	13111	100
2025-3-27 20:4:24.610	WT901BLE68-01(48591DE3C19B)	-0.242	-0.892	0.220	4.822	-2.563	-4.089	-76.93	13.75	-34.30	-68.012	-33.614	76.244	-0.76138	0.56091	-0.28442	0.15701	23.7	13111	100
2025-3-27 20:4:24.639	WT901BLE68-01(48591DE3C19B)	-0.242	-0.891	0.212	4.517	-3.052	-2.502	-76.87	13.73	-34.29	-64.876	-34.006	77.028	-0.76138	0.56091	-0.28442	0.15701	23.7	13111	100
2025-3-27 20:4:24.639	WT901BLE68-01(48591DE3C19B)	-0.233	-0.891	0.212	4.517	-3.052	-2.502	-76.82	13.71	-34.28	-64.876	-34.006	77.028	-0.76138	0.56091	-0.28442	0.15701	23.7	13111	100
2025-3-27 20:4:24.639	WT901BLE68-01(48591DE3C19B)	-0.233	-0.899	0.208	4.272	-3.174	-0.854	-76.76	13.70	-34.27	-64.876	-34.006	77.028	-0.76138	0.56091	-0.28442	0.15701	23.7	13111	100
2025-3-27 20:4:24.639	WT901BLE68-01(48591DE3C19B)	-0.229	-0.899	0.208	4.272	-3.174	-0.854	-76.71	13.69	-34.25	-64.876	-34.006	77.028	-0.76138	0.56091	-0.28442	0.15701	23.7	13111	100
2025-3-27 20:4:24.670	WT901BLE68-01(48591DE3C19B)	-0.229	-0.919	0.206	4.150	-2.869	0.671	-76.66	13.70	-34.23	-64.876	-34.006	77.028	-0.76138	0.56091	-0.28442	0.15701	23.7	13111	100
2025-3-27 20:4:24.670	WT901BLE68-01(48591DE3C19B)	-0.215	-0.919	0.206	4.150	-2.869	0.671	-76.61	13.71	-34.22	-64.876	-34.006	77.028	-0.76138	0.56091	-0.28442	0.15701	23.7	13111	100
2025-3-27 20:4:24.670	WT901BLE68-01(48591DE3C19B)	-0.215	-0.948	0.210	4.456	-1.770	2.075	-76.56	13.72	-34.21	-64.876	-34.006	77.028	-0.76138	0.56091	-0.28442	0.15701	23.7	13111	100
2025-3-27 20:4:24.670	WT901BLE68-01(48591DE3C19B)	-0.197	-0.948	0.210	4.456	-1.770	2.075	-76.51	13.74	-34.20	-64.876	-34.006	77.028	-0.76138	0.56091	-0.28442	0.15701	23.7	13111	100
2025-3-27 20:4:24.731	WT901BLE68-01(48591DE3C19B)	-0.197	-0.955	0.214	5.859	2.258	3.418	-76.46	13.78	-34.23	-64.876	-34.006	77.028	-0.76138	0.56091	-0.28442	0.15701	23.7	13111	100
2025-3-27 20:4:24.731	WT901BLE68-01(48591DE3C19B)	-0.195	-0.955	0.214	5.859	2.258	3.418	-76.40	13.82	-34.26	-64.876	-34.006	77.028	-0.76138	0.56091	-0.28442	0.15701	23.7	13111	100
2025-3-27 20:4:24.731	WT901BLE68-01(48591DE3C19B)	-0.195	-0.935	0.216	6.775	6.714	4.944	-76.35	13.89	-34.33	-64.876	-34.006	77.028	-0.76138	0.56091	-0.28442	0.15701	23.7	13111	100
2025-3-27 20:4:24.731	WT901BLE68-01(48591DE3C19B)	-0.172	-0.935	0.216	6.775	6.714	4.944	-76.30	13.95	-34.40	-64.876	-34.006	77.028	-0.76138	0.56091	-0.28442	0.15701	23.7	13111	100
2025-3-27 20:4:24.759	WT901BLE68-01(48591DE3C19B)	-0.172	-0.923	0.208	6.592	10.559	6.592	-76.26	14.03	-34.51	-64.876	-34.006	77.028	-0.76138	0.56091	-0.28442	0.15701	23.7	13111	100
2025-3-27 20:4:24.760	WT901BLE68-01(48591DE3C19B)	-0.147	-0.923	0.208	6.592	10.559	6.592	-76.22	14.11	-34.62	-64.876	-34.006	77.028	-0.76138	0.56091	-0.28442	0.15701	23.7	13111	100
2025-3-27 20:4:24.760	WT901BLE68-01(48591DE3C19B)	-0.147	-0.895	0.202	7.141	16.724	8.484	-76.19	14.22	-34.78	-64.876	-34.006	77.028	-0.76138	0.56091	-0.28442	0.15701	23.7	13111	100
2025-3-27 20:4:24.760	WT901BLE68-01(48591DE3C19B)	-0.145	-0.895	0.202	7.141	16.724	8.484	-76.16	14.33	-34.95	-64.876	-34.006	77.028	-0.76138	0.56091	-0.28442	0.15701	23.7	13111	100
2025-3-27 20:4:24.792	WT901BLE68-01(48591DE3C19B)	-0.145	-0.859	0.202	6.409	23.071	9.094	-76.16	14.46	-35.18	-64.876	-34.006	77.028	-0.76138	0.56091	-0.28442	0.15701	23.7	13111	100
2025-3-27 20:4:24.792	WT901BLE68-01(48591DE3C19B)	-0.173	-0.859	0.202	6.409	23.071	9.094	-76.15	14.58	-35.40	-64.876	-34.006	77.028	-0.76138	0.56091	-0.28442	0.15701	23.7	13111	100
2025-3-27 20:4:24.792	WT901BLE68-01(48591DE3C19B)	-0.173	-0.859	0.214	3.540	25.940	8.118	-76.18	14.71	-35.66	-64.876	-34.006	77.028	-0.76138	0.56091	-0.28442	0.15701	23.7	13111	100
2025-3-27 20:4:24.792	WT901BLE68-01(48591DE3C19B)	-0.229	-0.859	0.214	3.540	25.940	8.118	-76.21	14.83	-35.92	-64.876	-34.006	77.028	-0.76138	0.56091	-0.28442	0.15701	23.7	13111	100
2025-3-27 20:4:24.880	WT901BLE68-01(48591DE3C19B)	-0.291	-0.925	0.240	-0.793	23.376	5.249	-76.28	14.92	-36.16	-64.876	-34.006	77.028	-0.76138	0.56091	-0.28442	0.15701	23.7	13111	100
2025-3-27 20:4:24.880	WT901BLE68-01(48591DE3C19B)	-0.291	-1.039	0.266	-3.662	15.198	0.610	-76.35	14.97	-36.36	-64.876	-34.006	77.028	-0.76529	0.55023	-0.28906	0.16705	23.7	13111	100
2025-3-27 20:4:24.880	WT901BLE68-01(48591DE3C19B)	-0.325	-1.039	0.266	-3.662	15.198	0.610	-76.43	15.00	-36.52	-64.876	-34.006	77.028	-0.76529	0.55023	-0.28906	0.16705	23.7	13111	100
2025-3-27 20:4:24.880	WT901BLE68-01(48591DE3C19B)	-0.325	-1.093	0.280	-4.395	3.113	-4.639	-76.49	14.99	-36.63	-64.876	-34.006	77.028	-0.76529	0.55023	-0.28906	0.16705	23.7	13111	100
2025-3-27 20:4:24.881	WT901BLE68-01(48591DE3C19B)	-0.333	-1.093	0.280	-4.395	3.113	-4.639	-76.55	14.94	-36.68	-64.876	-34.006	77.028	-0.76529	0.55023	-0.28906	0.16705	23.7	13111	100
2025-3-27 20:4:24.882	WT901BLE68-01(48591DE3C19B)	-0.333	-1.088	0.296	-4.272	-7.690	-9.155	-76.59	14.85	-36.69	-64.876	-34.006	77.028	-0.76529	0.55023	-0.28906	0.16705	23.7	13111	100
2025-3-27 20:4:24.882	WT901BLE68-01(48591DE3C19B)	-0.331	-1.088	0.296	-4.272	-7.690	-9.155	-76.61	14.74	-36.64	-64.876	-34.006	77.028	-0.76529	0.55023	-0.28906	0.16705	23.7	13111	100
2025-3-27 20:4:24.882	WT901BLE68-01(48591DE3C19B)	-0.331	-1.013	0.311	-2.625	-13.794	-12.207	-76.62	14.61	-36.57	-64.876	-34.006	77.028	-0.76529	0.55023	-0.28906	0.16705	23.7	13111	100
2025-3-27 20:4:24.911	WT901BLE68-01(48591DE3C19B)	-0.298	-1.013	0.311	-2.625	-13.794	-12.207	-76.61	14.46	-36.46	-64.876	-34.006	77.028	-0.76529	0.55023	-0.28906	0.16705	23.7	13111	100
2025-3-27 20:4:24.912	WT901BLE68-01(48591DE3C19B)	-0.298	-0.899	0.325	-2.808	-11.108	-12.634	-76.61	14.31	-36.38	-64.876	-34.006	77.028	-0.76529	0.55023	-0.28906	0.16705	23.7	13111	100
2025-3-27 20:4:24.912	WT901BLE68-01(48591DE3C19B)	-0.253	-0.899	0.325	-2.808	-11.108	-12.634	-76.60	14.17	-36.30	-64.876	-34.006	77.028	-0.76529	0.55023	-0.28906	0.16705	23.7	13111	100
2025-3-27 20:4:24.912	WT901BLE68-01(48591DE3C19B)	-0.253	-0.820	0.321	-4.883	3.662	-11.230	-76.62	14.05	-36.30	-64.876	-34.006	77.028	-0.76529	0.55023	-0.28906	0.16705	23.7	13111	100
2025-3-27 20:4:25.1	WT901BLE68-01(48591DE3C19B)	-0.245	-0.820	0.321	-4.883	3.662	-11.230	-76.67	13.95	-36.37	-64.876	-34.006	77.028	-0.76529	0.55023	-0.28906	0.16705	23.7	13111	100
2025-3-27 20:4:25.2	WT901BLE68-01(48591DE3C19B)	-0.245	-0.791	0.305	-3.479	25.513	-8.423	-76.73	13.90	-36.55	-64.876	-34.006	77.028	-0.76529	0.55023	-0.28906	0.16705	23.7	13111	100
2025-3-27 20:4:25.2	WT901BLE68-01(48591DE3C19B)	-0.315	-0.791	0.305	-3.479	25.513	-8.423	-76.81	13.89	-36.83	-64.876	-34.006	77.028	-0.76529	0.55023	-0.28906	0.16705	23.7	13111	100
2025-3-27 20:4:25.2	WT901BLE68-01(48591DE3C19B)	-0.315	-0.776	0.298	-1.526	39.185	-6.042	-76.89	13.90	-37.17	-64.876	-34.006	77.028	-0.76529	0.55023	-0.28906	0.16705	23.7	13111	100
2025-3-27 20:4:25.3	WT901BLE68-01(48591DE3C19B)	-0.360	-0.776	0.298	-1.526	39.185	-6.042	-76.98	13.94	-37.58	-64.876	-34.006	77.028	-0.76529	0.55023	-0.28906	0.16705	23.7	13111	100
2025-3-27 20:4:25.3	WT901BLE68-01(48591DE3C19B)	-0.360	-0.783	0.289	-3.296	41.321	-6.226	-77.07	13.99	-38.00	-64.876	-34.006	77.028	-0.76529	0.55023	-0.28906	0.16705	23.7	13111	100
2025-3-27 20:4:25.3	WT901BLE68-01(48591DE3C19B)	-0.390	-0.783	0.289	-3.296	41.321	-6.226	-77.18	14.04	-38.42	-64.876	-34.006	77.028	-0.76529	0.55023	-0.28906	0.16705	23.7	13111	100
2025-3-27 20:4:25.3	WT901BLE68-01(48591DE3C19B)	-0.390	-0.786	0.276	-2.136	38.574	-6.775	-77.28	14.08	-38.83	-64.876	-34.006	77.028	-0.76529	0.55023	-0.28906	0.16705	23.7	13111	100
2025-3-27 20:4:25.30	WT901BLE68-01(48591DE3C19B)	-0.417	-0.786	0.276	-2.136	38.574	-6.775	-77.36	14.13	-39.22	-64.876	-34.006	77.028	-0.76529	0.55023	-0.28906	0.16705	23.7	13111	100
2025-3-27 20:4:25.30	WT901BLE68-01(48591DE3C19B)	-0.417	-0.766	0.269	-1.099	29.724	-7.690	-77.43	14.16	-39.56	-64.876	-34.006	77.028	-0.76529	0.55023	-0.28906	0.16705	23.7	13111	100
2025-3-27 20:4:25.30	WT901BLE68-01(48591DE3C19B)	-0.408	-0.766	0.269	-1.099	29.724	-7.690	-77.49	14.19	-39.85	-67.326	-33.320	76.342	-0.76529	0.55023	-0.28906	0.16705	23.7	13111	100
2025-3-27 20:4:25.30	WT901BLE68-01(48591DE3C19B)	-0.408	-0.741	0.274	-0.977	19.531	-7.690	-77.53	14.21	-40.09	-67.326	-33.320	76.342	-0.76529	0.55023	-0.28906	0.16705	23.7	13111	100
2025-3-27 20:4:25.90	WT901BLE68-01(48591DE3C19B)	-0.397	-0.741	0.274	-0.977	19.531	-7.690	-77.55	14.22	-40.28	-67.326	-33.320	76.342	-0.76529	0.55023	-0.28906	0.16705	23.7	13111	100
2025-3-27 20:4:25.90	WT901BLE68-01(48591DE3C19B)	-0.397	-0.695	0.280	-0.793	12.695	-5.920	-77.57	14.23	-40.42	-67.326	-33.320	76.342	-0.76529	0.55023	-0.28906	0.16705	23.7	13111	100
2025-3-27 20:4:25.90	WT901BLE68-01(48591DE3C19B)	-0.383	-0.695	0.280	-0.793	12.695	-5.920	-77.57	14.25	-40.52	-67.326	-33.320	76.342	-0.76529	0.55023	-0.28906	0.16705	23.7	13111	100
2025-3-27 20:4:25.90	WT901BLE68-01(48591DE3C19B)	-0.383	-0.641	0.282	-2.136	7.507	-1.953	-77.58	14.29	-40.60	-67.326	-33.320	76.342	-0.76529	0.55023	-0.28906	0.16705	23.7	13111	100
2025-3-27 20:4:25.120	WT901BLE68-01(48591DE3C19B)	-0.367	-0.641	0.282	-2.136	7.507	-1.953	-77.58	14.34	-40.64	-67.326	-33.320	76.342	-0.76529	0.55023	-0.28906	0.16705	23.7	13111	100
2025-3-27 20:4:25.120	WT901BLE68-01(48591DE3C19B)	-0.367	-0.609	0.277	-5.310	2.014	3.357	-77.59	14.41	-40.65	-67.326	-33.320	76.342	-0.76529	0.55023	-0.28906	0.16705	23.7	13111	100
2025-3-27 20:4:25.120	WT901BLE68-01(48591DE3C19B)	-0.355	-0.609	0.277	-5.310	2.014	3.357	-77.60	14.51	-40.62	-67.326	-33.320	76.342	-0.76529	0.55023	-0.28906	0.16705	23.7	13111	100
2025-3-27 20:4:25.120	WT901BLE68-01(48591DE3C19B)	-0.355	-0.588	0.260	-8.179	-3.479	9.155	-77.61	14.64	-40.56	-67.326	-33.320	76.342	-0.76529	0.55023	-0.28906	0.16705	23.7	13111	100
2025-3-27 20:4:25.150	WT901BLE68-01(48591DE3C19B)	-0.346	-0.588	0.260	-8.179	-3.479	9.155	-77.63	14.78	-40.46	-67.326	-33.320	76.342	-0.76529	0.55023	-0.28906	0.16705	23.7	13111	100
2025-3-27 20:4:25.150	WT901BLE68-01(48591DE3C19B)	-0.346	-0.556	0.232	-11.780	-9.277	13.855	-77.67	14.95	-40.33	-67.326	-33.320	76.342	-0.76529	0.55023	-0.28906	0.16705	23.7	13111	100
2025-3-27 20:4:25.150	WT901BLE68-01(48591DE3C19B)	-0.354	-0.556	0.232	-11.780	-9.277	13.855	-77.71	15.13	-40.16	-67.326	-33.320	76.342	-0.76529	0.55023	-0.28906	0.16705	23.7	13111	100
2025-3-27 20:4:25.150	WT901BLE68-01(48591DE3C19B)	-0.354	-0.584	0.216	-17.151	-16.724	14.832	-77.76	15.31	-39.95	-67.326	-33.320	76.342	-0.76529	0.55023	-0.28906	0.16705	23.7	13111	100
2025-3-27 20:4:25.212	WT901BLE68-01(48591DE3C19B)	-0.374	-0.584	0.216	-17.151	-16.724	14.832	-77.83	15.49	-39.70	-67.326	-33.320	76.342	-0.76529	0.55023	-0.28906	0.16705	23.7	13111	100
2025-3-27 20:4:25.213	WT901BLE68-01(48591DE3C19B)	-0.374	-0.668	0.224	-20.264	-25.085	11.841	-77.90	15.65	-39.41	-67.326	-33.320	76.342	-0.76529	0.55023	-0.28906	0.16705	23.7	13111	100
2025-3-27 20:4:25.213	WT901BLE68-01(48591DE3C19B)	-0.395	-0.668	0.224	-20.264	-25.085	11.841	-77.98	15.78	-39.09	-67.326	-33.320	76.342	-0.76529	0.55023	-0.28906	0.16705	23.7	13111	100
2025-3-27 20:4:25.213	WT901BLE68-01(48591DE3C19B)	-0.395	-0.764	0.241	-21.362	-34.790	6.409	-78.06	15.88	-38.72	-67.326	-33.320	76.342	-0.76529	0.55023	-0.28906	0.16705	23.7	13111	100
2025-3-27 20:4:25.242	WT901BLE68-01(48591DE3C19B)	-0.395	-0.764	0.241	-21.362	-34.790	6.409	-78.12	15.94	-38.31	-67.326	-33.320	76.342	-0.76529	0.55023	-0.28906	0.16705	23.7	13111	100
2025-3-27 20:4:25.242	WT901BLE68-01(48591DE3C19B)	-0.395	-0.860	0.258	-19.897	-40.100	-0.488	-78.18	15.96	-37.89	-67.326	-33.320	76.342	-0.76529	0.55023	-0.28906	0.16705	23.7	13111	100
2025-3-27 20:4:25.242	WT901BLE68-01(48591DE3C19B)	-0.384	-0.860	0.258	-19.897	-40.100	-0.488	-78.23	15.94	-37.44	-67.326	-33.320	76.342	-0.76529	0.55023	-0.28906	0.16705	23.7	13111	100
2025-3-27 20:4:25.242	WT901BLE68-01(48591DE3C19B)	-0.384	-0.915	0.264	-14.282	-38.513	-7.141	-78.25	15.88	-37.01	-67.326	-33.320	76.342	-0.75623	0.55859	-0.29999	0.16122	23.7	13111	100
2025-3-27 20:4:25.272	WT901BLE68-01(48591DE3C19B)	-0.371	-0.915	0.264	-14.282	-38.513	-7.141	-78.25	15.79	-36.61	-67.326	-33.320	76.342	-0.75623	0.55859	-0.29999	0.16122	23.7	13111	100
2025-3-27 20:4:25.272	WT901BLE68-01(48591DE3C19B)	-0.371	-0.900	0.265	-7.751	-32.898	-11.047	-78.23	15.69	-36.24	-67.326	-33.320	76.342	-0.75623	0.55859	-0.29999	0.16122	23.7	13111	100
2025-3-27 20:4:25.272	WT901BLE68-01(48591DE3C19B)	-0.355	-0.900	0.265	-7.751	-32.898	-11.047	-78.19	15.57	-35.90	-67.326	-33.320	76.342	-0.75623	0.55859	-0.29999	0.16122	23.7	13111	100
2025-3-27 20:4:25.272	WT901BLE68-01(48591DE3C19B)	-0.355	-0.854	0.266	-3.418	-26.245	-10.071	-78.12	15.47	-35.63	-67.326	-33.320	76.342	-0.75623	0.55859	-0.29999	0.16122	23.7	13111	100
2025-3-27 20:4:25.330	WT901BLE68-01(48591DE3C19B)	-0.336	-0.854	0.266	-3.418	-26.245	-10.071	-78.06	15.37	-35.37	-67.326	-33.320	76.342	-0.75623	0.55859	-0.29999	0.16122	23.7	13111	100
2025-3-27 20:4:25.330	WT901BLE68-01(48591DE3C19B)	-0.336	-0.807	0.270	0.244	-17.212	-4.333	-77.98	15.34	-35.19	-67.326	-33.320	76.342	-0.75623	0.55859	-0.29999	0.16122	23.7	13111	100
2025-3-27 20:4:25.330	WT901BLE68-01(48591DE3C19B)	-0.334	-0.807	0.270	0.244	-17.212	-4.333	-77.90	15.31	-35.01	-67.326	-33.320	76.342	-0.75623	0.55859	-0.29999	0.16122	23.7	13111	100
2025-3-27 20:4:25.330	WT901BLE68-01(48591DE3C19B)	-0.334	-0.781	0.287	3.052	-10.925	4.883	-77.80	15.39	-34.87	-67.326	-33.320	76.342	-0.75623	0.55859	-0.29999	0.16122	23.7	13111	100
2025-3-27 20:4:25.359	WT901BLE68-01(48591DE3C19B)	-0.331	-0.781	0.287	3.052	-10.925	4.883	-77.70	15.46	-34.73	-67.326	-33.320	76.342	-0.75623	0.55859	-0.29999	0.16122	23.7	13111	100
2025-3-27 20:4:25.359	WT901BLE68-01(48591DE3C19B)	-0.331	-0.757	0.268	3.113	-8.301	15.137	-77.60	15.64	-34.61	-67.326	-33.320	76.342	-0.75623	0.55859	-0.29999	0.16122	23.7	13111	100
2025-3-27 20:4:25.359	WT901BLE68-01(48591DE3C19B)	-0.232	-0.757	0.268	3.113	-8.301	15.137	-77.50	15.81	-34.48	-67.326	-33.320	76.342	-0.75623	0.55859	-0.29999	0.16122	23.7	13111	100
2025-3-27 20:4:25.360	WT901BLE68-01(48591DE3C19B)	-0.232	-0.743	0.193	-4.517	-5.066	27.100	-77.48	16.11	-34.35	-67.326	-33.320	76.342	-0.75623	0.55859	-0.29999	0.16122	23.7	13111	100
2025-3-27 20:4:25.391	WT901BLE68-01(48591DE3C19B)	-0.349	-0.743	0.193	-4.517	-5.066	27.100	-77.46	16.40	-34.23	-67.326	-33.320	76.342	-0.75623	0.55859	-0.29999	0.16122	23.7	13111	100
2025-3-27 20:4:25.391	WT901BLE68-01(48591DE3C19B)	-0.349	-1.152	0.217	-24.109	-11.719	25.635	-77.63	16.66	-34.05	-67.326	-33.320	76.342	-0.75623	0.55859	-0.29999	0.16122	23.7	13111	100
2025-3-27 20:4:25.392	WT901BLE68-01(48591DE3C19B)	-1.191	-1.152	0.217	-24.109	-11.719	25.635	-77.79	16.90	-33.87	-67.326	-33.320	76.342	-0.75623	0.55859	-0.29999	0.16122	23.7	13111	100
2025-3-27 20:4:25.392	WT901BLE68-01(48591DE3C19B)	-4.767	-3.718	0.654	-33.386	-46.326	15.076	-77.96	16.97	-33.37	-67.326	-33.320	76.342	-0.75623	0.55859	-0.29999	0.16122	23.7	13111	100
2025-3-27 20:4:25.451	WT901BLE68-01(48591DE3C19B)	-0.482	-14.873	2.618	-33.386	-46.326	15.076	-78.14	17.03	-32.87	-67.326	-33.320	76.342	-0.75623	0.55859	-0.29999	0.16122	23.7	13111	100
2025-3-27 20:4:25.451	WT901BLE68-01(48591DE3C19B)	-0.482	-2.023	0.292	-7.080	-76.477	18.372	-77.97	17.07	-32.06	-67.032	-32.732	79.576	-0.75623	0.55859	-0.29999	0.16122	23.7	13111	100
2025-3-27 20:4:25.451	WT901BLE68-01(48591DE3C19B)	-0.158	-2.023	0.292	-7.080	-76.477	18.372	-77.81	17.09	-31.25	-67.032	-32.732	79.576	-0.75623	0.55859	-0.29999	0.16122	23.7	13111	100
2025-3-27 20:4:25.451	WT901BLE68-01(48591DE3C19B)	-0.158	-1.542	0.233	17.639	-68.237	21.179	-77.42	17.15	-30.53	-67.032	-32.732	79.576	-0.75623	0.55859	-0.29999	0.16122	23.7	13111	100
2025-3-27 20:4:25.510	WT901BLE68-01(48591DE3C19B)	0.001	-1.542	0.233	17.639	-68.237	21.179	-77.03	17.20	-29.81	-67.032	-32.732	79.576	-0.75623	0.55859	-0.29999	0.16122	23.7	13111	100
2025-3-27 20:4:25.510	WT901BLE68-01(48591DE3C19B)	0.001	-1.399	0.136	12.695	-20.874	17.944	-76.84	17.31	-29.59	-67.032	-32.732	79.576	-0.75623	0.55859	-0.29999	0.16122	23.7	13111	100
2025-3-27 20:4:25.510	WT901BLE68-01(48591DE3C19B)	-0.096	-1.399	0.136	12.695	-20.874	17.944	-76.66	17.42	-29.37	-67.032	-32.732	79.576	-0.75623	0.55859	-0.29999	0.16122	23.7	13111	100
2025-3-27 20:4:25.511	WT901BLE68-01(48591DE3C19B)	-0.096	-1.401	0.117	20.813	25.879	15.076	-76.54	17.61	-29.64	-67.032	-32.732	79.576	-0.75623	0.55859	-0.29999	0.16122	23.7	13111	100
2025-3-27 20:4:25.512	WT901BLE68-01(48591DE3C19B)	-0.107	-1.401	0.117	20.813	25.879	15.076	-76.43	17.79	-29.90	-67.032	-32.732	79.576	-0.75623	0.55859	-0.29999	0.16122	23.7	13111	100
2025-3-27 20:4:25.512	WT901BLE68-01(48591DE3C19B)	-0.107	-1.189	0.153	19.470	42.786	12.207	-76.39	17.97	-30.35	-67.032	-32.732	79.576	-0.75623	0.55859	-0.29999	0.16122	23.7	13111	100
2025-3-27 20:4:25.512	WT901BLE68-01(48591DE3C19B)	-0.067	-1.189	0.153	19.470	42.786	12.207	-76.35	18.15	-30.79	-67.032	-32.732	79.576	-0.75623	0.55859	-0.29999	0.16122	23.7	13111	100
2025-3-27 20:4:25.512	WT901BLE68-01(48591DE3C19B)	-0.067	-1.018	0.219	7.690	53.894	6.714	-76.47	18.30	-31.37	-67.032	-32.732	79.576	-0.75623	0.55859	-0.29999	0.16122	23.7	13111	100
2025-3-27 20:4:25.602	WT901BLE68-01(48591DE3C19B)	-0.156	-1.018	0.219	7.690	53.894	6.714	-76.59	18.45	-31.93	-67.032	-32.732	79.576	-0.75623	0.55859	-0.29999	0.16122	23.7	13111	100
2025-3-27 20:4:25.602	WT901BLE68-01(48591DE3C19B)	-0.156	-0.942	0.249	1.526	66.223	-1.160	-76.81	18.54	-32.65	-67.032	-32.732	79.576	-0.75623	0.55859	-0.29999	0.16122	23.7	13111	100
2025-3-27 20:4:25.602	WT901BLE68-01(48591DE3C19B)	-0.289	-0.942	0.249	1.526	66.223	-1.160	-77.04	18.63	-33.36	-67.032	-32.732	79.576	-0.75623	0.55859	-0.29999	0.16122	23.7	13111	100
2025-3-27 20:4:25.602	WT901BLE68-01(48591DE3C19B)	-0.289	-0.872	0.237	-1.648	60.913	-9.766	-77.27	18.63	-34.04	-67.032	-32.732	79.576	-0.75623	0.55859	-0.29999	0.16122	23.7	13111	100
2025-3-27 20:4:25.603	WT901BLE68-01(48591DE3C19B)	-0.320	-0.872	0.237	-1.648	60.913	-9.766	-77.51	18.62	-34.70	-67.032	-32.732	79.576	-0.75623	0.55859	-0.29999	0.16122	23.7	13111	100
2025-3-27 20:4:25.603	WT901BLE68-01(48591DE3C19B)	-0.320	-0.789	0.188	-3.845	32.837	-17.395	-77.68	18.48	-35.10	-67.032	-32.732	79.576	-0.75623	0.55859	-0.29999	0.16122	23.7	13111	100
2025-3-27 20:4:25.603	WT901BLE68-01(48591DE3C19B)	-0.285	-0.789	0.188	-3.845	32.837	-17.395	-77.84	18.34	-35.49	-67.032	-32.732	79.576	-0.75623	0.55859	-0.29999	0.16122	23.7	13111	100
2025-3-27 20:4:25.603	WT901BLE68-01(48591DE3C19B)	-0.285	-0.695	0.143	-3.723	3.174	-21.301	-77.92	18.11	-35.57	-67.032	-32.732	79.576	-0.75623	0.55859	-0.29999	0.16122	23.7	13111	100
2025-3-27 20:4:25.632	WT901BLE68-01(48591DE3C19B)	-0.236	-0.695	0.143	-3.723	3.174	-21.301	-77.98	17.89	-35.66	-67.032	-32.732	79.576	-0.75623	0.55859	-0.29999	0.16122	23.7	13111	100
2025-3-27 20:4:25.632	WT901BLE68-01(48591DE3C19B)	-0.236	-0.618	0.107	-3.967	-14.282	-21.912	-78.00	17.62	-35.57	-67.032	-32.732	79.576	-0.75623	0.55859	-0.29999	0.16122	23.7	13111	100
2025-3-27 20:4:25.632	WT901BLE68-01(48591DE3C19B)	-0.203	-0.618	0.107	-3.967	-14.282	-21.912	-78.01	17.35	-35.47	-67.032	-32.732	79.576	-0.76056	0.55688	-0.30121	0.14355	23.7	13111	100
2025-3-27 20:4:25.632	WT901BLE68-01(48591DE3C19B)	-0.203	-0.586	0.100	-4.761	-22.705	-21.240	-78.01	17.08	-35.29	-67.032	-32.732	79.576	-0.76056	0.55688	-0.30121	0.14355	23.7	13111	100
2025-3-27 20:4:25.690	WT901BLE68-01(48591DE3C19B)	-0.196	-0.586	0.100	-4.761	-22.705	-21.240	-78.01	16.82	-35.11	-67.032	-32.732	79.576	-0.76056	0.55688	-0.30121	0.14355	23.7	13111	100
2025-3-27 20:4:25.690	WT901BLE68-01(48591DE3C19B)	-0.196	-0.589	0.095	-5.188	-29.724	-19.775	-77.99	16.56	-34.85	-67.032	-32.732	79.576	-0.76056	0.55688	-0.30121	0.14355	23.7	13111	100
2025-3-27 20:4:25.690	WT901BLE68-01(48591DE3C19B)	-0.161	-0.589	0.095	-5.188	-29.724	-19.775	-77.98	16.29	-34.60	-67.032	-32.732	79.576	-0.76056	0.55688	-0.30121	0.14355	23.7	13111	100
2025-3-27 20:4:25.690	WT901BLE68-01(48591DE3C19B)	-0.161	-0.594	0.083	-5.249	-33.020	-15.747	-77.96	16.07	-34.30	-67.032	-32.732	79.576	-0.76056	0.55688	-0.30121	0.14355	23.7	13111	100
2025-3-27 20:4:25.719	WT901BLE68-01(48591DE3C19B)	-0.107	-0.594	0.083	-5.249	-33.020	-15.747	-77.94	15.84	-34.01	-67.032	-32.732	79.576	-0.76056	0.55688	-0.30121	0.14355	23.7	13111	100
2025-3-27 20:4:25.719	WT901BLE68-01(48591DE3C19B)	-0.107	-0.579	0.077	-2.441	-22.034	-9.644	-77.92	15.69	-33.81	-67.032	-32.732	79.576	-0.76056	0.55688	-0.30121	0.14355	23.7	13111	100
2025-3-27 20:4:25.719	WT901BLE68-01(48591DE3C19B)	-0.087	-0.579	0.077	-2.441	-22.034	-9.644	-77.90	15.55	-33.62	-67.032	-32.732	79.576	-0.76056	0.55688	-0.30121	0.14355	23.7	13111	100
2025-3-27 20:4:25.719	WT901BLE68-01(48591DE3C19B)	-0.121	-0.578	0.089	1.831	0.061	-3.662	-77.90	15.51	-33.63	-67.032	-32.732	79.576	-0.76056	0.55688	-0.30121	0.14355	23.7	13111	100
2025-3-27 20:4:25.750	WT901BLE68-01(48591DE3C19B)	-0.121	-0.620	0.106	6.531	22.644	1.038	-77.90	15.51	-33.77	-67.032	-32.732	79.576	-0.76056	0.55688	-0.30121	0.14355	23.7	13111	100
2025-3-27 20:4:25.750	WT901BLE68-01(48591DE3C19B)	-0.172	-0.620	0.106	6.531	22.644	1.038	-77.91	15.56	-34.00	-67.032	-32.732	79.576	-0.76056	0.55688	-0.30121	0.14355	23.7	13111	100
2025-3-27 20:4:25.750	WT901BLE68-01(48591DE3C19B)	-0.172	-0.663	0.117	11.108	37.842	4.822	-77.92	15.64	-34.31	-67.032	-32.732	79.576	-0.76056	0.55688	-0.30121	0.14355	23.7	13111	100
2025-3-27 20:4:25.750	WT901BLE68-01(48591DE3C19B)	-0.202	-0.663	0.117	11.108	37.842	4.822	-77.92	15.75	-34.69	-67.032	-32.732	79.576	-0.76056	0.55688	-0.30121	0.14355	23.7	13111	100
2025-3-27 20:4:25.811	WT901BLE68-01(48591DE3C19B)	-0.202	-0.686	0.115	15.198	47.913	7.751	-77.92	15.89	-35.12	-67.032	-32.732	79.576	-0.76056	0.55688	-0.30121	0.14355	23.7	13111	100
2025-3-27 20:4:25.812	WT901BLE68-01(48591DE3C19B)	-0.248	-0.686	0.115	15.198	47.913	7.751	-77.91	16.06	-35.59	-67.032	-32.732	79.576	-0.76056	0.55688	-0.30121	0.14355	23.7	13111	100
2025-3-27 20:4:25.812	WT901BLE68-01(48591DE3C19B)	-0.248	-0.711	0.119	18.372	52.307	10.376	-77.89	16.24	-36.08	-67.032	-32.732	79.576	-0.76056	0.55688	-0.30121	0.14355	23.7	13111	100
2025-3-27 20:4:25.812	WT901BLE68-01(48591DE3C19B)	-0.307	-0.711	0.119	18.372	52.307	10.376	-77.87	16.44	-36.58	-67.032	-32.732	79.576	-0.76056	0.55688	-0.30121	0.14355	23.7	13111	100
2025-3-27 20:4:25.872	WT901BLE68-01(48591DE3C19B)	-0.307	-0.710	0.149	20.508	46.692	13.977	-77.82	16.65	-37.05	-67.032	-32.732	79.576	-0.76056	0.55688	-0.30121	0.14355	23.7	13111	100
2025-3-27 20:4:25.872	WT901BLE68-01(48591DE3C19B)	-0.331	-0.710	0.149	20.508	46.692	13.977	-77.76	16.88	-37.49	-67.032	-32.732	79.576	-0.76056	0.55688	-0.30121	0.14355	23.7	13111	100
2025-3-27 20:4:25.872	WT901BLE68-01(48591DE3C19B)	-0.331	-0.735	0.193	17.395	33.569	18.250	-77.70	17.12	-37.84	-68.600	-26.460	82.712	-0.76056	0.55688	-0.30121	0.14355	23.7	13111	100
2025-3-27 20:4:25.872	WT901BLE68-01(48591DE3C19B)	-0.343	-0.735	0.193	17.395	33.569	18.250	-77.62	17.37	-38.12	-68.600	-26.460	82.712	-0.76056	0.55688	-0.30121	0.14355	23.7	13111	100
2025-3-27 20:4:25.899	WT901BLE68-01(48591DE3C19B)	-0.343	-0.861	0.213	12.451	19.958	19.775	-77.55	17.62	-38.33	-68.600	-26.460	82.712	-0.76056	0.55688	-0.30121	0.14355	23.7	13111	100
2025-3-27 20:4:25.899	WT901BLE68-01(48591DE3C19B)	-0.363	-0.861	0.213	12.451	19.958	19.775	-77.48	17.86	-38.47	-68.600	-26.460	82.712	-0.76056	0.55688	-0.30121	0.14355	23.7	13111	100
2025-3-27 20:4:25.899	WT901BLE68-01(48591DE3C19B)	-0.363	-1.052	0.219	6.287	10.376	14.099	-77.43	18.06	-38.56	-68.600	-26.460	82.712	-0.76056	0.55688	-0.30121	0.14355	23.7	13111	100
2025-3-27 20:4:25.899	WT901BLE68-01(48591DE3C19B)	-0.402	-1.052	0.219	6.287	10.376	14.099	-77.39	18.23	-38.61	-68.600	-26.460	82.712	-0.76056	0.55688	-0.30121	0.14355	23.7	13111	100
2025-3-27 20:4:25.930	WT901BLE68-01(48591DE3C19B)	-0.402	-1.326	0.247	-2.136	1.343	-2.380	-77.39	18.30	-38.64	-68.600	-26.460	82.712	-0.76056	0.55688	-0.30121	0.14355	23.7	13111	100
2025-3-27 20:4:25.930	WT901BLE68-01(48591DE3C19B)	-0.479	-1.326	0.247	-2.136	1.343	-2.380	-77.43	18.28	-38.63	-68.600	-26.460	82.712	-0.76056	0.55688	-0.30121	0.14355	23.7	13111	100
2025-3-27 20:4:25.930	WT901BLE68-01(48591DE3C19B)	-0.479	-1.808	0.304	-22.705	-8.667	-29.541	-77.56	18.11	-38.61	-68.600	-26.460	82.712	-0.76056	0.55688	-0.30121	0.14355	23.7	13111	100
2025-3-27 20:4:25.930	WT901BLE68-01(48591DE3C19B)	-0.511	-1.808	0.304	-22.705	-8.667	-29.541	-77.78	17.80	-38.57	-68.600	-26.460	82.712	-0.76056	0.55688	-0.30121	0.14355	23.7	13111	100
2025-3-27 20:4:25.961	WT901BLE68-01(48591DE3C19B)	-0.511	-2.318	0.346	-19.775	-4.578	-48.401	-78.01	17.40	-38.57	-68.600	-26.460	82.712	-0.76056	0.55688	-0.30121	0.14355	23.7	13111	100
2025-3-27 20:4:25.961	WT901BLE68-01(48591DE3C19B)	-0.466	-2.318	0.346	-19.775	-4.578	-48.401	-78.23	16.91	-38.61	-68.600	-26.460	82.712	-0.76056	0.55688	-0.30121	0.14355	23.7	13111	100
2025-3-27 20:4:25.961	WT901BLE68-01(48591DE3C19B)	-0.466	-1.738	0.520	35.095	20.691	-49.561	-78.22	16.44	-38.79	-68.600	-26.460	82.712	-0.76056	0.55688	-0.30121	0.14355	23.7	13111	100
2025-3-27 20:4:25.961	WT901BLE68-01(48591DE3C19B)	-0.453	-1.738	0.520	35.095	20.691	-49.561	-77.96	16.00	-39.08	-68.600	-26.460	82.712	-0.76056	0.55688	-0.30121	0.14355	23.7	13111	100
2025-3-27 20:4:26.21	WT901BLE68-01(48591DE3C19B)	-0.453	-1.059	0.639	27.100	38.208	-34.851	-77.76	15.64	-39.46	-68.600	-26.460	82.712	-0.76056	0.55688	-0.30121	0.14355	23.7	13111	100
2025-3-27 20:4:26.21	WT901BLE68-01(48591DE3C19B)	-0.412	-1.059	0.639	27.100	38.208	-34.851	-77.61	15.39	-39.90	-68.600	-26.460	82.712	-0.76056	0.55688	-0.30121	0.14355	23.7	13111	100
2025-3-27 20:4:26.21	WT901BLE68-01(48591DE3C19B)	-0.412	-0.755	0.617	9.033	37.537	-12.878	-77.53	15.24	-40.32	-68.600	-26.460	82.712	-0.76056	0.55688	-0.30121	0.14355	23.7	13111	100
2025-3-27 20:4:26.21	WT901BLE68-01(48591DE3C19B)	-0.449	-0.755	0.617	9.033	37.537	-12.878	-77.51	15.21	-40.70	-68.600	-26.460	82.712	-0.76056	0.55688	-0.30121	0.14355	23.7	13111	100
2025-3-27 20:4:26.49	WT901BLE68-01(48591DE3C19B)	-0.449	-0.636	0.514	-14.832	10.986	9.460	-77.57	15.26	-40.92	-68.600	-26.460	82.712	-0.76056	0.55688	-0.30121	0.14355	23.7	13111	100
2025-3-27 20:4:26.49	WT901BLE68-01(48591DE3C19B)	-0.406	-0.636	0.514	-14.832	10.986	9.460	-77.70	15.40	-40.98	-68.600	-26.460	82.712	-0.76056	0.55688	-0.30121	0.14355	23.7	13111	100
2025-3-27 20:4:26.49	WT901BLE68-01(48591DE3C19B)	-0.406	-0.750	0.409	-42.847	-49.255	23.071	-77.88	15.54	-40.72	-68.600	-26.460	82.712	-0.76056	0.55688	-0.30121	0.14355	23.7	13111	100
2025-3-27 20:4:26.49	WT901BLE68-01(48591DE3C19B)	-0.252	-0.750	0.409	-42.847	-49.255	23.071	-78.10	15.69	-40.14	-68.600	-26.460	82.712	-0.75204	0.55109	-0.31299	0.18060	23.7	13111	100
2025-3-27 20:4:26.110	WT901BLE68-01(48591DE3C19B)	-0.252	-0.904	0.326	-45.715	-82.031	31.433	-78.29	15.85	-39.39	-68.600	-26.460	82.712	-0.75204	0.55109	-0.31299	0.18060	23.7	13111	100
2025-3-27 20:4:26.110	WT901BLE68-01(48591DE3C19B)	-0.156	-0.904	0.326	-45.715	-82.031	31.433	-78.44	16.01	-38.46	-68.600	-26.460	82.712	-0.75204	0.55109	-0.31299	0.18060	23.7	13111	100
2025-3-27 20:4:26.110	WT901BLE68-01(48591DE3C19B)	-0.156	-0.902	0.204	-26.184	-69.397	31.555	-78.51	16.19	-37.61	-68.600	-26.460	82.712	-0.75204	0.55109	-0.31299	0.18060	23.7	13111	100
2025-3-27 20:4:26.110	WT901BLE68-01(48591DE3C19B)	-0.117	-0.902	0.204	-26.184	-69.397	31.555	-78.50	16.38	-36.82	-68.600	-26.460	82.712	-0.75204	0.55109	-0.31299	0.18060	23.7	13111	100
2025-3-27 20:4:26.139	WT901BLE68-01(48591DE3C19B)	-0.117	-0.770	0.119	-10.193	-38.086	26.184	-78.46	16.56	-36.20	-68.600	-26.460	82.712	-0.75204	0.55109	-0.31299	0.18060	23.7	13111	100
2025-3-27 20:4:26.139	WT901BLE68-01(48591DE3C19B)	-0.072	-0.770	0.119	-10.193	-38.086	26.184	-78.39	16.74	-35.74	-68.600	-26.460	82.712	-0.75204	0.55109	-0.31299	0.18060	23.7	13111	100
2025-3-27 20:4:26.139	WT901BLE68-01(48591DE3C19B)	-0.072	-0.656	0.086	0.366	-1.953	17.578	-78.33	16.91	-35.49	-68.600	-26.460	82.712	-0.75204	0.55109	-0.31299	0.18060	23.7	13111	100
2025-3-27 20:4:26.139	WT901BLE68-01(48591DE3C19B)	-0.106	-0.656	0.086	0.366	-1.953	17.578	-78.27	17.07	-35.43	-68.600	-26.460	82.712	-0.75204	0.55109	-0.31299	0.18060	23.7	13111	100
2025-3-27 20:4:26.169	WT901BLE68-01(48591DE3C19B)	-0.106	-0.557	0.126	10.681	28.198	10.193	-78.21	17.22	-35.52	-68.600	-26.460	82.712	-0.75204	0.55109	-0.31299	0.18060	23.7	13111	100
2025-3-27 20:4:26.170	WT901BLE68-01(48591DE3C19B)	-0.170	-0.557	0.126	10.681	28.198	10.193	-78.16	17.36	-35.78	-68.600	-26.460	82.712	-0.75204	0.55109	-0.31299	0.18060	23.7	13111	100
2025-3-27 20:4:26.170	WT901BLE68-01(48591DE3C19B)	-0.170	-0.470	0.193	12.512	43.884	3.906	-78.12	17.49	-36.13	-68.600	-26.460	82.712	-0.75204	0.55109	-0.31299	0.18060	23.7	13111	100
2025-3-27 20:4:26.170	WT901BLE68-01(48591DE3C19B)	-0.254	-0.470	0.193	12.512	43.884	3.906	-78.10	17.61	-36.56	-68.600	-26.460	82.712	-0.75204	0.55109	-0.31299	0.18060	23.7	13111	100
2025-3-27 20:4:26.260	WT901BLE68-01(48591DE3C19B)	-0.254	-0.443	0.252	8.667	43.274	-0.916	-78.09	17.69	-36.99	-68.600	-26.460	82.712	-0.75204	0.55109	-0.31299	0.18060	23.7	13111	100
2025-3-27 20:4:26.260	WT901BLE68-01(48591DE3C19B)	-0.332	-0.443	0.252	8.667	43.274	-0.916	-78.10	17.76	-37.41	-68.600	-26.460	82.712	-0.75204	0.55109	-0.31299	0.18060	23.7	13111	100
2025-3-27 20:4:26.260	WT901BLE68-01(48591DE3C19B)	-0.332	-0.517	0.261	-0.061	29.480	-4.822	-78.16	17.78	-37.70	-68.600	-26.460	82.712	-0.75204	0.55109	-0.31299	0.18060	23.7	13111	100
2025-3-27 20:4:26.260	WT901BLE68-01(48591DE3C19B)	-0.375	-0.517	0.261	-0.061	29.480	-4.822	-78.21	17.80	-37.98	-68.600	-26.460	82.712	-0.75204	0.55109	-0.31299	0.18060	23.7	13111	100
2025-3-27 20:4:26.262	WT901BLE68-01(48591DE3C19B)	-0.375	-0.617	0.242	-4.517	7.996	-7.202	-78.23	17.75	-38.05	-68.600	-26.460	82.712	-0.75204	0.55109	-0.31299	0.18060	23.7	13111	100
2025-3-27 20:4:26.262	WT901BLE68-01(48591DE3C19B)	-0.370	-0.617	0.242	-4.517	7.996	-7.202	-78.26	17.72	-38.11	-66.836	-22.148	86.730	-0.75204	0.55109	-0.31299	0.18060	23.7	13111	100
2025-3-27 20:4:26.262	WT901BLE68-01(48591DE3C19B)	-0.370	-0.715	0.215	-10.071	-17.212	-8.667	-78.27	17.62	-37.90	-66.836	-22.148	86.730	-0.75204	0.55109	-0.31299	0.18060	23.7	13111	100
2025-3-27 20:4:26.262	WT901BLE68-01(48591DE3C19B)	-0.312	-0.715	0.215	-10.071	-17.212	-8.667	-78.28	17.53	-37.71	-66.836	-22.148	86.730	-0.75204	0.55109	-0.31299	0.18060	23.7	13111	100
2025-3-27 20:4:26.320	WT901BLE68-01(48591DE3C19B)	-0.312	-0.780	0.186	-11.597	-34.180	-9.460	-78.25	17.39	-37.33	-66.836	-22.148	86.730	-0.75204	0.55109	-0.31299	0.18060	23.7	13111	100
2025-3-27 20:4:26.320	WT901BLE68-01(48591DE3C19B)	-0.255	-0.780	0.186	-11.597	-34.180	-9.460	-78.23	17.26	-36.96	-66.836	-22.148	86.730	-0.75204	0.55109	-0.31299	0.18060	23.7	13111	100
2025-3-27 20:4:26.320	WT901BLE68-01(48591DE3C19B)	-0.255	-0.765	0.176	-10.742	-37.476	-7.019	-78.20	17.14	-36.56	-66.836	-22.148	86.730	-0.75204	0.55109	-0.31299	0.18060	23.7	13111	100
2025-3-27 20:4:26.320	WT901BLE68-01(48591DE3C19B)	-0.219	-0.765	0.176	-10.742	-37.476	-7.019	-78.17	17.02	-36.15	-66.836	-22.148	86.730	-0.75204	0.55109	-0.31299	0.18060	23.7	13111	100
2025-3-27 20:4:26.321	WT901BLE68-01(48591DE3C19B)	-0.219	-0.791	0.163	-14.465	-32.593	-1.709	-78.18	16.96	-35.79	-66.836	-22.148	86.730	-0.75204	0.55109	-0.31299	0.18060	23.7	13111	100
2025-3-27 20:4:26.321	WT901BLE68-01(48591DE3C19B)	-0.215	-0.791	0.163	-14.465	-32.593	-1.709	-78.21	16.90	-35.43	-66.836	-22.148	86.730	-0.75204	0.55109	-0.31299	0.18060	23.7	13111	100
2025-3-27 20:4:26.321	WT901BLE68-01(48591DE3C19B)	-0.215	-0.962	0.142	-22.461	-28.809	1.770	-78.33	16.87	-35.10	-66.836	-22.148	86.730	-0.75204	0.55109	-0.31299	0.18060	23.7	13111	100
2025-3-27 20:4:26.322	WT901BLE68-01(48591DE3C19B)	-0.260	-0.962	0.142	-22.461	-28.809	1.770	-78.45	16.84	-34.78	-66.836	-22.148	86.730	-0.75204	0.55109	-0.31299	0.18060	23.7	13111	100
2025-3-27 20:4:26.380	WT901BLE68-01(48591DE3C19B)	-0.260	-1.237	0.128	-33.264	-33.325	-0.244	-78.67	16.78	-34.41	-66.836	-22.148	86.730	-0.75204	0.55109	-0.31299	0.18060	23.7	13111	100
2025-3-27 20:4:26.380	WT901BLE68-01(48591DE3C19B)	-0.343	-1.237	0.128	-33.264	-33.325	-0.244	-78.90	16.71	-34.05	-66.836	-22.148	86.730	-0.75204	0.55109	-0.31299	0.18060	23.7	13111	100
2025-3-27 20:4:26.380	WT901BLE68-01(48591DE3C19B)	-0.343	-1.608	0.136	-37.292	-42.542	-2.625	-79.15	16.60	-33.61	-66.836	-22.148	86.730	-0.75204	0.55109	-0.31299	0.18060	23.7	13111	100
2025-3-27 20:4:26.380	WT901BLE68-01(48591DE3C19B)	-0.330	-1.608	0.136	-37.292	-42.542	-2.625	-79.40	16.49	-33.16	-66.836	-22.148	86.730	-0.75204	0.55109	-0.31299	0.18060	23.7	13111	100
2025-3-27 20:4:26.411	WT901BLE68-01(48591DE3C19B)	-0.330	-1.898	0.104	-26.550	-49.316	1.770	-79.53	16.40	-32.64	-66.836	-22.148	86.730	-0.75204	0.55109	-0.31299	0.18060	23.7	13111	100
2025-3-27 20:4:26.412	WT901BLE68-01(48591DE3C19B)	-0.197	-1.898	0.104	-26.550	-49.316	1.770	-79.66	16.32	-32.12	-66.836	-22.148	86.730	-0.75204	0.55109	-0.31299	0.18060	23.7	13111	100
2025-3-27 20:4:26.412	WT901BLE68-01(48591DE3C19B)	-0.197	-1.712	0.101	10.376	-40.527	6.775	-79.46	16.29	-31.69	-66.836	-22.148	86.730	-0.75204	0.55109	-0.31299	0.18060	23.7	13111	100
2025-3-27 20:4:26.412	WT901BLE68-01(48591DE3C19B)	-0.099	-1.712	0.101	10.376	-40.527	6.775	-79.26	16.26	-31.26	-66.836	-22.148	86.730	-0.75204	0.55109	-0.31299	0.18060	23.7	13111	100
2025-3-27 20:4:26.442	WT901BLE68-01(48591DE3C19B)	-0.049	-1.358	0.105	17.090	-17.151	10.315	-79.06	16.30	-31.07	-66.836	-22.148	86.730	-0.75204	0.55109	-0.31299	0.18060	23.7	13111	100
2025-3-27 20:4:26.442	WT901BLE68-01(48591DE3C19B)	-0.042	-0.679	0.053	17.090	-17.151	10.315	-78.86	16.33	-30.88	-66.836	-22.148	86.730	-0.75204	0.55109	-0.31299	0.18060	23.7	13111	100
2025-3-27 20:4:26.442	WT901BLE68-01(48591DE3C19B)	-0.042	-1.149	0.122	21.118	16.235	15.259	-78.72	16.47	-31.01	-66.836	-22.148	86.730	-0.76193	0.57431	-0.27527	0.11725	23.7	13111	100
2025-3-27 20:4:26.442	WT901BLE68-01(48591DE3C19B)	-0.026	-1.149	0.122	21.118	16.235	15.259	-78.57	16.61	-31.15	-66.836	-22.148	86.730	-0.76193	0.57431	-0.27527	0.11725	23.7	13111	100
2025-3-27 20:4:26.500	WT901BLE68-01(48591DE3C19B)	-0.026	-0.893	0.182	20.630	44.617	17.578	-78.52	16.83	-31.57	-66.836	-22.148	86.730	-0.76193	0.57431	-0.27527	0.11725	23.7	13111	100
2025-3-27 20:4:26.501	WT901BLE68-01(48591DE3C19B)	-0.079	-0.893	0.182	20.630	44.617	17.578	-78.46	17.03	-31.99	-66.836	-22.148	86.730	-0.76193	0.57431	-0.27527	0.11725	23.7	13111	100
2025-3-27 20:4:26.501	WT901BLE68-01(48591DE3C19B)	-0.079	-0.745	0.230	7.935	58.533	12.329	-78.57	17.22	-32.57	-66.836	-22.148	86.730	-0.76193	0.57431	-0.27527	0.11725	23.7	13111	100
2025-3-27 20:4:26.501	WT901BLE68-01(48591DE3C19B)	-0.174	-0.745	0.230	7.935	58.533	12.329	-78.69	17.40	-33.14	-66.836	-22.148	86.730	-0.76193	0.57431	-0.27527	0.11725	23.7	13111	100
2025-3-27 20:4:26.529	WT901BLE68-01(48591DE3C19B)	-0.174	-0.746	0.251	0.549	60.242	2.747	-78.88	17.48	-33.74	-66.836	-22.148	86.730	-0.76193	0.57431	-0.27527	0.11725	23.7	13111	100
2025-3-27 20:4:26.529	WT901BLE68-01(48591DE3C19B)	-0.231	-0.746	0.251	0.549	60.242	2.747	-79.06	17.57	-34.35	-66.836	-22.148	86.730	-0.76193	0.57431	-0.27527	0.11725	23.7	13111	100
2025-3-27 20:4:26.530	WT901BLE68-01(48591DE3C19B)	-0.231	-0.728	0.221	1.038	51.025	-6.104	-79.22	17.56	-34.87	-66.836	-22.148	86.730	-0.76193	0.57431	-0.27527	0.11725	23.7	13111	100
2025-3-27 20:4:26.530	WT901BLE68-01(48591DE3C19B)	-0.291	-0.728	0.221	1.038	51.025	-6.104	-79.37	17.54	-35.39	-66.836	-22.148	86.730	-0.76193	0.57431	-0.27527	0.11725	23.7	13111	100
2025-3-27 20:4:26.560	WT901BLE68-01(48591DE3C19B)	-0.291	-0.636	0.182	7.080	36.621	-12.085	-79.41	17.45	-35.76	-66.836	-22.148	86.730	-0.76193	0.57431	-0.27527	0.11725	23.7	13111	100
2025-3-27 20:4:26.560	WT901BLE68-01(48591DE3C19B)	-0.346	-0.636	0.182	7.080	36.621	-12.085	-79.46	17.36	-36.13	-66.836	-22.148	86.730	-0.76193	0.57431	-0.27527	0.11725	23.7	13111	100
2025-3-27 20:4:26.560	WT901BLE68-01(48591DE3C19B)	-0.346	-0.542	0.159	10.071	13.062	-14.709	-79.40	17.22	-36.26	-66.836	-22.148	86.730	-0.76193	0.57431	-0.27527	0.11725	23.7	13111	100
2025-3-27 20:4:26.560	WT901BLE68-01(48591DE3C19B)	-0.333	-0.542	0.159	10.071	13.062	-14.709	-79.33	17.07	-36.39	-66.836	-22.148	86.730	-0.76193	0.57431	-0.27527	0.11725	23.7	13111	100
2025-3-27 20:4:26.622	WT901BLE68-01(48591DE3C19B)	-0.333	-0.557	0.142	6.470	-12.634	-13.184	-79.23	16.91	-36.24	-66.836	-22.148	86.730	-0.76193	0.57431	-0.27527	0.11725	23.7	13111	100
2025-3-27 20:4:26.622	WT901BLE68-01(48591DE3C19B)	-0.304	-0.557	0.142	6.470	-12.634	-13.184	-79.12	16.76	-36.10	-66.836	-22.148	86.730	-0.76193	0.57431	-0.27527	0.11725	23.7	13111	100
2025-3-27 20:4:26.622	WT901BLE68-01(48591DE3C19B)	-0.304	-0.677	0.133	9.094	-28.137	-11.047	-78.95	16.60	-35.79	-66.836	-22.148	86.730	-0.76193	0.57431	-0.27527	0.11725	23.7	13111	100
2025-3-27 20:4:26.622	WT901BLE68-01(48591DE3C19B)	-0.296	-0.677	0.133	9.094	-28.137	-11.047	-78.78	16.45	-35.48	-66.836	-22.148	86.730	-0.76193	0.57431	-0.27527	0.11725	23.7	13111	100
2025-3-27 20:4:26.651	WT901BLE68-01(48591DE3C19B)	-0.296	-0.751	0.133	17.212	-38.025	-7.080	-78.50	16.31	-35.06	-66.836	-22.148	86.730	-0.76193	0.57431	-0.27527	0.11725	23.7	13111	100
2025-3-27 20:4:26.652	WT901BLE68-01(48591DE3C19B)	-0.235	-0.751	0.133	17.212	-38.025	-7.080	-78.22	16.18	-34.65	-66.836	-22.148	86.730	-0.76193	0.57431	-0.27527	0.11725	23.7	13111	100
2025-3-27 20:4:26.652	WT901BLE68-01(48591DE3C19B)	-0.160	-0.721	0.137	25.635	-41.443	0.854	-77.85	16.11	-34.18	-66.836	-22.148	86.730	-0.76193	0.57431	-0.27527	0.11725	23.7	13111	100
2025-3-27 20:4:26.652	WT901BLE68-01(48591DE3C19B)	-0.160	-0.637	0.184	34.485	-30.457	11.169	-77.45	16.11	-33.76	-58.702	-19.208	91.238	-0.76193	0.57431	-0.27527	0.11725	23.7	13111	100
2025-3-27 20:4:26.710	WT901BLE68-01(48591DE3C19B)	-0.138	-0.637	0.184	34.485	-30.457	11.169	-77.01	16.16	-33.39	-58.702	-19.208	91.238	-0.76193	0.57431	-0.27527	0.11725	23.7	13111	100
2025-3-27 20:4:26.710	WT901BLE68-01(48591DE3C19B)	-0.138	-0.608	0.211	36.682	-7.690	20.874	-76.60	16.28	-33.12	-58.702	-19.208	91.238	-0.76193	0.57431	-0.27527	0.11725	23.7	13111	100
2025-3-27 20:4:26.710	WT901BLE68-01(48591DE3C19B)	-0.157	-0.608	0.211	36.682	-7.690	20.874	-76.20	16.47	-32.96	-58.702	-19.208	91.238	-0.76193	0.57431	-0.27527	0.11725	23.7	13111	100
2025-3-27 20:4:26.710	WT901BLE68-01(48591DE3C19B)	-0.157	-0.772	0.234	34.058	14.954	26.062	-75.84	16.70	-32.90	-58.702	-19.208	91.238	-0.76193	0.57431	-0.27527	0.11725	23.7	13111	100
2025-3-27 20:4:26.739	WT901BLE68-01(48591DE3C19B)	-0.227	-0.772	0.234	34.058	14.954	26.062	-75.53	16.99	-32.96	-58.702	-19.208	91.238	-0.76193	0.57431	-0.27527	0.11725	23.7	13111	100
2025-3-27 20:4:26.739	WT901BLE68-01(48591DE3C19B)	-0.227	-1.066	0.311	38.330	29.907	22.705	-75.22	17.27	-33.09	-58.702	-19.208	91.238	-0.76193	0.57431	-0.27527	0.11725	23.7	13111	100
2025-3-27 20:4:26.739	WT901BLE68-01(48591DE3C19B)	-0.299	-1.066	0.311	38.330	29.907	22.705	-74.91	17.55	-33.30	-58.702	-19.208	91.238	-0.76193	0.57431	-0.27527	0.11725	23.7	13111	100
2025-3-27 20:4:26.739	WT901BLE68-01(48591DE3C19B)	-0.299	-1.417	0.297	30.396	30.273	2.808	-74.65	17.74	-33.54	-58.702	-19.208	91.238	-0.76193	0.57431	-0.27527	0.11725	23.7	13111	100
2025-3-27 20:4:26.769	WT901BLE68-01(48591DE3C19B)	-0.351	-1.417	0.297	30.396	30.273	2.808	-74.45	17.82	-33.80	-58.702	-19.208	91.238	-0.76193	0.57431	-0.27527	0.11725	23.7	13111	100
2025-3-27 20:4:26.770	WT901BLE68-01(48591DE3C19B)	-0.351	-1.792	0.211	20.325	45.349	-19.958	-74.33	17.81	-34.18	-58.702	-19.208	91.238	-0.76193	0.57431	-0.27527	0.11725	23.7	13111	100
2025-3-27 20:4:26.770	WT901BLE68-01(48591DE3C19B)	-0.528	-1.792	0.211	20.325	45.349	-19.958	-74.30	17.72	-34.66	-58.702	-19.208	91.238	-0.76193	0.57431	-0.27527	0.11725	23.7	13111	100
2025-3-27 20:4:26.770	WT901BLE68-01(48591DE3C19B)	-0.528	-1.954	0.264	39.185	70.740	-32.654	-74.23	17.59	-35.28	-58.702	-19.208	91.238	-0.76193	0.57431	-0.27527	0.11725	23.7	13111	100
2025-3-27 20:4:26.799	WT901BLE68-01(48591DE3C19B)	-0.659	-1.954	0.264	39.185	70.740	-32.654	-74.11	17.45	-36.05	-58.702	-19.208	91.238	-0.76193	0.57431	-0.27527	0.11725	23.7	13111	100
2025-3-27 20:4:26.799	WT901BLE68-01(48591DE3C19B)	-0.659	-1.390	0.485	66.101	81.360	-40.588	-73.87	17.28	-36.88	-58.702	-19.208	91.238	-0.76193	0.57431	-0.27527	0.11725	23.7	13111	100
2025-3-27 20:4:26.799	WT901BLE68-01(48591DE3C19B)	-0.587	-1.390	0.485	66.101	81.360	-40.588	-73.52	17.11	-37.76	-58.702	-19.208	91.238	-0.76193	0.57431	-0.27527	0.11725	23.7	13111	100
2025-3-27 20:4:26.799	WT901BLE68-01(48591DE3C19B)	-0.587	-0.830	0.567	53.528	80.139	-24.292	-73.21	17.02	-38.61	-58.702	-19.208	91.238	-0.76193	0.57431	-0.27527	0.11725	23.7	13111	100
2025-3-27 20:4:26.859	WT901BLE68-01(48591DE3C19B)	-0.491	-0.830	0.567	53.528	80.139	-24.292	-72.94	17.02	-39.42	-58.702	-19.208	91.238	-0.76193	0.57431	-0.27527	0.11725	23.7	13111	100
2025-3-27 20:4:26.859	WT901BLE68-01(48591DE3C19B)	-0.491	-0.561	0.521	30.640	66.650	0.793	-72.76	17.13	-40.12	-58.702	-19.208	91.238	-0.76193	0.57431	-0.27527	0.11725	23.7	13111	100
2025-3-27 20:4:26.860	WT901BLE68-01(48591DE3C19B)	-0.426	-0.561	0.521	30.640	66.650	0.793	-72.65	17.35	-40.70	-58.702	-19.208	91.238	-0.76193	0.57431	-0.27527	0.11725	23.7	13111	100
2025-3-27 20:4:26.860	WT901BLE68-01(48591DE3C19B)	-0.426	-0.498	0.422	2.319	37.781	12.329	-72.63	17.59	-41.12	-58.702	-19.208	91.238	-0.76193	0.57431	-0.27527	0.11725	23.7	13111	100
2025-3-27 20:4:26.889	WT901BLE68-01(48591DE3C19B)	-0.308	-0.498	0.422	2.319	37.781	12.329	-72.69	17.85	-41.37	-58.702	-19.208	91.238	-0.77686	0.50354	-0.32373	0.19504	23.7	13111	100
2025-3-27 20:4:26.889	WT901BLE68-01(48591DE3C19B)	-0.308	-0.621	0.315	-24.231	-14.343	14.526	-72.80	18.05	-41.36	-58.702	-19.208	91.238	-0.77686	0.50354	-0.32373	0.19504	23.7	13111	100
2025-3-27 20:4:26.889	WT901BLE68-01(48591DE3C19B)	-0.233	-0.621	0.315	-24.231	-14.343	14.526	-72.96	18.17	-41.08	-58.702	-19.208	91.238	-0.77686	0.50354	-0.32373	0.19504	23.7	13111	100
2025-3-27 20:4:26.890	WT901BLE68-01(48591DE3C19B)	-0.233	-0.775	0.258	-36.133	-44.922	12.024	-73.13	18.24	-40.65	-58.702	-19.208	91.238	-0.77686	0.50354	-0.32373	0.19504	23.7	13111	100
2025-3-27 20:4:26.919	WT901BLE68-01(48591DE3C19B)	-0.220	-0.775	0.258	-36.133	-44.922	12.024	-73.31	18.25	-40.08	-58.702	-19.208	91.238	-0.77686	0.50354	-0.32373	0.19504	23.7	13111	100
2025-3-27 20:4:26.920	WT901BLE68-01(48591DE3C19B)	-0.220	-0.908	0.184	-33.569	-43.884	5.798	-73.48	18.23	-39.53	-58.702	-19.208	91.238	-0.77686	0.50354	-0.32373	0.19504	23.7	13111	100
2025-3-27 20:4:26.920	WT901BLE68-01(48591DE3C19B)	-0.221	-0.908	0.184	-33.569	-43.884	5.798	-73.65	18.18	-39.00	-58.702	-19.208	91.238	-0.77686	0.50354	-0.32373	0.19504	23.7	13111	100
2025-3-27 20:4:26.920	WT901BLE68-01(48591DE3C19B)	-0.221	-0.932	0.129	-19.836	-23.743	-1.831	-73.80	18.12	-38.58	-58.702	-19.208	91.238	-0.77686	0.50354	-0.32373	0.19504	23.7	13111	100
2025-3-27 20:4:26.980	WT901BLE68-01(48591DE3C19B)	-0.201	-0.932	0.129	-19.836	-23.743	-1.831	-73.91	18.04	-38.28	-58.702	-19.208	91.238	-0.77686	0.50354	-0.32373	0.19504	23.7	13111	100
2025-3-27 20:4:26.980	WT901BLE68-01(48591DE3C19B)	-0.201	-0.783	0.133	-5.554	3.540	-10.498	-74.00	17.96	-38.13	-58.702	-19.208	91.238	-0.77686	0.50354	-0.32373	0.19504	23.7	13111	100
2025-3-27 20:4:26.980	WT901BLE68-01(48591DE3C19B)	-0.212	-0.783	0.133	-5.554	3.540	-10.498	-74.08	17.87	-38.13	-58.702	-19.208	91.238	-0.77686	0.50354	-0.32373	0.19504	23.7	13111	100
2025-3-27 20:4:26.980	WT901BLE68-01(48591DE3C19B)	-0.212	-0.659	0.227	1.282	26.367	-14.099	-74.15	17.80	-38.25	-58.702	-19.208	91.238	-0.77686	0.50354	-0.32373	0.19504	23.7	13111	100
2025-3-27 20:4:27.10	WT901BLE68-01(48591DE3C19B)	-0.287	-0.659	0.227	1.282	26.367	-14.099	-74.22	17.74	-38.49	-58.702	-19.208	91.238	-0.77686	0.50354	-0.32373	0.19504	23.7	13111	100
2025-3-27 20:4:27.10	WT901BLE68-01(48591DE3C19B)	-0.287	-0.629	0.375	6.165	38.574	-13.855	-74.30	17.69	-38.79	-58.702	-19.208	91.238	-0.77686	0.50354	-0.32373	0.19504	23.7	13111	100
2025-3-27 20:4:27.10	WT901BLE68-01(48591DE3C19B)	-0.320	-0.629	0.375	6.165	38.574	-13.855	-74.35	17.67	-39.15	-58.702	-19.208	91.238	-0.77686	0.50354	-0.32373	0.19504	23.7	13111	100
2025-3-27 20:4:27.10	WT901BLE68-01(48591DE3C19B)	-0.320	-0.602	0.455	10.681	39.001	-8.423	-74.37	17.68	-39.50	-58.702	-19.208	91.238	-0.77686	0.50354	-0.32373	0.19504	23.7	13111	100
2025-3-27 20:4:27.39	WT901BLE68-01(48591DE3C19B)	-0.270	-0.602	0.455	10.681	39.001	-8.423	-74.36	17.71	-39.84	-58.702	-19.208	91.238	-0.77686	0.50354	-0.32373	0.19504	23.7	13111	100
2025-3-27 20:4:27.39	WT901BLE68-01(48591DE3C19B)	-0.270	-0.488	0.378	13.916	39.124	-0.122	-74.32	17.79	-40.16	-58.702	-19.208	91.238	-0.77686	0.50354	-0.32373	0.19504	23.7	13111	100
2025-3-27 20:4:27.39	WT901BLE68-01(48591DE3C19B)	-0.219	-0.488	0.378	13.916	39.124	-0.122	-74.26	17.91	-40.47	-58.898	-13.328	91.728	-0.77686	0.50354	-0.32373	0.19504	23.7	13111	100
2025-3-27 20:4:27.39	WT901BLE68-01(48591DE3C19B)	-0.219	-0.396	0.242	4.639	34.485	7.202	-74.23	18.07	-40.75	-58.898	-13.328	91.728	-0.77686	0.50354	-0.32373	0.19504	23.7	13111	100
2025-3-27 20:4:27.100	WT901BLE68-01(48591DE3C19B)	-0.232	-0.396	0.242	4.639	34.485	7.202	-74.24	18.25	-40.99	-58.898	-13.328	91.728	-0.77686	0.50354	-0.32373	0.19504	23.7	13111	100
2025-3-27 20:4:27.101	WT901BLE68-01(48591DE3C19B)	-0.232	-0.579	0.168	-13.794	20.569	8.362	-74.31	18.42	-41.15	-58.898	-13.328	91.728	-0.77686	0.50354	-0.32373	0.19504	23.7	13111	100
2025-3-27 20:4:27.101	WT901BLE68-01(48591DE3C19B)	-0.332	-0.579	0.168	-13.794	20.569	8.362	-74.46	18.58	-41.25	-58.898	-13.328	91.728	-0.77686	0.50354	-0.32373	0.19504	23.7	13111	100
2025-3-27 20:4:27.101	WT901BLE68-01(48591DE3C19B)	-0.332	-0.973	0.172	-32.166	-0.244	1.404	-74.67	18.67	-41.25	-58.898	-13.328	91.728	-0.77686	0.50354	-0.32373	0.19504	23.7	13111	100
2025-3-27 20:4:27.130	WT901BLE68-01(48591DE3C19B)	-0.463	-0.973	0.172	-32.166	-0.244	1.404	-74.95	18.70	-41.15	-58.898	-13.328	91.728	-0.77686	0.50354	-0.32373	0.19504	23.7	13111	100
2025-3-27 20:4:27.130	WT901BLE68-01(48591DE3C19B)	-0.463	-1.452	0.220	-39.612	-29.602	-7.019	-75.23	18.57	-40.78	-58.898	-13.328	91.728	-0.77686	0.50354	-0.32373	0.19504	23.7	13111	100
2025-3-27 20:4:27.130	WT901BLE68-01(48591DE3C19B)	-0.509	-1.452	0.220	-39.612	-29.602	-7.019	-75.53	18.44	-40.41	-58.898	-13.328	91.728	-0.77686	0.50354	-0.32373	0.19504	23.7	13111	100
2025-3-27 20:4:27.130	WT901BLE68-01(48591DE3C19B)	-0.509	-1.863	0.191	-39.063	-58.716	-8.850	-75.73	18.21	-39.75	-58.898	-13.328	91.728	-0.77686	0.50354	-0.32373	0.19504	23.7	13111	100
2025-3-27 20:4:27.159	WT901BLE68-01(48591DE3C19B)	-0.385	-1.863	0.191	-39.063	-58.716	-8.850	-75.94	17.98	-39.11	-58.898	-13.328	91.728	-0.77686	0.50354	-0.32373	0.19504	23.7	13111	100
2025-3-27 20:4:27.159	WT901BLE68-01(48591DE3C19B)	-0.385	-1.865	0.234	-2.136	-69.275	-0.061	-75.76	17.81	-38.33	-58.898	-13.328	91.728	-0.77686	0.50354	-0.32373	0.19504	23.7	13111	100
2025-3-27 20:4:27.159	WT901BLE68-01(48591DE3C19B)	-0.215	-1.865	0.234	-2.136	-69.275	-0.061	-75.57	17.63	-37.56	-58.898	-13.328	91.728	-0.77686	0.50354	-0.32373	0.19504	23.7	13111	100
2025-3-27 20:4:27.159	WT901BLE68-01(48591DE3C19B)	-0.215	-1.337	0.285	17.395	-49.194	2.319	-75.27	17.52	-37.00	-58.898	-13.328	91.728	-0.77686	0.50354	-0.32373	0.19504	23.7	13111	100
2025-3-27 20:4:27.221	WT901BLE68-01(48591DE3C19B)	-0.103	-1.337	0.285	17.395	-49.194	2.319	-74.96	17.40	-36.44	-58.898	-13.328	91.728	-0.77686	0.50354	-0.32373	0.19504	23.7	13111	100
2025-3-27 20:4:27.221	WT901BLE68-01(48591DE3C19B)	-0.103	-1.081	0.272	10.681	-13.550	8.850	-74.82	17.43	-36.22	-58.898	-13.328	91.728	-0.77686	0.50354	-0.32373	0.19504	23.7	13111	100
2025-3-27 20:4:27.221	WT901BLE68-01(48591DE3C19B)	-0.104	-1.081	0.272	10.681	-13.550	8.850	-74.69	17.46	-36.00	-58.898	-13.328	91.728	-0.77686	0.50354	-0.32373	0.19504	23.7	13111	100
2025-3-27 20:4:27.221	WT901BLE68-01(48591DE3C19B)	-0.104	-0.932	0.289	3.052	16.052	12.085	-74.71	17.58	-36.08	-58.898	-13.328	91.728	-0.77686	0.50354	-0.32373	0.19504	23.7	13111	100
2025-3-27 20:4:27.251	WT901BLE68-01(48591DE3C19B)	-0.114	-0.932	0.289	3.052	16.052	12.085	-74.73	17.71	-36.16	-58.898	-13.328	91.728	-0.77686	0.50354	-0.32373	0.19504	23.7	13111	100
2025-3-27 20:4:27.252	WT901BLE68-01(48591DE3C19B)	-0.114	-0.848	0.294	-11.536	28.320	8.057	-74.93	17.83	-36.38	-58.898	-13.328	91.728	-0.77686	0.50354	-0.32373	0.19504	23.7	13111	100
2025-3-27 20:4:27.252	WT901BLE68-01(48591DE3C19B)	-0.125	-0.848	0.294	-11.536	28.320	8.057	-75.14	17.94	-36.58	-58.898	-13.328	91.728	-0.77686	0.50354	-0.32373	0.19504	23.7	13111	100
2025-3-27 20:4:27.252	WT901BLE68-01(48591DE3C19B)	-0.125	-0.819	0.285	-16.785	41.321	-1.587	-75.43	17.99	-36.96	-58.898	-13.328	91.728	-0.77130	0.53387	-0.30881	0.15689	23.7	13111	100
2025-3-27 20:4:27.310	WT901BLE68-01(48591DE3C19B)	-0.177	-0.819	0.285	-16.785	41.321	-1.587	-75.73	18.03	-37.33	-58.898	-13.328	91.728	-0.77130	0.53387	-0.30881	0.15689	23.7	13111	100
2025-3-27 20:4:27.310	WT901BLE68-01(48591DE3C19B)	-0.177	-0.760	0.219	-12.390	55.481	-8.057	-76.03	18.05	-37.85	-58.898	-13.328	91.728	-0.77130	0.53387	-0.30881	0.15689	23.7	13111	100
2025-3-27 20:4:27.310	WT901BLE68-01(48591DE3C19B)	-0.244	-0.760	0.219	-12.390	55.481	-8.057	-76.32	18.06	-38.38	-58.898	-13.328	91.728	-0.77130	0.53387	-0.30881	0.15689	23.7	13111	100
2025-3-27 20:4:27.310	WT901BLE68-01(48591DE3C19B)	-0.244	-0.669	0.151	-5.920	62.683	-12.268	-76.58	18.06	-38.98	-58.898	-13.328	91.728	-0.77130	0.53387	-0.30881	0.15689	23.7	13111	100
2025-3-27 20:4:27.370	WT901BLE68-01(48591DE3C19B)	-0.351	-0.669	0.151	-5.920	62.683	-12.268	-76.83	18.05	-39.58	-58.898	-13.328	91.728	-0.77130	0.53387	-0.30881	0.15689	23.7	13111	100
2025-3-27 20:4:27.370	WT901BLE68-01(48591DE3C19B)	-0.351	-0.625	0.144	-0.732	52.490	-15.137	-77.00	17.99	-40.08	-58.898	-13.328	91.728	-0.77130	0.53387	-0.30881	0.15689	23.7	13111	100
2025-3-27 20:4:27.370	WT901BLE68-01(48591DE3C19B)	-0.401	-0.625	0.144	-0.732	52.490	-15.137	-77.18	17.94	-40.58	-58.898	-13.328	91.728	-0.77130	0.53387	-0.30881	0.15689	23.7	13111	100
2025-3-27 20:4:27.370	WT901BLE68-01(48591DE3C19B)	-0.401	-0.650	0.181	2.319	26.062	-13.977	-77.23	17.85	-40.79	-58.898	-13.328	91.728	-0.77130	0.53387	-0.30881	0.15689	23.7	13111	100
2025-3-27 20:4:27.371	WT901BLE68-01(48591DE3C19B)	-0.375	-0.650	0.181	2.319	26.062	-13.977	-77.29	17.76	-41.01	-58.898	-13.328	91.728	-0.77130	0.53387	-0.30881	0.15689	23.7	13111	100
2025-3-27 20:4:27.371	WT901BLE68-01(48591DE3C19B)	-0.375	-0.671	0.184	7.568	0.793	-6.104	-77.21	17.71	-40.94	-58.898	-13.328	91.728	-0.77130	0.53387	-0.30881	0.15689	23.7	13111	100
2025-3-27 20:4:27.371	WT901BLE68-01(48591DE3C19B)	-0.324	-0.671	0.184	7.568	0.793	-6.104	-77.14	17.66	-40.86	-58.898	-13.328	91.728	-0.77130	0.53387	-0.30881	0.15689	23.7	13111	100
2025-3-27 20:4:27.372	WT901BLE68-01(48591DE3C19B)	-0.324	-0.644	0.153	14.526	-14.526	5.371	-76.93	17.69	-40.61	-58.898	-13.328	91.728	-0.77130	0.53387	-0.30881	0.15689	23.7	13111	100
2025-3-27 20:4:27.459	WT901BLE68-01(48591DE3C19B)	-0.248	-0.644	0.153	14.526	-14.526	5.371	-76.73	17.73	-40.36	-58.898	-13.328	91.728	-0.77130	0.53387	-0.30881	0.15689	23.7	13111	100
2025-3-27 20:4:27.459	WT901BLE68-01(48591DE3C19B)	-0.248	-0.580	0.120	17.517	-25.818	18.188	-76.46	17.86	-39.96	-58.898	-13.328	91.728	-0.77130	0.53387	-0.30881	0.15689	23.7	13111	100
2025-3-27 20:4:27.459	WT901BLE68-01(48591DE3C19B)	-0.211	-0.580	0.120	17.517	-25.818	18.188	-76.19	18.00	-39.56	-58.898	-13.328	91.728	-0.77130	0.53387	-0.30881	0.15689	23.7	13111	100
2025-3-27 20:4:27.459	WT901BLE68-01(48591DE3C19B)	-0.211	-0.548	0.156	16.968	-34.119	30.273	-75.89	18.22	-39.04	-58.898	-13.328	91.728	-0.77130	0.53387	-0.30881	0.15689	23.7	13111	100
2025-3-27 20:4:27.460	WT901BLE68-01(48591DE3C19B)	-0.235	-0.548	0.156	16.968	-34.119	30.273	-75.59	18.44	-38.52	-58.898	-13.328	91.728	-0.77130	0.53387	-0.30881	0.15689	23.7	13111	100
2025-3-27 20:4:27.460	WT901BLE68-01(48591DE3C19B)	-0.117	-0.595	0.234	7.813	-42.725	37.231	-75.34	18.71	-37.90	-58.898	-13.328	91.728	-0.77130	0.53387	-0.30881	0.15689	23.7	13111	100
2025-3-27 20:4:27.460	WT901BLE68-01(48591DE3C19B)	-0.278	-0.297	0.117	7.813	-42.725	37.231	-75.09	18.97	-37.28	-58.898	-13.328	91.728	-0.77130	0.53387	-0.30881	0.15689	23.7	13111	100
2025-3-27 20:4:27.460	WT901BLE68-01(48591DE3C19B)	-0.278	-0.792	0.303	-3.479	-50.232	33.447	-74.92	19.17	-36.60	-54.096	-17.640	93.492	-0.77130	0.53387	-0.30881	0.15689	23.7	13111	100
2025-3-27 20:4:27.489	WT901BLE68-01(48591DE3C19B)	-0.354	-0.792	0.303	-3.479	-50.232	33.447	-74.75	19.36	-35.91	-54.096	-17.640	93.492	-0.77130	0.53387	-0.30881	0.15689	23.7	13111	100
2025-3-27 20:4:27.489	WT901BLE68-01(48591DE3C19B)	-0.354	-1.118	0.383	-11.658	-61.218	14.099	-74.64	19.34	-35.17	-54.096	-17.640	93.492	-0.77130	0.53387	-0.30881	0.15689	23.7	13111	100
2025-3-27 20:4:27.489	WT901BLE68-01(48591DE3C19B)	-0.412	-1.118	0.383	-11.658	-61.218	14.099	-74.53	19.31	-34.44	-54.096	-17.640	93.492	-0.77130	0.53387	-0.30881	0.15689	23.7	13111	100
2025-3-27 20:4:27.490	WT901BLE68-01(48591DE3C19B)	-0.412	-1.503	0.432	-16.357	-64.636	-7.629	-74.47	19.07	-33.73	-54.096	-17.640	93.492	-0.77130	0.53387	-0.30881	0.15689	23.7	13111	100
2025-3-27 20:4:27.549	WT901BLE68-01(48591DE3C19B)	-0.470	-1.503	0.432	-16.357	-64.636	-7.629	-74.42	18.81	-33.03	-54.096	-17.640	93.492	-0.77130	0.53387	-0.30881	0.15689	23.7	13111	100
2025-3-27 20:4:27.549	WT901BLE68-01(48591DE3C19B)	-0.470	-1.715	0.493	-6.165	-47.180	-26.062	-74.34	18.43	-32.57	-54.096	-17.640	93.492	-0.77130	0.53387	-0.30881	0.15689	23.7	13111	100
2025-3-27 20:4:27.549	WT901BLE68-01(48591DE3C19B)	-0.562	-1.715	0.493	-6.165	-47.180	-26.062	-74.27	18.05	-32.11	-54.096	-17.640	93.492	-0.77130	0.53387	-0.30881	0.15689	23.7	13111	100
2025-3-27 20:4:27.549	WT901BLE68-01(48591DE3C19B)	-0.562	-1.518	0.588	15.381	-21.851	-34.790	-74.07	17.65	-31.93	-54.096	-17.640	93.492	-0.77130	0.53387	-0.30881	0.15689	23.7	13111	100
2025-3-27 20:4:27.579	WT901BLE68-01(48591DE3C19B)	-0.518	-1.518	0.588	15.381	-21.851	-34.790	-73.87	17.25	-31.75	-54.096	-17.640	93.492	-0.77130	0.53387	-0.30881	0.15689	23.7	13111	100
2025-3-27 20:4:27.579	WT901BLE68-01(48591DE3C19B)	-0.440	-1.051	0.610	26.062	2.991	-25.269	-73.63	17.03	-31.79	-54.096	-17.640	93.492	-0.77130	0.53387	-0.30881	0.15689	23.7	13111	100
2025-3-27 20:4:27.580	WT901BLE68-01(48591DE3C19B)	-0.440	-0.758	0.586	24.048	24.292	-4.822	-73.41	16.94	-31.91	-54.096	-17.640	93.492	-0.77130	0.53387	-0.30881	0.15689	23.7	13111	100
2025-3-27 20:4:27.580	WT901BLE68-01(48591DE3C19B)	-0.406	-0.758	0.586	24.048	24.292	-4.822	-73.22	16.97	-32.10	-54.096	-17.640	93.492	-0.77130	0.53387	-0.30881	0.15689	23.7	13111	100
2025-3-27 20:4:27.610	WT901BLE68-01(48591DE3C19B)	-0.406	-0.648	0.461	2.747	23.071	8.484	-73.13	17.08	-32.26	-54.096	-17.640	93.492	-0.77130	0.53387	-0.30881	0.15689	23.7	13111	100
2025-3-27 20:4:27.610	WT901BLE68-01(48591DE3C19B)	-0.362	-0.648	0.461	2.747	23.071	8.484	-73.12	17.25	-32.39	-54.096	-17.640	93.492	-0.77130	0.53387	-0.30881	0.15689	23.7	13111	100
2025-3-27 20:4:27.610	WT901BLE68-01(48591DE3C19B)	-0.362	-0.811	0.326	-27.771	-20.081	13.000	-73.20	17.38	-32.29	-54.096	-17.640	93.492	-0.77130	0.53387	-0.30881	0.15689	23.7	13111	100
2025-3-27 20:4:27.610	WT901BLE68-01(48591DE3C19B)	-0.199	-0.811	0.326	-27.771	-20.081	13.000	-73.37	17.47	-31.97	-54.096	-17.640	93.492	-0.77130	0.53387	-0.30881	0.15689	23.7	13111	100
2025-3-27 20:4:27.669	WT901BLE68-01(48591DE3C19B)	-0.199	-0.994	0.228	-35.645	-53.284	15.503	-73.52	17.52	-31.49	-54.096	-17.640	93.492	-0.77130	0.53387	-0.30881	0.15689	23.7	13111	100
2025-3-27 20:4:27.670	WT901BLE68-01(48591DE3C19B)	-0.128	-0.994	0.228	-35.645	-53.284	15.503	-73.66	17.54	-30.83	-54.096	-17.640	93.492	-0.77130	0.53387	-0.30881	0.15689	23.7	13111	100
2025-3-27 20:4:27.670	WT901BLE68-01(48591DE3C19B)	-0.128	-0.964	0.190	-20.081	-39.612	16.785	-73.76	17.58	-30.26	-54.096	-17.640	93.492	-0.77130	0.53387	-0.30881	0.15689	23.7	13111	100
2025-3-27 20:4:27.670	WT901BLE68-01(48591DE3C19B)	-0.104	-0.964	0.190	-20.081	-39.612	16.785	-73.80	17.63	-29.75	-54.096	-17.640	93.492	-0.77130	0.53387	-0.30881	0.15689	23.7	13111	100
2025-3-27 20:4:27.730	WT901BLE68-01(48591DE3C19B)	-0.104	-0.796	0.178	-6.042	-5.127	13.611	-73.82	17.72	-29.43	-54.096	-17.640	93.492	-0.78760	0.54276	-0.26984	0.11038	23.7	13111	100
2025-3-27 20:4:27.730	WT901BLE68-01(48591DE3C19B)	-0.062	-0.796	0.178	-6.042	-5.127	13.611	-73.84	17.83	-29.28	-54.096	-17.640	93.492	-0.78760	0.54276	-0.26984	0.11038	23.7	13111	100
2025-3-27 20:4:27.730	WT901BLE68-01(48591DE3C19B)	-0.062	-0.629	0.176	3.723	41.992	8.118	-73.88	17.97	-29.39	-54.096	-17.640	93.492	-0.78760	0.54276	-0.26984	0.11038	23.7	13111	100
2025-3-27 20:4:27.730	WT901BLE68-01(48591DE3C19B)	-0.107	-0.629	0.176	3.723	41.992	8.118	-73.95	18.14	-29.75	-54.096	-17.640	93.492	-0.78760	0.54276	-0.26984	0.11038	23.7	13111	100
2025-3-27 20:4:27.732	WT901BLE68-01(48591DE3C19B)	-0.107	-0.438	0.198	14.587	85.754	8.667	-74.04	18.37	-30.32	-54.096	-17.640	93.492	-0.78760	0.54276	-0.26984	0.11038	23.7	13111	100
2025-3-27 20:4:27.732	WT901BLE68-01(48591DE3C19B)	-0.261	-0.438	0.198	14.587	85.754	8.667	-74.14	18.67	-31.11	-54.096	-17.640	93.492	-0.78760	0.54276	-0.26984	0.11038	23.7	13111	100
2025-3-27 20:4:27.732	WT901BLE68-01(48591DE3C19B)	-0.261	-0.296	0.291	12.390	92.163	11.902	-74.26	18.98	-31.93	-54.096	-17.640	93.492	-0.78760	0.54276	-0.26984	0.11038	23.7	13111	100
2025-3-27 20:4:27.732	WT901BLE68-01(48591DE3C19B)	-0.407	-0.296	0.291	12.390	92.163	11.902	-74.40	19.33	-32.77	-54.096	-17.640	93.492	-0.78760	0.54276	-0.26984	0.11038	23.7	13111	100
2025-3-27 20:4:27.790	WT901BLE68-01(48591DE3C19B)	-0.407	-0.361	0.408	-5.249	53.833	13.000	-74.56	19.63	-33.40	-54.096	-17.640	93.492	-0.78760	0.54276	-0.26984	0.11038	23.7	13111	100
2025-3-27 20:4:27.790	WT901BLE68-01(48591DE3C19B)	-0.441	-0.361	0.408	-5.249	53.833	13.000	-74.74	19.90	-33.84	-54.096	-17.640	93.492	-0.78760	0.54276	-0.26984	0.11038	23.7	13111	100
2025-3-27 20:4:27.791	WT901BLE68-01(48591DE3C19B)	-0.441	-0.584	0.397	-17.273	2.563	15.564	-74.88	20.12	-34.00	-54.096	-17.640	93.492	-0.78760	0.54276	-0.26984	0.11038	23.7	13111	100
2025-3-27 20:4:27.791	WT901BLE68-01(48591DE3C19B)	-0.413	-0.584	0.397	-17.273	2.563	15.564	-74.98	20.30	-33.89	-54.096	-17.640	93.492	-0.78760	0.54276	-0.26984	0.11038	23.7	13111	100
2025-3-27 20:4:27.821	WT901BLE68-01(48591DE3C19B)	-0.413	-0.800	0.298	-25.452	-37.903	13.306	-75.05	20.41	-33.57	-54.096	-17.640	93.492	-0.78760	0.54276	-0.26984	0.11038	23.7	13111	100
2025-3-27 20:4:27.822	WT901BLE68-01(48591DE3C19B)	-0.490	-0.800	0.298	-25.452	-37.903	13.306	-75.09	20.47	-33.04	-54.096	-17.640	93.492	-0.78760	0.54276	-0.26984	0.11038	23.7	13111	100
2025-3-27 20:4:27.822	WT901BLE68-01(48591DE3C19B)	-0.490	-1.240	0.319	-35.400	-73.730	3.174	-75.13	20.43	-32.35	-54.096	-17.640	93.492	-0.78760	0.54276	-0.26984	0.11038	23.7	13111	100
2025-3-27 20:4:27.822	WT901BLE68-01(48591DE3C19B)	-0.548	-1.240	0.319	-35.400	-73.730	3.174	-75.17	20.29	-31.49	-54.096	-17.640	93.492	-0.78760	0.54276	-0.26984	0.11038	23.7	13111	100
2025-3-27 20:4:27.851	WT901BLE68-01(48591DE3C19B)	-0.548	-1.958	0.217	-53.772	-108.521	-13.306	-75.26	20.03	-30.49	-54.096	-17.640	93.492	-0.78760	0.54276	-0.26984	0.11038	23.7	13111	100
2025-3-27 20:4:27.852	WT901BLE68-01(48591DE3C19B)	-0.310	-1.958	0.217	-53.772	-108.521	-13.306	-75.40	19.63	-29.33	-54.096	-17.640	93.492	-0.78760	0.54276	-0.26984	0.11038	23.7	13111	100
2025-3-27 20:4:27.852	WT901BLE68-01(48591DE3C19B)	-0.310	-2.354	0.114	-15.503	-108.276	-10.376	-75.38	19.25	-28.20	-46.746	-23.324	93.982	-0.78760	0.54276	-0.26984	0.11038	23.7	13111	100
2025-3-27 20:4:27.852	WT901BLE68-01(48591DE3C19B)	-0.104	-2.354	0.114	-15.503	-108.276	-10.376	-75.19	18.86	-27.07	-46.746	-23.324	93.982	-0.78760	0.54276	-0.26984	0.11038	23.7	13111	100
2025-3-27 20:4:27.910	WT901BLE68-01(48591DE3C19B)	-0.104	-1.649	0.185	53.650	-58.655	-0.793	-74.75	18.58	-26.20	-46.746	-23.324	93.982	-0.78760	0.54276	-0.26984	0.11038	23.7	13111	100
2025-3-27 20:4:27.910	WT901BLE68-01(48591DE3C19B)	0.023	-1.649	0.185	53.650	-58.655	-0.793	-74.05	18.39	-25.58	-46.746	-23.324	93.982	-0.78760	0.54276	-0.26984	0.11038	23.7	13111	100
2025-3-27 20:4:27.910	WT901BLE68-01(48591DE3C19B)	0.023	-1.059	0.193	46.875	7.568	6.226	-73.50	18.31	-25.29	-46.746	-23.324	93.982	-0.78760	0.54276	-0.26984	0.11038	23.7	13111	100
2025-3-27 20:4:27.910	WT901BLE68-01(48591DE3C19B)	0.088	-1.059	0.193	46.875	7.568	6.226	-73.09	18.35	-25.33	-46.746	-23.324	93.982	-0.78760	0.54276	-0.26984	0.11038	23.7	13111	100
2025-3-27 20:4:27.939	WT901BLE68-01(48591DE3C19B)	0.088	-0.731	0.230	33.936	63.965	17.944	-72.82	18.53	-25.63	-46.746	-23.324	93.982	-0.78760	0.54276	-0.26984	0.11038	23.7	13111	100
2025-3-27 20:4:27.939	WT901BLE68-01(48591DE3C19B)	-0.016	-0.731	0.230	33.936	63.965	17.944	-72.71	18.84	-26.20	-46.746	-23.324	93.982	-0.78760	0.54276	-0.26984	0.11038	23.7	13111	100
2025-3-27 20:4:27.939	WT901BLE68-01(48591DE3C19B)	-0.016	-0.579	0.260	6.409	85.510	23.743	-72.76	19.20	-26.88	-46.746	-23.324	93.982	-0.78760	0.54276	-0.26984	0.11038	23.7	13111	100
2025-3-27 20:4:27.939	WT901BLE68-01(48591DE3C19B)	-0.066	-0.579	0.260	6.409	85.510	23.743	-72.99	19.61	-27.65	-46.746	-23.324	93.982	-0.78760	0.54276	-0.26984	0.11038	23.7	13111	100
2025-3-27 20:4:27.971	WT901BLE68-01(48591DE3C19B)	-0.066	-0.577	0.297	-10.742	72.449	18.616	-73.28	19.97	-28.36	-46.746	-23.324	93.982	-0.78760	0.54276	-0.26984	0.11038	23.7	13111	100
2025-3-27 20:4:27.971	WT901BLE68-01(48591DE3C19B)	-0.121	-0.577	0.297	-10.742	72.449	18.616	-73.64	20.28	-29.02	-46.746	-23.324	93.982	-0.78760	0.54276	-0.26984	0.11038	23.7	13111	100
2025-3-27 20:4:27.971	WT901BLE68-01(48591DE3C19B)	-0.121	-0.648	0.307	-16.602	57.922	13.733	-74.00	20.54	-29.61	-46.746	-23.324	93.982	-0.78760	0.54276	-0.26984	0.11038	23.7	13111	100
2025-3-27 20:4:27.971	WT901BLE68-01(48591DE3C19B)	-0.288	-0.648	0.307	-16.602	57.922	13.733	-74.36	20.76	-30.14	-46.746	-23.324	93.982	-0.78760	0.54276	-0.26984	0.11038	23.7	13111	100
2025-3-27 20:4:28.31	WT901BLE68-01(48591DE3C19B)	-0.288	-0.804	0.261	-9.949	58.533	4.639	-74.69	20.93	-30.67	-46.746	-23.324	93.982	-0.78760	0.54276	-0.26984	0.11038	23.7	13111	100
2025-3-27 20:4:28.31	WT901BLE68-01(48591DE3C19B)	-0.446	-0.804	0.261	-9.949	58.533	4.639	-74.99	21.06	-31.22	-46.746	-23.324	93.982	-0.78760	0.54276	-0.26984	0.11038	23.7	13111	100
2025-3-27 20:4:28.31	WT901BLE68-01(48591DE3C19B)	-0.446	-0.889	0.190	5.859	49.500	-8.362	-75.11	21.04	-31.71	-46.746	-23.324	93.982	-0.78760	0.54276	-0.26984	0.11038	23.7	13111	100
2025-3-27 20:4:28.32	WT901BLE68-01(48591DE3C19B)	-0.432	-0.889	0.190	5.859	49.500	-8.362	-75.23	21.04	-32.20	-46.746	-23.324	93.982	-0.78760	0.54276	-0.26984	0.11038	23.7	13111	100
2025-3-27 20:4:28.59	WT901BLE68-01(48591DE3C19B)	-0.432	-0.809	0.148	21.240	27.527	-14.954	-75.14	20.92	-32.46	-46.746	-23.324	93.982	-0.78760	0.54276	-0.26984	0.11038	23.7	13111	100
2025-3-27 20:4:28.59	WT901BLE68-01(48591DE3C19B)	-0.324	-0.809	0.148	21.240	27.527	-14.954	-75.04	20.82	-32.73	-46.746	-23.324	93.982	-0.78760	0.54276	-0.26984	0.11038	23.7	13111	100
2025-3-27 20:4:28.60	WT901BLE68-01(48591DE3C19B)	-0.324	-0.674	0.130	30.823	13.611	-14.954	-74.79	20.68	-32.84	-46.746	-23.324	93.982	-0.78760	0.54276	-0.26984	0.11038	23.7	13111	100
2025-3-27 20:4:28.60	WT901BLE68-01(48591DE3C19B)	-0.272	-0.674	0.130	30.823	13.611	-14.954	-74.55	20.55	-32.96	-46.746	-23.324	93.982	-0.78140	0.53119	-0.30518	0.11847	23.7	13111	100
2025-3-27 20:4:28.90	WT901BLE68-01(48591DE3C19B)	-0.272	-0.592	0.140	40.466	7.629	-9.277	-74.20	20.46	-32.99	-46.746	-23.324	93.982	-0.78140	0.53119	-0.30518	0.11847	23.7	13111	100
2025-3-27 20:4:28.90	WT901BLE68-01(48591DE3C19B)	-0.266	-0.592	0.140	40.466	7.629	-9.277	-73.84	20.38	-33.02	-46.746	-23.324	93.982	-0.78140	0.53119	-0.30518	0.11847	23.7	13111	100
2025-3-27 20:4:28.90	WT901BLE68-01(48591DE3C19B)	-0.266	-0.493	0.164	45.654	-1.160	0.671	-73.39	20.37	-32.94	-46.746	-23.324	93.982	-0.78140	0.53119	-0.30518	0.11847	23.7	13111	100
2025-3-27 20:4:28.90	WT901BLE68-01(48591DE3C19B)	-0.287	-0.493	0.164	45.654	-1.160	0.671	-72.94	20.36	-32.85	-46.746	-23.324	93.982	-0.78140	0.53119	-0.30518	0.11847	23.7	13111	100
2025-3-27 20:4:28.150	WT901BLE68-01(48591DE3C19B)	-0.287	-0.425	0.200	38.452	-14.221	14.648	-72.50	20.46	-32.59	-46.746	-23.324	93.982	-0.78140	0.53119	-0.30518	0.11847	23.7	13111	100
2025-3-27 20:4:28.150	WT901BLE68-01(48591DE3C19B)	-0.287	-0.425	0.200	38.452	-14.221	14.648	-72.06	20.56	-32.32	-46.746	-23.324	93.982	-0.78140	0.53119	-0.30518	0.11847	23.7	13111	100
2025-3-27 20:4:28.150	WT901BLE68-01(48591DE3C19B)	-0.287	-0.512	0.229	18.921	-30.396	25.879	-71.75	20.71	-31.85	-46.746	-23.324	93.982	-0.78140	0.53119	-0.30518	0.11847	23.7	13111	100
2025-3-27 20:4:28.150	WT901BLE68-01(48591DE3C19B)	-0.239	-0.512	0.229	18.921	-30.396	25.879	-71.43	20.86	-31.38	-46.746	-23.324	93.982	-0.78140	0.53119	-0.30518	0.11847	23.7	13111	100
2025-3-27 20:4:28.179	WT901BLE68-01(48591DE3C19B)	-0.239	-0.732	0.217	0.916	-27.771	27.283	-71.30	21.04	-30.93	-46.746	-23.324	93.982	-0.78140	0.53119	-0.30518	0.11847	23.7	13111	100
2025-3-27 20:4:28.179	WT901BLE68-01(48591DE3C19B)	-0.301	-0.732	0.217	0.916	-27.771	27.283	-71.16	21.20	-30.48	-46.746	-23.324	93.982	-0.78140	0.53119	-0.30518	0.11847	23.7	13111	100
2025-3-27 20:4:28.179	WT901BLE68-01(48591DE3C19B)	-0.301	-1.104	0.233	-16.174	-9.460	11.353	-71.28	21.28	-30.28	-46.746	-23.324	93.982	-0.78140	0.53119	-0.30518	0.11847	23.7	13111	100
2025-3-27 20:4:28.179	WT901BLE68-01(48591DE3C19B)	-0.438	-1.104	0.233	-16.174	-9.460	11.353	-71.42	21.34	-30.09	-46.746	-23.324	93.982	-0.78140	0.53119	-0.30518	0.11847	23.7	13111	100
2025-3-27 20:4:28.209	WT901BLE68-01(48591DE3C19B)	-0.438	-1.546	0.290	-19.409	6.714	-11.597	-71.67	21.24	-30.14	-46.746	-23.324	93.982	-0.78140	0.53119	-0.30518	0.11847	23.7	13111	100
2025-3-27 20:4:28.209	WT901BLE68-01(48591DE3C19B)	-0.546	-1.546	0.290	-19.409	6.714	-11.597	-71.92	21.13	-30.19	-46.746	-23.324	93.982	-0.78140	0.53119	-0.30518	0.11847	23.7	13111	100
2025-3-27 20:4:28.209	WT901BLE68-01(48591DE3C19B)	-0.546	-1.824	0.380	-15.320	17.212	-33.508	-72.20	20.84	-30.42	-46.746	-23.324	93.982	-0.78140	0.53119	-0.30518	0.11847	23.7	13111	100
2025-3-27 20:4:28.210	WT901BLE68-01(48591DE3C19B)	-0.679	-1.824	0.380	-15.320	17.212	-33.508	-72.48	20.56	-30.65	-46.746	-23.324	93.982	-0.78140	0.53119	-0.30518	0.11847	23.7	13111	100
2025-3-27 20:4:28.270	WT901BLE68-01(48591DE3C19B)	-0.679	-1.756	0.556	4.700	31.677	-47.119	-72.62	20.19	-31.06	-46.746	-23.324	93.982	-0.78140	0.53119	-0.30518	0.11847	23.7	13111	100
2025-3-27 20:4:28.270	WT901BLE68-01(48591DE3C19B)	-0.671	-1.756	0.556	4.700	31.677	-47.119	-72.75	19.82	-31.47	-46.746	-23.324	93.982	-0.78140	0.53119	-0.30518	0.11847	23.7	13111	100
2025-3-27 20:4:28.270	WT901BLE68-01(48591DE3C19B)	-0.671	-1.308	0.636	15.442	52.063	-48.035	-72.83	19.51	-32.08	-46.746	-23.324	93.982	-0.78140	0.53119	-0.30518	0.11847	23.7	13111	100
2025-3-27 20:4:28.270	WT901BLE68-01(48591DE3C19B)	-0.596	-1.308	0.636	15.442	52.063	-48.035	-72.91	19.21	-32.68	-46.746	-23.324	93.982	-0.78140	0.53119	-0.30518	0.11847	23.7	13111	100
2025-3-27 20:4:28.299	WT901BLE68-01(48591DE3C19B)	-0.596	-0.925	0.574	17.639	66.833	-32.349	-72.98	19.10	-33.38	-50.470	-21.364	94.080	-0.78140	0.53119	-0.30518	0.11847	23.7	13111	100
2025-3-27 20:4:28.299	WT901BLE68-01(48591DE3C19B)	-0.534	-0.925	0.574	17.639	66.833	-32.349	-73.05	19.00	-34.07	-50.470	-21.364	94.080	-0.78140	0.53119	-0.30518	0.11847	23.7	13111	100
2025-3-27 20:4:28.299	WT901BLE68-01(48591DE3C19B)	-0.534	-0.602	0.460	7.324	47.546	-15.503	-73.13	19.01	-34.51	-50.470	-21.364	94.080	-0.78140	0.53119	-0.30518	0.11847	23.7	13111	100
2025-3-27 20:4:28.299	WT901BLE68-01(48591DE3C19B)	-0.490	-0.602	0.460	7.324	47.546	-15.503	-73.21	19.03	-34.94	-50.470	-21.364	94.080	-0.78140	0.53119	-0.30518	0.11847	23.7	13111	100
2025-3-27 20:4:28.330	WT901BLE68-01(48591DE3C19B)	-0.490	-0.542	0.354	-27.466	-5.859	-3.540	-73.44	19.02	-34.79	-50.470	-21.364	94.080	-0.78140	0.53119	-0.30518	0.11847	23.7	13111	100
2025-3-27 20:4:28.330	WT901BLE68-01(48591DE3C19B)	-0.405	-0.542	0.354	-27.466	-5.859	-3.540	-73.66	19.01	-34.63	-50.470	-21.364	94.080	-0.78140	0.53119	-0.30518	0.11847	23.7	13111	100
2025-3-27 20:4:28.330	WT901BLE68-01(48591DE3C19B)	-0.405	-0.688	0.304	-46.265	-57.190	2.075	-73.91	18.91	-33.94	-50.470	-21.364	94.080	-0.78140	0.53119	-0.30518	0.11847	23.7	13111	100
2025-3-27 20:4:28.330	WT901BLE68-01(48591DE3C19B)	-0.312	-0.688	0.304	-46.265	-57.190	2.075	-74.14	18.82	-33.26	-50.470	-21.364	94.080	-0.78140	0.53119	-0.30518	0.11847	23.7	13111	100
2025-3-27 20:4:28.390	WT901BLE68-01(48591DE3C19B)	-0.312	-0.722	0.292	-40.222	-67.993	7.019	-74.28	18.75	-32.45	-50.470	-21.364	94.080	-0.78140	0.53119	-0.30518	0.11847	23.7	13111	100
2025-3-27 20:4:28.390	WT901BLE68-01(48591DE3C19B)	-0.255	-0.722	0.292	-40.222	-67.993	7.019	-74.42	18.68	-31.65	-50.470	-21.364	94.080	-0.78140	0.53119	-0.30518	0.11847	23.7	13111	100
2025-3-27 20:4:28.390	WT901BLE68-01(48591DE3C19B)	-0.255	-0.641	0.259	-30.579	-52.307	7.629	-74.51	18.65	-31.00	-50.470	-21.364	94.080	-0.78140	0.53119	-0.30518	0.11847	23.7	13111	100
2025-3-27 20:4:28.390	WT901BLE68-01(48591DE3C19B)	-0.221	-0.641	0.259	-30.579	-52.307	7.629	-74.60	18.63	-30.37	-50.470	-21.364	94.080	-0.78140	0.53119	-0.30518	0.11847	23.7	13111	100
2025-3-27 20:4:28.421	WT901BLE68-01(48591DE3C19B)	-0.221	-0.609	0.233	-23.682	-22.766	2.869	-74.72	18.63	-30.04	-50.470	-21.364	94.080	-0.78140	0.53119	-0.30518	0.11847	23.7	13111	100
2025-3-27 20:4:28.421	WT901BLE68-01(48591DE3C19B)	-0.270	-0.609	0.233	-23.682	-22.766	2.869	-74.84	18.64	-29.72	-50.470	-21.364	94.080	-0.78140	0.53119	-0.30518	0.11847	23.7	13111	100
2025-3-27 20:4:28.422	WT901BLE68-01(48591DE3C19B)	-0.270	-0.618	0.250	-11.719	4.883	-1.160	-74.94	18.67	-29.70	-50.470	-21.364	94.080	-0.78140	0.53119	-0.30518	0.11847	23.7	13111	100
2025-3-27 20:4:28.422	WT901BLE68-01(48591DE3C19B)	-0.355	-0.618	0.250	-11.719	4.883	-1.160	-75.03	18.71	-29.67	-50.470	-21.364	94.080	-0.78140	0.53119	-0.30518	0.11847	23.7	13111	100
2025-3-27 20:4:28.480	WT901BLE68-01(48591DE3C19B)	-0.355	-0.564	0.294	-4.333	9.827	-0.488	-75.06	18.76	-29.70	-50.470	-21.364	94.080	-0.78140	0.53119	-0.30518	0.11847	23.7	13111	100
2025-3-27 20:4:28.480	WT901BLE68-01(48591DE3C19B)	-0.351	-0.564	0.294	-4.333	9.827	-0.488	-75.10	18.83	-29.71	-50.470	-21.364	94.080	-0.78140	0.53119	-0.30518	0.11847	23.7	13111	100
2025-3-27 20:4:28.480	WT901BLE68-01(48591DE3C19B)	-0.312	-0.439	0.321	-5.432	-2.380	5.127	-75.09	18.91	-29.59	-50.470	-21.364	94.080	-0.78140	0.53119	-0.30518	0.11847	23.7	13111	100
2025-3-27 20:4:28.480	WT901BLE68-01(48591DE3C19B)	-0.312	-0.370	0.324	-12.146	-17.517	12.329	-75.09	19.01	-29.37	-50.470	-21.364	94.080	-0.78140	0.53119	-0.30518	0.11847	23.7	13111	100
2025-3-27 20:4:28.510	WT901BLE68-01(48591DE3C19B)	-0.314	-0.370	0.324	-12.146	-17.517	12.329	-75.09	19.14	-29.07	-50.470	-21.364	94.080	-0.78140	0.53119	-0.30518	0.11847	23.7	13111	100
2025-3-27 20:4:28.510	WT901BLE68-01(48591DE3C19B)	-0.314	-0.459	0.328	-22.644	-35.339	14.465	-75.09	19.25	-28.66	-50.470	-21.364	94.080	-0.78140	0.53119	-0.30518	0.11847	23.7	13111	100
2025-3-27 20:4:28.510	WT901BLE68-01(48591DE3C19B)	-0.367	-0.459	0.328	-22.644	-35.339	14.465	-75.12	19.35	-28.17	-50.470	-21.364	94.080	-0.78140	0.53119	-0.30518	0.11847	23.7	13111	100
2025-3-27 20:4:28.510	WT901BLE68-01(48591DE3C19B)	-0.367	-0.729	0.326	-31.494	-58.289	11.108	-75.15	19.41	-27.56	-50.470	-21.364	94.080	-0.78140	0.53119	-0.30518	0.11847	23.7	13111	100
2025-3-27 20:4:28.539	WT901BLE68-01(48591DE3C19B)	-0.426	-0.729	0.326	-31.494	-58.289	11.108	-75.19	19.42	-26.84	-50.470	-21.364	94.080	-0.78348	0.55386	-0.26959	0.08115	23.7	13111	100
2025-3-27 20:4:28.539	WT901BLE68-01(48591DE3C19B)	-0.426	-1.143	0.336	-43.274	-86.426	1.953	-75.25	19.35	-26.00	-50.470	-21.364	94.080	-0.78348	0.55386	-0.26959	0.08115	23.7	13111	100
2025-3-27 20:4:28.539	WT901BLE68-01(48591DE3C19B)	-0.486	-1.143	0.336	-43.274	-86.426	1.953	-75.33	19.19	-25.03	-50.470	-21.364	94.080	-0.78348	0.55386	-0.26959	0.08115	23.7	13111	100
2025-3-27 20:4:28.539	WT901BLE68-01(48591DE3C19B)	-0.486	-1.860	0.239	-60.059	-109.985	-13.977	-75.48	18.92	-23.98	-50.470	-21.364	94.080	-0.78348	0.55386	-0.26959	0.08115	23.7	13111	100
2025-3-27 20:4:28.569	WT901BLE68-01(48591DE3C19B)	-0.387	-1.860	0.239	-60.059	-109.985	-13.977	-75.70	18.54	-22.84	-50.470	-21.364	94.080	-0.78348	0.55386	-0.26959	0.08115	23.7	13111	100
2025-3-27 20:4:28.570	WT901BLE68-01(48591DE3C19B)	-0.387	-2.399	0.123	-23.254	-101.746	-16.846	-75.77	18.14	-21.76	-50.470	-21.364	94.080	-0.78348	0.55386	-0.26959	0.08115	23.7	13111	100
2025-3-27 20:4:28.570	WT901BLE68-01(48591DE3C19B)	-0.236	-2.399	0.123	-23.254	-101.746	-16.846	-75.70	17.74	-20.74	-50.470	-21.364	94.080	-0.78348	0.55386	-0.26959	0.08115	23.7	13111	100
2025-3-27 20:4:28.570	WT901BLE68-01(48591DE3C19B)	-0.236	-1.709	0.186	61.890	-63.416	1.465	-75.26	17.45	-19.91	-50.470	-21.364	94.080	-0.78348	0.55386	-0.26959	0.08115	23.7	13111	100
2025-3-27 20:4:28.660	WT901BLE68-01(48591DE3C19B)	-0.069	-1.709	0.186	61.890	-63.416	1.465	-74.48	17.29	-19.26	-50.470	-21.364	94.080	-0.78348	0.55386	-0.26959	0.08115	23.7	13111	100
2025-3-27 20:4:28.660	WT901BLE68-01(48591DE3C19B)	-0.069	-1.013	0.187	48.401	-20.325	18.494	-73.82	17.26	-18.81	-50.470	-21.364	94.080	-0.78348	0.55386	-0.26959	0.08115	23.7	13111	100
2025-3-27 20:4:28.660	WT901BLE68-01(48591DE3C19B)	0.058	-1.013	0.187	48.401	-20.325	18.494	-73.29	17.36	-18.56	-50.470	-21.364	94.080	-0.78348	0.55386	-0.26959	0.08115	23.7	13111	100
2025-3-27 20:4:28.660	WT901BLE68-01(48591DE3C19B)	0.058	-0.875	0.188	24.048	23.193	30.151	-72.95	17.57	-18.50	-50.470	-21.364	94.080	-0.78348	0.55386	-0.26959	0.08115	23.7	13111	100
2025-3-27 20:4:28.662	WT901BLE68-01(48591DE3C19B)	0.019	-0.875	0.188	24.048	23.193	30.151	-72.78	17.90	-18.65	-50.470	-21.364	94.080	-0.78348	0.55386	-0.26959	0.08115	23.7	13111	100
2025-3-27 20:4:28.662	WT901BLE68-01(48591DE3C19B)	0.019	-0.973	0.188	2.625	56.030	34.973	-72.78	18.28	-18.96	-50.470	-21.364	94.080	-0.78348	0.55386	-0.26959	0.08115	23.7	13111	100
2025-3-27 20:4:28.662	WT901BLE68-01(48591DE3C19B)	-0.063	-0.973	0.188	2.625	56.030	34.973	-72.94	18.73	-19.43	-50.470	-21.364	94.080	-0.78348	0.55386	-0.26959	0.08115	23.7	13111	100
2025-3-27 20:4:28.662	WT901BLE68-01(48591DE3C19B)	-0.063	-1.062	0.228	-5.493	65.613	31.921	-73.16	19.17	-19.96	-41.258	-28.518	91.630	-0.78348	0.55386	-0.26959	0.08115	23.7	13111	100
2025-3-27 20:4:28.720	WT901BLE68-01(48591DE3C19B)	-0.152	-1.062	0.228	-5.493	65.613	31.921	-73.43	19.60	-20.54	-41.258	-28.518	91.630	-0.78348	0.55386	-0.26959	0.08115	23.7	13111	100
2025-3-27 20:4:28.720	WT901BLE68-01(48591DE3C19B)	-0.152	-0.999	0.284	-0.244	66.101	25.269	-73.69	19.99	-21.14	-41.258	-28.518	91.630	-0.78348	0.55386	-0.26959	0.08115	23.7	13111	100
2025-3-27 20:4:28.720	WT901BLE68-01(48591DE3C19B)	-0.252	-0.999	0.284	-0.244	66.101	25.269	-73.93	20.34	-21.75	-41.258	-28.518	91.630	-0.78348	0.55386	-0.26959	0.08115	23.7	13111	100
2025-3-27 20:4:28.720	WT901BLE68-01(48591DE3C19B)	-0.252	-0.890	0.256	6.042	71.716	11.719	-74.15	20.64	-22.41	-41.258	-28.518	91.630	-0.78348	0.55386	-0.26959	0.08115	23.7	13111	100
2025-3-27 20:4:28.749	WT901BLE68-01(48591DE3C19B)	-0.300	-0.890	0.256	6.042	71.716	11.719	-74.36	20.87	-23.12	-41.258	-28.518	91.630	-0.78348	0.55386	-0.26959	0.08115	23.7	13111	100
2025-3-27 20:4:28.749	WT901BLE68-01(48591DE3C19B)	-0.300	-0.750	0.165	18.066	81.726	-0.183	-74.54	21.07	-23.88	-41.258	-28.518	91.630	-0.78348	0.55386	-0.26959	0.08115	23.7	13111	100
2025-3-27 20:4:28.749	WT901BLE68-01(48591DE3C19B)	-0.349	-0.750	0.165	18.066	81.726	-0.183	-74.67	21.21	-24.72	-41.258	-28.518	91.630	-0.78348	0.55386	-0.26959	0.08115	23.7	13111	100
2025-3-27 20:4:28.749	WT901BLE68-01(48591DE3C19B)	-0.349	-0.551	0.136	30.029	74.524	-2.869	-74.75	21.35	-25.52	-41.258	-28.518	91.630	-0.78348	0.55386	-0.26959	0.08115	23.7	13111	100
2025-3-27 20:4:28.780	WT901BLE68-01(48591DE3C19B)	-0.298	-0.551	0.136	30.029	74.524	-2.869	-74.74	21.46	-26.27	-41.258	-28.518	91.630	-0.78348	0.55386	-0.26959	0.08115	23.7	13111	100
2025-3-27 20:4:28.780	WT901BLE68-01(48591DE3C19B)	-0.298	-0.373	0.166	31.799	45.349	1.892	-74.67	21.57	-26.87	-41.258	-28.518	91.630	-0.78348	0.55386	-0.26959	0.08115	23.7	13111	100
2025-3-27 20:4:28.780	WT901BLE68-01(48591DE3C19B)	-0.248	-0.373	0.166	31.799	45.349	1.892	-74.54	21.67	-27.30	-41.258	-28.518	91.630	-0.78348	0.55386	-0.26959	0.08115	23.7	13111	100
2025-3-27 20:4:28.780	WT901BLE68-01(48591DE3C19B)	-0.248	-0.323	0.188	29.907	22.461	10.010	-74.36	21.79	-27.59	-41.258	-28.518	91.630	-0.78348	0.55386	-0.26959	0.08115	23.7	13111	100
2025-3-27 20:4:28.841	WT901BLE68-01(48591DE3C19B)	-0.274	-0.323	0.188	29.907	22.461	10.010	-74.14	21.91	-27.75	-41.258	-28.518	91.630	-0.78348	0.55386	-0.26959	0.08115	23.7	13111	100
2025-3-27 20:4:28.842	WT901BLE68-01(48591DE3C19B)	-0.274	-0.350	0.182	30.457	-1.953	19.531	-73.87	22.06	-27.76	-41.258	-28.518	91.630	-0.78348	0.55386	-0.26959	0.08115	23.7	13111	100
2025-3-27 20:4:28.842	WT901BLE68-01(48591DE3C19B)	-0.307	-0.350	0.182	30.457	-1.953	19.531	-73.53	22.23	-27.63	-41.258	-28.518	91.630	-0.78348	0.55386	-0.26959	0.08115	23.7	13111	100
2025-3-27 20:4:28.842	WT901BLE68-01(48591DE3C19B)	-0.307	-0.411	0.163	26.917	-40.161	30.334	-73.13	22.39	-27.28	-41.258	-28.518	91.630	-0.78348	0.55386	-0.26959	0.08115	23.7	13111	100
2025-3-27 20:4:28.872	WT901BLE68-01(48591DE3C19B)	-0.252	-0.411	0.163	26.917	-40.161	30.334	-72.66	22.55	-26.72	-41.258	-28.518	91.630	-0.78348	0.55386	-0.26959	0.08115	23.7	13111	100
2025-3-27 20:4:28.872	WT901BLE68-01(48591DE3C19B)	-0.252	-0.541	0.156	17.700	-73.486	39.917	-72.17	22.71	-25.96	-41.258	-28.518	91.630	-0.78348	0.55386	-0.26959	0.08115	23.7	13111	100
2025-3-27 20:4:28.872	WT901BLE68-01(48591DE3C19B)	-0.184	-0.541	0.156	17.700	-73.486	39.917	-71.66	22.86	-25.02	-41.258	-28.518	91.630	-0.78348	0.55386	-0.26959	0.08115	23.7	13111	100
2025-3-27 20:4:28.872	WT901BLE68-01(48591DE3C19B)	-0.184	-0.770	0.117	11.597	-75.623	41.138	-71.17	23.00	-24.06	-41.258	-28.518	91.630	-0.80478	0.52325	-0.27560	0.04944	23.7	13111	100
2025-3-27 20:4:28.901	WT901BLE68-01(48591DE3C19B)	-0.154	-0.770	0.117	11.597	-75.623	41.138	-70.71	23.13	-23.10	-41.258	-28.518	91.630	-0.80478	0.52325	-0.27560	0.04944	23.7	13111	100
2025-3-27 20:4:28.901	WT901BLE68-01(48591DE3C19B)	-0.154	-1.055	0.164	9.827	-52.002	33.508	-70.32	23.25	-22.29	-41.258	-28.518	91.630	-0.80478	0.52325	-0.27560	0.04944	23.7	13111	100
2025-3-27 20:4:28.902	WT901BLE68-01(48591DE3C19B)	-0.168	-1.055	0.164	9.827	-52.002	33.508	-70.00	23.36	-21.62	-41.258	-28.518	91.630	-0.80478	0.52325	-0.27560	0.04944	23.7	13111	100
2025-3-27 20:4:28.902	WT901BLE68-01(48591DE3C19B)	-0.168	-1.495	0.199	-2.319	-12.268	9.521	-69.84	23.41	-21.20	-41.258	-28.518	91.630	-0.80478	0.52325	-0.27560	0.04944	23.7	13111	100
2025-3-27 20:4:28.960	WT901BLE68-01(48591DE3C19B)	-0.246	-1.495	0.199	-2.319	-12.268	9.521	-69.85	23.41	-21.04	-41.258	-28.518	91.630	-0.80478	0.52325	-0.27560	0.04944	23.7	13111	100
2025-3-27 20:4:28.960	WT901BLE68-01(48591DE3C19B)	-0.246	-1.966	0.211	-7.507	42.969	-19.653	-70.18	23.31	-21.57	-41.258	-28.518	91.630	-0.80478	0.52325	-0.27560	0.04944	23.7	13111	100
2025-3-27 20:4:28.960	WT901BLE68-01(48591DE3C19B)	-0.529	-1.966	0.211	-7.507	42.969	-19.653	-70.52	23.21	-22.09	-41.258	-28.518	91.630	-0.80478	0.52325	-0.27560	0.04944	23.7	13111	100
2025-3-27 20:4:28.960	WT901BLE68-01(48591DE3C19B)	-0.529	-2.090	0.411	19.897	97.595	-43.091	-70.83	23.06	-23.25	-41.258	-28.518	91.630	-0.80478	0.52325	-0.27560	0.04944	23.7	13111	100
2025-3-27 20:4:28.990	WT901BLE68-01(48591DE3C19B)	-0.816	-2.090	0.411	19.897	97.595	-43.091	-71.14	22.91	-24.40	-41.258	-28.518	91.630	-0.80478	0.52325	-0.27560	0.04944	23.7	13111	100
2025-3-27 20:4:28.990	WT901BLE68-01(48591DE3C19B)	-0.816	-1.601	0.708	31.738	125.488	-67.139	-71.45	22.62	-25.91	-41.258	-28.518	91.630	-0.80478	0.52325	-0.27560	0.04944	23.7	13111	100
2025-3-27 20:4:28.990	WT901BLE68-01(48591DE3C19B)	-0.786	-1.601	0.708	31.738	125.488	-67.139	-71.75	22.34	-27.39	-41.258	-28.518	91.630	-0.80478	0.52325	-0.27560	0.04944	23.7	13111	100
2025-3-27 20:4:28.990	WT901BLE68-01(48591DE3C19B)	-0.786	-1.138	0.820	20.020	131.409	-66.040	-72.15	22.08	-28.92	-41.258	-28.518	91.630	-0.80478	0.52325	-0.27560	0.04944	23.7	13111	100
2025-3-27 20:4:29.20	WT901BLE68-01(48591DE3C19B)	-0.737	-1.138	0.820	20.020	131.409	-66.040	-72.54	21.84	-30.43	-41.258	-28.518	91.630	-0.80478	0.52325	-0.27560	0.04944	23.7	13111	100
2025-3-27 20:4:29.20	WT901BLE68-01(48591DE3C19B)	-0.737	-0.820	0.728	16.052	121.094	-50.110	-72.88	21.70	-31.77	-41.258	-28.518	91.630	-0.80478	0.52325	-0.27560	0.04944	23.7	13111	100
2025-3-27 20:4:29.20	WT901BLE68-01(48591DE3C19B)	-0.716	-0.820	0.728	16.052	121.094	-50.110	-73.22	21.58	-33.09	-41.258	-28.518	91.630	-0.80478	0.52325	-0.27560	0.04944	23.7	13111	100
2025-3-27 20:4:29.20	WT901BLE68-01(48591DE3C19B)	-0.716	-0.549	0.511	1.282	63.538	-36.316	-73.45	21.43	-33.77	-41.258	-28.518	91.630	-0.80478	0.52325	-0.27560	0.04944	23.7	13111	100
2025-3-27 20:4:29.110	WT901BLE68-01(48591DE3C19B)	-0.672	-0.549	0.511	1.282	63.538	-36.316	-73.68	21.29	-34.43	-41.258	-28.518	91.630	-0.80478	0.52325	-0.27560	0.04944	23.7	13111	100
2025-3-27 20:4:29.110	WT901BLE68-01(48591DE3C19B)	-0.672	-0.496	0.348	-30.396	-39.978	-24.170	-73.82	20.98	-33.99	-41.258	-28.518	91.630	-0.80478	0.52325	-0.27560	0.04944	23.7	13111	100
2025-3-27 20:4:29.111	WT901BLE68-01(48591DE3C19B)	-0.521	-0.496	0.348	-30.396	-39.978	-24.170	-73.95	20.69	-33.54	-41.258	-28.518	91.630	-0.80478	0.52325	-0.27560	0.04944	23.7	13111	100
2025-3-27 20:4:29.111	WT901BLE68-01(48591DE3C19B)	-0.521	-0.665	0.288	-47.668	-117.615	-15.137	-73.98	20.28	-32.27	-41.258	-28.518	91.630	-0.80478	0.52325	-0.27560	0.04944	23.7	13111	100
2025-3-27 20:4:29.112	WT901BLE68-01(48591DE3C19B)	-0.338	-0.665	0.288	-47.668	-117.615	-15.137	-74.02	19.86	-31.00	-52.528	-24.990	91.924	-0.80478	0.52325	-0.27560	0.04944	23.7	13111	100
2025-3-27 20:4:29.112	WT901BLE68-01(48591DE3C19B)	-0.338	-0.734	0.285	-34.058	-120.239	-6.897	-73.92	19.53	-29.70	-52.528	-24.990	91.924	-0.80478	0.52325	-0.27560	0.04944	23.7	13111	100
2025-3-27 20:4:29.112	WT901BLE68-01(48591DE3C19B)	-0.212	-0.734	0.285	-34.058	-120.239	-6.897	-73.82	19.19	-28.41	-52.528	-24.990	91.924	-0.80478	0.52325	-0.27560	0.04944	23.7	13111	100
2025-3-27 20:4:29.112	WT901BLE68-01(48591DE3C19B)	-0.212	-0.619	0.274	-11.658	-74.768	-3.845	-73.65	19.00	-27.58	-52.528	-24.990	91.924	-0.80478	0.52325	-0.27560	0.04944	23.7	13111	100
2025-3-27 20:4:29.141	WT901BLE68-01(48591DE3C19B)	-0.139	-0.619	0.274	-11.658	-74.768	-3.845	-73.48	18.81	-26.76	-52.528	-24.990	91.924	-0.80478	0.52325	-0.27560	0.04944	23.7	13111	100
2025-3-27 20:4:29.141	WT901BLE68-01(48591DE3C19B)	-0.139	-0.497	0.257	2.319	-15.808	-5.310	-73.37	18.76	-26.54	-52.528	-24.990	91.924	-0.80478	0.52325	-0.27560	0.04944	23.7	13111	100
2025-3-27 20:4:29.142	WT901BLE68-01(48591DE3C19B)	-0.173	-0.497	0.257	2.319	-15.808	-5.310	-73.26	18.72	-26.33	-52.528	-24.990	91.924	-0.80478	0.52325	-0.27560	0.04944	23.7	13111	100
2025-3-27 20:4:29.142	WT901BLE68-01(48591DE3C19B)	-0.173	-0.432	0.258	13.733	34.546	-7.751	-73.20	18.78	-26.64	-52.528	-24.990	91.924	-0.80478	0.52325	-0.27560	0.04944	23.7	13111	100
2025-3-27 20:4:29.200	WT901BLE68-01(48591DE3C19B)	-0.271	-0.432	0.258	13.733	34.546	-7.751	-73.14	18.85	-26.94	-52.528	-24.990	91.924	-0.80478	0.52325	-0.27560	0.04944	23.7	13111	100
2025-3-27 20:4:29.200	WT901BLE68-01(48591DE3C19B)	-0.271	-0.393	0.266	15.686	62.683	-9.766	-73.15	18.98	-27.53	-52.528	-24.990	91.924	-0.80478	0.52325	-0.27560	0.04944	23.7	13111	100
2025-3-27 20:4:29.200	WT901BLE68-01(48591DE3C19B)	-0.364	-0.393	0.266	15.686	62.683	-9.766	-73.16	19.11	-28.12	-52.528	-24.990	91.924	-0.80478	0.52325	-0.27560	0.04944	23.7	13111	100
2025-3-27 20:4:29.200	WT901BLE68-01(48591DE3C19B)	-0.364	-0.390	0.280	10.437	67.139	-8.423	-73.23	19.28	-28.75	-52.528	-24.990	91.924	-0.80478	0.52325	-0.27560	0.04944	23.7	13111	100
2025-3-27 20:4:29.229	WT901BLE68-01(48591DE3C19B)	-0.418	-0.390	0.280	10.437	67.139	-8.423	-73.31	19.44	-29.36	-52.528	-24.990	91.924	-0.80478	0.52325	-0.27560	0.04944	23.7	13111	100
2025-3-27 20:4:29.230	WT901BLE68-01(48591DE3C19B)	-0.418	-0.406	0.261	4.089	58.838	-4.333	-73.42	19.63	-29.88	-52.528	-24.990	91.924	-0.80478	0.52325	-0.27560	0.04944	23.7	13111	100
2025-3-27 20:4:29.230	WT901BLE68-01(48591DE3C19B)	-0.449	-0.406	0.261	4.089	58.838	-4.333	-73.52	19.82	-30.38	-52.528	-24.990	91.924	-0.80478	0.52325	-0.27560	0.04944	23.7	13111	100
2025-3-27 20:4:29.230	WT901BLE68-01(48591DE3C19B)	-0.449	-0.406	0.236	-0.916	44.678	0.916	-73.63	20.02	-30.72	-52.528	-24.990	91.924	-0.80478	0.52325	-0.27560	0.04944	23.7	13111	100
2025-3-27 20:4:29.259	WT901BLE68-01(48591DE3C19B)	-0.480	-0.406	0.236	-0.916	44.678	0.916	-73.74	20.24	-31.06	-52.528	-24.990	91.924	-0.80478	0.52325	-0.27560	0.04944	23.7	13111	100
2025-3-27 20:4:29.259	WT901BLE68-01(48591DE3C19B)	-0.480	-0.407	0.229	-7.874	18.372	7.996	-73.82	20.45	-31.09	-52.528	-24.990	91.924	-0.80478	0.52325	-0.27560	0.04944	23.7	13111	100
2025-3-27 20:4:29.259	WT901BLE68-01(48591DE3C19B)	-0.485	-0.407	0.229	-7.874	18.372	7.996	-73.91	20.67	-31.12	-52.528	-24.990	91.924	-0.80478	0.52325	-0.27560	0.04944	23.7	13111	100
2025-3-27 20:4:29.259	WT901BLE68-01(48591DE3C19B)	-0.485	-0.481	0.229	-19.043	-18.860	15.991	-73.96	20.87	-30.75	-52.528	-24.990	91.924	-0.80478	0.52325	-0.27560	0.04944	23.7	13111	100
2025-3-27 20:4:29.320	WT901BLE68-01(48591DE3C19B)	-0.477	-0.481	0.229	-19.043	-18.860	15.991	-74.02	21.07	-30.37	-52.528	-24.990	91.924	-0.80478	0.52325	-0.27560	0.04944	23.7	13111	100
2025-3-27 20:4:29.320	WT901BLE68-01(48591DE3C19B)	-0.477	-0.660	0.257	-27.710	-54.443	21.545	-74.03	21.23	-29.61	-52.528	-24.990	91.924	-0.78735	0.53525	-0.29211	0.09030	23.7	13111	100
2025-3-27 20:4:29.320	WT901BLE68-01(48591DE3C19B)	-0.475	-0.660	0.257	-27.710	-54.443	21.545	-74.04	21.38	-28.85	-52.528	-24.990	91.924	-0.78735	0.53525	-0.29211	0.09030	23.7	13111	100
2025-3-27 20:4:29.320	WT901BLE68-01(48591DE3C19B)	-0.475	-0.922	0.307	-35.278	-83.069	21.606	-74.01	21.45	-27.81	-52.528	-24.990	91.924	-0.78735	0.53525	-0.29211	0.09030	23.7	13111	100
2025-3-27 20:4:29.349	WT901BLE68-01(48591DE3C19B)	-0.510	-0.922	0.307	-35.278	-83.069	21.606	-73.99	21.50	-26.78	-52.528	-24.990	91.924	-0.78735	0.53525	-0.29211	0.09030	23.7	13111	100
2025-3-27 20:4:29.349	WT901BLE68-01(48591DE3C19B)	-0.510	-1.472	0.277	-54.199	-102.844	7.507	-74.11	21.36	-25.61	-52.528	-24.990	91.924	-0.78735	0.53525	-0.29211	0.09030	23.7	13111	100
2025-3-27 20:4:29.349	WT901BLE68-01(48591DE3C19B)	-0.483	-1.472	0.277	-54.199	-102.844	7.507	-74.24	21.20	-24.46	-52.528	-24.990	91.924	-0.78735	0.53525	-0.29211	0.09030	23.7	13111	100
2025-3-27 20:4:29.349	WT901BLE68-01(48591DE3C19B)	-0.483	-2.245	0.144	-66.467	-102.905	-13.977	-74.54	20.82	-23.38	-52.528	-24.990	91.924	-0.78735	0.53525	-0.29211	0.09030	23.7	13111	100
2025-3-27 20:4:29.380	WT901BLE68-01(48591DE3C19B)	-0.408	-2.245	0.144	-66.467	-102.905	-13.977	-74.85	20.43	-22.33	-52.528	-24.990	91.924	-0.78735	0.53525	-0.29211	0.09030	23.7	13111	100
2025-3-27 20:4:29.380	WT901BLE68-01(48591DE3C19B)	-0.429	-2.605	0.136	-6.592	-72.876	-10.925	-74.69	20.14	-21.59	-52.528	-24.990	91.924	-0.78735	0.53525	-0.29211	0.09030	23.7	13111	100
2025-3-27 20:4:29.380	WT901BLE68-01(48591DE3C19B)	-0.429	-1.931	0.261	36.560	-37.109	-11.841	-74.38	19.87	-21.06	-52.528	-24.990	91.924	-0.78735	0.53525	-0.29211	0.09030	23.7	13111	100
2025-3-27 20:4:29.380	WT901BLE68-01(48591DE3C19B)	-0.313	-1.931	0.261	36.560	-37.109	-11.841	-73.94	19.65	-20.71	-52.528	-24.990	91.924	-0.78735	0.53525	-0.29211	0.09030	23.7	13111	100
2025-3-27 20:4:29.470	WT901BLE68-01(48591DE3C19B)	-0.313	-1.658	0.295	25.940	0.854	-1.038	-73.61	19.52	-20.55	-52.528	-24.990	91.924	-0.78735	0.53525	-0.29211	0.09030	23.7	13111	100
2025-3-27 20:4:29.470	WT901BLE68-01(48591DE3C19B)	-0.202	-1.658	0.295	25.940	0.854	-1.038	-73.39	19.50	-20.57	-52.528	-24.990	91.924	-0.78735	0.53525	-0.29211	0.09030	23.7	13111	100
2025-3-27 20:4:29.470	WT901BLE68-01(48591DE3C19B)	-0.202	-1.379	0.286	33.752	55.847	17.029	-73.22	19.64	-20.84	-52.528	-24.990	91.924	-0.78735	0.53525	-0.29211	0.09030	23.7	13111	100
2025-3-27 20:4:29.470	WT901BLE68-01(48591DE3C19B)	-0.231	-1.379	0.286	33.752	55.847	17.029	-73.10	19.93	-21.36	-52.528	-24.990	91.924	-0.78735	0.53525	-0.29211	0.09030	23.7	13111	100
2025-3-27 20:4:29.472	WT901BLE68-01(48591DE3C19B)	-0.231	-0.985	0.305	25.696	79.651	33.936	-73.06	20.34	-21.98	-52.528	-24.990	91.924	-0.78735	0.53525	-0.29211	0.09030	23.7	13111	100
2025-3-27 20:4:29.472	WT901BLE68-01(48591DE3C19B)	-0.336	-0.985	0.305	25.696	79.651	33.936	-73.09	20.86	-22.69	-52.528	-24.990	91.924	-0.78735	0.53525	-0.29211	0.09030	23.7	13111	100
2025-3-27 20:4:29.472	WT901BLE68-01(48591DE3C19B)	-0.336	-0.770	0.335	-5.432	56.274	34.973	-73.23	21.35	-23.27	-52.528	-24.990	91.924	-0.78735	0.53525	-0.29211	0.09030	23.7	13111	100
2025-3-27 20:4:29.472	WT901BLE68-01(48591DE3C19B)	-0.361	-0.770	0.335	-5.432	56.274	34.973	-73.49	21.80	-23.74	-52.528	-24.990	91.924	-0.78735	0.53525	-0.29211	0.09030	23.7	13111	100
2025-3-27 20:4:29.560	WT901BLE68-01(48591DE3C19B)	-0.361	-0.751	0.341	-26.428	21.667	30.945	-73.78	22.19	-24.04	-52.528	-24.990	91.924	-0.78735	0.53525	-0.29211	0.09030	23.7	13111	100
2025-3-27 20:4:29.560	WT901BLE68-01(48591DE3C19B)	-0.385	-0.751	0.341	-26.428	21.667	30.945	-74.11	22.51	-24.16	-52.528	-24.990	91.924	-0.78735	0.53525	-0.29211	0.09030	23.7	13111	100
2025-3-27 20:4:29.560	WT901BLE68-01(48591DE3C19B)	-0.385	-0.731	0.327	-27.527	4.700	28.992	-74.40	22.80	-24.20	-49.294	-29.302	90.846	-0.78735	0.53525	-0.29211	0.09030	23.7	13111	100
2025-3-27 20:4:29.560	WT901BLE68-01(48591DE3C19B)	-0.429	-0.731	0.327	-27.527	4.700	28.992	-74.67	23.05	-24.15	-49.294	-29.302	90.846	-0.78735	0.53525	-0.29211	0.09030	23.7	13111	100
2025-3-27 20:4:29.561	WT901BLE68-01(48591DE3C19B)	-0.429	-0.655	0.292	-22.827	-7.141	22.705	-74.88	23.27	-24.04	-49.294	-29.302	90.846	-0.78735	0.53525	-0.29211	0.09030	23.7	13111	100
2025-3-27 20:4:29.561	WT901BLE68-01(48591DE3C19B)	-0.446	-0.655	0.292	-22.827	-7.141	22.705	-75.05	23.44	-23.88	-49.294	-29.302	90.846	-0.78735	0.53525	-0.29211	0.09030	23.7	13111	100
2025-3-27 20:4:29.561	WT901BLE68-01(48591DE3C19B)	-0.446	-0.572	0.251	-20.508	-21.362	16.541	-75.17	23.58	-23.65	-49.294	-29.302	90.846	-0.78735	0.53525	-0.29211	0.09030	23.7	13111	100
2025-3-27 20:4:29.562	WT901BLE68-01(48591DE3C19B)	-0.384	-0.572	0.251	-20.508	-21.362	16.541	-75.25	23.66	-23.35	-49.294	-29.302	90.846	-0.78735	0.53525	-0.29211	0.09030	23.7	13111	100
2025-3-27 20:4:29.592	WT901BLE68-01(48591DE3C19B)	-0.384	-0.530	0.219	-17.883	-33.386	11.902	-75.29	23.72	-22.99	-49.294	-29.302	90.846	-0.78735	0.53525	-0.29211	0.09030	23.7	13111	100
2025-3-27 20:4:29.592	WT901BLE68-01(48591DE3C19B)	-0.347	-0.530	0.219	-17.883	-33.386	11.902	-75.29	23.75	-22.57	-49.294	-29.302	90.846	-0.78735	0.53525	-0.29211	0.09030	23.7	13111	100
2025-3-27 20:4:29.592	WT901BLE68-01(48591DE3C19B)	-0.347	-0.534	0.183	-12.817	-41.077	7.813	-75.26	23.75	-22.11	-49.294	-29.302	90.846	-0.78735	0.53525	-0.29211	0.09030	23.7	13111	100
2025-3-27 20:4:29.592	WT901BLE68-01(48591DE3C19B)	-0.322	-0.534	0.183	-12.817	-41.077	7.813	-75.18	23.72	-21.62	-49.294	-29.302	90.846	-0.78735	0.53525	-0.29211	0.09030	23.7	13111	100
2025-3-27 20:4:29.621	WT901BLE68-01(48591DE3C19B)	-0.322	-0.557	0.136	-9.644	-49.194	3.845	-75.08	23.68	-21.09	-49.294	-29.302	90.846	-0.78735	0.53525	-0.29211	0.09030	23.7	13111	100
2025-3-27 20:4:29.621	WT901BLE68-01(48591DE3C19B)	-0.289	-0.557	0.136	-9.644	-49.194	3.845	-74.95	23.59	-20.52	-49.294	-29.302	90.846	-0.78735	0.53525	-0.29211	0.09030	23.7	13111	100
2025-3-27 20:4:29.622	WT901BLE68-01(48591DE3C19B)	-0.289	-0.613	0.106	-7.385	-55.481	1.038	-74.80	23.49	-19.92	-49.294	-29.302	90.846	-0.78735	0.53525	-0.29211	0.09030	23.7	13111	100
2025-3-27 20:4:29.622	WT901BLE68-01(48591DE3C19B)	-0.250	-0.613	0.106	-7.385	-55.481	1.038	-74.63	23.37	-19.31	-49.294	-29.302	90.846	-0.78735	0.53525	-0.29211	0.09030	23.7	13111	100
2025-3-27 20:4:29.680	WT901BLE68-01(48591DE3C19B)	-0.250	-0.688	0.099	-3.296	-53.955	-1.099	-74.45	23.23	-18.70	-49.294	-29.302	90.846	-0.78735	0.53525	-0.29211	0.09030	23.7	13111	100
2025-3-27 20:4:29.680	WT901BLE68-01(48591DE3C19B)	-0.221	-0.688	0.099	-3.296	-53.955	-1.099	-74.27	23.08	-18.12	-49.294	-29.302	90.846	-0.78735	0.53525	-0.29211	0.09030	23.7	13111	100
2025-3-27 20:4:29.680	WT901BLE68-01(48591DE3C19B)	-0.221	-0.703	0.137	5.188	-41.565	-1.770	-74.07	22.94	-17.61	-49.294	-29.302	90.846	-0.78735	0.53525	-0.29211	0.09030	23.7	13111	100
2025-3-27 20:4:29.680	WT901BLE68-01(48591DE3C19B)	-0.205	-0.703	0.137	5.188	-41.565	-1.770	-73.86	22.82	-17.17	-49.294	-29.302	90.846	-0.78735	0.53525	-0.29211	0.09030	23.7	13111	100
2025-3-27 20:4:29.709	WT901BLE68-01(48591DE3C19B)	-0.205	-0.672	0.172	12.512	-21.545	-0.610	-73.66	22.72	-16.83	-49.294	-29.302	90.846	-0.79352	0.55826	-0.24197	-0.00192	23.7	13111	100
2025-3-27 20:4:29.709	WT901BLE68-01(48591DE3C19B)	-0.210	-0.672	0.172	12.512	-21.545	-0.610	-73.46	22.65	-16.61	-49.294	-29.302	90.846	-0.79352	0.55826	-0.24197	-0.00192	23.7	13111	100
2025-3-27 20:4:29.709	WT901BLE68-01(48591DE3C19B)	-0.210	-0.649	0.179	17.517	2.808	2.869	-73.29	22.63	-16.50	-49.294	-29.302	90.846	-0.79352	0.55826	-0.24197	-0.00192	23.7	13111	100
2025-3-27 20:4:29.709	WT901BLE68-01(48591DE3C19B)	-0.248	-0.649	0.179	17.517	2.808	2.869	-73.14	22.66	-16.52	-49.294	-29.302	90.846	-0.79352	0.55826	-0.24197	-0.00192	23.7	13111	100
2025-3-27 20:4:29.739	WT901BLE68-01(48591DE3C19B)	-0.248	-0.634	0.160	19.775	23.010	7.141	-73.01	22.74	-16.64	-49.294	-29.302	90.846	-0.79352	0.55826	-0.24197	-0.00192	23.7	13111	100
2025-3-27 20:4:29.740	WT901BLE68-01(48591DE3C19B)	-0.270	-0.634	0.160	19.775	23.010	7.141	-72.91	22.86	-16.85	-49.294	-29.302	90.846	-0.79352	0.55826	-0.24197	-0.00192	23.7	13111	100
2025-3-27 20:4:29.740	WT901BLE68-01(48591DE3C19B)	-0.270	-0.624	0.145	19.836	34.546	10.498	-72.83	23.02	-17.12	-49.294	-29.302	90.846	-0.79352	0.55826	-0.24197	-0.00192	23.7	13111	100
2025-3-27 20:4:29.740	WT901BLE68-01(48591DE3C19B)	-0.297	-0.624	0.145	19.836	34.546	10.498	-72.78	23.21	-17.44	-49.294	-29.302	90.846	-0.79352	0.55826	-0.24197	-0.00192	23.7	13111	100
2025-3-27 20:4:29.800	WT901BLE68-01(48591DE3C19B)	-0.297	-0.622	0.172	18.372	36.255	13.123	-72.74	23.41	-17.76	-49.294	-29.302	90.846	-0.79352	0.55826	-0.24197	-0.00192	23.7	13111	100
2025-3-27 20:4:29.800	WT901BLE68-01(48591DE3C19B)	-0.343	-0.622	0.172	18.372	36.255	13.123	-72.71	23.64	-18.09	-49.294	-29.302	90.846	-0.79352	0.55826	-0.24197	-0.00192	23.7	13111	100
2025-3-27 20:4:29.800	WT901BLE68-01(48591DE3C19B)	-0.343	-0.651	0.225	14.832	29.053	15.137	-72.67	23.86	-18.37	-49.294	-29.302	90.846	-0.79352	0.55826	-0.24197	-0.00192	23.7	13111	100
2025-3-27 20:4:29.800	WT901BLE68-01(48591DE3C19B)	-0.397	-0.651	0.225	14.832	29.053	15.137	-72.65	24.08	-18.61	-49.294	-29.302	90.846	-0.79352	0.55826	-0.24197	-0.00192	23.7	13111	100
2025-3-27 20:4:29.830	WT901BLE68-01(48591DE3C19B)	-0.397	-0.698	0.283	13.672	17.944	17.334	-72.59	24.30	-18.78	-49.294	-29.302	90.846	-0.79352	0.55826	-0.24197	-0.00192	23.7	13111	100
2025-3-27 20:4:29.830	WT901BLE68-01(48591DE3C19B)	-0.406	-0.698	0.283	13.672	17.944	17.334	-72.52	24.51	-18.89	-49.294	-29.302	90.846	-0.79352	0.55826	-0.24197	-0.00192	23.7	13111	100
2025-3-27 20:4:29.830	WT901BLE68-01(48591DE3C19B)	-0.406	-0.736	0.304	8.301	6.714	18.188	-72.44	24.71	-18.93	-49.294	-29.302	90.846	-0.79352	0.55826	-0.24197	-0.00192	23.7	13111	100
2025-3-27 20:4:29.830	WT901BLE68-01(48591DE3C19B)	-0.399	-0.736	0.304	8.301	6.714	18.188	-72.37	24.91	-18.92	-49.294	-29.302	90.846	-0.79352	0.55826	-0.24197	-0.00192	23.7	13111	100
2025-3-27 20:4:29.891	WT901BLE68-01(48591DE3C19B)	-0.399	-0.983	0.295	-2.319	2.441	10.376	-72.38	25.00	-18.89	-49.294	-29.302	90.846	-0.79352	0.55826	-0.24197	-0.00192	23.7	13111	100
2025-3-27 20:4:29.891	WT901BLE68-01(48591DE3C19B)	-0.429	-0.983	0.295	-2.319	2.441	10.376	-72.41	25.10	-18.86	-49.294	-29.302	90.846	-0.79352	0.55826	-0.24197	-0.00192	23.7	13111	100
2025-3-27 20:4:29.891	WT901BLE68-01(48591DE3C19B)	-0.429	-1.286	0.285	-8.850	8.789	-2.930	-72.54	25.09	-18.94	-49.294	-29.302	90.846	-0.79352	0.55826	-0.24197	-0.00192	23.7	13111	100
2025-3-27 20:4:29.891	WT901BLE68-01(48591DE3C19B)	-0.459	-1.286	0.285	-8.850	8.789	-2.930	-72.68	25.07	-19.03	-49.294	-29.302	90.846	-0.79352	0.55826	-0.24197	-0.00192	23.7	13111	100
2025-3-27 20:4:29.919	WT901BLE68-01(48591DE3C19B)	-0.459	-1.525	0.252	-17.212	17.395	-20.020	-72.97	24.91	-19.27	-49.294	-29.302	90.846	-0.79352	0.55826	-0.24197	-0.00192	23.7	13111	100
2025-3-27 20:4:29.919	WT901BLE68-01(48591DE3C19B)	-0.620	-1.525	0.252	-17.212	17.395	-20.020	-73.26	24.74	-19.51	-49.294	-29.302	90.846	-0.79352	0.55826	-0.24197	-0.00192	23.7	13111	100
2025-3-27 20:4:29.919	WT901BLE68-01(48591DE3C19B)	-0.620	-1.976	0.360	-31.311	16.113	-39.551	-73.71	24.38	-19.80	-49.294	-29.302	90.846	-0.79352	0.55826	-0.24197	-0.00192	23.7	13111	100
2025-3-27 20:4:29.919	WT901BLE68-01(48591DE3C19B)	-0.823	-1.976	0.360	-31.311	16.113	-39.551	-74.16	24.02	-20.09	-49.294	-29.302	90.846	-0.79352	0.55826	-0.24197	-0.00192	23.7	13111	100
2025-3-27 20:4:29.949	WT901BLE68-01(48591DE3C19B)	-0.823	-2.244	0.559	-15.015	6.226	-45.959	-74.41	23.57	-20.29	-48.216	-30.674	89.964	-0.79352	0.55826	-0.24197	-0.00192	23.7	13111	100
2025-3-27 20:4:29.950	WT901BLE68-01(48591DE3C19B)	-0.728	-2.244	0.559	-15.015	6.226	-45.959	-74.65	23.12	-20.48	-48.216	-30.674	89.964	-0.79352	0.55826	-0.24197	-0.00192	23.7	13111	100
2025-3-27 20:4:29.950	WT901BLE68-01(48591DE3C19B)	-0.728	-1.512	0.749	10.010	-14.526	-28.564	-74.53	22.79	-20.40	-48.216	-30.674	89.964	-0.79352	0.55826	-0.24197	-0.00192	23.7	13111	100
2025-3-27 20:4:29.950	WT901BLE68-01(48591DE3C19B)	-0.509	-1.512	0.749	10.010	-14.526	-28.564	-74.40	22.46	-20.32	-48.216	-30.674	89.964	-0.79352	0.55826	-0.24197	-0.00192	23.7	13111	100
2025-3-27 20:4:29.982	WT901BLE68-01(48591DE3C19B)	-0.509	-0.982	0.766	-11.292	-32.959	2.136	-74.37	22.38	-19.96	-48.216	-30.674	89.964	-0.79352	0.55826	-0.24197	-0.00192	23.7	13111	100
2025-3-27 20:4:29.982	WT901BLE68-01(48591DE3C19B)	-0.317	-0.982	0.766	-11.292	-32.959	2.136	-74.33	22.31	-19.60	-48.216	-30.674	89.964	-0.79352	0.55826	-0.24197	-0.00192	23.7	13111	100
2025-3-27 20:4:29.982	WT901BLE68-01(48591DE3C19B)	-0.317	-0.865	0.608	-33.203	-46.265	21.423	-74.42	22.38	-19.04	-48.216	-30.674	89.964	-0.79352	0.55826	-0.24197	-0.00192	23.7	13111	100
2025-3-27 20:4:29.982	WT901BLE68-01(48591DE3C19B)	-0.281	-0.865	0.608	-33.203	-46.265	21.423	-74.51	22.45	-18.49	-48.216	-30.674	89.964	-0.79352	0.55826	-0.24197	-0.00192	23.7	13111	100
2025-3-27 20:4:30.40	WT901BLE68-01(48591DE3C19B)	-0.281	-0.954	0.478	-45.776	-65.552	35.095	-74.62	22.60	-17.70	-48.216	-30.674	89.964	-0.79352	0.55826	-0.24197	-0.00192	23.7	13111	100
2025-3-27 20:4:30.41	WT901BLE68-01(48591DE3C19B)	-0.157	-0.954	0.478	-45.776	-65.552	35.095	-74.74	22.75	-16.92	-48.216	-30.674	89.964	-0.79352	0.55826	-0.24197	-0.00192	23.7	13111	100
2025-3-27 20:4:30.41	WT901BLE68-01(48591DE3C19B)	-0.157	-1.129	0.321	-45.105	-75.500	37.720	-74.80	22.89	-16.03	-48.216	-30.674	89.964	-0.79352	0.55826	-0.24197	-0.00192	23.7	13111	100
2025-3-27 20:4:30.41	WT901BLE68-01(48591DE3C19B)	-0.002	-1.129	0.321	-45.105	-75.500	37.720	-74.86	23.02	-15.16	-48.216	-30.674	89.964	-0.79352	0.55826	-0.24197	-0.00192	23.7	13111	100
2025-3-27 20:4:30.69	WT901BLE68-01(48591DE3C19B)	-0.002	-1.156	0.208	-16.113	-47.058	35.034	-74.76	23.20	-14.59	-48.216	-30.674	89.964	-0.79352	0.55826	-0.24197	-0.00192	23.7	13111	100
2025-3-27 20:4:30.69	WT901BLE68-01(48591DE3C19B)	0.065	-1.156	0.208	-16.113	-47.058	35.034	-74.66	23.36	-14.04	-48.216	-30.674	89.964	-0.79352	0.55826	-0.24197	-0.00192	23.7	13111	100
2025-3-27 20:4:30.69	WT901BLE68-01(48591DE3C19B)	0.065	-0.967	0.161	15.564	11.536	26.611	-74.50	23.59	-14.12	-48.216	-30.674	89.964	-0.79352	0.55826	-0.24197	-0.00192	23.7	13111	100
2025-3-27 20:4:30.69	WT901BLE68-01(48591DE3C19B)	-0.046	-0.967	0.161	15.564	11.536	26.611	-74.36	23.81	-14.22	-48.216	-30.674	89.964	-0.79352	0.55826	-0.24197	-0.00192	23.7	13111	100
2025-3-27 20:4:30.130	WT901BLE68-01(48591DE3C19B)	-0.046	-0.783	0.176	30.579	65.002	13.489	-74.31	24.03	-14.91	-48.216	-30.674	89.964	-0.79352	0.55826	-0.24197	-0.00192	23.7	13111	100
2025-3-27 20:4:30.130	WT901BLE68-01(48591DE3C19B)	-0.235	-0.783	0.176	30.579	65.002	13.489	-74.26	24.26	-15.61	-48.216	-30.674	89.964	-0.79352	0.55826	-0.24197	-0.00192	23.7	13111	100
2025-3-27 20:4:30.131	WT901BLE68-01(48591DE3C19B)	-0.235	-0.696	0.221	31.616	87.585	5.920	-74.31	24.48	-16.56	-48.216	-30.674	89.964	-0.78912	0.55975	-0.25220	-0.01450	23.7	13111	100
2025-3-27 20:4:30.131	WT901BLE68-01(48591DE3C19B)	-0.342	-0.696	0.221	31.616	87.585	5.920	-74.37	24.69	-17.51	-48.216	-30.674	89.964	-0.78912	0.55975	-0.25220	-0.01450	23.7	13111	100
2025-3-27 20:4:30.160	WT901BLE68-01(48591DE3C19B)	-0.342	-0.645	0.283	24.841	75.867	2.625	-74.45	24.85	-18.34	-48.216	-30.674	89.964	-0.78912	0.55975	-0.25220	-0.01450	23.7	13111	100
2025-3-27 20:4:30.160	WT901BLE68-01(48591DE3C19B)	-0.409	-0.645	0.283	24.841	75.867	2.625	-74.52	25.00	-19.16	-48.216	-30.674	89.964	-0.78912	0.55975	-0.25220	-0.01450	23.7	13111	100
2025-3-27 20:4:30.160	WT901BLE68-01(48591DE3C19B)	-0.409	-0.604	0.313	14.038	41.565	0.122	-74.55	25.05	-19.62	-48.216	-30.674	89.964	-0.78912	0.55975	-0.25220	-0.01450	23.7	13111	100
2025-3-27 20:4:30.160	WT901BLE68-01(48591DE3C19B)	-0.437	-0.604	0.313	14.038	41.565	0.122	-74.58	25.11	-20.06	-48.216	-30.674	89.964	-0.78912	0.55975	-0.25220	-0.01450	23.7	13111	100
2025-3-27 20:4:30.190	WT901BLE68-01(48591DE3C19B)	-0.437	-0.599	0.298	1.404	-3.662	-2.197	-74.52	25.04	-20.03	-48.216	-30.674	89.964	-0.78912	0.55975	-0.25220	-0.01450	23.7	13111	100
2025-3-27 20:4:30.190	WT901BLE68-01(48591DE3C19B)	-0.400	-0.599	0.298	1.404	-3.662	-2.197	-74.47	24.97	-19.99	-48.216	-30.674	89.964	-0.78912	0.55975	-0.25220	-0.01450	23.7	13111	100
2025-3-27 20:4:30.190	WT901BLE68-01(48591DE3C19B)	-0.400	-0.658	0.254	-11.597	-45.593	-6.226	-74.36	24.76	-19.51	-48.216	-30.674	89.964	-0.78912	0.55975	-0.25220	-0.01450	23.7	13111	100
2025-3-27 20:4:30.190	WT901BLE68-01(48591DE3C19B)	-0.325	-0.658	0.254	-11.597	-45.593	-6.226	-74.25	24.55	-19.03	-48.216	-30.674	89.964	-0.78912	0.55975	-0.25220	-0.01450	23.7	13111	100
2025-3-27 20:4:30.251	WT901BLE68-01(48591DE3C19B)	-0.325	-0.754	0.241	-17.822	-67.078	-10.620	-74.12	24.25	-18.35	-48.216	-30.674	89.964	-0.78912	0.55975	-0.25220	-0.01450	23.7	13111	100
2025-3-27 20:4:30.252	WT901BLE68-01(48591DE3C19B)	-0.311	-0.754	0.241	-17.822	-67.078	-10.620	-73.99	23.94	-17.67	-48.216	-30.674	89.964	-0.78912	0.55975	-0.25220	-0.01450	23.7	13111	100
2025-3-27 20:4:30.252	WT901BLE68-01(48591DE3C19B)	-0.311	-0.840	0.255	-16.907	-66.467	-15.076	-73.88	23.60	-17.01	-48.216	-30.674	89.964	-0.78912	0.55975	-0.25220	-0.01450	23.7	13111	100
2025-3-27 20:4:30.252	WT901BLE68-01(48591DE3C19B)	-0.325	-0.840	0.255	-16.907	-66.467	-15.076	-73.77	23.25	-16.36	-48.216	-30.674	89.964	-0.78912	0.55975	-0.25220	-0.01450	23.7	13111	100
2025-3-27 20:4:30.282	WT901BLE68-01(48591DE3C19B)	-0.325	-0.869	0.265	-13.062	-56.213	-19.958	-73.67	22.89	-15.84	-48.216	-30.674	89.964	-0.78912	0.55975	-0.25220	-0.01450	23.7	13111	100
2025-3-27 20:4:30.282	WT901BLE68-01(48591DE3C19B)	-0.340	-0.869	0.265	-13.062	-56.213	-19.958	-73.59	22.53	-15.31	-48.216	-30.674	89.964	-0.78912	0.55975	-0.25220	-0.01450	23.7	13111	100
2025-3-27 20:4:30.282	WT901BLE68-01(48591DE3C19B)	-0.340	-0.860	0.261	-10.681	-44.312	-23.010	-73.53	22.17	-14.94	-48.216	-30.674	89.964	-0.78912	0.55975	-0.25220	-0.01450	23.7	13111	100
2025-3-27 20:4:30.282	WT901BLE68-01(48591DE3C19B)	-0.358	-0.860	0.261	-10.681	-44.312	-23.010	-73.48	21.81	-14.55	-44.590	-32.144	89.474	-0.78912	0.55975	-0.25220	-0.01450	23.7	13111	100
2025-3-27 20:4:30.311	WT901BLE68-01(48591DE3C19B)	-0.377	-0.855	0.246	-10.986	-34.241	-25.513	-73.48	21.47	-14.29	-44.590	-32.144	89.474	-0.78912	0.55975	-0.25220	-0.01450	23.7	13111	100
2025-3-27 20:4:30.312	WT901BLE68-01(48591DE3C19B)	-0.377	-0.866	0.240	-12.268	-28.442	-27.039	-73.50	21.13	-14.05	-44.590	-32.144	89.474	-0.78912	0.55975	-0.25220	-0.01450	23.7	13111	100
2025-3-27 20:4:30.312	WT901BLE68-01(48591DE3C19B)	-0.406	-0.866	0.240	-12.268	-28.442	-27.039	-73.54	20.79	-13.85	-44.590	-32.144	89.474	-0.78912	0.55975	-0.25220	-0.01450	23.7	13111	100
2025-3-27 20:4:30.312	WT901BLE68-01(48591DE3C19B)	-0.406	-0.880	0.234	-15.503	-31.067	-26.978	-73.59	20.45	-13.63	-44.590	-32.144	89.474	-0.78912	0.55975	-0.25220	-0.01450	23.7	13111	100
2025-3-27 20:4:30.370	WT901BLE68-01(48591DE3C19B)	-0.395	-0.880	0.234	-15.503	-31.067	-26.978	-73.66	20.11	-13.40	-44.590	-32.144	89.474	-0.78912	0.55975	-0.25220	-0.01450	23.7	13111	100
2025-3-27 20:4:30.370	WT901BLE68-01(48591DE3C19B)	-0.395	-0.896	0.246	-18.799	-38.269	-26.123	-73.73	19.77	-13.13	-44.590	-32.144	89.474	-0.78912	0.55975	-0.25220	-0.01450	23.7	13111	100
2025-3-27 20:4:30.370	WT901BLE68-01(48591DE3C19B)	-0.376	-0.896	0.246	-18.799	-38.269	-26.123	-73.81	19.42	-12.82	-44.590	-32.144	89.474	-0.78912	0.55975	-0.25220	-0.01450	23.7	13111	100
2025-3-27 20:4:30.370	WT901BLE68-01(48591DE3C19B)	-0.376	-0.909	0.262	-19.043	-40.466	-24.475	-73.89	19.09	-12.50	-44.590	-32.144	89.474	-0.78912	0.55975	-0.25220	-0.01450	23.7	13111	100
2025-3-27 20:4:30.399	WT901BLE68-01(48591DE3C19B)	-0.375	-0.909	0.262	-19.043	-40.466	-24.475	-73.97	18.76	-12.16	-44.590	-32.144	89.474	-0.78912	0.55975	-0.25220	-0.01450	23.7	13111	100
2025-3-27 20:4:30.400	WT901BLE68-01(48591DE3C19B)	-0.375	-0.909	0.277	-17.395	-34.607	-21.606	-74.04	18.46	-11.85	-44.590	-32.144	89.474	-0.78912	0.55975	-0.25220	-0.01450	23.7	13111	100
2025-3-27 20:4:30.400	WT901BLE68-01(48591DE3C19B)	-0.384	-0.909	0.277	-17.395	-34.607	-21.606	-74.12	18.18	-11.57	-44.590	-32.144	89.474	-0.78912	0.55975	-0.25220	-0.01450	23.7	13111	100
2025-3-27 20:4:30.400	WT901BLE68-01(48591DE3C19B)	-0.384	-0.914	0.278	-14.893	-28.442	-18.494	-74.20	17.92	-11.32	-44.590	-32.144	89.474	-0.78912	0.55975	-0.25220	-0.01450	23.7	13111	100
