time	DeviceName	AccX(g)	AccY(g)	AccZ(g)	AsX(°/s)	AsY(°/s)	AsZ(°/s)	AngleX(°)	AngleY(°)	AngleZ(°)	HX(uT)	HY(uT)	HZ(uT)	Q0()	Q1()	Q2()	Q3()	Temperature(°C)	Version()	Battery level(%)
2025-3-27 20:35:14.520	WT901BLE68-01(48591DE3C19B)	-0.276	-0.961	0.125	-1.282	-0.671	-2.686	-84.99	17.84	-24.46	-45.472	-50.764	32.536	-0.73489	0.63101	-0.24548	0.03702	30.6	13111	100
2025-3-27 20:35:14.521	WT901BLE68-01(48591DE3C19B)	-0.269	-0.961	0.125	-1.282	-0.671	-2.686	-84.99	17.80	-24.59	-45.472	-50.764	32.536	-0.73489	0.63101	-0.24548	0.03702	30.6	13111	100
2025-3-27 20:35:14.521	WT901BLE68-01(48591DE3C19B)	-0.269	-0.949	0.126	-1.465	0.366	-2.380	-85.00	17.76	-24.74	-45.472	-50.764	32.536	-0.73489	0.63101	-0.24548	0.03702	30.6	13111	100
2025-3-27 20:35:14.521	WT901BLE68-01(48591DE3C19B)	-0.277	-0.949	0.126	-1.465	0.366	-2.380	-85.00	17.72	-24.88	-45.472	-50.764	32.536	-0.73489	0.63101	-0.24548	0.03702	30.6	13111	100
2025-3-27 20:35:14.579	WT901BLE68-01(48591DE3C19B)	-0.277	-0.941	0.128	-1.709	1.160	-1.892	-85.01	17.69	-25.03	-45.472	-50.764	32.536	-0.73489	0.63101	-0.24548	0.03702	30.6	13111	100
2025-3-27 20:35:14.579	WT901BLE68-01(48591DE3C19B)	-0.289	-0.941	0.128	-1.709	1.160	-1.892	-85.02	17.66	-25.18	-44.982	-50.862	32.340	-0.73489	0.63101	-0.24548	0.03702	30.6	13111	100
2025-3-27 20:35:14.580	WT901BLE68-01(48591DE3C19B)	-0.289	-0.938	0.128	-2.319	-0.122	-1.709	-85.03	17.63	-25.32	-44.982	-50.862	32.340	-0.73489	0.63101	-0.24548	0.03702	30.6	13111	100
2025-3-27 20:35:14.580	WT901BLE68-01(48591DE3C19B)	-0.285	-0.938	0.128	-2.319	-0.122	-1.709	-85.03	17.61	-25.45	-44.982	-50.862	32.340	-0.73489	0.63101	-0.24548	0.03702	30.6	13111	100
2025-3-27 20:35:14.609	WT901BLE68-01(48591DE3C19B)	-0.285	-0.943	0.127	-2.686	-1.648	-1.770	-85.05	17.58	-25.57	-44.982	-50.862	32.340	-0.73489	0.63101	-0.24548	0.03702	30.6	13111	100
2025-3-27 20:35:14.609	WT901BLE68-01(48591DE3C19B)	-0.287	-0.943	0.127	-2.686	-1.648	-1.770	-85.05	17.55	-25.69	-44.982	-50.862	32.340	-0.73489	0.63101	-0.24548	0.03702	30.6	13111	100
2025-3-27 20:35:14.610	WT901BLE68-01(48591DE3C19B)	-0.287	-0.954	0.125	-2.441	-2.441	-1.892	-85.06	17.52	-25.79	-44.982	-50.862	32.340	-0.73489	0.63101	-0.24548	0.03702	30.6	13111	100
2025-3-27 20:35:14.610	WT901BLE68-01(48591DE3C19B)	-0.287	-0.954	0.125	-2.441	-2.441	-1.892	-85.06	17.48	-25.90	-44.982	-50.862	32.340	-0.73489	0.63101	-0.24548	0.03702	30.6	13111	100
2025-3-27 20:35:14.639	WT901BLE68-01(48591DE3C19B)	-0.287	-0.956	0.124	-2.075	-3.174	-2.441	-85.06	17.45	-26.00	-44.982	-50.862	32.340	-0.73489	0.63101	-0.24548	0.03702	30.6	13111	100
2025-3-27 20:35:14.639	WT901BLE68-01(48591DE3C19B)	-0.295	-0.956	0.124	-2.075	-3.174	-2.441	-85.05	17.41	-26.10	-44.982	-50.862	32.340	-0.73489	0.63101	-0.24548	0.03702	30.6	13111	100
2025-3-27 20:35:14.639	WT901BLE68-01(48591DE3C19B)	-0.295	-0.938	0.125	-2.014	-4.333	-2.991	-85.05	17.37	-26.19	-44.982	-50.862	32.340	-0.73489	0.63101	-0.24548	0.03702	30.6	13111	100
2025-3-27 20:35:14.639	WT901BLE68-01(48591DE3C19B)	-0.295	-0.938	0.125	-2.014	-4.333	-2.991	-85.04	17.33	-26.27	-44.982	-50.862	32.340	-0.73489	0.63101	-0.24548	0.03702	30.6	13111	100
2025-3-27 20:35:14.699	WT901BLE68-01(48591DE3C19B)	-0.295	-0.910	0.126	-2.869	-6.897	-3.296	-85.03	17.29	-26.33	-44.982	-50.862	32.340	-0.73489	0.63101	-0.24548	0.03702	30.6	13111	100
2025-3-27 20:35:14.699	WT901BLE68-01(48591DE3C19B)	-0.294	-0.910	0.126	-2.869	-6.897	-3.296	-85.02	17.24	-26.38	-44.982	-50.862	32.340	-0.73489	0.63101	-0.24548	0.03702	30.6	13111	100
2025-3-27 20:35:14.699	WT901BLE68-01(48591DE3C19B)	-0.294	-0.889	0.125	-4.211	-9.338	-2.991	-85.02	17.20	-26.41	-44.982	-50.862	32.340	-0.73489	0.63101	-0.24548	0.03702	30.6	13111	100
2025-3-27 20:35:14.699	WT901BLE68-01(48591DE3C19B)	-0.306	-0.889	0.125	-4.211	-9.338	-2.991	-85.02	17.16	-26.44	-44.982	-50.862	32.340	-0.73489	0.63101	-0.24548	0.03702	30.6	13111	100
2025-3-27 20:35:14.731	WT901BLE68-01(48591DE3C19B)	-0.306	-0.890	0.123	-5.554	-12.085	-2.441	-85.02	17.12	-26.44	-44.982	-50.862	32.340	-0.73489	0.63101	-0.24548	0.03702	30.6	13111	100
2025-3-27 20:35:14.731	WT901BLE68-01(48591DE3C19B)	-0.303	-0.890	0.123	-5.554	-12.085	-2.441	-85.03	17.08	-26.44	-44.982	-50.862	32.340	-0.73489	0.63101	-0.24548	0.03702	30.6	13111	100
2025-3-27 20:35:14.731	WT901BLE68-01(48591DE3C19B)	-0.303	-0.906	0.121	-5.920	-15.320	-2.380	-85.02	17.05	-26.40	-44.982	-50.862	32.340	-0.73489	0.63101	-0.24548	0.03702	30.6	13111	100
2025-3-27 20:35:14.731	WT901BLE68-01(48591DE3C19B)	-0.308	-0.906	0.121	-5.920	-15.320	-2.380	-85.02	17.01	-26.36	-44.982	-50.862	32.340	-0.73489	0.63101	-0.24548	0.03702	30.6	13111	100
2025-3-27 20:35:14.765	WT901BLE68-01(48591DE3C19B)	-0.308	-0.930	0.118	-5.188	-16.479	-2.502	-85.01	16.97	-26.31	-44.982	-50.862	32.340	-0.73489	0.63101	-0.24548	0.03702	30.6	13111	100
2025-3-27 20:35:14.766	WT901BLE68-01(48591DE3C19B)	-0.313	-0.930	0.118	-5.188	-16.479	-2.502	-85.00	16.94	-26.26	-44.982	-50.862	32.340	-0.73489	0.63101	-0.24548	0.03702	30.6	13111	100
2025-3-27 20:35:14.766	WT901BLE68-01(48591DE3C19B)	-0.313	-0.971	0.109	-3.296	-16.235	-2.747	-84.96	16.89	-26.22	-44.982	-50.862	32.340	-0.73294	0.62601	-0.25702	0.06882	30.6	13111	100
2025-3-27 20:35:14.766	WT901BLE68-01(48591DE3C19B)	-0.311	-0.971	0.109	-3.296	-16.235	-2.747	-84.93	16.85	-26.17	-44.982	-50.862	32.340	-0.73294	0.62601	-0.25702	0.06882	30.6	13111	100
2025-3-27 20:35:14.819	WT901BLE68-01(48591DE3C19B)	-0.311	-0.999	0.100	-0.610	-13.489	-2.502	-84.89	16.82	-26.15	-44.982	-50.862	32.340	-0.73294	0.62601	-0.25702	0.06882	30.6	13111	100
2025-3-27 20:35:14.819	WT901BLE68-01(48591DE3C19B)	-0.322	-0.999	0.100	-0.610	-13.489	-2.502	-84.84	16.79	-26.13	-44.982	-50.862	32.340	-0.73294	0.62601	-0.25702	0.06882	30.6	13111	100
2025-3-27 20:35:14.820	WT901BLE68-01(48591DE3C19B)	-0.330	-1.019	0.099	1.648	-9.705	-2.258	-84.78	16.76	-26.15	-44.982	-50.862	32.340	-0.73294	0.62601	-0.25702	0.06882	30.6	13111	100
2025-3-27 20:35:14.820	WT901BLE68-01(48591DE3C19B)	-0.330	-1.029	0.099	3.113	-6.653	-2.136	-84.73	16.73	-26.19	-44.982	-50.862	32.340	-0.73294	0.62601	-0.25702	0.06882	30.6	13111	100
2025-3-27 20:35:14.849	WT901BLE68-01(48591DE3C19B)	-0.334	-1.029	0.099	3.113	-6.653	-2.136	-84.67	16.71	-26.24	-44.982	-50.862	32.340	-0.73294	0.62601	-0.25702	0.06882	30.6	13111	100
2025-3-27 20:35:14.849	WT901BLE68-01(48591DE3C19B)	-0.334	-1.023	0.101	4.333	-4.150	-2.258	-84.61	16.69	-26.30	-44.982	-50.862	32.340	-0.73294	0.62601	-0.25702	0.06882	30.6	13111	100
2025-3-27 20:35:14.849	WT901BLE68-01(48591DE3C19B)	-0.340	-1.023	0.101	4.333	-4.150	-2.258	-84.55	16.67	-26.38	-44.982	-50.862	32.340	-0.73294	0.62601	-0.25702	0.06882	30.6	13111	100
2025-3-27 20:35:14.849	WT901BLE68-01(48591DE3C19B)	-0.340	-0.998	0.099	4.944	-2.502	-2.075	-84.48	16.64	-26.46	-44.982	-50.862	32.340	-0.73294	0.62601	-0.25702	0.06882	30.6	13111	100
2025-3-27 20:35:14.878	WT901BLE68-01(48591DE3C19B)	-0.333	-0.998	0.099	4.944	-2.502	-2.075	-84.42	16.63	-26.54	-44.982	-50.862	32.340	-0.73294	0.62601	-0.25702	0.06882	30.6	13111	100
2025-3-27 20:35:14.878	WT901BLE68-01(48591DE3C19B)	-0.333	-0.954	0.095	5.005	-2.075	-1.526	-84.36	16.62	-26.63	-44.982	-50.862	32.340	-0.73294	0.62601	-0.25702	0.06882	30.6	13111	100
2025-3-27 20:35:14.878	WT901BLE68-01(48591DE3C19B)	-0.328	-0.954	0.095	5.005	-2.075	-1.526	-84.30	16.61	-26.72	-44.982	-50.862	32.340	-0.73294	0.62601	-0.25702	0.06882	30.6	13111	100
2025-3-27 20:35:14.878	WT901BLE68-01(48591DE3C19B)	-0.328	-0.907	0.088	4.150	-2.136	-0.488	-84.24	16.61	-26.81	-44.982	-50.862	32.340	-0.73294	0.62601	-0.25702	0.06882	30.6	13111	100
2025-3-27 20:35:14.941	WT901BLE68-01(48591DE3C19B)	-0.327	-0.907	0.088	4.150	-2.136	-0.488	-84.19	16.61	-26.89	-44.982	-50.862	32.340	-0.73294	0.62601	-0.25702	0.06882	30.6	13111	100
2025-3-27 20:35:14.941	WT901BLE68-01(48591DE3C19B)	-0.327	-0.874	0.088	2.808	-3.479	0.366	-84.14	16.61	-26.97	-44.982	-50.862	32.340	-0.73294	0.62601	-0.25702	0.06882	30.6	13111	100
2025-3-27 20:35:14.941	WT901BLE68-01(48591DE3C19B)	-0.322	-0.874	0.088	2.808	-3.479	0.366	-84.11	16.63	-27.03	-44.982	-50.862	32.340	-0.73294	0.62601	-0.25702	0.06882	30.6	13111	100
2025-3-27 20:35:14.942	WT901BLE68-01(48591DE3C19B)	-0.322	-0.858	0.092	0.916	-6.470	0.793	-84.07	16.64	-27.08	-44.982	-50.862	32.340	-0.73294	0.62601	-0.25702	0.06882	30.6	13111	100
2025-3-27 20:35:14.971	WT901BLE68-01(48591DE3C19B)	-0.327	-0.858	0.092	0.916	-6.470	0.793	-84.03	16.66	-27.11	-44.982	-50.862	32.340	-0.73294	0.62601	-0.25702	0.06882	30.6	13111	100
2025-3-27 20:35:14.971	WT901BLE68-01(48591DE3C19B)	-0.327	-0.875	0.095	-0.610	-10.071	0.427	-84.01	16.67	-27.12	-44.982	-50.862	32.340	-0.73294	0.62601	-0.25702	0.06882	30.6	13111	100
2025-3-27 20:35:14.971	WT901BLE68-01(48591DE3C19B)	-0.329	-0.875	0.095	-0.610	-10.071	0.427	-83.98	16.68	-27.11	-44.982	-50.862	32.340	-0.73294	0.62601	-0.25702	0.06882	30.6	13111	100
2025-3-27 20:35:14.971	WT901BLE68-01(48591DE3C19B)	-0.329	-0.897	0.095	-0.305	-13.306	-0.732	-83.95	16.68	-27.08	-44.296	-51.450	31.066	-0.73294	0.62601	-0.25702	0.06882	30.6	13111	100
2025-3-27 20:35:15.1	WT901BLE68-01(48591DE3C19B)	-0.319	-0.897	0.095	-0.305	-13.306	-0.732	-83.91	16.67	-27.04	-44.296	-51.450	31.066	-0.73294	0.62601	-0.25702	0.06882	30.6	13111	100
2025-3-27 20:35:15.1	WT901BLE68-01(48591DE3C19B)	-0.319	-0.901	0.093	0.427	-15.442	-2.014	-83.86	16.66	-26.99	-44.296	-51.450	31.066	-0.73294	0.62601	-0.25702	0.06882	30.6	13111	100
2025-3-27 20:35:15.1	WT901BLE68-01(48591DE3C19B)	-0.309	-0.901	0.093	0.427	-15.442	-2.014	-83.81	16.64	-26.92	-44.296	-51.450	31.066	-0.73294	0.62601	-0.25702	0.06882	30.6	13111	100
2025-3-27 20:35:15.1	WT901BLE68-01(48591DE3C19B)	-0.309	-0.918	0.086	1.770	-14.587	-3.113	-83.76	16.61	-26.87	-44.296	-51.450	31.066	-0.73294	0.62601	-0.25702	0.06882	30.6	13111	100
2025-3-27 20:35:15.66	WT901BLE68-01(48591DE3C19B)	-0.300	-0.918	0.086	1.770	-14.587	-3.113	-83.70	16.58	-26.82	-44.296	-51.450	31.066	-0.73294	0.62601	-0.25702	0.06882	30.6	13111	100
2025-3-27 20:35:15.66	WT901BLE68-01(48591DE3C19B)	-0.300	-0.924	0.084	3.601	-11.230	-3.479	-83.63	16.55	-26.78	-44.296	-51.450	31.066	-0.73294	0.62601	-0.25702	0.06882	30.6	13111	100
2025-3-27 20:35:15.66	WT901BLE68-01(48591DE3C19B)	-0.297	-0.924	0.084	3.601	-11.230	-3.479	-83.57	16.52	-26.77	-44.296	-51.450	31.066	-0.73294	0.62601	-0.25702	0.06882	30.6	13111	100
2025-3-27 20:35:15.66	WT901BLE68-01(48591DE3C19B)	-0.297	-0.912	0.088	4.700	-7.141	-2.808	-83.50	16.50	-26.77	-44.296	-51.450	31.066	-0.73294	0.62601	-0.25702	0.06882	30.6	13111	100
2025-3-27 20:35:15.119	WT901BLE68-01(48591DE3C19B)	-0.297	-0.912	0.088	4.700	-7.141	-2.808	-83.44	16.47	-26.80	-44.296	-51.450	31.066	-0.73294	0.62601	-0.25702	0.06882	30.6	13111	100
2025-3-27 20:35:15.119	WT901BLE68-01(48591DE3C19B)	-0.297	-0.905	0.088	4.761	-3.540	-1.282	-83.38	16.46	-26.85	-44.296	-51.450	31.066	-0.73294	0.62601	-0.25702	0.06882	30.6	13111	100
2025-3-27 20:35:15.119	WT901BLE68-01(48591DE3C19B)	-0.291	-0.905	0.088	4.761	-3.540	-1.282	-83.33	16.46	-26.92	-44.296	-51.450	31.066	-0.73294	0.62601	-0.25702	0.06882	30.6	13111	100
2025-3-27 20:35:15.119	WT901BLE68-01(48591DE3C19B)	-0.291	-0.893	0.078	4.272	-1.526	0.549	-83.28	16.47	-26.99	-44.296	-51.450	31.066	-0.73294	0.62601	-0.25702	0.06882	30.6	13111	100
2025-3-27 20:35:15.148	WT901BLE68-01(48591DE3C19B)	-0.283	-0.893	0.078	4.272	-1.526	0.549	-83.23	16.48	-27.07	-44.296	-51.450	31.066	-0.73294	0.62601	-0.25702	0.06882	30.6	13111	100
2025-3-27 20:35:15.148	WT901BLE68-01(48591DE3C19B)	-0.283	-0.898	0.068	3.540	-0.488	2.197	-83.19	16.51	-27.16	-44.296	-51.450	31.066	-0.73294	0.62601	-0.25702	0.06882	30.6	13111	100
2025-3-27 20:35:15.148	WT901BLE68-01(48591DE3C19B)	-0.273	-0.898	0.068	3.540	-0.488	2.197	-83.17	16.55	-27.25	-44.296	-51.450	31.066	-0.73294	0.62601	-0.25702	0.06882	30.6	13111	100
2025-3-27 20:35:15.148	WT901BLE68-01(48591DE3C19B)	-0.273	-0.889	0.070	3.296	-0.183	3.540	-83.14	16.58	-27.34	-44.296	-51.450	31.066	-0.73294	0.62601	-0.25702	0.06882	30.6	13111	100
2025-3-27 20:35:15.209	WT901BLE68-01(48591DE3C19B)	-0.251	-0.889	0.070	3.296	-0.183	3.540	-83.11	16.63	-27.43	-44.296	-51.450	31.066	-0.73294	0.62601	-0.25702	0.06882	30.6	13111	100
2025-3-27 20:35:15.209	WT901BLE68-01(48591DE3C19B)	-0.251	-0.872	0.075	2.625	0.366	4.944	-83.09	16.68	-27.53	-44.296	-51.450	31.066	-0.73294	0.62601	-0.25702	0.06882	30.6	13111	100
2025-3-27 20:35:15.210	WT901BLE68-01(48591DE3C19B)	-0.231	-0.872	0.075	2.625	0.366	4.944	-83.07	16.74	-27.63	-44.296	-51.450	31.066	-0.73294	0.62601	-0.25702	0.06882	30.6	13111	100
2025-3-27 20:35:15.210	WT901BLE68-01(48591DE3C19B)	-0.231	-0.845	0.075	2.563	2.869	6.165	-83.06	16.80	-27.73	-44.296	-51.450	31.066	-0.74216	0.61026	-0.26395	0.08365	30.6	13111	100
2025-3-27 20:35:15.211	WT901BLE68-01(48591DE3C19B)	-0.214	-0.845	0.075	2.563	2.869	6.165	-83.05	16.88	-27.86	-44.296	-51.450	31.066	-0.74216	0.61026	-0.26395	0.08365	30.6	13111	100
2025-3-27 20:35:15.211	WT901BLE68-01(48591DE3C19B)	-0.214	-0.827	0.071	2.686	7.080	6.409	-83.05	16.95	-28.01	-44.296	-51.450	31.066	-0.74216	0.61026	-0.26395	0.08365	30.6	13111	100
2025-3-27 20:35:15.211	WT901BLE68-01(48591DE3C19B)	-0.204	-0.827	0.071	2.686	7.080	6.409	-83.05	17.02	-28.17	-44.296	-51.450	31.066	-0.74216	0.61026	-0.26395	0.08365	30.6	13111	100
2025-3-27 20:35:15.211	WT901BLE68-01(48591DE3C19B)	-0.204	-0.811	0.068	3.113	10.864	5.371	-83.06	17.09	-28.37	-44.296	-51.450	31.066	-0.74216	0.61026	-0.26395	0.08365	30.6	13111	100
2025-3-27 20:35:15.268	WT901BLE68-01(48591DE3C19B)	-0.216	-0.811	0.068	3.113	10.864	5.371	-83.07	17.15	-28.58	-44.296	-51.450	31.066	-0.74216	0.61026	-0.26395	0.08365	30.6	13111	100
2025-3-27 20:35:15.269	WT901BLE68-01(48591DE3C19B)	-0.216	-0.812	0.072	3.235	13.733	3.418	-83.08	17.20	-28.80	-44.296	-51.450	31.066	-0.74216	0.61026	-0.26395	0.08365	30.6	13111	100
2025-3-27 20:35:15.269	WT901BLE68-01(48591DE3C19B)	-0.237	-0.812	0.072	3.235	13.733	3.418	-83.11	17.25	-29.04	-44.296	-51.450	31.066	-0.74216	0.61026	-0.26395	0.08365	30.6	13111	100
2025-3-27 20:35:15.269	WT901BLE68-01(48591DE3C19B)	-0.237	-0.827	0.078	4.578	14.282	1.282	-83.12	17.29	-29.29	-44.296	-51.450	31.066	-0.74216	0.61026	-0.26395	0.08365	30.6	13111	100
2025-3-27 20:35:15.330	WT901BLE68-01(48591DE3C19B)	-0.247	-0.827	0.078	4.578	14.282	1.282	-83.13	17.31	-29.54	-44.296	-51.450	31.066	-0.74216	0.61026	-0.26395	0.08365	30.6	13111	100
2025-3-27 20:35:15.330	WT901BLE68-01(48591DE3C19B)	-0.247	-0.835	0.078	6.104	14.282	-0.671	-83.12	17.31	-29.78	-44.296	-51.450	31.066	-0.74216	0.61026	-0.26395	0.08365	30.6	13111	100
2025-3-27 20:35:15.330	WT901BLE68-01(48591DE3C19B)	-0.243	-0.835	0.078	6.104	14.282	-0.671	-83.12	17.32	-30.03	-44.296	-51.450	31.066	-0.74216	0.61026	-0.26395	0.08365	30.6	13111	100
2025-3-27 20:35:15.330	WT901BLE68-01(48591DE3C19B)	-0.243	-0.843	0.070	8.850	16.113	-2.563	-83.10	17.31	-30.29	-44.296	-51.450	31.066	-0.74216	0.61026	-0.26395	0.08365	30.6	13111	100
2025-3-27 20:35:15.331	WT901BLE68-01(48591DE3C19B)	-0.243	-0.843	0.070	8.850	16.113	-2.563	-83.07	17.30	-30.56	-44.296	-51.450	31.066	-0.74216	0.61026	-0.26395	0.08365	30.6	13111	100
2025-3-27 20:35:15.331	WT901BLE68-01(48591DE3C19B)	-0.243	-0.844	0.055	11.353	21.362	-4.211	-83.03	17.28	-30.88	-44.296	-51.450	31.066	-0.74216	0.61026	-0.26395	0.08365	30.6	13111	100
2025-3-27 20:35:15.331	WT901BLE68-01(48591DE3C19B)	-0.273	-0.844	0.055	11.353	21.362	-4.211	-83.00	17.25	-31.20	-44.296	-51.450	31.066	-0.74216	0.61026	-0.26395	0.08365	30.6	13111	100
2025-3-27 20:35:15.331	WT901BLE68-01(48591DE3C19B)	-0.273	-0.852	0.047	12.451	26.428	-6.470	-82.97	17.22	-31.56	-44.296	-51.450	31.066	-0.74216	0.61026	-0.26395	0.08365	30.6	13111	100
2025-3-27 20:35:15.389	WT901BLE68-01(48591DE3C19B)	-0.333	-0.852	0.047	12.451	26.428	-6.470	-82.95	17.18	-31.92	-44.296	-51.450	31.066	-0.74216	0.61026	-0.26395	0.08365	30.6	13111	100
2025-3-27 20:35:15.389	WT901BLE68-01(48591DE3C19B)	-0.333	-0.881	0.063	12.939	27.649	-9.460	-82.92	17.12	-32.29	-41.944	-52.920	29.596	-0.74216	0.61026	-0.26395	0.08365	30.6	13111	100
2025-3-27 20:35:15.389	WT901BLE68-01(48591DE3C19B)	-0.396	-0.881	0.063	12.939	27.649	-9.460	-82.90	17.06	-32.66	-41.944	-52.920	29.596	-0.74216	0.61026	-0.26395	0.08365	30.6	13111	100
2025-3-27 20:35:15.389	WT901BLE68-01(48591DE3C19B)	-0.396	-0.917	0.094	13.672	24.231	-12.756	-82.86	16.97	-32.98	-41.944	-52.920	29.596	-0.74216	0.61026	-0.26395	0.08365	30.6	13111	100
2025-3-27 20:35:15.418	WT901BLE68-01(48591DE3C19B)	-0.447	-0.917	0.094	13.672	24.231	-12.756	-82.81	16.89	-33.29	-41.944	-52.920	29.596	-0.74216	0.61026	-0.26395	0.08365	30.6	13111	100
2025-3-27 20:35:15.418	WT901BLE68-01(48591DE3C19B)	-0.447	-0.917	0.160	17.517	18.738	-14.404	-82.71	16.78	-33.55	-41.944	-52.920	29.596	-0.74216	0.61026	-0.26395	0.08365	30.6	13111	100
2025-3-27 20:35:15.418	WT901BLE68-01(48591DE3C19B)	-0.475	-0.917	0.160	17.517	18.738	-14.404	-82.61	16.68	-33.80	-41.944	-52.920	29.596	-0.74216	0.61026	-0.26395	0.08365	30.6	13111	100
2025-3-27 20:35:15.418	WT901BLE68-01(48591DE3C19B)	-0.475	-0.830	0.233	24.658	18.005	-11.719	-82.42	16.61	-34.02	-41.944	-52.920	29.596	-0.74216	0.61026	-0.26395	0.08365	30.6	13111	100
2025-3-27 20:35:15.449	WT901BLE68-01(48591DE3C19B)	-0.467	-0.830	0.233	24.658	18.005	-11.719	-82.23	16.55	-34.25	-41.944	-52.920	29.596	-0.74216	0.61026	-0.26395	0.08365	30.6	13111	100
2025-3-27 20:35:15.449	WT901BLE68-01(48591DE3C19B)	-0.467	-0.721	0.283	33.630	22.156	-2.563	-81.96	16.59	-34.50	-41.944	-52.920	29.596	-0.74216	0.61026	-0.26395	0.08365	30.6	13111	100
2025-3-27 20:35:15.449	WT901BLE68-01(48591DE3C19B)	-0.414	-0.721	0.283	33.630	22.156	-2.563	-81.68	16.63	-34.73	-41.944	-52.920	29.596	-0.74216	0.61026	-0.26395	0.08365	30.6	13111	100
2025-3-27 20:35:15.449	WT901BLE68-01(48591DE3C19B)	-0.414	-0.626	0.283	38.635	32.959	8.911	-81.38	16.81	-35.06	-41.944	-52.920	29.596	-0.74216	0.61026	-0.26395	0.08365	30.6	13111	100
2025-3-27 20:35:15.509	WT901BLE68-01(48591DE3C19B)	-0.314	-0.626	0.283	38.635	32.959	8.911	-81.07	17.00	-35.38	-41.944	-52.920	29.596	-0.74216	0.61026	-0.26395	0.08365	30.6	13111	100
2025-3-27 20:35:15.509	WT901BLE68-01(48591DE3C19B)	-0.314	-0.580	0.234	37.170	50.659	23.743	-80.82	17.36	-35.85	-41.944	-52.920	29.596	-0.74216	0.61026	-0.26395	0.08365	30.6	13111	100
2025-3-27 20:35:15.509	WT901BLE68-01(48591DE3C19B)	-0.249	-0.580	0.234	37.170	50.659	23.743	-80.57	17.72	-36.33	-41.944	-52.920	29.596	-0.74216	0.61026	-0.26395	0.08365	30.6	13111	100
2025-3-27 20:35:15.509	WT901BLE68-01(48591DE3C19B)	-0.125	-0.671	0.148	25.452	61.218	34.180	-80.47	18.20	-36.89	-41.944	-52.920	29.596	-0.74216	0.61026	-0.26395	0.08365	30.6	13111	100
2025-3-27 20:35:15.541	WT901BLE68-01(48591DE3C19B)	-0.346	-0.335	0.074	25.452	61.218	34.180	-80.38	18.68	-37.45	-41.944	-52.920	29.596	-0.74216	0.61026	-0.26395	0.08365	30.6	13111	100
2025-3-27 20:35:15.541	WT901BLE68-01(48591DE3C19B)	-0.346	-0.917	0.172	16.052	66.223	39.246	-80.40	19.20	-38.05	-41.944	-52.920	29.596	-0.74216	0.61026	-0.26395	0.08365	30.6	13111	100
2025-3-27 20:35:15.541	WT901BLE68-01(48591DE3C19B)	-0.518	-0.917	0.172	16.052	66.223	39.246	-80.43	19.73	-38.65	-41.944	-52.920	29.596	-0.74216	0.61026	-0.26395	0.08365	30.6	13111	100
2025-3-27 20:35:15.541	WT901BLE68-01(48591DE3C19B)	-0.518	-1.147	0.267	9.888	58.472	41.321	-80.50	20.25	-39.17	-41.944	-52.920	29.596	-0.74216	0.61026	-0.26395	0.08365	30.6	13111	100
2025-3-27 20:35:15.571	WT901BLE68-01(48591DE3C19B)	-1.159	-1.147	0.267	9.888	58.472	41.321	-80.57	20.78	-39.68	-41.944	-52.920	29.596	-0.74216	0.61026	-0.26395	0.08365	30.6	13111	100
2025-3-27 20:35:15.571	WT901BLE68-01(48591DE3C19B)	-4.638	-2.469	0.685	2.319	36.743	36.865	-80.64	21.21	-39.96	-41.944	-52.920	29.596	-0.74216	0.61026	-0.26395	0.08365	30.6	13111	100
2025-3-27 20:35:15.571	WT901BLE68-01(48591DE3C19B)	-0.620	-9.875	2.739	2.319	36.743	36.865	-80.71	21.65	-40.25	-41.944	-52.920	29.596	-0.74451	0.54742	-0.35440	0.14258	30.6	13111	100
2025-3-27 20:35:15.571	WT901BLE68-01(48591DE3C19B)	-0.620	-1.292	0.382	-5.005	15.625	27.771	-80.77	21.97	-40.33	-41.944	-52.920	29.596	-0.74451	0.54742	-0.35440	0.14258	30.6	13111	100
2025-3-27 20:35:15.629	WT901BLE68-01(48591DE3C19B)	-0.651	-1.292	0.382	-5.005	15.625	27.771	-80.83	22.28	-40.41	-41.944	-52.920	29.596	-0.74451	0.54742	-0.35440	0.14258	30.6	13111	100
2025-3-27 20:35:15.630	WT901BLE68-01(48591DE3C19B)	-0.651	-1.233	0.389	-9.521	-10.193	17.517	-80.84	22.45	-40.23	-41.944	-52.920	29.596	-0.74451	0.54742	-0.35440	0.14258	30.6	13111	100
2025-3-27 20:35:15.630	WT901BLE68-01(48591DE3C19B)	-0.570	-1.233	0.389	-9.521	-10.193	17.517	-80.85	22.62	-40.05	-41.944	-52.920	29.596	-0.74451	0.54742	-0.35440	0.14258	30.6	13111	100
2025-3-27 20:35:15.630	WT901BLE68-01(48591DE3C19B)	-0.570	-1.046	0.357	-13.794	-37.659	10.437	-80.79	22.68	-39.58	-41.944	-52.920	29.596	-0.74451	0.54742	-0.35440	0.14258	30.6	13111	100
2025-3-27 20:35:15.666	WT901BLE68-01(48591DE3C19B)	-0.456	-1.046	0.357	-13.794	-37.659	10.437	-80.73	22.74	-39.13	-41.944	-52.920	29.596	-0.74451	0.54742	-0.35440	0.14258	30.6	13111	100
2025-3-27 20:35:15.666	WT901BLE68-01(48591DE3C19B)	-0.456	-0.974	0.306	-18.127	-48.035	8.911	-80.67	22.76	-38.56	-41.944	-52.920	29.596	-0.74451	0.54742	-0.35440	0.14258	30.6	13111	100
2025-3-27 20:35:15.666	WT901BLE68-01(48591DE3C19B)	-0.415	-0.974	0.306	-18.127	-48.035	8.911	-80.60	22.79	-38.01	-41.944	-52.920	29.596	-0.74451	0.54742	-0.35440	0.14258	30.6	13111	100
2025-3-27 20:35:15.666	WT901BLE68-01(48591DE3C19B)	-0.415	-0.987	0.249	-13.550	-44.189	7.751	-80.51	22.80	-37.51	-41.944	-52.920	29.596	-0.74451	0.54742	-0.35440	0.14258	30.6	13111	100
2025-3-27 20:35:15.689	WT901BLE68-01(48591DE3C19B)	-0.385	-0.987	0.249	-13.550	-44.189	7.751	-80.42	22.82	-37.01	-41.944	-52.920	29.596	-0.74451	0.54742	-0.35440	0.14258	30.6	13111	100
2025-3-27 20:35:15.689	WT901BLE68-01(48591DE3C19B)	-0.385	-0.940	0.205	-6.836	-41.809	6.836	-80.28	22.82	-36.56	-41.944	-52.920	29.596	-0.74451	0.54742	-0.35440	0.14258	30.6	13111	100
2025-3-27 20:35:15.689	WT901BLE68-01(48591DE3C19B)	-0.306	-0.940	0.205	-6.836	-41.809	6.836	-80.13	22.83	-36.10	-41.944	-52.920	29.596	-0.74451	0.54742	-0.35440	0.14258	30.6	13111	100
2025-3-27 20:35:15.689	WT901BLE68-01(48591DE3C19B)	-0.306	-0.857	0.156	-1.343	-37.170	8.118	-79.96	22.85	-35.71	-41.944	-52.920	29.596	-0.74451	0.54742	-0.35440	0.14258	30.6	13111	100
2025-3-27 20:35:15.751	WT901BLE68-01(48591DE3C19B)	-0.268	-0.857	0.156	-1.343	-37.170	8.118	-79.78	22.87	-35.32	-41.944	-52.920	29.596	-0.74451	0.54742	-0.35440	0.14258	30.6	13111	100
2025-3-27 20:35:15.751	WT901BLE68-01(48591DE3C19B)	-0.305	-0.799	0.112	4.517	-22.522	10.376	-79.62	22.93	-35.08	-41.944	-52.920	29.596	-0.74451	0.54742	-0.35440	0.14258	30.6	13111	100
2025-3-27 20:35:15.751	WT901BLE68-01(48591DE3C19B)	-0.305	-0.770	0.093	7.324	-8.728	10.986	-79.46	23.01	-34.93	-41.944	-52.920	29.596	-0.74451	0.54742	-0.35440	0.14258	30.6	13111	100
2025-3-27 20:35:15.751	WT901BLE68-01(48591DE3C19B)	-0.345	-0.770	0.093	7.324	-8.728	10.986	-79.33	23.09	-34.84	-41.944	-52.920	29.596	-0.74451	0.54742	-0.35440	0.14258	30.6	13111	100
2025-3-27 20:35:15.781	WT901BLE68-01(48591DE3C19B)	-0.345	-0.793	0.117	7.080	-3.357	10.559	-79.21	23.19	-34.79	-41.944	-52.920	29.596	-0.74451	0.54742	-0.35440	0.14258	30.6	13111	100
2025-3-27 20:35:15.781	WT901BLE68-01(48591DE3C19B)	-0.352	-0.793	0.117	7.080	-3.357	10.559	-79.11	23.28	-34.76	-41.944	-52.920	29.596	-0.74451	0.54742	-0.35440	0.14258	30.6	13111	100
2025-3-27 20:35:15.781	WT901BLE68-01(48591DE3C19B)	-0.352	-0.835	0.146	5.554	-0.793	9.888	-79.02	23.37	-34.74	-41.944	-52.920	29.596	-0.74451	0.54742	-0.35440	0.14258	30.6	13111	100
2025-3-27 20:35:15.781	WT901BLE68-01(48591DE3C19B)	-0.348	-0.835	0.146	5.554	-0.793	9.888	-78.95	23.47	-34.73	-38.220	-57.330	26.460	-0.74451	0.54742	-0.35440	0.14258	30.6	13111	100
2025-3-27 20:35:15.811	WT901BLE68-01(48591DE3C19B)	-0.348	-0.812	0.166	4.395	1.709	8.911	-78.89	23.55	-34.74	-38.220	-57.330	26.460	-0.74451	0.54742	-0.35440	0.14258	30.6	13111	100
2025-3-27 20:35:15.811	WT901BLE68-01(48591DE3C19B)	-0.346	-0.812	0.166	4.395	1.709	8.911	-78.84	23.64	-34.77	-38.220	-57.330	26.460	-0.74451	0.54742	-0.35440	0.14258	30.6	13111	100
2025-3-27 20:35:15.811	WT901BLE68-01(48591DE3C19B)	-0.346	-0.775	0.170	0.305	4.150	7.385	-78.82	23.72	-34.81	-38.220	-57.330	26.460	-0.74451	0.54742	-0.35440	0.14258	30.6	13111	100
2025-3-27 20:35:15.811	WT901BLE68-01(48591DE3C19B)	-0.372	-0.775	0.170	0.305	4.150	7.385	-78.83	23.80	-34.87	-38.220	-57.330	26.460	-0.74451	0.54742	-0.35440	0.14258	30.6	13111	100
2025-3-27 20:35:15.869	WT901BLE68-01(48591DE3C19B)	-0.372	-0.749	0.170	-3.662	4.517	4.761	-78.85	23.86	-34.93	-38.220	-57.330	26.460	-0.74451	0.54742	-0.35440	0.14258	30.6	13111	100
2025-3-27 20:35:15.869	WT901BLE68-01(48591DE3C19B)	-0.389	-0.749	0.170	-3.662	4.517	4.761	-78.90	23.91	-34.99	-38.220	-57.330	26.460	-0.74451	0.54742	-0.35440	0.14258	30.6	13111	100
2025-3-27 20:35:15.869	WT901BLE68-01(48591DE3C19B)	-0.389	-0.722	0.164	-8.850	-1.221	2.197	-78.96	23.94	-35.01	-38.220	-57.330	26.460	-0.74451	0.54742	-0.35440	0.14258	30.6	13111	100
2025-3-27 20:35:15.869	WT901BLE68-01(48591DE3C19B)	-0.379	-0.722	0.164	-8.850	-1.221	2.197	-79.04	23.96	-35.01	-38.220	-57.330	26.460	-0.74451	0.54742	-0.35440	0.14258	30.6	13111	100
2025-3-27 20:35:15.898	WT901BLE68-01(48591DE3C19B)	-0.379	-0.706	0.156	-13.855	-10.620	0.793	-79.11	23.97	-34.95	-38.220	-57.330	26.460	-0.74451	0.54742	-0.35440	0.14258	30.6	13111	100
2025-3-27 20:35:15.898	WT901BLE68-01(48591DE3C19B)	-0.342	-0.706	0.156	-13.855	-10.620	0.793	-79.19	23.96	-34.83	-38.220	-57.330	26.460	-0.74451	0.54742	-0.35440	0.14258	30.6	13111	100
2025-3-27 20:35:15.898	WT901BLE68-01(48591DE3C19B)	-0.342	-0.657	0.150	-15.747	-17.944	2.808	-79.27	23.96	-34.67	-38.220	-57.330	26.460	-0.74451	0.54742	-0.35440	0.14258	30.6	13111	100
2025-3-27 20:35:15.898	WT901BLE68-01(48591DE3C19B)	-0.290	-0.657	0.150	-15.747	-17.944	2.808	-79.34	23.96	-34.47	-38.220	-57.330	26.460	-0.74451	0.54742	-0.35440	0.14258	30.6	13111	100
2025-3-27 20:35:15.930	WT901BLE68-01(48591DE3C19B)	-0.290	-0.536	0.157	-16.357	-22.705	8.301	-79.39	23.98	-34.24	-38.220	-57.330	26.460	-0.74451	0.54742	-0.35440	0.14258	30.6	13111	100
2025-3-27 20:35:15.930	WT901BLE68-01(48591DE3C19B)	-0.242	-0.536	0.157	-16.357	-22.705	8.301	-79.44	24.03	-33.99	-38.220	-57.330	26.460	-0.74451	0.54742	-0.35440	0.14258	30.6	13111	100
2025-3-27 20:35:15.930	WT901BLE68-01(48591DE3C19B)	-0.242	-0.433	0.170	-19.104	-21.729	16.968	-79.49	24.11	-33.74	-38.220	-57.330	26.460	-0.74451	0.54742	-0.35440	0.14258	30.6	13111	100
2025-3-27 20:35:15.930	WT901BLE68-01(48591DE3C19B)	-0.201	-0.433	0.170	-19.104	-21.729	16.968	-79.56	24.25	-33.50	-38.220	-57.330	26.460	-0.74451	0.54742	-0.35440	0.14258	30.6	13111	100
2025-3-27 20:35:15.989	WT901BLE68-01(48591DE3C19B)	-0.201	-0.467	0.183	-25.208	-20.264	23.193	-79.65	24.42	-33.28	-38.220	-57.330	26.460	-0.74451	0.54742	-0.35440	0.14258	30.6	13111	100
2025-3-27 20:35:15.990	WT901BLE68-01(48591DE3C19B)	-0.220	-0.467	0.183	-25.208	-20.264	23.193	-79.76	24.61	-33.10	-38.220	-57.330	26.460	-0.74451	0.54742	-0.35440	0.14258	30.6	13111	100
2025-3-27 20:35:15.990	WT901BLE68-01(48591DE3C19B)	-0.220	-0.650	0.190	-27.893	-19.958	24.902	-79.89	24.81	-32.95	-38.220	-57.330	26.460	-0.74451	0.54742	-0.35440	0.14258	30.6	13111	100
2025-3-27 20:35:15.990	WT901BLE68-01(48591DE3C19B)	-0.302	-0.650	0.190	-27.893	-19.958	24.902	-80.02	25.01	-32.84	-38.220	-57.330	26.460	-0.74451	0.54742	-0.35440	0.14258	30.6	13111	100
2025-3-27 20:35:16.21	WT901BLE68-01(48591DE3C19B)	-0.302	-0.873	0.162	-26.550	-22.522	21.606	-80.16	25.19	-32.74	-38.220	-57.330	26.460	-0.75601	0.55579	-0.33719	0.07581	30.6	13111	100
2025-3-27 20:35:16.21	WT901BLE68-01(48591DE3C19B)	-0.355	-0.873	0.162	-26.550	-22.522	21.606	-80.28	25.34	-32.65	-38.220	-57.330	26.460	-0.75601	0.55579	-0.33719	0.07581	30.6	13111	100
2025-3-27 20:35:16.21	WT901BLE68-01(48591DE3C19B)	-0.355	-1.150	0.129	-24.292	-33.691	11.719	-80.36	25.43	-32.50	-38.220	-57.330	26.460	-0.75601	0.55579	-0.33719	0.07581	30.6	13111	100
2025-3-27 20:35:16.22	WT901BLE68-01(48591DE3C19B)	-0.397	-1.150	0.129	-24.292	-33.691	11.719	-80.43	25.47	-32.31	-38.220	-57.330	26.460	-0.75601	0.55579	-0.33719	0.07581	30.6	13111	100
2025-3-27 20:35:16.51	WT901BLE68-01(48591DE3C19B)	-0.397	-1.505	0.106	-17.822	-38.818	0.488	-80.46	25.44	-32.09	-38.220	-57.330	26.460	-0.75601	0.55579	-0.33719	0.07581	30.6	13111	100
2025-3-27 20:35:16.51	WT901BLE68-01(48591DE3C19B)	-0.412	-1.505	0.106	-17.822	-38.818	0.488	-80.46	25.35	-31.84	-38.220	-57.330	26.460	-0.75601	0.55579	-0.33719	0.07581	30.6	13111	100
2025-3-27 20:35:16.51	WT901BLE68-01(48591DE3C19B)	-0.412	-1.799	0.074	-3.967	-37.170	-9.094	-80.41	25.21	-31.62	-38.220	-57.330	26.460	-0.75601	0.55579	-0.33719	0.07581	30.6	13111	100
2025-3-27 20:35:16.51	WT901BLE68-01(48591DE3C19B)	-0.357	-1.799	0.074	-3.967	-37.170	-9.094	-80.30	25.02	-31.42	-38.220	-57.330	26.460	-0.75601	0.55579	-0.33719	0.07581	30.6	13111	100
2025-3-27 20:35:16.109	WT901BLE68-01(48591DE3C19B)	-0.357	-1.748	0.100	11.169	-29.053	-7.507	-80.15	24.84	-31.27	-38.220	-57.330	26.460	-0.75601	0.55579	-0.33719	0.07581	30.6	13111	100
2025-3-27 20:35:16.110	WT901BLE68-01(48591DE3C19B)	-0.238	-1.748	0.100	11.169	-29.053	-7.507	-79.95	24.67	-31.16	-38.220	-57.330	26.460	-0.75601	0.55579	-0.33719	0.07581	30.6	13111	100
2025-3-27 20:35:16.110	WT901BLE68-01(48591DE3C19B)	-0.238	-1.414	0.143	16.663	-8.667	-2.563	-79.77	24.54	-31.17	-38.220	-57.330	26.460	-0.75601	0.55579	-0.33719	0.07581	30.6	13111	100
2025-3-27 20:35:16.110	WT901BLE68-01(48591DE3C19B)	-0.126	-1.414	0.143	16.663	-8.667	-2.563	-79.61	24.46	-31.28	-38.220	-57.330	26.460	-0.75601	0.55579	-0.33719	0.07581	30.6	13111	100
2025-3-27 20:35:16.169	WT901BLE68-01(48591DE3C19B)	-0.126	-1.206	0.188	12.451	19.653	1.831	-79.54	24.41	-31.56	-38.220	-57.330	26.460	-0.75601	0.55579	-0.33719	0.07581	30.6	13111	100
2025-3-27 20:35:16.169	WT901BLE68-01(48591DE3C19B)	-0.139	-1.206	0.188	12.451	19.653	1.831	-79.54	24.41	-31.99	-38.220	-57.330	26.460	-0.75601	0.55579	-0.33719	0.07581	30.6	13111	100
2025-3-27 20:35:16.169	WT901BLE68-01(48591DE3C19B)	-0.139	-1.077	0.233	9.644	42.542	1.465	-79.61	24.42	-32.55	-38.220	-57.330	26.460	-0.75601	0.55579	-0.33719	0.07581	30.6	13111	100
2025-3-27 20:35:16.169	WT901BLE68-01(48591DE3C19B)	-0.215	-1.077	0.233	9.644	42.542	1.465	-79.75	24.45	-33.24	-38.220	-57.330	26.460	-0.75601	0.55579	-0.33719	0.07581	30.6	13111	100
2025-3-27 20:35:16.170	WT901BLE68-01(48591DE3C19B)	-0.215	-0.983	0.234	8.484	50.781	-5.005	-79.91	24.45	-33.99	-38.220	-57.330	26.460	-0.75601	0.55579	-0.33719	0.07581	30.6	13111	100
2025-3-27 20:35:16.170	WT901BLE68-01(48591DE3C19B)	-0.240	-0.983	0.234	8.484	50.781	-5.005	-80.10	24.42	-34.78	-38.220	-57.330	26.460	-0.75601	0.55579	-0.33719	0.07581	30.6	13111	100
2025-3-27 20:35:16.170	WT901BLE68-01(48591DE3C19B)	-0.240	-0.785	0.215	14.221	51.697	-13.123	-80.25	24.35	-35.59	-38.220	-57.330	26.460	-0.75601	0.55579	-0.33719	0.07581	30.6	13111	100
2025-3-27 20:35:16.170	WT901BLE68-01(48591DE3C19B)	-0.208	-0.785	0.215	14.221	51.697	-13.123	-80.38	24.25	-36.41	-38.220	-57.330	26.460	-0.75601	0.55579	-0.33719	0.07581	30.6	13111	100
2025-3-27 20:35:16.229	WT901BLE68-01(48591DE3C19B)	-0.208	-0.476	0.180	21.423	51.453	-14.648	-80.46	24.13	-37.22	-38.220	-57.330	26.460	-0.75601	0.55579	-0.33719	0.07581	30.6	13111	100
2025-3-27 20:35:16.230	WT901BLE68-01(48591DE3C19B)	-0.207	-0.476	0.180	21.423	51.453	-14.648	-80.50	24.01	-38.03	-36.946	-58.996	16.366	-0.75601	0.55579	-0.33719	0.07581	30.6	13111	100
2025-3-27 20:35:16.230	WT901BLE68-01(48591DE3C19B)	-0.207	-0.289	0.131	17.883	48.218	-11.780	-80.56	23.91	-38.80	-36.946	-58.996	16.366	-0.75601	0.55579	-0.33719	0.07581	30.6	13111	100
2025-3-27 20:35:16.230	WT901BLE68-01(48591DE3C19B)	-0.211	-0.289	0.131	17.883	48.218	-11.780	-80.61	23.82	-39.57	-36.946	-58.996	16.366	-0.75601	0.55579	-0.33719	0.07581	30.6	13111	100
2025-3-27 20:35:16.266	WT901BLE68-01(48591DE3C19B)	-0.211	-0.302	0.081	15.991	39.429	-9.521	-80.63	23.74	-40.23	-36.946	-58.996	16.366	-0.75601	0.55579	-0.33719	0.07581	30.6	13111	100
2025-3-27 20:35:16.266	WT901BLE68-01(48591DE3C19B)	-0.215	-0.302	0.081	15.991	39.429	-9.521	-80.65	23.66	-40.87	-36.946	-58.996	16.366	-0.75601	0.55579	-0.33719	0.07581	30.6	13111	100
2025-3-27 20:35:16.266	WT901BLE68-01(48591DE3C19B)	-0.215	-0.288	0.063	17.395	30.762	-8.484	-80.62	23.59	-41.41	-36.946	-58.996	16.366	-0.75601	0.55579	-0.33719	0.07581	30.6	13111	100
2025-3-27 20:35:16.266	WT901BLE68-01(48591DE3C19B)	-0.290	-0.288	0.063	17.395	30.762	-8.484	-80.58	23.52	-41.93	-36.946	-58.996	16.366	-0.75601	0.55579	-0.33719	0.07581	30.6	13111	100
2025-3-27 20:35:16.289	WT901BLE68-01(48591DE3C19B)	-0.290	-0.264	0.157	19.592	24.170	-3.174	-80.48	23.51	-42.37	-36.946	-58.996	16.366	-0.75601	0.55579	-0.33719	0.07581	30.6	13111	100
2025-3-27 20:35:16.289	WT901BLE68-01(48591DE3C19B)	-0.439	-0.264	0.157	19.592	24.170	-3.174	-80.37	23.49	-42.81	-36.946	-58.996	16.366	-0.75601	0.55579	-0.33719	0.07581	30.6	13111	100
2025-3-27 20:35:16.289	WT901BLE68-01(48591DE3C19B)	-0.439	-0.325	0.238	15.564	11.475	6.104	-80.23	23.56	-43.11	-36.946	-58.996	16.366	-0.75601	0.55579	-0.33719	0.07581	30.6	13111	100
2025-3-27 20:35:16.289	WT901BLE68-01(48591DE3C19B)	-0.528	-0.325	0.238	15.564	11.475	6.104	-80.09	23.64	-43.45	-36.946	-58.996	16.366	-0.75601	0.55579	-0.33719	0.07581	30.6	13111	100
2025-3-27 20:35:16.351	WT901BLE68-01(48591DE3C19B)	-0.528	-0.526	0.225	8.850	-0.610	10.498	-79.94	23.75	-43.70	-36.946	-58.996	16.366	-0.75601	0.55579	-0.33719	0.07581	30.6	13111	100
2025-3-27 20:35:16.351	WT901BLE68-01(48591DE3C19B)	-0.577	-0.526	0.225	8.850	-0.610	10.498	-79.79	23.84	-44.18	-36.946	-58.996	16.366	-0.75601	0.55579	-0.33719	0.07581	30.6	13111	100
2025-3-27 20:35:16.351	WT901BLE68-01(48591DE3C19B)	-0.577	-0.864	0.140	-1.282	-4.028	9.644	-79.80	23.97	-43.52	-36.946	-58.996	16.366	-0.75601	0.55579	-0.33719	0.07581	30.6	13111	100
2025-3-27 20:35:16.351	WT901BLE68-01(48591DE3C19B)	-0.665	-0.864	0.140	-1.282	-4.028	9.644	-79.79	24.11	-42.98	-36.946	-58.996	16.366	-0.75601	0.55579	-0.33719	0.07581	30.6	13111	100
2025-3-27 20:35:16.381	WT901BLE68-01(48591DE3C19B)	-0.665	-1.424	0.130	-8.179	-6.958	-3.357	-79.84	24.10	-42.63	-36.946	-58.996	16.366	-0.75601	0.55579	-0.33719	0.07581	30.6	13111	100
2025-3-27 20:35:16.382	WT901BLE68-01(48591DE3C19B)	-0.709	-1.424	0.130	-8.179	-6.958	-3.357	-79.90	24.09	-42.37	-36.946	-58.996	16.366	-0.75601	0.55579	-0.33719	0.07581	30.6	13111	100
2025-3-27 20:35:16.382	WT901BLE68-01(48591DE3C19B)	-0.709	-1.863	0.202	6.653	-5.981	-26.855	-79.83	23.83	-42.24	-36.946	-58.996	16.366	-0.75601	0.55579	-0.33719	0.07581	30.6	13111	100
2025-3-27 20:35:16.382	WT901BLE68-01(48591DE3C19B)	-0.787	-1.863	0.202	6.653	-5.981	-26.855	-79.76	23.58	-42.15	-36.946	-58.996	16.366	-0.74802	0.52924	-0.37198	0.14789	30.6	13111	100
2025-3-27 20:35:16.411	WT901BLE68-01(48591DE3C19B)	-0.787	-1.932	0.320	11.536	1.648	-36.377	-79.68	23.24	-42.20	-36.946	-58.996	16.366	-0.74802	0.52924	-0.37198	0.14789	30.6	13111	100
2025-3-27 20:35:16.411	WT901BLE68-01(48591DE3C19B)	-0.793	-1.932	0.320	11.536	1.648	-36.377	-79.60	22.89	-42.26	-36.946	-58.996	16.366	-0.74802	0.52924	-0.37198	0.14789	30.6	13111	100
2025-3-27 20:35:16.411	WT901BLE68-01(48591DE3C19B)	-0.793	-1.567	0.408	16.785	20.813	-41.809	-79.56	22.53	-42.55	-36.946	-58.996	16.366	-0.74802	0.52924	-0.37198	0.14789	30.6	13111	100
2025-3-27 20:35:16.411	WT901BLE68-01(48591DE3C19B)	-0.655	-1.567	0.408	16.785	20.813	-41.809	-79.50	22.18	-42.85	-36.946	-58.996	16.366	-0.74802	0.52924	-0.37198	0.14789	30.6	13111	100
2025-3-27 20:35:16.469	WT901BLE68-01(48591DE3C19B)	-0.655	-1.146	0.413	12.756	40.894	-30.334	-79.55	21.97	-43.33	-36.946	-58.996	16.366	-0.74802	0.52924	-0.37198	0.14789	30.6	13111	100
2025-3-27 20:35:16.469	WT901BLE68-01(48591DE3C19B)	-0.530	-1.146	0.413	12.756	40.894	-30.334	-79.60	21.77	-43.82	-36.946	-58.996	16.366	-0.74802	0.52924	-0.37198	0.14789	30.6	13111	100
2025-3-27 20:35:16.469	WT901BLE68-01(48591DE3C19B)	-0.530	-0.892	0.321	0.488	44.495	-20.142	-79.77	21.68	-44.34	-36.946	-58.996	16.366	-0.74802	0.52924	-0.37198	0.14789	30.6	13111	100
2025-3-27 20:35:16.469	WT901BLE68-01(48591DE3C19B)	-0.488	-0.892	0.321	0.488	44.495	-20.142	-79.93	21.58	-44.86	-36.946	-58.996	16.366	-0.74802	0.52924	-0.37198	0.14789	30.6	13111	100
2025-3-27 20:35:16.498	WT901BLE68-01(48591DE3C19B)	-0.488	-0.793	0.242	-13.672	26.794	-12.512	-80.16	21.54	-45.18	-36.946	-58.996	16.366	-0.74802	0.52924	-0.37198	0.14789	30.6	13111	100
2025-3-27 20:35:16.498	WT901BLE68-01(48591DE3C19B)	-0.488	-0.793	0.242	-13.672	26.794	-12.512	-80.38	21.49	-45.48	-36.946	-58.996	16.366	-0.74802	0.52924	-0.37198	0.14789	30.6	13111	100
2025-3-27 20:35:16.498	WT901BLE68-01(48591DE3C19B)	-0.488	-0.685	0.194	-23.193	-12.634	-5.432	-80.54	21.45	-45.34	-36.946	-58.996	16.366	-0.74802	0.52924	-0.37198	0.14789	30.6	13111	100
2025-3-27 20:35:16.498	WT901BLE68-01(48591DE3C19B)	-0.378	-0.685	0.194	-23.193	-12.634	-5.432	-80.70	21.42	-45.16	-36.946	-58.996	16.366	-0.74802	0.52924	-0.37198	0.14789	30.6	13111	100
2025-3-27 20:35:16.561	WT901BLE68-01(48591DE3C19B)	-0.378	-0.540	0.184	-31.372	-49.194	-1.526	-80.79	21.37	-44.60	-36.946	-58.996	16.366	-0.74802	0.52924	-0.37198	0.14789	30.6	13111	100
2025-3-27 20:35:16.561	WT901BLE68-01(48591DE3C19B)	-0.327	-0.540	0.184	-31.372	-49.194	-1.526	-80.89	21.32	-44.08	-36.946	-58.996	16.366	-0.74802	0.52924	-0.37198	0.14789	30.6	13111	100
2025-3-27 20:35:16.561	WT901BLE68-01(48591DE3C19B)	-0.327	-0.549	0.190	-34.668	-50.598	3.357	-80.99	21.30	-43.72	-36.946	-58.996	16.366	-0.74802	0.52924	-0.37198	0.14789	30.6	13111	100
2025-3-27 20:35:16.561	WT901BLE68-01(48591DE3C19B)	-0.383	-0.549	0.190	-34.668	-50.598	3.357	-81.08	21.28	-43.55	-36.946	-58.996	16.366	-0.74802	0.52924	-0.37198	0.14789	30.6	13111	100
2025-3-27 20:35:16.591	WT901BLE68-01(48591DE3C19B)	-0.383	-0.681	0.206	-28.625	-36.255	2.808	-81.17	21.26	-43.59	-36.946	-58.996	16.366	-0.74802	0.52924	-0.37198	0.14789	30.6	13111	100
2025-3-27 20:35:16.591	WT901BLE68-01(48591DE3C19B)	-0.382	-0.681	0.206	-28.625	-36.255	2.808	-81.25	21.24	-43.66	-36.946	-58.996	16.366	-0.74802	0.52924	-0.37198	0.14789	30.6	13111	100
2025-3-27 20:35:16.591	WT901BLE68-01(48591DE3C19B)	-0.191	-0.681	0.221	-15.442	-23.987	1.770	-81.25	21.23	-43.88	-36.946	-58.996	16.366	-0.74802	0.52924	-0.37198	0.14789	30.6	13111	100
2025-3-27 20:35:16.591	WT901BLE68-01(48591DE3C19B)	-0.272	-0.340	0.110	-15.442	-23.987	1.770	-81.25	21.21	-44.10	-34.300	-55.762	12.838	-0.74802	0.52924	-0.37198	0.14789	30.6	13111	100
2025-3-27 20:35:16.649	WT901BLE68-01(48591DE3C19B)	-0.272	-0.523	0.212	-4.883	-12.695	3.845	-81.18	21.23	-44.45	-34.300	-55.762	12.838	-0.74802	0.52924	-0.37198	0.14789	30.6	13111	100
2025-3-27 20:35:16.649	WT901BLE68-01(48591DE3C19B)	-0.140	-0.523	0.212	-4.883	-12.695	3.845	-81.12	21.24	-44.80	-34.300	-55.762	12.838	-0.74802	0.52924	-0.37198	0.14789	30.6	13111	100
2025-3-27 20:35:16.649	WT901BLE68-01(48591DE3C19B)	-0.140	-0.358	0.193	1.343	0.793	7.996	-81.04	21.32	-45.29	-34.300	-55.762	12.838	-0.74802	0.52924	-0.37198	0.14789	30.6	13111	100
2025-3-27 20:35:16.649	WT901BLE68-01(48591DE3C19B)	-0.110	-0.358	0.193	1.343	0.793	7.996	-80.96	21.38	-45.78	-34.300	-55.762	12.838	-0.74802	0.52924	-0.37198	0.14789	30.6	13111	100
2025-3-27 20:35:16.678	WT901BLE68-01(48591DE3C19B)	-0.110	-0.296	0.204	-1.221	10.864	13.184	-80.94	21.52	-46.37	-34.300	-55.762	12.838	-0.74802	0.52924	-0.37198	0.14789	30.6	13111	100
2025-3-27 20:35:16.679	WT901BLE68-01(48591DE3C19B)	-0.221	-0.296	0.204	-1.221	10.864	13.184	-80.93	21.64	-46.96	-34.300	-55.762	12.838	-0.74802	0.52924	-0.37198	0.14789	30.6	13111	100
2025-3-27 20:35:16.679	WT901BLE68-01(48591DE3C19B)	-0.330	-0.458	0.231	-10.559	8.118	14.709	-80.99	21.77	-47.52	-34.300	-55.762	12.838	-0.74802	0.52924	-0.37198	0.14789	30.6	13111	100
2025-3-27 20:35:16.679	WT901BLE68-01(48591DE3C19B)	-0.330	-0.703	0.220	-15.015	-6.104	13.855	-81.05	21.89	-48.00	-34.300	-55.762	12.838	-0.74802	0.52924	-0.37198	0.14789	30.6	13111	100
2025-3-27 20:35:16.741	WT901BLE68-01(48591DE3C19B)	-0.409	-0.703	0.220	-15.015	-6.104	13.855	-81.10	21.99	-48.40	-34.300	-55.762	12.838	-0.74802	0.52924	-0.37198	0.14789	30.6	13111	100
2025-3-27 20:35:16.741	WT901BLE68-01(48591DE3C19B)	-0.409	-1.045	0.191	-20.874	-25.696	10.803	-81.15	22.06	-48.68	-34.300	-55.762	12.838	-0.74802	0.52924	-0.37198	0.14789	30.6	13111	100
2025-3-27 20:35:16.741	WT901BLE68-01(48591DE3C19B)	-0.580	-1.045	0.191	-20.874	-25.696	10.803	-81.19	22.10	-48.84	-34.300	-55.762	12.838	-0.74802	0.52924	-0.37198	0.14789	30.6	13111	100
2025-3-27 20:35:16.741	WT901BLE68-01(48591DE3C19B)	-0.580	-1.817	0.143	-22.949	-41.748	-0.427	-81.23	22.09	-48.88	-34.300	-55.762	12.838	-0.74802	0.52924	-0.37198	0.14789	30.6	13111	100
2025-3-27 20:35:16.741	WT901BLE68-01(48591DE3C19B)	-0.577	-1.817	0.143	-22.949	-41.748	-0.427	-81.26	22.01	-48.79	-34.300	-55.762	12.838	-0.74802	0.52924	-0.37198	0.14789	30.6	13111	100
2025-3-27 20:35:16.742	WT901BLE68-01(48591DE3C19B)	-0.577	-2.306	0.066	6.165	-47.913	-12.268	-81.15	21.87	-48.63	-34.300	-55.762	12.838	-0.74802	0.52924	-0.37198	0.14789	30.6	13111	100
2025-3-27 20:35:16.742	WT901BLE68-01(48591DE3C19B)	-0.465	-2.306	0.066	6.165	-47.913	-12.268	-80.91	21.67	-48.41	-34.300	-55.762	12.838	-0.74802	0.52924	-0.37198	0.14789	30.6	13111	100
2025-3-27 20:35:16.742	WT901BLE68-01(48591DE3C19B)	-0.465	-1.858	0.103	36.255	-42.847	-2.991	-80.54	21.51	-48.19	-34.300	-55.762	12.838	-0.74802	0.52924	-0.37198	0.14789	30.6	13111	100
2025-3-27 20:35:16.799	WT901BLE68-01(48591DE3C19B)	-0.267	-1.858	0.103	36.255	-42.847	-2.991	-80.03	21.39	-47.98	-34.300	-55.762	12.838	-0.74802	0.52924	-0.37198	0.14789	30.6	13111	100
2025-3-27 20:35:16.799	WT901BLE68-01(48591DE3C19B)	-0.267	-1.386	0.145	29.053	-18.433	-0.793	-79.61	21.30	-47.90	-34.300	-55.762	12.838	-0.73865	0.51627	-0.38483	0.19919	30.6	13111	100
2025-3-27 20:35:16.799	WT901BLE68-01(48591DE3C19B)	-0.168	-1.386	0.145	29.053	-18.433	-0.793	-79.28	21.25	-47.95	-34.300	-55.762	12.838	-0.73865	0.51627	-0.38483	0.19919	30.6	13111	100
2025-3-27 20:35:16.800	WT901BLE68-01(48591DE3C19B)	-0.168	-1.202	0.202	27.588	19.836	7.019	-79.03	21.26	-48.19	-34.300	-55.762	12.838	-0.73865	0.51627	-0.38483	0.19919	30.6	13111	100
2025-3-27 20:35:16.829	WT901BLE68-01(48591DE3C19B)	-0.206	-1.202	0.202	27.588	19.836	7.019	-78.86	21.34	-48.64	-34.300	-55.762	12.838	-0.73865	0.51627	-0.38483	0.19919	30.6	13111	100
2025-3-27 20:35:16.829	WT901BLE68-01(48591DE3C19B)	-0.206	-0.990	0.267	27.161	40.833	10.803	-78.73	21.46	-49.19	-34.300	-55.762	12.838	-0.73865	0.51627	-0.38483	0.19919	30.6	13111	100
2025-3-27 20:35:16.829	WT901BLE68-01(48591DE3C19B)	-0.244	-0.990	0.267	27.161	40.833	10.803	-78.65	21.62	-49.85	-34.300	-55.762	12.838	-0.73865	0.51627	-0.38483	0.19919	30.6	13111	100
2025-3-27 20:35:16.829	WT901BLE68-01(48591DE3C19B)	-0.244	-0.786	0.236	19.592	40.405	8.240	-78.60	21.75	-50.52	-34.300	-55.762	12.838	-0.73865	0.51627	-0.38483	0.19919	30.6	13111	100
2025-3-27 20:35:16.858	WT901BLE68-01(48591DE3C19B)	-0.290	-0.786	0.236	19.592	40.405	8.240	-78.58	21.88	-51.19	-34.300	-55.762	12.838	-0.73865	0.51627	-0.38483	0.19919	30.6	13111	100
2025-3-27 20:35:16.858	WT901BLE68-01(48591DE3C19B)	-0.290	-0.691	0.169	14.038	32.471	1.953	-78.58	21.97	-51.83	-34.300	-55.762	12.838	-0.73865	0.51627	-0.38483	0.19919	30.6	13111	100
2025-3-27 20:35:16.858	WT901BLE68-01(48591DE3C19B)	-0.324	-0.691	0.169	14.038	32.471	1.953	-78.59	22.02	-52.43	-34.300	-55.762	12.838	-0.73865	0.51627	-0.38483	0.19919	30.6	13111	100
2025-3-27 20:35:16.858	WT901BLE68-01(48591DE3C19B)	-0.324	-0.607	0.083	14.954	24.963	-0.916	-78.58	22.05	-52.99	-34.300	-55.762	12.838	-0.73865	0.51627	-0.38483	0.19919	30.6	13111	100
2025-3-27 20:35:16.919	WT901BLE68-01(48591DE3C19B)	-0.340	-0.607	0.083	14.954	24.963	-0.916	-78.55	22.06	-53.52	-34.300	-55.762	12.838	-0.73865	0.51627	-0.38483	0.19919	30.6	13111	100
2025-3-27 20:35:16.919	WT901BLE68-01(48591DE3C19B)	-0.340	-0.547	0.016	15.991	18.677	-1.099	-78.51	22.07	-54.01	-34.300	-55.762	12.838	-0.73865	0.51627	-0.38483	0.19919	30.6	13111	100
2025-3-27 20:35:16.919	WT901BLE68-01(48591DE3C19B)	-0.309	-0.547	0.016	15.991	18.677	-1.099	-78.44	22.08	-54.45	-34.300	-55.762	12.838	-0.73865	0.51627	-0.38483	0.19919	30.6	13111	100
2025-3-27 20:35:16.919	WT901BLE68-01(48591DE3C19B)	-0.309	-0.495	-0.001	19.592	10.742	0.488	-78.35	22.10	-54.84	-34.300	-55.762	12.838	-0.73865	0.51627	-0.38483	0.19919	30.6	13111	100
2025-3-27 20:35:16.950	WT901BLE68-01(48591DE3C19B)	-0.231	-0.495	-0.001	19.592	10.742	0.488	-78.22	22.12	-55.17	-34.300	-55.762	12.838	-0.73865	0.51627	-0.38483	0.19919	30.6	13111	100
2025-3-27 20:35:16.951	WT901BLE68-01(48591DE3C19B)	-0.231	-0.432	0.018	23.499	9.338	5.676	-78.06	22.17	-55.48	-34.300	-55.762	12.838	-0.73865	0.51627	-0.38483	0.19919	30.6	13111	100
2025-3-27 20:35:16.951	WT901BLE68-01(48591DE3C19B)	-0.179	-0.432	0.018	23.499	9.338	5.676	-77.89	22.25	-55.77	-34.300	-55.762	12.838	-0.73865	0.51627	-0.38483	0.19919	30.6	13111	100
2025-3-27 20:35:16.951	WT901BLE68-01(48591DE3C19B)	-0.179	-0.357	0.026	25.513	15.076	12.390	-77.72	22.36	-56.07	-34.300	-55.762	12.838	-0.73865	0.51627	-0.38483	0.19919	30.6	13111	100
2025-3-27 20:35:17.9	WT901BLE68-01(48591DE3C19B)	-0.145	-0.357	0.026	25.513	15.076	12.390	-77.54	22.52	-56.38	-34.300	-55.762	12.838	-0.73865	0.51627	-0.38483	0.19919	30.6	13111	100
2025-3-27 20:35:17.9	WT901BLE68-01(48591DE3C19B)	-0.145	-0.328	0.014	22.583	29.541	19.470	-77.41	22.73	-56.76	-34.300	-55.762	12.838	-0.73865	0.51627	-0.38483	0.19919	30.6	13111	100
2025-3-27 20:35:17.10	WT901BLE68-01(48591DE3C19B)	-0.192	-0.328	0.014	22.583	29.541	19.470	-77.33	22.99	-57.18	-38.318	-56.938	8.134	-0.73865	0.51627	-0.38483	0.19919	30.6	13111	100
2025-3-27 20:35:17.10	WT901BLE68-01(48591DE3C19B)	-0.192	-0.426	0.046	16.113	46.936	25.208	-77.31	23.29	-57.69	-38.318	-56.938	8.134	-0.73865	0.51627	-0.38483	0.19919	30.6	13111	100
2025-3-27 20:35:17.38	WT901BLE68-01(48591DE3C19B)	-0.374	-0.426	0.046	16.113	46.936	25.208	-77.36	23.64	-58.28	-38.318	-56.938	8.134	-0.73865	0.51627	-0.38483	0.19919	30.6	13111	100
2025-3-27 20:35:17.38	WT901BLE68-01(48591DE3C19B)	-0.374	-0.763	0.160	8.545	54.260	28.870	-77.46	24.01	-58.89	-38.318	-56.938	8.134	-0.73865	0.51627	-0.38483	0.19919	30.6	13111	100
2025-3-27 20:35:17.38	WT901BLE68-01(48591DE3C19B)	-0.576	-0.763	0.160	8.545	54.260	28.870	-77.62	24.41	-59.55	-38.318	-56.938	8.134	-0.73865	0.51627	-0.38483	0.19919	30.6	13111	100
2025-3-27 20:35:17.38	WT901BLE68-01(48591DE3C19B)	-0.576	-1.207	0.230	6.653	47.607	24.170	-77.77	24.77	-60.19	-38.318	-56.938	8.134	-0.73865	0.51627	-0.38483	0.19919	30.6	13111	100
2025-3-27 20:35:17.69	WT901BLE68-01(48591DE3C19B)	-0.574	-1.207	0.230	6.653	47.607	24.170	-77.93	25.11	-60.81	-38.318	-56.938	8.134	-0.73865	0.51627	-0.38483	0.19919	30.6	13111	100
2025-3-27 20:35:17.69	WT901BLE68-01(48591DE3C19B)	-0.574	-1.448	0.201	21.912	44.861	6.470	-78.00	25.35	-61.43	-38.318	-56.938	8.134	-0.73865	0.51627	-0.38483	0.19919	30.6	13111	100
2025-3-27 20:35:17.69	WT901BLE68-01(48591DE3C19B)	-0.550	-1.448	0.201	21.912	44.861	6.470	-78.01	25.50	-62.05	-38.318	-56.938	8.134	-0.73865	0.51627	-0.38483	0.19919	30.6	13111	100
2025-3-27 20:35:17.69	WT901BLE68-01(48591DE3C19B)	-0.550	-1.187	0.211	32.715	53.711	-12.207	-77.99	25.56	-62.72	-38.318	-56.938	8.134	-0.73865	0.51627	-0.38483	0.19919	30.6	13111	100
2025-3-27 20:35:17.98	WT901BLE68-01(48591DE3C19B)	-0.686	-1.187	0.211	32.715	53.711	-12.207	-77.95	25.54	-63.45	-38.318	-56.938	8.134	-0.73865	0.51627	-0.38483	0.19919	30.6	13111	100
2025-3-27 20:35:17.98	WT901BLE68-01(48591DE3C19B)	-0.686	-1.260	0.197	9.888	53.467	-34.119	-78.03	25.42	-64.20	-38.318	-56.938	8.134	-0.73865	0.51627	-0.38483	0.19919	30.6	13111	100
2025-3-27 20:35:17.98	WT901BLE68-01(48591DE3C19B)	-0.907	-1.260	0.197	9.888	53.467	-34.119	-78.23	25.19	-64.95	-38.318	-56.938	8.134	-0.73865	0.51627	-0.38483	0.19919	30.6	13111	100
2025-3-27 20:35:17.98	WT901BLE68-01(48591DE3C19B)	-0.907	-1.528	0.302	10.315	45.410	-59.631	-78.42	24.83	-65.67	-38.318	-56.938	8.134	-0.73865	0.51627	-0.38483	0.19919	30.6	13111	100
2025-3-27 20:35:17.189	WT901BLE68-01(48591DE3C19B)	-0.936	-1.528	0.302	10.315	45.410	-59.631	-78.59	24.35	-66.36	-38.318	-56.938	8.134	-0.73865	0.51627	-0.38483	0.19919	30.6	13111	100
2025-3-27 20:35:17.189	WT901BLE68-01(48591DE3C19B)	-0.936	-1.210	0.438	14.160	19.714	-57.556	-78.59	23.84	-66.80	-38.318	-56.938	8.134	-0.73865	0.51627	-0.38483	0.19919	30.6	13111	100
2025-3-27 20:35:17.190	WT901BLE68-01(48591DE3C19B)	-0.659	-1.210	0.438	14.160	19.714	-57.556	-78.57	23.35	-67.30	-38.318	-56.938	8.134	-0.73865	0.51627	-0.38483	0.19919	30.6	13111	100
2025-3-27 20:35:17.190	WT901BLE68-01(48591DE3C19B)	-0.659	-0.791	0.405	3.418	-1.343	-44.434	-78.55	22.93	-67.69	-38.318	-56.938	8.134	-0.73865	0.51627	-0.38483	0.19919	30.6	13111	100
2025-3-27 20:35:17.191	WT901BLE68-01(48591DE3C19B)	-0.423	-0.791	0.405	3.418	-1.343	-44.434	-78.50	22.52	-68.21	-38.318	-56.938	8.134	-0.73865	0.51627	-0.38483	0.19919	30.6	13111	100
2025-3-27 20:35:17.191	WT901BLE68-01(48591DE3C19B)	-0.423	-0.501	0.311	-8.606	-16.602	-26.245	-78.49	22.25	-68.60	-38.318	-56.938	8.134	-0.73865	0.51627	-0.38483	0.19919	30.6	13111	100
2025-3-27 20:35:17.191	WT901BLE68-01(48591DE3C19B)	-0.385	-0.501	0.311	-8.606	-16.602	-26.245	-78.48	21.97	-69.03	-38.318	-56.938	8.134	-0.73865	0.51627	-0.38483	0.19919	30.6	13111	100
2025-3-27 20:35:17.191	WT901BLE68-01(48591DE3C19B)	-0.385	-0.307	0.241	-21.912	-39.185	-5.615	-78.48	21.84	-69.19	-38.318	-56.938	8.134	-0.69363	0.42789	-0.47342	0.33398	30.6	13111	100
2025-3-27 20:35:17.249	WT901BLE68-01(48591DE3C19B)	-0.359	-0.307	0.241	-21.912	-39.185	-5.615	-78.48	21.71	-69.37	-38.318	-56.938	8.134	-0.69363	0.42789	-0.47342	0.33398	30.6	13111	100
2025-3-27 20:35:17.249	WT901BLE68-01(48591DE3C19B)	-0.359	-0.246	0.237	-38.269	-74.402	6.836	-78.48	21.62	-69.15	-38.318	-56.938	8.134	-0.69363	0.42789	-0.47342	0.33398	30.6	13111	100
2025-3-27 20:35:17.249	WT901BLE68-01(48591DE3C19B)	-0.175	-0.246	0.237	-38.269	-74.402	6.836	-78.48	21.53	-68.94	-38.318	-56.938	8.134	-0.69363	0.42789	-0.47342	0.33398	30.6	13111	100
2025-3-27 20:35:17.249	WT901BLE68-01(48591DE3C19B)	-0.175	-0.220	0.229	-39.856	-85.999	15.381	-78.44	21.51	-68.59	-38.318	-56.938	8.134	-0.69363	0.42789	-0.47342	0.33398	30.6	13111	100
2025-3-27 20:35:17.282	WT901BLE68-01(48591DE3C19B)	-0.051	-0.220	0.229	-39.856	-85.999	15.381	-78.40	21.47	-68.22	-38.318	-56.938	8.134	-0.69363	0.42789	-0.47342	0.33398	30.6	13111	100
2025-3-27 20:35:17.283	WT901BLE68-01(48591DE3C19B)	-0.051	-0.177	0.194	-29.907	-59.753	26.062	-78.35	21.59	-68.09	-38.318	-56.938	8.134	-0.69363	0.42789	-0.47342	0.33398	30.6	13111	100
2025-3-27 20:35:17.283	WT901BLE68-01(48591DE3C19B)	-0.117	-0.177	0.194	-29.907	-59.753	26.062	-78.29	21.71	-67.94	-38.318	-56.938	8.134	-0.69363	0.42789	-0.47342	0.33398	30.6	13111	100
2025-3-27 20:35:17.283	WT901BLE68-01(48591DE3C19B)	-0.117	-0.264	0.161	-25.269	-29.358	32.043	-78.31	21.95	-68.10	-38.318	-56.938	8.134	-0.69363	0.42789	-0.47342	0.33398	30.6	13111	100
2025-3-27 20:35:17.309	WT901BLE68-01(48591DE3C19B)	-0.247	-0.264	0.161	-25.269	-29.358	32.043	-78.33	22.18	-68.24	-38.318	-56.938	8.134	-0.69363	0.42789	-0.47342	0.33398	30.6	13111	100
2025-3-27 20:35:17.309	WT901BLE68-01(48591DE3C19B)	-0.247	-0.548	0.094	-28.870	-15.076	27.893	-78.45	22.41	-68.53	-38.318	-56.938	8.134	-0.69363	0.42789	-0.47342	0.33398	30.6	13111	100
2025-3-27 20:35:17.309	WT901BLE68-01(48591DE3C19B)	-0.353	-0.548	0.094	-28.870	-15.076	27.893	-78.57	22.63	-68.80	-38.318	-56.938	8.134	-0.69363	0.42789	-0.47342	0.33398	30.6	13111	100
2025-3-27 20:35:17.309	WT901BLE68-01(48591DE3C19B)	-0.353	-0.976	0.015	-37.903	-17.273	12.451	-78.80	22.72	-69.05	-38.318	-56.938	8.134	-0.69363	0.42789	-0.47342	0.33398	30.6	13111	100
2025-3-27 20:35:17.338	WT901BLE68-01(48591DE3C19B)	-0.606	-0.976	0.015	-37.903	-17.273	12.451	-79.06	22.81	-69.25	-38.318	-56.938	8.134	-0.69363	0.42789	-0.47342	0.33398	30.6	13111	100
2025-3-27 20:35:17.338	WT901BLE68-01(48591DE3C19B)	-0.606	-1.775	-0.007	-41.016	-31.738	-3.113	-79.32	22.74	-69.24	-38.318	-56.938	8.134	-0.69363	0.42789	-0.47342	0.33398	30.6	13111	100
2025-3-27 20:35:17.338	WT901BLE68-01(48591DE3C19B)	-0.744	-1.775	-0.007	-41.016	-31.738	-3.113	-79.60	22.66	-69.13	-38.318	-56.938	8.134	-0.69363	0.42789	-0.47342	0.33398	30.6	13111	100
2025-3-27 20:35:17.338	WT901BLE68-01(48591DE3C19B)	-0.744	-2.538	0.005	-22.766	-66.650	-17.639	-79.58	22.37	-68.62	-38.318	-56.938	8.134	-0.69363	0.42789	-0.47342	0.33398	30.6	13111	100
2025-3-27 20:35:17.399	WT901BLE68-01(48591DE3C19B)	-0.563	-2.538	0.005	-22.766	-66.650	-17.639	-79.58	22.08	-68.07	-38.318	-56.938	8.134	-0.69363	0.42789	-0.47342	0.33398	30.6	13111	100
2025-3-27 20:35:17.399	WT901BLE68-01(48591DE3C19B)	-0.563	-2.158	0.124	16.174	-90.942	-9.827	-79.10	21.81	-67.25	-38.318	-56.938	8.134	-0.69363	0.42789	-0.47342	0.33398	30.6	13111	100
2025-3-27 20:35:17.399	WT901BLE68-01(48591DE3C19B)	-0.262	-2.158	0.124	16.174	-90.942	-9.827	-78.63	21.53	-66.44	-38.318	-56.938	8.134	-0.69363	0.42789	-0.47342	0.33398	30.6	13111	100
2025-3-27 20:35:17.399	WT901BLE68-01(48591DE3C19B)	-0.262	-1.558	0.167	1.892	-71.594	-2.502	-78.39	21.36	-65.84	-38.318	-56.938	8.134	-0.69363	0.42789	-0.47342	0.33398	30.6	13111	100
2025-3-27 20:35:17.431	WT901BLE68-01(48591DE3C19B)	-0.127	-1.558	0.167	1.892	-71.594	-2.502	-78.14	21.17	-65.24	-40.082	-58.016	4.802	-0.69363	0.42789	-0.47342	0.33398	30.6	13111	100
2025-3-27 20:35:17.431	WT901BLE68-01(48591DE3C19B)	-0.127	-1.404	0.215	-0.793	-35.645	13.916	-78.05	21.21	-65.01	-40.082	-58.016	4.802	-0.69363	0.42789	-0.47342	0.33398	30.6	13111	100
2025-3-27 20:35:17.431	WT901BLE68-01(48591DE3C19B)	-0.088	-1.404	0.215	-0.793	-35.645	13.916	-77.95	21.25	-64.78	-40.082	-58.016	4.802	-0.69363	0.42789	-0.47342	0.33398	30.6	13111	100
2025-3-27 20:35:17.431	WT901BLE68-01(48591DE3C19B)	-0.088	-1.170	0.282	-1.953	-5.615	24.597	-77.98	21.45	-64.85	-40.082	-58.016	4.802	-0.69363	0.42789	-0.47342	0.33398	30.6	13111	100
2025-3-27 20:35:17.461	WT901BLE68-01(48591DE3C19B)	-0.056	-1.170	0.282	-1.953	-5.615	24.597	-78.00	21.64	-64.93	-40.082	-58.016	4.802	-0.69363	0.42789	-0.47342	0.33398	30.6	13111	100
2025-3-27 20:35:17.461	WT901BLE68-01(48591DE3C19B)	-0.056	-0.890	0.293	-0.977	19.836	26.123	-78.11	21.89	-65.29	-40.082	-58.016	4.802	-0.69363	0.42789	-0.47342	0.33398	30.6	13111	100
2025-3-27 20:35:17.461	WT901BLE68-01(48591DE3C19B)	-0.106	-0.890	0.293	-0.977	19.836	26.123	-78.21	22.14	-65.65	-40.082	-58.016	4.802	-0.69363	0.42789	-0.47342	0.33398	30.6	13111	100
2025-3-27 20:35:17.461	WT901BLE68-01(48591DE3C19B)	-0.106	-0.595	0.264	7.080	39.917	22.888	-78.32	22.38	-66.24	-40.082	-58.016	4.802	-0.69363	0.42789	-0.47342	0.33398	30.6	13111	100
2025-3-27 20:35:17.518	WT901BLE68-01(48591DE3C19B)	-0.109	-0.595	0.264	7.080	39.917	22.888	-78.42	22.63	-66.84	-40.082	-58.016	4.802	-0.69363	0.42789	-0.47342	0.33398	30.6	13111	100
2025-3-27 20:35:17.518	WT901BLE68-01(48591DE3C19B)	-0.109	-0.257	0.161	13.062	54.626	22.705	-78.52	22.90	-67.60	-40.082	-58.016	4.802	-0.69363	0.42789	-0.47342	0.33398	30.6	13111	100
2025-3-27 20:35:17.518	WT901BLE68-01(48591DE3C19B)	-0.096	-0.257	0.161	13.062	54.626	22.705	-78.63	23.17	-68.37	-40.082	-58.016	4.802	-0.69363	0.42789	-0.47342	0.33398	30.6	13111	100
2025-3-27 20:35:17.519	WT901BLE68-01(48591DE3C19B)	-0.096	-0.023	0.052	10.437	63.354	31.494	-78.79	23.54	-69.22	-40.082	-58.016	4.802	-0.69363	0.42789	-0.47342	0.33398	30.6	13111	100
2025-3-27 20:35:17.551	WT901BLE68-01(48591DE3C19B)	-0.161	-0.023	0.052	10.437	63.354	31.494	-78.95	23.91	-70.07	-40.082	-58.016	4.802	-0.69363	0.42789	-0.47342	0.33398	30.6	13111	100
2025-3-27 20:35:17.551	WT901BLE68-01(48591DE3C19B)	-0.161	-0.006	0.025	3.235	60.669	42.419	-79.16	24.38	-70.87	-40.082	-58.016	4.802	-0.69363	0.42789	-0.47342	0.33398	30.6	13111	100
2025-3-27 20:35:17.551	WT901BLE68-01(48591DE3C19B)	-0.278	-0.006	0.025	3.235	60.669	42.419	-79.38	24.86	-71.69	-40.082	-58.016	4.802	-0.69363	0.42789	-0.47342	0.33398	30.6	13111	100
2025-3-27 20:35:17.551	WT901BLE68-01(48591DE3C19B)	-0.278	-0.171	0.076	-2.625	35.278	52.002	-79.53	25.38	-72.22	-40.082	-58.016	4.802	-0.69363	0.42789	-0.47342	0.33398	30.6	13111	100
2025-3-27 20:35:17.581	WT901BLE68-01(48591DE3C19B)	-0.387	-0.171	0.076	-2.625	35.278	52.002	-79.68	25.92	-72.77	-40.082	-58.016	4.802	-0.69363	0.42789	-0.47342	0.33398	30.6	13111	100
2025-3-27 20:35:17.581	WT901BLE68-01(48591DE3C19B)	-0.460	-0.396	0.153	-3.906	-0.793	55.969	-79.66	26.43	-72.95	-40.082	-58.016	4.802	-0.69363	0.42789	-0.47342	0.33398	30.6	13111	100
2025-3-27 20:35:17.581	WT901BLE68-01(48591DE3C19B)	-0.460	-0.647	0.158	-10.010	-32.837	51.514	-79.59	26.90	-72.98	-40.082	-58.016	4.802	-0.68927	0.39413	-0.51385	0.32465	30.6	13111	100
2025-3-27 20:35:17.581	WT901BLE68-01(48591DE3C19B)	-0.425	-0.647	0.158	-10.010	-32.837	51.514	-79.47	27.32	-72.85	-40.082	-58.016	4.802	-0.68927	0.39413	-0.51385	0.32465	30.6	13111	100
2025-3-27 20:35:17.639	WT901BLE68-01(48591DE3C19B)	-0.425	-1.071	0.124	-17.273	-42.603	35.156	-79.36	27.66	-72.70	-40.082	-58.016	4.802	-0.68927	0.39413	-0.51385	0.32465	30.6	13111	100
2025-3-27 20:35:17.639	WT901BLE68-01(48591DE3C19B)	-0.472	-1.071	0.124	-17.273	-42.603	35.156	-79.28	27.91	-72.48	-40.082	-58.016	4.802	-0.68927	0.39413	-0.51385	0.32465	30.6	13111	100
2025-3-27 20:35:17.639	WT901BLE68-01(48591DE3C19B)	-0.472	-1.725	0.130	-5.859	-31.677	-3.113	-79.19	27.97	-72.34	-40.082	-58.016	4.802	-0.68927	0.39413	-0.51385	0.32465	30.6	13111	100
2025-3-27 20:35:17.639	WT901BLE68-01(48591DE3C19B)	-0.572	-1.725	0.130	-5.859	-31.677	-3.113	-79.11	27.85	-72.26	-40.082	-58.016	4.802	-0.68927	0.39413	-0.51385	0.32465	30.6	13111	100
2025-3-27 20:35:17.668	WT901BLE68-01(48591DE3C19B)	-0.572	-2.038	0.194	15.869	-14.465	-44.922	-79.00	27.54	-72.30	-40.082	-58.016	4.802	-0.68927	0.39413	-0.51385	0.32465	30.6	13111	100
2025-3-27 20:35:17.669	WT901BLE68-01(48591DE3C19B)	-0.748	-2.038	0.194	15.869	-14.465	-44.922	-78.84	27.03	-72.45	-40.082	-58.016	4.802	-0.68927	0.39413	-0.51385	0.32465	30.6	13111	100
2025-3-27 20:35:17.669	WT901BLE68-01(48591DE3C19B)	-0.748	-1.727	0.353	25.085	-0.916	-55.664	-78.68	26.49	-72.70	-40.082	-58.016	4.802	-0.68927	0.39413	-0.51385	0.32465	30.6	13111	100
2025-3-27 20:35:17.669	WT901BLE68-01(48591DE3C19B)	-0.697	-1.727	0.353	25.085	-0.916	-55.664	-78.51	25.91	-73.04	-40.082	-58.016	4.802	-0.68927	0.39413	-0.51385	0.32465	30.6	13111	100
2025-3-27 20:35:17.760	WT901BLE68-01(48591DE3C19B)	-0.697	-1.231	0.431	22.644	31.738	-69.763	-78.43	25.30	-73.59	-40.082	-58.016	4.802	-0.68927	0.39413	-0.51385	0.32465	30.6	13111	100
2025-3-27 20:35:17.760	WT901BLE68-01(48591DE3C19B)	-0.597	-1.231	0.431	22.644	31.738	-69.763	-78.43	24.67	-74.36	-40.082	-58.016	4.802	-0.68927	0.39413	-0.51385	0.32465	30.6	13111	100
2025-3-27 20:35:17.760	WT901BLE68-01(48591DE3C19B)	-0.597	-0.899	0.433	18.433	68.298	-59.753	-78.51	24.12	-75.32	-40.082	-58.016	4.802	-0.68927	0.39413	-0.51385	0.32465	30.6	13111	100
2025-3-27 20:35:17.760	WT901BLE68-01(48591DE3C19B)	-0.511	-0.899	0.433	18.433	68.298	-59.753	-78.68	23.66	-76.49	-40.082	-58.016	4.802	-0.68927	0.39413	-0.51385	0.32465	30.6	13111	100
2025-3-27 20:35:17.761	WT901BLE68-01(48591DE3C19B)	-0.511	-0.657	0.326	10.376	71.533	-47.852	-78.87	23.27	-77.69	-40.082	-58.016	4.802	-0.68927	0.39413	-0.51385	0.32465	30.6	13111	100
2025-3-27 20:35:17.761	WT901BLE68-01(48591DE3C19B)	-0.496	-0.657	0.326	10.376	71.533	-47.852	-79.08	22.93	-78.91	-40.082	-58.016	4.802	-0.68927	0.39413	-0.51385	0.32465	30.6	13111	100
2025-3-27 20:35:17.761	WT901BLE68-01(48591DE3C19B)	-0.496	-0.504	0.221	-10.925	19.043	-37.048	-79.27	22.60	-79.85	-40.082	-58.016	4.802	-0.68927	0.39413	-0.51385	0.32465	30.6	13111	100
2025-3-27 20:35:17.761	WT901BLE68-01(48591DE3C19B)	-0.469	-0.504	0.221	-10.925	19.043	-37.048	-79.45	22.28	-80.52	-40.082	-58.016	4.802	-0.68927	0.39413	-0.51385	0.32465	30.6	13111	100
2025-3-27 20:35:17.819	WT901BLE68-01(48591DE3C19B)	-0.469	-0.542	0.165	-34.912	-58.533	-27.649	-79.57	21.93	-80.79	-40.082	-58.016	4.802	-0.68927	0.39413	-0.51385	0.32465	30.6	13111	100
2025-3-27 20:35:17.819	WT901BLE68-01(48591DE3C19B)	-0.336	-0.542	0.165	-34.912	-58.533	-27.649	-79.66	21.57	-80.66	-40.082	-58.016	4.802	-0.68927	0.39413	-0.51385	0.32465	30.6	13111	100
2025-3-27 20:35:17.820	WT901BLE68-01(48591DE3C19B)	-0.336	-0.564	0.155	-33.691	-90.637	-13.428	-79.68	21.25	-80.35	-40.082	-58.016	4.802	-0.68927	0.39413	-0.51385	0.32465	30.6	13111	100
2025-3-27 20:35:17.820	WT901BLE68-01(48591DE3C19B)	-0.239	-0.564	0.155	-33.691	-90.637	-13.428	-79.62	20.97	-79.87	-40.180	-63.994	0.588	-0.68927	0.39413	-0.51385	0.32465	30.6	13111	100
2025-3-27 20:35:17.821	WT901BLE68-01(48591DE3C19B)	-0.239	-0.388	0.131	-22.217	-75.073	-5.554	-79.54	20.74	-79.45	-40.180	-63.994	0.588	-0.68927	0.39413	-0.51385	0.32465	30.6	13111	100
2025-3-27 20:35:17.821	WT901BLE68-01(48591DE3C19B)	-0.104	-0.388	0.131	-22.217	-75.073	-5.554	-79.43	20.57	-79.12	-40.180	-63.994	0.588	-0.68927	0.39413	-0.51385	0.32465	30.6	13111	100
2025-3-27 20:35:17.821	WT901BLE68-01(48591DE3C19B)	-0.104	-0.217	0.104	-20.142	-42.419	2.747	-79.36	20.47	-78.95	-40.180	-63.994	0.588	-0.68927	0.39413	-0.51385	0.32465	30.6	13111	100
2025-3-27 20:35:17.821	WT901BLE68-01(48591DE3C19B)	-0.107	-0.217	0.104	-20.142	-42.419	2.747	-79.34	20.43	-78.94	-40.180	-63.994	0.588	-0.68927	0.39413	-0.51385	0.32465	30.6	13111	100
2025-3-27 20:35:17.879	WT901BLE68-01(48591DE3C19B)	-0.107	-0.314	0.137	-24.597	-6.165	10.437	-79.41	20.47	-79.11	-40.180	-63.994	0.588	-0.68927	0.39413	-0.51385	0.32465	30.6	13111	100
2025-3-27 20:35:17.880	WT901BLE68-01(48591DE3C19B)	-0.244	-0.314	0.137	-24.597	-6.165	10.437	-79.57	20.57	-79.45	-40.180	-63.994	0.588	-0.68927	0.39413	-0.51385	0.32465	30.6	13111	100
2025-3-27 20:35:17.880	WT901BLE68-01(48591DE3C19B)	-0.244	-0.630	0.189	-26.672	10.071	7.080	-79.77	20.67	-79.87	-40.180	-63.994	0.588	-0.68927	0.39413	-0.51385	0.32465	30.6	13111	100
2025-3-27 20:35:17.880	WT901BLE68-01(48591DE3C19B)	-0.384	-0.630	0.189	-26.672	10.071	7.080	-80.01	20.76	-80.36	-40.180	-63.994	0.588	-0.68927	0.39413	-0.51385	0.32465	30.6	13111	100
2025-3-27 20:35:17.939	WT901BLE68-01(48591DE3C19B)	-0.384	-0.947	0.170	-29.724	-2.258	-2.136	-80.25	20.80	-80.79	-40.180	-63.994	0.588	-0.68927	0.39413	-0.51385	0.32465	30.6	13111	100
2025-3-27 20:35:17.939	WT901BLE68-01(48591DE3C19B)	-0.468	-0.947	0.170	-29.724	-2.258	-2.136	-80.49	20.78	-81.16	-40.180	-63.994	0.588	-0.68927	0.39413	-0.51385	0.32465	30.6	13111	100
2025-3-27 20:35:17.939	WT901BLE68-01(48591DE3C19B)	-0.468	-1.432	0.092	-39.001	-26.917	-13.733	-80.74	20.68	-81.38	-40.180	-63.994	0.588	-0.68927	0.39413	-0.51385	0.32465	30.6	13111	100
2025-3-27 20:35:17.939	WT901BLE68-01(48591DE3C19B)	-0.561	-1.432	0.092	-39.001	-26.917	-13.733	-81.01	20.51	-81.46	-40.180	-63.994	0.588	-0.68927	0.39413	-0.51385	0.32465	30.6	13111	100
2025-3-27 20:35:17.971	WT901BLE68-01(48591DE3C19B)	-0.561	-2.173	0.043	-32.227	-45.105	-30.212	-81.23	20.24	-81.43	-40.180	-63.994	0.588	-0.68927	0.39413	-0.51385	0.32465	30.6	13111	100
2025-3-27 20:35:17.971	WT901BLE68-01(48591DE3C19B)	-0.529	-2.173	0.043	-32.227	-45.105	-30.212	-81.40	19.87	-81.28	-40.180	-63.994	0.588	-0.68927	0.39413	-0.51385	0.32465	30.6	13111	100
2025-3-27 20:35:17.971	WT901BLE68-01(48591DE3C19B)	-0.529	-2.229	0.082	8.850	-57.556	-16.846	-81.35	19.57	-81.03	-40.180	-63.994	0.588	-0.68927	0.39413	-0.51385	0.32465	30.6	13111	100
2025-3-27 20:35:17.971	WT901BLE68-01(48591DE3C19B)	-0.370	-2.229	0.082	8.850	-57.556	-16.846	-81.09	19.31	-80.69	-40.180	-63.994	0.588	-0.68927	0.39413	-0.51385	0.32465	30.6	13111	100
2025-3-27 20:35:18.1	WT901BLE68-01(48591DE3C19B)	-0.370	-1.546	0.175	11.536	-58.350	-13.611	-80.82	19.07	-80.34	-40.180	-63.994	0.588	-0.68927	0.39413	-0.51385	0.32465	30.6	13111	100
2025-3-27 20:35:18.1	WT901BLE68-01(48591DE3C19B)	-0.124	-1.546	0.175	11.536	-58.350	-13.611	-80.54	18.84	-79.98	-40.180	-63.994	0.588	-0.68927	0.39413	-0.51385	0.32465	30.6	13111	100
2025-3-27 20:35:18.1	WT901BLE68-01(48591DE3C19B)	-0.124	-1.430	0.178	0.549	-28.198	-6.165	-80.36	18.67	-79.77	-40.180	-63.994	0.588	-0.68927	0.39413	-0.51385	0.32465	30.6	13111	100
2025-3-27 20:35:18.1	WT901BLE68-01(48591DE3C19B)	-0.125	-1.430	0.178	0.549	-28.198	-6.165	-80.29	18.55	-79.71	-40.180	-63.994	0.588	-0.64572	0.40973	-0.50186	0.40396	30.6	13111	100
2025-3-27 20:35:18.31	WT901BLE68-01(48591DE3C19B)	-0.125	-1.303	0.239	4.578	15.076	-0.244	-80.28	18.49	-79.87	-40.180	-63.994	0.588	-0.64572	0.40973	-0.50186	0.40396	30.6	13111	100
2025-3-27 20:35:18.31	WT901BLE68-01(48591DE3C19B)	-0.196	-1.303	0.239	4.578	15.076	-0.244	-80.30	18.49	-80.24	-40.180	-63.994	0.588	-0.64572	0.40973	-0.50186	0.40396	30.6	13111	100
2025-3-27 20:35:18.31	WT901BLE68-01(48591DE3C19B)	-0.196	-1.093	0.264	5.493	37.415	-1.038	-80.37	18.50	-80.74	-40.180	-63.994	0.588	-0.64572	0.40973	-0.50186	0.40396	30.6	13111	100
2025-3-27 20:35:18.31	WT901BLE68-01(48591DE3C19B)	-0.264	-1.093	0.264	5.493	37.415	-1.038	-80.46	18.52	-81.35	-40.180	-63.994	0.588	-0.64572	0.40973	-0.50186	0.40396	30.6	13111	100
2025-3-27 20:35:18.119	WT901BLE68-01(48591DE3C19B)	-0.264	-0.864	0.252	9.827	38.574	-8.545	-80.53	18.51	-81.97	-40.180	-63.994	0.588	-0.64572	0.40973	-0.50186	0.40396	30.6	13111	100
2025-3-27 20:35:18.119	WT901BLE68-01(48591DE3C19B)	-0.253	-0.864	0.252	9.827	38.574	-8.545	-80.58	18.45	-82.61	-40.180	-63.994	0.588	-0.64572	0.40973	-0.50186	0.40396	30.6	13111	100
2025-3-27 20:35:18.119	WT901BLE68-01(48591DE3C19B)	-0.253	-0.604	0.197	16.907	38.452	-12.146	-80.56	18.37	-83.26	-40.180	-63.994	0.588	-0.64572	0.40973	-0.50186	0.40396	30.6	13111	100
2025-3-27 20:35:18.119	WT901BLE68-01(48591DE3C19B)	-0.239	-0.604	0.197	16.907	38.452	-12.146	-80.53	18.29	-83.91	-40.180	-63.994	0.588	-0.64572	0.40973	-0.50186	0.40396	30.6	13111	100
2025-3-27 20:35:18.121	WT901BLE68-01(48591DE3C19B)	-0.239	-0.386	0.124	20.081	38.757	-6.226	-80.46	18.26	-84.56	-40.180	-63.994	0.588	-0.64572	0.40973	-0.50186	0.40396	30.6	13111	100
2025-3-27 20:35:18.121	WT901BLE68-01(48591DE3C19B)	-0.241	-0.386	0.124	20.081	38.757	-6.226	-80.39	18.25	-85.20	-40.180	-63.994	0.588	-0.64572	0.40973	-0.50186	0.40396	30.6	13111	100
2025-3-27 20:35:18.121	WT901BLE68-01(48591DE3C19B)	-0.241	-0.286	0.084	20.386	35.706	5.188	-80.30	18.35	-85.81	-40.180	-63.994	0.588	-0.64572	0.40973	-0.50186	0.40396	30.6	13111	100
2025-3-27 20:35:18.121	WT901BLE68-01(48591DE3C19B)	-0.193	-0.286	0.084	20.386	35.706	5.188	-80.21	18.45	-86.42	-40.180	-63.994	0.588	-0.64572	0.40973	-0.50186	0.40396	30.6	13111	100
2025-3-27 20:35:18.148	WT901BLE68-01(48591DE3C19B)	-0.193	-0.248	0.071	21.362	31.616	17.334	-80.08	18.67	-86.97	-40.180	-63.994	0.588	-0.64572	0.40973	-0.50186	0.40396	30.6	13111	100
2025-3-27 20:35:18.148	WT901BLE68-01(48591DE3C19B)	-0.182	-0.248	0.071	21.362	31.616	17.334	-79.96	18.89	-87.52	-40.180	-63.994	0.588	-0.64572	0.40973	-0.50186	0.40396	30.6	13111	100
2025-3-27 20:35:18.148	WT901BLE68-01(48591DE3C19B)	-0.182	-0.202	0.073	23.804	32.837	28.381	-79.82	19.22	-88.07	-40.180	-63.994	0.588	-0.64572	0.40973	-0.50186	0.40396	30.6	13111	100
2025-3-27 20:35:18.148	WT901BLE68-01(48591DE3C19B)	-0.235	-0.202	0.073	23.804	32.837	28.381	-79.66	19.56	-88.63	-40.180	-63.994	0.588	-0.64572	0.40973	-0.50186	0.40396	30.6	13111	100
2025-3-27 20:35:18.209	WT901BLE68-01(48591DE3C19B)	-0.235	-0.206	0.081	20.691	31.799	38.147	-79.53	19.99	-89.17	-40.180	-63.994	0.588	-0.64572	0.40973	-0.50186	0.40396	30.6	13111	100
2025-3-27 20:35:18.209	WT901BLE68-01(48591DE3C19B)	-0.309	-0.206	0.081	20.691	31.799	38.147	-79.40	20.43	-89.71	-40.180	-63.994	0.588	-0.64572	0.40973	-0.50186	0.40396	30.6	13111	100
2025-3-27 20:35:18.209	WT901BLE68-01(48591DE3C19B)	-0.309	-0.375	0.109	12.756	25.879	43.030	-79.32	20.91	-90.20	-40.180	-63.994	0.588	-0.64572	0.40973	-0.50186	0.40396	30.6	13111	100
2025-3-27 20:35:18.210	WT901BLE68-01(48591DE3C19B)	-0.378	-0.375	0.109	12.756	25.879	43.030	-79.24	21.40	-90.71	-40.180	-63.994	0.588	-0.64572	0.40973	-0.50186	0.40396	30.6	13111	100
2025-3-27 20:35:18.238	WT901BLE68-01(48591DE3C19B)	-0.378	-0.664	0.172	7.751	21.423	41.748	-79.19	21.86	-91.17	-45.668	-65.562	-8.428	-0.64572	0.40973	-0.50186	0.40396	30.6	13111	100
2025-3-27 20:35:18.238	WT901BLE68-01(48591DE3C19B)	-0.459	-0.664	0.172	7.751	21.423	41.748	-79.14	22.32	-91.64	-45.668	-65.562	-8.428	-0.64572	0.40973	-0.50186	0.40396	30.6	13111	100
2025-3-27 20:35:18.238	WT901BLE68-01(48591DE3C19B)	-0.459	-1.004	0.184	1.343	20.020	30.518	-79.17	22.67	-92.11	-45.668	-65.562	-8.428	-0.64572	0.40973	-0.50186	0.40396	30.6	13111	100
2025-3-27 20:35:18.238	WT901BLE68-01(48591DE3C19B)	-0.578	-1.004	0.184	1.343	20.020	30.518	-79.19	23.02	-92.58	-45.668	-65.562	-8.428	-0.64572	0.40973	-0.50186	0.40396	30.6	13111	100
2025-3-27 20:35:18.269	WT901BLE68-01(48591DE3C19B)	-0.578	-1.491	0.246	-0.610	9.766	-1.770	-79.23	23.03	-92.99	-45.668	-65.562	-8.428	-0.64572	0.40973	-0.50186	0.40396	30.6	13111	100
2025-3-27 20:35:18.269	WT901BLE68-01(48591DE3C19B)	-0.771	-1.491	0.246	-0.610	9.766	-1.770	-79.27	23.03	-93.38	-45.668	-65.562	-8.428	-0.64572	0.40973	-0.50186	0.40396	30.6	13111	100
2025-3-27 20:35:18.269	WT901BLE68-01(48591DE3C19B)	-0.771	-1.887	0.326	5.981	1.892	-40.466	-79.25	22.64	-93.77	-45.668	-65.562	-8.428	-0.64572	0.40973	-0.50186	0.40396	30.6	13111	100
2025-3-27 20:35:18.269	WT901BLE68-01(48591DE3C19B)	-1.008	-1.887	0.326	5.981	1.892	-40.466	-79.22	22.25	-94.14	-45.668	-65.562	-8.428	-0.64572	0.40973	-0.50186	0.40396	30.6	13111	100
2025-3-27 20:35:18.346	WT901BLE68-01(48591DE3C19B)	-1.008	-2.013	0.396	12.512	-8.057	-52.856	-79.10	21.73	-94.44	-45.668	-65.562	-8.428	-0.64572	0.40973	-0.50186	0.40396	30.6	13111	100
2025-3-27 20:35:18.346	WT901BLE68-01(48591DE3C19B)	-0.883	-2.013	0.396	12.512	-8.057	-52.856	-78.98	21.21	-94.74	-45.668	-65.562	-8.428	-0.64572	0.40973	-0.50186	0.40396	30.6	13111	100
2025-3-27 20:35:18.346	WT901BLE68-01(48591DE3C19B)	-0.883	-1.480	0.464	16.296	-13.672	-56.824	-78.79	20.64	-95.00	-45.668	-65.562	-8.428	-0.64572	0.40973	-0.50186	0.40396	30.6	13111	100
2025-3-27 20:35:18.346	WT901BLE68-01(48591DE3C19B)	-0.652	-1.480	0.464	16.296	-13.672	-56.824	-78.60	20.09	-95.28	-45.668	-65.562	-8.428	-0.64572	0.40973	-0.50186	0.40396	30.6	13111	100
2025-3-27 20:35:18.360	WT901BLE68-01(48591DE3C19B)	-0.652	-1.054	0.471	5.188	-14.648	-40.710	-78.50	19.69	-95.53	-45.668	-65.562	-8.428	-0.64572	0.40973	-0.50186	0.40396	30.6	13111	100
2025-3-27 20:35:18.360	WT901BLE68-01(48591DE3C19B)	-0.402	-1.054	0.471	5.188	-14.648	-40.710	-78.39	19.29	-95.77	-45.668	-65.562	-8.428	-0.64572	0.40973	-0.50186	0.40396	30.6	13111	100
2025-3-27 20:35:18.360	WT901BLE68-01(48591DE3C19B)	-0.402	-0.788	0.392	-11.108	-23.743	-17.944	-78.40	19.09	-95.88	-45.668	-65.562	-8.428	-0.64572	0.40973	-0.50186	0.40396	30.6	13111	100
2025-3-27 20:35:18.360	WT901BLE68-01(48591DE3C19B)	-0.347	-0.788	0.392	-11.108	-23.743	-17.944	-78.40	18.90	-95.99	-45.668	-65.562	-8.428	-0.64572	0.40973	-0.50186	0.40396	30.6	13111	100
2025-3-27 20:35:18.390	WT901BLE68-01(48591DE3C19B)	-0.173	-0.693	0.324	-27.710	-55.420	-0.183	-78.44	18.81	-95.73	-45.668	-65.562	-8.428	-0.64572	0.40973	-0.50186	0.40396	30.6	13111	100
2025-3-27 20:35:18.390	WT901BLE68-01(48591DE3C19B)	-0.356	-0.346	0.162	-27.710	-55.420	-0.183	-78.49	18.72	-95.47	-45.668	-65.562	-8.428	-0.64572	0.40973	-0.50186	0.40396	30.6	13111	100
2025-3-27 20:35:18.390	WT901BLE68-01(48591DE3C19B)	-0.356	-0.746	0.293	-37.720	-90.149	9.827	-78.51	18.66	-94.83	-45.668	-65.562	-8.428	-0.59378	0.33176	-0.54367	0.49158	30.6	13111	100
2025-3-27 20:35:18.390	WT901BLE68-01(48591DE3C19B)	-0.314	-0.746	0.293	-37.720	-90.149	9.827	-78.53	18.60	-94.19	-45.668	-65.562	-8.428	-0.59378	0.33176	-0.54367	0.49158	30.6	13111	100
2025-3-27 20:35:18.449	WT901BLE68-01(48591DE3C19B)	-0.314	-0.752	0.247	-26.794	-89.844	16.296	-78.44	18.60	-93.54	-45.668	-65.562	-8.428	-0.59378	0.33176	-0.54367	0.49158	30.6	13111	100
2025-3-27 20:35:18.449	WT901BLE68-01(48591DE3C19B)	-0.224	-0.752	0.247	-26.794	-89.844	16.296	-78.34	18.60	-92.88	-45.668	-65.562	-8.428	-0.59378	0.33176	-0.54367	0.49158	30.6	13111	100
2025-3-27 20:35:18.449	WT901BLE68-01(48591DE3C19B)	-0.224	-0.575	0.200	-10.193	-54.993	10.620	-78.21	18.61	-92.59	-45.668	-65.562	-8.428	-0.59378	0.33176	-0.54367	0.49158	30.6	13111	100
2025-3-27 20:35:18.449	WT901BLE68-01(48591DE3C19B)	-0.169	-0.575	0.200	-10.193	-54.993	10.620	-78.07	18.62	-92.30	-45.668	-65.562	-8.428	-0.59378	0.33176	-0.54367	0.49158	30.6	13111	100
2025-3-27 20:35:18.482	WT901BLE68-01(48591DE3C19B)	-0.169	-0.352	0.175	-1.404	-6.531	8.545	-78.01	18.70	-92.50	-45.668	-65.562	-8.428	-0.59378	0.33176	-0.54367	0.49158	30.6	13111	100
2025-3-27 20:35:18.482	WT901BLE68-01(48591DE3C19B)	-0.183	-0.352	0.175	-1.404	-6.531	8.545	-77.95	18.79	-92.71	-45.668	-65.562	-8.428	-0.59378	0.33176	-0.54367	0.49158	30.6	13111	100
2025-3-27 20:35:18.482	WT901BLE68-01(48591DE3C19B)	-0.183	-0.162	0.177	5.493	31.372	13.733	-77.93	19.00	-93.30	-45.668	-65.562	-8.428	-0.59378	0.33176	-0.54367	0.49158	30.6	13111	100
2025-3-27 20:35:18.482	WT901BLE68-01(48591DE3C19B)	-0.210	-0.162	0.177	5.493	31.372	13.733	-77.92	19.22	-93.88	-45.668	-65.562	-8.428	-0.59378	0.33176	-0.54367	0.49158	30.6	13111	100
2025-3-27 20:35:18.509	WT901BLE68-01(48591DE3C19B)	-0.210	-0.013	0.219	4.944	34.546	22.522	-77.90	19.52	-94.49	-45.668	-65.562	-8.428	-0.59378	0.33176	-0.54367	0.49158	30.6	13111	100
2025-3-27 20:35:18.509	WT901BLE68-01(48591DE3C19B)	-0.248	-0.013	0.219	4.944	34.546	22.522	-77.87	19.83	-95.10	-45.668	-65.562	-8.428	-0.59378	0.33176	-0.54367	0.49158	30.6	13111	100
2025-3-27 20:35:18.509	WT901BLE68-01(48591DE3C19B)	-0.259	-0.042	0.193	-7.813	10.315	27.283	-77.87	20.13	-95.47	-45.668	-65.562	-8.428	-0.59378	0.33176	-0.54367	0.49158	30.6	13111	100
2025-3-27 20:35:18.509	WT901BLE68-01(48591DE3C19B)	-0.259	-0.311	0.120	-25.330	-30.701	21.973	-77.88	20.36	-95.62	-45.668	-65.562	-8.428	-0.59378	0.33176	-0.54367	0.49158	30.6	13111	100
2025-3-27 20:35:18.571	WT901BLE68-01(48591DE3C19B)	-0.276	-0.311	0.120	-25.330	-30.701	21.973	-77.90	20.53	-95.57	-45.668	-65.562	-8.428	-0.59378	0.33176	-0.54367	0.49158	30.6	13111	100
2025-3-27 20:35:18.571	WT901BLE68-01(48591DE3C19B)	-0.276	-0.738	0.021	-37.170	-63.965	12.024	-77.93	20.62	-95.36	-45.668	-65.562	-8.428	-0.59378	0.33176	-0.54367	0.49158	30.6	13111	100
2025-3-27 20:35:18.571	WT901BLE68-01(48591DE3C19B)	-0.371	-0.738	0.021	-37.170	-63.965	12.024	-77.98	20.63	-94.96	-45.668	-65.562	-8.428	-0.59378	0.33176	-0.54367	0.49158	30.6	13111	100
2025-3-27 20:35:18.571	WT901BLE68-01(48591DE3C19B)	-0.371	-1.455	-0.083	-50.415	-75.562	3.967	-78.10	20.59	-94.50	-45.668	-65.562	-8.428	-0.59378	0.33176	-0.54367	0.49158	30.6	13111	100
2025-3-27 20:35:18.601	WT901BLE68-01(48591DE3C19B)	-0.502	-1.455	-0.083	-50.415	-75.562	3.967	-78.30	20.50	-93.95	-45.668	-65.562	-8.428	-0.59378	0.33176	-0.54367	0.49158	30.6	13111	100
2025-3-27 20:35:18.601	WT901BLE68-01(48591DE3C19B)	-0.502	-2.578	-0.158	-31.128	-75.500	-18.982	-78.44	20.29	-93.39	-45.668	-65.562	-8.428	-0.59378	0.33176	-0.54367	0.49158	30.6	13111	100
2025-3-27 20:35:18.601	WT901BLE68-01(48591DE3C19B)	-0.557	-2.578	-0.158	-31.128	-75.500	-18.982	-78.52	19.97	-92.82	-45.668	-65.562	-8.428	-0.59378	0.33176	-0.54367	0.49158	30.6	13111	100
2025-3-27 20:35:18.601	WT901BLE68-01(48591DE3C19B)	-0.557	-2.621	-0.037	25.879	-75.562	-18.555	-78.35	19.63	-92.24	-61.544	-60.858	-17.346	-0.59378	0.33176	-0.54367	0.49158	30.6	13111	100
2025-3-27 20:35:18.631	WT901BLE68-01(48591DE3C19B)	-0.477	-2.621	-0.037	25.879	-75.562	-18.555	-77.90	19.29	-91.64	-61.544	-60.858	-17.346	-0.59378	0.33176	-0.54367	0.49158	30.6	13111	100
2025-3-27 20:35:18.631	WT901BLE68-01(48591DE3C19B)	-0.477	-1.695	0.106	22.522	-67.627	-22.278	-77.49	18.93	-91.08	-61.544	-60.858	-17.346	-0.59378	0.33176	-0.54367	0.49158	30.6	13111	100
2025-3-27 20:35:18.631	WT901BLE68-01(48591DE3C19B)	-0.248	-1.695	0.106	22.522	-67.627	-22.278	-77.12	18.56	-90.58	-61.544	-60.858	-17.346	-0.59378	0.33176	-0.54367	0.49158	30.6	13111	100
2025-3-27 20:35:18.631	WT901BLE68-01(48591DE3C19B)	-0.248	-1.464	0.161	13.611	-40.161	-6.042	-76.84	18.30	-90.21	-61.544	-60.858	-17.346	-0.59378	0.33176	-0.54367	0.49158	30.6	13111	100
2025-3-27 20:35:18.689	WT901BLE68-01(48591DE3C19B)	-0.095	-1.464	0.161	13.611	-40.161	-6.042	-76.65	18.14	-89.96	-61.544	-60.858	-17.346	-0.59378	0.33176	-0.54367	0.49158	30.6	13111	100
2025-3-27 20:35:18.689	WT901BLE68-01(48591DE3C19B)	-0.095	-1.178	0.270	11.597	-5.676	10.864	-76.51	18.11	-89.86	-61.544	-60.858	-17.346	-0.59378	0.33176	-0.54367	0.49158	30.6	13111	100
2025-3-27 20:35:18.689	WT901BLE68-01(48591DE3C19B)	-0.017	-1.178	0.270	11.597	-5.676	10.864	-76.43	18.18	-89.92	-61.544	-60.858	-17.346	-0.59378	0.33176	-0.54367	0.49158	30.6	13111	100
2025-3-27 20:35:18.689	WT901BLE68-01(48591DE3C19B)	-0.017	-0.932	0.297	2.197	18.921	22.888	-76.43	18.34	-90.09	-61.544	-60.858	-17.346	-0.59378	0.33176	-0.54367	0.49158	30.6	13111	100
2025-3-27 20:35:18.718	WT901BLE68-01(48591DE3C19B)	-0.137	-0.932	0.297	2.197	18.921	22.888	-76.50	18.58	-90.38	-61.544	-60.858	-17.346	-0.59378	0.33176	-0.54367	0.49158	30.6	13111	100
2025-3-27 20:35:18.718	WT901BLE68-01(48591DE3C19B)	-0.137	-0.852	0.246	-6.287	19.043	18.127	-76.61	18.79	-90.67	-61.544	-60.858	-17.346	-0.59378	0.33176	-0.54367	0.49158	30.6	13111	100
2025-3-27 20:35:18.718	WT901BLE68-01(48591DE3C19B)	-0.250	-0.852	0.246	-6.287	19.043	18.127	-76.77	18.97	-90.97	-61.544	-60.858	-17.346	-0.59378	0.33176	-0.54367	0.49158	30.6	13111	100
2025-3-27 20:35:18.718	WT901BLE68-01(48591DE3C19B)	-0.250	-0.839	0.138	-7.202	5.127	12.695	-76.91	19.11	-91.20	-61.544	-60.858	-17.346	-0.59378	0.33176	-0.54367	0.49158	30.6	13111	100
2025-3-27 20:35:18.749	WT901BLE68-01(48591DE3C19B)	-0.282	-0.839	0.138	-7.202	5.127	12.695	-77.03	19.21	-91.37	-61.544	-60.858	-17.346	-0.59378	0.33176	-0.54367	0.49158	30.6	13111	100
2025-3-27 20:35:18.749	WT901BLE68-01(48591DE3C19B)	-0.282	-0.793	0.058	1.587	11.963	5.493	-77.11	19.28	-91.59	-61.544	-60.858	-17.346	-0.59378	0.33176	-0.54367	0.49158	30.6	13111	100
2025-3-27 20:35:18.749	WT901BLE68-01(48591DE3C19B)	-0.282	-0.793	0.058	1.587	11.963	5.493	-77.17	19.32	-91.85	-61.544	-60.858	-17.346	-0.59378	0.33176	-0.54367	0.49158	30.6	13111	100
2025-3-27 20:35:18.749	WT901BLE68-01(48591DE3C19B)	-0.282	-0.707	0.024	11.597	34.119	1.099	-77.22	19.38	-92.22	-61.544	-60.858	-17.346	-0.59378	0.33176	-0.54367	0.49158	30.6	13111	100
2025-3-27 20:35:18.809	WT901BLE68-01(48591DE3C19B)	-0.297	-0.707	0.024	11.597	34.119	1.099	-77.27	19.44	-92.71	-61.544	-60.858	-17.346	-0.59378	0.33176	-0.54367	0.49158	30.6	13111	100
2025-3-27 20:35:18.810	WT901BLE68-01(48591DE3C19B)	-0.297	-0.653	0.021	21.912	52.673	5.005	-77.29	19.54	-93.29	-61.544	-60.858	-17.346	-0.59378	0.33176	-0.54367	0.49158	30.6	13111	100
2025-3-27 20:35:18.810	WT901BLE68-01(48591DE3C19B)	-0.267	-0.653	0.021	21.912	52.673	5.005	-77.29	19.68	-93.96	-61.544	-60.858	-17.346	-0.59378	0.33176	-0.54367	0.49158	30.6	13111	100
2025-3-27 20:35:18.810	WT901BLE68-01(48591DE3C19B)	-0.267	-0.492	0.036	32.532	53.284	11.719	-77.24	19.86	-94.62	-61.544	-60.858	-17.346	-0.59378	0.33176	-0.54367	0.49158	30.6	13111	100
2025-3-27 20:35:18.838	WT901BLE68-01(48591DE3C19B)	-0.181	-0.492	0.036	32.532	53.284	11.719	-77.14	20.08	-95.27	-61.544	-60.858	-17.346	-0.59903	0.31290	-0.54547	0.49554	30.6	13111	100
2025-3-27 20:35:18.838	WT901BLE68-01(48591DE3C19B)	-0.181	-0.309	0.072	34.668	46.143	19.836	-77.01	20.34	-95.88	-61.544	-60.858	-17.346	-0.59903	0.31290	-0.54547	0.49554	30.6	13111	100
2025-3-27 20:35:18.838	WT901BLE68-01(48591DE3C19B)	-0.170	-0.309	0.072	34.668	46.143	19.836	-76.86	20.63	-96.44	-61.544	-60.858	-17.346	-0.59903	0.31290	-0.54547	0.49554	30.6	13111	100
2025-3-27 20:35:18.838	WT901BLE68-01(48591DE3C19B)	-0.170	-0.188	0.122	29.541	39.734	33.569	-76.72	20.98	-96.95	-61.544	-60.858	-17.346	-0.59903	0.31290	-0.54547	0.49554	30.6	13111	100
2025-3-27 20:35:18.869	WT901BLE68-01(48591DE3C19B)	-0.150	-0.188	0.122	29.541	39.734	33.569	-76.58	21.38	-97.42	-61.544	-60.858	-17.346	-0.59903	0.31290	-0.54547	0.49554	30.6	13111	100
2025-3-27 20:35:18.869	WT901BLE68-01(48591DE3C19B)	-0.150	-0.217	0.126	13.611	23.254	41.931	-76.48	21.82	-97.79	-61.544	-60.858	-17.346	-0.59903	0.31290	-0.54547	0.49554	30.6	13111	100
2025-3-27 20:35:18.869	WT901BLE68-01(48591DE3C19B)	-0.109	-0.217	0.126	13.611	23.254	41.931	-76.43	22.28	-98.07	-61.544	-60.858	-17.346	-0.59903	0.31290	-0.54547	0.49554	30.6	13111	100
2025-3-27 20:35:18.869	WT901BLE68-01(48591DE3C19B)	-0.109	-0.420	0.099	-1.953	16.602	43.091	-76.43	22.73	-98.32	-61.544	-60.858	-17.346	-0.59903	0.31290	-0.54547	0.49554	30.6	13111	100
2025-3-27 20:35:18.930	WT901BLE68-01(48591DE3C19B)	-0.220	-0.420	0.099	-1.953	16.602	43.091	-76.50	23.18	-98.53	-61.544	-60.858	-17.346	-0.59903	0.31290	-0.54547	0.49554	30.6	13111	100
2025-3-27 20:35:18.930	WT901BLE68-01(48591DE3C19B)	-0.220	-0.721	0.095	-11.719	24.780	35.583	-76.64	23.59	-98.79	-61.544	-60.858	-17.346	-0.59903	0.31290	-0.54547	0.49554	30.6	13111	100
2025-3-27 20:35:18.930	WT901BLE68-01(48591DE3C19B)	-0.439	-0.721	0.095	-11.719	24.780	35.583	-76.85	23.97	-99.10	-61.544	-60.858	-17.346	-0.59903	0.31290	-0.54547	0.49554	30.6	13111	100
2025-3-27 20:35:18.930	WT901BLE68-01(48591DE3C19B)	-0.439	-1.119	0.133	-24.719	19.531	21.423	-77.13	24.27	-99.39	-61.544	-60.858	-17.346	-0.59903	0.31290	-0.54547	0.49554	30.6	13111	100
2025-3-27 20:35:18.964	WT901BLE68-01(48591DE3C19B)	-0.625	-1.119	0.133	-24.719	19.531	21.423	-77.46	24.49	-99.68	-61.544	-60.858	-17.346	-0.59903	0.31290	-0.54547	0.49554	30.6	13111	100
2025-3-27 20:35:18.964	WT901BLE68-01(48591DE3C19B)	-0.625	-1.636	0.243	-27.527	1.648	-6.592	-77.79	24.57	-99.90	-61.544	-60.858	-17.346	-0.59903	0.31290	-0.54547	0.49554	30.6	13111	100
2025-3-27 20:35:18.964	WT901BLE68-01(48591DE3C19B)	-0.700	-1.636	0.243	-27.527	1.648	-6.592	-78.11	24.48	-100.06	-61.544	-60.858	-17.346	-0.59903	0.31290	-0.54547	0.49554	30.6	13111	100
2025-3-27 20:35:18.964	WT901BLE68-01(48591DE3C19B)	-0.700	-1.899	0.383	-20.508	-14.099	-33.020	-78.36	24.25	-100.16	-61.544	-60.858	-17.346	-0.59903	0.31290	-0.54547	0.49554	30.6	13111	100
2025-3-27 20:35:18.989	WT901BLE68-01(48591DE3C19B)	-0.796	-1.899	0.383	-20.508	-14.099	-33.020	-78.55	23.88	-100.21	-61.544	-60.858	-17.346	-0.59903	0.31290	-0.54547	0.49554	30.6	13111	100
2025-3-27 20:35:18.989	WT901BLE68-01(48591DE3C19B)	-0.796	-1.900	0.494	-14.221	-22.522	-46.997	-78.65	23.36	-100.19	-61.544	-60.858	-17.346	-0.59903	0.31290	-0.54547	0.49554	30.6	13111	100
2025-3-27 20:35:18.989	WT901BLE68-01(48591DE3C19B)	-0.698	-1.900	0.494	-14.221	-22.522	-46.997	-78.74	22.84	-100.18	-61.544	-60.858	-17.346	-0.59903	0.31290	-0.54547	0.49554	30.6	13111	100
2025-3-27 20:35:18.990	WT901BLE68-01(48591DE3C19B)	-0.698	-1.525	0.520	-6.409	-18.005	-52.490	-78.77	22.28	-100.23	-61.544	-60.858	-17.346	-0.59903	0.31290	-0.54547	0.49554	30.6	13111	100
2025-3-27 20:35:19.49	WT901BLE68-01(48591DE3C19B)	-0.530	-1.525	0.520	-6.409	-18.005	-52.490	-78.80	21.73	-100.28	-61.544	-60.858	-17.346	-0.59903	0.31290	-0.54547	0.49554	30.6	13111	100
2025-3-27 20:35:19.49	WT901BLE68-01(48591DE3C19B)	-0.530	-1.142	0.481	-7.690	-11.414	-46.692	-78.85	21.24	-100.40	-71.246	-54.684	-19.502	-0.59903	0.31290	-0.54547	0.49554	30.6	13111	100
2025-3-27 20:35:19.49	WT901BLE68-01(48591DE3C19B)	-0.366	-1.142	0.481	-7.690	-11.414	-46.692	-78.90	20.76	-100.51	-71.246	-54.684	-19.502	-0.59903	0.31290	-0.54547	0.49554	30.6	13111	100
2025-3-27 20:35:19.49	WT901BLE68-01(48591DE3C19B)	-0.366	-0.882	0.372	-13.306	-14.893	-35.706	-78.98	20.39	-100.57	-71.246	-54.684	-19.502	-0.59903	0.31290	-0.54547	0.49554	30.6	13111	100
2025-3-27 20:35:19.82	WT901BLE68-01(48591DE3C19B)	-0.331	-0.882	0.372	-13.306	-14.893	-35.706	-79.05	20.01	-100.63	-71.246	-54.684	-19.502	-0.59903	0.31290	-0.54547	0.49554	30.6	13111	100
2025-3-27 20:35:19.82	WT901BLE68-01(48591DE3C19B)	-0.331	-0.812	0.276	-18.921	-24.292	-23.071	-79.14	19.75	-100.56	-71.246	-54.684	-19.502	-0.59903	0.31290	-0.54547	0.49554	30.6	13111	100
2025-3-27 20:35:19.82	WT901BLE68-01(48591DE3C19B)	-0.394	-0.812	0.276	-18.921	-24.292	-23.071	-79.23	19.48	-100.49	-71.246	-54.684	-19.502	-0.59903	0.31290	-0.54547	0.49554	30.6	13111	100
2025-3-27 20:35:19.82	WT901BLE68-01(48591DE3C19B)	-0.394	-0.814	0.212	-17.883	-33.142	-14.038	-79.27	19.29	-100.31	-71.246	-54.684	-19.502	-0.59903	0.31290	-0.54547	0.49554	30.6	13111	100
2025-3-27 20:35:19.109	WT901BLE68-01(48591DE3C19B)	-0.368	-0.814	0.212	-17.883	-33.142	-14.038	-79.30	19.10	-100.13	-71.246	-54.684	-19.502	-0.59903	0.31290	-0.54547	0.49554	30.6	13111	100
2025-3-27 20:35:19.109	WT901BLE68-01(48591DE3C19B)	-0.368	-0.819	0.169	-10.437	-27.588	-8.240	-79.29	18.98	-100.00	-71.246	-54.684	-19.502	-0.59903	0.31290	-0.54547	0.49554	30.6	13111	100
2025-3-27 20:35:19.109	WT901BLE68-01(48591DE3C19B)	-0.348	-0.819	0.169	-10.437	-27.588	-8.240	-79.27	18.86	-99.87	-71.246	-54.684	-19.502	-0.59903	0.31290	-0.54547	0.49554	30.6	13111	100
2025-3-27 20:35:19.109	WT901BLE68-01(48591DE3C19B)	-0.348	-0.784	0.164	3.479	-1.648	-10.315	-79.21	18.78	-100.00	-71.246	-54.684	-19.502	-0.59903	0.31290	-0.54547	0.49554	30.6	13111	100
2025-3-27 20:35:19.169	WT901BLE68-01(48591DE3C19B)	-0.372	-0.784	0.164	3.479	-1.648	-10.315	-79.15	18.69	-100.13	-71.246	-54.684	-19.502	-0.59903	0.31290	-0.54547	0.49554	30.6	13111	100
2025-3-27 20:35:19.169	WT901BLE68-01(48591DE3C19B)	-0.372	-0.734	0.176	11.597	22.522	-12.634	-79.09	18.63	-100.52	-71.246	-54.684	-19.502	-0.59903	0.31290	-0.54547	0.49554	30.6	13111	100
2025-3-27 20:35:19.169	WT901BLE68-01(48591DE3C19B)	-0.399	-0.734	0.176	11.597	22.522	-12.634	-79.02	18.57	-100.91	-71.246	-54.684	-19.502	-0.59903	0.31290	-0.54547	0.49554	30.6	13111	100
2025-3-27 20:35:19.169	WT901BLE68-01(48591DE3C19B)	-0.399	-0.708	0.193	15.686	34.851	-16.846	-78.96	18.50	-101.43	-71.246	-54.684	-19.502	-0.59903	0.31290	-0.54547	0.49554	30.6	13111	100
2025-3-27 20:35:19.199	WT901BLE68-01(48591DE3C19B)	-0.411	-0.708	0.193	15.686	34.851	-16.846	-78.90	18.42	-101.95	-71.246	-54.684	-19.502	-0.59903	0.31290	-0.54547	0.49554	30.6	13111	100
2025-3-27 20:35:19.199	WT901BLE68-01(48591DE3C19B)	-0.411	-0.661	0.198	18.433	40.405	-18.921	-78.84	18.35	-102.52	-71.246	-54.684	-19.502	-0.59903	0.31290	-0.54547	0.49554	30.6	13111	100
2025-3-27 20:35:19.199	WT901BLE68-01(48591DE3C19B)	-0.439	-0.661	0.198	18.433	40.405	-18.921	-78.77	18.28	-103.10	-71.246	-54.684	-19.502	-0.59903	0.31290	-0.54547	0.49554	30.6	13111	100
2025-3-27 20:35:19.199	WT901BLE68-01(48591DE3C19B)	-0.439	-0.584	0.200	20.203	40.894	-18.555	-78.68	18.22	-103.68	-71.246	-54.684	-19.502	-0.55066	0.29041	-0.56781	0.53845	30.6	13111	100
2025-3-27 20:35:19.231	WT901BLE68-01(48591DE3C19B)	-0.438	-0.584	0.200	20.203	40.894	-18.555	-78.59	18.15	-104.27	-71.246	-54.684	-19.502	-0.55066	0.29041	-0.56781	0.53845	30.6	13111	100
2025-3-27 20:35:19.231	WT901BLE68-01(48591DE3C19B)	-0.438	-0.454	0.192	18.005	32.349	-13.306	-78.48	18.14	-104.75	-71.246	-54.684	-19.502	-0.55066	0.29041	-0.56781	0.53845	30.6	13111	100
2025-3-27 20:35:19.231	WT901BLE68-01(48591DE3C19B)	-0.375	-0.454	0.192	18.005	32.349	-13.306	-78.38	18.13	-105.24	-71.246	-54.684	-19.502	-0.55066	0.29041	-0.56781	0.53845	30.6	13111	100
2025-3-27 20:35:19.231	WT901BLE68-01(48591DE3C19B)	-0.375	-0.322	0.181	9.460	17.822	-2.625	-78.29	18.20	-105.57	-71.246	-54.684	-19.502	-0.55066	0.29041	-0.56781	0.53845	30.6	13111	100
2025-3-27 20:35:19.289	WT901BLE68-01(48591DE3C19B)	-0.304	-0.322	0.181	9.460	17.822	-2.625	-78.21	18.28	-105.89	-71.246	-54.684	-19.502	-0.55066	0.29041	-0.56781	0.53845	30.6	13111	100
2025-3-27 20:35:19.289	WT901BLE68-01(48591DE3C19B)	-0.304	-0.270	0.187	-0.305	4.211	11.047	-78.17	18.46	-106.05	-71.246	-54.684	-19.502	-0.55066	0.29041	-0.56781	0.53845	30.6	13111	100
2025-3-27 20:35:19.289	WT901BLE68-01(48591DE3C19B)	-0.274	-0.270	0.187	-0.305	4.211	11.047	-78.12	18.65	-106.22	-71.246	-54.684	-19.502	-0.55066	0.29041	-0.56781	0.53845	30.6	13111	100
2025-3-27 20:35:19.289	WT901BLE68-01(48591DE3C19B)	-0.274	-0.274	0.191	-9.460	-7.263	26.428	-78.11	18.97	-106.23	-71.246	-54.684	-19.502	-0.55066	0.29041	-0.56781	0.53845	30.6	13111	100
2025-3-27 20:35:19.318	WT901BLE68-01(48591DE3C19B)	-0.285	-0.274	0.191	-9.460	-7.263	26.428	-78.09	19.28	-106.24	-71.246	-54.684	-19.502	-0.55066	0.29041	-0.56781	0.53845	30.6	13111	100
2025-3-27 20:35:19.318	WT901BLE68-01(48591DE3C19B)	-0.285	-0.416	0.153	-26.978	-24.597	35.706	-78.18	19.65	-106.06	-71.246	-54.684	-19.502	-0.55066	0.29041	-0.56781	0.53845	30.6	13111	100
2025-3-27 20:35:19.318	WT901BLE68-01(48591DE3C19B)	-0.370	-0.416	0.153	-26.978	-24.597	35.706	-78.27	20.01	-105.86	-71.246	-54.684	-19.502	-0.55066	0.29041	-0.56781	0.53845	30.6	13111	100
2025-3-27 20:35:19.318	WT901BLE68-01(48591DE3C19B)	-0.370	-0.818	0.183	-43.030	-45.166	31.677	-78.45	20.30	-105.46	-71.246	-54.684	-19.502	-0.55066	0.29041	-0.56781	0.53845	30.6	13111	100
2025-3-27 20:35:19.349	WT901BLE68-01(48591DE3C19B)	-0.527	-0.818	0.183	-43.030	-45.166	31.677	-78.63	20.57	-105.04	-71.246	-54.684	-19.502	-0.55066	0.29041	-0.56781	0.53845	30.6	13111	100
2025-3-27 20:35:19.349	WT901BLE68-01(48591DE3C19B)	-0.527	-1.487	0.204	-53.589	-64.392	18.799	-78.88	20.68	-104.44	-71.246	-54.684	-19.502	-0.55066	0.29041	-0.56781	0.53845	30.6	13111	100
2025-3-27 20:35:19.349	WT901BLE68-01(48591DE3C19B)	-0.545	-1.487	0.204	-53.589	-64.392	18.799	-79.13	20.78	-103.82	-71.246	-54.684	-19.502	-0.55066	0.29041	-0.56781	0.53845	30.6	13111	100
2025-3-27 20:35:19.349	WT901BLE68-01(48591DE3C19B)	-0.545	-2.367	0.111	-34.485	-63.965	5.554	-79.22	20.73	-103.21	-71.246	-54.684	-19.502	-0.55066	0.29041	-0.56781	0.53845	30.6	13111	100
2025-3-27 20:35:19.409	WT901BLE68-01(48591DE3C19B)	-1.120	-2.367	0.111	-34.485	-63.965	5.554	-79.33	20.68	-102.59	-71.246	-54.684	-19.502	-0.55066	0.29041	-0.56781	0.53845	30.6	13111	100
2025-3-27 20:35:19.409	WT901BLE68-01(48591DE3C19B)	-2.241	-5.510	0.045	6.226	-55.847	14.587	-79.06	20.71	-102.03	-71.246	-54.684	-19.502	-0.55066	0.29041	-0.56781	0.53845	30.6	13111	100
2025-3-27 20:35:19.409	WT901BLE68-01(48591DE3C19B)	-0.518	-11.021	0.090	6.226	-55.847	14.587	-78.83	20.71	-101.45	-71.246	-54.684	-19.502	-0.55066	0.29041	-0.56781	0.53845	30.6	13111	100
2025-3-27 20:35:19.410	WT901BLE68-01(48591DE3C19B)	-0.518	-2.061	0.096	29.114	-35.645	5.493	-78.45	20.67	-101.10	-71.246	-54.684	-19.502	-0.55066	0.29041	-0.56781	0.53845	30.6	13111	100
2025-3-27 20:35:19.499	WT901BLE68-01(48591DE3C19B)	-0.389	-2.061	0.096	29.114	-35.645	5.493	-78.07	20.62	-100.75	-84.574	-41.454	-17.934	-0.55066	0.29041	-0.56781	0.53845	30.6	13111	100
2025-3-27 20:35:19.499	WT901BLE68-01(48591DE3C19B)	-0.243	-1.717	0.160	20.142	-9.644	13.367	-77.88	20.70	-100.66	-84.574	-41.454	-17.934	-0.55066	0.29041	-0.56781	0.53845	30.6	13111	100
2025-3-27 20:35:19.499	WT901BLE68-01(48591DE3C19B)	-0.243	-1.396	0.275	15.808	24.780	28.320	-77.76	20.89	-100.72	-84.574	-41.454	-17.934	-0.55066	0.29041	-0.56781	0.53845	30.6	13111	100
2025-3-27 20:35:19.499	WT901BLE68-01(48591DE3C19B)	-0.120	-1.396	0.275	15.808	24.780	28.320	-77.72	21.18	-100.95	-84.574	-41.454	-17.934	-0.55066	0.29041	-0.56781	0.53845	30.6	13111	100
2025-3-27 20:35:19.501	WT901BLE68-01(48591DE3C19B)	-0.120	-1.094	0.342	9.033	51.697	41.931	-77.76	21.56	-101.30	-84.574	-41.454	-17.934	-0.55066	0.29041	-0.56781	0.53845	30.6	13111	100
2025-3-27 20:35:19.501	WT901BLE68-01(48591DE3C19B)	-0.121	-1.094	0.342	9.033	51.697	41.931	-77.88	22.03	-101.78	-84.574	-41.454	-17.934	-0.55066	0.29041	-0.56781	0.53845	30.6	13111	100
2025-3-27 20:35:19.501	WT901BLE68-01(48591DE3C19B)	-0.121	-0.926	0.278	-3.479	57.190	41.931	-78.07	22.50	-102.29	-84.574	-41.454	-17.934	-0.55066	0.29041	-0.56781	0.53845	30.6	13111	100
2025-3-27 20:35:19.501	WT901BLE68-01(48591DE3C19B)	-0.180	-0.926	0.278	-3.479	57.190	41.931	-78.34	22.97	-102.83	-84.574	-41.454	-17.934	-0.55066	0.29041	-0.56781	0.53845	30.6	13111	100
2025-3-27 20:35:19.531	WT901BLE68-01(48591DE3C19B)	-0.180	-0.862	0.195	-10.132	44.128	34.119	-78.61	23.38	-103.30	-84.574	-41.454	-17.934	-0.55066	0.29041	-0.56781	0.53845	30.6	13111	100
2025-3-27 20:35:19.531	WT901BLE68-01(48591DE3C19B)	-0.258	-0.862	0.195	-10.132	44.128	34.119	-78.89	23.74	-103.73	-84.574	-41.454	-17.934	-0.55066	0.29041	-0.56781	0.53845	30.6	13111	100
2025-3-27 20:35:19.531	WT901BLE68-01(48591DE3C19B)	-0.258	-0.796	0.145	-12.207	32.959	22.522	-79.17	24.02	-104.10	-84.574	-41.454	-17.934	-0.55066	0.29041	-0.56781	0.53845	30.6	13111	100
2025-3-27 20:35:19.531	WT901BLE68-01(48591DE3C19B)	-0.330	-0.796	0.145	-12.207	32.959	22.522	-79.44	24.24	-104.43	-84.574	-41.454	-17.934	-0.55066	0.29041	-0.56781	0.53845	30.6	13111	100
2025-3-27 20:35:19.591	WT901BLE68-01(48591DE3C19B)	-0.330	-0.708	0.143	-13.245	29.419	11.353	-79.71	24.40	-104.74	-84.574	-41.454	-17.934	-0.55066	0.29041	-0.56781	0.53845	30.6	13111	100
2025-3-27 20:35:19.591	WT901BLE68-01(48591DE3C19B)	-0.383	-0.708	0.143	-13.245	29.419	11.353	-79.97	24.49	-105.06	-84.574	-41.454	-17.934	-0.55066	0.29041	-0.56781	0.53845	30.6	13111	100
2025-3-27 20:35:19.591	WT901BLE68-01(48591DE3C19B)	-0.383	-0.640	0.163	-13.855	26.489	2.808	-80.23	24.55	-105.36	-84.574	-41.454	-17.934	-0.55066	0.29041	-0.56781	0.53845	30.6	13111	100
2025-3-27 20:35:19.591	WT901BLE68-01(48591DE3C19B)	-0.408	-0.640	0.163	-13.855	26.489	2.808	-80.50	24.57	-105.66	-84.574	-41.454	-17.934	-0.55066	0.29041	-0.56781	0.53845	30.6	13111	100
2025-3-27 20:35:19.621	WT901BLE68-01(48591DE3C19B)	-0.408	-0.604	0.177	-13.367	15.686	0.183	-80.73	24.57	-105.90	-84.574	-41.454	-17.934	-0.55066	0.29041	-0.56781	0.53845	30.6	13111	100
2025-3-27 20:35:19.621	WT901BLE68-01(48591DE3C19B)	-0.413	-0.604	0.177	-13.367	15.686	0.183	-80.93	24.56	-106.08	-84.574	-41.454	-17.934	-0.55066	0.29041	-0.56781	0.53845	30.6	13111	100
2025-3-27 20:35:19.621	WT901BLE68-01(48591DE3C19B)	-0.413	-0.608	0.171	-11.902	-9.827	0.977	-81.06	24.53	-106.13	-84.574	-41.454	-17.934	-0.55066	0.29041	-0.56781	0.53845	30.6	13111	100
2025-3-27 20:35:19.621	WT901BLE68-01(48591DE3C19B)	-0.420	-0.608	0.171	-11.902	-9.827	0.977	-81.13	24.49	-106.04	-84.574	-41.454	-17.934	-0.55066	0.29041	-0.56781	0.53845	30.6	13111	100
2025-3-27 20:35:19.650	WT901BLE68-01(48591DE3C19B)	-0.420	-0.653	0.143	-11.902	-48.889	0.305	-81.11	24.43	-105.74	-84.574	-41.454	-17.934	-0.55899	0.25668	-0.60272	0.50821	30.6	13111	100
2025-3-27 20:35:19.651	WT901BLE68-01(48591DE3C19B)	-0.372	-0.653	0.143	-11.902	-48.889	0.305	-81.00	24.34	-105.23	-84.574	-41.454	-17.934	-0.55899	0.25668	-0.60272	0.50821	30.6	13111	100
2025-3-27 20:35:19.651	WT901BLE68-01(48591DE3C19B)	-0.372	-0.717	0.083	-15.137	-81.360	-0.366	-80.83	24.22	-104.55	-84.574	-41.454	-17.934	-0.55899	0.25668	-0.60272	0.50821	30.6	13111	100
2025-3-27 20:35:19.651	WT901BLE68-01(48591DE3C19B)	-0.253	-0.717	0.083	-15.137	-81.360	-0.366	-80.62	24.08	-103.71	-84.574	-41.454	-17.934	-0.55899	0.25668	-0.60272	0.50821	30.6	13111	100
2025-3-27 20:35:19.682	WT901BLE68-01(48591DE3C19B)	-0.253	-0.824	0.060	-14.343	-84.290	-0.122	-80.40	23.93	-102.84	-84.574	-41.454	-17.934	-0.55899	0.25668	-0.60272	0.50821	30.6	13111	100
2025-3-27 20:35:19.682	WT901BLE68-01(48591DE3C19B)	-0.170	-0.824	0.060	-14.343	-84.290	-0.122	-80.18	23.78	-101.96	-84.574	-41.454	-17.934	-0.55899	0.25668	-0.60272	0.50821	30.6	13111	100
2025-3-27 20:35:19.682	WT901BLE68-01(48591DE3C19B)	-0.170	-0.920	0.090	-6.287	-62.317	-0.427	-79.97	23.64	-101.21	-84.574	-41.454	-17.934	-0.55899	0.25668	-0.60272	0.50821	30.6	13111	100
2025-3-27 20:35:19.682	WT901BLE68-01(48591DE3C19B)	-0.154	-0.920	0.090	-6.287	-62.317	-0.427	-79.78	23.51	-100.57	-84.574	-41.454	-17.934	-0.55899	0.25668	-0.60272	0.50821	30.6	13111	100
2025-3-27 20:35:19.739	WT901BLE68-01(48591DE3C19B)	-0.154	-0.970	0.140	2.991	-26.550	-0.427	-79.61	23.40	-100.12	-84.574	-41.454	-17.934	-0.55899	0.25668	-0.60272	0.50821	30.6	13111	100
2025-3-27 20:35:19.740	WT901BLE68-01(48591DE3C19B)	-0.221	-0.970	0.140	2.991	-26.550	-0.427	-79.49	23.32	-99.87	-84.574	-41.454	-17.934	-0.55899	0.25668	-0.60272	0.50821	30.6	13111	100
2025-3-27 20:35:19.740	WT901BLE68-01(48591DE3C19B)	-0.221	-0.980	0.172	10.498	10.681	-1.343	-79.40	23.26	-99.82	-84.574	-41.454	-17.934	-0.55899	0.25668	-0.60272	0.50821	30.6	13111	100
2025-3-27 20:35:19.740	WT901BLE68-01(48591DE3C19B)	-0.317	-0.980	0.172	10.498	10.681	-1.343	-79.35	23.23	-99.96	-84.574	-41.454	-17.934	-0.55899	0.25668	-0.60272	0.50821	30.6	13111	100
2025-3-27 20:35:19.769	WT901BLE68-01(48591DE3C19B)	-0.317	-0.981	0.189	15.198	33.630	-2.563	-79.34	23.21	-100.22	-84.574	-41.454	-17.934	-0.55899	0.25668	-0.60272	0.50821	30.6	13111	100
2025-3-27 20:35:19.770	WT901BLE68-01(48591DE3C19B)	-0.379	-0.981	0.189	15.198	33.630	-2.563	-79.34	23.21	-100.61	-84.574	-41.454	-17.934	-0.55899	0.25668	-0.60272	0.50821	30.6	13111	100
2025-3-27 20:35:19.770	WT901BLE68-01(48591DE3C19B)	-0.379	-0.961	0.188	17.578	40.161	-5.920	-79.34	23.20	-101.03	-84.574	-41.454	-17.934	-0.55899	0.25668	-0.60272	0.50821	30.6	13111	100
2025-3-27 20:35:19.770	WT901BLE68-01(48591DE3C19B)	-0.396	-0.961	0.188	17.578	40.161	-5.920	-79.35	23.19	-101.49	-84.574	-41.454	-17.934	-0.55899	0.25668	-0.60272	0.50821	30.6	13111	100
