time	DeviceName	AccX(g)	AccY(g)	AccZ(g)	AsX(°/s)	AsY(°/s)	AsZ(°/s)	AngleX(°)	AngleY(°)	AngleZ(°)	HX(uT)	HY(uT)	HZ(uT)	Q0()	Q1()	Q2()	Q3()	Temperature(°C)	Version()	Battery level(%)
2025-3-27 20:5:47.859	WT901BLE68-01(48591DE3C19B)	-0.316	-0.907	0.277	0.122	-2.075	6.897	-74.25	19.98	-104.02	-69.972	-38.416	0.294	0.55460	-0.26254	0.55478	-0.56177	24.7	13111	100
2025-3-27 20:5:47.859	WT901BLE68-01(48591DE3C19B)	-0.316	-0.901	0.286	0.671	-5.676	5.676	-74.21	20.02	-103.94	-69.972	-38.416	0.294	0.55460	-0.26254	0.55478	-0.56177	24.7	13111	100
2025-3-27 20:5:47.859	WT901BLE68-01(48591DE3C19B)	-0.301	-0.901	0.286	0.671	-5.676	5.676	-74.16	20.06	-103.85	-69.972	-38.416	0.294	0.55460	-0.26254	0.55478	-0.56177	24.7	13111	100
2025-3-27 20:5:47.860	WT901BLE68-01(48591DE3C19B)	-0.301	-0.896	0.283	-0.244	-3.845	5.310	-74.14	20.09	-103.78	-69.972	-38.416	0.294	0.55460	-0.26254	0.55478	-0.56177	24.7	13111	100
2025-3-27 20:5:47.892	WT901BLE68-01(48591DE3C19B)	-0.317	-0.896	0.283	-0.244	-3.845	5.310	-74.11	20.12	-103.71	-69.972	-38.416	0.294	0.55460	-0.26254	0.55478	-0.56177	24.7	13111	100
2025-3-27 20:5:47.893	WT901BLE68-01(48591DE3C19B)	-0.317	-0.900	0.277	0.000	0.305	4.211	-74.10	20.16	-103.69	-69.972	-38.416	0.294	0.55460	-0.26254	0.55478	-0.56177	24.7	13111	100
2025-3-27 20:5:47.893	WT901BLE68-01(48591DE3C19B)	-0.320	-0.900	0.277	0.000	0.305	4.211	-74.09	20.19	-103.67	-69.972	-38.416	0.294	0.55460	-0.26254	0.55478	-0.56177	24.7	13111	100
2025-3-27 20:5:47.893	WT901BLE68-01(48591DE3C19B)	-0.320	-0.896	0.278	-0.244	0.305	2.563	-74.08	20.21	-103.65	-69.972	-38.416	0.294	0.55460	-0.26254	0.55478	-0.56177	24.7	13111	100
2025-3-27 20:5:47.955	WT901BLE68-01(48591DE3C19B)	-0.322	-0.896	0.278	-0.244	0.305	2.563	-74.07	20.23	-103.63	-69.972	-38.416	0.294	0.55460	-0.26254	0.55478	-0.56177	24.7	13111	100
2025-3-27 20:5:47.955	WT901BLE68-01(48591DE3C19B)	-0.317	-0.898	0.283	0.000	0.061	0.854	-74.06	20.23	-103.61	-69.972	-38.416	0.294	0.56906	-0.25641	0.55261	-0.55222	24.7	13111	100
2025-3-27 20:5:47.955	WT901BLE68-01(48591DE3C19B)	-0.317	-0.893	0.293	0.549	-2.197	-1.160	-74.05	20.21	-103.59	-69.972	-38.416	0.294	0.56906	-0.25641	0.55261	-0.55222	24.7	13111	100
2025-3-27 20:5:47.955	WT901BLE68-01(48591DE3C19B)	-0.307	-0.893	0.293	0.549	-2.197	-1.160	-74.03	20.19	-103.56	-69.972	-38.416	0.294	0.56906	-0.25641	0.55261	-0.55222	24.7	13111	100
2025-3-27 20:5:47.981	WT901BLE68-01(48591DE3C19B)	-0.307	-0.887	0.294	0.916	-3.235	-2.380	-74.00	20.15	-103.52	-69.972	-38.416	0.294	0.56906	-0.25641	0.55261	-0.55222	24.7	13111	100
2025-3-27 20:5:47.981	WT901BLE68-01(48591DE3C19B)	-0.323	-0.887	0.294	0.916	-3.235	-2.380	-73.97	20.12	-103.49	-69.972	-38.416	0.294	0.56906	-0.25641	0.55261	-0.55222	24.7	13111	100
2025-3-27 20:5:47.981	WT901BLE68-01(48591DE3C19B)	-0.323	-0.883	0.285	0.061	-1.160	-2.319	-73.95	20.08	-103.46	-69.972	-38.416	0.294	0.56906	-0.25641	0.55261	-0.55222	24.7	13111	100
2025-3-27 20:5:47.981	WT901BLE68-01(48591DE3C19B)	-0.343	-0.883	0.285	0.061	-1.160	-2.319	-73.94	20.04	-103.44	-69.972	-38.416	0.294	0.56906	-0.25641	0.55261	-0.55222	24.7	13111	100
2025-3-27 20:5:48.10	WT901BLE68-01(48591DE3C19B)	-0.343	-0.890	0.279	-0.671	-0.610	-3.174	-73.93	20.01	-103.43	-69.972	-38.416	0.294	0.56906	-0.25641	0.55261	-0.55222	24.7	13111	100
2025-3-27 20:5:48.10	WT901BLE68-01(48591DE3C19B)	-0.345	-0.890	0.279	-0.671	-0.610	-3.174	-73.93	19.97	-103.43	-69.972	-38.416	0.294	0.56906	-0.25641	0.55261	-0.55222	24.7	13111	100
2025-3-27 20:5:48.10	WT901BLE68-01(48591DE3C19B)	-0.345	-0.897	0.278	-1.221	-1.038	-3.479	-73.93	19.93	-103.41	-69.972	-38.416	0.294	0.56906	-0.25641	0.55261	-0.55222	24.7	13111	100
2025-3-27 20:5:48.11	WT901BLE68-01(48591DE3C19B)	-0.349	-0.897	0.278	-1.221	-1.038	-3.479	-73.93	19.89	-103.40	-69.972	-38.416	0.294	0.56906	-0.25641	0.55261	-0.55222	24.7	13111	100
2025-3-27 20:5:48.71	WT901BLE68-01(48591DE3C19B)	-0.349	-0.897	0.281	-1.282	-1.648	-3.845	-73.94	19.85	-103.39	-69.972	-38.416	0.294	0.56906	-0.25641	0.55261	-0.55222	24.7	13111	100
2025-3-27 20:5:48.71	WT901BLE68-01(48591DE3C19B)	-0.350	-0.897	0.281	-1.282	-1.648	-3.845	-73.94	19.81	-103.38	-69.972	-38.416	0.294	0.56906	-0.25641	0.55261	-0.55222	24.7	13111	100
2025-3-27 20:5:48.71	WT901BLE68-01(48591DE3C19B)	-0.350	-0.896	0.286	-1.648	-2.563	-3.479	-73.94	19.76	-103.35	-69.972	-38.416	0.294	0.56906	-0.25641	0.55261	-0.55222	24.7	13111	100
2025-3-27 20:5:48.71	WT901BLE68-01(48591DE3C19B)	-0.343	-0.896	0.286	-1.648	-2.563	-3.479	-73.94	19.72	-103.33	-69.972	-38.416	0.294	0.56906	-0.25641	0.55261	-0.55222	24.7	13111	100
2025-3-27 20:5:48.101	WT901BLE68-01(48591DE3C19B)	-0.343	-0.894	0.287	-1.343	-3.967	-3.296	-73.94	19.68	-103.29	-69.972	-38.416	0.294	0.56906	-0.25641	0.55261	-0.55222	24.7	13111	100
2025-3-27 20:5:48.101	WT901BLE68-01(48591DE3C19B)	-0.328	-0.894	0.287	-1.343	-3.967	-3.296	-73.93	19.64	-103.26	-69.972	-38.416	0.294	0.56906	-0.25641	0.55261	-0.55222	24.7	13111	100
2025-3-27 20:5:48.101	WT901BLE68-01(48591DE3C19B)	-0.328	-0.890	0.289	-1.404	-4.089	-2.747	-73.93	19.60	-103.21	-69.972	-38.416	0.294	0.56906	-0.25641	0.55261	-0.55222	24.7	13111	100
2025-3-27 20:5:48.101	WT901BLE68-01(48591DE3C19B)	-0.326	-0.890	0.289	-1.404	-4.089	-2.747	-73.92	19.56	-103.17	-69.972	-38.416	0.294	0.56906	-0.25641	0.55261	-0.55222	24.7	13111	100
2025-3-27 20:5:48.130	WT901BLE68-01(48591DE3C19B)	-0.326	-0.890	0.290	-1.343	-2.380	-2.319	-73.92	19.53	-103.13	-69.972	-38.416	0.294	0.56906	-0.25641	0.55261	-0.55222	24.7	13111	100
2025-3-27 20:5:48.131	WT901BLE68-01(48591DE3C19B)	-0.320	-0.890	0.290	-1.343	-2.380	-2.319	-73.92	19.50	-103.11	-69.972	-38.416	0.294	0.56906	-0.25641	0.55261	-0.55222	24.7	13111	100
2025-3-27 20:5:48.131	WT901BLE68-01(48591DE3C19B)	-0.320	-0.882	0.293	-0.916	-0.854	-2.075	-73.91	19.48	-103.09	-70.462	-38.416	0.588	0.56906	-0.25641	0.55261	-0.55222	24.7	13111	100
2025-3-27 20:5:48.131	WT901BLE68-01(48591DE3C19B)	-0.322	-0.882	0.293	-0.916	-0.854	-2.075	-73.91	19.46	-103.08	-70.462	-38.416	0.588	0.56906	-0.25641	0.55261	-0.55222	24.7	13111	100
2025-3-27 20:5:48.191	WT901BLE68-01(48591DE3C19B)	-0.322	-0.889	0.291	-1.587	0.854	-2.197	-73.91	19.43	-103.07	-70.462	-38.416	0.588	0.56906	-0.25641	0.55261	-0.55222	24.7	13111	100
2025-3-27 20:5:48.191	WT901BLE68-01(48591DE3C19B)	-0.337	-0.889	0.291	-1.587	0.854	-2.197	-73.92	19.41	-103.08	-70.462	-38.416	0.588	0.56906	-0.25641	0.55261	-0.55222	24.7	13111	100
2025-3-27 20:5:48.191	WT901BLE68-01(48591DE3C19B)	-0.337	-0.903	0.286	-1.709	1.282	-2.563	-73.93	19.40	-103.09	-70.462	-38.416	0.588	0.56906	-0.25641	0.55261	-0.55222	24.7	13111	100
2025-3-27 20:5:48.191	WT901BLE68-01(48591DE3C19B)	-0.341	-0.903	0.286	-1.709	1.282	-2.563	-73.95	19.37	-103.11	-70.462	-38.416	0.588	0.56906	-0.25641	0.55261	-0.55222	24.7	13111	100
2025-3-27 20:5:48.220	WT901BLE68-01(48591DE3C19B)	-0.341	-0.906	0.286	-1.953	0.061	-3.479	-73.96	19.35	-103.11	-70.462	-38.416	0.588	0.56906	-0.25641	0.55261	-0.55222	24.7	13111	100
2025-3-27 20:5:48.220	WT901BLE68-01(48591DE3C19B)	-0.348	-0.906	0.286	-1.953	0.061	-3.479	-73.97	19.31	-103.11	-70.462	-38.416	0.588	0.56906	-0.25641	0.55261	-0.55222	24.7	13111	100
2025-3-27 20:5:48.220	WT901BLE68-01(48591DE3C19B)	-0.348	-0.898	0.287	-2.136	-1.831	-4.272	-73.98	19.28	-103.11	-70.462	-38.416	0.588	0.56906	-0.25641	0.55261	-0.55222	24.7	13111	100
2025-3-27 20:5:48.220	WT901BLE68-01(48591DE3C19B)	-0.345	-0.898	0.287	-2.136	-1.831	-4.272	-73.99	19.23	-103.09	-70.462	-38.416	0.588	0.56906	-0.25641	0.55261	-0.55222	24.7	13111	100
2025-3-27 20:5:48.255	WT901BLE68-01(48591DE3C19B)	-0.345	-0.894	0.284	-2.930	-3.723	-4.822	-74.00	19.19	-103.07	-70.462	-38.416	0.588	0.56906	-0.25641	0.55261	-0.55222	24.7	13111	100
2025-3-27 20:5:48.255	WT901BLE68-01(48591DE3C19B)	-0.340	-0.894	0.284	-2.930	-3.723	-4.822	-74.01	19.13	-103.04	-70.462	-38.416	0.588	0.56906	-0.25641	0.55261	-0.55222	24.7	13111	100
2025-3-27 20:5:48.255	WT901BLE68-01(48591DE3C19B)	-0.340	-0.892	0.284	-3.113	-3.967	-5.432	-74.03	19.08	-103.00	-70.462	-38.416	0.588	0.56906	-0.25641	0.55261	-0.55222	24.7	13111	100
2025-3-27 20:5:48.255	WT901BLE68-01(48591DE3C19B)	-0.338	-0.892	0.284	-3.113	-3.967	-5.432	-74.04	19.02	-102.97	-70.462	-38.416	0.588	0.56906	-0.25641	0.55261	-0.55222	24.7	13111	100
2025-3-27 20:5:48.313	WT901BLE68-01(48591DE3C19B)	-0.338	-0.890	0.287	-3.479	-3.235	-5.981	-74.05	18.96	-102.94	-70.462	-38.416	0.588	0.56906	-0.25641	0.55261	-0.55222	24.7	13111	100
2025-3-27 20:5:48.313	WT901BLE68-01(48591DE3C19B)	-0.340	-0.890	0.287	-3.479	-3.235	-5.981	-74.07	18.90	-102.92	-70.462	-38.416	0.588	0.56906	-0.25641	0.55261	-0.55222	24.7	13111	100
2025-3-27 20:5:48.313	WT901BLE68-01(48591DE3C19B)	-0.340	-0.890	0.291	-3.479	-1.526	-6.348	-74.09	18.84	-102.90	-70.462	-38.416	0.588	0.56906	-0.25641	0.55261	-0.55222	24.7	13111	100
2025-3-27 20:5:48.313	WT901BLE68-01(48591DE3C19B)	-0.350	-0.890	0.291	-3.479	-1.526	-6.348	-74.12	18.78	-102.90	-70.462	-38.416	0.588	0.56906	-0.25641	0.55261	-0.55222	24.7	13111	100
2025-3-27 20:5:48.343	WT901BLE68-01(48591DE3C19B)	-0.350	-0.890	0.289	-3.418	0.488	-6.104	-74.14	18.72	-102.91	-70.462	-38.416	0.588	0.56906	-0.25641	0.55261	-0.55222	24.7	13111	100
2025-3-27 20:5:48.344	WT901BLE68-01(48591DE3C19B)	-0.361	-0.890	0.289	-3.418	0.488	-6.104	-74.17	18.67	-102.92	-70.462	-38.416	0.588	0.56906	-0.25641	0.55261	-0.55222	24.7	13111	100
2025-3-27 20:5:48.344	WT901BLE68-01(48591DE3C19B)	-0.361	-0.886	0.285	-3.357	2.686	-5.310	-74.21	18.63	-102.95	-70.462	-38.416	0.588	0.56906	-0.25641	0.55261	-0.55222	24.7	13111	100
2025-3-27 20:5:48.344	WT901BLE68-01(48591DE3C19B)	-0.365	-0.886	0.285	-3.357	2.686	-5.310	-74.24	18.59	-102.98	-70.462	-38.416	0.588	0.56604	-0.27008	0.54630	-0.55508	24.7	13111	100
2025-3-27 20:5:48.373	WT901BLE68-01(48591DE3C19B)	-0.365	-0.888	0.286	-2.930	2.625	-4.211	-74.27	18.57	-103.01	-70.462	-38.416	0.588	0.56604	-0.27008	0.54630	-0.55508	24.7	13111	100
2025-3-27 20:5:48.373	WT901BLE68-01(48591DE3C19B)	-0.351	-0.888	0.286	-2.930	2.625	-4.211	-74.30	18.54	-103.05	-70.462	-38.416	0.588	0.56604	-0.27008	0.54630	-0.55508	24.7	13111	100
2025-3-27 20:5:48.373	WT901BLE68-01(48591DE3C19B)	-0.351	-0.888	0.288	-2.686	1.282	-2.563	-74.32	18.53	-103.07	-70.462	-38.416	0.588	0.56604	-0.27008	0.54630	-0.55508	24.7	13111	100
2025-3-27 20:5:48.373	WT901BLE68-01(48591DE3C19B)	-0.329	-0.888	0.288	-2.686	1.282	-2.563	-74.34	18.52	-103.08	-70.462	-38.416	0.588	0.56604	-0.27008	0.54630	-0.55508	24.7	13111	100
2025-3-27 20:5:48.431	WT901BLE68-01(48591DE3C19B)	-0.329	-0.892	0.298	-1.160	-1.892	-1.526	-74.34	18.51	-103.06	-70.462	-38.416	0.588	0.56604	-0.27008	0.54630	-0.55508	24.7	13111	100
2025-3-27 20:5:48.431	WT901BLE68-01(48591DE3C19B)	-0.295	-0.892	0.298	-1.160	-1.892	-1.526	-74.33	18.50	-103.04	-70.462	-38.416	0.588	0.56604	-0.27008	0.54630	-0.55508	24.7	13111	100
2025-3-27 20:5:48.431	WT901BLE68-01(48591DE3C19B)	-0.295	-0.886	0.300	-0.793	-2.075	0.610	-74.32	18.51	-103.00	-70.462	-38.416	0.588	0.56604	-0.27008	0.54630	-0.55508	24.7	13111	100
2025-3-27 20:5:48.431	WT901BLE68-01(48591DE3C19B)	-0.298	-0.886	0.300	-0.793	-2.075	0.610	-74.31	18.52	-102.97	-70.462	-38.416	0.588	0.56604	-0.27008	0.54630	-0.55508	24.7	13111	100
2025-3-27 20:5:48.460	WT901BLE68-01(48591DE3C19B)	-0.298	-0.891	0.291	0.305	2.563	2.686	-74.30	18.56	-102.99	-70.462	-38.416	0.588	0.56604	-0.27008	0.54630	-0.55508	24.7	13111	100
2025-3-27 20:5:48.460	WT901BLE68-01(48591DE3C19B)	-0.297	-0.891	0.291	0.305	2.563	2.686	-74.28	18.59	-103.00	-70.462	-38.416	0.588	0.56604	-0.27008	0.54630	-0.55508	24.7	13111	100
2025-3-27 20:5:48.460	WT901BLE68-01(48591DE3C19B)	-0.297	-0.883	0.284	0.244	4.028	3.479	-74.27	18.64	-103.02	-70.462	-38.416	0.588	0.56604	-0.27008	0.54630	-0.55508	24.7	13111	100
2025-3-27 20:5:48.460	WT901BLE68-01(48591DE3C19B)	-0.310	-0.883	0.284	0.244	4.028	3.479	-74.27	18.69	-103.05	-70.462	-38.416	0.588	0.56604	-0.27008	0.54630	-0.55508	24.7	13111	100
2025-3-27 20:5:48.491	WT901BLE68-01(48591DE3C19B)	-0.310	-0.892	0.280	-1.404	6.653	4.211	-74.29	18.75	-103.09	-70.462	-38.416	0.588	0.56604	-0.27008	0.54630	-0.55508	24.7	13111	100
2025-3-27 20:5:48.491	WT901BLE68-01(48591DE3C19B)	-0.359	-0.892	0.280	-1.404	6.653	4.211	-74.31	18.81	-103.14	-70.462	-38.416	0.588	0.56604	-0.27008	0.54630	-0.55508	24.7	13111	100
2025-3-27 20:5:48.491	WT901BLE68-01(48591DE3C19B)	-0.359	-0.913	0.275	-2.747	8.118	5.005	-74.34	18.88	-103.19	-70.462	-38.416	0.588	0.56604	-0.27008	0.54630	-0.55508	24.7	13111	100
2025-3-27 20:5:48.491	WT901BLE68-01(48591DE3C19B)	-0.383	-0.913	0.275	-2.747	8.118	5.005	-74.38	18.96	-103.26	-70.462	-38.416	0.588	0.56604	-0.27008	0.54630	-0.55508	24.7	13111	100
2025-3-27 20:5:48.555	WT901BLE68-01(48591DE3C19B)	-0.383	-0.912	0.273	-4.028	3.967	4.517	-74.42	19.01	-103.27	-70.462	-38.416	0.588	0.56604	-0.27008	0.54630	-0.55508	24.7	13111	100
2025-3-27 20:5:48.555	WT901BLE68-01(48591DE3C19B)	-0.371	-0.912	0.273	-4.028	3.967	4.517	-74.45	19.07	-103.29	-70.462	-38.416	0.588	0.56604	-0.27008	0.54630	-0.55508	24.7	13111	100
2025-3-27 20:5:48.555	WT901BLE68-01(48591DE3C19B)	-0.371	-0.888	0.275	-5.310	-2.380	3.906	-74.48	19.11	-103.24	-70.462	-38.416	0.588	0.56604	-0.27008	0.54630	-0.55508	24.7	13111	100
2025-3-27 20:5:48.555	WT901BLE68-01(48591DE3C19B)	-0.362	-0.888	0.275	-5.310	-2.380	3.906	-74.51	19.14	-103.20	-70.462	-38.416	0.588	0.56604	-0.27008	0.54630	-0.55508	24.7	13111	100
2025-3-27 20:5:48.583	WT901BLE68-01(48591DE3C19B)	-0.362	-0.872	0.269	-7.263	-7.874	2.808	-74.54	19.15	-103.10	-70.266	-38.024	0.490	0.56604	-0.27008	0.54630	-0.55508	24.7	13111	100
2025-3-27 20:5:48.583	WT901BLE68-01(48591DE3C19B)	-0.345	-0.872	0.269	-7.263	-7.874	2.808	-74.58	19.17	-103.00	-70.266	-38.024	0.490	0.56604	-0.27008	0.54630	-0.55508	24.7	13111	100
2025-3-27 20:5:48.583	WT901BLE68-01(48591DE3C19B)	-0.345	-0.863	0.270	-9.460	-14.709	1.404	-74.61	19.15	-102.84	-70.266	-38.024	0.490	0.56604	-0.27008	0.54630	-0.55508	24.7	13111	100
2025-3-27 20:5:48.583	WT901BLE68-01(48591DE3C19B)	-0.322	-0.863	0.270	-9.460	-14.709	1.404	-74.64	19.13	-102.68	-70.266	-38.024	0.490	0.56604	-0.27008	0.54630	-0.55508	24.7	13111	100
2025-3-27 20:5:48.612	WT901BLE68-01(48591DE3C19B)	-0.322	-0.865	0.272	-11.353	-18.738	0.488	-74.68	19.10	-102.48	-70.266	-38.024	0.490	0.56604	-0.27008	0.54630	-0.55508	24.7	13111	100
2025-3-27 20:5:48.612	WT901BLE68-01(48591DE3C19B)	-0.313	-0.865	0.272	-11.353	-18.738	0.488	-74.72	19.06	-102.28	-70.266	-38.024	0.490	0.56604	-0.27008	0.54630	-0.55508	24.7	13111	100
2025-3-27 20:5:48.612	WT901BLE68-01(48591DE3C19B)	-0.313	-0.869	0.275	-12.451	-20.752	-0.427	-74.76	19.01	-102.07	-70.266	-38.024	0.490	0.56604	-0.27008	0.54630	-0.55508	24.7	13111	100
2025-3-27 20:5:48.612	WT901BLE68-01(48591DE3C19B)	-0.306	-0.869	0.275	-12.451	-20.752	-0.427	-74.80	18.96	-101.85	-70.266	-38.024	0.490	0.56604	-0.27008	0.54630	-0.55508	24.7	13111	100
2025-3-27 20:5:48.671	WT901BLE68-01(48591DE3C19B)	-0.306	-0.860	0.282	-13.489	-22.278	-0.732	-74.85	18.90	-101.62	-70.266	-38.024	0.490	0.56604	-0.27008	0.54630	-0.55508	24.7	13111	100
2025-3-27 20:5:48.671	WT901BLE68-01(48591DE3C19B)	-0.317	-0.860	0.282	-13.489	-22.278	-0.732	-74.90	18.84	-101.40	-70.266	-38.024	0.490	0.56604	-0.27008	0.54630	-0.55508	24.7	13111	100
2025-3-27 20:5:48.672	WT901BLE68-01(48591DE3C19B)	-0.317	-0.847	0.281	-14.404	-22.827	0.000	-74.95	18.79	-101.16	-70.266	-38.024	0.490	0.56604	-0.27008	0.54630	-0.55508	24.7	13111	100
2025-3-27 20:5:48.672	WT901BLE68-01(48591DE3C19B)	-0.319	-0.847	0.281	-14.404	-22.827	0.000	-75.00	18.73	-100.93	-70.266	-38.024	0.490	0.56604	-0.27008	0.54630	-0.55508	24.7	13111	100
2025-3-27 20:5:48.702	WT901BLE68-01(48591DE3C19B)	-0.319	-0.839	0.276	-15.503	-25.757	0.488	-75.06	18.68	-100.67	-70.266	-38.024	0.490	0.56604	-0.27008	0.54630	-0.55508	24.7	13111	100
2025-3-27 20:5:48.703	WT901BLE68-01(48591DE3C19B)	-0.318	-0.839	0.276	-15.503	-25.757	0.488	-75.11	18.62	-100.40	-70.266	-38.024	0.490	0.56604	-0.27008	0.54630	-0.55508	24.7	13111	100
2025-3-27 20:5:48.703	WT901BLE68-01(48591DE3C19B)	-0.318	-0.852	0.272	-16.296	-29.663	-0.122	-75.16	18.56	-100.10	-70.266	-38.024	0.490	0.56604	-0.27008	0.54630	-0.55508	24.7	13111	100
2025-3-27 20:5:48.703	WT901BLE68-01(48591DE3C19B)	-0.319	-0.852	0.272	-16.296	-29.663	-0.122	-75.21	18.48	-99.81	-70.266	-38.024	0.490	0.56604	-0.27008	0.54630	-0.55508	24.7	13111	100
2025-3-27 20:5:48.732	WT901BLE68-01(48591DE3C19B)	-0.319	-0.878	0.272	-16.357	-33.997	-2.563	-75.25	18.38	-99.47	-70.266	-38.024	0.490	0.56604	-0.27008	0.54630	-0.55508	24.7	13111	100
2025-3-27 20:5:48.732	WT901BLE68-01(48591DE3C19B)	-0.320	-0.878	0.272	-16.357	-33.997	-2.563	-75.28	18.28	-99.14	-70.266	-38.024	0.490	0.56604	-0.27008	0.54630	-0.55508	24.7	13111	100
2025-3-27 20:5:48.732	WT901BLE68-01(48591DE3C19B)	-0.320	-0.918	0.279	-15.686	-38.391	-6.958	-75.31	18.12	-98.77	-70.266	-38.024	0.490	0.58194	-0.29803	0.53909	-0.53082	24.7	13111	100
2025-3-27 20:5:48.733	WT901BLE68-01(48591DE3C19B)	-0.315	-0.918	0.279	-15.686	-38.391	-6.958	-75.33	17.96	-98.40	-70.266	-38.024	0.490	0.58194	-0.29803	0.53909	-0.53082	24.7	13111	100
2025-3-27 20:5:48.791	WT901BLE68-01(48591DE3C19B)	-0.315	-0.962	0.284	-14.343	-38.635	-11.902	-75.35	17.76	-98.05	-70.266	-38.024	0.490	0.58194	-0.29803	0.53909	-0.53082	24.7	13111	100
2025-3-27 20:5:48.791	WT901BLE68-01(48591DE3C19B)	-0.306	-0.962	0.284	-14.343	-38.635	-11.902	-75.37	17.56	-97.70	-70.266	-38.024	0.490	0.58194	-0.29803	0.53909	-0.53082	24.7	13111	100
2025-3-27 20:5:48.791	WT901BLE68-01(48591DE3C19B)	-0.306	-0.992	0.280	-11.230	-34.180	-17.029	-75.37	17.31	-97.41	-70.266	-38.024	0.490	0.58194	-0.29803	0.53909	-0.53082	24.7	13111	100
2025-3-27 20:5:48.791	WT901BLE68-01(48591DE3C19B)	-0.309	-0.992	0.280	-11.230	-34.180	-17.029	-75.38	17.07	-97.12	-70.266	-38.024	0.490	0.58194	-0.29803	0.53909	-0.53082	24.7	13111	100
2025-3-27 20:5:48.820	WT901BLE68-01(48591DE3C19B)	-0.309	-0.998	0.274	-7.935	-26.978	-21.057	-75.38	16.81	-96.91	-70.266	-38.024	0.490	0.58194	-0.29803	0.53909	-0.53082	24.7	13111	100
2025-3-27 20:5:48.820	WT901BLE68-01(48591DE3C19B)	-0.317	-0.998	0.274	-7.935	-26.978	-21.057	-75.39	16.55	-96.70	-70.266	-38.024	0.490	0.58194	-0.29803	0.53909	-0.53082	24.7	13111	100
2025-3-27 20:5:48.820	WT901BLE68-01(48591DE3C19B)	-0.317	-0.986	0.267	-5.188	-20.142	-23.499	-75.39	16.28	-96.57	-70.266	-38.024	0.490	0.58194	-0.29803	0.53909	-0.53082	24.7	13111	100
2025-3-27 20:5:48.820	WT901BLE68-01(48591DE3C19B)	-0.332	-0.986	0.267	-5.188	-20.142	-23.499	-75.39	16.01	-96.44	-70.266	-38.024	0.490	0.58194	-0.29803	0.53909	-0.53082	24.7	13111	100
2025-3-27 20:5:48.855	WT901BLE68-01(48591DE3C19B)	-0.347	-0.953	0.261	-3.540	-15.137	-23.865	-75.39	15.75	-96.36	-70.266	-38.024	0.490	0.58194	-0.29803	0.53909	-0.53082	24.7	13111	100
2025-3-27 20:5:48.855	WT901BLE68-01(48591DE3C19B)	-0.347	-0.912	0.265	-3.601	-14.709	-22.644	-75.39	15.51	-96.28	-70.266	-38.024	0.490	0.58194	-0.29803	0.53909	-0.53082	24.7	13111	100
2025-3-27 20:5:48.855	WT901BLE68-01(48591DE3C19B)	-0.351	-0.912	0.265	-3.601	-14.709	-22.644	-75.39	15.27	-96.20	-70.266	-38.024	0.490	0.58194	-0.29803	0.53909	-0.53082	24.7	13111	100
2025-3-27 20:5:48.855	WT901BLE68-01(48591DE3C19B)	-0.351	-0.877	0.268	-4.883	-16.724	-19.958	-75.40	15.05	-96.10	-70.266	-38.024	0.490	0.58194	-0.29803	0.53909	-0.53082	24.7	13111	100
2025-3-27 20:5:48.941	WT901BLE68-01(48591DE3C19B)	-0.348	-0.877	0.268	-4.883	-16.724	-19.958	-75.41	14.83	-96.00	-70.266	-38.024	0.490	0.58194	-0.29803	0.53909	-0.53082	24.7	13111	100
2025-3-27 20:5:48.941	WT901BLE68-01(48591DE3C19B)	-0.348	-0.857	0.267	-5.737	-19.409	-17.273	-75.42	14.63	-95.87	-70.266	-38.024	0.490	0.58194	-0.29803	0.53909	-0.53082	24.7	13111	100
2025-3-27 20:5:48.941	WT901BLE68-01(48591DE3C19B)	-0.337	-0.857	0.267	-5.737	-19.409	-17.273	-75.43	14.44	-95.73	-70.266	-38.024	0.490	0.58194	-0.29803	0.53909	-0.53082	24.7	13111	100
2025-3-27 20:5:48.942	WT901BLE68-01(48591DE3C19B)	-0.337	-0.845	0.268	-5.737	-20.447	-14.709	-75.43	14.27	-95.59	-70.266	-38.024	0.490	0.58194	-0.29803	0.53909	-0.53082	24.7	13111	100
2025-3-27 20:5:48.943	WT901BLE68-01(48591DE3C19B)	-0.333	-0.845	0.268	-5.737	-20.447	-14.709	-75.43	14.11	-95.44	-70.266	-38.024	0.490	0.58194	-0.29803	0.53909	-0.53082	24.7	13111	100
2025-3-27 20:5:48.943	WT901BLE68-01(48591DE3C19B)	-0.333	-0.838	0.267	-4.333	-17.883	-12.634	-75.43	13.96	-95.30	-70.266	-38.024	0.490	0.58194	-0.29803	0.53909	-0.53082	24.7	13111	100
2025-3-27 20:5:48.943	WT901BLE68-01(48591DE3C19B)	-0.331	-0.838	0.267	-4.333	-17.883	-12.634	-75.43	13.83	-95.17	-70.266	-38.024	0.490	0.58194	-0.29803	0.53909	-0.53082	24.7	13111	100
2025-3-27 20:5:48.943	WT901BLE68-01(48591DE3C19B)	-0.331	-0.837	0.267	-2.441	-14.221	-10.498	-75.42	13.71	-95.05	-75.656	-36.162	2.744	0.58194	-0.29803	0.53909	-0.53082	24.7	13111	100
2025-3-27 20:5:48.974	WT901BLE68-01(48591DE3C19B)	-0.333	-0.837	0.267	-2.441	-14.221	-10.498	-75.40	13.61	-94.95	-75.656	-36.162	2.744	0.58194	-0.29803	0.53909	-0.53082	24.7	13111	100
2025-3-27 20:5:48.974	WT901BLE68-01(48591DE3C19B)	-0.333	-0.846	0.270	0.244	-9.827	-8.240	-75.37	13.52	-94.88	-75.656	-36.162	2.744	0.58194	-0.29803	0.53909	-0.53082	24.7	13111	100
2025-3-27 20:5:48.974	WT901BLE68-01(48591DE3C19B)	-0.330	-0.846	0.270	0.244	-9.827	-8.240	-75.33	13.46	-94.82	-75.656	-36.162	2.744	0.58194	-0.29803	0.53909	-0.53082	24.7	13111	100
2025-3-27 20:5:48.974	WT901BLE68-01(48591DE3C19B)	-0.330	-0.851	0.272	3.296	-5.615	-5.554	-75.29	13.41	-94.78	-75.656	-36.162	2.744	0.58194	-0.29803	0.53909	-0.53082	24.7	13111	100
2025-3-27 20:5:49.30	WT901BLE68-01(48591DE3C19B)	-0.327	-0.851	0.272	3.296	-5.615	-5.554	-75.23	13.39	-94.75	-75.656	-36.162	2.744	0.58194	-0.29803	0.53909	-0.53082	24.7	13111	100
2025-3-27 20:5:49.30	WT901BLE68-01(48591DE3C19B)	-0.327	-0.851	0.262	6.775	-0.366	-2.014	-75.16	13.38	-94.75	-75.656	-36.162	2.744	0.58194	-0.29803	0.53909	-0.53082	24.7	13111	100
2025-3-27 20:5:49.30	WT901BLE68-01(48591DE3C19B)	-0.319	-0.851	0.262	6.775	-0.366	-2.014	-75.08	13.40	-94.77	-75.656	-36.162	2.744	0.58194	-0.29803	0.53909	-0.53082	24.7	13111	100
2025-3-27 20:5:49.31	WT901BLE68-01(48591DE3C19B)	-0.319	-0.857	0.245	9.583	5.188	2.197	-74.99	13.45	-94.81	-75.656	-36.162	2.744	0.58194	-0.29803	0.53909	-0.53082	24.7	13111	100
2025-3-27 20:5:49.60	WT901BLE68-01(48591DE3C19B)	-0.317	-0.857	0.245	9.583	5.188	2.197	-74.89	13.52	-94.87	-75.656	-36.162	2.744	0.58194	-0.29803	0.53909	-0.53082	24.7	13111	100
2025-3-27 20:5:49.60	WT901BLE68-01(48591DE3C19B)	-0.317	-0.853	0.235	12.634	10.437	6.470	-74.78	13.62	-94.95	-75.656	-36.162	2.744	0.58194	-0.29803	0.53909	-0.53082	24.7	13111	100
2025-3-27 20:5:49.60	WT901BLE68-01(48591DE3C19B)	-0.316	-0.853	0.235	12.634	10.437	6.470	-74.67	13.75	-95.05	-75.656	-36.162	2.744	0.58194	-0.29803	0.53909	-0.53082	24.7	13111	100
2025-3-27 20:5:49.60	WT901BLE68-01(48591DE3C19B)	-0.316	-0.835	0.233	14.709	14.893	11.047	-74.55	13.90	-95.17	-75.656	-36.162	2.744	0.58194	-0.29803	0.53909	-0.53082	24.7	13111	100
2025-3-27 20:5:49.121	WT901BLE68-01(48591DE3C19B)	-0.303	-0.835	0.233	14.709	14.893	11.047	-74.42	14.08	-95.30	-75.656	-36.162	2.744	0.58194	-0.29803	0.53909	-0.53082	24.7	13111	100
2025-3-27 20:5:49.121	WT901BLE68-01(48591DE3C19B)	-0.303	-0.811	0.225	16.968	18.433	15.442	-74.29	14.29	-95.43	-75.656	-36.162	2.744	0.58194	-0.29803	0.53909	-0.53082	24.7	13111	100
2025-3-27 20:5:49.122	WT901BLE68-01(48591DE3C19B)	-0.292	-0.811	0.225	16.968	18.433	15.442	-74.15	14.52	-95.58	-75.656	-36.162	2.744	0.58194	-0.29803	0.53909	-0.53082	24.7	13111	100
2025-3-27 20:5:49.122	WT901BLE68-01(48591DE3C19B)	-0.292	-0.763	0.214	19.714	22.461	19.958	-74.00	14.78	-95.75	-75.656	-36.162	2.744	0.58194	-0.29803	0.53909	-0.53082	24.7	13111	100
2025-3-27 20:5:49.155	WT901BLE68-01(48591DE3C19B)	-0.288	-0.763	0.214	19.714	22.461	19.958	-73.84	15.07	-95.92	-75.656	-36.162	2.744	0.58194	-0.29803	0.53909	-0.53082	24.7	13111	100
2025-3-27 20:5:49.156	WT901BLE68-01(48591DE3C19B)	-0.288	-0.711	0.193	20.935	25.146	24.475	-73.69	15.38	-96.09	-75.656	-36.162	2.744	0.58194	-0.29803	0.53909	-0.53082	24.7	13111	100
2025-3-27 20:5:49.156	WT901BLE68-01(48591DE3C19B)	-0.277	-0.711	0.193	20.935	25.146	24.475	-73.53	15.71	-96.28	-75.656	-36.162	2.744	0.58194	-0.29803	0.53909	-0.53082	24.7	13111	100
2025-3-27 20:5:49.156	WT901BLE68-01(48591DE3C19B)	-0.277	-0.674	0.167	20.691	28.137	28.503	-73.38	16.06	-96.47	-75.656	-36.162	2.744	0.59146	-0.30853	0.51657	-0.53665	24.7	13111	100
2025-3-27 20:5:49.180	WT901BLE68-01(48591DE3C19B)	-0.275	-0.674	0.167	20.691	28.137	28.503	-73.23	16.44	-96.66	-75.656	-36.162	2.744	0.59146	-0.30853	0.51657	-0.53665	24.7	13111	100
2025-3-27 20:5:49.180	WT901BLE68-01(48591DE3C19B)	-0.275	-0.672	0.150	18.555	30.151	31.006	-73.10	16.84	-96.87	-75.656	-36.162	2.744	0.59146	-0.30853	0.51657	-0.53665	24.7	13111	100
2025-3-27 20:5:49.180	WT901BLE68-01(48591DE3C19B)	-0.277	-0.672	0.150	18.555	30.151	31.006	-72.98	17.24	-97.07	-75.656	-36.162	2.744	0.59146	-0.30853	0.51657	-0.53665	24.7	13111	100
2025-3-27 20:5:49.181	WT901BLE68-01(48591DE3C19B)	-0.277	-0.694	0.146	16.174	30.090	31.494	-72.88	17.64	-97.27	-75.656	-36.162	2.744	0.59146	-0.30853	0.51657	-0.53665	24.7	13111	100
2025-3-27 20:5:49.240	WT901BLE68-01(48591DE3C19B)	-0.288	-0.694	0.146	16.174	30.090	31.494	-72.80	18.05	-97.47	-75.656	-36.162	2.744	0.59146	-0.30853	0.51657	-0.53665	24.7	13111	100
2025-3-27 20:5:49.241	WT901BLE68-01(48591DE3C19B)	-0.288	-0.723	0.154	13.367	29.724	29.846	-72.73	18.45	-97.67	-75.656	-36.162	2.744	0.59146	-0.30853	0.51657	-0.53665	24.7	13111	100
2025-3-27 20:5:49.241	WT901BLE68-01(48591DE3C19B)	-0.301	-0.723	0.154	13.367	29.724	29.846	-72.68	18.84	-97.87	-75.656	-36.162	2.744	0.59146	-0.30853	0.51657	-0.53665	24.7	13111	100
2025-3-27 20:5:49.241	WT901BLE68-01(48591DE3C19B)	-0.301	-0.758	0.180	11.780	26.855	27.100	-72.64	19.20	-98.05	-75.656	-36.162	2.744	0.59146	-0.30853	0.51657	-0.53665	24.7	13111	100
2025-3-27 20:5:49.301	WT901BLE68-01(48591DE3C19B)	-0.324	-0.758	0.180	11.780	26.855	27.100	-72.60	19.55	-98.23	-75.656	-36.162	2.744	0.59146	-0.30853	0.51657	-0.53665	24.7	13111	100
2025-3-27 20:5:49.301	WT901BLE68-01(48591DE3C19B)	-0.324	-0.767	0.220	13.245	22.156	23.743	-72.55	19.87	-98.38	-75.656	-36.162	2.744	0.59146	-0.30853	0.51657	-0.53665	24.7	13111	100
2025-3-27 20:5:49.302	WT901BLE68-01(48591DE3C19B)	-0.324	-0.767	0.220	13.245	22.156	23.743	-72.49	20.17	-98.52	-75.656	-36.162	2.744	0.59146	-0.30853	0.51657	-0.53665	24.7	13111	100
2025-3-27 20:5:49.302	WT901BLE68-01(48591DE3C19B)	-0.324	-0.708	0.235	15.442	16.357	22.461	-72.41	20.45	-98.63	-75.656	-36.162	2.744	0.59146	-0.30853	0.51657	-0.53665	24.7	13111	100
2025-3-27 20:5:49.302	WT901BLE68-01(48591DE3C19B)	-0.295	-0.708	0.235	15.442	16.357	22.461	-72.30	20.72	-98.71	-75.656	-36.162	2.744	0.59146	-0.30853	0.51657	-0.53665	24.7	13111	100
2025-3-27 20:5:49.302	WT901BLE68-01(48591DE3C19B)	-0.295	-0.670	0.253	17.517	10.864	24.597	-72.17	20.99	-98.76	-75.656	-36.162	2.744	0.59146	-0.30853	0.51657	-0.53665	24.7	13111	100
2025-3-27 20:5:49.302	WT901BLE68-01(48591DE3C19B)	-0.282	-0.670	0.253	17.517	10.864	24.597	-72.02	21.26	-98.78	-75.656	-36.162	2.744	0.59146	-0.30853	0.51657	-0.53665	24.7	13111	100
2025-3-27 20:5:49.302	WT901BLE68-01(48591DE3C19B)	-0.282	-0.692	0.236	14.526	7.874	28.687	-71.88	21.56	-98.76	-75.656	-36.162	2.744	0.59146	-0.30853	0.51657	-0.53665	24.7	13111	100
2025-3-27 20:5:49.360	WT901BLE68-01(48591DE3C19B)	-0.247	-0.692	0.236	14.526	7.874	28.687	-71.75	21.85	-98.74	-75.656	-36.162	2.744	0.59146	-0.30853	0.51657	-0.53665	24.7	13111	100
2025-3-27 20:5:49.360	WT901BLE68-01(48591DE3C19B)	-0.247	-0.838	0.205	5.188	12.695	27.222	-71.72	22.15	-98.77	-75.656	-36.162	2.744	0.59146	-0.30853	0.51657	-0.53665	24.7	13111	100
2025-3-27 20:5:49.360	WT901BLE68-01(48591DE3C19B)	-0.248	-0.838	0.205	5.188	12.695	27.222	-71.70	22.43	-98.80	-75.656	-36.162	2.744	0.59146	-0.30853	0.51657	-0.53665	24.7	13111	100
2025-3-27 20:5:49.360	WT901BLE68-01(48591DE3C19B)	-0.248	-1.058	0.228	-10.925	24.658	18.250	-71.89	22.66	-98.98	-75.656	-36.162	2.744	0.59146	-0.30853	0.51657	-0.53665	24.7	13111	100
2025-3-27 20:5:49.390	WT901BLE68-01(48591DE3C19B)	-0.763	-1.058	0.228	-10.925	24.658	18.250	-72.10	22.89	-99.16	-75.656	-36.162	2.744	0.59146	-0.30853	0.51657	-0.53665	24.7	13111	100
2025-3-27 20:5:49.391	WT901BLE68-01(48591DE3C19B)	-3.052	-2.916	0.649	-30.823	29.419	-0.305	-72.54	22.95	-99.45	-75.656	-36.162	2.744	0.59146	-0.30853	0.51657	-0.53665	24.7	13111	100
2025-3-27 20:5:49.391	WT901BLE68-01(48591DE3C19B)	-0.463	-11.665	2.598	-30.823	29.419	-0.305	-72.99	22.99	-99.73	-75.656	-36.162	2.744	0.59146	-0.30853	0.51657	-0.53665	24.7	13111	100
2025-3-27 20:5:49.391	WT901BLE68-01(48591DE3C19B)	-0.463	-1.654	0.514	-36.133	24.475	-16.113	-73.48	22.87	-100.01	-75.068	-37.926	2.842	0.59146	-0.30853	0.51657	-0.53665	24.7	13111	100
2025-3-27 20:5:49.420	WT901BLE68-01(48591DE3C19B)	-0.534	-1.654	0.514	-36.133	24.475	-16.113	-73.97	22.74	-100.29	-75.068	-37.926	2.842	0.59146	-0.30853	0.51657	-0.53665	24.7	13111	100
2025-3-27 20:5:49.420	WT901BLE68-01(48591DE3C19B)	-0.534	-1.542	0.687	-38.391	15.259	-21.729	-74.45	22.53	-100.49	-75.068	-37.926	2.842	0.59146	-0.30853	0.51657	-0.53665	24.7	13111	100
2025-3-27 20:5:49.420	WT901BLE68-01(48591DE3C19B)	-0.610	-1.542	0.687	-38.391	15.259	-21.729	-74.91	22.32	-100.69	-75.068	-37.926	2.842	0.59146	-0.30853	0.51657	-0.53665	24.7	13111	100
2025-3-27 20:5:49.420	WT901BLE68-01(48591DE3C19B)	-0.610	-1.338	0.735	-39.307	-4.578	-27.283	-75.30	22.02	-100.70	-75.068	-37.926	2.842	0.59146	-0.30853	0.51657	-0.53665	24.7	13111	100
2025-3-27 20:5:49.480	WT901BLE68-01(48591DE3C19B)	-0.599	-1.338	0.735	-39.307	-4.578	-27.283	-75.68	21.71	-100.71	-75.068	-37.926	2.842	0.59146	-0.30853	0.51657	-0.53665	24.7	13111	100
2025-3-27 20:5:49.480	WT901BLE68-01(48591DE3C19B)	-0.599	-1.230	0.684	-35.706	-30.518	-21.790	-75.92	21.41	-100.44	-75.068	-37.926	2.842	0.59146	-0.30853	0.51657	-0.53665	24.7	13111	100
2025-3-27 20:5:49.480	WT901BLE68-01(48591DE3C19B)	-0.519	-1.230	0.684	-35.706	-30.518	-21.790	-76.14	21.10	-100.17	-75.068	-37.926	2.842	0.59146	-0.30853	0.51657	-0.53665	24.7	13111	100
2025-3-27 20:5:49.480	WT901BLE68-01(48591DE3C19B)	-0.519	-1.076	0.557	-29.724	-58.655	-13.855	-76.20	20.81	-99.60	-75.068	-37.926	2.842	0.59146	-0.30853	0.51657	-0.53665	24.7	13111	100
2025-3-27 20:5:49.511	WT901BLE68-01(48591DE3C19B)	-0.363	-1.076	0.557	-29.724	-58.655	-13.855	-76.25	20.53	-99.03	-75.068	-37.926	2.842	0.59146	-0.30853	0.51657	-0.53665	24.7	13111	100
2025-3-27 20:5:49.511	WT901BLE68-01(48591DE3C19B)	-0.363	-0.992	0.436	-27.710	-73.914	-6.714	-76.22	20.28	-98.29	-75.068	-37.926	2.842	0.59146	-0.30853	0.51657	-0.53665	24.7	13111	100
2025-3-27 20:5:49.511	WT901BLE68-01(48591DE3C19B)	-0.243	-0.992	0.436	-27.710	-73.914	-6.714	-76.20	20.03	-97.55	-75.068	-37.926	2.842	0.59146	-0.30853	0.51657	-0.53665	24.7	13111	100
2025-3-27 20:5:49.511	WT901BLE68-01(48591DE3C19B)	-0.243	-0.971	0.340	-18.188	-64.087	-2.014	-76.11	19.85	-96.92	-75.068	-37.926	2.842	0.59146	-0.30853	0.51657	-0.53665	24.7	13111	100
2025-3-27 20:5:49.541	WT901BLE68-01(48591DE3C19B)	-0.189	-0.971	0.340	-18.188	-64.087	-2.014	-76.03	19.67	-96.27	-75.068	-37.926	2.842	0.59146	-0.30853	0.51657	-0.53665	24.7	13111	100
2025-3-27 20:5:49.541	WT901BLE68-01(48591DE3C19B)	-0.189	-0.869	0.269	-5.310	-41.199	0.305	-75.89	19.56	-95.87	-75.068	-37.926	2.842	0.59146	-0.30853	0.51657	-0.53665	24.7	13111	100
2025-3-27 20:5:49.541	WT901BLE68-01(48591DE3C19B)	-0.134	-0.869	0.269	-5.310	-41.199	0.305	-75.77	19.45	-95.47	-75.068	-37.926	2.842	0.60025	-0.30841	0.53708	-0.50595	24.7	13111	100
2025-3-27 20:5:49.541	WT901BLE68-01(48591DE3C19B)	-0.134	-0.738	0.254	4.272	-10.681	1.770	-75.65	19.42	-95.37	-75.068	-37.926	2.842	0.60025	-0.30841	0.53708	-0.50595	24.7	13111	100
2025-3-27 20:5:49.601	WT901BLE68-01(48591DE3C19B)	-0.132	-0.738	0.254	4.272	-10.681	1.770	-75.54	19.39	-95.27	-75.068	-37.926	2.842	0.60025	-0.30841	0.53708	-0.50595	24.7	13111	100
2025-3-27 20:5:49.601	WT901BLE68-01(48591DE3C19B)	-0.132	-0.637	0.281	12.024	24.902	3.967	-75.46	19.47	-95.53	-75.068	-37.926	2.842	0.60025	-0.30841	0.53708	-0.50595	24.7	13111	100
2025-3-27 20:5:49.601	WT901BLE68-01(48591DE3C19B)	-0.170	-0.637	0.281	12.024	24.902	3.967	-75.39	19.55	-95.79	-75.068	-37.926	2.842	0.60025	-0.30841	0.53708	-0.50595	24.7	13111	100
2025-3-27 20:5:49.601	WT901BLE68-01(48591DE3C19B)	-0.170	-0.541	0.310	17.822	56.274	5.615	-75.36	19.72	-96.37	-75.068	-37.926	2.842	0.60025	-0.30841	0.53708	-0.50595	24.7	13111	100
2025-3-27 20:5:49.630	WT901BLE68-01(48591DE3C19B)	-0.235	-0.541	0.310	17.822	56.274	5.615	-75.33	19.90	-96.94	-75.068	-37.926	2.842	0.60025	-0.30841	0.53708	-0.50595	24.7	13111	100
2025-3-27 20:5:49.630	WT901BLE68-01(48591DE3C19B)	-0.235	-0.455	0.302	21.423	77.698	7.996	-75.33	20.14	-97.73	-75.068	-37.926	2.842	0.60025	-0.30841	0.53708	-0.50595	24.7	13111	100
2025-3-27 20:5:49.630	WT901BLE68-01(48591DE3C19B)	-0.301	-0.455	0.302	21.423	77.698	7.996	-75.34	20.39	-98.52	-75.068	-37.926	2.842	0.60025	-0.30841	0.53708	-0.50595	24.7	13111	100
2025-3-27 20:5:49.630	WT901BLE68-01(48591DE3C19B)	-0.301	-0.381	0.268	19.958	81.848	10.620	-75.38	20.68	-99.35	-75.068	-37.926	2.842	0.60025	-0.30841	0.53708	-0.50595	24.7	13111	100
2025-3-27 20:5:49.660	WT901BLE68-01(48591DE3C19B)	-0.330	-0.381	0.268	19.958	81.848	10.620	-75.41	20.97	-100.17	-75.068	-37.926	2.842	0.60025	-0.30841	0.53708	-0.50595	24.7	13111	100
2025-3-27 20:5:49.660	WT901BLE68-01(48591DE3C19B)	-0.330	-0.327	0.227	13.855	70.618	12.146	-75.46	21.26	-100.88	-75.068	-37.926	2.842	0.60025	-0.30841	0.53708	-0.50595	24.7	13111	100
2025-3-27 20:5:49.660	WT901BLE68-01(48591DE3C19B)	-0.337	-0.327	0.227	13.855	70.618	12.146	-75.51	21.55	-101.59	-75.068	-37.926	2.842	0.60025	-0.30841	0.53708	-0.50595	24.7	13111	100
2025-3-27 20:5:49.661	WT901BLE68-01(48591DE3C19B)	-0.337	-0.318	0.197	4.517	51.514	10.925	-75.59	21.78	-102.11	-75.068	-37.926	2.842	0.60025	-0.30841	0.53708	-0.50595	24.7	13111	100
2025-3-27 20:5:49.722	WT901BLE68-01(48591DE3C19B)	-0.342	-0.318	0.197	4.517	51.514	10.925	-75.67	22.02	-102.63	-75.068	-37.926	2.842	0.60025	-0.30841	0.53708	-0.50595	24.7	13111	100
2025-3-27 20:5:49.723	WT901BLE68-01(48591DE3C19B)	-0.342	-0.357	0.192	-4.395	29.297	6.165	-75.75	22.17	-102.93	-75.068	-37.926	2.842	0.60025	-0.30841	0.53708	-0.50595	24.7	13111	100
2025-3-27 20:5:49.723	WT901BLE68-01(48591DE3C19B)	-0.384	-0.357	0.192	-4.395	29.297	6.165	-75.83	22.32	-103.24	-75.068	-37.926	2.842	0.60025	-0.30841	0.53708	-0.50595	24.7	13111	100
2025-3-27 20:5:49.723	WT901BLE68-01(48591DE3C19B)	-0.384	-0.450	0.209	-11.719	5.798	-3.174	-75.90	22.32	-103.32	-75.068	-37.926	2.842	0.60025	-0.30841	0.53708	-0.50595	24.7	13111	100
2025-3-27 20:5:49.755	WT901BLE68-01(48591DE3C19B)	-0.440	-0.450	0.209	-11.719	5.798	-3.174	-75.98	22.34	-103.41	-75.068	-37.926	2.842	0.60025	-0.30841	0.53708	-0.50595	24.7	13111	100
2025-3-27 20:5:49.755	WT901BLE68-01(48591DE3C19B)	-0.440	-0.577	0.248	-16.602	-21.606	-16.418	-76.00	22.16	-103.24	-75.068	-37.926	2.842	0.60025	-0.30841	0.53708	-0.50595	24.7	13111	100
2025-3-27 20:5:49.755	WT901BLE68-01(48591DE3C19B)	-0.444	-0.577	0.248	-16.602	-21.606	-16.418	-76.03	21.99	-103.08	-75.068	-37.926	2.842	0.60025	-0.30841	0.53708	-0.50595	24.7	13111	100
2025-3-27 20:5:49.755	WT901BLE68-01(48591DE3C19B)	-0.444	-0.722	0.285	-18.860	-46.326	-30.762	-76.00	21.63	-102.70	-73.794	-36.260	2.450	0.60025	-0.30841	0.53708	-0.50595	24.7	13111	100
2025-3-27 20:5:49.783	WT901BLE68-01(48591DE3C19B)	-0.444	-0.835	0.325	-13.672	-61.035	-40.527	-75.93	21.20	-102.26	-73.794	-36.260	2.450	0.60025	-0.30841	0.53708	-0.50595	24.7	13111	100
2025-3-27 20:5:49.783	WT901BLE68-01(48591DE3C19B)	-0.436	-0.835	0.325	-13.672	-61.035	-40.527	-75.82	20.70	-101.74	-73.794	-36.260	2.450	0.60025	-0.30841	0.53708	-0.50595	24.7	13111	100
2025-3-27 20:5:49.783	WT901BLE68-01(48591DE3C19B)	-0.436	-0.898	0.356	-7.263	-71.533	-42.969	-75.66	20.18	-101.18	-73.794	-36.260	2.450	0.60025	-0.30841	0.53708	-0.50595	24.7	13111	100
2025-3-27 20:5:49.783	WT901BLE68-01(48591DE3C19B)	-0.404	-0.898	0.356	-7.263	-71.533	-42.969	-75.47	19.64	-100.58	-73.794	-36.260	2.450	0.60025	-0.30841	0.53708	-0.50595	24.7	13111	100
2025-3-27 20:5:49.840	WT901BLE68-01(48591DE3C19B)	-0.404	-0.957	0.365	-2.502	-73.242	-40.161	-75.26	19.10	-99.97	-73.794	-36.260	2.450	0.60025	-0.30841	0.53708	-0.50595	24.7	13111	100
2025-3-27 20:5:49.841	WT901BLE68-01(48591DE3C19B)	-0.348	-0.957	0.365	-2.502	-73.242	-40.161	-75.03	18.57	-99.34	-73.794	-36.260	2.450	0.60025	-0.30841	0.53708	-0.50595	24.7	13111	100
2025-3-27 20:5:49.841	WT901BLE68-01(48591DE3C19B)	-0.348	-1.053	0.347	1.099	-64.148	-34.607	-74.81	18.08	-98.77	-73.794	-36.260	2.450	0.60025	-0.30841	0.53708	-0.50595	24.7	13111	100
2025-3-27 20:5:49.841	WT901BLE68-01(48591DE3C19B)	-0.291	-1.053	0.347	1.099	-64.148	-34.607	-74.59	17.62	-98.22	-73.794	-36.260	2.450	0.60025	-0.30841	0.53708	-0.50595	24.7	13111	100
2025-3-27 20:5:49.871	WT901BLE68-01(48591DE3C19B)	-0.291	-1.174	0.306	2.563	-48.584	-22.766	-74.38	17.23	-97.75	-73.794	-36.260	2.450	0.60025	-0.30841	0.53708	-0.50595	24.7	13111	100
2025-3-27 20:5:49.871	WT901BLE68-01(48591DE3C19B)	-0.288	-1.174	0.306	2.563	-48.584	-22.766	-74.21	16.91	-97.33	-73.794	-36.260	2.450	0.60025	-0.30841	0.53708	-0.50595	24.7	13111	100
2025-3-27 20:5:49.871	WT901BLE68-01(48591DE3C19B)	-0.288	-1.421	0.247	-3.906	-40.649	-15.930	-74.08	16.63	-96.94	-73.794	-36.260	2.450	0.60025	-0.30841	0.53708	-0.50595	24.7	13111	100
2025-3-27 20:5:49.871	WT901BLE68-01(48591DE3C19B)	-0.328	-1.421	0.247	-3.906	-40.649	-15.930	-74.00	16.39	-96.57	-73.794	-36.260	2.450	0.60025	-0.30841	0.53708	-0.50595	24.7	13111	100
2025-3-27 20:5:49.901	WT901BLE68-01(48591DE3C19B)	-0.328	-1.752	0.249	-4.028	-41.809	-5.371	-73.93	16.19	-96.18	-73.794	-36.260	2.450	0.60025	-0.30841	0.53708	-0.50595	24.7	13111	100
2025-3-27 20:5:49.901	WT901BLE68-01(48591DE3C19B)	-0.360	-1.752	0.249	-4.028	-41.809	-5.371	-73.86	16.03	-95.76	-73.794	-36.260	2.450	0.60025	-0.30841	0.53708	-0.50595	24.7	13111	100
2025-3-27 20:5:49.901	WT901BLE68-01(48591DE3C19B)	-0.360	-1.853	0.286	13.733	-40.771	13.062	-73.71	15.96	-95.32	-73.794	-36.260	2.450	0.60025	-0.30841	0.53708	-0.50595	24.7	13111	100
2025-3-27 20:5:49.901	WT901BLE68-01(48591DE3C19B)	-0.278	-1.853	0.286	13.733	-40.771	13.062	-73.47	15.96	-94.86	-73.794	-36.260	2.450	0.60025	-0.30841	0.53708	-0.50595	24.7	13111	100
2025-3-27 20:5:49.960	WT901BLE68-01(48591DE3C19B)	-0.278	-1.637	0.291	25.757	-29.907	31.433	-73.17	16.07	-94.42	-73.794	-36.260	2.450	0.60025	-0.30841	0.53708	-0.50595	24.7	13111	100
2025-3-27 20:5:49.961	WT901BLE68-01(48591DE3C19B)	-0.180	-1.637	0.291	25.757	-29.907	31.433	-72.83	16.27	-94.00	-73.794	-36.260	2.450	0.60025	-0.30841	0.53708	-0.50595	24.7	13111	100
2025-3-27 20:5:49.961	WT901BLE68-01(48591DE3C19B)	-0.180	-1.439	0.251	27.893	0.244	46.509	-72.52	16.58	-93.71	-73.794	-36.260	2.450	0.60025	-0.30841	0.53708	-0.50595	24.7	13111	100
2025-3-27 20:5:49.961	WT901BLE68-01(48591DE3C19B)	-0.133	-1.439	0.251	27.893	0.244	46.509	-72.23	17.00	-93.55	-73.794	-36.260	2.450	0.60025	-0.30841	0.53708	-0.50595	24.7	13111	100
2025-3-27 20:5:49.990	WT901BLE68-01(48591DE3C19B)	-0.133	-1.252	0.217	31.128	36.987	58.899	-71.98	17.53	-93.54	-73.794	-36.260	2.450	0.60025	-0.30841	0.53708	-0.50595	24.7	13111	100
2025-3-27 20:5:49.990	WT901BLE68-01(48591DE3C19B)	-0.160	-1.252	0.217	31.128	36.987	58.899	-71.76	18.17	-93.70	-73.794	-36.260	2.450	0.60025	-0.30841	0.53708	-0.50595	24.7	13111	100
2025-3-27 20:5:49.990	WT901BLE68-01(48591DE3C19B)	-0.160	-1.087	0.221	25.085	63.904	62.988	-71.61	18.86	-93.98	-73.794	-36.260	2.450	0.60025	-0.30841	0.53708	-0.50595	24.7	13111	100
2025-3-27 20:5:49.990	WT901BLE68-01(48591DE3C19B)	-0.210	-1.087	0.221	25.085	63.904	62.988	-71.55	19.61	-94.38	-73.794	-36.260	2.450	0.61627	-0.29007	0.51648	-0.51883	24.7	13111	100
2025-3-27 20:5:50.56	WT901BLE68-01(48591DE3C19B)	-0.210	-0.996	0.253	16.541	78.430	59.998	-71.55	20.36	-94.86	-73.794	-36.260	2.450	0.61627	-0.29007	0.51648	-0.51883	24.7	13111	100
2025-3-27 20:5:50.56	WT901BLE68-01(48591DE3C19B)	-0.277	-0.996	0.253	16.541	78.430	59.998	-71.64	21.12	-95.43	-73.794	-36.260	2.450	0.61627	-0.29007	0.51648	-0.51883	24.7	13111	100
2025-3-27 20:5:50.56	WT901BLE68-01(48591DE3C19B)	-0.277	-0.878	0.288	11.047	83.984	52.856	-71.77	21.84	-96.03	-73.794	-36.260	2.450	0.61627	-0.29007	0.51648	-0.51883	24.7	13111	100
2025-3-27 20:5:50.56	WT901BLE68-01(48591DE3C19B)	-0.333	-0.878	0.288	11.047	83.984	52.856	-71.94	22.54	-96.68	-73.794	-36.260	2.450	0.61627	-0.29007	0.51648	-0.51883	24.7	13111	100
2025-3-27 20:5:50.141	WT901BLE68-01(48591DE3C19B)	-0.333	-0.737	0.312	8.423	80.505	42.969	-72.14	23.18	-97.33	-73.794	-36.260	2.450	0.61627	-0.29007	0.51648	-0.51883	24.7	13111	100
2025-3-27 20:5:50.141	WT901BLE68-01(48591DE3C19B)	-0.346	-0.737	0.312	8.423	80.505	42.969	-72.36	23.77	-97.99	-73.794	-36.260	2.450	0.61627	-0.29007	0.51648	-0.51883	24.7	13111	100
2025-3-27 20:5:50.141	WT901BLE68-01(48591DE3C19B)	-0.346	-0.601	0.279	6.470	69.458	34.058	-72.56	24.30	-98.61	-73.794	-36.260	2.450	0.61627	-0.29007	0.51648	-0.51883	24.7	13111	100
2025-3-27 20:5:50.141	WT901BLE68-01(48591DE3C19B)	-0.338	-0.601	0.279	6.470	69.458	34.058	-72.77	24.77	-99.18	-73.794	-36.260	2.450	0.61627	-0.29007	0.51648	-0.51883	24.7	13111	100
2025-3-27 20:5:50.142	WT901BLE68-01(48591DE3C19B)	-0.338	-0.500	0.207	4.822	55.115	25.024	-72.95	25.18	-99.71	-73.794	-36.260	2.450	0.61627	-0.29007	0.51648	-0.51883	24.7	13111	100
2025-3-27 20:5:50.142	WT901BLE68-01(48591DE3C19B)	-0.330	-0.500	0.207	4.822	55.115	25.024	-73.13	25.52	-100.17	-73.794	-36.260	2.450	0.61627	-0.29007	0.51648	-0.51883	24.7	13111	100
2025-3-27 20:5:50.142	WT901BLE68-01(48591DE3C19B)	-0.330	-0.454	0.147	3.784	34.302	18.921	-73.26	25.81	-100.53	-73.794	-36.260	2.450	0.61627	-0.29007	0.51648	-0.51883	24.7	13111	100
2025-3-27 20:5:50.142	WT901BLE68-01(48591DE3C19B)	-0.299	-0.454	0.147	3.784	34.302	18.921	-73.35	26.05	-100.80	-73.794	-36.260	2.450	0.61627	-0.29007	0.51648	-0.51883	24.7	13111	100
2025-3-27 20:5:50.143	WT901BLE68-01(48591DE3C19B)	-0.299	-0.424	0.113	2.136	10.254	15.503	-73.40	26.24	-100.94	-73.794	-36.260	2.450	0.61627	-0.29007	0.51648	-0.51883	24.7	13111	100
2025-3-27 20:5:50.143	WT901BLE68-01(48591DE3C19B)	-0.259	-0.424	0.113	2.136	10.254	15.503	-73.41	26.38	-100.96	-73.794	-36.260	2.450	0.61627	-0.29007	0.51648	-0.51883	24.7	13111	100
2025-3-27 20:5:50.143	WT901BLE68-01(48591DE3C19B)	-0.259	-0.415	0.102	0.366	-9.644	14.038	-73.37	26.49	-100.88	-73.794	-36.260	2.450	0.61627	-0.29007	0.51648	-0.51883	24.7	13111	100
2025-3-27 20:5:50.143	WT901BLE68-01(48591DE3C19B)	-0.221	-0.415	0.102	0.366	-9.644	14.038	-73.31	26.56	-100.69	-73.794	-36.260	2.450	0.61627	-0.29007	0.51648	-0.51883	24.7	13111	100
2025-3-27 20:5:50.201	WT901BLE68-01(48591DE3C19B)	-0.221	-0.456	0.105	-1.587	-21.057	11.230	-73.22	26.61	-100.44	-73.794	-36.260	2.450	0.61627	-0.29007	0.51648	-0.51883	24.7	13111	100
2025-3-27 20:5:50.201	WT901BLE68-01(48591DE3C19B)	-0.208	-0.456	0.105	-1.587	-21.057	11.230	-73.13	26.64	-100.15	-73.990	-36.260	6.174	0.61627	-0.29007	0.51648	-0.51883	24.7	13111	100
2025-3-27 20:5:50.201	WT901BLE68-01(48591DE3C19B)	-0.208	-0.542	0.126	-0.061	-25.269	5.249	-73.02	26.63	-99.83	-73.990	-36.260	6.174	0.61627	-0.29007	0.51648	-0.51883	24.7	13111	100
2025-3-27 20:5:50.201	WT901BLE68-01(48591DE3C19B)	-0.234	-0.542	0.126	-0.061	-25.269	5.249	-72.90	26.58	-99.51	-73.990	-36.260	6.174	0.61627	-0.29007	0.51648	-0.51883	24.7	13111	100
2025-3-27 20:5:50.230	WT901BLE68-01(48591DE3C19B)	-0.234	-0.633	0.187	5.005	-24.536	-2.258	-72.77	26.49	-99.21	-73.990	-36.260	6.174	0.61627	-0.29007	0.51648	-0.51883	24.7	13111	100
2025-3-27 20:5:50.230	WT901BLE68-01(48591DE3C19B)	-0.265	-0.633	0.187	5.005	-24.536	-2.258	-72.61	26.37	-98.92	-73.990	-36.260	6.174	0.61627	-0.29007	0.51648	-0.51883	24.7	13111	100
2025-3-27 20:5:50.230	WT901BLE68-01(48591DE3C19B)	-0.265	-0.702	0.265	13.000	-21.851	-9.827	-72.41	26.18	-98.69	-73.990	-36.260	6.174	0.61627	-0.29007	0.51648	-0.51883	24.7	13111	100
2025-3-27 20:5:50.230	WT901BLE68-01(48591DE3C19B)	-0.290	-0.702	0.265	13.000	-21.851	-9.827	-72.20	25.99	-98.46	-73.990	-36.260	6.174	0.61627	-0.29007	0.51648	-0.51883	24.7	13111	100
2025-3-27 20:5:50.259	WT901BLE68-01(48591DE3C19B)	-0.290	-0.708	0.307	23.560	-15.747	-15.320	-71.92	25.77	-98.32	-73.990	-36.260	6.174	0.61627	-0.29007	0.51648	-0.51883	24.7	13111	100
2025-3-27 20:5:50.260	WT901BLE68-01(48591DE3C19B)	-0.332	-0.708	0.307	23.560	-15.747	-15.320	-71.63	25.55	-98.18	-73.990	-36.260	6.174	0.61627	-0.29007	0.51648	-0.51883	24.7	13111	100
2025-3-27 20:5:50.260	WT901BLE68-01(48591DE3C19B)	-0.332	-0.694	0.305	32.898	-7.446	-17.273	-71.30	25.34	-98.15	-73.990	-36.260	6.174	0.61627	-0.29007	0.51648	-0.51883	24.7	13111	100
2025-3-27 20:5:50.260	WT901BLE68-01(48591DE3C19B)	-0.342	-0.694	0.305	32.898	-7.446	-17.273	-70.96	25.13	-98.12	-73.990	-36.260	6.174	0.61627	-0.29007	0.51648	-0.51883	24.7	13111	100
2025-3-27 20:5:50.321	WT901BLE68-01(48591DE3C19B)	-0.342	-0.700	0.269	36.011	-0.488	-17.578	-70.63	24.94	-98.16	-73.990	-36.260	6.174	0.61627	-0.29007	0.51648	-0.51883	24.7	13111	100
2025-3-27 20:5:50.321	WT901BLE68-01(48591DE3C19B)	-0.345	-0.700	0.269	36.011	-0.488	-17.578	-70.29	24.76	-98.20	-73.990	-36.260	6.174	0.61627	-0.29007	0.51648	-0.51883	24.7	13111	100
2025-3-27 20:5:50.321	WT901BLE68-01(48591DE3C19B)	-0.345	-0.750	0.255	33.508	9.155	-20.020	-70.03	24.59	-98.36	-73.990	-36.260	6.174	0.61627	-0.29007	0.51648	-0.51883	24.7	13111	100
2025-3-27 20:5:50.321	WT901BLE68-01(48591DE3C19B)	-0.348	-0.750	0.255	33.508	9.155	-20.020	-69.77	24.43	-98.51	-73.990	-36.260	6.174	0.61627	-0.29007	0.51648	-0.51883	24.7	13111	100
2025-3-27 20:5:50.355	WT901BLE68-01(48591DE3C19B)	-0.348	-0.827	0.241	23.376	21.973	-25.513	-69.68	24.25	-98.81	-73.990	-36.260	6.174	0.61627	-0.29007	0.51648	-0.51883	24.7	13111	100
2025-3-27 20:5:50.355	WT901BLE68-01(48591DE3C19B)	-0.368	-0.827	0.241	23.376	21.973	-25.513	-69.58	24.08	-99.11	-73.990	-36.260	6.174	0.61627	-0.29007	0.51648	-0.51883	24.7	13111	100
2025-3-27 20:5:50.356	WT901BLE68-01(48591DE3C19B)	-0.368	-1.039	0.251	4.822	34.363	-40.222	-69.75	23.81	-99.59	-73.990	-36.260	6.174	0.61627	-0.29007	0.51648	-0.51883	24.7	13111	100
2025-3-27 20:5:50.356	WT901BLE68-01(48591DE3C19B)	-0.465	-1.039	0.251	4.822	34.363	-40.222	-69.92	23.54	-100.06	-73.990	-36.260	6.174	0.60495	-0.23224	0.53729	-0.53973	24.7	13111	100
2025-3-27 20:5:50.380	WT901BLE68-01(48591DE3C19B)	-0.465	-1.433	0.304	-17.456	44.617	-63.660	-70.39	23.08	-100.71	-73.990	-36.260	6.174	0.60495	-0.23224	0.53729	-0.53973	24.7	13111	100
2025-3-27 20:5:50.380	WT901BLE68-01(48591DE3C19B)	-0.605	-1.433	0.304	-17.456	44.617	-63.660	-70.85	22.61	-101.34	-73.990	-36.260	6.174	0.60495	-0.23224	0.53729	-0.53973	24.7	13111	100
2025-3-27 20:5:50.380	WT901BLE68-01(48591DE3C19B)	-0.303	-1.857	0.430	-26.978	61.462	-81.177	-71.48	22.03	-102.21	-73.990	-36.260	6.174	0.60495	-0.23224	0.53729	-0.53973	24.7	13111	100
2025-3-27 20:5:50.380	WT901BLE68-01(48591DE3C19B)	-0.741	-0.929	0.215	-26.978	61.462	-81.177	-72.10	21.43	-103.05	-73.990	-36.260	6.174	0.60495	-0.23224	0.53729	-0.53973	24.7	13111	100
2025-3-27 20:5:50.441	WT901BLE68-01(48591DE3C19B)	-0.741	-1.813	0.614	-9.521	86.121	-85.022	-72.63	20.88	-104.14	-73.990	-36.260	6.174	0.60495	-0.23224	0.53729	-0.53973	24.7	13111	100
2025-3-27 20:5:50.441	WT901BLE68-01(48591DE3C19B)	-0.771	-1.813	0.614	-9.521	86.121	-85.022	-73.13	20.32	-105.22	-73.990	-36.260	6.174	0.60495	-0.23224	0.53729	-0.53973	24.7	13111	100
2025-3-27 20:5:50.441	WT901BLE68-01(48591DE3C19B)	-0.771	-1.333	0.658	-6.348	101.379	-78.430	-73.63	19.86	-106.43	-73.990	-36.260	6.174	0.60495	-0.23224	0.53729	-0.53973	24.7	13111	100
2025-3-27 20:5:50.441	WT901BLE68-01(48591DE3C19B)	-0.712	-1.333	0.658	-6.348	101.379	-78.430	-74.11	19.40	-107.63	-73.990	-36.260	6.174	0.60495	-0.23224	0.53729	-0.53973	24.7	13111	100
2025-3-27 20:5:50.471	WT901BLE68-01(48591DE3C19B)	-0.712	-1.043	0.530	-4.456	101.685	-56.519	-74.53	19.15	-108.77	-73.990	-36.260	6.174	0.60495	-0.23224	0.53729	-0.53973	24.7	13111	100
2025-3-27 20:5:50.471	WT901BLE68-01(48591DE3C19B)	-0.590	-1.043	0.530	-4.456	101.685	-56.519	-74.94	18.91	-109.90	-73.990	-36.260	6.174	0.60495	-0.23224	0.53729	-0.53973	24.7	13111	100
2025-3-27 20:5:50.471	WT901BLE68-01(48591DE3C19B)	-0.590	-0.752	0.365	-6.958	73.914	-30.823	-75.25	18.83	-110.68	-73.990	-36.260	6.174	0.60495	-0.23224	0.53729	-0.53973	24.7	13111	100
2025-3-27 20:5:50.471	WT901BLE68-01(48591DE3C19B)	-0.502	-0.752	0.365	-6.958	73.914	-30.823	-75.56	18.76	-111.46	-73.990	-36.260	6.174	0.60495	-0.23224	0.53729	-0.53973	24.7	13111	100
2025-3-27 20:5:50.500	WT901BLE68-01(48591DE3C19B)	-0.502	-0.533	0.278	-20.752	16.052	-5.676	-75.79	18.79	-111.59	-73.990	-36.260	6.174	0.60495	-0.23224	0.53729	-0.53973	24.7	13111	100
2025-3-27 20:5:50.500	WT901BLE68-01(48591DE3C19B)	-0.449	-0.533	0.278	-20.752	16.052	-5.676	-76.02	18.83	-111.72	-73.990	-36.260	6.174	0.60495	-0.23224	0.53729	-0.53973	24.7	13111	100
2025-3-27 20:5:50.500	WT901BLE68-01(48591DE3C19B)	-0.449	-0.541	0.218	-38.025	-37.598	13.184	-76.22	18.92	-111.26	-73.990	-36.260	6.174	0.60495	-0.23224	0.53729	-0.53973	24.7	13111	100
2025-3-27 20:5:50.500	WT901BLE68-01(48591DE3C19B)	-0.377	-0.541	0.218	-38.025	-37.598	13.184	-76.43	19.02	-110.80	-73.990	-36.260	6.174	0.60495	-0.23224	0.53729	-0.53973	24.7	13111	100
2025-3-27 20:5:50.560	WT901BLE68-01(48591DE3C19B)	-0.377	-0.615	0.149	-39.185	-55.908	27.649	-76.56	19.22	-110.13	-73.990	-36.260	6.174	0.60495	-0.23224	0.53729	-0.53973	24.7	13111	100
2025-3-27 20:5:50.560	WT901BLE68-01(48591DE3C19B)	-0.404	-0.615	0.149	-39.185	-55.908	27.649	-76.71	19.41	-109.45	-73.990	-36.260	6.174	0.60495	-0.23224	0.53729	-0.53973	24.7	13111	100
2025-3-27 20:5:50.561	WT901BLE68-01(48591DE3C19B)	-0.404	-0.630	0.143	-31.860	-50.476	34.973	-76.78	19.69	-108.80	-73.990	-36.260	6.174	0.60495	-0.23224	0.53729	-0.53973	24.7	13111	100
2025-3-27 20:5:50.561	WT901BLE68-01(48591DE3C19B)	-0.433	-0.630	0.143	-31.860	-50.476	34.973	-76.87	19.98	-108.17	-73.990	-36.260	6.174	0.60495	-0.23224	0.53729	-0.53973	24.7	13111	100
2025-3-27 20:5:50.592	WT901BLE68-01(48591DE3C19B)	-0.433	-0.603	0.200	-27.649	-49.622	32.288	-76.90	20.24	-107.54	-67.424	-42.434	6.664	0.60495	-0.23224	0.53729	-0.53973	24.7	13111	100
2025-3-27 20:5:50.593	WT901BLE68-01(48591DE3C19B)	-0.376	-0.603	0.200	-27.649	-49.622	32.288	-76.94	20.50	-106.91	-67.424	-42.434	6.664	0.60495	-0.23224	0.53729	-0.53973	24.7	13111	100
2025-3-27 20:5:50.593	WT901BLE68-01(48591DE3C19B)	-0.376	-0.569	0.261	-23.987	-48.767	27.161	-76.95	20.71	-106.32	-67.424	-42.434	6.664	0.60495	-0.23224	0.53729	-0.53973	24.7	13111	100
2025-3-27 20:5:50.593	WT901BLE68-01(48591DE3C19B)	-0.313	-0.569	0.261	-23.987	-48.767	27.161	-76.94	20.92	-105.72	-67.424	-42.434	6.664	0.60495	-0.23224	0.53729	-0.53973	24.7	13111	100
2025-3-27 20:5:50.681	WT901BLE68-01(48591DE3C19B)	-0.313	-0.537	0.279	-19.226	-37.354	21.179	-76.94	21.10	-105.27	-67.424	-42.434	6.664	0.60495	-0.23224	0.53729	-0.53973	24.7	13111	100
2025-3-27 20:5:50.681	WT901BLE68-01(48591DE3C19B)	-0.327	-0.537	0.279	-19.226	-37.354	21.179	-76.93	21.28	-104.82	-67.424	-42.434	6.664	0.60495	-0.23224	0.53729	-0.53973	24.7	13111	100
2025-3-27 20:5:50.681	WT901BLE68-01(48591DE3C19B)	-0.327	-0.542	0.265	-13.794	-23.682	15.015	-76.91	21.42	-104.52	-67.424	-42.434	6.664	0.60495	-0.23224	0.53729	-0.53973	24.7	13111	100
2025-3-27 20:5:50.681	WT901BLE68-01(48591DE3C19B)	-0.357	-0.542	0.265	-13.794	-23.682	15.015	-76.89	21.56	-104.23	-67.424	-42.434	6.664	0.60495	-0.23224	0.53729	-0.53973	24.7	13111	100
2025-3-27 20:5:50.682	WT901BLE68-01(48591DE3C19B)	-0.357	-0.538	0.251	-10.803	-16.846	8.240	-76.88	21.65	-104.04	-67.424	-42.434	6.664	0.60495	-0.23224	0.53729	-0.53973	24.7	13111	100
2025-3-27 20:5:50.682	WT901BLE68-01(48591DE3C19B)	-0.357	-0.538	0.251	-10.803	-16.846	8.240	-76.86	21.74	-103.84	-67.424	-42.434	6.664	0.60495	-0.23224	0.53729	-0.53973	24.7	13111	100
2025-3-27 20:5:50.682	WT901BLE68-01(48591DE3C19B)	-0.348	-0.481	0.252	-11.230	-17.456	5.859	-76.84	21.81	-103.64	-67.424	-42.434	6.664	0.60495	-0.23224	0.53729	-0.53973	24.7	13111	100
2025-3-27 20:5:50.683	WT901BLE68-01(48591DE3C19B)	-0.348	-0.425	0.235	-13.428	-20.996	9.277	-76.83	21.89	-103.43	-67.424	-42.434	6.664	0.60495	-0.23224	0.53729	-0.53973	24.7	13111	100
2025-3-27 20:5:50.712	WT901BLE68-01(48591DE3C19B)	-0.327	-0.425	0.235	-13.428	-20.996	9.277	-76.81	21.98	-103.19	-67.424	-42.434	6.664	0.60495	-0.23224	0.53729	-0.53973	24.7	13111	100
2025-3-27 20:5:50.713	WT901BLE68-01(48591DE3C19B)	-0.327	-0.420	0.176	-21.423	-27.954	14.587	-76.82	22.10	-102.93	-67.424	-42.434	6.664	0.60495	-0.23224	0.53729	-0.53973	24.7	13111	100
2025-3-27 20:5:50.713	WT901BLE68-01(48591DE3C19B)	-0.340	-0.420	0.176	-21.423	-27.954	14.587	-76.84	22.23	-102.61	-67.424	-42.434	6.664	0.60495	-0.23224	0.53729	-0.53973	24.7	13111	100
2025-3-27 20:5:50.713	WT901BLE68-01(48591DE3C19B)	-0.340	-0.636	0.162	-33.875	-43.518	14.893	-76.90	22.35	-102.21	-67.424	-42.434	6.664	0.60495	-0.23224	0.53729	-0.53973	24.7	13111	100
2025-3-27 20:5:50.771	WT901BLE68-01(48591DE3C19B)	-0.412	-0.636	0.162	-33.875	-43.518	14.893	-77.00	22.45	-101.73	-67.424	-42.434	6.664	0.60495	-0.23224	0.53729	-0.53973	24.7	13111	100
2025-3-27 20:5:50.771	WT901BLE68-01(48591DE3C19B)	-0.412	-1.033	0.207	-43.762	-70.129	6.042	-77.10	22.47	-101.10	-67.424	-42.434	6.664	0.60495	-0.23224	0.53729	-0.53973	24.7	13111	100
2025-3-27 20:5:50.772	WT901BLE68-01(48591DE3C19B)	-0.500	-1.033	0.207	-43.762	-70.129	6.042	-77.21	22.42	-100.34	-67.424	-42.434	6.664	0.60495	-0.23224	0.53729	-0.53973	24.7	13111	100
2025-3-27 20:5:50.772	WT901BLE68-01(48591DE3C19B)	-0.500	-1.706	0.221	-64.270	-104.065	-13.428	-77.37	22.22	-99.42	-67.424	-42.434	6.664	0.60495	-0.23224	0.53729	-0.53973	24.7	13111	100
2025-3-27 20:5:50.802	WT901BLE68-01(48591DE3C19B)	-0.459	-1.706	0.221	-64.270	-104.065	-13.428	-77.60	21.89	-98.33	-67.424	-42.434	6.664	0.59186	-0.29453	0.56067	-0.49847	24.7	13111	100
2025-3-27 20:5:50.802	WT901BLE68-01(48591DE3C19B)	-0.459	-2.595	0.149	-60.669	-118.408	-25.696	-77.79	21.47	-97.17	-67.424	-42.434	6.664	0.59186	-0.29453	0.56067	-0.49847	24.7	13111	100
2025-3-27 20:5:50.802	WT901BLE68-01(48591DE3C19B)	-0.446	-2.595	0.149	-60.669	-118.408	-25.696	-77.98	20.97	-95.94	-67.424	-42.434	6.664	0.59186	-0.29453	0.56067	-0.49847	24.7	13111	100
2025-3-27 20:5:50.802	WT901BLE68-01(48591DE3C19B)	-0.446	-2.445	0.222	29.785	-95.886	-15.503	-77.76	20.53	-94.82	-67.424	-42.434	6.664	0.59186	-0.29453	0.56067	-0.49847	24.7	13111	100
2025-3-27 20:5:50.832	WT901BLE68-01(48591DE3C19B)	-0.381	-2.445	0.222	29.785	-95.886	-15.503	-77.15	20.15	-93.82	-67.424	-42.434	6.664	0.59186	-0.29453	0.56067	-0.49847	24.7	13111	100
2025-3-27 20:5:50.832	WT901BLE68-01(48591DE3C19B)	-0.381	-1.615	0.238	49.194	-64.026	-5.737	-76.51	19.84	-92.98	-67.424	-42.434	6.664	0.59186	-0.29453	0.56067	-0.49847	24.7	13111	100
2025-3-27 20:5:50.832	WT901BLE68-01(48591DE3C19B)	-0.168	-1.615	0.238	49.194	-64.026	-5.737	-75.83	19.61	-92.30	-67.424	-42.434	6.664	0.59186	-0.29453	0.56067	-0.49847	24.7	13111	100
2025-3-27 20:5:50.833	WT901BLE68-01(48591DE3C19B)	-0.168	-1.234	0.164	51.392	-16.113	18.982	-75.22	19.55	-91.83	-67.424	-42.434	6.664	0.59186	-0.29453	0.56067	-0.49847	24.7	13111	100
2025-3-27 20:5:50.891	WT901BLE68-01(48591DE3C19B)	-0.056	-1.234	0.164	51.392	-16.113	18.982	-74.67	19.66	-91.58	-67.424	-42.434	6.664	0.59186	-0.29453	0.56067	-0.49847	24.7	13111	100
2025-3-27 20:5:50.891	WT901BLE68-01(48591DE3C19B)	-0.056	-0.855	0.167	50.354	35.400	46.448	-74.21	19.96	-91.55	-67.424	-42.434	6.664	0.59186	-0.29453	0.56067	-0.49847	24.7	13111	100
2025-3-27 20:5:50.891	WT901BLE68-01(48591DE3C19B)	-0.023	-0.855	0.167	50.354	35.400	46.448	-73.82	20.47	-91.75	-67.424	-42.434	6.664	0.59186	-0.29453	0.56067	-0.49847	24.7	13111	100
2025-3-27 20:5:50.891	WT901BLE68-01(48591DE3C19B)	-0.023	-0.604	0.171	22.278	50.842	62.866	-73.60	21.06	-91.99	-67.424	-42.434	6.664	0.59186	-0.29453	0.56067	-0.49847	24.7	13111	100
2025-3-27 20:5:50.920	WT901BLE68-01(48591DE3C19B)	0.039	-0.604	0.171	22.278	50.842	62.866	-73.55	21.75	-92.30	-67.424	-42.434	6.664	0.59186	-0.29453	0.56067	-0.49847	24.7	13111	100
2025-3-27 20:5:50.920	WT901BLE68-01(48591DE3C19B)	0.039	-0.538	0.183	-3.418	51.025	57.434	-73.62	22.41	-92.60	-67.424	-42.434	6.664	0.59186	-0.29453	0.56067	-0.49847	24.7	13111	100
2025-3-27 20:5:50.920	WT901BLE68-01(48591DE3C19B)	-0.019	-0.538	0.183	-3.418	51.025	57.434	-73.83	23.03	-92.93	-67.424	-42.434	6.664	0.59186	-0.29453	0.56067	-0.49847	24.7	13111	100
2025-3-27 20:5:50.920	WT901BLE68-01(48591DE3C19B)	-0.019	-0.510	0.191	-9.399	62.439	49.927	-74.09	23.63	-93.33	-67.424	-42.434	6.664	0.59186	-0.29453	0.56067	-0.49847	24.7	13111	100
2025-3-27 20:5:50.981	WT901BLE68-01(48591DE3C19B)	-0.169	-0.510	0.191	-9.399	62.439	49.927	-74.42	24.19	-93.81	-67.424	-42.434	6.664	0.59186	-0.29453	0.56067	-0.49847	24.7	13111	100
2025-3-27 20:5:50.982	WT901BLE68-01(48591DE3C19B)	-0.169	-0.440	0.196	-9.888	73.792	44.006	-74.78	24.74	-94.36	-67.424	-42.434	6.664	0.59186	-0.29453	0.56067	-0.49847	24.7	13111	100
2025-3-27 20:5:50.982	WT901BLE68-01(48591DE3C19B)	-0.300	-0.440	0.196	-9.888	73.792	44.006	-75.17	25.26	-94.99	-67.424	-42.434	6.664	0.59186	-0.29453	0.56067	-0.49847	24.7	13111	100
2025-3-27 20:5:50.982	WT901BLE68-01(48591DE3C19B)	-0.300	-0.410	0.189	-9.583	77.271	29.968	-75.57	25.72	-95.66	-67.424	-42.434	6.664	0.59186	-0.29453	0.56067	-0.49847	24.7	13111	100
2025-3-27 20:5:51.37	WT901BLE68-01(48591DE3C19B)	-0.384	-0.410	0.189	-9.583	77.271	29.968	-76.00	26.12	-96.38	-67.424	-42.434	6.664	0.59186	-0.29453	0.56067	-0.49847	24.7	13111	100
2025-3-27 20:5:51.37	WT901BLE68-01(48591DE3C19B)	-0.384	-0.372	0.188	-2.441	72.510	20.996	-76.38	26.47	-97.08	-72.030	-43.414	9.506	0.59186	-0.29453	0.56067	-0.49847	24.7	13111	100
2025-3-27 20:5:51.37	WT901BLE68-01(48591DE3C19B)	-0.402	-0.372	0.188	-2.441	72.510	20.996	-76.72	26.78	-97.78	-72.030	-43.414	9.506	0.59186	-0.29453	0.56067	-0.49847	24.7	13111	100
2025-3-27 20:5:51.37	WT901BLE68-01(48591DE3C19B)	-0.402	-0.345	0.189	3.174	52.429	14.893	-76.99	27.04	-98.38	-72.030	-43.414	9.506	0.59186	-0.29453	0.56067	-0.49847	24.7	13111	100
2025-3-27 20:5:51.71	WT901BLE68-01(48591DE3C19B)	-0.405	-0.345	0.189	3.174	52.429	14.893	-77.18	27.26	-98.89	-72.030	-43.414	9.506	0.59186	-0.29453	0.56067	-0.49847	24.7	13111	100
2025-3-27 20:5:51.71	WT901BLE68-01(48591DE3C19B)	-0.405	-0.376	0.177	10.864	19.348	10.376	-77.25	27.43	-99.22	-72.030	-43.414	9.506	0.59186	-0.29453	0.56067	-0.49847	24.7	13111	100
2025-3-27 20:5:51.71	WT901BLE68-01(48591DE3C19B)	-0.383	-0.376	0.177	10.864	19.348	10.376	-77.20	27.55	-99.38	-72.030	-43.414	9.506	0.59186	-0.29453	0.56067	-0.49847	24.7	13111	100
2025-3-27 20:5:51.71	WT901BLE68-01(48591DE3C19B)	-0.383	-0.397	0.156	16.174	-20.691	10.376	-77.02	27.64	-99.33	-72.030	-43.414	9.506	0.59186	-0.29453	0.56067	-0.49847	24.7	13111	100
2025-3-27 20:5:51.72	WT901BLE68-01(48591DE3C19B)	-0.330	-0.397	0.156	16.174	-20.691	10.376	-76.71	27.69	-99.06	-72.030	-43.414	9.506	0.59186	-0.29453	0.56067	-0.49847	24.7	13111	100
2025-3-27 20:5:51.72	WT901BLE68-01(48591DE3C19B)	-0.330	-0.461	0.167	19.165	-49.927	14.343	-76.31	27.73	-98.64	-72.030	-43.414	9.506	0.59186	-0.29453	0.56067	-0.49847	24.7	13111	100
2025-3-27 20:5:51.72	WT901BLE68-01(48591DE3C19B)	-0.288	-0.461	0.167	19.165	-49.927	14.343	-75.82	27.75	-98.05	-72.030	-43.414	9.506	0.59186	-0.29453	0.56067	-0.49847	24.7	13111	100
2025-3-27 20:5:51.72	WT901BLE68-01(48591DE3C19B)	-0.288	-0.604	0.165	15.625	-54.688	18.799	-75.33	27.78	-97.43	-72.030	-43.414	9.506	0.59186	-0.29453	0.56067	-0.49847	24.7	13111	100
2025-3-27 20:5:51.161	WT901BLE68-01(48591DE3C19B)	-0.202	-0.604	0.165	15.625	-54.688	18.799	-74.86	27.83	-96.78	-72.030	-43.414	9.506	0.59186	-0.29453	0.56067	-0.49847	24.7	13111	100
2025-3-27 20:5:51.161	WT901BLE68-01(48591DE3C19B)	-0.202	-0.844	0.189	8.484	-24.353	18.921	-74.49	27.91	-96.30	-72.030	-43.414	9.506	0.59186	-0.29453	0.56067	-0.49847	24.7	13111	100
2025-3-27 20:5:51.161	WT901BLE68-01(48591DE3C19B)	-0.160	-0.844	0.189	8.484	-24.353	18.921	-74.25	28.00	-95.97	-72.030	-43.414	9.506	0.59186	-0.29453	0.56067	-0.49847	24.7	13111	100
2025-3-27 20:5:51.161	WT901BLE68-01(48591DE3C19B)	-0.160	-1.266	0.137	-3.723	23.743	4.028	-74.20	28.09	-95.93	-72.030	-43.414	9.506	0.59186	-0.29453	0.56067	-0.49847	24.7	13111	100
2025-3-27 20:5:51.162	WT901BLE68-01(48591DE3C19B)	-0.262	-1.266	0.137	-3.723	23.743	4.028	-74.37	28.15	-96.15	-72.030	-43.414	9.506	0.59186	-0.29453	0.56067	-0.49847	24.7	13111	100
2025-3-27 20:5:51.162	WT901BLE68-01(48591DE3C19B)	-0.262	-1.718	0.113	3.418	66.162	-22.217	-74.72	28.05	-96.91	-72.030	-43.414	9.506	0.59186	-0.29453	0.56067	-0.49847	24.7	13111	100
2025-3-27 20:5:51.162	WT901BLE68-01(48591DE3C19B)	-0.532	-1.718	0.113	3.418	66.162	-22.217	-75.08	27.94	-97.66	-72.030	-43.414	9.506	0.59186	-0.29453	0.56067	-0.49847	24.7	13111	100
2025-3-27 20:5:51.162	WT901BLE68-01(48591DE3C19B)	-0.532	-1.740	0.268	23.987	96.619	-48.340	-75.42	27.65	-98.81	-72.030	-43.414	9.506	0.60767	-0.24179	0.57541	-0.49097	24.7	13111	100
2025-3-27 20:5:51.193	WT901BLE68-01(48591DE3C19B)	-1.005	-1.740	0.268	23.987	96.619	-48.340	-75.75	27.36	-99.94	-72.030	-43.414	9.506	0.60767	-0.24179	0.57541	-0.49097	24.7	13111	100
2025-3-27 20:5:51.193	WT901BLE68-01(48591DE3C19B)	-1.005	-1.640	0.509	15.381	90.942	-72.388	-76.15	26.82	-101.06	-72.030	-43.414	9.506	0.60767	-0.24179	0.57541	-0.49097	24.7	13111	100
2025-3-27 20:5:51.193	WT901BLE68-01(48591DE3C19B)	-1.175	-1.640	0.509	15.381	90.942	-72.388	-76.54	26.30	-102.18	-72.030	-43.414	9.506	0.60767	-0.24179	0.57541	-0.49097	24.7	13111	100
2025-3-27 20:5:51.193	WT901BLE68-01(48591DE3C19B)	-1.175	-1.516	0.631	10.315	84.290	-83.435	-76.93	25.66	-103.26	-72.030	-43.414	9.506	0.60767	-0.24179	0.57541	-0.49097	24.7	13111	100
2025-3-27 20:5:51.257	WT901BLE68-01(48591DE3C19B)	-1.047	-1.516	0.631	10.315	84.290	-83.435	-77.29	25.03	-104.33	-72.030	-43.414	9.506	0.60767	-0.24179	0.57541	-0.49097	24.7	13111	100
2025-3-27 20:5:51.257	WT901BLE68-01(48591DE3C19B)	-1.047	-1.214	0.618	18.860	75.012	-62.378	-77.49	24.59	-105.24	-72.030	-43.414	9.506	0.60767	-0.24179	0.57541	-0.49097	24.7	13111	100
2025-3-27 20:5:51.257	WT901BLE68-01(48591DE3C19B)	-0.815	-1.214	0.618	18.860	75.012	-62.378	-77.67	24.16	-106.16	-72.030	-43.414	9.506	0.60767	-0.24179	0.57541	-0.49097	24.7	13111	100
2025-3-27 20:5:51.257	WT901BLE68-01(48591DE3C19B)	-0.815	-0.875	0.486	12.207	28.748	-38.086	-77.67	23.88	-106.54	-72.030	-43.414	9.506	0.60767	-0.24179	0.57541	-0.49097	24.7	13111	100
2025-3-27 20:5:51.280	WT901BLE68-01(48591DE3C19B)	-0.590	-0.875	0.486	12.207	28.748	-38.086	-77.68	23.60	-106.92	-72.030	-43.414	9.506	0.60767	-0.24179	0.57541	-0.49097	24.7	13111	100
2025-3-27 20:5:51.280	WT901BLE68-01(48591DE3C19B)	-0.590	-0.676	0.317	-8.362	-47.791	-10.681	-77.53	23.43	-106.45	-72.030	-43.414	9.506	0.60767	-0.24179	0.57541	-0.49097	24.7	13111	100
2025-3-27 20:5:51.280	WT901BLE68-01(48591DE3C19B)	-0.481	-0.676	0.317	-8.362	-47.791	-10.681	-77.38	23.27	-105.97	-72.030	-43.414	9.506	0.60767	-0.24179	0.57541	-0.49097	24.7	13111	100
2025-3-27 20:5:51.281	WT901BLE68-01(48591DE3C19B)	-0.481	-0.689	0.179	-31.494	-115.356	2.014	-77.17	23.08	-104.77	-72.030	-43.414	9.506	0.60767	-0.24179	0.57541	-0.49097	24.7	13111	100
2025-3-27 20:5:51.343	WT901BLE68-01(48591DE3C19B)	-0.343	-0.689	0.179	-31.494	-115.356	2.014	-76.97	22.89	-103.56	-72.030	-43.414	9.506	0.60767	-0.24179	0.57541	-0.49097	24.7	13111	100
2025-3-27 20:5:51.343	WT901BLE68-01(48591DE3C19B)	-0.343	-0.714	0.091	-33.142	-141.785	6.653	-76.68	22.68	-102.07	-72.030	-43.414	9.506	0.60767	-0.24179	0.57541	-0.49097	24.7	13111	100
2025-3-27 20:5:51.343	WT901BLE68-01(48591DE3C19B)	-0.217	-0.714	0.091	-33.142	-141.785	6.653	-76.42	22.47	-100.59	-72.030	-43.414	9.506	0.60767	-0.24179	0.57541	-0.49097	24.7	13111	100
2025-3-27 20:5:51.343	WT901BLE68-01(48591DE3C19B)	-0.217	-0.679	0.118	-24.597	-110.413	8.850	-76.19	22.34	-99.43	-72.030	-43.414	9.506	0.60767	-0.24179	0.57541	-0.49097	24.7	13111	100
2025-3-27 20:5:51.373	WT901BLE68-01(48591DE3C19B)	-0.229	-0.679	0.118	-24.597	-110.413	8.850	-75.97	22.20	-98.27	-72.030	-43.414	9.506	0.60767	-0.24179	0.57541	-0.49097	24.7	13111	100
2025-3-27 20:5:51.373	WT901BLE68-01(48591DE3C19B)	-0.229	-0.630	0.183	-12.085	-49.744	2.136	-75.88	22.13	-97.76	-72.030	-43.414	9.506	0.60767	-0.24179	0.57541	-0.49097	24.7	13111	100
2025-3-27 20:5:51.373	WT901BLE68-01(48591DE3C19B)	-0.265	-0.630	0.183	-12.085	-49.744	2.136	-75.79	22.07	-97.26	-72.030	-43.414	9.506	0.60767	-0.24179	0.57541	-0.49097	24.7	13111	100
2025-3-27 20:5:51.374	WT901BLE68-01(48591DE3C19B)	-0.265	-0.569	0.224	0.366	8.057	-5.310	-75.81	22.07	-97.38	-72.030	-43.414	9.506	0.60767	-0.24179	0.57541	-0.49097	24.7	13111	100
2025-3-27 20:5:51.431	WT901BLE68-01(48591DE3C19B)	-0.331	-0.569	0.224	0.366	8.057	-5.310	-75.82	22.07	-97.50	-69.286	-50.666	7.056	0.60767	-0.24179	0.57541	-0.49097	24.7	13111	100
2025-3-27 20:5:51.431	WT901BLE68-01(48591DE3C19B)	-0.331	-0.506	0.233	12.512	46.997	-7.141	-75.87	22.14	-98.04	-69.286	-50.666	7.056	0.60767	-0.24179	0.57541	-0.49097	24.7	13111	100
2025-3-27 20:5:51.431	WT901BLE68-01(48591DE3C19B)	-0.377	-0.506	0.233	12.512	46.997	-7.141	-75.91	22.22	-98.59	-69.286	-50.666	7.056	0.60767	-0.24179	0.57541	-0.49097	24.7	13111	100
2025-3-27 20:5:51.431	WT901BLE68-01(48591DE3C19B)	-0.377	-0.413	0.227	21.057	60.059	-3.235	-75.92	22.37	-99.26	-69.286	-50.666	7.056	0.60767	-0.24179	0.57541	-0.49097	24.7	13111	100
2025-3-27 20:5:51.432	WT901BLE68-01(48591DE3C19B)	-0.379	-0.413	0.227	21.057	60.059	-3.235	-75.92	22.52	-99.94	-69.286	-50.666	7.056	0.60767	-0.24179	0.57541	-0.49097	24.7	13111	100
2025-3-27 20:5:51.432	WT901BLE68-01(48591DE3C19B)	-0.379	-0.297	0.194	19.714	53.833	4.883	-75.89	22.74	-100.54	-69.286	-50.666	7.056	0.60767	-0.24179	0.57541	-0.49097	24.7	13111	100
2025-3-27 20:5:51.432	WT901BLE68-01(48591DE3C19B)	-0.370	-0.297	0.194	19.714	53.833	4.883	-75.87	22.97	-101.15	-69.286	-50.666	7.056	0.60767	-0.24179	0.57541	-0.49097	24.7	13111	100
2025-3-27 20:5:51.432	WT901BLE68-01(48591DE3C19B)	-0.370	-0.294	0.160	9.216	35.706	11.841	-75.87	23.22	-101.56	-69.286	-50.666	7.056	0.60767	-0.24179	0.57541	-0.49097	24.7	13111	100
2025-3-27 20:5:51.491	WT901BLE68-01(48591DE3C19B)	-0.377	-0.294	0.160	9.216	35.706	11.841	-75.87	23.47	-101.99	-69.286	-50.666	7.056	0.60767	-0.24179	0.57541	-0.49097	24.7	13111	100
2025-3-27 20:5:51.491	WT901BLE68-01(48591DE3C19B)	-0.377	-0.464	0.172	-5.127	8.850	14.221	-75.89	23.69	-102.12	-69.286	-50.666	7.056	0.60767	-0.24179	0.57541	-0.49097	24.7	13111	100
2025-3-27 20:5:51.491	WT901BLE68-01(48591DE3C19B)	-0.384	-0.464	0.172	-5.127	8.850	14.221	-75.92	23.91	-102.27	-69.286	-50.666	7.056	0.60767	-0.24179	0.57541	-0.49097	24.7	13111	100
2025-3-27 20:5:51.491	WT901BLE68-01(48591DE3C19B)	-0.384	-0.771	0.173	-20.691	-19.775	6.531	-75.98	23.97	-102.11	-69.286	-50.666	7.056	0.60767	-0.24179	0.57541	-0.49097	24.7	13111	100
2025-3-27 20:5:51.520	WT901BLE68-01(48591DE3C19B)	-0.417	-0.771	0.173	-20.691	-19.775	6.531	-76.06	24.04	-101.95	-69.286	-50.666	7.056	0.60767	-0.24179	0.57541	-0.49097	24.7	13111	100
2025-3-27 20:5:51.520	WT901BLE68-01(48591DE3C19B)	-0.417	-1.306	0.209	-35.828	-44.189	-15.198	-76.22	23.82	-101.57	-69.286	-50.666	7.056	0.60767	-0.24179	0.57541	-0.49097	24.7	13111	100
2025-3-27 20:5:51.520	WT901BLE68-01(48591DE3C19B)	-0.460	-1.306	0.209	-35.828	-44.189	-15.198	-76.39	23.60	-101.16	-69.286	-50.666	7.056	0.60767	-0.24179	0.57541	-0.49097	24.7	13111	100
2025-3-27 20:5:51.520	WT901BLE68-01(48591DE3C19B)	-0.460	-2.086	0.141	-41.565	-49.683	-33.386	-76.62	23.17	-100.72	-69.286	-50.666	7.056	0.60767	-0.24179	0.57541	-0.49097	24.7	13111	100
2025-3-27 20:5:51.554	WT901BLE68-01(48591DE3C19B)	-0.459	-2.086	0.141	-41.565	-49.683	-33.386	-76.88	22.74	-100.27	-69.286	-50.666	7.056	0.60767	-0.24179	0.57541	-0.49097	24.7	13111	100
2025-3-27 20:5:51.554	WT901BLE68-01(48591DE3C19B)	-0.459	-2.346	0.116	17.151	-23.621	-30.945	-76.66	22.37	-100.07	-69.286	-50.666	7.056	0.60767	-0.24179	0.57541	-0.49097	24.7	13111	100
2025-3-27 20:5:51.554	WT901BLE68-01(48591DE3C19B)	-0.477	-2.346	0.116	17.151	-23.621	-30.945	-76.45	21.99	-99.87	-69.286	-50.666	7.056	0.60767	-0.24179	0.57541	-0.49097	24.7	13111	100
2025-3-27 20:5:51.554	WT901BLE68-01(48591DE3C19B)	-0.477	-1.606	0.152	51.758	6.775	-26.855	-76.03	21.73	-99.96	-69.286	-50.666	7.056	0.60767	-0.24179	0.57541	-0.49097	24.7	13111	100
2025-3-27 20:5:51.611	WT901BLE68-01(48591DE3C19B)	-0.333	-1.606	0.152	51.758	6.775	-26.855	-75.60	21.46	-100.07	-69.286	-50.666	7.056	0.60767	-0.24179	0.57541	-0.49097	24.7	13111	100
2025-3-27 20:5:51.612	WT901BLE68-01(48591DE3C19B)	-0.242	-1.223	0.131	38.330	38.086	-17.090	-75.42	21.36	-100.47	-69.286	-50.666	7.056	0.58438	-0.27170	0.55579	-0.52502	24.7	13111	100
2025-3-27 20:5:51.612	WT901BLE68-01(48591DE3C19B)	-0.242	-0.917	0.197	32.776	63.354	1.282	-75.30	21.39	-100.97	-69.286	-50.666	7.056	0.58438	-0.27170	0.55579	-0.52502	24.7	13111	100
2025-3-27 20:5:51.612	WT901BLE68-01(48591DE3C19B)	-0.225	-0.917	0.197	32.776	63.354	1.282	-75.26	21.54	-101.58	-69.286	-50.666	7.056	0.58438	-0.27170	0.55579	-0.52502	24.7	13111	100
2025-3-27 20:5:51.640	WT901BLE68-01(48591DE3C19B)	-0.225	-0.615	0.272	6.836	46.509	17.029	-75.29	21.74	-102.08	-69.286	-50.666	7.056	0.58438	-0.27170	0.55579	-0.52502	24.7	13111	100
2025-3-27 20:5:51.640	WT901BLE68-01(48591DE3C19B)	-0.151	-0.615	0.272	6.836	46.509	17.029	-75.42	21.99	-102.48	-69.286	-50.666	7.056	0.58438	-0.27170	0.55579	-0.52502	24.7	13111	100
2025-3-27 20:5:51.640	WT901BLE68-01(48591DE3C19B)	-0.151	-0.570	0.302	-21.790	15.015	11.475	-75.62	22.18	-102.73	-69.286	-50.666	7.056	0.58438	-0.27170	0.55579	-0.52502	24.7	13111	100
2025-3-27 20:5:51.640	WT901BLE68-01(48591DE3C19B)	-0.201	-0.570	0.302	-21.790	15.015	11.475	-75.91	22.30	-102.83	-69.286	-50.666	7.056	0.58438	-0.27170	0.55579	-0.52502	24.7	13111	100
2025-3-27 20:5:51.701	WT901BLE68-01(48591DE3C19B)	-0.201	-0.626	0.294	-23.132	5.432	5.676	-76.18	22.37	-102.89	-69.286	-50.666	7.056	0.58438	-0.27170	0.55579	-0.52502	24.7	13111	100
2025-3-27 20:5:51.701	WT901BLE68-01(48591DE3C19B)	-0.336	-0.626	0.294	-23.132	5.432	5.676	-76.43	22.41	-102.92	-69.286	-50.666	7.056	0.58438	-0.27170	0.55579	-0.52502	24.7	13111	100
2025-3-27 20:5:51.701	WT901BLE68-01(48591DE3C19B)	-0.336	-0.599	0.254	-15.137	3.418	5.310	-76.63	22.44	-102.95	-69.286	-50.666	7.056	0.58438	-0.27170	0.55579	-0.52502	24.7	13111	100
2025-3-27 20:5:51.701	WT901BLE68-01(48591DE3C19B)	-0.422	-0.599	0.254	-15.137	3.418	5.310	-76.78	22.47	-102.97	-69.286	-50.666	7.056	0.58438	-0.27170	0.55579	-0.52502	24.7	13111	100
2025-3-27 20:5:51.731	WT901BLE68-01(48591DE3C19B)	-0.422	-0.510	0.203	-1.953	-2.258	5.981	-76.85	22.51	-102.96	-69.286	-50.666	7.056	0.58438	-0.27170	0.55579	-0.52502	24.7	13111	100
2025-3-27 20:5:51.731	WT901BLE68-01(48591DE3C19B)	-0.369	-0.510	0.203	-1.953	-2.258	5.981	-76.84	22.54	-102.94	-69.286	-50.666	7.056	0.58438	-0.27170	0.55579	-0.52502	24.7	13111	100
2025-3-27 20:5:51.731	WT901BLE68-01(48591DE3C19B)	-0.369	-0.364	0.184	9.338	-9.766	13.306	-76.76	22.62	-102.87	-69.286	-50.666	7.056	0.58438	-0.27170	0.55579	-0.52502	24.7	13111	100
2025-3-27 20:5:51.731	WT901BLE68-01(48591DE3C19B)	-0.240	-0.364	0.184	9.338	-9.766	13.306	-76.59	22.73	-102.77	-69.286	-50.666	7.056	0.58438	-0.27170	0.55579	-0.52502	24.7	13111	100
2025-3-27 20:5:51.760	WT901BLE68-01(48591DE3C19B)	-0.240	-0.282	0.175	18.372	-5.432	27.466	-76.38	22.91	-102.68	-69.286	-50.666	7.056	0.58438	-0.27170	0.55579	-0.52502	24.7	13111	100
2025-3-27 20:5:51.760	WT901BLE68-01(48591DE3C19B)	-0.205	-0.282	0.175	18.372	-5.432	27.466	-76.12	23.17	-102.60	-69.286	-50.666	7.056	0.58438	-0.27170	0.55579	-0.52502	24.7	13111	100
2025-3-27 20:5:51.761	WT901BLE68-01(48591DE3C19B)	-0.205	-0.278	0.156	25.452	1.282	37.842	-75.84	23.49	-102.55	-69.286	-50.666	7.056	0.58438	-0.27170	0.55579	-0.52502	24.7	13111	100
2025-3-27 20:5:51.761	WT901BLE68-01(48591DE3C19B)	-0.250	-0.278	0.156	25.452	1.282	37.842	-75.52	23.87	-102.52	-68.110	-57.820	2.842	0.58438	-0.27170	0.55579	-0.52502	24.7	13111	100
2025-3-27 20:5:51.790	WT901BLE68-01(48591DE3C19B)	-0.250	-0.375	0.104	20.325	-8.850	43.518	-75.20	24.26	-102.44	-68.110	-57.820	2.842	0.58438	-0.27170	0.55579	-0.52502	24.7	13111	100
2025-3-27 20:5:51.790	WT901BLE68-01(48591DE3C19B)	-0.291	-0.375	0.104	20.325	-8.850	43.518	-74.88	24.67	-102.29	-68.110	-57.820	2.842	0.58438	-0.27170	0.55579	-0.52502	24.7	13111	100
2025-3-27 20:5:51.790	WT901BLE68-01(48591DE3C19B)	-0.291	-0.607	0.035	-4.028	-31.006	43.274	-74.64	25.04	-102.02	-68.110	-57.820	2.842	0.58438	-0.27170	0.55579	-0.52502	24.7	13111	100
2025-3-27 20:5:51.790	WT901BLE68-01(48591DE3C19B)	-0.413	-0.607	0.035	-4.028	-31.006	43.274	-74.48	25.38	-101.63	-68.110	-57.820	2.842	0.58438	-0.27170	0.55579	-0.52502	24.7	13111	100
2025-3-27 20:5:51.854	WT901BLE68-01(48591DE3C19B)	-0.413	-1.147	0.191	-35.034	-70.862	33.630	-74.39	25.63	-101.02	-68.110	-57.820	2.842	0.58438	-0.27170	0.55579	-0.52502	24.7	13111	100
2025-3-27 20:5:51.854	WT901BLE68-01(48591DE3C19B)	-0.511	-1.147	0.191	-35.034	-70.862	33.630	-74.38	25.76	-100.21	-68.110	-57.820	2.842	0.58438	-0.27170	0.55579	-0.52502	24.7	13111	100
2025-3-27 20:5:51.854	WT901BLE68-01(48591DE3C19B)	-0.511	-1.997	0.337	-65.369	-107.361	8.972	-74.45	25.71	-99.23	-68.110	-57.820	2.842	0.58438	-0.27170	0.55579	-0.52502	24.7	13111	100
2025-3-27 20:5:51.854	WT901BLE68-01(48591DE3C19B)	-0.285	-1.997	0.337	-65.369	-107.361	8.972	-74.61	25.49	-98.09	-68.110	-57.820	2.842	0.58438	-0.27170	0.55579	-0.52502	24.7	13111	100
2025-3-27 20:5:51.882	WT901BLE68-01(48591DE3C19B)	-0.285	-2.568	0.443	-30.090	-92.529	-8.301	-74.65	25.20	-97.05	-68.110	-57.820	2.842	0.58438	-0.27170	0.55579	-0.52502	24.7	13111	100
2025-3-27 20:5:51.882	WT901BLE68-01(48591DE3C19B)	-0.402	-2.568	0.443	-30.090	-92.529	-8.301	-74.58	24.82	-96.12	-68.110	-57.820	2.842	0.58438	-0.27170	0.55579	-0.52502	24.7	13111	100
2025-3-27 20:5:51.882	WT901BLE68-01(48591DE3C19B)	-0.402	-2.039	0.818	21.240	-37.231	-22.827	-74.38	24.44	-95.51	-68.110	-57.820	2.842	0.58438	-0.27170	0.55579	-0.52502	24.7	13111	100
2025-3-27 20:5:51.882	WT901BLE68-01(48591DE3C19B)	-0.536	-2.039	0.818	21.240	-37.231	-22.827	-74.05	24.06	-95.23	-68.110	-57.820	2.842	0.58438	-0.27170	0.55579	-0.52502	24.7	13111	100
2025-3-27 20:5:52.1	WT901BLE68-01(48591DE3C19B)	-0.536	-1.410	1.026	24.780	14.404	-34.180	-73.82	23.70	-95.25	-68.110	-57.820	2.842	0.58438	-0.27170	0.55579	-0.52502	24.7	13111	100
2025-3-27 20:5:52.1	WT901BLE68-01(48591DE3C19B)	-0.458	-1.410	1.026	24.780	14.404	-34.180	-73.67	23.36	-95.56	-68.110	-57.820	2.842	0.58438	-0.27170	0.55579	-0.52502	24.7	13111	100
2025-3-27 20:5:52.1	WT901BLE68-01(48591DE3C19B)	-0.458	-0.958	0.898	31.311	69.580	-25.574	-73.59	23.14	-96.17	-68.110	-57.820	2.842	0.58438	-0.27170	0.55579	-0.52502	24.7	13111	100
2025-3-27 20:5:52.2	WT901BLE68-01(48591DE3C19B)	-0.333	-0.958	0.898	31.311	69.580	-25.574	-73.56	23.04	-97.05	-68.110	-57.820	2.842	0.58438	-0.27170	0.55579	-0.52502	24.7	13111	100
2025-3-27 20:5:52.3	WT901BLE68-01(48591DE3C19B)	-0.333	-0.622	0.579	30.212	110.413	-19.958	-73.61	23.02	-98.15	-68.110	-57.820	2.842	0.58438	-0.27170	0.55579	-0.52502	24.7	13111	100
2025-3-27 20:5:52.3	WT901BLE68-01(48591DE3C19B)	-0.251	-0.622	0.579	30.212	110.413	-19.958	-73.74	23.09	-99.44	-68.110	-57.820	2.842	0.58438	-0.27170	0.55579	-0.52502	24.7	13111	100
2025-3-27 20:5:52.3	WT901BLE68-01(48591DE3C19B)	-0.251	-0.434	0.299	11.841	98.083	-23.438	-73.93	23.13	-100.68	-68.110	-57.820	2.842	0.58438	-0.27170	0.55579	-0.52502	24.7	13111	100
2025-3-27 20:5:52.3	WT901BLE68-01(48591DE3C19B)	-0.281	-0.434	0.299	11.841	98.083	-23.438	-74.19	23.13	-101.87	-68.110	-57.820	2.842	0.58438	-0.27170	0.55579	-0.52502	24.7	13111	100
2025-3-27 20:5:52.3	WT901BLE68-01(48591DE3C19B)	-0.281	-0.436	0.170	-2.747	46.936	-28.931	-74.41	23.03	-102.78	-68.110	-57.820	2.842	0.58438	-0.27170	0.55579	-0.52502	24.7	13111	100
2025-3-27 20:5:52.4	WT901BLE68-01(48591DE3C19B)	-0.352	-0.436	0.170	-2.747	46.936	-28.931	-74.60	22.85	-103.44	-68.110	-57.820	2.842	0.58438	-0.27170	0.55579	-0.52502	24.7	13111	100
2025-3-27 20:5:52.4	WT901BLE68-01(48591DE3C19B)	-0.352	-0.436	0.150	-3.601	10.376	-31.616	-74.72	22.60	-103.91	-68.110	-57.820	2.842	0.58438	-0.27170	0.55579	-0.52502	24.7	13111	100
2025-3-27 20:5:52.4	WT901BLE68-01(48591DE3C19B)	-0.396	-0.436	0.150	-3.601	10.376	-31.616	-74.77	22.30	-104.19	-68.110	-57.820	2.842	0.58438	-0.27170	0.55579	-0.52502	24.7	13111	100
2025-3-27 20:5:52.91	WT901BLE68-01(48591DE3C19B)	-0.396	-0.418	0.146	1.648	3.296	-35.034	-74.79	21.98	-104.45	-68.110	-57.820	2.842	0.58438	-0.27170	0.55579	-0.52502	24.7	13111	100
2025-3-27 20:5:52.91	WT901BLE68-01(48591DE3C19B)	-0.399	-0.418	0.146	1.648	3.296	-35.034	-74.76	21.65	-104.68	-68.110	-57.820	2.842	0.58438	-0.27170	0.55579	-0.52502	24.7	13111	100
2025-3-27 20:5:52.91	WT901BLE68-01(48591DE3C19B)	-0.399	-0.364	0.150	15.259	26.978	-47.119	-74.72	21.30	-105.06	-68.110	-57.820	2.842	0.56415	-0.24622	0.56268	-0.55173	24.7	13111	100
2025-3-27 20:5:52.91	WT901BLE68-01(48591DE3C19B)	-0.381	-0.364	0.150	15.259	26.978	-47.119	-74.66	20.93	-105.58	-68.110	-57.820	2.842	0.56415	-0.24622	0.56268	-0.55173	24.7	13111	100
2025-3-27 20:5:52.92	WT901BLE68-01(48591DE3C19B)	-0.381	-0.201	0.125	26.062	55.115	-50.720	-74.59	20.61	-106.41	-68.110	-57.820	2.842	0.56415	-0.24622	0.56268	-0.55173	24.7	13111	100
2025-3-27 20:5:52.92	WT901BLE68-01(48591DE3C19B)	-0.472	-0.201	0.125	26.062	55.115	-50.720	-74.51	20.30	-107.26	-68.110	-57.820	2.842	0.56415	-0.24622	0.56268	-0.55173	24.7	13111	100
2025-3-27 20:5:52.92	WT901BLE68-01(48591DE3C19B)	-0.472	-0.084	0.135	31.250	63.965	-38.940	-74.40	20.15	-108.18	-68.110	-57.820	2.842	0.56415	-0.24622	0.56268	-0.55173	24.7	13111	100
2025-3-27 20:5:52.93	WT901BLE68-01(48591DE3C19B)	-0.548	-0.084	0.135	31.250	63.965	-38.940	-74.27	20.01	-109.13	-68.110	-57.820	2.842	0.56415	-0.24622	0.56268	-0.55173	24.7	13111	100
2025-3-27 20:5:52.121	WT901BLE68-01(48591DE3C19B)	-0.548	-0.062	0.232	28.198	40.710	-21.179	-74.05	19.98	-109.82	-68.110	-57.820	2.842	0.56415	-0.24622	0.56268	-0.55173	24.7	13111	100
2025-3-27 20:5:52.121	WT901BLE68-01(48591DE3C19B)	-0.566	-0.062	0.232	28.198	40.710	-21.179	-73.81	19.97	-110.55	-68.110	-57.820	2.842	0.56415	-0.24622	0.56268	-0.55173	24.7	13111	100
2025-3-27 20:5:52.121	WT901BLE68-01(48591DE3C19B)	-0.566	-0.212	0.322	17.456	-7.019	-7.935	-73.49	19.96	-110.78	-68.110	-57.820	2.842	0.56415	-0.24622	0.56268	-0.55173	24.7	13111	100
2025-3-27 20:5:52.121	WT901BLE68-01(48591DE3C19B)	-0.469	-0.212	0.322	17.456	-7.019	-7.935	-73.15	19.95	-111.03	-68.110	-57.820	2.842	0.56415	-0.24622	0.56268	-0.55173	24.7	13111	100
2025-3-27 20:5:52.181	WT901BLE68-01(48591DE3C19B)	-0.469	-0.510	0.279	2.319	-59.692	-1.038	-72.77	19.85	-110.73	-68.110	-57.820	2.842	0.56415	-0.24622	0.56268	-0.55173	24.7	13111	100
2025-3-27 20:5:52.181	WT901BLE68-01(48591DE3C19B)	-0.388	-0.510	0.279	2.319	-59.692	-1.038	-72.41	19.74	-110.42	-68.110	-57.820	2.842	0.56415	-0.24622	0.56268	-0.55173	24.7	13111	100
2025-3-27 20:5:52.182	WT901BLE68-01(48591DE3C19B)	-0.388	-0.999	0.179	-22.278	-88.074	-8.118	-72.22	19.48	-109.83	-68.110	-57.820	2.842	0.56415	-0.24622	0.56268	-0.55173	24.7	13111	100
2025-3-27 20:5:52.182	WT901BLE68-01(48591DE3C19B)	-0.409	-0.999	0.179	-22.278	-88.074	-8.118	-72.07	19.22	-109.22	-68.110	-57.820	2.842	0.56415	-0.24622	0.56268	-0.55173	24.7	13111	100
2025-3-27 20:5:52.210	WT901BLE68-01(48591DE3C19B)	-0.409	-1.905	0.076	-55.603	-85.083	-16.541	-72.32	18.88	-108.59	-66.150	-67.326	-2.058	0.56415	-0.24622	0.56268	-0.55173	24.7	13111	100
2025-3-27 20:5:52.210	WT901BLE68-01(48591DE3C19B)	-0.813	-1.905	0.076	-55.603	-85.083	-16.541	-72.61	18.53	-107.91	-66.150	-67.326	-2.058	0.56415	-0.24622	0.56268	-0.55173	24.7	13111	100
2025-3-27 20:5:52.210	WT901BLE68-01(48591DE3C19B)	-1.625	-5.855	0.030	-28.687	-47.607	-11.963	-72.80	18.30	-107.51	-66.150	-67.326	-2.058	0.56415	-0.24622	0.56268	-0.55173	24.7	13111	100
2025-3-27 20:5:52.210	WT901BLE68-01(48591DE3C19B)	-0.483	-11.710	0.060	-28.687	-47.607	-11.963	-73.01	18.03	-107.03	-66.150	-67.326	-2.058	0.56415	-0.24622	0.56268	-0.55173	24.7	13111	100
2025-3-27 20:5:52.240	WT901BLE68-01(48591DE3C19B)	-0.483	-2.286	0.170	55.847	-12.329	-2.686	-72.49	17.95	-106.88	-66.150	-67.326	-2.058	0.56415	-0.24622	0.56268	-0.55173	24.7	13111	100
2025-3-27 20:5:52.241	WT901BLE68-01(48591DE3C19B)	-0.325	-2.286	0.170	55.847	-12.329	-2.686	-71.98	17.85	-106.72	-66.150	-67.326	-2.058	0.56415	-0.24622	0.56268	-0.55173	24.7	13111	100
2025-3-27 20:5:52.241	WT901BLE68-01(48591DE3C19B)	-0.325	-1.647	0.229	29.175	12.512	6.653	-71.79	17.93	-106.79	-66.150	-67.326	-2.058	0.56415	-0.24622	0.56268	-0.55173	24.7	13111	100
2025-3-27 20:5:52.241	WT901BLE68-01(48591DE3C19B)	-0.143	-1.647	0.229	29.175	12.512	6.653	-71.61	18.00	-106.85	-66.150	-67.326	-2.058	0.56415	-0.24622	0.56268	-0.55173	24.7	13111	100
2025-3-27 20:5:52.301	WT901BLE68-01(48591DE3C19B)	-0.143	-1.424	0.333	24.475	45.044	23.438	-71.56	18.33	-107.19	-66.150	-67.326	-2.058	0.56415	-0.24622	0.56268	-0.55173	24.7	13111	100
2025-3-27 20:5:52.302	WT901BLE68-01(48591DE3C19B)	-0.092	-1.424	0.333	24.475	45.044	23.438	-71.50	18.65	-107.53	-66.150	-67.326	-2.058	0.56415	-0.24622	0.56268	-0.55173	24.7	13111	100
2025-3-27 20:5:52.302	WT901BLE68-01(48591DE3C19B)	-0.092	-1.001	0.370	17.212	63.049	38.696	-71.56	19.18	-108.01	-66.150	-67.326	-2.058	0.56415	-0.24622	0.56268	-0.55173	24.7	13111	100
2025-3-27 20:5:52.302	WT901BLE68-01(48591DE3C19B)	-0.128	-1.001	0.370	17.212	63.049	38.696	-71.63	19.70	-108.48	-66.150	-67.326	-2.058	0.56415	-0.24622	0.56268	-0.55173	24.7	13111	100
2025-3-27 20:5:52.330	WT901BLE68-01(48591DE3C19B)	-0.128	-0.704	0.351	-7.935	50.964	33.875	-71.89	20.13	-108.86	-66.150	-67.326	-2.058	0.56415	-0.24622	0.56268	-0.55173	24.7	13111	100
2025-3-27 20:5:52.330	WT901BLE68-01(48591DE3C19B)	-0.166	-0.704	0.351	-7.935	50.964	33.875	-72.17	20.55	-109.25	-66.150	-67.326	-2.058	0.56415	-0.24622	0.56268	-0.55173	24.7	13111	100
2025-3-27 20:5:52.330	WT901BLE68-01(48591DE3C19B)	-0.166	-0.633	0.311	-18.372	29.663	24.780	-72.48	20.82	-109.45	-66.150	-67.326	-2.058	0.56415	-0.24622	0.56268	-0.55173	24.7	13111	100
2025-3-27 20:5:52.330	WT901BLE68-01(48591DE3C19B)	-0.226	-0.633	0.311	-18.372	29.663	24.780	-72.78	21.09	-109.67	-66.150	-67.326	-2.058	0.56415	-0.24622	0.56268	-0.55173	24.7	13111	100
2025-3-27 20:5:52.362	WT901BLE68-01(48591DE3C19B)	-0.226	-0.583	0.244	-14.160	23.071	17.212	-73.02	21.27	-109.84	-66.150	-67.326	-2.058	0.56415	-0.24622	0.56268	-0.55173	24.7	13111	100
2025-3-27 20:5:52.362	WT901BLE68-01(48591DE3C19B)	-0.354	-0.583	0.244	-14.160	23.071	17.212	-73.26	21.45	-110.02	-66.150	-67.326	-2.058	0.56415	-0.24622	0.56268	-0.55173	24.7	13111	100
2025-3-27 20:5:52.362	WT901BLE68-01(48591DE3C19B)	-0.354	-0.463	0.189	-1.526	18.494	9.583	-73.36	21.54	-110.18	-66.150	-67.326	-2.058	0.56415	-0.24622	0.56268	-0.55173	24.7	13111	100
2025-3-27 20:5:52.363	WT901BLE68-01(48591DE3C19B)	-0.351	-0.463	0.189	-1.526	18.494	9.583	-73.45	21.64	-110.35	-66.150	-67.326	-2.058	0.56415	-0.24622	0.56268	-0.55173	24.7	13111	100
2025-3-27 20:5:52.421	WT901BLE68-01(48591DE3C19B)	-0.351	-0.326	0.169	4.761	2.930	10.376	-73.43	21.71	-110.37	-66.150	-67.326	-2.058	0.56415	-0.24622	0.56268	-0.55173	24.7	13111	100
2025-3-27 20:5:52.421	WT901BLE68-01(48591DE3C19B)	-0.266	-0.326	0.169	4.761	2.930	10.376	-73.40	21.79	-110.39	-66.150	-67.326	-2.058	0.54269	-0.20990	0.56821	-0.58176	24.7	13111	100
2025-3-27 20:5:52.421	WT901BLE68-01(48591DE3C19B)	-0.266	-0.342	0.181	10.132	-4.761	20.020	-73.27	21.95	-110.31	-66.150	-67.326	-2.058	0.54269	-0.20990	0.56821	-0.58176	24.7	13111	100
2025-3-27 20:5:52.421	WT901BLE68-01(48591DE3C19B)	-0.224	-0.342	0.181	10.132	-4.761	20.020	-73.14	22.10	-110.24	-66.150	-67.326	-2.058	0.54269	-0.20990	0.56821	-0.58176	24.7	13111	100
2025-3-27 20:5:52.457	WT901BLE68-01(48591DE3C19B)	-0.224	-0.401	0.157	22.827	-7.568	25.024	-72.87	22.31	-110.13	-66.150	-67.326	-2.058	0.54269	-0.20990	0.56821	-0.58176	24.7	13111	100
2025-3-27 20:5:52.458	WT901BLE68-01(48591DE3C19B)	-0.218	-0.401	0.157	22.827	-7.568	25.024	-72.59	22.51	-110.02	-66.150	-67.326	-2.058	0.54269	-0.20990	0.56821	-0.58176	24.7	13111	100
2025-3-27 20:5:52.458	WT901BLE68-01(48591DE3C19B)	-0.218	-0.349	0.136	34.912	-11.292	33.875	-72.17	22.78	-109.85	-66.150	-67.326	-2.058	0.54269	-0.20990	0.56821	-0.58176	24.7	13111	100
2025-3-27 20:5:52.458	WT901BLE68-01(48591DE3C19B)	-0.262	-0.349	0.136	34.912	-11.292	33.875	-71.74	23.05	-109.68	-66.150	-67.326	-2.058	0.54269	-0.20990	0.56821	-0.58176	24.7	13111	100
2025-3-27 20:5:52.481	WT901BLE68-01(48591DE3C19B)	-0.262	-0.276	0.110	33.875	-20.996	48.889	-71.26	23.44	-109.36	-66.150	-67.326	-2.058	0.54269	-0.20990	0.56821	-0.58176	24.7	13111	100
2025-3-27 20:5:52.481	WT901BLE68-01(48591DE3C19B)	-0.279	-0.276	0.110	33.875	-20.996	48.889	-70.78	23.83	-109.05	-66.150	-67.326	-2.058	0.54269	-0.20990	0.56821	-0.58176	24.7	13111	100
2025-3-27 20:5:52.481	WT901BLE68-01(48591DE3C19B)	-0.279	-0.362	0.079	24.414	-35.950	57.861	-70.32	24.26	-108.55	-66.150	-67.326	-2.058	0.54269	-0.20990	0.56821	-0.58176	24.7	13111	100
2025-3-27 20:5:52.481	WT901BLE68-01(48591DE3C19B)	-0.318	-0.362	0.079	24.414	-35.950	57.861	-69.86	24.68	-108.05	-66.150	-67.326	-2.058	0.54269	-0.20990	0.56821	-0.58176	24.7	13111	100
2025-3-27 20:5:52.543	WT901BLE68-01(48591DE3C19B)	-0.482	-0.642	0.124	22.095	-39.063	56.152	-69.41	25.08	-107.51	-66.150	-67.326	-2.058	0.54269	-0.20990	0.56821	-0.58176	24.7	13111	100
2025-3-27 20:5:52.543	WT901BLE68-01(48591DE3C19B)	-0.482	-1.082	0.307	22.095	-33.752	33.997	-68.98	25.37	-107.05	-66.150	-67.326	-2.058	0.54269	-0.20990	0.56821	-0.58176	24.7	13111	100
2025-3-27 20:5:52.543	WT901BLE68-01(48591DE3C19B)	-0.638	-1.082	0.307	22.095	-33.752	33.997	-68.59	25.57	-106.65	-66.150	-67.326	-2.058	0.54269	-0.20990	0.56821	-0.58176	24.7	13111	100
2025-3-27 20:5:52.543	WT901BLE68-01(48591DE3C19B)	-0.638	-1.545	0.488	21.912	-23.010	-6.653	-68.25	25.58	-106.39	-66.150	-67.326	-2.058	0.54269	-0.20990	0.56821	-0.58176	24.7	13111	100
2025-3-27 20:5:52.573	WT901BLE68-01(48591DE3C19B)	-0.711	-1.545	0.488	21.912	-23.010	-6.653	-67.98	25.43	-106.26	-66.150	-67.326	-2.058	0.54269	-0.20990	0.56821	-0.58176	24.7	13111	100
2025-3-27 20:5:52.573	WT901BLE68-01(48591DE3C19B)	-0.711	-1.686	0.644	19.775	1.099	-41.809	-67.81	25.16	-106.34	-66.150	-67.326	-2.058	0.54269	-0.20990	0.56821	-0.58176	24.7	13111	100
2025-3-27 20:5:52.573	WT901BLE68-01(48591DE3C19B)	-1.073	-1.686	0.644	19.775	1.099	-41.809	-67.72	24.77	-106.61	-66.150	-67.326	-2.058	0.54269	-0.20990	0.56821	-0.58176	24.7	13111	100
2025-3-27 20:5:52.574	WT901BLE68-01(48591DE3C19B)	-1.073	-1.818	0.789	11.169	43.274	-51.819	-67.76	24.41	-107.12	-74.284	-71.932	-4.606	0.54269	-0.20990	0.56821	-0.58176	24.7	13111	100
2025-3-27 20:5:52.602	WT901BLE68-01(48591DE3C19B)	-1.085	-1.818	0.789	11.169	43.274	-51.819	-67.94	24.10	-107.87	-74.284	-71.932	-4.606	0.54269	-0.20990	0.56821	-0.58176	24.7	13111	100
2025-3-27 20:5:52.602	WT901BLE68-01(48591DE3C19B)	-1.085	-1.573	0.836	8.057	70.801	-46.631	-68.18	23.86	-108.76	-74.284	-71.932	-4.606	0.54269	-0.20990	0.56821	-0.58176	24.7	13111	100
2025-3-27 20:5:52.603	WT901BLE68-01(48591DE3C19B)	-0.721	-1.573	0.836	8.057	70.801	-46.631	-68.46	23.70	-109.79	-74.284	-71.932	-4.606	0.54269	-0.20990	0.56821	-0.58176	24.7	13111	100
2025-3-27 20:5:52.603	WT901BLE68-01(48591DE3C19B)	-0.721	-1.209	0.813	1.282	68.237	-23.560	-68.75	23.65	-110.76	-74.284	-71.932	-4.606	0.54269	-0.20990	0.56821	-0.58176	24.7	13111	100
2025-3-27 20:5:52.660	WT901BLE68-01(48591DE3C19B)	-0.463	-1.209	0.813	1.282	68.237	-23.560	-69.03	23.69	-111.67	-74.284	-71.932	-4.606	0.54269	-0.20990	0.56821	-0.58176	24.7	13111	100
2025-3-27 20:5:52.660	WT901BLE68-01(48591DE3C19B)	-0.463	-0.841	0.742	-8.850	31.250	9.094	-69.26	23.81	-112.34	-74.284	-71.932	-4.606	0.54269	-0.20990	0.56821	-0.58176	24.7	13111	100
2025-3-27 20:5:52.660	WT901BLE68-01(48591DE3C19B)	-0.352	-0.841	0.742	-8.850	31.250	9.094	-69.43	24.01	-112.75	-74.284	-71.932	-4.606	0.54269	-0.20990	0.56821	-0.58176	24.7	13111	100
2025-3-27 20:5:52.660	WT901BLE68-01(48591DE3C19B)	-0.352	-0.584	0.660	-36.072	-36.316	38.391	-69.57	24.23	-112.77	-74.284	-71.932	-4.606	0.54269	-0.20990	0.56821	-0.58176	24.7	13111	100
2025-3-27 20:5:52.690	WT901BLE68-01(48591DE3C19B)	-0.208	-0.584	0.660	-36.072	-36.316	38.391	-69.66	24.46	-112.40	-74.284	-71.932	-4.606	0.54269	-0.20990	0.56821	-0.58176	24.7	13111	100
2025-3-27 20:5:52.690	WT901BLE68-01(48591DE3C19B)	-0.208	-0.541	0.474	-54.932	-69.641	54.077	-69.76	24.70	-111.82	-74.284	-71.932	-4.606	0.54269	-0.20990	0.56821	-0.58176	24.7	13111	100
2025-3-27 20:5:52.690	WT901BLE68-01(48591DE3C19B)	-0.095	-0.541	0.474	-54.932	-69.641	54.077	-69.86	24.96	-111.04	-74.284	-71.932	-4.606	0.54269	-0.20990	0.56821	-0.58176	24.7	13111	100
2025-3-27 20:5:52.690	WT901BLE68-01(48591DE3C19B)	-0.095	-0.511	0.248	-47.974	-44.189	62.744	-69.97	25.30	-110.37	-74.284	-71.932	-4.606	0.54269	-0.20990	0.56821	-0.58176	24.7	13111	100
2025-3-27 20:5:52.721	WT901BLE68-01(48591DE3C19B)	-0.179	-0.511	0.248	-47.974	-44.189	62.744	-70.08	25.71	-109.81	-74.284	-71.932	-4.606	0.54269	-0.20990	0.56821	-0.58176	24.7	13111	100
2025-3-27 20:5:52.721	WT901BLE68-01(48591DE3C19B)	-0.179	-0.449	0.146	-29.785	16.541	48.096	-70.26	26.16	-109.60	-74.284	-71.932	-4.606	0.54269	-0.20990	0.56821	-0.58176	24.7	13111	100
2025-3-27 20:5:52.721	WT901BLE68-01(48591DE3C19B)	-0.271	-0.449	0.146	-29.785	16.541	48.096	-70.50	26.64	-109.72	-74.284	-71.932	-4.606	0.54269	-0.20990	0.56821	-0.58176	24.7	13111	100
2025-3-27 20:5:52.721	WT901BLE68-01(48591DE3C19B)	-0.271	-0.390	0.170	-15.503	58.105	26.855	-70.78	27.08	-110.10	-74.284	-71.932	-4.606	0.54269	-0.20990	0.56821	-0.58176	24.7	13111	100
2025-3-27 20:5:52.781	WT901BLE68-01(48591DE3C19B)	-0.447	-0.390	0.170	-15.503	58.105	26.855	-71.13	27.49	-110.75	-74.284	-71.932	-4.606	0.54269	-0.20990	0.56821	-0.58176	24.7	13111	100
2025-3-27 20:5:52.781	WT901BLE68-01(48591DE3C19B)	-0.447	-0.380	0.212	-11.841	64.758	12.146	-71.48	27.84	-111.46	-74.284	-71.932	-4.606	0.54269	-0.20990	0.56821	-0.58176	24.7	13111	100
2025-3-27 20:5:52.781	WT901BLE68-01(48591DE3C19B)	-0.587	-0.380	0.212	-11.841	64.758	12.146	-71.84	28.14	-112.24	-74.284	-71.932	-4.606	0.54269	-0.20990	0.56821	-0.58176	24.7	13111	100
2025-3-27 20:5:52.781	WT901BLE68-01(48591DE3C19B)	-0.587	-0.377	0.245	-7.690	39.856	3.357	-72.13	28.36	-112.92	-74.284	-71.932	-4.606	0.54269	-0.20990	0.56821	-0.58176	24.7	13111	100
2025-3-27 20:5:52.841	WT901BLE68-01(48591DE3C19B)	-0.542	-0.377	0.245	-7.690	39.856	3.357	-72.34	28.50	-113.48	-74.284	-71.932	-4.606	0.55057	-0.14749	0.58728	-0.57455	24.7	13111	100
2025-3-27 20:5:52.841	WT901BLE68-01(48591DE3C19B)	-0.542	-0.294	0.250	-5.188	-3.601	4.211	-72.42	28.60	-113.82	-74.284	-71.932	-4.606	0.55057	-0.14749	0.58728	-0.57455	24.7	13111	100
2025-3-27 20:5:52.841	WT901BLE68-01(48591DE3C19B)	-0.423	-0.294	0.250	-5.188	-3.601	4.211	-72.36	28.64	-113.94	-74.284	-71.932	-4.606	0.55057	-0.14749	0.58728	-0.57455	24.7	13111	100
2025-3-27 20:5:52.841	WT901BLE68-01(48591DE3C19B)	-0.423	-0.179	0.224	-8.484	-41.016	12.878	-72.22	28.67	-113.85	-74.284	-71.932	-4.606	0.55057	-0.14749	0.58728	-0.57455	24.7	13111	100
2025-3-27 20:5:52.843	WT901BLE68-01(48591DE3C19B)	-0.339	-0.179	0.224	-8.484	-41.016	12.878	-71.98	28.70	-113.55	-74.284	-71.932	-4.606	0.55057	-0.14749	0.58728	-0.57455	24.7	13111	100
2025-3-27 20:5:52.843	WT901BLE68-01(48591DE3C19B)	-0.339	-0.125	0.182	-16.174	-72.815	26.184	-71.67	28.73	-113.07	-74.284	-71.932	-4.606	0.55057	-0.14749	0.58728	-0.57455	24.7	13111	100
2025-3-27 20:5:52.843	WT901BLE68-01(48591DE3C19B)	-0.303	-0.125	0.182	-16.174	-72.815	26.184	-71.31	28.78	-112.40	-74.284	-71.932	-4.606	0.55057	-0.14749	0.58728	-0.57455	24.7	13111	100
2025-3-27 20:5:52.843	WT901BLE68-01(48591DE3C19B)	-0.303	-0.256	0.179	-30.029	-106.567	37.781	-70.91	28.83	-111.53	-74.284	-71.932	-4.606	0.55057	-0.14749	0.58728	-0.57455	24.7	13111	100
2025-3-27 20:5:52.901	WT901BLE68-01(48591DE3C19B)	-0.251	-0.256	0.179	-30.029	-106.567	37.781	-70.48	28.88	-110.47	-74.284	-71.932	-4.606	0.55057	-0.14749	0.58728	-0.57455	24.7	13111	100
2025-3-27 20:5:52.901	WT901BLE68-01(48591DE3C19B)	-0.251	-0.601	0.148	-45.959	-132.568	35.461	-70.07	28.86	-109.26	-74.284	-71.932	-4.606	0.55057	-0.14749	0.58728	-0.57455	24.7	13111	100
2025-3-27 20:5:52.901	WT901BLE68-01(48591DE3C19B)	-0.237	-0.601	0.148	-45.959	-132.568	35.461	-69.70	28.78	-107.91	-74.284	-71.932	-4.606	0.55057	-0.14749	0.58728	-0.57455	24.7	13111	100
2025-3-27 20:5:52.901	WT901BLE68-01(48591DE3C19B)	-0.237	-1.082	0.205	-55.603	-136.108	16.174	-69.41	28.58	-106.56	-74.284	-71.932	-4.606	0.55057	-0.14749	0.58728	-0.57455	24.7	13111	100
2025-3-27 20:5:52.930	WT901BLE68-01(48591DE3C19B)	-0.331	-1.082	0.205	-55.603	-136.108	16.174	-69.21	28.27	-105.21	-74.284	-71.932	-4.606	0.55057	-0.14749	0.58728	-0.57455	24.7	13111	100
2025-3-27 20:5:52.930	WT901BLE68-01(48591DE3C19B)	-0.331	-1.881	0.230	-73.242	-117.432	-16.602	-69.21	27.82	-104.01	-74.284	-71.932	-4.606	0.55057	-0.14749	0.58728	-0.57455	24.7	13111	100
2025-3-27 20:5:52.930	WT901BLE68-01(48591DE3C19B)	-0.383	-1.881	0.230	-73.242	-117.432	-16.602	-69.42	27.24	-102.94	-74.284	-71.932	-4.606	0.55057	-0.14749	0.58728	-0.57455	24.7	13111	100
2025-3-27 20:5:52.930	WT901BLE68-01(48591DE3C19B)	-0.383	-3.104	0.182	-65.674	-76.294	-41.077	-69.74	26.60	-102.11	-74.284	-71.932	-4.606	0.55057	-0.14749	0.58728	-0.57455	24.7	13111	100
2025-3-27 20:5:52.962	WT901BLE68-01(48591DE3C19B)	-0.637	-3.104	0.182	-65.674	-76.294	-41.077	-70.16	25.91	-101.53	-74.284	-71.932	-4.606	0.55057	-0.14749	0.58728	-0.57455	24.7	13111	100
2025-3-27 20:5:52.962	WT901BLE68-01(48591DE3C19B)	-0.637	-2.718	0.291	53.589	-14.038	-50.903	-70.15	25.26	-101.28	-74.284	-71.932	-4.606	0.55057	-0.14749	0.58728	-0.57455	24.7	13111	100
2025-3-27 20:5:52.962	WT901BLE68-01(48591DE3C19B)	-0.637	-2.718	0.291	53.589	-14.038	-50.903	-69.71	24.69	-101.37	-74.284	-71.932	-4.606	0.55057	-0.14749	0.58728	-0.57455	24.7	13111	100
2025-3-27 20:5:52.963	WT901BLE68-01(48591DE3C19B)	-0.637	-1.944	0.343	56.946	37.354	-54.749	-69.46	24.25	-102.00	-74.284	-71.932	-4.606	0.55057	-0.14749	0.58728	-0.57455	24.7	13111	100
2025-3-27 20:5:53.21	WT901BLE68-01(48591DE3C19B)	-0.351	-1.944	0.343	56.946	37.354	-54.749	-69.20	23.82	-102.63	-74.284	-71.932	-4.606	0.55057	-0.14749	0.58728	-0.57455	24.7	13111	100
2025-3-27 20:5:53.21	WT901BLE68-01(48591DE3C19B)	-0.351	-1.505	0.364	80.627	93.323	-37.781	-68.91	23.76	-103.76	-88.004	-64.092	-10.976	0.55057	-0.14749	0.58728	-0.57455	24.7	13111	100
2025-3-27 20:5:53.21	WT901BLE68-01(48591DE3C19B)	-0.207	-1.505	0.364	80.627	93.323	-37.781	-68.62	23.70	-104.89	-88.004	-64.092	-10.976	0.55057	-0.14749	0.58728	-0.57455	24.7	13111	100
2025-3-27 20:5:53.21	WT901BLE68-01(48591DE3C19B)	-0.207	-0.795	0.381	81.177	140.869	-11.597	-68.48	24.05	-106.39	-88.004	-64.092	-10.976	0.55057	-0.14749	0.58728	-0.57455	24.7	13111	100
2025-3-27 20:5:53.56	WT901BLE68-01(48591DE3C19B)	-0.254	-0.795	0.381	81.177	140.869	-11.597	-68.33	24.41	-107.89	-88.004	-64.092	-10.976	0.55057	-0.14749	0.58728	-0.57455	24.7	13111	100
2025-3-27 20:5:53.56	WT901BLE68-01(48591DE3C19B)	-0.254	-0.328	0.371	31.311	116.272	1.160	-68.57	24.79	-109.09	-88.004	-64.092	-10.976	0.55057	-0.14749	0.58728	-0.57455	24.7	13111	100
2025-3-27 20:5:53.56	WT901BLE68-01(48591DE3C19B)	-0.181	-0.328	0.371	31.311	116.272	1.160	-68.81	25.17	-110.31	-88.004	-64.092	-10.976	0.55057	-0.14749	0.58728	-0.57455	24.7	13111	100
2025-3-27 20:5:53.56	WT901BLE68-01(48591DE3C19B)	-0.181	-0.321	0.304	-10.010	52.673	-7.446	-69.19	25.24	-110.91	-88.004	-64.092	-10.976	0.55057	-0.14749	0.58728	-0.57455	24.7	13111	100
2025-3-27 20:5:53.81	WT901BLE68-01(48591DE3C19B)	-0.098	-0.321	0.304	-10.010	52.673	-7.446	-69.56	25.31	-111.51	-88.004	-64.092	-10.976	0.55057	-0.14749	0.58728	-0.57455	24.7	13111	100
2025-3-27 20:5:53.81	WT901BLE68-01(48591DE3C19B)	-0.098	-0.359	0.247	-16.663	39.307	-9.277	-69.94	25.30	-111.98	-88.004	-64.092	-10.976	0.55057	-0.14749	0.58728	-0.57455	24.7	13111	100
2025-3-27 20:5:53.81	WT901BLE68-01(48591DE3C19B)	-0.237	-0.359	0.247	-16.663	39.307	-9.277	-70.31	25.30	-112.46	-88.004	-64.092	-10.976	0.55057	-0.14749	0.58728	-0.57455	24.7	13111	100
2025-3-27 20:5:53.81	WT901BLE68-01(48591DE3C19B)	-0.237	-0.242	0.235	-9.521	50.659	-5.310	-70.64	25.37	-113.04	-88.004	-64.092	-10.976	0.55057	-0.14749	0.58728	-0.57455	24.7	13111	100
2025-3-27 20:5:53.141	WT901BLE68-01(48591DE3C19B)	-0.423	-0.242	0.235	-9.521	50.659	-5.310	-70.98	25.44	-113.64	-88.004	-64.092	-10.976	0.55057	-0.14749	0.58728	-0.57455	24.7	13111	100
2025-3-27 20:5:53.141	WT901BLE68-01(48591DE3C19B)	-0.423	-0.160	0.261	-6.958	47.791	-10.437	-71.26	25.46	-114.22	-88.004	-64.092	-10.976	0.55057	-0.14749	0.58728	-0.57455	24.7	13111	100
2025-3-27 20:5:53.141	WT901BLE68-01(48591DE3C19B)	-0.495	-0.160	0.261	-6.958	47.791	-10.437	-71.54	25.49	-114.83	-88.004	-64.092	-10.976	0.55057	-0.14749	0.58728	-0.57455	24.7	13111	100
2025-3-27 20:5:53.141	WT901BLE68-01(48591DE3C19B)	-0.495	-0.144	0.279	-5.676	34.607	-12.573	-71.74	25.47	-115.32	-88.004	-64.092	-10.976	0.55057	-0.14749	0.58728	-0.57455	24.7	13111	100
2025-3-27 20:5:53.173	WT901BLE68-01(48591DE3C19B)	-0.545	-0.144	0.279	-5.676	34.607	-12.573	-71.93	25.47	-115.83	-88.004	-64.092	-10.976	0.55057	-0.14749	0.58728	-0.57455	24.7	13111	100
2025-3-27 20:5:53.173	WT901BLE68-01(48591DE3C19B)	-0.545	-0.217	0.270	3.540	18.860	-10.559	-71.93	25.44	-116.18	-88.004	-64.092	-10.976	0.55057	-0.14749	0.58728	-0.57455	24.7	13111	100
2025-3-27 20:5:53.173	WT901BLE68-01(48591DE3C19B)	-0.641	-0.217	0.270	3.540	18.860	-10.559	-71.93	25.43	-116.55	-88.004	-64.092	-10.976	0.55057	-0.14749	0.58728	-0.57455	24.7	13111	100
2025-3-27 20:5:53.174	WT901BLE68-01(48591DE3C19B)	-0.641	-0.322	0.259	16.296	-13.550	-3.479	-71.64	25.40	-116.58	-88.004	-64.092	-10.976	0.55057	-0.14749	0.58728	-0.57455	24.7	13111	100
2025-3-27 20:5:53.202	WT901BLE68-01(48591DE3C19B)	-0.654	-0.322	0.259	16.296	-13.550	-3.479	-71.33	25.38	-116.61	-88.004	-64.092	-10.976	0.55057	-0.14749	0.58728	-0.57455	24.7	13111	100
2025-3-27 20:5:53.203	WT901BLE68-01(48591DE3C19B)	-0.654	-0.380	0.225	25.452	-60.181	7.935	-70.71	25.32	-116.14	-88.004	-64.092	-10.976	0.55057	-0.14749	0.58728	-0.57455	24.7	13111	100
2025-3-27 20:5:53.203	WT901BLE68-01(48591DE3C19B)	-0.571	-0.380	0.225	25.452	-60.181	7.935	-70.09	25.27	-115.69	-88.004	-64.092	-10.976	0.53149	-0.14658	0.56967	-0.60944	24.7	13111	100
2025-3-27 20:5:53.203	WT901BLE68-01(48591DE3C19B)	-0.286	-0.443	0.167	25.452	-103.210	17.822	-69.27	25.16	-114.76	-88.004	-64.092	-10.976	0.53149	-0.14658	0.56967	-0.60944	24.7	13111	100
2025-3-27 20:5:53.260	WT901BLE68-01(48591DE3C19B)	-0.402	-0.221	0.083	25.452	-103.210	17.822	-68.45	25.04	-113.84	-88.004	-64.092	-10.976	0.53149	-0.14658	0.56967	-0.60944	24.7	13111	100
2025-3-27 20:5:53.260	WT901BLE68-01(48591DE3C19B)	-0.402	-0.605	0.131	19.409	-124.451	21.667	-67.62	24.87	-112.69	-88.004	-64.092	-10.976	0.53149	-0.14658	0.56967	-0.60944	24.7	13111	100
2025-3-27 20:5:53.260	WT901BLE68-01(48591DE3C19B)	-0.254	-0.605	0.131	19.409	-124.451	21.667	-66.81	24.68	-111.54	-88.004	-64.092	-10.976	0.53149	-0.14658	0.56967	-0.60944	24.7	13111	100
2025-3-27 20:5:53.260	WT901BLE68-01(48591DE3C19B)	-0.254	-0.901	0.145	8.789	-118.164	7.690	-66.19	24.36	-110.49	-88.004	-64.092	-10.976	0.53149	-0.14658	0.56967	-0.60944	24.7	13111	100
2025-3-27 20:5:53.290	WT901BLE68-01(48591DE3C19B)	-0.184	-0.901	0.145	8.789	-118.164	7.690	-65.60	24.03	-109.43	-88.004	-64.092	-10.976	0.53149	-0.14658	0.56967	-0.60944	24.7	13111	100
2025-3-27 20:5:53.290	WT901BLE68-01(48591DE3C19B)	-0.184	-1.300	0.196	-8.240	-86.914	-18.738	-65.39	23.55	-108.77	-88.004	-64.092	-10.976	0.53149	-0.14658	0.56967	-0.60944	24.7	13111	100
2025-3-27 20:5:53.290	WT901BLE68-01(48591DE3C19B)	-0.190	-1.300	0.196	-8.240	-86.914	-18.738	-65.20	23.05	-108.08	-88.004	-64.092	-10.976	0.53149	-0.14658	0.56967	-0.60944	24.7	13111	100
2025-3-27 20:5:53.290	WT901BLE68-01(48591DE3C19B)	-0.190	-1.730	0.360	-8.362	-29.907	-46.875	-65.31	22.52	-108.07	-88.004	-64.092	-10.976	0.53149	-0.14658	0.56967	-0.60944	24.7	13111	100
2025-3-27 20:5:53.321	WT901BLE68-01(48591DE3C19B)	-0.433	-1.730	0.360	-8.362	-29.907	-46.875	-65.42	21.97	-108.04	-88.004	-64.092	-10.976	0.53149	-0.14658	0.56967	-0.60944	24.7	13111	100
2025-3-27 20:5:53.321	WT901BLE68-01(48591DE3C19B)	-0.433	-2.024	0.644	1.892	34.973	-56.458	-65.68	21.59	-108.67	-88.004	-64.092	-10.976	0.53149	-0.14658	0.56967	-0.60944	24.7	13111	100
2025-3-27 20:5:53.321	WT901BLE68-01(48591DE3C19B)	-0.736	-2.024	0.644	1.892	34.973	-56.458	-65.92	21.20	-109.30	-88.004	-64.092	-10.976	0.53149	-0.14658	0.56967	-0.60944	24.7	13111	100
2025-3-27 20:5:53.321	WT901BLE68-01(48591DE3C19B)	-0.736	-1.979	0.938	12.573	88.928	-72.571	-66.26	20.88	-110.53	-88.004	-64.092	-10.976	0.53149	-0.14658	0.56967	-0.60944	24.7	13111	100
2025-3-27 20:5:53.381	WT901BLE68-01(48591DE3C19B)	-0.829	-1.979	0.938	12.573	88.928	-72.571	-66.59	20.56	-111.75	-88.004	-64.092	-10.976	0.53149	-0.14658	0.56967	-0.60944	24.7	13111	100
2025-3-27 20:5:53.381	WT901BLE68-01(48591DE3C19B)	-0.829	-1.583	1.018	25.391	134.583	-63.171	-66.91	20.49	-113.37	-88.004	-64.092	-10.976	0.53149	-0.14658	0.56967	-0.60944	24.7	13111	100
2025-3-27 20:5:53.381	WT901BLE68-01(48591DE3C19B)	-0.806	-1.583	1.018	25.391	134.583	-63.171	-67.22	20.43	-115.00	-88.004	-64.092	-10.976	0.53149	-0.14658	0.56967	-0.60944	24.7	13111	100
2025-3-27 20:5:53.381	WT901BLE68-01(48591DE3C19B)	-0.806	-1.192	0.900	28.748	155.090	-43.457	-67.53	20.62	-116.76	-88.004	-64.092	-10.976	0.53149	-0.14658	0.56967	-0.60944	24.7	13111	100
2025-3-27 20:5:53.410	WT901BLE68-01(48591DE3C19B)	-0.715	-1.192	0.900	28.748	155.090	-43.457	-67.83	20.81	-118.53	-80.066	-68.894	-12.936	0.53149	-0.14658	0.56967	-0.60944	24.7	13111	100
2025-3-27 20:5:53.410	WT901BLE68-01(48591DE3C19B)	-0.715	-0.867	0.703	15.747	122.864	-24.353	-68.12	21.05	-119.89	-80.066	-68.894	-12.936	0.53149	-0.14658	0.56967	-0.60944	24.7	13111	100
2025-3-27 20:5:53.410	WT901BLE68-01(48591DE3C19B)	-0.508	-0.867	0.703	15.747	122.864	-24.353	-68.41	21.29	-121.28	-80.066	-68.894	-12.936	0.53149	-0.14658	0.56967	-0.60944	24.7	13111	100
2025-3-27 20:5:53.410	WT901BLE68-01(48591DE3C19B)	-0.372	-0.692	0.506	-4.639	54.871	-4.333	-68.62	21.46	-121.90	-80.066	-68.894	-12.936	0.53149	-0.14658	0.56967	-0.60944	24.7	13111	100
2025-3-27 20:5:53.471	WT901BLE68-01(48591DE3C19B)	-0.372	-0.638	0.383	-20.813	-3.113	9.766	-68.80	21.59	-122.22	-80.066	-68.894	-12.936	0.53149	-0.14658	0.56967	-0.60944	24.7	13111	100
2025-3-27 20:5:53.472	WT901BLE68-01(48591DE3C19B)	-0.341	-0.638	0.383	-20.813	-3.113	9.766	-68.94	21.68	-122.22	-80.066	-68.894	-12.936	0.53149	-0.14658	0.56967	-0.60944	24.7	13111	100
2025-3-27 20:5:53.472	WT901BLE68-01(48591DE3C19B)	-0.341	-0.661	0.332	-23.682	-28.137	22.034	-69.03	21.79	-122.07	-80.066	-68.894	-12.936	0.53149	-0.14658	0.56967	-0.60944	24.7	13111	100
2025-3-27 20:5:53.472	WT901BLE68-01(48591DE3C19B)	-0.311	-0.661	0.332	-23.682	-28.137	22.034	-69.09	21.90	-121.78	-80.066	-68.894	-12.936	0.53149	-0.14658	0.56967	-0.60944	24.7	13111	100
2025-3-27 20:5:53.500	WT901BLE68-01(48591DE3C19B)	-0.311	-0.673	0.252	-19.958	-14.709	29.419	-69.14	22.08	-121.54	-80.066	-68.894	-12.936	0.53149	-0.14658	0.56967	-0.60944	24.7	13111	100
2025-3-27 20:5:53.500	WT901BLE68-01(48591DE3C19B)	-0.317	-0.673	0.252	-19.958	-14.709	29.419	-69.20	22.31	-121.35	-80.066	-68.894	-12.936	0.53149	-0.14658	0.56967	-0.60944	24.7	13111	100
2025-3-27 20:5:53.500	WT901BLE68-01(48591DE3C19B)	-0.317	-0.651	0.225	-8.789	22.034	26.672	-69.29	22.59	-121.35	-80.066	-68.894	-12.936	0.53149	-0.14658	0.56967	-0.60944	24.7	13111	100
2025-3-27 20:5:53.500	WT901BLE68-01(48591DE3C19B)	-0.399	-0.651	0.225	-8.789	22.034	26.672	-69.38	22.92	-121.55	-80.066	-68.894	-12.936	0.53149	-0.14658	0.56967	-0.60944	24.7	13111	100
2025-3-27 20:5:53.531	WT901BLE68-01(48591DE3C19B)	-0.399	-0.586	0.242	1.465	47.302	20.508	-69.49	23.27	-121.88	-80.066	-68.894	-12.936	0.53149	-0.14658	0.56967	-0.60944	24.7	13111	100
2025-3-27 20:5:53.531	WT901BLE68-01(48591DE3C19B)	-0.485	-0.586	0.242	1.465	47.302	20.508	-69.60	23.63	-122.35	-80.066	-68.894	-12.936	0.53149	-0.14658	0.56967	-0.60944	24.7	13111	100
2025-3-27 20:5:53.531	WT901BLE68-01(48591DE3C19B)	-0.485	-0.497	0.264	4.944	44.861	13.489	-69.70	23.96	-122.82	-80.066	-68.894	-12.936	0.53149	-0.14658	0.56967	-0.60944	24.7	13111	100
2025-3-27 20:5:53.531	WT901BLE68-01(48591DE3C19B)	-0.478	-0.497	0.264	4.944	44.861	13.489	-69.79	24.26	-123.31	-80.066	-68.894	-12.936	0.53149	-0.14658	0.56967	-0.60944	24.7	13111	100
2025-3-27 20:5:53.591	WT901BLE68-01(48591DE3C19B)	-0.478	-0.412	0.287	3.174	29.663	8.301	-69.85	24.51	-123.72	-80.066	-68.894	-12.936	0.53149	-0.14658	0.56967	-0.60944	24.7	13111	100
2025-3-27 20:5:53.591	WT901BLE68-01(48591DE3C19B)	-0.473	-0.412	0.287	3.174	29.663	8.301	-69.89	24.71	-124.08	-80.066	-68.894	-12.936	0.53149	-0.14658	0.56967	-0.60944	24.7	13111	100
2025-3-27 20:5:53.591	WT901BLE68-01(48591DE3C19B)	-0.473	-0.344	0.295	2.014	19.470	7.263	-69.91	24.89	-124.40	-80.066	-68.894	-12.936	0.53149	-0.14658	0.56967	-0.60944	24.7	13111	100
2025-3-27 20:5:53.591	WT901BLE68-01(48591DE3C19B)	-0.524	-0.344	0.295	2.014	19.470	7.263	-69.92	25.06	-124.67	-80.066	-68.894	-12.936	0.53149	-0.14658	0.56967	-0.60944	24.7	13111	100
2025-3-27 20:5:53.656	WT901BLE68-01(48591DE3C19B)	-0.524	-0.293	0.292	-2.319	2.563	9.155	-69.90	25.21	-124.85	-80.066	-68.894	-12.936	0.48099	-0.09933	0.57840	-0.65125	24.7	13111	100
2025-3-27 20:5:53.656	WT901BLE68-01(48591DE3C19B)	-0.515	-0.293	0.292	-2.319	2.563	9.155	-69.85	25.35	-124.96	-80.066	-68.894	-12.936	0.48099	-0.09933	0.57840	-0.65125	24.7	13111	100
2025-3-27 20:5:53.656	WT901BLE68-01(48591DE3C19B)	-0.515	-0.258	0.273	-11.230	-21.729	11.292	-69.79	25.46	-124.95	-80.066	-68.894	-12.936	0.48099	-0.09933	0.57840	-0.65125	24.7	13111	100
2025-3-27 20:5:53.656	WT901BLE68-01(48591DE3C19B)	-0.471	-0.258	0.273	-11.230	-21.729	11.292	-69.70	25.55	-124.82	-80.066	-68.894	-12.936	0.48099	-0.09933	0.57840	-0.65125	24.7	13111	100
2025-3-27 20:5:53.657	WT901BLE68-01(48591DE3C19B)	-0.471	-0.271	0.252	-20.508	-42.969	13.123	-69.61	25.61	-124.58	-80.066	-68.894	-12.936	0.48099	-0.09933	0.57840	-0.65125	24.7	13111	100
2025-3-27 20:5:53.657	WT901BLE68-01(48591DE3C19B)	-0.441	-0.271	0.252	-20.508	-42.969	13.123	-69.51	25.65	-124.23	-80.066	-68.894	-12.936	0.48099	-0.09933	0.57840	-0.65125	24.7	13111	100
2025-3-27 20:5:53.657	WT901BLE68-01(48591DE3C19B)	-0.441	-0.333	0.238	-28.442	-60.242	14.160	-69.41	25.68	-123.80	-80.066	-68.894	-12.936	0.48099	-0.09933	0.57840	-0.65125	24.7	13111	100
2025-3-27 20:5:53.657	WT901BLE68-01(48591DE3C19B)	-0.433	-0.333	0.238	-28.442	-60.242	14.160	-69.30	25.66	-123.28	-80.066	-68.894	-12.936	0.48099	-0.09933	0.57840	-0.65125	24.7	13111	100
2025-3-27 20:5:53.711	WT901BLE68-01(48591DE3C19B)	-0.433	-0.451	0.266	-32.715	-72.571	13.428	-69.19	25.64	-122.70	-80.066	-68.894	-12.936	0.48099	-0.09933	0.57840	-0.65125	24.7	13111	100
2025-3-27 20:5:53.711	WT901BLE68-01(48591DE3C19B)	-0.455	-0.451	0.266	-32.715	-72.571	13.428	-69.08	25.58	-122.06	-80.066	-68.894	-12.936	0.48099	-0.09933	0.57840	-0.65125	24.7	13111	100
2025-3-27 20:5:53.711	WT901BLE68-01(48591DE3C19B)	-0.455	-0.617	0.325	-31.982	-78.064	13.367	-68.96	25.51	-121.38	-80.066	-68.894	-12.936	0.48099	-0.09933	0.57840	-0.65125	24.7	13111	100
2025-3-27 20:5:53.711	WT901BLE68-01(48591DE3C19B)	-0.468	-0.617	0.325	-31.982	-78.064	13.367	-68.82	25.43	-120.67	-80.066	-68.894	-12.936	0.48099	-0.09933	0.57840	-0.65125	24.7	13111	100
2025-3-27 20:5:53.740	WT901BLE68-01(48591DE3C19B)	-0.468	-0.771	0.361	-27.100	-79.407	16.724	-68.67	25.35	-119.94	-80.066	-68.894	-12.936	0.48099	-0.09933	0.57840	-0.65125	24.7	13111	100
2025-3-27 20:5:53.740	WT901BLE68-01(48591DE3C19B)	-0.440	-0.771	0.361	-27.100	-79.407	16.724	-68.49	25.28	-119.19	-80.066	-68.894	-12.936	0.48099	-0.09933	0.57840	-0.65125	24.7	13111	100
2025-3-27 20:5:53.740	WT901BLE68-01(48591DE3C19B)	-0.440	-0.942	0.370	-21.606	-78.552	19.958	-68.30	25.22	-118.42	-80.066	-68.894	-12.936	0.48099	-0.09933	0.57840	-0.65125	24.7	13111	100
2025-3-27 20:5:53.740	WT901BLE68-01(48591DE3C19B)	-0.450	-0.942	0.370	-21.606	-78.552	19.958	-68.09	25.16	-117.64	-80.066	-68.894	-12.936	0.48099	-0.09933	0.57840	-0.65125	24.7	13111	100
2025-3-27 20:5:53.773	WT901BLE68-01(48591DE3C19B)	-0.450	-1.225	0.352	-23.987	-77.820	13.245	-67.91	25.07	-116.87	-80.066	-68.894	-12.936	0.48099	-0.09933	0.57840	-0.65125	24.7	13111	100
2025-3-27 20:5:53.773	WT901BLE68-01(48591DE3C19B)	-0.381	-1.225	0.352	-23.987	-77.820	13.245	-67.76	24.93	-116.10	-80.066	-68.894	-12.936	0.48099	-0.09933	0.57840	-0.65125	24.7	13111	100
2025-3-27 20:5:53.773	WT901BLE68-01(48591DE3C19B)	-0.381	-1.625	0.276	-38.940	-75.806	1.892	-67.73	24.74	-115.35	-80.066	-68.894	-12.936	0.48099	-0.09933	0.57840	-0.65125	24.7	13111	100
2025-3-27 20:5:53.773	WT901BLE68-01(48591DE3C19B)	-0.370	-1.625	0.276	-38.940	-75.806	1.892	-67.80	24.48	-114.61	-80.066	-68.894	-12.936	0.48099	-0.09933	0.57840	-0.65125	24.7	13111	100
2025-3-27 20:5:53.831	WT901BLE68-01(48591DE3C19B)	-0.370	-2.195	0.254	-48.035	-62.012	-13.977	-67.97	24.17	-113.96	-80.066	-68.894	-12.936	0.48099	-0.09933	0.57840	-0.65125	24.7	13111	100
2025-3-27 20:5:53.831	WT901BLE68-01(48591DE3C19B)	-0.458	-2.195	0.254	-48.035	-62.012	-13.977	-68.25	23.80	-113.40	-89.278	-59.486	-12.740	0.48099	-0.09933	0.57840	-0.65125	24.7	13111	100
2025-3-27 20:5:53.831	WT901BLE68-01(48591DE3C19B)	-0.458	-2.405	0.351	-3.540	-32.776	-16.296	-68.38	23.46	-112.98	-89.278	-59.486	-12.740	0.48099	-0.09933	0.57840	-0.65125	24.7	13111	100
2025-3-27 20:5:53.831	WT901BLE68-01(48591DE3C19B)	-0.572	-2.405	0.351	-3.540	-32.776	-16.296	-68.36	23.15	-112.70	-89.278	-59.486	-12.740	0.48099	-0.09933	0.57840	-0.65125	24.7	13111	100
2025-3-27 20:5:53.860	WT901BLE68-01(48591DE3C19B)	-0.572	-1.819	0.556	19.287	-21.484	-12.756	-68.25	22.88	-112.47	-89.278	-59.486	-12.740	0.48099	-0.09933	0.57840	-0.65125	24.7	13111	100
2025-3-27 20:5:53.860	WT901BLE68-01(48591DE3C19B)	-0.438	-1.819	0.556	19.287	-21.484	-12.756	-68.04	22.65	-112.29	-89.278	-59.486	-12.740	0.48099	-0.09933	0.57840	-0.65125	24.7	13111	100
2025-3-27 20:5:53.860	WT901BLE68-01(48591DE3C19B)	-0.438	-1.480	0.597	6.592	-14.954	3.296	-67.90	22.50	-112.12	-89.278	-59.486	-12.740	0.48099	-0.09933	0.57840	-0.65125	24.7	13111	100
2025-3-27 20:5:53.860	WT901BLE68-01(48591DE3C19B)	-0.263	-1.480	0.597	6.592	-14.954	3.296	-67.82	22.45	-111.94	-89.278	-59.486	-12.740	0.48099	-0.09933	0.57840	-0.65125	24.7	13111	100
2025-3-27 20:5:53.891	WT901BLE68-01(48591DE3C19B)	-0.263	-1.306	0.491	9.216	23.254	22.156	-67.77	22.54	-111.92	-89.278	-59.486	-12.740	0.48099	-0.09933	0.57840	-0.65125	24.7	13111	100
2025-3-27 20:5:53.891	WT901BLE68-01(48591DE3C19B)	-0.206	-1.306	0.491	9.216	23.254	22.156	-67.77	22.79	-112.05	-89.278	-59.486	-12.740	0.48099	-0.09933	0.57840	-0.65125	24.7	13111	100
2025-3-27 20:5:53.891	WT901BLE68-01(48591DE3C19B)	-0.206	-1.043	0.331	12.024	54.504	44.922	-67.83	23.37	-112.40	-89.278	-59.486	-12.740	0.48099	-0.09933	0.57840	-0.65125	24.7	13111	100
2025-3-27 20:5:53.891	WT901BLE68-01(48591DE3C19B)	-0.186	-1.043	0.331	12.024	54.504	44.922	-67.90	23.94	-112.75	-89.278	-59.486	-12.740	0.48099	-0.09933	0.57840	-0.65125	24.7	13111	100
2025-3-27 20:5:53.956	WT901BLE68-01(48591DE3C19B)	-0.186	-0.823	0.225	-4.028	53.894	58.289	-68.09	24.63	-113.04	-89.278	-59.486	-12.740	0.48099	-0.09933	0.57840	-0.65125	24.7	13111	100
2025-3-27 20:5:53.956	WT901BLE68-01(48591DE3C19B)	-0.169	-0.823	0.225	-4.028	53.894	58.289	-68.30	25.30	-113.32	-89.278	-59.486	-12.740	0.48099	-0.09933	0.57840	-0.65125	24.7	13111	100
2025-3-27 20:5:53.956	WT901BLE68-01(48591DE3C19B)	-0.169	-0.776	0.192	-21.851	47.302	58.289	-68.65	25.95	-113.55	-89.278	-59.486	-12.740	0.48099	-0.09933	0.57840	-0.65125	24.7	13111	100
2025-3-27 20:5:53.956	WT901BLE68-01(48591DE3C19B)	-0.223	-0.776	0.192	-21.851	47.302	58.289	-69.02	26.59	-113.79	-89.278	-59.486	-12.740	0.48099	-0.09933	0.57840	-0.65125	24.7	13111	100
2025-3-27 20:5:53.983	WT901BLE68-01(48591DE3C19B)	-0.223	-0.774	0.215	-25.208	48.523	58.472	-69.42	27.24	-114.03	-89.278	-59.486	-12.740	0.48099	-0.09933	0.57840	-0.65125	24.7	13111	100
2025-3-27 20:5:53.983	WT901BLE68-01(48591DE3C19B)	-0.310	-0.774	0.215	-25.208	48.523	58.472	-69.83	27.87	-114.29	-89.278	-59.486	-12.740	0.48099	-0.09933	0.57840	-0.65125	24.7	13111	100
2025-3-27 20:5:53.983	WT901BLE68-01(48591DE3C19B)	-0.310	-0.699	0.242	-24.353	43.457	60.303	-70.20	28.51	-114.48	-89.278	-59.486	-12.740	0.48099	-0.09933	0.57840	-0.65125	24.7	13111	100
2025-3-27 20:5:53.983	WT901BLE68-01(48591DE3C19B)	-0.352	-0.699	0.242	-24.353	43.457	60.303	-70.57	29.14	-114.69	-89.278	-59.486	-12.740	0.48099	-0.09933	0.57840	-0.65125	24.7	13111	100
2025-3-27 20:5:54.12	WT901BLE68-01(48591DE3C19B)	-0.352	-0.613	0.255	-23.499	32.593	57.434	-70.89	29.71	-114.80	-89.278	-59.486	-12.740	0.48099	-0.09933	0.57840	-0.65125	24.7	13111	100
2025-3-27 20:5:54.12	WT901BLE68-01(48591DE3C19B)	-0.348	-0.613	0.255	-23.499	32.593	57.434	-71.20	30.28	-114.91	-89.278	-59.486	-12.740	0.48099	-0.09933	0.57840	-0.65125	24.7	13111	100
2025-3-27 20:5:54.12	WT901BLE68-01(48591DE3C19B)	-0.348	-0.583	0.250	-20.935	23.804	53.528	-71.45	30.79	-114.94	-89.278	-59.486	-12.740	0.55209	-0.11978	0.59177	-0.57492	24.7	13111	100
2025-3-27 20:5:54.13	WT901BLE68-01(48591DE3C19B)	-0.361	-0.583	0.250	-20.935	23.804	53.528	-71.69	31.30	-114.98	-89.278	-59.486	-12.740	0.55209	-0.11978	0.59177	-0.57492	24.7	13111	100
2025-3-27 20:5:54.71	WT901BLE68-01(48591DE3C19B)	-0.361	-0.605	0.212	-15.320	14.954	48.401	-71.84	31.73	-114.95	-89.278	-59.486	-12.740	0.55209	-0.11978	0.59177	-0.57492	24.7	13111	100
2025-3-27 20:5:54.71	WT901BLE68-01(48591DE3C19B)	-0.372	-0.605	0.212	-15.320	14.954	48.401	-71.98	32.17	-114.92	-89.278	-59.486	-12.740	0.55209	-0.11978	0.59177	-0.57492	24.7	13111	100
2025-3-27 20:5:54.71	WT901BLE68-01(48591DE3C19B)	-0.372	-0.638	0.173	-10.742	-0.244	41.687	-72.00	32.49	-114.74	-89.278	-59.486	-12.740	0.55209	-0.11978	0.59177	-0.57492	24.7	13111	100
2025-3-27 20:5:54.71	WT901BLE68-01(48591DE3C19B)	-0.357	-0.638	0.173	-10.742	-0.244	41.687	-72.03	32.82	-114.57	-89.278	-59.486	-12.740	0.55209	-0.11978	0.59177	-0.57492	24.7	13111	100
2025-3-27 20:5:54.100	WT901BLE68-01(48591DE3C19B)	-0.357	-0.707	0.161	-8.301	-17.029	32.043	-71.94	33.01	-114.24	-89.278	-59.486	-12.740	0.55209	-0.11978	0.59177	-0.57492	24.7	13111	100
2025-3-27 20:5:54.100	WT901BLE68-01(48591DE3C19B)	-0.417	-0.707	0.161	-8.301	-17.029	32.043	-71.86	33.20	-113.91	-89.278	-59.486	-12.740	0.55209	-0.11978	0.59177	-0.57492	24.7	13111	100
2025-3-27 20:5:54.100	WT901BLE68-01(48591DE3C19B)	-0.417	-0.808	0.189	-1.709	-31.311	21.484	-71.65	33.24	-113.45	-89.278	-59.486	-12.740	0.55209	-0.11978	0.59177	-0.57492	24.7	13111	100
2025-3-27 20:5:54.100	WT901BLE68-01(48591DE3C19B)	-0.506	-0.808	0.189	-1.709	-31.311	21.484	-71.44	33.29	-113.00	-89.278	-59.486	-12.740	0.55209	-0.11978	0.59177	-0.57492	24.7	13111	100
2025-3-27 20:5:54.130	WT901BLE68-01(48591DE3C19B)	-0.506	-0.927	0.226	2.869	-44.922	13.672	-71.12	33.22	-112.42	-89.278	-59.486	-12.740	0.55209	-0.11978	0.59177	-0.57492	24.7	13111	100
2025-3-27 20:5:54.131	WT901BLE68-01(48591DE3C19B)	-0.495	-0.927	0.226	2.869	-44.922	13.672	-70.81	33.15	-111.85	-89.278	-59.486	-12.740	0.55209	-0.11978	0.59177	-0.57492	24.7	13111	100
2025-3-27 20:5:54.131	WT901BLE68-01(48591DE3C19B)	-0.495	-0.999	0.260	7.507	-45.349	10.620	-70.45	33.04	-111.29	-89.278	-59.486	-12.740	0.55209	-0.11978	0.59177	-0.57492	24.7	13111	100
2025-3-27 20:5:54.131	WT901BLE68-01(48591DE3C19B)	-0.466	-0.999	0.260	7.507	-45.349	10.620	-70.10	32.94	-110.72	-89.278	-59.486	-12.740	0.55209	-0.11978	0.59177	-0.57492	24.7	13111	100
2025-3-27 20:5:54.191	WT901BLE68-01(48591DE3C19B)	-0.466	-1.023	0.286	15.381	-29.114	9.583	-69.78	32.88	-110.35	-89.278	-59.486	-12.740	0.55209	-0.11978	0.59177	-0.57492	24.7	13111	100
2025-3-27 20:5:54.191	WT901BLE68-01(48591DE3C19B)	-0.459	-1.023	0.286	15.381	-29.114	9.583	-69.46	32.82	-109.97	-89.278	-59.486	-12.740	0.55209	-0.11978	0.59177	-0.57492	24.7	13111	100
2025-3-27 20:5:54.191	WT901BLE68-01(48591DE3C19B)	-0.459	-0.993	0.299	22.034	-8.789	8.545	-69.20	32.82	-109.84	-89.278	-59.486	-12.740	0.55209	-0.11978	0.59177	-0.57492	24.7	13111	100
2025-3-27 20:5:54.191	WT901BLE68-01(48591DE3C19B)	-0.448	-0.993	0.299	22.034	-8.789	8.545	-68.93	32.81	-109.69	-89.278	-59.486	-12.740	0.55209	-0.11978	0.59177	-0.57492	24.7	13111	100
2025-3-27 20:5:54.220	WT901BLE68-01(48591DE3C19B)	-0.448	-0.941	0.300	22.522	6.836	9.277	-68.76	32.87	-109.72	-89.278	-59.486	-12.740	0.55209	-0.11978	0.59177	-0.57492	24.7	13111	100
2025-3-27 20:5:54.220	WT901BLE68-01(48591DE3C19B)	-0.428	-0.941	0.300	22.522	6.836	9.277	-68.59	32.93	-109.75	-89.278	-59.486	-12.740	0.55209	-0.11978	0.59177	-0.57492	24.7	13111	100
2025-3-27 20:5:54.220	WT901BLE68-01(48591DE3C19B)	-0.428	-0.892	0.296	20.325	19.104	9.644	-68.51	33.04	-109.91	-89.278	-59.486	-12.740	0.55209	-0.11978	0.59177	-0.57492	24.7	13111	100
2025-3-27 20:5:54.220	WT901BLE68-01(48591DE3C19B)	-0.430	-0.892	0.296	20.325	19.104	9.644	-68.43	33.15	-110.07	-95.452	-47.530	-9.408	0.55209	-0.11978	0.59177	-0.57492	24.7	13111	100
2025-3-27 20:5:54.257	WT901BLE68-01(48591DE3C19B)	-0.430	-0.849	0.283	16.785	30.640	7.874	-68.46	33.28	-110.36	-95.452	-47.530	-9.408	0.55209	-0.11978	0.59177	-0.57492	24.7	13111	100
2025-3-27 20:5:54.257	WT901BLE68-01(48591DE3C19B)	-0.469	-0.849	0.283	16.785	30.640	7.874	-68.49	33.41	-110.65	-95.452	-47.530	-9.408	0.55209	-0.11978	0.59177	-0.57492	24.7	13111	100
2025-3-27 20:5:54.258	WT901BLE68-01(48591DE3C19B)	-0.469	-0.797	0.261	13.977	39.124	4.211	-68.61	33.54	-111.06	-95.452	-47.530	-9.408	0.55209	-0.11978	0.59177	-0.57492	24.7	13111	100
2025-3-27 20:5:54.258	WT901BLE68-01(48591DE3C19B)	-0.524	-0.797	0.261	13.977	39.124	4.211	-68.72	33.67	-111.47	-95.452	-47.530	-9.408	0.55209	-0.11978	0.59177	-0.57492	24.7	13111	100
2025-3-27 20:5:54.311	WT901BLE68-01(48591DE3C19B)	-0.524	-0.742	0.262	9.827	41.992	0.610	-68.91	33.78	-111.92	-95.452	-47.530	-9.408	0.55209	-0.11978	0.59177	-0.57492	24.7	13111	100
2025-3-27 20:5:54.311	WT901BLE68-01(48591DE3C19B)	-0.561	-0.742	0.262	9.827	41.992	0.610	-69.09	33.89	-112.38	-95.452	-47.530	-9.408	0.55209	-0.11978	0.59177	-0.57492	24.7	13111	100
2025-3-27 20:5:54.311	WT901BLE68-01(48591DE3C19B)	-0.561	-0.707	0.277	5.188	37.659	-3.784	-69.31	33.95	-112.80	-95.452	-47.530	-9.408	0.55209	-0.11978	0.59177	-0.57492	24.7	13111	100
2025-3-27 20:5:54.311	WT901BLE68-01(48591DE3C19B)	-0.591	-0.707	0.277	5.188	37.659	-3.784	-69.52	34.01	-113.24	-95.452	-47.530	-9.408	0.55209	-0.11978	0.59177	-0.57492	24.7	13111	100
