time	DeviceName	AccX(g)	AccY(g)	AccZ(g)	AsX(°/s)	AsY(°/s)	AsZ(°/s)	AngleX(°)	AngleY(°)	AngleZ(°)	HX(uT)	HY(uT)	HZ(uT)	Q0()	Q1()	Q2()	Q3()	Temperature(°C)	Version()	Battery level(%)
2025-3-27 20:16:52.39	WT901BLE68-01(48591DE3C19B)	-0.408	-0.889	0.234	0.061	-3.357	-2.075	-76.32	23.81	-28.50	-74.480	-22.050	96.138	-0.77661	0.54691	-0.30649	0.06110	29.1	13111	100
2025-3-27 20:16:52.39	WT901BLE68-01(48591DE3C19B)	-0.378	-0.889	0.234	0.061	-3.357	-2.075	-76.30	23.79	-28.47	-74.480	-22.050	96.138	-0.77661	0.54691	-0.30649	0.06110	29.1	13111	100
2025-3-27 20:16:52.39	WT901BLE68-01(48591DE3C19B)	-0.378	-0.886	0.240	1.221	-1.282	-2.197	-76.28	23.76	-28.46	-74.480	-22.050	96.138	-0.77661	0.54691	-0.30649	0.06110	29.1	13111	100
2025-3-27 20:16:52.40	WT901BLE68-01(48591DE3C19B)	-0.393	-0.886	0.240	1.221	-1.282	-2.197	-76.27	23.74	-28.47	-74.480	-22.050	96.138	-0.77661	0.54691	-0.30649	0.06110	29.1	13111	100
2025-3-27 20:16:52.98	WT901BLE68-01(48591DE3C19B)	-0.393	-0.888	0.243	1.587	3.174	-1.038	-76.25	23.72	-28.49	-74.480	-22.050	96.138	-0.77661	0.54691	-0.30649	0.06110	29.1	13111	100
2025-3-27 20:16:52.98	WT901BLE68-01(48591DE3C19B)	-0.406	-0.888	0.243	1.587	3.174	-1.038	-76.25	23.72	-28.53	-74.872	-21.168	95.844	-0.77661	0.54691	-0.30649	0.06110	29.1	13111	100
2025-3-27 20:16:52.98	WT901BLE68-01(48591DE3C19B)	-0.406	-0.887	0.241	1.648	3.906	-0.183	-76.24	23.72	-28.58	-74.872	-21.168	95.844	-0.77661	0.54691	-0.30649	0.06110	29.1	13111	100
2025-3-27 20:16:52.98	WT901BLE68-01(48591DE3C19B)	-0.408	-0.887	0.241	1.648	3.906	-0.183	-76.23	23.73	-28.63	-74.872	-21.168	95.844	-0.77661	0.54691	-0.30649	0.06110	29.1	13111	100
2025-3-27 20:16:52.128	WT901BLE68-01(48591DE3C19B)	-0.408	-0.881	0.241	1.465	4.272	0.916	-76.23	23.75	-28.68	-74.872	-21.168	95.844	-0.77661	0.54691	-0.30649	0.06110	29.1	13111	100
2025-3-27 20:16:52.129	WT901BLE68-01(48591DE3C19B)	-0.414	-0.881	0.241	1.465	4.272	0.916	-76.23	23.76	-28.73	-74.872	-21.168	95.844	-0.77661	0.54691	-0.30649	0.06110	29.1	13111	100
2025-3-27 20:16:52.129	WT901BLE68-01(48591DE3C19B)	-0.414	-0.880	0.243	1.221	3.540	1.892	-76.22	23.79	-28.78	-74.872	-21.168	95.844	-0.77661	0.54691	-0.30649	0.06110	29.1	13111	100
2025-3-27 20:16:52.129	WT901BLE68-01(48591DE3C19B)	-0.408	-0.880	0.243	1.221	3.540	1.892	-76.22	23.81	-28.82	-74.872	-21.168	95.844	-0.77661	0.54691	-0.30649	0.06110	29.1	13111	100
2025-3-27 20:16:52.157	WT901BLE68-01(48591DE3C19B)	-0.408	-0.881	0.244	0.916	0.854	2.197	-76.21	23.84	-28.84	-74.872	-21.168	95.844	-0.77661	0.54691	-0.30649	0.06110	29.1	13111	100
2025-3-27 20:16:52.157	WT901BLE68-01(48591DE3C19B)	-0.400	-0.881	0.244	0.916	0.854	2.197	-76.19	23.86	-28.85	-74.872	-21.168	95.844	-0.77661	0.54691	-0.30649	0.06110	29.1	13111	100
2025-3-27 20:16:52.157	WT901BLE68-01(48591DE3C19B)	-0.400	-0.892	0.245	0.854	-0.122	2.014	-76.17	23.88	-28.86	-74.872	-21.168	95.844	-0.77661	0.54691	-0.30649	0.06110	29.1	13111	100
2025-3-27 20:16:52.157	WT901BLE68-01(48591DE3C19B)	-0.402	-0.892	0.245	0.854	-0.122	2.014	-76.15	23.91	-28.86	-74.872	-21.168	95.844	-0.77661	0.54691	-0.30649	0.06110	29.1	13111	100
2025-3-27 20:16:52.218	WT901BLE68-01(48591DE3C19B)	-0.402	-0.909	0.247	1.892	0.061	1.526	-76.13	23.92	-28.86	-74.872	-21.168	95.844	-0.77661	0.54691	-0.30649	0.06110	29.1	13111	100
2025-3-27 20:16:52.218	WT901BLE68-01(48591DE3C19B)	-0.393	-0.909	0.247	1.892	0.061	1.526	-76.10	23.93	-28.87	-74.872	-21.168	95.844	-0.77661	0.54691	-0.30649	0.06110	29.1	13111	100
2025-3-27 20:16:52.218	WT901BLE68-01(48591DE3C19B)	-0.393	-0.907	0.250	3.479	0.061	1.648	-76.07	23.95	-28.87	-74.872	-21.168	95.844	-0.77661	0.54691	-0.30649	0.06110	29.1	13111	100
2025-3-27 20:16:52.218	WT901BLE68-01(48591DE3C19B)	-0.376	-0.907	0.250	3.479	0.061	1.648	-76.03	23.97	-28.87	-74.872	-21.168	95.844	-0.77661	0.54691	-0.30649	0.06110	29.1	13111	100
2025-3-27 20:16:52.249	WT901BLE68-01(48591DE3C19B)	-0.376	-0.884	0.245	4.700	1.831	2.991	-75.98	23.99	-28.89	-74.872	-21.168	95.844	-0.77661	0.54691	-0.30649	0.06110	29.1	13111	100
2025-3-27 20:16:52.250	WT901BLE68-01(48591DE3C19B)	-0.366	-0.884	0.245	4.700	1.831	2.991	-75.93	24.02	-28.92	-74.872	-21.168	95.844	-0.77661	0.54691	-0.30649	0.06110	29.1	13111	100
2025-3-27 20:16:52.250	WT901BLE68-01(48591DE3C19B)	-0.366	-0.867	0.234	5.005	5.432	5.371	-75.89	24.08	-28.97	-74.872	-21.168	95.844	-0.77661	0.54691	-0.30649	0.06110	29.1	13111	100
2025-3-27 20:16:52.250	WT901BLE68-01(48591DE3C19B)	-0.362	-0.867	0.234	5.005	5.432	5.371	-75.85	24.14	-29.02	-74.872	-21.168	95.844	-0.77661	0.54691	-0.30649	0.06110	29.1	13111	100
2025-3-27 20:16:52.279	WT901BLE68-01(48591DE3C19B)	-0.362	-0.860	0.228	4.517	8.179	7.751	-75.82	24.23	-29.10	-74.872	-21.168	95.844	-0.77661	0.54691	-0.30649	0.06110	29.1	13111	100
2025-3-27 20:16:52.280	WT901BLE68-01(48591DE3C19B)	-0.366	-0.860	0.228	4.517	8.179	7.751	-75.80	24.32	-29.17	-74.872	-21.168	95.844	-0.77661	0.54691	-0.30649	0.06110	29.1	13111	100
2025-3-27 20:16:52.280	WT901BLE68-01(48591DE3C19B)	-0.366	-0.867	0.226	3.296	9.277	9.583	-75.79	24.43	-29.26	-74.872	-21.168	95.844	-0.77902	0.53870	-0.31314	0.06903	29.1	13111	100
2025-3-27 20:16:52.280	WT901BLE68-01(48591DE3C19B)	-0.372	-0.867	0.226	3.296	9.277	9.583	-75.78	24.53	-29.34	-74.872	-21.168	95.844	-0.77902	0.53870	-0.31314	0.06903	29.1	13111	100
2025-3-27 20:16:52.338	WT901BLE68-01(48591DE3C19B)	-0.372	-0.880	0.229	2.136	8.606	10.010	-75.78	24.64	-29.41	-74.872	-21.168	95.844	-0.77902	0.53870	-0.31314	0.06903	29.1	13111	100
2025-3-27 20:16:52.338	WT901BLE68-01(48591DE3C19B)	-0.372	-0.880	0.229	2.136	8.606	10.010	-75.78	24.75	-29.49	-74.872	-21.168	95.844	-0.77902	0.53870	-0.31314	0.06903	29.1	13111	100
2025-3-27 20:16:52.338	WT901BLE68-01(48591DE3C19B)	-0.372	-0.890	0.237	1.343	7.141	8.789	-75.79	24.83	-29.55	-74.872	-21.168	95.844	-0.77902	0.53870	-0.31314	0.06903	29.1	13111	100
2025-3-27 20:16:52.339	WT901BLE68-01(48591DE3C19B)	-0.370	-0.890	0.237	1.343	7.141	8.789	-75.79	24.92	-29.61	-74.872	-21.168	95.844	-0.77902	0.53870	-0.31314	0.06903	29.1	13111	100
2025-3-27 20:16:52.367	WT901BLE68-01(48591DE3C19B)	-0.370	-0.894	0.241	0.916	7.141	6.165	-75.81	24.98	-29.68	-74.872	-21.168	95.844	-0.77902	0.53870	-0.31314	0.06903	29.1	13111	100
2025-3-27 20:16:52.367	WT901BLE68-01(48591DE3C19B)	-0.371	-0.894	0.241	0.916	7.141	6.165	-75.82	25.05	-29.75	-74.872	-21.168	95.844	-0.77902	0.53870	-0.31314	0.06903	29.1	13111	100
2025-3-27 20:16:52.367	WT901BLE68-01(48591DE3C19B)	-0.371	-0.898	0.242	0.916	7.324	1.648	-75.83	25.07	-29.83	-74.872	-21.168	95.844	-0.77902	0.53870	-0.31314	0.06903	29.1	13111	100
2025-3-27 20:16:52.367	WT901BLE68-01(48591DE3C19B)	-0.380	-0.898	0.242	0.916	7.324	1.648	-75.85	25.08	-29.92	-74.872	-21.168	95.844	-0.77902	0.53870	-0.31314	0.06903	29.1	13111	100
2025-3-27 20:16:52.398	WT901BLE68-01(48591DE3C19B)	-0.380	-0.899	0.248	1.831	7.935	-4.150	-75.87	25.04	-30.02	-74.872	-21.168	95.844	-0.77902	0.53870	-0.31314	0.06903	29.1	13111	100
2025-3-27 20:16:52.398	WT901BLE68-01(48591DE3C19B)	-0.390	-0.899	0.248	1.831	7.935	-4.150	-75.89	25.00	-30.12	-74.872	-21.168	95.844	-0.77902	0.53870	-0.31314	0.06903	29.1	13111	100
2025-3-27 20:16:52.398	WT901BLE68-01(48591DE3C19B)	-0.390	-0.890	0.253	3.113	7.263	-10.376	-75.89	24.91	-30.24	-74.872	-21.168	95.844	-0.77902	0.53870	-0.31314	0.06903	29.1	13111	100
2025-3-27 20:16:52.398	WT901BLE68-01(48591DE3C19B)	-0.391	-0.890	0.253	3.113	7.263	-10.376	-75.90	24.81	-30.35	-74.872	-21.168	95.844	-0.77902	0.53870	-0.31314	0.06903	29.1	13111	100
2025-3-27 20:16:52.465	WT901BLE68-01(48591DE3C19B)	-0.391	-0.878	0.253	4.517	6.958	-15.442	-75.90	24.66	-30.48	-74.872	-21.168	95.844	-0.77902	0.53870	-0.31314	0.06903	29.1	13111	100
2025-3-27 20:16:52.466	WT901BLE68-01(48591DE3C19B)	-0.389	-0.878	0.253	4.517	6.958	-15.442	-75.89	24.52	-30.60	-74.872	-21.168	95.844	-0.77902	0.53870	-0.31314	0.06903	29.1	13111	100
2025-3-27 20:16:52.466	WT901BLE68-01(48591DE3C19B)	-0.389	-0.865	0.250	5.920	7.324	-19.592	-75.88	24.33	-30.73	-74.872	-21.168	95.844	-0.77902	0.53870	-0.31314	0.06903	29.1	13111	100
2025-3-27 20:16:52.466	WT901BLE68-01(48591DE3C19B)	-0.396	-0.865	0.250	5.920	7.324	-19.592	-75.87	24.15	-30.87	-74.872	-21.168	95.844	-0.77902	0.53870	-0.31314	0.06903	29.1	13111	100
2025-3-27 20:16:52.490	WT901BLE68-01(48591DE3C19B)	-0.396	-0.858	0.249	6.775	7.996	-22.644	-75.85	23.94	-31.01	-74.872	-21.168	95.844	-0.77902	0.53870	-0.31314	0.06903	29.1	13111	100
2025-3-27 20:16:52.490	WT901BLE68-01(48591DE3C19B)	-0.400	-0.858	0.249	6.775	7.996	-22.644	-75.83	23.74	-31.16	-74.872	-21.168	95.844	-0.77902	0.53870	-0.31314	0.06903	29.1	13111	100
2025-3-27 20:16:52.490	WT901BLE68-01(48591DE3C19B)	-0.400	-0.857	0.252	7.141	6.958	-24.963	-75.81	23.51	-31.31	-74.872	-21.168	95.844	-0.77902	0.53870	-0.31314	0.06903	29.1	13111	100
2025-3-27 20:16:52.490	WT901BLE68-01(48591DE3C19B)	-0.403	-0.857	0.252	7.141	6.958	-24.963	-75.78	23.29	-31.45	-76.636	-20.090	94.864	-0.77902	0.53870	-0.31314	0.06903	29.1	13111	100
2025-3-27 20:16:52.519	WT901BLE68-01(48591DE3C19B)	-0.403	-0.852	0.248	7.446	6.470	-26.306	-75.75	23.05	-31.59	-76.636	-20.090	94.864	-0.77902	0.53870	-0.31314	0.06903	29.1	13111	100
2025-3-27 20:16:52.519	WT901BLE68-01(48591DE3C19B)	-0.410	-0.852	0.248	7.446	6.470	-26.306	-75.72	22.81	-31.72	-76.636	-20.090	94.864	-0.77902	0.53870	-0.31314	0.06903	29.1	13111	100
2025-3-27 20:16:52.519	WT901BLE68-01(48591DE3C19B)	-0.410	-0.845	0.245	6.897	5.188	-27.222	-75.69	22.57	-31.85	-76.636	-20.090	94.864	-0.77902	0.53870	-0.31314	0.06903	29.1	13111	100
2025-3-27 20:16:52.519	WT901BLE68-01(48591DE3C19B)	-0.412	-0.845	0.245	6.897	5.188	-27.222	-75.66	22.32	-31.98	-76.636	-20.090	94.864	-0.77902	0.53870	-0.31314	0.06903	29.1	13111	100
2025-3-27 20:16:52.670	WT901BLE68-01(48591DE3C19B)	-0.412	-0.857	0.244	5.859	3.906	-27.588	-75.64	22.08	-32.09	-76.636	-20.090	94.864	-0.77902	0.53870	-0.31314	0.06903	29.1	13111	100
2025-3-27 20:16:52.670	WT901BLE68-01(48591DE3C19B)	-0.421	-0.857	0.244	5.859	3.906	-27.588	-75.61	21.83	-32.20	-76.636	-20.090	94.864	-0.77902	0.53870	-0.31314	0.06903	29.1	13111	100
2025-3-27 20:16:52.670	WT901BLE68-01(48591DE3C19B)	-0.421	-0.873	0.244	5.066	2.747	-27.649	-75.59	21.58	-32.29	-76.636	-20.090	94.864	-0.77902	0.53870	-0.31314	0.06903	29.1	13111	100
2025-3-27 20:16:52.670	WT901BLE68-01(48591DE3C19B)	-0.423	-0.873	0.244	5.066	2.747	-27.649	-75.57	21.34	-32.39	-76.636	-20.090	94.864	-0.77902	0.53870	-0.31314	0.06903	29.1	13111	100
2025-3-27 20:16:52.670	WT901BLE68-01(48591DE3C19B)	-0.423	-0.871	0.242	4.272	1.709	-26.794	-75.55	21.10	-32.47	-76.636	-20.090	94.864	-0.77902	0.53870	-0.31314	0.06903	29.1	13111	100
2025-3-27 20:16:52.671	WT901BLE68-01(48591DE3C19B)	-0.419	-0.871	0.242	4.272	1.709	-26.794	-75.53	20.86	-32.55	-76.636	-20.090	94.864	-0.77902	0.53870	-0.31314	0.06903	29.1	13111	100
2025-3-27 20:16:52.671	WT901BLE68-01(48591DE3C19B)	-0.419	-0.857	0.240	3.296	1.709	-25.513	-75.53	20.64	-32.63	-76.636	-20.090	94.864	-0.77902	0.53870	-0.31314	0.06903	29.1	13111	100
2025-3-27 20:16:52.671	WT901BLE68-01(48591DE3C19B)	-0.422	-0.857	0.240	3.296	1.709	-25.513	-75.51	20.42	-32.71	-76.636	-20.090	94.864	-0.77902	0.53870	-0.31314	0.06903	29.1	13111	100
2025-3-27 20:16:52.671	WT901BLE68-01(48591DE3C19B)	-0.422	-0.834	0.231	2.625	1.770	-23.743	-75.51	20.23	-32.78	-76.636	-20.090	94.864	-0.77902	0.53870	-0.31314	0.06903	29.1	13111	100
2025-3-27 20:16:52.671	WT901BLE68-01(48591DE3C19B)	-0.419	-0.834	0.231	2.625	1.770	-23.743	-75.50	20.03	-32.85	-76.636	-20.090	94.864	-0.77902	0.53870	-0.31314	0.06903	29.1	13111	100
2025-3-27 20:16:52.671	WT901BLE68-01(48591DE3C19B)	-0.419	-0.809	0.220	0.977	0.916	-22.034	-75.51	19.85	-32.91	-76.636	-20.090	94.864	-0.77902	0.53870	-0.31314	0.06903	29.1	13111	100
2025-3-27 20:16:52.671	WT901BLE68-01(48591DE3C19B)	-0.422	-0.809	0.220	0.977	0.916	-22.034	-75.51	19.67	-32.96	-76.636	-20.090	94.864	-0.77902	0.53870	-0.31314	0.06903	29.1	13111	100
2025-3-27 20:16:52.698	WT901BLE68-01(48591DE3C19B)	-0.426	-0.810	0.222	-0.549	-0.427	-20.630	-75.53	19.50	-33.00	-76.636	-20.090	94.864	-0.77902	0.53870	-0.31314	0.06903	29.1	13111	100
2025-3-27 20:16:52.698	WT901BLE68-01(48591DE3C19B)	-0.426	-0.798	0.223	-1.648	-2.625	-19.409	-75.55	19.34	-33.02	-76.636	-20.090	94.864	-0.77902	0.53870	-0.31314	0.06903	29.1	13111	100
2025-3-27 20:16:52.698	WT901BLE68-01(48591DE3C19B)	-0.419	-0.798	0.223	-1.648	-2.625	-19.409	-75.57	19.18	-33.04	-76.636	-20.090	94.864	-0.77902	0.53870	-0.31314	0.06903	29.1	13111	100
2025-3-27 20:16:52.698	WT901BLE68-01(48591DE3C19B)	-0.419	-0.788	0.219	-3.052	-4.456	-18.555	-75.59	19.03	-33.04	-76.636	-20.090	94.864	-0.77902	0.53870	-0.31314	0.06903	29.1	13111	100
2025-3-27 20:16:52.788	WT901BLE68-01(48591DE3C19B)	-0.417	-0.788	0.219	-3.052	-4.456	-18.555	-75.62	18.88	-33.02	-76.636	-20.090	94.864	-0.77576	0.54291	-0.29611	0.12509	29.1	13111	100
2025-3-27 20:16:52.788	WT901BLE68-01(48591DE3C19B)	-0.417	-0.792	0.212	-3.967	-4.639	-18.005	-75.65	18.74	-33.01	-76.636	-20.090	94.864	-0.77576	0.54291	-0.29611	0.12509	29.1	13111	100
2025-3-27 20:16:52.788	WT901BLE68-01(48591DE3C19B)	-0.419	-0.792	0.212	-3.967	-4.639	-18.005	-75.68	18.59	-32.99	-76.636	-20.090	94.864	-0.77576	0.54291	-0.29611	0.12509	29.1	13111	100
2025-3-27 20:16:52.788	WT901BLE68-01(48591DE3C19B)	-0.419	-0.808	0.208	-4.761	-4.272	-17.822	-75.72	18.46	-32.98	-76.636	-20.090	94.864	-0.77576	0.54291	-0.29611	0.12509	29.1	13111	100
2025-3-27 20:16:52.790	WT901BLE68-01(48591DE3C19B)	-0.423	-0.808	0.208	-4.761	-4.272	-17.822	-75.76	18.32	-32.96	-76.636	-20.090	94.864	-0.77576	0.54291	-0.29611	0.12509	29.1	13111	100
2025-3-27 20:16:52.790	WT901BLE68-01(48591DE3C19B)	-0.423	-0.828	0.209	-5.249	-3.723	-18.066	-75.81	18.18	-32.95	-76.636	-20.090	94.864	-0.77576	0.54291	-0.29611	0.12509	29.1	13111	100
2025-3-27 20:16:52.790	WT901BLE68-01(48591DE3C19B)	-0.435	-0.828	0.209	-5.249	-3.723	-18.066	-75.86	18.05	-32.95	-76.636	-20.090	94.864	-0.77576	0.54291	-0.29611	0.12509	29.1	13111	100
2025-3-27 20:16:52.790	WT901BLE68-01(48591DE3C19B)	-0.435	-0.852	0.218	-5.737	-3.418	-18.311	-75.91	17.91	-32.94	-76.636	-20.090	94.864	-0.77576	0.54291	-0.29611	0.12509	29.1	13111	100
2025-3-27 20:16:52.819	WT901BLE68-01(48591DE3C19B)	-0.438	-0.852	0.218	-5.737	-3.418	-18.311	-75.97	17.78	-32.94	-76.636	-20.090	94.864	-0.77576	0.54291	-0.29611	0.12509	29.1	13111	100
2025-3-27 20:16:52.819	WT901BLE68-01(48591DE3C19B)	-0.438	-0.859	0.226	-5.981	-3.540	-17.578	-76.03	17.65	-32.93	-76.636	-20.090	94.864	-0.77576	0.54291	-0.29611	0.12509	29.1	13111	100
2025-3-27 20:16:52.819	WT901BLE68-01(48591DE3C19B)	-0.435	-0.859	0.226	-5.981	-3.540	-17.578	-76.09	17.52	-32.92	-76.636	-20.090	94.864	-0.77576	0.54291	-0.29611	0.12509	29.1	13111	100
2025-3-27 20:16:52.819	WT901BLE68-01(48591DE3C19B)	-0.435	-0.831	0.227	-6.409	-3.662	-14.954	-76.14	17.41	-32.91	-76.636	-20.090	94.864	-0.77576	0.54291	-0.29611	0.12509	29.1	13111	100
2025-3-27 20:16:52.849	WT901BLE68-01(48591DE3C19B)	-0.431	-0.831	0.227	-6.409	-3.662	-14.954	-76.20	17.31	-32.89	-76.636	-20.090	94.864	-0.77576	0.54291	-0.29611	0.12509	29.1	13111	100
2025-3-27 20:16:52.849	WT901BLE68-01(48591DE3C19B)	-0.431	-0.784	0.226	-7.690	-4.089	-10.437	-76.26	17.23	-32.87	-76.636	-20.090	94.864	-0.77576	0.54291	-0.29611	0.12509	29.1	13111	100
2025-3-27 20:16:52.850	WT901BLE68-01(48591DE3C19B)	-0.430	-0.784	0.226	-7.690	-4.089	-10.437	-76.33	17.17	-32.83	-76.636	-20.090	94.864	-0.77576	0.54291	-0.29611	0.12509	29.1	13111	100
2025-3-27 20:16:52.850	WT901BLE68-01(48591DE3C19B)	-0.430	-0.742	0.226	-9.949	-5.920	-4.456	-76.40	17.15	-32.78	-76.636	-20.090	94.864	-0.77576	0.54291	-0.29611	0.12509	29.1	13111	100
2025-3-27 20:16:52.908	WT901BLE68-01(48591DE3C19B)	-0.423	-0.742	0.226	-9.949	-5.920	-4.456	-76.48	17.15	-32.71	-76.636	-20.090	94.864	-0.77576	0.54291	-0.29611	0.12509	29.1	13111	100
2025-3-27 20:16:52.908	WT901BLE68-01(48591DE3C19B)	-0.423	-0.723	0.226	-12.451	-10.742	1.587	-76.55	17.18	-32.61	-76.636	-20.090	94.864	-0.77576	0.54291	-0.29611	0.12509	29.1	13111	100
2025-3-27 20:16:52.908	WT901BLE68-01(48591DE3C19B)	-0.419	-0.723	0.226	-12.451	-10.742	1.587	-76.64	17.23	-32.48	-78.008	-22.638	96.040	-0.77576	0.54291	-0.29611	0.12509	29.1	13111	100
2025-3-27 20:16:52.908	WT901BLE68-01(48591DE3C19B)	-0.419	-0.723	0.224	-14.221	-16.052	7.446	-76.71	17.30	-32.31	-78.008	-22.638	96.040	-0.77576	0.54291	-0.29611	0.12509	29.1	13111	100
2025-3-27 20:16:52.968	WT901BLE68-01(48591DE3C19B)	-0.404	-0.723	0.224	-14.221	-16.052	7.446	-76.78	17.40	-32.11	-78.008	-22.638	96.040	-0.77576	0.54291	-0.29611	0.12509	29.1	13111	100
2025-3-27 20:16:52.968	WT901BLE68-01(48591DE3C19B)	-0.404	-0.735	0.223	-14.954	-19.897	12.817	-76.85	17.52	-31.88	-78.008	-22.638	96.040	-0.77576	0.54291	-0.29611	0.12509	29.1	13111	100
2025-3-27 20:16:52.968	WT901BLE68-01(48591DE3C19B)	-0.390	-0.735	0.223	-14.954	-19.897	12.817	-76.92	17.66	-31.62	-78.008	-22.638	96.040	-0.77576	0.54291	-0.29611	0.12509	29.1	13111	100
2025-3-27 20:16:52.968	WT901BLE68-01(48591DE3C19B)	-0.390	-0.782	0.223	-14.465	-20.203	16.785	-76.98	17.82	-31.37	-78.008	-22.638	96.040	-0.77576	0.54291	-0.29611	0.12509	29.1	13111	100
2025-3-27 20:16:52.970	WT901BLE68-01(48591DE3C19B)	-0.390	-0.782	0.223	-14.465	-20.203	16.785	-77.03	18.00	-31.11	-78.008	-22.638	96.040	-0.77576	0.54291	-0.29611	0.12509	29.1	13111	100
2025-3-27 20:16:52.970	WT901BLE68-01(48591DE3C19B)	-0.390	-0.857	0.229	-12.207	-16.785	18.494	-77.07	18.18	-30.86	-78.008	-22.638	96.040	-0.77576	0.54291	-0.29611	0.12509	29.1	13111	100
2025-3-27 20:16:52.970	WT901BLE68-01(48591DE3C19B)	-0.385	-0.857	0.229	-12.207	-16.785	18.494	-77.11	18.37	-30.62	-78.008	-22.638	96.040	-0.77576	0.54291	-0.29611	0.12509	29.1	13111	100
2025-3-27 20:16:52.970	WT901BLE68-01(48591DE3C19B)	-0.385	-0.927	0.238	-8.240	-11.292	19.043	-77.14	18.57	-30.42	-78.008	-22.638	96.040	-0.77576	0.54291	-0.29611	0.12509	29.1	13111	100
2025-3-27 20:16:53.66	WT901BLE68-01(48591DE3C19B)	-0.360	-0.927	0.238	-8.240	-11.292	19.043	-77.15	18.78	-30.25	-78.008	-22.638	96.040	-0.77576	0.54291	-0.29611	0.12509	29.1	13111	100
2025-3-27 20:16:53.66	WT901BLE68-01(48591DE3C19B)	-0.360	-0.926	0.230	-2.991	-2.136	19.714	-77.16	18.99	-30.11	-78.008	-22.638	96.040	-0.77576	0.54291	-0.29611	0.12509	29.1	13111	100
2025-3-27 20:16:53.66	WT901BLE68-01(48591DE3C19B)	-0.342	-0.926	0.230	-2.991	-2.136	19.714	-77.15	19.22	-30.03	-78.008	-22.638	96.040	-0.77576	0.54291	-0.29611	0.12509	29.1	13111	100
2025-3-27 20:16:53.66	WT901BLE68-01(48591DE3C19B)	-0.342	-0.860	0.212	-1.099	9.216	20.874	-77.15	19.45	-30.00	-78.008	-22.638	96.040	-0.77576	0.54291	-0.29611	0.12509	29.1	13111	100
2025-3-27 20:16:53.66	WT901BLE68-01(48591DE3C19B)	-0.363	-0.860	0.212	-1.099	9.216	20.874	-77.17	19.70	-30.03	-78.008	-22.638	96.040	-0.77576	0.54291	-0.29611	0.12509	29.1	13111	100
2025-3-27 20:16:53.66	WT901BLE68-01(48591DE3C19B)	-0.363	-0.848	0.203	-3.052	17.578	20.569	-77.21	19.96	-30.10	-78.008	-22.638	96.040	-0.77576	0.54291	-0.29611	0.12509	29.1	13111	100
2025-3-27 20:16:53.66	WT901BLE68-01(48591DE3C19B)	-0.419	-0.848	0.203	-3.052	17.578	20.569	-77.27	20.22	-30.22	-78.008	-22.638	96.040	-0.77576	0.54291	-0.29611	0.12509	29.1	13111	100
2025-3-27 20:16:53.66	WT901BLE68-01(48591DE3C19B)	-0.419	-0.905	0.209	-6.470	15.991	17.578	-77.35	20.47	-30.33	-78.008	-22.638	96.040	-0.77576	0.54291	-0.29611	0.12509	29.1	13111	100
2025-3-27 20:16:53.90	WT901BLE68-01(48591DE3C19B)	-0.457	-0.905	0.209	-6.470	15.991	17.578	-77.45	20.69	-30.44	-78.008	-22.638	96.040	-0.77576	0.54291	-0.29611	0.12509	29.1	13111	100
2025-3-27 20:16:53.90	WT901BLE68-01(48591DE3C19B)	-0.457	-0.993	0.225	-9.277	6.897	11.963	-77.55	20.88	-30.50	-78.008	-22.638	96.040	-0.77576	0.54291	-0.29611	0.12509	29.1	13111	100
2025-3-27 20:16:53.90	WT901BLE68-01(48591DE3C19B)	-0.462	-0.993	0.225	-9.277	6.897	11.963	-77.65	21.03	-30.53	-78.008	-22.638	96.040	-0.76880	0.55728	-0.30002	0.09085	29.1	13111	100
2025-3-27 20:16:53.90	WT901BLE68-01(48591DE3C19B)	-0.462	-1.079	0.237	-8.179	-0.854	6.165	-77.73	21.14	-30.53	-78.008	-22.638	96.040	-0.76880	0.55728	-0.30002	0.09085	29.1	13111	100
2025-3-27 20:16:53.178	WT901BLE68-01(48591DE3C19B)	-0.445	-1.079	0.237	-8.179	-0.854	6.165	-77.79	21.21	-30.49	-78.008	-22.638	96.040	-0.76880	0.55728	-0.30002	0.09085	29.1	13111	100
2025-3-27 20:16:53.178	WT901BLE68-01(48591DE3C19B)	-0.445	-1.049	0.233	-3.418	-5.554	2.380	-77.83	21.26	-30.43	-78.008	-22.638	96.040	-0.76880	0.55728	-0.30002	0.09085	29.1	13111	100
2025-3-27 20:16:53.178	WT901BLE68-01(48591DE3C19B)	-0.401	-1.049	0.233	-3.418	-5.554	2.380	-77.83	21.29	-30.34	-78.008	-22.638	96.040	-0.76880	0.55728	-0.30002	0.09085	29.1	13111	100
2025-3-27 20:16:53.178	WT901BLE68-01(48591DE3C19B)	-0.401	-0.896	0.217	-0.732	-6.653	3.479	-77.80	21.32	-30.25	-78.008	-22.638	96.040	-0.76880	0.55728	-0.30002	0.09085	29.1	13111	100
2025-3-27 20:16:53.179	WT901BLE68-01(48591DE3C19B)	-0.349	-0.896	0.217	-0.732	-6.653	3.479	-77.77	21.36	-30.15	-78.008	-22.638	96.040	-0.76880	0.55728	-0.30002	0.09085	29.1	13111	100
2025-3-27 20:16:53.179	WT901BLE68-01(48591DE3C19B)	-0.349	-0.714	0.218	-0.610	-1.648	9.094	-77.76	21.46	-30.10	-78.008	-22.638	96.040	-0.76880	0.55728	-0.30002	0.09085	29.1	13111	100
2025-3-27 20:16:53.179	WT901BLE68-01(48591DE3C19B)	-0.316	-0.714	0.218	-0.610	-1.648	9.094	-77.74	21.55	-30.04	-78.008	-22.638	96.040	-0.76880	0.55728	-0.30002	0.09085	29.1	13111	100
2025-3-27 20:16:53.179	WT901BLE68-01(48591DE3C19B)	-0.316	-0.541	0.227	-4.150	3.967	16.846	-77.77	21.74	-30.03	-78.008	-22.638	96.040	-0.76880	0.55728	-0.30002	0.09085	29.1	13111	100
2025-3-27 20:16:53.298	WT901BLE68-01(48591DE3C19B)	-0.319	-0.541	0.227	-4.150	3.967	16.846	-77.79	21.93	-30.02	-78.008	-22.638	96.040	-0.76880	0.55728	-0.30002	0.09085	29.1	13111	100
2025-3-27 20:16:53.298	WT901BLE68-01(48591DE3C19B)	-0.319	-0.449	0.216	-10.315	3.052	27.039	-77.87	22.21	-29.97	-78.008	-22.638	96.040	-0.76880	0.55728	-0.30002	0.09085	29.1	13111	100
2025-3-27 20:16:53.298	WT901BLE68-01(48591DE3C19B)	-0.341	-0.449	0.216	-10.315	3.052	27.039	-77.93	22.51	-29.93	-78.008	-22.638	96.040	-0.76880	0.55728	-0.30002	0.09085	29.1	13111	100
2025-3-27 20:16:53.299	WT901BLE68-01(48591DE3C19B)	-0.341	-0.438	0.190	-18.738	-9.521	36.316	-78.02	22.86	-29.73	-78.008	-22.638	96.040	-0.76880	0.55728	-0.30002	0.09085	29.1	13111	100
2025-3-27 20:16:53.299	WT901BLE68-01(48591DE3C19B)	-0.345	-0.438	0.190	-18.738	-9.521	36.316	-78.11	23.21	-29.53	-78.008	-22.638	96.040	-0.76880	0.55728	-0.30002	0.09085	29.1	13111	100
2025-3-27 20:16:53.299	WT901BLE68-01(48591DE3C19B)	-0.345	-0.534	0.157	-29.541	-25.635	39.978	-78.23	23.58	-29.15	-78.008	-22.638	96.040	-0.76880	0.55728	-0.30002	0.09085	29.1	13111	100
2025-3-27 20:16:53.299	WT901BLE68-01(48591DE3C19B)	-0.387	-0.534	0.157	-29.541	-25.635	39.978	-78.34	23.94	-28.77	-78.008	-22.638	96.040	-0.76880	0.55728	-0.30002	0.09085	29.1	13111	100
2025-3-27 20:16:53.299	WT901BLE68-01(48591DE3C19B)	-0.387	-0.736	0.173	-34.729	-41.931	32.532	-78.45	24.20	-28.23	-78.008	-22.638	96.040	-0.76880	0.55728	-0.30002	0.09085	29.1	13111	100
2025-3-27 20:16:53.300	WT901BLE68-01(48591DE3C19B)	-0.492	-0.736	0.173	-34.729	-41.931	32.532	-78.55	24.45	-27.70	-78.008	-22.638	96.040	-0.76880	0.55728	-0.30002	0.09085	29.1	13111	100
2025-3-27 20:16:53.300	WT901BLE68-01(48591DE3C19B)	-0.492	-1.116	0.227	-36.621	-63.171	17.883	-78.60	24.52	-26.96	-78.008	-22.638	96.040	-0.76880	0.55728	-0.30002	0.09085	29.1	13111	100
2025-3-27 20:16:53.300	WT901BLE68-01(48591DE3C19B)	-1.003	-1.116	0.227	-36.621	-63.171	17.883	-78.64	24.58	-26.22	-78.008	-22.638	96.040	-0.76880	0.55728	-0.30002	0.09085	29.1	13111	100
2025-3-27 20:16:53.300	WT901BLE68-01(48591DE3C19B)	-4.015	-3.232	0.430	-22.400	-78.369	-0.244	-78.50	24.42	-25.36	-78.008	-22.638	96.040	-0.76880	0.55728	-0.30002	0.09085	29.1	13111	100
2025-3-27 20:16:53.388	WT901BLE68-01(48591DE3C19B)	-0.393	-12.928	1.720	-22.400	-78.369	-0.244	-78.38	24.25	-24.50	-78.008	-22.638	96.040	-0.76880	0.55728	-0.30002	0.09085	29.1	13111	100
2025-3-27 20:16:53.388	WT901BLE68-01(48591DE3C19B)	-0.393	-1.786	0.195	2.380	-71.228	-15.320	-78.07	23.93	-23.75	-78.008	-22.638	96.040	-0.76880	0.55728	-0.30002	0.09085	29.1	13111	100
2025-3-27 20:16:53.389	WT901BLE68-01(48591DE3C19B)	-0.310	-1.786	0.195	2.380	-71.228	-15.320	-77.77	23.60	-23.01	-73.990	-23.618	104.762	-0.76880	0.55728	-0.30002	0.09085	29.1	13111	100
2025-3-27 20:16:53.389	WT901BLE68-01(48591DE3C19B)	-0.310	-1.529	0.162	21.423	-40.039	-10.681	-77.42	23.38	-22.59	-73.990	-23.618	104.762	-0.76880	0.55728	-0.30002	0.09085	29.1	13111	100
2025-3-27 20:16:53.389	WT901BLE68-01(48591DE3C19B)	-0.266	-1.529	0.162	21.423	-40.039	-10.681	-77.06	23.16	-22.18	-73.990	-23.618	104.762	-0.76880	0.55728	-0.30002	0.09085	29.1	13111	100
2025-3-27 20:16:53.389	WT901BLE68-01(48591DE3C19B)	-0.266	-1.203	0.134	26.855	-2.563	-3.601	-76.82	23.08	-22.14	-73.990	-23.618	104.762	-0.76880	0.55728	-0.30002	0.09085	29.1	13111	100
2025-3-27 20:16:53.390	WT901BLE68-01(48591DE3C19B)	-0.184	-1.203	0.134	26.855	-2.563	-3.601	-76.57	23.01	-22.11	-73.990	-23.618	104.762	-0.76880	0.55728	-0.30002	0.09085	29.1	13111	100
2025-3-27 20:16:53.390	WT901BLE68-01(48591DE3C19B)	-0.184	-0.958	0.144	24.658	27.100	9.155	-76.45	23.12	-22.36	-73.990	-23.618	104.762	-0.76880	0.55728	-0.30002	0.09085	29.1	13111	100
2025-3-27 20:16:53.420	WT901BLE68-01(48591DE3C19B)	-0.170	-0.958	0.144	24.658	27.100	9.155	-76.34	23.24	-22.60	-73.990	-23.618	104.762	-0.76880	0.55728	-0.30002	0.09085	29.1	13111	100
2025-3-27 20:16:53.420	WT901BLE68-01(48591DE3C19B)	-0.170	-0.766	0.174	10.986	41.260	20.996	-76.41	23.49	-22.97	-73.990	-23.618	104.762	-0.76880	0.55728	-0.30002	0.09085	29.1	13111	100
2025-3-27 20:16:53.420	WT901BLE68-01(48591DE3C19B)	-0.165	-0.766	0.174	10.986	41.260	20.996	-76.48	23.75	-23.35	-73.990	-23.618	104.762	-0.76880	0.55728	-0.30002	0.09085	29.1	13111	100
2025-3-27 20:16:53.420	WT901BLE68-01(48591DE3C19B)	-0.165	-0.744	0.188	-6.592	36.133	20.447	-76.71	23.98	-23.66	-73.990	-23.618	104.762	-0.76880	0.55728	-0.30002	0.09085	29.1	13111	100
2025-3-27 20:16:53.449	WT901BLE68-01(48591DE3C19B)	-0.204	-0.744	0.188	-6.592	36.133	20.447	-76.93	24.21	-23.98	-73.990	-23.618	104.762	-0.76880	0.55728	-0.30002	0.09085	29.1	13111	100
2025-3-27 20:16:53.450	WT901BLE68-01(48591DE3C19B)	-0.204	-0.758	0.186	-11.902	30.151	15.381	-77.18	24.37	-24.25	-73.990	-23.618	104.762	-0.76880	0.55728	-0.30002	0.09085	29.1	13111	100
2025-3-27 20:16:53.450	WT901BLE68-01(48591DE3C19B)	-0.269	-0.758	0.186	-11.902	30.151	15.381	-77.44	24.54	-24.52	-73.990	-23.618	104.762	-0.76880	0.55728	-0.30002	0.09085	29.1	13111	100
2025-3-27 20:16:53.450	WT901BLE68-01(48591DE3C19B)	-0.269	-0.719	0.174	-11.536	21.545	11.963	-77.65	24.65	-24.71	-73.990	-23.618	104.762	-0.76880	0.55728	-0.30002	0.09085	29.1	13111	100
2025-3-27 20:16:53.507	WT901BLE68-01(48591DE3C19B)	-0.321	-0.719	0.174	-11.536	21.545	11.963	-77.86	24.76	-24.90	-73.990	-23.618	104.762	-0.76880	0.55728	-0.30002	0.09085	29.1	13111	100
2025-3-27 20:16:53.507	WT901BLE68-01(48591DE3C19B)	-0.321	-0.693	0.158	-9.399	9.033	7.202	-77.99	24.80	-24.96	-73.990	-23.618	104.762	-0.76880	0.55728	-0.30002	0.09085	29.1	13111	100
2025-3-27 20:16:53.507	WT901BLE68-01(48591DE3C19B)	-0.350	-0.693	0.158	-9.399	9.033	7.202	-78.13	24.83	-25.03	-73.990	-23.618	104.762	-0.76880	0.55728	-0.30002	0.09085	29.1	13111	100
2025-3-27 20:16:53.507	WT901BLE68-01(48591DE3C19B)	-0.350	-0.681	0.149	-4.089	-3.967	3.479	-78.15	24.82	-24.96	-73.990	-23.618	104.762	-0.76880	0.55728	-0.30002	0.09085	29.1	13111	100
2025-3-27 20:16:53.537	WT901BLE68-01(48591DE3C19B)	-0.311	-0.681	0.149	-4.089	-3.967	3.479	-78.17	24.81	-24.90	-73.990	-23.618	104.762	-0.76965	0.56528	-0.29504	0.03076	29.1	13111	100
2025-3-27 20:16:53.538	WT901BLE68-01(48591DE3C19B)	-0.311	-0.673	0.163	3.845	-12.756	4.395	-78.08	24.79	-24.73	-73.990	-23.618	104.762	-0.76965	0.56528	-0.29504	0.03076	29.1	13111	100
2025-3-27 20:16:53.538	WT901BLE68-01(48591DE3C19B)	-0.260	-0.673	0.163	3.845	-12.756	4.395	-77.98	24.77	-24.57	-73.990	-23.618	104.762	-0.76965	0.56528	-0.29504	0.03076	29.1	13111	100
2025-3-27 20:16:53.538	WT901BLE68-01(48591DE3C19B)	-0.260	-0.665	0.167	14.038	-13.672	6.714	-77.78	24.77	-24.39	-73.990	-23.618	104.762	-0.76965	0.56528	-0.29504	0.03076	29.1	13111	100
2025-3-27 20:16:53.566	WT901BLE68-01(48591DE3C19B)	-0.235	-0.665	0.167	14.038	-13.672	6.714	-77.57	24.78	-24.21	-73.990	-23.618	104.762	-0.76965	0.56528	-0.29504	0.03076	29.1	13111	100
2025-3-27 20:16:53.566	WT901BLE68-01(48591DE3C19B)	-0.235	-0.637	0.151	24.170	-8.057	8.850	-77.29	24.82	-24.09	-73.990	-23.618	104.762	-0.76965	0.56528	-0.29504	0.03076	29.1	13111	100
2025-3-27 20:16:53.567	WT901BLE68-01(48591DE3C19B)	-0.243	-0.637	0.151	24.170	-8.057	8.850	-77.00	24.85	-23.97	-73.990	-23.618	104.762	-0.76965	0.56528	-0.29504	0.03076	29.1	13111	100
2025-3-27 20:16:53.567	WT901BLE68-01(48591DE3C19B)	-0.323	-0.546	0.178	34.668	-4.883	17.639	-76.62	24.98	-23.86	-73.990	-23.618	104.762	-0.76965	0.56528	-0.29504	0.03076	29.1	13111	100
2025-3-27 20:16:53.628	WT901BLE68-01(48591DE3C19B)	-0.323	-0.467	0.268	38.513	-6.531	35.950	-76.21	25.20	-23.71	-73.990	-23.618	104.762	-0.76965	0.56528	-0.29504	0.03076	29.1	13111	100
2025-3-27 20:16:53.628	WT901BLE68-01(48591DE3C19B)	-0.393	-0.467	0.268	38.513	-6.531	35.950	-75.75	25.50	-23.53	-73.990	-23.618	104.762	-0.76965	0.56528	-0.29504	0.03076	29.1	13111	100
2025-3-27 20:16:53.628	WT901BLE68-01(48591DE3C19B)	-0.393	-0.496	0.300	32.410	-11.414	55.359	-75.29	25.90	-23.29	-73.990	-23.618	104.762	-0.76965	0.56528	-0.29504	0.03076	29.1	13111	100
2025-3-27 20:16:53.628	WT901BLE68-01(48591DE3C19B)	-0.347	-0.496	0.300	32.410	-11.414	55.359	-74.83	26.39	-22.99	-73.990	-23.618	104.762	-0.76965	0.56528	-0.29504	0.03076	29.1	13111	100
2025-3-27 20:16:53.665	WT901BLE68-01(48591DE3C19B)	-0.347	-0.620	0.249	24.719	-9.583	68.726	-74.40	26.94	-22.68	-73.990	-23.618	104.762	-0.76965	0.56528	-0.29504	0.03076	29.1	13111	100
2025-3-27 20:16:53.665	WT901BLE68-01(48591DE3C19B)	-0.303	-0.620	0.249	24.719	-9.583	68.726	-74.00	27.56	-22.35	-73.990	-23.618	104.762	-0.76965	0.56528	-0.29504	0.03076	29.1	13111	100
2025-3-27 20:16:53.665	WT901BLE68-01(48591DE3C19B)	-0.303	-0.807	0.199	15.076	7.874	64.148	-73.69	28.17	-22.12	-73.990	-23.618	104.762	-0.76965	0.56528	-0.29504	0.03076	29.1	13111	100
2025-3-27 20:16:53.665	WT901BLE68-01(48591DE3C19B)	-0.452	-0.807	0.199	15.076	7.874	64.148	-73.47	28.78	-21.98	-73.990	-23.618	104.762	-0.76965	0.56528	-0.29504	0.03076	29.1	13111	100
2025-3-27 20:16:53.689	WT901BLE68-01(48591DE3C19B)	-0.452	-1.146	0.158	8.118	28.076	31.494	-73.38	29.26	-22.01	-73.990	-23.618	104.762	-0.76965	0.56528	-0.29504	0.03076	29.1	13111	100
2025-3-27 20:16:53.689	WT901BLE68-01(48591DE3C19B)	-0.686	-1.146	0.158	8.118	28.076	31.494	-73.40	29.60	-22.20	-73.990	-23.618	104.762	-0.76965	0.56528	-0.29504	0.03076	29.1	13111	100
2025-3-27 20:16:53.689	WT901BLE68-01(48591DE3C19B)	-0.686	-1.508	0.258	12.146	25.391	-19.470	-73.45	29.70	-22.46	-72.912	-16.170	108.878	-0.76965	0.56528	-0.29504	0.03076	29.1	13111	100
2025-3-27 20:16:53.689	WT901BLE68-01(48591DE3C19B)	-0.857	-1.508	0.258	12.146	25.391	-19.470	-73.52	29.54	-22.80	-72.912	-16.170	108.878	-0.76965	0.56528	-0.29504	0.03076	29.1	13111	100
2025-3-27 20:16:53.748	WT901BLE68-01(48591DE3C19B)	-0.857	-1.564	0.467	16.907	13.977	-56.946	-73.55	29.20	-23.12	-72.912	-16.170	108.878	-0.76965	0.56528	-0.29504	0.03076	29.1	13111	100
2025-3-27 20:16:53.748	WT901BLE68-01(48591DE3C19B)	-0.965	-1.564	0.467	16.907	13.977	-56.946	-73.56	28.66	-23.44	-72.912	-16.170	108.878	-0.76965	0.56528	-0.29504	0.03076	29.1	13111	100
2025-3-27 20:16:53.748	WT901BLE68-01(48591DE3C19B)	-0.965	-1.228	0.511	23.926	29.724	-72.571	-73.58	28.08	-23.88	-72.912	-16.170	108.878	-0.76965	0.56528	-0.29504	0.03076	29.1	13111	100
2025-3-27 20:16:53.748	WT901BLE68-01(48591DE3C19B)	-0.848	-1.228	0.511	23.926	29.724	-72.571	-73.61	27.47	-24.42	-72.912	-16.170	108.878	-0.76965	0.56528	-0.29504	0.03076	29.1	13111	100
2025-3-27 20:16:53.777	WT901BLE68-01(48591DE3C19B)	-0.848	-1.039	0.480	21.118	60.608	-58.044	-73.70	26.97	-25.10	-72.912	-16.170	108.878	-0.76965	0.56528	-0.29504	0.03076	29.1	13111	100
2025-3-27 20:16:53.777	WT901BLE68-01(48591DE3C19B)	-0.721	-1.039	0.480	21.118	60.608	-58.044	-73.86	26.59	-25.92	-72.912	-16.170	108.878	-0.76965	0.56528	-0.29504	0.03076	29.1	13111	100
2025-3-27 20:16:53.777	WT901BLE68-01(48591DE3C19B)	-0.721	-1.026	0.390	16.846	62.866	-57.861	-74.03	26.22	-26.74	-72.912	-16.170	108.878	-0.76965	0.56528	-0.29504	0.03076	29.1	13111	100
2025-3-27 20:16:53.777	WT901BLE68-01(48591DE3C19B)	-0.684	-1.026	0.390	16.846	62.866	-57.861	-74.22	25.86	-27.58	-72.912	-16.170	108.878	-0.76965	0.56528	-0.29504	0.03076	29.1	13111	100
2025-3-27 20:16:53.807	WT901BLE68-01(48591DE3C19B)	-0.684	-0.812	0.283	14.099	26.001	-37.964	-74.32	25.55	-28.19	-72.912	-16.170	108.878	-0.76965	0.56528	-0.29504	0.03076	29.1	13111	100
2025-3-27 20:16:53.808	WT901BLE68-01(48591DE3C19B)	-0.649	-0.812	0.283	14.099	26.001	-37.964	-74.33	25.29	-28.56	-72.912	-16.170	108.878	-0.76965	0.56528	-0.29504	0.03076	29.1	13111	100
2025-3-27 20:16:53.808	WT901BLE68-01(48591DE3C19B)	-0.649	-0.808	0.192	-14.771	-40.649	-24.170	-74.33	25.01	-28.57	-72.912	-16.170	108.878	-0.76965	0.56528	-0.29504	0.03076	29.1	13111	100
2025-3-27 20:16:53.808	WT901BLE68-01(48591DE3C19B)	-0.464	-0.808	0.192	-14.771	-40.649	-24.170	-74.32	24.71	-28.20	-72.912	-16.170	108.878	-0.76965	0.56528	-0.29504	0.03076	29.1	13111	100
2025-3-27 20:16:53.869	WT901BLE68-01(48591DE3C19B)	-0.464	-0.944	0.142	-19.653	-58.228	-16.296	-74.28	24.43	-27.72	-72.912	-16.170	108.878	-0.76965	0.56528	-0.29504	0.03076	29.1	13111	100
2025-3-27 20:16:53.869	WT901BLE68-01(48591DE3C19B)	-0.421	-0.944	0.142	-19.653	-58.228	-16.296	-74.25	24.16	-27.14	-72.912	-16.170	108.878	-0.76965	0.56528	-0.29504	0.03076	29.1	13111	100
2025-3-27 20:16:53.869	WT901BLE68-01(48591DE3C19B)	-0.421	-0.884	0.184	-9.460	-38.879	-5.310	-74.20	23.97	-26.65	-72.912	-16.170	108.878	-0.76965	0.56528	-0.29504	0.03076	29.1	13111	100
2025-3-27 20:16:53.869	WT901BLE68-01(48591DE3C19B)	-0.359	-0.884	0.184	-9.460	-38.879	-5.310	-74.13	23.86	-26.25	-72.912	-16.170	108.878	-0.76965	0.56528	-0.29504	0.03076	29.1	13111	100
2025-3-27 20:16:53.900	WT901BLE68-01(48591DE3C19B)	-0.359	-0.753	0.251	-4.272	-8.423	-3.723	-74.11	23.79	-26.00	-72.912	-16.170	108.878	-0.76965	0.56528	-0.29504	0.03076	29.1	13111	100
2025-3-27 20:16:53.900	WT901BLE68-01(48591DE3C19B)	-0.309	-0.753	0.251	-4.272	-8.423	-3.723	-74.12	23.76	-25.91	-72.912	-16.170	108.878	-0.76965	0.56528	-0.29504	0.03076	29.1	13111	100
2025-3-27 20:16:53.900	WT901BLE68-01(48591DE3C19B)	-0.309	-0.618	0.300	-1.343	26.611	2.625	-74.19	23.82	-25.99	-72.912	-16.170	108.878	-0.76965	0.56528	-0.29504	0.03076	29.1	13111	100
2025-3-27 20:16:53.900	WT901BLE68-01(48591DE3C19B)	-0.405	-0.618	0.300	-1.343	26.611	2.625	-74.31	23.94	-26.25	-72.912	-16.170	108.878	-0.78769	0.53781	-0.29520	0.05502	29.1	13111	100
2025-3-27 20:16:53.929	WT901BLE68-01(48591DE3C19B)	-0.405	-0.534	0.315	1.099	50.049	7.629	-74.46	24.13	-26.63	-72.912	-16.170	108.878	-0.78769	0.53781	-0.29520	0.05502	29.1	13111	100
2025-3-27 20:16:53.929	WT901BLE68-01(48591DE3C19B)	-0.501	-0.534	0.315	1.099	50.049	7.629	-74.64	24.37	-27.13	-72.912	-16.170	108.878	-0.78769	0.53781	-0.29520	0.05502	29.1	13111	100
2025-3-27 20:16:53.929	WT901BLE68-01(48591DE3C19B)	-0.501	-0.454	0.289	-1.587	47.119	9.827	-74.82	24.61	-27.60	-72.912	-16.170	108.878	-0.78769	0.53781	-0.29520	0.05502	29.1	13111	100
2025-3-27 20:16:53.929	WT901BLE68-01(48591DE3C19B)	-0.511	-0.454	0.289	-1.587	47.119	9.827	-75.00	24.86	-28.06	-72.912	-16.170	108.878	-0.78769	0.53781	-0.29520	0.05502	29.1	13111	100
2025-3-27 20:16:54.18	WT901BLE68-01(48591DE3C19B)	-0.511	-0.344	0.262	-6.287	27.527	15.442	-75.16	25.13	-28.42	-72.912	-16.170	108.878	-0.78769	0.53781	-0.29520	0.05502	29.1	13111	100
2025-3-27 20:16:54.18	WT901BLE68-01(48591DE3C19B)	-0.477	-0.344	0.262	-6.287	27.527	15.442	-75.29	25.39	-28.66	-72.912	-16.170	108.878	-0.78769	0.53781	-0.29520	0.05502	29.1	13111	100
2025-3-27 20:16:54.18	WT901BLE68-01(48591DE3C19B)	-0.477	-0.239	0.229	-16.357	-5.005	26.489	-75.39	25.68	-28.71	-72.912	-16.170	108.878	-0.78769	0.53781	-0.29520	0.05502	29.1	13111	100
2025-3-27 20:16:54.18	WT901BLE68-01(48591DE3C19B)	-0.383	-0.239	0.229	-16.357	-5.005	26.489	-75.44	25.98	-28.58	-72.912	-16.170	108.878	-0.78769	0.53781	-0.29520	0.05502	29.1	13111	100
2025-3-27 20:16:54.20	WT901BLE68-01(48591DE3C19B)	-0.383	-0.249	0.170	-32.593	-40.161	35.339	-75.49	26.30	-28.24	-72.912	-16.170	108.878	-0.78769	0.53781	-0.29520	0.05502	29.1	13111	100
2025-3-27 20:16:54.20	WT901BLE68-01(48591DE3C19B)	-0.319	-0.249	0.170	-32.593	-40.161	35.339	-75.51	26.61	-27.70	-72.912	-16.170	108.878	-0.78769	0.53781	-0.29520	0.05502	29.1	13111	100
2025-3-27 20:16:54.20	WT901BLE68-01(48591DE3C19B)	-0.319	-0.445	0.129	-44.739	-60.669	34.729	-75.55	26.89	-27.05	-72.912	-16.170	108.878	-0.78769	0.53781	-0.29520	0.05502	29.1	13111	100
2025-3-27 20:16:54.20	WT901BLE68-01(48591DE3C19B)	-0.358	-0.445	0.129	-44.739	-60.669	34.729	-75.60	27.15	-26.29	-72.912	-16.170	108.878	-0.78769	0.53781	-0.29520	0.05502	29.1	13111	100
2025-3-27 20:16:54.49	WT901BLE68-01(48591DE3C19B)	-0.358	-0.719	0.123	-49.561	-71.106	26.428	-75.65	27.34	-25.48	-72.912	-16.170	108.878	-0.78769	0.53781	-0.29520	0.05502	29.1	13111	100
2025-3-27 20:16:54.49	WT901BLE68-01(48591DE3C19B)	-0.407	-0.719	0.123	-49.561	-71.106	26.428	-75.72	27.48	-24.61	-72.912	-16.170	108.878	-0.78769	0.53781	-0.29520	0.05502	29.1	13111	100
2025-3-27 20:16:54.49	WT901BLE68-01(48591DE3C19B)	-0.407	-1.133	0.158	-54.504	-83.557	12.939	-75.79	27.45	-23.65	-72.912	-16.170	108.878	-0.78769	0.53781	-0.29520	0.05502	29.1	13111	100
2025-3-27 20:16:54.50	WT901BLE68-01(48591DE3C19B)	-0.413	-1.133	0.158	-54.504	-83.557	12.939	-75.88	27.40	-22.69	-72.912	-16.170	108.878	-0.78769	0.53781	-0.29520	0.05502	29.1	13111	100
2025-3-27 20:16:54.108	WT901BLE68-01(48591DE3C19B)	-0.413	-1.671	0.161	-42.236	-83.435	-4.944	-75.89	27.16	-21.77	-72.912	-16.170	108.878	-0.78769	0.53781	-0.29520	0.05502	29.1	13111	100
2025-3-27 20:16:54.108	WT901BLE68-01(48591DE3C19B)	-0.346	-1.671	0.161	-42.236	-83.435	-4.944	-75.90	26.91	-20.86	-72.912	-16.170	108.878	-0.78769	0.53781	-0.29520	0.05502	29.1	13111	100
2025-3-27 20:16:54.108	WT901BLE68-01(48591DE3C19B)	-0.346	-1.715	0.201	-12.512	-59.326	-10.254	-75.77	26.65	-20.23	-72.912	-16.170	108.878	-0.78769	0.53781	-0.29520	0.05502	29.1	13111	100
2025-3-27 20:16:54.108	WT901BLE68-01(48591DE3C19B)	-0.351	-1.715	0.201	-12.512	-59.326	-10.254	-75.64	26.38	-19.60	-72.912	-16.170	108.878	-0.78769	0.53781	-0.29520	0.05502	29.1	13111	100
2025-3-27 20:16:54.137	WT901BLE68-01(48591DE3C19B)	-0.351	-1.423	0.239	5.249	-25.513	-0.793	-75.48	26.27	-19.31	-69.482	-18.032	111.524	-0.78769	0.53781	-0.29520	0.05502	29.1	13111	100
2025-3-27 20:16:54.137	WT901BLE68-01(48591DE3C19B)	-0.323	-1.423	0.239	5.249	-25.513	-0.793	-75.33	26.16	-19.02	-69.482	-18.032	111.524	-0.78769	0.53781	-0.29520	0.05502	29.1	13111	100
2025-3-27 20:16:54.137	WT901BLE68-01(48591DE3C19B)	-0.323	-1.277	0.231	7.141	7.874	7.019	-75.31	26.21	-19.07	-69.482	-18.032	111.524	-0.78769	0.53781	-0.29520	0.05502	29.1	13111	100
2025-3-27 20:16:54.137	WT901BLE68-01(48591DE3C19B)	-0.308	-1.277	0.231	7.141	7.874	7.019	-75.29	26.26	-19.12	-69.482	-18.032	111.524	-0.78769	0.53781	-0.29520	0.05502	29.1	13111	100
2025-3-27 20:16:54.228	WT901BLE68-01(48591DE3C19B)	-0.308	-1.215	0.210	7.568	26.855	16.479	-75.35	26.43	-19.35	-69.482	-18.032	111.524	-0.78769	0.53781	-0.29520	0.05502	29.1	13111	100
2025-3-27 20:16:54.228	WT901BLE68-01(48591DE3C19B)	-0.259	-1.215	0.210	7.568	26.855	16.479	-75.41	26.61	-19.58	-69.482	-18.032	111.524	-0.78769	0.53781	-0.29520	0.05502	29.1	13111	100
2025-3-27 20:16:54.228	WT901BLE68-01(48591DE3C19B)	-0.259	-1.116	0.183	5.127	29.785	23.071	-75.50	26.85	-19.82	-69.482	-18.032	111.524	-0.78769	0.53781	-0.29520	0.05502	29.1	13111	100
2025-3-27 20:16:54.228	WT901BLE68-01(48591DE3C19B)	-0.255	-1.116	0.183	5.127	29.785	23.071	-75.59	27.09	-20.07	-69.482	-18.032	111.524	-0.78769	0.53781	-0.29520	0.05502	29.1	13111	100
2025-3-27 20:16:54.230	WT901BLE68-01(48591DE3C19B)	-0.255	-1.008	0.173	3.662	32.104	21.667	-75.71	27.31	-20.34	-69.482	-18.032	111.524	-0.78769	0.53781	-0.29520	0.05502	29.1	13111	100
2025-3-27 20:16:54.230	WT901BLE68-01(48591DE3C19B)	-0.313	-1.008	0.173	3.662	32.104	21.667	-75.83	27.54	-20.62	-69.482	-18.032	111.524	-0.78769	0.53781	-0.29520	0.05502	29.1	13111	100
2025-3-27 20:16:54.230	WT901BLE68-01(48591DE3C19B)	-0.313	-0.874	0.184	7.935	30.701	13.916	-75.91	27.68	-20.90	-69.482	-18.032	111.524	-0.78769	0.53781	-0.29520	0.05502	29.1	13111	100
2025-3-27 20:16:54.230	WT901BLE68-01(48591DE3C19B)	-0.283	-0.874	0.184	7.935	30.701	13.916	-75.99	27.82	-21.19	-69.482	-18.032	111.524	-0.78769	0.53781	-0.29520	0.05502	29.1	13111	100
2025-3-27 20:16:54.256	WT901BLE68-01(48591DE3C19B)	-0.283	-0.685	0.195	14.282	28.320	10.254	-76.00	27.92	-21.46	-69.482	-18.032	111.524	-0.78769	0.53781	-0.29520	0.05502	29.1	13111	100
2025-3-27 20:16:54.257	WT901BLE68-01(48591DE3C19B)	-0.263	-0.685	0.195	14.282	28.320	10.254	-76.01	28.03	-21.72	-69.482	-18.032	111.524	-0.78769	0.53781	-0.29520	0.05502	29.1	13111	100
2025-3-27 20:16:54.257	WT901BLE68-01(48591DE3C19B)	-0.263	-0.528	0.208	21.362	36.987	11.475	-75.99	28.17	-22.08	-69.482	-18.032	111.524	-0.78769	0.53781	-0.29520	0.05502	29.1	13111	100
2025-3-27 20:16:54.257	WT901BLE68-01(48591DE3C19B)	-0.315	-0.528	0.208	21.362	36.987	11.475	-75.96	28.31	-22.45	-69.482	-18.032	111.524	-0.78769	0.53781	-0.29520	0.05502	29.1	13111	100
2025-3-27 20:16:54.318	WT901BLE68-01(48591DE3C19B)	-0.315	-0.425	0.197	28.687	51.697	16.113	-75.93	28.53	-22.96	-69.482	-18.032	111.524	-0.78769	0.53781	-0.29520	0.05502	29.1	13111	100
2025-3-27 20:16:54.318	WT901BLE68-01(48591DE3C19B)	-0.353	-0.425	0.197	28.687	51.697	16.113	-75.90	28.76	-23.46	-69.482	-18.032	111.524	-0.78769	0.53781	-0.29520	0.05502	29.1	13111	100
2025-3-27 20:16:54.318	WT901BLE68-01(48591DE3C19B)	-0.353	-0.343	0.190	34.241	59.875	26.184	-75.84	29.11	-24.04	-69.482	-18.032	111.524	-0.78769	0.53781	-0.29520	0.05502	29.1	13111	100
2025-3-27 20:16:54.319	WT901BLE68-01(48591DE3C19B)	-0.363	-0.343	0.190	34.241	59.875	26.184	-75.78	29.48	-24.61	-69.482	-18.032	111.524	-0.78769	0.53781	-0.29520	0.05502	29.1	13111	100
2025-3-27 20:16:54.347	WT901BLE68-01(48591DE3C19B)	-0.181	-0.280	0.168	33.875	56.274	39.307	-75.69	29.96	-25.11	-69.482	-18.032	111.524	-0.78769	0.53781	-0.29520	0.05502	29.1	13111	100
2025-3-27 20:16:54.347	WT901BLE68-01(48591DE3C19B)	-0.412	-0.140	0.084	33.875	56.274	39.307	-75.60	30.45	-25.61	-69.482	-18.032	111.524	-0.77908	0.53067	-0.33344	0.01202	29.1	13111	100
2025-3-27 20:16:54.347	WT901BLE68-01(48591DE3C19B)	-0.412	-0.301	0.127	23.193	41.870	47.180	-75.53	30.99	-25.93	-69.482	-18.032	111.524	-0.77908	0.53067	-0.33344	0.01202	29.1	13111	100
2025-3-27 20:16:54.347	WT901BLE68-01(48591DE3C19B)	-0.458	-0.301	0.127	23.193	41.870	47.180	-75.45	31.53	-26.25	-69.482	-18.032	111.524	-0.77908	0.53067	-0.33344	0.01202	29.1	13111	100
2025-3-27 20:16:54.377	WT901BLE68-01(48591DE3C19B)	-0.458	-0.492	0.126	7.507	21.423	49.011	-75.42	32.05	-26.33	-69.482	-18.032	111.524	-0.77908	0.53067	-0.33344	0.01202	29.1	13111	100
2025-3-27 20:16:54.377	WT901BLE68-01(48591DE3C19B)	-0.506	-0.492	0.126	7.507	21.423	49.011	-75.38	32.57	-26.41	-69.482	-18.032	111.524	-0.77908	0.53067	-0.33344	0.01202	29.1	13111	100
2025-3-27 20:16:54.378	WT901BLE68-01(48591DE3C19B)	-0.506	-0.736	0.154	-2.380	7.263	41.382	-75.38	32.98	-26.36	-69.482	-18.032	111.524	-0.77908	0.53067	-0.33344	0.01202	29.1	13111	100
2025-3-27 20:16:54.378	WT901BLE68-01(48591DE3C19B)	-0.565	-0.736	0.154	-2.380	7.263	41.382	-75.37	33.39	-26.30	-69.482	-18.032	111.524	-0.77908	0.53067	-0.33344	0.01202	29.1	13111	100
2025-3-27 20:16:54.437	WT901BLE68-01(48591DE3C19B)	-0.565	-1.044	0.162	-11.475	-0.488	18.799	-75.45	33.56	-26.22	-69.482	-18.032	111.524	-0.77908	0.53067	-0.33344	0.01202	29.1	13111	100
2025-3-27 20:16:54.438	WT901BLE68-01(48591DE3C19B)	-0.615	-1.044	0.162	-11.475	-0.488	18.799	-75.54	33.73	-26.14	-69.482	-18.032	111.524	-0.77908	0.53067	-0.33344	0.01202	29.1	13111	100
2025-3-27 20:16:54.438	WT901BLE68-01(48591DE3C19B)	-0.615	-1.526	0.214	-11.902	-4.089	-21.912	-75.67	33.48	-26.14	-69.482	-18.032	111.524	-0.77908	0.53067	-0.33344	0.01202	29.1	13111	100
2025-3-27 20:16:54.438	WT901BLE68-01(48591DE3C19B)	-0.686	-1.526	0.214	-11.902	-4.089	-21.912	-75.82	33.23	-26.14	-69.482	-18.032	111.524	-0.77908	0.53067	-0.33344	0.01202	29.1	13111	100
2025-3-27 20:16:54.470	WT901BLE68-01(48591DE3C19B)	-0.686	-1.783	0.342	-0.977	11.292	-56.274	-76.00	32.68	-26.42	-69.482	-18.032	111.524	-0.77908	0.53067	-0.33344	0.01202	29.1	13111	100
2025-3-27 20:16:54.470	WT901BLE68-01(48591DE3C19B)	-0.904	-1.783	0.342	-0.977	11.292	-56.274	-76.18	32.12	-26.70	-69.482	-18.032	111.524	-0.77908	0.53067	-0.33344	0.01202	29.1	13111	100
2025-3-27 20:16:54.470	WT901BLE68-01(48591DE3C19B)	-0.904	-1.354	0.464	11.902	37.048	-68.848	-76.39	31.51	-27.30	-69.482	-18.032	111.524	-0.77908	0.53067	-0.33344	0.01202	29.1	13111	100
2025-3-27 20:16:54.470	WT901BLE68-01(48591DE3C19B)	-0.823	-1.354	0.464	11.902	37.048	-68.848	-76.59	30.90	-27.88	-69.482	-18.032	111.524	-0.77908	0.53067	-0.33344	0.01202	29.1	13111	100
2025-3-27 20:16:54.499	WT901BLE68-01(48591DE3C19B)	-0.823	-0.956	0.505	5.310	46.509	-57.861	-76.88	30.43	-28.55	-69.482	-18.032	111.524	-0.77908	0.53067	-0.33344	0.01202	29.1	13111	100
2025-3-27 20:16:54.499	WT901BLE68-01(48591DE3C19B)	-0.760	-0.956	0.505	5.310	46.509	-57.861	-77.15	29.97	-29.21	-69.482	-18.032	111.524	-0.77908	0.53067	-0.33344	0.01202	29.1	13111	100
2025-3-27 20:16:54.499	WT901BLE68-01(48591DE3C19B)	-0.760	-0.859	0.428	-2.319	47.180	-52.979	-77.48	29.56	-29.86	-73.794	-11.172	104.762	-0.77908	0.53067	-0.33344	0.01202	29.1	13111	100
2025-3-27 20:16:54.499	WT901BLE68-01(48591DE3C19B)	-0.755	-0.859	0.428	-2.319	47.180	-52.979	-77.79	29.15	-30.50	-73.794	-11.172	104.762	-0.77908	0.53067	-0.33344	0.01202	29.1	13111	100
2025-3-27 20:16:54.588	WT901BLE68-01(48591DE3C19B)	-0.626	-0.751	0.279	-12.024	9.888	-49.072	-77.99	28.71	-30.71	-73.794	-11.172	104.762	-0.77908	0.53067	-0.33344	0.01202	29.1	13111	100
2025-3-27 20:16:54.589	WT901BLE68-01(48591DE3C19B)	-0.626	-0.704	0.175	-29.358	-57.129	-39.978	-78.09	28.26	-30.54	-73.794	-11.172	104.762	-0.77908	0.53067	-0.33344	0.01202	29.1	13111	100
2025-3-27 20:16:54.589	WT901BLE68-01(48591DE3C19B)	-0.463	-0.704	0.175	-29.358	-57.129	-39.978	-78.10	27.78	-29.99	-73.794	-11.172	104.762	-0.77908	0.53067	-0.33344	0.01202	29.1	13111	100
2025-3-27 20:16:54.589	WT901BLE68-01(48591DE3C19B)	-0.463	-0.767	0.120	-39.307	-95.398	-35.400	-78.06	27.30	-29.22	-73.794	-11.172	104.762	-0.77908	0.53067	-0.33344	0.01202	29.1	13111	100
2025-3-27 20:16:54.590	WT901BLE68-01(48591DE3C19B)	-0.395	-0.767	0.120	-39.307	-95.398	-35.400	-77.99	26.79	-28.25	-73.794	-11.172	104.762	-0.77908	0.53067	-0.33344	0.01202	29.1	13111	100
2025-3-27 20:16:54.590	WT901BLE68-01(48591DE3C19B)	-0.395	-0.832	0.140	-33.997	-86.426	-27.893	-77.92	26.33	-27.31	-73.794	-11.172	104.762	-0.77908	0.53067	-0.33344	0.01202	29.1	13111	100
2025-3-27 20:16:54.590	WT901BLE68-01(48591DE3C19B)	-0.362	-0.832	0.140	-33.997	-86.426	-27.893	-77.86	25.92	-26.42	-73.794	-11.172	104.762	-0.77908	0.53067	-0.33344	0.01202	29.1	13111	100
2025-3-27 20:16:54.590	WT901BLE68-01(48591DE3C19B)	-0.362	-0.788	0.185	-21.667	-48.889	-24.719	-77.83	25.56	-25.74	-73.794	-11.172	104.762	-0.77908	0.53067	-0.33344	0.01202	29.1	13111	100
2025-3-27 20:16:54.647	WT901BLE68-01(48591DE3C19B)	-0.329	-0.788	0.185	-21.667	-48.889	-24.719	-77.83	25.25	-25.25	-73.794	-11.172	104.762	-0.77908	0.53067	-0.33344	0.01202	29.1	13111	100
2025-3-27 20:16:54.647	WT901BLE68-01(48591DE3C19B)	-0.329	-0.661	0.224	-9.644	-8.484	-18.066	-77.86	25.02	-24.98	-73.794	-11.172	104.762	-0.77908	0.53067	-0.33344	0.01202	29.1	13111	100
2025-3-27 20:16:54.648	WT901BLE68-01(48591DE3C19B)	-0.310	-0.661	0.224	-9.644	-8.484	-18.066	-77.92	24.86	-24.91	-73.794	-11.172	104.762	-0.77908	0.53067	-0.33344	0.01202	29.1	13111	100
2025-3-27 20:16:54.648	WT901BLE68-01(48591DE3C19B)	-0.310	-0.488	0.235	0.732	17.395	-10.132	-77.98	24.76	-24.98	-73.794	-11.172	104.762	-0.77908	0.53067	-0.33344	0.01202	29.1	13111	100
2025-3-27 20:16:54.680	WT901BLE68-01(48591DE3C19B)	-0.313	-0.488	0.235	0.732	17.395	-10.132	-78.04	24.73	-25.18	-73.794	-11.172	104.762	-0.77908	0.53067	-0.33344	0.01202	29.1	13111	100
2025-3-27 20:16:54.680	WT901BLE68-01(48591DE3C19B)	-0.313	-0.308	0.212	2.380	26.978	-0.183	-78.10	24.76	-25.42	-73.794	-11.172	104.762	-0.77908	0.53067	-0.33344	0.01202	29.1	13111	100
2025-3-27 20:16:54.680	WT901BLE68-01(48591DE3C19B)	-0.304	-0.308	0.212	2.380	26.978	-0.183	-78.16	24.85	-25.70	-73.794	-11.172	104.762	-0.77908	0.53067	-0.33344	0.01202	29.1	13111	100
2025-3-27 20:16:54.680	WT901BLE68-01(48591DE3C19B)	-0.304	-0.268	0.148	-7.507	24.841	10.681	-78.26	24.99	-25.96	-73.794	-11.172	104.762	-0.77908	0.53067	-0.33344	0.01202	29.1	13111	100
2025-3-27 20:16:54.709	WT901BLE68-01(48591DE3C19B)	-0.325	-0.268	0.148	-7.507	24.841	10.681	-78.40	25.19	-26.19	-73.794	-11.172	104.762	-0.77908	0.53067	-0.33344	0.01202	29.1	13111	100
2025-3-27 20:16:54.709	WT901BLE68-01(48591DE3C19B)	-0.325	-0.412	0.126	-19.104	13.245	17.273	-78.56	25.41	-26.36	-73.794	-11.172	104.762	-0.77908	0.53067	-0.33344	0.01202	29.1	13111	100
2025-3-27 20:16:54.710	WT901BLE68-01(48591DE3C19B)	-0.395	-0.412	0.126	-19.104	13.245	17.273	-78.76	25.65	-26.45	-73.794	-11.172	104.762	-0.77908	0.53067	-0.33344	0.01202	29.1	13111	100
2025-3-27 20:16:54.710	WT901BLE68-01(48591DE3C19B)	-0.395	-0.628	0.120	-28.259	-9.521	18.799	-78.94	25.88	-26.42	-73.794	-11.172	104.762	-0.76447	0.56415	-0.31018	0.03198	29.1	13111	100
2025-3-27 20:16:54.767	WT901BLE68-01(48591DE3C19B)	-0.421	-0.628	0.120	-28.259	-9.521	18.799	-79.12	26.09	-26.27	-73.794	-11.172	104.762	-0.76447	0.56415	-0.31018	0.03198	29.1	13111	100
2025-3-27 20:16:54.767	WT901BLE68-01(48591DE3C19B)	-0.421	-0.899	0.123	-38.391	-40.649	16.663	-79.28	26.26	-25.94	-73.794	-11.172	104.762	-0.76447	0.56415	-0.31018	0.03198	29.1	13111	100
2025-3-27 20:16:54.767	WT901BLE68-01(48591DE3C19B)	-0.440	-0.899	0.123	-38.391	-40.649	16.663	-79.43	26.38	-25.45	-73.794	-11.172	104.762	-0.76447	0.56415	-0.31018	0.03198	29.1	13111	100
2025-3-27 20:16:54.767	WT901BLE68-01(48591DE3C19B)	-0.440	-1.508	0.118	-46.326	-59.265	5.676	-79.57	26.42	-24.87	-73.794	-11.172	104.762	-0.76447	0.56415	-0.31018	0.03198	29.1	13111	100
2025-3-27 20:16:54.797	WT901BLE68-01(48591DE3C19B)	-0.431	-1.508	0.118	-46.326	-59.265	5.676	-79.73	26.38	-24.19	-73.794	-11.172	104.762	-0.76447	0.56415	-0.31018	0.03198	29.1	13111	100
2025-3-27 20:16:54.797	WT901BLE68-01(48591DE3C19B)	-0.431	-2.156	0.072	-23.071	-49.927	-17.395	-79.81	26.22	-23.59	-73.794	-11.172	104.762	-0.76447	0.56415	-0.31018	0.03198	29.1	13111	100
2025-3-27 20:16:54.797	WT901BLE68-01(48591DE3C19B)	-0.485	-2.156	0.072	-23.071	-49.927	-17.395	-79.82	25.95	-23.06	-73.794	-11.172	104.762	-0.76447	0.56415	-0.31018	0.03198	29.1	13111	100
2025-3-27 20:16:54.797	WT901BLE68-01(48591DE3C19B)	-0.485	-1.959	0.110	18.311	-29.541	-13.428	-79.68	25.70	-22.64	-73.794	-11.172	104.762	-0.76447	0.56415	-0.31018	0.03198	29.1	13111	100
2025-3-27 20:16:54.858	WT901BLE68-01(48591DE3C19B)	-0.419	-1.959	0.110	18.311	-29.541	-13.428	-79.39	25.48	-22.34	-73.794	-11.172	104.762	-0.76447	0.56415	-0.31018	0.03198	29.1	13111	100
2025-3-27 20:16:54.858	WT901BLE68-01(48591DE3C19B)	-0.419	-1.274	0.170	20.142	-9.277	-15.564	-79.15	25.26	-22.14	-73.794	-11.172	104.762	-0.76447	0.56415	-0.31018	0.03198	29.1	13111	100
2025-3-27 20:16:54.858	WT901BLE68-01(48591DE3C19B)	-0.264	-1.274	0.170	20.142	-9.277	-15.564	-78.95	25.05	-22.06	-73.794	-11.172	104.762	-0.76447	0.56415	-0.31018	0.03198	29.1	13111	100
2025-3-27 20:16:54.858	WT901BLE68-01(48591DE3C19B)	-0.264	-0.970	0.210	14.099	22.583	-1.770	-78.84	24.94	-22.14	-73.794	-11.172	104.762	-0.76447	0.56415	-0.31018	0.03198	29.1	13111	100
2025-3-27 20:16:54.866	WT901BLE68-01(48591DE3C19B)	-0.276	-0.970	0.210	14.099	22.583	-1.770	-78.83	24.93	-22.42	-73.794	-11.172	104.762	-0.76447	0.56415	-0.31018	0.03198	29.1	13111	100
2025-3-27 20:16:54.866	WT901BLE68-01(48591DE3C19B)	-0.276	-0.854	0.250	7.019	47.180	6.409	-78.90	24.98	-22.82	-73.794	-11.172	104.762	-0.76447	0.56415	-0.31018	0.03198	29.1	13111	100
2025-3-27 20:16:54.866	WT901BLE68-01(48591DE3C19B)	-0.315	-0.854	0.250	7.019	47.180	6.409	-79.06	25.09	-23.35	-73.794	-11.172	104.762	-0.76447	0.56415	-0.31018	0.03198	29.1	13111	100
2025-3-27 20:16:54.866	WT901BLE68-01(48591DE3C19B)	-0.315	-0.805	0.234	-1.343	36.743	10.132	-79.23	25.21	-23.81	-73.794	-11.172	104.762	-0.76447	0.56415	-0.31018	0.03198	29.1	13111	100
2025-3-27 20:16:54.948	WT901BLE68-01(48591DE3C19B)	-0.308	-0.805	0.234	-1.343	36.743	10.132	-79.42	25.34	-24.21	-73.794	-11.172	104.762	-0.76447	0.56415	-0.31018	0.03198	29.1	13111	100
2025-3-27 20:16:54.948	WT901BLE68-01(48591DE3C19B)	-0.308	-0.759	0.223	-5.920	11.902	9.644	-79.56	25.44	-24.48	-73.794	-11.172	104.762	-0.76447	0.56415	-0.31018	0.03198	29.1	13111	100
2025-3-27 20:16:54.948	WT901BLE68-01(48591DE3C19B)	-0.343	-0.759	0.223	-5.920	11.902	9.644	-79.67	25.52	-24.61	-73.794	-11.172	104.762	-0.76447	0.56415	-0.31018	0.03198	29.1	13111	100
2025-3-27 20:16:54.948	WT901BLE68-01(48591DE3C19B)	-0.343	-0.658	0.205	0.183	-5.127	8.362	-79.71	25.57	-24.64	-73.794	-11.172	104.762	-0.76447	0.56415	-0.31018	0.03198	29.1	13111	100
2025-3-27 20:16:54.949	WT901BLE68-01(48591DE3C19B)	-0.324	-0.658	0.205	0.183	-5.127	8.362	-79.67	25.61	-24.59	-62.132	-15.288	96.922	-0.76447	0.56415	-0.31018	0.03198	29.1	13111	100
2025-3-27 20:16:54.950	WT901BLE68-01(48591DE3C19B)	-0.324	-0.504	0.137	5.798	-10.132	12.878	-79.58	25.67	-24.49	-62.132	-15.288	96.922	-0.76447	0.56415	-0.31018	0.03198	29.1	13111	100
2025-3-27 20:16:54.950	WT901BLE68-01(48591DE3C19B)	-0.294	-0.504	0.137	5.798	-10.132	12.878	-79.46	25.75	-24.37	-62.132	-15.288	96.922	-0.76447	0.56415	-0.31018	0.03198	29.1	13111	100
2025-3-27 20:16:54.950	WT901BLE68-01(48591DE3C19B)	-0.294	-0.377	0.083	11.230	-2.075	22.949	-79.32	25.88	-24.27	-62.132	-15.288	96.922	-0.76447	0.56415	-0.31018	0.03198	29.1	13111	100
2025-3-27 20:16:54.980	WT901BLE68-01(48591DE3C19B)	-0.266	-0.377	0.083	11.230	-2.075	22.949	-79.17	26.09	-24.21	-62.132	-15.288	96.922	-0.76447	0.56415	-0.31018	0.03198	29.1	13111	100
2025-3-27 20:16:54.980	WT901BLE68-01(48591DE3C19B)	-0.266	-0.279	0.085	13.977	6.165	39.063	-79.02	26.38	-24.18	-62.132	-15.288	96.922	-0.76447	0.56415	-0.31018	0.03198	29.1	13111	100
2025-3-27 20:16:54.980	WT901BLE68-01(48591DE3C19B)	-0.254	-0.279	0.085	13.977	6.165	39.063	-78.86	26.76	-24.16	-62.132	-15.288	96.922	-0.76447	0.56415	-0.31018	0.03198	29.1	13111	100
2025-3-27 20:16:54.980	WT901BLE68-01(48591DE3C19B)	-0.254	-0.316	0.122	7.141	10.315	50.232	-78.78	27.26	-24.17	-62.132	-15.288	96.922	-0.76447	0.56415	-0.31018	0.03198	29.1	13111	100
2025-3-27 20:16:55.37	WT901BLE68-01(48591DE3C19B)	-0.292	-0.316	0.122	7.141	10.315	50.232	-78.70	27.76	-24.17	-62.132	-15.288	96.922	-0.76447	0.56415	-0.31018	0.03198	29.1	13111	100
2025-3-27 20:16:55.38	WT901BLE68-01(48591DE3C19B)	-0.292	-0.535	0.134	-0.427	12.817	50.110	-78.71	28.26	-24.20	-62.132	-15.288	96.922	-0.76447	0.56415	-0.31018	0.03198	29.1	13111	100
2025-3-27 20:16:55.38	WT901BLE68-01(48591DE3C19B)	-0.381	-0.535	0.134	-0.427	12.817	50.110	-78.72	28.76	-24.22	-62.132	-15.288	96.922	-0.76447	0.56415	-0.31018	0.03198	29.1	13111	100
2025-3-27 20:16:55.38	WT901BLE68-01(48591DE3C19B)	-0.381	-0.756	0.138	-3.967	9.094	40.588	-78.75	29.16	-24.23	-62.132	-15.288	96.922	-0.76447	0.56415	-0.31018	0.03198	29.1	13111	100
2025-3-27 20:16:55.67	WT901BLE68-01(48591DE3C19B)	-0.522	-0.756	0.138	-3.967	9.094	40.588	-78.79	29.56	-24.24	-62.132	-15.288	96.922	-0.76447	0.56415	-0.31018	0.03198	29.1	13111	100
2025-3-27 20:16:55.67	WT901BLE68-01(48591DE3C19B)	-0.522	-1.125	0.177	-9.888	-1.892	18.311	-78.85	29.71	-24.17	-62.132	-15.288	96.922	-0.76447	0.56415	-0.31018	0.03198	29.1	13111	100
2025-3-27 20:16:55.67	WT901BLE68-01(48591DE3C19B)	-0.608	-1.125	0.177	-9.888	-1.892	18.311	-78.91	29.86	-24.11	-62.132	-15.288	96.922	-0.76447	0.56415	-0.31018	0.03198	29.1	13111	100
2025-3-27 20:16:55.67	WT901BLE68-01(48591DE3C19B)	-0.608	-1.637	0.192	-1.160	-12.390	-16.541	-78.87	29.65	-24.01	-62.132	-15.288	96.922	-0.76447	0.56415	-0.31018	0.03198	29.1	13111	100
2025-3-27 20:16:55.100	WT901BLE68-01(48591DE3C19B)	-0.664	-1.637	0.192	-1.160	-12.390	-16.541	-78.84	29.43	-23.91	-62.132	-15.288	96.922	-0.76447	0.56415	-0.31018	0.03198	29.1	13111	100
2025-3-27 20:16:55.100	WT901BLE68-01(48591DE3C19B)	-0.664	-1.869	0.215	12.085	-10.437	-47.607	-78.73	28.91	-23.91	-62.132	-15.288	96.922	-0.76447	0.56415	-0.31018	0.03198	29.1	13111	100
2025-3-27 20:16:55.100	WT901BLE68-01(48591DE3C19B)	-0.772	-1.869	0.215	12.085	-10.437	-47.607	-78.61	28.39	-23.92	-62.132	-15.288	96.922	-0.76447	0.56415	-0.31018	0.03198	29.1	13111	100
2025-3-27 20:16:55.101	WT901BLE68-01(48591DE3C19B)	-0.772	-1.523	0.291	26.062	16.663	-67.566	-78.53	27.73	-24.26	-62.132	-15.288	96.922	-0.76447	0.56415	-0.31018	0.03198	29.1	13111	100
2025-3-27 20:16:55.157	WT901BLE68-01(48591DE3C19B)	-0.734	-1.523	0.291	26.062	16.663	-67.566	-78.44	27.08	-24.61	-62.132	-15.288	96.922	-0.76447	0.56415	-0.31018	0.03198	29.1	13111	100
2025-3-27 20:16:55.158	WT901BLE68-01(48591DE3C19B)	-0.734	-1.125	0.374	17.883	47.485	-63.477	-78.56	26.54	-25.27	-62.132	-15.288	96.922	-0.76685	0.56244	-0.30817	0.02301	29.1	13111	100
2025-3-27 20:16:55.158	WT901BLE68-01(48591DE3C19B)	-0.668	-1.125	0.374	17.883	47.485	-63.477	-78.68	26.00	-25.93	-62.132	-15.288	96.922	-0.76685	0.56244	-0.30817	0.02301	29.1	13111	100
2025-3-27 20:16:55.158	WT901BLE68-01(48591DE3C19B)	-0.668	-0.904	0.461	14.221	59.143	-55.359	-78.87	25.57	-26.68	-62.132	-15.288	96.922	-0.76685	0.56244	-0.30817	0.02301	29.1	13111	100
2025-3-27 20:16:55.187	WT901BLE68-01(48591DE3C19B)	-0.633	-0.904	0.461	14.221	59.143	-55.359	-79.04	25.15	-27.42	-62.132	-15.288	96.922	-0.76685	0.56244	-0.30817	0.02301	29.1	13111	100
2025-3-27 20:16:55.187	WT901BLE68-01(48591DE3C19B)	-0.633	-0.696	0.427	5.066	32.837	-43.396	-79.15	24.80	-27.84	-62.132	-15.288	96.922	-0.76685	0.56244	-0.30817	0.02301	29.1	13111	100
2025-3-27 20:16:55.188	WT901BLE68-01(48591DE3C19B)	-0.605	-0.696	0.427	5.066	32.837	-43.396	-79.26	24.46	-28.26	-62.132	-15.288	96.922	-0.76685	0.56244	-0.30817	0.02301	29.1	13111	100
2025-3-27 20:16:55.188	WT901BLE68-01(48591DE3C19B)	-0.605	-0.688	0.301	-20.569	-34.180	-35.095	-79.31	24.09	-27.93	-62.132	-15.288	96.922	-0.76685	0.56244	-0.30817	0.02301	29.1	13111	100
2025-3-27 20:16:55.217	WT901BLE68-01(48591DE3C19B)	-0.421	-0.688	0.301	-20.569	-34.180	-35.095	-79.36	23.72	-27.60	-62.132	-15.288	96.922	-0.76685	0.56244	-0.30817	0.02301	29.1	13111	100
2025-3-27 20:16:55.218	WT901BLE68-01(48591DE3C19B)	-0.421	-0.803	0.183	-33.569	-85.327	-31.311	-79.32	23.29	-26.72	-62.132	-15.288	96.922	-0.76685	0.56244	-0.30817	0.02301	29.1	13111	100
2025-3-27 20:16:55.218	WT901BLE68-01(48591DE3C19B)	-0.357	-0.803	0.183	-33.569	-85.327	-31.311	-79.29	22.87	-25.85	-62.132	-15.288	96.922	-0.76685	0.56244	-0.30817	0.02301	29.1	13111	100
2025-3-27 20:16:55.218	WT901BLE68-01(48591DE3C19B)	-0.357	-0.862	0.148	-23.438	-84.900	-21.912	-79.16	22.54	-24.98	-62.132	-15.288	96.922	-0.76685	0.56244	-0.30817	0.02301	29.1	13111	100
2025-3-27 20:16:55.308	WT901BLE68-01(48591DE3C19B)	-0.342	-0.862	0.148	-23.438	-84.900	-21.912	-79.05	22.20	-24.11	-62.132	-15.288	96.922	-0.76685	0.56244	-0.30817	0.02301	29.1	13111	100
2025-3-27 20:16:55.309	WT901BLE68-01(48591DE3C19B)	-0.342	-0.805	0.158	-9.033	-54.443	-17.883	-78.91	21.96	-23.56	-62.132	-15.288	96.922	-0.76685	0.56244	-0.30817	0.02301	29.1	13111	100
2025-3-27 20:16:55.309	WT901BLE68-01(48591DE3C19B)	-0.242	-0.805	0.158	-9.033	-54.443	-17.883	-78.78	21.71	-23.02	-62.132	-15.288	96.922	-0.76685	0.56244	-0.30817	0.02301	29.1	13111	100
2025-3-27 20:16:55.309	WT901BLE68-01(48591DE3C19B)	-0.242	-0.566	0.161	6.775	-10.498	-10.376	-78.66	21.63	-22.93	-62.132	-15.288	96.922	-0.76685	0.56244	-0.30817	0.02301	29.1	13111	100
2025-3-27 20:16:55.310	WT901BLE68-01(48591DE3C19B)	-0.190	-0.566	0.161	6.775	-10.498	-10.376	-78.54	21.54	-22.85	-62.132	-15.288	96.922	-0.76685	0.56244	-0.30817	0.02301	29.1	13111	100
2025-3-27 20:16:55.310	WT901BLE68-01(48591DE3C19B)	-0.190	-0.278	0.163	16.296	30.762	4.700	-78.47	21.68	-23.15	-62.132	-15.288	96.922	-0.76685	0.56244	-0.30817	0.02301	29.1	13111	100
2025-3-27 20:16:55.310	WT901BLE68-01(48591DE3C19B)	-0.210	-0.278	0.163	16.296	30.762	4.700	-78.40	21.82	-23.47	-62.132	-15.288	96.922	-0.76685	0.56244	-0.30817	0.02301	29.1	13111	100
2025-3-27 20:16:55.310	WT901BLE68-01(48591DE3C19B)	-0.210	-0.134	0.155	10.986	50.842	17.944	-78.45	22.13	-23.95	-62.132	-15.288	96.922	-0.76685	0.56244	-0.30817	0.02301	29.1	13111	100
2025-3-27 20:16:55.340	WT901BLE68-01(48591DE3C19B)	-0.259	-0.134	0.155	10.986	50.842	17.944	-78.49	22.45	-24.43	-62.132	-15.288	96.922	-0.76685	0.56244	-0.30817	0.02301	29.1	13111	100
2025-3-27 20:16:55.340	WT901BLE68-01(48591DE3C19B)	-0.129	-0.180	0.137	-3.052	41.199	25.208	-78.63	22.82	-24.80	-62.132	-15.288	96.922	-0.76685	0.56244	-0.30817	0.02301	29.1	13111	100
2025-3-27 20:16:55.340	WT901BLE68-01(48591DE3C19B)	-0.351	-0.090	0.068	-3.052	41.199	25.208	-78.77	23.19	-25.15	-56.056	-11.858	87.808	-0.76685	0.56244	-0.30817	0.02301	29.1	13111	100
2025-3-27 20:16:55.340	WT901BLE68-01(48591DE3C19B)	-0.351	-0.429	0.131	-21.790	6.958	25.208	-78.95	23.50	-25.14	-56.056	-11.858	87.808	-0.76685	0.56244	-0.30817	0.02301	29.1	13111	100
2025-3-27 20:16:55.398	WT901BLE68-01(48591DE3C19B)	-0.411	-0.429	0.131	-21.790	6.958	25.208	-79.14	23.81	-25.13	-56.056	-11.858	87.808	-0.76685	0.56244	-0.30817	0.02301	29.1	13111	100
2025-3-27 20:16:55.398	WT901BLE68-01(48591DE3C19B)	-0.411	-0.821	0.089	-35.583	-32.837	22.034	-79.30	24.01	-24.71	-56.056	-11.858	87.808	-0.76685	0.56244	-0.30817	0.02301	29.1	13111	100
2025-3-27 20:16:55.398	WT901BLE68-01(48591DE3C19B)	-0.492	-0.821	0.089	-35.583	-32.837	22.034	-79.46	24.20	-24.29	-56.056	-11.858	87.808	-0.76685	0.56244	-0.30817	0.02301	29.1	13111	100
2025-3-27 20:16:55.398	WT901BLE68-01(48591DE3C19B)	-0.492	-1.512	0.104	-40.283	-60.120	14.221	-79.57	24.26	-23.60	-56.056	-11.858	87.808	-0.76685	0.56244	-0.30817	0.02301	29.1	13111	100
2025-3-27 20:16:55.428	WT901BLE68-01(48591DE3C19B)	-0.495	-1.512	0.104	-40.283	-60.120	14.221	-79.69	24.31	-22.92	-56.056	-11.858	87.808	-0.76685	0.56244	-0.30817	0.02301	29.1	13111	100
2025-3-27 20:16:55.428	WT901BLE68-01(48591DE3C19B)	-0.495	-2.361	0.019	-12.268	-62.622	-11.292	-79.55	24.08	-22.29	-56.056	-11.858	87.808	-0.76685	0.56244	-0.30817	0.02301	29.1	13111	100
2025-3-27 20:16:55.428	WT901BLE68-01(48591DE3C19B)	-0.453	-2.361	0.019	-12.268	-62.622	-11.292	-79.43	23.84	-21.66	-56.056	-11.858	87.808	-0.76685	0.56244	-0.30817	0.02301	29.1	13111	100
2025-3-27 20:16:55.428	WT901BLE68-01(48591DE3C19B)	-0.360	-2.194	0.055	36.194	-40.527	-3.967	-78.93	23.70	-21.27	-56.056	-11.858	87.808	-0.76685	0.56244	-0.30817	0.02301	29.1	13111	100
2025-3-27 20:16:55.517	WT901BLE68-01(48591DE3C19B)	-0.360	-1.364	0.107	42.664	-6.836	-4.089	-78.48	23.58	-21.07	-56.056	-11.858	87.808	-0.76685	0.56244	-0.30817	0.02301	29.1	13111	100
2025-3-27 20:16:55.517	WT901BLE68-01(48591DE3C19B)	-0.135	-1.364	0.107	42.664	-6.836	-4.089	-78.06	23.50	-21.04	-56.056	-11.858	87.808	-0.76685	0.56244	-0.30817	0.02301	29.1	13111	100
2025-3-27 20:16:55.518	WT901BLE68-01(48591DE3C19B)	-0.135	-0.996	0.134	34.363	41.504	14.771	-77.79	23.55	-21.25	-56.056	-11.858	87.808	-0.76685	0.56244	-0.30817	0.02301	29.1	13111	100
2025-3-27 20:16:55.518	WT901BLE68-01(48591DE3C19B)	-0.116	-0.996	0.134	34.363	41.504	14.771	-77.66	23.75	-21.70	-56.056	-11.858	87.808	-0.76685	0.56244	-0.30817	0.02301	29.1	13111	100
2025-3-27 20:16:55.519	WT901BLE68-01(48591DE3C19B)	-0.116	-0.828	0.212	21.301	79.041	25.635	-77.66	24.03	-22.34	-56.056	-11.858	87.808	-0.76685	0.56244	-0.30817	0.02301	29.1	13111	100
2025-3-27 20:16:55.519	WT901BLE68-01(48591DE3C19B)	-0.256	-0.828	0.212	21.301	79.041	25.635	-77.82	24.40	-23.16	-56.056	-11.858	87.808	-0.76685	0.56244	-0.30817	0.02301	29.1	13111	100
2025-3-27 20:16:55.520	WT901BLE68-01(48591DE3C19B)	-0.256	-0.822	0.239	2.747	77.026	22.644	-78.05	24.74	-23.98	-56.056	-11.858	87.808	-0.76685	0.56244	-0.30817	0.02301	29.1	13111	100
2025-3-27 20:16:55.520	WT901BLE68-01(48591DE3C19B)	-0.364	-0.822	0.239	2.747	77.026	22.644	-78.38	25.06	-24.79	-56.056	-11.858	87.808	-0.76685	0.56244	-0.30817	0.02301	29.1	13111	100
2025-3-27 20:16:55.608	WT901BLE68-01(48591DE3C19B)	-0.364	-0.843	0.269	-4.211	46.143	14.404	-78.68	25.31	-25.43	-56.056	-11.858	87.808	-0.76685	0.56244	-0.30817	0.02301	29.1	13111	100
2025-3-27 20:16:55.608	WT901BLE68-01(48591DE3C19B)	-0.385	-0.843	0.269	-4.211	46.143	14.404	-78.93	25.48	-25.92	-56.056	-11.858	87.808	-0.76685	0.56244	-0.30817	0.02301	29.1	13111	100
2025-3-27 20:16:55.608	WT901BLE68-01(48591DE3C19B)	-0.385	-0.692	0.251	0.244	11.780	8.484	-79.09	25.60	-26.22	-56.056	-11.858	87.808	-0.76685	0.56244	-0.30817	0.02301	29.1	13111	100
2025-3-27 20:16:55.608	WT901BLE68-01(48591DE3C19B)	-0.342	-0.692	0.251	0.244	11.780	8.484	-79.13	25.65	-26.34	-56.056	-11.858	87.808	-0.76404	0.56573	-0.30817	0.03354	29.1	13111	100
2025-3-27 20:16:55.610	WT901BLE68-01(48591DE3C19B)	-0.342	-0.500	0.178	5.859	-3.174	8.545	-79.11	25.70	-26.38	-56.056	-11.858	87.808	-0.76404	0.56573	-0.30817	0.03354	29.1	13111	100
2025-3-27 20:16:55.610	WT901BLE68-01(48591DE3C19B)	-0.340	-0.500	0.178	5.859	-3.174	8.545	-79.03	25.74	-26.33	-56.056	-11.858	87.808	-0.76404	0.56573	-0.30817	0.03354	29.1	13111	100
2025-3-27 20:16:55.610	WT901BLE68-01(48591DE3C19B)	-0.340	-0.351	0.110	13.611	-6.470	16.602	-78.89	25.82	-26.25	-56.056	-11.858	87.808	-0.76404	0.56573	-0.30817	0.03354	29.1	13111	100
2025-3-27 20:16:55.610	WT901BLE68-01(48591DE3C19B)	-0.291	-0.351	0.110	13.611	-6.470	16.602	-78.70	25.94	-26.14	-56.056	-11.858	87.808	-0.76404	0.56573	-0.30817	0.03354	29.1	13111	100
2025-3-27 20:16:55.728	WT901BLE68-01(48591DE3C19B)	-0.291	-0.233	0.121	17.761	-19.531	32.349	-78.45	26.14	-25.94	-56.056	-11.858	87.808	-0.76404	0.56573	-0.30817	0.03354	29.1	13111	100
2025-3-27 20:16:55.728	WT901BLE68-01(48591DE3C19B)	-0.202	-0.233	0.121	17.761	-19.531	32.349	-78.14	26.40	-25.65	-56.056	-11.858	87.808	-0.76404	0.56573	-0.30817	0.03354	29.1	13111	100
2025-3-27 20:16:55.728	WT901BLE68-01(48591DE3C19B)	-0.202	-0.212	0.148	14.954	-24.719	45.715	-77.82	26.72	-25.31	-56.056	-11.858	87.808	-0.76404	0.56573	-0.30817	0.03354	29.1	13111	100
2025-3-27 20:16:55.728	WT901BLE68-01(48591DE3C19B)	-0.203	-0.212	0.148	14.954	-24.719	45.715	-77.48	27.11	-24.92	-56.056	-11.858	87.808	-0.76404	0.56573	-0.30817	0.03354	29.1	13111	100
2025-3-27 20:16:55.730	WT901BLE68-01(48591DE3C19B)	-0.203	-0.387	0.142	7.324	-14.893	42.114	-77.21	27.49	-24.59	-56.056	-11.858	87.808	-0.76404	0.56573	-0.30817	0.03354	29.1	13111	100
2025-3-27 20:16:55.730	WT901BLE68-01(48591DE3C19B)	-0.354	-0.387	0.142	7.324	-14.893	42.114	-76.99	27.86	-24.31	-56.056	-11.858	87.808	-0.76404	0.56573	-0.30817	0.03354	29.1	13111	100
2025-3-27 20:16:55.730	WT901BLE68-01(48591DE3C19B)	-0.354	-0.645	0.105	3.540	-2.075	37.720	-76.83	28.21	-24.10	-56.056	-11.858	87.808	-0.76404	0.56573	-0.30817	0.03354	29.1	13111	100
2025-3-27 20:16:55.730	WT901BLE68-01(48591DE3C19B)	-0.474	-0.645	0.105	3.540	-2.075	37.720	-76.73	28.56	-23.98	-56.056	-11.858	87.808	-0.76404	0.56573	-0.30817	0.03354	29.1	13111	100
2025-3-27 20:16:55.765	WT901BLE68-01(48591DE3C19B)	-0.474	-0.939	0.068	-7.446	-3.113	19.531	-76.69	28.82	-23.87	-56.056	-11.858	87.808	-0.76404	0.56573	-0.30817	0.03354	29.1	13111	100
2025-3-27 20:16:55.765	WT901BLE68-01(48591DE3C19B)	-0.603	-0.939	0.068	-7.446	-3.113	19.531	-76.73	28.99	-23.77	-56.056	-11.858	87.808	-0.76404	0.56573	-0.30817	0.03354	29.1	13111	100
2025-3-27 20:16:55.765	WT901BLE68-01(48591DE3C19B)	-0.603	-1.560	0.108	-11.658	-8.667	-14.954	-76.80	28.98	-23.70	-56.056	-11.858	87.808	-0.76404	0.56573	-0.30817	0.03354	29.1	13111	100
2025-3-27 20:16:55.765	WT901BLE68-01(48591DE3C19B)	-0.731	-1.560	0.108	-11.658	-8.667	-14.954	-76.91	28.80	-23.65	-56.056	-11.858	87.808	-0.76404	0.56573	-0.30817	0.03354	29.1	13111	100
2025-3-27 20:16:55.765	WT901BLE68-01(48591DE3C19B)	-0.731	-2.106	0.241	2.808	-11.536	-59.021	-76.97	28.39	-23.64	-56.056	-11.858	87.808	-0.76404	0.56573	-0.30817	0.03354	29.1	13111	100
2025-3-27 20:16:55.765	WT901BLE68-01(48591DE3C19B)	-0.858	-2.106	0.241	2.808	-11.536	-59.021	-76.98	27.76	-23.68	-56.056	-11.858	87.808	-0.76404	0.56573	-0.30817	0.03354	29.1	13111	100
2025-3-27 20:16:55.765	WT901BLE68-01(48591DE3C19B)	-0.858	-1.796	0.437	25.757	0.793	-69.275	-76.92	27.10	-23.80	-56.056	-11.858	87.808	-0.76404	0.56573	-0.30817	0.03354	29.1	13111	100
2025-3-27 20:16:55.765	WT901BLE68-01(48591DE3C19B)	-0.760	-1.796	0.437	25.757	0.793	-69.275	-76.77	26.41	-23.99	-56.056	-11.858	87.808	-0.76404	0.56573	-0.30817	0.03354	29.1	13111	100
2025-3-27 20:16:55.818	WT901BLE68-01(48591DE3C19B)	-0.760	-1.167	0.524	24.719	40.649	-66.650	-76.71	25.78	-24.40	-49.098	-6.958	79.380	-0.76404	0.56573	-0.30817	0.03354	29.1	13111	100
2025-3-27 20:16:55.818	WT901BLE68-01(48591DE3C19B)	-0.668	-1.167	0.524	24.719	40.649	-66.650	-76.73	25.22	-25.01	-49.098	-6.958	79.380	-0.76404	0.56573	-0.30817	0.03354	29.1	13111	100
2025-3-27 20:16:55.818	WT901BLE68-01(48591DE3C19B)	-0.668	-0.882	0.542	19.592	74.951	-47.058	-76.84	24.80	-25.77	-49.098	-6.958	79.380	-0.76404	0.56573	-0.30817	0.03354	29.1	13111	100
2025-3-27 20:16:55.818	WT901BLE68-01(48591DE3C19B)	-0.628	-0.882	0.542	19.592	74.951	-47.058	-77.02	24.52	-26.67	-49.098	-6.958	79.380	-0.76404	0.56573	-0.30817	0.03354	29.1	13111	100
2025-3-27 20:16:55.847	WT901BLE68-01(48591DE3C19B)	-0.628	-0.662	0.412	11.475	64.819	-32.898	-77.20	24.30	-27.50	-49.098	-6.958	79.380	-0.76404	0.56573	-0.30817	0.03354	29.1	13111	100
2025-3-27 20:16:55.847	WT901BLE68-01(48591DE3C19B)	-0.600	-0.662	0.412	11.475	64.819	-32.898	-77.37	24.14	-28.24	-49.098	-6.958	79.380	-0.76404	0.56573	-0.30817	0.03354	29.1	13111	100
2025-3-27 20:16:55.847	WT901BLE68-01(48591DE3C19B)	-0.600	-0.559	0.265	-18.433	-5.188	-24.231	-77.54	23.96	-28.60	-49.098	-6.958	79.380	-0.76404	0.56573	-0.30817	0.03354	29.1	13111	100
2025-3-27 20:16:55.847	WT901BLE68-01(48591DE3C19B)	-0.460	-0.559	0.265	-18.433	-5.188	-24.231	-77.69	23.75	-28.56	-49.098	-6.958	79.380	-0.76404	0.56573	-0.30817	0.03354	29.1	13111	100
2025-3-27 20:16:55.879	WT901BLE68-01(48591DE3C19B)	-0.460	-0.703	0.180	-40.955	-70.740	-18.311	-77.81	23.51	-28.17	-49.098	-6.958	79.380	-0.76404	0.56573	-0.30817	0.03354	29.1	13111	100
2025-3-27 20:16:55.879	WT901BLE68-01(48591DE3C19B)	-0.379	-0.703	0.180	-40.955	-70.740	-18.311	-77.90	23.23	-27.42	-49.098	-6.958	79.380	-0.76404	0.56573	-0.30817	0.03354	29.1	13111	100
2025-3-27 20:16:55.879	WT901BLE68-01(48591DE3C19B)	-0.379	-0.782	0.180	-33.936	-74.036	-5.554	-77.96	23.01	-26.65	-49.098	-6.958	79.380	-0.76404	0.56573	-0.30817	0.03354	29.1	13111	100
2025-3-27 20:16:55.879	WT901BLE68-01(48591DE3C19B)	-0.377	-0.782	0.180	-33.936	-74.036	-5.554	-77.96	22.84	-25.85	-49.098	-6.958	79.380	-0.76404	0.56573	-0.30817	0.03354	29.1	13111	100
2025-3-27 20:16:55.908	WT901BLE68-01(48591DE3C19B)	-0.377	-0.773	0.219	-21.301	-45.654	-2.625	-77.97	22.72	-25.21	-49.098	-6.958	79.380	-0.76404	0.56573	-0.30817	0.03354	29.1	13111	100
2025-3-27 20:16:55.908	WT901BLE68-01(48591DE3C19B)	-0.329	-0.773	0.219	-21.301	-45.654	-2.625	-77.97	22.64	-24.72	-49.098	-6.958	79.380	-0.76404	0.56573	-0.30817	0.03354	29.1	13111	100
2025-3-27 20:16:55.908	WT901BLE68-01(48591DE3C19B)	-0.329	-0.675	0.223	-8.362	-6.287	-1.526	-78.00	22.65	-24.64	-49.098	-6.958	79.380	-0.76404	0.56573	-0.30817	0.03354	29.1	13111	100
2025-3-27 20:16:55.908	WT901BLE68-01(48591DE3C19B)	-0.295	-0.675	0.223	-8.362	-6.287	-1.526	-78.03	22.66	-24.57	-49.098	-6.958	79.380	-0.76404	0.56573	-0.30817	0.03354	29.1	13111	100
2025-3-27 20:16:55.998	WT901BLE68-01(48591DE3C19B)	-0.295	-0.475	0.218	4.150	31.738	6.042	-78.08	22.82	-24.88	-49.098	-6.958	79.380	-0.76404	0.56573	-0.30817	0.03354	29.1	13111	100
2025-3-27 20:16:55.998	WT901BLE68-01(48591DE3C19B)	-0.292	-0.475	0.218	4.150	31.738	6.042	-78.13	22.98	-25.19	-49.098	-6.958	79.380	-0.76959	0.56833	-0.28763	0.04391	29.1	13111	100
2025-3-27 20:16:55.998	WT901BLE68-01(48591DE3C19B)	-0.292	-0.271	0.204	6.592	46.570	15.320	-78.21	23.27	-25.63	-49.098	-6.958	79.380	-0.76959	0.56833	-0.28763	0.04391	29.1	13111	100
2025-3-27 20:16:55.998	WT901BLE68-01(48591DE3C19B)	-0.283	-0.271	0.204	6.592	46.570	15.320	-78.28	23.55	-26.07	-49.098	-6.958	79.380	-0.76959	0.56833	-0.28763	0.04391	29.1	13111	100
2025-3-27 20:16:55.999	WT901BLE68-01(48591DE3C19B)	-0.283	-0.175	0.184	-2.686	39.856	26.123	-78.41	23.93	-26.40	-49.098	-6.958	79.380	-0.76959	0.56833	-0.28763	0.04391	29.1	13111	100
2025-3-27 20:16:56.0	WT901BLE68-01(48591DE3C19B)	-0.309	-0.175	0.184	-2.686	39.856	26.123	-78.53	24.32	-26.73	-49.098	-6.958	79.380	-0.76959	0.56833	-0.28763	0.04391	29.1	13111	100
2025-3-27 20:16:56.0	WT901BLE68-01(48591DE3C19B)	-0.309	-0.258	0.160	-21.790	15.564	30.945	-78.73	24.71	-26.79	-49.098	-6.958	79.380	-0.76959	0.56833	-0.28763	0.04391	29.1	13111	100
2025-3-27 20:16:56.0	WT901BLE68-01(48591DE3C19B)	-0.396	-0.258	0.160	-21.790	15.564	30.945	-78.93	25.09	-26.85	-49.098	-6.958	79.380	-0.76959	0.56833	-0.28763	0.04391	29.1	13111	100
2025-3-27 20:16:56.58	WT901BLE68-01(48591DE3C19B)	-0.396	-0.598	0.145	-42.542	-23.132	28.625	-79.17	25.38	-26.49	-49.098	-6.958	79.380	-0.76959	0.56833	-0.28763	0.04391	29.1	13111	100
2025-3-27 20:16:56.58	WT901BLE68-01(48591DE3C19B)	-0.439	-0.598	0.145	-42.542	-23.132	28.625	-79.40	25.68	-26.14	-49.098	-6.958	79.380	-0.76959	0.56833	-0.28763	0.04391	29.1	13111	100
2025-3-27 20:16:56.58	WT901BLE68-01(48591DE3C19B)	-0.439	-1.006	0.115	-54.626	-64.392	26.672	-79.57	25.86	-25.35	-49.098	-6.958	79.380	-0.76959	0.56833	-0.28763	0.04391	29.1	13111	100
2025-3-27 20:16:56.58	WT901BLE68-01(48591DE3C19B)	-0.484	-1.006	0.115	-54.626	-64.392	26.672	-79.75	26.04	-24.56	-49.098	-6.958	79.380	-0.76959	0.56833	-0.28763	0.04391	29.1	13111	100
2025-3-27 20:16:56.90	WT901BLE68-01(48591DE3C19B)	-0.484	-1.774	0.101	-53.833	-87.524	15.381	-79.83	26.05	-23.57	-49.098	-6.958	79.380	-0.76959	0.56833	-0.28763	0.04391	29.1	13111	100
2025-3-27 20:16:56.90	WT901BLE68-01(48591DE3C19B)	-0.481	-1.774	0.101	-53.833	-87.524	15.381	-79.92	26.05	-22.58	-49.098	-6.958	79.380	-0.76959	0.56833	-0.28763	0.04391	29.1	13111	100
2025-3-27 20:16:56.90	WT901BLE68-01(48591DE3C19B)	-0.481	-2.542	0.078	-24.414	-83.435	-3.845	-79.77	25.85	-21.70	-49.098	-6.958	79.380	-0.76959	0.56833	-0.28763	0.04391	29.1	13111	100
2025-3-27 20:16:56.90	WT901BLE68-01(48591DE3C19B)	-0.412	-2.542	0.078	-24.414	-83.435	-3.845	-79.64	25.63	-20.82	-49.098	-6.958	79.380	-0.76959	0.56833	-0.28763	0.04391	29.1	13111	100
2025-3-27 20:16:56.148	WT901BLE68-01(48591DE3C19B)	-0.412	-2.122	0.138	26.489	-59.814	5.005	-79.11	25.53	-20.20	-49.098	-6.958	79.380	-0.76959	0.56833	-0.28763	0.04391	29.1	13111	100
2025-3-27 20:16:56.148	WT901BLE68-01(48591DE3C19B)	-0.204	-2.122	0.138	26.489	-59.814	5.005	-78.60	25.42	-19.59	-49.098	-6.958	79.380	-0.76959	0.56833	-0.28763	0.04391	29.1	13111	100
2025-3-27 20:16:56.148	WT901BLE68-01(48591DE3C19B)	-0.204	-1.546	0.136	22.217	-15.198	1.770	-78.34	25.36	-19.48	-49.098	-6.958	79.380	-0.76959	0.56833	-0.28763	0.04391	29.1	13111	100
2025-3-27 20:16:56.148	WT901BLE68-01(48591DE3C19B)	-0.053	-1.546	0.136	22.217	-15.198	1.770	-78.08	25.29	-19.36	-44.394	-5.390	75.852	-0.76959	0.56833	-0.28763	0.04391	29.1	13111	100
2025-3-27 20:16:56.149	WT901BLE68-01(48591DE3C19B)	-0.053	-1.342	0.168	23.682	47.119	8.789	-78.10	25.41	-19.91	-44.394	-5.390	75.852	-0.76959	0.56833	-0.28763	0.04391	29.1	13111	100
2025-3-27 20:16:56.150	WT901BLE68-01(48591DE3C19B)	-0.167	-1.342	0.168	23.682	47.119	8.789	-78.11	25.52	-20.45	-44.394	-5.390	75.852	-0.76959	0.56833	-0.28763	0.04391	29.1	13111	100
2025-3-27 20:16:56.150	WT901BLE68-01(48591DE3C19B)	-0.167	-1.030	0.241	22.766	81.299	15.503	-78.29	25.76	-21.35	-44.394	-5.390	75.852	-0.76959	0.56833	-0.28763	0.04391	29.1	13111	100
2025-3-27 20:16:56.150	WT901BLE68-01(48591DE3C19B)	-0.262	-1.030	0.241	22.766	81.299	15.503	-78.46	26.00	-22.24	-44.394	-5.390	75.852	-0.76959	0.56833	-0.28763	0.04391	29.1	13111	100
2025-3-27 20:16:56.238	WT901BLE68-01(48591DE3C19B)	-0.262	-0.760	0.272	8.850	70.496	12.756	-78.73	26.19	-23.02	-44.394	-5.390	75.852	-0.76959	0.56833	-0.28763	0.04391	29.1	13111	100
2025-3-27 20:16:56.239	WT901BLE68-01(48591DE3C19B)	-0.267	-0.760	0.272	8.850	70.496	12.756	-78.99	26.37	-23.80	-44.394	-5.390	75.852	-0.76959	0.56833	-0.28763	0.04391	29.1	13111	100
2025-3-27 20:16:56.239	WT901BLE68-01(48591DE3C19B)	-0.267	-0.635	0.243	-2.869	49.072	4.333	-79.26	26.43	-24.35	-44.394	-5.390	75.852	-0.76959	0.56833	-0.28763	0.04391	29.1	13111	100
2025-3-27 20:16:56.239	WT901BLE68-01(48591DE3C19B)	-0.270	-0.635	0.243	-2.869	49.072	4.333	-79.53	26.48	-24.91	-44.394	-5.390	75.852	-0.76959	0.56833	-0.28763	0.04391	29.1	13111	100
2025-3-27 20:16:56.240	WT901BLE68-01(48591DE3C19B)	-0.270	-0.589	0.168	-5.188	30.457	-1.587	-79.73	26.46	-25.26	-44.394	-5.390	75.852	-0.76959	0.56833	-0.28763	0.04391	29.1	13111	100
2025-3-27 20:16:56.240	WT901BLE68-01(48591DE3C19B)	-0.344	-0.589	0.168	-5.188	30.457	-1.587	-79.94	26.42	-25.61	-44.394	-5.390	75.852	-0.76959	0.56833	-0.28763	0.04391	29.1	13111	100
2025-3-27 20:16:56.240	WT901BLE68-01(48591DE3C19B)	-0.344	-0.585	0.111	-1.892	16.785	-6.226	-80.04	26.33	-25.82	-44.394	-5.390	75.852	-0.76959	0.56833	-0.28763	0.04391	29.1	13111	100
2025-3-27 20:16:56.240	WT901BLE68-01(48591DE3C19B)	-0.404	-0.585	0.111	-1.892	16.785	-6.226	-80.14	26.24	-26.03	-44.394	-5.390	75.852	-0.76959	0.56833	-0.28763	0.04391	29.1	13111	100
2025-3-27 20:16:56.270	WT901BLE68-01(48591DE3C19B)	-0.404	-0.567	0.094	5.432	-1.038	-10.254	-80.08	26.09	-26.04	-44.394	-5.390	75.852	-0.76959	0.56833	-0.28763	0.04391	29.1	13111	100
2025-3-27 20:16:56.270	WT901BLE68-01(48591DE3C19B)	-0.334	-0.567	0.094	5.432	-1.038	-10.254	-80.03	25.95	-26.05	-44.394	-5.390	75.852	-0.76959	0.56833	-0.28763	0.04391	29.1	13111	100
2025-3-27 20:16:56.270	WT901BLE68-01(48591DE3C19B)	-0.334	-0.504	0.111	12.451	-13.489	-7.446	-79.84	25.82	-25.93	-44.394	-5.390	75.852	-0.76959	0.56833	-0.28763	0.04391	29.1	13111	100
2025-3-27 20:16:56.270	WT901BLE68-01(48591DE3C19B)	-0.259	-0.504	0.111	12.451	-13.489	-7.446	-79.66	25.69	-25.80	-44.394	-5.390	75.852	-0.76959	0.56833	-0.28763	0.04391	29.1	13111	100
2025-3-27 20:16:56.358	WT901BLE68-01(48591DE3C19B)	-0.259	-0.461	0.094	20.386	-9.033	-1.343	-79.41	25.64	-25.70	-44.394	-5.390	75.852	-0.76959	0.56833	-0.28763	0.04391	29.1	13111	100
2025-3-27 20:16:56.358	WT901BLE68-01(48591DE3C19B)	-0.222	-0.461	0.094	20.386	-9.033	-1.343	-79.16	25.59	-25.61	-44.394	-5.390	75.852	-0.76959	0.56833	-0.28763	0.04391	29.1	13111	100
2025-3-27 20:16:56.358	WT901BLE68-01(48591DE3C19B)	-0.222	-0.413	0.057	28.992	7.385	3.235	-78.90	25.61	-25.69	-44.394	-5.390	75.852	-0.76959	0.56833	-0.28763	0.04391	29.1	13111	100
2025-3-27 20:16:56.358	WT901BLE68-01(48591DE3C19B)	-0.244	-0.413	0.057	28.992	7.385	3.235	-78.65	25.65	-25.76	-44.394	-5.390	75.852	-0.76959	0.56833	-0.28763	0.04391	29.1	13111	100
2025-3-27 20:16:56.366	WT901BLE68-01(48591DE3C19B)	-0.244	-0.347	0.038	31.494	20.203	13.000	-78.43	25.80	-25.96	-44.394	-5.390	75.852	-0.76810	0.56042	-0.30786	0.03253	29.1	13111	100
2025-3-27 20:16:56.366	WT901BLE68-01(48591DE3C19B)	-0.247	-0.347	0.038	31.494	20.203	13.000	-78.20	25.96	-26.14	-44.394	-5.390	75.852	-0.76810	0.56042	-0.30786	0.03253	29.1	13111	100
2025-3-27 20:16:56.366	WT901BLE68-01(48591DE3C19B)	-0.232	-0.344	0.063	23.926	19.470	25.024	-78.04	26.24	-26.29	-44.394	-5.390	75.852	-0.76810	0.56042	-0.30786	0.03253	29.1	13111	100
2025-3-27 20:16:56.366	WT901BLE68-01(48591DE3C19B)	-0.232	-0.543	0.125	15.015	19.287	28.870	-77.93	26.53	-26.43	-44.394	-5.390	75.852	-0.76810	0.56042	-0.30786	0.03253	29.1	13111	100
2025-3-27 20:16:56.390	WT901BLE68-01(48591DE3C19B)	-0.344	-0.543	0.125	15.015	19.287	28.870	-77.85	26.85	-26.57	-44.394	-5.390	75.852	-0.76810	0.56042	-0.30786	0.03253	29.1	13111	100
2025-3-27 20:16:56.390	WT901BLE68-01(48591DE3C19B)	-0.344	-0.799	0.184	15.625	31.555	25.391	-77.80	27.15	-26.78	-44.394	-5.390	75.852	-0.76810	0.56042	-0.30786	0.03253	29.1	13111	100
2025-3-27 20:16:56.390	WT901BLE68-01(48591DE3C19B)	-0.458	-0.799	0.184	15.625	31.555	25.391	-77.78	27.45	-27.06	-44.394	-5.390	75.852	-0.76810	0.56042	-0.30786	0.03253	29.1	13111	100
2025-3-27 20:16:56.390	WT901BLE68-01(48591DE3C19B)	-0.458	-0.982	0.161	15.015	38.025	14.282	-77.79	27.70	-27.38	-44.394	-5.390	75.852	-0.76810	0.56042	-0.30786	0.03253	29.1	13111	100
2025-3-27 20:16:56.448	WT901BLE68-01(48591DE3C19B)	-0.552	-0.982	0.161	15.015	38.025	14.282	-77.83	27.89	-27.76	-44.394	-5.390	75.852	-0.76810	0.56042	-0.30786	0.03253	29.1	13111	100
2025-3-27 20:16:56.448	WT901BLE68-01(48591DE3C19B)	-0.552	-1.381	0.183	5.981	36.682	-24.536	-77.93	27.90	-28.17	-44.394	-5.390	75.852	-0.76810	0.56042	-0.30786	0.03253	29.1	13111	100
2025-3-27 20:16:56.448	WT901BLE68-01(48591DE3C19B)	-0.847	-1.381	0.183	5.981	36.682	-24.536	-78.10	27.71	-28.62	-44.394	-5.390	75.852	-0.76810	0.56042	-0.30786	0.03253	29.1	13111	100
2025-3-27 20:16:56.448	WT901BLE68-01(48591DE3C19B)	-0.847	-2.003	0.261	-1.343	34.302	-71.289	-78.32	27.30	-29.11	-44.394	-5.390	75.852	-0.76810	0.56042	-0.30786	0.03253	29.1	13111	100
2025-3-27 20:16:56.477	WT901BLE68-01(48591DE3C19B)	-1.145	-2.003	0.261	-1.343	34.302	-71.289	-78.60	26.64	-29.63	-44.394	-5.390	75.852	-0.76810	0.56042	-0.30786	0.03253	29.1	13111	100
2025-3-27 20:16:56.477	WT901BLE68-01(48591DE3C19B)	-1.145	-2.034	0.387	20.386	18.860	-86.243	-78.72	25.91	-30.08	-44.394	-5.390	75.852	-0.76810	0.56042	-0.30786	0.03253	29.1	13111	100
2025-3-27 20:16:56.477	WT901BLE68-01(48591DE3C19B)	-1.012	-2.034	0.387	20.386	18.860	-86.243	-78.70	25.09	-30.45	-44.394	-5.390	75.852	-0.76810	0.56042	-0.30786	0.03253	29.1	13111	100
2025-3-27 20:16:56.477	WT901BLE68-01(48591DE3C19B)	-1.012	-1.355	0.529	15.808	-0.732	-90.393	-78.65	24.25	-30.71	-44.394	-5.390	75.852	-0.76810	0.56042	-0.30786	0.03253	29.1	13111	100
2025-3-27 20:16:56.538	WT901BLE68-01(48591DE3C19B)	-0.770	-1.355	0.529	15.808	-0.732	-90.393	-78.56	23.38	-30.87	-44.394	-5.390	75.852	-0.76810	0.56042	-0.30786	0.03253	29.1	13111	100
2025-3-27 20:16:56.538	WT901BLE68-01(48591DE3C19B)	-0.770	-1.239	0.523	-4.822	-3.845	-73.914	-78.56	22.60	-30.99	-44.394	-5.390	75.852	-0.76810	0.56042	-0.30786	0.03253	29.1	13111	100
2025-3-27 20:16:56.538	WT901BLE68-01(48591DE3C19B)	-0.615	-1.239	0.523	-4.822	-3.845	-73.914	-78.65	21.90	-31.08	-44.394	-5.390	75.852	-0.76810	0.56042	-0.30786	0.03253	29.1	13111	100
2025-3-27 20:16:56.538	WT901BLE68-01(48591DE3C19B)	-0.615	-1.237	0.382	-8.972	-20.996	-60.181	-78.71	21.26	-31.06	-44.394	-5.390	75.852	-0.76810	0.56042	-0.30786	0.03253	29.1	13111	100
2025-3-27 20:16:56.598	WT901BLE68-01(48591DE3C19B)	-0.515	-1.237	0.382	-8.972	-20.996	-60.181	-78.74	20.67	-30.94	-44.394	-5.390	75.852	-0.76810	0.56042	-0.30786	0.03253	29.1	13111	100
2025-3-27 20:16:56.598	WT901BLE68-01(48591DE3C19B)	-0.515	-1.011	0.286	-7.446	-58.777	-29.053	-78.70	20.20	-30.59	-44.394	-5.390	75.852	-0.76810	0.56042	-0.30786	0.03253	29.1	13111	100
2025-3-27 20:16:56.599	WT901BLE68-01(48591DE3C19B)	-0.430	-1.011	0.286	-7.446	-58.777	-29.053	-78.56	19.85	-30.01	-44.394	-5.390	75.852	-0.76810	0.56042	-0.30786	0.03253	29.1	13111	100
2025-3-27 20:16:56.599	WT901BLE68-01(48591DE3C19B)	-0.430	-0.833	0.245	-15.442	-81.909	-8.850	-78.43	19.57	-29.31	-44.394	-5.390	75.852	-0.76810	0.56042	-0.30786	0.03253	29.1	13111	100
2025-3-27 20:16:56.600	WT901BLE68-01(48591DE3C19B)	-0.292	-0.833	0.245	-15.442	-81.909	-8.850	-78.28	19.36	-28.46	-50.078	0.784	75.362	-0.76810	0.56042	-0.30786	0.03253	29.1	13111	100
2025-3-27 20:16:56.600	WT901BLE68-01(48591DE3C19B)	-0.292	-0.755	0.188	-10.742	-61.401	7.141	-78.15	19.25	-27.71	-50.078	0.784	75.362	-0.76810	0.56042	-0.30786	0.03253	29.1	13111	100
2025-3-27 20:16:56.600	WT901BLE68-01(48591DE3C19B)	-0.257	-0.755	0.188	-10.742	-61.401	7.141	-78.03	19.24	-27.05	-50.078	0.784	75.362	-0.76810	0.56042	-0.30786	0.03253	29.1	13111	100
2025-3-27 20:16:56.600	WT901BLE68-01(48591DE3C19B)	-0.257	-0.638	0.155	-0.244	-11.414	13.794	-77.94	19.31	-26.65	-50.078	0.784	75.362	-0.76810	0.56042	-0.30786	0.03253	29.1	13111	100
2025-3-27 20:16:56.630	WT901BLE68-01(48591DE3C19B)	-0.328	-0.638	0.155	-0.244	-11.414	13.794	-77.87	19.46	-26.50	-50.078	0.784	75.362	-0.76810	0.56042	-0.30786	0.03253	29.1	13111	100
2025-3-27 20:16:56.630	WT901BLE68-01(48591DE3C19B)	-0.328	-0.574	0.158	4.211	28.320	16.541	-77.85	19.66	-26.56	-50.078	0.784	75.362	-0.76810	0.56042	-0.30786	0.03253	29.1	13111	100
2025-3-27 20:16:56.630	WT901BLE68-01(48591DE3C19B)	-0.386	-0.574	0.158	4.211	28.320	16.541	-77.88	19.92	-26.82	-50.078	0.784	75.362	-0.76810	0.56042	-0.30786	0.03253	29.1	13111	100
2025-3-27 20:16:56.630	WT901BLE68-01(48591DE3C19B)	-0.386	-0.525	0.174	5.554	41.504	16.174	-77.93	20.19	-27.14	-50.078	0.784	75.362	-0.76810	0.56042	-0.30786	0.03253	29.1	13111	100
2025-3-27 20:16:56.688	WT901BLE68-01(48591DE3C19B)	-0.396	-0.525	0.174	5.554	41.504	16.174	-78.00	20.47	-27.53	-50.078	0.784	75.362	-0.76810	0.56042	-0.30786	0.03253	29.1	13111	100
2025-3-27 20:16:56.688	WT901BLE68-01(48591DE3C19B)	-0.396	-0.456	0.172	5.493	41.687	14.526	-78.06	20.75	-27.92	-50.078	0.784	75.362	-0.76810	0.56042	-0.30786	0.03253	29.1	13111	100
2025-3-27 20:16:56.688	WT901BLE68-01(48591DE3C19B)	-0.418	-0.456	0.172	5.493	41.687	14.526	-78.13	21.02	-28.31	-50.078	0.784	75.362	-0.76810	0.56042	-0.30786	0.03253	29.1	13111	100
2025-3-27 20:16:56.689	WT901BLE68-01(48591DE3C19B)	-0.418	-0.409	0.164	5.249	35.217	15.869	-78.19	21.30	-28.66	-50.078	0.784	75.362	-0.76810	0.56042	-0.30786	0.03253	29.1	13111	100
2025-3-27 20:16:56.717	WT901BLE68-01(48591DE3C19B)	-0.449	-0.409	0.164	5.249	35.217	15.869	-78.23	21.58	-28.97	-50.078	0.784	75.362	-0.76810	0.56042	-0.30786	0.03253	29.1	13111	100
2025-3-27 20:16:56.717	WT901BLE68-01(48591DE3C19B)	-0.449	-0.347	0.165	2.380	15.259	18.860	-78.26	21.86	-29.17	-50.078	0.784	75.362	-0.76810	0.56042	-0.30786	0.03253	29.1	13111	100
2025-3-27 20:16:56.717	WT901BLE68-01(48591DE3C19B)	-0.399	-0.347	0.165	2.380	15.259	18.860	-78.24	22.14	-29.26	-50.078	0.784	75.362	-0.76810	0.56042	-0.30786	0.03253	29.1	13111	100
2025-3-27 20:16:56.717	WT901BLE68-01(48591DE3C19B)	-0.399	-0.294	0.161	-7.019	-14.404	24.719	-78.22	22.42	-29.18	-50.078	0.784	75.362	-0.76810	0.56042	-0.30786	0.03253	29.1	13111	100
2025-3-27 20:16:56.747	WT901BLE68-01(48591DE3C19B)	-0.303	-0.294	0.161	-7.019	-14.404	24.719	-78.18	22.70	-28.93	-50.078	0.784	75.362	-0.76810	0.56042	-0.30786	0.03253	29.1	13111	100
2025-3-27 20:16:56.748	WT901BLE68-01(48591DE3C19B)	-0.303	-0.307	0.149	-14.160	-34.119	30.273	-78.13	23.01	-28.58	-50.078	0.784	75.362	-0.76810	0.56042	-0.30786	0.03253	29.1	13111	100
2025-3-27 20:16:56.748	WT901BLE68-01(48591DE3C19B)	-0.271	-0.307	0.149	-14.160	-34.119	30.273	-78.07	23.31	-28.10	-50.078	0.784	75.362	-0.76883	0.56024	-0.30197	0.06128	29.1	13111	100
2025-3-27 20:16:56.748	WT901BLE68-01(48591DE3C19B)	-0.271	-0.353	0.120	-18.005	-37.109	35.461	-78.01	23.63	-27.61	-50.078	0.784	75.362	-0.76883	0.56024	-0.30197	0.06128	29.1	13111	100
2025-3-27 20:16:56.808	WT901BLE68-01(48591DE3C19B)	-0.299	-0.353	0.120	-18.005	-37.109	35.461	-77.96	23.98	-27.09	-50.078	0.784	75.362	-0.76883	0.56024	-0.30197	0.06128	29.1	13111	100
2025-3-27 20:16:56.808	WT901BLE68-01(48591DE3C19B)	-0.299	-0.482	0.104	-23.560	-35.278	36.926	-77.94	24.33	-26.58	-50.078	0.784	75.362	-0.76883	0.56024	-0.30197	0.06128	29.1	13111	100
2025-3-27 20:16:56.808	WT901BLE68-01(48591DE3C19B)	-0.379	-0.482	0.104	-23.560	-35.278	36.926	-77.95	24.69	-26.08	-50.078	0.784	75.362	-0.76883	0.56024	-0.30197	0.06128	29.1	13111	100
2025-3-27 20:16:56.808	WT901BLE68-01(48591DE3C19B)	-0.379	-0.723	0.108	-29.907	-37.964	34.668	-77.99	25.03	-25.58	-50.078	0.784	75.362	-0.76883	0.56024	-0.30197	0.06128	29.1	13111	100
2025-3-27 20:16:56.837	WT901BLE68-01(48591DE3C19B)	-0.468	-0.723	0.108	-29.907	-37.964	34.668	-78.06	25.34	-25.06	-50.078	0.784	75.362	-0.76883	0.56024	-0.30197	0.06128	29.1	13111	100
2025-3-27 20:16:56.837	WT901BLE68-01(48591DE3C19B)	-0.468	-1.158	0.155	-34.485	-43.213	27.222	-78.16	25.56	-24.52	-50.078	0.784	75.362	-0.76883	0.56024	-0.30197	0.06128	29.1	13111	100
2025-3-27 20:16:56.837	WT901BLE68-01(48591DE3C19B)	-0.557	-1.158	0.155	-34.485	-43.213	27.222	-78.26	25.77	-23.98	-50.078	0.784	75.362	-0.76883	0.56024	-0.30197	0.06128	29.1	13111	100
2025-3-27 20:16:56.837	WT901BLE68-01(48591DE3C19B)	-0.557	-1.864	0.182	-25.696	-45.837	8.301	-78.29	25.77	-23.46	-50.078	0.784	75.362	-0.76883	0.56024	-0.30197	0.06128	29.1	13111	100
2025-3-27 20:16:56.868	WT901BLE68-01(48591DE3C19B)	-0.621	-1.864	0.182	-25.696	-45.837	8.301	-78.33	25.76	-22.96	-50.078	0.784	75.362	-0.76883	0.56024	-0.30197	0.06128	29.1	13111	100
2025-3-27 20:16:56.868	WT901BLE68-01(48591DE3C19B)	-0.621	-2.383	0.167	-9.094	-46.509	-4.272	-78.22	25.61	-22.48	-50.078	0.784	75.362	-0.76883	0.56024	-0.30197	0.06128	29.1	13111	100
2025-3-27 20:16:56.868	WT901BLE68-01(48591DE3C19B)	-0.673	-2.383	0.167	-9.094	-46.509	-4.272	-78.12	25.46	-22.02	-50.078	0.784	75.362	-0.76883	0.56024	-0.30197	0.06128	29.1	13111	100
2025-3-27 20:16:56.868	WT901BLE68-01(48591DE3C19B)	-0.673	-1.956	0.237	26.001	-38.147	-10.925	-77.72	25.24	-21.67	-50.078	0.784	75.362	-0.76883	0.56024	-0.30197	0.06128	29.1	13111	100
2025-3-27 20:16:56.928	WT901BLE68-01(48591DE3C19B)	-0.514	-1.956	0.237	26.001	-38.147	-10.925	-77.33	25.03	-21.31	-50.078	0.784	75.362	-0.76883	0.56024	-0.30197	0.06128	29.1	13111	100
2025-3-27 20:16:56.928	WT901BLE68-01(48591DE3C19B)	-0.514	-1.451	0.244	21.240	-20.874	-7.507	-77.06	24.88	-21.14	-50.078	0.784	75.362	-0.76883	0.56024	-0.30197	0.06128	29.1	13111	100
2025-3-27 20:16:56.928	WT901BLE68-01(48591DE3C19B)	-0.380	-1.451	0.244	21.240	-20.874	-7.507	-76.80	24.74	-20.98	-50.078	0.784	75.362	-0.76883	0.56024	-0.30197	0.06128	29.1	13111	100
2025-3-27 20:16:56.928	WT901BLE68-01(48591DE3C19B)	-0.380	-1.229	0.278	19.653	8.850	3.845	-76.67	24.77	-21.10	-50.078	0.784	75.362	-0.76883	0.56024	-0.30197	0.06128	29.1	13111	100
2025-3-27 20:16:56.965	WT901BLE68-01(48591DE3C19B)	-0.347	-1.229	0.278	19.653	8.850	3.845	-76.54	24.80	-21.22	-44.002	-2.058	73.598	-0.76883	0.56024	-0.30197	0.06128	29.1	13111	100
2025-3-27 20:16:56.965	WT901BLE68-01(48591DE3C19B)	-0.347	-1.001	0.278	17.578	24.841	11.719	-76.49	24.94	-21.49	-44.002	-2.058	73.598	-0.76883	0.56024	-0.30197	0.06128	29.1	13111	100
2025-3-27 20:16:56.965	WT901BLE68-01(48591DE3C19B)	-0.411	-1.001	0.278	17.578	24.841	11.719	-76.44	25.09	-21.76	-44.002	-2.058	73.598	-0.76883	0.56024	-0.30197	0.06128	29.1	13111	100
2025-3-27 20:16:56.965	WT901BLE68-01(48591DE3C19B)	-0.411	-0.838	0.240	6.775	13.916	13.550	-76.44	25.22	-21.91	-44.002	-2.058	73.598	-0.76883	0.56024	-0.30197	0.06128	29.1	13111	100
2025-3-27 20:16:56.990	WT901BLE68-01(48591DE3C19B)	-0.426	-0.838	0.240	6.775	13.916	13.550	-76.44	25.35	-22.05	-44.002	-2.058	73.598	-0.76883	0.56024	-0.30197	0.06128	29.1	13111	100
2025-3-27 20:16:56.990	WT901BLE68-01(48591DE3C19B)	-0.426	-0.794	0.218	0.122	-7.263	7.263	-76.42	25.38	-21.98	-44.002	-2.058	73.598	-0.76883	0.56024	-0.30197	0.06128	29.1	13111	100
2025-3-27 20:16:56.990	WT901BLE68-01(48591DE3C19B)	-0.409	-0.794	0.218	0.122	-7.263	7.263	-76.39	25.41	-21.91	-44.002	-2.058	73.598	-0.76883	0.56024	-0.30197	0.06128	29.1	13111	100
2025-3-27 20:16:56.990	WT901BLE68-01(48591DE3C19B)	-0.409	-0.742	0.193	2.441	-13.000	2.808	-76.32	25.38	-21.79	-44.002	-2.058	73.598	-0.76883	0.56024	-0.30197	0.06128	29.1	13111	100
2025-3-27 20:16:57.47	WT901BLE68-01(48591DE3C19B)	-0.420	-0.742	0.193	2.441	-13.000	2.808	-76.24	25.36	-21.67	-44.002	-2.058	73.598	-0.76883	0.56024	-0.30197	0.06128	29.1	13111	100
2025-3-27 20:16:57.47	WT901BLE68-01(48591DE3C19B)	-0.420	-0.656	0.168	6.714	-8.423	-2.686	-76.15	25.30	-21.62	-44.002	-2.058	73.598	-0.76883	0.56024	-0.30197	0.06128	29.1	13111	100
2025-3-27 20:16:57.48	WT901BLE68-01(48591DE3C19B)	-0.390	-0.656	0.168	6.714	-8.423	-2.686	-76.06	25.25	-21.56	-44.002	-2.058	73.598	-0.76883	0.56024	-0.30197	0.06128	29.1	13111	100
2025-3-27 20:16:57.48	WT901BLE68-01(48591DE3C19B)	-0.390	-0.582	0.138	9.460	-1.770	-5.066	-75.98	25.19	-21.57	-44.002	-2.058	73.598	-0.76883	0.56024	-0.30197	0.06128	29.1	13111	100
2025-3-27 20:16:57.77	WT901BLE68-01(48591DE3C19B)	-0.355	-0.582	0.138	9.460	-1.770	-5.066	-75.89	25.13	-21.59	-44.002	-2.058	73.598	-0.76883	0.56024	-0.30197	0.06128	29.1	13111	100
2025-3-27 20:16:57.77	WT901BLE68-01(48591DE3C19B)	-0.355	-0.542	0.119	12.756	5.066	-5.310	-75.80	25.09	-21.68	-44.002	-2.058	73.598	-0.76883	0.56024	-0.30197	0.06128	29.1	13111	100
2025-3-27 20:16:57.77	WT901BLE68-01(48591DE3C19B)	-0.343	-0.542	0.119	12.756	5.066	-5.310	-75.72	25.06	-21.76	-44.002	-2.058	73.598	-0.76883	0.56024	-0.30197	0.06128	29.1	13111	100
2025-3-27 20:16:57.77	WT901BLE68-01(48591DE3C19B)	-0.343	-0.503	0.097	15.137	8.057	-5.859	-75.62	25.03	-21.88	-44.002	-2.058	73.598	-0.76883	0.56024	-0.30197	0.06128	29.1	13111	100
2025-3-27 20:16:57.109	WT901BLE68-01(48591DE3C19B)	-0.352	-0.503	0.097	15.137	8.057	-5.859	-75.53	25.00	-22.01	-44.002	-2.058	73.598	-0.76883	0.56024	-0.30197	0.06128	29.1	13111	100
2025-3-27 20:16:57.109	WT901BLE68-01(48591DE3C19B)	-0.352	-0.492	0.075	14.709	5.676	-6.042	-75.43	24.97	-22.10	-44.002	-2.058	73.598	-0.76883	0.56024	-0.30197	0.06128	29.1	13111	100
2025-3-27 20:16:57.110	WT901BLE68-01(48591DE3C19B)	-0.339	-0.492	0.075	14.709	5.676	-6.042	-75.33	24.95	-22.19	-44.002	-2.058	73.598	-0.76883	0.56024	-0.30197	0.06128	29.1	13111	100
2025-3-27 20:16:57.110	WT901BLE68-01(48591DE3C19B)	-0.339	-0.518	0.063	11.475	-0.977	-4.089	-75.23	24.93	-22.21	-44.002	-2.058	73.598	-0.76883	0.56024	-0.30197	0.06128	29.1	13111	100
2025-3-27 20:16:57.167	WT901BLE68-01(48591DE3C19B)	-0.310	-0.518	0.063	11.475	-0.977	-4.089	-75.14	24.91	-22.22	-44.002	-2.058	73.598	-0.76883	0.56024	-0.30197	0.06128	29.1	13111	100
2025-3-27 20:16:57.167	WT901BLE68-01(48591DE3C19B)	-0.310	-0.570	0.065	8.545	-4.517	-1.038	-75.06	24.91	-22.19	-44.002	-2.058	73.598	-0.78513	0.55078	-0.28232	0.02008	29.1	13111	100
2025-3-27 20:16:57.167	WT901BLE68-01(48591DE3C19B)	-0.299	-0.570	0.065	8.545	-4.517	-1.038	-74.98	24.91	-22.16	-44.002	-2.058	73.598	-0.78513	0.55078	-0.28232	0.02008	29.1	13111	100
2025-3-27 20:16:57.167	WT901BLE68-01(48591DE3C19B)	-0.299	-0.640	0.099	6.653	-2.502	4.517	-74.93	24.97	-22.14	-44.002	-2.058	73.598	-0.78513	0.55078	-0.28232	0.02008	29.1	13111	100
2025-3-27 20:16:57.198	WT901BLE68-01(48591DE3C19B)	-0.304	-0.640	0.099	6.653	-2.502	4.517	-74.87	25.03	-22.12	-44.002	-2.058	73.598	-0.78513	0.55078	-0.28232	0.02008	29.1	13111	100
2025-3-27 20:16:57.198	WT901BLE68-01(48591DE3C19B)	-0.304	-0.694	0.173	7.263	3.296	13.367	-74.83	25.18	-22.14	-44.002	-2.058	73.598	-0.78513	0.55078	-0.28232	0.02008	29.1	13111	100
2025-3-27 20:16:57.198	WT901BLE68-01(48591DE3C19B)	-0.314	-0.694	0.173	7.263	3.296	13.367	-74.78	25.33	-22.16	-44.002	-2.058	73.598	-0.78513	0.55078	-0.28232	0.02008	29.1	13111	100
2025-3-27 20:16:57.198	WT901BLE68-01(48591DE3C19B)	-0.314	-0.641	0.240	11.475	6.653	25.757	-74.69	25.61	-22.18	-44.002	-2.058	73.598	-0.78513	0.55078	-0.28232	0.02008	29.1	13111	100
2025-3-27 20:16:57.257	WT901BLE68-01(48591DE3C19B)	-0.260	-0.641	0.240	11.475	6.653	25.757	-74.59	25.88	-22.19	-44.002	-2.058	73.598	-0.78513	0.55078	-0.28232	0.02008	29.1	13111	100
2025-3-27 20:16:57.258	WT901BLE68-01(48591DE3C19B)	-0.260	-0.497	0.240	8.118	7.263	42.114	-74.50	26.31	-22.16	-44.002	-2.058	73.598	-0.78513	0.55078	-0.28232	0.02008	29.1	13111	100
2025-3-27 20:16:57.258	WT901BLE68-01(48591DE3C19B)	-0.222	-0.497	0.240	8.118	7.263	42.114	-74.40	26.73	-22.13	-44.002	-2.058	73.598	-0.78513	0.55078	-0.28232	0.02008	29.1	13111	100
2025-3-27 20:16:57.258	WT901BLE68-01(48591DE3C19B)	-0.222	-0.730	0.163	-7.935	19.775	50.049	-74.51	27.26	-22.21	-44.002	-2.058	73.598	-0.78513	0.55078	-0.28232	0.02008	29.1	13111	100
2025-3-27 20:16:57.287	WT901BLE68-01(48591DE3C19B)	-0.343	-0.730	0.163	-7.935	19.775	50.049	-74.63	27.78	-22.30	-44.002	-2.058	73.598	-0.78513	0.55078	-0.28232	0.02008	29.1	13111	100
2025-3-27 20:16:57.287	WT901BLE68-01(48591DE3C19B)	-0.343	-1.087	0.073	-14.771	33.630	42.419	-74.90	28.25	-22.57	-44.002	-2.058	73.598	-0.78513	0.55078	-0.28232	0.02008	29.1	13111	100
2025-3-27 20:16:57.287	WT901BLE68-01(48591DE3C19B)	-0.471	-1.087	0.073	-14.771	33.630	42.419	-75.19	28.71	-22.85	-44.002	-2.058	73.598	-0.78513	0.55078	-0.28232	0.02008	29.1	13111	100
2025-3-27 20:16:57.287	WT901BLE68-01(48591DE3C19B)	-0.816	-1.697	0.187	-20.142	36.377	21.179	-75.59	28.97	-23.21	-44.002	-2.058	73.598	-0.78513	0.55078	-0.28232	0.02008	29.1	13111	100
2025-3-27 20:16:57.348	WT901BLE68-01(48591DE3C19B)	-0.816	-2.605	0.329	-21.851	16.541	-11.719	-75.96	29.03	-23.53	-44.002	-2.058	73.598	-0.78513	0.55078	-0.28232	0.02008	29.1	13111	100
2025-3-27 20:16:57.348	WT901BLE68-01(48591DE3C19B)	-0.830	-2.605	0.329	-21.851	16.541	-11.719	-76.31	28.90	-23.78	-44.002	-2.058	73.598	-0.78513	0.55078	-0.28232	0.02008	29.1	13111	100
2025-3-27 20:16:57.348	WT901BLE68-01(48591DE3C19B)	-0.830	-2.080	0.485	7.996	-26.672	-10.315	-76.40	28.73	-23.79	-44.002	-2.058	73.598	-0.78513	0.55078	-0.28232	0.02008	29.1	13111	100
2025-3-27 20:16:57.348	WT901BLE68-01(48591DE3C19B)	-0.515	-2.080	0.485	7.996	-26.672	-10.315	-76.22	28.52	-23.55	-44.002	-2.058	73.598	-0.78513	0.55078	-0.28232	0.02008	29.1	13111	100
2025-3-27 20:16:57.408	WT901BLE68-01(48591DE3C19B)	-0.515	-1.177	0.698	-16.113	-39.063	-5.859	-76.12	28.31	-23.25	-44.002	-2.058	73.598	-0.78513	0.55078	-0.28232	0.02008	29.1	13111	100
2025-3-27 20:16:57.408	WT901BLE68-01(48591DE3C19B)	-0.451	-1.177	0.698	-16.113	-39.063	-5.859	-76.10	28.11	-22.87	-44.002	-2.058	73.598	-0.78513	0.55078	-0.28232	0.02008	29.1	13111	100
2025-3-27 20:16:57.408	WT901BLE68-01(48591DE3C19B)	-0.451	-1.065	0.708	-36.621	-9.644	18.066	-76.23	28.06	-22.62	-44.002	-2.058	73.598	-0.78513	0.55078	-0.28232	0.02008	29.1	13111	100
2025-3-27 20:16:57.408	WT901BLE68-01(48591DE3C19B)	-0.575	-1.065	0.708	-36.621	-9.644	18.066	-76.51	28.17	-22.49	-44.002	-2.058	73.598	-0.78513	0.55078	-0.28232	0.02008	29.1	13111	100
2025-3-27 20:16:57.409	WT901BLE68-01(48591DE3C19B)	-0.575	-1.132	0.544	-39.673	-4.089	16.235	-76.81	28.27	-22.41	-47.432	-6.566	71.736	-0.78513	0.55078	-0.28232	0.02008	29.1	13111	100
2025-3-27 20:16:57.409	WT901BLE68-01(48591DE3C19B)	-0.488	-1.132	0.544	-39.673	-4.089	16.235	-77.14	28.37	-22.35	-47.432	-6.566	71.736	-0.78513	0.55078	-0.28232	0.02008	29.1	13111	100
2025-3-27 20:16:57.409	WT901BLE68-01(48591DE3C19B)	-0.488	-1.103	0.390	-44.128	-46.814	23.987	-77.36	28.47	-22.04	-47.432	-6.566	71.736	-0.78513	0.55078	-0.28232	0.02008	29.1	13111	100
2025-3-27 20:16:57.410	WT901BLE68-01(48591DE3C19B)	-0.269	-1.103	0.390	-44.128	-46.814	23.987	-77.49	28.55	-21.49	-47.432	-6.566	71.736	-0.78513	0.55078	-0.28232	0.02008	29.1	13111	100
2025-3-27 20:16:57.467	WT901BLE68-01(48591DE3C19B)	-0.269	-1.144	0.278	-34.485	-61.768	25.269	-77.53	28.63	-20.86	-47.432	-6.566	71.736	-0.78513	0.55078	-0.28232	0.02008	29.1	13111	100
2025-3-27 20:16:57.467	WT901BLE68-01(48591DE3C19B)	-0.213	-1.144	0.278	-34.485	-61.768	25.269	-77.48	28.69	-20.15	-47.432	-6.566	71.736	-0.78513	0.55078	-0.28232	0.02008	29.1	13111	100
2025-3-27 20:16:57.467	WT901BLE68-01(48591DE3C19B)	-0.213	-1.042	0.223	-12.939	-41.992	16.968	-77.38	28.73	-19.57	-47.432	-6.566	71.736	-0.78513	0.55078	-0.28232	0.02008	29.1	13111	100
2025-3-27 20:16:57.468	WT901BLE68-01(48591DE3C19B)	-0.208	-1.042	0.223	-12.939	-41.992	16.968	-77.24	28.75	-19.11	-47.432	-6.566	71.736	-0.78513	0.55078	-0.28232	0.02008	29.1	13111	100
2025-3-27 20:16:57.498	WT901BLE68-01(48591DE3C19B)	-0.208	-0.835	0.188	-2.869	-11.353	9.155	-77.14	28.75	-18.83	-47.432	-6.566	71.736	-0.78513	0.55078	-0.28232	0.02008	29.1	13111	100
2025-3-27 20:16:57.498	WT901BLE68-01(48591DE3C19B)	-0.212	-0.835	0.188	-2.869	-11.353	9.155	-77.08	28.75	-18.74	-47.432	-6.566	71.736	-0.78513	0.55078	-0.28232	0.02008	29.1	13111	100
2025-3-27 20:16:57.498	WT901BLE68-01(48591DE3C19B)	-0.212	-0.721	0.186	1.282	24.048	7.568	-77.10	28.78	-18.84	-47.432	-6.566	71.736	-0.78513	0.55078	-0.28232	0.02008	29.1	13111	100
2025-3-27 20:16:57.498	WT901BLE68-01(48591DE3C19B)	-0.274	-0.721	0.186	1.282	24.048	7.568	-77.19	28.84	-19.15	-47.432	-6.566	71.736	-0.78513	0.55078	-0.28232	0.02008	29.1	13111	100
2025-3-27 20:16:57.528	WT901BLE68-01(48591DE3C19B)	-0.274	-0.688	0.231	5.005	46.997	7.874	-77.32	28.92	-19.58	-47.432	-6.566	71.736	-0.78513	0.55078	-0.28232	0.02008	29.1	13111	100
2025-3-27 20:16:57.528	WT901BLE68-01(48591DE3C19B)	-0.379	-0.688	0.231	5.005	46.997	7.874	-77.50	29.04	-20.13	-47.432	-6.566	71.736	-0.78513	0.55078	-0.28232	0.02008	29.1	13111	100
2025-3-27 20:16:57.529	WT901BLE68-01(48591DE3C19B)	-0.379	-0.662	0.271	5.981	45.715	3.357	-77.67	29.12	-20.68	-47.432	-6.566	71.736	-0.78513	0.55078	-0.28232	0.02008	29.1	13111	100
2025-3-27 20:16:57.529	WT901BLE68-01(48591DE3C19B)	-0.434	-0.662	0.271	5.981	45.715	3.357	-77.83	29.19	-21.23	-47.432	-6.566	71.736	-0.76883	0.56104	-0.30621	-0.01544	29.1	13111	100
2025-3-27 20:16:57.567	WT901BLE68-01(48591DE3C19B)	-0.434	-0.622	0.283	2.930	28.259	-0.366	-77.95	29.22	-21.68	-47.432	-6.566	71.736	-0.76883	0.56104	-0.30621	-0.01544	29.1	13111	100
2025-3-27 20:16:57.567	WT901BLE68-01(48591DE3C19B)	-0.431	-0.622	0.283	2.930	28.259	-0.366	-78.04	29.23	-22.02	-47.432	-6.566	71.736	-0.76883	0.56104	-0.30621	-0.01544	29.1	13111	100
2025-3-27 20:16:57.567	WT901BLE68-01(48591DE3C19B)	-0.431	-0.661	0.261	-2.991	8.179	-3.479	-78.11	29.20	-22.26	-47.432	-6.566	71.736	-0.76883	0.56104	-0.30621	-0.01544	29.1	13111	100
2025-3-27 20:16:57.567	WT901BLE68-01(48591DE3C19B)	-0.383	-0.661	0.261	-2.991	8.179	-3.479	-78.15	29.14	-22.38	-47.432	-6.566	71.736	-0.76883	0.56104	-0.30621	-0.01544	29.1	13111	100
