time	DeviceName	AccX(g)	AccY(g)	AccZ(g)	AsX(°/s)	AsY(°/s)	AsZ(°/s)	AngleX(°)	AngleY(°)	AngleZ(°)	HX(uT)	HY(uT)	HZ(uT)	Q0()	Q1()	Q2()	Q3()	Temperature(°C)	Version()	Battery level(%)
2025-3-27 20:29:13.585	WT901BLE68-01(48591DE3C19B)	-0.366	-0.954	0.179	-3.723	-13.062	10.620	-82.40	21.55	-10.02	-47.824	-50.960	33.222	-0.73779	0.64621	-0.15848	-0.11325	30.4	13111	100
2025-3-27 20:29:13.585	WT901BLE68-01(48591DE3C19B)	-0.330	-0.954	0.179	-3.723	-13.062	10.620	-82.36	21.63	-10.09	-47.824	-50.960	33.222	-0.73779	0.64621	-0.15848	-0.11325	30.4	13111	100
2025-3-27 20:29:13.585	WT901BLE68-01(48591DE3C19B)	-0.330	-0.945	0.184	-3.113	-13.733	12.390	-82.32	21.72	-10.14	-47.824	-50.960	33.222	-0.73779	0.64621	-0.15848	-0.11325	30.4	13111	100
2025-3-27 20:29:13.585	WT901BLE68-01(48591DE3C19B)	-0.320	-0.945	0.184	-3.113	-13.733	12.390	-82.28	21.81	-10.20	-47.824	-50.960	33.222	-0.73779	0.64621	-0.15848	-0.11325	30.4	13111	100
2025-3-27 20:29:13.618	WT901BLE68-01(48591DE3C19B)	-0.320	-0.955	0.185	-1.465	-9.155	12.634	-82.24	21.91	-10.31	-47.824	-50.960	33.222	-0.73779	0.64621	-0.15848	-0.11325	30.4	13111	100
2025-3-27 20:29:13.618	WT901BLE68-01(48591DE3C19B)	-0.327	-0.955	0.185	-1.465	-9.155	12.634	-82.20	22.00	-10.41	-47.824	-50.960	33.222	-0.73779	0.64621	-0.15848	-0.11325	30.4	13111	100
2025-3-27 20:29:13.618	WT901BLE68-01(48591DE3C19B)	-0.327	-0.955	0.184	1.709	-3.540	12.085	-82.15	22.10	-10.58	-47.824	-50.960	33.222	-0.73779	0.64621	-0.15848	-0.11325	30.4	13111	100
2025-3-27 20:29:13.618	WT901BLE68-01(48591DE3C19B)	-0.310	-0.955	0.184	1.709	-3.540	12.085	-82.11	22.19	-10.75	-47.824	-50.960	33.222	-0.73779	0.64621	-0.15848	-0.11325	30.4	13111	100
2025-3-27 20:29:13.675	WT901BLE68-01(48591DE3C19B)	-0.310	-0.941	0.179	4.578	2.197	11.230	-82.05	22.29	-10.99	-47.824	-50.960	33.222	-0.73779	0.64621	-0.15848	-0.11325	30.4	13111	100
2025-3-27 20:29:13.676	WT901BLE68-01(48591DE3C19B)	-0.305	-0.941	0.179	4.578	2.197	11.230	-82.00	22.38	-11.22	-47.824	-50.960	33.222	-0.73779	0.64621	-0.15848	-0.11325	30.4	13111	100
2025-3-27 20:29:13.676	WT901BLE68-01(48591DE3C19B)	-0.305	-0.926	0.171	7.690	8.545	9.888	-81.95	22.47	-11.52	-47.824	-50.960	33.222	-0.74979	0.62457	-0.21198	-0.05194	30.4	13111	100
2025-3-27 20:29:13.676	WT901BLE68-01(48591DE3C19B)	-0.319	-0.926	0.171	7.690	8.545	9.888	-81.89	22.55	-11.82	-47.824	-50.960	33.222	-0.74979	0.62457	-0.21198	-0.05194	30.4	13111	100
2025-3-27 20:29:13.766	WT901BLE68-01(48591DE3C19B)	-0.319	-0.915	0.162	9.949	11.047	8.606	-81.83	22.63	-12.15	-47.824	-50.960	33.222	-0.74979	0.62457	-0.21198	-0.05194	30.4	13111	100
2025-3-27 20:29:13.766	WT901BLE68-01(48591DE3C19B)	-0.327	-0.915	0.162	9.949	11.047	8.606	-81.76	22.70	-12.47	-47.824	-50.960	33.222	-0.74979	0.62457	-0.21198	-0.05194	30.4	13111	100
2025-3-27 20:29:13.766	WT901BLE68-01(48591DE3C19B)	-0.327	-0.917	0.160	11.108	10.864	7.263	-81.68	22.76	-12.80	-47.824	-50.960	33.222	-0.74979	0.62457	-0.21198	-0.05194	30.4	13111	100
2025-3-27 20:29:13.766	WT901BLE68-01(48591DE3C19B)	-0.328	-0.917	0.160	11.108	10.864	7.263	-81.61	22.83	-13.12	-47.824	-50.960	33.222	-0.74979	0.62457	-0.21198	-0.05194	30.4	13111	100
2025-3-27 20:29:13.767	WT901BLE68-01(48591DE3C19B)	-0.328	-0.927	0.160	12.146	10.498	5.798	-81.52	22.87	-13.44	-47.824	-50.960	33.222	-0.74979	0.62457	-0.21198	-0.05194	30.4	13111	100
2025-3-27 20:29:13.767	WT901BLE68-01(48591DE3C19B)	-0.338	-0.927	0.160	12.146	10.498	5.798	-81.44	22.92	-13.75	-47.824	-50.960	33.222	-0.74979	0.62457	-0.21198	-0.05194	30.4	13111	100
2025-3-27 20:29:13.767	WT901BLE68-01(48591DE3C19B)	-0.338	-0.938	0.162	12.817	9.583	4.517	-81.35	22.96	-14.06	-47.824	-50.960	33.222	-0.74979	0.62457	-0.21198	-0.05194	30.4	13111	100
2025-3-27 20:29:13.767	WT901BLE68-01(48591DE3C19B)	-0.337	-0.938	0.162	12.817	9.583	4.517	-81.25	22.99	-14.35	-47.824	-50.960	33.222	-0.74979	0.62457	-0.21198	-0.05194	30.4	13111	100
2025-3-27 20:29:13.768	WT901BLE68-01(48591DE3C19B)	-0.337	-0.946	0.163	13.123	8.118	2.930	-81.16	23.01	-14.64	-47.824	-50.960	33.222	-0.74979	0.62457	-0.21198	-0.05194	30.4	13111	100
2025-3-27 20:29:13.768	WT901BLE68-01(48591DE3C19B)	-0.334	-0.946	0.163	13.123	8.118	2.930	-81.06	23.03	-14.92	-47.824	-50.960	33.222	-0.74979	0.62457	-0.21198	-0.05194	30.4	13111	100
2025-3-27 20:29:13.768	WT901BLE68-01(48591DE3C19B)	-0.334	-0.952	0.163	13.367	7.629	1.587	-80.96	23.03	-15.21	-47.824	-50.960	33.222	-0.74979	0.62457	-0.21198	-0.05194	30.4	13111	100
2025-3-27 20:29:13.768	WT901BLE68-01(48591DE3C19B)	-0.330	-0.952	0.163	13.367	7.629	1.587	-80.85	23.03	-15.48	-47.824	-50.960	33.222	-0.74979	0.62457	-0.21198	-0.05194	30.4	13111	100
2025-3-27 20:29:13.826	WT901BLE68-01(48591DE3C19B)	-0.330	-0.951	0.156	13.184	7.751	0.427	-80.76	23.03	-15.76	-47.824	-50.960	33.222	-0.74979	0.62457	-0.21198	-0.05194	30.4	13111	100
2025-3-27 20:29:13.826	WT901BLE68-01(48591DE3C19B)	-0.327	-0.951	0.156	13.184	7.751	0.427	-80.66	23.02	-16.03	-47.824	-50.960	33.222	-0.74979	0.62457	-0.21198	-0.05194	30.4	13111	100
2025-3-27 20:29:13.826	WT901BLE68-01(48591DE3C19B)	-0.327	-0.937	0.152	12.939	7.813	-0.549	-80.57	23.01	-16.31	-47.824	-50.960	33.222	-0.74979	0.62457	-0.21198	-0.05194	30.4	13111	100
2025-3-27 20:29:13.826	WT901BLE68-01(48591DE3C19B)	-0.328	-0.937	0.152	12.939	7.813	-0.549	-80.48	22.99	-16.58	-47.824	-50.960	33.222	-0.74979	0.62457	-0.21198	-0.05194	30.4	13111	100
2025-3-27 20:29:13.855	WT901BLE68-01(48591DE3C19B)	-0.328	-0.911	0.156	11.597	6.958	-1.404	-80.40	22.97	-16.85	-47.824	-50.960	33.222	-0.74979	0.62457	-0.21198	-0.05194	30.4	13111	100
2025-3-27 20:29:13.855	WT901BLE68-01(48591DE3C19B)	-0.329	-0.911	0.156	11.597	6.958	-1.404	-80.32	22.94	-17.11	-47.824	-50.960	33.222	-0.74979	0.62457	-0.21198	-0.05194	30.4	13111	100
2025-3-27 20:29:13.855	WT901BLE68-01(48591DE3C19B)	-0.324	-0.903	0.161	9.583	4.700	-2.014	-80.25	22.91	-17.34	-47.824	-50.960	33.222	-0.74979	0.62457	-0.21198	-0.05194	30.4	13111	100
2025-3-27 20:29:13.855	WT901BLE68-01(48591DE3C19B)	-0.324	-0.897	0.163	7.874	2.380	-2.502	-80.18	22.87	-17.57	-48.510	-51.940	34.202	-0.74979	0.62457	-0.21198	-0.05194	30.4	13111	100
2025-3-27 20:29:13.885	WT901BLE68-01(48591DE3C19B)	-0.327	-0.897	0.163	7.874	2.380	-2.502	-80.12	22.83	-17.77	-48.510	-51.940	34.202	-0.74979	0.62457	-0.21198	-0.05194	30.4	13111	100
2025-3-27 20:29:13.886	WT901BLE68-01(48591DE3C19B)	-0.327	-0.900	0.166	6.287	1.099	-2.930	-80.07	22.79	-17.97	-48.510	-51.940	34.202	-0.74979	0.62457	-0.21198	-0.05194	30.4	13111	100
2025-3-27 20:29:13.886	WT901BLE68-01(48591DE3C19B)	-0.318	-0.900	0.166	6.287	1.099	-2.930	-80.02	22.74	-18.17	-48.510	-51.940	34.202	-0.74979	0.62457	-0.21198	-0.05194	30.4	13111	100
2025-3-27 20:29:13.886	WT901BLE68-01(48591DE3C19B)	-0.318	-0.910	0.175	5.310	0.122	-3.418	-79.97	22.69	-18.35	-48.510	-51.940	34.202	-0.74979	0.62457	-0.21198	-0.05194	30.4	13111	100
2025-3-27 20:29:13.946	WT901BLE68-01(48591DE3C19B)	-0.299	-0.910	0.175	5.310	0.122	-3.418	-79.93	22.64	-18.53	-48.510	-51.940	34.202	-0.74979	0.62457	-0.21198	-0.05194	30.4	13111	100
2025-3-27 20:29:13.946	WT901BLE68-01(48591DE3C19B)	-0.299	-0.909	0.178	5.432	1.709	-3.906	-79.88	22.58	-18.72	-48.510	-51.940	34.202	-0.74979	0.62457	-0.21198	-0.05194	30.4	13111	100
2025-3-27 20:29:13.946	WT901BLE68-01(48591DE3C19B)	-0.303	-0.909	0.178	5.432	1.709	-3.906	-79.84	22.53	-18.92	-48.510	-51.940	34.202	-0.74979	0.62457	-0.21198	-0.05194	30.4	13111	100
2025-3-27 20:29:13.946	WT901BLE68-01(48591DE3C19B)	-0.303	-0.901	0.181	5.554	4.639	-4.578	-79.81	22.47	-19.13	-48.510	-51.940	34.202	-0.74979	0.62457	-0.21198	-0.05194	30.4	13111	100
2025-3-27 20:29:13.975	WT901BLE68-01(48591DE3C19B)	-0.308	-0.901	0.181	5.554	4.639	-4.578	-79.78	22.41	-19.36	-48.510	-51.940	34.202	-0.74979	0.62457	-0.21198	-0.05194	30.4	13111	100
2025-3-27 20:29:13.976	WT901BLE68-01(48591DE3C19B)	-0.308	-0.904	0.188	5.371	6.104	-5.676	-79.76	22.35	-19.61	-48.510	-51.940	34.202	-0.74979	0.62457	-0.21198	-0.05194	30.4	13111	100
2025-3-27 20:29:13.976	WT901BLE68-01(48591DE3C19B)	-0.311	-0.904	0.188	5.371	6.104	-5.676	-79.73	22.29	-19.85	-48.510	-51.940	34.202	-0.74979	0.62457	-0.21198	-0.05194	30.4	13111	100
2025-3-27 20:29:13.976	WT901BLE68-01(48591DE3C19B)	-0.311	-0.911	0.194	5.371	7.080	-6.592	-79.71	22.21	-20.10	-48.510	-51.940	34.202	-0.74979	0.62457	-0.21198	-0.05194	30.4	13111	100
2025-3-27 20:29:14.8	WT901BLE68-01(48591DE3C19B)	-0.317	-0.911	0.194	5.371	7.080	-6.592	-79.69	22.14	-20.36	-48.510	-51.940	34.202	-0.74979	0.62457	-0.21198	-0.05194	30.4	13111	100
2025-3-27 20:29:14.8	WT901BLE68-01(48591DE3C19B)	-0.317	-0.927	0.203	5.188	7.813	-7.202	-79.68	22.07	-20.62	-48.510	-51.940	34.202	-0.74979	0.62457	-0.21198	-0.05194	30.4	13111	100
2025-3-27 20:29:14.9	WT901BLE68-01(48591DE3C19B)	-0.325	-0.927	0.203	5.188	7.813	-7.202	-79.66	21.99	-20.89	-48.510	-51.940	34.202	-0.74979	0.62457	-0.21198	-0.05194	30.4	13111	100
2025-3-27 20:29:14.9	WT901BLE68-01(48591DE3C19B)	-0.325	-0.955	0.215	5.554	9.094	-7.446	-79.65	21.91	-21.15	-48.510	-51.940	34.202	-0.74979	0.62457	-0.21198	-0.05194	30.4	13111	100
2025-3-27 20:29:14.66	WT901BLE68-01(48591DE3C19B)	-0.325	-0.955	0.215	5.554	9.094	-7.446	-79.63	21.84	-21.43	-48.510	-51.940	34.202	-0.74979	0.62457	-0.21198	-0.05194	30.4	13111	100
2025-3-27 20:29:14.66	WT901BLE68-01(48591DE3C19B)	-0.325	-0.965	0.226	6.653	11.353	-6.592	-79.61	21.77	-21.71	-48.510	-51.940	34.202	-0.76361	0.59009	-0.26089	0.02338	30.4	13111	100
2025-3-27 20:29:14.66	WT901BLE68-01(48591DE3C19B)	-0.313	-0.965	0.226	6.653	11.353	-6.592	-79.59	21.70	-22.01	-48.510	-51.940	34.202	-0.76361	0.59009	-0.26089	0.02338	30.4	13111	100
2025-3-27 20:29:14.66	WT901BLE68-01(48591DE3C19B)	-0.313	-0.961	0.230	7.080	13.916	-5.249	-79.57	21.65	-22.32	-48.510	-51.940	34.202	-0.76361	0.59009	-0.26089	0.02338	30.4	13111	100
2025-3-27 20:29:14.95	WT901BLE68-01(48591DE3C19B)	-0.300	-0.961	0.230	7.080	13.916	-5.249	-79.56	21.60	-22.64	-48.510	-51.940	34.202	-0.76361	0.59009	-0.26089	0.02338	30.4	13111	100
2025-3-27 20:29:14.95	WT901BLE68-01(48591DE3C19B)	-0.300	-0.941	0.238	7.385	18.188	-4.150	-79.55	21.56	-22.98	-48.510	-51.940	34.202	-0.76361	0.59009	-0.26089	0.02338	30.4	13111	100
2025-3-27 20:29:14.96	WT901BLE68-01(48591DE3C19B)	-0.314	-0.941	0.238	7.385	18.188	-4.150	-79.54	21.53	-23.35	-48.510	-51.940	34.202	-0.76361	0.59009	-0.26089	0.02338	30.4	13111	100
2025-3-27 20:29:14.96	WT901BLE68-01(48591DE3C19B)	-0.314	-0.928	0.255	6.531	20.874	-3.479	-79.54	21.51	-23.72	-48.510	-51.940	34.202	-0.76361	0.59009	-0.26089	0.02338	30.4	13111	100
2025-3-27 20:29:14.125	WT901BLE68-01(48591DE3C19B)	-0.327	-0.928	0.255	6.531	20.874	-3.479	-79.55	21.49	-24.11	-48.510	-51.940	34.202	-0.76361	0.59009	-0.26089	0.02338	30.4	13111	100
2025-3-27 20:29:14.126	WT901BLE68-01(48591DE3C19B)	-0.327	-0.918	0.276	5.188	18.738	-3.357	-79.56	21.47	-24.49	-48.510	-51.940	34.202	-0.76361	0.59009	-0.26089	0.02338	30.4	13111	100
2025-3-27 20:29:14.126	WT901BLE68-01(48591DE3C19B)	-0.328	-0.918	0.276	5.188	18.738	-3.357	-79.57	21.45	-24.85	-48.510	-51.940	34.202	-0.76361	0.59009	-0.26089	0.02338	30.4	13111	100
2025-3-27 20:29:14.126	WT901BLE68-01(48591DE3C19B)	-0.328	-0.899	0.288	3.662	14.709	-4.028	-79.57	21.42	-25.19	-48.510	-51.940	34.202	-0.76361	0.59009	-0.26089	0.02338	30.4	13111	100
2025-3-27 20:29:14.186	WT901BLE68-01(48591DE3C19B)	-0.334	-0.899	0.288	3.662	14.709	-4.028	-79.58	21.38	-25.52	-48.510	-51.940	34.202	-0.76361	0.59009	-0.26089	0.02338	30.4	13111	100
2025-3-27 20:29:14.186	WT901BLE68-01(48591DE3C19B)	-0.334	-0.886	0.295	2.502	9.827	-5.432	-79.58	21.34	-25.81	-48.510	-51.940	34.202	-0.76361	0.59009	-0.26089	0.02338	30.4	13111	100
2025-3-27 20:29:14.186	WT901BLE68-01(48591DE3C19B)	-0.333	-0.886	0.295	2.502	9.827	-5.432	-79.57	21.28	-26.08	-48.510	-51.940	34.202	-0.76361	0.59009	-0.26089	0.02338	30.4	13111	100
2025-3-27 20:29:14.186	WT901BLE68-01(48591DE3C19B)	-0.166	-0.878	0.306	1.831	4.822	-7.385	-79.56	21.20	-26.32	-48.510	-51.940	34.202	-0.76361	0.59009	-0.26089	0.02338	30.4	13111	100
2025-3-27 20:29:14.217	WT901BLE68-01(48591DE3C19B)	-0.333	-0.439	0.153	1.831	4.822	-7.385	-79.54	21.12	-26.54	-48.510	-51.940	34.202	-0.76361	0.59009	-0.26089	0.02338	30.4	13111	100
2025-3-27 20:29:14.217	WT901BLE68-01(48591DE3C19B)	-0.333	-0.868	0.315	2.014	1.709	-9.277	-79.51	21.03	-26.75	-48.510	-51.940	34.202	-0.76361	0.59009	-0.26089	0.02338	30.4	13111	100
2025-3-27 20:29:14.217	WT901BLE68-01(48591DE3C19B)	-0.343	-0.868	0.315	2.014	1.709	-9.277	-79.47	20.92	-26.94	-48.510	-51.940	34.202	-0.76361	0.59009	-0.26089	0.02338	30.4	13111	100
2025-3-27 20:29:14.218	WT901BLE68-01(48591DE3C19B)	-0.343	-0.858	0.321	2.197	-0.854	-10.681	-79.42	20.80	-27.13	-48.510	-51.940	34.202	-0.76361	0.59009	-0.26089	0.02338	30.4	13111	100
2025-3-27 20:29:14.247	WT901BLE68-01(48591DE3C19B)	-0.346	-0.858	0.321	2.197	-0.854	-10.681	-79.37	20.68	-27.30	-48.510	-51.940	34.202	-0.76361	0.59009	-0.26089	0.02338	30.4	13111	100
2025-3-27 20:29:14.247	WT901BLE68-01(48591DE3C19B)	-0.346	-0.858	0.323	2.563	-3.113	-11.475	-79.31	20.55	-27.45	-48.510	-51.940	34.202	-0.76361	0.59009	-0.26089	0.02338	30.4	13111	100
2025-3-27 20:29:14.247	WT901BLE68-01(48591DE3C19B)	-0.353	-0.858	0.323	2.563	-3.113	-11.475	-79.24	20.42	-27.60	-48.118	-51.450	35.868	-0.76361	0.59009	-0.26089	0.02338	30.4	13111	100
2025-3-27 20:29:14.248	WT901BLE68-01(48591DE3C19B)	-0.353	-0.861	0.322	3.540	-4.150	-11.719	-79.16	20.28	-27.74	-48.118	-51.450	35.868	-0.76361	0.59009	-0.26089	0.02338	30.4	13111	100
2025-3-27 20:29:14.306	WT901BLE68-01(48591DE3C19B)	-0.357	-0.861	0.322	3.540	-4.150	-11.719	-79.08	20.15	-27.88	-48.118	-51.450	35.868	-0.76361	0.59009	-0.26089	0.02338	30.4	13111	100
2025-3-27 20:29:14.306	WT901BLE68-01(48591DE3C19B)	-0.357	-0.869	0.316	4.517	-5.127	-11.719	-78.99	20.01	-28.01	-48.118	-51.450	35.868	-0.76361	0.59009	-0.26089	0.02338	30.4	13111	100
2025-3-27 20:29:14.306	WT901BLE68-01(48591DE3C19B)	-0.366	-0.869	0.316	4.517	-5.127	-11.719	-78.89	19.88	-28.14	-48.118	-51.450	35.868	-0.76361	0.59009	-0.26089	0.02338	30.4	13111	100
2025-3-27 20:29:14.306	WT901BLE68-01(48591DE3C19B)	-0.366	-0.894	0.311	5.920	-5.981	-11.292	-78.78	19.75	-28.26	-48.118	-51.450	35.868	-0.76361	0.59009	-0.26089	0.02338	30.4	13111	100
2025-3-27 20:29:14.396	WT901BLE68-01(48591DE3C19B)	-0.363	-0.894	0.311	5.920	-5.981	-11.292	-78.66	19.62	-28.37	-48.118	-51.450	35.868	-0.76361	0.59009	-0.26089	0.02338	30.4	13111	100
2025-3-27 20:29:14.396	WT901BLE68-01(48591DE3C19B)	-0.363	-0.909	0.302	7.935	-5.859	-10.376	-78.52	19.50	-28.49	-48.118	-51.450	35.868	-0.76361	0.59009	-0.26089	0.02338	30.4	13111	100
2025-3-27 20:29:14.396	WT901BLE68-01(48591DE3C19B)	-0.354	-0.909	0.302	7.935	-5.859	-10.376	-78.39	19.39	-28.60	-48.118	-51.450	35.868	-0.76361	0.59009	-0.26089	0.02338	30.4	13111	100
2025-3-27 20:29:14.396	WT901BLE68-01(48591DE3C19B)	-0.354	-0.916	0.289	10.132	-3.540	-8.606	-78.24	19.29	-28.73	-48.118	-51.450	35.868	-0.76361	0.59009	-0.26089	0.02338	30.4	13111	100
2025-3-27 20:29:14.397	WT901BLE68-01(48591DE3C19B)	-0.340	-0.916	0.289	10.132	-3.540	-8.606	-78.09	19.20	-28.86	-48.118	-51.450	35.868	-0.76361	0.59009	-0.26089	0.02338	30.4	13111	100
2025-3-27 20:29:14.397	WT901BLE68-01(48591DE3C19B)	-0.340	-0.908	0.271	11.780	0.366	-6.409	-77.94	19.14	-29.01	-48.118	-51.450	35.868	-0.76361	0.59009	-0.26089	0.02338	30.4	13111	100
2025-3-27 20:29:14.397	WT901BLE68-01(48591DE3C19B)	-0.341	-0.908	0.271	11.780	0.366	-6.409	-77.79	19.07	-29.17	-48.118	-51.450	35.868	-0.76361	0.59009	-0.26089	0.02338	30.4	13111	100
2025-3-27 20:29:14.398	WT901BLE68-01(48591DE3C19B)	-0.341	-0.893	0.256	12.268	4.761	-3.723	-77.66	19.04	-29.37	-48.118	-51.450	35.868	-0.76361	0.59009	-0.26089	0.02338	30.4	13111	100
2025-3-27 20:29:14.427	WT901BLE68-01(48591DE3C19B)	-0.343	-0.893	0.256	12.268	4.761	-3.723	-77.52	19.02	-29.56	-48.118	-51.450	35.868	-0.76361	0.59009	-0.26089	0.02338	30.4	13111	100
2025-3-27 20:29:14.427	WT901BLE68-01(48591DE3C19B)	-0.343	-0.876	0.247	10.925	7.263	-1.221	-77.40	19.03	-29.77	-48.118	-51.450	35.868	-0.76361	0.59009	-0.26089	0.02338	30.4	13111	100
2025-3-27 20:29:14.428	WT901BLE68-01(48591DE3C19B)	-0.347	-0.876	0.247	10.925	7.263	-1.221	-77.29	19.03	-29.97	-48.118	-51.450	35.868	-0.76361	0.59009	-0.26089	0.02338	30.4	13111	100
2025-3-27 20:29:14.428	WT901BLE68-01(48591DE3C19B)	-0.347	-0.845	0.244	8.057	7.446	0.488	-77.21	19.06	-30.17	-48.118	-51.450	35.868	-0.76361	0.59009	-0.26089	0.02338	30.4	13111	100
2025-3-27 20:29:14.457	WT901BLE68-01(48591DE3C19B)	-0.360	-0.845	0.244	8.057	7.446	0.488	-77.12	19.08	-30.36	-48.118	-51.450	35.868	-0.76361	0.59009	-0.26089	0.02338	30.4	13111	100
2025-3-27 20:29:14.457	WT901BLE68-01(48591DE3C19B)	-0.360	-0.827	0.237	3.540	4.456	1.099	-77.07	19.11	-30.52	-48.118	-51.450	35.868	-0.76361	0.59009	-0.26089	0.02338	30.4	13111	100
2025-3-27 20:29:14.458	WT901BLE68-01(48591DE3C19B)	-0.383	-0.827	0.237	3.540	4.456	1.099	-77.03	19.14	-30.67	-48.118	-51.450	35.868	-0.77142	0.55756	-0.28809	0.10449	30.4	13111	100
2025-3-27 20:29:14.458	WT901BLE68-01(48591DE3C19B)	-0.383	-0.826	0.229	-1.343	-2.197	0.671	-77.01	19.15	-30.76	-48.118	-51.450	35.868	-0.77142	0.55756	-0.28809	0.10449	30.4	13111	100
2025-3-27 20:29:14.516	WT901BLE68-01(48591DE3C19B)	-0.402	-0.826	0.229	-1.343	-2.197	0.671	-76.99	19.16	-30.83	-48.118	-51.450	35.868	-0.77142	0.55756	-0.28809	0.10449	30.4	13111	100
2025-3-27 20:29:14.516	WT901BLE68-01(48591DE3C19B)	-0.402	-0.829	0.224	-5.798	-10.986	-0.427	-76.99	19.14	-30.81	-48.118	-51.450	35.868	-0.77142	0.55756	-0.28809	0.10449	30.4	13111	100
2025-3-27 20:29:14.516	WT901BLE68-01(48591DE3C19B)	-0.412	-0.829	0.224	-5.798	-10.986	-0.427	-76.99	19.13	-30.79	-48.118	-51.450	35.868	-0.77142	0.55756	-0.28809	0.10449	30.4	13111	100
2025-3-27 20:29:14.516	WT901BLE68-01(48591DE3C19B)	-0.412	-0.833	0.218	-10.254	-20.935	-1.038	-77.00	19.09	-30.67	-48.118	-51.450	35.868	-0.77142	0.55756	-0.28809	0.10449	30.4	13111	100
2025-3-27 20:29:14.545	WT901BLE68-01(48591DE3C19B)	-0.395	-0.833	0.218	-10.254	-20.935	-1.038	-77.01	19.05	-30.54	-48.118	-51.450	35.868	-0.77142	0.55756	-0.28809	0.10449	30.4	13111	100
2025-3-27 20:29:14.545	WT901BLE68-01(48591DE3C19B)	-0.395	-0.820	0.207	-14.099	-30.273	-1.526	-77.03	18.99	-30.31	-48.118	-51.450	35.868	-0.77142	0.55756	-0.28809	0.10449	30.4	13111	100
2025-3-27 20:29:14.545	WT901BLE68-01(48591DE3C19B)	-0.380	-0.820	0.207	-14.099	-30.273	-1.526	-77.05	18.93	-30.08	-48.118	-51.450	35.868	-0.77142	0.55756	-0.28809	0.10449	30.4	13111	100
2025-3-27 20:29:14.545	WT901BLE68-01(48591DE3C19B)	-0.380	-0.813	0.194	-18.005	-35.583	-1.587	-77.09	18.86	-29.79	-48.118	-51.450	35.868	-0.77142	0.55756	-0.28809	0.10449	30.4	13111	100
2025-3-27 20:29:14.579	WT901BLE68-01(48591DE3C19B)	-0.373	-0.813	0.194	-18.005	-35.583	-1.587	-77.14	18.79	-29.51	-48.118	-51.450	35.868	-0.77142	0.55756	-0.28809	0.10449	30.4	13111	100
2025-3-27 20:29:14.579	WT901BLE68-01(48591DE3C19B)	-0.373	-0.832	0.187	-21.240	-38.147	-2.441	-77.21	18.71	-29.20	-48.118	-51.450	35.868	-0.77142	0.55756	-0.28809	0.10449	30.4	13111	100
2025-3-27 20:29:14.579	WT901BLE68-01(48591DE3C19B)	-0.380	-0.832	0.187	-21.240	-38.147	-2.441	-77.28	18.63	-28.89	-48.118	-51.450	35.868	-0.77142	0.55756	-0.28809	0.10449	30.4	13111	100
2025-3-27 20:29:14.579	WT901BLE68-01(48591DE3C19B)	-0.380	-0.855	0.185	-22.888	-40.039	-3.235	-77.37	18.54	-28.57	-48.118	-51.450	35.868	-0.77142	0.55756	-0.28809	0.10449	30.4	13111	100
2025-3-27 20:29:14.635	WT901BLE68-01(48591DE3C19B)	-0.373	-0.855	0.185	-22.888	-40.039	-3.235	-77.45	18.45	-28.25	-48.118	-51.450	35.868	-0.77142	0.55756	-0.28809	0.10449	30.4	13111	100
2025-3-27 20:29:14.635	WT901BLE68-01(48591DE3C19B)	-0.373	-0.840	0.183	-23.804	-42.480	-3.601	-77.54	18.35	-27.90	-48.118	-51.450	35.868	-0.77142	0.55756	-0.28809	0.10449	30.4	13111	100
2025-3-27 20:29:14.636	WT901BLE68-01(48591DE3C19B)	-0.358	-0.840	0.183	-23.804	-42.480	-3.601	-77.63	18.25	-27.55	-48.118	-51.450	35.868	-0.77142	0.55756	-0.28809	0.10449	30.4	13111	100
2025-3-27 20:29:14.636	WT901BLE68-01(48591DE3C19B)	-0.358	-0.799	0.179	-24.902	-44.617	-2.625	-77.72	18.17	-27.19	-48.118	-51.450	35.868	-0.77142	0.55756	-0.28809	0.10449	30.4	13111	100
2025-3-27 20:29:14.665	WT901BLE68-01(48591DE3C19B)	-0.349	-0.799	0.179	-24.902	-44.617	-2.625	-77.82	18.07	-26.82	-48.118	-51.450	35.868	-0.77142	0.55756	-0.28809	0.10449	30.4	13111	100
2025-3-27 20:29:14.666	WT901BLE68-01(48591DE3C19B)	-0.349	-0.731	0.180	-26.245	-47.302	0.305	-77.92	18.01	-26.43	-48.118	-51.450	35.868	-0.77142	0.55756	-0.28809	0.10449	30.4	13111	100
2025-3-27 20:29:14.666	WT901BLE68-01(48591DE3C19B)	-0.339	-0.731	0.180	-26.245	-47.302	0.305	-78.01	17.95	-26.04	-48.118	-51.450	35.868	-0.77142	0.55756	-0.28809	0.10449	30.4	13111	100
2025-3-27 20:29:14.666	WT901BLE68-01(48591DE3C19B)	-0.339	-0.693	0.179	-29.053	-53.040	4.150	-78.11	17.91	-25.58	-46.648	-51.744	34.398	-0.77142	0.55756	-0.28809	0.10449	30.4	13111	100
2025-3-27 20:29:14.695	WT901BLE68-01(48591DE3C19B)	-0.339	-0.693	0.179	-29.053	-53.040	4.150	-78.22	17.88	-25.12	-46.648	-51.744	34.398	-0.77142	0.55756	-0.28809	0.10449	30.4	13111	100
2025-3-27 20:29:14.695	WT901BLE68-01(48591DE3C19B)	-0.339	-0.730	0.175	-31.677	-58.289	6.836	-78.33	17.86	-24.61	-46.648	-51.744	34.398	-0.77142	0.55756	-0.28809	0.10449	30.4	13111	100
2025-3-27 20:29:14.695	WT901BLE68-01(48591DE3C19B)	-0.358	-0.730	0.175	-31.677	-58.289	6.836	-78.44	17.85	-24.10	-46.648	-51.744	34.398	-0.77142	0.55756	-0.28809	0.10449	30.4	13111	100
2025-3-27 20:29:14.695	WT901BLE68-01(48591DE3C19B)	-0.358	-0.856	0.173	-30.151	-61.523	7.324	-78.52	17.83	-23.57	-46.648	-51.744	34.398	-0.77142	0.55756	-0.28809	0.10449	30.4	13111	100
2025-3-27 20:29:14.786	WT901BLE68-01(48591DE3C19B)	-0.366	-0.856	0.173	-30.151	-61.523	7.324	-78.61	17.81	-23.04	-46.648	-51.744	34.398	-0.77142	0.55756	-0.28809	0.10449	30.4	13111	100
2025-3-27 20:29:14.786	WT901BLE68-01(48591DE3C19B)	-0.366	-1.017	0.163	-23.804	-61.340	5.920	-78.63	17.78	-22.52	-46.648	-51.744	34.398	-0.77142	0.55756	-0.28809	0.10449	30.4	13111	100
2025-3-27 20:29:14.786	WT901BLE68-01(48591DE3C19B)	-0.345	-1.017	0.163	-23.804	-61.340	5.920	-78.66	17.75	-22.01	-46.648	-51.744	34.398	-0.77142	0.55756	-0.28809	0.10449	30.4	13111	100
2025-3-27 20:29:14.786	WT901BLE68-01(48591DE3C19B)	-0.345	-1.115	0.145	-12.512	-55.237	3.357	-78.60	17.70	-21.57	-46.648	-51.744	34.398	-0.77142	0.55756	-0.28809	0.10449	30.4	13111	100
2025-3-27 20:29:14.787	WT901BLE68-01(48591DE3C19B)	-0.318	-1.115	0.145	-12.512	-55.237	3.357	-78.55	17.64	-21.14	-46.648	-51.744	34.398	-0.77142	0.55756	-0.28809	0.10449	30.4	13111	100
2025-3-27 20:29:14.787	WT901BLE68-01(48591DE3C19B)	-0.318	-1.136	0.135	-2.075	-42.053	0.671	-78.44	17.59	-20.86	-46.648	-51.744	34.398	-0.77142	0.55756	-0.28809	0.10449	30.4	13111	100
2025-3-27 20:29:14.787	WT901BLE68-01(48591DE3C19B)	-0.314	-1.136	0.135	-2.075	-42.053	0.671	-78.33	17.53	-20.58	-46.648	-51.744	34.398	-0.77142	0.55756	-0.28809	0.10449	30.4	13111	100
2025-3-27 20:29:14.788	WT901BLE68-01(48591DE3C19B)	-0.305	-1.113	0.145	5.676	-24.597	-1.221	-78.20	17.48	-20.49	-46.648	-51.744	34.398	-0.77142	0.55756	-0.28809	0.10449	30.4	13111	100
2025-3-27 20:29:14.818	WT901BLE68-01(48591DE3C19B)	-0.305	-1.063	0.155	9.949	-6.836	-1.038	-78.09	17.45	-20.49	-46.648	-51.744	34.398	-0.77142	0.55756	-0.28809	0.10449	30.4	13111	100
2025-3-27 20:29:14.818	WT901BLE68-01(48591DE3C19B)	-0.296	-1.063	0.155	9.949	-6.836	-1.038	-77.98	17.44	-20.59	-46.648	-51.744	34.398	-0.77142	0.55756	-0.28809	0.10449	30.4	13111	100
2025-3-27 20:29:14.818	WT901BLE68-01(48591DE3C19B)	-0.296	-0.991	0.151	11.353	7.751	0.732	-77.89	17.45	-20.77	-46.648	-51.744	34.398	-0.77142	0.55756	-0.28809	0.10449	30.4	13111	100
2025-3-27 20:29:14.818	WT901BLE68-01(48591DE3C19B)	-0.318	-0.991	0.151	11.353	7.751	0.732	-77.81	17.48	-21.01	-46.648	-51.744	34.398	-0.77142	0.55756	-0.28809	0.10449	30.4	13111	100
2025-3-27 20:29:14.875	WT901BLE68-01(48591DE3C19B)	-0.318	-0.943	0.148	10.071	15.503	1.587	-77.76	17.53	-21.30	-46.648	-51.744	34.398	-0.77142	0.55756	-0.28809	0.10449	30.4	13111	100
2025-3-27 20:29:14.876	WT901BLE68-01(48591DE3C19B)	-0.341	-0.943	0.148	10.071	15.503	1.587	-77.72	17.59	-21.62	-46.648	-51.744	34.398	-0.77386	0.58618	-0.23419	0.05103	30.4	13111	100
2025-3-27 20:29:14.876	WT901BLE68-01(48591DE3C19B)	-0.341	-0.919	0.145	7.690	15.076	0.854	-77.69	17.64	-21.93	-46.648	-51.744	34.398	-0.77386	0.58618	-0.23419	0.05103	30.4	13111	100
2025-3-27 20:29:14.876	WT901BLE68-01(48591DE3C19B)	-0.345	-0.919	0.145	7.690	15.076	0.854	-77.68	17.69	-22.24	-46.648	-51.744	34.398	-0.77386	0.58618	-0.23419	0.05103	30.4	13111	100
2025-3-27 20:29:14.906	WT901BLE68-01(48591DE3C19B)	-0.345	-0.911	0.143	5.920	8.728	0.244	-77.66	17.73	-22.52	-46.648	-51.744	34.398	-0.77386	0.58618	-0.23419	0.05103	30.4	13111	100
2025-3-27 20:29:14.906	WT901BLE68-01(48591DE3C19B)	-0.328	-0.911	0.143	5.920	8.728	0.244	-77.65	17.76	-22.76	-46.648	-51.744	34.398	-0.77386	0.58618	-0.23419	0.05103	30.4	13111	100
2025-3-27 20:29:14.906	WT901BLE68-01(48591DE3C19B)	-0.328	-0.902	0.129	5.676	1.648	0.000	-77.62	17.79	-22.96	-46.648	-51.744	34.398	-0.77386	0.58618	-0.23419	0.05103	30.4	13111	100
2025-3-27 20:29:14.906	WT901BLE68-01(48591DE3C19B)	-0.289	-0.902	0.129	5.676	1.648	0.000	-77.59	17.80	-23.12	-46.648	-51.744	34.398	-0.77386	0.58618	-0.23419	0.05103	30.4	13111	100
2025-3-27 20:29:14.967	WT901BLE68-01(48591DE3C19B)	-0.289	-0.898	0.113	6.653	-2.014	0.610	-77.55	17.81	-23.26	-46.648	-51.744	34.398	-0.77386	0.58618	-0.23419	0.05103	30.4	13111	100
2025-3-27 20:29:14.967	WT901BLE68-01(48591DE3C19B)	-0.233	-0.898	0.113	6.653	-2.014	0.610	-77.49	17.83	-23.38	-46.648	-51.744	34.398	-0.77386	0.58618	-0.23419	0.05103	30.4	13111	100
2025-3-27 20:29:14.967	WT901BLE68-01(48591DE3C19B)	-0.233	-0.894	0.098	9.033	0.854	2.319	-77.43	17.85	-23.51	-46.648	-51.744	34.398	-0.77386	0.58618	-0.23419	0.05103	30.4	13111	100
2025-3-27 20:29:14.967	WT901BLE68-01(48591DE3C19B)	-0.178	-0.894	0.098	9.033	0.854	2.319	-77.37	17.89	-23.66	-46.648	-51.744	34.398	-0.77386	0.58618	-0.23419	0.05103	30.4	13111	100
2025-3-27 20:29:15.28	WT901BLE68-01(48591DE3C19B)	-0.178	-0.859	0.081	12.695	11.963	4.578	-77.31	17.94	-23.86	-46.648	-51.744	34.398	-0.77386	0.58618	-0.23419	0.05103	30.4	13111	100
2025-3-27 20:29:15.28	WT901BLE68-01(48591DE3C19B)	-0.143	-0.859	0.081	12.695	11.963	4.578	-77.24	18.01	-24.11	-46.648	-51.744	34.398	-0.77386	0.58618	-0.23419	0.05103	30.4	13111	100
2025-3-27 20:29:15.28	WT901BLE68-01(48591DE3C19B)	-0.143	-0.791	0.068	16.052	27.893	7.996	-77.19	18.12	-24.45	-46.648	-51.744	34.398	-0.77386	0.58618	-0.23419	0.05103	30.4	13111	100
2025-3-27 20:29:15.28	WT901BLE68-01(48591DE3C19B)	-0.123	-0.791	0.068	16.052	27.893	7.996	-77.15	18.25	-24.86	-46.648	-51.744	34.398	-0.77386	0.58618	-0.23419	0.05103	30.4	13111	100
2025-3-27 20:29:15.29	WT901BLE68-01(48591DE3C19B)	-0.123	-0.749	0.063	18.433	44.739	10.376	-77.12	18.41	-25.36	-46.648	-51.744	34.398	-0.77386	0.58618	-0.23419	0.05103	30.4	13111	100
2025-3-27 20:29:15.29	WT901BLE68-01(48591DE3C19B)	-0.137	-0.749	0.063	18.433	44.739	10.376	-77.11	18.61	-25.94	-46.648	-51.744	34.398	-0.77386	0.58618	-0.23419	0.05103	30.4	13111	100
2025-3-27 20:29:15.29	WT901BLE68-01(48591DE3C19B)	-0.137	-0.746	0.053	21.973	61.401	11.047	-77.12	18.81	-26.60	-46.648	-51.744	34.398	-0.77386	0.58618	-0.23419	0.05103	30.4	13111	100
2025-3-27 20:29:15.29	WT901BLE68-01(48591DE3C19B)	-0.181	-0.746	0.053	21.973	61.401	11.047	-77.14	19.03	-27.34	-46.648	-51.744	34.398	-0.77386	0.58618	-0.23419	0.05103	30.4	13111	100
2025-3-27 20:29:15.58	WT901BLE68-01(48591DE3C19B)	-0.181	-0.764	0.045	26.917	73.792	10.071	-77.16	19.26	-28.15	-46.648	-51.744	34.398	-0.77386	0.58618	-0.23419	0.05103	30.4	13111	100
2025-3-27 20:29:15.58	WT901BLE68-01(48591DE3C19B)	-0.225	-0.764	0.045	26.917	73.792	10.071	-77.18	19.51	-29.01	-46.648	-51.744	34.398	-0.77386	0.58618	-0.23419	0.05103	30.4	13111	100
2025-3-27 20:29:15.58	WT901BLE68-01(48591DE3C19B)	-0.225	-0.775	0.054	33.752	81.543	8.179	-77.19	19.74	-29.91	-44.492	-54.292	31.752	-0.77386	0.58618	-0.23419	0.05103	30.4	13111	100
2025-3-27 20:29:15.58	WT901BLE68-01(48591DE3C19B)	-0.278	-0.775	0.054	33.752	81.543	8.179	-77.18	19.97	-30.84	-44.492	-54.292	31.752	-0.77386	0.58618	-0.23419	0.05103	30.4	13111	100
2025-3-27 20:29:15.116	WT901BLE68-01(48591DE3C19B)	-0.278	-0.745	0.073	41.565	83.618	7.263	-77.14	20.20	-31.78	-44.492	-54.292	31.752	-0.77386	0.58618	-0.23419	0.05103	30.4	13111	100
2025-3-27 20:29:15.116	WT901BLE68-01(48591DE3C19B)	-0.296	-0.745	0.073	41.565	83.618	7.263	-77.07	20.43	-32.72	-44.492	-54.292	31.752	-0.77386	0.58618	-0.23419	0.05103	30.4	13111	100
2025-3-27 20:29:15.116	WT901BLE68-01(48591DE3C19B)	-0.296	-0.691	0.062	48.767	83.313	8.728	-76.96	20.68	-33.64	-44.492	-54.292	31.752	-0.77386	0.58618	-0.23419	0.05103	30.4	13111	100
2025-3-27 20:29:15.116	WT901BLE68-01(48591DE3C19B)	-0.290	-0.691	0.062	48.767	83.313	8.728	-76.83	20.92	-34.55	-44.492	-54.292	31.752	-0.77386	0.58618	-0.23419	0.05103	30.4	13111	100
2025-3-27 20:29:15.146	WT901BLE68-01(48591DE3C19B)	-0.290	-0.662	0.038	52.979	88.745	13.916	-76.68	21.21	-35.46	-44.492	-54.292	31.752	-0.77386	0.58618	-0.23419	0.05103	30.4	13111	100
2025-3-27 20:29:15.146	WT901BLE68-01(48591DE3C19B)	-0.351	-0.662	0.038	52.979	88.745	13.916	-76.53	21.53	-36.38	-44.492	-54.292	31.752	-0.77386	0.58618	-0.23419	0.05103	30.4	13111	100
2025-3-27 20:29:15.146	WT901BLE68-01(48591DE3C19B)	-0.351	-0.688	0.049	53.223	98.083	22.522	-76.39	21.91	-37.33	-44.492	-54.292	31.752	-0.77386	0.58618	-0.23419	0.05103	30.4	13111	100
2025-3-27 20:29:15.146	WT901BLE68-01(48591DE3C19B)	-0.448	-0.688	0.049	53.223	98.083	22.522	-76.28	22.34	-38.30	-44.492	-54.292	31.752	-0.77386	0.58618	-0.23419	0.05103	30.4	13111	100
2025-3-27 20:29:15.206	WT901BLE68-01(48591DE3C19B)	-0.448	-0.765	0.094	50.232	105.286	31.921	-76.20	22.82	-39.28	-44.492	-54.292	31.752	-0.77386	0.58618	-0.23419	0.05103	30.4	13111	100
2025-3-27 20:29:15.206	WT901BLE68-01(48591DE3C19B)	-0.510	-0.765	0.094	50.232	105.286	31.921	-76.15	23.37	-40.27	-44.492	-54.292	31.752	-0.77386	0.58618	-0.23419	0.05103	30.4	13111	100
2025-3-27 20:29:15.206	WT901BLE68-01(48591DE3C19B)	-0.510	-0.919	0.121	40.649	110.168	34.363	-76.17	23.93	-41.27	-44.492	-54.292	31.752	-0.77386	0.58618	-0.23419	0.05103	30.4	13111	100
2025-3-27 20:29:15.206	WT901BLE68-01(48591DE3C19B)	-0.607	-0.919	0.121	40.649	110.168	34.363	-76.26	24.52	-42.28	-44.492	-54.292	31.752	-0.77386	0.58618	-0.23419	0.05103	30.4	13111	100
2025-3-27 20:29:15.237	WT901BLE68-01(48591DE3C19B)	-0.607	-1.282	0.155	35.339	114.014	11.597	-76.40	24.99	-43.33	-44.492	-54.292	31.752	-0.77386	0.58618	-0.23419	0.05103	30.4	13111	100
2025-3-27 20:29:15.237	WT901BLE68-01(48591DE3C19B)	-0.809	-1.282	0.155	35.339	114.014	11.597	-76.60	25.35	-44.43	-44.492	-54.292	31.752	-0.77386	0.58618	-0.23419	0.05103	30.4	13111	100
2025-3-27 20:29:15.237	WT901BLE68-01(48591DE3C19B)	-0.809	-1.571	0.265	33.081	108.826	-17.090	-76.82	25.57	-45.52	-44.492	-54.292	31.752	-0.77386	0.58618	-0.23419	0.05103	30.4	13111	100
2025-3-27 20:29:15.238	WT901BLE68-01(48591DE3C19B)	-1.014	-1.571	0.265	33.081	108.826	-17.090	-77.05	25.64	-46.61	-44.492	-54.292	31.752	-0.77386	0.58618	-0.23419	0.05103	30.4	13111	100
2025-3-27 20:29:15.296	WT901BLE68-01(48591DE3C19B)	-1.014	-1.546	0.397	19.836	84.351	-33.630	-77.29	25.59	-47.58	-44.492	-54.292	31.752	-0.77386	0.58618	-0.23419	0.05103	30.4	13111	100
2025-3-27 20:29:15.296	WT901BLE68-01(48591DE3C19B)	-0.961	-1.546	0.397	19.836	84.351	-33.630	-77.55	25.45	-48.41	-44.492	-54.292	31.752	-0.77386	0.58618	-0.23419	0.05103	30.4	13111	100
2025-3-27 20:29:15.296	WT901BLE68-01(48591DE3C19B)	-0.961	-1.083	0.458	3.601	59.509	-35.034	-77.84	25.24	-48.96	-44.492	-54.292	31.752	-0.77386	0.58618	-0.23419	0.05103	30.4	13111	100
2025-3-27 20:29:15.296	WT901BLE68-01(48591DE3C19B)	-0.847	-1.083	0.458	3.601	59.509	-35.034	-78.12	25.04	-49.47	-44.492	-54.292	31.752	-0.74557	0.48822	-0.41034	0.19305	30.4	13111	100
2025-3-27 20:29:15.297	WT901BLE68-01(48591DE3C19B)	-0.847	-0.788	0.491	-23.987	44.006	-20.386	-78.59	24.97	-49.77	-44.492	-54.292	31.752	-0.74557	0.48822	-0.41034	0.19305	30.4	13111	100
2025-3-27 20:29:15.297	WT901BLE68-01(48591DE3C19B)	-0.864	-0.788	0.491	-23.987	44.006	-20.386	-79.05	24.90	-50.03	-44.492	-54.292	31.752	-0.74557	0.48822	-0.41034	0.19305	30.4	13111	100
2025-3-27 20:29:15.297	WT901BLE68-01(48591DE3C19B)	-0.864	-0.655	0.459	-43.823	-1.465	-6.958	-79.48	24.88	-49.75	-44.492	-54.292	31.752	-0.74557	0.48822	-0.41034	0.19305	30.4	13111	100
2025-3-27 20:29:15.298	WT901BLE68-01(48591DE3C19B)	-0.864	-0.655	0.459	-43.823	-1.465	-6.958	-79.91	24.88	-49.44	-44.492	-54.292	31.752	-0.74557	0.48822	-0.41034	0.19305	30.4	13111	100
2025-3-27 20:29:15.355	WT901BLE68-01(48591DE3C19B)	-0.864	-0.625	0.437	-63.293	-79.712	6.042	-80.17	24.88	-48.24	-44.492	-54.292	31.752	-0.74557	0.48822	-0.41034	0.19305	30.4	13111	100
2025-3-27 20:29:15.355	WT901BLE68-01(48591DE3C19B)	-0.673	-0.625	0.437	-63.293	-79.712	6.042	-80.43	24.90	-47.00	-44.492	-54.292	31.752	-0.74557	0.48822	-0.41034	0.19305	30.4	13111	100
2025-3-27 20:29:15.356	WT901BLE68-01(48591DE3C19B)	-0.673	-0.745	0.351	-69.031	-145.203	16.235	-80.45	24.91	-45.02	-44.492	-54.292	31.752	-0.74557	0.48822	-0.41034	0.19305	30.4	13111	100
2025-3-27 20:29:15.356	WT901BLE68-01(48591DE3C19B)	-0.526	-0.745	0.351	-69.031	-145.203	16.235	-80.45	24.93	-43.05	-44.492	-54.292	31.752	-0.74557	0.48822	-0.41034	0.19305	30.4	13111	100
2025-3-27 20:29:15.385	WT901BLE68-01(48591DE3C19B)	-0.526	-0.791	0.234	-50.049	-158.264	23.315	-80.21	24.98	-40.93	-44.492	-54.292	31.752	-0.74557	0.48822	-0.41034	0.19305	30.4	13111	100
2025-3-27 20:29:15.385	WT901BLE68-01(48591DE3C19B)	-0.417	-0.791	0.234	-50.049	-158.264	23.315	-79.95	25.03	-38.83	-44.492	-54.292	31.752	-0.74557	0.48822	-0.41034	0.19305	30.4	13111	100
2025-3-27 20:29:15.386	WT901BLE68-01(48591DE3C19B)	-0.417	-0.749	0.147	-34.302	-135.559	25.635	-79.64	25.13	-37.00	-44.492	-54.292	31.752	-0.74557	0.48822	-0.41034	0.19305	30.4	13111	100
2025-3-27 20:29:15.386	WT901BLE68-01(48591DE3C19B)	-0.286	-0.749	0.147	-34.302	-135.559	25.635	-79.33	25.21	-35.19	-44.492	-54.292	31.752	-0.74557	0.48822	-0.41034	0.19305	30.4	13111	100
2025-3-27 20:29:15.416	WT901BLE68-01(48591DE3C19B)	-0.286	-0.703	0.135	-19.409	-83.008	27.832	-79.10	25.39	-33.98	-44.492	-54.292	31.752	-0.74557	0.48822	-0.41034	0.19305	30.4	13111	100
2025-3-27 20:29:15.416	WT901BLE68-01(48591DE3C19B)	-0.306	-0.703	0.135	-19.409	-83.008	27.832	-78.86	25.57	-32.79	-44.492	-54.292	31.752	-0.74557	0.48822	-0.41034	0.19305	30.4	13111	100
2025-3-27 20:29:15.416	WT901BLE68-01(48591DE3C19B)	-0.306	-0.667	0.183	-6.226	-26.855	26.733	-78.75	25.83	-32.24	-44.492	-54.292	31.752	-0.74557	0.48822	-0.41034	0.19305	30.4	13111	100
2025-3-27 20:29:15.416	WT901BLE68-01(48591DE3C19B)	-0.396	-0.667	0.183	-6.226	-26.855	26.733	-78.63	26.09	-31.72	-44.492	-54.292	31.752	-0.74557	0.48822	-0.41034	0.19305	30.4	13111	100
2025-3-27 20:29:15.476	WT901BLE68-01(48591DE3C19B)	-0.396	-0.615	0.213	-2.747	3.967	23.071	-78.64	26.36	-31.55	-44.492	-54.292	31.752	-0.74557	0.48822	-0.41034	0.19305	30.4	13111	100
2025-3-27 20:29:15.476	WT901BLE68-01(48591DE3C19B)	-0.484	-0.615	0.213	-2.747	3.967	23.071	-78.63	26.64	-31.38	-44.492	-54.292	31.752	-0.74557	0.48822	-0.41034	0.19305	30.4	13111	100
2025-3-27 20:29:15.476	WT901BLE68-01(48591DE3C19B)	-0.484	-0.580	0.217	-4.700	9.644	21.301	-78.68	26.91	-31.27	-44.492	-54.292	31.752	-0.74557	0.48822	-0.41034	0.19305	30.4	13111	100
2025-3-27 20:29:15.476	WT901BLE68-01(48591DE3C19B)	-0.508	-0.580	0.217	-4.700	9.644	21.301	-78.73	27.18	-31.14	-44.492	-54.292	31.752	-0.74557	0.48822	-0.41034	0.19305	30.4	13111	100
2025-3-27 20:29:15.508	WT901BLE68-01(48591DE3C19B)	-0.508	-0.552	0.192	-10.864	-2.747	18.738	-78.79	27.41	-30.84	-41.258	-57.820	30.870	-0.74557	0.48822	-0.41034	0.19305	30.4	13111	100
2025-3-27 20:29:15.508	WT901BLE68-01(48591DE3C19B)	-0.486	-0.552	0.192	-10.864	-2.747	18.738	-78.84	27.64	-30.54	-41.258	-57.820	30.870	-0.74557	0.48822	-0.41034	0.19305	30.4	13111	100
2025-3-27 20:29:15.508	WT901BLE68-01(48591DE3C19B)	-0.486	-0.532	0.157	-18.127	-15.503	16.907	-78.91	27.82	-30.07	-41.258	-57.820	30.870	-0.74557	0.48822	-0.41034	0.19305	30.4	13111	100
2025-3-27 20:29:15.508	WT901BLE68-01(48591DE3C19B)	-0.496	-0.532	0.157	-18.127	-15.503	16.907	-78.98	28.02	-29.58	-41.258	-57.820	30.870	-0.74557	0.48822	-0.41034	0.19305	30.4	13111	100
2025-3-27 20:29:15.566	WT901BLE68-01(48591DE3C19B)	-0.496	-0.522	0.132	-25.696	-27.344	16.174	-79.06	28.18	-28.95	-41.258	-57.820	30.870	-0.74557	0.48822	-0.41034	0.19305	30.4	13111	100
2025-3-27 20:29:15.566	WT901BLE68-01(48591DE3C19B)	-0.506	-0.522	0.132	-25.696	-27.344	16.174	-79.15	28.35	-28.30	-41.258	-57.820	30.870	-0.74557	0.48822	-0.41034	0.19305	30.4	13111	100
2025-3-27 20:29:15.566	WT901BLE68-01(48591DE3C19B)	-0.506	-0.510	0.113	-34.058	-39.978	15.503	-79.26	28.49	-27.50	-41.258	-57.820	30.870	-0.74557	0.48822	-0.41034	0.19305	30.4	13111	100
2025-3-27 20:29:15.566	WT901BLE68-01(48591DE3C19B)	-0.512	-0.510	0.113	-34.058	-39.978	15.503	-79.38	28.63	-26.69	-41.258	-57.820	30.870	-0.74557	0.48822	-0.41034	0.19305	30.4	13111	100
2025-3-27 20:29:15.595	WT901BLE68-01(48591DE3C19B)	-0.512	-0.518	0.110	-42.358	-49.988	14.221	-79.52	28.74	-25.76	-41.258	-57.820	30.870	-0.74557	0.48822	-0.41034	0.19305	30.4	13111	100
2025-3-27 20:29:15.595	WT901BLE68-01(48591DE3C19B)	-0.542	-0.518	0.110	-42.358	-49.988	14.221	-79.67	28.86	-24.82	-41.258	-57.820	30.870	-0.74557	0.48822	-0.41034	0.19305	30.4	13111	100
2025-3-27 20:29:15.595	WT901BLE68-01(48591DE3C19B)	-0.542	-0.563	0.123	-48.889	-62.012	13.428	-79.83	28.94	-23.74	-41.258	-57.820	30.870	-0.74557	0.48822	-0.41034	0.19305	30.4	13111	100
2025-3-27 20:29:15.595	WT901BLE68-01(48591DE3C19B)	-0.549	-0.563	0.123	-48.889	-62.012	13.428	-79.98	29.04	-22.66	-41.258	-57.820	30.870	-0.74557	0.48822	-0.41034	0.19305	30.4	13111	100
2025-3-27 20:29:15.627	WT901BLE68-01(48591DE3C19B)	-0.549	-0.612	0.168	-52.734	-75.562	15.015	-80.10	29.12	-21.42	-41.258	-57.820	30.870	-0.74557	0.48822	-0.41034	0.19305	30.4	13111	100
2025-3-27 20:29:15.627	WT901BLE68-01(48591DE3C19B)	-0.510	-0.612	0.168	-52.734	-75.562	15.015	-80.21	29.21	-20.18	-41.258	-57.820	30.870	-0.74557	0.48822	-0.41034	0.19305	30.4	13111	100
2025-3-27 20:29:15.627	WT901BLE68-01(48591DE3C19B)	-0.510	-0.611	0.207	-49.927	-86.182	23.010	-80.23	29.36	-18.79	-41.258	-57.820	30.870	-0.74557	0.48822	-0.41034	0.19305	30.4	13111	100
2025-3-27 20:29:15.627	WT901BLE68-01(48591DE3C19B)	-0.429	-0.611	0.207	-49.927	-86.182	23.010	-80.24	29.50	-17.39	-41.258	-57.820	30.870	-0.74557	0.48822	-0.41034	0.19305	30.4	13111	100
2025-3-27 20:29:15.656	WT901BLE68-01(48591DE3C19B)	-0.429	-0.567	0.210	-47.913	-86.487	35.767	-80.21	29.78	-15.95	-41.258	-57.820	30.870	-0.74557	0.48822	-0.41034	0.19305	30.4	13111	100
2025-3-27 20:29:15.657	WT901BLE68-01(48591DE3C19B)	-0.325	-0.567	0.210	-47.913	-86.487	35.767	-80.17	30.05	-14.49	-41.258	-57.820	30.870	-0.74557	0.48822	-0.41034	0.19305	30.4	13111	100
2025-3-27 20:29:15.657	WT901BLE68-01(48591DE3C19B)	-0.325	-0.572	0.178	-44.983	-80.261	50.720	-80.11	30.47	-13.07	-41.258	-57.820	30.870	-0.75290	0.59396	-0.27048	-0.08395	30.4	13111	100
2025-3-27 20:29:15.657	WT901BLE68-01(48591DE3C19B)	-0.279	-0.572	0.178	-44.983	-80.261	50.720	-80.04	30.88	-11.65	-41.258	-57.820	30.870	-0.75290	0.59396	-0.27048	-0.08395	30.4	13111	100
2025-3-27 20:29:15.715	WT901BLE68-01(48591DE3C19B)	-0.279	-0.703	0.131	-44.006	-70.190	63.782	-79.97	31.43	-10.40	-41.258	-57.820	30.870	-0.75290	0.59396	-0.27048	-0.08395	30.4	13111	100
2025-3-27 20:29:15.715	WT901BLE68-01(48591DE3C19B)	-0.272	-0.703	0.131	-44.006	-70.190	63.782	-79.89	31.95	-9.48	-41.258	-57.820	30.870	-0.75290	0.59396	-0.27048	-0.08395	30.4	13111	100
2025-3-27 20:29:15.715	WT901BLE68-01(48591DE3C19B)	-0.346	-0.933	0.121	-41.138	-59.998	68.665	-79.83	32.51	-8.92	-41.258	-57.820	30.870	-0.75290	0.59396	-0.27048	-0.08395	30.4	13111	100
2025-3-27 20:29:15.715	WT901BLE68-01(48591DE3C19B)	-0.346	-1.355	0.149	-43.213	-55.664	60.608	-79.80	33.02	-8.46	-41.258	-57.820	30.870	-0.75290	0.59396	-0.27048	-0.08395	30.4	13111	100
2025-3-27 20:29:15.745	WT901BLE68-01(48591DE3C19B)	-0.473	-1.355	0.149	-43.213	-55.664	60.608	-79.81	33.49	-8.06	-41.258	-57.820	30.870	-0.75290	0.59396	-0.27048	-0.08395	30.4	13111	100
2025-3-27 20:29:15.746	WT901BLE68-01(48591DE3C19B)	-0.473	-2.073	0.155	-25.635	-54.016	46.265	-79.76	33.88	-7.70	-41.258	-57.820	30.870	-0.75290	0.59396	-0.27048	-0.08395	30.4	13111	100
2025-3-27 20:29:15.746	WT901BLE68-01(48591DE3C19B)	-0.511	-2.073	0.155	-25.635	-54.016	46.265	-79.65	34.18	-7.37	-41.258	-57.820	30.870	-0.75290	0.59396	-0.27048	-0.08395	30.4	13111	100
2025-3-27 20:29:15.746	WT901BLE68-01(48591DE3C19B)	-0.511	-2.228	0.171	12.146	-44.678	34.058	-79.40	34.43	-7.11	-41.258	-57.820	30.870	-0.75290	0.59396	-0.27048	-0.08395	30.4	13111	100
2025-3-27 20:29:15.774	WT901BLE68-01(48591DE3C19B)	-0.343	-2.228	0.171	12.146	-44.678	34.058	-79.01	34.61	-6.93	-41.258	-57.820	30.870	-0.75290	0.59396	-0.27048	-0.08395	30.4	13111	100
2025-3-27 20:29:15.775	WT901BLE68-01(48591DE3C19B)	-0.343	-1.783	0.177	34.851	-25.208	24.292	-78.59	34.77	-6.88	-41.258	-57.820	30.870	-0.75290	0.59396	-0.27048	-0.08395	30.4	13111	100
2025-3-27 20:29:15.775	WT901BLE68-01(48591DE3C19B)	-0.112	-1.783	0.177	34.851	-25.208	24.292	-78.13	34.89	-6.97	-41.258	-57.820	30.870	-0.75290	0.59396	-0.27048	-0.08395	30.4	13111	100
2025-3-27 20:29:15.775	WT901BLE68-01(48591DE3C19B)	-0.112	-1.471	0.120	37.537	27.954	19.714	-77.85	35.03	-7.38	-41.258	-57.820	30.870	-0.75290	0.59396	-0.27048	-0.08395	30.4	13111	100
2025-3-27 20:29:15.837	WT901BLE68-01(48591DE3C19B)	-0.124	-1.471	0.120	37.537	27.954	19.714	-77.76	35.21	-8.11	-41.258	-57.820	30.870	-0.75290	0.59396	-0.27048	-0.08395	30.4	13111	100
2025-3-27 20:29:15.837	WT901BLE68-01(48591DE3C19B)	-0.124	-1.355	0.103	42.725	83.862	12.512	-77.84	35.40	-9.19	-41.258	-57.820	30.870	-0.75290	0.59396	-0.27048	-0.08395	30.4	13111	100
2025-3-27 20:29:15.837	WT901BLE68-01(48591DE3C19B)	-0.232	-1.355	0.103	42.725	83.862	12.512	-78.11	35.61	-10.61	-41.258	-57.820	30.870	-0.75290	0.59396	-0.27048	-0.08395	30.4	13111	100
2025-3-27 20:29:15.838	WT901BLE68-01(48591DE3C19B)	-0.232	-1.172	0.123	44.556	105.774	0.244	-78.45	35.77	-12.18	-41.258	-57.820	30.870	-0.75290	0.59396	-0.27048	-0.08395	30.4	13111	100
2025-3-27 20:29:15.864	WT901BLE68-01(48591DE3C19B)	-0.287	-1.172	0.123	44.556	105.774	0.244	-78.88	35.88	-13.89	-41.258	-57.820	30.870	-0.75290	0.59396	-0.27048	-0.08395	30.4	13111	100
2025-3-27 20:29:15.865	WT901BLE68-01(48591DE3C19B)	-0.287	-0.927	0.181	38.513	97.778	-13.306	-79.32	35.90	-15.56	-41.258	-57.820	30.870	-0.75290	0.59396	-0.27048	-0.08395	30.4	13111	100
2025-3-27 20:29:15.865	WT901BLE68-01(48591DE3C19B)	-0.331	-0.927	0.181	38.513	97.778	-13.306	-79.76	35.84	-17.19	-47.824	-61.348	12.936	-0.75290	0.59396	-0.27048	-0.08395	30.4	13111	100
2025-3-27 20:29:15.865	WT901BLE68-01(48591DE3C19B)	-0.331	-0.740	0.231	33.936	84.839	-27.771	-80.17	35.69	-18.74	-47.824	-61.348	12.936	-0.75290	0.59396	-0.27048	-0.08395	30.4	13111	100
2025-3-27 20:29:15.925	WT901BLE68-01(48591DE3C19B)	-0.355	-0.740	0.231	33.936	84.839	-27.771	-80.55	35.46	-20.23	-47.824	-61.348	12.936	-0.75290	0.59396	-0.27048	-0.08395	30.4	13111	100
2025-3-27 20:29:15.926	WT901BLE68-01(48591DE3C19B)	-0.355	-0.549	0.214	34.729	69.946	-32.898	-80.87	35.18	-21.60	-47.824	-61.348	12.936	-0.75290	0.59396	-0.27048	-0.08395	30.4	13111	100
2025-3-27 20:29:15.926	WT901BLE68-01(48591DE3C19B)	-0.362	-0.549	0.214	34.729	69.946	-32.898	-81.11	34.87	-22.89	-47.824	-61.348	12.936	-0.75290	0.59396	-0.27048	-0.08395	30.4	13111	100
2025-3-27 20:29:15.926	WT901BLE68-01(48591DE3C19B)	-0.362	-0.362	0.160	33.142	48.218	-29.602	-81.27	34.55	-24.03	-47.824	-61.348	12.936	-0.75290	0.59396	-0.27048	-0.08395	30.4	13111	100
2025-3-27 20:29:15.986	WT901BLE68-01(48591DE3C19B)	-0.319	-0.362	0.160	33.142	48.218	-29.602	-81.35	34.24	-25.02	-47.824	-61.348	12.936	-0.75290	0.59396	-0.27048	-0.08395	30.4	13111	100
2025-3-27 20:29:15.986	WT901BLE68-01(48591DE3C19B)	-0.319	-0.247	0.121	28.259	18.433	-24.719	-81.33	33.94	-25.83	-47.824	-61.348	12.936	-0.75290	0.59396	-0.27048	-0.08395	30.4	13111	100
2025-3-27 20:29:15.986	WT901BLE68-01(48591DE3C19B)	-0.241	-0.247	0.121	28.259	18.433	-24.719	-81.23	33.65	-26.44	-47.824	-61.348	12.936	-0.75290	0.59396	-0.27048	-0.08395	30.4	13111	100
2025-3-27 20:29:15.986	WT901BLE68-01(48591DE3C19B)	-0.241	-0.212	0.124	22.827	-1.160	-16.235	-81.07	33.39	-26.93	-47.824	-61.348	12.936	-0.75290	0.59396	-0.27048	-0.08395	30.4	13111	100
2025-3-27 20:29:15.987	WT901BLE68-01(48591DE3C19B)	-0.255	-0.212	0.124	22.827	-1.160	-16.235	-80.88	33.17	-27.30	-47.824	-61.348	12.936	-0.75290	0.59396	-0.27048	-0.08395	30.4	13111	100
2025-3-27 20:29:15.987	WT901BLE68-01(48591DE3C19B)	-0.255	-0.274	0.212	23.254	-13.306	-7.874	-80.62	32.98	-27.61	-47.824	-61.348	12.936	-0.75290	0.59396	-0.27048	-0.08395	30.4	13111	100
2025-3-27 20:29:15.988	WT901BLE68-01(48591DE3C19B)	-0.348	-0.274	0.212	23.254	-13.306	-7.874	-80.32	32.82	-27.86	-47.824	-61.348	12.936	-0.75290	0.59396	-0.27048	-0.08395	30.4	13111	100
2025-3-27 20:29:15.988	WT901BLE68-01(48591DE3C19B)	-0.348	-0.339	0.355	32.593	-34.912	2.319	-79.90	32.70	-28.01	-47.824	-61.348	12.936	-0.75290	0.59396	-0.27048	-0.08395	30.4	13111	100
2025-3-27 20:29:16.47	WT901BLE68-01(48591DE3C19B)	-0.418	-0.339	0.355	32.593	-34.912	2.319	-79.34	32.61	-28.09	-47.824	-61.348	12.936	-0.75290	0.59396	-0.27048	-0.08395	30.4	13111	100
2025-3-27 20:29:16.47	WT901BLE68-01(48591DE3C19B)	-0.418	-0.358	0.354	35.706	-57.556	4.639	-78.70	32.50	-28.08	-47.824	-61.348	12.936	-0.75290	0.59396	-0.27048	-0.08395	30.4	13111	100
2025-3-27 20:29:16.47	WT901BLE68-01(48591DE3C19B)	-0.389	-0.358	0.354	35.706	-57.556	4.639	-77.96	32.37	-27.99	-47.824	-61.348	12.936	-0.75290	0.59396	-0.27048	-0.08395	30.4	13111	100
2025-3-27 20:29:16.48	WT901BLE68-01(48591DE3C19B)	-0.389	-0.497	0.203	26.550	-58.960	-2.930	-77.27	32.20	-27.92	-47.824	-61.348	12.936	-0.75290	0.59396	-0.27048	-0.08395	30.4	13111	100
2025-3-27 20:29:16.78	WT901BLE68-01(48591DE3C19B)	-0.443	-0.497	0.203	26.550	-58.960	-2.930	-76.63	31.99	-27.87	-47.824	-61.348	12.936	-0.75290	0.59396	-0.27048	-0.08395	30.4	13111	100
2025-3-27 20:29:16.78	WT901BLE68-01(48591DE3C19B)	-0.443	-0.810	0.053	19.775	-32.288	-21.606	-76.12	31.72	-27.99	-47.824	-61.348	12.936	-0.75290	0.59396	-0.27048	-0.08395	30.4	13111	100
2025-3-27 20:29:16.78	WT901BLE68-01(48591DE3C19B)	-0.623	-0.810	0.053	19.775	-32.288	-21.606	-75.75	31.40	-28.28	-47.824	-61.348	12.936	-0.75290	0.59396	-0.27048	-0.08395	30.4	13111	100
2025-3-27 20:29:16.78	WT901BLE68-01(48591DE3C19B)	-0.623	-1.209	0.064	15.503	-6.897	-56.396	-75.51	30.95	-28.74	-47.824	-61.348	12.936	-0.77893	0.51880	-0.35043	0.03452	30.4	13111	100
2025-3-27 20:29:16.107	WT901BLE68-01(48591DE3C19B)	-0.812	-1.209	0.064	15.503	-6.897	-56.396	-75.40	30.39	-29.31	-47.824	-61.348	12.936	-0.77893	0.51880	-0.35043	0.03452	30.4	13111	100
2025-3-27 20:29:16.108	WT901BLE68-01(48591DE3C19B)	-0.812	-1.667	0.273	15.991	5.005	-99.854	-75.36	29.63	-29.92	-47.824	-61.348	12.936	-0.77893	0.51880	-0.35043	0.03452	30.4	13111	100
2025-3-27 20:29:16.108	WT901BLE68-01(48591DE3C19B)	-1.209	-1.667	0.273	15.991	5.005	-99.854	-75.38	28.69	-30.61	-47.824	-61.348	12.936	-0.77893	0.51880	-0.35043	0.03452	30.4	13111	100
2025-3-27 20:29:16.108	WT901BLE68-01(48591DE3C19B)	-1.209	-1.906	0.513	14.771	20.813	-107.910	-75.44	27.72	-31.37	-47.824	-61.348	12.936	-0.77893	0.51880	-0.35043	0.03452	30.4	13111	100
2025-3-27 20:29:16.165	WT901BLE68-01(48591DE3C19B)	-1.183	-1.906	0.513	14.771	20.813	-107.910	-75.54	26.74	-32.24	-47.824	-61.348	12.936	-0.77893	0.51880	-0.35043	0.03452	30.4	13111	100
2025-3-27 20:29:16.165	WT901BLE68-01(48591DE3C19B)	-1.183	-1.408	0.546	32.471	51.819	-96.008	-75.59	25.87	-33.30	-47.824	-61.348	12.936	-0.77893	0.51880	-0.35043	0.03452	30.4	13111	100
2025-3-27 20:29:16.166	WT901BLE68-01(48591DE3C19B)	-0.927	-1.408	0.546	32.471	51.819	-96.008	-75.59	25.09	-34.60	-47.824	-61.348	12.936	-0.77893	0.51880	-0.35043	0.03452	30.4	13111	100
2025-3-27 20:29:16.166	WT901BLE68-01(48591DE3C19B)	-0.927	-0.908	0.492	22.217	80.322	-77.148	-75.66	24.43	-36.14	-47.824	-61.348	12.936	-0.77893	0.51880	-0.35043	0.03452	30.4	13111	100
2025-3-27 20:29:16.195	WT901BLE68-01(48591DE3C19B)	-0.742	-0.908	0.492	22.217	80.322	-77.148	-75.81	23.88	-37.85	-47.824	-61.348	12.936	-0.77893	0.51880	-0.35043	0.03452	30.4	13111	100
2025-3-27 20:29:16.195	WT901BLE68-01(48591DE3C19B)	-0.742	-0.772	0.315	2.075	69.702	-50.598	-76.07	23.55	-39.38	-47.824	-61.348	12.936	-0.77893	0.51880	-0.35043	0.03452	30.4	13111	100
2025-3-27 20:29:16.195	WT901BLE68-01(48591DE3C19B)	-0.661	-0.772	0.315	2.075	69.702	-50.598	-76.33	23.20	-40.90	-47.824	-61.348	12.936	-0.77893	0.51880	-0.35043	0.03452	30.4	13111	100
2025-3-27 20:29:16.195	WT901BLE68-01(48591DE3C19B)	-0.661	-0.720	0.176	-9.399	13.123	-28.015	-76.58	22.98	-40.46	-47.824	-61.348	12.936	-0.77893	0.51880	-0.35043	0.03452	30.4	13111	100
2025-3-27 20:29:16.226	WT901BLE68-01(48591DE3C19B)	-0.511	-0.720	0.176	-9.399	13.123	-28.015	-76.83	22.77	-40.02	-47.824	-61.348	12.936	-0.77893	0.51880	-0.35043	0.03452	30.4	13111	100
2025-3-27 20:29:16.227	WT901BLE68-01(48591DE3C19B)	-0.511	-0.666	0.078	-20.142	-32.837	-10.315	-76.99	22.63	-39.05	-47.824	-61.348	12.936	-0.77893	0.51880	-0.35043	0.03452	30.4	13111	100
2025-3-27 20:29:16.227	WT901BLE68-01(48591DE3C19B)	-0.467	-0.666	0.078	-20.142	-32.837	-10.315	-77.15	22.48	-38.10	-47.824	-61.348	12.936	-0.77893	0.51880	-0.35043	0.03452	30.4	13111	100
2025-3-27 20:29:16.227	WT901BLE68-01(48591DE3C19B)	-0.467	-0.564	0.073	-22.339	-42.969	7.629	-77.28	22.49	-36.99	-47.824	-61.348	12.936	-0.77893	0.51880	-0.35043	0.03452	30.4	13111	100
2025-3-27 20:29:16.286	WT901BLE68-01(48591DE3C19B)	-0.468	-0.564	0.073	-22.339	-42.969	7.629	-77.40	22.51	-35.90	-47.824	-61.348	12.936	-0.77893	0.51880	-0.35043	0.03452	30.4	13111	100
2025-3-27 20:29:16.286	WT901BLE68-01(48591DE3C19B)	-0.468	-0.482	0.126	-27.161	-22.461	15.381	-77.66	22.65	-35.00	-38.122	-59.878	13.132	-0.77893	0.51880	-0.35043	0.03452	30.4	13111	100
2025-3-27 20:29:16.286	WT901BLE68-01(48591DE3C19B)	-0.490	-0.482	0.126	-27.161	-22.461	15.381	-77.90	22.79	-34.11	-38.122	-59.878	13.132	-0.77893	0.51880	-0.35043	0.03452	30.4	13111	100
2025-3-27 20:29:16.287	WT901BLE68-01(48591DE3C19B)	-0.490	-0.373	0.192	-25.085	8.179	24.963	-78.26	23.09	-33.52	-38.122	-59.878	13.132	-0.77893	0.51880	-0.35043	0.03452	30.4	13111	100
2025-3-27 20:29:16.345	WT901BLE68-01(48591DE3C19B)	-0.416	-0.373	0.192	-25.085	8.179	24.963	-78.61	23.40	-32.93	-38.122	-59.878	13.132	-0.77893	0.51880	-0.35043	0.03452	30.4	13111	100
2025-3-27 20:29:16.346	WT901BLE68-01(48591DE3C19B)	-0.416	-0.188	0.213	-23.804	19.165	38.513	-78.99	23.86	-32.43	-38.122	-59.878	13.132	-0.77893	0.51880	-0.35043	0.03452	30.4	13111	100
2025-3-27 20:29:16.346	WT901BLE68-01(48591DE3C19B)	-0.307	-0.188	0.213	-23.804	19.165	38.513	-79.38	24.33	-31.93	-38.122	-59.878	13.132	-0.77893	0.51880	-0.35043	0.03452	30.4	13111	100
2025-3-27 20:29:16.346	WT901BLE68-01(48591DE3C19B)	-0.307	-0.090	0.182	-26.367	19.287	49.561	-79.79	24.91	-31.42	-38.122	-59.878	13.132	-0.77893	0.51880	-0.35043	0.03452	30.4	13111	100
2025-3-27 20:29:16.347	WT901BLE68-01(48591DE3C19B)	-0.306	-0.090	0.182	-26.367	19.287	49.561	-80.21	25.50	-30.91	-38.122	-59.878	13.132	-0.77893	0.51880	-0.35043	0.03452	30.4	13111	100
2025-3-27 20:29:16.347	WT901BLE68-01(48591DE3C19B)	-0.306	-0.135	0.143	-30.762	11.597	55.054	-80.63	26.14	-30.32	-38.122	-59.878	13.132	-0.77893	0.51880	-0.35043	0.03452	30.4	13111	100
2025-3-27 20:29:16.347	WT901BLE68-01(48591DE3C19B)	-0.386	-0.135	0.143	-30.762	11.597	55.054	-81.06	26.78	-29.73	-38.122	-59.878	13.132	-0.77893	0.51880	-0.35043	0.03452	30.4	13111	100
2025-3-27 20:29:16.347	WT901BLE68-01(48591DE3C19B)	-0.386	-0.328	0.125	-37.842	-9.460	54.871	-81.46	27.39	-28.91	-38.122	-59.878	13.132	-0.77893	0.51880	-0.35043	0.03452	30.4	13111	100
2025-3-27 20:29:16.406	WT901BLE68-01(48591DE3C19B)	-0.473	-0.328	0.125	-37.842	-9.460	54.871	-81.85	28.00	-28.10	-38.122	-59.878	13.132	-0.77893	0.51880	-0.35043	0.03452	30.4	13111	100
2025-3-27 20:29:16.406	WT901BLE68-01(48591DE3C19B)	-0.473	-0.631	0.149	-45.410	-42.786	51.331	-82.14	28.53	-26.92	-38.122	-59.878	13.132	-0.77893	0.51880	-0.35043	0.03452	30.4	13111	100
2025-3-27 20:29:16.406	WT901BLE68-01(48591DE3C19B)	-0.529	-0.631	0.149	-45.410	-42.786	51.331	-82.41	29.05	-25.72	-38.122	-59.878	13.132	-0.77893	0.51880	-0.35043	0.03452	30.4	13111	100
2025-3-27 20:29:16.406	WT901BLE68-01(48591DE3C19B)	-0.529	-1.080	0.142	-53.528	-76.294	41.992	-82.57	29.43	-24.15	-38.122	-59.878	13.132	-0.77893	0.51880	-0.35043	0.03452	30.4	13111	100
2025-3-27 20:29:16.438	WT901BLE68-01(48591DE3C19B)	-0.512	-1.080	0.142	-53.528	-76.294	41.992	-82.65	29.75	-23.23	-38.122	-59.878	13.132	-0.77893	0.51880	-0.35043	0.03452	30.4	13111	100
2025-3-27 20:29:16.438	WT901BLE68-01(48591DE3C19B)	-0.512	-1.926	0.093	-50.110	-103.577	7.874	-82.51	29.67	-22.64	-38.122	-59.878	13.132	-0.77893	0.51880	-0.35043	0.03452	30.4	13111	100
2025-3-27 20:29:16.438	WT901BLE68-01(48591DE3C19B)	-0.452	-1.926	0.093	-50.110	-103.577	7.874	-82.40	29.61	-21.96	-38.122	-59.878	13.132	-0.77893	0.51880	-0.35043	0.03452	30.4	13111	100
2025-3-27 20:29:16.438	WT901BLE68-01(48591DE3C19B)	-0.452	-2.589	0.089	-13.977	-99.060	-14.526	-82.01	29.31	-21.30	-38.122	-59.878	13.132	-0.77893	0.51880	-0.35043	0.03452	30.4	13111	100
2025-3-27 20:29:16.468	WT901BLE68-01(48591DE3C19B)	-0.376	-2.589	0.089	-13.977	-99.060	-14.526	-81.64	29.00	-20.62	-38.122	-59.878	13.132	-0.77893	0.51880	-0.35043	0.03452	30.4	13111	100
2025-3-27 20:29:16.468	WT901BLE68-01(48591DE3C19B)	-0.376	-2.071	0.193	35.156	-71.594	-13.794	-80.96	28.72	-20.26	-38.122	-59.878	13.132	-0.77893	0.51880	-0.35043	0.03452	30.4	13111	100
2025-3-27 20:29:16.468	WT901BLE68-01(48591DE3C19B)	0.014	-2.071	0.193	35.156	-71.594	-13.794	-80.28	28.44	-19.91	-38.122	-59.878	13.132	-0.75812	0.58197	-0.29288	-0.02582	30.4	13111	100
2025-3-27 20:29:16.469	WT901BLE68-01(48591DE3C19B)	0.014	-1.525	0.177	29.968	-17.761	-19.470	-79.97	28.17	-20.18	-38.122	-59.878	13.132	-0.75812	0.58197	-0.29288	-0.02582	30.4	13111	100
2025-3-27 20:29:16.526	WT901BLE68-01(48591DE3C19B)	0.285	-1.525	0.177	29.968	-17.761	-19.470	-79.67	27.90	-20.45	-38.122	-59.878	13.132	-0.75812	0.58197	-0.29288	-0.02582	30.4	13111	100
2025-3-27 20:29:16.526	WT901BLE68-01(48591DE3C19B)	0.285	-1.235	0.207	31.921	68.420	-22.766	-79.80	27.74	-21.69	-38.122	-59.878	13.132	-0.75812	0.58197	-0.29288	-0.02582	30.4	13111	100
2025-3-27 20:29:16.526	WT901BLE68-01(48591DE3C19B)	0.083	-1.235	0.207	31.921	68.420	-22.766	-79.94	27.56	-22.92	-38.122	-59.878	13.132	-0.75812	0.58197	-0.29288	-0.02582	30.4	13111	100
2025-3-27 20:29:16.526	WT901BLE68-01(48591DE3C19B)	0.083	-0.975	0.271	25.635	129.517	-18.127	-80.44	27.53	-24.82	-38.122	-59.878	13.132	-0.75812	0.58197	-0.29288	-0.02582	30.4	13111	100
2025-3-27 20:29:16.555	WT901BLE68-01(48591DE3C19B)	-0.233	-0.975	0.271	25.635	129.517	-18.127	-80.94	27.47	-26.71	-38.122	-59.878	13.132	-0.75812	0.58197	-0.29288	-0.02582	30.4	13111	100
2025-3-27 20:29:16.555	WT901BLE68-01(48591DE3C19B)	-0.233	-0.936	0.344	14.648	119.324	-33.081	-81.50	27.23	-28.50	-38.122	-59.878	13.132	-0.75812	0.58197	-0.29288	-0.02582	30.4	13111	100
2025-3-27 20:29:16.556	WT901BLE68-01(48591DE3C19B)	-0.319	-0.936	0.344	14.648	119.324	-33.081	-82.04	26.98	-30.28	-38.122	-59.878	13.132	-0.75812	0.58197	-0.29288	-0.02582	30.4	13111	100
2025-3-27 20:29:16.556	WT901BLE68-01(48591DE3C19B)	-0.319	-0.802	0.360	20.142	76.355	-38.025	-82.30	26.61	-31.59	-38.122	-59.878	13.132	-0.75812	0.58197	-0.29288	-0.02582	30.4	13111	100
2025-3-27 20:29:16.585	WT901BLE68-01(48591DE3C19B)	-0.278	-0.802	0.360	20.142	76.355	-38.025	-82.53	26.24	-32.89	-38.122	-59.878	13.132	-0.75812	0.58197	-0.29288	-0.02582	30.4	13111	100
2025-3-27 20:29:16.585	WT901BLE68-01(48591DE3C19B)	-0.278	-0.470	0.307	29.480	48.584	-38.513	-82.52	25.83	-33.88	-38.122	-59.878	13.132	-0.75812	0.58197	-0.29288	-0.02582	30.4	13111	100
2025-3-27 20:29:16.585	WT901BLE68-01(48591DE3C19B)	-0.220	-0.470	0.307	29.480	48.584	-38.513	-82.50	25.43	-34.88	-38.122	-59.878	13.132	-0.75812	0.58197	-0.29288	-0.02582	30.4	13111	100
2025-3-27 20:29:16.585	WT901BLE68-01(48591DE3C19B)	-0.220	-0.195	0.188	27.832	28.503	-25.208	-82.38	25.13	-35.63	-38.122	-59.878	13.132	-0.75812	0.58197	-0.29288	-0.02582	30.4	13111	100
2025-3-27 20:29:16.647	WT901BLE68-01(48591DE3C19B)	-0.094	-0.195	0.188	27.832	28.503	-25.208	-82.25	24.84	-36.39	-38.122	-59.878	13.132	-0.75812	0.58197	-0.29288	-0.02582	30.4	13111	100
2025-3-27 20:29:16.647	WT901BLE68-01(48591DE3C19B)	-0.094	-0.093	0.119	22.400	13.245	-6.165	-82.09	24.72	-36.95	-38.122	-59.878	13.132	-0.75812	0.58197	-0.29288	-0.02582	30.4	13111	100
2025-3-27 20:29:16.648	WT901BLE68-01(48591DE3C19B)	-0.182	-0.093	0.119	22.400	13.245	-6.165	-81.93	24.60	-37.52	-38.122	-59.878	13.132	-0.75812	0.58197	-0.29288	-0.02582	30.4	13111	100
2025-3-27 20:29:16.648	WT901BLE68-01(48591DE3C19B)	-0.419	-0.124	0.154	21.118	18.250	10.498	-81.78	24.66	-38.13	-38.122	-59.878	13.132	-0.75812	0.58197	-0.29288	-0.02582	30.4	13111	100
2025-3-27 20:29:16.678	WT901BLE68-01(48591DE3C19B)	-0.419	-0.306	0.157	12.390	6.897	26.855	-81.63	24.79	-38.67	-38.122	-59.878	13.132	-0.75812	0.58197	-0.29288	-0.02582	30.4	13111	100
2025-3-27 20:29:16.678	WT901BLE68-01(48591DE3C19B)	-0.519	-0.306	0.157	12.390	6.897	26.855	-81.50	25.00	-39.14	-38.122	-59.878	13.132	-0.75812	0.58197	-0.29288	-0.02582	30.4	13111	100
2025-3-27 20:29:16.678	WT901BLE68-01(48591DE3C19B)	-0.519	-0.556	0.110	-1.831	-24.780	35.217	-81.35	25.25	-39.45	-38.122	-59.878	13.132	-0.75812	0.58197	-0.29288	-0.02582	30.4	13111	100
2025-3-27 20:29:16.678	WT901BLE68-01(48591DE3C19B)	-0.560	-0.556	0.110	-1.831	-24.780	35.217	-81.18	25.52	-39.59	-42.826	-57.722	7.840	-0.75812	0.58197	-0.29288	-0.02582	30.4	13111	100
2025-3-27 20:29:16.707	WT901BLE68-01(48591DE3C19B)	-0.560	-0.961	0.039	-15.808	-34.729	37.109	-81.07	25.80	-39.67	-42.826	-57.722	7.840	-0.75812	0.58197	-0.29288	-0.02582	30.4	13111	100
2025-3-27 20:29:16.708	WT901BLE68-01(48591DE3C19B)	-0.603	-0.961	0.039	-15.808	-34.729	37.109	-81.00	26.10	-39.68	-42.826	-57.722	7.840	-0.75812	0.58197	-0.29288	-0.02582	30.4	13111	100
2025-3-27 20:29:16.708	WT901BLE68-01(48591DE3C19B)	-0.603	-1.545	0.036	-9.949	-22.339	21.118	-80.94	26.33	-39.73	-42.826	-57.722	7.840	-0.75812	0.58197	-0.29288	-0.02582	30.4	13111	100
2025-3-27 20:29:16.708	WT901BLE68-01(48591DE3C19B)	-0.653	-1.545	0.036	-9.949	-22.339	21.118	-80.91	26.50	-39.81	-42.826	-57.722	7.840	-0.75812	0.58197	-0.29288	-0.02582	30.4	13111	100
2025-3-27 20:29:16.765	WT901BLE68-01(48591DE3C19B)	-0.653	-1.906	0.195	17.883	0.061	-21.301	-80.82	26.47	-40.02	-42.826	-57.722	7.840	-0.75812	0.58197	-0.29288	-0.02582	30.4	13111	100
2025-3-27 20:29:16.766	WT901BLE68-01(48591DE3C19B)	-0.917	-1.906	0.195	17.883	0.061	-21.301	-80.67	26.25	-40.38	-42.826	-57.722	7.840	-0.75812	0.58197	-0.29288	-0.02582	30.4	13111	100
2025-3-27 20:29:16.766	WT901BLE68-01(48591DE3C19B)	-0.917	-1.918	0.390	18.433	26.672	-39.185	-80.59	25.96	-40.89	-42.826	-57.722	7.840	-0.75812	0.58197	-0.29288	-0.02582	30.4	13111	100
2025-3-27 20:29:16.766	WT901BLE68-01(48591DE3C19B)	-1.136	-1.918	0.390	18.433	26.672	-39.185	-80.57	25.61	-41.56	-42.826	-57.722	7.840	-0.75812	0.58197	-0.29288	-0.02582	30.4	13111	100
2025-3-27 20:29:16.795	WT901BLE68-01(48591DE3C19B)	-1.136	-1.588	0.472	30.273	99.426	-57.129	-80.66	25.23	-42.65	-42.826	-57.722	7.840	-0.75812	0.58197	-0.29288	-0.02582	30.4	13111	100
2025-3-27 20:29:16.795	WT901BLE68-01(48591DE3C19B)	-1.043	-1.588	0.472	30.273	99.426	-57.129	-80.85	24.83	-44.17	-42.826	-57.722	7.840	-0.75812	0.58197	-0.29288	-0.02582	30.4	13111	100
2025-3-27 20:29:16.795	WT901BLE68-01(48591DE3C19B)	-1.043	-1.035	0.516	32.349	151.367	-40.222	-81.12	24.55	-45.96	-42.826	-57.722	7.840	-0.75812	0.58197	-0.29288	-0.02582	30.4	13111	100
2025-3-27 20:29:16.795	WT901BLE68-01(48591DE3C19B)	-0.769	-1.035	0.516	32.349	151.367	-40.222	-81.47	24.39	-48.05	-42.826	-57.722	7.840	-0.75812	0.58197	-0.29288	-0.02582	30.4	13111	100
2025-3-27 20:29:16.825	WT901BLE68-01(48591DE3C19B)	-0.769	-0.600	0.415	20.264	152.161	-26.550	-81.86	24.29	-50.19	-42.826	-57.722	7.840	-0.75812	0.58197	-0.29288	-0.02582	30.4	13111	100
2025-3-27 20:29:16.825	WT901BLE68-01(48591DE3C19B)	-0.568	-0.600	0.415	20.264	152.161	-26.550	-82.29	24.23	-52.37	-42.826	-57.722	7.840	-0.75812	0.58197	-0.29288	-0.02582	30.4	13111	100
2025-3-27 20:29:16.826	WT901BLE68-01(48591DE3C19B)	-0.568	-0.321	0.335	-1.282	93.811	-5.676	-82.68	24.22	-54.28	-42.826	-57.722	7.840	-0.75812	0.58197	-0.29288	-0.02582	30.4	13111	100
2025-3-27 20:29:16.826	WT901BLE68-01(48591DE3C19B)	-0.629	-0.321	0.335	-1.282	93.811	-5.676	-83.03	24.26	-55.89	-42.826	-57.722	7.840	-0.75812	0.58197	-0.29288	-0.02582	30.4	13111	100
2025-3-27 20:29:16.886	WT901BLE68-01(48591DE3C19B)	-0.629	-0.433	0.297	-28.931	3.052	4.883	-83.31	24.29	-57.01	-42.826	-57.722	7.840	-0.75812	0.58197	-0.29288	-0.02582	30.4	13111	100
2025-3-27 20:29:16.886	WT901BLE68-01(48591DE3C19B)	-0.579	-0.433	0.297	-28.931	3.052	4.883	-83.51	24.30	-57.65	-42.826	-57.722	7.840	-0.75812	0.58197	-0.29288	-0.02582	30.4	13111	100
2025-3-27 20:29:16.886	WT901BLE68-01(48591DE3C19B)	-0.579	-0.615	0.264	-41.565	-70.007	22.705	-83.60	24.35	-57.89	-42.826	-57.722	7.840	-0.75812	0.58197	-0.29288	-0.02582	30.4	13111	100
2025-3-27 20:29:16.886	WT901BLE68-01(48591DE3C19B)	-0.495	-0.615	0.264	-41.565	-70.007	22.705	-83.59	24.46	-57.71	-42.826	-57.722	7.840	-0.75812	0.58197	-0.29288	-0.02582	30.4	13111	100
2025-3-27 20:29:16.914	WT901BLE68-01(48591DE3C19B)	-0.495	-0.647	0.243	-27.222	-81.909	36.011	-83.47	24.61	-57.46	-42.826	-57.722	7.840	-0.70749	0.49380	-0.45212	0.22601	30.4	13111	100
2025-3-27 20:29:16.915	WT901BLE68-01(48591DE3C19B)	-0.338	-0.647	0.243	-27.222	-81.909	36.011	-83.24	24.83	-57.13	-42.826	-57.722	7.840	-0.70749	0.49380	-0.45212	0.22601	30.4	13111	100
2025-3-27 20:29:16.915	WT901BLE68-01(48591DE3C19B)	-0.338	-0.517	0.187	-10.986	-55.603	43.091	-83.00	25.10	-56.94	-42.826	-57.722	7.840	-0.70749	0.49380	-0.45212	0.22601	30.4	13111	100
2025-3-27 20:29:16.915	WT901BLE68-01(48591DE3C19B)	-0.214	-0.517	0.187	-10.986	-55.603	43.091	-82.72	25.43	-56.88	-42.826	-57.722	7.840	-0.70749	0.49380	-0.45212	0.22601	30.4	13111	100
2025-3-27 20:29:16.945	WT901BLE68-01(48591DE3C19B)	-0.214	-0.311	0.138	-4.822	-13.855	50.171	-82.51	25.81	-57.03	-42.826	-57.722	7.840	-0.70749	0.49380	-0.45212	0.22601	30.4	13111	100
2025-3-27 20:29:16.945	WT901BLE68-01(48591DE3C19B)	-0.188	-0.311	0.138	-4.822	-13.855	50.171	-82.37	26.25	-57.40	-42.826	-57.722	7.840	-0.70749	0.49380	-0.45212	0.22601	30.4	13111	100
2025-3-27 20:29:16.946	WT901BLE68-01(48591DE3C19B)	-0.188	-0.180	0.139	-4.089	26.367	56.274	-82.32	26.75	-57.98	-42.826	-57.722	7.840	-0.70749	0.49380	-0.45212	0.22601	30.4	13111	100
2025-3-27 20:29:16.946	WT901BLE68-01(48591DE3C19B)	-0.302	-0.180	0.139	-4.089	26.367	56.274	-82.36	27.30	-58.78	-42.826	-57.722	7.840	-0.70749	0.49380	-0.45212	0.22601	30.4	13111	100
2025-3-27 20:29:17.6	WT901BLE68-01(48591DE3C19B)	-0.302	-0.161	0.159	-9.338	37.720	61.951	-82.47	27.89	-59.64	-42.826	-57.722	7.840	-0.70749	0.49380	-0.45212	0.22601	30.4	13111	100
2025-3-27 20:29:17.6	WT901BLE68-01(48591DE3C19B)	-0.424	-0.161	0.159	-9.338	37.720	61.951	-82.62	28.50	-60.57	-42.826	-57.722	7.840	-0.70749	0.49380	-0.45212	0.22601	30.4	13111	100
2025-3-27 20:29:17.6	WT901BLE68-01(48591DE3C19B)	-0.424	-0.269	0.199	-25.879	5.920	64.636	-82.78	29.11	-61.31	-42.826	-57.722	7.840	-0.70749	0.49380	-0.45212	0.22601	30.4	13111	100
2025-3-27 20:29:17.6	WT901BLE68-01(48591DE3C19B)	-0.429	-0.269	0.199	-25.879	5.920	64.636	-82.92	29.70	-61.89	-42.826	-57.722	7.840	-0.70749	0.49380	-0.45212	0.22601	30.4	13111	100
2025-3-27 20:29:17.37	WT901BLE68-01(48591DE3C19B)	-0.429	-0.605	0.174	-47.302	-47.424	59.692	-83.02	30.23	-62.16	-42.826	-57.722	7.840	-0.70749	0.49380	-0.45212	0.22601	30.4	13111	100
2025-3-27 20:29:17.37	WT901BLE68-01(48591DE3C19B)	-0.392	-0.605	0.174	-47.302	-47.424	59.692	-83.07	30.72	-62.12	-42.826	-57.722	7.840	-0.70749	0.49380	-0.45212	0.22601	30.4	13111	100
2025-3-27 20:29:17.37	WT901BLE68-01(48591DE3C19B)	-0.392	-1.042	0.120	-55.420	-85.693	48.401	-83.07	31.12	-61.86	-42.826	-57.722	7.840	-0.70749	0.49380	-0.45212	0.22601	30.4	13111	100
2025-3-27 20:29:17.38	WT901BLE68-01(48591DE3C19B)	-0.439	-1.042	0.120	-55.420	-85.693	48.401	-83.00	31.46	-61.36	-42.826	-57.722	7.840	-0.70749	0.49380	-0.45212	0.22601	30.4	13111	100
2025-3-27 20:29:17.68	WT901BLE68-01(48591DE3C19B)	-0.439	-1.813	0.044	-54.260	-106.201	26.306	-82.89	31.68	-60.70	-42.826	-57.722	7.840	-0.70749	0.49380	-0.45212	0.22601	30.4	13111	100
2025-3-27 20:29:17.68	WT901BLE68-01(48591DE3C19B)	-0.466	-1.813	0.044	-54.260	-106.201	26.306	-82.74	31.78	-59.82	-42.826	-57.722	7.840	-0.70749	0.49380	-0.45212	0.22601	30.4	13111	100
2025-3-27 20:29:17.68	WT901BLE68-01(48591DE3C19B)	-0.466	-2.574	0.044	-21.240	-111.877	-18.738	-82.45	31.64	-58.85	-45.472	-59.976	5.586	-0.70749	0.49380	-0.45212	0.22601	30.4	13111	100
2025-3-27 20:29:17.68	WT901BLE68-01(48591DE3C19B)	-0.478	-2.574	0.044	-21.240	-111.877	-18.738	-82.01	31.25	-57.84	-45.472	-59.976	5.586	-0.70749	0.49380	-0.45212	0.22601	30.4	13111	100
2025-3-27 20:29:17.126	WT901BLE68-01(48591DE3C19B)	-0.478	-2.056	0.175	27.161	-98.022	-26.489	-81.41	30.82	-56.90	-45.472	-59.976	5.586	-0.70749	0.49380	-0.45212	0.22601	30.4	13111	100
2025-3-27 20:29:17.126	WT901BLE68-01(48591DE3C19B)	-0.289	-2.056	0.175	27.161	-98.022	-26.489	-80.63	30.34	-56.07	-45.472	-59.976	5.586	-0.70749	0.49380	-0.45212	0.22601	30.4	13111	100
2025-3-27 20:29:17.126	WT901BLE68-01(48591DE3C19B)	-0.289	-1.490	0.150	20.996	-48.279	-35.828	-80.23	29.85	-55.83	-45.472	-59.976	5.586	-0.70749	0.49380	-0.45212	0.22601	30.4	13111	100
2025-3-27 20:29:17.126	WT901BLE68-01(48591DE3C19B)	-0.111	-1.490	0.150	20.996	-48.279	-35.828	-79.83	29.36	-55.61	-45.472	-59.976	5.586	-0.70749	0.49380	-0.45212	0.22601	30.4	13111	100
2025-3-27 20:29:17.154	WT901BLE68-01(48591DE3C19B)	-0.111	-1.253	0.151	27.649	26.855	-37.292	-79.79	28.97	-56.23	-45.472	-59.976	5.586	-0.70749	0.49380	-0.45212	0.22601	30.4	13111	100
2025-3-27 20:29:17.155	WT901BLE68-01(48591DE3C19B)	-0.079	-1.253	0.151	27.649	26.855	-37.292	-79.75	28.58	-56.85	-45.472	-59.976	5.586	-0.70749	0.49380	-0.45212	0.22601	30.4	13111	100
2025-3-27 20:29:17.155	WT901BLE68-01(48591DE3C19B)	-0.079	-0.906	0.154	32.532	91.919	-36.438	-80.00	28.31	-58.19	-45.472	-59.976	5.586	-0.70749	0.49380	-0.45212	0.22601	30.4	13111	100
2025-3-27 20:29:17.155	WT901BLE68-01(48591DE3C19B)	-0.201	-0.906	0.154	32.532	91.919	-36.438	-80.24	28.04	-59.52	-45.472	-59.976	5.586	-0.70749	0.49380	-0.45212	0.22601	30.4	13111	100
2025-3-27 20:29:17.186	WT901BLE68-01(48591DE3C19B)	-0.201	-0.643	0.156	22.278	109.375	-39.001	-80.67	27.76	-61.04	-45.472	-59.976	5.586	-0.70749	0.49380	-0.45212	0.22601	30.4	13111	100
2025-3-27 20:29:17.186	WT901BLE68-01(48591DE3C19B)	-0.354	-0.643	0.156	22.278	109.375	-39.001	-81.08	27.47	-62.55	-45.472	-59.976	5.586	-0.70749	0.49380	-0.45212	0.22601	30.4	13111	100
2025-3-27 20:29:17.186	WT901BLE68-01(48591DE3C19B)	-0.354	-0.618	0.171	7.507	76.111	-48.645	-81.46	27.04	-63.69	-45.472	-59.976	5.586	-0.70749	0.49380	-0.45212	0.22601	30.4	13111	100
2025-3-27 20:29:17.187	WT901BLE68-01(48591DE3C19B)	-0.437	-0.618	0.171	7.507	76.111	-48.645	-81.82	26.60	-64.82	-45.472	-59.976	5.586	-0.70749	0.49380	-0.45212	0.22601	30.4	13111	100
2025-3-27 20:29:17.275	WT901BLE68-01(48591DE3C19B)	-0.437	-0.645	0.146	7.385	36.255	-48.096	-81.97	26.13	-65.51	-45.472	-59.976	5.586	-0.70749	0.49380	-0.45212	0.22601	30.4	13111	100
2025-3-27 20:29:17.276	WT901BLE68-01(48591DE3C19B)	-0.506	-0.645	0.146	7.385	36.255	-48.096	-82.12	25.65	-66.20	-45.472	-59.976	5.586	-0.70749	0.49380	-0.45212	0.22601	30.4	13111	100
2025-3-27 20:29:17.276	WT901BLE68-01(48591DE3C19B)	-0.506	-0.528	0.139	14.832	12.939	-42.358	-82.06	25.22	-66.63	-45.472	-59.976	5.586	-0.70749	0.49380	-0.45212	0.22601	30.4	13111	100
2025-3-27 20:29:17.276	WT901BLE68-01(48591DE3C19B)	-0.458	-0.528	0.139	14.832	12.939	-42.358	-82.00	24.79	-67.07	-45.472	-59.976	5.586	-0.70749	0.49380	-0.45212	0.22601	30.4	13111	100
2025-3-27 20:29:17.277	WT901BLE68-01(48591DE3C19B)	-0.458	-0.416	0.124	18.127	1.038	-25.269	-81.83	24.53	-67.36	-45.472	-59.976	5.586	-0.70749	0.49380	-0.45212	0.22601	30.4	13111	100
2025-3-27 20:29:17.277	WT901BLE68-01(48591DE3C19B)	-0.345	-0.416	0.124	18.127	1.038	-25.269	-81.66	24.28	-67.68	-45.472	-59.976	5.586	-0.70749	0.49380	-0.45212	0.22601	30.4	13111	100
2025-3-27 20:29:17.277	WT901BLE68-01(48591DE3C19B)	-0.345	-0.335	0.108	22.766	2.197	-1.709	-81.43	24.27	-67.99	-45.472	-59.976	5.586	-0.70749	0.49380	-0.45212	0.22601	30.4	13111	100
2025-3-27 20:29:17.277	WT901BLE68-01(48591DE3C19B)	-0.260	-0.335	0.108	22.766	2.197	-1.709	-81.19	24.27	-68.33	-45.472	-59.976	5.586	-0.69101	0.43671	-0.48932	0.30374	30.4	13111	100
2025-3-27 20:29:17.365	WT901BLE68-01(48591DE3C19B)	-0.260	-0.250	0.142	26.855	18.555	16.968	-80.96	24.47	-68.85	-45.472	-59.976	5.586	-0.69101	0.43671	-0.48932	0.30374	30.4	13111	100
2025-3-27 20:29:17.365	WT901BLE68-01(48591DE3C19B)	-0.297	-0.250	0.142	26.855	18.555	16.968	-80.74	24.68	-69.40	-45.472	-59.976	5.586	-0.69101	0.43671	-0.48932	0.30374	30.4	13111	100
2025-3-27 20:29:17.365	WT901BLE68-01(48591DE3C19B)	-0.297	-0.255	0.195	24.048	35.706	32.104	-80.60	25.06	-70.15	-45.472	-59.976	5.586	-0.69101	0.43671	-0.48932	0.30374	30.4	13111	100
2025-3-27 20:29:17.365	WT901BLE68-01(48591DE3C19B)	-0.432	-0.255	0.195	24.048	35.706	32.104	-80.45	25.44	-70.94	-45.472	-59.976	5.586	-0.69101	0.43671	-0.48932	0.30374	30.4	13111	100
2025-3-27 20:29:17.367	WT901BLE68-01(48591DE3C19B)	-0.432	-0.413	0.209	12.756	42.419	37.964	-80.44	25.88	-71.82	-45.472	-59.976	5.586	-0.69101	0.43671	-0.48932	0.30374	30.4	13111	100
2025-3-27 20:29:17.367	WT901BLE68-01(48591DE3C19B)	-0.564	-0.413	0.209	12.756	42.419	37.964	-80.43	26.32	-72.73	-45.472	-59.976	5.586	-0.69101	0.43671	-0.48932	0.30374	30.4	13111	100
2025-3-27 20:29:17.367	WT901BLE68-01(48591DE3C19B)	-0.564	-0.711	0.211	2.075	34.668	34.485	-80.49	26.72	-73.59	-45.472	-59.976	5.586	-0.69101	0.43671	-0.48932	0.30374	30.4	13111	100
2025-3-27 20:29:17.367	WT901BLE68-01(48591DE3C19B)	-0.646	-0.711	0.211	2.075	34.668	34.485	-80.55	27.11	-74.45	-45.472	-59.976	5.586	-0.69101	0.43671	-0.48932	0.30374	30.4	13111	100
2025-3-27 20:29:17.465	WT901BLE68-01(48591DE3C19B)	-0.646	-1.098	0.204	-4.150	24.414	21.362	-80.64	27.35	-75.22	-45.472	-59.976	5.586	-0.69101	0.43671	-0.48932	0.30374	30.4	13111	100
2025-3-27 20:29:17.465	WT901BLE68-01(48591DE3C19B)	-0.712	-1.098	0.204	-4.150	24.414	21.362	-80.74	27.60	-75.98	-45.472	-59.976	5.586	-0.69101	0.43671	-0.48932	0.30374	30.4	13111	100
2025-3-27 20:29:17.465	WT901BLE68-01(48591DE3C19B)	-0.712	-1.538	0.244	-1.160	13.916	-21.729	-80.80	27.41	-76.67	-45.472	-59.976	5.586	-0.69101	0.43671	-0.48932	0.30374	30.4	13111	100
2025-3-27 20:29:17.465	WT901BLE68-01(48591DE3C19B)	-0.891	-1.538	0.244	-1.160	13.916	-21.729	-80.87	27.21	-77.32	-45.472	-59.976	5.586	-0.69101	0.43671	-0.48932	0.30374	30.4	13111	100
2025-3-27 20:29:17.465	WT901BLE68-01(48591DE3C19B)	-0.891	-1.939	0.308	-1.465	2.686	-67.322	-80.93	26.55	-77.88	-45.472	-59.976	5.586	-0.69101	0.43671	-0.48932	0.30374	30.4	13111	100
2025-3-27 20:29:17.465	WT901BLE68-01(48591DE3C19B)	-1.282	-1.939	0.308	-1.465	2.686	-67.322	-80.99	25.89	-78.40	-45.472	-59.976	5.586	-0.69101	0.43671	-0.48932	0.30374	30.4	13111	100
2025-3-27 20:29:17.465	WT901BLE68-01(48591DE3C19B)	-1.282	-1.785	0.377	18.860	20.935	-80.017	-80.93	25.15	-79.18	-45.472	-59.976	5.586	-0.69101	0.43671	-0.48932	0.30374	30.4	13111	100
2025-3-27 20:29:17.465	WT901BLE68-01(48591DE3C19B)	-1.137	-1.785	0.377	18.860	20.935	-80.017	-80.85	24.41	-80.00	-45.472	-59.976	5.586	-0.69101	0.43671	-0.48932	0.30374	30.4	13111	100
2025-3-27 20:29:17.488	WT901BLE68-01(48591DE3C19B)	-1.137	-1.042	0.486	25.330	22.827	-70.190	-80.70	23.77	-80.88	-45.472	-59.976	5.586	-0.69101	0.43671	-0.48932	0.30374	30.4	13111	100
2025-3-27 20:29:17.488	WT901BLE68-01(48591DE3C19B)	-0.772	-1.042	0.486	25.330	22.827	-70.190	-80.53	23.13	-81.81	-45.472	-59.976	5.586	-0.69101	0.43671	-0.48932	0.30374	30.4	13111	100
2025-3-27 20:29:17.488	WT901BLE68-01(48591DE3C19B)	-0.772	-0.796	0.441	-2.502	18.921	-56.702	-80.59	22.60	-82.68	-45.472	-59.976	5.586	-0.69101	0.43671	-0.48932	0.30374	30.4	13111	100
2025-3-27 20:29:17.488	WT901BLE68-01(48591DE3C19B)	-0.517	-0.796	0.441	-2.502	18.921	-56.702	-80.65	22.08	-83.55	-38.220	-65.464	6.370	-0.69101	0.43671	-0.48932	0.30374	30.4	13111	100
2025-3-27 20:29:17.545	WT901BLE68-01(48591DE3C19B)	-0.517	-0.862	0.285	-10.315	-3.174	-40.466	-80.67	21.69	-84.14	-38.220	-65.464	6.370	-0.69101	0.43671	-0.48932	0.30374	30.4	13111	100
2025-3-27 20:29:17.546	WT901BLE68-01(48591DE3C19B)	-0.516	-0.862	0.285	-10.315	-3.174	-40.466	-80.69	21.29	-84.74	-38.220	-65.464	6.370	-0.69101	0.43671	-0.48932	0.30374	30.4	13111	100
2025-3-27 20:29:17.546	WT901BLE68-01(48591DE3C19B)	-0.516	-0.806	0.217	-7.324	-44.800	-23.499	-80.52	20.99	-84.85	-38.220	-65.464	6.370	-0.69101	0.43671	-0.48932	0.30374	30.4	13111	100
2025-3-27 20:29:17.546	WT901BLE68-01(48591DE3C19B)	-0.422	-0.806	0.217	-7.324	-44.800	-23.499	-80.35	20.70	-84.97	-38.220	-65.464	6.370	-0.69101	0.43671	-0.48932	0.30374	30.4	13111	100
2025-3-27 20:29:17.606	WT901BLE68-01(48591DE3C19B)	-0.422	-0.778	0.157	-18.066	-84.045	-12.390	-80.14	20.45	-84.66	-38.220	-65.464	6.370	-0.69101	0.43671	-0.48932	0.30374	30.4	13111	100
2025-3-27 20:29:17.606	WT901BLE68-01(48591DE3C19B)	-0.293	-0.778	0.157	-18.066	-84.045	-12.390	-79.94	20.20	-84.33	-38.220	-65.464	6.370	-0.69101	0.43671	-0.48932	0.30374	30.4	13111	100
2025-3-27 20:29:17.606	WT901BLE68-01(48591DE3C19B)	-0.294	-0.809	0.204	-10.437	-69.946	-2.930	-79.72	20.07	-84.12	-38.220	-65.464	6.370	-0.69101	0.43671	-0.48932	0.30374	30.4	13111	100
2025-3-27 20:29:17.606	WT901BLE68-01(48591DE3C19B)	-0.294	-0.647	0.251	2.502	-7.263	1.282	-79.54	20.02	-84.22	-38.220	-65.464	6.370	-0.69101	0.43671	-0.48932	0.30374	30.4	13111	100
2025-3-27 20:29:17.607	WT901BLE68-01(48591DE3C19B)	-0.392	-0.647	0.251	2.502	-7.263	1.282	-79.42	20.04	-84.63	-38.220	-65.464	6.370	-0.69101	0.43671	-0.48932	0.30374	30.4	13111	100
2025-3-27 20:29:17.607	WT901BLE68-01(48591DE3C19B)	-0.392	-0.355	0.253	6.409	43.640	13.062	-79.37	20.17	-85.28	-38.220	-65.464	6.370	-0.69101	0.43671	-0.48932	0.30374	30.4	13111	100
2025-3-27 20:29:17.608	WT901BLE68-01(48591DE3C19B)	-0.296	-0.355	0.253	6.409	43.640	13.062	-79.37	20.39	-86.20	-38.220	-65.464	6.370	-0.69101	0.43671	-0.48932	0.30374	30.4	13111	100
2025-3-27 20:29:17.608	WT901BLE68-01(48591DE3C19B)	-0.296	-0.128	0.230	-1.587	38.879	28.442	-79.40	20.68	-87.08	-38.220	-65.464	6.370	-0.69101	0.43671	-0.48932	0.30374	30.4	13111	100
2025-3-27 20:29:17.637	WT901BLE68-01(48591DE3C19B)	-0.215	-0.128	0.230	-1.587	38.879	28.442	-79.45	21.04	-87.93	-38.220	-65.464	6.370	-0.69101	0.43671	-0.48932	0.30374	30.4	13111	100
2025-3-27 20:29:17.637	WT901BLE68-01(48591DE3C19B)	-0.215	-0.065	0.216	-13.733	14.038	36.438	-79.51	21.42	-88.65	-38.220	-65.464	6.370	-0.69101	0.43671	-0.48932	0.30374	30.4	13111	100
2025-3-27 20:29:17.637	WT901BLE68-01(48591DE3C19B)	-0.311	-0.065	0.216	-13.733	14.038	36.438	-79.56	21.80	-89.23	-38.220	-65.464	6.370	-0.69101	0.43671	-0.48932	0.30374	30.4	13111	100
2025-3-27 20:29:17.638	WT901BLE68-01(48591DE3C19B)	-0.311	-0.172	0.185	-28.809	-21.057	42.175	-79.62	22.18	-89.62	-38.220	-65.464	6.370	-0.69101	0.43671	-0.48932	0.30374	30.4	13111	100
2025-3-27 20:29:17.696	WT901BLE68-01(48591DE3C19B)	-0.371	-0.172	0.185	-28.809	-21.057	42.175	-79.67	22.54	-89.81	-38.220	-65.464	6.370	-0.69101	0.43671	-0.48932	0.30374	30.4	13111	100
2025-3-27 20:29:17.696	WT901BLE68-01(48591DE3C19B)	-0.371	-0.445	0.099	-47.852	-63.660	40.955	-79.72	22.87	-89.78	-38.220	-65.464	6.370	-0.69101	0.43671	-0.48932	0.30374	30.4	13111	100
2025-3-27 20:29:17.696	WT901BLE68-01(48591DE3C19B)	-0.327	-0.445	0.099	-47.852	-63.660	40.955	-79.78	23.15	-89.53	-38.220	-65.464	6.370	-0.69101	0.43671	-0.48932	0.30374	30.4	13111	100
2025-3-27 20:29:17.696	WT901BLE68-01(48591DE3C19B)	-0.327	-0.809	0.011	-55.237	-92.468	34.546	-79.82	23.39	-89.13	-38.220	-65.464	6.370	-0.69101	0.43671	-0.48932	0.30374	30.4	13111	100
2025-3-27 20:29:17.726	WT901BLE68-01(48591DE3C19B)	-0.295	-0.809	0.011	-55.237	-92.468	34.546	-79.86	23.58	-88.57	-38.220	-65.464	6.370	-0.63019	0.34140	-0.55045	0.42804	30.4	13111	100
2025-3-27 20:29:17.726	WT901BLE68-01(48591DE3C19B)	-0.295	-1.344	-0.029	-55.359	-101.685	23.743	-79.90	23.70	-87.94	-38.220	-65.464	6.370	-0.63019	0.34140	-0.55045	0.42804	30.4	13111	100
2025-3-27 20:29:17.726	WT901BLE68-01(48591DE3C19B)	-0.286	-1.344	-0.029	-55.359	-101.685	23.743	-79.96	23.78	-87.21	-38.220	-65.464	6.370	-0.63019	0.34140	-0.55045	0.42804	30.4	13111	100
2025-3-27 20:29:17.726	WT901BLE68-01(48591DE3C19B)	-0.286	-2.040	-0.042	-33.325	-95.520	1.831	-79.95	23.75	-86.45	-38.220	-65.464	6.370	-0.63019	0.34140	-0.55045	0.42804	30.4	13111	100
2025-3-27 20:29:17.755	WT901BLE68-01(48591DE3C19B)	-0.354	-2.040	-0.042	-33.325	-95.520	1.831	-79.89	23.60	-85.64	-38.220	-65.464	6.370	-0.63019	0.34140	-0.55045	0.42804	30.4	13111	100
2025-3-27 20:29:17.755	WT901BLE68-01(48591DE3C19B)	-0.354	-2.226	0.045	2.319	-72.571	-3.052	-79.71	23.43	-84.92	-38.220	-65.464	6.370	-0.63019	0.34140	-0.55045	0.42804	30.4	13111	100
2025-3-27 20:29:17.755	WT901BLE68-01(48591DE3C19B)	-0.409	-2.226	0.045	2.319	-72.571	-3.052	-79.43	23.24	-84.31	-38.220	-65.464	6.370	-0.63019	0.34140	-0.55045	0.42804	30.4	13111	100
2025-3-27 20:29:17.755	WT901BLE68-01(48591DE3C19B)	-0.409	-1.633	0.166	22.888	-27.710	-16.602	-79.15	23.02	-83.94	-38.220	-65.464	6.370	-0.63019	0.34140	-0.55045	0.42804	30.4	13111	100
2025-3-27 20:29:17.816	WT901BLE68-01(48591DE3C19B)	-0.294	-1.633	0.166	22.888	-27.710	-16.602	-78.86	22.77	-83.84	-38.220	-65.464	6.370	-0.63019	0.34140	-0.55045	0.42804	30.4	13111	100
2025-3-27 20:29:17.816	WT901BLE68-01(48591DE3C19B)	-0.294	-1.313	0.220	20.874	12.085	-17.151	-78.67	22.56	-83.95	-38.220	-65.464	6.370	-0.63019	0.34140	-0.55045	0.42804	30.4	13111	100
2025-3-27 20:29:17.816	WT901BLE68-01(48591DE3C19B)	-0.215	-1.313	0.220	20.874	12.085	-17.151	-78.57	22.38	-84.27	-38.220	-65.464	6.370	-0.63019	0.34140	-0.55045	0.42804	30.4	13111	100
2025-3-27 20:29:17.816	WT901BLE68-01(48591DE3C19B)	-0.215	-1.092	0.275	16.174	40.833	-15.625	-78.55	22.25	-84.75	-38.220	-65.464	6.370	-0.63019	0.34140	-0.55045	0.42804	30.4	13111	100
2025-3-27 20:29:17.848	WT901BLE68-01(48591DE3C19B)	-0.226	-1.092	0.275	16.174	40.833	-15.625	-78.61	22.14	-85.39	-38.220	-65.464	6.370	-0.63019	0.34140	-0.55045	0.42804	30.4	13111	100
2025-3-27 20:29:17.848	WT901BLE68-01(48591DE3C19B)	-0.226	-0.873	0.244	10.193	48.096	-17.090	-78.70	22.03	-86.07	-38.220	-65.464	6.370	-0.63019	0.34140	-0.55045	0.42804	30.4	13111	100
2025-3-27 20:29:17.848	WT901BLE68-01(48591DE3C19B)	-0.306	-0.873	0.244	10.193	48.096	-17.090	-78.83	21.91	-86.79	-38.220	-65.464	6.370	-0.63019	0.34140	-0.55045	0.42804	30.4	13111	100
2025-3-27 20:29:17.848	WT901BLE68-01(48591DE3C19B)	-0.306	-0.634	0.215	4.578	20.325	-24.963	-78.94	21.74	-87.37	-38.220	-65.464	6.370	-0.63019	0.34140	-0.55045	0.42804	30.4	13111	100
2025-3-27 20:29:17.878	WT901BLE68-01(48591DE3C19B)	-0.294	-0.634	0.215	4.578	20.325	-24.963	-79.01	21.49	-87.82	-38.220	-65.464	6.370	-0.63019	0.34140	-0.55045	0.42804	30.4	13111	100
2025-3-27 20:29:17.878	WT901BLE68-01(48591DE3C19B)	-0.294	-0.355	0.220	0.732	-16.785	-22.156	-79.02	21.24	-88.09	-38.220	-65.464	6.370	-0.63019	0.34140	-0.55045	0.42804	30.4	13111	100
2025-3-27 20:29:17.878	WT901BLE68-01(48591DE3C19B)	-0.183	-0.355	0.220	0.732	-16.785	-22.156	-78.98	20.97	-88.17	-47.628	-66.444	-5.488	-0.63019	0.34140	-0.55045	0.42804	30.4	13111	100
2025-3-27 20:29:17.878	WT901BLE68-01(48591DE3C19B)	-0.183	-0.089	0.204	-4.822	-27.405	-7.385	-78.94	20.76	-88.19	-47.628	-66.444	-5.488	-0.63019	0.34140	-0.55045	0.42804	30.4	13111	100
2025-3-27 20:29:17.965	WT901BLE68-01(48591DE3C19B)	-0.119	-0.089	0.204	-4.822	-27.405	-7.385	-78.88	20.62	-88.16	-47.628	-66.444	-5.488	-0.63019	0.34140	-0.55045	0.42804	30.4	13111	100
2025-3-27 20:29:17.965	WT901BLE68-01(48591DE3C19B)	-0.119	-0.025	0.154	-9.583	-18.982	13.306	-78.85	20.59	-88.17	-47.628	-66.444	-5.488	-0.63019	0.34140	-0.55045	0.42804	30.4	13111	100
2025-3-27 20:29:17.965	WT901BLE68-01(48591DE3C19B)	-0.150	-0.025	0.154	-9.583	-18.982	13.306	-78.85	20.68	-88.21	-47.628	-66.444	-5.488	-0.63019	0.34140	-0.55045	0.42804	30.4	13111	100
2025-3-27 20:29:17.965	WT901BLE68-01(48591DE3C19B)	-0.150	-0.165	0.119	-11.169	-7.629	25.330	-78.86	20.83	-88.31	-47.628	-66.444	-5.488	-0.63019	0.34140	-0.55045	0.42804	30.4	13111	100
2025-3-27 20:29:17.967	WT901BLE68-01(48591DE3C19B)	-0.203	-0.165	0.119	-11.169	-7.629	25.330	-78.89	21.06	-88.47	-47.628	-66.444	-5.488	-0.63019	0.34140	-0.55045	0.42804	30.4	13111	100
2025-3-27 20:29:17.967	WT901BLE68-01(48591DE3C19B)	-0.203	-0.360	0.090	-9.521	-2.319	27.893	-78.93	21.30	-88.66	-47.628	-66.444	-5.488	-0.63019	0.34140	-0.55045	0.42804	30.4	13111	100
2025-3-27 20:29:17.967	WT901BLE68-01(48591DE3C19B)	-0.299	-0.360	0.090	-9.521	-2.319	27.893	-78.95	21.56	-88.87	-47.628	-66.444	-5.488	-0.63019	0.34140	-0.55045	0.42804	30.4	13111	100
2025-3-27 20:29:17.967	WT901BLE68-01(48591DE3C19B)	-0.299	-0.583	0.084	-9.399	-3.967	30.029	-78.98	21.82	-89.08	-47.628	-66.444	-5.488	-0.63019	0.34140	-0.55045	0.42804	30.4	13111	100
2025-3-27 20:29:17.998	WT901BLE68-01(48591DE3C19B)	-0.444	-0.583	0.084	-9.399	-3.967	30.029	-79.01	22.11	-89.27	-47.628	-66.444	-5.488	-0.63019	0.34140	-0.55045	0.42804	30.4	13111	100
2025-3-27 20:29:17.998	WT901BLE68-01(48591DE3C19B)	-0.444	-0.920	0.105	-12.817	-5.493	21.729	-79.05	22.36	-89.46	-47.628	-66.444	-5.488	-0.63019	0.34140	-0.55045	0.42804	30.4	13111	100
2025-3-27 20:29:17.998	WT901BLE68-01(48591DE3C19B)	-0.552	-0.920	0.105	-12.817	-5.493	21.729	-79.12	22.56	-89.63	-47.628	-66.444	-5.488	-0.63019	0.34140	-0.55045	0.42804	30.4	13111	100
2025-3-27 20:29:17.998	WT901BLE68-01(48591DE3C19B)	-0.552	-1.338	0.167	-10.498	-8.118	4.333	-79.19	22.68	-89.81	-47.628	-66.444	-5.488	-0.63019	0.34140	-0.55045	0.42804	30.4	13111	100
2025-3-27 20:29:18.57	WT901BLE68-01(48591DE3C19B)	-0.592	-1.338	0.167	-10.498	-8.118	4.333	-79.25	22.71	-89.98	-47.628	-66.444	-5.488	-0.63019	0.34140	-0.55045	0.42804	30.4	13111	100
2025-3-27 20:29:18.57	WT901BLE68-01(48591DE3C19B)	-0.592	-1.766	0.233	-5.920	-5.066	-28.076	-79.31	22.43	-90.23	-47.628	-66.444	-5.488	-0.63019	0.34140	-0.55045	0.42804	30.4	13111	100
2025-3-27 20:29:18.57	WT901BLE68-01(48591DE3C19B)	-0.684	-1.766	0.233	-5.920	-5.066	-28.076	-79.38	22.14	-90.47	-47.628	-66.444	-5.488	-0.63019	0.34140	-0.55045	0.42804	30.4	13111	100
2025-3-27 20:29:18.57	WT901BLE68-01(48591DE3C19B)	-0.684	-2.255	0.308	-4.089	8.057	-54.382	-79.50	21.62	-90.88	-47.628	-66.444	-5.488	-0.63019	0.34140	-0.55045	0.42804	30.4	13111	100
2025-3-27 20:29:18.88	WT901BLE68-01(48591DE3C19B)	-0.911	-2.255	0.308	-4.089	8.057	-54.382	-79.61	21.10	-91.29	-47.628	-66.444	-5.488	-0.63019	0.34140	-0.55045	0.42804	30.4	13111	100
2025-3-27 20:29:18.88	WT901BLE68-01(48591DE3C19B)	-0.911	-1.963	0.458	8.362	31.494	-67.200	-79.70	20.49	-91.96	-47.628	-66.444	-5.488	-0.63019	0.34140	-0.55045	0.42804	30.4	13111	100
2025-3-27 20:29:18.88	WT901BLE68-01(48591DE3C19B)	-0.846	-1.963	0.458	8.362	31.494	-67.200	-79.77	19.90	-92.64	-47.628	-66.444	-5.488	-0.63019	0.34140	-0.55045	0.42804	30.4	13111	100
2025-3-27 20:29:18.88	WT901BLE68-01(48591DE3C19B)	-0.846	-1.366	0.583	-0.610	38.086	-59.021	-79.94	19.40	-93.38	-47.628	-66.444	-5.488	-0.59689	0.34033	-0.54929	0.47546	30.4	13111	100
2025-3-27 20:29:18.117	WT901BLE68-01(48591DE3C19B)	-0.695	-1.366	0.583	-0.610	38.086	-59.021	-80.08	18.90	-94.14	-47.628	-66.444	-5.488	-0.59689	0.34033	-0.54929	0.47546	30.4	13111	100
2025-3-27 20:29:18.117	WT901BLE68-01(48591DE3C19B)	-0.695	-1.053	0.588	-17.578	28.687	-46.692	-80.35	18.51	-94.78	-47.628	-66.444	-5.488	-0.59689	0.34033	-0.54929	0.47546	30.4	13111	100
2025-3-27 20:29:18.117	WT901BLE68-01(48591DE3C19B)	-0.559	-1.053	0.588	-17.578	28.687	-46.692	-80.60	18.11	-95.43	-47.628	-66.444	-5.488	-0.59689	0.34033	-0.54929	0.47546	30.4	13111	100
2025-3-27 20:29:18.117	WT901BLE68-01(48591DE3C19B)	-0.559	-0.859	0.450	-34.241	-13.550	-30.090	-80.85	17.81	-95.62	-47.628	-66.444	-5.488	-0.59689	0.34033	-0.54929	0.47546	30.4	13111	100
2025-3-27 20:29:18.175	WT901BLE68-01(48591DE3C19B)	-0.421	-0.859	0.450	-34.241	-13.550	-30.090	-81.11	17.52	-95.81	-47.628	-66.444	-5.488	-0.59689	0.34033	-0.54929	0.47546	30.4	13111	100
2025-3-27 20:29:18.175	WT901BLE68-01(48591DE3C19B)	-0.421	-0.770	0.315	-53.528	-84.534	-19.958	-81.32	17.22	-95.26	-47.628	-66.444	-5.488	-0.59689	0.34033	-0.54929	0.47546	30.4	13111	100
2025-3-27 20:29:18.175	WT901BLE68-01(48591DE3C19B)	-0.220	-0.770	0.315	-53.528	-84.534	-19.958	-81.54	16.92	-94.71	-47.628	-66.444	-5.488	-0.59689	0.34033	-0.54929	0.47546	30.4	13111	100
2025-3-27 20:29:18.175	WT901BLE68-01(48591DE3C19B)	-0.220	-0.738	0.204	-57.068	-125.244	-7.751	-81.66	16.68	-93.71	-47.628	-66.444	-5.488	-0.59689	0.34033	-0.54929	0.47546	30.4	13111	100
2025-3-27 20:29:18.206	WT901BLE68-01(48591DE3C19B)	-0.128	-0.738	0.204	-57.068	-125.244	-7.751	-81.79	16.45	-92.71	-47.628	-66.444	-5.488	-0.59689	0.34033	-0.54929	0.47546	30.4	13111	100
2025-3-27 20:29:18.206	WT901BLE68-01(48591DE3C19B)	-0.128	-0.667	0.165	-36.743	-103.210	2.136	-81.79	16.34	-91.92	-47.628	-66.444	-5.488	-0.59689	0.34033	-0.54929	0.47546	30.4	13111	100
2025-3-27 20:29:18.206	WT901BLE68-01(48591DE3C19B)	-0.153	-0.667	0.165	-36.743	-103.210	2.136	-81.79	16.23	-91.13	-47.628	-66.444	-5.488	-0.59689	0.34033	-0.54929	0.47546	30.4	13111	100
2025-3-27 20:29:18.206	WT901BLE68-01(48591DE3C19B)	-0.153	-0.558	0.130	-20.752	-46.753	0.244	-81.80	16.18	-90.91	-47.628	-66.444	-5.488	-0.59689	0.34033	-0.54929	0.47546	30.4	13111	100
2025-3-27 20:29:18.267	WT901BLE68-01(48591DE3C19B)	-0.244	-0.558	0.130	-20.752	-46.753	0.244	-81.82	16.13	-90.69	-47.628	-66.444	-5.488	-0.59689	0.34033	-0.54929	0.47546	30.4	13111	100
2025-3-27 20:29:18.268	WT901BLE68-01(48591DE3C19B)	-0.244	-0.519	0.096	-11.841	10.620	-3.235	-81.91	16.13	-91.07	-47.628	-66.444	-5.488	-0.59689	0.34033	-0.54929	0.47546	30.4	13111	100
2025-3-27 20:29:18.268	WT901BLE68-01(48591DE3C19B)	-0.288	-0.519	0.096	-11.841	10.620	-3.235	-82.00	16.13	-91.43	-47.628	-66.444	-5.488	-0.59689	0.34033	-0.54929	0.47546	30.4	13111	100
2025-3-27 20:29:18.268	WT901BLE68-01(48591DE3C19B)	-0.288	-0.460	0.138	0.793	45.776	-5.249	-82.06	16.16	-92.16	-47.628	-66.444	-5.488	-0.59689	0.34033	-0.54929	0.47546	30.4	13111	100
2025-3-27 20:29:18.297	WT901BLE68-01(48591DE3C19B)	-0.275	-0.460	0.138	0.793	45.776	-5.249	-82.13	16.19	-92.89	-47.628	-66.444	-5.488	-0.59689	0.34033	-0.54929	0.47546	30.4	13111	100
2025-3-27 20:29:18.298	WT901BLE68-01(48591DE3C19B)	-0.275	-0.300	0.167	8.789	53.467	-3.662	-82.13	16.25	-93.70	-47.628	-66.444	-5.488	-0.59689	0.34033	-0.54929	0.47546	30.4	13111	100
2025-3-27 20:29:18.298	WT901BLE68-01(48591DE3C19B)	-0.201	-0.300	0.167	8.789	53.467	-3.662	-82.13	16.32	-94.52	-47.628	-66.444	-5.488	-0.59689	0.34033	-0.54929	0.47546	30.4	13111	100
2025-3-27 20:29:18.298	WT901BLE68-01(48591DE3C19B)	-0.201	-0.151	0.171	7.568	44.556	3.906	-82.11	16.45	-95.23	-47.628	-66.444	-5.488	-0.59689	0.34033	-0.54929	0.47546	30.4	13111	100
2025-3-27 20:29:18.327	WT901BLE68-01(48591DE3C19B)	-0.156	-0.151	0.171	7.568	44.556	3.906	-82.08	16.58	-95.95	-56.154	-60.270	-15.386	-0.59689	0.34033	-0.54929	0.47546	30.4	13111	100
2025-3-27 20:29:18.327	WT901BLE68-01(48591DE3C19B)	-0.156	-0.124	0.113	-1.770	30.334	12.146	-82.09	16.77	-96.51	-56.154	-60.270	-15.386	-0.59689	0.34033	-0.54929	0.47546	30.4	13111	100
2025-3-27 20:29:18.327	WT901BLE68-01(48591DE3C19B)	-0.165	-0.124	0.113	-1.770	30.334	12.146	-82.10	16.96	-97.08	-56.154	-60.270	-15.386	-0.59689	0.34033	-0.54929	0.47546	30.4	13111	100
2025-3-27 20:29:18.327	WT901BLE68-01(48591DE3C19B)	-0.165	-0.302	0.065	-15.686	12.390	16.113	-82.19	17.17	-97.45	-56.154	-60.270	-15.386	-0.59689	0.34033	-0.54929	0.47546	30.4	13111	100
2025-3-27 20:29:18.357	WT901BLE68-01(48591DE3C19B)	-0.220	-0.302	0.065	-15.686	12.390	16.113	-82.29	17.38	-97.82	-56.154	-60.270	-15.386	-0.59689	0.34033	-0.54929	0.47546	30.4	13111	100
2025-3-27 20:29:18.357	WT901BLE68-01(48591DE3C19B)	-0.220	-0.673	0.029	-29.358	-5.981	14.526	-82.49	17.55	-97.99	-56.154	-60.270	-15.386	-0.59689	0.34033	-0.54929	0.47546	30.4	13111	100
2025-3-27 20:29:18.357	WT901BLE68-01(48591DE3C19B)	-0.361	-0.673	0.029	-29.358	-5.981	14.526	-82.69	17.72	-98.15	-56.154	-60.270	-15.386	-0.59689	0.34033	-0.54929	0.47546	30.4	13111	100
2025-3-27 20:29:18.357	WT901BLE68-01(48591DE3C19B)	-0.361	-1.217	0.035	-32.654	-17.090	10.193	-82.91	17.82	-98.17	-56.154	-60.270	-15.386	-0.59689	0.34033	-0.54929	0.47546	30.4	13111	100
2025-3-27 20:29:18.416	WT901BLE68-01(48591DE3C19B)	-0.472	-1.217	0.035	-32.654	-17.090	10.193	-83.14	17.92	-98.17	-56.154	-60.270	-15.386	-0.59689	0.34033	-0.54929	0.47546	30.4	13111	100
2025-3-27 20:29:18.416	WT901BLE68-01(48591DE3C19B)	-0.472	-2.055	0.074	-24.109	-24.475	-9.277	-83.29	17.82	-98.10	-56.154	-60.270	-15.386	-0.59689	0.34033	-0.54929	0.47546	30.4	13111	100
2025-3-27 20:29:18.416	WT901BLE68-01(48591DE3C19B)	-1.199	-2.055	0.074	-24.109	-24.475	-9.277	-83.45	17.70	-98.01	-56.154	-60.270	-15.386	-0.59689	0.34033	-0.54929	0.47546	30.4	13111	100
2025-3-27 20:29:18.416	WT901BLE68-01(48591DE3C19B)	-2.398	-5.542	0.152	-1.404	-37.903	-16.907	-83.35	17.50	-97.77	-56.154	-60.270	-15.386	-0.59689	0.34033	-0.54929	0.47546	30.4	13111	100
2025-3-27 20:29:18.445	WT901BLE68-01(48591DE3C19B)	-0.543	-11.085	0.304	-1.404	-37.903	-16.907	-83.28	17.27	-97.51	-56.154	-60.270	-15.386	-0.59689	0.34033	-0.54929	0.47546	30.4	13111	100
2025-3-27 20:29:18.445	WT901BLE68-01(48591DE3C19B)	-0.543	-2.022	0.134	44.739	-39.368	-13.428	-82.74	17.08	-97.24	-56.154	-60.270	-15.386	-0.59689	0.34033	-0.54929	0.47546	30.4	13111	100
2025-3-27 20:29:18.445	WT901BLE68-01(48591DE3C19B)	-0.274	-2.022	0.134	44.739	-39.368	-13.428	-82.21	16.88	-96.97	-56.154	-60.270	-15.386	-0.59689	0.34033	-0.54929	0.47546	30.4	13111	100
2025-3-27 20:29:18.445	WT901BLE68-01(48591DE3C19B)	-0.274	-1.452	0.137	32.166	-25.635	-5.127	-81.84	16.79	-96.82	-56.154	-60.270	-15.386	-0.59689	0.34033	-0.54929	0.47546	30.4	13111	100
2025-3-27 20:29:18.476	WT901BLE68-01(48591DE3C19B)	-0.061	-1.452	0.137	32.166	-25.635	-5.127	-81.47	16.69	-96.67	-56.154	-60.270	-15.386	-0.59689	0.34033	-0.54929	0.47546	30.4	13111	100
2025-3-27 20:29:18.476	WT901BLE68-01(48591DE3C19B)	-0.071	-1.107	0.206	27.710	4.456	7.996	-81.24	16.76	-96.82	-56.154	-60.270	-15.386	-0.59689	0.34033	-0.54929	0.47546	30.4	13111	100
2025-3-27 20:29:18.476	WT901BLE68-01(48591DE3C19B)	-0.071	-0.852	0.247	16.724	26.917	16.907	-81.08	16.89	-97.08	-56.154	-60.270	-15.386	-0.59689	0.34033	-0.54929	0.47546	30.4	13111	100
2025-3-27 20:29:18.476	WT901BLE68-01(48591DE3C19B)	-0.179	-0.852	0.247	16.724	26.917	16.907	-81.02	17.07	-97.44	-56.154	-60.270	-15.386	-0.59689	0.34033	-0.54929	0.47546	30.4	13111	100
2025-3-27 20:29:18.565	WT901BLE68-01(48591DE3C19B)	-0.179	-0.767	0.241	4.761	15.930	8.667	-81.00	17.21	-97.75	-56.154	-60.270	-15.386	-0.59689	0.34033	-0.54929	0.47546	30.4	13111	100
2025-3-27 20:29:18.565	WT901BLE68-01(48591DE3C19B)	-0.240	-0.767	0.241	4.761	15.930	8.667	-81.02	17.29	-98.01	-56.154	-60.270	-15.386	-0.56674	0.33496	-0.55966	0.50323	30.4	13111	100
2025-3-27 20:29:18.566	WT901BLE68-01(48591DE3C19B)	-0.240	-0.778	0.223	4.456	-3.662	6.531	-81.00	17.35	-98.17	-56.154	-60.270	-15.386	-0.56674	0.33496	-0.55966	0.50323	30.4	13111	100
2025-3-27 20:29:18.566	WT901BLE68-01(48591DE3C19B)	-0.239	-0.778	0.223	4.456	-3.662	6.531	-80.96	17.39	-98.24	-56.154	-60.270	-15.386	-0.56674	0.33496	-0.55966	0.50323	30.4	13111	100
2025-3-27 20:29:18.568	WT901BLE68-01(48591DE3C19B)	-0.239	-0.701	0.155	12.817	-3.540	4.700	-80.88	17.41	-98.31	-56.154	-60.270	-15.386	-0.56674	0.33496	-0.55966	0.50323	30.4	13111	100
2025-3-27 20:29:18.568	WT901BLE68-01(48591DE3C19B)	-0.204	-0.701	0.155	12.817	-3.540	4.700	-80.74	17.42	-98.38	-56.154	-60.270	-15.386	-0.56674	0.33496	-0.55966	0.50323	30.4	13111	100
2025-3-27 20:29:18.568	WT901BLE68-01(48591DE3C19B)	-0.204	-0.619	0.060	20.081	10.498	5.066	-80.60	17.46	-98.53	-56.154	-60.270	-15.386	-0.56674	0.33496	-0.55966	0.50323	30.4	13111	100
2025-3-27 20:29:18.568	WT901BLE68-01(48591DE3C19B)	-0.193	-0.619	0.060	20.081	10.498	5.066	-80.44	17.51	-98.75	-56.154	-60.270	-15.386	-0.56674	0.33496	-0.55966	0.50323	30.4	13111	100
2025-3-27 20:29:18.598	WT901BLE68-01(48591DE3C19B)	-0.193	-0.609	0.001	27.588	31.250	6.226	-80.28	17.58	-99.07	-56.154	-60.270	-15.386	-0.56674	0.33496	-0.55966	0.50323	30.4	13111	100
2025-3-27 20:29:18.598	WT901BLE68-01(48591DE3C19B)	-0.206	-0.609	0.001	27.588	31.250	6.226	-80.12	17.67	-99.49	-56.154	-60.270	-15.386	-0.56674	0.33496	-0.55966	0.50323	30.4	13111	100
2025-3-27 20:29:18.598	WT901BLE68-01(48591DE3C19B)	-0.206	-0.562	0.026	37.415	44.678	7.141	-79.93	17.79	-99.98	-56.154	-60.270	-15.386	-0.56674	0.33496	-0.55966	0.50323	30.4	13111	100
2025-3-27 20:29:18.598	WT901BLE68-01(48591DE3C19B)	-0.228	-0.562	0.026	37.415	44.678	7.141	-79.72	17.92	-100.53	-56.154	-60.270	-15.386	-0.56674	0.33496	-0.55966	0.50323	30.4	13111	100
2025-3-27 20:29:18.665	WT901BLE68-01(48591DE3C19B)	-0.228	-0.465	0.094	40.466	41.748	11.658	-79.49	18.08	-101.06	-56.154	-60.270	-15.386	-0.56674	0.33496	-0.55966	0.50323	30.4	13111	100
2025-3-27 20:29:18.665	WT901BLE68-01(48591DE3C19B)	-0.225	-0.465	0.094	40.466	41.748	11.658	-79.23	18.26	-101.57	-56.154	-60.270	-15.386	-0.56674	0.33496	-0.55966	0.50323	30.4	13111	100
2025-3-27 20:29:18.665	WT901BLE68-01(48591DE3C19B)	-0.225	-0.432	0.145	34.180	35.339	19.104	-79.00	18.47	-102.05	-56.154	-60.270	-15.386	-0.56674	0.33496	-0.55966	0.50323	30.4	13111	100
2025-3-27 20:29:18.665	WT901BLE68-01(48591DE3C19B)	-0.243	-0.432	0.145	34.180	35.339	19.104	-78.79	18.72	-102.48	-56.154	-60.270	-15.386	-0.56674	0.33496	-0.55966	0.50323	30.4	13111	100
2025-3-27 20:29:18.716	WT901BLE68-01(48591DE3C19B)	-0.243	-0.559	0.154	24.658	28.015	22.034	-78.60	18.98	-102.87	-56.154	-60.270	-15.386	-0.56674	0.33496	-0.55966	0.50323	30.4	13111	100
2025-3-27 20:29:18.716	WT901BLE68-01(48591DE3C19B)	-0.318	-0.559	0.154	24.658	28.015	22.034	-78.45	19.24	-103.23	-56.154	-60.270	-15.386	-0.56674	0.33496	-0.55966	0.50323	30.4	13111	100
2025-3-27 20:29:18.716	WT901BLE68-01(48591DE3C19B)	-0.318	-0.790	0.155	16.235	19.836	20.996	-78.33	19.50	-103.55	-56.154	-60.270	-15.386	-0.56674	0.33496	-0.55966	0.50323	30.4	13111	100
2025-3-27 20:29:18.716	WT901BLE68-01(48591DE3C19B)	-0.344	-0.790	0.155	16.235	19.836	20.996	-78.24	19.74	-103.82	-56.154	-60.270	-15.386	-0.56674	0.33496	-0.55966	0.50323	30.4	13111	100
2025-3-27 20:29:18.745	WT901BLE68-01(48591DE3C19B)	-0.344	-1.057	0.125	7.263	10.864	14.282	-78.17	19.94	-104.06	-56.154	-60.270	-15.386	-0.56674	0.33496	-0.55966	0.50323	30.4	13111	100
2025-3-27 20:29:18.745	WT901BLE68-01(48591DE3C19B)	-0.366	-1.057	0.125	7.263	10.864	14.282	-78.15	20.09	-104.24	-56.154	-60.270	-15.386	-0.56674	0.33496	-0.55966	0.50323	30.4	13111	100
2025-3-27 20:29:18.745	WT901BLE68-01(48591DE3C19B)	-0.366	-1.476	0.150	1.892	10.010	-3.845	-78.16	20.16	-104.45	-64.288	-60.074	-17.738	-0.56674	0.33496	-0.55966	0.50323	30.4	13111	100
2025-3-27 20:29:18.745	WT901BLE68-01(48591DE3C19B)	-0.506	-1.476	0.150	1.892	10.010	-3.845	-78.20	20.13	-104.66	-64.288	-60.074	-17.738	-0.56674	0.33496	-0.55966	0.50323	30.4	13111	100
2025-3-27 20:29:18.776	WT901BLE68-01(48591DE3C19B)	-0.506	-1.924	0.269	2.014	15.137	-30.823	-78.26	19.97	-104.92	-64.288	-60.074	-17.738	-0.56674	0.33496	-0.55966	0.50323	30.4	13111	100
2025-3-27 20:29:18.776	WT901BLE68-01(48591DE3C19B)	-0.741	-1.924	0.269	2.014	15.137	-30.823	-78.34	19.69	-105.23	-64.288	-60.074	-17.738	-0.56674	0.33496	-0.55966	0.50323	30.4	13111	100
2025-3-27 20:29:18.776	WT901BLE68-01(48591DE3C19B)	-0.741	-2.076	0.370	12.024	0.854	-42.114	-78.35	19.33	-105.48	-64.288	-60.074	-17.738	-0.56674	0.33496	-0.55966	0.50323	30.4	13111	100
2025-3-27 20:29:18.776	WT901BLE68-01(48591DE3C19B)	-0.658	-2.076	0.370	12.024	0.854	-42.114	-78.28	18.91	-105.67	-64.288	-60.074	-17.738	-0.56674	0.33496	-0.55966	0.50323	30.4	13111	100
2025-3-27 20:29:18.805	WT901BLE68-01(48591DE3C19B)	-0.658	-1.511	0.457	15.747	-10.681	-50.903	-78.18	18.44	-105.81	-64.288	-60.074	-17.738	-0.56674	0.33496	-0.55966	0.50323	30.4	13111	100
2025-3-27 20:29:18.805	WT901BLE68-01(48591DE3C19B)	-0.497	-1.511	0.457	15.747	-10.681	-50.903	-78.04	17.92	-105.91	-64.288	-60.074	-17.738	-0.56674	0.33496	-0.55966	0.50323	30.4	13111	100
2025-3-27 20:29:18.805	WT901BLE68-01(48591DE3C19B)	-0.497	-1.161	0.458	4.395	-2.747	-45.105	-77.95	17.45	-106.05	-64.288	-60.074	-17.738	-0.56674	0.33496	-0.55966	0.50323	30.4	13111	100
2025-3-27 20:29:18.805	WT901BLE68-01(48591DE3C19B)	-0.435	-1.161	0.458	4.395	-2.747	-45.105	-77.93	17.01	-106.23	-64.288	-60.074	-17.738	-0.56674	0.33496	-0.55966	0.50323	30.4	13111	100
2025-3-27 20:29:18.867	WT901BLE68-01(48591DE3C19B)	-0.435	-1.056	0.397	-6.592	4.028	-37.109	-77.96	16.62	-106.44	-64.288	-60.074	-17.738	-0.56674	0.33496	-0.55966	0.50323	30.4	13111	100
2025-3-27 20:29:18.868	WT901BLE68-01(48591DE3C19B)	-0.376	-1.056	0.397	-6.592	4.028	-37.109	-78.05	16.29	-106.67	-64.288	-60.074	-17.738	-0.56674	0.33496	-0.55966	0.50323	30.4	13111	100
2025-3-27 20:29:18.868	WT901BLE68-01(48591DE3C19B)	-0.376	-1.062	0.309	-14.587	-10.620	-26.917	-78.16	15.99	-106.83	-64.288	-60.074	-17.738	-0.56674	0.33496	-0.55966	0.50323	30.4	13111	100
2025-3-27 20:29:18.868	WT901BLE68-01(48591DE3C19B)	-0.289	-1.062	0.309	-14.587	-10.620	-26.917	-78.27	15.72	-106.89	-64.288	-60.074	-17.738	-0.56674	0.33496	-0.55966	0.50323	30.4	13111	100
2025-3-27 20:29:18.897	WT901BLE68-01(48591DE3C19B)	-0.289	-1.108	0.266	-15.503	-27.710	-14.221	-78.36	15.50	-106.85	-64.288	-60.074	-17.738	-0.56674	0.33496	-0.55966	0.50323	30.4	13111	100
2025-3-27 20:29:18.898	WT901BLE68-01(48591DE3C19B)	-0.249	-1.108	0.266	-15.503	-27.710	-14.221	-78.43	15.32	-106.72	-64.288	-60.074	-17.738	-0.56674	0.33496	-0.55966	0.50323	30.4	13111	100
2025-3-27 20:29:18.898	WT901BLE68-01(48591DE3C19B)	-0.249	-1.058	0.256	-4.395	-17.578	-6.958	-78.46	15.19	-106.62	-64.288	-60.074	-17.738	-0.56674	0.33496	-0.55966	0.50323	30.4	13111	100
2025-3-27 20:29:18.898	WT901BLE68-01(48591DE3C19B)	-0.255	-1.058	0.256	-4.395	-17.578	-6.958	-78.44	15.10	-106.56	-64.288	-60.074	-17.738	-0.52573	0.29352	-0.56305	0.56598	30.4	13111	100
2025-3-27 20:29:18.926	WT901BLE68-01(48591DE3C19B)	-0.255	-0.920	0.237	5.554	4.150	-8.240	-78.41	15.02	-106.62	-64.288	-60.074	-17.738	-0.52573	0.29352	-0.56305	0.56598	30.4	13111	100
2025-3-27 20:29:18.926	WT901BLE68-01(48591DE3C19B)	-0.253	-0.920	0.237	5.554	4.150	-8.240	-78.35	14.96	-106.78	-64.288	-60.074	-17.738	-0.52573	0.29352	-0.56305	0.56598	30.4	13111	100
2025-3-27 20:29:18.927	WT901BLE68-01(48591DE3C19B)	-0.253	-0.760	0.227	9.766	27.283	-11.536	-78.31	14.91	-107.06	-64.288	-60.074	-17.738	-0.52573	0.29352	-0.56305	0.56598	30.4	13111	100
2025-3-27 20:29:18.927	WT901BLE68-01(48591DE3C19B)	-0.313	-0.760	0.227	9.766	27.283	-11.536	-78.27	14.86	-107.46	-64.288	-60.074	-17.738	-0.52573	0.29352	-0.56305	0.56598	30.4	13111	100
2025-3-27 20:29:18.986	WT901BLE68-01(48591DE3C19B)	-0.313	-0.666	0.237	8.301	44.250	-16.663	-78.26	14.81	-107.95	-64.288	-60.074	-17.738	-0.52573	0.29352	-0.56305	0.56598	30.4	13111	100
2025-3-27 20:29:18.986	WT901BLE68-01(48591DE3C19B)	-0.395	-0.666	0.237	8.301	44.250	-16.663	-78.28	14.75	-108.54	-64.288	-60.074	-17.738	-0.52573	0.29352	-0.56305	0.56598	30.4	13111	100
2025-3-27 20:29:18.987	WT901BLE68-01(48591DE3C19B)	-0.395	-0.609	0.271	5.310	44.312	-22.034	-78.33	14.65	-109.13	-64.288	-60.074	-17.738	-0.52573	0.29352	-0.56305	0.56598	30.4	13111	100
2025-3-27 20:29:18.987	WT901BLE68-01(48591DE3C19B)	-0.434	-0.609	0.271	5.310	44.312	-22.034	-78.37	14.55	-109.74	-64.288	-60.074	-17.738	-0.52573	0.29352	-0.56305	0.56598	30.4	13111	100
2025-3-27 20:29:19.15	WT901BLE68-01(48591DE3C19B)	-0.434	-0.540	0.292	2.258	29.968	-24.597	-78.40	14.40	-110.20	-64.288	-60.074	-17.738	-0.52573	0.29352	-0.56305	0.56598	30.4	13111	100
2025-3-27 20:29:19.15	WT901BLE68-01(48591DE3C19B)	-0.454	-0.540	0.292	2.258	29.968	-24.597	-78.42	14.25	-110.67	-64.288	-60.074	-17.738	-0.52573	0.29352	-0.56305	0.56598	30.4	13111	100
2025-3-27 20:29:19.15	WT901BLE68-01(48591DE3C19B)	-0.454	-0.483	0.270	-3.235	4.456	-25.696	-78.43	14.06	-110.89	-64.288	-60.074	-17.738	-0.52573	0.29352	-0.56305	0.56598	30.4	13111	100
2025-3-27 20:29:19.15	WT901BLE68-01(48591DE3C19B)	-0.449	-0.483	0.270	-3.235	4.456	-25.696	-78.43	13.87	-111.12	-64.288	-60.074	-17.738	-0.52573	0.29352	-0.56305	0.56598	30.4	13111	100
2025-3-27 20:29:19.45	WT901BLE68-01(48591DE3C19B)	-0.449	-0.466	0.227	-9.521	-26.428	-25.574	-78.42	13.63	-111.05	-64.288	-60.074	-17.738	-0.52573	0.29352	-0.56305	0.56598	30.4	13111	100
2025-3-27 20:29:19.45	WT901BLE68-01(48591DE3C19B)	-0.407	-0.466	0.227	-9.521	-26.428	-25.574	-78.40	13.39	-110.98	-64.288	-60.074	-17.738	-0.52573	0.29352	-0.56305	0.56598	30.4	13111	100
2025-3-27 20:29:19.46	WT901BLE68-01(48591DE3C19B)	-0.407	-0.514	0.184	-15.198	-49.072	-23.743	-78.39	13.13	-110.69	-64.288	-60.074	-17.738	-0.52573	0.29352	-0.56305	0.56598	30.4	13111	100
2025-3-27 20:29:19.46	WT901BLE68-01(48591DE3C19B)	-0.345	-0.514	0.184	-15.198	-49.072	-23.743	-78.37	12.88	-110.40	-64.288	-60.074	-17.738	-0.52573	0.29352	-0.56305	0.56598	30.4	13111	100
2025-3-27 20:29:19.106	WT901BLE68-01(48591DE3C19B)	-0.345	-0.572	0.181	-13.916	-52.795	-20.813	-78.33	12.65	-110.06	-64.288	-60.074	-17.738	-0.52573	0.29352	-0.56305	0.56598	30.4	13111	100
2025-3-27 20:29:19.106	WT901BLE68-01(48591DE3C19B)	-0.326	-0.572	0.181	-13.916	-52.795	-20.813	-78.30	12.43	-109.73	-64.288	-60.074	-17.738	-0.52573	0.29352	-0.56305	0.56598	30.4	13111	100
2025-3-27 20:29:19.106	WT901BLE68-01(48591DE3C19B)	-0.326	-0.577	0.189	-9.644	-45.227	-16.663	-78.24	12.26	-109.46	-64.288	-60.074	-17.738	-0.52573	0.29352	-0.56305	0.56598	30.4	13111	100
2025-3-27 20:29:19.106	WT901BLE68-01(48591DE3C19B)	-0.326	-0.577	0.189	-9.644	-45.227	-16.663	-78.19	12.08	-109.19	-64.288	-60.074	-17.738	-0.52573	0.29352	-0.56305	0.56598	30.4	13111	100
2025-3-27 20:29:19.165	WT901BLE68-01(48591DE3C19B)	-0.326	-0.593	0.197	-6.897	-32.593	-12.024	-78.13	11.99	-109.03	-67.914	-54.292	-19.012	-0.52573	0.29352	-0.56305	0.56598	30.4	13111	100
2025-3-27 20:29:19.165	WT901BLE68-01(48591DE3C19B)	-0.342	-0.593	0.197	-6.897	-32.593	-12.024	-78.08	11.89	-108.88	-67.914	-54.292	-19.012	-0.52573	0.29352	-0.56305	0.56598	30.4	13111	100
2025-3-27 20:29:19.165	WT901BLE68-01(48591DE3C19B)	-0.342	-0.628	0.190	-2.563	-18.005	-7.629	-78.01	11.87	-108.85	-67.914	-54.292	-19.012	-0.52573	0.29352	-0.56305	0.56598	30.4	13111	100
2025-3-27 20:29:19.165	WT901BLE68-01(48591DE3C19B)	-0.370	-0.628	0.190	-2.563	-18.005	-7.629	-77.94	11.85	-108.83	-67.914	-54.292	-19.012	-0.52573	0.29352	-0.56305	0.56598	30.4	13111	100
2025-3-27 20:29:19.166	WT901BLE68-01(48591DE3C19B)	-0.370	-0.614	0.188	1.404	-6.165	-2.563	-77.86	11.90	-108.90	-67.914	-54.292	-19.012	-0.52573	0.29352	-0.56305	0.56598	30.4	13111	100
2025-3-27 20:29:19.166	WT901BLE68-01(48591DE3C19B)	-0.376	-0.614	0.188	1.404	-6.165	-2.563	-77.78	11.95	-108.97	-67.914	-54.292	-19.012	-0.52573	0.29352	-0.56305	0.56598	30.4	13111	100
2025-3-27 20:29:19.166	WT901BLE68-01(48591DE3C19B)	-0.376	-0.583	0.180	2.441	0.610	4.028	-77.71	12.08	-109.10	-67.914	-54.292	-19.012	-0.52573	0.29352	-0.56305	0.56598	30.4	13111	100
2025-3-27 20:29:19.166	WT901BLE68-01(48591DE3C19B)	-0.370	-0.583	0.180	2.441	0.610	4.028	-77.63	12.22	-109.22	-67.914	-54.292	-19.012	-0.52573	0.29352	-0.56305	0.56598	30.4	13111	100
