time	DeviceName	AccX(g)	AccY(g)	AccZ(g)	AsX(°/s)	AsY(°/s)	AsZ(°/s)	AngleX(°)	AngleY(°)	AngleZ(°)	HX(uT)	HY(uT)	HZ(uT)	Q0()	Q1()	Q2()	Q3()	Temperature(°C)	Version()	Battery level(%)
2025-3-27 20:28:19.194	WT901BLE68-01(48591DE3C19B)	-0.371	-0.911	0.191	-0.854	3.296	1.404	-78.70	24.29	-71.43	-45.080	-7.154	-2.744	-0.69910	0.42609	-0.47818	0.31772	30.3	13111	100
2025-3-27 20:28:19.194	WT901BLE68-01(48591DE3C19B)	-0.371	-0.907	0.196	-0.854	5.066	0.549	-78.73	24.29	-71.64	-45.080	-7.154	-2.744	-0.69910	0.42609	-0.47818	0.31772	30.3	13111	100
2025-3-27 20:28:19.194	WT901BLE68-01(48591DE3C19B)	-0.375	-0.907	0.196	-0.854	5.066	0.549	-78.76	24.29	-71.83	-45.080	-7.154	-2.744	-0.69910	0.42609	-0.47818	0.31772	30.3	13111	100
2025-3-27 20:28:19.194	WT901BLE68-01(48591DE3C19B)	-0.375	-0.903	0.197	-0.977	5.859	-0.427	-78.80	24.28	-72.04	-45.080	-7.154	-2.744	-0.69910	0.42609	-0.47818	0.31772	30.3	13111	100
2025-3-27 20:28:19.254	WT901BLE68-01(48591DE3C19B)	-0.375	-0.903	0.197	-0.977	5.859	-0.427	-78.83	24.27	-72.25	-45.080	-7.154	-2.744	-0.69910	0.42609	-0.47818	0.31772	30.3	13111	100
2025-3-27 20:28:19.255	WT901BLE68-01(48591DE3C19B)	-0.375	-0.901	0.199	-0.977	6.470	-1.343	-78.87	24.26	-72.47	-45.080	-7.154	-2.744	-0.69910	0.42609	-0.47818	0.31772	30.3	13111	100
2025-3-27 20:28:19.255	WT901BLE68-01(48591DE3C19B)	-0.376	-0.901	0.199	-0.977	6.470	-1.343	-78.91	24.24	-72.68	-45.080	-7.154	-2.744	-0.69910	0.42609	-0.47818	0.31772	30.3	13111	100
2025-3-27 20:28:19.255	WT901BLE68-01(48591DE3C19B)	-0.376	-0.890	0.203	-0.427	7.446	-2.197	-78.95	24.22	-72.90	-45.080	-7.154	-2.744	-0.69910	0.42609	-0.47818	0.31772	30.3	13111	100
2025-3-27 20:28:19.285	WT901BLE68-01(48591DE3C19B)	-0.373	-0.890	0.203	-0.427	7.446	-2.197	-78.98	24.20	-73.13	-45.080	-7.154	-2.744	-0.69910	0.42609	-0.47818	0.31772	30.3	13111	100
2025-3-27 20:28:19.285	WT901BLE68-01(48591DE3C19B)	-0.373	-0.872	0.206	-0.366	8.240	-2.991	-79.02	24.18	-73.36	-45.080	-7.154	-2.744	-0.69910	0.42609	-0.47818	0.31772	30.3	13111	100
2025-3-27 20:28:19.285	WT901BLE68-01(48591DE3C19B)	-0.378	-0.872	0.206	-0.366	8.240	-2.991	-79.06	24.15	-73.59	-45.080	-7.154	-2.744	-0.69910	0.42609	-0.47818	0.31772	30.3	13111	100
2025-3-27 20:28:19.285	WT901BLE68-01(48591DE3C19B)	-0.397	-0.869	0.205	-1.038	8.484	-3.967	-79.10	24.11	-73.82	-45.080	-7.154	-2.744	-0.69910	0.42609	-0.47818	0.31772	30.3	13111	100
2025-3-27 20:28:19.346	WT901BLE68-01(48591DE3C19B)	-0.397	-0.876	0.206	-1.587	7.507	-5.432	-79.15	24.07	-74.05	-45.080	-7.154	-2.744	-0.69910	0.42609	-0.47818	0.31772	30.3	13111	100
2025-3-27 20:28:19.346	WT901BLE68-01(48591DE3C19B)	-0.416	-0.876	0.206	-1.587	7.507	-5.432	-79.19	24.02	-74.27	-45.080	-7.154	-2.744	-0.69910	0.42609	-0.47818	0.31772	30.3	13111	100
2025-3-27 20:28:19.346	WT901BLE68-01(48591DE3C19B)	-0.416	-0.880	0.212	-2.808	3.113	-6.897	-79.23	23.96	-74.48	-45.080	-7.154	-2.744	-0.69910	0.42609	-0.47818	0.31772	30.3	13111	100
2025-3-27 20:28:19.346	WT901BLE68-01(48591DE3C19B)	-0.414	-0.880	0.212	-2.808	3.113	-6.897	-79.27	23.89	-74.65	-45.080	-7.154	-2.744	-0.67914	0.39960	-0.50513	0.35184	30.3	13111	100
2025-3-27 20:28:19.348	WT901BLE68-01(48591DE3C19B)	-0.414	-0.872	0.218	-3.967	-2.441	-7.996	-79.30	23.81	-74.79	-45.080	-7.154	-2.744	-0.67914	0.39960	-0.50513	0.35184	30.3	13111	100
2025-3-27 20:28:19.348	WT901BLE68-01(48591DE3C19B)	-0.410	-0.872	0.218	-3.967	-2.441	-7.996	-79.32	23.72	-74.91	-45.080	-7.154	-2.744	-0.67914	0.39960	-0.50513	0.35184	30.3	13111	100
2025-3-27 20:28:19.348	WT901BLE68-01(48591DE3C19B)	-0.410	-0.861	0.221	-4.761	-5.737	-8.301	-79.34	23.63	-75.01	-45.080	-7.154	-2.744	-0.67914	0.39960	-0.50513	0.35184	30.3	13111	100
2025-3-27 20:28:19.348	WT901BLE68-01(48591DE3C19B)	-0.403	-0.861	0.221	-4.761	-5.737	-8.301	-79.35	23.53	-75.09	-45.080	-7.154	-2.744	-0.67914	0.39960	-0.50513	0.35184	30.3	13111	100
2025-3-27 20:28:19.404	WT901BLE68-01(48591DE3C19B)	-0.403	-0.853	0.223	-4.883	-6.653	-8.179	-79.37	23.44	-75.16	-45.080	-7.154	-2.744	-0.67914	0.39960	-0.50513	0.35184	30.3	13111	100
2025-3-27 20:28:19.404	WT901BLE68-01(48591DE3C19B)	-0.403	-0.853	0.223	-4.883	-6.653	-8.179	-79.38	23.35	-75.23	-45.080	-7.154	-2.744	-0.67914	0.39960	-0.50513	0.35184	30.3	13111	100
2025-3-27 20:28:19.405	WT901BLE68-01(48591DE3C19B)	-0.403	-0.852	0.225	-4.578	-6.104	-7.629	-79.39	23.25	-75.31	-45.080	-7.154	-2.744	-0.67914	0.39960	-0.50513	0.35184	30.3	13111	100
2025-3-27 20:28:19.405	WT901BLE68-01(48591DE3C19B)	-0.417	-0.852	0.225	-4.578	-6.104	-7.629	-79.39	23.17	-75.38	-45.080	-7.154	-2.744	-0.67914	0.39960	-0.50513	0.35184	30.3	13111	100
2025-3-27 20:28:19.434	WT901BLE68-01(48591DE3C19B)	-0.417	-0.852	0.232	-3.601	-5.981	-6.714	-79.39	23.09	-75.45	-45.080	-7.154	-2.744	-0.67914	0.39960	-0.50513	0.35184	30.3	13111	100
2025-3-27 20:28:19.435	WT901BLE68-01(48591DE3C19B)	-0.425	-0.852	0.232	-3.601	-5.981	-6.714	-79.39	23.02	-75.52	-45.080	-7.154	-2.744	-0.67914	0.39960	-0.50513	0.35184	30.3	13111	100
2025-3-27 20:28:19.435	WT901BLE68-01(48591DE3C19B)	-0.425	-0.847	0.229	-2.991	-7.935	-5.310	-79.38	22.94	-75.58	-45.080	-7.154	-2.744	-0.67914	0.39960	-0.50513	0.35184	30.3	13111	100
2025-3-27 20:28:19.435	WT901BLE68-01(48591DE3C19B)	-0.421	-0.847	0.229	-2.991	-7.935	-5.310	-79.35	22.88	-75.63	-45.080	-7.154	-2.744	-0.67914	0.39960	-0.50513	0.35184	30.3	13111	100
2025-3-27 20:28:19.470	WT901BLE68-01(48591DE3C19B)	-0.421	-0.850	0.222	-2.686	-10.132	-3.601	-79.33	22.83	-75.66	-45.080	-7.154	-2.744	-0.67914	0.39960	-0.50513	0.35184	30.3	13111	100
2025-3-27 20:28:19.470	WT901BLE68-01(48591DE3C19B)	-0.420	-0.850	0.222	-2.686	-10.132	-3.601	-79.29	22.79	-75.68	-45.080	-7.154	-2.744	-0.67914	0.39960	-0.50513	0.35184	30.3	13111	100
2025-3-27 20:28:19.470	WT901BLE68-01(48591DE3C19B)	-0.420	-0.864	0.215	-1.953	-11.963	-1.953	-79.25	22.75	-75.69	-45.080	-7.154	-2.744	-0.67914	0.39960	-0.50513	0.35184	30.3	13111	100
2025-3-27 20:28:19.470	WT901BLE68-01(48591DE3C19B)	-0.415	-0.864	0.215	-1.953	-11.963	-1.953	-79.19	22.71	-75.68	-45.080	-7.154	-2.744	-0.67914	0.39960	-0.50513	0.35184	30.3	13111	100
2025-3-27 20:28:19.525	WT901BLE68-01(48591DE3C19B)	-0.415	-0.881	0.209	-1.282	-13.184	-0.977	-79.14	22.68	-75.67	-45.080	-7.154	-2.744	-0.67914	0.39960	-0.50513	0.35184	30.3	13111	100
2025-3-27 20:28:19.525	WT901BLE68-01(48591DE3C19B)	-0.418	-0.881	0.209	-1.282	-13.184	-0.977	-79.08	22.66	-75.66	-45.276	-6.370	-2.548	-0.67914	0.39960	-0.50513	0.35184	30.3	13111	100
2025-3-27 20:28:19.525	WT901BLE68-01(48591DE3C19B)	-0.418	-0.914	0.204	-0.244	-13.062	-1.160	-79.01	22.63	-75.64	-45.276	-6.370	-2.548	-0.67914	0.39960	-0.50513	0.35184	30.3	13111	100
2025-3-27 20:28:19.525	WT901BLE68-01(48591DE3C19B)	-0.429	-0.914	0.204	-0.244	-13.062	-1.160	-78.94	22.60	-75.62	-45.276	-6.370	-2.548	-0.67914	0.39960	-0.50513	0.35184	30.3	13111	100
2025-3-27 20:28:19.616	WT901BLE68-01(48591DE3C19B)	-0.429	-0.946	0.198	1.099	-12.817	-2.319	-78.87	22.57	-75.61	-45.276	-6.370	-2.548	-0.67914	0.39960	-0.50513	0.35184	30.3	13111	100
2025-3-27 20:28:19.616	WT901BLE68-01(48591DE3C19B)	-0.433	-0.946	0.198	1.099	-12.817	-2.319	-78.79	22.53	-75.60	-45.276	-6.370	-2.548	-0.67914	0.39960	-0.50513	0.35184	30.3	13111	100
2025-3-27 20:28:19.616	WT901BLE68-01(48591DE3C19B)	-0.433	-0.985	0.191	2.014	-12.939	-4.089	-78.71	22.49	-75.59	-45.276	-6.370	-2.548	-0.67914	0.39960	-0.50513	0.35184	30.3	13111	100
2025-3-27 20:28:19.616	WT901BLE68-01(48591DE3C19B)	-0.431	-0.985	0.191	2.014	-12.939	-4.089	-78.63	22.43	-75.58	-45.276	-6.370	-2.548	-0.67914	0.39960	-0.50513	0.35184	30.3	13111	100
2025-3-27 20:28:19.618	WT901BLE68-01(48591DE3C19B)	-0.431	-1.000	0.183	3.601	-11.597	-5.859	-78.55	22.37	-75.58	-45.276	-6.370	-2.548	-0.67914	0.39960	-0.50513	0.35184	30.3	13111	100
2025-3-27 20:28:19.618	WT901BLE68-01(48591DE3C19B)	-0.430	-1.000	0.183	3.601	-11.597	-5.859	-78.46	22.30	-75.59	-45.276	-6.370	-2.548	-0.67914	0.39960	-0.50513	0.35184	30.3	13111	100
2025-3-27 20:28:19.618	WT901BLE68-01(48591DE3C19B)	-0.430	-0.990	0.178	4.333	-9.583	-7.080	-78.38	22.22	-75.61	-45.276	-6.370	-2.548	-0.67914	0.39960	-0.50513	0.35184	30.3	13111	100
2025-3-27 20:28:19.618	WT901BLE68-01(48591DE3C19B)	-0.425	-0.990	0.178	4.333	-9.583	-7.080	-78.30	22.14	-75.65	-45.276	-6.370	-2.548	-0.67914	0.39960	-0.50513	0.35184	30.3	13111	100
2025-3-27 20:28:19.648	WT901BLE68-01(48591DE3C19B)	-0.425	-0.947	0.172	3.662	-8.301	-6.958	-78.22	22.07	-75.69	-45.276	-6.370	-2.548	-0.67914	0.39960	-0.50513	0.35184	30.3	13111	100
2025-3-27 20:28:19.648	WT901BLE68-01(48591DE3C19B)	-0.424	-0.947	0.172	3.662	-8.301	-6.958	-78.16	21.99	-75.74	-45.276	-6.370	-2.548	-0.67914	0.39960	-0.50513	0.35184	30.3	13111	100
2025-3-27 20:28:19.648	WT901BLE68-01(48591DE3C19B)	-0.424	-0.905	0.168	1.648	-8.545	-5.859	-78.10	21.92	-75.79	-45.276	-6.370	-2.548	-0.67914	0.39960	-0.50513	0.35184	30.3	13111	100
2025-3-27 20:28:19.648	WT901BLE68-01(48591DE3C19B)	-0.426	-0.905	0.168	1.648	-8.545	-5.859	-78.06	21.86	-75.83	-45.276	-6.370	-2.548	-0.67914	0.39960	-0.50513	0.35184	30.3	13111	100
2025-3-27 20:28:19.677	WT901BLE68-01(48591DE3C19B)	-0.426	-0.863	0.167	-1.404	-12.390	-4.333	-78.02	21.80	-75.86	-45.276	-6.370	-2.548	-0.67914	0.39960	-0.50513	0.35184	30.3	13111	100
2025-3-27 20:28:19.677	WT901BLE68-01(48591DE3C19B)	-0.425	-0.863	0.167	-1.404	-12.390	-4.333	-77.99	21.75	-75.86	-45.276	-6.370	-2.548	-0.67914	0.39960	-0.50513	0.35184	30.3	13111	100
2025-3-27 20:28:19.677	WT901BLE68-01(48591DE3C19B)	-0.425	-0.839	0.173	-5.005	-18.250	-3.113	-77.96	21.70	-75.82	-45.276	-6.370	-2.548	-0.67914	0.39960	-0.50513	0.35184	30.3	13111	100
2025-3-27 20:28:19.677	WT901BLE68-01(48591DE3C19B)	-0.423	-0.839	0.173	-5.005	-18.250	-3.113	-77.95	21.65	-75.76	-45.276	-6.370	-2.548	-0.67914	0.39960	-0.50513	0.35184	30.3	13111	100
2025-3-27 20:28:19.707	WT901BLE68-01(48591DE3C19B)	-0.423	-0.829	0.176	-7.690	-24.719	-2.075	-77.93	21.59	-75.66	-45.276	-6.370	-2.548	-0.67914	0.39960	-0.50513	0.35184	30.3	13111	100
2025-3-27 20:28:19.708	WT901BLE68-01(48591DE3C19B)	-0.406	-0.829	0.176	-7.690	-24.719	-2.075	-77.92	21.54	-75.53	-45.276	-6.370	-2.548	-0.67914	0.39960	-0.50513	0.35184	30.3	13111	100
2025-3-27 20:28:19.708	WT901BLE68-01(48591DE3C19B)	-0.406	-0.828	0.178	-9.399	-30.151	-0.977	-77.89	21.49	-75.37	-45.276	-6.370	-2.548	-0.67630	0.40005	-0.49228	0.37427	30.3	13111	100
2025-3-27 20:28:19.708	WT901BLE68-01(48591DE3C19B)	-0.385	-0.828	0.178	-9.399	-30.151	-0.977	-77.87	21.45	-75.17	-45.276	-6.370	-2.548	-0.67630	0.40005	-0.49228	0.37427	30.3	13111	100
2025-3-27 20:28:19.771	WT901BLE68-01(48591DE3C19B)	-0.385	-0.844	0.180	-9.338	-31.311	0.244	-77.84	21.40	-74.98	-45.276	-6.370	-2.548	-0.67630	0.40005	-0.49228	0.37427	30.3	13111	100
2025-3-27 20:28:19.771	WT901BLE68-01(48591DE3C19B)	-0.368	-0.844	0.180	-9.338	-31.311	0.244	-77.82	21.36	-74.78	-45.276	-6.370	-2.548	-0.67630	0.40005	-0.49228	0.37427	30.3	13111	100
2025-3-27 20:28:19.771	WT901BLE68-01(48591DE3C19B)	-0.368	-0.847	0.185	-8.301	-28.809	2.319	-77.79	21.34	-74.60	-45.276	-6.370	-2.548	-0.67630	0.40005	-0.49228	0.37427	30.3	13111	100
2025-3-27 20:28:19.772	WT901BLE68-01(48591DE3C19B)	-0.344	-0.847	0.185	-8.301	-28.809	2.319	-77.76	21.32	-74.42	-45.276	-6.370	-2.548	-0.67630	0.40005	-0.49228	0.37427	30.3	13111	100
2025-3-27 20:28:19.795	WT901BLE68-01(48591DE3C19B)	-0.344	-0.877	0.178	-7.629	-24.292	5.127	-77.73	21.34	-74.28	-45.276	-6.370	-2.548	-0.67630	0.40005	-0.49228	0.37427	30.3	13111	100
2025-3-27 20:28:19.795	WT901BLE68-01(48591DE3C19B)	-0.324	-0.877	0.178	-7.629	-24.292	5.127	-77.71	21.35	-74.14	-45.276	-6.370	-2.548	-0.67630	0.40005	-0.49228	0.37427	30.3	13111	100
2025-3-27 20:28:19.795	WT901BLE68-01(48591DE3C19B)	-0.324	-0.866	0.178	-5.005	-18.799	9.277	-77.68	21.42	-74.05	-45.276	-6.370	-2.548	-0.67630	0.40005	-0.49228	0.37427	30.3	13111	100
2025-3-27 20:28:19.795	WT901BLE68-01(48591DE3C19B)	-0.321	-0.866	0.178	-5.005	-18.799	9.277	-77.66	21.48	-73.97	-45.276	-6.370	-2.548	-0.67630	0.40005	-0.49228	0.37427	30.3	13111	100
2025-3-27 20:28:19.855	WT901BLE68-01(48591DE3C19B)	-0.321	-0.826	0.182	-4.578	-15.381	13.062	-77.63	21.58	-73.91	-45.276	-6.370	-2.548	-0.67630	0.40005	-0.49228	0.37427	30.3	13111	100
2025-3-27 20:28:19.856	WT901BLE68-01(48591DE3C19B)	-0.311	-0.826	0.182	-4.578	-15.381	13.062	-77.61	21.69	-73.84	-45.276	-6.370	-2.548	-0.67630	0.40005	-0.49228	0.37427	30.3	13111	100
2025-3-27 20:28:19.856	WT901BLE68-01(48591DE3C19B)	-0.311	-0.825	0.175	-5.432	-14.404	14.832	-77.60	21.81	-73.80	-45.276	-6.370	-2.548	-0.67630	0.40005	-0.49228	0.37427	30.3	13111	100
2025-3-27 20:28:19.856	WT901BLE68-01(48591DE3C19B)	-0.296	-0.825	0.175	-5.432	-14.404	14.832	-77.59	21.92	-73.74	-45.276	-6.370	-2.548	-0.67630	0.40005	-0.49228	0.37427	30.3	13111	100
2025-3-27 20:28:19.887	WT901BLE68-01(48591DE3C19B)	-0.296	-0.854	0.173	-4.456	-12.329	14.038	-77.57	22.03	-73.71	-45.276	-6.370	-2.548	-0.67630	0.40005	-0.49228	0.37427	30.3	13111	100
2025-3-27 20:28:19.887	WT901BLE68-01(48591DE3C19B)	-0.290	-0.854	0.173	-4.456	-12.329	14.038	-77.56	22.14	-73.68	-45.276	-6.370	-2.548	-0.67630	0.40005	-0.49228	0.37427	30.3	13111	100
2025-3-27 20:28:19.887	WT901BLE68-01(48591DE3C19B)	-0.290	-0.868	0.178	-0.854	-8.057	11.353	-77.53	22.24	-73.70	-45.276	-6.370	-2.548	-0.67630	0.40005	-0.49228	0.37427	30.3	13111	100
2025-3-27 20:28:19.887	WT901BLE68-01(48591DE3C19B)	-0.280	-0.868	0.178	-0.854	-8.057	11.353	-77.50	22.32	-73.72	-45.276	-6.370	-2.548	-0.67630	0.40005	-0.49228	0.37427	30.3	13111	100
2025-3-27 20:28:19.917	WT901BLE68-01(48591DE3C19B)	-0.280	-0.849	0.179	2.686	-3.540	8.057	-77.46	22.38	-73.80	-45.276	-6.370	-2.548	-0.67630	0.40005	-0.49228	0.37427	30.3	13111	100
2025-3-27 20:28:19.917	WT901BLE68-01(48591DE3C19B)	-0.265	-0.849	0.179	2.686	-3.540	8.057	-77.42	22.45	-73.87	-45.276	-6.370	-2.548	-0.67630	0.40005	-0.49228	0.37427	30.3	13111	100
2025-3-27 20:28:19.917	WT901BLE68-01(48591DE3C19B)	-0.265	-0.831	0.170	5.920	2.563	4.211	-77.38	22.48	-74.02	-49.490	-7.056	-3.038	-0.67630	0.40005	-0.49228	0.37427	30.3	13111	100
2025-3-27 20:28:19.917	WT901BLE68-01(48591DE3C19B)	-0.267	-0.831	0.170	5.920	2.563	4.211	-77.33	22.51	-74.17	-49.490	-7.056	-3.038	-0.67630	0.40005	-0.49228	0.37427	30.3	13111	100
2025-3-27 20:28:19.974	WT901BLE68-01(48591DE3C19B)	-0.267	-0.813	0.158	8.240	9.399	0.244	-77.29	22.52	-74.40	-49.490	-7.056	-3.038	-0.67630	0.40005	-0.49228	0.37427	30.3	13111	100
2025-3-27 20:28:19.974	WT901BLE68-01(48591DE3C19B)	-0.276	-0.813	0.158	8.240	9.399	0.244	-77.26	22.53	-74.62	-49.490	-7.056	-3.038	-0.67630	0.40005	-0.49228	0.37427	30.3	13111	100
2025-3-27 20:28:19.974	WT901BLE68-01(48591DE3C19B)	-0.276	-0.823	0.155	9.338	14.709	-4.333	-77.24	22.50	-74.92	-49.490	-7.056	-3.038	-0.67630	0.40005	-0.49228	0.37427	30.3	13111	100
2025-3-27 20:28:19.975	WT901BLE68-01(48591DE3C19B)	-0.291	-0.823	0.155	9.338	14.709	-4.333	-77.22	22.47	-75.20	-49.490	-7.056	-3.038	-0.67630	0.40005	-0.49228	0.37427	30.3	13111	100
2025-3-27 20:28:20.5	WT901BLE68-01(48591DE3C19B)	-0.291	-0.857	0.161	10.742	19.592	-9.460	-77.22	22.41	-75.55	-49.490	-7.056	-3.038	-0.67630	0.40005	-0.49228	0.37427	30.3	13111	100
2025-3-27 20:28:20.5	WT901BLE68-01(48591DE3C19B)	-0.298	-0.857	0.161	10.742	19.592	-9.460	-77.21	22.34	-75.90	-49.490	-7.056	-3.038	-0.67630	0.40005	-0.49228	0.37427	30.3	13111	100
2025-3-27 20:28:20.5	WT901BLE68-01(48591DE3C19B)	-0.298	-0.892	0.182	13.550	24.170	-13.794	-77.20	22.24	-76.31	-49.490	-7.056	-3.038	-0.67630	0.40005	-0.49228	0.37427	30.3	13111	100
2025-3-27 20:28:20.5	WT901BLE68-01(48591DE3C19B)	-0.272	-0.892	0.182	13.550	24.170	-13.794	-77.18	22.14	-76.71	-49.490	-7.056	-3.038	-0.67630	0.40005	-0.49228	0.37427	30.3	13111	100
2025-3-27 20:28:20.35	WT901BLE68-01(48591DE3C19B)	-0.272	-0.926	0.183	18.372	32.471	-16.785	-77.15	22.03	-77.20	-49.490	-7.056	-3.038	-0.67630	0.40005	-0.49228	0.37427	30.3	13111	100
2025-3-27 20:28:20.35	WT901BLE68-01(48591DE3C19B)	-0.245	-0.926	0.183	18.372	32.471	-16.785	-77.12	21.92	-77.69	-49.490	-7.056	-3.038	-0.67630	0.40005	-0.49228	0.37427	30.3	13111	100
2025-3-27 20:28:20.35	WT901BLE68-01(48591DE3C19B)	-0.245	-0.905	0.143	26.062	48.828	-19.775	-77.09	21.82	-78.35	-49.490	-7.056	-3.038	-0.67630	0.40005	-0.49228	0.37427	30.3	13111	100
2025-3-27 20:28:20.35	WT901BLE68-01(48591DE3C19B)	-0.245	-0.905	0.143	26.062	48.828	-19.775	-77.05	21.71	-79.01	-49.490	-7.056	-3.038	-0.67630	0.40005	-0.49228	0.37427	30.3	13111	100
2025-3-27 20:28:20.97	WT901BLE68-01(48591DE3C19B)	-0.245	-0.883	0.108	30.090	66.711	-25.269	-77.05	21.59	-79.87	-49.490	-7.056	-3.038	-0.67630	0.40005	-0.49228	0.37427	30.3	13111	100
2025-3-27 20:28:20.97	WT901BLE68-01(48591DE3C19B)	-0.305	-0.883	0.108	30.090	66.711	-25.269	-77.04	21.47	-80.72	-49.490	-7.056	-3.038	-0.67630	0.40005	-0.49228	0.37427	30.3	13111	100
2025-3-27 20:28:20.98	WT901BLE68-01(48591DE3C19B)	-0.305	-0.916	0.112	32.593	79.590	-32.776	-77.07	21.31	-81.71	-49.490	-7.056	-3.038	-0.67630	0.40005	-0.49228	0.37427	30.3	13111	100
2025-3-27 20:28:20.98	WT901BLE68-01(48591DE3C19B)	-0.398	-0.916	0.112	32.593	79.590	-32.776	-77.10	21.15	-82.69	-49.490	-7.056	-3.038	-0.67630	0.40005	-0.49228	0.37427	30.3	13111	100
2025-3-27 20:28:20.127	WT901BLE68-01(48591DE3C19B)	-0.398	-0.894	0.145	34.546	78.918	-40.710	-77.11	20.91	-83.69	-49.490	-7.056	-3.038	-0.67630	0.40005	-0.49228	0.37427	30.3	13111	100
2025-3-27 20:28:20.127	WT901BLE68-01(48591DE3C19B)	-0.463	-0.894	0.145	34.546	78.918	-40.710	-77.11	20.68	-84.67	-49.490	-7.056	-3.038	-0.67630	0.40005	-0.49228	0.37427	30.3	13111	100
2025-3-27 20:28:20.128	WT901BLE68-01(48591DE3C19B)	-0.463	-0.828	0.188	35.217	64.636	-45.532	-77.05	20.38	-85.51	-49.490	-7.056	-3.038	-0.67630	0.40005	-0.49228	0.37427	30.3	13111	100
2025-3-27 20:28:20.128	WT901BLE68-01(48591DE3C19B)	-0.479	-0.828	0.188	35.217	64.636	-45.532	-76.99	20.08	-86.34	-49.490	-7.056	-3.038	-0.63477	0.35251	-0.51895	0.45099	30.3	13111	100
2025-3-27 20:28:20.157	WT901BLE68-01(48591DE3C19B)	-0.479	-0.713	0.209	36.316	49.500	-44.250	-76.85	19.78	-87.01	-49.490	-7.056	-3.038	-0.63477	0.35251	-0.51895	0.45099	30.3	13111	100
2025-3-27 20:28:20.157	WT901BLE68-01(48591DE3C19B)	-0.442	-0.713	0.209	36.316	49.500	-44.250	-76.71	19.47	-87.67	-49.490	-7.056	-3.038	-0.63477	0.35251	-0.51895	0.45099	30.3	13111	100
2025-3-27 20:28:20.157	WT901BLE68-01(48591DE3C19B)	-0.442	-0.588	0.200	41.382	43.457	-34.241	-76.48	19.27	-88.24	-49.490	-7.056	-3.038	-0.63477	0.35251	-0.51895	0.45099	30.3	13111	100
2025-3-27 20:28:20.157	WT901BLE68-01(48591DE3C19B)	-0.392	-0.588	0.200	41.382	43.457	-34.241	-76.25	19.07	-88.81	-49.490	-7.056	-3.038	-0.63477	0.35251	-0.51895	0.45099	30.3	13111	100
2025-3-27 20:28:20.215	WT901BLE68-01(48591DE3C19B)	-0.392	-0.459	0.166	44.189	47.363	-18.616	-75.99	19.04	-89.38	-49.490	-7.056	-3.038	-0.63477	0.35251	-0.51895	0.45099	30.3	13111	100
2025-3-27 20:28:20.215	WT901BLE68-01(48591DE3C19B)	-0.331	-0.459	0.166	44.189	47.363	-18.616	-75.72	19.02	-89.96	-49.490	-7.056	-3.038	-0.63477	0.35251	-0.51895	0.45099	30.3	13111	100
2025-3-27 20:28:20.216	WT901BLE68-01(48591DE3C19B)	-0.341	-0.393	0.105	35.706	55.603	-2.197	-75.56	19.19	-90.56	-49.490	-7.056	-3.038	-0.63477	0.35251	-0.51895	0.45099	30.3	13111	100
2025-3-27 20:28:20.216	WT901BLE68-01(48591DE3C19B)	-0.341	-0.548	0.078	17.822	57.983	12.756	-75.49	19.43	-91.15	-49.490	-7.056	-3.038	-0.63477	0.35251	-0.51895	0.45099	30.3	13111	100
2025-3-27 20:28:20.275	WT901BLE68-01(48591DE3C19B)	-0.425	-0.548	0.078	17.822	57.983	12.756	-75.50	19.75	-91.74	-49.490	-7.056	-3.038	-0.63477	0.35251	-0.51895	0.45099	30.3	13111	100
2025-3-27 20:28:20.275	WT901BLE68-01(48591DE3C19B)	-0.425	-0.822	0.121	4.761	53.894	19.714	-75.58	20.10	-92.29	-49.490	-7.056	-3.038	-0.63477	0.35251	-0.51895	0.45099	30.3	13111	100
2025-3-27 20:28:20.275	WT901BLE68-01(48591DE3C19B)	-0.574	-0.822	0.121	4.761	53.894	19.714	-75.72	20.47	-92.80	-49.490	-7.056	-3.038	-0.63477	0.35251	-0.51895	0.45099	30.3	13111	100
2025-3-27 20:28:20.275	WT901BLE68-01(48591DE3C19B)	-0.574	-1.185	0.219	-3.662	45.654	10.010	-75.90	20.79	-93.28	-49.490	-7.056	-3.038	-0.63477	0.35251	-0.51895	0.45099	30.3	13111	100
2025-3-27 20:28:20.276	WT901BLE68-01(48591DE3C19B)	-0.750	-1.185	0.219	-3.662	45.654	10.010	-76.11	21.03	-93.72	-49.490	-7.056	-3.038	-0.63477	0.35251	-0.51895	0.45099	30.3	13111	100
2025-3-27 20:28:20.276	WT901BLE68-01(48591DE3C19B)	-3.001	-1.515	0.371	-0.061	27.832	-10.376	-76.28	21.15	-94.10	-49.490	-7.056	-3.038	-0.63477	0.35251	-0.51895	0.45099	30.3	13111	100
2025-3-27 20:28:20.276	WT901BLE68-01(48591DE3C19B)	-0.791	-6.059	1.486	-0.061	27.832	-10.376	-76.41	21.15	-94.41	-49.490	-7.056	-3.038	-0.63477	0.35251	-0.51895	0.45099	30.3	13111	100
2025-3-27 20:28:20.276	WT901BLE68-01(48591DE3C19B)	-0.791	-1.375	0.438	-4.700	10.986	-23.499	-76.53	21.07	-94.64	-49.490	-7.056	-3.038	-0.63477	0.35251	-0.51895	0.45099	30.3	13111	100
2025-3-27 20:28:20.371	WT901BLE68-01(48591DE3C19B)	-0.701	-1.375	0.438	-4.700	10.986	-23.499	-76.64	20.90	-94.79	-49.490	-7.056	-3.038	-0.63477	0.35251	-0.51895	0.45099	30.3	13111	100
2025-3-27 20:28:20.371	WT901BLE68-01(48591DE3C19B)	-0.701	-1.228	0.433	-12.451	-0.854	-30.457	-76.76	20.68	-94.89	-49.490	-7.056	-3.038	-0.63477	0.35251	-0.51895	0.45099	30.3	13111	100
2025-3-27 20:28:20.371	WT901BLE68-01(48591DE3C19B)	-0.749	-1.228	0.433	-12.451	-0.854	-30.457	-76.90	20.42	-94.93	-49.490	-7.056	-3.038	-0.63477	0.35251	-0.51895	0.45099	30.3	13111	100
2025-3-27 20:28:20.371	WT901BLE68-01(48591DE3C19B)	-0.749	-1.051	0.440	-18.677	-5.005	-25.146	-77.06	20.19	-94.94	-49.490	-7.056	-3.038	-0.63477	0.35251	-0.51895	0.45099	30.3	13111	100
2025-3-27 20:28:20.372	WT901BLE68-01(48591DE3C19B)	-0.823	-1.051	0.440	-18.677	-5.005	-25.146	-77.24	19.98	-94.93	-34.692	-10.290	2.646	-0.63477	0.35251	-0.51895	0.45099	30.3	13111	100
2025-3-27 20:28:20.372	WT901BLE68-01(48591DE3C19B)	-0.823	-0.914	0.481	-24.719	-38.208	-17.944	-77.38	19.77	-94.73	-34.692	-10.290	2.646	-0.63477	0.35251	-0.51895	0.45099	30.3	13111	100
2025-3-27 20:28:20.372	WT901BLE68-01(48591DE3C19B)	-0.721	-0.914	0.481	-24.719	-38.208	-17.944	-77.49	19.57	-94.36	-34.692	-10.290	2.646	-0.63477	0.35251	-0.51895	0.45099	30.3	13111	100
2025-3-27 20:28:20.372	WT901BLE68-01(48591DE3C19B)	-0.721	-0.902	0.495	-36.865	-84.595	-3.174	-77.56	19.40	-93.73	-34.692	-10.290	2.646	-0.63477	0.35251	-0.51895	0.45099	30.3	13111	100
2025-3-27 20:28:20.397	WT901BLE68-01(48591DE3C19B)	-0.552	-0.902	0.495	-36.865	-84.595	-3.174	-77.61	19.25	-92.85	-34.692	-10.290	2.646	-0.63477	0.35251	-0.51895	0.45099	30.3	13111	100
2025-3-27 20:28:20.398	WT901BLE68-01(48591DE3C19B)	-0.552	-1.088	0.415	-34.973	-105.164	12.207	-77.61	19.16	-91.85	-34.692	-10.290	2.646	-0.63477	0.35251	-0.51895	0.45099	30.3	13111	100
2025-3-27 20:28:20.398	WT901BLE68-01(48591DE3C19B)	-0.418	-1.088	0.415	-34.973	-105.164	12.207	-77.56	19.12	-90.74	-34.692	-10.290	2.646	-0.63477	0.35251	-0.51895	0.45099	30.3	13111	100
2025-3-27 20:28:20.398	WT901BLE68-01(48591DE3C19B)	-0.418	-1.053	0.275	-16.174	-94.971	24.841	-77.42	19.14	-89.68	-34.692	-10.290	2.646	-0.63477	0.35251	-0.51895	0.45099	30.3	13111	100
2025-3-27 20:28:20.455	WT901BLE68-01(48591DE3C19B)	-0.310	-1.053	0.275	-16.174	-94.971	24.841	-77.21	19.23	-88.65	-34.692	-10.290	2.646	-0.63477	0.35251	-0.51895	0.45099	30.3	13111	100
2025-3-27 20:28:20.456	WT901BLE68-01(48591DE3C19B)	-0.310	-0.932	0.184	-2.991	-64.819	30.334	-76.98	19.37	-87.79	-34.692	-10.290	2.646	-0.63477	0.35251	-0.51895	0.45099	30.3	13111	100
2025-3-27 20:28:20.456	WT901BLE68-01(48591DE3C19B)	-0.230	-0.932	0.184	-2.991	-64.819	30.334	-76.73	19.57	-87.07	-34.692	-10.290	2.646	-0.63477	0.35251	-0.51895	0.45099	30.3	13111	100
2025-3-27 20:28:20.456	WT901BLE68-01(48591DE3C19B)	-0.230	-0.812	0.201	8.118	-25.269	30.579	-76.50	19.80	-86.56	-34.692	-10.290	2.646	-0.63477	0.35251	-0.51895	0.45099	30.3	13111	100
2025-3-27 20:28:20.487	WT901BLE68-01(48591DE3C19B)	-0.232	-0.812	0.201	8.118	-25.269	30.579	-76.28	20.08	-86.25	-34.692	-10.290	2.646	-0.63477	0.35251	-0.51895	0.45099	30.3	13111	100
2025-3-27 20:28:20.487	WT901BLE68-01(48591DE3C19B)	-0.232	-0.638	0.258	13.977	9.277	31.921	-76.10	20.39	-86.13	-34.692	-10.290	2.646	-0.63477	0.35251	-0.51895	0.45099	30.3	13111	100
2025-3-27 20:28:20.487	WT901BLE68-01(48591DE3C19B)	-0.289	-0.638	0.258	13.977	9.277	31.921	-75.94	20.75	-86.18	-34.692	-10.290	2.646	-0.63477	0.35251	-0.51895	0.45099	30.3	13111	100
2025-3-27 20:28:20.487	WT901BLE68-01(48591DE3C19B)	-0.289	-0.488	0.297	13.672	30.518	34.241	-75.82	21.14	-86.34	-34.692	-10.290	2.646	-0.63477	0.35251	-0.51895	0.45099	30.3	13111	100
2025-3-27 20:28:20.517	WT901BLE68-01(48591DE3C19B)	-0.349	-0.488	0.297	13.672	30.518	34.241	-75.74	21.57	-86.60	-34.692	-10.290	2.646	-0.63477	0.35251	-0.51895	0.45099	30.3	13111	100
2025-3-27 20:28:20.518	WT901BLE68-01(48591DE3C19B)	-0.349	-0.428	0.262	7.751	37.659	36.133	-75.70	22.01	-86.90	-34.692	-10.290	2.646	-0.63477	0.35251	-0.51895	0.45099	30.3	13111	100
2025-3-27 20:28:20.518	WT901BLE68-01(48591DE3C19B)	-0.406	-0.428	0.262	7.751	37.659	36.133	-75.70	22.47	-87.24	-34.692	-10.290	2.646	-0.64304	0.32748	-0.52805	0.44757	30.3	13111	100
2025-3-27 20:28:20.518	WT901BLE68-01(48591DE3C19B)	-0.406	-0.443	0.202	-1.343	28.137	32.654	-75.73	22.91	-87.53	-34.692	-10.290	2.646	-0.64304	0.32748	-0.52805	0.44757	30.3	13111	100
2025-3-27 20:28:20.575	WT901BLE68-01(48591DE3C19B)	-0.420	-0.443	0.202	-1.343	28.137	32.654	-75.79	23.31	-87.79	-34.692	-10.290	2.646	-0.64304	0.32748	-0.52805	0.44757	30.3	13111	100
2025-3-27 20:28:20.575	WT901BLE68-01(48591DE3C19B)	-0.420	-0.478	0.172	-9.888	5.127	26.428	-75.84	23.67	-87.92	-34.692	-10.290	2.646	-0.64304	0.32748	-0.52805	0.44757	30.3	13111	100
2025-3-27 20:28:20.575	WT901BLE68-01(48591DE3C19B)	-0.418	-0.478	0.172	-9.888	5.127	26.428	-75.89	23.97	-87.95	-34.692	-10.290	2.646	-0.64304	0.32748	-0.52805	0.44757	30.3	13111	100
2025-3-27 20:28:20.576	WT901BLE68-01(48591DE3C19B)	-0.418	-0.529	0.174	-16.541	-21.912	18.860	-75.92	24.20	-87.84	-34.692	-10.290	2.646	-0.64304	0.32748	-0.52805	0.44757	30.3	13111	100
2025-3-27 20:28:20.605	WT901BLE68-01(48591DE3C19B)	-0.389	-0.529	0.174	-16.541	-21.912	18.860	-75.93	24.36	-87.60	-34.692	-10.290	2.646	-0.64304	0.32748	-0.52805	0.44757	30.3	13111	100
2025-3-27 20:28:20.605	WT901BLE68-01(48591DE3C19B)	-0.389	-0.616	0.180	-20.325	-38.940	12.756	-75.93	24.47	-87.28	-34.692	-10.290	2.646	-0.64304	0.32748	-0.52805	0.44757	30.3	13111	100
2025-3-27 20:28:20.605	WT901BLE68-01(48591DE3C19B)	-0.358	-0.616	0.180	-20.325	-38.940	12.756	-75.90	24.54	-86.87	-34.692	-10.290	2.646	-0.64304	0.32748	-0.52805	0.44757	30.3	13111	100
2025-3-27 20:28:20.605	WT901BLE68-01(48591DE3C19B)	-0.358	-0.713	0.172	-19.531	-44.983	8.179	-75.87	24.57	-86.44	-34.692	-10.290	2.646	-0.64304	0.32748	-0.52805	0.44757	30.3	13111	100
2025-3-27 20:28:20.634	WT901BLE68-01(48591DE3C19B)	-0.326	-0.713	0.172	-19.531	-44.983	8.179	-75.83	24.58	-85.98	-34.692	-10.290	2.646	-0.64304	0.32748	-0.52805	0.44757	30.3	13111	100
2025-3-27 20:28:20.635	WT901BLE68-01(48591DE3C19B)	-0.326	-0.727	0.187	-17.090	-44.006	7.202	-75.78	24.57	-85.54	-34.692	-10.290	2.646	-0.64304	0.32748	-0.52805	0.44757	30.3	13111	100
2025-3-27 20:28:20.635	WT901BLE68-01(48591DE3C19B)	-0.290	-0.727	0.187	-17.090	-44.006	7.202	-75.72	24.56	-85.10	-34.692	-10.290	2.646	-0.64304	0.32748	-0.52805	0.44757	30.3	13111	100
2025-3-27 20:28:20.635	WT901BLE68-01(48591DE3C19B)	-0.290	-0.645	0.221	-14.038	-37.537	10.681	-75.67	24.57	-84.69	-34.692	-10.290	2.646	-0.64304	0.32748	-0.52805	0.44757	30.3	13111	100
2025-3-27 20:28:20.697	WT901BLE68-01(48591DE3C19B)	-0.266	-0.645	0.221	-14.038	-37.537	10.681	-75.61	24.60	-84.31	-34.692	-10.290	2.646	-0.64304	0.32748	-0.52805	0.44757	30.3	13111	100
2025-3-27 20:28:20.697	WT901BLE68-01(48591DE3C19B)	-0.266	-0.514	0.238	-14.343	-31.372	18.799	-75.56	24.72	-83.98	-34.692	-10.290	2.646	-0.64304	0.32748	-0.52805	0.44757	30.3	13111	100
2025-3-27 20:28:20.698	WT901BLE68-01(48591DE3C19B)	-0.248	-0.514	0.238	-14.343	-31.372	18.799	-75.52	24.84	-83.66	-34.692	-10.290	2.646	-0.64304	0.32748	-0.52805	0.44757	30.3	13111	100
2025-3-27 20:28:20.698	WT901BLE68-01(48591DE3C19B)	-0.248	-0.461	0.223	-21.301	-29.419	28.381	-75.54	25.05	-83.33	-34.692	-10.290	2.646	-0.64304	0.32748	-0.52805	0.44757	30.3	13111	100
2025-3-27 20:28:20.727	WT901BLE68-01(48591DE3C19B)	-0.247	-0.461	0.223	-21.301	-29.419	28.381	-75.55	25.26	-83.01	-34.692	-10.290	2.646	-0.64304	0.32748	-0.52805	0.44757	30.3	13111	100
2025-3-27 20:28:20.728	WT901BLE68-01(48591DE3C19B)	-0.247	-0.602	0.190	-32.715	-35.278	36.255	-75.64	25.53	-82.60	-34.692	-10.290	2.646	-0.64304	0.32748	-0.52805	0.44757	30.3	13111	100
2025-3-27 20:28:20.728	WT901BLE68-01(48591DE3C19B)	-0.279	-0.602	0.190	-32.715	-35.278	36.255	-75.73	25.80	-82.19	-34.692	-10.290	2.646	-0.64304	0.32748	-0.52805	0.44757	30.3	13111	100
2025-3-27 20:28:20.728	WT901BLE68-01(48591DE3C19B)	-0.279	-0.888	0.133	-41.626	-44.250	37.170	-75.87	26.04	-81.69	-36.750	-17.836	4.116	-0.64304	0.32748	-0.52805	0.44757	30.3	13111	100
2025-3-27 20:28:20.757	WT901BLE68-01(48591DE3C19B)	-0.331	-0.888	0.133	-41.626	-44.250	37.170	-76.01	26.28	-81.18	-36.750	-17.836	4.116	-0.64304	0.32748	-0.52805	0.44757	30.3	13111	100
2025-3-27 20:28:20.757	WT901BLE68-01(48591DE3C19B)	-0.331	-1.285	0.116	-42.114	-51.880	27.161	-76.14	26.41	-80.61	-36.750	-17.836	4.116	-0.64304	0.32748	-0.52805	0.44757	30.3	13111	100
2025-3-27 20:28:20.757	WT901BLE68-01(48591DE3C19B)	-0.420	-1.285	0.116	-42.114	-51.880	27.161	-76.28	26.52	-80.04	-36.750	-17.836	4.116	-0.64304	0.32748	-0.52805	0.44757	30.3	13111	100
2025-3-27 20:28:20.757	WT901BLE68-01(48591DE3C19B)	-0.420	-1.697	0.116	-31.006	-58.594	18.982	-76.30	26.53	-79.41	-36.750	-17.836	4.116	-0.64304	0.32748	-0.52805	0.44757	30.3	13111	100
2025-3-27 20:28:20.815	WT901BLE68-01(48591DE3C19B)	-0.394	-1.697	0.116	-31.006	-58.594	18.982	-76.33	26.53	-78.78	-36.750	-17.836	4.116	-0.64304	0.32748	-0.52805	0.44757	30.3	13111	100
2025-3-27 20:28:20.816	WT901BLE68-01(48591DE3C19B)	-0.394	-1.942	0.145	-15.686	-61.768	-1.404	-76.22	26.32	-78.18	-36.750	-17.836	4.116	-0.64304	0.32748	-0.52805	0.44757	30.3	13111	100
2025-3-27 20:28:20.816	WT901BLE68-01(48591DE3C19B)	-0.327	-1.942	0.145	-15.686	-61.768	-1.404	-76.12	26.11	-77.58	-36.750	-17.836	4.116	-0.64304	0.32748	-0.52805	0.44757	30.3	13111	100
2025-3-27 20:28:20.816	WT901BLE68-01(48591DE3C19B)	-0.327	-1.785	0.188	0.793	-47.058	-1.587	-75.93	25.93	-77.14	-36.750	-17.836	4.116	-0.64304	0.32748	-0.52805	0.44757	30.3	13111	100
2025-3-27 20:28:20.845	WT901BLE68-01(48591DE3C19B)	-0.244	-1.785	0.188	0.793	-47.058	-1.587	-75.75	25.74	-76.71	-36.750	-17.836	4.116	-0.64304	0.32748	-0.52805	0.44757	30.3	13111	100
2025-3-27 20:28:20.846	WT901BLE68-01(48591DE3C19B)	-0.244	-1.512	0.198	5.493	-9.949	-2.502	-75.70	25.63	-76.68	-36.750	-17.836	4.116	-0.64304	0.32748	-0.52805	0.44757	30.3	13111	100
2025-3-27 20:28:20.846	WT901BLE68-01(48591DE3C19B)	-0.214	-1.512	0.198	5.493	-9.949	-2.502	-75.65	25.51	-76.66	-36.750	-17.836	4.116	-0.64304	0.32748	-0.52805	0.44757	30.3	13111	100
2025-3-27 20:28:20.846	WT901BLE68-01(48591DE3C19B)	-0.214	-1.313	0.204	9.033	28.198	1.648	-75.74	25.53	-77.03	-36.750	-17.836	4.116	-0.64304	0.32748	-0.52805	0.44757	30.3	13111	100
2025-3-27 20:28:20.874	WT901BLE68-01(48591DE3C19B)	-0.201	-1.313	0.204	9.033	28.198	1.648	-75.82	25.54	-77.39	-36.750	-17.836	4.116	-0.64304	0.32748	-0.52805	0.44757	30.3	13111	100
2025-3-27 20:28:20.874	WT901BLE68-01(48591DE3C19B)	-0.201	-1.028	0.231	10.010	49.377	2.808	-75.99	25.62	-77.98	-36.750	-17.836	4.116	-0.64304	0.32748	-0.52805	0.44757	30.3	13111	100
2025-3-27 20:28:20.874	WT901BLE68-01(48591DE3C19B)	-0.218	-1.028	0.231	10.010	49.377	2.808	-76.16	25.69	-78.57	-36.750	-17.836	4.116	-0.64304	0.32748	-0.52805	0.44757	30.3	13111	100
2025-3-27 20:28:20.875	WT901BLE68-01(48591DE3C19B)	-0.218	-0.781	0.230	5.127	51.636	2.319	-76.38	25.76	-79.18	-36.750	-17.836	4.116	-0.64304	0.32748	-0.52805	0.44757	30.3	13111	100
2025-3-27 20:28:20.935	WT901BLE68-01(48591DE3C19B)	-0.242	-0.781	0.230	5.127	51.636	2.319	-76.60	25.83	-79.79	-36.750	-17.836	4.116	-0.64304	0.32748	-0.52805	0.44757	30.3	13111	100
2025-3-27 20:28:20.935	WT901BLE68-01(48591DE3C19B)	-0.242	-0.653	0.204	-0.122	45.715	-4.028	-76.85	25.82	-80.35	-36.750	-17.836	4.116	-0.64304	0.32748	-0.52805	0.44757	30.3	13111	100
2025-3-27 20:28:20.936	WT901BLE68-01(48591DE3C19B)	-0.257	-0.653	0.204	-0.122	45.715	-4.028	-77.10	25.81	-80.90	-36.750	-17.836	4.116	-0.64304	0.32748	-0.52805	0.44757	30.3	13111	100
2025-3-27 20:28:20.936	WT901BLE68-01(48591DE3C19B)	-0.257	-0.605	0.157	-0.305	39.429	-9.705	-77.31	25.74	-81.39	-36.750	-17.836	4.116	-0.64304	0.32748	-0.52805	0.44757	30.3	13111	100
2025-3-27 20:28:20.995	WT901BLE68-01(48591DE3C19B)	-0.280	-0.605	0.157	-0.305	39.429	-9.705	-77.53	25.66	-81.88	-36.750	-17.836	4.116	-0.66537	0.34763	-0.53082	0.39316	30.3	13111	100
2025-3-27 20:28:20.996	WT901BLE68-01(48591DE3C19B)	-0.280	-0.568	0.116	4.028	36.865	-12.939	-77.68	25.55	-82.34	-36.750	-17.836	4.116	-0.66537	0.34763	-0.53082	0.39316	30.3	13111	100
2025-3-27 20:28:20.996	WT901BLE68-01(48591DE3C19B)	-0.338	-0.568	0.116	4.028	36.865	-12.939	-77.83	25.44	-82.80	-36.750	-17.836	4.116	-0.66537	0.34763	-0.53082	0.39316	30.3	13111	100
2025-3-27 20:28:20.996	WT901BLE68-01(48591DE3C19B)	-0.338	-0.556	0.125	10.742	31.616	-16.174	-77.90	25.31	-83.20	-36.750	-17.836	4.116	-0.66537	0.34763	-0.53082	0.39316	30.3	13111	100
2025-3-27 20:28:20.997	WT901BLE68-01(48591DE3C19B)	-0.382	-0.556	0.125	10.742	31.616	-16.174	-77.96	25.17	-83.60	-36.750	-17.836	4.116	-0.66537	0.34763	-0.53082	0.39316	30.3	13111	100
2025-3-27 20:28:20.997	WT901BLE68-01(48591DE3C19B)	-0.382	-0.561	0.167	16.296	21.912	-14.832	-77.92	25.03	-83.88	-36.750	-17.836	4.116	-0.66537	0.34763	-0.53082	0.39316	30.3	13111	100
2025-3-27 20:28:20.997	WT901BLE68-01(48591DE3C19B)	-0.386	-0.561	0.167	16.296	21.912	-14.832	-77.87	24.91	-84.17	-36.750	-17.836	4.116	-0.66537	0.34763	-0.53082	0.39316	30.3	13111	100
2025-3-27 20:28:20.997	WT901BLE68-01(48591DE3C19B)	-0.386	-0.555	0.182	23.865	14.771	-9.827	-77.71	24.82	-84.36	-36.750	-17.836	4.116	-0.66537	0.34763	-0.53082	0.39316	30.3	13111	100
2025-3-27 20:28:21.55	WT901BLE68-01(48591DE3C19B)	-0.332	-0.555	0.182	23.865	14.771	-9.827	-77.54	24.74	-84.55	-36.750	-17.836	4.116	-0.66537	0.34763	-0.53082	0.39316	30.3	13111	100
2025-3-27 20:28:21.55	WT901BLE68-01(48591DE3C19B)	-0.332	-0.489	0.139	29.480	16.357	-1.221	-77.32	24.75	-84.73	-36.750	-17.836	4.116	-0.66537	0.34763	-0.53082	0.39316	30.3	13111	100
2025-3-27 20:28:21.55	WT901BLE68-01(48591DE3C19B)	-0.307	-0.489	0.139	29.480	16.357	-1.221	-77.10	24.77	-84.92	-36.750	-17.836	4.116	-0.66537	0.34763	-0.53082	0.39316	30.3	13111	100
2025-3-27 20:28:21.55	WT901BLE68-01(48591DE3C19B)	-0.307	-0.423	0.088	29.480	23.926	11.414	-76.90	24.93	-85.15	-36.750	-17.836	4.116	-0.66537	0.34763	-0.53082	0.39316	30.3	13111	100
2025-3-27 20:28:21.85	WT901BLE68-01(48591DE3C19B)	-0.292	-0.423	0.088	29.480	23.926	11.414	-76.70	25.10	-85.37	-36.750	-17.836	4.116	-0.66537	0.34763	-0.53082	0.39316	30.3	13111	100
2025-3-27 20:28:21.86	WT901BLE68-01(48591DE3C19B)	-0.292	-0.438	0.075	20.874	32.349	25.208	-76.61	25.42	-85.64	-36.750	-17.836	4.116	-0.66537	0.34763	-0.53082	0.39316	30.3	13111	100
2025-3-27 20:28:21.86	WT901BLE68-01(48591DE3C19B)	-0.338	-0.438	0.075	20.874	32.349	25.208	-76.54	25.75	-85.91	-36.750	-17.836	4.116	-0.66537	0.34763	-0.53082	0.39316	30.3	13111	100
2025-3-27 20:28:21.86	WT901BLE68-01(48591DE3C19B)	-0.338	-0.576	0.089	6.226	32.288	29.846	-76.60	26.12	-86.16	-36.750	-17.836	4.116	-0.66537	0.34763	-0.53082	0.39316	30.3	13111	100
2025-3-27 20:28:21.114	WT901BLE68-01(48591DE3C19B)	-0.452	-0.576	0.089	6.226	32.288	29.846	-76.66	26.49	-86.40	-36.750	-17.836	4.116	-0.66537	0.34763	-0.53082	0.39316	30.3	13111	100
2025-3-27 20:28:21.115	WT901BLE68-01(48591DE3C19B)	-0.623	-0.830	0.154	-10.803	26.917	19.165	-76.89	26.74	-86.61	-36.750	-17.836	4.116	-0.66537	0.34763	-0.53082	0.39316	30.3	13111	100
2025-3-27 20:28:21.115	WT901BLE68-01(48591DE3C19B)	-0.623	-1.204	0.314	-13.245	17.944	-7.324	-77.12	26.85	-86.79	-36.750	-17.836	4.116	-0.66537	0.34763	-0.53082	0.39316	30.3	13111	100
2025-3-27 20:28:21.115	WT901BLE68-01(48591DE3C19B)	-0.846	-1.204	0.314	-13.245	17.944	-7.324	-77.35	26.82	-86.96	-36.750	-17.836	4.116	-0.66537	0.34763	-0.53082	0.39316	30.3	13111	100
2025-3-27 20:28:21.175	WT901BLE68-01(48591DE3C19B)	-0.846	-1.479	0.514	-7.446	2.502	-44.800	-77.53	26.59	-87.08	-36.750	-17.836	4.116	-0.66537	0.34763	-0.53082	0.39316	30.3	13111	100
2025-3-27 20:28:21.175	WT901BLE68-01(48591DE3C19B)	-0.980	-1.479	0.514	-7.446	2.502	-44.800	-77.66	26.16	-87.18	-31.556	-26.362	9.310	-0.66537	0.34763	-0.53082	0.39316	30.3	13111	100
2025-3-27 20:28:21.175	WT901BLE68-01(48591DE3C19B)	-0.980	-1.773	0.541	-11.902	-6.897	-61.829	-77.78	25.65	-87.24	-31.556	-26.362	9.310	-0.66537	0.34763	-0.53082	0.39316	30.3	13111	100
2025-3-27 20:28:21.175	WT901BLE68-01(48591DE3C19B)	-0.920	-1.773	0.541	-11.902	-6.897	-61.829	-77.92	25.05	-87.28	-31.556	-26.362	9.310	-0.66537	0.34763	-0.53082	0.39316	30.3	13111	100
2025-3-27 20:28:21.204	WT901BLE68-01(48591DE3C19B)	-0.920	-1.593	0.458	4.883	8.118	-67.078	-78.00	24.44	-87.40	-31.556	-26.362	9.310	-0.66537	0.34763	-0.53082	0.39316	30.3	13111	100
2025-3-27 20:28:21.205	WT901BLE68-01(48591DE3C19B)	-0.779	-1.593	0.458	4.883	8.118	-67.078	-78.02	23.82	-87.59	-31.556	-26.362	9.310	-0.66537	0.34763	-0.53082	0.39316	30.3	13111	100
2025-3-27 20:28:21.205	WT901BLE68-01(48591DE3C19B)	-0.779	-1.180	0.381	2.930	16.724	-59.998	-78.07	23.26	-87.83	-31.556	-26.362	9.310	-0.66537	0.34763	-0.53082	0.39316	30.3	13111	100
2025-3-27 20:28:21.205	WT901BLE68-01(48591DE3C19B)	-0.643	-1.180	0.381	2.930	16.724	-59.998	-78.15	22.74	-88.09	-31.556	-26.362	9.310	-0.66537	0.34763	-0.53082	0.39316	30.3	13111	100
2025-3-27 20:28:21.270	WT901BLE68-01(48591DE3C19B)	-0.643	-0.948	0.345	1.770	1.587	-44.312	-78.18	22.29	-88.26	-31.556	-26.362	9.310	-0.66537	0.34763	-0.53082	0.39316	30.3	13111	100
2025-3-27 20:28:21.270	WT901BLE68-01(48591DE3C19B)	-0.588	-0.948	0.345	1.770	1.587	-44.312	-78.18	21.91	-88.33	-31.556	-26.362	9.310	-0.66537	0.34763	-0.53082	0.39316	30.3	13111	100
2025-3-27 20:28:21.271	WT901BLE68-01(48591DE3C19B)	-0.588	-0.898	0.335	-9.705	-37.598	-16.785	-78.16	21.62	-88.17	-31.556	-26.362	9.310	-0.66537	0.34763	-0.53082	0.39316	30.3	13111	100
2025-3-27 20:28:21.271	WT901BLE68-01(48591DE3C19B)	-0.492	-0.898	0.335	-9.705	-37.598	-16.785	-78.10	21.43	-87.77	-31.556	-26.362	9.310	-0.66537	0.34763	-0.53082	0.39316	30.3	13111	100
2025-3-27 20:28:21.297	WT901BLE68-01(48591DE3C19B)	-0.492	-0.982	0.299	-16.174	-66.101	4.944	-78.00	21.31	-87.21	-31.556	-26.362	9.310	-0.66537	0.34763	-0.53082	0.39316	30.3	13111	100
2025-3-27 20:28:21.297	WT901BLE68-01(48591DE3C19B)	-0.344	-0.982	0.299	-16.174	-66.101	4.944	-77.88	21.28	-86.48	-31.556	-26.362	9.310	-0.66537	0.34763	-0.53082	0.39316	30.3	13111	100
2025-3-27 20:28:21.297	WT901BLE68-01(48591DE3C19B)	-0.344	-0.888	0.282	-11.353	-65.369	20.935	-77.73	21.31	-85.75	-31.556	-26.362	9.310	-0.66537	0.34763	-0.53082	0.39316	30.3	13111	100
2025-3-27 20:28:21.297	WT901BLE68-01(48591DE3C19B)	-0.247	-0.888	0.282	-11.353	-65.369	20.935	-77.55	21.41	-85.02	-31.556	-26.362	9.310	-0.66537	0.34763	-0.53082	0.39316	30.3	13111	100
2025-3-27 20:28:21.327	WT901BLE68-01(48591DE3C19B)	-0.247	-0.758	0.260	-4.578	-42.603	31.250	-77.37	21.59	-84.40	-31.556	-26.362	9.310	-0.66537	0.34763	-0.53082	0.39316	30.3	13111	100
2025-3-27 20:28:21.327	WT901BLE68-01(48591DE3C19B)	-0.174	-0.758	0.260	-4.578	-42.603	31.250	-77.20	21.83	-83.89	-31.556	-26.362	9.310	-0.66537	0.34763	-0.53082	0.39316	30.3	13111	100
2025-3-27 20:28:21.327	WT901BLE68-01(48591DE3C19B)	-0.174	-0.629	0.219	0.000	-11.475	30.518	-77.05	22.10	-83.55	-31.556	-26.362	9.310	-0.65292	0.35532	-0.51929	0.42151	30.3	13111	100
2025-3-27 20:28:21.327	WT901BLE68-01(48591DE3C19B)	-0.252	-0.629	0.219	0.000	-11.475	30.518	-76.95	22.38	-83.39	-31.556	-26.362	9.310	-0.65292	0.35532	-0.51929	0.42151	30.3	13111	100
2025-3-27 20:28:21.385	WT901BLE68-01(48591DE3C19B)	-0.252	-0.610	0.197	0.427	16.724	25.452	-76.90	22.68	-83.38	-31.556	-26.362	9.310	-0.65292	0.35532	-0.51929	0.42151	30.3	13111	100
2025-3-27 20:28:21.386	WT901BLE68-01(48591DE3C19B)	-0.419	-0.610	0.197	0.427	16.724	25.452	-76.92	22.97	-83.52	-31.556	-26.362	9.310	-0.65292	0.35532	-0.51929	0.42151	30.3	13111	100
2025-3-27 20:28:21.386	WT901BLE68-01(48591DE3C19B)	-0.419	-0.668	0.206	2.075	26.611	14.465	-76.95	23.23	-83.74	-31.556	-26.362	9.310	-0.65292	0.35532	-0.51929	0.42151	30.3	13111	100
2025-3-27 20:28:21.386	WT901BLE68-01(48591DE3C19B)	-0.477	-0.668	0.206	2.075	26.611	14.465	-77.00	23.43	-84.01	-31.556	-26.362	9.310	-0.65292	0.35532	-0.51929	0.42151	30.3	13111	100
2025-3-27 20:28:21.414	WT901BLE68-01(48591DE3C19B)	-0.477	-0.627	0.263	7.690	19.409	9.521	-77.00	23.62	-84.26	-31.556	-26.362	9.310	-0.65292	0.35532	-0.51929	0.42151	30.3	13111	100
2025-3-27 20:28:21.415	WT901BLE68-01(48591DE3C19B)	-0.403	-0.627	0.263	7.690	19.409	9.521	-76.97	23.77	-84.47	-31.556	-26.362	9.310	-0.65292	0.35532	-0.51929	0.42151	30.3	13111	100
2025-3-27 20:28:21.415	WT901BLE68-01(48591DE3C19B)	-0.403	-0.466	0.260	11.475	2.869	13.000	-76.88	23.92	-84.61	-31.556	-26.362	9.310	-0.65292	0.35532	-0.51929	0.42151	30.3	13111	100
2025-3-27 20:28:21.415	WT901BLE68-01(48591DE3C19B)	-0.302	-0.466	0.260	11.475	2.869	13.000	-76.72	24.08	-84.65	-31.556	-26.362	9.310	-0.65292	0.35532	-0.51929	0.42151	30.3	13111	100
2025-3-27 20:28:21.445	WT901BLE68-01(48591DE3C19B)	-0.302	-0.282	0.239	12.268	-10.132	24.170	-76.53	24.27	-84.63	-31.556	-26.362	9.310	-0.65292	0.35532	-0.51929	0.42151	30.3	13111	100
2025-3-27 20:28:21.445	WT901BLE68-01(48591DE3C19B)	-0.284	-0.282	0.239	12.268	-10.132	24.170	-76.29	24.51	-84.53	-31.556	-26.362	9.310	-0.65292	0.35532	-0.51929	0.42151	30.3	13111	100
2025-3-27 20:28:21.445	WT901BLE68-01(48591DE3C19B)	-0.284	-0.189	0.178	1.709	-25.574	39.001	-76.05	24.80	-84.35	-31.556	-26.362	9.310	-0.65292	0.35532	-0.51929	0.42151	30.3	13111	100
2025-3-27 20:28:21.445	WT901BLE68-01(48591DE3C19B)	-0.280	-0.189	0.178	1.709	-25.574	39.001	-75.82	25.14	-84.09	-31.556	-26.362	9.310	-0.65292	0.35532	-0.51929	0.42151	30.3	13111	100
2025-3-27 20:28:21.507	WT901BLE68-01(48591DE3C19B)	-0.280	-0.296	0.087	-20.081	-47.241	52.673	-75.63	25.53	-83.70	-31.556	-26.362	9.310	-0.65292	0.35532	-0.51929	0.42151	30.3	13111	100
2025-3-27 20:28:21.507	WT901BLE68-01(48591DE3C19B)	-0.251	-0.296	0.087	-20.081	-47.241	52.673	-75.49	25.95	-83.18	-31.556	-26.362	9.310	-0.65292	0.35532	-0.51929	0.42151	30.3	13111	100
2025-3-27 20:28:21.507	WT901BLE68-01(48591DE3C19B)	-0.251	-0.557	0.001	-42.297	-68.420	61.401	-75.40	26.39	-82.53	-31.556	-26.362	9.310	-0.65292	0.35532	-0.51929	0.42151	30.3	13111	100
2025-3-27 20:28:21.507	WT901BLE68-01(48591DE3C19B)	-0.229	-0.557	0.001	-42.297	-68.420	61.401	-75.38	26.84	-81.73	-31.556	-26.362	9.310	-0.65292	0.35532	-0.51929	0.42151	30.3	13111	100
2025-3-27 20:28:21.537	WT901BLE68-01(48591DE3C19B)	-0.229	-0.921	-0.022	-60.974	-81.604	62.500	-75.42	27.27	-80.82	-31.556	-26.362	9.310	-0.65292	0.35532	-0.51929	0.42151	30.3	13111	100
2025-3-27 20:28:21.537	WT901BLE68-01(48591DE3C19B)	-0.291	-0.921	-0.022	-60.974	-81.604	62.500	-75.54	27.68	-79.82	-31.556	-26.362	9.310	-0.65292	0.35532	-0.51929	0.42151	30.3	13111	100
2025-3-27 20:28:21.537	WT901BLE68-01(48591DE3C19B)	-0.291	-1.575	0.033	-62.439	-84.839	52.612	-75.66	28.03	-78.78	-31.556	-26.362	9.310	-0.65292	0.35532	-0.51929	0.42151	30.3	13111	100
2025-3-27 20:28:21.537	WT901BLE68-01(48591DE3C19B)	-0.327	-1.575	0.033	-62.439	-84.839	52.612	-75.81	28.30	-77.74	-38.122	-32.340	7.840	-0.65292	0.35532	-0.51929	0.42151	30.3	13111	100
2025-3-27 20:28:21.571	WT901BLE68-01(48591DE3C19B)	-0.327	-2.186	0.085	-22.217	-75.012	25.940	-75.79	28.44	-76.79	-38.122	-32.340	7.840	-0.65292	0.35532	-0.51929	0.42151	30.3	13111	100
2025-3-27 20:28:21.571	WT901BLE68-01(48591DE3C19B)	-0.326	-2.186	0.085	-22.217	-75.012	25.940	-75.64	28.45	-75.93	-38.122	-32.340	7.840	-0.65292	0.35532	-0.51929	0.42151	30.3	13111	100
2025-3-27 20:28:21.571	WT901BLE68-01(48591DE3C19B)	-0.326	-2.123	0.176	11.353	-52.490	3.723	-75.40	28.37	-75.24	-38.122	-32.340	7.840	-0.65292	0.35532	-0.51929	0.42151	30.3	13111	100
2025-3-27 20:28:21.571	WT901BLE68-01(48591DE3C19B)	-0.335	-2.123	0.176	11.353	-52.490	3.723	-75.07	28.19	-74.71	-38.122	-32.340	7.840	-0.65292	0.35532	-0.51929	0.42151	30.3	13111	100
2025-3-27 20:28:21.625	WT901BLE68-01(48591DE3C19B)	-0.335	-1.725	0.154	30.884	3.052	-18.494	-74.81	27.98	-74.52	-38.122	-32.340	7.840	-0.65292	0.35532	-0.51929	0.42151	30.3	13111	100
2025-3-27 20:28:21.625	WT901BLE68-01(48591DE3C19B)	-0.340	-1.725	0.154	30.884	3.052	-18.494	-74.61	27.73	-74.67	-38.122	-32.340	7.840	-0.65292	0.35532	-0.51929	0.42151	30.3	13111	100
2025-3-27 20:28:21.625	WT901BLE68-01(48591DE3C19B)	-0.340	-1.453	0.068	38.574	68.909	-26.978	-74.68	27.57	-75.56	-38.122	-32.340	7.840	-0.65292	0.35532	-0.51929	0.42151	30.3	13111	100
2025-3-27 20:28:21.626	WT901BLE68-01(48591DE3C19B)	-0.329	-1.453	0.068	38.574	68.909	-26.978	-74.75	27.41	-76.44	-38.122	-32.340	7.840	-0.65292	0.35532	-0.51929	0.42151	30.3	13111	100
2025-3-27 20:28:21.685	WT901BLE68-01(48591DE3C19B)	-0.329	-1.166	0.081	48.828	112.366	-30.151	-74.93	27.34	-77.79	-38.122	-32.340	7.840	-0.65292	0.35532	-0.51929	0.42151	30.3	13111	100
2025-3-27 20:28:21.685	WT901BLE68-01(48591DE3C19B)	-0.270	-1.166	0.081	48.828	112.366	-30.151	-75.11	27.26	-79.12	-38.122	-32.340	7.840	-0.65292	0.35532	-0.51929	0.42151	30.3	13111	100
2025-3-27 20:28:21.686	WT901BLE68-01(48591DE3C19B)	-0.270	-0.815	0.130	49.377	124.878	-31.982	-75.34	27.19	-80.58	-38.122	-32.340	7.840	-0.65292	0.35532	-0.51929	0.42151	30.3	13111	100
2025-3-27 20:28:21.686	WT901BLE68-01(48591DE3C19B)	-0.256	-0.815	0.130	49.377	124.878	-31.982	-75.56	27.12	-82.03	-38.122	-32.340	7.840	-0.65292	0.35532	-0.51929	0.42151	30.3	13111	100
2025-3-27 20:28:21.687	WT901BLE68-01(48591DE3C19B)	-0.256	-0.559	0.150	36.682	111.755	-30.579	-75.84	27.02	-83.33	-38.122	-32.340	7.840	-0.65292	0.35532	-0.51929	0.42151	30.3	13111	100
2025-3-27 20:28:21.687	WT901BLE68-01(48591DE3C19B)	-0.324	-0.559	0.150	36.682	111.755	-30.579	-76.11	26.93	-84.61	-38.122	-32.340	7.840	-0.65292	0.35532	-0.51929	0.42151	30.3	13111	100
2025-3-27 20:28:21.687	WT901BLE68-01(48591DE3C19B)	-0.324	-0.443	0.138	22.949	83.130	-33.936	-76.37	26.73	-85.57	-38.122	-32.340	7.840	-0.65292	0.35532	-0.51929	0.42151	30.3	13111	100
2025-3-27 20:28:21.687	WT901BLE68-01(48591DE3C19B)	-0.401	-0.443	0.138	22.949	83.130	-33.936	-76.62	26.53	-86.52	-38.122	-32.340	7.840	-0.65292	0.35532	-0.51929	0.42151	30.3	13111	100
2025-3-27 20:28:21.745	WT901BLE68-01(48591DE3C19B)	-0.401	-0.416	0.121	18.616	57.129	-36.072	-76.78	26.27	-87.18	-38.122	-32.340	7.840	-0.65292	0.35532	-0.51929	0.42151	30.3	13111	100
2025-3-27 20:28:21.745	WT901BLE68-01(48591DE3C19B)	-0.442	-0.416	0.121	18.616	57.129	-36.072	-76.94	26.00	-87.82	-38.122	-32.340	7.840	-0.65292	0.35532	-0.51929	0.42151	30.3	13111	100
2025-3-27 20:28:21.745	WT901BLE68-01(48591DE3C19B)	-0.442	-0.406	0.100	20.325	45.166	-33.081	-77.01	25.76	-88.32	-38.122	-32.340	7.840	-0.65292	0.35532	-0.51929	0.42151	30.3	13111	100
2025-3-27 20:28:21.746	WT901BLE68-01(48591DE3C19B)	-0.469	-0.406	0.100	20.325	45.166	-33.081	-77.08	25.52	-88.80	-38.122	-32.340	7.840	-0.65292	0.35532	-0.51929	0.42151	30.3	13111	100
2025-3-27 20:28:21.774	WT901BLE68-01(48591DE3C19B)	-0.469	-0.420	0.072	24.475	35.828	-23.254	-77.05	25.37	-89.15	-38.122	-32.340	7.840	-0.63885	0.31180	-0.54895	0.43954	30.3	13111	100
2025-3-27 20:28:21.774	WT901BLE68-01(48591DE3C19B)	-0.493	-0.420	0.072	24.475	35.828	-23.254	-77.02	25.22	-89.47	-38.122	-32.340	7.840	-0.63885	0.31180	-0.54895	0.43954	30.3	13111	100
2025-3-27 20:28:21.774	WT901BLE68-01(48591DE3C19B)	-0.493	-0.411	0.124	30.090	24.231	0.671	-76.86	25.30	-89.60	-38.122	-32.340	7.840	-0.63885	0.31180	-0.54895	0.43954	30.3	13111	100
2025-3-27 20:28:21.774	WT901BLE68-01(48591DE3C19B)	-0.469	-0.411	0.124	30.090	24.231	0.671	-76.70	25.38	-89.71	-38.122	-32.340	7.840	-0.63885	0.31180	-0.54895	0.43954	30.3	13111	100
2025-3-27 20:28:21.835	WT901BLE68-01(48591DE3C19B)	-0.469	-0.393	0.150	31.982	17.334	25.085	-76.46	25.70	-89.68	-38.122	-32.340	7.840	-0.63885	0.31180	-0.54895	0.43954	30.3	13111	100
2025-3-27 20:28:21.835	WT901BLE68-01(48591DE3C19B)	-0.468	-0.393	0.150	31.982	17.334	25.085	-76.22	26.02	-89.63	-38.122	-32.340	7.840	-0.63885	0.31180	-0.54895	0.43954	30.3	13111	100
2025-3-27 20:28:21.835	WT901BLE68-01(48591DE3C19B)	-0.468	-0.449	0.158	31.311	14.832	44.983	-75.95	26.53	-89.49	-38.122	-32.340	7.840	-0.63885	0.31180	-0.54895	0.43954	30.3	13111	100
2025-3-27 20:28:21.835	WT901BLE68-01(48591DE3C19B)	-0.492	-0.449	0.158	31.311	14.832	44.983	-75.68	27.05	-89.32	-38.122	-32.340	7.840	-0.63885	0.31180	-0.54895	0.43954	30.3	13111	100
2025-3-27 20:28:21.871	WT901BLE68-01(48591DE3C19B)	-0.492	-0.567	0.143	21.484	11.597	51.147	-75.49	27.61	-89.09	-38.122	-32.340	7.840	-0.63885	0.31180	-0.54895	0.43954	30.3	13111	100
2025-3-27 20:28:21.871	WT901BLE68-01(48591DE3C19B)	-0.442	-0.567	0.143	21.484	11.597	51.147	-75.29	28.18	-88.84	-38.122	-32.340	7.840	-0.63885	0.31180	-0.54895	0.43954	30.3	13111	100
2025-3-27 20:28:21.871	WT901BLE68-01(48591DE3C19B)	-0.442	-0.802	0.152	5.127	16.296	43.091	-75.29	28.67	-88.65	-38.122	-32.340	7.840	-0.63885	0.31180	-0.54895	0.43954	30.3	13111	100
2025-3-27 20:28:21.871	WT901BLE68-01(48591DE3C19B)	-0.541	-0.802	0.152	5.127	16.296	43.091	-75.30	29.16	-88.48	-38.122	-32.340	7.840	-0.63885	0.31180	-0.54895	0.43954	30.3	13111	100
2025-3-27 20:28:21.895	WT901BLE68-01(48591DE3C19B)	-0.541	-1.249	0.286	-1.648	24.658	16.479	-75.44	29.40	-88.52	-38.122	-32.340	7.840	-0.63885	0.31180	-0.54895	0.43954	30.3	13111	100
2025-3-27 20:28:21.896	WT901BLE68-01(48591DE3C19B)	-0.751	-1.249	0.286	-1.648	24.658	16.479	-75.59	29.62	-88.57	-38.122	-32.340	7.840	-0.63885	0.31180	-0.54895	0.43954	30.3	13111	100
2025-3-27 20:28:21.896	WT901BLE68-01(48591DE3C19B)	-0.751	-1.625	0.459	0.488	15.564	-27.283	-75.72	29.40	-88.68	-38.122	-32.340	7.840	-0.63885	0.31180	-0.54895	0.43954	30.3	13111	100
2025-3-27 20:28:21.896	WT901BLE68-01(48591DE3C19B)	-0.899	-1.625	0.459	0.488	15.564	-27.283	-75.84	29.17	-88.81	-38.122	-32.340	7.840	-0.63885	0.31180	-0.54895	0.43954	30.3	13111	100
2025-3-27 20:28:21.924	WT901BLE68-01(48591DE3C19B)	-0.899	-1.683	0.559	-4.456	2.258	-58.472	-75.97	28.61	-88.89	-38.122	-32.340	7.840	-0.63885	0.31180	-0.54895	0.43954	30.3	13111	100
2025-3-27 20:28:21.924	WT901BLE68-01(48591DE3C19B)	-0.944	-1.683	0.559	-4.456	2.258	-58.472	-76.10	28.05	-88.99	-38.122	-32.340	7.840	-0.63885	0.31180	-0.54895	0.43954	30.3	13111	100
2025-3-27 20:28:21.924	WT901BLE68-01(48591DE3C19B)	-0.944	-1.388	0.583	1.892	16.174	-65.125	-76.23	27.47	-89.27	-38.122	-32.340	7.840	-0.63885	0.31180	-0.54895	0.43954	30.3	13111	100
2025-3-27 20:28:21.924	WT901BLE68-01(48591DE3C19B)	-0.824	-1.388	0.583	1.892	16.174	-65.125	-76.35	26.88	-89.56	-38.122	-32.340	7.840	-0.63885	0.31180	-0.54895	0.43954	30.3	13111	100
2025-3-27 20:28:21.985	WT901BLE68-01(48591DE3C19B)	-0.824	-0.997	0.551	-1.831	22.522	-58.350	-76.53	26.39	-89.92	-38.122	-32.340	7.840	-0.63885	0.31180	-0.54895	0.43954	30.3	13111	100
2025-3-27 20:28:21.985	WT901BLE68-01(48591DE3C19B)	-0.603	-0.997	0.551	-1.831	22.522	-58.350	-76.69	25.90	-90.30	-34.398	-40.278	14.112	-0.63885	0.31180	-0.54895	0.43954	30.3	13111	100
2025-3-27 20:28:21.986	WT901BLE68-01(48591DE3C19B)	-0.603	-0.731	0.418	-10.254	5.981	-47.607	-76.83	25.48	-90.50	-34.398	-40.278	14.112	-0.63885	0.31180	-0.54895	0.43954	30.3	13111	100
2025-3-27 20:28:21.986	WT901BLE68-01(48591DE3C19B)	-0.519	-0.731	0.418	-10.254	5.981	-47.607	-76.97	25.07	-90.71	-34.398	-40.278	14.112	-0.63885	0.31180	-0.54895	0.43954	30.3	13111	100
2025-3-27 20:28:22.14	WT901BLE68-01(48591DE3C19B)	-0.519	-0.521	0.271	-20.081	-39.490	-25.269	-76.97	24.77	-90.41	-34.398	-40.278	14.112	-0.63885	0.31180	-0.54895	0.43954	30.3	13111	100
2025-3-27 20:28:22.14	WT901BLE68-01(48591DE3C19B)	-0.481	-0.521	0.271	-20.081	-39.490	-25.269	-76.96	24.48	-90.13	-34.398	-40.278	14.112	-0.63885	0.31180	-0.54895	0.43954	30.3	13111	100
2025-3-27 20:28:22.14	WT901BLE68-01(48591DE3C19B)	-0.481	-0.539	0.140	-44.250	-91.125	-10.742	-76.96	24.22	-89.27	-34.398	-40.278	14.112	-0.63885	0.31180	-0.54895	0.43954	30.3	13111	100
2025-3-27 20:28:22.14	WT901BLE68-01(48591DE3C19B)	-0.379	-0.539	0.140	-44.250	-91.125	-10.742	-76.97	23.96	-88.42	-34.398	-40.278	14.112	-0.63885	0.31180	-0.54895	0.43954	30.3	13111	100
2025-3-27 20:28:22.45	WT901BLE68-01(48591DE3C19B)	-0.379	-0.727	0.102	-48.096	-98.877	-1.404	-76.98	23.77	-87.44	-34.398	-40.278	14.112	-0.63885	0.31180	-0.54895	0.43954	30.3	13111	100
2025-3-27 20:28:22.46	WT901BLE68-01(48591DE3C19B)	-0.392	-0.727	0.102	-48.096	-98.877	-1.404	-77.00	23.59	-86.45	-34.398	-40.278	14.112	-0.63885	0.31180	-0.54895	0.43954	30.3	13111	100
2025-3-27 20:28:22.46	WT901BLE68-01(48591DE3C19B)	-0.428	-0.802	0.162	-30.579	-68.481	2.380	-76.98	23.51	-85.76	-34.398	-40.278	14.112	-0.63885	0.31180	-0.54895	0.43954	30.3	13111	100
2025-3-27 20:28:22.46	WT901BLE68-01(48591DE3C19B)	-0.428	-0.800	0.269	-21.729	-40.527	-2.747	-76.98	23.43	-85.23	-34.398	-40.278	14.112	-0.63885	0.31180	-0.54895	0.43954	30.3	13111	100
2025-3-27 20:28:22.107	WT901BLE68-01(48591DE3C19B)	-0.434	-0.800	0.269	-21.729	-40.527	-2.747	-77.00	23.36	-84.86	-34.398	-40.278	14.112	-0.63885	0.31180	-0.54895	0.43954	30.3	13111	100
2025-3-27 20:28:22.107	WT901BLE68-01(48591DE3C19B)	-0.434	-0.760	0.293	-9.033	-19.348	-3.357	-77.00	23.31	-84.62	-34.398	-40.278	14.112	-0.63885	0.31180	-0.54895	0.43954	30.3	13111	100
2025-3-27 20:28:22.107	WT901BLE68-01(48591DE3C19B)	-0.390	-0.760	0.293	-9.033	-19.348	-3.357	-76.98	23.27	-84.50	-34.398	-40.278	14.112	-0.63885	0.31180	-0.54895	0.43954	30.3	13111	100
2025-3-27 20:28:22.107	WT901BLE68-01(48591DE3C19B)	-0.390	-0.557	0.275	4.822	-2.686	5.371	-76.91	23.30	-84.47	-34.398	-40.278	14.112	-0.63885	0.31180	-0.54895	0.43954	30.3	13111	100
2025-3-27 20:28:22.137	WT901BLE68-01(48591DE3C19B)	-0.348	-0.557	0.275	4.822	-2.686	5.371	-76.81	23.38	-84.53	-34.398	-40.278	14.112	-0.63885	0.31180	-0.54895	0.43954	30.3	13111	100
2025-3-27 20:28:22.137	WT901BLE68-01(48591DE3C19B)	-0.348	-0.351	0.254	11.902	10.803	21.423	-76.68	23.57	-84.66	-34.398	-40.278	14.112	-0.63885	0.31180	-0.54895	0.43954	30.3	13111	100
2025-3-27 20:28:22.137	WT901BLE68-01(48591DE3C19B)	-0.337	-0.351	0.254	11.902	10.803	21.423	-76.53	23.83	-84.85	-34.398	-40.278	14.112	-0.63885	0.31180	-0.54895	0.43954	30.3	13111	100
2025-3-27 20:28:22.137	WT901BLE68-01(48591DE3C19B)	-0.337	-0.260	0.211	7.080	15.869	40.833	-76.40	24.20	-85.08	-34.398	-40.278	14.112	-0.65375	0.33414	-0.53021	0.42392	30.3	13111	100
2025-3-27 20:28:22.170	WT901BLE68-01(48591DE3C19B)	-0.317	-0.260	0.211	7.080	15.869	40.833	-76.29	24.68	-85.33	-34.398	-40.278	14.112	-0.65375	0.33414	-0.53021	0.42392	30.3	13111	100
2025-3-27 20:28:22.170	WT901BLE68-01(48591DE3C19B)	-0.317	-0.351	0.163	-8.240	-0.793	59.692	-76.21	25.21	-85.48	-34.398	-40.278	14.112	-0.65375	0.33414	-0.53021	0.42392	30.3	13111	100
2025-3-27 20:28:22.170	WT901BLE68-01(48591DE3C19B)	-0.296	-0.351	0.163	-8.240	-0.793	59.692	-76.16	25.82	-85.53	-34.398	-40.278	14.112	-0.65375	0.33414	-0.53021	0.42392	30.3	13111	100
2025-3-27 20:28:22.170	WT901BLE68-01(48591DE3C19B)	-0.296	-0.625	0.142	-22.644	-28.809	69.763	-76.10	26.44	-85.42	-34.398	-40.278	14.112	-0.65375	0.33414	-0.53021	0.42392	30.3	13111	100
2025-3-27 20:28:22.225	WT901BLE68-01(48591DE3C19B)	-0.344	-0.625	0.142	-22.644	-28.809	69.763	-76.04	27.08	-85.11	-34.398	-40.278	14.112	-0.65375	0.33414	-0.53021	0.42392	30.3	13111	100
2025-3-27 20:28:22.225	WT901BLE68-01(48591DE3C19B)	-0.344	-0.957	0.146	-31.372	-49.133	70.251	-75.98	27.68	-84.66	-34.398	-40.278	14.112	-0.65375	0.33414	-0.53021	0.42392	30.3	13111	100
2025-3-27 20:28:22.226	WT901BLE68-01(48591DE3C19B)	-0.405	-0.957	0.146	-31.372	-49.133	70.251	-75.92	28.25	-84.06	-34.398	-40.278	14.112	-0.65375	0.33414	-0.53021	0.42392	30.3	13111	100
2025-3-27 20:28:22.226	WT901BLE68-01(48591DE3C19B)	-0.405	-1.486	0.164	-38.269	-65.063	63.049	-75.86	28.76	-83.35	-34.398	-40.278	14.112	-0.65375	0.33414	-0.53021	0.42392	30.3	13111	100
2025-3-27 20:28:22.285	WT901BLE68-01(48591DE3C19B)	-0.417	-1.486	0.164	-38.269	-65.063	63.049	-75.81	29.19	-82.53	-34.398	-40.278	14.112	-0.65375	0.33414	-0.53021	0.42392	30.3	13111	100
2025-3-27 20:28:22.285	WT901BLE68-01(48591DE3C19B)	-0.417	-2.220	0.140	-19.897	-61.768	29.724	-75.69	29.45	-81.75	-34.398	-40.278	14.112	-0.65375	0.33414	-0.53021	0.42392	30.3	13111	100
2025-3-27 20:28:22.286	WT901BLE68-01(48591DE3C19B)	-0.426	-2.220	0.140	-19.897	-61.768	29.724	-75.54	29.54	-81.02	-34.398	-40.278	14.112	-0.65375	0.33414	-0.53021	0.42392	30.3	13111	100
2025-3-27 20:28:22.286	WT901BLE68-01(48591DE3C19B)	-0.426	-2.191	0.202	20.020	-40.955	22.034	-75.25	29.61	-80.42	-34.398	-40.278	14.112	-0.65375	0.33414	-0.53021	0.42392	30.3	13111	100
2025-3-27 20:28:22.287	WT901BLE68-01(48591DE3C19B)	-0.420	-2.191	0.202	20.020	-40.955	22.034	-74.83	29.65	-79.94	-34.398	-40.278	14.112	-0.65375	0.33414	-0.53021	0.42392	30.3	13111	100
2025-3-27 20:28:22.287	WT901BLE68-01(48591DE3C19B)	-0.420	-1.581	0.269	34.302	-9.766	9.460	-74.45	29.66	-79.65	-34.398	-40.278	14.112	-0.65375	0.33414	-0.53021	0.42392	30.3	13111	100
2025-3-27 20:28:22.287	WT901BLE68-01(48591DE3C19B)	-0.266	-1.581	0.269	34.302	-9.766	9.460	-74.09	29.65	-79.56	-34.398	-40.278	14.112	-0.65375	0.33414	-0.53021	0.42392	30.3	13111	100
2025-3-27 20:28:22.287	WT901BLE68-01(48591DE3C19B)	-0.133	-1.265	0.219	33.264	33.508	9.155	-73.85	29.70	-79.72	-34.398	-40.278	14.112	-0.65375	0.33414	-0.53021	0.42392	30.3	13111	100
2025-3-27 20:28:22.375	WT901BLE68-01(48591DE3C19B)	-0.167	-0.632	0.109	33.264	33.508	9.155	-73.74	29.79	-80.11	-34.398	-40.278	14.112	-0.65375	0.33414	-0.53021	0.42392	30.3	13111	100
2025-3-27 20:28:22.375	WT901BLE68-01(48591DE3C19B)	-0.167	-1.014	0.208	36.865	86.121	5.005	-73.76	29.95	-80.79	-34.398	-40.278	14.112	-0.65375	0.33414	-0.53021	0.42392	30.3	13111	100
2025-3-27 20:28:22.375	WT901BLE68-01(48591DE3C19B)	-0.184	-1.014	0.208	36.865	86.121	5.005	-73.91	30.15	-81.78	-34.398	-40.278	14.112	-0.65375	0.33414	-0.53021	0.42392	30.3	13111	100
2025-3-27 20:28:22.375	WT901BLE68-01(48591DE3C19B)	-0.184	-0.804	0.175	31.982	109.802	-1.282	-74.16	30.35	-82.90	-34.398	-40.278	14.112	-0.65375	0.33414	-0.53021	0.42392	30.3	13111	100
2025-3-27 20:28:22.376	WT901BLE68-01(48591DE3C19B)	-0.250	-0.804	0.175	31.982	109.802	-1.282	-74.51	30.54	-84.16	-45.276	-45.668	9.114	-0.65375	0.33414	-0.53021	0.42392	30.3	13111	100
2025-3-27 20:28:22.376	WT901BLE68-01(48591DE3C19B)	-0.250	-0.692	0.146	22.705	98.938	-11.169	-74.88	30.66	-85.37	-45.276	-45.668	9.114	-0.65375	0.33414	-0.53021	0.42392	30.3	13111	100
2025-3-27 20:28:22.377	WT901BLE68-01(48591DE3C19B)	-0.304	-0.692	0.146	22.705	98.938	-11.169	-75.27	30.72	-86.53	-45.276	-45.668	9.114	-0.65375	0.33414	-0.53021	0.42392	30.3	13111	100
2025-3-27 20:28:22.377	WT901BLE68-01(48591DE3C19B)	-0.304	-0.571	0.133	20.508	79.102	-19.409	-75.61	30.70	-87.58	-45.276	-45.668	9.114	-0.65375	0.33414	-0.53021	0.42392	30.3	13111	100
2025-3-27 20:28:22.435	WT901BLE68-01(48591DE3C19B)	-0.348	-0.571	0.133	20.508	79.102	-19.409	-75.92	30.62	-88.52	-45.276	-45.668	9.114	-0.65375	0.33414	-0.53021	0.42392	30.3	13111	100
2025-3-27 20:28:22.435	WT901BLE68-01(48591DE3C19B)	-0.348	-0.393	0.121	23.010	67.139	-20.081	-76.17	30.52	-89.39	-45.276	-45.668	9.114	-0.65375	0.33414	-0.53021	0.42392	30.3	13111	100
2025-3-27 20:28:22.435	WT901BLE68-01(48591DE3C19B)	-0.396	-0.393	0.121	23.010	67.139	-20.081	-76.37	30.42	-90.19	-45.276	-45.668	9.114	-0.65375	0.33414	-0.53021	0.42392	30.3	13111	100
2025-3-27 20:28:22.435	WT901BLE68-01(48591DE3C19B)	-0.396	-0.282	0.114	21.179	62.195	-15.442	-76.55	30.33	-90.94	-45.276	-45.668	9.114	-0.65375	0.33414	-0.53021	0.42392	30.3	13111	100
2025-3-27 20:28:22.471	WT901BLE68-01(48591DE3C19B)	-0.446	-0.282	0.114	21.179	62.195	-15.442	-76.72	30.27	-91.65	-45.276	-45.668	9.114	-0.65375	0.33414	-0.53021	0.42392	30.3	13111	100
2025-3-27 20:28:22.471	WT901BLE68-01(48591DE3C19B)	-0.446	-0.272	0.122	22.034	52.673	-2.686	-76.85	30.27	-92.30	-45.276	-45.668	9.114	-0.65375	0.33414	-0.53021	0.42392	30.3	13111	100
2025-3-27 20:28:22.471	WT901BLE68-01(48591DE3C19B)	-0.464	-0.272	0.122	22.034	52.673	-2.686	-76.94	30.33	-92.87	-45.276	-45.668	9.114	-0.65375	0.33414	-0.53021	0.42392	30.3	13111	100
2025-3-27 20:28:22.471	WT901BLE68-01(48591DE3C19B)	-0.464	-0.249	0.134	19.836	34.302	12.939	-76.97	30.46	-93.31	-45.276	-45.668	9.114	-0.65375	0.33414	-0.53021	0.42392	30.3	13111	100
2025-3-27 20:28:22.495	WT901BLE68-01(48591DE3C19B)	-0.452	-0.249	0.134	19.836	34.302	12.939	-76.95	30.66	-93.64	-45.276	-45.668	9.114	-0.65375	0.33414	-0.53021	0.42392	30.3	13111	100
2025-3-27 20:28:22.495	WT901BLE68-01(48591DE3C19B)	-0.452	-0.236	0.144	10.864	18.372	24.353	-76.92	30.90	-93.88	-45.276	-45.668	9.114	-0.65375	0.33414	-0.53021	0.42392	30.3	13111	100
2025-3-27 20:28:22.496	WT901BLE68-01(48591DE3C19B)	-0.467	-0.236	0.144	10.864	18.372	24.353	-76.87	31.20	-94.06	-45.276	-45.668	9.114	-0.65375	0.33414	-0.53021	0.42392	30.3	13111	100
2025-3-27 20:28:22.496	WT901BLE68-01(48591DE3C19B)	-0.467	-0.365	0.168	-0.244	2.380	30.090	-76.82	31.51	-94.20	-45.276	-45.668	9.114	-0.65375	0.33414	-0.53021	0.42392	30.3	13111	100
2025-3-27 20:28:22.527	WT901BLE68-01(48591DE3C19B)	-0.532	-0.365	0.168	-0.244	2.380	30.090	-76.77	31.83	-94.32	-45.276	-45.668	9.114	-0.65375	0.33414	-0.53021	0.42392	30.3	13111	100
2025-3-27 20:28:22.527	WT901BLE68-01(48591DE3C19B)	-0.532	-0.589	0.185	-10.498	-9.338	26.245	-76.74	32.09	-94.37	-45.276	-45.668	9.114	-0.65375	0.33414	-0.53021	0.42392	30.3	13111	100
2025-3-27 20:28:22.527	WT901BLE68-01(48591DE3C19B)	-0.596	-0.589	0.185	-10.498	-9.338	26.245	-76.72	32.35	-94.47	-45.276	-45.668	9.114	-0.65375	0.33414	-0.53021	0.42392	30.3	13111	100
2025-3-27 20:28:22.527	WT901BLE68-01(48591DE3C19B)	-0.596	-0.830	0.208	-17.944	-13.916	10.986	-76.77	32.45	-94.52	-45.276	-45.668	9.114	-0.65375	0.33414	-0.53021	0.42392	30.3	13111	100
2025-3-27 20:28:22.584	WT901BLE68-01(48591DE3C19B)	-0.700	-0.830	0.208	-17.944	-13.916	10.986	-76.82	32.55	-94.53	-45.276	-45.668	9.114	-0.65375	0.33414	-0.53021	0.42392	30.3	13111	100
2025-3-27 20:28:22.584	WT901BLE68-01(48591DE3C19B)	-0.700	-1.051	0.285	-17.700	-16.602	-12.878	-76.88	32.40	-94.55	-45.276	-45.668	9.114	-0.63770	0.24451	-0.58685	0.43478	30.3	13111	100
2025-3-27 20:28:22.584	WT901BLE68-01(48591DE3C19B)	-0.768	-1.051	0.285	-17.700	-16.602	-12.878	-76.95	32.26	-94.53	-45.276	-45.668	9.114	-0.63770	0.24451	-0.58685	0.43478	30.3	13111	100
2025-3-27 20:28:22.585	WT901BLE68-01(48591DE3C19B)	-0.768	-1.155	0.394	-23.682	-19.958	-48.218	-77.11	31.76	-94.58	-45.276	-45.668	9.114	-0.63770	0.24451	-0.58685	0.43478	30.3	13111	100
2025-3-27 20:28:22.645	WT901BLE68-01(48591DE3C19B)	-0.987	-1.155	0.394	-23.682	-19.958	-48.218	-77.27	31.27	-94.63	-45.276	-45.668	9.114	-0.63770	0.24451	-0.58685	0.43478	30.3	13111	100
2025-3-27 20:28:22.646	WT901BLE68-01(48591DE3C19B)	-0.987	-1.364	0.455	-25.574	-13.306	-52.979	-77.49	30.73	-94.77	-45.276	-45.668	9.114	-0.63770	0.24451	-0.58685	0.43478	30.3	13111	100
2025-3-27 20:28:22.646	WT901BLE68-01(48591DE3C19B)	-1.030	-1.364	0.455	-25.574	-13.306	-52.979	-77.70	30.21	-94.93	-45.276	-45.668	9.114	-0.63770	0.24451	-0.58685	0.43478	30.3	13111	100
2025-3-27 20:28:22.646	WT901BLE68-01(48591DE3C19B)	-1.030	-1.290	0.449	-17.700	-0.488	-50.598	-77.89	29.73	-95.24	-45.276	-45.668	9.114	-0.63770	0.24451	-0.58685	0.43478	30.3	13111	100
2025-3-27 20:28:22.674	WT901BLE68-01(48591DE3C19B)	-0.768	-1.290	0.449	-17.700	-0.488	-50.598	-78.08	29.27	-95.57	-45.276	-45.668	9.114	-0.63770	0.24451	-0.58685	0.43478	30.3	13111	100
2025-3-27 20:28:22.674	WT901BLE68-01(48591DE3C19B)	-0.768	-1.132	0.350	-18.372	-3.052	-46.936	-78.26	28.83	-95.86	-45.276	-45.668	9.114	-0.63770	0.24451	-0.58685	0.43478	30.3	13111	100
2025-3-27 20:28:22.675	WT901BLE68-01(48591DE3C19B)	-0.543	-1.132	0.350	-18.372	-3.052	-46.936	-78.43	28.39	-96.13	-45.276	-45.668	9.114	-0.63770	0.24451	-0.58685	0.43478	30.3	13111	100
2025-3-27 20:28:22.675	WT901BLE68-01(48591DE3C19B)	-0.543	-1.014	0.214	-10.315	-5.554	-36.682	-78.50	28.04	-96.33	-45.276	-45.668	9.114	-0.63770	0.24451	-0.58685	0.43478	30.3	13111	100
2025-3-27 20:28:22.705	WT901BLE68-01(48591DE3C19B)	-0.547	-1.014	0.214	-10.315	-5.554	-36.682	-78.57	27.70	-96.50	-45.276	-45.668	9.114	-0.63770	0.24451	-0.58685	0.43478	30.3	13111	100
2025-3-27 20:28:22.705	WT901BLE68-01(48591DE3C19B)	-0.547	-0.952	0.153	-4.395	-7.874	-23.193	-78.56	27.49	-96.59	-45.276	-45.668	9.114	-0.63770	0.24451	-0.58685	0.43478	30.3	13111	100
2025-3-27 20:28:22.705	WT901BLE68-01(48591DE3C19B)	-0.484	-0.952	0.153	-4.395	-7.874	-23.193	-78.56	27.28	-96.65	-45.276	-45.668	9.114	-0.63770	0.24451	-0.58685	0.43478	30.3	13111	100
2025-3-27 20:28:22.705	WT901BLE68-01(48591DE3C19B)	-0.484	-0.949	0.137	-2.441	-3.235	-18.921	-78.57	27.11	-96.74	-45.276	-45.668	9.114	-0.63770	0.24451	-0.58685	0.43478	30.3	13111	100
2025-3-27 20:28:22.734	WT901BLE68-01(48591DE3C19B)	-0.375	-0.949	0.137	-2.441	-3.235	-18.921	-78.58	26.95	-96.80	-45.276	-45.668	9.114	-0.63770	0.24451	-0.58685	0.43478	30.3	13111	100
2025-3-27 20:28:22.735	WT901BLE68-01(48591DE3C19B)	-0.375	-0.772	0.201	5.554	16.602	-15.869	-78.60	26.86	-97.06	-45.276	-45.668	9.114	-0.63770	0.24451	-0.58685	0.43478	30.3	13111	100
2025-3-27 20:28:22.735	WT901BLE68-01(48591DE3C19B)	-0.287	-0.772	0.201	5.554	16.602	-15.869	-78.63	26.76	-97.33	-45.276	-45.668	9.114	-0.63770	0.24451	-0.58685	0.43478	30.3	13111	100
2025-3-27 20:28:22.735	WT901BLE68-01(48591DE3C19B)	-0.287	-0.537	0.194	5.249	41.565	-11.475	-78.77	26.75	-97.87	-45.276	-45.668	9.114	-0.63770	0.24451	-0.58685	0.43478	30.3	13111	100
2025-3-27 20:28:22.795	WT901BLE68-01(48591DE3C19B)	-0.370	-0.537	0.194	5.249	41.565	-11.475	-78.91	26.74	-98.40	-45.276	-45.668	9.114	-0.63770	0.24451	-0.58685	0.43478	30.3	13111	100
2025-3-27 20:28:22.796	WT901BLE68-01(48591DE3C19B)	-0.370	-0.378	0.179	7.080	53.894	-2.930	-79.09	26.84	-99.07	-43.316	-51.450	9.898	-0.63770	0.24451	-0.58685	0.43478	30.3	13111	100
2025-3-27 20:28:22.796	WT901BLE68-01(48591DE3C19B)	-0.500	-0.378	0.179	7.080	53.894	-2.930	-79.25	26.93	-99.76	-43.316	-51.450	9.898	-0.63770	0.24451	-0.58685	0.43478	30.3	13111	100
2025-3-27 20:28:22.796	WT901BLE68-01(48591DE3C19B)	-0.500	-0.214	0.169	2.869	27.100	7.263	-79.31	27.09	-100.18	-43.316	-51.450	9.898	-0.63770	0.24451	-0.58685	0.43478	30.3	13111	100
2025-3-27 20:28:22.824	WT901BLE68-01(48591DE3C19B)	-0.487	-0.214	0.169	2.869	27.100	7.263	-79.36	27.24	-100.68	-43.316	-51.450	9.898	-0.63770	0.24451	-0.58685	0.43478	30.3	13111	100
2025-3-27 20:28:22.824	WT901BLE68-01(48591DE3C19B)	-0.487	-0.091	0.172	-15.442	-23.499	19.165	-79.31	27.42	-100.68	-43.316	-51.450	9.898	-0.63770	0.24451	-0.58685	0.43478	30.3	13111	100
2025-3-27 20:28:22.824	WT901BLE68-01(48591DE3C19B)	-0.410	-0.091	0.172	-15.442	-23.499	19.165	-79.24	27.59	-100.78	-43.316	-51.450	9.898	-0.63770	0.24451	-0.58685	0.43478	30.3	13111	100
2025-3-27 20:28:22.824	WT901BLE68-01(48591DE3C19B)	-0.410	-0.197	0.144	-37.964	-66.345	26.062	-79.15	27.75	-100.43	-43.316	-51.450	9.898	-0.63770	0.24451	-0.58685	0.43478	30.3	13111	100
2025-3-27 20:28:22.855	WT901BLE68-01(48591DE3C19B)	-0.406	-0.197	0.144	-37.964	-66.345	26.062	-79.05	27.91	-100.09	-43.316	-51.450	9.898	-0.63770	0.24451	-0.58685	0.43478	30.3	13111	100
2025-3-27 20:28:22.855	WT901BLE68-01(48591DE3C19B)	-0.406	-0.544	0.098	-54.688	-92.590	27.954	-78.99	28.03	-99.45	-43.316	-51.450	9.898	-0.63770	0.24451	-0.58685	0.43478	30.3	13111	100
2025-3-27 20:28:22.855	WT901BLE68-01(48591DE3C19B)	-0.442	-0.544	0.098	-54.688	-92.590	27.954	-78.93	28.16	-98.80	-43.316	-51.450	9.898	-0.63770	0.24451	-0.58685	0.43478	30.3	13111	100
2025-3-27 20:28:22.855	WT901BLE68-01(48591DE3C19B)	-0.442	-0.978	0.060	-62.073	-106.323	27.893	-78.89	28.26	-97.92	-43.316	-51.450	9.898	-0.63770	0.24451	-0.58685	0.43478	30.3	13111	100
2025-3-27 20:28:22.916	WT901BLE68-01(48591DE3C19B)	-0.418	-0.978	0.060	-62.073	-106.323	27.893	-78.87	28.38	-96.93	-43.316	-51.450	9.898	-0.63770	0.24451	-0.58685	0.43478	30.3	13111	100
2025-3-27 20:28:22.916	WT901BLE68-01(48591DE3C19B)	-0.418	-1.624	0.052	-52.979	-101.440	15.564	-78.84	28.37	-95.86	-43.316	-51.450	9.898	-0.63770	0.24451	-0.58685	0.43478	30.3	13111	100
2025-3-27 20:28:22.916	WT901BLE68-01(48591DE3C19B)	-0.424	-1.624	0.052	-52.979	-101.440	15.564	-78.82	28.33	-94.72	-43.316	-51.450	9.898	-0.63770	0.24451	-0.58685	0.43478	30.3	13111	100
2025-3-27 20:28:22.917	WT901BLE68-01(48591DE3C19B)	-0.424	-2.178	0.032	-19.775	-70.862	-2.563	-78.66	28.16	-93.93	-43.316	-51.450	9.898	-0.63770	0.24451	-0.58685	0.43478	30.3	13111	100
2025-3-27 20:28:22.945	WT901BLE68-01(48591DE3C19B)	-0.442	-2.178	0.032	-19.775	-70.862	-2.563	-78.52	27.97	-93.12	-43.316	-51.450	9.898	-0.63770	0.24451	-0.58685	0.43478	30.3	13111	100
2025-3-27 20:28:22.945	WT901BLE68-01(48591DE3C19B)	-0.442	-2.062	0.100	17.517	-33.325	1.404	-78.21	27.88	-92.72	-43.316	-51.450	9.898	-0.63770	0.24451	-0.58685	0.43478	30.3	13111	100
2025-3-27 20:28:22.945	WT901BLE68-01(48591DE3C19B)	-0.361	-2.062	0.100	17.517	-33.325	1.404	-77.90	27.77	-92.32	-43.316	-51.450	9.898	-0.63770	0.24451	-0.58685	0.43478	30.3	13111	100
2025-3-27 20:28:22.945	WT901BLE68-01(48591DE3C19B)	-0.361	-1.615	0.123	26.428	18.005	-1.404	-77.77	27.75	-92.50	-43.316	-51.450	9.898	-0.63104	0.28589	-0.56921	0.44263	30.3	13111	100
2025-3-27 20:28:22.974	WT901BLE68-01(48591DE3C19B)	-0.224	-1.615	0.123	26.428	18.005	-1.404	-77.64	27.71	-92.68	-43.316	-51.450	9.898	-0.63104	0.28589	-0.56921	0.44263	30.3	13111	100
2025-3-27 20:28:22.975	WT901BLE68-01(48591DE3C19B)	-0.288	-1.521	0.102	30.151	76.782	-1.221	-77.78	27.80	-93.49	-43.316	-51.450	9.898	-0.63104	0.28589	-0.56921	0.44263	30.3	13111	100
2025-3-27 20:28:22.975	WT901BLE68-01(48591DE3C19B)	-0.288	-1.273	0.108	38.269	123.230	-0.183	-78.00	27.93	-94.56	-43.316	-51.450	9.898	-0.63104	0.28589	-0.56921	0.44263	30.3	13111	100
2025-3-27 20:28:22.975	WT901BLE68-01(48591DE3C19B)	-0.364	-1.273	0.108	38.269	123.230	-0.183	-78.29	28.11	-95.88	-43.316	-51.450	9.898	-0.63104	0.28589	-0.56921	0.44263	30.3	13111	100
2025-3-27 20:28:23.35	WT901BLE68-01(48591DE3C19B)	-0.364	-0.912	0.135	35.156	121.338	-5.127	-78.61	28.26	-97.20	-43.316	-51.450	9.898	-0.63104	0.28589	-0.56921	0.44263	30.3	13111	100
2025-3-27 20:28:23.35	WT901BLE68-01(48591DE3C19B)	-0.369	-0.912	0.135	35.156	121.338	-5.127	-78.93	28.37	-98.50	-43.316	-51.450	9.898	-0.63104	0.28589	-0.56921	0.44263	30.3	13111	100
2025-3-27 20:28:23.35	WT901BLE68-01(48591DE3C19B)	-0.369	-0.589	0.169	28.198	95.825	-10.681	-79.23	28.43	-99.66	-43.316	-51.450	9.898	-0.63104	0.28589	-0.56921	0.44263	30.3	13111	100
2025-3-27 20:28:23.36	WT901BLE68-01(48591DE3C19B)	-0.402	-0.589	0.169	28.198	95.825	-10.681	-79.49	28.43	-100.67	-43.316	-51.450	9.898	-0.63104	0.28589	-0.56921	0.44263	30.3	13111	100
2025-3-27 20:28:23.69	WT901BLE68-01(48591DE3C19B)	-0.402	-0.345	0.176	18.433	71.899	-7.385	-79.73	28.43	-101.56	-43.316	-51.450	9.898	-0.63104	0.28589	-0.56921	0.44263	30.3	13111	100
2025-3-27 20:28:23.70	WT901BLE68-01(48591DE3C19B)	-0.448	-0.345	0.176	18.433	71.899	-7.385	-79.94	28.44	-102.30	-43.316	-51.450	9.898	-0.63104	0.28589	-0.56921	0.44263	30.3	13111	100
2025-3-27 20:28:23.70	WT901BLE68-01(48591DE3C19B)	-0.448	-0.301	0.163	6.775	48.828	3.662	-80.15	28.48	-102.91	-43.316	-51.450	9.898	-0.63104	0.28589	-0.56921	0.44263	30.3	13111	100
2025-3-27 20:28:23.70	WT901BLE68-01(48591DE3C19B)	-0.470	-0.301	0.163	6.775	48.828	3.662	-80.34	28.56	-103.39	-43.316	-51.450	9.898	-0.63104	0.28589	-0.56921	0.44263	30.3	13111	100
2025-3-27 20:28:23.95	WT901BLE68-01(48591DE3C19B)	-0.470	-0.397	0.170	2.808	18.188	16.174	-80.46	28.70	-103.71	-43.316	-51.450	9.898	-0.63104	0.28589	-0.56921	0.44263	30.3	13111	100
2025-3-27 20:28:23.95	WT901BLE68-01(48591DE3C19B)	-0.442	-0.397	0.170	2.808	18.188	16.174	-80.51	28.87	-103.84	-43.316	-51.450	9.898	-0.63104	0.28589	-0.56921	0.44263	30.3	13111	100
2025-3-27 20:28:23.96	WT901BLE68-01(48591DE3C19B)	-0.442	-0.423	0.172	7.690	-13.489	30.273	-80.44	29.10	-103.82	-43.316	-51.450	9.898	-0.63104	0.28589	-0.56921	0.44263	30.3	13111	100
2025-3-27 20:28:23.96	WT901BLE68-01(48591DE3C19B)	-0.361	-0.423	0.172	7.690	-13.489	30.273	-80.26	29.37	-103.61	-43.316	-51.450	9.898	-0.63104	0.28589	-0.56921	0.44263	30.3	13111	100
2025-3-27 20:28:23.155	WT901BLE68-01(48591DE3C19B)	-0.361	-0.337	0.147	10.986	-36.621	43.884	-79.97	29.70	-103.29	-43.316	-51.450	9.898	-0.63104	0.28589	-0.56921	0.44263	30.3	13111	100
2025-3-27 20:28:23.155	WT901BLE68-01(48591DE3C19B)	-0.278	-0.337	0.147	10.986	-36.621	43.884	-79.59	30.06	-102.85	-43.316	-51.450	9.898	-0.63104	0.28589	-0.56921	0.44263	30.3	13111	100
2025-3-27 20:28:23.155	WT901BLE68-01(48591DE3C19B)	-0.278	-0.339	0.117	10.437	-38.757	55.786	-79.20	30.49	-102.41	-43.316	-51.450	9.898	-0.63104	0.28589	-0.56921	0.44263	30.3	13111	100
2025-3-27 20:28:23.155	WT901BLE68-01(48591DE3C19B)	-0.280	-0.339	0.117	10.437	-38.757	55.786	-78.79	30.97	-101.96	-43.316	-51.450	9.898	-0.63104	0.28589	-0.56921	0.44263	30.3	13111	100
2025-3-27 20:28:23.184	WT901BLE68-01(48591DE3C19B)	-0.280	-0.507	0.107	11.353	-19.836	56.641	-78.42	31.47	-101.61	-49.588	-58.506	7.742	-0.63104	0.28589	-0.56921	0.44263	30.3	13111	100
2025-3-27 20:28:23.184	WT901BLE68-01(48591DE3C19B)	-0.396	-0.507	0.107	11.353	-19.836	56.641	-78.11	31.99	-101.36	-49.588	-58.506	7.742	-0.63104	0.28589	-0.56921	0.44263	30.3	13111	100
2025-3-27 20:28:23.184	WT901BLE68-01(48591DE3C19B)	-0.396	-0.730	0.140	12.329	3.357	45.715	-77.86	32.46	-101.24	-49.588	-58.506	7.742	-0.63104	0.28589	-0.56921	0.44263	30.3	13111	100
2025-3-27 20:28:23.184	WT901BLE68-01(48591DE3C19B)	-0.499	-0.730	0.140	12.329	3.357	45.715	-77.70	32.90	-101.26	-49.588	-58.506	7.742	-0.63104	0.28589	-0.56921	0.44263	30.3	13111	100
2025-3-27 20:28:23.215	WT901BLE68-01(48591DE3C19B)	-0.499	-1.031	0.172	14.648	25.513	23.926	-77.60	33.26	-101.41	-49.588	-58.506	7.742	-0.63104	0.28589	-0.56921	0.44263	30.3	13111	100
2025-3-27 20:28:23.215	WT901BLE68-01(48591DE3C19B)	-0.596	-1.031	0.172	14.648	25.513	23.926	-77.59	33.53	-101.70	-49.588	-58.506	7.742	-0.63104	0.28589	-0.56921	0.44263	30.3	13111	100
2025-3-27 20:28:23.215	WT901BLE68-01(48591DE3C19B)	-0.596	-1.369	0.271	25.391	58.167	-19.043	-77.66	33.62	-102.22	-49.588	-58.506	7.742	-0.63104	0.28589	-0.56921	0.44263	30.3	13111	100
2025-3-27 20:28:23.215	WT901BLE68-01(48591DE3C19B)	-0.874	-1.369	0.271	25.391	58.167	-19.043	-77.82	33.52	-102.97	-49.588	-58.506	7.742	-0.63104	0.28589	-0.56921	0.44263	30.3	13111	100
2025-3-27 20:28:23.276	WT901BLE68-01(48591DE3C19B)	-0.874	-1.533	0.317	26.489	77.759	-54.626	-78.05	33.27	-103.88	-49.588	-58.506	7.742	-0.63104	0.28589	-0.56921	0.44263	30.3	13111	100
2025-3-27 20:28:23.276	WT901BLE68-01(48591DE3C19B)	-1.249	-1.533	0.317	26.489	77.759	-54.626	-78.35	32.87	-104.93	-49.588	-58.506	7.742	-0.63104	0.28589	-0.56921	0.44263	30.3	13111	100
2025-3-27 20:28:23.276	WT901BLE68-01(48591DE3C19B)	-1.249	-1.447	0.285	30.151	100.220	-62.500	-78.70	32.44	-106.11	-49.588	-58.506	7.742	-0.63104	0.28589	-0.56921	0.44263	30.3	13111	100
2025-3-27 20:28:23.276	WT901BLE68-01(48591DE3C19B)	-1.172	-1.447	0.285	30.151	100.220	-62.500	-79.09	32.01	-107.44	-49.588	-58.506	7.742	-0.63104	0.28589	-0.56921	0.44263	30.3	13111	100
2025-3-27 20:28:23.307	WT901BLE68-01(48591DE3C19B)	-1.172	-1.064	0.335	21.790	91.431	-54.810	-79.48	31.62	-108.73	-49.588	-58.506	7.742	-0.63104	0.28589	-0.56921	0.44263	30.3	13111	100
2025-3-27 20:28:23.307	WT901BLE68-01(48591DE3C19B)	-0.919	-1.064	0.335	21.790	91.431	-54.810	-79.85	31.26	-110.02	-49.588	-58.506	7.742	-0.63104	0.28589	-0.56921	0.44263	30.3	13111	100
2025-3-27 20:28:23.307	WT901BLE68-01(48591DE3C19B)	-0.919	-0.886	0.315	-2.502	54.688	-44.250	-80.22	30.91	-111.19	-49.588	-58.506	7.742	-0.63104	0.28589	-0.56921	0.44263	30.3	13111	100
2025-3-27 20:28:23.307	WT901BLE68-01(48591DE3C19B)	-0.753	-0.886	0.315	-2.502	54.688	-44.250	-80.57	30.59	-112.20	-49.588	-58.506	7.742	-0.63104	0.28589	-0.56921	0.44263	30.3	13111	100
2025-3-27 20:28:23.337	WT901BLE68-01(48591DE3C19B)	-0.753	-0.848	0.254	-15.625	-1.038	-25.269	-80.80	30.31	-112.93	-49.588	-58.506	7.742	-0.63104	0.28589	-0.56921	0.44263	30.3	13111	100
2025-3-27 20:28:23.337	WT901BLE68-01(48591DE3C19B)	-0.704	-0.848	0.254	-15.625	-1.038	-25.269	-80.92	30.08	-113.35	-49.588	-58.506	7.742	-0.63104	0.28589	-0.56921	0.44263	30.3	13111	100
2025-3-27 20:28:23.337	WT901BLE68-01(48591DE3C19B)	-0.704	-0.840	0.162	-27.954	-76.477	-13.306	-80.88	29.84	-113.35	-49.588	-58.506	7.742	-0.63104	0.28589	-0.56921	0.44263	30.3	13111	100
2025-3-27 20:28:23.337	WT901BLE68-01(48591DE3C19B)	-0.528	-0.840	0.162	-27.954	-76.477	-13.306	-80.68	29.61	-112.91	-49.588	-58.506	7.742	-0.63104	0.28589	-0.56921	0.44263	30.3	13111	100
2025-3-27 20:28:23.395	WT901BLE68-01(48591DE3C19B)	-0.528	-0.873	0.102	-28.015	-118.103	-6.958	-80.38	29.38	-112.24	-49.588	-58.506	7.742	-0.63104	0.28589	-0.56921	0.44263	30.3	13111	100
2025-3-27 20:28:23.396	WT901BLE68-01(48591DE3C19B)	-0.456	-0.873	0.102	-28.015	-118.103	-6.958	-79.97	29.14	-111.28	-49.588	-58.506	7.742	-0.55405	0.19424	-0.62015	0.52017	30.3	13111	100
2025-3-27 20:28:23.396	WT901BLE68-01(48591DE3C19B)	-0.456	-0.799	0.115	-15.381	-96.008	-10.620	-79.57	28.90	-110.42	-49.588	-58.506	7.742	-0.55405	0.19424	-0.62015	0.52017	30.3	13111	100
2025-3-27 20:28:23.396	WT901BLE68-01(48591DE3C19B)	-0.411	-0.799	0.115	-15.381	-96.008	-10.620	-79.19	28.65	-109.64	-49.588	-58.506	7.742	-0.55405	0.19424	-0.62015	0.52017	30.3	13111	100
2025-3-27 20:28:23.424	WT901BLE68-01(48591DE3C19B)	-0.411	-0.647	0.125	-9.888	-36.499	-19.714	-78.96	28.42	-109.17	-49.588	-58.506	7.742	-0.55405	0.19424	-0.62015	0.52017	30.3	13111	100
2025-3-27 20:28:23.424	WT901BLE68-01(48591DE3C19B)	-0.475	-0.647	0.125	-9.888	-36.499	-19.714	-78.87	28.20	-109.01	-49.588	-58.506	7.742	-0.55405	0.19424	-0.62015	0.52017	30.3	13111	100
2025-3-27 20:28:23.424	WT901BLE68-01(48591DE3C19B)	-0.475	-0.462	0.120	-5.005	15.076	-18.311	-78.89	28.03	-109.14	-49.588	-58.506	7.742	-0.55405	0.19424	-0.62015	0.52017	30.3	13111	100
2025-3-27 20:28:23.424	WT901BLE68-01(48591DE3C19B)	-0.504	-0.462	0.120	-5.005	15.076	-18.311	-79.01	27.92	-109.58	-49.588	-58.506	7.742	-0.55405	0.19424	-0.62015	0.52017	30.3	13111	100
2025-3-27 20:28:23.455	WT901BLE68-01(48591DE3C19B)	-0.504	-0.269	0.128	-3.418	34.668	-8.789	-79.19	27.94	-110.30	-49.588	-58.506	7.742	-0.55405	0.19424	-0.62015	0.52017	30.3	13111	100
2025-3-27 20:28:23.455	WT901BLE68-01(48591DE3C19B)	-0.476	-0.269	0.128	-3.418	34.668	-8.789	-79.37	27.97	-111.08	-49.588	-58.506	7.742	-0.55405	0.19424	-0.62015	0.52017	30.3	13111	100
2025-3-27 20:28:23.455	WT901BLE68-01(48591DE3C19B)	-0.476	-0.113	0.131	-8.362	18.799	3.540	-79.48	28.08	-111.72	-49.588	-58.506	7.742	-0.55405	0.19424	-0.62015	0.52017	30.3	13111	100
2025-3-27 20:28:23.455	WT901BLE68-01(48591DE3C19B)	-0.460	-0.113	0.131	-8.362	18.799	3.540	-79.57	28.19	-112.40	-49.588	-58.506	7.742	-0.55405	0.19424	-0.62015	0.52017	30.3	13111	100
2025-3-27 20:28:23.514	WT901BLE68-01(48591DE3C19B)	-0.460	-0.049	0.108	-22.156	-17.456	15.564	-79.58	28.34	-112.66	-49.588	-58.506	7.742	-0.55405	0.19424	-0.62015	0.52017	30.3	13111	100
2025-3-27 20:28:23.514	WT901BLE68-01(48591DE3C19B)	-0.423	-0.049	0.108	-22.156	-17.456	15.564	-79.58	28.50	-112.95	-49.588	-58.506	7.742	-0.55405	0.19424	-0.62015	0.52017	30.3	13111	100
2025-3-27 20:28:23.514	WT901BLE68-01(48591DE3C19B)	-0.423	-0.087	0.066	-41.443	-69.580	28.198	-79.47	28.70	-112.63	-49.588	-58.506	7.742	-0.55405	0.19424	-0.62015	0.52017	30.3	13111	100
2025-3-27 20:28:23.514	WT901BLE68-01(48591DE3C19B)	-0.332	-0.087	0.066	-41.443	-69.580	28.198	-79.34	28.88	-112.30	-49.588	-58.506	7.742	-0.55405	0.19424	-0.62015	0.52017	30.3	13111	100
2025-3-27 20:28:23.545	WT901BLE68-01(48591DE3C19B)	-0.332	-0.268	0.018	-57.922	-116.028	33.936	-79.12	29.04	-111.45	-49.588	-58.506	7.742	-0.55405	0.19424	-0.62015	0.52017	30.3	13111	100
2025-3-27 20:28:23.545	WT901BLE68-01(48591DE3C19B)	-0.290	-0.268	0.018	-57.922	-116.028	33.936	-78.89	29.20	-110.59	-49.588	-58.506	7.742	-0.55405	0.19424	-0.62015	0.52017	30.3	13111	100
2025-3-27 20:28:23.545	WT901BLE68-01(48591DE3C19B)	-0.290	-0.513	-0.024	-61.646	-139.221	30.396	-78.59	29.27	-109.50	-49.588	-58.506	7.742	-0.55405	0.19424	-0.62015	0.52017	30.3	13111	100
2025-3-27 20:28:23.545	WT901BLE68-01(48591DE3C19B)	-0.295	-0.513	-0.024	-61.646	-139.221	30.396	-78.29	29.34	-108.39	-49.588	-58.506	7.742	-0.55405	0.19424	-0.62015	0.52017	30.3	13111	100
2025-3-27 20:28:23.575	WT901BLE68-01(48591DE3C19B)	-0.295	-0.984	-0.037	-64.209	-139.648	19.897	-78.08	29.32	-107.26	-49.588	-58.506	7.742	-0.55405	0.19424	-0.62015	0.52017	30.3	13111	100
2025-3-27 20:28:23.575	WT901BLE68-01(48591DE3C19B)	-0.324	-0.984	-0.037	-64.209	-139.648	19.897	-77.93	29.29	-105.86	-49.588	-58.506	7.742	-0.55405	0.19424	-0.62015	0.52017	30.3	13111	100
2025-3-27 20:28:23.575	WT901BLE68-01(48591DE3C19B)	-0.324	-1.787	-0.072	-51.819	-128.418	-15.442	-77.81	28.89	-104.43	-58.212	-64.092	3.724	-0.55405	0.19424	-0.62015	0.52017	30.3	13111	100
2025-3-27 20:28:23.575	WT901BLE68-01(48591DE3C19B)	-0.472	-1.787	-0.072	-51.819	-128.418	-15.442	-77.72	28.47	-102.96	-58.212	-64.092	3.724	-0.55405	0.19424	-0.62015	0.52017	30.3	13111	100
2025-3-27 20:28:23.635	WT901BLE68-01(48591DE3C19B)	-0.472	-2.351	0.046	-19.287	-101.074	-51.392	-77.50	27.73	-101.89	-58.212	-64.092	3.724	-0.55405	0.19424	-0.62015	0.52017	30.3	13111	100
2025-3-27 20:28:23.635	WT901BLE68-01(48591DE3C19B)	-0.715	-2.351	0.046	-19.287	-101.074	-51.392	-77.30	26.97	-100.84	-58.212	-64.092	3.724	-0.55405	0.19424	-0.62015	0.52017	30.3	13111	100
2025-3-27 20:28:23.636	WT901BLE68-01(48591DE3C19B)	-0.715	-2.176	0.213	12.207	-71.289	-47.119	-76.94	26.31	-100.12	-58.212	-64.092	3.724	-0.55405	0.19424	-0.62015	0.52017	30.3	13111	100
2025-3-27 20:28:23.636	WT901BLE68-01(48591DE3C19B)	-0.544	-2.176	0.213	12.207	-71.289	-47.119	-76.59	25.66	-99.42	-58.212	-64.092	3.724	-0.55405	0.19424	-0.62015	0.52017	30.3	13111	100
2025-3-27 20:28:23.670	WT901BLE68-01(48591DE3C19B)	-0.544	-1.663	0.195	16.541	-36.316	-47.119	-76.37	25.08	-99.11	-58.212	-64.092	3.724	-0.55405	0.19424	-0.62015	0.52017	30.3	13111	100
2025-3-27 20:28:23.670	WT901BLE68-01(48591DE3C19B)	-0.212	-1.663	0.195	16.541	-36.316	-47.119	-76.15	24.51	-98.81	-58.212	-64.092	3.724	-0.55405	0.19424	-0.62015	0.52017	30.3	13111	100
2025-3-27 20:28:23.670	WT901BLE68-01(48591DE3C19B)	-0.212	-1.437	0.157	16.418	23.499	-33.203	-76.18	24.20	-99.11	-58.212	-64.092	3.724	-0.55405	0.19424	-0.62015	0.52017	30.3	13111	100
2025-3-27 20:28:23.670	WT901BLE68-01(48591DE3C19B)	-0.121	-1.437	0.157	16.418	23.499	-33.203	-76.21	23.90	-99.42	-58.212	-64.092	3.724	-0.55405	0.19424	-0.62015	0.52017	30.3	13111	100
2025-3-27 20:28:23.727	WT901BLE68-01(48591DE3C19B)	-0.121	-1.165	0.128	20.325	73.181	-13.000	-76.39	23.90	-100.20	-58.212	-64.092	3.724	-0.55405	0.19424	-0.62015	0.52017	30.3	13111	100
2025-3-27 20:28:23.728	WT901BLE68-01(48591DE3C19B)	-0.240	-1.165	0.128	20.325	73.181	-13.000	-76.57	23.90	-100.96	-58.212	-64.092	3.724	-0.55405	0.19424	-0.62015	0.52017	30.3	13111	100
2025-3-27 20:28:23.728	WT901BLE68-01(48591DE3C19B)	-0.240	-0.835	0.164	17.456	67.322	0.366	-76.73	24.01	-101.64	-58.212	-64.092	3.724	-0.55405	0.19424	-0.62015	0.52017	30.3	13111	100
2025-3-27 20:28:23.728	WT901BLE68-01(48591DE3C19B)	-0.286	-0.835	0.164	17.456	67.322	0.366	-76.89	24.11	-102.31	-58.212	-64.092	3.724	-0.55405	0.19424	-0.62015	0.52017	30.3	13111	100
2025-3-27 20:28:23.756	WT901BLE68-01(48591DE3C19B)	-0.286	-0.604	0.221	1.953	23.682	1.404	-77.01	24.13	-102.52	-58.212	-64.092	3.724	-0.55405	0.19424	-0.62015	0.52017	30.3	13111	100
2025-3-27 20:28:23.756	WT901BLE68-01(48591DE3C19B)	-0.240	-0.604	0.221	1.953	23.682	1.404	-77.13	24.15	-102.74	-58.212	-64.092	3.724	-0.55405	0.19424	-0.62015	0.52017	30.3	13111	100
2025-3-27 20:28:23.756	WT901BLE68-01(48591DE3C19B)	-0.240	-0.510	0.210	-5.432	2.319	10.254	-77.22	24.21	-102.72	-58.212	-64.092	3.724	-0.55405	0.19424	-0.62015	0.52017	30.3	13111	100
2025-3-27 20:28:23.756	WT901BLE68-01(48591DE3C19B)	-0.226	-0.510	0.210	-5.432	2.319	10.254	-77.29	24.27	-102.69	-58.212	-64.092	3.724	-0.55405	0.19424	-0.62015	0.52017	30.3	13111	100
2025-3-27 20:28:23.787	WT901BLE68-01(48591DE3C19B)	-0.226	-0.519	0.135	-5.615	19.470	14.648	-77.44	24.42	-102.85	-58.212	-64.092	3.724	-0.57883	0.25217	-0.58087	0.51364	30.3	13111	100
2025-3-27 20:28:23.788	WT901BLE68-01(48591DE3C19B)	-0.288	-0.519	0.135	-5.615	19.470	14.648	-77.59	24.57	-103.02	-58.212	-64.092	3.724	-0.57883	0.25217	-0.58087	0.51364	30.3	13111	100
2025-3-27 20:28:23.788	WT901BLE68-01(48591DE3C19B)	-0.288	-0.460	0.078	3.784	33.508	17.944	-77.71	24.77	-103.33	-58.212	-64.092	3.724	-0.57883	0.25217	-0.58087	0.51364	30.3	13111	100
2025-3-27 20:28:23.788	WT901BLE68-01(48591DE3C19B)	-0.291	-0.460	0.078	3.784	33.508	17.944	-77.82	24.99	-103.63	-58.212	-64.092	3.724	-0.57883	0.25217	-0.58087	0.51364	30.3	13111	100
2025-3-27 20:28:23.817	WT901BLE68-01(48591DE3C19B)	-0.291	-0.301	0.080	5.127	26.794	24.292	-77.88	25.26	-103.86	-58.212	-64.092	3.724	-0.57883	0.25217	-0.58087	0.51364	30.3	13111	100
2025-3-27 20:28:23.817	WT901BLE68-01(48591DE3C19B)	-0.247	-0.301	0.080	5.127	26.794	24.292	-77.95	25.53	-104.10	-58.212	-64.092	3.724	-0.57883	0.25217	-0.58087	0.51364	30.3	13111	100
2025-3-27 20:28:23.817	WT901BLE68-01(48591DE3C19B)	-0.247	-0.241	0.111	-0.427	17.029	29.907	-78.01	25.83	-104.22	-58.212	-64.092	3.724	-0.57883	0.25217	-0.58087	0.51364	30.3	13111	100
2025-3-27 20:28:23.817	WT901BLE68-01(48591DE3C19B)	-0.291	-0.241	0.111	-0.427	17.029	29.907	-78.07	26.15	-104.35	-58.212	-64.092	3.724	-0.57883	0.25217	-0.58087	0.51364	30.3	13111	100
2025-3-27 20:28:23.875	WT901BLE68-01(48591DE3C19B)	-0.291	-0.328	0.145	-3.845	14.954	33.081	-78.16	26.49	-104.46	-58.212	-64.092	3.724	-0.57883	0.25217	-0.58087	0.51364	30.3	13111	100
2025-3-27 20:28:23.875	WT901BLE68-01(48591DE3C19B)	-0.345	-0.328	0.145	-3.845	14.954	33.081	-78.23	26.84	-104.59	-58.212	-64.092	3.724	-0.57883	0.25217	-0.58087	0.51364	30.3	13111	100
2025-3-27 20:28:23.875	WT901BLE68-01(48591DE3C19B)	-0.345	-0.492	0.141	-6.409	9.705	32.532	-78.31	27.17	-104.67	-58.212	-64.092	3.724	-0.57883	0.25217	-0.58087	0.51364	30.3	13111	100
2025-3-27 20:28:23.875	WT901BLE68-01(48591DE3C19B)	-0.351	-0.492	0.141	-6.409	9.705	32.532	-78.38	27.51	-104.77	-58.212	-64.092	3.724	-0.57883	0.25217	-0.58087	0.51364	30.3	13111	100
2025-3-27 20:28:23.905	WT901BLE68-01(48591DE3C19B)	-0.351	-0.736	0.111	-10.010	-0.549	21.484	-78.45	27.72	-104.77	-58.212	-64.092	3.724	-0.57883	0.25217	-0.58087	0.51364	30.3	13111	100
2025-3-27 20:28:23.905	WT901BLE68-01(48591DE3C19B)	-0.359	-0.736	0.111	-10.010	-0.549	21.484	-78.52	27.92	-104.75	-58.212	-64.092	3.724	-0.57883	0.25217	-0.58087	0.51364	30.3	13111	100
2025-3-27 20:28:23.905	WT901BLE68-01(48591DE3C19B)	-0.471	-1.033	0.103	-9.766	-2.563	-1.831	-78.61	27.89	-104.77	-58.212	-64.092	3.724	-0.57883	0.25217	-0.58087	0.51364	30.3	13111	100
2025-3-27 20:28:23.905	WT901BLE68-01(48591DE3C19B)	-0.471	-1.352	0.165	-4.883	1.343	-32.715	-78.70	27.70	-104.82	-58.212	-64.092	3.724	-0.57883	0.25217	-0.58087	0.51364	30.3	13111	100
2025-3-27 20:28:23.937	WT901BLE68-01(48591DE3C19B)	-0.664	-1.352	0.165	-4.883	1.343	-32.715	-78.80	27.36	-104.91	-58.212	-64.092	3.724	-0.57883	0.25217	-0.58087	0.51364	30.3	13111	100
2025-3-27 20:28:23.937	WT901BLE68-01(48591DE3C19B)	-0.664	-1.507	0.290	-3.601	5.249	-51.331	-78.91	26.93	-105.04	-58.212	-64.092	3.724	-0.57883	0.25217	-0.58087	0.51364	30.3	13111	100
2025-3-27 20:28:23.937	WT901BLE68-01(48591DE3C19B)	-0.772	-1.507	0.290	-3.601	5.249	-51.331	-79.03	26.42	-105.21	-58.212	-64.092	3.724	-0.57883	0.25217	-0.58087	0.51364	30.3	13111	100
2025-3-27 20:28:23.937	WT901BLE68-01(48591DE3C19B)	-0.772	-1.436	0.410	-0.305	5.676	-62.439	-79.13	25.86	-105.40	-58.212	-64.092	3.724	-0.57883	0.25217	-0.58087	0.51364	30.3	13111	100
2025-3-27 20:28:23.996	WT901BLE68-01(48591DE3C19B)	-0.750	-1.436	0.410	-0.305	5.676	-62.439	-79.22	25.25	-105.62	-58.212	-64.092	3.724	-0.57883	0.25217	-0.58087	0.51364	30.3	13111	100
2025-3-27 20:28:23.996	WT901BLE68-01(48591DE3C19B)	-0.750	-1.327	0.487	-2.441	6.409	-63.171	-79.30	24.64	-105.85	-65.464	-69.972	1.960	-0.57883	0.25217	-0.58087	0.51364	30.3	13111	100
2025-3-27 20:28:23.996	WT901BLE68-01(48591DE3C19B)	-0.727	-1.327	0.487	-2.441	6.409	-63.171	-79.40	24.03	-106.09	-65.464	-69.972	1.960	-0.57883	0.25217	-0.58087	0.51364	30.3	13111	100
2025-3-27 20:28:23.996	WT901BLE68-01(48591DE3C19B)	-0.727	-1.262	0.462	-3.174	-4.333	-58.533	-79.46	23.45	-106.29	-65.464	-69.972	1.960	-0.57883	0.25217	-0.58087	0.51364	30.3	13111	100
2025-3-27 20:28:24.24	WT901BLE68-01(48591DE3C19B)	-0.649	-1.262	0.462	-3.174	-4.333	-58.533	-79.50	22.88	-106.44	-65.464	-69.972	1.960	-0.57883	0.25217	-0.58087	0.51364	30.3	13111	100
2025-3-27 20:28:24.24	WT901BLE68-01(48591DE3C19B)	-0.649	-1.158	0.350	-1.587	-30.823	-47.424	-79.46	22.35	-106.44	-65.464	-69.972	1.960	-0.57883	0.25217	-0.58087	0.51364	30.3	13111	100
2025-3-27 20:28:24.24	WT901BLE68-01(48591DE3C19B)	-0.526	-1.158	0.350	-1.587	-30.823	-47.424	-79.35	21.85	-106.30	-65.464	-69.972	1.960	-0.57883	0.25217	-0.58087	0.51364	30.3	13111	100
2025-3-27 20:28:24.25	WT901BLE68-01(48591DE3C19B)	-0.526	-1.056	0.250	1.526	-47.241	-31.006	-79.20	21.41	-106.06	-65.464	-69.972	1.960	-0.57883	0.25217	-0.58087	0.51364	30.3	13111	100
2025-3-27 20:28:24.55	WT901BLE68-01(48591DE3C19B)	-0.447	-1.056	0.250	1.526	-47.241	-31.006	-79.00	21.05	-105.72	-65.464	-69.972	1.960	-0.57883	0.25217	-0.58087	0.51364	30.3	13111	100
2025-3-27 20:28:24.55	WT901BLE68-01(48591DE3C19B)	-0.447	-0.918	0.192	12.878	-30.457	-18.555	-78.77	20.76	-105.45	-65.464	-69.972	1.960	-0.57883	0.25217	-0.58087	0.51364	30.3	13111	100
2025-3-27 20:28:24.55	WT901BLE68-01(48591DE3C19B)	-0.427	-0.918	0.192	12.878	-30.457	-18.555	-78.52	20.55	-105.26	-65.464	-69.972	1.960	-0.57883	0.25217	-0.58087	0.51364	30.3	13111	100
2025-3-27 20:28:24.55	WT901BLE68-01(48591DE3C19B)	-0.427	-0.746	0.187	21.240	2.930	-10.132	-78.29	20.42	-105.23	-65.464	-69.972	1.960	-0.57883	0.25217	-0.58087	0.51364	30.3	13111	100
2025-3-27 20:28:24.115	WT901BLE68-01(48591DE3C19B)	-0.443	-0.746	0.187	21.240	2.930	-10.132	-78.08	20.36	-105.37	-65.464	-69.972	1.960	-0.57883	0.25217	-0.58087	0.51364	30.3	13111	100
2025-3-27 20:28:24.116	WT901BLE68-01(48591DE3C19B)	-0.443	-0.644	0.218	24.719	35.339	-5.432	-77.90	20.36	-105.68	-65.464	-69.972	1.960	-0.57883	0.25217	-0.58087	0.51364	30.3	13111	100
2025-3-27 20:28:24.116	WT901BLE68-01(48591DE3C19B)	-0.544	-0.644	0.218	24.719	35.339	-5.432	-77.77	20.42	-106.14	-65.464	-69.972	1.960	-0.57883	0.25217	-0.58087	0.51364	30.3	13111	100
2025-3-27 20:28:24.116	WT901BLE68-01(48591DE3C19B)	-0.544	-0.611	0.240	26.001	54.871	-5.249	-77.66	20.50	-106.73	-65.464	-69.972	1.960	-0.57883	0.25217	-0.58087	0.51364	30.3	13111	100
2025-3-27 20:28:24.148	WT901BLE68-01(48591DE3C19B)	-0.634	-0.611	0.240	26.001	54.871	-5.249	-77.58	20.62	-107.42	-65.464	-69.972	1.960	-0.57883	0.25217	-0.58087	0.51364	30.3	13111	100
2025-3-27 20:28:24.148	WT901BLE68-01(48591DE3C19B)	-0.634	-0.537	0.223	27.649	54.688	-6.592	-77.49	20.73	-108.12	-65.464	-69.972	1.960	-0.57883	0.25217	-0.58087	0.51364	30.3	13111	100
2025-3-27 20:28:24.148	WT901BLE68-01(48591DE3C19B)	-0.673	-0.537	0.223	27.649	54.688	-6.592	-77.38	20.84	-108.85	-65.464	-69.972	1.960	-0.57883	0.25217	-0.58087	0.51364	30.3	13111	100
2025-3-27 20:28:24.148	WT901BLE68-01(48591DE3C19B)	-0.673	-0.425	0.189	24.109	39.429	-3.601	-77.26	20.95	-109.51	-65.464	-69.972	1.960	-0.57883	0.25217	-0.58087	0.51364	30.3	13111	100
2025-3-27 20:28:24.236	WT901BLE68-01(48591DE3C19B)	-0.672	-0.425	0.189	24.109	39.429	-3.601	-77.12	21.08	-110.13	-65.464	-69.972	1.960	-0.57883	0.25217	-0.58087	0.51364	30.3	13111	100
2025-3-27 20:28:24.236	WT901BLE68-01(48591DE3C19B)	-0.672	-0.356	0.182	14.465	11.841	2.380	-76.97	21.20	-110.62	-65.464	-69.972	1.960	-0.53146	0.22791	-0.58505	0.56851	30.3	13111	100
2025-3-27 20:28:24.236	WT901BLE68-01(48591DE3C19B)	-0.631	-0.356	0.182	14.465	11.841	2.380	-76.80	21.34	-111.01	-65.464	-69.972	1.960	-0.53146	0.22791	-0.58505	0.56851	30.3	13111	100
2025-3-27 20:28:24.236	WT901BLE68-01(48591DE3C19B)	-0.631	-0.357	0.189	2.686	-16.174	11.597	-76.61	21.48	-111.28	-65.464	-69.972	1.960	-0.53146	0.22791	-0.58505	0.56851	30.3	13111	100
2025-3-27 20:28:24.237	WT901BLE68-01(48591DE3C19B)	-0.545	-0.357	0.189	2.686	-16.174	11.597	-76.43	21.64	-111.41	-65.464	-69.972	1.960	-0.53146	0.22791	-0.58505	0.56851	30.3	13111	100
2025-3-27 20:28:24.237	WT901BLE68-01(48591DE3C19B)	-0.545	-0.392	0.168	-11.047	-39.429	22.400	-76.24	21.82	-111.43	-65.464	-69.972	1.960	-0.53146	0.22791	-0.58505	0.56851	30.3	13111	100
2025-3-27 20:28:24.237	WT901BLE68-01(48591DE3C19B)	-0.486	-0.392	0.168	-11.047	-39.429	22.400	-76.07	22.03	-111.32	-65.464	-69.972	1.960	-0.53146	0.22791	-0.58505	0.56851	30.3	13111	100
2025-3-27 20:28:24.237	WT901BLE68-01(48591DE3C19B)	-0.486	-0.563	0.133	-27.527	-56.152	29.724	-75.94	22.26	-111.12	-65.464	-69.972	1.960	-0.53146	0.22791	-0.58505	0.56851	30.3	13111	100
2025-3-27 20:28:24.270	WT901BLE68-01(48591DE3C19B)	-0.543	-0.563	0.133	-27.527	-56.152	29.724	-75.87	22.50	-110.82	-65.464	-69.972	1.960	-0.53146	0.22791	-0.58505	0.56851	30.3	13111	100
2025-3-27 20:28:24.270	WT901BLE68-01(48591DE3C19B)	-0.543	-0.942	0.090	-47.485	-69.946	26.855	-75.87	22.71	-110.42	-65.464	-69.972	1.960	-0.53146	0.22791	-0.58505	0.56851	30.3	13111	100
2025-3-27 20:28:24.270	WT901BLE68-01(48591DE3C19B)	-0.677	-0.942	0.090	-47.485	-69.946	26.855	-75.96	22.89	-109.91	-65.464	-69.972	1.960	-0.53146	0.22791	-0.58505	0.56851	30.3	13111	100
2025-3-27 20:28:24.270	WT901BLE68-01(48591DE3C19B)	-0.677	-1.729	0.127	-57.068	-83.069	15.259	-76.11	23.00	-109.28	-65.464	-69.972	1.960	-0.53146	0.22791	-0.58505	0.56851	30.3	13111	100
2025-3-27 20:28:24.354	WT901BLE68-01(48591DE3C19B)	-0.866	-1.729	0.127	-57.068	-83.069	15.259	-76.31	23.03	-108.47	-65.464	-69.972	1.960	-0.53146	0.22791	-0.58505	0.56851	30.3	13111	100
2025-3-27 20:28:24.355	WT901BLE68-01(48591DE3C19B)	-0.866	-2.560	0.171	-44.556	-91.248	7.690	-76.46	23.00	-107.55	-65.464	-69.972	1.960	-0.53146	0.22791	-0.58505	0.56851	30.3	13111	100
2025-3-27 20:28:24.355	WT901BLE68-01(48591DE3C19B)	-0.685	-2.560	0.171	-44.556	-91.248	7.690	-76.55	22.90	-106.55	-65.464	-69.972	1.960	-0.53146	0.22791	-0.58505	0.56851	30.3	13111	100
2025-3-27 20:28:24.355	WT901BLE68-01(48591DE3C19B)	-0.685	-2.301	0.160	-4.578	-94.299	26.062	-76.43	22.88	-105.49	-65.464	-69.972	1.960	-0.53146	0.22791	-0.58505	0.56851	30.3	13111	100
2025-3-27 20:28:24.356	WT901BLE68-01(48591DE3C19B)	-0.295	-2.301	0.160	-4.578	-94.299	26.062	-76.11	22.92	-104.37	-65.464	-69.972	1.960	-0.53146	0.22791	-0.58505	0.56851	30.3	13111	100
2025-3-27 20:28:24.356	WT901BLE68-01(48591DE3C19B)	-0.295	-1.553	0.089	-6.531	-60.547	45.166	-75.85	23.09	-103.40	-65.464	-69.972	1.960	-0.53146	0.22791	-0.58505	0.56851	30.3	13111	100
2025-3-27 20:28:24.356	WT901BLE68-01(48591DE3C19B)	-0.021	-1.553	0.089	-6.531	-60.547	45.166	-75.66	23.37	-102.58	-65.464	-69.972	1.960	-0.53146	0.22791	-0.58505	0.56851	30.3	13111	100
2025-3-27 20:28:24.356	WT901BLE68-01(48591DE3C19B)	-0.021	-1.357	0.103	-4.761	-7.080	71.594	-75.56	23.84	-102.01	-65.464	-69.972	1.960	-0.53146	0.22791	-0.58505	0.56851	30.3	13111	100
2025-3-27 20:28:24.385	WT901BLE68-01(48591DE3C19B)	-0.038	-1.357	0.103	-4.761	-7.080	71.594	-75.55	24.48	-101.68	-65.464	-69.972	1.960	-0.53146	0.22791	-0.58505	0.56851	30.3	13111	100
2025-3-27 20:28:24.385	WT901BLE68-01(48591DE3C19B)	-0.038	-1.114	0.153	-5.432	23.132	86.182	-75.66	25.33	-101.63	-65.464	-69.972	1.960	-0.53146	0.22791	-0.58505	0.56851	30.3	13111	100
2025-3-27 20:28:24.385	WT901BLE68-01(48591DE3C19B)	-0.113	-1.114	0.153	-5.432	23.132	86.182	-75.76	26.17	-101.58	-78.792	-69.090	6.370	-0.53146	0.22791	-0.58505	0.56851	30.3	13111	100
2025-3-27 20:28:24.385	WT901BLE68-01(48591DE3C19B)	-0.113	-1.130	0.185	-19.226	12.451	78.491	-75.96	26.89	-101.44	-78.792	-69.090	6.370	-0.53146	0.22791	-0.58505	0.56851	30.3	13111	100
2025-3-27 20:28:24.445	WT901BLE68-01(48591DE3C19B)	-0.214	-1.130	0.185	-19.226	12.451	78.491	-76.16	27.61	-101.31	-78.792	-69.090	6.370	-0.53146	0.22791	-0.58505	0.56851	30.3	13111	100
2025-3-27 20:28:24.445	WT901BLE68-01(48591DE3C19B)	-0.214	-1.229	0.167	-14.526	-3.296	69.336	-76.23	28.20	-101.03	-78.792	-69.090	6.370	-0.53146	0.22791	-0.58505	0.56851	30.3	13111	100
2025-3-27 20:28:24.445	WT901BLE68-01(48591DE3C19B)	-0.257	-1.229	0.167	-14.526	-3.296	69.336	-76.31	28.77	-100.76	-78.792	-69.090	6.370	-0.53146	0.22791	-0.58505	0.56851	30.3	13111	100
2025-3-27 20:28:24.446	WT901BLE68-01(48591DE3C19B)	-0.257	-1.067	0.129	-5.615	-3.174	55.969	-76.31	29.22	-100.51	-78.792	-69.090	6.370	-0.53146	0.22791	-0.58505	0.56851	30.3	13111	100
2025-3-27 20:28:24.474	WT901BLE68-01(48591DE3C19B)	-0.306	-1.067	0.129	-5.615	-3.174	55.969	-76.31	29.66	-100.28	-78.792	-69.090	6.370	-0.53146	0.22791	-0.58505	0.56851	30.3	13111	100
2025-3-27 20:28:24.474	WT901BLE68-01(48591DE3C19B)	-0.306	-0.908	0.084	-4.150	6.897	46.509	-76.36	30.03	-100.18	-78.792	-69.090	6.370	-0.53146	0.22791	-0.58505	0.56851	30.3	13111	100
2025-3-27 20:28:24.474	WT901BLE68-01(48591DE3C19B)	-0.357	-0.908	0.084	-4.150	6.897	46.509	-76.41	30.40	-100.08	-78.792	-69.090	6.370	-0.53146	0.22791	-0.58505	0.56851	30.3	13111	100
2025-3-27 20:28:24.474	WT901BLE68-01(48591DE3C19B)	-0.357	-0.812	0.083	-4.272	7.568	40.283	-76.48	30.72	-100.01	-78.792	-69.090	6.370	-0.53146	0.22791	-0.58505	0.56851	30.3	13111	100
2025-3-27 20:28:24.505	WT901BLE68-01(48591DE3C19B)	-0.314	-0.812	0.083	-4.272	7.568	40.283	-76.55	31.04	-99.93	-78.792	-69.090	6.370	-0.53146	0.22791	-0.58505	0.56851	30.3	13111	100
2025-3-27 20:28:24.505	WT901BLE68-01(48591DE3C19B)	-0.314	-0.774	0.114	-8.423	-2.747	37.720	-76.60	31.31	-99.75	-78.792	-69.090	6.370	-0.53146	0.22791	-0.58505	0.56851	30.3	13111	100
2025-3-27 20:28:24.506	WT901BLE68-01(48591DE3C19B)	-0.253	-0.774	0.114	-8.423	-2.747	37.720	-76.65	31.57	-99.57	-78.792	-69.090	6.370	-0.53146	0.22791	-0.58505	0.56851	30.3	13111	100
2025-3-27 20:28:24.506	WT901BLE68-01(48591DE3C19B)	-0.253	-0.778	0.136	-9.399	-9.277	30.579	-76.67	31.76	-99.33	-78.792	-69.090	6.370	-0.53146	0.22791	-0.58505	0.56851	30.3	13111	100
2025-3-27 20:28:24.570	WT901BLE68-01(48591DE3C19B)	-0.251	-0.778	0.136	-9.399	-9.277	30.579	-76.70	31.95	-99.10	-78.792	-69.090	6.370	-0.53146	0.22791	-0.58505	0.56851	30.3	13111	100
2025-3-27 20:28:24.570	WT901BLE68-01(48591DE3C19B)	-0.251	-0.752	0.137	-9.766	-13.550	25.269	-76.71	32.07	-98.83	-78.792	-69.090	6.370	-0.53146	0.22791	-0.58505	0.56851	30.3	13111	100
2025-3-27 20:28:24.571	WT901BLE68-01(48591DE3C19B)	-0.279	-0.752	0.137	-9.766	-13.550	25.269	-76.72	32.19	-98.57	-78.792	-69.090	6.370	-0.53146	0.22791	-0.58505	0.56851	30.3	13111	100
2025-3-27 20:28:24.571	WT901BLE68-01(48591DE3C19B)	-0.279	-0.729	0.122	-11.475	-22.949	22.034	-76.69	32.26	-98.21	-78.792	-69.090	6.370	-0.53146	0.22791	-0.58505	0.56851	30.3	13111	100
2025-3-27 20:28:24.594	WT901BLE68-01(48591DE3C19B)	-0.274	-0.729	0.122	-11.475	-22.949	22.034	-76.66	32.33	-97.86	-78.792	-69.090	6.370	-0.62604	0.22757	-0.59210	0.45343	30.3	13111	100
2025-3-27 20:28:24.595	WT901BLE68-01(48591DE3C19B)	-0.274	-0.738	0.104	-13.550	-28.564	17.578	-76.62	32.35	-97.44	-78.792	-69.090	6.370	-0.62604	0.22757	-0.59210	0.45343	30.3	13111	100
2025-3-27 20:28:24.595	WT901BLE68-01(48591DE3C19B)	-0.277	-0.738	0.104	-13.550	-28.564	17.578	-76.59	32.37	-97.04	-78.792	-69.090	6.370	-0.62604	0.22757	-0.59210	0.45343	30.3	13111	100
2025-3-27 20:28:24.595	WT901BLE68-01(48591DE3C19B)	-0.277	-0.791	0.108	-11.536	-18.921	14.709	-76.59	32.38	-96.75	-78.792	-69.090	6.370	-0.62604	0.22757	-0.59210	0.45343	30.3	13111	100
2025-3-27 20:28:24.625	WT901BLE68-01(48591DE3C19B)	-0.336	-0.791	0.108	-11.536	-18.921	14.709	-76.60	32.40	-96.47	-78.792	-69.090	6.370	-0.62604	0.22757	-0.59210	0.45343	30.3	13111	100
2025-3-27 20:28:24.625	WT901BLE68-01(48591DE3C19B)	-0.336	-0.811	0.124	-5.066	-3.357	12.390	-76.64	32.43	-96.37	-78.792	-69.090	6.370	-0.62604	0.22757	-0.59210	0.45343	30.3	13111	100
2025-3-27 20:28:24.625	WT901BLE68-01(48591DE3C19B)	-0.417	-0.811	0.124	-5.066	-3.357	12.390	-76.68	32.45	-96.27	-78.792	-69.090	6.370	-0.62604	0.22757	-0.59210	0.45343	30.3	13111	100
2025-3-27 20:28:24.625	WT901BLE68-01(48591DE3C19B)	-0.417	-0.776	0.137	-1.465	2.930	9.766	-76.73	32.48	-96.26	-78.792	-69.090	6.370	-0.62604	0.22757	-0.59210	0.45343	30.3	13111	100
