time	DeviceName	AccX(g)	AccY(g)	AccZ(g)	AsX(°/s)	AsY(°/s)	AsZ(°/s)	AngleX(°)	AngleY(°)	AngleZ(°)	HX(uT)	HY(uT)	HZ(uT)	Q0()	Q1()	Q2()	Q3()	Temperature(°C)	Version()	Battery level(%)
2025-3-27 20:19:38.661	WT901BLE68-01(48591DE3C19B)	-0.299	-0.935	0.211	-2.441	2.136	-1.526	-78.51	16.21	-99.78	-63.210	-43.120	-1.666	0.56662	-0.32117	0.54645	-0.52634	29.6	13111	100
2025-3-27 20:19:38.661	WT901BLE68-01(48591DE3C19B)	-0.299	-0.935	0.211	-2.441	2.136	-1.526	-78.54	16.20	-99.82	-63.210	-43.120	-1.666	0.56662	-0.32117	0.54645	-0.52634	29.6	13111	100
2025-3-27 20:19:38.662	WT901BLE68-01(48591DE3C19B)	-0.299	-0.941	0.211	-2.686	1.099	-1.465	-78.56	16.19	-99.85	-63.210	-43.120	-1.666	0.56662	-0.32117	0.54645	-0.52634	29.6	13111	100
2025-3-27 20:19:38.662	WT901BLE68-01(48591DE3C19B)	-0.292	-0.941	0.211	-2.686	1.099	-1.465	-78.58	16.19	-99.88	-63.210	-43.120	-1.666	0.56662	-0.32117	0.54645	-0.52634	29.6	13111	100
2025-3-27 20:19:38.691	WT901BLE68-01(48591DE3C19B)	-0.292	-0.947	0.207	-2.075	1.099	-1.160	-78.60	16.18	-99.92	-63.210	-43.120	-1.666	0.56662	-0.32117	0.54645	-0.52634	29.6	13111	100
2025-3-27 20:19:38.692	WT901BLE68-01(48591DE3C19B)	-0.285	-0.947	0.207	-2.075	1.099	-1.160	-78.62	16.18	-99.95	-63.210	-43.120	-1.666	0.56662	-0.32117	0.54645	-0.52634	29.6	13111	100
2025-3-27 20:19:38.692	WT901BLE68-01(48591DE3C19B)	-0.285	-0.949	0.205	-1.221	2.502	-0.732	-78.63	16.18	-99.99	-63.210	-43.120	-1.666	0.56662	-0.32117	0.54645	-0.52634	29.6	13111	100
2025-3-27 20:19:38.692	WT901BLE68-01(48591DE3C19B)	-0.285	-0.949	0.205	-1.221	2.502	-0.732	-78.64	16.18	-100.03	-63.112	-42.630	-1.764	0.56662	-0.32117	0.54645	-0.52634	29.6	13111	100
2025-3-27 20:19:38.750	WT901BLE68-01(48591DE3C19B)	-0.285	-0.948	0.206	-0.122	4.333	-0.610	-78.65	16.18	-100.10	-63.112	-42.630	-1.764	0.56662	-0.32117	0.54645	-0.52634	29.6	13111	100
2025-3-27 20:19:38.750	WT901BLE68-01(48591DE3C19B)	-0.286	-0.948	0.206	-0.122	4.333	-0.610	-78.66	16.19	-100.16	-63.112	-42.630	-1.764	0.56662	-0.32117	0.54645	-0.52634	29.6	13111	100
2025-3-27 20:19:38.750	WT901BLE68-01(48591DE3C19B)	-0.286	-0.943	0.204	0.610	5.249	-0.671	-78.66	16.20	-100.22	-63.112	-42.630	-1.764	0.56662	-0.32117	0.54645	-0.52634	29.6	13111	100
2025-3-27 20:19:38.750	WT901BLE68-01(48591DE3C19B)	-0.283	-0.943	0.204	0.610	5.249	-0.671	-78.66	16.20	-100.29	-63.112	-42.630	-1.764	0.56662	-0.32117	0.54645	-0.52634	29.6	13111	100
2025-3-27 20:19:38.779	WT901BLE68-01(48591DE3C19B)	-0.283	-0.935	0.198	0.977	5.066	-0.916	-78.66	16.20	-100.36	-63.112	-42.630	-1.764	0.56662	-0.32117	0.54645	-0.52634	29.6	13111	100
2025-3-27 20:19:38.779	WT901BLE68-01(48591DE3C19B)	-0.278	-0.935	0.198	0.977	5.066	-0.916	-78.66	16.21	-100.43	-63.112	-42.630	-1.764	0.56662	-0.32117	0.54645	-0.52634	29.6	13111	100
2025-3-27 20:19:38.779	WT901BLE68-01(48591DE3C19B)	-0.278	-0.933	0.192	1.160	4.761	-1.038	-78.66	16.21	-100.49	-63.112	-42.630	-1.764	0.56662	-0.32117	0.54645	-0.52634	29.6	13111	100
2025-3-27 20:19:38.779	WT901BLE68-01(48591DE3C19B)	-0.270	-0.933	0.192	1.160	4.761	-1.038	-78.65	16.21	-100.55	-63.112	-42.630	-1.764	0.56662	-0.32117	0.54645	-0.52634	29.6	13111	100
2025-3-27 20:19:38.810	WT901BLE68-01(48591DE3C19B)	-0.270	-0.932	0.189	0.977	4.456	-1.160	-78.65	16.21	-100.61	-63.112	-42.630	-1.764	0.56662	-0.32117	0.54645	-0.52634	29.6	13111	100
2025-3-27 20:19:38.810	WT901BLE68-01(48591DE3C19B)	-0.268	-0.932	0.189	0.977	4.456	-1.160	-78.65	16.21	-100.67	-63.112	-42.630	-1.764	0.56662	-0.32117	0.54645	-0.52634	29.6	13111	100
2025-3-27 20:19:38.810	WT901BLE68-01(48591DE3C19B)	-0.268	-0.932	0.188	0.610	4.089	-1.343	-78.65	16.20	-100.73	-63.112	-42.630	-1.764	0.56662	-0.32117	0.54645	-0.52634	29.6	13111	100
2025-3-27 20:19:38.810	WT901BLE68-01(48591DE3C19B)	-0.261	-0.932	0.188	0.610	4.089	-1.343	-78.65	16.20	-100.78	-63.112	-42.630	-1.764	0.56662	-0.32117	0.54645	-0.52634	29.6	13111	100
2025-3-27 20:19:38.839	WT901BLE68-01(48591DE3C19B)	-0.257	-0.936	0.187	0.244	3.357	-1.892	-78.66	16.19	-100.83	-63.112	-42.630	-1.764	0.56662	-0.32117	0.54645	-0.52634	29.6	13111	100
2025-3-27 20:19:38.839	WT901BLE68-01(48591DE3C19B)	-0.257	-0.942	0.184	0.488	3.357	-2.502	-78.66	16.17	-100.87	-63.112	-42.630	-1.764	0.56662	-0.32117	0.54645	-0.52634	29.6	13111	100
2025-3-27 20:19:38.839	WT901BLE68-01(48591DE3C19B)	-0.250	-0.942	0.184	0.488	3.357	-2.502	-78.67	16.16	-100.92	-63.112	-42.630	-1.764	0.56662	-0.32117	0.54645	-0.52634	29.6	13111	100
2025-3-27 20:19:38.839	WT901BLE68-01(48591DE3C19B)	-0.250	-0.941	0.183	0.854	3.662	-2.808	-78.67	16.13	-100.97	-63.112	-42.630	-1.764	0.56662	-0.32117	0.54645	-0.52634	29.6	13111	100
2025-3-27 20:19:38.900	WT901BLE68-01(48591DE3C19B)	-0.242	-0.941	0.183	0.854	3.662	-2.808	-78.67	16.11	-101.02	-63.112	-42.630	-1.764	0.56662	-0.32117	0.54645	-0.52634	29.6	13111	100
2025-3-27 20:19:38.900	WT901BLE68-01(48591DE3C19B)	-0.242	-0.950	0.181	1.038	5.188	-3.052	-78.67	16.09	-101.07	-63.112	-42.630	-1.764	0.56662	-0.32117	0.54645	-0.52634	29.6	13111	100
2025-3-27 20:19:38.900	WT901BLE68-01(48591DE3C19B)	-0.235	-0.950	0.181	1.038	5.188	-3.052	-78.68	16.07	-101.14	-63.112	-42.630	-1.764	0.56662	-0.32117	0.54645	-0.52634	29.6	13111	100
2025-3-27 20:19:38.900	WT901BLE68-01(48591DE3C19B)	-0.235	-0.956	0.180	1.404	7.507	-2.808	-78.68	16.05	-101.21	-63.112	-42.630	-1.764	0.56662	-0.32117	0.54645	-0.52634	29.6	13111	100
2025-3-27 20:19:38.929	WT901BLE68-01(48591DE3C19B)	-0.230	-0.956	0.180	1.404	7.507	-2.808	-78.70	16.03	-101.29	-63.112	-42.630	-1.764	0.55386	-0.31467	0.55383	-0.53604	29.6	13111	100
2025-3-27 20:19:38.929	WT901BLE68-01(48591DE3C19B)	-0.230	-0.958	0.178	1.709	9.583	-2.686	-78.71	16.01	-101.39	-63.112	-42.630	-1.764	0.55386	-0.31467	0.55383	-0.53604	29.6	13111	100
2025-3-27 20:19:38.929	WT901BLE68-01(48591DE3C19B)	-0.230	-0.958	0.178	1.709	9.583	-2.686	-78.72	16.00	-101.49	-63.112	-42.630	-1.764	0.55386	-0.31467	0.55383	-0.53604	29.6	13111	100
2025-3-27 20:19:38.929	WT901BLE68-01(48591DE3C19B)	-0.230	-0.958	0.179	1.404	11.230	-2.625	-78.73	15.99	-101.61	-63.112	-42.630	-1.764	0.55386	-0.31467	0.55383	-0.53604	29.6	13111	100
2025-3-27 20:19:38.964	WT901BLE68-01(48591DE3C19B)	-0.231	-0.958	0.179	1.404	11.230	-2.625	-78.75	15.97	-101.72	-63.112	-42.630	-1.764	0.55386	-0.31467	0.55383	-0.53604	29.6	13111	100
2025-3-27 20:19:38.964	WT901BLE68-01(48591DE3C19B)	-0.231	-0.973	0.182	0.427	11.902	-2.747	-78.78	15.96	-101.84	-63.112	-42.630	-1.764	0.55386	-0.31467	0.55383	-0.53604	29.6	13111	100
2025-3-27 20:19:38.964	WT901BLE68-01(48591DE3C19B)	-0.222	-0.973	0.182	0.427	11.902	-2.747	-78.81	15.95	-101.97	-63.112	-42.630	-1.764	0.55386	-0.31467	0.55383	-0.53604	29.6	13111	100
2025-3-27 20:19:38.964	WT901BLE68-01(48591DE3C19B)	-0.222	-0.994	0.185	-0.732	12.207	-2.747	-78.85	15.93	-102.10	-63.112	-42.630	-1.764	0.55386	-0.31467	0.55383	-0.53604	29.6	13111	100
2025-3-27 20:19:39.20	WT901BLE68-01(48591DE3C19B)	-0.221	-0.994	0.185	-0.732	12.207	-2.747	-78.89	15.91	-102.22	-63.112	-42.630	-1.764	0.55386	-0.31467	0.55383	-0.53604	29.6	13111	100
2025-3-27 20:19:39.20	WT901BLE68-01(48591DE3C19B)	-0.221	-1.011	0.191	-1.770	14.038	-3.418	-78.94	15.90	-102.35	-63.112	-42.630	-1.764	0.55386	-0.31467	0.55383	-0.53604	29.6	13111	100
2025-3-27 20:19:39.20	WT901BLE68-01(48591DE3C19B)	-0.242	-1.011	0.191	-1.770	14.038	-3.418	-79.00	15.88	-102.50	-63.112	-42.630	-1.764	0.55386	-0.31467	0.55383	-0.53604	29.6	13111	100
2025-3-27 20:19:39.20	WT901BLE68-01(48591DE3C19B)	-0.242	-1.007	0.202	-2.686	14.038	-4.517	-79.07	15.85	-102.64	-63.112	-42.630	-1.764	0.55386	-0.31467	0.55383	-0.53604	29.6	13111	100
2025-3-27 20:19:39.52	WT901BLE68-01(48591DE3C19B)	-0.268	-1.007	0.202	-2.686	14.038	-4.517	-79.13	15.82	-102.78	-63.112	-42.630	-1.764	0.55386	-0.31467	0.55383	-0.53604	29.6	13111	100
2025-3-27 20:19:39.52	WT901BLE68-01(48591DE3C19B)	-0.268	-1.003	0.207	-4.333	10.925	-5.920	-79.21	15.78	-102.91	-63.112	-42.630	-1.764	0.55386	-0.31467	0.55383	-0.53604	29.6	13111	100
2025-3-27 20:19:39.52	WT901BLE68-01(48591DE3C19B)	-0.292	-1.003	0.207	-4.333	10.925	-5.920	-79.28	15.73	-103.03	-63.112	-42.630	-1.764	0.55386	-0.31467	0.55383	-0.53604	29.6	13111	100
2025-3-27 20:19:39.52	WT901BLE68-01(48591DE3C19B)	-0.292	-0.988	0.208	-4.761	5.676	-7.019	-79.35	15.67	-103.12	-63.112	-42.630	-1.764	0.55386	-0.31467	0.55383	-0.53604	29.6	13111	100
2025-3-27 20:19:39.82	WT901BLE68-01(48591DE3C19B)	-0.308	-0.988	0.208	-4.761	5.676	-7.019	-79.41	15.60	-103.18	-63.112	-42.630	-1.764	0.55386	-0.31467	0.55383	-0.53604	29.6	13111	100
2025-3-27 20:19:39.82	WT901BLE68-01(48591DE3C19B)	-0.308	-0.938	0.212	-5.371	-0.610	-7.813	-79.47	15.52	-103.21	-63.112	-42.630	-1.764	0.55386	-0.31467	0.55383	-0.53604	29.6	13111	100
2025-3-27 20:19:39.82	WT901BLE68-01(48591DE3C19B)	-0.306	-0.938	0.212	-5.371	-0.610	-7.813	-79.52	15.44	-103.21	-61.152	-42.728	-2.058	0.55386	-0.31467	0.55383	-0.53604	29.6	13111	100
2025-3-27 20:19:39.82	WT901BLE68-01(48591DE3C19B)	-0.306	-0.892	0.215	-6.104	-5.920	-9.094	-79.57	15.35	-103.19	-61.152	-42.728	-2.058	0.55386	-0.31467	0.55383	-0.53604	29.6	13111	100
2025-3-27 20:19:39.140	WT901BLE68-01(48591DE3C19B)	-0.307	-0.892	0.215	-6.104	-5.920	-9.094	-79.61	15.25	-103.15	-61.152	-42.728	-2.058	0.55386	-0.31467	0.55383	-0.53604	29.6	13111	100
2025-3-27 20:19:39.140	WT901BLE68-01(48591DE3C19B)	-0.307	-0.867	0.209	-6.714	-7.996	-10.376	-79.65	15.14	-103.09	-61.152	-42.728	-2.058	0.55386	-0.31467	0.55383	-0.53604	29.6	13111	100
2025-3-27 20:19:39.140	WT901BLE68-01(48591DE3C19B)	-0.322	-0.867	0.209	-6.714	-7.996	-10.376	-79.69	15.03	-103.03	-61.152	-42.728	-2.058	0.55386	-0.31467	0.55383	-0.53604	29.6	13111	100
2025-3-27 20:19:39.141	WT901BLE68-01(48591DE3C19B)	-0.322	-0.878	0.207	-6.042	-7.874	-11.902	-79.73	14.91	-102.97	-61.152	-42.728	-2.058	0.55386	-0.31467	0.55383	-0.53604	29.6	13111	100
2025-3-27 20:19:39.171	WT901BLE68-01(48591DE3C19B)	-0.331	-0.878	0.207	-6.042	-7.874	-11.902	-79.76	14.79	-102.91	-61.152	-42.728	-2.058	0.55386	-0.31467	0.55383	-0.53604	29.6	13111	100
2025-3-27 20:19:39.171	WT901BLE68-01(48591DE3C19B)	-0.331	-0.893	0.201	-4.639	-6.836	-13.245	-79.79	14.67	-102.87	-61.152	-42.728	-2.058	0.55386	-0.31467	0.55383	-0.53604	29.6	13111	100
2025-3-27 20:19:39.171	WT901BLE68-01(48591DE3C19B)	-0.345	-0.893	0.201	-4.639	-6.836	-13.245	-79.81	14.54	-102.83	-61.152	-42.728	-2.058	0.55386	-0.31467	0.55383	-0.53604	29.6	13111	100
2025-3-27 20:19:39.172	WT901BLE68-01(48591DE3C19B)	-0.345	-0.892	0.194	-2.930	-5.432	-15.015	-79.82	14.41	-102.80	-61.152	-42.728	-2.058	0.55386	-0.31467	0.55383	-0.53604	29.6	13111	100
2025-3-27 20:19:39.201	WT901BLE68-01(48591DE3C19B)	-0.353	-0.892	0.194	-2.930	-5.432	-15.015	-79.83	14.27	-102.78	-61.152	-42.728	-2.058	0.55386	-0.31467	0.55383	-0.53604	29.6	13111	100
2025-3-27 20:19:39.201	WT901BLE68-01(48591DE3C19B)	-0.353	-0.884	0.187	-1.709	-2.808	-16.968	-79.84	14.13	-102.78	-61.152	-42.728	-2.058	0.55386	-0.31467	0.55383	-0.53604	29.6	13111	100
2025-3-27 20:19:39.201	WT901BLE68-01(48591DE3C19B)	-0.377	-0.884	0.187	-1.709	-2.808	-16.968	-79.84	13.99	-102.79	-61.152	-42.728	-2.058	0.55386	-0.31467	0.55383	-0.53604	29.6	13111	100
2025-3-27 20:19:39.202	WT901BLE68-01(48591DE3C19B)	-0.377	-0.887	0.195	-0.977	-0.061	-18.127	-79.85	13.84	-102.82	-61.152	-42.728	-2.058	0.55386	-0.31467	0.55383	-0.53604	29.6	13111	100
2025-3-27 20:19:39.261	WT901BLE68-01(48591DE3C19B)	-0.396	-0.887	0.195	-0.977	-0.061	-18.127	-79.85	13.69	-102.85	-61.152	-42.728	-2.058	0.55386	-0.31467	0.55383	-0.53604	29.6	13111	100
2025-3-27 20:19:39.261	WT901BLE68-01(48591DE3C19B)	-0.396	-0.883	0.196	-0.366	0.427	-18.494	-79.85	13.55	-102.90	-61.152	-42.728	-2.058	0.55386	-0.31467	0.55383	-0.53604	29.6	13111	100
2025-3-27 20:19:39.262	WT901BLE68-01(48591DE3C19B)	-0.397	-0.883	0.196	-0.366	0.427	-18.494	-79.85	13.40	-102.95	-61.152	-42.728	-2.058	0.55386	-0.31467	0.55383	-0.53604	29.6	13111	100
2025-3-27 20:19:39.262	WT901BLE68-01(48591DE3C19B)	-0.397	-0.861	0.195	-0.366	1.160	-17.578	-79.85	13.27	-103.00	-61.152	-42.728	-2.058	0.55386	-0.31467	0.55383	-0.53604	29.6	13111	100
2025-3-27 20:19:39.291	WT901BLE68-01(48591DE3C19B)	-0.415	-0.861	0.195	-0.366	1.160	-17.578	-79.85	13.14	-103.06	-61.152	-42.728	-2.058	0.55386	-0.31467	0.55383	-0.53604	29.6	13111	100
2025-3-27 20:19:39.292	WT901BLE68-01(48591DE3C19B)	-0.415	-0.845	0.192	-0.854	0.854	-15.869	-79.85	13.02	-103.11	-61.152	-42.728	-2.058	0.55386	-0.31467	0.55383	-0.53604	29.6	13111	100
2025-3-27 20:19:39.292	WT901BLE68-01(48591DE3C19B)	-0.424	-0.845	0.192	-0.854	0.854	-15.869	-79.85	12.92	-103.16	-61.152	-42.728	-2.058	0.55386	-0.31467	0.55383	-0.53604	29.6	13111	100
2025-3-27 20:19:39.292	WT901BLE68-01(48591DE3C19B)	-0.424	-0.827	0.192	-2.014	-2.014	-13.489	-79.86	12.84	-103.18	-61.152	-42.728	-2.058	0.52960	-0.32904	0.55304	-0.55249	29.6	13111	100
2025-3-27 20:19:39.321	WT901BLE68-01(48591DE3C19B)	-0.419	-0.827	0.192	-2.014	-2.014	-13.489	-79.87	12.76	-103.21	-61.152	-42.728	-2.058	0.52960	-0.32904	0.55304	-0.55249	29.6	13111	100
2025-3-27 20:19:39.321	WT901BLE68-01(48591DE3C19B)	-0.419	-0.809	0.193	-3.113	-5.066	-10.437	-79.87	12.71	-103.19	-61.152	-42.728	-2.058	0.52960	-0.32904	0.55304	-0.55249	29.6	13111	100
2025-3-27 20:19:39.321	WT901BLE68-01(48591DE3C19B)	-0.418	-0.809	0.193	-3.113	-5.066	-10.437	-79.88	12.66	-103.18	-61.152	-42.728	-2.058	0.52960	-0.32904	0.55304	-0.55249	29.6	13111	100
2025-3-27 20:19:39.321	WT901BLE68-01(48591DE3C19B)	-0.418	-0.790	0.192	-4.272	-6.836	-7.019	-79.89	12.64	-103.14	-61.152	-42.728	-2.058	0.52960	-0.32904	0.55304	-0.55249	29.6	13111	100
2025-3-27 20:19:39.380	WT901BLE68-01(48591DE3C19B)	-0.414	-0.790	0.192	-4.272	-6.836	-7.019	-79.90	12.63	-103.11	-61.152	-42.728	-2.058	0.52960	-0.32904	0.55304	-0.55249	29.6	13111	100
2025-3-27 20:19:39.380	WT901BLE68-01(48591DE3C19B)	-0.414	-0.784	0.190	-5.981	-7.996	-4.211	-79.93	12.64	-103.06	-61.152	-42.728	-2.058	0.52960	-0.32904	0.55304	-0.55249	29.6	13111	100
2025-3-27 20:19:39.380	WT901BLE68-01(48591DE3C19B)	-0.419	-0.784	0.190	-5.981	-7.996	-4.211	-79.95	12.66	-103.01	-61.152	-42.728	-2.058	0.52960	-0.32904	0.55304	-0.55249	29.6	13111	100
2025-3-27 20:19:39.380	WT901BLE68-01(48591DE3C19B)	-0.419	-0.786	0.189	-6.897	-8.423	-2.136	-79.98	12.69	-102.95	-61.152	-42.728	-2.058	0.52960	-0.32904	0.55304	-0.55249	29.6	13111	100
2025-3-27 20:19:39.409	WT901BLE68-01(48591DE3C19B)	-0.442	-0.786	0.189	-6.897	-8.423	-2.136	-80.01	12.73	-102.90	-61.152	-42.728	-2.058	0.52960	-0.32904	0.55304	-0.55249	29.6	13111	100
2025-3-27 20:19:39.410	WT901BLE68-01(48591DE3C19B)	-0.442	-0.770	0.195	-7.935	-10.376	-0.427	-80.05	12.78	-102.83	-61.152	-42.728	-2.058	0.52960	-0.32904	0.55304	-0.55249	29.6	13111	100
2025-3-27 20:19:39.410	WT901BLE68-01(48591DE3C19B)	-0.462	-0.770	0.195	-7.935	-10.376	-0.427	-80.08	12.83	-102.76	-61.152	-42.728	-2.058	0.52960	-0.32904	0.55304	-0.55249	29.6	13111	100
2025-3-27 20:19:39.410	WT901BLE68-01(48591DE3C19B)	-0.462	-0.755	0.210	-8.484	-11.963	1.526	-80.11	12.91	-102.66	-61.152	-42.728	-2.058	0.52960	-0.32904	0.55304	-0.55249	29.6	13111	100
2025-3-27 20:19:39.438	WT901BLE68-01(48591DE3C19B)	-0.477	-0.755	0.210	-8.484	-11.963	1.526	-80.15	12.98	-102.57	-61.152	-42.728	-2.058	0.52960	-0.32904	0.55304	-0.55249	29.6	13111	100
2025-3-27 20:19:39.438	WT901BLE68-01(48591DE3C19B)	-0.477	-0.737	0.219	-8.484	-11.047	5.188	-80.17	13.10	-102.49	-61.152	-42.728	-2.058	0.52960	-0.32904	0.55304	-0.55249	29.6	13111	100
2025-3-27 20:19:39.439	WT901BLE68-01(48591DE3C19B)	-0.484	-0.737	0.219	-8.484	-11.047	5.188	-80.20	13.21	-102.41	-61.152	-42.728	-2.058	0.52960	-0.32904	0.55304	-0.55249	29.6	13111	100
2025-3-27 20:19:39.439	WT901BLE68-01(48591DE3C19B)	-0.484	-0.722	0.215	-8.301	-10.010	10.498	-80.22	13.39	-102.34	-61.152	-42.728	-2.058	0.52960	-0.32904	0.55304	-0.55249	29.6	13111	100
2025-3-27 20:19:39.500	WT901BLE68-01(48591DE3C19B)	-0.507	-0.722	0.215	-8.301	-10.010	10.498	-80.24	13.56	-102.26	-61.152	-42.728	-2.058	0.52960	-0.32904	0.55304	-0.55249	29.6	13111	100
2025-3-27 20:19:39.500	WT901BLE68-01(48591DE3C19B)	-0.507	-0.720	0.204	-7.385	-9.094	15.808	-80.26	13.79	-102.19	-61.152	-42.728	-2.058	0.52960	-0.32904	0.55304	-0.55249	29.6	13111	100
2025-3-27 20:19:39.500	WT901BLE68-01(48591DE3C19B)	-0.518	-0.720	0.204	-7.385	-9.094	15.808	-80.27	14.02	-102.12	-61.152	-42.728	-2.058	0.52960	-0.32904	0.55304	-0.55249	29.6	13111	100
2025-3-27 20:19:39.500	WT901BLE68-01(48591DE3C19B)	-0.518	-0.708	0.191	-6.409	-9.094	22.949	-80.26	14.32	-102.04	-61.152	-42.728	-2.058	0.52960	-0.32904	0.55304	-0.55249	29.6	13111	100
2025-3-27 20:19:39.531	WT901BLE68-01(48591DE3C19B)	-0.521	-0.708	0.191	-6.409	-9.094	22.949	-80.26	14.62	-101.96	-62.230	-40.964	-2.254	0.52960	-0.32904	0.55304	-0.55249	29.6	13111	100
2025-3-27 20:19:39.531	WT901BLE68-01(48591DE3C19B)	-0.521	-0.680	0.185	-6.470	-11.047	30.640	-80.24	15.00	-101.85	-62.230	-40.964	-2.254	0.52960	-0.32904	0.55304	-0.55249	29.6	13111	100
2025-3-27 20:19:39.531	WT901BLE68-01(48591DE3C19B)	-0.517	-0.680	0.185	-6.470	-11.047	30.640	-80.22	15.38	-101.74	-62.230	-40.964	-2.254	0.52960	-0.32904	0.55304	-0.55249	29.6	13111	100
2025-3-27 20:19:39.532	WT901BLE68-01(48591DE3C19B)	-0.517	-0.684	0.180	-7.568	-13.794	36.316	-80.21	15.81	-101.60	-62.230	-40.964	-2.254	0.52960	-0.32904	0.55304	-0.55249	29.6	13111	100
2025-3-27 20:19:39.590	WT901BLE68-01(48591DE3C19B)	-0.519	-0.684	0.180	-7.568	-13.794	36.316	-80.19	16.24	-101.45	-62.230	-40.964	-2.254	0.52960	-0.32904	0.55304	-0.55249	29.6	13111	100
2025-3-27 20:19:39.590	WT901BLE68-01(48591DE3C19B)	-0.519	-0.690	0.175	-7.019	-14.832	40.771	-80.16	16.71	-101.29	-62.230	-40.964	-2.254	0.52960	-0.32904	0.55304	-0.55249	29.6	13111	100
2025-3-27 20:19:39.590	WT901BLE68-01(48591DE3C19B)	-0.521	-0.690	0.175	-7.019	-14.832	40.771	-80.12	17.18	-101.12	-62.230	-40.964	-2.254	0.52960	-0.32904	0.55304	-0.55249	29.6	13111	100
2025-3-27 20:19:39.590	WT901BLE68-01(48591DE3C19B)	-0.521	-0.684	0.160	-6.531	-16.357	44.067	-80.08	17.68	-100.94	-62.230	-40.964	-2.254	0.52960	-0.32904	0.55304	-0.55249	29.6	13111	100
2025-3-27 20:19:39.619	WT901BLE68-01(48591DE3C19B)	-0.507	-0.684	0.160	-6.531	-16.357	44.067	-80.04	18.17	-100.74	-62.230	-40.964	-2.254	0.52960	-0.32904	0.55304	-0.55249	29.6	13111	100
2025-3-27 20:19:39.619	WT901BLE68-01(48591DE3C19B)	-0.507	-0.682	0.133	-6.348	-17.944	46.692	-79.98	18.69	-100.53	-62.230	-40.964	-2.254	0.52960	-0.32904	0.55304	-0.55249	29.6	13111	100
2025-3-27 20:19:39.619	WT901BLE68-01(48591DE3C19B)	-0.499	-0.682	0.133	-6.348	-17.944	46.692	-79.93	19.21	-100.32	-62.230	-40.964	-2.254	0.52960	-0.32904	0.55304	-0.55249	29.6	13111	100
2025-3-27 20:19:39.619	WT901BLE68-01(48591DE3C19B)	-0.499	-0.698	0.106	-7.080	-19.348	48.401	-79.87	19.74	-100.07	-62.230	-40.964	-2.254	0.52960	-0.32904	0.55304	-0.55249	29.6	13111	100
2025-3-27 20:19:39.649	WT901BLE68-01(48591DE3C19B)	-0.506	-0.698	0.106	-7.080	-19.348	48.401	-79.82	20.26	-99.83	-62.230	-40.964	-2.254	0.52960	-0.32904	0.55304	-0.55249	29.6	13111	100
2025-3-27 20:19:39.649	WT901BLE68-01(48591DE3C19B)	-0.506	-0.736	0.095	-8.240	-21.729	49.316	-79.77	20.79	-99.56	-62.230	-40.964	-2.254	0.52960	-0.32904	0.55304	-0.55249	29.6	13111	100
2025-3-27 20:19:39.649	WT901BLE68-01(48591DE3C19B)	-0.480	-0.736	0.095	-8.240	-21.729	49.316	-79.72	21.32	-99.28	-62.230	-40.964	-2.254	0.52960	-0.32904	0.55304	-0.55249	29.6	13111	100
2025-3-27 20:19:39.649	WT901BLE68-01(48591DE3C19B)	-0.480	-0.744	0.096	-8.850	-24.963	50.049	-79.67	21.84	-98.95	-62.230	-40.964	-2.254	0.52960	-0.32904	0.55304	-0.55249	29.6	13111	100
2025-3-27 20:19:39.710	WT901BLE68-01(48591DE3C19B)	-0.456	-0.744	0.096	-8.850	-24.963	50.049	-79.61	22.36	-98.63	-62.230	-40.964	-2.254	0.52960	-0.32904	0.55304	-0.55249	29.6	13111	100
2025-3-27 20:19:39.710	WT901BLE68-01(48591DE3C19B)	-0.456	-0.671	0.141	-5.554	-22.705	55.176	-79.52	22.93	-98.31	-62.230	-40.964	-2.254	0.52960	-0.32904	0.55304	-0.55249	29.6	13111	100
2025-3-27 20:19:39.710	WT901BLE68-01(48591DE3C19B)	-0.444	-0.671	0.141	-5.554	-22.705	55.176	-79.43	23.49	-97.99	-62.230	-40.964	-2.254	0.52960	-0.32904	0.55304	-0.55249	29.6	13111	100
2025-3-27 20:19:39.710	WT901BLE68-01(48591DE3C19B)	-0.444	-0.575	0.138	-6.714	-20.447	65.186	-79.35	24.15	-97.68	-62.230	-40.964	-2.254	0.52960	-0.32904	0.55304	-0.55249	29.6	13111	100
2025-3-27 20:19:39.741	WT901BLE68-01(48591DE3C19B)	-0.309	-0.575	0.138	-6.714	-20.447	65.186	-79.26	24.82	-97.36	-62.230	-40.964	-2.254	0.60175	-0.28561	0.57770	-0.47168	29.6	13111	100
2025-3-27 20:19:39.742	WT901BLE68-01(48591DE3C19B)	-0.309	-0.499	0.115	-11.108	-28.320	78.430	-79.17	25.59	-96.93	-62.230	-40.964	-2.254	0.60175	-0.28561	0.57770	-0.47168	29.6	13111	100
2025-3-27 20:19:39.742	WT901BLE68-01(48591DE3C19B)	-0.248	-0.499	0.115	-11.108	-28.320	78.430	-79.06	26.35	-96.49	-62.230	-40.964	-2.254	0.60175	-0.28561	0.57770	-0.47168	29.6	13111	100
2025-3-27 20:19:39.742	WT901BLE68-01(48591DE3C19B)	-0.347	-0.580	0.089	-20.569	-34.485	87.280	-79.01	27.18	-95.96	-62.230	-40.964	-2.254	0.60175	-0.28561	0.57770	-0.47168	29.6	13111	100
2025-3-27 20:19:39.772	WT901BLE68-01(48591DE3C19B)	-0.347	-1.019	0.079	-36.499	-41.565	83.557	-79.01	27.97	-95.39	-62.230	-40.964	-2.254	0.60175	-0.28561	0.57770	-0.47168	29.6	13111	100
2025-3-27 20:19:39.772	WT901BLE68-01(48591DE3C19B)	-0.714	-1.019	0.079	-36.499	-41.565	83.557	-79.07	28.72	-94.77	-62.230	-40.964	-2.254	0.60175	-0.28561	0.57770	-0.47168	29.6	13111	100
2025-3-27 20:19:39.772	WT901BLE68-01(48591DE3C19B)	-2.856	-1.995	0.156	-35.400	-70.129	65.125	-79.06	29.35	-94.00	-62.230	-40.964	-2.254	0.60175	-0.28561	0.57770	-0.47168	29.6	13111	100
2025-3-27 20:19:39.772	WT901BLE68-01(48591DE3C19B)	-0.752	-7.981	0.625	-35.400	-70.129	65.125	-78.98	29.83	-93.08	-62.230	-40.964	-2.254	0.60175	-0.28561	0.57770	-0.47168	29.6	13111	100
2025-3-27 20:19:39.830	WT901BLE68-01(48591DE3C19B)	-0.752	-2.646	0.126	-11.353	-120.850	41.382	-78.64	30.12	-91.89	-62.230	-40.964	-2.254	0.60175	-0.28561	0.57770	-0.47168	29.6	13111	100
2025-3-27 20:19:39.830	WT901BLE68-01(48591DE3C19B)	-0.384	-2.646	0.126	-11.353	-120.850	41.382	-78.06	30.23	-90.44	-62.230	-40.964	-2.254	0.60175	-0.28561	0.57770	-0.47168	29.6	13111	100
2025-3-27 20:19:39.830	WT901BLE68-01(48591DE3C19B)	-0.384	-2.354	0.034	17.395	-129.456	50.842	-77.31	30.36	-88.93	-62.230	-40.964	-2.254	0.60175	-0.28561	0.57770	-0.47168	29.6	13111	100
2025-3-27 20:19:39.830	WT901BLE68-01(48591DE3C19B)	-0.062	-2.354	0.034	17.395	-129.456	50.842	-76.38	30.50	-87.36	-62.230	-40.964	-2.254	0.60175	-0.28561	0.57770	-0.47168	29.6	13111	100
2025-3-27 20:19:39.862	WT901BLE68-01(48591DE3C19B)	-0.062	-1.840	0.010	19.348	-82.275	44.678	-75.59	30.64	-86.07	-62.230	-40.964	-2.254	0.60175	-0.28561	0.57770	-0.47168	29.6	13111	100
2025-3-27 20:19:39.862	WT901BLE68-01(48591DE3C19B)	0.006	-1.840	0.010	19.348	-82.275	44.678	-74.93	30.78	-85.06	-62.230	-40.964	-2.254	0.60175	-0.28561	0.57770	-0.47168	29.6	13111	100
2025-3-27 20:19:39.862	WT901BLE68-01(48591DE3C19B)	0.006	-1.500	0.065	18.250	-26.184	48.462	-74.43	31.00	-84.35	-62.230	-40.964	-2.254	0.60175	-0.28561	0.57770	-0.47168	29.6	13111	100
2025-3-27 20:19:39.862	WT901BLE68-01(48591DE3C19B)	0.060	-1.500	0.065	18.250	-26.184	48.462	-74.10	31.30	-83.95	-62.230	-40.964	-2.254	0.60175	-0.28561	0.57770	-0.47168	29.6	13111	100
2025-3-27 20:19:39.892	WT901BLE68-01(48591DE3C19B)	0.060	-1.107	0.103	7.385	1.404	42.908	-73.91	31.60	-83.72	-62.230	-40.964	-2.254	0.60175	-0.28561	0.57770	-0.47168	29.6	13111	100
2025-3-27 20:19:39.892	WT901BLE68-01(48591DE3C19B)	0.203	-1.107	0.103	7.385	1.404	42.908	-73.86	31.91	-83.65	-62.230	-40.964	-2.254	0.60175	-0.28561	0.57770	-0.47168	29.6	13111	100
2025-3-27 20:19:39.892	WT901BLE68-01(48591DE3C19B)	0.203	-0.932	0.139	-14.221	25.146	23.254	-74.01	32.15	-83.74	-76.342	-33.222	2.646	0.60175	-0.28561	0.57770	-0.47168	29.6	13111	100
2025-3-27 20:19:39.893	WT901BLE68-01(48591DE3C19B)	0.185	-0.932	0.139	-14.221	25.146	23.254	-74.34	32.32	-84.01	-76.342	-33.222	2.646	0.60175	-0.28561	0.57770	-0.47168	29.6	13111	100
2025-3-27 20:19:39.950	WT901BLE68-01(48591DE3C19B)	0.185	-0.901	0.160	-22.522	46.082	-6.470	-74.82	32.36	-84.44	-76.342	-33.222	2.646	0.60175	-0.28561	0.57770	-0.47168	29.6	13111	100
2025-3-27 20:19:39.950	WT901BLE68-01(48591DE3C19B)	0.050	-0.901	0.160	-22.522	46.082	-6.470	-75.41	32.27	-85.04	-76.342	-33.222	2.646	0.60175	-0.28561	0.57770	-0.47168	29.6	13111	100
2025-3-27 20:19:39.950	WT901BLE68-01(48591DE3C19B)	0.050	-0.785	0.162	-21.973	43.274	-30.212	-76.00	32.06	-85.65	-76.342	-33.222	2.646	0.60175	-0.28561	0.57770	-0.47168	29.6	13111	100
2025-3-27 20:19:39.950	WT901BLE68-01(48591DE3C19B)	-0.072	-0.785	0.162	-21.973	43.274	-30.212	-76.59	31.72	-86.27	-76.342	-33.222	2.646	0.60175	-0.28561	0.57770	-0.47168	29.6	13111	100
2025-3-27 20:19:39.979	WT901BLE68-01(48591DE3C19B)	-0.072	-0.625	0.125	-16.724	36.621	-51.208	-77.14	31.27	-86.87	-76.342	-33.222	2.646	0.60175	-0.28561	0.57770	-0.47168	29.6	13111	100
2025-3-27 20:19:39.979	WT901BLE68-01(48591DE3C19B)	-0.144	-0.625	0.125	-16.724	36.621	-51.208	-77.63	30.71	-87.46	-76.342	-33.222	2.646	0.60175	-0.28561	0.57770	-0.47168	29.6	13111	100
2025-3-27 20:19:39.979	WT901BLE68-01(48591DE3C19B)	-0.144	-0.569	0.058	-17.517	19.592	-74.951	-78.09	30.01	-87.96	-76.342	-33.222	2.646	0.60175	-0.28561	0.57770	-0.47168	29.6	13111	100
2025-3-27 20:19:39.979	WT901BLE68-01(48591DE3C19B)	-0.077	-0.569	0.058	-17.517	19.592	-74.951	-78.50	29.18	-88.38	-76.342	-33.222	2.646	0.60175	-0.28561	0.57770	-0.47168	29.6	13111	100
2025-3-27 20:19:40.10	WT901BLE68-01(48591DE3C19B)	-0.077	-0.590	-0.001	-15.747	-12.329	-95.398	-78.81	28.22	-88.63	-76.342	-33.222	2.646	0.60175	-0.28561	0.57770	-0.47168	29.6	13111	100
2025-3-27 20:19:40.10	WT901BLE68-01(48591DE3C19B)	0.040	-0.590	-0.001	-15.747	-12.329	-95.398	-79.04	27.14	-88.73	-76.342	-33.222	2.646	0.60175	-0.28561	0.57770	-0.47168	29.6	13111	100
2025-3-27 20:19:40.10	WT901BLE68-01(48591DE3C19B)	0.040	-0.597	-0.007	-10.620	-18.311	-104.248	-79.23	26.02	-88.79	-76.342	-33.222	2.646	0.60175	-0.28561	0.57770	-0.47168	29.6	13111	100
2025-3-27 20:19:40.10	WT901BLE68-01(48591DE3C19B)	0.028	-0.597	-0.007	-10.620	-18.311	-104.248	-79.38	24.85	-88.82	-76.342	-33.222	2.646	0.60175	-0.28561	0.57770	-0.47168	29.6	13111	100
2025-3-27 20:19:40.72	WT901BLE68-01(48591DE3C19B)	0.028	-0.615	0.044	0.671	-4.150	-109.497	-79.50	23.66	-88.93	-76.342	-33.222	2.646	0.60175	-0.28561	0.57770	-0.47168	29.6	13111	100
2025-3-27 20:19:40.72	WT901BLE68-01(48591DE3C19B)	-0.040	-0.615	0.044	0.671	-4.150	-109.497	-79.60	22.48	-89.11	-76.342	-33.222	2.646	0.60175	-0.28561	0.57770	-0.47168	29.6	13111	100
2025-3-27 20:19:40.72	WT901BLE68-01(48591DE3C19B)	-0.040	-0.587	0.089	15.808	6.226	-106.934	-79.64	21.31	-89.35	-76.342	-33.222	2.646	0.60175	-0.28561	0.57770	-0.47168	29.6	13111	100
2025-3-27 20:19:40.72	WT901BLE68-01(48591DE3C19B)	-0.082	-0.587	0.089	15.808	6.226	-106.934	-79.61	20.18	-89.63	-76.342	-33.222	2.646	0.60175	-0.28561	0.57770	-0.47168	29.6	13111	100
2025-3-27 20:19:40.102	WT901BLE68-01(48591DE3C19B)	-0.082	-0.499	0.082	26.611	12.146	-99.487	-79.53	19.09	-89.93	-76.342	-33.222	2.646	0.60175	-0.28561	0.57770	-0.47168	29.6	13111	100
2025-3-27 20:19:40.102	WT901BLE68-01(48591DE3C19B)	-0.067	-0.499	0.082	26.611	12.146	-99.487	-79.40	18.06	-90.26	-76.342	-33.222	2.646	0.60175	-0.28561	0.57770	-0.47168	29.6	13111	100
2025-3-27 20:19:40.102	WT901BLE68-01(48591DE3C19B)	-0.067	-0.378	0.054	32.471	17.395	-91.492	-79.24	17.07	-90.60	-76.342	-33.222	2.646	0.60175	-0.28561	0.57770	-0.47168	29.6	13111	100
2025-3-27 20:19:40.102	WT901BLE68-01(48591DE3C19B)	-0.047	-0.378	0.054	32.471	17.395	-91.492	-79.05	16.14	-90.96	-76.342	-33.222	2.646	0.59720	-0.36563	0.52344	-0.48532	29.6	13111	100
2025-3-27 20:19:40.132	WT901BLE68-01(48591DE3C19B)	-0.047	-0.356	0.025	30.273	35.583	-84.656	-78.88	15.27	-91.41	-76.342	-33.222	2.646	0.59720	-0.36563	0.52344	-0.48532	29.6	13111	100
2025-3-27 20:19:40.132	WT901BLE68-01(48591DE3C19B)	-0.164	-0.356	0.025	30.273	35.583	-84.656	-78.75	14.46	-91.93	-76.342	-33.222	2.646	0.59720	-0.36563	0.52344	-0.48532	29.6	13111	100
2025-3-27 20:19:40.132	WT901BLE68-01(48591DE3C19B)	-0.164	-0.464	0.029	30.396	63.904	-78.308	-78.64	13.71	-92.59	-76.342	-33.222	2.646	0.59720	-0.36563	0.52344	-0.48532	29.6	13111	100
2025-3-27 20:19:40.132	WT901BLE68-01(48591DE3C19B)	-0.483	-0.464	0.029	30.396	63.904	-78.308	-78.56	13.03	-93.38	-76.342	-33.222	2.646	0.59720	-0.36563	0.52344	-0.48532	29.6	13111	100
2025-3-27 20:19:40.190	WT901BLE68-01(48591DE3C19B)	-0.483	-0.631	0.048	25.452	80.933	-77.576	-78.51	12.39	-94.25	-76.342	-33.222	2.646	0.59720	-0.36563	0.52344	-0.48532	29.6	13111	100
2025-3-27 20:19:40.190	WT901BLE68-01(48591DE3C19B)	-0.941	-0.631	0.048	25.452	80.933	-77.576	-78.50	11.79	-95.20	-76.342	-33.222	2.646	0.59720	-0.36563	0.52344	-0.48532	29.6	13111	100
2025-3-27 20:19:40.190	WT901BLE68-01(48591DE3C19B)	-0.941	-1.007	0.082	5.554	91.248	-88.623	-78.59	11.17	-96.19	-76.342	-33.222	2.646	0.59720	-0.36563	0.52344	-0.48532	29.6	13111	100
2025-3-27 20:19:40.190	WT901BLE68-01(48591DE3C19B)	-1.323	-1.007	0.082	5.554	91.248	-88.623	-78.77	10.54	-97.25	-76.342	-33.222	2.646	0.59720	-0.36563	0.52344	-0.48532	29.6	13111	100
2025-3-27 20:19:40.218	WT901BLE68-01(48591DE3C19B)	-1.323	-1.602	0.271	11.719	87.341	-112.427	-78.92	9.81	-98.29	-76.342	-33.222	2.646	0.59720	-0.36563	0.52344	-0.48532	29.6	13111	100
2025-3-27 20:19:40.219	WT901BLE68-01(48591DE3C19B)	-1.525	-1.602	0.271	11.719	87.341	-112.427	-79.01	8.99	-99.33	-76.342	-33.222	2.646	0.59720	-0.36563	0.52344	-0.48532	29.6	13111	100
2025-3-27 20:19:40.219	WT901BLE68-01(48591DE3C19B)	-1.525	-1.939	0.308	4.761	59.021	-117.676	-79.12	8.07	-100.10	-76.342	-33.222	2.646	0.59720	-0.36563	0.52344	-0.48532	29.6	13111	100
2025-3-27 20:19:40.219	WT901BLE68-01(48591DE3C19B)	-1.531	-1.939	0.308	4.761	59.021	-117.676	-79.21	7.17	-100.87	-76.342	-33.222	2.646	0.59720	-0.36563	0.52344	-0.48532	29.6	13111	100
2025-3-27 20:19:40.249	WT901BLE68-01(48591DE3C19B)	-1.531	-1.857	0.238	12.390	67.566	-94.849	-79.21	6.53	-101.68	-76.342	-33.222	2.646	0.59720	-0.36563	0.52344	-0.48532	29.6	13111	100
2025-3-27 20:19:40.249	WT901BLE68-01(48591DE3C19B)	-1.483	-1.857	0.238	12.390	67.566	-94.849	-79.21	5.89	-102.49	-76.342	-33.222	2.646	0.59720	-0.36563	0.52344	-0.48532	29.6	13111	100
2025-3-27 20:19:40.249	WT901BLE68-01(48591DE3C19B)	-1.483	-1.537	0.295	8.362	96.741	-51.208	-79.26	5.74	-103.50	-76.342	-33.222	2.646	0.59720	-0.36563	0.52344	-0.48532	29.6	13111	100
2025-3-27 20:19:40.249	WT901BLE68-01(48591DE3C19B)	-1.246	-1.537	0.295	8.362	96.741	-51.208	-79.30	5.60	-104.51	-76.342	-33.222	2.646	0.59720	-0.36563	0.52344	-0.48532	29.6	13111	100
2025-3-27 20:19:40.310	WT901BLE68-01(48591DE3C19B)	-1.246	-1.237	0.363	-5.798	89.600	-1.953	-79.46	5.93	-105.36	-76.342	-33.222	2.646	0.59720	-0.36563	0.52344	-0.48532	29.6	13111	100
2025-3-27 20:19:40.310	WT901BLE68-01(48591DE3C19B)	-0.809	-1.237	0.363	-5.798	89.600	-1.953	-79.63	6.26	-106.23	-76.342	-33.222	2.646	0.59720	-0.36563	0.52344	-0.48532	29.6	13111	100
2025-3-27 20:19:40.310	WT901BLE68-01(48591DE3C19B)	-0.809	-0.963	0.391	-23.193	59.753	70.618	-79.91	7.25	-106.69	-76.342	-33.222	2.646	0.59720	-0.36563	0.52344	-0.48532	29.6	13111	100
2025-3-27 20:19:40.310	WT901BLE68-01(48591DE3C19B)	-0.892	-0.963	0.391	-23.193	59.753	70.618	-80.21	8.23	-107.16	-76.342	-33.222	2.646	0.59720	-0.36563	0.52344	-0.48532	29.6	13111	100
2025-3-27 20:19:40.341	WT901BLE68-01(48591DE3C19B)	-0.892	-0.906	0.383	-41.687	21.667	117.859	-80.61	9.60	-107.18	-63.700	-43.904	1.960	0.59720	-0.36563	0.52344	-0.48532	29.6	13111	100
2025-3-27 20:19:40.341	WT901BLE68-01(48591DE3C19B)	-0.856	-0.906	0.383	-41.687	21.667	117.859	-81.00	10.97	-107.23	-63.700	-43.904	1.960	0.59720	-0.36563	0.52344	-0.48532	29.6	13111	100
2025-3-27 20:19:40.341	WT901BLE68-01(48591DE3C19B)	-0.856	-0.834	0.365	-58.899	-49.927	144.531	-81.41	12.48	-106.53	-63.700	-43.904	1.960	0.59720	-0.36563	0.52344	-0.48532	29.6	13111	100
2025-3-27 20:19:40.342	WT901BLE68-01(48591DE3C19B)	-0.622	-0.834	0.365	-58.899	-49.927	144.531	-81.79	13.99	-105.85	-63.700	-43.904	1.960	0.59720	-0.36563	0.52344	-0.48532	29.6	13111	100
2025-3-27 20:19:40.369	WT901BLE68-01(48591DE3C19B)	-0.622	-0.670	0.396	-59.326	-100.525	155.334	-82.01	15.53	-104.65	-63.700	-43.904	1.960	0.59720	-0.36563	0.52344	-0.48532	29.6	13111	100
2025-3-27 20:19:40.369	WT901BLE68-01(48591DE3C19B)	-0.717	-0.670	0.396	-59.326	-100.525	155.334	-82.19	17.07	-103.45	-63.700	-43.904	1.960	0.59720	-0.36563	0.52344	-0.48532	29.6	13111	100
2025-3-27 20:19:40.369	WT901BLE68-01(48591DE3C19B)	-0.717	-0.453	0.277	-52.063	-70.374	163.452	-82.34	18.72	-102.57	-63.700	-43.904	1.960	0.59720	-0.36563	0.52344	-0.48532	29.6	13111	100
2025-3-27 20:19:40.369	WT901BLE68-01(48591DE3C19B)	-0.655	-0.453	0.277	-52.063	-70.374	163.452	-82.47	20.36	-101.68	-63.700	-43.904	1.960	0.59720	-0.36563	0.52344	-0.48532	29.6	13111	100
2025-3-27 20:19:40.430	WT901BLE68-01(48591DE3C19B)	-0.655	-0.363	0.206	-52.795	-68.665	162.903	-82.57	22.01	-100.82	-63.700	-43.904	1.960	0.59720	-0.36563	0.52344	-0.48532	29.6	13111	100
2025-3-27 20:19:40.430	WT901BLE68-01(48591DE3C19B)	-0.341	-0.363	0.206	-52.795	-68.665	162.903	-82.64	23.64	-99.95	-63.700	-43.904	1.960	0.59720	-0.36563	0.52344	-0.48532	29.6	13111	100
2025-3-27 20:19:40.430	WT901BLE68-01(48591DE3C19B)	-0.341	-0.315	0.161	-51.331	-94.788	161.621	-82.55	25.22	-98.79	-63.700	-43.904	1.960	0.59720	-0.36563	0.52344	-0.48532	29.6	13111	100
2025-3-27 20:19:40.430	WT901BLE68-01(48591DE3C19B)	-0.105	-0.315	0.161	-51.331	-94.788	161.621	-82.42	26.80	-97.61	-63.700	-43.904	1.960	0.59720	-0.36563	0.52344	-0.48532	29.6	13111	100
2025-3-27 20:19:40.461	WT901BLE68-01(48591DE3C19B)	-0.105	-0.248	0.108	-44.067	-103.455	152.100	-82.13	28.25	-96.32	-63.700	-43.904	1.960	0.59720	-0.36563	0.52344	-0.48532	29.6	13111	100
2025-3-27 20:19:40.461	WT901BLE68-01(48591DE3C19B)	-0.068	-0.248	0.108	-44.067	-103.455	152.100	-81.82	29.68	-95.00	-63.700	-43.904	1.960	0.59720	-0.36563	0.52344	-0.48532	29.6	13111	100
2025-3-27 20:19:40.461	WT901BLE68-01(48591DE3C19B)	-0.068	-0.241	0.080	-39.246	-98.511	151.245	-81.43	31.09	-93.70	-63.700	-43.904	1.960	0.59720	-0.36563	0.52344	-0.48532	29.6	13111	100
2025-3-27 20:19:40.461	WT901BLE68-01(48591DE3C19B)	-0.128	-0.241	0.080	-39.246	-98.511	151.245	-81.01	32.48	-92.36	-63.700	-43.904	1.960	0.59720	-0.36563	0.52344	-0.48532	29.6	13111	100
2025-3-27 20:19:40.491	WT901BLE68-01(48591DE3C19B)	-0.128	-0.396	0.020	-41.443	-104.431	145.447	-80.54	33.78	-90.92	-63.700	-43.904	1.960	0.59720	-0.36563	0.52344	-0.48532	29.6	13111	100
2025-3-27 20:19:40.492	WT901BLE68-01(48591DE3C19B)	-0.129	-0.396	0.020	-41.443	-104.431	145.447	-80.02	35.06	-89.43	-63.700	-43.904	1.960	0.59720	-0.36563	0.52344	-0.48532	29.6	13111	100
2025-3-27 20:19:40.492	WT901BLE68-01(48591DE3C19B)	-0.129	-0.733	-0.080	-47.363	-114.624	130.798	-79.49	36.15	-87.80	-63.700	-43.904	1.960	0.66418	-0.27249	0.59335	-0.36392	29.6	13111	100
2025-3-27 20:19:40.492	WT901BLE68-01(48591DE3C19B)	-0.189	-0.733	-0.080	-47.363	-114.624	130.798	-78.93	37.20	-86.13	-63.700	-43.904	1.960	0.66418	-0.27249	0.59335	-0.36392	29.6	13111	100
2025-3-27 20:19:40.549	WT901BLE68-01(48591DE3C19B)	-0.189	-1.388	-0.179	-45.593	-111.877	104.736	-78.40	37.96	-84.51	-63.700	-43.904	1.960	0.66418	-0.27249	0.59335	-0.36392	29.6	13111	100
2025-3-27 20:19:40.549	WT901BLE68-01(48591DE3C19B)	-0.346	-1.388	-0.179	-45.593	-111.877	104.736	-77.86	38.68	-82.85	-63.700	-43.904	1.960	0.66418	-0.27249	0.59335	-0.36392	29.6	13111	100
2025-3-27 20:19:40.549	WT901BLE68-01(48591DE3C19B)	-0.346	-2.420	-0.228	-18.860	-108.826	62.317	-77.15	38.96	-81.34	-63.700	-43.904	1.960	0.66418	-0.27249	0.59335	-0.36392	29.6	13111	100
2025-3-27 20:19:40.550	WT901BLE68-01(48591DE3C19B)	-0.435	-2.420	-0.228	-18.860	-108.826	62.317	-76.45	39.19	-79.82	-63.700	-43.904	1.960	0.66418	-0.27249	0.59335	-0.36392	29.6	13111	100
2025-3-27 20:19:40.579	WT901BLE68-01(48591DE3C19B)	-0.435	-2.928	-0.191	21.423	-114.319	24.658	-75.38	39.02	-78.35	-63.700	-43.904	1.960	0.66418	-0.27249	0.59335	-0.36392	29.6	13111	100
2025-3-27 20:19:40.579	WT901BLE68-01(48591DE3C19B)	-0.320	-2.928	-0.191	21.423	-114.319	24.658	-74.34	38.83	-76.91	-63.700	-43.904	1.960	0.66418	-0.27249	0.59335	-0.36392	29.6	13111	100
2025-3-27 20:19:40.579	WT901BLE68-01(48591DE3C19B)	-0.320	-2.206	-0.124	49.011	-74.585	4.761	-73.39	38.52	-76.03	-63.700	-43.904	1.960	0.66418	-0.27249	0.59335	-0.36392	29.6	13111	100
2025-3-27 20:19:40.579	WT901BLE68-01(48591DE3C19B)	-0.088	-2.206	-0.124	49.011	-74.585	4.761	-72.47	38.20	-75.17	-63.700	-43.904	1.960	0.66418	-0.27249	0.59335	-0.36392	29.6	13111	100
2025-3-27 20:19:40.609	WT901BLE68-01(48591DE3C19B)	-0.088	-1.675	-0.125	41.931	8.301	-1.099	-72.26	38.07	-75.34	-63.700	-43.904	1.960	0.66418	-0.27249	0.59335	-0.36392	29.6	13111	100
2025-3-27 20:19:40.609	WT901BLE68-01(48591DE3C19B)	0.125	-1.675	-0.125	41.931	8.301	-1.099	-72.05	37.94	-75.51	-63.700	-43.904	1.960	0.66418	-0.27249	0.59335	-0.36392	29.6	13111	100
2025-3-27 20:19:40.609	WT901BLE68-01(48591DE3C19B)	0.125	-1.233	-0.079	39.734	77.393	6.287	-72.36	38.07	-76.49	-63.700	-43.904	1.960	0.66418	-0.27249	0.59335	-0.36392	29.6	13111	100
2025-3-27 20:19:40.609	WT901BLE68-01(48591DE3C19B)	0.160	-1.233	-0.079	39.734	77.393	6.287	-72.67	38.19	-77.46	-63.700	-43.904	1.960	0.66418	-0.27249	0.59335	-0.36392	29.6	13111	100
2025-3-27 20:19:40.671	WT901BLE68-01(48591DE3C19B)	0.160	-0.866	0.049	22.766	91.064	9.888	-73.25	38.38	-78.59	-63.700	-43.904	1.960	0.66418	-0.27249	0.59335	-0.36392	29.6	13111	100
2025-3-27 20:19:40.671	WT901BLE68-01(48591DE3C19B)	0.161	-0.866	0.049	22.766	91.064	9.888	-73.82	38.55	-79.72	-63.700	-43.904	1.960	0.66418	-0.27249	0.59335	-0.36392	29.6	13111	100
2025-3-27 20:19:40.671	WT901BLE68-01(48591DE3C19B)	0.019	-0.946	0.110	-4.211	66.162	-14.465	-74.53	38.40	-80.62	-63.700	-43.904	1.960	0.66418	-0.27249	0.59335	-0.36392	29.6	13111	100
2025-3-27 20:19:40.671	WT901BLE68-01(48591DE3C19B)	0.019	-0.962	0.156	-1.953	56.519	-31.494	-75.18	38.14	-81.49	-63.700	-43.904	1.960	0.66418	-0.27249	0.59335	-0.36392	29.6	13111	100
2025-3-27 20:19:40.701	WT901BLE68-01(48591DE3C19B)	-0.220	-0.962	0.156	-1.953	56.519	-31.494	-75.79	37.78	-82.32	-63.700	-43.904	1.960	0.66418	-0.27249	0.59335	-0.36392	29.6	13111	100
2025-3-27 20:19:40.702	WT901BLE68-01(48591DE3C19B)	-0.220	-0.698	0.140	4.517	45.105	-44.739	-76.32	37.33	-83.08	-63.700	-43.904	1.960	0.66418	-0.27249	0.59335	-0.36392	29.6	13111	100
2025-3-27 20:19:40.702	WT901BLE68-01(48591DE3C19B)	-0.219	-0.698	0.140	4.517	45.105	-44.739	-76.77	36.81	-83.78	-63.700	-43.904	1.960	0.66418	-0.27249	0.59335	-0.36392	29.6	13111	100
2025-3-27 20:19:40.702	WT901BLE68-01(48591DE3C19B)	-0.219	-0.405	0.115	9.888	17.029	-47.791	-77.07	36.25	-84.30	-75.656	-35.868	10.290	0.66418	-0.27249	0.59335	-0.36392	29.6	13111	100
2025-3-27 20:19:40.731	WT901BLE68-01(48591DE3C19B)	-0.008	-0.405	0.115	9.888	17.029	-47.791	-77.24	35.65	-84.64	-75.656	-35.868	10.290	0.66418	-0.27249	0.59335	-0.36392	29.6	13111	100
2025-3-27 20:19:40.731	WT901BLE68-01(48591DE3C19B)	-0.008	-0.165	0.086	9.216	-11.047	-47.302	-77.31	35.02	-84.81	-75.656	-35.868	10.290	0.66418	-0.27249	0.59335	-0.36392	29.6	13111	100
2025-3-27 20:19:40.731	WT901BLE68-01(48591DE3C19B)	0.158	-0.165	0.086	9.216	-11.047	-47.302	-77.27	34.38	-84.81	-75.656	-35.868	10.290	0.66418	-0.27249	0.59335	-0.36392	29.6	13111	100
2025-3-27 20:19:40.731	WT901BLE68-01(48591DE3C19B)	0.158	-0.126	0.102	4.395	-2.014	-49.316	-77.29	33.73	-84.87	-75.656	-35.868	10.290	0.66418	-0.27249	0.59335	-0.36392	29.6	13111	100
2025-3-27 20:19:40.790	WT901BLE68-01(48591DE3C19B)	0.102	-0.126	0.102	4.395	-2.014	-49.316	-77.35	33.08	-84.99	-75.656	-35.868	10.290	0.66418	-0.27249	0.59335	-0.36392	29.6	13111	100
2025-3-27 20:19:40.790	WT901BLE68-01(48591DE3C19B)	0.102	-0.340	0.110	0.000	22.522	-60.364	-77.53	32.40	-85.26	-75.656	-35.868	10.290	0.66418	-0.27249	0.59335	-0.36392	29.6	13111	100
2025-3-27 20:19:40.790	WT901BLE68-01(48591DE3C19B)	-0.004	-0.340	0.110	0.000	22.522	-60.364	-77.78	31.68	-85.68	-75.656	-35.868	10.290	0.66418	-0.27249	0.59335	-0.36392	29.6	13111	100
2025-3-27 20:19:40.790	WT901BLE68-01(48591DE3C19B)	-0.004	-0.605	0.083	-2.075	34.180	-71.960	-78.09	30.93	-86.18	-75.656	-35.868	10.290	0.66418	-0.27249	0.59335	-0.36392	29.6	13111	100
2025-3-27 20:19:40.819	WT901BLE68-01(48591DE3C19B)	-0.194	-0.605	0.083	-2.075	34.180	-71.960	-78.42	30.12	-86.74	-75.656	-35.868	10.290	0.66418	-0.27249	0.59335	-0.36392	29.6	13111	100
2025-3-27 20:19:40.819	WT901BLE68-01(48591DE3C19B)	-0.194	-0.980	0.036	-7.080	43.457	-97.046	-78.81	29.21	-87.37	-75.656	-35.868	10.290	0.66418	-0.27249	0.59335	-0.36392	29.6	13111	100
2025-3-27 20:19:40.819	WT901BLE68-01(48591DE3C19B)	-0.469	-0.980	0.036	-7.080	43.457	-97.046	-79.24	28.20	-88.06	-75.656	-35.868	10.290	0.66418	-0.27249	0.59335	-0.36392	29.6	13111	100
2025-3-27 20:19:40.819	WT901BLE68-01(48591DE3C19B)	-0.469	-1.621	-0.001	-3.601	53.772	-134.521	-79.69	27.02	-88.82	-75.656	-35.868	10.290	0.66418	-0.27249	0.59335	-0.36392	29.6	13111	100
2025-3-27 20:19:40.849	WT901BLE68-01(48591DE3C19B)	-0.822	-1.621	-0.001	-3.601	53.772	-134.521	-80.13	25.67	-89.64	-75.656	-35.868	10.290	0.66418	-0.27249	0.59335	-0.36392	29.6	13111	100
2025-3-27 20:19:40.849	WT901BLE68-01(48591DE3C19B)	-0.822	-2.429	0.045	14.282	55.908	-184.631	-80.49	24.10	-90.50	-75.656	-35.868	10.290	0.66418	-0.27249	0.59335	-0.36392	29.6	13111	100
2025-3-27 20:19:40.849	WT901BLE68-01(48591DE3C19B)	-1.336	-2.429	0.045	14.282	55.908	-184.631	-80.75	22.30	-91.38	-75.656	-35.868	10.290	0.66418	-0.27249	0.59335	-0.36392	29.6	13111	100
2025-3-27 20:19:40.849	WT901BLE68-01(48591DE3C19B)	-1.336	-2.527	0.295	34.607	28.992	-188.843	-80.82	20.47	-92.10	-75.656	-35.868	10.290	0.66418	-0.27249	0.59335	-0.36392	29.6	13111	100
2025-3-27 20:19:40.910	WT901BLE68-01(48591DE3C19B)	-1.308	-2.527	0.295	34.607	28.992	-188.843	-80.72	18.64	-92.67	-75.656	-35.868	10.290	0.66418	-0.27249	0.59335	-0.36392	29.6	13111	100
2025-3-27 20:19:40.910	WT901BLE68-01(48591DE3C19B)	-1.308	-1.715	0.436	32.959	47.363	-202.393	-80.63	16.78	-93.35	-75.656	-35.868	10.290	0.66418	-0.27249	0.59335	-0.36392	29.6	13111	100
2025-3-27 20:19:40.910	WT901BLE68-01(48591DE3C19B)	-1.104	-1.715	0.436	32.959	47.363	-202.393	-80.56	14.89	-94.11	-75.656	-35.868	10.290	0.66418	-0.27249	0.59335	-0.36392	29.6	13111	100
2025-3-27 20:19:40.910	WT901BLE68-01(48591DE3C19B)	-1.104	-1.298	0.497	26.001	104.675	-160.950	-80.54	13.28	-95.14	-75.656	-35.868	10.290	0.66418	-0.27249	0.59335	-0.36392	29.6	13111	100
2025-3-27 20:19:40.969	WT901BLE68-01(48591DE3C19B)	-1.093	-1.298	0.497	26.001	104.675	-160.950	-80.58	11.94	-96.41	-75.656	-35.868	10.290	0.55569	-0.36954	0.53235	-0.52069	29.6	13111	100
2025-3-27 20:19:40.969	WT901BLE68-01(48591DE3C19B)	-1.093	-0.957	0.452	24.231	114.502	-118.896	-80.61	10.83	-97.68	-75.656	-35.868	10.290	0.55569	-0.36954	0.53235	-0.52069	29.6	13111	100
2025-3-27 20:19:40.969	WT901BLE68-01(48591DE3C19B)	-1.053	-0.957	0.452	24.231	114.502	-118.896	-80.61	9.95	-98.98	-75.656	-35.868	10.290	0.55569	-0.36954	0.53235	-0.52069	29.6	13111	100
2025-3-27 20:19:40.969	WT901BLE68-01(48591DE3C19B)	-1.053	-0.576	0.484	9.399	54.932	-72.449	-80.61	9.27	-99.93	-75.656	-35.868	10.290	0.55569	-0.36954	0.53235	-0.52069	29.6	13111	100
2025-3-27 20:19:40.998	WT901BLE68-01(48591DE3C19B)	-0.864	-0.576	0.484	9.399	54.932	-72.449	-80.61	8.78	-100.56	-75.656	-35.868	10.290	0.55569	-0.36954	0.53235	-0.52069	29.6	13111	100
2025-3-27 20:19:40.999	WT901BLE68-01(48591DE3C19B)	-0.864	-0.457	0.451	-16.663	-25.513	-28.625	-80.65	8.46	-100.78	-75.656	-35.868	10.290	0.55569	-0.36954	0.53235	-0.52069	29.6	13111	100
2025-3-27 20:19:40.999	WT901BLE68-01(48591DE3C19B)	-0.614	-0.457	0.451	-16.663	-25.513	-28.625	-80.75	8.30	-100.58	-75.656	-35.868	10.290	0.55569	-0.36954	0.53235	-0.52069	29.6	13111	100
2025-3-27 20:19:40.999	WT901BLE68-01(48591DE3C19B)	-0.614	-0.460	0.292	-20.020	-46.936	4.761	-80.83	8.29	-100.28	-75.656	-35.868	10.290	0.55569	-0.36954	0.53235	-0.52069	29.6	13111	100
2025-3-27 20:19:41.29	WT901BLE68-01(48591DE3C19B)	-0.487	-0.460	0.292	-20.020	-46.936	4.761	-80.90	8.44	-99.85	-75.656	-35.868	10.290	0.55569	-0.36954	0.53235	-0.52069	29.6	13111	100
2025-3-27 20:19:41.29	WT901BLE68-01(48591DE3C19B)	-0.487	-0.280	0.133	1.648	-20.996	31.006	-80.87	8.73	-99.56	-75.656	-35.868	10.290	0.55569	-0.36954	0.53235	-0.52069	29.6	13111	100
2025-3-27 20:19:41.29	WT901BLE68-01(48591DE3C19B)	-0.420	-0.280	0.133	1.648	-20.996	31.006	-80.74	9.18	-99.38	-75.656	-35.868	10.290	0.55569	-0.36954	0.53235	-0.52069	29.6	13111	100
2025-3-27 20:19:41.29	WT901BLE68-01(48591DE3C19B)	-0.420	0.008	0.053	8.118	18.250	51.208	-80.60	9.76	-99.40	-75.656	-35.868	10.290	0.55569	-0.36954	0.53235	-0.52069	29.6	13111	100
2025-3-27 20:19:41.63	WT901BLE68-01(48591DE3C19B)	-0.425	0.008	0.053	8.118	18.250	51.208	-80.45	10.47	-99.61	-75.656	-35.868	10.290	0.55569	-0.36954	0.53235	-0.52069	29.6	13111	100
2025-3-27 20:19:41.63	WT901BLE68-01(48591DE3C19B)	-0.425	0.126	0.047	1.831	45.776	61.890	-80.34	11.26	-100.00	-75.656	-35.868	10.290	0.55569	-0.36954	0.53235	-0.52069	29.6	13111	100
2025-3-27 20:19:41.63	WT901BLE68-01(48591DE3C19B)	-0.534	0.126	0.047	1.831	45.776	61.890	-80.27	12.12	-100.57	-75.656	-35.868	10.290	0.55569	-0.36954	0.53235	-0.52069	29.6	13111	100
2025-3-27 20:19:41.63	WT901BLE68-01(48591DE3C19B)	-0.534	0.089	0.049	-3.357	54.199	69.885	-80.21	13.01	-101.25	-75.656	-35.868	10.290	0.55569	-0.36954	0.53235	-0.52069	29.6	13111	100
2025-3-27 20:19:41.150	WT901BLE68-01(48591DE3C19B)	-0.615	0.089	0.049	-3.357	54.199	69.885	-80.15	13.93	-102.06	-75.656	-35.868	10.290	0.55569	-0.36954	0.53235	-0.52069	29.6	13111	100
2025-3-27 20:19:41.150	WT901BLE68-01(48591DE3C19B)	-0.615	-0.021	0.047	-7.202	28.809	71.411	-80.05	14.81	-102.80	-75.656	-35.868	10.290	0.55569	-0.36954	0.53235	-0.52069	29.6	13111	100
2025-3-27 20:19:41.150	WT901BLE68-01(48591DE3C19B)	-0.600	-0.021	0.047	-7.202	28.809	71.411	-79.92	15.65	-103.44	-75.656	-35.868	10.290	0.55569	-0.36954	0.53235	-0.52069	29.6	13111	100
2025-3-27 20:19:41.150	WT901BLE68-01(48591DE3C19B)	-0.600	-0.248	0.054	-11.780	-22.888	69.275	-79.73	16.42	-103.84	-75.656	-35.868	10.290	0.55569	-0.36954	0.53235	-0.52069	29.6	13111	100
2025-3-27 20:19:41.151	WT901BLE68-01(48591DE3C19B)	-0.604	-0.248	0.054	-11.780	-22.888	69.275	-79.48	17.14	-103.97	-62.230	-49.588	9.016	0.55569	-0.36954	0.53235	-0.52069	29.6	13111	100
2025-3-27 20:19:41.151	WT901BLE68-01(48591DE3C19B)	-0.604	-0.584	0.057	-12.329	-77.271	62.805	-79.16	17.76	-103.84	-62.230	-49.588	9.016	0.55569	-0.36954	0.53235	-0.52069	29.6	13111	100
2025-3-27 20:19:41.151	WT901BLE68-01(48591DE3C19B)	-0.731	-0.584	0.057	-12.329	-77.271	62.805	-78.75	18.30	-103.43	-62.230	-49.588	9.016	0.55569	-0.36954	0.53235	-0.52069	29.6	13111	100
2025-3-27 20:19:41.151	WT901BLE68-01(48591DE3C19B)	-0.731	-1.170	0.060	-15.259	-131.287	52.551	-78.23	18.64	-102.47	-62.230	-49.588	9.016	0.55569	-0.36954	0.53235	-0.52069	29.6	13111	100
2025-3-27 20:19:41.182	WT901BLE68-01(48591DE3C19B)	-0.827	-1.170	0.060	-15.259	-131.287	52.551	-77.78	19.03	-101.37	-62.230	-49.588	9.016	0.55569	-0.36954	0.53235	-0.52069	29.6	13111	100
2025-3-27 20:19:41.182	WT901BLE68-01(48591DE3C19B)	-0.827	-2.225	-0.050	-22.644	-168.640	18.127	-77.46	19.00	-99.50	-62.230	-49.588	9.016	0.55569	-0.36954	0.53235	-0.52069	29.6	13111	100
2025-3-27 20:19:41.182	WT901BLE68-01(48591DE3C19B)	-0.759	-2.225	-0.050	-22.644	-168.640	18.127	-77.17	18.92	-97.61	-62.230	-49.588	9.016	0.55569	-0.36954	0.53235	-0.52069	29.6	13111	100
2025-3-27 20:19:41.182	WT901BLE68-01(48591DE3C19B)	-0.759	-2.978	-0.116	2.563	-183.411	19.653	-76.59	18.78	-95.56	-62.230	-49.588	9.016	0.55569	-0.36954	0.53235	-0.52069	29.6	13111	100
2025-3-27 20:19:41.239	WT901BLE68-01(48591DE3C19B)	-0.476	-2.978	-0.116	2.563	-183.411	19.653	-76.02	18.59	-93.54	-62.230	-49.588	9.016	0.55569	-0.36954	0.53235	-0.52069	29.6	13111	100
2025-3-27 20:19:41.239	WT901BLE68-01(48591DE3C19B)	-0.476	-1.976	0.023	46.631	-138.855	31.494	-75.15	18.60	-91.94	-62.230	-49.588	9.016	0.55569	-0.36954	0.53235	-0.52069	29.6	13111	100
2025-3-27 20:19:41.240	WT901BLE68-01(48591DE3C19B)	-0.137	-1.976	0.023	46.631	-138.855	31.494	-74.30	18.57	-90.37	-62.230	-49.588	9.016	0.55569	-0.36954	0.53235	-0.52069	29.6	13111	100
2025-3-27 20:19:41.240	WT901BLE68-01(48591DE3C19B)	-0.137	-1.548	0.130	19.775	-68.420	53.772	-73.91	18.92	-89.46	-62.230	-49.588	9.016	0.55569	-0.36954	0.53235	-0.52069	29.6	13111	100
2025-3-27 20:19:41.270	WT901BLE68-01(48591DE3C19B)	0.086	-1.548	0.130	19.775	-68.420	53.772	-73.52	19.26	-88.56	-62.230	-49.588	9.016	0.55569	-0.36954	0.53235	-0.52069	29.6	13111	100
2025-3-27 20:19:41.270	WT901BLE68-01(48591DE3C19B)	0.086	-1.372	0.232	20.447	-0.854	86.914	-73.30	20.08	-88.25	-62.230	-49.588	9.016	0.55569	-0.36954	0.53235	-0.52069	29.6	13111	100
2025-3-27 20:19:41.271	WT901BLE68-01(48591DE3C19B)	0.237	-1.372	0.232	20.447	-0.854	86.914	-73.08	20.89	-87.94	-62.230	-49.588	9.016	0.55569	-0.36954	0.53235	-0.52069	29.6	13111	100
2025-3-27 20:19:41.271	WT901BLE68-01(48591DE3C19B)	0.237	-1.065	0.220	15.625	38.025	107.422	-73.02	21.99	-87.98	-62.230	-49.588	9.016	0.55569	-0.36954	0.53235	-0.52069	29.6	13111	100
2025-3-27 20:19:41.299	WT901BLE68-01(48591DE3C19B)	0.341	-1.065	0.220	15.625	38.025	107.422	-72.96	23.07	-88.02	-62.230	-49.588	9.016	0.55569	-0.36954	0.53235	-0.52069	29.6	13111	100
2025-3-27 20:19:41.300	WT901BLE68-01(48591DE3C19B)	0.341	-0.774	0.212	9.277	48.401	96.191	-73.02	24.06	-88.21	-62.230	-49.588	9.016	0.55569	-0.36954	0.53235	-0.52069	29.6	13111	100
2025-3-27 20:19:41.300	WT901BLE68-01(48591DE3C19B)	0.245	-0.774	0.212	9.277	48.401	96.191	-73.08	25.03	-88.41	-62.230	-49.588	9.016	0.55569	-0.36954	0.53235	-0.52069	29.6	13111	100
2025-3-27 20:19:41.300	WT901BLE68-01(48591DE3C19B)	0.245	-0.463	0.181	14.832	75.012	97.534	-73.20	26.07	-88.90	-62.230	-49.588	9.016	0.55569	-0.36954	0.53235	-0.52069	29.6	13111	100
2025-3-27 20:19:41.362	WT901BLE68-01(48591DE3C19B)	-0.049	-0.463	0.181	14.832	75.012	97.534	-73.33	27.09	-89.39	-62.230	-49.588	9.016	0.55569	-0.36954	0.53235	-0.52069	29.6	13111	100
2025-3-27 20:19:41.362	WT901BLE68-01(48591DE3C19B)	-0.049	-0.284	0.101	9.766	132.385	103.821	-73.80	28.33	-90.50	-62.230	-49.588	9.016	0.64890	-0.26602	0.55582	-0.44623	29.6	13111	100
2025-3-27 20:19:41.362	WT901BLE68-01(48591DE3C19B)	-0.134	-0.284	0.101	9.766	132.385	103.821	-74.30	29.55	-91.63	-62.230	-49.588	9.016	0.64890	-0.26602	0.55582	-0.44623	29.6	13111	100
2025-3-27 20:19:41.362	WT901BLE68-01(48591DE3C19B)	-0.134	-0.178	0.091	-3.906	139.343	91.064	-75.02	30.66	-92.89	-62.230	-49.588	9.016	0.64890	-0.26602	0.55582	-0.44623	29.6	13111	100
2025-3-27 20:19:41.389	WT901BLE68-01(48591DE3C19B)	-0.075	-0.178	0.091	-3.906	139.343	91.064	-75.77	31.74	-94.19	-62.230	-49.588	9.016	0.64890	-0.26602	0.55582	-0.44623	29.6	13111	100
2025-3-27 20:19:41.389	WT901BLE68-01(48591DE3C19B)	-0.075	-0.207	0.176	-17.944	82.458	79.285	-76.35	32.56	-94.89	-62.230	-49.588	9.016	0.64890	-0.26602	0.55582	-0.44623	29.6	13111	100
2025-3-27 20:19:41.389	WT901BLE68-01(48591DE3C19B)	0.038	-0.207	0.176	-17.944	82.458	79.285	-76.95	33.37	-95.62	-62.230	-49.588	9.016	0.64890	-0.26602	0.55582	-0.44623	29.6	13111	100
2025-3-27 20:19:41.389	WT901BLE68-01(48591DE3C19B)	0.038	-0.500	0.189	-31.433	25.452	67.261	-77.33	33.93	-95.73	-62.230	-49.588	9.016	0.64890	-0.26602	0.55582	-0.44623	29.6	13111	100
2025-3-27 20:19:41.419	WT901BLE68-01(48591DE3C19B)	0.008	-0.500	0.189	-31.433	25.452	67.261	-77.72	34.48	-95.85	-62.230	-49.588	9.016	0.64890	-0.26602	0.55582	-0.44623	29.6	13111	100
2025-3-27 20:19:41.420	WT901BLE68-01(48591DE3C19B)	0.008	-0.850	0.131	-29.724	3.540	47.363	-77.96	34.77	-95.76	-62.230	-49.588	9.016	0.64890	-0.26602	0.55582	-0.44623	29.6	13111	100
2025-3-27 20:19:41.420	WT901BLE68-01(48591DE3C19B)	-0.166	-0.850	0.131	-29.724	3.540	47.363	-78.22	35.06	-95.68	-62.230	-49.588	9.016	0.64890	-0.26602	0.55582	-0.44623	29.6	13111	100
2025-3-27 20:19:41.420	WT901BLE68-01(48591DE3C19B)	-0.166	-1.161	0.054	-22.095	-12.878	20.569	-78.33	35.06	-95.47	-62.230	-49.588	9.016	0.64890	-0.26602	0.55582	-0.44623	29.6	13111	100
2025-3-27 20:19:41.510	WT901BLE68-01(48591DE3C19B)	-0.301	-1.161	0.054	-22.095	-12.878	20.569	-78.44	35.06	-95.26	-62.230	-49.588	9.016	0.64890	-0.26602	0.55582	-0.44623	29.6	13111	100
2025-3-27 20:19:41.510	WT901BLE68-01(48591DE3C19B)	-0.301	-1.625	-0.022	-18.250	-42.542	-29.968	-78.39	34.51	-94.81	-62.230	-49.588	9.016	0.64890	-0.26602	0.55582	-0.44623	29.6	13111	100
2025-3-27 20:19:41.510	WT901BLE68-01(48591DE3C19B)	-0.259	-1.625	-0.022	-18.250	-42.542	-29.968	-78.37	33.97	-94.37	-62.230	-49.588	9.016	0.64890	-0.26602	0.55582	-0.44623	29.6	13111	100
2025-3-27 20:19:41.510	WT901BLE68-01(48591DE3C19B)	-0.259	-1.983	-0.111	-1.587	-66.345	-93.811	-78.12	32.76	-93.81	-62.230	-49.588	9.016	0.64890	-0.26602	0.55582	-0.44623	29.6	13111	100
2025-3-27 20:19:41.539	WT901BLE68-01(48591DE3C19B)	-0.397	-1.983	-0.111	-1.587	-66.345	-93.811	-77.90	31.56	-93.26	-62.230	-49.588	9.016	0.64890	-0.26602	0.55582	-0.44623	29.6	13111	100
2025-3-27 20:19:41.539	WT901BLE68-01(48591DE3C19B)	-0.397	-1.757	0.048	12.756	-78.918	-135.071	-77.55	29.94	-92.69	-62.230	-49.588	9.016	0.64890	-0.26602	0.55582	-0.44623	29.6	13111	100
2025-3-27 20:19:41.539	WT901BLE68-01(48591DE3C19B)	-0.481	-1.757	0.048	12.756	-78.918	-135.071	-77.22	28.32	-92.14	-62.230	-49.588	9.016	0.64890	-0.26602	0.55582	-0.44623	29.6	13111	100
2025-3-27 20:19:41.539	WT901BLE68-01(48591DE3C19B)	-0.481	-1.289	0.275	-12.207	-62.622	-179.321	-77.28	26.33	-91.89	-62.230	-49.588	9.016	0.64890	-0.26602	0.55582	-0.44623	29.6	13111	100
2025-3-27 20:19:41.541	WT901BLE68-01(48591DE3C19B)	-0.469	-1.289	0.275	-12.207	-62.622	-179.321	-77.35	24.36	-91.65	-62.230	-49.588	9.016	0.64890	-0.26602	0.55582	-0.44623	29.6	13111	100
2025-3-27 20:19:41.541	WT901BLE68-01(48591DE3C19B)	-0.469	-1.030	0.492	-21.606	-9.766	-184.631	-77.74	22.47	-91.99	-62.230	-49.588	9.016	0.64890	-0.26602	0.55582	-0.44623	29.6	13111	100
2025-3-27 20:19:41.541	WT901BLE68-01(48591DE3C19B)	-0.552	-1.030	0.492	-21.606	-9.766	-184.631	-78.10	20.60	-92.32	-72.324	-56.546	2.548	0.64890	-0.26602	0.55582	-0.44623	29.6	13111	100
2025-3-27 20:19:41.541	WT901BLE68-01(48591DE3C19B)	-0.552	-0.809	0.636	-15.198	53.955	-167.725	-78.58	19.03	-93.27	-72.324	-56.546	2.548	0.64890	-0.26602	0.55582	-0.44623	29.6	13111	100
2025-3-27 20:19:41.599	WT901BLE68-01(48591DE3C19B)	-0.670	-0.809	0.636	-15.198	53.955	-167.725	-79.01	17.48	-94.21	-72.324	-56.546	2.548	0.64890	-0.26602	0.55582	-0.44623	29.6	13111	100
2025-3-27 20:19:41.599	WT901BLE68-01(48591DE3C19B)	-0.670	-0.490	0.618	-0.061	96.558	-143.555	-79.35	16.26	-95.54	-72.324	-56.546	2.548	0.64890	-0.26602	0.55582	-0.44623	29.6	13111	100
2025-3-27 20:19:41.600	WT901BLE68-01(48591DE3C19B)	-0.526	-0.490	0.618	-0.061	96.558	-143.555	-79.65	15.05	-96.87	-72.324	-56.546	2.548	0.64890	-0.26602	0.55582	-0.44623	29.6	13111	100
2025-3-27 20:19:41.600	WT901BLE68-01(48591DE3C19B)	-0.355	-0.236	0.294	-10.986	89.722	-112.183	-79.99	14.14	-98.07	-72.324	-56.546	2.548	0.64890	-0.26602	0.55582	-0.44623	29.6	13111	100
2025-3-27 20:19:41.629	WT901BLE68-01(48591DE3C19B)	-0.355	-0.164	0.003	-21.179	28.687	-81.177	-80.27	13.34	-98.94	-72.324	-56.546	2.548	0.64890	-0.26602	0.55582	-0.44623	29.6	13111	100
2025-3-27 20:19:41.629	WT901BLE68-01(48591DE3C19B)	-0.419	-0.164	0.003	-21.179	28.687	-81.177	-80.51	12.66	-99.48	-72.324	-56.546	2.548	0.64890	-0.26602	0.55582	-0.44623	29.6	13111	100
2025-3-27 20:19:41.630	WT901BLE68-01(48591DE3C19B)	-0.419	-0.171	-0.041	-29.297	-25.513	-49.744	-80.72	12.09	-99.72	-72.324	-56.546	2.548	0.64890	-0.26602	0.55582	-0.44623	29.6	13111	100
2025-3-27 20:19:41.630	WT901BLE68-01(48591DE3C19B)	-0.609	-0.171	-0.041	-29.297	-25.513	-49.744	-80.91	11.65	-99.67	-72.324	-56.546	2.548	0.64890	-0.26602	0.55582	-0.44623	29.6	13111	100
2025-3-27 20:19:41.661	WT901BLE68-01(48591DE3C19B)	-0.609	-0.287	0.063	-32.837	-43.884	-22.339	-81.09	11.35	-99.53	-72.324	-56.546	2.548	0.64890	-0.26602	0.55582	-0.44623	29.6	13111	100
2025-3-27 20:19:41.661	WT901BLE68-01(48591DE3C19B)	-0.770	-0.287	0.063	-32.837	-43.884	-22.339	-81.25	11.18	-99.29	-72.324	-56.546	2.548	0.64890	-0.26602	0.55582	-0.44623	29.6	13111	100
2025-3-27 20:19:41.661	WT901BLE68-01(48591DE3C19B)	-0.770	-0.529	0.160	-28.625	-20.691	-2.930	-81.41	11.13	-99.20	-72.324	-56.546	2.548	0.64890	-0.26602	0.55582	-0.44623	29.6	13111	100
2025-3-27 20:19:41.661	WT901BLE68-01(48591DE3C19B)	-0.770	-0.529	0.160	-28.625	-20.691	-2.930	-81.56	11.21	-99.23	-72.324	-56.546	2.548	0.64890	-0.26602	0.55582	-0.44623	29.6	13111	100
2025-3-27 20:19:41.720	WT901BLE68-01(48591DE3C19B)	-0.770	-0.823	0.192	-5.310	26.855	-0.488	-81.62	11.34	-99.53	-72.324	-56.546	2.548	0.64890	-0.26602	0.55582	-0.44623	29.6	13111	100
2025-3-27 20:19:41.720	WT901BLE68-01(48591DE3C19B)	-1.049	-0.823	0.192	-5.310	26.855	-0.488	-81.62	11.51	-100.07	-72.324	-56.546	2.548	0.64890	-0.26602	0.55582	-0.44623	29.6	13111	100
2025-3-27 20:19:41.720	WT901BLE68-01(48591DE3C19B)	-1.049	-1.486	0.308	17.090	54.016	-8.728	-81.54	11.66	-100.76	-72.324	-56.546	2.548	0.64890	-0.26602	0.55582	-0.44623	29.6	13111	100
2025-3-27 20:19:41.720	WT901BLE68-01(48591DE3C19B)	-1.380	-1.486	0.308	17.090	54.016	-8.728	-81.38	11.79	-101.56	-72.324	-56.546	2.548	0.64890	-0.26602	0.55582	-0.44623	29.6	13111	100
2025-3-27 20:19:41.751	WT901BLE68-01(48591DE3C19B)	-1.380	-2.440	0.074	27.283	74.036	-0.183	-81.21	11.99	-102.44	-72.324	-56.546	2.548	0.52585	-0.34363	0.55423	-0.54599	29.6	13111	100
2025-3-27 20:19:41.751	WT901BLE68-01(48591DE3C19B)	-1.148	-2.440	0.074	27.283	74.036	-0.183	-81.05	12.23	-103.36	-72.324	-56.546	2.548	0.52585	-0.34363	0.55423	-0.54599	29.6	13111	100
2025-3-27 20:19:41.751	WT901BLE68-01(48591DE3C19B)	-1.148	-2.433	-0.199	82.520	92.102	26.794	-80.65	12.63	-104.30	-72.324	-56.546	2.548	0.52585	-0.34363	0.55423	-0.54599	29.6	13111	100
2025-3-27 20:19:41.751	WT901BLE68-01(48591DE3C19B)	-0.645	-2.433	-0.199	82.520	92.102	26.794	-80.02	13.17	-105.26	-72.324	-56.546	2.548	0.52585	-0.34363	0.55423	-0.54599	29.6	13111	100
2025-3-27 20:19:41.810	WT901BLE68-01(48591DE3C19B)	-0.645	-1.268	-0.074	78.857	124.634	56.396	-79.49	13.88	-106.31	-72.324	-56.546	2.548	0.52585	-0.34363	0.55423	-0.54599	29.6	13111	100
2025-3-27 20:19:41.810	WT901BLE68-01(48591DE3C19B)	-0.296	-1.268	-0.074	78.857	124.634	56.396	-79.02	14.78	-107.48	-72.324	-56.546	2.548	0.52585	-0.34363	0.55423	-0.54599	29.6	13111	100
2025-3-27 20:19:41.810	WT901BLE68-01(48591DE3C19B)	-0.296	-0.899	0.129	28.198	113.892	96.252	-78.80	15.85	-108.55	-72.324	-56.546	2.548	0.52585	-0.34363	0.55423	-0.54599	29.6	13111	100
2025-3-27 20:19:41.811	WT901BLE68-01(48591DE3C19B)	-0.170	-0.899	0.129	28.198	113.892	96.252	-78.84	17.09	-109.52	-72.324	-56.546	2.548	0.52585	-0.34363	0.55423	-0.54599	29.6	13111	100
2025-3-27 20:19:41.838	WT901BLE68-01(48591DE3C19B)	-0.170	-0.692	0.356	-4.395	59.937	117.493	-78.96	18.38	-110.20	-72.324	-56.546	2.548	0.52585	-0.34363	0.55423	-0.54599	29.6	13111	100
2025-3-27 20:19:41.839	WT901BLE68-01(48591DE3C19B)	-0.047	-0.692	0.356	-4.395	59.937	117.493	-79.16	19.70	-110.60	-72.324	-56.546	2.548	0.52585	-0.34363	0.55423	-0.54599	29.6	13111	100
2025-3-27 20:19:41.839	WT901BLE68-01(48591DE3C19B)	-0.047	-0.496	0.480	-21.545	-14.404	109.009	-79.31	20.91	-110.65	-72.324	-56.546	2.548	0.52585	-0.34363	0.55423	-0.54599	29.6	13111	100
2025-3-27 20:19:41.839	WT901BLE68-01(48591DE3C19B)	0.061	-0.496	0.480	-21.545	-14.404	109.009	-79.40	21.98	-110.34	-72.324	-56.546	2.548	0.52585	-0.34363	0.55423	-0.54599	29.6	13111	100
2025-3-27 20:19:41.869	WT901BLE68-01(48591DE3C19B)	0.061	-0.305	0.376	-21.912	-35.889	126.587	-79.41	23.11	-109.91	-72.324	-56.546	2.548	0.52585	-0.34363	0.55423	-0.54599	29.6	13111	100
2025-3-27 20:19:41.869	WT901BLE68-01(48591DE3C19B)	-0.188	-0.305	0.376	-21.912	-35.889	126.587	-79.36	24.29	-109.35	-72.324	-56.546	2.548	0.52585	-0.34363	0.55423	-0.54599	29.6	13111	100
2025-3-27 20:19:41.869	WT901BLE68-01(48591DE3C19B)	-0.188	-0.218	0.218	-19.531	24.780	133.728	-79.41	25.55	-109.11	-72.324	-56.546	2.548	0.52585	-0.34363	0.55423	-0.54599	29.6	13111	100
2025-3-27 20:19:41.869	WT901BLE68-01(48591DE3C19B)	-0.139	-0.218	0.218	-19.531	24.780	133.728	-79.57	26.89	-109.20	-72.324	-56.546	2.548	0.52585	-0.34363	0.55423	-0.54599	29.6	13111	100
2025-3-27 20:19:41.901	WT901BLE68-01(48591DE3C19B)	-0.139	-0.224	0.238	-18.372	41.870	125.732	-79.78	28.20	-109.42	-72.324	-56.546	2.548	0.52585	-0.34363	0.55423	-0.54599	29.6	13111	100
2025-3-27 20:19:41.902	WT901BLE68-01(48591DE3C19B)	-0.035	-0.224	0.238	-18.372	41.870	125.732	-80.02	29.48	-109.75	-72.324	-56.546	2.548	0.52585	-0.34363	0.55423	-0.54599	29.6	13111	100
2025-3-27 20:19:41.902	WT901BLE68-01(48591DE3C19B)	-0.035	-0.478	0.200	-22.705	12.512	114.868	-80.21	30.66	-109.93	-72.324	-56.546	2.548	0.52585	-0.34363	0.55423	-0.54599	29.6	13111	100
2025-3-27 20:19:41.902	WT901BLE68-01(48591DE3C19B)	-0.032	-0.478	0.200	-22.705	12.512	114.868	-80.34	31.76	-109.95	-72.324	-56.546	2.548	0.52585	-0.34363	0.55423	-0.54599	29.6	13111	100
2025-3-27 20:19:41.961	WT901BLE68-01(48591DE3C19B)	-0.032	-0.865	0.107	-20.325	-1.892	105.286	-80.43	32.78	-109.88	-72.324	-56.546	2.548	0.52585	-0.34363	0.55423	-0.54599	29.6	13111	100
2025-3-27 20:19:41.961	WT901BLE68-01(48591DE3C19B)	-0.113	-0.865	0.107	-20.325	-1.892	105.286	-80.46	33.73	-109.71	-66.640	-65.464	-6.958	0.52585	-0.34363	0.55423	-0.54599	29.6	13111	100
2025-3-27 20:19:41.961	WT901BLE68-01(48591DE3C19B)	-0.113	-1.329	-0.028	-17.395	-7.935	90.027	-80.47	34.57	-109.51	-66.640	-65.464	-6.958	0.52585	-0.34363	0.55423	-0.54599	29.6	13111	100
2025-3-27 20:19:41.962	WT901BLE68-01(48591DE3C19B)	-0.228	-1.329	-0.028	-17.395	-7.935	90.027	-80.47	35.33	-109.26	-66.640	-65.464	-6.958	0.52585	-0.34363	0.55423	-0.54599	29.6	13111	100
2025-3-27 20:19:41.989	WT901BLE68-01(48591DE3C19B)	-0.228	-2.095	-0.258	-9.094	-18.311	60.059	-80.42	35.91	-108.96	-66.640	-65.464	-6.958	0.52585	-0.34363	0.55423	-0.54599	29.6	13111	100
2025-3-27 20:19:41.989	WT901BLE68-01(48591DE3C19B)	-0.346	-2.095	-0.258	-9.094	-18.311	60.059	-80.32	36.33	-108.61	-66.640	-65.464	-6.958	0.52585	-0.34363	0.55423	-0.54599	29.6	13111	100
2025-3-27 20:19:41.989	WT901BLE68-01(48591DE3C19B)	-0.346	-2.747	-0.354	12.878	-25.940	14.404	-80.13	36.51	-108.23	-66.640	-65.464	-6.958	0.52585	-0.34363	0.55423	-0.54599	29.6	13111	100
2025-3-27 20:19:41.989	WT901BLE68-01(48591DE3C19B)	-0.507	-2.747	-0.354	12.878	-25.940	14.404	-79.84	36.45	-107.85	-66.640	-65.464	-6.958	0.52585	-0.34363	0.55423	-0.54599	29.6	13111	100
2025-3-27 20:19:42.19	WT901BLE68-01(48591DE3C19B)	-0.507	-1.963	0.020	45.044	-64.087	-29.236	-79.29	36.13	-107.27	-66.640	-65.464	-6.958	0.52585	-0.34363	0.55423	-0.54599	29.6	13111	100
2025-3-27 20:19:42.19	WT901BLE68-01(48591DE3C19B)	-0.623	-1.963	0.020	45.044	-64.087	-29.236	-78.49	35.57	-106.53	-66.640	-65.464	-6.958	0.52585	-0.34363	0.55423	-0.54599	29.6	13111	100
2025-3-27 20:19:42.19	WT901BLE68-01(48591DE3C19B)	-0.623	-1.316	0.386	-7.263	-102.295	-81.543	-77.87	34.71	-105.65	-66.640	-65.464	-6.958	0.52585	-0.34363	0.55423	-0.54599	29.6	13111	100
2025-3-27 20:19:42.20	WT901BLE68-01(48591DE3C19B)	-0.524	-1.316	0.386	-7.263	-102.295	-81.543	-77.45	33.57	-104.64	-66.640	-65.464	-6.958	0.52585	-0.34363	0.55423	-0.54599	29.6	13111	100
2025-3-27 20:19:42.110	WT901BLE68-01(48591DE3C19B)	-0.524	-1.008	0.602	-26.001	-97.595	-92.529	-77.17	32.39	-103.72	-66.640	-65.464	-6.958	0.52585	-0.34363	0.55423	-0.54599	29.6	13111	100
2025-3-27 20:19:42.110	WT901BLE68-01(48591DE3C19B)	-0.331	-1.008	0.602	-26.001	-97.595	-92.529	-77.01	31.17	-102.88	-66.640	-65.464	-6.958	0.52585	-0.34363	0.55423	-0.54599	29.6	13111	100
2025-3-27 20:19:42.110	WT901BLE68-01(48591DE3C19B)	-0.331	-0.793	0.669	-27.222	-35.339	-85.144	-77.23	30.17	-102.74	-66.640	-65.464	-6.958	0.52585	-0.34363	0.55423	-0.54599	29.6	13111	100
2025-3-27 20:19:42.111	WT901BLE68-01(48591DE3C19B)	-0.211	-0.793	0.669	-27.222	-35.339	-85.144	-77.44	29.18	-102.62	-66.640	-65.464	-6.958	0.52585	-0.34363	0.55423	-0.54599	29.6	13111	100
2025-3-27 20:19:42.112	WT901BLE68-01(48591DE3C19B)	-0.211	-0.602	0.593	-20.691	28.625	-77.881	-77.89	28.41	-103.19	-66.640	-65.464	-6.958	0.52585	-0.34363	0.55423	-0.54599	29.6	13111	100
2025-3-27 20:19:42.112	WT901BLE68-01(48591DE3C19B)	-0.200	-0.602	0.593	-20.691	28.625	-77.881	-78.33	27.63	-103.77	-66.640	-65.464	-6.958	0.52585	-0.34363	0.55423	-0.54599	29.6	13111	100
2025-3-27 20:19:42.112	WT901BLE68-01(48591DE3C19B)	-0.200	-0.563	0.327	-21.606	46.143	-74.280	-78.83	26.92	-104.53	-66.640	-65.464	-6.958	0.52585	-0.34363	0.55423	-0.54599	29.6	13111	100
2025-3-27 20:19:42.112	WT901BLE68-01(48591DE3C19B)	-0.292	-0.563	0.327	-21.606	46.143	-74.280	-79.32	26.21	-105.27	-66.640	-65.464	-6.958	0.52585	-0.34363	0.55423	-0.54599	29.6	13111	100
2025-3-27 20:19:42.169	WT901BLE68-01(48591DE3C19B)	-0.292	-0.577	0.084	-14.282	24.414	-72.693	-79.61	25.48	-105.77	-66.640	-65.464	-6.958	0.52585	-0.34363	0.55423	-0.54599	29.6	13111	100
2025-3-27 20:19:42.169	WT901BLE68-01(48591DE3C19B)	-0.377	-0.577	0.084	-14.282	24.414	-72.693	-79.90	24.76	-106.26	-66.640	-65.464	-6.958	0.52585	-0.34363	0.55423	-0.54599	29.6	13111	100
2025-3-27 20:19:42.169	WT901BLE68-01(48591DE3C19B)	-0.377	-0.443	-0.035	1.953	-4.150	-72.266	-79.89	24.01	-106.44	-66.640	-65.464	-6.958	0.55591	-0.24832	0.59845	-0.52063	29.6	13111	100
2025-3-27 20:19:42.169	WT901BLE68-01(48591DE3C19B)	-0.475	-0.443	-0.035	1.953	-4.150	-72.266	-79.89	23.26	-106.62	-66.640	-65.464	-6.958	0.55591	-0.24832	0.59845	-0.52063	29.6	13111	100
2025-3-27 20:19:42.230	WT901BLE68-01(48591DE3C19B)	-0.475	-0.155	-0.034	8.423	-12.573	-67.932	-79.78	22.56	-106.71	-66.640	-65.464	-6.958	0.55591	-0.24832	0.59845	-0.52063	29.6	13111	100
2025-3-27 20:19:42.230	WT901BLE68-01(48591DE3C19B)	-0.466	-0.155	-0.034	8.423	-12.573	-67.932	-79.67	21.88	-106.81	-66.640	-65.464	-6.958	0.55591	-0.24832	0.59845	-0.52063	29.6	13111	100
2025-3-27 20:19:42.230	WT901BLE68-01(48591DE3C19B)	-0.466	0.011	0.059	-5.737	-13.062	-58.472	-79.70	21.31	-106.92	-66.640	-65.464	-6.958	0.55591	-0.24832	0.59845	-0.52063	29.6	13111	100
2025-3-27 20:19:42.230	WT901BLE68-01(48591DE3C19B)	-0.427	0.011	0.059	-5.737	-13.062	-58.472	-79.71	20.77	-107.06	-66.640	-65.464	-6.958	0.55591	-0.24832	0.59845	-0.52063	29.6	13111	100
2025-3-27 20:19:42.231	WT901BLE68-01(48591DE3C19B)	-0.427	-0.071	0.175	-17.090	-15.442	-49.805	-79.80	20.31	-107.19	-66.640	-65.464	-6.958	0.55591	-0.24832	0.59845	-0.52063	29.6	13111	100
2025-3-27 20:19:42.231	WT901BLE68-01(48591DE3C19B)	-0.474	-0.071	0.175	-17.090	-15.442	-49.805	-79.88	19.87	-107.35	-66.640	-65.464	-6.958	0.55591	-0.24832	0.59845	-0.52063	29.6	13111	100
2025-3-27 20:19:42.231	WT901BLE68-01(48591DE3C19B)	-0.474	-0.233	0.262	-17.700	-27.649	-47.302	-79.90	19.44	-107.41	-66.640	-65.464	-6.958	0.55591	-0.24832	0.59845	-0.52063	29.6	13111	100
2025-3-27 20:19:42.231	WT901BLE68-01(48591DE3C19B)	-0.506	-0.233	0.262	-17.700	-27.649	-47.302	-79.90	19.02	-107.48	-66.640	-65.464	-6.958	0.55591	-0.24832	0.59845	-0.52063	29.6	13111	100
2025-3-27 20:19:42.262	WT901BLE68-01(48591DE3C19B)	-0.506	-0.491	0.228	-24.170	-51.453	-48.523	-79.89	18.53	-107.33	-66.640	-65.464	-6.958	0.55591	-0.24832	0.59845	-0.52063	29.6	13111	100
2025-3-27 20:19:42.262	WT901BLE68-01(48591DE3C19B)	-0.659	-0.491	0.228	-24.170	-51.453	-48.523	-79.87	18.06	-107.17	-66.640	-65.464	-6.958	0.55591	-0.24832	0.59845	-0.52063	29.6	13111	100
2025-3-27 20:19:42.262	WT901BLE68-01(48591DE3C19B)	-0.659	-1.244	0.321	-22.461	-65.857	-57.556	-79.82	17.47	-106.86	-66.640	-65.464	-6.958	0.55591	-0.24832	0.59845	-0.52063	29.6	13111	100
2025-3-27 20:19:42.263	WT901BLE68-01(48591DE3C19B)	-0.965	-1.244	0.321	-22.461	-65.857	-57.556	-79.78	16.88	-106.55	-66.640	-65.464	-6.958	0.55591	-0.24832	0.59845	-0.52063	29.6	13111	100
2025-3-27 20:19:42.320	WT901BLE68-01(48591DE3C19B)	-0.965	-2.595	0.209	-5.798	-72.144	-82.642	-79.61	16.02	-106.17	-66.640	-65.464	-6.958	0.55591	-0.24832	0.59845	-0.52063	29.6	13111	100
2025-3-27 20:19:42.320	WT901BLE68-01(48591DE3C19B)	-0.875	-2.595	0.209	-5.798	-72.144	-82.642	-79.48	15.16	-105.77	-66.640	-65.464	-6.958	0.55591	-0.24832	0.59845	-0.52063	29.6	13111	100
2025-3-27 20:19:42.320	WT901BLE68-01(48591DE3C19B)	-0.875	-3.333	-0.104	35.034	-85.144	-59.143	-78.93	14.49	-105.15	-66.640	-65.464	-6.958	0.55591	-0.24832	0.59845	-0.52063	29.6	13111	100
2025-3-27 20:19:42.320	WT901BLE68-01(48591DE3C19B)	-0.501	-3.333	-0.104	35.034	-85.144	-59.143	-78.41	13.80	-104.51	-66.640	-65.464	-6.958	0.55591	-0.24832	0.59845	-0.52063	29.6	13111	100
2025-3-27 20:19:42.348	WT901BLE68-01(48591DE3C19B)	-0.501	-1.816	-0.148	72.327	-38.696	-46.875	-77.66	13.33	-104.30	-68.992	-67.718	-15.386	0.55591	-0.24832	0.59845	-0.52063	29.6	13111	100
2025-3-27 20:19:42.348	WT901BLE68-01(48591DE3C19B)	-0.188	-1.816	-0.148	72.327	-38.696	-46.875	-76.92	12.84	-104.10	-68.992	-67.718	-15.386	0.55591	-0.24832	0.59845	-0.52063	29.6	13111	100
2025-3-27 20:19:42.349	WT901BLE68-01(48591DE3C19B)	-0.188	-1.292	0.028	44.495	28.748	-12.085	-76.59	12.84	-104.47	-68.992	-67.718	-15.386	0.55591	-0.24832	0.59845	-0.52063	29.6	13111	100
2025-3-27 20:19:42.349	WT901BLE68-01(48591DE3C19B)	-0.176	-1.292	0.028	44.495	28.748	-12.085	-76.27	12.84	-104.84	-68.992	-67.718	-15.386	0.55591	-0.24832	0.59845	-0.52063	29.6	13111	100
2025-3-27 20:19:42.380	WT901BLE68-01(48591DE3C19B)	-0.176	-0.881	0.297	27.588	54.871	29.297	-76.16	13.30	-105.37	-68.992	-67.718	-15.386	0.55591	-0.24832	0.59845	-0.52063	29.6	13111	100
2025-3-27 20:19:42.380	WT901BLE68-01(48591DE3C19B)	-0.223	-0.881	0.297	27.588	54.871	29.297	-76.05	13.75	-105.90	-68.992	-67.718	-15.386	0.55591	-0.24832	0.59845	-0.52063	29.6	13111	100
2025-3-27 20:19:42.380	WT901BLE68-01(48591DE3C19B)	-0.223	-0.684	0.491	0.854	29.724	46.875	-76.12	14.30	-106.14	-68.992	-67.718	-15.386	0.55591	-0.24832	0.59845	-0.52063	29.6	13111	100
2025-3-27 20:19:42.380	WT901BLE68-01(48591DE3C19B)	-0.026	-0.684	0.491	0.854	29.724	46.875	-76.19	14.86	-106.40	-68.992	-67.718	-15.386	0.55591	-0.24832	0.59845	-0.52063	29.6	13111	100
2025-3-27 20:19:42.439	WT901BLE68-01(48591DE3C19B)	-0.026	-0.623	0.513	-1.343	3.418	48.035	-76.20	15.35	-106.40	-68.992	-67.718	-15.386	0.55591	-0.24832	0.59845	-0.52063	29.6	13111	100
2025-3-27 20:19:42.440	WT901BLE68-01(48591DE3C19B)	-0.010	-0.623	0.513	-1.343	3.418	48.035	-76.20	15.83	-106.41	-68.992	-67.718	-15.386	0.55591	-0.24832	0.59845	-0.52063	29.6	13111	100
2025-3-27 20:19:42.440	WT901BLE68-01(48591DE3C19B)	-0.010	-0.410	0.332	14.709	25.391	56.824	-76.09	16.45	-106.62	-68.992	-67.718	-15.386	0.55591	-0.24832	0.59845	-0.52063	29.6	13111	100
2025-3-27 20:19:42.440	WT901BLE68-01(48591DE3C19B)	-0.130	-0.410	0.332	14.709	25.391	56.824	-75.96	17.05	-106.83	-68.992	-67.718	-15.386	0.55591	-0.24832	0.59845	-0.52063	29.6	13111	100
2025-3-27 20:19:42.469	WT901BLE68-01(48591DE3C19B)	-0.130	-0.130	0.089	30.518	70.557	67.017	-75.82	17.86	-107.47	-68.992	-67.718	-15.386	0.55591	-0.24832	0.59845	-0.52063	29.6	13111	100
2025-3-27 20:19:42.469	WT901BLE68-01(48591DE3C19B)	-0.212	-0.130	0.089	30.518	70.557	67.017	-75.68	18.67	-108.11	-68.992	-67.718	-15.386	0.55591	-0.24832	0.59845	-0.52063	29.6	13111	100
2025-3-27 20:19:42.469	WT901BLE68-01(48591DE3C19B)	-0.212	0.046	-0.047	28.320	99.487	76.355	-75.66	19.64	-109.03	-68.992	-67.718	-15.386	0.55591	-0.24832	0.59845	-0.52063	29.6	13111	100
2025-3-27 20:19:42.469	WT901BLE68-01(48591DE3C19B)	-0.235	0.046	-0.047	28.320	99.487	76.355	-75.65	20.62	-109.95	-68.992	-67.718	-15.386	0.55591	-0.24832	0.59845	-0.52063	29.6	13111	100
2025-3-27 20:19:42.529	WT901BLE68-01(48591DE3C19B)	-0.235	-0.039	-0.049	15.808	91.492	87.585	-75.75	21.69	-110.78	-68.992	-67.718	-15.386	0.55591	-0.24832	0.59845	-0.52063	29.6	13111	100
2025-3-27 20:19:42.529	WT901BLE68-01(48591DE3C19B)	-0.235	-0.039	-0.049	15.808	91.492	87.585	-75.87	22.76	-111.61	-68.992	-67.718	-15.386	0.55591	-0.24832	0.59845	-0.52063	29.6	13111	100
2025-3-27 20:19:42.530	WT901BLE68-01(48591DE3C19B)	-0.354	-0.221	-0.005	12.268	64.270	91.675	-75.92	23.81	-112.15	-68.992	-67.718	-15.386	0.55591	-0.24832	0.59845	-0.52063	29.6	13111	100
2025-3-27 20:19:42.530	WT901BLE68-01(48591DE3C19B)	-0.354	-0.398	0.037	18.738	26.306	91.797	-75.86	24.82	-112.51	-68.992	-67.718	-15.386	0.55591	-0.24832	0.59845	-0.52063	29.6	13111	100
2025-3-27 20:19:42.561	WT901BLE68-01(48591DE3C19B)	-0.551	-0.398	0.037	18.738	26.306	91.797	-75.70	25.78	-112.66	-68.992	-67.718	-15.386	0.54205	-0.18109	0.59650	-0.56342	29.6	13111	100
2025-3-27 20:19:42.561	WT901BLE68-01(48591DE3C19B)	-0.551	-0.621	0.050	26.978	-9.583	89.600	-75.41	26.70	-112.63	-68.992	-67.718	-15.386	0.54205	-0.18109	0.59650	-0.56342	29.6	13111	100
2025-3-27 20:19:42.562	WT901BLE68-01(48591DE3C19B)	-0.648	-0.621	0.050	26.978	-9.583	89.600	-74.99	27.56	-112.41	-68.992	-67.718	-15.386	0.54205	-0.18109	0.59650	-0.56342	29.6	13111	100
2025-3-27 20:19:42.562	WT901BLE68-01(48591DE3C19B)	-0.648	-0.906	0.063	38.025	-23.804	84.656	-74.49	28.39	-112.12	-68.992	-67.718	-15.386	0.54205	-0.18109	0.59650	-0.56342	29.6	13111	100
2025-3-27 20:19:42.589	WT901BLE68-01(48591DE3C19B)	-0.645	-0.906	0.063	38.025	-23.804	84.656	-73.89	29.17	-111.74	-68.992	-67.718	-15.386	0.54205	-0.18109	0.59650	-0.56342	29.6	13111	100
2025-3-27 20:19:42.589	WT901BLE68-01(48591DE3C19B)	-0.645	-1.306	0.011	52.185	-2.197	65.369	-73.29	29.87	-111.50	-68.992	-67.718	-15.386	0.54205	-0.18109	0.59650	-0.56342	29.6	13111	100
2025-3-27 20:19:42.589	WT901BLE68-01(48591DE3C19B)	-0.676	-1.306	0.011	52.185	-2.197	65.369	-72.71	30.51	-111.38	-68.992	-67.718	-15.386	0.54205	-0.18109	0.59650	-0.56342	29.6	13111	100
2025-3-27 20:19:42.589	WT901BLE68-01(48591DE3C19B)	-0.676	-2.043	0.010	55.603	56.213	16.785	-72.32	30.99	-111.64	-68.992	-67.718	-15.386	0.54205	-0.18109	0.59650	-0.56342	29.6	13111	100
2025-3-27 20:19:42.650	WT901BLE68-01(48591DE3C19B)	-0.956	-2.043	0.010	55.603	56.213	16.785	-72.14	31.31	-112.27	-68.992	-67.718	-15.386	0.54205	-0.18109	0.59650	-0.56342	29.6	13111	100
2025-3-27 20:19:42.650	WT901BLE68-01(48591DE3C19B)	-0.956	-2.292	0.047	73.059	123.779	-7.385	-72.10	31.60	-113.31	-68.992	-67.718	-15.386	0.54205	-0.18109	0.59650	-0.56342	29.6	13111	100
2025-3-27 20:19:42.650	WT901BLE68-01(48591DE3C19B)	-1.116	-2.292	0.047	73.059	123.779	-7.385	-72.21	31.87	-114.76	-68.992	-67.718	-15.386	0.54205	-0.18109	0.59650	-0.56342	29.6	13111	100
2025-3-27 20:19:42.650	WT901BLE68-01(48591DE3C19B)	-1.116	-1.279	0.344	72.388	187.805	-25.696	-72.54	32.15	-116.61	-68.992	-67.718	-15.386	0.54205	-0.18109	0.59650	-0.56342	29.6	13111	100
2025-3-27 20:19:42.679	WT901BLE68-01(48591DE3C19B)	-1.105	-1.279	0.344	72.388	187.805	-25.696	-73.08	32.43	-118.87	-68.992	-67.718	-15.386	0.54205	-0.18109	0.59650	-0.56342	29.6	13111	100
2025-3-27 20:19:42.679	WT901BLE68-01(48591DE3C19B)	-1.105	-0.611	0.535	33.630	221.985	-8.057	-73.90	32.84	-121.33	-68.992	-67.718	-15.386	0.54205	-0.18109	0.59650	-0.56342	29.6	13111	100
2025-3-27 20:19:42.680	WT901BLE68-01(48591DE3C19B)	-1.025	-0.611	0.535	33.630	221.985	-8.057	-75.01	33.35	-124.02	-68.992	-67.718	-15.386	0.54205	-0.18109	0.59650	-0.56342	29.6	13111	100
2025-3-27 20:19:42.680	WT901BLE68-01(48591DE3C19B)	-1.025	-0.440	0.612	-8.850	193.115	15.076	-76.25	33.91	-126.57	-68.992	-67.718	-15.386	0.54205	-0.18109	0.59650	-0.56342	29.6	13111	100
2025-3-27 20:19:42.739	WT901BLE68-01(48591DE3C19B)	-0.917	-0.440	0.612	-8.850	193.115	15.076	-77.58	34.51	-128.99	-68.992	-67.718	-15.386	0.54205	-0.18109	0.59650	-0.56342	29.6	13111	100
2025-3-27 20:19:42.740	WT901BLE68-01(48591DE3C19B)	-0.917	-0.395	0.587	-37.537	100.647	28.259	-78.74	35.04	-130.89	-68.992	-67.718	-15.386	0.54205	-0.18109	0.59650	-0.56342	29.6	13111	100
2025-3-27 20:19:42.740	WT901BLE68-01(48591DE3C19B)	-0.658	-0.395	0.587	-37.537	100.647	28.259	-79.73	35.52	-132.26	-68.992	-67.718	-15.386	0.54205	-0.18109	0.59650	-0.56342	29.6	13111	100
2025-3-27 20:19:42.740	WT901BLE68-01(48591DE3C19B)	-0.658	-0.371	0.391	-63.965	-9.705	36.072	-80.44	35.93	-132.97	-68.992	-67.718	-15.386	0.54205	-0.18109	0.59650	-0.56342	29.6	13111	100
2025-3-27 20:19:42.768	WT901BLE68-01(48591DE3C19B)	-0.527	-0.371	0.391	-63.965	-9.705	36.072	-80.88	36.28	-133.02	-68.992	-67.718	-15.386	0.54205	-0.18109	0.59650	-0.56342	29.6	13111	100
2025-3-27 20:19:42.768	WT901BLE68-01(48591DE3C19B)	-0.527	-0.424	0.167	-61.340	-87.097	53.406	-81.01	36.66	-132.57	-61.544	-71.736	-17.836	0.54205	-0.18109	0.59650	-0.56342	29.6	13111	100
2025-3-27 20:19:42.768	WT901BLE68-01(48591DE3C19B)	-0.625	-0.424	0.167	-61.340	-87.097	53.406	-80.82	37.06	-131.63	-61.544	-71.736	-17.836	0.54205	-0.18109	0.59650	-0.56342	29.6	13111	100
2025-3-27 20:19:42.768	WT901BLE68-01(48591DE3C19B)	-0.625	-0.413	0.045	-46.021	-110.168	67.383	-80.45	37.51	-130.53	-61.544	-71.736	-17.836	0.54205	-0.18109	0.59650	-0.56342	29.6	13111	100
2025-3-27 20:19:42.801	WT901BLE68-01(48591DE3C19B)	-0.562	-0.413	0.045	-46.021	-110.168	67.383	-79.90	38.00	-129.28	-61.544	-71.736	-17.836	0.54205	-0.18109	0.59650	-0.56342	29.6	13111	100
2025-3-27 20:19:42.801	WT901BLE68-01(48591DE3C19B)	-0.562	-0.334	-0.006	-34.729	-98.450	71.289	-79.32	38.52	-128.08	-61.544	-71.736	-17.836	0.54205	-0.18109	0.59650	-0.56342	29.6	13111	100
2025-3-27 20:19:42.801	WT901BLE68-01(48591DE3C19B)	-0.488	-0.334	-0.006	-34.729	-98.450	71.289	-78.71	39.06	-126.94	-61.544	-71.736	-17.836	0.54205	-0.18109	0.59650	-0.56342	29.6	13111	100
2025-3-27 20:19:42.801	WT901BLE68-01(48591DE3C19B)	-0.488	-0.218	0.033	-28.259	-88.135	73.792	-78.09	39.61	-125.86	-61.544	-71.736	-17.836	0.54205	-0.18109	0.59650	-0.56342	29.6	13111	100
2025-3-27 20:19:42.829	WT901BLE68-01(48591DE3C19B)	-0.519	-0.218	0.033	-28.259	-88.135	73.792	-77.45	40.18	-124.83	-61.544	-71.736	-17.836	0.54205	-0.18109	0.59650	-0.56342	29.6	13111	100
2025-3-27 20:19:42.829	WT901BLE68-01(48591DE3C19B)	-0.519	-0.239	0.126	-18.799	-94.910	78.491	-76.72	40.75	-123.73	-61.544	-71.736	-17.836	0.54205	-0.18109	0.59650	-0.56342	29.6	13111	100
2025-3-27 20:19:42.830	WT901BLE68-01(48591DE3C19B)	-0.614	-0.239	0.126	-18.799	-94.910	78.491	-75.89	41.33	-122.57	-61.544	-71.736	-17.836	0.54205	-0.18109	0.59650	-0.56342	29.6	13111	100
2025-3-27 20:19:42.830	WT901BLE68-01(48591DE3C19B)	-0.614	-0.351	0.188	-6.348	-113.220	80.994	-74.88	41.89	-121.26	-61.544	-71.736	-17.836	0.54205	-0.18109	0.59650	-0.56342	29.6	13111	100
2025-3-27 20:19:42.891	WT901BLE68-01(48591DE3C19B)	-0.660	-0.351	0.188	-6.348	-113.220	80.994	-73.70	42.40	-119.79	-61.544	-71.736	-17.836	0.54205	-0.18109	0.59650	-0.56342	29.6	13111	100
2025-3-27 20:19:42.892	WT901BLE68-01(48591DE3C19B)	-0.660	-0.539	0.155	1.831	-119.446	83.679	-72.42	42.89	-118.26	-61.544	-71.736	-17.836	0.54205	-0.18109	0.59650	-0.56342	29.6	13111	100
2025-3-27 20:19:42.892	WT901BLE68-01(48591DE3C19B)	-0.641	-0.539	0.155	1.831	-119.446	83.679	-71.05	43.36	-116.65	-61.544	-71.736	-17.836	0.54205	-0.18109	0.59650	-0.56342	29.6	13111	100
2025-3-27 20:19:42.892	WT901BLE68-01(48591DE3C19B)	-0.641	-0.806	0.117	13.855	-90.271	75.562	-69.76	43.80	-115.22	-61.544	-71.736	-17.836	0.54205	-0.18109	0.59650	-0.56342	29.6	13111	100
2025-3-27 20:19:42.921	WT901BLE68-01(48591DE3C19B)	-0.747	-0.806	0.117	13.855	-90.271	75.562	-68.54	44.22	-113.96	-61.544	-71.736	-17.836	0.54205	-0.18109	0.59650	-0.56342	29.6	13111	100
2025-3-27 20:19:42.921	WT901BLE68-01(48591DE3C19B)	-0.747	-1.139	0.085	29.724	-45.532	50.232	-67.49	44.58	-113.01	-61.544	-71.736	-17.836	0.54205	-0.18109	0.59650	-0.56342	29.6	13111	100
2025-3-27 20:19:42.922	WT901BLE68-01(48591DE3C19B)	-0.924	-1.139	0.085	29.724	-45.532	50.232	-66.64	44.88	-112.38	-61.544	-71.736	-17.836	0.54205	-0.18109	0.59650	-0.56342	29.6	13111	100
2025-3-27 20:19:42.922	WT901BLE68-01(48591DE3C19B)	-0.924	-1.542	0.048	29.541	7.874	13.062	-66.11	45.11	-112.18	-61.544	-71.736	-17.836	0.60510	-0.01263	0.59714	-0.52631	29.6	13111	100
2025-3-27 20:19:42.951	WT901BLE68-01(48591DE3C19B)	-1.262	-1.542	0.048	29.541	7.874	13.062	-65.92	45.26	-112.38	-61.544	-71.736	-17.836	0.60510	-0.01263	0.59714	-0.52631	29.6	13111	100
2025-3-27 20:19:42.951	WT901BLE68-01(48591DE3C19B)	-1.262	-1.837	0.105	36.926	77.393	6.470	-66.05	45.51	-113.04	-61.544	-71.736	-17.836	0.60510	-0.01263	0.59714	-0.52631	29.6	13111	100
2025-3-27 20:19:42.951	WT901BLE68-01(48591DE3C19B)	-1.280	-1.837	0.105	36.926	77.393	6.470	-66.49	45.85	-114.15	-61.544	-71.736	-17.836	0.60510	-0.01263	0.59714	-0.52631	29.6	13111	100
2025-3-27 20:19:42.951	WT901BLE68-01(48591DE3C19B)	-1.280	-1.502	0.229	39.795	129.517	5.005	-67.18	46.28	-115.61	-61.544	-71.736	-17.836	0.60510	-0.01263	0.59714	-0.52631	29.6	13111	100
2025-3-27 20:19:43.10	WT901BLE68-01(48591DE3C19B)	-1.002	-1.502	0.229	39.795	129.517	5.005	-68.13	46.79	-117.44	-61.544	-71.736	-17.836	0.60510	-0.01263	0.59714	-0.52631	29.6	13111	100
2025-3-27 20:19:43.10	WT901BLE68-01(48591DE3C19B)	-1.002	-1.121	0.318	23.743	138.977	13.611	-69.32	47.38	-119.38	-61.544	-71.736	-17.836	0.60510	-0.01263	0.59714	-0.52631	29.6	13111	100
2025-3-27 20:19:43.10	WT901BLE68-01(48591DE3C19B)	-0.759	-1.121	0.318	23.743	138.977	13.611	-70.55	47.94	-121.36	-61.544	-71.736	-17.836	0.60510	-0.01263	0.59714	-0.52631	29.6	13111	100
2025-3-27 20:19:43.10	WT901BLE68-01(48591DE3C19B)	-0.759	-0.857	0.305	12.146	120.422	21.179	-71.70	48.48	-123.08	-61.544	-71.736	-17.836	0.60510	-0.01263	0.59714	-0.52631	29.6	13111	100
2025-3-27 20:19:43.38	WT901BLE68-01(48591DE3C19B)	-0.604	-0.857	0.305	12.146	120.422	21.179	-72.87	49.00	-124.83	-61.544	-71.736	-17.836	0.60510	-0.01263	0.59714	-0.52631	29.6	13111	100
2025-3-27 20:19:43.39	WT901BLE68-01(48591DE3C19B)	-0.604	-0.578	0.207	0.488	80.933	21.973	-73.73	49.39	-126.02	-61.544	-71.736	-17.836	0.60510	-0.01263	0.59714	-0.52631	29.6	13111	100
2025-3-27 20:19:43.39	WT901BLE68-01(48591DE3C19B)	-0.522	-0.578	0.207	0.488	80.933	21.973	-74.61	49.76	-127.24	-61.544	-71.736	-17.836	0.60510	-0.01263	0.59714	-0.52631	29.6	13111	100
2025-3-27 20:19:43.39	WT901BLE68-01(48591DE3C19B)	-0.522	-0.377	0.142	-13.611	36.194	13.977	-75.15	49.94	-127.84	-61.544	-71.736	-17.836	0.60510	-0.01263	0.59714	-0.52631	29.6	13111	100
2025-3-27 20:19:43.69	WT901BLE68-01(48591DE3C19B)	-0.558	-0.377	0.142	-13.611	36.194	13.977	-75.69	50.12	-128.45	-61.544	-71.736	-17.836	0.60510	-0.01263	0.59714	-0.52631	29.6	13111	100
2025-3-27 20:19:43.70	WT901BLE68-01(48591DE3C19B)	-0.558	-0.290	0.087	-22.644	9.277	7.996	-76.02	50.17	-128.69	-61.544	-71.736	-17.836	0.60510	-0.01263	0.59714	-0.52631	29.6	13111	100
2025-3-27 20:19:43.70	WT901BLE68-01(48591DE3C19B)	-0.658	-0.290	0.087	-22.644	9.277	7.996	-76.35	50.23	-128.94	-61.544	-71.736	-17.836	0.60510	-0.01263	0.59714	-0.52631	29.6	13111	100
2025-3-27 20:19:43.70	WT901BLE68-01(48591DE3C19B)	-0.658	-0.292	0.035	-30.396	-6.897	-0.671	-76.59	50.18	-129.00	-61.544	-71.736	-17.836	0.60510	-0.01263	0.59714	-0.52631	29.6	13111	100
2025-3-27 20:19:43.220	WT901BLE68-01(48591DE3C19B)	-0.613	-0.292	0.035	-30.396	-6.897	-0.671	-76.83	50.14	-129.07	-61.544	-71.736	-17.836	0.60510	-0.01263	0.59714	-0.52631	29.6	13111	100
2025-3-27 20:19:43.220	WT901BLE68-01(48591DE3C19B)	-0.613	-0.288	0.022	-31.616	-33.997	-10.681	-76.79	49.94	-128.78	-61.544	-71.736	-17.836	0.60510	-0.01263	0.59714	-0.52631	29.6	13111	100
2025-3-27 20:19:43.220	WT901BLE68-01(48591DE3C19B)	-0.484	-0.288	0.022	-31.616	-33.997	-10.681	-76.76	49.76	-128.50	-61.544	-71.736	-17.836	0.60510	-0.01263	0.59714	-0.52631	29.6	13111	100
2025-3-27 20:19:43.220	WT901BLE68-01(48591DE3C19B)	-0.484	-0.281	0.005	-32.593	-56.152	-15.503	-76.50	49.48	-127.92	-61.544	-71.736	-17.836	0.60510	-0.01263	0.59714	-0.52631	29.6	13111	100
2025-3-27 20:19:43.221	WT901BLE68-01(48591DE3C19B)	-0.402	-0.281	0.005	-32.593	-56.152	-15.503	-76.25	49.20	-127.35	-77.812	-57.722	-20.678	0.60510	-0.01263	0.59714	-0.52631	29.6	13111	100
2025-3-27 20:19:43.221	WT901BLE68-01(48591DE3C19B)	-0.402	-0.378	0.034	-31.128	-63.354	-15.991	-75.91	48.91	-126.69	-77.812	-57.722	-20.678	0.60510	-0.01263	0.59714	-0.52631	29.6	13111	100
2025-3-27 20:19:43.222	WT901BLE68-01(48591DE3C19B)	-0.377	-0.378	0.034	-31.128	-63.354	-15.991	-75.59	48.61	-126.02	-77.812	-57.722	-20.678	0.60510	-0.01263	0.59714	-0.52631	29.6	13111	100
2025-3-27 20:19:43.222	WT901BLE68-01(48591DE3C19B)	-0.377	-0.491	0.074	-24.109	-71.899	-17.700	-75.12	48.27	-125.23	-77.812	-57.722	-20.678	0.60510	-0.01263	0.59714	-0.52631	29.6	13111	100
2025-3-27 20:19:43.222	WT901BLE68-01(48591DE3C19B)	-0.390	-0.491	0.074	-24.109	-71.899	-17.700	-74.67	47.92	-124.44	-77.812	-57.722	-20.678	0.60510	-0.01263	0.59714	-0.52631	29.6	13111	100
2025-3-27 20:19:43.222	WT901BLE68-01(48591DE3C19B)	-0.390	-0.539	0.139	-18.372	-85.754	-20.203	-74.04	47.49	-123.45	-77.812	-57.722	-20.678	0.60510	-0.01263	0.59714	-0.52631	29.6	13111	100
2025-3-27 20:19:43.222	WT901BLE68-01(48591DE3C19B)	-0.393	-0.539	0.139	-18.372	-85.754	-20.203	-73.43	47.06	-122.47	-77.812	-57.722	-20.678	0.60510	-0.01263	0.59714	-0.52631	29.6	13111	100
2025-3-27 20:19:43.223	WT901BLE68-01(48591DE3C19B)	-0.393	-0.516	0.238	-16.296	-109.070	-15.625	-72.56	46.58	-121.15	-77.812	-57.722	-20.678	0.60510	-0.01263	0.59714	-0.52631	29.6	13111	100
2025-3-27 20:19:43.251	WT901BLE68-01(48591DE3C19B)	-0.345	-0.516	0.238	-16.296	-109.070	-15.625	-71.72	46.09	-119.84	-77.812	-57.722	-20.678	0.60510	-0.01263	0.59714	-0.52631	29.6	13111	100
2025-3-27 20:19:43.251	WT901BLE68-01(48591DE3C19B)	-0.345	-0.671	0.232	-27.466	-122.620	-15.686	-70.89	45.54	-118.37	-77.812	-57.722	-20.678	0.60510	-0.01263	0.59714	-0.52631	29.6	13111	100
2025-3-27 20:19:43.251	WT901BLE68-01(48591DE3C19B)	-0.223	-0.671	0.232	-27.466	-122.620	-15.686	-70.09	44.96	-116.91	-77.812	-57.722	-20.678	0.60510	-0.01263	0.59714	-0.52631	29.6	13111	100
2025-3-27 20:19:43.251	WT901BLE68-01(48591DE3C19B)	-0.223	-0.958	0.130	-37.964	-100.159	-30.212	-69.69	44.30	-115.81	-77.812	-57.722	-20.678	0.60510	-0.01263	0.59714	-0.52631	29.6	13111	100
2025-3-27 20:19:43.281	WT901BLE68-01(48591DE3C19B)	-0.136	-0.958	0.130	-37.964	-100.159	-30.212	-69.32	43.61	-114.72	-77.812	-57.722	-20.678	0.60510	-0.01263	0.59714	-0.52631	29.6	13111	100
2025-3-27 20:19:43.282	WT901BLE68-01(48591DE3C19B)	-0.136	-1.394	0.034	-42.542	-54.626	-67.627	-69.55	42.71	-114.38	-77.812	-57.722	-20.678	0.60510	-0.01263	0.59714	-0.52631	29.6	13111	100
2025-3-27 20:19:43.282	WT901BLE68-01(48591DE3C19B)	-0.398	-1.394	0.034	-42.542	-54.626	-67.627	-69.80	41.80	-114.02	-77.812	-57.722	-20.678	0.60510	-0.01263	0.59714	-0.52631	29.6	13111	100
2025-3-27 20:19:43.282	WT901BLE68-01(48591DE3C19B)	-0.398	-1.900	0.217	-43.152	-33.142	-121.460	-70.39	40.44	-114.15	-77.812	-57.722	-20.678	0.60510	-0.01263	0.59714	-0.52631	29.6	13111	100
2025-3-27 20:19:43.311	WT901BLE68-01(48591DE3C19B)	-0.863	-1.900	0.217	-43.152	-33.142	-121.460	-70.97	39.08	-114.26	-77.812	-57.722	-20.678	0.60510	-0.01263	0.59714	-0.52631	29.6	13111	100
2025-3-27 20:19:43.312	WT901BLE68-01(48591DE3C19B)	-0.863	-2.278	0.565	-47.180	-52.917	-146.606	-71.48	37.42	-114.21	-77.812	-57.722	-20.678	0.60510	-0.01263	0.59714	-0.52631	29.6	13111	100
2025-3-27 20:19:43.312	WT901BLE68-01(48591DE3C19B)	-1.008	-2.278	0.565	-47.180	-52.917	-146.606	-71.97	35.77	-114.14	-77.812	-57.722	-20.678	0.60510	-0.01263	0.59714	-0.52631	29.6	13111	100
2025-3-27 20:19:43.312	WT901BLE68-01(48591DE3C19B)	-1.008	-1.781	0.842	-39.307	-77.148	-156.921	-72.22	33.96	-113.83	-77.812	-57.722	-20.678	0.60510	-0.01263	0.59714	-0.52631	29.6	13111	100
2025-3-27 20:19:43.369	WT901BLE68-01(48591DE3C19B)	-0.641	-1.781	0.842	-39.307	-77.148	-156.921	-72.47	32.17	-113.52	-77.812	-57.722	-20.678	0.60510	-0.01263	0.59714	-0.52631	29.6	13111	100
2025-3-27 20:19:43.369	WT901BLE68-01(48591DE3C19B)	-0.641	-1.368	0.750	-41.565	-43.579	-138.489	-72.89	30.67	-113.53	-77.812	-57.722	-20.678	0.55658	-0.13608	0.59579	-0.56271	29.6	13111	100
2025-3-27 20:19:43.369	WT901BLE68-01(48591DE3C19B)	-0.473	-1.368	0.750	-41.565	-43.579	-138.489	-73.30	29.17	-113.52	-77.812	-57.722	-20.678	0.55658	-0.13608	0.59579	-0.56271	29.6	13111	100
2025-3-27 20:19:43.369	WT901BLE68-01(48591DE3C19B)	-0.473	-1.145	0.546	-32.104	3.906	-129.028	-73.83	27.92	-113.99	-77.812	-57.722	-20.678	0.55658	-0.13608	0.59579	-0.56271	29.6	13111	100
2025-3-27 20:19:43.399	WT901BLE68-01(48591DE3C19B)	-0.507	-1.145	0.546	-32.104	3.906	-129.028	-74.34	26.66	-114.44	-77.812	-57.722	-20.678	0.55658	-0.13608	0.59579	-0.56271	29.6	13111	100
2025-3-27 20:19:43.399	WT901BLE68-01(48591DE3C19B)	-0.507	-1.027	0.388	-27.344	-9.888	-111.755	-74.70	25.53	-114.68	-77.812	-57.722	-20.678	0.55658	-0.13608	0.59579	-0.56271	29.6	13111	100
2025-3-27 20:19:43.399	WT901BLE68-01(48591DE3C19B)	-0.373	-1.027	0.388	-27.344	-9.888	-111.755	-75.04	24.42	-114.91	-77.812	-57.722	-20.678	0.55658	-0.13608	0.59579	-0.56271	29.6	13111	100
2025-3-27 20:19:43.399	WT901BLE68-01(48591DE3C19B)	-0.373	-1.177	0.267	-39.429	-68.604	-96.497	-75.22	23.30	-114.46	-77.812	-57.722	-20.678	0.55658	-0.13608	0.59579	-0.56271	29.6	13111	100
2025-3-27 20:19:43.429	WT901BLE68-01(48591DE3C19B)	-0.222	-1.177	0.267	-39.429	-68.604	-96.497	-75.42	22.19	-114.02	-77.812	-57.722	-20.678	0.55658	-0.13608	0.59579	-0.56271	29.6	13111	100
2025-3-27 20:19:43.430	WT901BLE68-01(48591DE3C19B)	-0.222	-1.220	0.150	-28.809	-85.632	-84.167	-75.45	21.16	-113.36	-77.812	-57.722	-20.678	0.55658	-0.13608	0.59579	-0.56271	29.6	13111	100
2025-3-27 20:19:43.430	WT901BLE68-01(48591DE3C19B)	-0.226	-1.220	0.150	-28.809	-85.632	-84.167	-75.50	20.13	-112.71	-77.812	-57.722	-20.678	0.55658	-0.13608	0.59579	-0.56271	29.6	13111	100
2025-3-27 20:19:43.430	WT901BLE68-01(48591DE3C19B)	-0.238	-0.991	0.132	-10.010	-56.946	-70.801	-75.45	19.30	-112.31	-77.812	-57.722	-20.678	0.55658	-0.13608	0.59579	-0.56271	29.6	13111	100
2025-3-27 20:19:43.490	WT901BLE68-01(48591DE3C19B)	-0.238	-0.757	0.168	-5.249	-9.521	-74.524	-75.48	18.51	-112.17	-77.812	-57.722	-20.678	0.55658	-0.13608	0.59579	-0.56271	29.6	13111	100
2025-3-27 20:19:43.490	WT901BLE68-01(48591DE3C19B)	-0.300	-0.757	0.168	-5.249	-9.521	-74.524	-75.56	17.78	-112.27	-77.812	-57.722	-20.678	0.55658	-0.13608	0.59579	-0.56271	29.6	13111	100
2025-3-27 20:19:43.490	WT901BLE68-01(48591DE3C19B)	-0.300	-0.701	0.230	-5.493	35.156	-67.444	-75.71	17.13	-112.58	-77.812	-57.722	-20.678	0.55658	-0.13608	0.59579	-0.56271	29.6	13111	100
2025-3-27 20:19:43.490	WT901BLE68-01(48591DE3C19B)	-0.432	-0.701	0.230	-5.493	35.156	-67.444	-75.91	16.58	-113.10	-77.812	-57.722	-20.678	0.55658	-0.13608	0.59579	-0.56271	29.6	13111	100
2025-3-27 20:19:43.580	WT901BLE68-01(48591DE3C19B)	-0.432	-0.752	0.296	-0.122	49.683	-61.035	-76.10	16.07	-113.70	-77.812	-57.722	-20.678	0.55658	-0.13608	0.59579	-0.56271	29.6	13111	100
2025-3-27 20:19:43.580	WT901BLE68-01(48591DE3C19B)	-0.494	-0.752	0.296	-0.122	49.683	-61.035	-76.27	15.63	-114.35	-77.812	-57.722	-20.678	0.55658	-0.13608	0.59579	-0.56271	29.6	13111	100
2025-3-27 20:19:43.580	WT901BLE68-01(48591DE3C19B)	-0.494	-0.716	0.352	3.113	36.072	-60.242	-76.39	15.17	-114.93	-77.812	-57.722	-20.678	0.55658	-0.13608	0.59579	-0.56271	29.6	13111	100
2025-3-27 20:19:43.580	WT901BLE68-01(48591DE3C19B)	-0.484	-0.716	0.352	3.113	36.072	-60.242	-76.47	14.72	-115.44	-77.812	-57.722	-20.678	0.55658	-0.13608	0.59579	-0.56271	29.6	13111	100
2025-3-27 20:19:43.609	WT901BLE68-01(48591DE3C19B)	-0.484	-0.690	0.345	1.282	15.137	-59.082	-76.52	14.24	-115.86	-77.812	-57.722	-20.678	0.55658	-0.13608	0.59579	-0.56271	29.6	13111	100
2025-3-27 20:19:43.609	WT901BLE68-01(48591DE3C19B)	-0.485	-0.690	0.345	1.282	15.137	-59.082	-76.55	13.76	-116.17	-77.812	-57.722	-20.678	0.55658	-0.13608	0.59579	-0.56271	29.6	13111	100
2025-3-27 20:19:43.609	WT901BLE68-01(48591DE3C19B)	-0.485	-0.732	0.313	0.183	-0.610	-57.068	-76.56	13.28	-116.40	-83.594	-57.722	-13.524	0.55658	-0.13608	0.59579	-0.56271	29.6	13111	100
2025-3-27 20:19:43.609	WT901BLE68-01(48591DE3C19B)	-0.500	-0.732	0.313	0.183	-0.610	-57.068	-76.55	12.79	-116.56	-83.594	-57.722	-13.524	0.55658	-0.13608	0.59579	-0.56271	29.6	13111	100
2025-3-27 20:19:43.611	WT901BLE68-01(48591DE3C19B)	-0.500	-0.787	0.313	-0.916	-17.578	-54.565	-76.52	12.30	-116.63	-83.594	-57.722	-13.524	0.55658	-0.13608	0.59579	-0.56271	29.6	13111	100
2025-3-27 20:19:43.612	WT901BLE68-01(48591DE3C19B)	-0.463	-0.787	0.313	-0.916	-17.578	-54.565	-76.48	11.82	-116.62	-83.594	-57.722	-13.524	0.55658	-0.13608	0.59579	-0.56271	29.6	13111	100
2025-3-27 20:19:43.612	WT901BLE68-01(48591DE3C19B)	-0.463	-0.848	0.332	-2.625	-28.259	-51.086	-76.43	11.34	-116.56	-83.594	-57.722	-13.524	0.55658	-0.13608	0.59579	-0.56271	29.6	13111	100
2025-3-27 20:19:43.612	WT901BLE68-01(48591DE3C19B)	-0.420	-0.848	0.332	-2.625	-28.259	-51.086	-76.39	10.87	-116.44	-83.594	-57.722	-13.524	0.55658	-0.13608	0.59579	-0.56271	29.6	13111	100
2025-3-27 20:19:43.641	WT901BLE68-01(48591DE3C19B)	-0.420	-0.911	0.343	-1.160	-26.428	-46.631	-76.33	10.42	-116.33	-83.594	-57.722	-13.524	0.55658	-0.13608	0.59579	-0.56271	29.6	13111	100
2025-3-27 20:19:43.641	WT901BLE68-01(48591DE3C19B)	-0.409	-0.911	0.343	-1.160	-26.428	-46.631	-76.28	10.00	-116.22	-83.594	-57.722	-13.524	0.55658	-0.13608	0.59579	-0.56271	29.6	13111	100
2025-3-27 20:19:43.641	WT901BLE68-01(48591DE3C19B)	-0.409	-0.936	0.341	2.686	-16.663	-39.734	-76.21	9.62	-116.15	-83.594	-57.722	-13.524	0.55658	-0.13608	0.59579	-0.56271	29.6	13111	100
2025-3-27 20:19:43.641	WT901BLE68-01(48591DE3C19B)	-0.419	-0.936	0.341	2.686	-16.663	-39.734	-76.12	9.29	-116.13	-83.594	-57.722	-13.524	0.55658	-0.13608	0.59579	-0.56271	29.6	13111	100
2025-3-27 20:19:43.669	WT901BLE68-01(48591DE3C19B)	-0.419	-0.941	0.328	4.639	-7.507	-31.860	-76.04	9.00	-116.14	-83.594	-57.722	-13.524	0.55658	-0.13608	0.59579	-0.56271	29.6	13111	100
2025-3-27 20:19:43.669	WT901BLE68-01(48591DE3C19B)	-0.426	-0.941	0.328	4.639	-7.507	-31.860	-75.96	8.77	-116.17	-83.594	-57.722	-13.524	0.55658	-0.13608	0.59579	-0.56271	29.6	13111	100
2025-3-27 20:19:43.669	WT901BLE68-01(48591DE3C19B)	-0.426	-0.945	0.309	5.737	-2.808	-24.353	-75.87	8.58	-116.23	-83.594	-57.722	-13.524	0.55658	-0.13608	0.59579	-0.56271	29.6	13111	100
2025-3-27 20:19:43.669	WT901BLE68-01(48591DE3C19B)	-0.427	-0.945	0.309	5.737	-2.808	-24.353	-75.78	8.43	-116.30	-83.594	-57.722	-13.524	0.55658	-0.13608	0.59579	-0.56271	29.6	13111	100
2025-3-27 20:19:43.729	WT901BLE68-01(48591DE3C19B)	-0.427	-0.923	0.285	5.859	-3.601	-15.625	-75.69	8.33	-116.35	-83.594	-57.722	-13.524	0.55658	-0.13608	0.59579	-0.56271	29.6	13111	100
2025-3-27 20:19:43.730	WT901BLE68-01(48591DE3C19B)	-0.433	-0.923	0.285	5.859	-3.601	-15.625	-75.60	8.26	-116.38	-83.594	-57.722	-13.524	0.55658	-0.13608	0.59579	-0.56271	29.6	13111	100
2025-3-27 20:19:43.730	WT901BLE68-01(48591DE3C19B)	-0.433	-0.901	0.271	3.174	-10.925	-6.836	-75.51	8.23	-116.37	-83.594	-57.722	-13.524	0.55658	-0.13608	0.59579	-0.56271	29.6	13111	100
2025-3-27 20:19:43.730	WT901BLE68-01(48591DE3C19B)	-0.413	-0.901	0.271	3.174	-10.925	-6.836	-75.44	8.23	-116.30	-83.594	-57.722	-13.524	0.55658	-0.13608	0.59579	-0.56271	29.6	13111	100
