time	DeviceName	AccX(g)	AccY(g)	AccZ(g)	AsX(°/s)	AsY(°/s)	AsZ(°/s)	AngleX(°)	AngleY(°)	AngleZ(°)	HX(uT)	HY(uT)	HZ(uT)	Q0()	Q1()	Q2()	Q3()	Temperature(°C)	Version()	Battery level(%)
2025-3-27 20:20:0.324	WT901BLE68-01(48591DE3C19B)	-0.249	-0.937	0.261	0.427	-0.671	0.244	-75.77	15.05	-23.66	-48.216	-24.402	87.906	0.78268	-0.57602	0.21866	-0.08771	29.6	13111	100
2025-3-27 20:20:0.324	WT901BLE68-01(48591DE3C19B)	-0.252	-0.937	0.261	0.427	-0.671	0.244	-75.75	15.05	-23.65	-48.216	-24.402	87.906	0.78268	-0.57602	0.21866	-0.08771	29.6	13111	100
2025-3-27 20:20:0.324	WT901BLE68-01(48591DE3C19B)	-0.252	-0.958	0.261	0.793	0.061	0.183	-75.74	15.04	-23.65	-48.216	-24.402	87.906	0.78268	-0.57602	0.21866	-0.08771	29.6	13111	100
2025-3-27 20:20:0.325	WT901BLE68-01(48591DE3C19B)	-0.253	-0.958	0.261	0.793	0.061	0.183	-75.72	15.04	-23.66	-48.216	-24.402	87.906	0.78268	-0.57602	0.21866	-0.08771	29.6	13111	100
2025-3-27 20:20:0.352	WT901BLE68-01(48591DE3C19B)	-0.253	-0.957	0.265	1.770	0.183	0.183	-75.71	15.03	-23.66	-48.216	-24.402	87.906	0.78268	-0.57602	0.21866	-0.08771	29.6	13111	100
2025-3-27 20:20:0.352	WT901BLE68-01(48591DE3C19B)	-0.247	-0.957	0.265	1.770	0.183	0.183	-75.68	15.03	-23.66	-48.216	-24.402	87.906	0.78268	-0.57602	0.21866	-0.08771	29.6	13111	100
2025-3-27 20:20:0.352	WT901BLE68-01(48591DE3C19B)	-0.247	-0.948	0.265	2.319	0.610	0.000	-75.65	15.03	-23.68	-48.216	-24.402	87.906	0.78290	-0.57376	0.22583	-0.08218	29.6	13111	100
2025-3-27 20:20:0.353	WT901BLE68-01(48591DE3C19B)	-0.247	-0.948	0.265	2.319	0.610	0.000	-75.62	15.03	-23.68	-48.216	-24.402	87.906	0.78290	-0.57376	0.22583	-0.08218	29.6	13111	100
2025-3-27 20:20:0.409	WT901BLE68-01(48591DE3C19B)	-0.247	-0.942	0.261	2.991	1.343	-0.427	-75.60	15.02	-23.70	-48.216	-24.402	87.906	0.78290	-0.57376	0.22583	-0.08218	29.6	13111	100
2025-3-27 20:20:0.410	WT901BLE68-01(48591DE3C19B)	-0.237	-0.942	0.261	2.991	1.343	-0.427	-75.56	15.02	-23.71	-48.216	-24.402	87.906	0.78290	-0.57376	0.22583	-0.08218	29.6	13111	100
2025-3-27 20:20:0.410	WT901BLE68-01(48591DE3C19B)	-0.237	-0.931	0.257	3.662	1.831	-1.099	-75.53	15.01	-23.74	-48.216	-24.402	87.906	0.78290	-0.57376	0.22583	-0.08218	29.6	13111	100
2025-3-27 20:20:0.410	WT901BLE68-01(48591DE3C19B)	-0.240	-0.931	0.257	3.662	1.831	-1.099	-75.49	15.00	-23.76	-48.216	-24.402	87.906	0.78290	-0.57376	0.22583	-0.08218	29.6	13111	100
2025-3-27 20:20:0.439	WT901BLE68-01(48591DE3C19B)	-0.240	-0.928	0.255	3.784	2.808	-1.953	-75.45	14.99	-23.79	-48.216	-24.402	87.906	0.78290	-0.57376	0.22583	-0.08218	29.6	13111	100
2025-3-27 20:20:0.439	WT901BLE68-01(48591DE3C19B)	-0.243	-0.928	0.255	3.784	2.808	-1.953	-75.42	14.97	-23.83	-48.216	-24.402	87.906	0.78290	-0.57376	0.22583	-0.08218	29.6	13111	100
2025-3-27 20:20:0.439	WT901BLE68-01(48591DE3C19B)	-0.243	-0.931	0.253	3.906	2.441	-2.869	-75.38	14.95	-23.86	-48.216	-24.402	87.906	0.78290	-0.57376	0.22583	-0.08218	29.6	13111	100
2025-3-27 20:20:0.439	WT901BLE68-01(48591DE3C19B)	-0.239	-0.931	0.253	3.906	2.441	-2.869	-75.35	14.92	-23.90	-48.216	-24.402	87.906	0.78290	-0.57376	0.22583	-0.08218	29.6	13111	100
2025-3-27 20:20:0.469	WT901BLE68-01(48591DE3C19B)	-0.239	-0.935	0.248	3.845	1.770	-3.540	-75.31	14.89	-23.93	-48.216	-24.402	87.906	0.78290	-0.57376	0.22583	-0.08218	29.6	13111	100
2025-3-27 20:20:0.470	WT901BLE68-01(48591DE3C19B)	-0.232	-0.935	0.248	3.845	1.770	-3.540	-75.28	14.85	-23.96	-48.216	-24.402	87.906	0.78290	-0.57376	0.22583	-0.08218	29.6	13111	100
2025-3-27 20:20:0.470	WT901BLE68-01(48591DE3C19B)	-0.232	-0.938	0.240	3.784	1.526	-4.150	-75.25	14.82	-23.99	-48.216	-24.402	87.906	0.78290	-0.57376	0.22583	-0.08218	29.6	13111	100
2025-3-27 20:20:0.470	WT901BLE68-01(48591DE3C19B)	-0.223	-0.938	0.240	3.784	1.526	-4.150	-75.21	14.78	-24.02	-48.216	-24.402	87.906	0.78290	-0.57376	0.22583	-0.08218	29.6	13111	100
2025-3-27 20:20:0.562	WT901BLE68-01(48591DE3C19B)	-0.223	-0.936	0.238	3.723	2.075	-4.761	-75.18	14.73	-24.05	-48.216	-24.402	87.906	0.78290	-0.57376	0.22583	-0.08218	29.6	13111	100
2025-3-27 20:20:0.562	WT901BLE68-01(48591DE3C19B)	-0.219	-0.936	0.238	3.723	2.075	-4.761	-75.15	14.69	-24.09	-48.216	-24.402	87.906	0.78290	-0.57376	0.22583	-0.08218	29.6	13111	100
2025-3-27 20:20:0.562	WT901BLE68-01(48591DE3C19B)	-0.219	-0.944	0.234	3.723	2.991	-5.249	-75.12	14.64	-24.13	-48.216	-24.402	87.906	0.78290	-0.57376	0.22583	-0.08218	29.6	13111	100
2025-3-27 20:20:0.562	WT901BLE68-01(48591DE3C19B)	-0.216	-0.944	0.234	3.723	2.991	-5.249	-75.10	14.59	-24.18	-48.216	-24.402	87.906	0.78290	-0.57376	0.22583	-0.08218	29.6	13111	100
2025-3-27 20:20:0.562	WT901BLE68-01(48591DE3C19B)	-0.216	-0.948	0.231	3.601	3.052	-5.432	-75.07	14.54	-24.23	-48.608	-23.716	87.808	0.78290	-0.57376	0.22583	-0.08218	29.6	13111	100
2025-3-27 20:20:0.562	WT901BLE68-01(48591DE3C19B)	-0.210	-0.948	0.231	3.601	3.052	-5.432	-75.05	14.49	-24.28	-48.608	-23.716	87.808	0.78290	-0.57376	0.22583	-0.08218	29.6	13111	100
2025-3-27 20:20:0.562	WT901BLE68-01(48591DE3C19B)	-0.210	-0.956	0.232	3.845	2.930	-5.493	-75.03	14.44	-24.33	-48.608	-23.716	87.808	0.78290	-0.57376	0.22583	-0.08218	29.6	13111	100
2025-3-27 20:20:0.562	WT901BLE68-01(48591DE3C19B)	-0.189	-0.956	0.232	3.845	2.930	-5.493	-75.00	14.39	-24.37	-48.608	-23.716	87.808	0.78290	-0.57376	0.22583	-0.08218	29.6	13111	100
2025-3-27 20:20:0.590	WT901BLE68-01(48591DE3C19B)	-0.189	-0.957	0.229	4.517	3.784	-4.639	-74.97	14.34	-24.43	-48.608	-23.716	87.808	0.78290	-0.57376	0.22583	-0.08218	29.6	13111	100
2025-3-27 20:20:0.590	WT901BLE68-01(48591DE3C19B)	-0.155	-0.957	0.229	4.517	3.784	-4.639	-74.94	14.30	-24.48	-48.608	-23.716	87.808	0.78290	-0.57376	0.22583	-0.08218	29.6	13111	100
2025-3-27 20:20:0.590	WT901BLE68-01(48591DE3C19B)	-0.155	-0.947	0.217	5.676	8.423	-2.747	-74.92	14.28	-24.58	-48.608	-23.716	87.808	0.78290	-0.57376	0.22583	-0.08218	29.6	13111	100
2025-3-27 20:20:0.590	WT901BLE68-01(48591DE3C19B)	-0.129	-0.947	0.217	5.676	8.423	-2.747	-74.89	14.27	-24.68	-48.608	-23.716	87.808	0.78290	-0.57376	0.22583	-0.08218	29.6	13111	100
2025-3-27 20:20:0.650	WT901BLE68-01(48591DE3C19B)	-0.129	-0.916	0.208	6.714	16.113	-0.366	-74.87	14.29	-24.85	-48.608	-23.716	87.808	0.78290	-0.57376	0.22583	-0.08218	29.6	13111	100
2025-3-27 20:20:0.650	WT901BLE68-01(48591DE3C19B)	-0.113	-0.916	0.208	6.714	16.113	-0.366	-74.85	14.31	-25.02	-48.608	-23.716	87.808	0.78290	-0.57376	0.22583	-0.08218	29.6	13111	100
2025-3-27 20:20:0.650	WT901BLE68-01(48591DE3C19B)	-0.113	-0.892	0.207	5.310	23.010	0.854	-74.86	14.36	-25.25	-48.608	-23.716	87.808	0.78290	-0.57376	0.22583	-0.08218	29.6	13111	100
2025-3-27 20:20:0.650	WT901BLE68-01(48591DE3C19B)	-0.112	-0.892	0.207	5.310	23.010	0.854	-74.87	14.40	-25.49	-48.608	-23.716	87.808	0.78290	-0.57376	0.22583	-0.08218	29.6	13111	100
2025-3-27 20:20:0.679	WT901BLE68-01(48591DE3C19B)	-0.112	-0.908	0.214	2.686	29.175	0.122	-74.93	14.46	-25.79	-48.608	-23.716	87.808	0.78290	-0.57376	0.22583	-0.08218	29.6	13111	100
2025-3-27 20:20:0.679	WT901BLE68-01(48591DE3C19B)	-0.143	-0.908	0.214	2.686	29.175	0.122	-74.98	14.51	-26.09	-48.608	-23.716	87.808	0.78290	-0.57376	0.22583	-0.08218	29.6	13111	100
2025-3-27 20:20:0.679	WT901BLE68-01(48591DE3C19B)	-0.143	-0.957	0.231	0.366	31.128	-3.235	-75.06	14.53	-26.42	-48.608	-23.716	87.808	0.78290	-0.57376	0.22583	-0.08218	29.6	13111	100
2025-3-27 20:20:0.679	WT901BLE68-01(48591DE3C19B)	-0.189	-0.957	0.231	0.366	31.128	-3.235	-75.15	14.55	-26.74	-48.608	-23.716	87.808	0.78290	-0.57376	0.22583	-0.08218	29.6	13111	100
2025-3-27 20:20:0.712	WT901BLE68-01(48591DE3C19B)	-0.189	-1.009	0.253	-2.258	25.940	-8.911	-75.25	14.50	-27.03	-48.608	-23.716	87.808	0.78290	-0.57376	0.22583	-0.08218	29.6	13111	100
2025-3-27 20:20:0.712	WT901BLE68-01(48591DE3C19B)	-0.246	-1.009	0.253	-2.258	25.940	-8.911	-75.35	14.45	-27.32	-48.608	-23.716	87.808	0.78290	-0.57376	0.22583	-0.08218	29.6	13111	100
2025-3-27 20:20:0.712	WT901BLE68-01(48591DE3C19B)	-0.246	-1.061	0.275	-2.380	18.311	-16.296	-75.44	14.31	-27.55	-48.608	-23.716	87.808	0.78290	-0.57376	0.22583	-0.08218	29.6	13111	100
2025-3-27 20:20:0.712	WT901BLE68-01(48591DE3C19B)	-0.282	-1.061	0.275	-2.380	18.311	-16.296	-75.52	14.18	-27.77	-48.608	-23.716	87.808	0.78290	-0.57376	0.22583	-0.08218	29.6	13111	100
2025-3-27 20:20:0.770	WT901BLE68-01(48591DE3C19B)	-0.282	-1.052	0.283	-2.014	7.935	-23.987	-75.57	13.94	-27.91	-48.608	-23.716	87.808	0.78290	-0.57376	0.22583	-0.08218	29.6	13111	100
2025-3-27 20:20:0.770	WT901BLE68-01(48591DE3C19B)	-0.275	-1.052	0.283	-2.014	7.935	-23.987	-75.63	13.72	-28.05	-48.608	-23.716	87.808	0.77866	-0.56772	0.23904	-0.11902	29.6	13111	100
2025-3-27 20:20:0.770	WT901BLE68-01(48591DE3C19B)	-0.275	-0.993	0.285	-2.258	-1.648	-31.006	-75.67	13.40	-28.11	-48.608	-23.716	87.808	0.77866	-0.56772	0.23904	-0.11902	29.6	13111	100
2025-3-27 20:20:0.770	WT901BLE68-01(48591DE3C19B)	-0.289	-0.993	0.285	-2.258	-1.648	-31.006	-75.71	13.08	-28.16	-48.608	-23.716	87.808	0.77866	-0.56772	0.23904	-0.11902	29.6	13111	100
2025-3-27 20:20:0.799	WT901BLE68-01(48591DE3C19B)	-0.289	-0.926	0.283	-2.930	-8.240	-35.156	-75.73	12.72	-28.16	-48.608	-23.716	87.808	0.77866	-0.56772	0.23904	-0.11902	29.6	13111	100
2025-3-27 20:20:0.799	WT901BLE68-01(48591DE3C19B)	-0.289	-0.926	0.283	-2.930	-8.240	-35.156	-75.76	12.36	-28.16	-48.608	-23.716	87.808	0.77866	-0.56772	0.23904	-0.11902	29.6	13111	100
2025-3-27 20:20:0.799	WT901BLE68-01(48591DE3C19B)	-0.289	-0.868	0.282	-4.395	-12.390	-37.781	-75.79	11.97	-28.13	-48.608	-23.716	87.808	0.77866	-0.56772	0.23904	-0.11902	29.6	13111	100
2025-3-27 20:20:0.799	WT901BLE68-01(48591DE3C19B)	-0.273	-0.868	0.282	-4.395	-12.390	-37.781	-75.82	11.59	-28.09	-48.608	-23.716	87.808	0.77866	-0.56772	0.23904	-0.11902	29.6	13111	100
2025-3-27 20:20:0.830	WT901BLE68-01(48591DE3C19B)	-0.273	-0.833	0.279	-5.676	-12.634	-39.368	-75.87	11.19	-28.05	-48.608	-23.716	87.808	0.77866	-0.56772	0.23904	-0.11902	29.6	13111	100
2025-3-27 20:20:0.830	WT901BLE68-01(48591DE3C19B)	-0.279	-0.833	0.279	-5.676	-12.634	-39.368	-75.91	10.79	-28.02	-48.608	-23.716	87.808	0.77866	-0.56772	0.23904	-0.11902	29.6	13111	100
2025-3-27 20:20:0.830	WT901BLE68-01(48591DE3C19B)	-0.279	-0.833	0.275	-6.042	-9.888	-40.344	-75.96	10.40	-28.00	-48.608	-23.716	87.808	0.77866	-0.56772	0.23904	-0.11902	29.6	13111	100
2025-3-27 20:20:0.830	WT901BLE68-01(48591DE3C19B)	-0.289	-0.833	0.275	-6.042	-9.888	-40.344	-76.00	10.01	-28.00	-48.608	-23.716	87.808	0.77866	-0.56772	0.23904	-0.11902	29.6	13111	100
2025-3-27 20:20:0.892	WT901BLE68-01(48591DE3C19B)	-0.289	-0.846	0.276	-5.066	-4.944	-40.344	-76.05	9.65	-28.03	-48.608	-23.716	87.808	0.77866	-0.56772	0.23904	-0.11902	29.6	13111	100
2025-3-27 20:20:0.892	WT901BLE68-01(48591DE3C19B)	-0.295	-0.846	0.276	-5.066	-4.944	-40.344	-76.09	9.28	-28.07	-48.608	-23.716	87.808	0.77866	-0.56772	0.23904	-0.11902	29.6	13111	100
2025-3-27 20:20:0.892	WT901BLE68-01(48591DE3C19B)	-0.295	-0.859	0.276	-3.174	1.648	-39.551	-76.12	8.94	-28.16	-48.608	-23.716	87.808	0.77866	-0.56772	0.23904	-0.11902	29.6	13111	100
2025-3-27 20:20:0.892	WT901BLE68-01(48591DE3C19B)	-0.306	-0.859	0.276	-3.174	1.648	-39.551	-76.16	8.60	-28.26	-48.608	-23.716	87.808	0.77866	-0.56772	0.23904	-0.11902	29.6	13111	100
2025-3-27 20:20:0.951	WT901BLE68-01(48591DE3C19B)	-0.306	-0.854	0.280	-1.038	7.996	-38.025	-76.18	8.30	-28.41	-48.608	-23.716	87.808	0.77866	-0.56772	0.23904	-0.11902	29.6	13111	100
2025-3-27 20:20:0.951	WT901BLE68-01(48591DE3C19B)	-0.325	-0.854	0.280	-1.038	7.996	-38.025	-76.20	8.00	-28.56	-48.608	-23.716	87.808	0.77866	-0.56772	0.23904	-0.11902	29.6	13111	100
2025-3-27 20:20:0.951	WT901BLE68-01(48591DE3C19B)	-0.325	-0.851	0.287	-0.488	11.719	-35.706	-76.21	7.73	-28.74	-48.608	-23.716	87.808	0.77866	-0.56772	0.23904	-0.11902	29.6	13111	100
2025-3-27 20:20:0.951	WT901BLE68-01(48591DE3C19B)	-0.335	-0.851	0.287	-0.488	11.719	-35.706	-76.22	7.47	-28.92	-48.608	-23.716	87.808	0.77866	-0.56772	0.23904	-0.11902	29.6	13111	100
2025-3-27 20:20:0.952	WT901BLE68-01(48591DE3C19B)	-0.335	-0.863	0.290	-1.038	12.695	-32.898	-76.23	7.25	-29.10	-48.608	-23.716	87.808	0.77866	-0.56772	0.23904	-0.11902	29.6	13111	100
2025-3-27 20:20:0.952	WT901BLE68-01(48591DE3C19B)	-0.328	-0.863	0.290	-1.038	12.695	-32.898	-76.25	7.02	-29.27	-48.608	-23.716	87.808	0.77866	-0.56772	0.23904	-0.11902	29.6	13111	100
2025-3-27 20:20:0.952	WT901BLE68-01(48591DE3C19B)	-0.328	-0.867	0.276	-2.014	13.367	-30.212	-76.28	6.82	-29.45	-52.430	-22.246	88.592	0.77866	-0.56772	0.23904	-0.11902	29.6	13111	100
2025-3-27 20:20:0.952	WT901BLE68-01(48591DE3C19B)	-0.332	-0.867	0.276	-2.014	13.367	-30.212	-76.30	6.63	-29.62	-52.430	-22.246	88.592	0.77866	-0.56772	0.23904	-0.11902	29.6	13111	100
2025-3-27 20:20:1.10	WT901BLE68-01(48591DE3C19B)	-0.352	-0.875	0.270	-3.845	12.939	-28.259	-76.34	6.45	-29.79	-52.430	-22.246	88.592	0.77866	-0.56772	0.23904	-0.11902	29.6	13111	100
2025-3-27 20:20:1.10	WT901BLE68-01(48591DE3C19B)	-0.352	-0.888	0.278	-5.493	9.155	-25.940	-76.39	6.30	-29.93	-52.430	-22.246	88.592	0.77866	-0.56772	0.23904	-0.11902	29.6	13111	100
2025-3-27 20:20:1.10	WT901BLE68-01(48591DE3C19B)	-0.366	-0.888	0.278	-5.493	9.155	-25.940	-76.44	6.14	-30.05	-52.430	-22.246	88.592	0.77866	-0.56772	0.23904	-0.11902	29.6	13111	100
2025-3-27 20:20:1.10	WT901BLE68-01(48591DE3C19B)	-0.366	-0.892	0.283	-7.385	1.465	-22.156	-76.50	5.99	-30.12	-52.430	-22.246	88.592	0.77866	-0.56772	0.23904	-0.11902	29.6	13111	100
2025-3-27 20:20:1.39	WT901BLE68-01(48591DE3C19B)	-0.358	-0.892	0.283	-7.385	1.465	-22.156	-76.56	5.86	-30.15	-52.430	-22.246	88.592	0.77866	-0.56772	0.23904	-0.11902	29.6	13111	100
2025-3-27 20:20:1.39	WT901BLE68-01(48591DE3C19B)	-0.358	-0.878	0.278	-8.789	-6.042	-16.663	-76.62	5.75	-30.14	-52.430	-22.246	88.592	0.77866	-0.56772	0.23904	-0.11902	29.6	13111	100
2025-3-27 20:20:1.39	WT901BLE68-01(48591DE3C19B)	-0.342	-0.878	0.278	-8.789	-6.042	-16.663	-76.68	5.66	-30.09	-52.430	-22.246	88.592	0.77866	-0.56772	0.23904	-0.11902	29.6	13111	100
2025-3-27 20:20:1.39	WT901BLE68-01(48591DE3C19B)	-0.342	-0.862	0.272	-10.437	-10.254	-10.864	-76.76	5.59	-30.00	-52.430	-22.246	88.592	0.77866	-0.56772	0.23904	-0.11902	29.6	13111	100
2025-3-27 20:20:1.99	WT901BLE68-01(48591DE3C19B)	-0.334	-0.862	0.272	-10.437	-10.254	-10.864	-76.83	5.55	-29.89	-52.430	-22.246	88.592	0.77866	-0.56772	0.23904	-0.11902	29.6	13111	100
2025-3-27 20:20:1.100	WT901BLE68-01(48591DE3C19B)	-0.334	-0.857	0.275	-11.414	-10.315	-4.944	-76.92	5.54	-29.77	-52.430	-22.246	88.592	0.77866	-0.56772	0.23904	-0.11902	29.6	13111	100
2025-3-27 20:20:1.100	WT901BLE68-01(48591DE3C19B)	-0.335	-0.857	0.275	-11.414	-10.315	-4.944	-77.00	5.55	-29.65	-52.430	-22.246	88.592	0.77866	-0.56772	0.23904	-0.11902	29.6	13111	100
2025-3-27 20:20:1.100	WT901BLE68-01(48591DE3C19B)	-0.335	-0.844	0.283	-11.475	-9.033	0.977	-77.08	5.60	-29.52	-52.430	-22.246	88.592	0.77866	-0.56772	0.23904	-0.11902	29.6	13111	100
2025-3-27 20:20:1.161	WT901BLE68-01(48591DE3C19B)	-0.329	-0.844	0.283	-11.475	-9.033	0.977	-77.16	5.67	-29.39	-52.430	-22.246	88.592	0.77866	-0.56772	0.23904	-0.11902	29.6	13111	100
2025-3-27 20:20:1.161	WT901BLE68-01(48591DE3C19B)	-0.329	-0.819	0.278	-10.925	-6.409	6.470	-77.24	5.78	-29.28	-52.430	-22.246	88.592	0.77866	-0.56772	0.23904	-0.11902	29.6	13111	100
2025-3-27 20:20:1.161	WT901BLE68-01(48591DE3C19B)	-0.344	-0.819	0.278	-10.925	-6.409	6.470	-77.32	5.92	-29.17	-52.430	-22.246	88.592	0.77866	-0.56772	0.23904	-0.11902	29.6	13111	100
2025-3-27 20:20:1.161	WT901BLE68-01(48591DE3C19B)	-0.344	-0.794	0.278	-9.583	-2.319	11.230	-77.39	6.08	-29.07	-52.430	-22.246	88.592	0.77866	-0.56772	0.23904	-0.11902	29.6	13111	100
2025-3-27 20:20:1.162	WT901BLE68-01(48591DE3C19B)	-0.363	-0.794	0.278	-9.583	-2.319	11.230	-77.45	6.27	-28.99	-52.430	-22.246	88.592	0.77866	-0.56772	0.23904	-0.11902	29.6	13111	100
2025-3-27 20:20:1.162	WT901BLE68-01(48591DE3C19B)	-0.363	-0.765	0.284	-7.935	-0.610	16.052	-77.50	6.49	-28.91	-52.430	-22.246	88.592	0.77866	-0.56772	0.23904	-0.11902	29.6	13111	100
2025-3-27 20:20:1.162	WT901BLE68-01(48591DE3C19B)	-0.373	-0.765	0.284	-7.935	-0.610	16.052	-77.55	6.73	-28.83	-52.430	-22.246	88.592	0.76294	-0.59406	0.20062	-0.15714	29.6	13111	100
2025-3-27 20:20:1.162	WT901BLE68-01(48591DE3C19B)	-0.373	-0.722	0.281	-6.775	-0.854	21.118	-77.59	7.00	-28.75	-52.430	-22.246	88.592	0.76294	-0.59406	0.20062	-0.15714	29.6	13111	100
2025-3-27 20:20:1.220	WT901BLE68-01(48591DE3C19B)	-0.379	-0.722	0.281	-6.775	-0.854	21.118	-77.62	7.29	-28.65	-52.430	-22.246	88.592	0.76294	-0.59406	0.20062	-0.15714	29.6	13111	100
2025-3-27 20:20:1.220	WT901BLE68-01(48591DE3C19B)	-0.379	-0.670	0.272	-5.859	-2.747	26.123	-77.63	7.61	-28.54	-52.430	-22.246	88.592	0.76294	-0.59406	0.20062	-0.15714	29.6	13111	100
2025-3-27 20:20:1.220	WT901BLE68-01(48591DE3C19B)	-0.374	-0.670	0.272	-5.859	-2.747	26.123	-77.65	7.95	-28.42	-52.430	-22.246	88.592	0.76294	-0.59406	0.20062	-0.15714	29.6	13111	100
2025-3-27 20:20:1.220	WT901BLE68-01(48591DE3C19B)	-0.374	-0.619	0.266	-5.493	-6.470	31.128	-77.66	8.31	-28.26	-52.430	-22.246	88.592	0.76294	-0.59406	0.20062	-0.15714	29.6	13111	100
2025-3-27 20:20:1.249	WT901BLE68-01(48591DE3C19B)	-0.359	-0.619	0.266	-5.493	-6.470	31.128	-77.66	8.70	-28.09	-52.430	-22.246	88.592	0.76294	-0.59406	0.20062	-0.15714	29.6	13111	100
2025-3-27 20:20:1.249	WT901BLE68-01(48591DE3C19B)	-0.359	-0.586	0.248	-5.493	-8.850	35.522	-77.65	9.10	-27.89	-52.430	-22.246	88.592	0.76294	-0.59406	0.20062	-0.15714	29.6	13111	100
2025-3-27 20:20:1.249	WT901BLE68-01(48591DE3C19B)	-0.357	-0.586	0.248	-5.493	-8.850	35.522	-77.64	9.52	-27.68	-52.430	-22.246	88.592	0.76294	-0.59406	0.20062	-0.15714	29.6	13111	100
2025-3-27 20:20:1.249	WT901BLE68-01(48591DE3C19B)	-0.357	-0.589	0.225	-5.188	-9.766	37.659	-77.62	9.95	-27.45	-52.430	-22.246	88.592	0.76294	-0.59406	0.20062	-0.15714	29.6	13111	100
2025-3-27 20:20:1.280	WT901BLE68-01(48591DE3C19B)	-0.374	-0.589	0.225	-5.188	-9.766	37.659	-77.60	10.39	-27.22	-52.430	-22.246	88.592	0.76294	-0.59406	0.20062	-0.15714	29.6	13111	100
2025-3-27 20:20:1.280	WT901BLE68-01(48591DE3C19B)	-0.374	-0.628	0.221	-4.700	-11.475	36.865	-77.58	10.83	-26.98	-52.430	-22.246	88.592	0.76294	-0.59406	0.20062	-0.15714	29.6	13111	100
2025-3-27 20:20:1.280	WT901BLE68-01(48591DE3C19B)	-0.394	-0.628	0.221	-4.700	-11.475	36.865	-77.55	11.26	-26.74	-52.430	-22.246	88.592	0.76294	-0.59406	0.20062	-0.15714	29.6	13111	100
2025-3-27 20:20:1.280	WT901BLE68-01(48591DE3C19B)	-0.394	-0.694	0.250	-3.906	-14.771	35.278	-77.51	11.67	-26.47	-52.430	-22.246	88.592	0.76294	-0.59406	0.20062	-0.15714	29.6	13111	100
2025-3-27 20:20:1.342	WT901BLE68-01(48591DE3C19B)	-0.384	-0.694	0.250	-3.906	-14.771	35.278	-77.47	12.07	-26.19	-52.430	-22.246	88.592	0.76294	-0.59406	0.20062	-0.15714	29.6	13111	100
2025-3-27 20:20:1.342	WT901BLE68-01(48591DE3C19B)	-0.384	-0.745	0.272	0.061	-14.221	35.767	-77.41	12.47	-25.91	-52.430	-22.246	88.592	0.76294	-0.59406	0.20062	-0.15714	29.6	13111	100
2025-3-27 20:20:1.342	WT901BLE68-01(48591DE3C19B)	-0.343	-0.745	0.272	0.061	-14.221	35.767	-77.32	12.88	-25.63	-52.430	-22.246	88.592	0.76294	-0.59406	0.20062	-0.15714	29.6	13111	100
2025-3-27 20:20:1.342	WT901BLE68-01(48591DE3C19B)	-0.343	-0.659	0.260	6.531	-10.681	41.260	-77.21	13.31	-25.37	-52.430	-22.246	88.592	0.76294	-0.59406	0.20062	-0.15714	29.6	13111	100
2025-3-27 20:20:1.371	WT901BLE68-01(48591DE3C19B)	-0.319	-0.659	0.260	6.531	-10.681	41.260	-77.06	13.77	-25.11	-48.510	-24.402	88.102	0.76294	-0.59406	0.20062	-0.15714	29.6	13111	100
2025-3-27 20:20:1.372	WT901BLE68-01(48591DE3C19B)	-0.319	-0.557	0.240	7.080	-7.996	50.720	-76.90	14.27	-24.86	-48.510	-24.402	88.102	0.76294	-0.59406	0.20062	-0.15714	29.6	13111	100
2025-3-27 20:20:1.372	WT901BLE68-01(48591DE3C19B)	-0.333	-0.557	0.240	7.080	-7.996	50.720	-76.74	14.82	-24.60	-48.510	-24.402	88.102	0.76294	-0.59406	0.20062	-0.15714	29.6	13111	100
2025-3-27 20:20:1.372	WT901BLE68-01(48591DE3C19B)	-0.333	-0.555	0.251	5.249	-11.780	61.646	-76.59	15.42	-24.31	-48.510	-24.402	88.102	0.76294	-0.59406	0.20062	-0.15714	29.6	13111	100
2025-3-27 20:20:1.402	WT901BLE68-01(48591DE3C19B)	-0.365	-0.555	0.251	5.249	-11.780	61.646	-76.42	16.06	-23.99	-48.510	-24.402	88.102	0.76294	-0.59406	0.20062	-0.15714	29.6	13111	100
2025-3-27 20:20:1.402	WT901BLE68-01(48591DE3C19B)	-0.365	-0.629	0.261	0.610	-26.917	72.205	-76.25	16.73	-23.58	-48.510	-24.402	88.102	0.76294	-0.59406	0.20062	-0.15714	29.6	13111	100
2025-3-27 20:20:1.402	WT901BLE68-01(48591DE3C19B)	-0.423	-0.629	0.261	0.610	-26.917	72.205	-76.07	17.43	-23.07	-48.510	-24.402	88.102	0.76294	-0.59406	0.20062	-0.15714	29.6	13111	100
2025-3-27 20:20:1.402	WT901BLE68-01(48591DE3C19B)	-0.423	-0.908	0.241	-10.437	-53.955	76.538	-75.90	18.11	-22.41	-48.510	-24.402	88.102	0.76294	-0.59406	0.20062	-0.15714	29.6	13111	100
2025-3-27 20:20:1.462	WT901BLE68-01(48591DE3C19B)	-0.518	-0.908	0.241	-10.437	-53.955	76.538	-75.73	18.77	-21.61	-48.510	-24.402	88.102	0.76294	-0.59406	0.20062	-0.15714	29.6	13111	100
2025-3-27 20:20:1.463	WT901BLE68-01(48591DE3C19B)	-2.071	-1.468	0.164	-24.963	-87.158	65.491	-75.59	19.33	-20.65	-48.510	-24.402	88.102	0.76294	-0.59406	0.20062	-0.15714	29.6	13111	100
2025-3-27 20:20:1.463	WT901BLE68-01(48591DE3C19B)	-0.618	-5.873	0.658	-24.963	-87.158	65.491	-75.47	19.78	-19.56	-48.510	-24.402	88.102	0.76294	-0.59406	0.20062	-0.15714	29.6	13111	100
2025-3-27 20:20:1.463	WT901BLE68-01(48591DE3C19B)	-0.618	-2.167	0.158	-24.475	-127.869	55.664	-75.31	20.10	-18.28	-48.510	-24.402	88.102	0.76294	-0.59406	0.20062	-0.15714	29.6	13111	100
2025-3-27 20:20:1.491	WT901BLE68-01(48591DE3C19B)	-0.354	-2.167	0.158	-24.475	-127.869	55.664	-75.08	20.32	-16.81	-48.510	-24.402	88.102	0.76294	-0.59406	0.20062	-0.15714	29.6	13111	100
2025-3-27 20:20:1.491	WT901BLE68-01(48591DE3C19B)	-0.354	-2.533	0.064	-1.160	-136.597	61.523	-74.57	20.55	-15.25	-48.510	-24.402	88.102	0.76294	-0.59406	0.20062	-0.15714	29.6	13111	100
2025-3-27 20:20:1.491	WT901BLE68-01(48591DE3C19B)	-0.084	-2.533	0.064	-1.160	-136.597	61.523	-74.07	20.76	-13.69	-48.510	-24.402	88.102	0.76294	-0.59406	0.20062	-0.15714	29.6	13111	100
2025-3-27 20:20:1.491	WT901BLE68-01(48591DE3C19B)	-0.084	-2.021	0.041	36.865	-98.083	71.838	-73.32	21.15	-12.50	-48.510	-24.402	88.102	0.76294	-0.59406	0.20062	-0.15714	29.6	13111	100
2025-3-27 20:20:1.522	WT901BLE68-01(48591DE3C19B)	0.091	-2.021	0.041	36.865	-98.083	71.838	-72.57	21.52	-11.32	-48.510	-24.402	88.102	0.76294	-0.59406	0.20062	-0.15714	29.6	13111	100
2025-3-27 20:20:1.522	WT901BLE68-01(48591DE3C19B)	0.091	-1.588	0.070	32.166	-46.265	83.008	-72.05	22.13	-10.63	-48.510	-24.402	88.102	0.76294	-0.59406	0.20062	-0.15714	29.6	13111	100
2025-3-27 20:20:1.522	WT901BLE68-01(48591DE3C19B)	0.186	-1.588	0.070	32.166	-46.265	83.008	-71.52	22.71	-9.94	-48.510	-24.402	88.102	0.76294	-0.59406	0.20062	-0.15714	29.6	13111	100
2025-3-27 20:20:1.522	WT901BLE68-01(48591DE3C19B)	0.186	-1.339	0.079	26.245	11.353	83.557	-71.27	23.48	-9.84	-48.510	-24.402	88.102	0.76294	-0.59406	0.20062	-0.15714	29.6	13111	100
2025-3-27 20:20:1.580	WT901BLE68-01(48591DE3C19B)	0.203	-1.339	0.079	26.245	11.353	83.557	-71.03	24.22	-9.74	-48.510	-24.402	88.102	0.76294	-0.59406	0.20062	-0.15714	29.6	13111	100
2025-3-27 20:20:1.580	WT901BLE68-01(48591DE3C19B)	0.203	-1.099	0.116	15.381	58.044	70.557	-71.12	24.99	-10.18	-48.510	-24.402	88.102	0.80167	-0.54913	0.22934	0.05533	29.6	13111	100
2025-3-27 20:20:1.580	WT901BLE68-01(48591DE3C19B)	0.091	-1.099	0.116	15.381	58.044	70.557	-71.21	25.75	-10.62	-48.510	-24.402	88.102	0.80167	-0.54913	0.22934	0.05533	29.6	13111	100
2025-3-27 20:20:1.580	WT901BLE68-01(48591DE3C19B)	0.091	-0.964	0.152	7.141	85.571	48.401	-71.56	26.37	-11.44	-48.510	-24.402	88.102	0.80167	-0.54913	0.22934	0.05533	29.6	13111	100
2025-3-27 20:20:1.609	WT901BLE68-01(48591DE3C19B)	-0.096	-0.964	0.152	7.141	85.571	48.401	-71.91	26.98	-12.26	-48.510	-24.402	88.102	0.80167	-0.54913	0.22934	0.05533	29.6	13111	100
2025-3-27 20:20:1.609	WT901BLE68-01(48591DE3C19B)	-0.096	-0.802	0.161	2.808	67.810	22.400	-72.27	27.28	-12.99	-48.510	-24.402	88.102	0.80167	-0.54913	0.22934	0.05533	29.6	13111	100
2025-3-27 20:20:1.609	WT901BLE68-01(48591DE3C19B)	-0.160	-0.802	0.161	2.808	67.810	22.400	-72.62	27.57	-13.72	-48.510	-24.402	88.102	0.80167	-0.54913	0.22934	0.05533	29.6	13111	100
2025-3-27 20:20:1.609	WT901BLE68-01(48591DE3C19B)	-0.160	-0.661	0.119	-8.972	29.053	-1.099	-72.94	27.53	-14.11	-48.510	-24.402	88.102	0.80167	-0.54913	0.22934	0.05533	29.6	13111	100
2025-3-27 20:20:1.640	WT901BLE68-01(48591DE3C19B)	-0.157	-0.661	0.119	-8.972	29.053	-1.099	-73.25	27.48	-14.49	-48.510	-24.402	88.102	0.80167	-0.54913	0.22934	0.05533	29.6	13111	100
2025-3-27 20:20:1.640	WT901BLE68-01(48591DE3C19B)	-0.157	-0.701	0.039	-21.667	-7.263	-22.644	-73.54	27.12	-14.55	-48.510	-24.402	88.102	0.80167	-0.54913	0.22934	0.05533	29.6	13111	100
2025-3-27 20:20:1.640	WT901BLE68-01(48591DE3C19B)	-0.092	-0.701	0.039	-21.667	-7.263	-22.644	-73.82	26.77	-14.61	-48.510	-24.402	88.102	0.80167	-0.54913	0.22934	0.05533	29.6	13111	100
2025-3-27 20:20:1.640	WT901BLE68-01(48591DE3C19B)	-0.092	-0.780	-0.003	-23.865	-41.870	-40.344	-73.99	26.16	-14.35	-48.510	-24.402	88.102	0.80167	-0.54913	0.22934	0.05533	29.6	13111	100
2025-3-27 20:20:1.700	WT901BLE68-01(48591DE3C19B)	0.042	-0.780	-0.003	-23.865	-41.870	-40.344	-74.16	25.55	-14.09	-48.510	-24.402	88.102	0.80167	-0.54913	0.22934	0.05533	29.6	13111	100
2025-3-27 20:20:1.700	WT901BLE68-01(48591DE3C19B)	0.042	-0.738	0.012	-20.569	-55.359	-47.119	-74.25	24.84	-13.71	-48.510	-24.402	88.102	0.80167	-0.54913	0.22934	0.05533	29.6	13111	100
2025-3-27 20:20:1.700	WT901BLE68-01(48591DE3C19B)	0.111	-0.738	0.012	-20.569	-55.359	-47.119	-74.35	24.13	-13.34	-48.510	-24.402	88.102	0.80167	-0.54913	0.22934	0.05533	29.6	13111	100
2025-3-27 20:20:1.700	WT901BLE68-01(48591DE3C19B)	0.111	-0.667	0.048	-14.648	-42.969	-49.316	-74.45	23.43	-13.10	-48.510	-24.402	88.102	0.80167	-0.54913	0.22934	0.05533	29.6	13111	100
2025-3-27 20:20:1.732	WT901BLE68-01(48591DE3C19B)	0.176	-0.667	0.048	-14.648	-42.969	-49.316	-74.55	22.74	-12.88	-48.510	-24.402	88.102	0.80167	-0.54913	0.22934	0.05533	29.6	13111	100
2025-3-27 20:20:1.732	WT901BLE68-01(48591DE3C19B)	0.176	-0.573	0.088	-5.676	-12.573	-47.058	-74.69	22.14	-12.96	-48.510	-24.402	88.102	0.80167	-0.54913	0.22934	0.05533	29.6	13111	100
2025-3-27 20:20:1.732	WT901BLE68-01(48591DE3C19B)	0.191	-0.573	0.088	-5.676	-12.573	-47.058	-74.82	21.54	-13.05	-48.510	-24.402	88.102	0.80167	-0.54913	0.22934	0.05533	29.6	13111	100
2025-3-27 20:20:1.732	WT901BLE68-01(48591DE3C19B)	0.191	-0.461	0.089	4.822	27.222	-41.504	-74.99	21.09	-13.52	-48.510	-24.402	88.102	0.80167	-0.54913	0.22934	0.05533	29.6	13111	100
2025-3-27 20:20:1.761	WT901BLE68-01(48591DE3C19B)	0.143	-0.461	0.089	4.822	27.222	-41.504	-75.15	20.63	-14.01	-48.510	-24.402	88.102	0.80167	-0.54913	0.22934	0.05533	29.6	13111	100
2025-3-27 20:20:1.761	WT901BLE68-01(48591DE3C19B)	0.143	-0.375	0.088	12.573	57.312	-39.063	-75.34	20.28	-14.79	-48.510	-24.402	88.102	0.80167	-0.54913	0.22934	0.05533	29.6	13111	100
2025-3-27 20:20:1.762	WT901BLE68-01(48591DE3C19B)	0.124	-0.375	0.088	12.573	57.312	-39.063	-75.52	19.91	-15.56	-37.926	-30.674	84.182	0.80167	-0.54913	0.22934	0.05533	29.6	13111	100
2025-3-27 20:20:1.762	WT901BLE68-01(48591DE3C19B)	0.124	-0.392	0.090	14.404	81.543	-37.170	-75.75	19.61	-16.58	-37.926	-30.674	84.182	0.80167	-0.54913	0.22934	0.05533	29.6	13111	100
2025-3-27 20:20:1.820	WT901BLE68-01(48591DE3C19B)	0.107	-0.392	0.090	14.404	81.543	-37.170	-75.98	19.31	-17.59	-37.926	-30.674	84.182	0.80167	-0.54913	0.22934	0.05533	29.6	13111	100
2025-3-27 20:20:1.820	WT901BLE68-01(48591DE3C19B)	0.107	-0.570	0.075	15.015	107.056	-40.527	-76.28	19.03	-18.86	-37.926	-30.674	84.182	0.80167	-0.54913	0.22934	0.05533	29.6	13111	100
2025-3-27 20:20:1.820	WT901BLE68-01(48591DE3C19B)	-0.067	-0.570	0.075	15.015	107.056	-40.527	-76.56	18.74	-20.12	-37.926	-30.674	84.182	0.80167	-0.54913	0.22934	0.05533	29.6	13111	100
2025-3-27 20:20:1.820	WT901BLE68-01(48591DE3C19B)	-0.067	-0.866	0.073	17.029	129.883	-47.852	-76.90	18.44	-21.62	-37.926	-30.674	84.182	0.80167	-0.54913	0.22934	0.05533	29.6	13111	100
2025-3-27 20:20:1.850	WT901BLE68-01(48591DE3C19B)	-0.403	-0.866	0.073	17.029	129.883	-47.852	-77.23	18.13	-23.10	-37.926	-30.674	84.182	0.80167	-0.54913	0.22934	0.05533	29.6	13111	100
2025-3-27 20:20:1.850	WT901BLE68-01(48591DE3C19B)	-0.403	-1.161	0.099	18.616	125.366	-62.927	-77.53	17.68	-24.55	-37.926	-30.674	84.182	0.80167	-0.54913	0.22934	0.05533	29.6	13111	100
2025-3-27 20:20:1.850	WT901BLE68-01(48591DE3C19B)	-0.788	-1.161	0.099	18.616	125.366	-62.927	-77.81	17.25	-25.99	-37.926	-30.674	84.182	0.80167	-0.54913	0.22934	0.05533	29.6	13111	100
2025-3-27 20:20:1.850	WT901BLE68-01(48591DE3C19B)	-0.788	-1.563	0.188	8.484	76.843	-95.825	-78.04	16.41	-26.97	-37.926	-30.674	84.182	0.80167	-0.54913	0.22934	0.05533	29.6	13111	100
2025-3-27 20:20:1.879	WT901BLE68-01(48591DE3C19B)	-1.035	-1.563	0.188	8.484	76.843	-95.825	-78.26	15.60	-27.93	-37.926	-30.674	84.182	0.80167	-0.54913	0.22934	0.05533	29.6	13111	100
2025-3-27 20:20:1.879	WT901BLE68-01(48591DE3C19B)	-1.035	-2.157	0.452	2.747	11.353	-139.954	-78.37	14.24	-28.30	-37.926	-30.674	84.182	0.80167	-0.54913	0.22934	0.05533	29.6	13111	100
2025-3-27 20:20:1.879	WT901BLE68-01(48591DE3C19B)	-1.099	-2.157	0.452	2.747	11.353	-139.954	-78.45	12.90	-28.65	-37.926	-30.674	84.182	0.80167	-0.54913	0.22934	0.05533	29.6	13111	100
2025-3-27 20:20:1.880	WT901BLE68-01(48591DE3C19B)	-1.099	-2.394	0.689	13.550	-20.142	-155.884	-78.36	11.37	-28.72	-37.926	-30.674	84.182	0.80167	-0.54913	0.22934	0.05533	29.6	13111	100
2025-3-27 20:20:1.939	WT901BLE68-01(48591DE3C19B)	-0.842	-2.394	0.689	13.550	-20.142	-155.884	-78.26	9.85	-28.78	-37.926	-30.674	84.182	0.80167	-0.54913	0.22934	0.05533	29.6	13111	100
2025-3-27 20:20:1.939	WT901BLE68-01(48591DE3C19B)	-0.606	-1.658	0.655	24.536	22.278	-149.292	-78.10	8.50	-29.25	-37.926	-30.674	84.182	0.80167	-0.54913	0.22934	0.05533	29.6	13111	100
2025-3-27 20:20:1.939	WT901BLE68-01(48591DE3C19B)	-0.606	-1.100	0.466	15.259	80.872	-117.798	-78.01	7.37	-29.97	-37.926	-30.674	84.182	0.80167	-0.54913	0.22934	0.05533	29.6	13111	100
2025-3-27 20:20:1.939	WT901BLE68-01(48591DE3C19B)	-0.577	-1.100	0.466	15.259	80.872	-117.798	-77.98	6.48	-30.94	-37.926	-30.674	84.182	0.80167	-0.54913	0.22934	0.05533	29.6	13111	100
2025-3-27 20:20:1.969	WT901BLE68-01(48591DE3C19B)	-0.577	-0.740	0.396	18.311	102.539	-87.341	-77.93	5.76	-31.98	-37.926	-30.674	84.182	0.80167	-0.54913	0.22934	0.05533	29.6	13111	100
2025-3-27 20:20:1.969	WT901BLE68-01(48591DE3C19B)	-0.840	-0.740	0.396	18.311	102.539	-87.341	-77.85	5.22	-33.09	-37.926	-30.674	84.182	0.80167	-0.54913	0.22934	0.05533	29.6	13111	100
2025-3-27 20:20:1.969	WT901BLE68-01(48591DE3C19B)	-0.840	-0.451	0.424	3.479	40.955	-50.537	-77.81	4.81	-33.84	-37.926	-30.674	84.182	0.80167	-0.54913	0.22934	0.05533	29.6	13111	100
2025-3-27 20:20:1.969	WT901BLE68-01(48591DE3C19B)	-0.752	-0.451	0.424	3.479	40.955	-50.537	-77.81	4.54	-34.24	-37.926	-30.674	84.182	0.75040	-0.59064	0.21420	-0.20514	29.6	13111	100
2025-3-27 20:20:1.998	WT901BLE68-01(48591DE3C19B)	-0.752	-0.578	0.356	-36.255	-62.744	-22.156	-77.96	4.31	-34.10	-37.926	-30.674	84.182	0.75040	-0.59064	0.21420	-0.20514	29.6	13111	100
2025-3-27 20:20:1.998	WT901BLE68-01(48591DE3C19B)	-0.478	-0.578	0.356	-36.255	-62.744	-22.156	-78.27	4.11	-33.42	-37.926	-30.674	84.182	0.75040	-0.59064	0.21420	-0.20514	29.6	13111	100
2025-3-27 20:20:1.998	WT901BLE68-01(48591DE3C19B)	-0.478	-0.694	0.119	-36.621	-93.018	13.489	-78.56	4.08	-32.55	-37.926	-30.674	84.182	0.75040	-0.59064	0.21420	-0.20514	29.6	13111	100
2025-3-27 20:20:1.998	WT901BLE68-01(48591DE3C19B)	-0.459	-0.694	0.119	-36.621	-93.018	13.489	-78.84	4.20	-31.50	-37.926	-30.674	84.182	0.75040	-0.59064	0.21420	-0.20514	29.6	13111	100
2025-3-27 20:20:2.61	WT901BLE68-01(48591DE3C19B)	-0.459	-0.564	-0.019	-12.146	-60.242	28.381	-79.01	4.42	-30.60	-37.926	-30.674	84.182	0.75040	-0.59064	0.21420	-0.20514	29.6	13111	100
2025-3-27 20:20:2.62	WT901BLE68-01(48591DE3C19B)	-0.520	-0.564	-0.019	-12.146	-60.242	28.381	-79.07	4.75	-29.84	-37.926	-30.674	84.182	0.75040	-0.59064	0.21420	-0.20514	29.6	13111	100
2025-3-27 20:20:2.62	WT901BLE68-01(48591DE3C19B)	-0.520	-0.416	0.024	-11.963	-23.621	37.598	-79.16	5.16	-29.27	-37.926	-30.674	84.182	0.75040	-0.59064	0.21420	-0.20514	29.6	13111	100
2025-3-27 20:20:2.62	WT901BLE68-01(48591DE3C19B)	-0.605	-0.416	0.024	-11.963	-23.621	37.598	-79.25	5.66	-28.86	-37.926	-30.674	84.182	0.75040	-0.59064	0.21420	-0.20514	29.6	13111	100
2025-3-27 20:20:2.90	WT901BLE68-01(48591DE3C19B)	-0.605	-0.466	0.124	-19.287	-5.798	47.119	-79.39	6.22	-28.52	-37.926	-30.674	84.182	0.75040	-0.59064	0.21420	-0.20514	29.6	13111	100
2025-3-27 20:20:2.90	WT901BLE68-01(48591DE3C19B)	-0.683	-0.466	0.124	-19.287	-5.798	47.119	-79.57	6.85	-28.26	-37.926	-30.674	84.182	0.75040	-0.59064	0.21420	-0.20514	29.6	13111	100
2025-3-27 20:20:2.90	WT901BLE68-01(48591DE3C19B)	-0.683	-0.483	0.247	-14.282	-14.832	58.289	-79.72	7.53	-27.94	-37.926	-30.674	84.182	0.75040	-0.59064	0.21420	-0.20514	29.6	13111	100
2025-3-27 20:20:2.90	WT901BLE68-01(48591DE3C19B)	-0.563	-0.483	0.247	-14.282	-14.832	58.289	-79.84	8.27	-27.57	-37.926	-30.674	84.182	0.75040	-0.59064	0.21420	-0.20514	29.6	13111	100
2025-3-27 20:20:2.121	WT901BLE68-01(48591DE3C19B)	-0.563	-0.382	0.255	-12.512	-37.048	76.172	-79.91	9.07	-27.06	-37.926	-30.674	84.182	0.75040	-0.59064	0.21420	-0.20514	29.6	13111	100
2025-3-27 20:20:2.121	WT901BLE68-01(48591DE3C19B)	-0.423	-0.382	0.255	-12.512	-37.048	76.172	-79.96	9.95	-26.42	-37.926	-30.674	84.182	0.75040	-0.59064	0.21420	-0.20514	29.6	13111	100
2025-3-27 20:20:2.122	WT901BLE68-01(48591DE3C19B)	-0.423	-0.241	0.199	-10.437	-49.194	94.482	-79.96	10.90	-25.70	-37.926	-30.674	84.182	0.75040	-0.59064	0.21420	-0.20514	29.6	13111	100
2025-3-27 20:20:2.122	WT901BLE68-01(48591DE3C19B)	-0.365	-0.241	0.199	-10.437	-49.194	94.482	-79.93	11.94	-24.90	-37.926	-30.674	84.182	0.75040	-0.59064	0.21420	-0.20514	29.6	13111	100
2025-3-27 20:20:2.179	WT901BLE68-01(48591DE3C19B)	-0.365	-0.141	0.165	-13.855	-62.134	114.502	-79.88	13.06	-24.01	-37.926	-30.674	84.182	0.75040	-0.59064	0.21420	-0.20514	29.6	13111	100
2025-3-27 20:20:2.179	WT901BLE68-01(48591DE3C19B)	-0.311	-0.141	0.165	-13.855	-62.134	114.502	-79.82	14.27	-23.02	-43.316	-28.616	86.142	0.75040	-0.59064	0.21420	-0.20514	29.6	13111	100
2025-3-27 20:20:2.179	WT901BLE68-01(48591DE3C19B)	-0.311	-0.247	0.142	-25.391	-83.618	126.160	-79.75	15.51	-21.90	-43.316	-28.616	86.142	0.75040	-0.59064	0.21420	-0.20514	29.6	13111	100
2025-3-27 20:20:2.179	WT901BLE68-01(48591DE3C19B)	-0.248	-0.247	0.142	-25.391	-83.618	126.160	-79.68	16.79	-20.66	-43.316	-28.616	86.142	0.75040	-0.59064	0.21420	-0.20514	29.6	13111	100
2025-3-27 20:20:2.208	WT901BLE68-01(48591DE3C19B)	-0.248	-0.545	0.147	-30.151	-101.013	127.747	-79.58	18.04	-19.32	-43.316	-28.616	86.142	0.75040	-0.59064	0.21420	-0.20514	29.6	13111	100
2025-3-27 20:20:2.208	WT901BLE68-01(48591DE3C19B)	-0.340	-0.545	0.147	-30.151	-101.013	127.747	-79.44	19.26	-17.89	-43.316	-28.616	86.142	0.75040	-0.59064	0.21420	-0.20514	29.6	13111	100
2025-3-27 20:20:2.208	WT901BLE68-01(48591DE3C19B)	-0.340	-0.982	0.119	-36.926	-110.840	116.943	-79.29	20.41	-16.42	-43.316	-28.616	86.142	0.75040	-0.59064	0.21420	-0.20514	29.6	13111	100
2025-3-27 20:20:2.209	WT901BLE68-01(48591DE3C19B)	-0.556	-0.982	0.119	-36.926	-110.840	116.943	-79.13	21.46	-14.93	-43.316	-28.616	86.142	0.75040	-0.59064	0.21420	-0.20514	29.6	13111	100
2025-3-27 20:20:2.332	WT901BLE68-01(48591DE3C19B)	-0.556	-1.829	0.083	-48.279	-129.639	97.290	-78.98	22.36	-13.36	-43.316	-28.616	86.142	0.75040	-0.59064	0.21420	-0.20514	29.6	13111	100
2025-3-27 20:20:2.332	WT901BLE68-01(48591DE3C19B)	-0.576	-1.829	0.083	-48.279	-129.639	97.290	-78.85	23.11	-11.74	-43.316	-28.616	86.142	0.75040	-0.59064	0.21420	-0.20514	29.6	13111	100
2025-3-27 20:20:2.332	WT901BLE68-01(48591DE3C19B)	-0.576	-2.795	0.042	-24.475	-141.052	79.163	-78.57	23.74	-10.10	-43.316	-28.616	86.142	0.75040	-0.59064	0.21420	-0.20514	29.6	13111	100
2025-3-27 20:20:2.332	WT901BLE68-01(48591DE3C19B)	-0.410	-2.795	0.042	-24.475	-141.052	79.163	-78.15	24.23	-8.42	-43.316	-28.616	86.142	0.75040	-0.59064	0.21420	-0.20514	29.6	13111	100
2025-3-27 20:20:2.333	WT901BLE68-01(48591DE3C19B)	-0.410	-2.658	0.033	46.570	-114.441	77.026	-77.44	24.70	-6.90	-43.316	-28.616	86.142	0.75040	-0.59064	0.21420	-0.20514	29.6	13111	100
2025-3-27 20:20:2.333	WT901BLE68-01(48591DE3C19B)	-0.058	-2.658	0.033	46.570	-114.441	77.026	-76.42	25.16	-5.54	-43.316	-28.616	86.142	0.75040	-0.59064	0.21420	-0.20514	29.6	13111	100
2025-3-27 20:20:2.333	WT901BLE68-01(48591DE3C19B)	-0.058	-2.112	-0.028	46.082	-49.866	73.486	-75.56	25.65	-4.53	-43.316	-28.616	86.142	0.75040	-0.59064	0.21420	-0.20514	29.6	13111	100
2025-3-27 20:20:2.333	WT901BLE68-01(48591DE3C19B)	0.258	-2.112	-0.028	46.082	-49.866	73.486	-74.86	26.17	-3.87	-43.316	-28.616	86.142	0.75040	-0.59064	0.21420	-0.20514	29.6	13111	100
2025-3-27 20:20:2.333	WT901BLE68-01(48591DE3C19B)	0.258	-1.837	-0.042	59.998	37.109	80.139	-74.28	26.83	-3.67	-43.316	-28.616	86.142	0.75040	-0.59064	0.21420	-0.20514	29.6	13111	100
2025-3-27 20:20:2.333	WT901BLE68-01(48591DE3C19B)	0.507	-1.837	-0.042	59.998	37.109	80.139	-73.85	27.61	-3.93	-43.316	-28.616	86.142	0.75040	-0.59064	0.21420	-0.20514	29.6	13111	100
2025-3-27 20:20:2.333	WT901BLE68-01(48591DE3C19B)	0.507	-1.244	0.007	58.228	106.262	96.313	-73.60	28.56	-4.55	-43.316	-28.616	86.142	0.75040	-0.59064	0.21420	-0.20514	29.6	13111	100
2025-3-27 20:20:2.334	WT901BLE68-01(48591DE3C19B)	0.405	-1.244	0.007	58.228	106.262	96.313	-73.55	29.66	-5.54	-43.316	-28.616	86.142	0.75040	-0.59064	0.21420	-0.20514	29.6	13111	100
2025-3-27 20:20:2.361	WT901BLE68-01(48591DE3C19B)	0.405	-0.855	0.084	32.532	98.572	87.952	-73.64	30.69	-6.50	-43.316	-28.616	86.142	0.75040	-0.59064	0.21420	-0.20514	29.6	13111	100
2025-3-27 20:20:2.361	WT901BLE68-01(48591DE3C19B)	0.206	-0.855	0.084	32.532	98.572	87.952	-73.86	31.65	-7.46	-43.316	-28.616	86.142	0.75040	-0.59064	0.21420	-0.20514	29.6	13111	100
2025-3-27 20:20:2.361	WT901BLE68-01(48591DE3C19B)	0.206	-0.807	0.137	13.977	51.086	68.054	-74.07	32.44	-8.20	-43.316	-28.616	86.142	0.77652	-0.56088	0.26373	0.11298	29.6	13111	100
2025-3-27 20:20:2.361	WT901BLE68-01(48591DE3C19B)	0.158	-0.807	0.137	13.977	51.086	68.054	-74.25	33.05	-8.71	-43.316	-28.616	86.142	0.77652	-0.56088	0.26373	0.11298	29.6	13111	100
2025-3-27 20:20:2.420	WT901BLE68-01(48591DE3C19B)	0.158	-0.771	0.118	7.690	26.794	49.438	-74.38	33.41	-9.00	-43.316	-28.616	86.142	0.77652	-0.56088	0.26373	0.11298	29.6	13111	100
2025-3-27 20:20:2.420	WT901BLE68-01(48591DE3C19B)	0.057	-0.771	0.118	7.690	26.794	49.438	-74.50	33.77	-9.31	-43.316	-28.616	86.142	0.77652	-0.56088	0.26373	0.11298	29.6	13111	100
2025-3-27 20:20:2.420	WT901BLE68-01(48591DE3C19B)	0.057	-0.712	0.023	5.920	33.752	30.823	-74.73	33.95	-9.75	-43.316	-28.616	86.142	0.77652	-0.56088	0.26373	0.11298	29.6	13111	100
2025-3-27 20:20:2.420	WT901BLE68-01(48591DE3C19B)	-0.051	-0.712	0.023	5.920	33.752	30.823	-74.95	34.14	-10.20	-43.316	-28.616	86.142	0.77652	-0.56088	0.26373	0.11298	29.6	13111	100
2025-3-27 20:20:2.448	WT901BLE68-01(48591DE3C19B)	-0.051	-0.649	0.001	4.761	20.752	1.465	-75.16	34.01	-10.58	-43.316	-28.616	86.142	0.77652	-0.56088	0.26373	0.11298	29.6	13111	100
2025-3-27 20:20:2.449	WT901BLE68-01(48591DE3C19B)	0.102	-0.649	0.001	4.761	20.752	1.465	-75.36	33.88	-10.96	-43.316	-28.616	86.142	0.77652	-0.56088	0.26373	0.11298	29.6	13111	100
2025-3-27 20:20:2.449	WT901BLE68-01(48591DE3C19B)	0.102	-0.517	0.047	4.517	-7.202	-19.348	-75.42	33.48	-11.08	-43.316	-28.616	86.142	0.77652	-0.56088	0.26373	0.11298	29.6	13111	100
2025-3-27 20:20:2.449	WT901BLE68-01(48591DE3C19B)	0.229	-0.517	0.047	4.517	-7.202	-19.348	-75.48	33.08	-11.20	-43.316	-28.616	86.142	0.77652	-0.56088	0.26373	0.11298	29.6	13111	100
2025-3-27 20:20:2.480	WT901BLE68-01(48591DE3C19B)	0.229	-0.433	0.101	8.362	-8.179	-35.767	-75.51	32.51	-11.35	-43.316	-28.616	86.142	0.77652	-0.56088	0.26373	0.11298	29.6	13111	100
2025-3-27 20:20:2.480	WT901BLE68-01(48591DE3C19B)	0.171	-0.433	0.101	8.362	-8.179	-35.767	-75.54	31.94	-11.52	-43.316	-28.616	86.142	0.77652	-0.56088	0.26373	0.11298	29.6	13111	100
2025-3-27 20:20:2.480	WT901BLE68-01(48591DE3C19B)	0.171	-0.418	0.119	13.916	17.273	-51.270	-75.70	31.28	-12.01	-43.316	-28.616	86.142	0.77652	-0.56088	0.26373	0.11298	29.6	13111	100
2025-3-27 20:20:2.480	WT901BLE68-01(48591DE3C19B)	0.088	-0.418	0.119	13.916	17.273	-51.270	-75.83	30.62	-12.50	-43.316	-28.616	86.142	0.77652	-0.56088	0.26373	0.11298	29.6	13111	100
2025-3-27 20:20:2.542	WT901BLE68-01(48591DE3C19B)	0.088	-0.526	0.059	11.963	51.025	-65.369	-76.19	29.90	-13.40	-43.316	-28.616	86.142	0.77652	-0.56088	0.26373	0.11298	29.6	13111	100
2025-3-27 20:20:2.542	WT901BLE68-01(48591DE3C19B)	-0.033	-0.526	0.059	11.963	51.025	-65.369	-76.53	29.19	-14.28	-43.316	-28.616	86.142	0.77652	-0.56088	0.26373	0.11298	29.6	13111	100
2025-3-27 20:20:2.542	WT901BLE68-01(48591DE3C19B)	-0.033	-0.747	0.039	12.085	77.026	-77.271	-77.00	28.41	-15.46	-43.316	-28.616	86.142	0.77652	-0.56088	0.26373	0.11298	29.6	13111	100
2025-3-27 20:20:2.542	WT901BLE68-01(48591DE3C19B)	-0.227	-0.747	0.039	12.085	77.026	-77.271	-77.45	27.64	-16.62	-43.316	-28.616	86.142	0.77652	-0.56088	0.26373	0.11298	29.6	13111	100
2025-3-27 20:20:2.572	WT901BLE68-01(48591DE3C19B)	-0.227	-1.038	-0.007	0.671	92.285	-92.041	-78.09	26.76	-17.95	-43.316	-28.616	86.142	0.77652	-0.56088	0.26373	0.11298	29.6	13111	100
2025-3-27 20:20:2.572	WT901BLE68-01(48591DE3C19B)	-0.547	-1.038	-0.007	0.671	92.285	-92.041	-78.68	25.88	-19.24	-43.316	-28.616	86.142	0.77652	-0.56088	0.26373	0.11298	29.6	13111	100
2025-3-27 20:20:2.572	WT901BLE68-01(48591DE3C19B)	-0.547	-1.828	-0.012	-16.785	86.609	-130.310	-79.43	24.63	-20.51	-43.316	-28.616	86.142	0.77652	-0.56088	0.26373	0.11298	29.6	13111	100
2025-3-27 20:20:2.572	WT901BLE68-01(48591DE3C19B)	-0.871	-1.828	-0.012	-16.785	86.609	-130.310	-80.13	23.39	-21.74	-42.826	-37.828	81.536	0.77652	-0.56088	0.26373	0.11298	29.6	13111	100
2025-3-27 20:20:2.629	WT901BLE68-01(48591DE3C19B)	-0.871	-2.811	0.098	-13.672	77.393	-167.419	-80.75	21.78	-22.88	-42.826	-37.828	81.536	0.77652	-0.56088	0.26373	0.11298	29.6	13111	100
2025-3-27 20:20:2.629	WT901BLE68-01(48591DE3C19B)	-1.228	-2.811	0.098	-13.672	77.393	-167.419	-81.32	20.19	-23.99	-42.826	-37.828	81.536	0.77652	-0.56088	0.26373	0.11298	29.6	13111	100
2025-3-27 20:20:2.629	WT901BLE68-01(48591DE3C19B)	-1.228	-2.231	0.475	50.171	75.012	-173.401	-81.21	18.54	-25.04	-42.826	-37.828	81.536	0.77652	-0.56088	0.26373	0.11298	29.6	13111	100
2025-3-27 20:20:2.629	WT901BLE68-01(48591DE3C19B)	-1.072	-2.231	0.475	50.171	75.012	-173.401	-81.05	16.94	-26.08	-42.826	-37.828	81.536	0.77652	-0.56088	0.26373	0.11298	29.6	13111	100
2025-3-27 20:20:2.661	WT901BLE68-01(48591DE3C19B)	-1.072	-1.271	0.510	26.367	109.619	-166.016	-81.19	15.47	-27.43	-42.826	-37.828	81.536	0.77652	-0.56088	0.26373	0.11298	29.6	13111	100
2025-3-27 20:20:2.662	WT901BLE68-01(48591DE3C19B)	-0.873	-1.271	0.510	26.367	109.619	-166.016	-81.29	14.03	-28.76	-42.826	-37.828	81.536	0.77652	-0.56088	0.26373	0.11298	29.6	13111	100
2025-3-27 20:20:2.662	WT901BLE68-01(48591DE3C19B)	-0.873	-1.037	0.361	14.709	146.973	-128.540	-81.55	13.03	-30.38	-42.826	-37.828	81.536	0.77652	-0.56088	0.26373	0.11298	29.6	13111	100
2025-3-27 20:20:2.662	WT901BLE68-01(48591DE3C19B)	-0.787	-1.037	0.361	14.709	146.973	-128.540	-81.77	12.04	-31.98	-42.826	-37.828	81.536	0.77652	-0.56088	0.26373	0.11298	29.6	13111	100
2025-3-27 20:20:2.690	WT901BLE68-01(48591DE3C19B)	-0.787	-0.771	0.345	18.616	119.141	-98.145	-81.85	11.31	-33.23	-42.826	-37.828	81.536	0.77652	-0.56088	0.26373	0.11298	29.6	13111	100
2025-3-27 20:20:2.690	WT901BLE68-01(48591DE3C19B)	-0.842	-0.771	0.345	18.616	119.141	-98.145	-81.91	10.60	-34.48	-42.826	-37.828	81.536	0.77652	-0.56088	0.26373	0.11298	29.6	13111	100
2025-3-27 20:20:2.690	WT901BLE68-01(48591DE3C19B)	-0.842	-0.433	0.388	-0.122	32.104	-58.105	-81.99	10.18	-34.77	-42.826	-37.828	81.536	0.77652	-0.56088	0.26373	0.11298	29.6	13111	100
2025-3-27 20:20:2.691	WT901BLE68-01(48591DE3C19B)	-0.786	-0.433	0.388	-0.122	32.104	-58.105	-82.05	9.77	-35.05	-42.826	-37.828	81.536	0.77652	-0.56088	0.26373	0.11298	29.6	13111	100
2025-3-27 20:20:2.810	WT901BLE68-01(48591DE3C19B)	-0.786	-0.425	0.305	-27.283	-47.974	-30.518	-82.24	9.54	-34.49	-42.826	-37.828	81.536	0.77652	-0.56088	0.26373	0.11298	29.6	13111	100
2025-3-27 20:20:2.810	WT901BLE68-01(48591DE3C19B)	-0.720	-0.425	0.305	-27.283	-47.974	-30.518	-82.42	9.33	-33.91	-42.826	-37.828	81.536	0.77652	-0.56088	0.26373	0.11298	29.6	13111	100
2025-3-27 20:20:2.810	WT901BLE68-01(48591DE3C19B)	-0.720	-0.500	0.143	-26.062	-74.219	2.502	-82.55	9.42	-33.02	-42.826	-37.828	81.536	0.77652	-0.56088	0.26373	0.11298	29.6	13111	100
2025-3-27 20:20:2.810	WT901BLE68-01(48591DE3C19B)	-0.848	-0.500	0.143	-26.062	-74.219	2.502	-82.68	9.51	-32.14	-42.826	-37.828	81.536	0.77652	-0.56088	0.26373	0.11298	29.6	13111	100
2025-3-27 20:20:2.812	WT901BLE68-01(48591DE3C19B)	-0.848	-0.500	0.105	-16.968	-58.228	12.878	-82.75	9.74	-31.39	-42.826	-37.828	81.536	0.77652	-0.56088	0.26373	0.11298	29.6	13111	100
2025-3-27 20:20:2.812	WT901BLE68-01(48591DE3C19B)	-0.893	-0.500	0.105	-16.968	-58.228	12.878	-82.81	9.99	-30.65	-42.826	-37.828	81.536	0.77652	-0.56088	0.26373	0.11298	29.6	13111	100
2025-3-27 20:20:2.812	WT901BLE68-01(48591DE3C19B)	-0.893	-0.469	0.194	-15.503	-60.669	16.418	-82.86	10.27	-29.86	-42.826	-37.828	81.536	0.77652	-0.56088	0.26373	0.11298	29.6	13111	100
2025-3-27 20:20:2.812	WT901BLE68-01(48591DE3C19B)	-0.841	-0.469	0.194	-15.503	-60.669	16.418	-82.91	10.56	-29.08	-42.826	-37.828	81.536	0.73825	-0.62112	0.23132	-0.12473	29.6	13111	100
2025-3-27 20:20:2.812	WT901BLE68-01(48591DE3C19B)	-0.841	-0.431	0.259	-9.644	-58.289	25.635	-82.90	10.95	-28.30	-42.826	-37.828	81.536	0.73825	-0.62112	0.23132	-0.12473	29.6	13111	100
2025-3-27 20:20:2.813	WT901BLE68-01(48591DE3C19B)	-0.732	-0.431	0.259	-9.644	-58.289	25.635	-82.89	11.34	-27.51	-42.826	-37.828	81.536	0.73825	-0.62112	0.23132	-0.12473	29.6	13111	100
2025-3-27 20:20:2.813	WT901BLE68-01(48591DE3C19B)	-0.732	-0.305	0.242	1.770	-52.063	44.434	-82.76	11.94	-26.75	-42.826	-37.828	81.536	0.73825	-0.62112	0.23132	-0.12473	29.6	13111	100
2025-3-27 20:20:2.813	WT901BLE68-01(48591DE3C19B)	-0.586	-0.305	0.242	1.770	-52.063	44.434	-82.62	12.54	-25.99	-42.826	-37.828	81.536	0.73825	-0.62112	0.23132	-0.12473	29.6	13111	100
2025-3-27 20:20:2.900	WT901BLE68-01(48591DE3C19B)	-0.463	-0.145	0.240	4.333	-53.162	63.416	-82.45	13.33	-25.19	-42.826	-37.828	81.536	0.73825	-0.62112	0.23132	-0.12473	29.6	13111	100
2025-3-27 20:20:2.900	WT901BLE68-01(48591DE3C19B)	-0.463	-0.067	0.263	-1.343	-54.626	85.144	-82.29	14.22	-24.34	-42.826	-37.828	81.536	0.73825	-0.62112	0.23132	-0.12473	29.6	13111	100
2025-3-27 20:20:2.900	WT901BLE68-01(48591DE3C19B)	-0.392	-0.067	0.263	-1.343	-54.626	85.144	-82.13	15.23	-23.47	-42.826	-37.828	81.536	0.73825	-0.62112	0.23132	-0.12473	29.6	13111	100
2025-3-27 20:20:2.901	WT901BLE68-01(48591DE3C19B)	-0.392	-0.252	0.228	-15.930	-56.274	98.267	-82.03	16.29	-22.56	-42.826	-37.828	81.536	0.73825	-0.62112	0.23132	-0.12473	29.6	13111	100
2025-3-27 20:20:2.902	WT901BLE68-01(48591DE3C19B)	-0.334	-0.252	0.228	-15.930	-56.274	98.267	-81.97	17.42	-21.63	-42.826	-37.828	81.536	0.73825	-0.62112	0.23132	-0.12473	29.6	13111	100
2025-3-27 20:20:2.902	WT901BLE68-01(48591DE3C19B)	-0.334	-0.606	0.171	-22.400	-59.937	105.164	-81.92	18.57	-20.68	-42.826	-37.828	81.536	0.73825	-0.62112	0.23132	-0.12473	29.6	13111	100
2025-3-27 20:20:2.902	WT901BLE68-01(48591DE3C19B)	-0.423	-0.606	0.171	-22.400	-59.937	105.164	-81.86	19.72	-19.70	-42.826	-37.828	81.536	0.73825	-0.62112	0.23132	-0.12473	29.6	13111	100
2025-3-27 20:20:2.902	WT901BLE68-01(48591DE3C19B)	-0.423	-1.149	0.216	-27.649	-65.796	105.225	-81.80	20.85	-18.72	-42.826	-37.828	81.536	0.73825	-0.62112	0.23132	-0.12473	29.6	13111	100
2025-3-27 20:20:2.931	WT901BLE68-01(48591DE3C19B)	-0.591	-1.149	0.216	-27.649	-65.796	105.225	-81.72	21.95	-17.72	-42.826	-37.828	81.536	0.73825	-0.62112	0.23132	-0.12473	29.6	13111	100
2025-3-27 20:20:2.931	WT901BLE68-01(48591DE3C19B)	-0.591	-2.205	0.062	-50.842	-81.238	84.290	-81.72	22.88	-16.67	-42.826	-37.828	81.536	0.73825	-0.62112	0.23132	-0.12473	29.6	13111	100
2025-3-27 20:20:2.931	WT901BLE68-01(48591DE3C19B)	-0.498	-2.205	0.062	-50.842	-81.238	84.290	-81.80	23.68	-15.60	-42.826	-37.828	81.536	0.73825	-0.62112	0.23132	-0.12473	29.6	13111	100
2025-3-27 20:20:2.931	WT901BLE68-01(48591DE3C19B)	-0.498	-3.181	-0.146	-6.775	-70.068	94.604	-81.68	24.49	-14.61	-42.826	-37.828	81.536	0.73825	-0.62112	0.23132	-0.12473	29.6	13111	100
2025-3-27 20:20:2.990	WT901BLE68-01(48591DE3C19B)	-0.429	-3.181	-0.146	-6.775	-70.068	94.604	-81.37	25.32	-13.70	-42.826	-37.828	81.536	0.73825	-0.62112	0.23132	-0.12473	29.6	13111	100
2025-3-27 20:20:2.991	WT901BLE68-01(48591DE3C19B)	-0.429	-2.235	0.029	69.519	-29.724	81.299	-80.78	26.09	-13.03	-44.198	-39.298	79.086	0.73825	-0.62112	0.23132	-0.12473	29.6	13111	100
2025-3-27 20:20:2.991	WT901BLE68-01(48591DE3C19B)	-0.147	-2.235	0.029	69.519	-29.724	81.299	-79.90	26.81	-12.58	-44.198	-39.298	79.086	0.73825	-0.62112	0.23132	-0.12473	29.6	13111	100
2025-3-27 20:20:2.991	WT901BLE68-01(48591DE3C19B)	-0.147	-1.778	0.065	44.373	9.583	90.454	-79.24	27.59	-12.35	-44.198	-39.298	79.086	0.73825	-0.62112	0.23132	-0.12473	29.6	13111	100
2025-3-27 20:20:3.19	WT901BLE68-01(48591DE3C19B)	0.150	-1.778	0.065	44.373	9.583	90.454	-78.81	28.43	-12.32	-44.198	-39.298	79.086	0.73825	-0.62112	0.23132	-0.12473	29.6	13111	100
2025-3-27 20:20:3.19	WT901BLE68-01(48591DE3C19B)	0.150	-1.470	0.124	50.842	52.063	95.154	-78.45	29.33	-12.52	-44.198	-39.298	79.086	0.73825	-0.62112	0.23132	-0.12473	29.6	13111	100
2025-3-27 20:20:3.19	WT901BLE68-01(48591DE3C19B)	0.457	-1.470	0.124	50.842	52.063	95.154	-78.19	30.27	-12.96	-44.198	-39.298	79.086	0.73825	-0.62112	0.23132	-0.12473	29.6	13111	100
2025-3-27 20:20:3.19	WT901BLE68-01(48591DE3C19B)	0.457	-0.978	0.170	41.321	87.830	97.046	-78.09	31.25	-13.61	-44.198	-39.298	79.086	0.73825	-0.62112	0.23132	-0.12473	29.6	13111	100
2025-3-27 20:20:3.49	WT901BLE68-01(48591DE3C19B)	0.341	-0.978	0.170	41.321	87.830	97.046	-78.15	32.25	-14.47	-44.198	-39.298	79.086	0.73825	-0.62112	0.23132	-0.12473	29.6	13111	100
2025-3-27 20:20:3.49	WT901BLE68-01(48591DE3C19B)	0.341	-0.739	0.237	31.494	111.633	78.918	-78.36	33.17	-15.52	-44.198	-39.298	79.086	0.73825	-0.62112	0.23132	-0.12473	29.6	13111	100
2025-3-27 20:20:3.49	WT901BLE68-01(48591DE3C19B)	0.035	-0.739	0.237	31.494	111.633	78.918	-78.73	34.00	-16.74	-44.198	-39.298	79.086	0.73825	-0.62112	0.23132	-0.12473	29.6	13111	100
2025-3-27 20:20:3.50	WT901BLE68-01(48591DE3C19B)	0.035	-0.678	0.205	20.325	99.365	54.565	-79.15	34.68	-17.94	-44.198	-39.298	79.086	0.73825	-0.62112	0.23132	-0.12473	29.6	13111	100
2025-3-27 20:20:3.110	WT901BLE68-01(48591DE3C19B)	-0.031	-0.678	0.205	20.325	99.365	54.565	-79.61	35.22	-19.10	-44.198	-39.298	79.086	0.73825	-0.62112	0.23132	-0.12473	29.6	13111	100
2025-3-27 20:20:3.110	WT901BLE68-01(48591DE3C19B)	-0.031	-0.608	0.158	18.188	102.051	41.748	-80.10	35.68	-20.30	-44.198	-39.298	79.086	0.73825	-0.62112	0.23132	-0.12473	29.6	13111	100
2025-3-27 20:20:3.110	WT901BLE68-01(48591DE3C19B)	-0.020	-0.608	0.158	18.188	102.051	41.748	-80.63	36.07	-21.54	-44.198	-39.298	79.086	0.73825	-0.62112	0.23132	-0.12473	29.6	13111	100
2025-3-27 20:20:3.110	WT901BLE68-01(48591DE3C19B)	-0.020	-0.522	0.055	15.442	113.953	29.297	-81.24	36.40	-22.87	-44.198	-39.298	79.086	0.73825	-0.62112	0.23132	-0.12473	29.6	13111	100
2025-3-27 20:20:3.141	WT901BLE68-01(48591DE3C19B)	-0.083	-0.522	0.055	15.442	113.953	29.297	-81.91	36.66	-24.29	-44.198	-39.298	79.086	0.73825	-0.62112	0.23132	-0.12473	29.6	13111	100
2025-3-27 20:20:3.141	WT901BLE68-01(48591DE3C19B)	-0.083	-0.458	0.009	14.160	99.609	14.954	-82.55	36.82	-25.63	-44.198	-39.298	79.086	0.73825	-0.62112	0.23132	-0.12473	29.6	13111	100
2025-3-27 20:20:3.141	WT901BLE68-01(48591DE3C19B)	-0.028	-0.458	0.009	14.160	99.609	14.954	-83.14	36.90	-26.89	-44.198	-39.298	79.086	0.73825	-0.62112	0.23132	-0.12473	29.6	13111	100
2025-3-27 20:20:3.142	WT901BLE68-01(48591DE3C19B)	-0.028	-0.350	0.005	13.733	61.035	11.414	-83.61	36.93	-27.91	-44.198	-39.298	79.086	0.73825	-0.62112	0.23132	-0.12473	29.6	13111	100
2025-3-27 20:20:3.200	WT901BLE68-01(48591DE3C19B)	-0.003	-0.350	0.005	13.733	61.035	11.414	-83.92	36.91	-28.70	-44.198	-39.298	79.086	0.73825	-0.62112	0.23132	-0.12473	29.6	13111	100
2025-3-27 20:20:3.200	WT901BLE68-01(48591DE3C19B)	-0.003	-0.248	0.046	11.230	28.320	9.521	-84.13	36.86	-29.27	-44.198	-39.298	79.086	0.73825	-0.62112	0.23132	-0.12473	29.6	13111	100
2025-3-27 20:20:3.200	WT901BLE68-01(48591DE3C19B)	-0.085	-0.248	0.046	11.230	28.320	9.521	-84.22	36.79	-29.64	-44.198	-39.298	79.086	0.73444	-0.55499	0.38977	0.02322	29.6	13111	100
2025-3-27 20:20:3.200	WT901BLE68-01(48591DE3C19B)	-0.085	-0.292	0.068	2.380	-0.061	4.822	-84.25	36.68	-29.84	-44.198	-39.298	79.086	0.73444	-0.55499	0.38977	0.02322	29.6	13111	100
2025-3-27 20:20:3.229	WT901BLE68-01(48591DE3C19B)	-0.231	-0.292	0.068	2.380	-0.061	4.822	-84.23	36.54	-29.87	-44.198	-39.298	79.086	0.73444	-0.55499	0.38977	0.02322	29.6	13111	100
2025-3-27 20:20:3.229	WT901BLE68-01(48591DE3C19B)	-0.231	-0.529	0.058	-4.761	-31.921	-10.681	-84.12	36.31	-29.70	-44.198	-39.298	79.086	0.73444	-0.55499	0.38977	0.02322	29.6	13111	100
2025-3-27 20:20:3.229	WT901BLE68-01(48591DE3C19B)	-0.369	-0.529	0.058	-4.761	-31.921	-10.681	-83.94	36.00	-29.34	-44.198	-39.298	79.086	0.73444	-0.55499	0.38977	0.02322	29.6	13111	100
2025-3-27 20:20:3.229	WT901BLE68-01(48591DE3C19B)	-0.369	-0.802	0.063	-4.089	-49.255	-30.212	-83.70	35.59	-28.90	-44.198	-39.298	79.086	0.73444	-0.55499	0.38977	0.02322	29.6	13111	100
2025-3-27 20:20:3.261	WT901BLE68-01(48591DE3C19B)	-0.479	-0.802	0.063	-4.089	-49.255	-30.212	-83.42	35.08	-28.36	-44.198	-39.298	79.086	0.73444	-0.55499	0.38977	0.02322	29.6	13111	100
2025-3-27 20:20:3.261	WT901BLE68-01(48591DE3C19B)	-0.479	-1.156	0.065	-0.854	-51.025	-56.763	-83.14	34.46	-27.83	-44.198	-39.298	79.086	0.73444	-0.55499	0.38977	0.02322	29.6	13111	100
2025-3-27 20:20:3.261	WT901BLE68-01(48591DE3C19B)	-0.534	-1.156	0.065	-0.854	-51.025	-56.763	-82.86	33.72	-27.31	-44.198	-39.298	79.086	0.73444	-0.55499	0.38977	0.02322	29.6	13111	100
2025-3-27 20:20:3.261	WT901BLE68-01(48591DE3C19B)	-0.534	-1.716	0.063	10.498	-38.513	-117.310	-82.61	32.70	-26.92	-44.198	-39.298	79.086	0.73444	-0.55499	0.38977	0.02322	29.6	13111	100
2025-3-27 20:20:3.290	WT901BLE68-01(48591DE3C19B)	-0.694	-1.716	0.063	10.498	-38.513	-117.310	-82.38	31.39	-26.66	-44.198	-39.298	79.086	0.73444	-0.55499	0.38977	0.02322	29.6	13111	100
2025-3-27 20:20:3.290	WT901BLE68-01(48591DE3C19B)	-0.694	-2.127	0.103	17.456	-7.935	-162.354	-82.24	29.89	-26.62	-44.198	-39.298	79.086	0.73444	-0.55499	0.38977	0.02322	29.6	13111	100
2025-3-27 20:20:3.290	WT901BLE68-01(48591DE3C19B)	-1.136	-2.127	0.103	17.456	-7.935	-162.354	-82.17	28.20	-26.78	-44.198	-39.298	79.086	0.73444	-0.55499	0.38977	0.02322	29.6	13111	100
2025-3-27 20:20:3.291	WT901BLE68-01(48591DE3C19B)	-1.136	-1.832	0.224	35.950	52.795	-182.678	-82.23	26.41	-27.64	-44.198	-39.298	79.086	0.73444	-0.55499	0.38977	0.02322	29.6	13111	100
2025-3-27 20:20:3.351	WT901BLE68-01(48591DE3C19B)	-1.068	-1.832	0.224	35.950	52.795	-182.678	-82.25	24.64	-28.47	-44.198	-39.298	79.086	0.73444	-0.55499	0.38977	0.02322	29.6	13111	100
2025-3-27 20:20:3.351	WT901BLE68-01(48591DE3C19B)	-1.068	-1.292	0.387	32.959	90.698	-172.791	-82.43	23.04	-29.67	-44.198	-39.298	79.086	0.73444	-0.55499	0.38977	0.02322	29.6	13111	100
2025-3-27 20:20:3.351	WT901BLE68-01(48591DE3C19B)	-0.831	-1.292	0.387	32.959	90.698	-172.791	-82.57	21.47	-30.83	-44.198	-39.298	79.086	0.73444	-0.55499	0.38977	0.02322	29.6	13111	100
2025-3-27 20:20:3.352	WT901BLE68-01(48591DE3C19B)	-0.831	-1.010	0.464	13.550	117.432	-158.813	-82.95	20.07	-32.22	-44.198	-39.298	79.086	0.73444	-0.55499	0.38977	0.02322	29.6	13111	100
2025-3-27 20:20:3.382	WT901BLE68-01(48591DE3C19B)	-0.811	-1.010	0.464	13.550	117.432	-158.813	-83.28	18.69	-33.57	-44.198	-39.298	79.086	0.73444	-0.55499	0.38977	0.02322	29.6	13111	100
2025-3-27 20:20:3.382	WT901BLE68-01(48591DE3C19B)	-0.811	-0.875	0.472	11.414	84.534	-131.897	-83.47	17.54	-34.53	-44.198	-39.298	79.086	0.73444	-0.55499	0.38977	0.02322	29.6	13111	100
2025-3-27 20:20:3.382	WT901BLE68-01(48591DE3C19B)	-0.950	-0.875	0.472	11.414	84.534	-131.897	-83.63	16.41	-35.46	-44.198	-39.298	79.086	0.73444	-0.55499	0.38977	0.02322	29.6	13111	100
2025-3-27 20:20:3.382	WT901BLE68-01(48591DE3C19B)	-0.950	-0.762	0.419	-7.385	-19.104	-105.408	-83.66	15.44	-35.28	-56.350	-37.142	82.418	0.73444	-0.55499	0.38977	0.02322	29.6	13111	100
2025-3-27 20:20:3.411	WT901BLE68-01(48591DE3C19B)	-0.793	-0.762	0.419	-7.385	-19.104	-105.408	-83.69	14.48	-35.08	-56.350	-37.142	82.418	0.73444	-0.55499	0.38977	0.02322	29.6	13111	100
2025-3-27 20:20:3.411	WT901BLE68-01(48591DE3C19B)	-0.793	-0.685	0.291	-27.039	-106.018	-77.271	-83.69	13.72	-33.97	-56.350	-37.142	82.418	0.73444	-0.55499	0.38977	0.02322	29.6	13111	100
2025-3-27 20:20:3.411	WT901BLE68-01(48591DE3C19B)	-0.695	-0.685	0.291	-27.039	-106.018	-77.271	-83.70	12.97	-32.86	-56.350	-37.142	82.418	0.73444	-0.55499	0.38977	0.02322	29.6	13111	100
2025-3-27 20:20:3.411	WT901BLE68-01(48591DE3C19B)	-0.695	-0.596	0.162	-26.672	-116.882	-49.622	-83.69	12.50	-31.61	-56.350	-37.142	82.418	0.73444	-0.55499	0.38977	0.02322	29.6	13111	100
2025-3-27 20:20:3.470	WT901BLE68-01(48591DE3C19B)	-0.685	-0.596	0.162	-26.672	-116.882	-49.622	-83.69	12.04	-30.36	-56.350	-37.142	82.418	0.73444	-0.55499	0.38977	0.02322	29.6	13111	100
2025-3-27 20:20:3.470	WT901BLE68-01(48591DE3C19B)	-0.685	-0.522	0.092	-25.574	-79.041	-33.386	-83.77	11.78	-29.47	-56.350	-37.142	82.418	0.73444	-0.55499	0.38977	0.02322	29.6	13111	100
2025-3-27 20:20:3.470	WT901BLE68-01(48591DE3C19B)	-0.705	-0.522	0.092	-25.574	-79.041	-33.386	-83.86	11.54	-28.59	-56.350	-37.142	82.418	0.73444	-0.55499	0.38977	0.02322	29.6	13111	100
2025-3-27 20:20:3.470	WT901BLE68-01(48591DE3C19B)	-0.705	-0.479	0.148	-22.095	-52.063	-12.512	-83.96	11.53	-27.94	-56.350	-37.142	82.418	0.73444	-0.55499	0.38977	0.02322	29.6	13111	100
2025-3-27 20:20:3.529	WT901BLE68-01(48591DE3C19B)	-0.653	-0.479	0.148	-22.095	-52.063	-12.512	-84.07	11.54	-27.30	-56.350	-37.142	82.418	0.73444	-0.55499	0.38977	0.02322	29.6	13111	100
2025-3-27 20:20:3.529	WT901BLE68-01(48591DE3C19B)	-0.653	-0.354	0.191	-16.541	-47.974	8.118	-84.13	11.76	-26.67	-56.350	-37.142	82.418	0.73444	-0.55499	0.38977	0.02322	29.6	13111	100
2025-3-27 20:20:3.529	WT901BLE68-01(48591DE3C19B)	-0.468	-0.354	0.191	-16.541	-47.974	8.118	-84.18	11.98	-26.04	-56.350	-37.142	82.418	0.73444	-0.55499	0.38977	0.02322	29.6	13111	100
2025-3-27 20:20:3.529	WT901BLE68-01(48591DE3C19B)	-0.468	-0.194	0.181	-13.367	-49.988	27.161	-84.19	12.40	-25.36	-56.350	-37.142	82.418	0.73444	-0.55499	0.38977	0.02322	29.6	13111	100
2025-3-27 20:20:3.530	WT901BLE68-01(48591DE3C19B)	-0.330	-0.194	0.181	-13.367	-49.988	27.161	-84.20	12.83	-24.67	-56.350	-37.142	82.418	0.73444	-0.55499	0.38977	0.02322	29.6	13111	100
2025-3-27 20:20:3.530	WT901BLE68-01(48591DE3C19B)	-0.330	-0.077	0.166	-11.658	-43.762	46.570	-84.19	13.46	-24.02	-56.350	-37.142	82.418	0.73444	-0.55499	0.38977	0.02322	29.6	13111	100
2025-3-27 20:20:3.530	WT901BLE68-01(48591DE3C19B)	-0.316	-0.077	0.166	-11.658	-43.762	46.570	-84.18	14.08	-23.36	-56.350	-37.142	82.418	0.73444	-0.55499	0.38977	0.02322	29.6	13111	100
2025-3-27 20:20:3.530	WT901BLE68-01(48591DE3C19B)	-0.316	-0.110	0.157	-15.747	-42.542	67.200	-84.19	14.92	-22.69	-56.350	-37.142	82.418	0.73444	-0.55499	0.38977	0.02322	29.6	13111	100
2025-3-27 20:20:3.650	WT901BLE68-01(48591DE3C19B)	-0.294	-0.110	0.157	-15.747	-42.542	67.200	-84.19	15.77	-22.01	-56.350	-37.142	82.418	0.73444	-0.55499	0.38977	0.02322	29.6	13111	100
2025-3-27 20:20:3.650	WT901BLE68-01(48591DE3C19B)	-0.294	-0.379	0.142	-23.560	-46.082	82.214	-84.25	16.74	-21.28	-56.350	-37.142	82.418	0.73444	-0.55499	0.38977	0.02322	29.6	13111	100
2025-3-27 20:20:3.650	WT901BLE68-01(48591DE3C19B)	-0.284	-0.379	0.142	-23.560	-46.082	82.214	-84.29	17.71	-20.55	-56.350	-37.142	82.418	0.73444	-0.55499	0.38977	0.02322	29.6	13111	100
2025-3-27 20:20:3.650	WT901BLE68-01(48591DE3C19B)	-0.284	-0.779	0.106	-26.062	-44.128	88.440	-84.34	18.72	-19.85	-56.350	-37.142	82.418	0.73444	-0.55499	0.38977	0.02322	29.6	13111	100
2025-3-27 20:20:3.651	WT901BLE68-01(48591DE3C19B)	-0.313	-0.779	0.106	-26.062	-44.128	88.440	-84.37	19.70	-19.18	-56.350	-37.142	82.418	0.73892	-0.63126	0.23520	-0.00827	29.6	13111	100
2025-3-27 20:20:3.651	WT901BLE68-01(48591DE3C19B)	-0.313	-1.370	0.041	-33.020	-41.382	82.642	-84.48	20.60	-18.57	-56.350	-37.142	82.418	0.73892	-0.63126	0.23520	-0.00827	29.6	13111	100
2025-3-27 20:20:3.651	WT901BLE68-01(48591DE3C19B)	-0.468	-1.370	0.041	-33.020	-41.382	82.642	-84.59	21.46	-17.98	-56.350	-37.142	82.418	0.73892	-0.63126	0.23520	-0.00827	29.6	13111	100
2025-3-27 20:20:3.651	WT901BLE68-01(48591DE3C19B)	-0.468	-2.518	-0.078	-34.302	-37.415	63.354	-84.74	22.09	-17.50	-56.350	-37.142	82.418	0.73892	-0.63126	0.23520	-0.00827	29.6	13111	100
2025-3-27 20:20:3.652	WT901BLE68-01(48591DE3C19B)	-0.667	-2.518	-0.078	-34.302	-37.415	63.354	-84.89	22.70	-17.03	-56.350	-37.142	82.418	0.73892	-0.63126	0.23520	-0.00827	29.6	13111	100
2025-3-27 20:20:3.652	WT901BLE68-01(48591DE3C19B)	-0.667	-3.271	-0.047	14.343	-45.227	69.031	-84.54	23.34	-16.50	-56.350	-37.142	82.418	0.73892	-0.63126	0.23520	-0.00827	29.6	13111	100
2025-3-27 20:20:3.652	WT901BLE68-01(48591DE3C19B)	-0.419	-3.271	-0.047	14.343	-45.227	69.031	-84.18	23.96	-15.97	-56.350	-37.142	82.418	0.73892	-0.63126	0.23520	-0.00827	29.6	13111	100
2025-3-27 20:20:3.652	WT901BLE68-01(48591DE3C19B)	-0.419	-2.050	0.110	57.312	-46.631	52.551	-83.40	24.39	-15.45	-56.350	-37.142	82.418	0.73892	-0.63126	0.23520	-0.00827	29.6	13111	100
2025-3-27 20:20:3.710	WT901BLE68-01(48591DE3C19B)	0.125	-2.050	0.110	57.312	-46.631	52.551	-82.61	24.81	-14.92	-56.350	-37.142	82.418	0.73892	-0.63126	0.23520	-0.00827	29.6	13111	100
2025-3-27 20:20:3.710	WT901BLE68-01(48591DE3C19B)	0.125	-1.612	0.067	37.537	-16.235	60.120	-82.16	25.33	-14.71	-56.350	-37.142	82.418	0.73892	-0.63126	0.23520	-0.00827	29.6	13111	100
2025-3-27 20:20:3.710	WT901BLE68-01(48591DE3C19B)	0.423	-1.612	0.067	37.537	-16.235	60.120	-81.71	25.83	-14.51	-56.350	-37.142	82.418	0.73892	-0.63126	0.23520	-0.00827	29.6	13111	100
2025-3-27 20:20:3.710	WT901BLE68-01(48591DE3C19B)	0.423	-1.167	0.064	42.603	27.283	65.125	-81.41	26.43	-14.79	-56.350	-37.142	82.418	0.73892	-0.63126	0.23520	-0.00827	29.6	13111	100
2025-3-27 20:20:3.741	WT901BLE68-01(48591DE3C19B)	0.456	-1.167	0.064	42.603	27.283	65.125	-81.12	27.01	-15.07	-56.350	-37.142	82.418	0.73892	-0.63126	0.23520	-0.00827	29.6	13111	100
2025-3-27 20:20:3.741	WT901BLE68-01(48591DE3C19B)	0.456	-0.706	0.126	31.189	54.382	58.838	-81.10	27.55	-15.67	-56.350	-37.142	82.418	0.73892	-0.63126	0.23520	-0.00827	29.6	13111	100
2025-3-27 20:20:3.741	WT901BLE68-01(48591DE3C19B)	0.170	-0.706	0.126	31.189	54.382	58.838	-81.08	28.09	-16.28	-56.350	-37.142	82.418	0.73892	-0.63126	0.23520	-0.00827	29.6	13111	100
2025-3-27 20:20:3.741	WT901BLE68-01(48591DE3C19B)	0.014	-0.589	0.169	13.062	51.025	33.203	-81.24	28.35	-16.90	-56.350	-37.142	82.418	0.73892	-0.63126	0.23520	-0.00827	29.6	13111	100
2025-3-27 20:20:3.800	WT901BLE68-01(48591DE3C19B)	0.014	-0.590	0.205	6.470	34.912	13.977	-81.40	28.49	-17.45	-56.350	-37.142	82.418	0.73892	-0.63126	0.23520	-0.00827	29.6	13111	100
2025-3-27 20:20:3.800	WT901BLE68-01(48591DE3C19B)	0.031	-0.590	0.205	6.470	34.912	13.977	-81.56	28.53	-17.92	-56.350	-37.142	82.418	0.73892	-0.63126	0.23520	-0.00827	29.6	13111	100
2025-3-27 20:20:3.800	WT901BLE68-01(48591DE3C19B)	0.031	-0.512	0.143	9.827	38.635	6.958	-81.71	28.53	-18.42	-52.430	-42.238	81.830	0.73892	-0.63126	0.23520	-0.00827	29.6	13111	100
2025-3-27 20:20:3.800	WT901BLE68-01(48591DE3C19B)	0.037	-0.512	0.143	9.827	38.635	6.958	-81.84	28.50	-18.95	-52.430	-42.238	81.830	0.73892	-0.63126	0.23520	-0.00827	29.6	13111	100
2025-3-27 20:20:3.828	WT901BLE68-01(48591DE3C19B)	0.037	-0.416	0.030	17.822	39.063	0.061	-81.94	28.43	-19.48	-52.430	-42.238	81.830	0.73892	-0.63126	0.23520	-0.00827	29.6	13111	100
2025-3-27 20:20:3.829	WT901BLE68-01(48591DE3C19B)	0.105	-0.416	0.030	17.822	39.063	0.061	-82.01	28.33	-20.02	-52.430	-42.238	81.830	0.73892	-0.63126	0.23520	-0.00827	29.6	13111	100
2025-3-27 20:20:3.829	WT901BLE68-01(48591DE3C19B)	0.105	-0.264	-0.022	21.057	19.165	-5.066	-82.00	28.18	-20.45	-52.430	-42.238	81.830	0.73892	-0.63126	0.23520	-0.00827	29.6	13111	100
2025-3-27 20:20:3.829	WT901BLE68-01(48591DE3C19B)	0.180	-0.264	-0.022	21.057	19.165	-5.066	-81.93	27.99	-20.76	-52.430	-42.238	81.830	0.73892	-0.63126	0.23520	-0.00827	29.6	13111	100
2025-3-27 20:20:3.951	WT901BLE68-01(48591DE3C19B)	0.180	-0.193	0.014	15.076	11.353	-9.644	-81.88	27.77	-21.04	-52.430	-42.238	81.830	0.73892	-0.63126	0.23520	-0.00827	29.6	13111	100
2025-3-27 20:20:3.952	WT901BLE68-01(48591DE3C19B)	0.091	-0.193	0.014	15.076	11.353	-9.644	-81.83	27.52	-21.29	-52.430	-42.238	81.830	0.73892	-0.63126	0.23520	-0.00827	29.6	13111	100
2025-3-27 20:20:3.952	WT901BLE68-01(48591DE3C19B)	0.091	-0.356	0.046	8.850	22.461	-17.456	-81.85	27.23	-21.60	-52.430	-42.238	81.830	0.73892	-0.63126	0.23520	-0.00827	29.6	13111	100
2025-3-27 20:20:3.952	WT901BLE68-01(48591DE3C19B)	-0.053	-0.356	0.046	8.850	22.461	-17.456	-81.93	26.91	-21.98	-52.430	-42.238	81.830	0.73892	-0.63126	0.23520	-0.00827	29.6	13111	100
2025-3-27 20:20:3.952	WT901BLE68-01(48591DE3C19B)	-0.053	-0.574	0.065	11.963	26.733	-23.438	-82.00	26.56	-22.38	-52.430	-42.238	81.830	0.73892	-0.63126	0.23520	-0.00827	29.6	13111	100
2025-3-27 20:20:3.952	WT901BLE68-01(48591DE3C19B)	-0.211	-0.574	0.065	11.963	26.733	-23.438	-82.06	26.19	-22.81	-52.430	-42.238	81.830	0.73892	-0.63126	0.23520	-0.00827	29.6	13111	100
2025-3-27 20:20:3.952	WT901BLE68-01(48591DE3C19B)	-0.211	-0.791	0.048	6.104	24.780	-32.471	-82.15	25.78	-23.23	-52.430	-42.238	81.830	0.73892	-0.63126	0.23520	-0.00827	29.6	13111	100
2025-3-27 20:20:3.953	WT901BLE68-01(48591DE3C19B)	-0.357	-0.791	0.048	6.104	24.780	-32.471	-82.26	25.35	-23.63	-52.430	-42.238	81.830	0.73892	-0.63126	0.23520	-0.00827	29.6	13111	100
2025-3-27 20:20:3.953	WT901BLE68-01(48591DE3C19B)	-0.357	-1.275	-0.017	-9.216	32.043	-61.951	-82.46	24.78	-24.08	-52.430	-42.238	81.830	0.73892	-0.63126	0.23520	-0.00827	29.6	13111	100
2025-3-27 20:20:3.953	WT901BLE68-01(48591DE3C19B)	-0.588	-1.275	-0.017	-9.216	32.043	-61.951	-82.77	24.09	-24.58	-52.430	-42.238	81.830	0.73892	-0.63126	0.23520	-0.00827	29.6	13111	100
2025-3-27 20:20:3.953	WT901BLE68-01(48591DE3C19B)	-0.588	-2.246	-0.011	-5.127	43.152	-130.188	-83.08	23.08	-25.16	-52.430	-42.238	81.830	0.73892	-0.63126	0.23520	-0.00827	29.6	13111	100
2025-3-27 20:20:3.953	WT901BLE68-01(48591DE3C19B)	-1.126	-2.246	-0.011	-5.127	43.152	-130.188	-83.41	21.76	-25.83	-52.430	-42.238	81.830	0.73892	-0.63126	0.23520	-0.00827	29.6	13111	100
2025-3-27 20:20:4.10	WT901BLE68-01(48591DE3C19B)	-1.126	-3.027	0.283	24.841	31.006	-166.565	-83.55	20.26	-26.43	-52.430	-42.238	81.830	0.73892	-0.63126	0.23520	-0.00827	29.6	13111	100
2025-3-27 20:20:4.10	WT901BLE68-01(48591DE3C19B)	-1.501	-3.027	0.283	24.841	31.006	-166.565	-83.49	18.61	-26.97	-52.430	-42.238	81.830	0.73892	-0.63126	0.23520	-0.00827	29.6	13111	100
2025-3-27 20:20:4.10	WT901BLE68-01(48591DE3C19B)	-1.501	-1.758	0.629	59.387	36.865	-193.787	-83.26	16.84	-27.54	-52.430	-42.238	81.830	0.73892	-0.63126	0.23520	-0.00827	29.6	13111	100
2025-3-27 20:20:4.10	WT901BLE68-01(48591DE3C19B)	-1.000	-1.758	0.629	59.387	36.865	-193.787	-82.85	14.98	-28.15	-52.430	-42.238	81.830	0.74203	-0.61249	0.25436	-0.09711	29.6	13111	100
2025-3-27 20:20:4.69	WT901BLE68-01(48591DE3C19B)	-1.000	-1.040	0.685	36.377	90.027	-155.823	-82.58	13.38	-29.00	-52.430	-42.238	81.830	0.74203	-0.61249	0.25436	-0.09711	29.6	13111	100
2025-3-27 20:20:4.69	WT901BLE68-01(48591DE3C19B)	-0.650	-1.040	0.685	36.377	90.027	-155.823	-82.45	12.01	-30.08	-52.430	-42.238	81.830	0.74203	-0.61249	0.25436	-0.09711	29.6	13111	100
2025-3-27 20:20:4.70	WT901BLE68-01(48591DE3C19B)	-0.650	-0.848	0.485	21.545	124.084	-113.892	-82.40	10.90	-31.28	-52.430	-42.238	81.830	0.74203	-0.61249	0.25436	-0.09711	29.6	13111	100
2025-3-27 20:20:4.70	WT901BLE68-01(48591DE3C19B)	-0.609	-0.848	0.485	21.545	124.084	-113.892	-82.41	10.03	-32.62	-52.430	-42.238	81.830	0.74203	-0.61249	0.25436	-0.09711	29.6	13111	100
2025-3-27 20:20:4.71	WT901BLE68-01(48591DE3C19B)	-0.609	-0.531	0.426	20.264	86.487	-62.317	-82.38	9.40	-33.73	-52.430	-42.238	81.830	0.74203	-0.61249	0.25436	-0.09711	29.6	13111	100
2025-3-27 20:20:4.71	WT901BLE68-01(48591DE3C19B)	-0.857	-0.531	0.426	20.264	86.487	-62.317	-82.30	9.01	-34.60	-52.430	-42.238	81.830	0.74203	-0.61249	0.25436	-0.09711	29.6	13111	100
2025-3-27 20:20:4.71	WT901BLE68-01(48591DE3C19B)	-0.857	-0.449	0.338	-20.081	-5.615	-17.639	-82.34	8.79	-34.96	-52.430	-42.238	81.830	0.74203	-0.61249	0.25436	-0.09711	29.6	13111	100
2025-3-27 20:20:4.71	WT901BLE68-01(48591DE3C19B)	-0.757	-0.449	0.338	-20.081	-5.615	-17.639	-82.50	8.75	-34.83	-52.430	-42.238	81.830	0.74203	-0.61249	0.25436	-0.09711	29.6	13111	100
2025-3-27 20:20:4.101	WT901BLE68-01(48591DE3C19B)	-0.757	-0.623	0.218	-43.884	-80.688	24.353	-82.72	8.88	-34.28	-52.430	-42.238	81.830	0.74203	-0.61249	0.25436	-0.09711	29.6	13111	100
2025-3-27 20:20:4.101	WT901BLE68-01(48591DE3C19B)	-0.704	-0.623	0.218	-43.884	-80.688	24.353	-83.00	9.18	-33.33	-52.430	-42.238	81.830	0.74203	-0.61249	0.25436	-0.09711	29.6	13111	100
2025-3-27 20:20:4.102	WT901BLE68-01(48591DE3C19B)	-0.704	-0.678	0.090	-31.555	-72.815	41.565	-83.21	9.57	-32.40	-52.430	-42.238	81.830	0.74203	-0.61249	0.25436	-0.09711	29.6	13111	100
2025-3-27 20:20:4.102	WT901BLE68-01(48591DE3C19B)	-0.553	-0.678	0.090	-31.555	-72.815	41.565	-83.36	10.06	-31.50	-52.430	-42.238	81.830	0.74203	-0.61249	0.25436	-0.09711	29.6	13111	100
2025-3-27 20:20:4.161	WT901BLE68-01(48591DE3C19B)	-0.553	-0.531	0.084	-19.836	-47.302	44.983	-83.48	10.59	-30.73	-52.430	-42.238	81.830	0.74203	-0.61249	0.25436	-0.09711	29.6	13111	100
2025-3-27 20:20:4.161	WT901BLE68-01(48591DE3C19B)	-0.371	-0.531	0.084	-19.836	-47.302	44.983	-83.56	11.15	-30.09	-52.430	-42.238	81.830	0.74203	-0.61249	0.25436	-0.09711	29.6	13111	100
2025-3-27 20:20:4.161	WT901BLE68-01(48591DE3C19B)	-0.371	-0.305	0.144	-16.052	-13.855	55.908	-83.64	11.78	-29.61	-52.430	-42.238	81.830	0.74203	-0.61249	0.25436	-0.09711	29.6	13111	100
2025-3-27 20:20:4.161	WT901BLE68-01(48591DE3C19B)	-0.406	-0.305	0.144	-16.052	-13.855	55.908	-83.74	12.49	-29.28	-52.430	-42.238	81.830	0.74203	-0.61249	0.25436	-0.09711	29.6	13111	100
2025-3-27 20:20:4.192	WT901BLE68-01(48591DE3C19B)	-0.406	-0.110	0.154	-7.935	19.592	64.453	-83.83	13.25	-29.12	-52.430	-42.238	81.830	0.74203	-0.61249	0.25436	-0.09711	29.6	13111	100
2025-3-27 20:20:4.192	WT901BLE68-01(48591DE3C19B)	-0.468	-0.110	0.154	-7.935	19.592	64.453	-83.91	14.08	-29.12	-52.430	-42.238	81.830	0.74203	-0.61249	0.25436	-0.09711	29.6	13111	100
2025-3-27 20:20:4.192	WT901BLE68-01(48591DE3C19B)	-0.468	0.063	0.159	-5.310	20.264	79.712	-83.98	14.99	-29.11	-52.430	-42.238	81.830	0.74203	-0.61249	0.25436	-0.09711	29.6	13111	100
2025-3-27 20:20:4.192	WT901BLE68-01(48591DE3C19B)	-0.482	0.063	0.159	-5.310	20.264	79.712	-84.05	15.99	-29.07	-58.996	-41.454	83.398	0.74203	-0.61249	0.25436	-0.09711	29.6	13111	100
2025-3-27 20:20:4.221	WT901BLE68-01(48591DE3C19B)	-0.482	0.088	0.157	-17.578	-10.254	87.402	-84.13	17.02	-28.86	-58.996	-41.454	83.398	0.74203	-0.61249	0.25436	-0.09711	29.6	13111	100
2025-3-27 20:20:4.221	WT901BLE68-01(48591DE3C19B)	-0.425	0.088	0.157	-17.578	-10.254	87.402	-84.23	18.09	-28.46	-58.996	-41.454	83.398	0.74203	-0.61249	0.25436	-0.09711	29.6	13111	100
2025-3-27 20:20:4.221	WT901BLE68-01(48591DE3C19B)	-0.425	-0.167	0.123	-36.743	-56.519	90.149	-84.34	19.16	-27.80	-58.996	-41.454	83.398	0.74203	-0.61249	0.25436	-0.09711	29.6	13111	100
2025-3-27 20:20:4.222	WT901BLE68-01(48591DE3C19B)	-0.372	-0.167	0.123	-36.743	-56.519	90.149	-84.47	20.22	-26.90	-58.996	-41.454	83.398	0.74203	-0.61249	0.25436	-0.09711	29.6	13111	100
2025-3-27 20:20:4.280	WT901BLE68-01(48591DE3C19B)	-0.372	-0.549	0.113	-41.687	-92.224	87.280	-84.48	21.20	-25.63	-58.996	-41.454	83.398	0.74203	-0.61249	0.25436	-0.09711	29.6	13111	100
2025-3-27 20:20:4.280	WT901BLE68-01(48591DE3C19B)	-0.522	-0.549	0.113	-41.687	-92.224	87.280	-84.48	22.17	-24.37	-58.996	-41.454	83.398	0.74203	-0.61249	0.25436	-0.09711	29.6	13111	100
2025-3-27 20:20:4.280	WT901BLE68-01(48591DE3C19B)	-0.522	-1.133	0.136	-45.532	-115.479	76.355	-84.39	22.97	-22.89	-58.996	-41.454	83.398	0.74203	-0.61249	0.25436	-0.09711	29.6	13111	100
2025-3-27 20:20:4.280	WT901BLE68-01(48591DE3C19B)	-0.711	-1.133	0.136	-45.532	-115.479	76.355	-84.28	23.75	-21.44	-58.996	-41.454	83.398	0.74203	-0.61249	0.25436	-0.09711	29.6	13111	100
2025-3-27 20:20:4.309	WT901BLE68-01(48591DE3C19B)	-0.711	-2.438	-0.010	-58.655	-137.695	34.058	-84.22	24.03	-19.84	-58.996	-41.454	83.398	0.74203	-0.61249	0.25436	-0.09711	29.6	13111	100
2025-3-27 20:20:4.309	WT901BLE68-01(48591DE3C19B)	-0.757	-2.438	-0.010	-58.655	-137.695	34.058	-84.16	24.28	-18.27	-58.996	-41.454	83.398	0.74203	-0.61249	0.25436	-0.09711	29.6	13111	100
2025-3-27 20:20:4.309	WT901BLE68-01(48591DE3C19B)	-0.757	-3.735	-0.154	-11.536	-150.330	25.513	-83.59	24.39	-16.62	-58.996	-41.454	83.398	0.74203	-0.61249	0.25436	-0.09711	29.6	13111	100
2025-3-27 20:20:4.309	WT901BLE68-01(48591DE3C19B)	-0.662	-3.735	-0.154	-11.536	-150.330	25.513	-83.03	24.46	-14.98	-58.996	-41.454	83.398	0.74203	-0.61249	0.25436	-0.09711	29.6	13111	100
2025-3-27 20:20:4.340	WT901BLE68-01(48591DE3C19B)	-0.662	-2.239	0.081	65.796	-120.239	13.000	-81.85	24.42	-13.71	-58.996	-41.454	83.398	0.74203	-0.61249	0.25436	-0.09711	29.6	13111	100
2025-3-27 20:20:4.340	WT901BLE68-01(48591DE3C19B)	-0.225	-2.239	0.081	65.796	-120.239	13.000	-80.69	24.35	-12.45	-58.996	-41.454	83.398	0.74203	-0.61249	0.25436	-0.09711	29.6	13111	100
2025-3-27 20:20:4.340	WT901BLE68-01(48591DE3C19B)	-0.225	-1.873	0.072	31.494	-64.392	29.297	-80.11	24.50	-11.77	-58.996	-41.454	83.398	0.74203	-0.61249	0.25436	-0.09711	29.6	13111	100
2025-3-27 20:20:4.340	WT901BLE68-01(48591DE3C19B)	0.208	-1.873	0.072	31.494	-64.392	29.297	-79.53	24.64	-11.10	-58.996	-41.454	83.398	0.74203	-0.61249	0.25436	-0.09711	29.6	13111	100
2025-3-27 20:20:4.400	WT901BLE68-01(48591DE3C19B)	0.208	-1.568	0.149	52.307	16.785	38.391	-79.11	25.00	-11.29	-58.996	-41.454	83.398	0.74203	-0.61249	0.25436	-0.09711	29.6	13111	100
2025-3-27 20:20:4.401	WT901BLE68-01(48591DE3C19B)	0.371	-1.568	0.149	52.307	16.785	38.391	-78.68	25.36	-11.50	-58.996	-41.454	83.398	0.74203	-0.61249	0.25436	-0.09711	29.6	13111	100
2025-3-27 20:20:4.401	WT901BLE68-01(48591DE3C19B)	0.371	-0.899	0.208	45.654	69.763	70.923	-78.55	26.11	-12.21	-58.996	-41.454	83.398	0.74203	-0.61249	0.25436	-0.09711	29.6	13111	100
2025-3-27 20:20:4.401	WT901BLE68-01(48591DE3C19B)	0.324	-0.899	0.208	45.654	69.763	70.923	-78.43	26.86	-12.93	-58.996	-41.454	83.398	0.74203	-0.61249	0.25436	-0.09711	29.6	13111	100
2025-3-27 20:20:4.429	WT901BLE68-01(48591DE3C19B)	0.324	-0.600	0.264	9.277	68.970	62.256	-78.68	27.49	-13.67	-58.996	-41.454	83.398	0.76300	-0.58884	0.25961	0.05969	29.6	13111	100
2025-3-27 20:20:4.429	WT901BLE68-01(48591DE3C19B)	0.203	-0.600	0.264	9.277	68.970	62.256	-78.94	28.12	-14.42	-58.996	-41.454	83.398	0.76300	-0.58884	0.25961	0.05969	29.6	13111	100
2025-3-27 20:20:4.429	WT901BLE68-01(48591DE3C19B)	0.203	-0.576	0.265	1.648	44.922	55.725	-79.16	28.62	-14.92	-58.996	-41.454	83.398	0.76300	-0.58884	0.25961	0.05969	29.6	13111	100
2025-3-27 20:20:4.429	WT901BLE68-01(48591DE3C19B)	-0.002	-0.576	0.265	1.648	44.922	55.725	-79.37	29.10	-15.44	-58.996	-41.454	83.398	0.76300	-0.58884	0.25961	0.05969	29.6	13111	100
2025-3-27 20:20:4.461	WT901BLE68-01(48591DE3C19B)	-0.002	-0.544	0.144	2.380	36.987	55.359	-79.54	29.56	-15.88	-58.996	-41.454	83.398	0.76300	-0.58884	0.25961	0.05969	29.6	13111	100
2025-3-27 20:20:4.461	WT901BLE68-01(48591DE3C19B)	-0.182	-0.544	0.144	2.380	36.987	55.359	-79.71	30.03	-16.31	-58.996	-41.454	83.398	0.76300	-0.58884	0.25961	0.05969	29.6	13111	100
2025-3-27 20:20:4.462	WT901BLE68-01(48591DE3C19B)	-0.182	-0.462	0.038	3.540	20.752	49.255	-79.78	30.39	-16.57	-58.996	-41.454	83.398	0.76300	-0.58884	0.25961	0.05969	29.6	13111	100
2025-3-27 20:20:4.462	WT901BLE68-01(48591DE3C19B)	-0.200	-0.462	0.038	3.540	20.752	49.255	-79.86	30.77	-16.83	-58.996	-41.454	83.398	0.76300	-0.58884	0.25961	0.05969	29.6	13111	100
2025-3-27 20:20:4.551	WT901BLE68-01(48591DE3C19B)	-0.200	-0.362	0.042	-0.854	-16.357	39.429	-79.77	30.98	-16.68	-58.996	-41.454	83.398	0.76300	-0.58884	0.25961	0.05969	29.6	13111	100
2025-3-27 20:20:4.551	WT901BLE68-01(48591DE3C19B)	0.165	-0.362	0.042	-0.854	-16.357	39.429	-79.68	31.20	-16.53	-58.996	-41.454	83.398	0.76300	-0.58884	0.25961	0.05969	29.6	13111	100
2025-3-27 20:20:4.552	WT901BLE68-01(48591DE3C19B)	0.165	-0.294	0.072	-3.174	-56.396	36.011	-79.38	31.30	-15.93	-58.996	-41.454	83.398	0.76300	-0.58884	0.25961	0.05969	29.6	13111	100
2025-3-27 20:20:4.552	WT901BLE68-01(48591DE3C19B)	0.387	-0.294	0.072	-3.174	-56.396	36.011	-79.08	31.39	-15.34	-58.996	-41.454	83.398	0.76300	-0.58884	0.25961	0.05969	29.6	13111	100
2025-3-27 20:20:4.552	WT901BLE68-01(48591DE3C19B)	0.387	-0.219	0.105	7.446	-39.001	28.015	-78.79	31.43	-14.98	-58.996	-41.454	83.398	0.76300	-0.58884	0.25961	0.05969	29.6	13111	100
2025-3-27 20:20:4.552	WT901BLE68-01(48591DE3C19B)	0.267	-0.219	0.105	7.446	-39.001	28.015	-78.51	31.44	-14.63	-58.996	-41.454	83.398	0.76300	-0.58884	0.25961	0.05969	29.6	13111	100
2025-3-27 20:20:4.552	WT901BLE68-01(48591DE3C19B)	0.267	-0.227	0.119	16.174	0.793	23.560	-78.39	31.46	-14.77	-58.996	-41.454	83.398	0.76300	-0.58884	0.25961	0.05969	29.6	13111	100
2025-3-27 20:20:4.552	WT901BLE68-01(48591DE3C19B)	0.081	-0.227	0.119	16.174	0.793	23.560	-78.27	31.48	-14.90	-58.996	-41.454	83.398	0.76300	-0.58884	0.25961	0.05969	29.6	13111	100
2025-3-27 20:20:4.580	WT901BLE68-01(48591DE3C19B)	0.081	-0.426	0.076	14.709	23.499	16.357	-78.31	31.47	-15.31	-58.996	-41.454	83.398	0.76300	-0.58884	0.25961	0.05969	29.6	13111	100
2025-3-27 20:20:4.580	WT901BLE68-01(48591DE3C19B)	0.041	-0.426	0.076	14.709	23.499	16.357	-78.34	31.45	-15.73	-58.996	-41.454	83.398	0.76300	-0.58884	0.25961	0.05969	29.6	13111	100
2025-3-27 20:20:4.580	WT901BLE68-01(48591DE3C19B)	0.041	-0.738	-0.011	3.540	31.982	1.282	-78.57	31.31	-16.27	-59.486	-43.414	83.202	0.76300	-0.58884	0.25961	0.05969	29.6	13111	100
2025-3-27 20:20:4.581	WT901BLE68-01(48591DE3C19B)	0.074	-0.738	-0.011	3.540	31.982	1.282	-78.79	31.17	-16.81	-59.486	-43.414	83.202	0.76300	-0.58884	0.25961	0.05969	29.6	13111	100
2025-3-27 20:20:4.641	WT901BLE68-01(48591DE3C19B)	0.074	-1.131	-0.161	-11.047	56.946	-19.226	-79.35	30.88	-17.67	-59.486	-43.414	83.202	0.76300	-0.58884	0.25961	0.05969	29.6	13111	100
2025-3-27 20:20:4.641	WT901BLE68-01(48591DE3C19B)	-0.024	-1.131	-0.161	-11.047	56.946	-19.226	-79.90	30.59	-18.51	-59.486	-43.414	83.202	0.76300	-0.58884	0.25961	0.05969	29.6	13111	100
2025-3-27 20:20:4.641	WT901BLE68-01(48591DE3C19B)	-0.024	-1.817	-0.240	-9.644	97.229	-61.218	-80.71	29.95	-19.88	-59.486	-43.414	83.202	0.76300	-0.58884	0.25961	0.05969	29.6	13111	100
2025-3-27 20:20:4.641	WT901BLE68-01(48591DE3C19B)	-0.412	-1.817	-0.240	-9.644	97.229	-61.218	-81.50	29.32	-21.23	-59.486	-43.414	83.202	0.76300	-0.58884	0.25961	0.05969	29.6	13111	100
2025-3-27 20:20:4.669	WT901BLE68-01(48591DE3C19B)	-0.412	-2.762	-0.188	-12.329	107.910	-130.188	-82.40	28.01	-22.76	-59.486	-43.414	83.202	0.76300	-0.58884	0.25961	0.05969	29.6	13111	100
2025-3-27 20:20:4.669	WT901BLE68-01(48591DE3C19B)	-1.173	-2.762	-0.188	-12.329	107.910	-130.188	-83.23	26.71	-24.24	-59.486	-43.414	83.202	0.76300	-0.58884	0.25961	0.05969	29.6	13111	100
2025-3-27 20:20:4.669	WT901BLE68-01(48591DE3C19B)	-1.173	-2.545	0.285	37.720	64.087	-180.908	-83.33	24.87	-25.25	-59.486	-43.414	83.202	0.76300	-0.58884	0.25961	0.05969	29.6	13111	100
2025-3-27 20:20:4.669	WT901BLE68-01(48591DE3C19B)	-1.337	-2.545	0.285	37.720	64.087	-180.908	-83.38	23.06	-26.23	-59.486	-43.414	83.202	0.76300	-0.58884	0.25961	0.05969	29.6	13111	100
2025-3-27 20:20:4.699	WT901BLE68-01(48591DE3C19B)	-0.998	-1.468	0.692	15.503	28.931	-215.332	-83.46	20.90	-26.84	-59.486	-43.414	83.202	0.76300	-0.58884	0.25961	0.05969	29.6	13111	100
2025-3-27 20:20:4.699	WT901BLE68-01(48591DE3C19B)	-0.998	-1.100	0.838	2.747	60.120	-192.017	-83.62	18.91	-27.57	-59.486	-43.414	83.202	0.76300	-0.58884	0.25961	0.05969	29.6	13111	100
2025-3-27 20:20:4.699	WT901BLE68-01(48591DE3C19B)	-0.648	-1.100	0.838	2.747	60.120	-192.017	-83.85	17.07	-28.42	-59.486	-43.414	83.202	0.76300	-0.58884	0.25961	0.05969	29.6	13111	100
2025-3-27 20:20:4.699	WT901BLE68-01(48591DE3C19B)	-0.648	-0.980	0.657	0.122	85.876	-174.072	-84.07	15.35	-29.37	-59.486	-43.414	83.202	0.76300	-0.58884	0.25961	0.05969	29.6	13111	100
2025-3-27 20:20:4.761	WT901BLE68-01(48591DE3C19B)	-0.406	-0.980	0.657	0.122	85.876	-174.072	-84.30	13.74	-30.42	-59.486	-43.414	83.202	0.76300	-0.58884	0.25961	0.05969	29.6	13111	100
2025-3-27 20:20:4.762	WT901BLE68-01(48591DE3C19B)	-0.406	-0.886	0.442	-4.333	23.438	-148.926	-84.44	12.24	-31.11	-59.486	-43.414	83.202	0.76300	-0.58884	0.25961	0.05969	29.6	13111	100
2025-3-27 20:20:4.762	WT901BLE68-01(48591DE3C19B)	-0.390	-0.886	0.442	-4.333	23.438	-148.926	-84.51	10.85	-31.47	-59.486	-43.414	83.202	0.76300	-0.58884	0.25961	0.05969	29.6	13111	100
2025-3-27 20:20:4.762	WT901BLE68-01(48591DE3C19B)	-0.390	-0.781	0.360	-13.367	-83.252	-114.502	-84.51	9.59	-31.27	-59.486	-43.414	83.202	0.76300	-0.58884	0.25961	0.05969	29.6	13111	100
2025-3-27 20:20:4.792	WT901BLE68-01(48591DE3C19B)	-0.525	-0.781	0.360	-13.367	-83.252	-114.502	-84.47	8.45	-30.52	-59.486	-43.414	83.202	0.76300	-0.58884	0.25961	0.05969	29.6	13111	100
2025-3-27 20:20:4.792	WT901BLE68-01(48591DE3C19B)	-0.525	-0.750	0.269	-8.118	-118.225	-85.205	-84.39	7.45	-29.59	-59.486	-43.414	83.202	0.76300	-0.58884	0.25961	0.05969	29.6	13111	100
2025-3-27 20:20:4.792	WT901BLE68-01(48591DE3C19B)	-0.645	-0.750	0.269	-8.118	-118.225	-85.205	-84.28	6.58	-28.47	-59.486	-43.414	83.202	0.76300	-0.58884	0.25961	0.05969	29.6	13111	100
2025-3-27 20:20:4.792	WT901BLE68-01(48591DE3C19B)	-0.645	-0.632	0.065	-0.366	-59.692	-62.744	-84.17	5.87	-27.63	-59.486	-43.414	83.202	0.72787	-0.64093	0.19672	-0.14362	29.6	13111	100
2025-3-27 20:20:4.821	WT901BLE68-01(48591DE3C19B)	-0.526	-0.632	0.065	-0.366	-59.692	-62.744	-84.07	5.31	-27.06	-59.486	-43.414	83.202	0.72787	-0.64093	0.19672	-0.14362	29.6	13111	100
2025-3-27 20:20:4.821	WT901BLE68-01(48591DE3C19B)	-0.526	-0.559	0.014	8.301	14.282	-53.772	-83.97	4.84	-26.86	-59.486	-43.414	83.202	0.72787	-0.64093	0.19672	-0.14362	29.6	13111	100
2025-3-27 20:20:4.821	WT901BLE68-01(48591DE3C19B)	-0.490	-0.559	0.014	8.301	14.282	-53.772	-83.87	4.47	-27.00	-59.486	-43.414	83.202	0.72787	-0.64093	0.19672	-0.14362	29.6	13111	100
2025-3-27 20:20:4.821	WT901BLE68-01(48591DE3C19B)	-0.490	-0.406	0.126	19.531	67.383	-39.246	-83.73	4.20	-27.40	-59.486	-43.414	83.202	0.72787	-0.64093	0.19672	-0.14362	29.6	13111	100
2025-3-27 20:20:4.880	WT901BLE68-01(48591DE3C19B)	-0.517	-0.406	0.126	19.531	67.383	-39.246	-83.56	4.04	-28.05	-59.486	-43.414	83.202	0.72787	-0.64093	0.19672	-0.14362	29.6	13111	100
2025-3-27 20:20:4.880	WT901BLE68-01(48591DE3C19B)	-0.517	-0.188	0.176	23.499	76.843	-26.550	-83.38	3.97	-28.72	-59.486	-43.414	83.202	0.72787	-0.64093	0.19672	-0.14362	29.6	13111	100
2025-3-27 20:20:4.880	WT901BLE68-01(48591DE3C19B)	-0.526	-0.188	0.176	23.499	76.843	-26.550	-83.18	3.98	-29.42	-59.486	-43.414	83.202	0.72787	-0.64093	0.19672	-0.14362	29.6	13111	100
2025-3-27 20:20:4.880	WT901BLE68-01(48591DE3C19B)	-0.526	-0.016	0.211	22.949	76.965	-3.418	-82.99	4.12	-30.09	-59.486	-43.414	83.202	0.72787	-0.64093	0.19672	-0.14362	29.6	13111	100
2025-3-27 20:20:4.908	WT901BLE68-01(48591DE3C19B)	-0.556	-0.016	0.211	22.949	76.965	-3.418	-82.80	4.39	-30.72	-59.486	-43.414	83.202	0.72787	-0.64093	0.19672	-0.14362	29.6	13111	100
2025-3-27 20:20:4.909	WT901BLE68-01(48591DE3C19B)	-0.556	0.067	0.223	17.151	66.101	16.357	-82.64	4.77	-31.26	-59.486	-43.414	83.202	0.72787	-0.64093	0.19672	-0.14362	29.6	13111	100
2025-3-27 20:20:4.909	WT901BLE68-01(48591DE3C19B)	-0.578	0.067	0.223	17.151	66.101	16.357	-82.53	5.26	-31.71	-59.486	-43.414	83.202	0.72787	-0.64093	0.19672	-0.14362	29.6	13111	100
2025-3-27 20:20:4.909	WT901BLE68-01(48591DE3C19B)	-0.578	-0.033	0.236	-1.526	22.583	29.846	-82.50	5.81	-31.91	-59.486	-43.414	83.202	0.72787	-0.64093	0.19672	-0.14362	29.6	13111	100
2025-3-27 20:20:4.972	WT901BLE68-01(48591DE3C19B)	-0.610	-0.033	0.236	-1.526	22.583	29.846	-82.55	6.40	-31.86	-59.486	-43.414	83.202	0.72787	-0.64093	0.19672	-0.14362	29.6	13111	100
2025-3-27 20:20:4.972	WT901BLE68-01(48591DE3C19B)	-0.610	-0.332	0.275	-14.954	-24.719	31.921	-82.65	6.98	-31.56	-59.486	-43.414	83.202	0.72787	-0.64093	0.19672	-0.14362	29.6	13111	100
2025-3-27 20:20:4.972	WT901BLE68-01(48591DE3C19B)	-0.860	-0.332	0.275	-14.954	-24.719	31.921	-82.79	7.55	-31.01	-59.486	-43.414	83.202	0.72787	-0.64093	0.19672	-0.14362	29.6	13111	100
2025-3-27 20:20:4.972	WT901BLE68-01(48591DE3C19B)	-0.860	-0.751	0.352	-18.921	-84.534	26.978	-82.90	8.05	-30.18	-59.486	-43.414	83.202	0.72787	-0.64093	0.19672	-0.14362	29.6	13111	100
2025-3-27 20:20:5.1	WT901BLE68-01(48591DE3C19B)	-1.413	-0.751	0.352	-18.921	-84.534	26.978	-82.97	8.49	-29.06	-59.486	-43.414	83.202	0.72787	-0.64093	0.19672	-0.14362	29.6	13111	100
2025-3-27 20:20:5.2	WT901BLE68-01(48591DE3C19B)	-1.413	-1.521	0.540	-28.748	-176.758	25.757	-83.01	8.85	-27.49	-59.486	-43.414	83.202	0.72787	-0.64093	0.19672	-0.14362	29.6	13111	100
2025-3-27 20:20:5.2	WT901BLE68-01(48591DE3C19B)	-1.509	-1.521	0.540	-28.748	-176.758	25.757	-83.01	9.14	-25.48	-59.486	-43.414	83.202	0.72787	-0.64093	0.19672	-0.14362	29.6	13111	100
2025-3-27 20:20:5.2	WT901BLE68-01(48591DE3C19B)	-1.509	-3.193	0.157	-90.759	-244.385	23.621	-83.25	9.36	-23.16	-59.486	-43.414	83.202	0.72787	-0.64093	0.19672	-0.14362	29.6	13111	100
2025-3-27 20:20:5.31	WT901BLE68-01(48591DE3C19B)	-0.774	-3.193	0.157	-90.759	-244.385	23.621	-83.74	9.51	-20.57	-57.428	-49.392	82.614	0.72787	-0.64093	0.19672	-0.14362	29.6	13111	100
2025-3-27 20:20:5.31	WT901BLE68-01(48591DE3C19B)	-0.774	-3.613	-0.309	30.212	-211.731	42.114	-83.63	9.76	-18.16	-57.428	-49.392	82.614	0.72787	-0.64093	0.19672	-0.14362	29.6	13111	100
2025-3-27 20:20:5.32	WT901BLE68-01(48591DE3C19B)	-0.255	-3.613	-0.309	30.212	-211.731	42.114	-82.96	10.06	-15.95	-57.428	-49.392	82.614	0.72787	-0.64093	0.19672	-0.14362	29.6	13111	100
2025-3-27 20:20:5.32	WT901BLE68-01(48591DE3C19B)	-0.255	-1.919	-0.186	64.636	-86.060	67.139	-82.22	10.51	-14.38	-57.428	-49.392	82.614	0.72787	-0.64093	0.19672	-0.14362	29.6	13111	100
2025-3-27 20:20:5.61	WT901BLE68-01(48591DE3C19B)	-0.060	-1.919	-0.186	64.636	-86.060	67.139	-81.41	11.15	-13.43	-57.428	-49.392	82.614	0.72787	-0.64093	0.19672	-0.14362	29.6	13111	100
2025-3-27 20:20:5.61	WT901BLE68-01(48591DE3C19B)	-0.060	-1.555	0.074	66.528	1.404	124.573	-80.67	12.11	-12.88	-57.428	-49.392	82.614	0.72787	-0.64093	0.19672	-0.14362	29.6	13111	100
2025-3-27 20:20:5.61	WT901BLE68-01(48591DE3C19B)	-0.048	-1.555	0.074	66.528	1.404	124.573	-79.99	13.40	-12.72	-57.428	-49.392	82.614	0.72787	-0.64093	0.19672	-0.14362	29.6	13111	100
2025-3-27 20:20:5.61	WT901BLE68-01(48591DE3C19B)	-0.048	-1.075	0.234	52.979	44.312	181.091	-79.42	14.99	-12.72	-57.428	-49.392	82.614	0.72787	-0.64093	0.19672	-0.14362	29.6	13111	100
2025-3-27 20:20:5.120	WT901BLE68-01(48591DE3C19B)	-0.022	-1.075	0.234	52.979	44.312	181.091	-78.95	16.87	-12.87	-57.428	-49.392	82.614	0.72787	-0.64093	0.19672	-0.14362	29.6	13111	100
2025-3-27 20:20:5.121	WT901BLE68-01(48591DE3C19B)	-0.022	-0.884	0.318	19.531	34.180	187.866	-78.64	18.76	-12.96	-57.428	-49.392	82.614	0.72787	-0.64093	0.19672	-0.14362	29.6	13111	100
2025-3-27 20:20:5.121	WT901BLE68-01(48591DE3C19B)	0.138	-0.884	0.318	19.531	34.180	187.866	-78.46	20.65	-12.99	-57.428	-49.392	82.614	0.72787	-0.64093	0.19672	-0.14362	29.6	13111	100
2025-3-27 20:20:5.121	WT901BLE68-01(48591DE3C19B)	0.138	-0.923	0.223	14.526	35.583	192.993	-78.32	22.56	-13.03	-57.428	-49.392	82.614	0.72787	-0.64093	0.19672	-0.14362	29.6	13111	100
2025-3-27 20:20:5.180	WT901BLE68-01(48591DE3C19B)	0.014	-0.923	0.223	14.526	35.583	192.993	-78.19	24.47	-13.07	-57.428	-49.392	82.614	0.72787	-0.64093	0.19672	-0.14362	29.6	13111	100
2025-3-27 20:20:5.180	WT901BLE68-01(48591DE3C19B)	0.014	-0.789	0.152	22.644	64.087	188.599	-78.09	26.37	-13.29	-57.428	-49.392	82.614	0.72787	-0.64093	0.19672	-0.14362	29.6	13111	100
2025-3-27 20:20:5.180	WT901BLE68-01(48591DE3C19B)	-0.384	-0.789	0.152	22.644	64.087	188.599	-78.02	28.26	-13.67	-57.428	-49.392	82.614	0.72787	-0.64093	0.19672	-0.14362	29.6	13111	100
2025-3-27 20:20:5.180	WT901BLE68-01(48591DE3C19B)	-0.384	-0.692	0.033	8.850	103.760	179.688	-78.34	30.14	-14.52	-57.428	-49.392	82.614	0.72787	-0.64093	0.19672	-0.14362	29.6	13111	100
2025-3-27 20:20:5.181	WT901BLE68-01(48591DE3C19B)	-0.543	-0.692	0.033	8.850	103.760	179.688	-78.70	32.01	-15.39	-57.428	-49.392	82.614	0.72787	-0.64093	0.19672	-0.14362	29.6	13111	100
2025-3-27 20:20:5.182	WT901BLE68-01(48591DE3C19B)	-0.543	-0.676	0.003	-1.892	110.779	160.828	-79.26	33.70	-16.42	-57.428	-49.392	82.614	0.72787	-0.64093	0.19672	-0.14362	29.6	13111	100
2025-3-27 20:20:5.182	WT901BLE68-01(48591DE3C19B)	-0.469	-0.676	0.003	-1.892	110.779	160.828	-79.87	35.38	-17.47	-57.428	-49.392	82.614	0.75162	-0.56903	0.32318	0.08179	29.6	13111	100
2025-3-27 20:20:5.182	WT901BLE68-01(48591DE3C19B)	-0.469	-0.642	0.044	-7.141	92.834	142.822	-80.46	36.84	-18.39	-57.428	-49.392	82.614	0.75162	-0.56903	0.32318	0.08179	29.6	13111	100
2025-3-27 20:20:5.240	WT901BLE68-01(48591DE3C19B)	-0.308	-0.642	0.044	-7.141	92.834	142.822	-81.10	38.29	-19.32	-57.428	-49.392	82.614	0.75162	-0.56903	0.32318	0.08179	29.6	13111	100
2025-3-27 20:20:5.240	WT901BLE68-01(48591DE3C19B)	-0.308	-0.551	0.044	-7.996	60.852	125.488	-81.54	39.52	-19.92	-57.428	-49.392	82.614	0.75162	-0.56903	0.32318	0.08179	29.6	13111	100
2025-3-27 20:20:5.240	WT901BLE68-01(48591DE3C19B)	-0.212	-0.551	0.044	-7.996	60.852	125.488	-82.00	40.73	-20.54	-57.428	-49.392	82.614	0.75162	-0.56903	0.32318	0.08179	29.6	13111	100
2025-3-27 20:20:5.240	WT901BLE68-01(48591DE3C19B)	-0.212	-0.511	0.021	-10.498	25.085	110.718	-82.22	41.75	-20.74	-57.428	-49.392	82.614	0.75162	-0.56903	0.32318	0.08179	29.6	13111	100
2025-3-27 20:20:5.269	WT901BLE68-01(48591DE3C19B)	-0.183	-0.511	0.021	-10.498	25.085	110.718	-82.45	42.75	-20.95	-57.428	-49.392	82.614	0.75162	-0.56903	0.32318	0.08179	29.6	13111	100
2025-3-27 20:20:5.269	WT901BLE68-01(48591DE3C19B)	-0.183	-0.551	-0.030	-11.353	-10.315	95.947	-82.38	43.56	-20.71	-57.428	-49.392	82.614	0.75162	-0.56903	0.32318	0.08179	29.6	13111	100
2025-3-27 20:20:5.269	WT901BLE68-01(48591DE3C19B)	-0.193	-0.551	-0.030	-11.353	-10.315	95.947	-82.32	44.36	-20.48	-57.428	-49.392	82.614	0.75162	-0.56903	0.32318	0.08179	29.6	13111	100
2025-3-27 20:20:5.270	WT901BLE68-01(48591DE3C19B)	-0.193	-0.607	-0.053	-10.559	-36.987	85.205	-81.99	45.02	-19.90	-57.428	-49.392	82.614	0.75162	-0.56903	0.32318	0.08179	29.6	13111	100
2025-3-27 20:20:5.299	WT901BLE68-01(48591DE3C19B)	-0.240	-0.607	-0.053	-10.559	-36.987	85.205	-81.66	45.66	-19.30	-57.428	-49.392	82.614	0.75162	-0.56903	0.32318	0.08179	29.6	13111	100
2025-3-27 20:20:5.299	WT901BLE68-01(48591DE3C19B)	-0.240	-0.653	-0.013	-9.399	-63.293	81.421	-81.06	46.23	-18.34	-57.428	-49.392	82.614	0.75162	-0.56903	0.32318	0.08179	29.6	13111	100
2025-3-27 20:20:5.299	WT901BLE68-01(48591DE3C19B)	-0.221	-0.653	-0.013	-9.399	-63.293	81.421	-80.43	46.78	-17.37	-57.428	-49.392	82.614	0.75162	-0.56903	0.32318	0.08179	29.6	13111	100
2025-3-27 20:20:5.299	WT901BLE68-01(48591DE3C19B)	-0.221	-0.657	0.050	-7.507	-82.886	82.825	-79.57	47.30	-16.10	-57.428	-49.392	82.614	0.75162	-0.56903	0.32318	0.08179	29.6	13111	100
2025-3-27 20:20:5.361	WT901BLE68-01(48591DE3C19B)	-0.089	-0.657	0.050	-7.507	-82.886	82.825	-78.68	47.81	-14.82	-57.428	-49.392	82.614	0.75162	-0.56903	0.32318	0.08179	29.6	13111	100
2025-3-27 20:20:5.361	WT901BLE68-01(48591DE3C19B)	-0.089	-0.731	0.104	-11.963	-72.021	85.815	-77.93	48.34	-13.67	-57.428	-49.392	82.614	0.75162	-0.56903	0.32318	0.08179	29.6	13111	100
2025-3-27 20:20:5.361	WT901BLE68-01(48591DE3C19B)	-0.023	-0.731	0.104	-11.963	-72.021	85.815	-77.16	48.85	-12.51	-57.428	-49.392	82.614	0.75162	-0.56903	0.32318	0.08179	29.6	13111	100
2025-3-27 20:20:5.361	WT901BLE68-01(48591DE3C19B)	-0.023	-1.016	0.078	-12.085	-30.579	77.881	-76.87	49.36	-12.00	-57.428	-49.392	82.614	0.75162	-0.56903	0.32318	0.08179	29.6	13111	100
2025-3-27 20:20:5.390	WT901BLE68-01(48591DE3C19B)	0.017	-1.016	0.078	-12.085	-30.579	77.881	-76.57	49.86	-11.48	-57.428	-49.392	82.614	0.75162	-0.56903	0.32318	0.08179	29.6	13111	100
2025-3-27 20:20:5.390	WT901BLE68-01(48591DE3C19B)	0.017	-1.368	0.049	-3.357	24.170	45.166	-76.92	50.14	-11.93	-57.428	-49.392	82.614	0.75162	-0.56903	0.32318	0.08179	29.6	13111	100
2025-3-27 20:20:5.390	WT901BLE68-01(48591DE3C19B)	-0.204	-1.368	0.049	-3.357	24.170	45.166	-77.27	50.42	-12.39	-57.428	-49.392	82.614	0.75162	-0.56903	0.32318	0.08179	29.6	13111	100
2025-3-27 20:20:5.390	WT901BLE68-01(48591DE3C19B)	-0.204	-1.844	0.120	9.155	75.867	-21.240	-78.28	50.15	-13.86	-77.028	-44.394	83.790	0.75162	-0.56903	0.32318	0.08179	29.6	13111	100
2025-3-27 20:20:5.450	WT901BLE68-01(48591DE3C19B)	-0.723	-1.844	0.120	9.155	75.867	-21.240	-79.27	49.86	-15.31	-77.028	-44.394	83.790	0.75162	-0.56903	0.32318	0.08179	29.6	13111	100
2025-3-27 20:20:5.450	WT901BLE68-01(48591DE3C19B)	-0.723	-2.255	0.234	16.663	90.149	-79.712	-80.43	49.02	-17.10	-77.028	-44.394	83.790	0.75162	-0.56903	0.32318	0.08179	29.6	13111	100
2025-3-27 20:20:5.450	WT901BLE68-01(48591DE3C19B)	-1.170	-2.255	0.234	16.663	90.149	-79.712	-81.51	48.16	-18.82	-77.028	-44.394	83.790	0.75162	-0.56903	0.32318	0.08179	29.6	13111	100
2025-3-27 20:20:5.450	WT901BLE68-01(48591DE3C19B)	-1.170	-1.770	0.375	25.391	80.261	-116.943	-82.38	46.93	-20.39	-77.028	-44.394	83.790	0.75162	-0.56903	0.32318	0.08179	29.6	13111	100
2025-3-27 20:20:5.479	WT901BLE68-01(48591DE3C19B)	-1.050	-1.770	0.375	25.391	80.261	-116.943	-83.16	45.70	-21.88	-77.028	-44.394	83.790	0.75162	-0.56903	0.32318	0.08179	29.6	13111	100
2025-3-27 20:20:5.479	WT901BLE68-01(48591DE3C19B)	-1.050	-1.296	0.439	13.184	80.078	-120.728	-83.98	44.43	-23.30	-77.028	-44.394	83.790	0.75162	-0.56903	0.32318	0.08179	29.6	13111	100
2025-3-27 20:20:5.479	WT901BLE68-01(48591DE3C19B)	-0.857	-1.296	0.439	13.184	80.078	-120.728	-84.73	43.18	-24.64	-77.028	-44.394	83.790	0.75162	-0.56903	0.32318	0.08179	29.6	13111	100
2025-3-27 20:20:5.479	WT901BLE68-01(48591DE3C19B)	-0.857	-1.100	0.499	1.160	82.642	-116.638	-85.55	41.97	-25.95	-77.028	-44.394	83.790	0.75162	-0.56903	0.32318	0.08179	29.6	13111	100
2025-3-27 20:20:5.509	WT901BLE68-01(48591DE3C19B)	-0.769	-1.100	0.499	1.160	82.642	-116.638	-86.30	40.76	-27.20	-77.028	-44.394	83.790	0.75162	-0.56903	0.32318	0.08179	29.6	13111	100
2025-3-27 20:20:5.510	WT901BLE68-01(48591DE3C19B)	-0.769	-0.980	0.529	-4.211	42.236	-110.168	-86.70	39.59	-27.87	-77.028	-44.394	83.790	0.75162	-0.56903	0.32318	0.08179	29.6	13111	100
2025-3-27 20:20:5.510	WT901BLE68-01(48591DE3C19B)	-0.716	-0.980	0.529	-4.211	42.236	-110.168	-87.07	38.44	-28.51	-77.028	-44.394	83.790	0.75162	-0.56903	0.32318	0.08179	29.6	13111	100
2025-3-27 20:20:5.510	WT901BLE68-01(48591DE3C19B)	-0.716	-0.965	0.505	-21.545	-58.289	-93.384	-86.80	37.41	-27.85	-77.028	-44.394	83.790	0.75162	-0.56903	0.32318	0.08179	29.6	13111	100
2025-3-27 20:20:5.572	WT901BLE68-01(48591DE3C19B)	-0.609	-0.965	0.505	-21.545	-58.289	-93.384	-86.54	36.39	-27.21	-77.028	-44.394	83.790	0.75162	-0.56903	0.32318	0.08179	29.6	13111	100
2025-3-27 20:20:5.572	WT901BLE68-01(48591DE3C19B)	-0.609	-1.057	0.420	-27.527	-141.846	-79.529	-85.75	35.45	-25.55	-77.028	-44.394	83.790	0.75162	-0.56903	0.32318	0.08179	29.6	13111	100
2025-3-27 20:20:5.572	WT901BLE68-01(48591DE3C19B)	-0.498	-1.057	0.420	-27.527	-141.846	-79.529	-85.01	34.50	-23.93	-77.028	-44.394	83.790	0.75162	-0.56903	0.32318	0.08179	29.6	13111	100
2025-3-27 20:20:5.572	WT901BLE68-01(48591DE3C19B)	-0.498	-0.982	0.301	-8.667	-155.273	-71.411	-84.03	33.60	-22.19	-77.028	-44.394	83.790	0.75162	-0.56903	0.32318	0.08179	29.6	13111	100
2025-3-27 20:20:5.601	WT901BLE68-01(48591DE3C19B)	-0.352	-0.982	0.301	-8.667	-155.273	-71.411	-83.10	32.68	-20.49	-77.028	-44.394	83.790	0.75162	-0.56903	0.32318	0.08179	29.6	13111	100
2025-3-27 20:20:5.601	WT901BLE68-01(48591DE3C19B)	-0.352	-0.789	0.164	5.981	-95.581	-75.195	-82.45	31.78	-19.53	-77.028	-44.394	83.790	0.75162	-0.56903	0.32318	0.08179	29.6	13111	100
2025-3-27 20:20:5.601	WT901BLE68-01(48591DE3C19B)	-0.311	-0.789	0.164	5.981	-95.581	-75.195	-81.83	30.88	-18.60	-77.028	-44.394	83.790	0.75162	-0.56903	0.32318	0.08179	29.6	13111	100
2025-3-27 20:20:5.601	WT901BLE68-01(48591DE3C19B)	-0.434	-0.673	0.122	10.986	-12.207	-77.393	-81.66	30.07	-18.64	-77.028	-44.394	83.790	0.74924	-0.59174	0.29367	0.04633	29.6	13111	100
2025-3-27 20:20:5.630	WT901BLE68-01(48591DE3C19B)	-0.434	-0.671	0.176	12.756	35.950	-73.486	-81.63	29.32	-18.96	-77.028	-44.394	83.790	0.74924	-0.59174	0.29367	0.04633	29.6	13111	100
2025-3-27 20:20:5.630	WT901BLE68-01(48591DE3C19B)	-0.530	-0.671	0.176	12.756	35.950	-73.486	-81.72	28.63	-19.53	-77.028	-44.394	83.790	0.74924	-0.59174	0.29367	0.04633	29.6	13111	100
2025-3-27 20:20:5.630	WT901BLE68-01(48591DE3C19B)	-0.530	-0.698	0.258	16.541	44.067	-76.477	-81.79	27.94	-20.14	-77.028	-44.394	83.790	0.74924	-0.59174	0.29367	0.04633	29.6	13111	100
2025-3-27 20:20:5.630	WT901BLE68-01(48591DE3C19B)	-0.562	-0.698	0.258	16.541	44.067	-76.477	-81.86	27.25	-20.78	-77.028	-44.394	83.790	0.74924	-0.59174	0.29367	0.04633	29.6	13111	100
2025-3-27 20:20:5.690	WT901BLE68-01(48591DE3C19B)	-0.562	-0.695	0.281	22.949	37.476	-76.355	-81.88	26.56	-21.37	-77.028	-44.394	83.790	0.74924	-0.59174	0.29367	0.04633	29.6	13111	100
2025-3-27 20:20:5.690	WT901BLE68-01(48591DE3C19B)	-0.638	-0.695	0.281	22.949	37.476	-76.355	-81.83	25.88	-21.91	-77.028	-44.394	83.790	0.74924	-0.59174	0.29367	0.04633	29.6	13111	100
2025-3-27 20:20:5.690	WT901BLE68-01(48591DE3C19B)	-0.638	-0.667	0.254	27.649	22.278	-73.730	-81.72	25.21	-22.36	-77.028	-44.394	83.790	0.74924	-0.59174	0.29367	0.04633	29.6	13111	100
2025-3-27 20:20:5.690	WT901BLE68-01(48591DE3C19B)	-0.670	-0.667	0.254	27.649	22.278	-73.730	-81.54	24.55	-22.71	-77.028	-44.394	83.790	0.74924	-0.59174	0.29367	0.04633	29.6	13111	100
2025-3-27 20:20:5.719	WT901BLE68-01(48591DE3C19B)	-0.670	-0.665	0.211	22.644	-13.855	-70.129	-81.31	23.90	-22.85	-77.028	-44.394	83.790	0.74924	-0.59174	0.29367	0.04633	29.6	13111	100
2025-3-27 20:20:5.719	WT901BLE68-01(48591DE3C19B)	-0.576	-0.665	0.211	22.644	-13.855	-70.129	-81.02	23.25	-22.79	-77.028	-44.394	83.790	0.74924	-0.59174	0.29367	0.04633	29.6	13111	100
2025-3-27 20:20:5.719	WT901BLE68-01(48591DE3C19B)	-0.576	-0.735	0.184	15.564	-48.462	-68.726	-80.71	22.59	-22.54	-77.028	-44.394	83.790	0.74924	-0.59174	0.29367	0.04633	29.6	13111	100
2025-3-27 20:20:5.719	WT901BLE68-01(48591DE3C19B)	-0.497	-0.735	0.184	15.564	-48.462	-68.726	-80.36	21.91	-22.11	-77.028	-44.394	83.790	0.74924	-0.59174	0.29367	0.04633	29.6	13111	100
2025-3-27 20:20:5.749	WT901BLE68-01(48591DE3C19B)	-0.497	-0.812	0.183	12.268	-57.129	-65.063	-80.02	21.24	-21.64	-77.028	-44.394	83.790	0.74924	-0.59174	0.29367	0.04633	29.6	13111	100
2025-3-27 20:20:5.749	WT901BLE68-01(48591DE3C19B)	-0.495	-0.812	0.183	12.268	-57.129	-65.063	-79.70	20.58	-21.13	-77.028	-44.394	83.790	0.74924	-0.59174	0.29367	0.04633	29.6	13111	100
2025-3-27 20:20:5.749	WT901BLE68-01(48591DE3C19B)	-0.495	-0.883	0.196	10.254	-49.072	-60.181	-79.41	19.95	-20.67	-77.028	-44.394	83.790	0.74924	-0.59174	0.29367	0.04633	29.6	13111	100
2025-3-27 20:20:5.750	WT901BLE68-01(48591DE3C19B)	-0.531	-0.883	0.196	10.254	-49.072	-60.181	-79.15	19.35	-20.25	-77.028	-44.394	83.790	0.74924	-0.59174	0.29367	0.04633	29.6	13111	100
2025-3-27 20:20:5.810	WT901BLE68-01(48591DE3C19B)	-0.531	-0.952	0.223	10.071	-40.039	-52.979	-78.91	18.80	-19.87	-77.028	-44.394	83.790	0.74924	-0.59174	0.29367	0.04633	29.6	13111	100
2025-3-27 20:20:5.810	WT901BLE68-01(48591DE3C19B)	-0.521	-0.952	0.223	10.071	-40.039	-52.979	-78.70	18.29	-19.56	-77.028	-44.394	83.790	0.74924	-0.59174	0.29367	0.04633	29.6	13111	100
2025-3-27 20:20:5.810	WT901BLE68-01(48591DE3C19B)	-0.521	-0.957	0.229	11.108	-32.898	-42.542	-78.49	17.83	-19.26	-77.028	-44.394	83.790	0.74924	-0.59174	0.29367	0.04633	29.6	13111	100
2025-3-27 20:20:5.810	WT901BLE68-01(48591DE3C19B)	-0.473	-0.957	0.229	11.108	-32.898	-42.542	-78.28	17.43	-19.00	-77.028	-44.394	83.790	0.74924	-0.59174	0.29367	0.04633	29.6	13111	100
2025-3-27 20:20:5.869	WT901BLE68-01(48591DE3C19B)	-0.473	-0.921	0.208	10.376	-22.095	-33.386	-78.10	17.09	-18.79	-66.248	-50.078	84.084	0.74924	-0.59174	0.29367	0.04633	29.6	13111	100
2025-3-27 20:20:5.870	WT901BLE68-01(48591DE3C19B)	-0.464	-0.921	0.208	10.376	-22.095	-33.386	-77.94	16.80	-18.63	-66.248	-50.078	84.084	0.74924	-0.59174	0.29367	0.04633	29.6	13111	100
2025-3-27 20:20:5.870	WT901BLE68-01(48591DE3C19B)	-0.464	-0.895	0.182	7.935	-14.404	-24.658	-77.80	16.56	-18.51	-66.248	-50.078	84.084	0.74924	-0.59174	0.29367	0.04633	29.6	13111	100
2025-3-27 20:20:5.870	WT901BLE68-01(48591DE3C19B)	-0.480	-0.895	0.182	7.935	-14.404	-24.658	-77.68	16.37	-18.41	-66.248	-50.078	84.084	0.74924	-0.59174	0.29367	0.04633	29.6	13111	100
