time	DeviceName	AccX(g)	AccY(g)	AccZ(g)	AsX(°/s)	AsY(°/s)	AsZ(°/s)	AngleX(°)	AngleY(°)	AngleZ(°)	HX(uT)	HY(uT)	HZ(uT)	Q0()	Q1()	Q2()	Q3()	Temperature(°C)	Version()	Battery level(%)
2025-3-27 20:29:49.918	WT901BLE68-01(48591DE3C19B)	-0.244	-0.923	0.255	-0.122	0.549	0.854	-74.31	14.99	-35.10	-73.892	-23.030	95.158	-0.77621	0.54004	-0.28140	0.16296	30.4	13111	100
2025-3-27 20:29:49.918	WT901BLE68-01(48591DE3C19B)	-0.244	-0.930	0.257	0.305	2.319	0.732	-74.31	15.01	-35.12	-73.892	-23.030	95.158	-0.77621	0.54004	-0.28140	0.16296	30.4	13111	100
2025-3-27 20:29:49.918	WT901BLE68-01(48591DE3C19B)	-0.244	-0.930	0.257	0.305	2.319	0.732	-74.31	15.02	-35.13	-73.892	-23.030	95.158	-0.77621	0.54004	-0.28140	0.16296	30.4	13111	100
2025-3-27 20:29:49.918	WT901BLE68-01(48591DE3C19B)	-0.244	-0.928	0.258	0.305	3.235	0.610	-74.32	15.03	-35.16	-73.892	-23.030	95.158	-0.77621	0.54004	-0.28140	0.16296	30.4	13111	100
2025-3-27 20:29:49.947	WT901BLE68-01(48591DE3C19B)	-0.243	-0.928	0.258	0.305	3.235	0.610	-74.32	15.04	-35.19	-73.892	-23.030	95.158	-0.77621	0.54004	-0.28140	0.16296	30.4	13111	100
2025-3-27 20:29:49.947	WT901BLE68-01(48591DE3C19B)	-0.244	-0.931	0.261	0.244	4.028	0.366	-74.33	15.05	-35.23	-73.892	-23.030	95.158	-0.77621	0.54004	-0.28140	0.16296	30.4	13111	100
2025-3-27 20:29:49.947	WT901BLE68-01(48591DE3C19B)	-0.244	-0.923	0.263	0.000	4.456	0.122	-74.34	15.06	-35.27	-73.892	-23.030	95.158	-0.77621	0.54004	-0.28140	0.16296	30.4	13111	100
2025-3-27 20:29:49.947	WT901BLE68-01(48591DE3C19B)	-0.245	-0.923	0.263	0.000	4.456	0.122	-74.35	15.07	-35.30	-73.892	-23.030	95.354	-0.77621	0.54004	-0.28140	0.16296	30.4	13111	100
2025-3-27 20:29:49.978	WT901BLE68-01(48591DE3C19B)	-0.245	-0.919	0.265	-0.854	4.211	-0.305	-74.37	15.08	-35.35	-73.892	-23.030	95.354	-0.77621	0.54004	-0.28140	0.16296	30.4	13111	100
2025-3-27 20:29:49.978	WT901BLE68-01(48591DE3C19B)	-0.243	-0.919	0.265	-0.854	4.211	-0.305	-74.38	15.08	-35.39	-73.892	-23.030	95.354	-0.77621	0.54004	-0.28140	0.16296	30.4	13111	100
2025-3-27 20:29:49.978	WT901BLE68-01(48591DE3C19B)	-0.243	-0.917	0.270	-1.404	4.028	-0.549	-74.40	15.09	-35.43	-73.892	-23.030	95.354	-0.77621	0.54004	-0.28140	0.16296	30.4	13111	100
2025-3-27 20:29:49.978	WT901BLE68-01(48591DE3C19B)	-0.247	-0.917	0.270	-1.404	4.028	-0.549	-74.43	15.09	-35.46	-73.892	-23.030	95.354	-0.77621	0.54004	-0.28140	0.16296	30.4	13111	100
2025-3-27 20:29:50.38	WT901BLE68-01(48591DE3C19B)	-0.247	-0.911	0.277	-1.953	3.723	-0.854	-74.45	15.09	-35.50	-73.892	-23.030	95.354	-0.77621	0.54004	-0.28140	0.16296	30.4	13111	100
2025-3-27 20:29:50.38	WT901BLE68-01(48591DE3C19B)	-0.252	-0.911	0.277	-1.953	3.723	-0.854	-74.48	15.09	-35.54	-73.892	-23.030	95.354	-0.77621	0.54004	-0.28140	0.16296	30.4	13111	100
2025-3-27 20:29:50.38	WT901BLE68-01(48591DE3C19B)	-0.252	-0.909	0.285	-2.808	2.625	-1.282	-74.51	15.08	-35.57	-73.892	-23.030	95.354	-0.77621	0.54004	-0.28140	0.16296	30.4	13111	100
2025-3-27 20:29:50.38	WT901BLE68-01(48591DE3C19B)	-0.256	-0.909	0.285	-2.808	2.625	-1.282	-74.54	15.07	-35.60	-73.892	-23.030	95.354	-0.77621	0.54004	-0.28140	0.16296	30.4	13111	100
2025-3-27 20:29:50.66	WT901BLE68-01(48591DE3C19B)	-0.256	-0.913	0.293	-3.601	1.099	-1.831	-74.57	15.06	-35.62	-73.892	-23.030	95.354	-0.77621	0.54004	-0.28140	0.16296	30.4	13111	100
2025-3-27 20:29:50.66	WT901BLE68-01(48591DE3C19B)	-0.263	-0.913	0.293	-3.601	1.099	-1.831	-74.60	15.04	-35.63	-73.892	-23.030	95.354	-0.77621	0.54004	-0.28140	0.16296	30.4	13111	100
2025-3-27 20:29:50.66	WT901BLE68-01(48591DE3C19B)	-0.263	-0.914	0.300	-3.601	0.000	-2.563	-74.64	15.02	-35.63	-73.892	-23.030	95.354	-0.77621	0.54004	-0.28140	0.16296	30.4	13111	100
2025-3-27 20:29:50.66	WT901BLE68-01(48591DE3C19B)	-0.274	-0.914	0.300	-3.601	0.000	-2.563	-74.66	15.00	-35.64	-73.892	-23.030	95.354	-0.77621	0.54004	-0.28140	0.16296	30.4	13111	100
2025-3-27 20:29:50.96	WT901BLE68-01(48591DE3C19B)	-0.274	-0.910	0.307	-3.479	-1.221	-3.235	-74.69	14.96	-35.64	-73.892	-23.030	95.354	-0.77621	0.54004	-0.28140	0.16296	30.4	13111	100
2025-3-27 20:29:50.96	WT901BLE68-01(48591DE3C19B)	-0.288	-0.910	0.307	-3.479	-1.221	-3.235	-74.71	14.93	-35.63	-73.892	-23.030	95.354	-0.77621	0.54004	-0.28140	0.16296	30.4	13111	100
2025-3-27 20:29:50.96	WT901BLE68-01(48591DE3C19B)	-0.288	-0.902	0.318	-3.418	-2.930	-3.235	-74.73	14.89	-35.62	-73.892	-23.030	95.354	-0.77621	0.54004	-0.28140	0.16296	30.4	13111	100
2025-3-27 20:29:50.96	WT901BLE68-01(48591DE3C19B)	-0.298	-0.902	0.318	-3.418	-2.930	-3.235	-74.75	14.85	-35.59	-73.892	-23.030	95.354	-0.77621	0.54004	-0.28140	0.16296	30.4	13111	100
2025-3-27 20:29:50.162	WT901BLE68-01(48591DE3C19B)	-0.298	-0.892	0.326	-3.601	-4.700	-2.502	-74.76	14.82	-35.56	-73.892	-23.030	95.354	-0.77621	0.54004	-0.28140	0.16296	30.4	13111	100
2025-3-27 20:29:50.162	WT901BLE68-01(48591DE3C19B)	-0.302	-0.892	0.326	-3.601	-4.700	-2.502	-74.77	14.79	-35.51	-73.892	-23.030	95.354	-0.77621	0.54004	-0.28140	0.16296	30.4	13111	100
2025-3-27 20:29:50.163	WT901BLE68-01(48591DE3C19B)	-0.302	-0.885	0.327	-3.906	-5.371	-1.221	-74.78	14.77	-35.46	-73.892	-23.030	95.354	-0.77621	0.54004	-0.28140	0.16296	30.4	13111	100
2025-3-27 20:29:50.163	WT901BLE68-01(48591DE3C19B)	-0.309	-0.885	0.327	-3.906	-5.371	-1.221	-74.78	14.74	-35.40	-73.892	-23.030	95.354	-0.77621	0.54004	-0.28140	0.16296	30.4	13111	100
2025-3-27 20:29:50.185	WT901BLE68-01(48591DE3C19B)	-0.309	-0.890	0.328	-4.089	-5.188	0.122	-74.79	14.73	-35.35	-73.892	-23.030	95.354	-0.77429	0.54291	-0.27994	0.16498	30.4	13111	100
2025-3-27 20:29:50.185	WT901BLE68-01(48591DE3C19B)	-0.319	-0.890	0.328	-4.089	-5.188	0.122	-74.80	14.73	-35.29	-73.892	-23.030	95.354	-0.77429	0.54291	-0.27994	0.16498	30.4	13111	100
2025-3-27 20:29:50.185	WT901BLE68-01(48591DE3C19B)	-0.319	-0.898	0.328	-3.601	-4.639	1.221	-74.80	14.74	-35.23	-73.892	-23.030	95.354	-0.77429	0.54291	-0.27994	0.16498	30.4	13111	100
2025-3-27 20:29:50.186	WT901BLE68-01(48591DE3C19B)	-0.327	-0.898	0.328	-3.601	-4.639	1.221	-74.80	14.75	-35.18	-73.892	-23.030	95.354	-0.77429	0.54291	-0.27994	0.16498	30.4	13111	100
2025-3-27 20:29:50.216	WT901BLE68-01(48591DE3C19B)	-0.327	-0.885	0.328	-3.784	-4.944	2.136	-74.81	14.77	-35.12	-73.892	-23.030	95.354	-0.77429	0.54291	-0.27994	0.16498	30.4	13111	100
2025-3-27 20:29:50.216	WT901BLE68-01(48591DE3C19B)	-0.341	-0.885	0.328	-3.784	-4.944	2.136	-74.81	14.79	-35.06	-73.892	-23.030	95.354	-0.77429	0.54291	-0.27994	0.16498	30.4	13111	100
2025-3-27 20:29:50.216	WT901BLE68-01(48591DE3C19B)	-0.341	-0.871	0.322	-4.761	-7.751	2.991	-74.81	14.81	-34.98	-73.892	-23.030	95.354	-0.77429	0.54291	-0.27994	0.16498	30.4	13111	100
2025-3-27 20:29:50.216	WT901BLE68-01(48591DE3C19B)	-0.348	-0.871	0.322	-4.761	-7.751	2.991	-74.81	14.84	-34.89	-73.892	-23.030	95.354	-0.77429	0.54291	-0.27994	0.16498	30.4	13111	100
2025-3-27 20:29:50.306	WT901BLE68-01(48591DE3C19B)	-0.348	-0.842	0.307	-6.897	-13.489	3.845	-74.81	14.86	-34.77	-73.892	-23.030	95.354	-0.77429	0.54291	-0.27994	0.16498	30.4	13111	100
2025-3-27 20:29:50.306	WT901BLE68-01(48591DE3C19B)	-0.349	-0.842	0.307	-6.897	-13.489	3.845	-74.81	14.88	-34.61	-73.892	-23.030	95.354	-0.77429	0.54291	-0.27994	0.16498	30.4	13111	100
2025-3-27 20:29:50.306	WT901BLE68-01(48591DE3C19B)	-0.349	-0.827	0.294	-10.071	-21.057	4.639	-74.83	14.90	-34.41	-73.892	-23.030	95.354	-0.77429	0.54291	-0.27994	0.16498	30.4	13111	100
2025-3-27 20:29:50.307	WT901BLE68-01(48591DE3C19B)	-0.338	-0.827	0.294	-10.071	-21.057	4.639	-74.84	14.91	-34.18	-73.892	-23.030	95.354	-0.77429	0.54291	-0.27994	0.16498	30.4	13111	100
2025-3-27 20:29:50.308	WT901BLE68-01(48591DE3C19B)	-0.338	-0.835	0.286	-12.878	-28.137	6.042	-74.87	14.92	-33.91	-73.892	-23.030	95.354	-0.77429	0.54291	-0.27994	0.16498	30.4	13111	100
2025-3-27 20:29:50.308	WT901BLE68-01(48591DE3C19B)	-0.311	-0.835	0.286	-12.878	-28.137	6.042	-74.89	14.94	-33.61	-73.892	-23.030	95.354	-0.77429	0.54291	-0.27994	0.16498	30.4	13111	100
2025-3-27 20:29:50.308	WT901BLE68-01(48591DE3C19B)	-0.311	-0.805	0.270	-13.977	-32.837	7.629	-74.92	14.95	-33.28	-73.892	-23.030	95.354	-0.77429	0.54291	-0.27994	0.16498	30.4	13111	100
2025-3-27 20:29:50.308	WT901BLE68-01(48591DE3C19B)	-0.295	-0.805	0.270	-13.977	-32.837	7.629	-74.94	14.96	-32.92	-73.892	-23.030	95.354	-0.77429	0.54291	-0.27994	0.16498	30.4	13111	100
2025-3-27 20:29:50.366	WT901BLE68-01(48591DE3C19B)	-0.295	-0.779	0.252	-15.991	-35.217	8.362	-74.97	14.98	-32.55	-73.892	-23.030	95.354	-0.77429	0.54291	-0.27994	0.16498	30.4	13111	100
2025-3-27 20:29:50.367	WT901BLE68-01(48591DE3C19B)	-0.293	-0.779	0.252	-15.991	-35.217	8.362	-75.01	15.00	-32.17	-73.892	-23.030	95.354	-0.77429	0.54291	-0.27994	0.16498	30.4	13111	100
2025-3-27 20:29:50.367	WT901BLE68-01(48591DE3C19B)	-0.293	-0.799	0.245	-18.127	-39.185	7.874	-75.06	15.01	-31.77	-73.892	-23.030	95.354	-0.77429	0.54291	-0.27994	0.16498	30.4	13111	100
2025-3-27 20:29:50.367	WT901BLE68-01(48591DE3C19B)	-0.288	-0.799	0.245	-18.127	-39.185	7.874	-75.11	15.01	-31.36	-73.892	-23.030	95.354	-0.77429	0.54291	-0.27994	0.16498	30.4	13111	100
2025-3-27 20:29:50.398	WT901BLE68-01(48591DE3C19B)	-0.288	-0.824	0.234	-19.104	-44.067	7.202	-75.16	15.00	-30.92	-71.442	-24.500	96.432	-0.77429	0.54291	-0.27994	0.16498	30.4	13111	100
2025-3-27 20:29:50.398	WT901BLE68-01(48591DE3C19B)	-0.275	-0.824	0.234	-19.104	-44.067	7.202	-75.21	14.99	-30.46	-71.442	-24.500	96.432	-0.77429	0.54291	-0.27994	0.16498	30.4	13111	100
2025-3-27 20:29:50.399	WT901BLE68-01(48591DE3C19B)	-0.275	-0.858	0.223	-19.470	-48.401	5.127	-75.26	14.96	-29.99	-71.442	-24.500	96.432	-0.77429	0.54291	-0.27994	0.16498	30.4	13111	100
2025-3-27 20:29:50.399	WT901BLE68-01(48591DE3C19B)	-0.282	-0.858	0.223	-19.470	-48.401	5.127	-75.31	14.91	-29.49	-71.442	-24.500	96.432	-0.77429	0.54291	-0.27994	0.16498	30.4	13111	100
2025-3-27 20:29:50.456	WT901BLE68-01(48591DE3C19B)	-0.282	-0.910	0.227	-18.738	-51.514	2.563	-75.35	14.84	-28.99	-71.442	-24.500	96.432	-0.77429	0.54291	-0.27994	0.16498	30.4	13111	100
2025-3-27 20:29:50.457	WT901BLE68-01(48591DE3C19B)	-0.278	-0.910	0.227	-18.738	-51.514	2.563	-75.39	14.76	-28.48	-71.442	-24.500	96.432	-0.77429	0.54291	-0.27994	0.16498	30.4	13111	100
2025-3-27 20:29:50.457	WT901BLE68-01(48591DE3C19B)	-0.278	-0.917	0.225	-16.541	-54.016	0.610	-75.40	14.65	-27.94	-71.442	-24.500	96.432	-0.77429	0.54291	-0.27994	0.16498	30.4	13111	100
2025-3-27 20:29:50.457	WT901BLE68-01(48591DE3C19B)	-0.269	-0.917	0.225	-16.541	-54.016	0.610	-75.42	14.55	-27.41	-71.442	-24.500	96.432	-0.77429	0.54291	-0.27994	0.16498	30.4	13111	100
2025-3-27 20:29:50.485	WT901BLE68-01(48591DE3C19B)	-0.269	-0.936	0.218	-15.625	-53.833	-0.244	-75.43	14.43	-26.88	-71.442	-24.500	96.432	-0.77429	0.54291	-0.27994	0.16498	30.4	13111	100
2025-3-27 20:29:50.485	WT901BLE68-01(48591DE3C19B)	-0.275	-0.936	0.218	-15.625	-53.833	-0.244	-75.45	14.31	-26.36	-71.442	-24.500	96.432	-0.77429	0.54291	-0.27994	0.16498	30.4	13111	100
2025-3-27 20:29:50.485	WT901BLE68-01(48591DE3C19B)	-0.275	-0.991	0.211	-14.465	-51.697	-0.793	-75.46	14.19	-25.85	-71.442	-24.500	96.432	-0.77429	0.54291	-0.27994	0.16498	30.4	13111	100
2025-3-27 20:29:50.485	WT901BLE68-01(48591DE3C19B)	-0.289	-0.991	0.211	-14.465	-51.697	-0.793	-75.48	14.07	-25.35	-71.442	-24.500	96.432	-0.77429	0.54291	-0.27994	0.16498	30.4	13111	100
2025-3-27 20:29:50.517	WT901BLE68-01(48591DE3C19B)	-0.289	-1.080	0.206	-12.512	-48.279	-0.793	-75.49	13.96	-24.87	-71.442	-24.500	96.432	-0.77429	0.54291	-0.27994	0.16498	30.4	13111	100
2025-3-27 20:29:50.518	WT901BLE68-01(48591DE3C19B)	-0.296	-1.080	0.206	-12.512	-48.279	-0.793	-75.50	13.85	-24.41	-71.442	-24.500	96.432	-0.77429	0.54291	-0.27994	0.16498	30.4	13111	100
2025-3-27 20:29:50.518	WT901BLE68-01(48591DE3C19B)	-0.296	-1.152	0.201	-9.338	-43.945	-0.305	-75.49	13.75	-23.97	-71.442	-24.500	96.432	-0.77429	0.54291	-0.27994	0.16498	30.4	13111	100
2025-3-27 20:29:50.518	WT901BLE68-01(48591DE3C19B)	-0.298	-1.152	0.201	-9.338	-43.945	-0.305	-75.49	13.66	-23.54	-71.442	-24.500	96.432	-0.77429	0.54291	-0.27994	0.16498	30.4	13111	100
2025-3-27 20:29:50.548	WT901BLE68-01(48591DE3C19B)	-0.298	-1.189	0.198	-5.859	-38.208	0.610	-75.47	13.58	-23.17	-71.442	-24.500	96.432	-0.77429	0.54291	-0.27994	0.16498	30.4	13111	100
2025-3-27 20:29:50.548	WT901BLE68-01(48591DE3C19B)	-0.300	-1.189	0.198	-5.859	-38.208	0.610	-75.45	13.51	-22.80	-71.442	-24.500	96.432	-0.77429	0.54291	-0.27994	0.16498	30.4	13111	100
2025-3-27 20:29:50.548	WT901BLE68-01(48591DE3C19B)	-0.300	-1.182	0.205	-2.869	-31.250	2.075	-75.42	13.46	-22.49	-71.442	-24.500	96.432	-0.78470	0.57788	-0.20844	0.08197	30.4	13111	100
2025-3-27 20:29:50.548	WT901BLE68-01(48591DE3C19B)	-0.277	-1.182	0.205	-2.869	-31.250	2.075	-75.39	13.41	-22.18	-71.442	-24.500	96.432	-0.78470	0.57788	-0.20844	0.08197	30.4	13111	100
2025-3-27 20:29:50.606	WT901BLE68-01(48591DE3C19B)	-0.277	-1.151	0.199	-1.404	-23.071	4.944	-75.36	13.41	-21.95	-71.442	-24.500	96.432	-0.78470	0.57788	-0.20844	0.08197	30.4	13111	100
2025-3-27 20:29:50.607	WT901BLE68-01(48591DE3C19B)	-0.252	-1.151	0.199	-1.404	-23.071	4.944	-75.34	13.41	-21.71	-71.442	-24.500	96.432	-0.78470	0.57788	-0.20844	0.08197	30.4	13111	100
2025-3-27 20:29:50.607	WT901BLE68-01(48591DE3C19B)	-0.252	-1.039	0.185	0.610	-13.184	9.766	-75.32	13.48	-21.56	-71.442	-24.500	96.432	-0.78470	0.57788	-0.20844	0.08197	30.4	13111	100
2025-3-27 20:29:50.607	WT901BLE68-01(48591DE3C19B)	-0.247	-1.039	0.185	0.610	-13.184	9.766	-75.29	13.55	-21.41	-71.442	-24.500	96.432	-0.78470	0.57788	-0.20844	0.08197	30.4	13111	100
2025-3-27 20:29:50.635	WT901BLE68-01(48591DE3C19B)	-0.247	-0.916	0.178	-1.587	-7.751	14.038	-75.31	13.67	-21.31	-71.442	-24.500	96.432	-0.78470	0.57788	-0.20844	0.08197	30.4	13111	100
2025-3-27 20:29:50.635	WT901BLE68-01(48591DE3C19B)	-0.261	-0.916	0.178	-1.587	-7.751	14.038	-75.32	13.79	-21.20	-71.442	-24.500	96.432	-0.78470	0.57788	-0.20844	0.08197	30.4	13111	100
2025-3-27 20:29:50.635	WT901BLE68-01(48591DE3C19B)	-0.261	-0.837	0.184	-6.226	-9.216	16.418	-75.37	13.94	-21.07	-71.442	-24.500	96.432	-0.78470	0.57788	-0.20844	0.08197	30.4	13111	100
2025-3-27 20:29:50.635	WT901BLE68-01(48591DE3C19B)	-0.273	-0.837	0.184	-6.226	-9.216	16.418	-75.42	14.08	-20.95	-71.442	-24.500	96.432	-0.78470	0.57788	-0.20844	0.08197	30.4	13111	100
2025-3-27 20:29:50.665	WT901BLE68-01(48591DE3C19B)	-0.273	-0.806	0.188	-11.414	-19.592	17.212	-75.49	14.20	-20.71	-71.442	-24.500	96.432	-0.78470	0.57788	-0.20844	0.08197	30.4	13111	100
2025-3-27 20:29:50.666	WT901BLE68-01(48591DE3C19B)	-0.259	-0.806	0.188	-11.414	-19.592	17.212	-75.56	14.33	-20.48	-71.442	-24.500	96.432	-0.78470	0.57788	-0.20844	0.08197	30.4	13111	100
2025-3-27 20:29:50.666	WT901BLE68-01(48591DE3C19B)	-0.259	-0.828	0.192	-14.343	-31.494	16.113	-75.63	14.41	-20.13	-71.442	-24.500	96.432	-0.78470	0.57788	-0.20844	0.08197	30.4	13111	100
2025-3-27 20:29:50.666	WT901BLE68-01(48591DE3C19B)	-0.231	-0.828	0.192	-14.343	-31.494	16.113	-75.70	14.50	-19.79	-71.442	-24.500	96.432	-0.78470	0.57788	-0.20844	0.08197	30.4	13111	100
2025-3-27 20:29:50.728	WT901BLE68-01(48591DE3C19B)	-0.231	-0.859	0.196	-13.123	-38.208	13.794	-75.74	14.55	-19.37	-71.442	-24.500	96.432	-0.78470	0.57788	-0.20844	0.08197	30.4	13111	100
2025-3-27 20:29:50.728	WT901BLE68-01(48591DE3C19B)	-0.199	-0.859	0.196	-13.123	-38.208	13.794	-75.78	14.59	-18.96	-71.442	-24.500	96.432	-0.78470	0.57788	-0.20844	0.08197	30.4	13111	100
2025-3-27 20:29:50.728	WT901BLE68-01(48591DE3C19B)	-0.199	-0.880	0.193	-9.827	-37.720	10.742	-75.79	14.61	-18.57	-71.442	-24.500	96.432	-0.78470	0.57788	-0.20844	0.08197	30.4	13111	100
2025-3-27 20:29:50.728	WT901BLE68-01(48591DE3C19B)	-0.180	-0.880	0.193	-9.827	-37.720	10.742	-75.79	14.62	-18.17	-71.442	-24.500	96.432	-0.78470	0.57788	-0.20844	0.08197	30.4	13111	100
2025-3-27 20:29:50.757	WT901BLE68-01(48591DE3C19B)	-0.180	-0.903	0.189	-6.104	-31.006	7.324	-75.79	14.62	-17.85	-71.442	-24.500	96.432	-0.78470	0.57788	-0.20844	0.08197	30.4	13111	100
2025-3-27 20:29:50.758	WT901BLE68-01(48591DE3C19B)	-0.182	-0.903	0.189	-6.104	-31.006	7.324	-75.78	14.61	-17.53	-71.442	-24.500	96.432	-0.78470	0.57788	-0.20844	0.08197	30.4	13111	100
2025-3-27 20:29:50.758	WT901BLE68-01(48591DE3C19B)	-0.182	-0.942	0.188	-2.197	-20.630	4.456	-75.76	14.60	-17.31	-71.442	-24.500	96.432	-0.78470	0.57788	-0.20844	0.08197	30.4	13111	100
2025-3-27 20:29:50.758	WT901BLE68-01(48591DE3C19B)	-0.201	-0.942	0.188	-2.197	-20.630	4.456	-75.74	14.59	-17.11	-58.408	-27.636	100.254	-0.78470	0.57788	-0.20844	0.08197	30.4	13111	100
2025-3-27 20:29:50.787	WT901BLE68-01(48591DE3C19B)	-0.201	-0.967	0.184	2.075	-9.766	2.747	-75.71	14.58	-17.01	-58.408	-27.636	100.254	-0.78470	0.57788	-0.20844	0.08197	30.4	13111	100
2025-3-27 20:29:50.788	WT901BLE68-01(48591DE3C19B)	-0.213	-0.967	0.184	2.075	-9.766	2.747	-75.68	14.58	-16.91	-58.408	-27.636	100.254	-0.78470	0.57788	-0.20844	0.08197	30.4	13111	100
2025-3-27 20:29:50.788	WT901BLE68-01(48591DE3C19B)	-0.213	-0.959	0.175	4.700	-2.319	1.892	-75.64	14.58	-16.89	-58.408	-27.636	100.254	-0.78470	0.57788	-0.20844	0.08197	30.4	13111	100
2025-3-27 20:29:50.788	WT901BLE68-01(48591DE3C19B)	-0.224	-0.959	0.175	4.700	-2.319	1.892	-75.60	14.59	-16.87	-58.408	-27.636	100.254	-0.78470	0.57788	-0.20844	0.08197	30.4	13111	100
2025-3-27 20:29:50.846	WT901BLE68-01(48591DE3C19B)	-0.224	-0.940	0.172	5.554	2.869	1.587	-75.57	14.60	-16.90	-58.408	-27.636	100.254	-0.78470	0.57788	-0.20844	0.08197	30.4	13111	100
2025-3-27 20:29:50.846	WT901BLE68-01(48591DE3C19B)	-0.236	-0.940	0.172	5.554	2.869	1.587	-75.54	14.62	-16.94	-58.408	-27.636	100.254	-0.78470	0.57788	-0.20844	0.08197	30.4	13111	100
2025-3-27 20:29:50.846	WT901BLE68-01(48591DE3C19B)	-0.236	-0.926	0.171	4.700	4.578	1.587	-75.53	14.63	-16.98	-58.408	-27.636	100.254	-0.78470	0.57788	-0.20844	0.08197	30.4	13111	100
2025-3-27 20:29:50.846	WT901BLE68-01(48591DE3C19B)	-0.231	-0.926	0.171	4.700	4.578	1.587	-75.51	14.65	-17.03	-58.408	-27.636	100.254	-0.78470	0.57788	-0.20844	0.08197	30.4	13111	100
2025-3-27 20:29:50.879	WT901BLE68-01(48591DE3C19B)	-0.231	-0.913	0.170	3.235	4.028	1.465	-75.51	14.67	-17.08	-58.408	-27.636	100.254	-0.78470	0.57788	-0.20844	0.08197	30.4	13111	100
2025-3-27 20:29:50.879	WT901BLE68-01(48591DE3C19B)	-0.236	-0.913	0.170	3.235	4.028	1.465	-75.50	14.68	-17.12	-58.408	-27.636	100.254	-0.78470	0.57788	-0.20844	0.08197	30.4	13111	100
2025-3-27 20:29:50.879	WT901BLE68-01(48591DE3C19B)	-0.240	-0.912	0.175	1.587	3.296	0.488	-75.52	14.69	-17.16	-58.408	-27.636	100.254	-0.78470	0.57788	-0.20844	0.08197	30.4	13111	100
2025-3-27 20:29:50.879	WT901BLE68-01(48591DE3C19B)	-0.240	-0.918	0.184	1.221	2.075	-1.099	-75.53	14.69	-17.19	-58.408	-27.636	100.254	-0.78470	0.57788	-0.20844	0.08197	30.4	13111	100
2025-3-27 20:29:50.906	WT901BLE68-01(48591DE3C19B)	-0.237	-0.918	0.184	1.221	2.075	-1.099	-75.55	14.68	-17.23	-58.408	-27.636	100.254	-0.78470	0.57788	-0.20844	0.08197	30.4	13111	100
2025-3-27 20:29:50.907	WT901BLE68-01(48591DE3C19B)	-0.237	-0.913	0.188	1.343	1.770	-2.502	-75.56	14.66	-17.25	-58.408	-27.636	100.254	-0.78470	0.57788	-0.20844	0.08197	30.4	13111	100
2025-3-27 20:29:50.907	WT901BLE68-01(48591DE3C19B)	-0.224	-0.913	0.188	1.343	1.770	-2.502	-75.57	14.63	-17.29	-58.408	-27.636	100.254	-0.78470	0.57788	-0.20844	0.08197	30.4	13111	100
2025-3-27 20:29:50.907	WT901BLE68-01(48591DE3C19B)	-0.224	-0.888	0.182	2.441	2.869	-3.601	-75.58	14.61	-17.33	-58.408	-27.636	100.254	-0.78470	0.57788	-0.20844	0.08197	30.4	13111	100
2025-3-27 20:29:50.965	WT901BLE68-01(48591DE3C19B)	-0.223	-0.888	0.182	2.441	2.869	-3.601	-75.59	14.57	-17.37	-58.408	-27.636	100.254	-0.78470	0.57788	-0.20844	0.08197	30.4	13111	100
2025-3-27 20:29:50.965	WT901BLE68-01(48591DE3C19B)	-0.223	-0.849	0.176	3.174	5.371	-4.395	-75.59	14.54	-17.43	-58.408	-27.636	100.254	-0.78470	0.57788	-0.20844	0.08197	30.4	13111	100
2025-3-27 20:29:50.966	WT901BLE68-01(48591DE3C19B)	-0.215	-0.849	0.176	3.174	5.371	-4.395	-75.59	14.51	-17.50	-58.408	-27.636	100.254	-0.78470	0.57788	-0.20844	0.08197	30.4	13111	100
2025-3-27 20:29:50.966	WT901BLE68-01(48591DE3C19B)	-0.215	-0.808	0.171	3.052	7.324	-5.066	-75.60	14.47	-17.58	-58.408	-27.636	100.254	-0.78470	0.57788	-0.20844	0.08197	30.4	13111	100
2025-3-27 20:29:50.996	WT901BLE68-01(48591DE3C19B)	-0.207	-0.808	0.171	3.052	7.324	-5.066	-75.61	14.44	-17.68	-58.408	-27.636	100.254	-0.78629	0.58560	-0.19168	0.04468	30.4	13111	100
2025-3-27 20:29:50.997	WT901BLE68-01(48591DE3C19B)	-0.207	-0.795	0.159	1.709	9.277	-5.737	-75.63	14.41	-17.78	-58.408	-27.636	100.254	-0.78629	0.58560	-0.19168	0.04468	30.4	13111	100
2025-3-27 20:29:50.997	WT901BLE68-01(48591DE3C19B)	-0.215	-0.795	0.159	1.709	9.277	-5.737	-75.65	14.37	-17.89	-58.408	-27.636	100.254	-0.78629	0.58560	-0.19168	0.04468	30.4	13111	100
2025-3-27 20:29:50.997	WT901BLE68-01(48591DE3C19B)	-0.215	-0.808	0.148	1.404	12.085	-7.080	-75.68	14.34	-18.02	-58.408	-27.636	100.254	-0.78629	0.58560	-0.19168	0.04468	30.4	13111	100
2025-3-27 20:29:51.26	WT901BLE68-01(48591DE3C19B)	-0.220	-0.808	0.148	1.404	12.085	-7.080	-75.72	14.29	-18.17	-58.408	-27.636	100.254	-0.78629	0.58560	-0.19168	0.04468	30.4	13111	100
2025-3-27 20:29:51.26	WT901BLE68-01(48591DE3C19B)	-0.220	-0.822	0.137	0.549	13.123	-8.850	-75.77	14.25	-18.32	-58.408	-27.636	100.254	-0.78629	0.58560	-0.19168	0.04468	30.4	13111	100
2025-3-27 20:29:51.26	WT901BLE68-01(48591DE3C19B)	-0.228	-0.822	0.137	0.549	13.123	-8.850	-75.82	14.19	-18.48	-58.408	-27.636	100.254	-0.78629	0.58560	-0.19168	0.04468	30.4	13111	100
2025-3-27 20:29:51.26	WT901BLE68-01(48591DE3C19B)	-0.228	-0.832	0.142	0.549	13.916	-10.620	-75.88	14.13	-18.64	-58.408	-27.636	100.254	-0.78629	0.58560	-0.19168	0.04468	30.4	13111	100
2025-3-27 20:29:51.86	WT901BLE68-01(48591DE3C19B)	-0.251	-0.832	0.142	0.549	13.916	-10.620	-75.93	14.07	-18.82	-58.408	-27.636	100.254	-0.78629	0.58560	-0.19168	0.04468	30.4	13111	100
2025-3-27 20:29:51.86	WT901BLE68-01(48591DE3C19B)	-0.251	-0.841	0.145	1.160	14.099	-12.634	-75.98	13.99	-19.00	-58.408	-27.636	100.254	-0.78629	0.58560	-0.19168	0.04468	30.4	13111	100
2025-3-27 20:29:51.86	WT901BLE68-01(48591DE3C19B)	-0.264	-0.841	0.145	1.160	14.099	-12.634	-76.03	13.91	-19.17	-58.408	-27.636	100.254	-0.78629	0.58560	-0.19168	0.04468	30.4	13111	100
2025-3-27 20:29:51.86	WT901BLE68-01(48591DE3C19B)	-0.264	-0.847	0.166	3.784	14.038	-14.343	-76.07	13.82	-19.35	-58.408	-27.636	100.254	-0.78629	0.58560	-0.19168	0.04468	30.4	13111	100
2025-3-27 20:29:51.115	WT901BLE68-01(48591DE3C19B)	-0.250	-0.847	0.166	3.784	14.038	-14.343	-76.09	13.72	-19.53	-58.408	-27.636	100.254	-0.78629	0.58560	-0.19168	0.04468	30.4	13111	100
2025-3-27 20:29:51.115	WT901BLE68-01(48591DE3C19B)	-0.250	-0.811	0.180	9.094	17.944	-14.343	-76.10	13.63	-19.73	-58.408	-27.636	100.254	-0.78629	0.58560	-0.19168	0.04468	30.4	13111	100
2025-3-27 20:29:51.115	WT901BLE68-01(48591DE3C19B)	-0.223	-0.811	0.180	9.094	17.944	-14.343	-76.07	13.55	-19.95	-58.408	-27.636	100.254	-0.78629	0.58560	-0.19168	0.04468	30.4	13111	100
2025-3-27 20:29:51.115	WT901BLE68-01(48591DE3C19B)	-0.223	-0.736	0.188	15.625	27.283	-11.963	-76.03	13.49	-20.21	-58.408	-27.636	100.254	-0.78629	0.58560	-0.19168	0.04468	30.4	13111	100
2025-3-27 20:29:51.148	WT901BLE68-01(48591DE3C19B)	-0.192	-0.736	0.188	15.625	27.283	-11.963	-75.95	13.45	-20.52	-58.408	-27.636	100.254	-0.78629	0.58560	-0.19168	0.04468	30.4	13111	100
2025-3-27 20:29:51.148	WT901BLE68-01(48591DE3C19B)	-0.192	-0.654	0.196	22.644	40.527	-8.057	-75.87	13.45	-20.89	-58.408	-27.636	100.254	-0.78629	0.58560	-0.19168	0.04468	30.4	13111	100
2025-3-27 20:29:51.148	WT901BLE68-01(48591DE3C19B)	-0.184	-0.654	0.196	22.644	40.527	-8.057	-75.75	13.48	-21.32	-58.408	-27.636	100.254	-0.78629	0.58560	-0.19168	0.04468	30.4	13111	100
2025-3-27 20:29:51.149	WT901BLE68-01(48591DE3C19B)	-0.184	-0.581	0.213	27.710	54.749	-3.357	-75.62	13.56	-21.82	-58.408	-27.636	100.254	-0.78629	0.58560	-0.19168	0.04468	30.4	13111	100
2025-3-27 20:29:51.207	WT901BLE68-01(48591DE3C19B)	-0.202	-0.581	0.213	27.710	54.749	-3.357	-75.49	13.67	-22.37	-58.408	-27.636	100.254	-0.78629	0.58560	-0.19168	0.04468	30.4	13111	100
2025-3-27 20:29:51.207	WT901BLE68-01(48591DE3C19B)	-0.202	-0.572	0.256	28.687	63.416	2.563	-75.35	13.83	-22.97	-61.250	-25.970	103.488	-0.78629	0.58560	-0.19168	0.04468	30.4	13111	100
2025-3-27 20:29:51.207	WT901BLE68-01(48591DE3C19B)	-0.273	-0.572	0.256	28.687	63.416	2.563	-75.21	14.03	-23.60	-61.250	-25.970	103.488	-0.78629	0.58560	-0.19168	0.04468	30.4	13111	100
2025-3-27 20:29:51.207	WT901BLE68-01(48591DE3C19B)	-0.273	-0.663	0.294	25.513	65.796	7.507	-75.09	14.25	-24.24	-61.250	-25.970	103.488	-0.78629	0.58560	-0.19168	0.04468	30.4	13111	100
2025-3-27 20:29:51.235	WT901BLE68-01(48591DE3C19B)	-0.327	-0.663	0.294	25.513	65.796	7.507	-74.99	14.51	-24.88	-61.250	-25.970	103.488	-0.78629	0.58560	-0.19168	0.04468	30.4	13111	100
2025-3-27 20:29:51.236	WT901BLE68-01(48591DE3C19B)	-0.327	-0.821	0.298	18.677	62.561	6.958	-74.92	14.76	-25.50	-61.250	-25.970	103.488	-0.78629	0.58560	-0.19168	0.04468	30.4	13111	100
2025-3-27 20:29:51.236	WT901BLE68-01(48591DE3C19B)	-0.382	-0.821	0.298	18.677	62.561	6.958	-74.87	15.01	-26.12	-61.250	-25.970	103.488	-0.78629	0.58560	-0.19168	0.04468	30.4	13111	100
2025-3-27 20:29:51.236	WT901BLE68-01(48591DE3C19B)	-0.382	-0.978	0.321	10.620	56.580	0.916	-74.86	15.22	-26.71	-61.250	-25.970	103.488	-0.78629	0.58560	-0.19168	0.04468	30.4	13111	100
2025-3-27 20:29:51.266	WT901BLE68-01(48591DE3C19B)	-0.448	-0.978	0.321	10.620	56.580	0.916	-74.89	15.39	-27.28	-61.250	-25.970	103.488	-0.78629	0.58560	-0.19168	0.04468	30.4	13111	100
2025-3-27 20:29:51.266	WT901BLE68-01(48591DE3C19B)	-0.448	-1.168	0.434	1.343	45.410	-12.207	-74.95	15.49	-27.81	-61.250	-25.970	103.488	-0.78629	0.58560	-0.19168	0.04468	30.4	13111	100
2025-3-27 20:29:51.266	WT901BLE68-01(48591DE3C19B)	-0.564	-1.168	0.434	1.343	45.410	-12.207	-75.05	15.51	-28.31	-61.250	-25.970	103.488	-0.78629	0.58560	-0.19168	0.04468	30.4	13111	100
2025-3-27 20:29:51.266	WT901BLE68-01(48591DE3C19B)	-2.257	-1.407	0.548	-10.925	25.269	-29.114	-75.19	15.41	-28.72	-61.250	-25.970	103.488	-0.78629	0.58560	-0.19168	0.04468	30.4	13111	100
2025-3-27 20:29:51.362	WT901BLE68-01(48591DE3C19B)	-0.605	-5.630	2.195	-10.925	25.269	-29.114	-75.36	15.22	-29.06	-61.250	-25.970	103.488	-0.78629	0.58560	-0.19168	0.04468	30.4	13111	100
2025-3-27 20:29:51.363	WT901BLE68-01(48591DE3C19B)	-0.605	-1.511	0.617	-19.470	-3.906	-35.950	-75.53	14.96	-29.26	-61.250	-25.970	103.488	-0.78629	0.58560	-0.19168	0.04468	30.4	13111	100
2025-3-27 20:29:51.363	WT901BLE68-01(48591DE3C19B)	-0.571	-1.511	0.617	-19.470	-3.906	-35.950	-75.70	14.63	-29.32	-61.250	-25.970	103.488	-0.78629	0.58560	-0.19168	0.04468	30.4	13111	100
2025-3-27 20:29:51.363	WT901BLE68-01(48591DE3C19B)	-0.571	-1.313	0.643	-19.470	-26.489	-31.311	-75.84	14.30	-29.26	-61.250	-25.970	103.488	-0.78629	0.58560	-0.19168	0.04468	30.4	13111	100
2025-3-27 20:29:51.363	WT901BLE68-01(48591DE3C19B)	-0.533	-1.313	0.643	-19.470	-26.489	-31.311	-75.95	13.97	-29.08	-61.250	-25.970	103.488	-0.78629	0.58560	-0.19168	0.04468	30.4	13111	100
2025-3-27 20:29:51.363	WT901BLE68-01(48591DE3C19B)	-0.533	-1.142	0.586	-22.644	-42.969	-20.813	-76.04	13.71	-28.71	-61.250	-25.970	103.488	-0.78629	0.58560	-0.19168	0.04468	30.4	13111	100
2025-3-27 20:29:51.363	WT901BLE68-01(48591DE3C19B)	-0.461	-1.142	0.586	-22.644	-42.969	-20.813	-76.13	13.44	-28.34	-61.250	-25.970	103.488	-0.78629	0.58560	-0.19168	0.04468	30.4	13111	100
2025-3-27 20:29:51.363	WT901BLE68-01(48591DE3C19B)	-0.461	-1.020	0.488	-19.897	-60.852	-9.583	-76.14	13.24	-27.77	-61.250	-25.970	103.488	-0.77615	0.57281	-0.23514	0.11859	30.4	13111	100
2025-3-27 20:29:51.388	WT901BLE68-01(48591DE3C19B)	-0.295	-1.020	0.488	-19.897	-60.852	-9.583	-76.16	13.05	-27.20	-61.250	-25.970	103.488	-0.77615	0.57281	-0.23514	0.11859	30.4	13111	100
2025-3-27 20:29:51.388	WT901BLE68-01(48591DE3C19B)	-0.295	-0.905	0.391	-15.930	-67.017	2.991	-76.11	12.96	-26.53	-61.250	-25.970	103.488	-0.77615	0.57281	-0.23514	0.11859	30.4	13111	100
2025-3-27 20:29:51.388	WT901BLE68-01(48591DE3C19B)	-0.141	-0.905	0.391	-15.930	-67.017	2.991	-76.07	12.88	-25.87	-61.250	-25.970	103.488	-0.77615	0.57281	-0.23514	0.11859	30.4	13111	100
2025-3-27 20:29:51.388	WT901BLE68-01(48591DE3C19B)	-0.141	-0.910	0.309	-8.545	-48.218	10.986	-75.99	12.91	-25.37	-61.250	-25.970	103.488	-0.77615	0.57281	-0.23514	0.11859	30.4	13111	100
2025-3-27 20:29:51.446	WT901BLE68-01(48591DE3C19B)	-0.064	-0.910	0.309	-8.545	-48.218	10.986	-75.92	12.93	-24.87	-61.250	-25.970	103.488	-0.77615	0.57281	-0.23514	0.11859	30.4	13111	100
2025-3-27 20:29:51.446	WT901BLE68-01(48591DE3C19B)	-0.064	-0.914	0.254	10.010	-5.798	14.465	-75.75	13.09	-24.79	-61.250	-25.970	103.488	-0.77615	0.57281	-0.23514	0.11859	30.4	13111	100
2025-3-27 20:29:51.447	WT901BLE68-01(48591DE3C19B)	-0.104	-0.914	0.254	10.010	-5.798	14.465	-75.59	13.24	-24.70	-61.250	-25.970	103.488	-0.77615	0.57281	-0.23514	0.11859	30.4	13111	100
2025-3-27 20:29:51.447	WT901BLE68-01(48591DE3C19B)	-0.104	-0.833	0.251	24.353	34.302	14.038	-75.38	13.47	-25.01	-61.250	-25.970	103.488	-0.77615	0.57281	-0.23514	0.11859	30.4	13111	100
2025-3-27 20:29:51.506	WT901BLE68-01(48591DE3C19B)	-0.173	-0.833	0.251	24.353	34.302	14.038	-75.17	13.71	-25.32	-61.250	-25.970	103.488	-0.77615	0.57281	-0.23514	0.11859	30.4	13111	100
2025-3-27 20:29:51.507	WT901BLE68-01(48591DE3C19B)	-0.173	-0.747	0.278	30.090	60.608	10.132	-74.97	13.97	-25.91	-61.250	-25.970	103.488	-0.77615	0.57281	-0.23514	0.11859	30.4	13111	100
2025-3-27 20:29:51.507	WT901BLE68-01(48591DE3C19B)	-0.265	-0.747	0.278	30.090	60.608	10.132	-74.78	14.23	-26.49	-61.250	-25.970	103.488	-0.77615	0.57281	-0.23514	0.11859	30.4	13111	100
2025-3-27 20:29:51.507	WT901BLE68-01(48591DE3C19B)	-0.265	-0.691	0.299	30.518	74.890	6.287	-74.62	14.50	-27.22	-61.250	-25.970	103.488	-0.77615	0.57281	-0.23514	0.11859	30.4	13111	100
2025-3-27 20:29:51.508	WT901BLE68-01(48591DE3C19B)	-0.381	-0.691	0.299	30.518	74.890	6.287	-74.47	14.76	-27.95	-61.250	-25.970	103.488	-0.77615	0.57281	-0.23514	0.11859	30.4	13111	100
2025-3-27 20:29:51.508	WT901BLE68-01(48591DE3C19B)	-0.381	-0.684	0.291	24.109	71.472	4.822	-74.37	15.01	-28.66	-61.250	-25.970	103.488	-0.77615	0.57281	-0.23514	0.11859	30.4	13111	100
2025-3-27 20:29:51.508	WT901BLE68-01(48591DE3C19B)	-0.459	-0.684	0.291	24.109	71.472	4.822	-74.28	15.26	-29.37	-61.250	-25.970	103.488	-0.77615	0.57281	-0.23514	0.11859	30.4	13111	100
2025-3-27 20:29:51.508	WT901BLE68-01(48591DE3C19B)	-0.459	-0.694	0.258	12.939	45.227	3.967	-74.23	15.44	-29.81	-61.250	-25.970	103.488	-0.77615	0.57281	-0.23514	0.11859	30.4	13111	100
2025-3-27 20:29:51.565	WT901BLE68-01(48591DE3C19B)	-0.474	-0.694	0.258	12.939	45.227	3.967	-74.19	15.62	-30.26	-61.250	-25.970	103.488	-0.77615	0.57281	-0.23514	0.11859	30.4	13111	100
2025-3-27 20:29:51.566	WT901BLE68-01(48591DE3C19B)	-0.474	-0.706	0.248	0.366	6.104	3.418	-74.17	15.70	-30.31	-61.250	-25.970	103.488	-0.77615	0.57281	-0.23514	0.11859	30.4	13111	100
2025-3-27 20:29:51.566	WT901BLE68-01(48591DE3C19B)	-0.446	-0.706	0.248	0.366	6.104	3.418	-74.15	15.78	-30.37	-61.250	-25.970	103.488	-0.77615	0.57281	-0.23514	0.11859	30.4	13111	100
2025-3-27 20:29:51.566	WT901BLE68-01(48591DE3C19B)	-0.446	-0.684	0.232	-10.986	-28.625	3.784	-74.15	15.78	-30.08	-61.250	-25.970	103.488	-0.77615	0.57281	-0.23514	0.11859	30.4	13111	100
2025-3-27 20:29:51.595	WT901BLE68-01(48591DE3C19B)	-0.399	-0.684	0.232	-10.986	-28.625	3.784	-74.15	15.78	-29.79	-68.600	-22.834	107.800	-0.77615	0.57281	-0.23514	0.11859	30.4	13111	100
2025-3-27 20:29:51.595	WT901BLE68-01(48591DE3C19B)	-0.399	-0.648	0.229	-19.165	-53.528	5.798	-74.17	15.74	-29.25	-68.600	-22.834	107.800	-0.77615	0.57281	-0.23514	0.11859	30.4	13111	100
2025-3-27 20:29:51.595	WT901BLE68-01(48591DE3C19B)	-0.343	-0.648	0.229	-19.165	-53.528	5.798	-74.19	15.70	-28.70	-68.600	-22.834	107.800	-0.77615	0.57281	-0.23514	0.11859	30.4	13111	100
2025-3-27 20:29:51.595	WT901BLE68-01(48591DE3C19B)	-0.343	-0.626	0.240	-23.743	-67.200	9.338	-74.20	15.66	-28.00	-68.600	-22.834	107.800	-0.77615	0.57281	-0.23514	0.11859	30.4	13111	100
2025-3-27 20:29:51.626	WT901BLE68-01(48591DE3C19B)	-0.283	-0.626	0.240	-23.743	-67.200	9.338	-74.22	15.63	-27.31	-68.600	-22.834	107.800	-0.77615	0.57281	-0.23514	0.11859	30.4	13111	100
2025-3-27 20:29:51.626	WT901BLE68-01(48591DE3C19B)	-0.283	-0.584	0.250	-24.231	-69.885	15.259	-74.24	15.64	-26.58	-68.600	-22.834	107.800	-0.77615	0.57281	-0.23514	0.11859	30.4	13111	100
2025-3-27 20:29:51.626	WT901BLE68-01(48591DE3C19B)	-0.200	-0.584	0.250	-24.231	-69.885	15.259	-74.25	15.65	-25.84	-68.600	-22.834	107.800	-0.77615	0.57281	-0.23514	0.11859	30.4	13111	100
2025-3-27 20:29:51.626	WT901BLE68-01(48591DE3C19B)	-0.200	-0.513	0.220	-23.376	-61.096	23.560	-74.27	15.77	-25.17	-68.600	-22.834	107.800	-0.77615	0.57281	-0.23514	0.11859	30.4	13111	100
2025-3-27 20:29:51.685	WT901BLE68-01(48591DE3C19B)	-0.115	-0.513	0.220	-23.376	-61.096	23.560	-74.29	15.88	-24.50	-68.600	-22.834	107.800	-0.77615	0.57281	-0.23514	0.11859	30.4	13111	100
2025-3-27 20:29:51.686	WT901BLE68-01(48591DE3C19B)	-0.115	-0.480	0.173	-24.902	-46.265	29.175	-74.36	16.07	-23.96	-68.600	-22.834	107.800	-0.77615	0.57281	-0.23514	0.11859	30.4	13111	100
2025-3-27 20:29:51.686	WT901BLE68-01(48591DE3C19B)	-0.106	-0.480	0.173	-24.902	-46.265	29.175	-74.42	16.27	-23.42	-68.600	-22.834	107.800	-0.77615	0.57281	-0.23514	0.11859	30.4	13111	100
2025-3-27 20:29:51.686	WT901BLE68-01(48591DE3C19B)	-0.106	-0.569	0.124	-30.090	-35.400	31.982	-74.56	16.52	-22.97	-68.600	-22.834	107.800	-0.77615	0.57281	-0.23514	0.11859	30.4	13111	100
2025-3-27 20:29:51.715	WT901BLE68-01(48591DE3C19B)	-0.154	-0.569	0.124	-30.090	-35.400	31.982	-74.71	16.76	-22.53	-68.600	-22.834	107.800	-0.77615	0.57281	-0.23514	0.11859	30.4	13111	100
2025-3-27 20:29:51.715	WT901BLE68-01(48591DE3C19B)	-0.154	-0.772	0.109	-33.569	-29.907	30.762	-74.92	17.00	-22.15	-68.600	-22.834	107.800	-0.77615	0.57281	-0.23514	0.11859	30.4	13111	100
2025-3-27 20:29:51.715	WT901BLE68-01(48591DE3C19B)	-0.212	-0.772	0.109	-33.569	-29.907	30.762	-75.12	17.23	-21.76	-68.600	-22.834	107.800	-0.77615	0.57281	-0.23514	0.11859	30.4	13111	100
2025-3-27 20:29:51.715	WT901BLE68-01(48591DE3C19B)	-0.212	-1.000	0.117	-34.607	-35.522	26.367	-75.33	17.40	-21.34	-68.600	-22.834	107.800	-0.77615	0.57281	-0.23514	0.11859	30.4	13111	100
2025-3-27 20:29:51.776	WT901BLE68-01(48591DE3C19B)	-0.247	-1.000	0.117	-34.607	-35.522	26.367	-75.55	17.56	-20.91	-68.600	-22.834	107.800	-0.77615	0.57281	-0.23514	0.11859	30.4	13111	100
2025-3-27 20:29:51.776	WT901BLE68-01(48591DE3C19B)	-0.247	-1.343	0.141	-37.048	-46.448	18.127	-75.77	17.62	-20.39	-68.600	-22.834	107.800	-0.77615	0.57281	-0.23514	0.11859	30.4	13111	100
2025-3-27 20:29:51.776	WT901BLE68-01(48591DE3C19B)	-0.291	-1.343	0.141	-37.048	-46.448	18.127	-75.99	17.67	-19.87	-68.600	-22.834	107.800	-0.77615	0.57281	-0.23514	0.11859	30.4	13111	100
2025-3-27 20:29:51.776	WT901BLE68-01(48591DE3C19B)	-0.291	-1.804	0.125	-28.015	-44.006	8.789	-76.15	17.62	-19.40	-68.600	-22.834	107.800	-0.77615	0.57281	-0.23514	0.11859	30.4	13111	100
2025-3-27 20:29:51.806	WT901BLE68-01(48591DE3C19B)	-0.245	-1.804	0.125	-28.015	-44.006	8.789	-76.31	17.58	-18.93	-68.600	-22.834	107.800	-0.77615	0.57281	-0.23514	0.11859	30.4	13111	100
2025-3-27 20:29:51.806	WT901BLE68-01(48591DE3C19B)	-0.101	-1.892	0.104	-3.845	-26.794	5.981	-76.29	17.55	-18.65	-68.600	-22.834	107.800	-0.78220	0.58289	-0.21729	0.03296	30.4	13111	100
2025-3-27 20:29:51.806	WT901BLE68-01(48591DE3C19B)	-0.101	-1.631	0.064	10.925	-3.418	8.789	-76.24	17.55	-18.48	-68.600	-22.834	107.800	-0.78220	0.58289	-0.21729	0.03296	30.4	13111	100
2025-3-27 20:29:51.806	WT901BLE68-01(48591DE3C19B)	0.069	-1.631	0.064	10.925	-3.418	8.789	-76.15	17.58	-18.43	-68.600	-22.834	107.800	-0.78220	0.58289	-0.21729	0.03296	30.4	13111	100
2025-3-27 20:29:51.866	WT901BLE68-01(48591DE3C19B)	0.069	-1.316	0.040	13.550	35.034	14.526	-76.12	17.69	-18.57	-68.600	-22.834	107.800	-0.78220	0.58289	-0.21729	0.03296	30.4	13111	100
2025-3-27 20:29:51.866	WT901BLE68-01(48591DE3C19B)	0.098	-1.316	0.040	13.550	35.034	14.526	-76.13	17.85	-18.89	-68.600	-22.834	107.800	-0.78220	0.58289	-0.21729	0.03296	30.4	13111	100
2025-3-27 20:29:51.866	WT901BLE68-01(48591DE3C19B)	0.098	-1.081	0.065	12.390	74.585	16.357	-76.21	18.07	-19.42	-68.600	-22.834	107.800	-0.78220	0.58289	-0.21729	0.03296	30.4	13111	100
2025-3-27 20:29:51.866	WT901BLE68-01(48591DE3C19B)	0.014	-1.081	0.065	12.390	74.585	16.357	-76.36	18.34	-20.15	-68.600	-22.834	107.800	-0.78220	0.58289	-0.21729	0.03296	30.4	13111	100
2025-3-27 20:29:51.895	WT901BLE68-01(48591DE3C19B)	0.014	-0.924	0.112	5.615	96.008	10.132	-76.59	18.58	-20.99	-68.600	-22.834	107.800	-0.78220	0.58289	-0.21729	0.03296	30.4	13111	100
2025-3-27 20:29:51.895	WT901BLE68-01(48591DE3C19B)	-0.069	-0.924	0.112	5.615	96.008	10.132	-76.89	18.82	-21.97	-68.600	-22.834	107.800	-0.78220	0.58289	-0.21729	0.03296	30.4	13111	100
2025-3-27 20:29:51.895	WT901BLE68-01(48591DE3C19B)	-0.069	-0.812	0.178	1.099	98.267	2.014	-77.22	19.01	-22.96	-68.600	-22.834	107.800	-0.78220	0.58289	-0.21729	0.03296	30.4	13111	100
2025-3-27 20:29:51.895	WT901BLE68-01(48591DE3C19B)	-0.132	-0.812	0.178	1.099	98.267	2.014	-77.59	19.15	-23.98	-68.600	-22.834	107.800	-0.78220	0.58289	-0.21729	0.03296	30.4	13111	100
2025-3-27 20:29:51.926	WT901BLE68-01(48591DE3C19B)	-0.132	-0.728	0.189	0.305	90.515	-3.418	-77.93	19.26	-24.96	-68.600	-22.834	107.800	-0.78220	0.58289	-0.21729	0.03296	30.4	13111	100
2025-3-27 20:29:51.926	WT901BLE68-01(48591DE3C19B)	-0.154	-0.728	0.189	0.305	90.515	-3.418	-78.27	19.33	-25.91	-68.600	-22.834	107.800	-0.78220	0.58289	-0.21729	0.03296	30.4	13111	100
2025-3-27 20:29:51.926	WT901BLE68-01(48591DE3C19B)	-0.154	-0.616	0.158	3.784	76.843	-8.728	-78.57	19.35	-26.80	-68.600	-22.834	107.800	-0.78220	0.58289	-0.21729	0.03296	30.4	13111	100
2025-3-27 20:29:51.926	WT901BLE68-01(48591DE3C19B)	-0.189	-0.616	0.158	3.784	76.843	-8.728	-78.82	19.34	-27.61	-68.600	-22.834	107.800	-0.78220	0.58289	-0.21729	0.03296	30.4	13111	100
2025-3-27 20:29:51.962	WT901BLE68-01(48591DE3C19B)	-0.189	-0.540	0.121	6.897	54.260	-11.780	-79.02	19.29	-28.32	-68.600	-22.834	107.800	-0.78220	0.58289	-0.21729	0.03296	30.4	13111	100
2025-3-27 20:29:51.962	WT901BLE68-01(48591DE3C19B)	-0.203	-0.540	0.121	6.897	54.260	-11.780	-79.16	19.20	-28.91	-68.600	-22.834	107.800	-0.78220	0.58289	-0.21729	0.03296	30.4	13111	100
2025-3-27 20:29:51.962	WT901BLE68-01(48591DE3C19B)	-0.203	-0.467	0.116	10.620	25.452	-12.085	-79.22	19.09	-29.34	-68.600	-22.834	107.800	-0.78220	0.58289	-0.21729	0.03296	30.4	13111	100
2025-3-27 20:29:51.962	WT901BLE68-01(48591DE3C19B)	-0.155	-0.467	0.116	10.620	25.452	-12.085	-79.22	18.96	-29.64	-68.600	-22.834	107.800	-0.78220	0.58289	-0.21729	0.03296	30.4	13111	100
2025-3-27 20:29:52.16	WT901BLE68-01(48591DE3C19B)	-0.155	-0.431	0.137	11.780	6.165	-10.742	-79.18	18.83	-29.82	-68.600	-22.834	107.800	-0.78220	0.58289	-0.21729	0.03296	30.4	13111	100
2025-3-27 20:29:52.16	WT901BLE68-01(48591DE3C19B)	-0.172	-0.431	0.137	11.780	6.165	-10.742	-79.09	18.68	-29.91	-67.130	-25.578	112.308	-0.78220	0.58289	-0.21729	0.03296	30.4	13111	100
2025-3-27 20:29:52.16	WT901BLE68-01(48591DE3C19B)	-0.172	-0.485	0.158	12.146	-4.333	-11.292	-78.99	18.53	-29.94	-67.130	-25.578	112.308	-0.78220	0.58289	-0.21729	0.03296	30.4	13111	100
2025-3-27 20:29:52.17	WT901BLE68-01(48591DE3C19B)	-0.274	-0.485	0.158	12.146	-4.333	-11.292	-78.85	18.36	-29.92	-67.130	-25.578	112.308	-0.78220	0.58289	-0.21729	0.03296	30.4	13111	100
2025-3-27 20:29:52.45	WT901BLE68-01(48591DE3C19B)	-0.274	-0.639	0.172	10.498	-16.174	-12.146	-78.72	18.19	-29.83	-67.130	-25.578	112.308	-0.78220	0.58289	-0.21729	0.03296	30.4	13111	100
2025-3-27 20:29:52.45	WT901BLE68-01(48591DE3C19B)	-0.308	-0.639	0.172	10.498	-16.174	-12.146	-78.56	18.01	-29.69	-67.130	-25.578	112.308	-0.78220	0.58289	-0.21729	0.03296	30.4	13111	100
2025-3-27 20:29:52.45	WT901BLE68-01(48591DE3C19B)	-0.308	-0.852	0.170	4.517	-21.729	-20.203	-78.44	17.79	-29.53	-67.130	-25.578	112.308	-0.78220	0.58289	-0.21729	0.03296	30.4	13111	100
2025-3-27 20:29:52.45	WT901BLE68-01(48591DE3C19B)	-0.407	-0.852	0.170	4.517	-21.729	-20.203	-78.33	17.53	-29.35	-67.130	-25.578	112.308	-0.78220	0.58289	-0.21729	0.03296	30.4	13111	100
2025-3-27 20:29:52.77	WT901BLE68-01(48591DE3C19B)	-0.407	-1.166	0.221	3.906	-14.526	-39.551	-78.26	17.19	-29.22	-67.130	-25.578	112.308	-0.78220	0.58289	-0.21729	0.03296	30.4	13111	100
2025-3-27 20:29:52.78	WT901BLE68-01(48591DE3C19B)	-0.556	-1.166	0.221	3.906	-14.526	-39.551	-78.20	16.77	-29.16	-67.130	-25.578	112.308	-0.78220	0.58289	-0.21729	0.03296	30.4	13111	100
2025-3-27 20:29:52.78	WT901BLE68-01(48591DE3C19B)	-0.556	-1.524	0.339	7.874	-5.737	-65.308	-78.15	16.23	-29.17	-67.130	-25.578	112.308	-0.78220	0.58289	-0.21729	0.03296	30.4	13111	100
2025-3-27 20:29:52.78	WT901BLE68-01(48591DE3C19B)	-0.652	-1.524	0.339	7.874	-5.737	-65.308	-78.09	15.59	-29.25	-67.130	-25.578	112.308	-0.78220	0.58289	-0.21729	0.03296	30.4	13111	100
2025-3-27 20:29:52.137	WT901BLE68-01(48591DE3C19B)	-0.652	-1.857	0.453	4.211	2.869	-89.111	-78.07	14.85	-29.40	-67.130	-25.578	112.308	-0.78220	0.58289	-0.21729	0.03296	30.4	13111	100
2025-3-27 20:29:52.137	WT901BLE68-01(48591DE3C19B)	-0.766	-1.857	0.453	4.211	2.869	-89.111	-78.08	14.00	-29.62	-67.130	-25.578	112.308	-0.78220	0.58289	-0.21729	0.03296	30.4	13111	100
2025-3-27 20:29:52.137	WT901BLE68-01(48591DE3C19B)	-0.766	-1.832	0.543	21.484	23.132	-94.177	-78.02	13.16	-29.94	-67.130	-25.578	112.308	-0.78220	0.58289	-0.21729	0.03296	30.4	13111	100
2025-3-27 20:29:52.137	WT901BLE68-01(48591DE3C19B)	-0.682	-1.832	0.543	21.484	23.132	-94.177	-77.89	12.32	-30.38	-67.130	-25.578	112.308	-0.78220	0.58289	-0.21729	0.03296	30.4	13111	100
2025-3-27 20:29:52.165	WT901BLE68-01(48591DE3C19B)	-0.682	-1.371	0.482	25.330	56.213	-83.557	-77.77	11.58	-30.96	-67.130	-25.578	112.308	-0.78220	0.58289	-0.21729	0.03296	30.4	13111	100
2025-3-27 20:29:52.165	WT901BLE68-01(48591DE3C19B)	-0.578	-1.371	0.482	25.330	56.213	-83.557	-77.65	10.94	-31.71	-67.130	-25.578	112.308	-0.78220	0.58289	-0.21729	0.03296	30.4	13111	100
2025-3-27 20:29:52.165	WT901BLE68-01(48591DE3C19B)	-0.578	-1.100	0.335	21.057	79.712	-66.040	-77.56	10.41	-32.55	-67.130	-25.578	112.308	-0.78220	0.58289	-0.21729	0.03296	30.4	13111	100
2025-3-27 20:29:52.165	WT901BLE68-01(48591DE3C19B)	-0.611	-1.100	0.335	21.057	79.712	-66.040	-77.50	10.00	-33.49	-67.130	-25.578	112.308	-0.75888	0.57675	-0.24579	0.17581	30.4	13111	100
2025-3-27 20:29:52.194	WT901BLE68-01(48591DE3C19B)	-0.611	-0.868	0.271	21.423	70.313	-40.405	-77.42	9.72	-34.35	-67.130	-25.578	112.308	-0.75888	0.57675	-0.24579	0.17581	30.4	13111	100
2025-3-27 20:29:52.195	WT901BLE68-01(48591DE3C19B)	-0.746	-0.868	0.271	21.423	70.313	-40.405	-77.32	9.55	-35.14	-67.130	-25.578	112.308	-0.75888	0.57675	-0.24579	0.17581	30.4	13111	100
2025-3-27 20:29:52.195	WT901BLE68-01(48591DE3C19B)	-0.746	-0.672	0.297	1.953	12.756	-13.855	-77.26	9.46	-35.61	-67.130	-25.578	112.308	-0.75888	0.57675	-0.24579	0.17581	30.4	13111	100
2025-3-27 20:29:52.195	WT901BLE68-01(48591DE3C19B)	-0.695	-0.672	0.297	1.953	12.756	-13.855	-77.25	9.45	-35.78	-67.130	-25.578	112.308	-0.75888	0.57675	-0.24579	0.17581	30.4	13111	100
2025-3-27 20:29:52.255	WT901BLE68-01(48591DE3C19B)	-0.695	-0.659	0.315	-25.208	-58.838	6.104	-77.31	9.47	-35.56	-67.130	-25.578	112.308	-0.75888	0.57675	-0.24579	0.17581	30.4	13111	100
2025-3-27 20:29:52.255	WT901BLE68-01(48591DE3C19B)	-0.507	-0.659	0.315	-25.208	-58.838	6.104	-77.44	9.51	-34.97	-67.130	-25.578	112.308	-0.75888	0.57675	-0.24579	0.17581	30.4	13111	100
2025-3-27 20:29:52.255	WT901BLE68-01(48591DE3C19B)	-0.507	-0.638	0.324	-26.367	-80.750	32.349	-77.54	9.67	-34.25	-67.130	-25.578	112.308	-0.75888	0.57675	-0.24579	0.17581	30.4	13111	100
2025-3-27 20:29:52.255	WT901BLE68-01(48591DE3C19B)	-0.378	-0.638	0.324	-26.367	-80.750	32.349	-77.62	9.93	-33.38	-67.130	-25.578	112.308	-0.75888	0.57675	-0.24579	0.17581	30.4	13111	100
2025-3-27 20:29:52.286	WT901BLE68-01(48591DE3C19B)	-0.378	-0.525	0.321	-19.836	-68.787	51.147	-77.64	10.40	-32.60	-67.130	-25.578	112.308	-0.75888	0.57675	-0.24579	0.17581	30.4	13111	100
2025-3-27 20:29:52.286	WT901BLE68-01(48591DE3C19B)	-0.230	-0.525	0.321	-19.836	-68.787	51.147	-77.65	10.87	-31.81	-67.130	-25.578	112.308	-0.75888	0.57675	-0.24579	0.17581	30.4	13111	100
2025-3-27 20:29:52.286	WT901BLE68-01(48591DE3C19B)	-0.230	-0.347	0.265	-14.832	-48.279	64.331	-77.63	11.51	-31.20	-67.130	-25.578	112.308	-0.75888	0.57675	-0.24579	0.17581	30.4	13111	100
2025-3-27 20:29:52.286	WT901BLE68-01(48591DE3C19B)	-0.112	-0.347	0.265	-14.832	-48.279	64.331	-77.60	12.15	-30.57	-67.130	-25.578	112.308	-0.75888	0.57675	-0.24579	0.17581	30.4	13111	100
2025-3-27 20:29:52.315	WT901BLE68-01(48591DE3C19B)	-0.112	-0.202	0.226	-14.343	-22.705	75.012	-77.60	12.93	-30.19	-67.130	-25.578	112.308	-0.75888	0.57675	-0.24579	0.17581	30.4	13111	100
2025-3-27 20:29:52.315	WT901BLE68-01(48591DE3C19B)	-0.099	-0.202	0.226	-14.343	-22.705	75.012	-77.59	13.71	-29.80	-67.130	-25.578	112.308	-0.75888	0.57675	-0.24579	0.17581	30.4	13111	100
2025-3-27 20:29:52.315	WT901BLE68-01(48591DE3C19B)	-0.099	-0.112	0.207	-16.418	-1.526	79.041	-77.63	14.57	-29.61	-67.130	-25.578	112.308	-0.75888	0.57675	-0.24579	0.17581	30.4	13111	100
2025-3-27 20:29:52.315	WT901BLE68-01(48591DE3C19B)	-0.193	-0.112	0.207	-16.418	-1.526	79.041	-77.67	15.42	-29.43	-67.130	-25.578	112.308	-0.75888	0.57675	-0.24579	0.17581	30.4	13111	100
2025-3-27 20:29:52.377	WT901BLE68-01(48591DE3C19B)	-0.193	-0.183	0.195	-28.198	0.854	80.872	-77.83	16.30	-29.26	-67.130	-25.578	112.308	-0.75888	0.57675	-0.24579	0.17581	30.4	13111	100
2025-3-27 20:29:52.377	WT901BLE68-01(48591DE3C19B)	-0.273	-0.183	0.195	-28.198	0.854	80.872	-77.97	17.17	-29.09	-67.130	-25.578	112.308	-0.75888	0.57675	-0.24579	0.17581	30.4	13111	100
2025-3-27 20:29:52.377	WT901BLE68-01(48591DE3C19B)	-0.273	-0.506	0.146	-42.480	-19.470	79.529	-78.20	17.98	-28.72	-67.130	-25.578	112.308	-0.75888	0.57675	-0.24579	0.17581	30.4	13111	100
2025-3-27 20:29:52.377	WT901BLE68-01(48591DE3C19B)	-0.311	-0.506	0.146	-42.480	-19.470	79.529	-78.43	18.79	-28.34	-67.130	-25.578	112.308	-0.75888	0.57675	-0.24579	0.17581	30.4	13111	100
2025-3-27 20:29:52.408	WT901BLE68-01(48591DE3C19B)	-0.311	-0.874	0.034	-49.438	-46.265	75.317	-78.64	19.50	-27.70	-63.014	-23.324	108.780	-0.75888	0.57675	-0.24579	0.17581	30.4	13111	100
2025-3-27 20:29:52.408	WT901BLE68-01(48591DE3C19B)	-0.357	-0.874	0.034	-49.438	-46.265	75.317	-78.87	20.20	-27.05	-63.014	-23.324	108.780	-0.75888	0.57675	-0.24579	0.17581	30.4	13111	100
2025-3-27 20:29:52.409	WT901BLE68-01(48591DE3C19B)	-0.357	-1.531	-0.039	-54.016	-66.528	68.176	-79.09	20.77	-26.20	-63.014	-23.324	108.780	-0.75888	0.57675	-0.24579	0.17581	30.4	13111	100
2025-3-27 20:29:52.409	WT901BLE68-01(48591DE3C19B)	-0.410	-1.531	-0.039	-54.016	-66.528	68.176	-79.31	21.33	-25.34	-63.014	-23.324	108.780	-0.75888	0.57675	-0.24579	0.17581	30.4	13111	100
2025-3-27 20:29:52.438	WT901BLE68-01(48591DE3C19B)	-0.410	-2.532	-0.122	-23.743	-73.181	38.818	-79.25	21.57	-24.48	-63.014	-23.324	108.780	-0.75888	0.57675	-0.24579	0.17581	30.4	13111	100
2025-3-27 20:29:52.438	WT901BLE68-01(48591DE3C19B)	-0.383	-2.532	-0.122	-23.743	-73.181	38.818	-79.20	21.79	-23.61	-63.014	-23.324	108.780	-0.75888	0.57675	-0.24579	0.17581	30.4	13111	100
2025-3-27 20:29:52.438	WT901BLE68-01(48591DE3C19B)	-0.383	-2.364	-0.083	34.485	-71.960	33.997	-78.59	21.95	-22.76	-63.014	-23.324	108.780	-0.75888	0.57675	-0.24579	0.17581	30.4	13111	100
2025-3-27 20:29:52.438	WT901BLE68-01(48591DE3C19B)	-0.232	-2.364	-0.083	34.485	-71.960	33.997	-77.98	22.09	-21.92	-63.014	-23.324	108.780	-0.75888	0.57675	-0.24579	0.17581	30.4	13111	100
2025-3-27 20:29:52.496	WT901BLE68-01(48591DE3C19B)	-0.232	-1.675	-0.069	35.156	-57.068	22.461	-77.44	22.14	-21.25	-63.014	-23.324	108.780	-0.75888	0.57675	-0.24579	0.17581	30.4	13111	100
2025-3-27 20:29:52.496	WT901BLE68-01(48591DE3C19B)	-0.028	-1.675	-0.069	35.156	-57.068	22.461	-76.91	22.18	-20.59	-63.014	-23.324	108.780	-0.75888	0.57675	-0.24579	0.17581	30.4	13111	100
2025-3-27 20:29:52.496	WT901BLE68-01(48591DE3C19B)	-0.028	-1.421	-0.043	28.870	-16.174	22.156	-76.61	22.30	-20.35	-63.014	-23.324	108.780	-0.75888	0.57675	-0.24579	0.17581	30.4	13111	100
2025-3-27 20:29:52.496	WT901BLE68-01(48591DE3C19B)	0.028	-1.421	-0.043	28.870	-16.174	22.156	-76.31	22.41	-20.12	-63.014	-23.324	108.780	-0.75888	0.57675	-0.24579	0.17581	30.4	13111	100
2025-3-27 20:29:52.525	WT901BLE68-01(48591DE3C19B)	0.028	-1.092	0.089	24.048	33.630	22.766	-76.26	22.63	-20.41	-63.014	-23.324	108.780	-0.75888	0.57675	-0.24579	0.17581	30.4	13111	100
2025-3-27 20:29:52.525	WT901BLE68-01(48591DE3C19B)	-0.064	-1.092	0.089	24.048	33.630	22.766	-76.20	22.85	-20.70	-63.014	-23.324	108.780	-0.75888	0.57675	-0.24579	0.17581	30.4	13111	100
2025-3-27 20:29:52.525	WT901BLE68-01(48591DE3C19B)	-0.064	-0.825	0.223	12.756	50.598	19.775	-76.33	23.08	-21.18	-63.014	-23.324	108.780	-0.75888	0.57675	-0.24579	0.17581	30.4	13111	100
2025-3-27 20:29:52.525	WT901BLE68-01(48591DE3C19B)	-0.135	-0.825	0.223	12.756	50.598	19.775	-76.46	23.30	-21.66	-63.014	-23.324	108.780	-0.75888	0.57675	-0.24579	0.17581	30.4	13111	100
2025-3-27 20:29:52.561	WT901BLE68-01(48591DE3C19B)	-0.135	-0.645	0.303	5.676	37.598	12.939	-76.60	23.43	-22.02	-63.014	-23.324	108.780	-0.75888	0.57675	-0.24579	0.17581	30.4	13111	100
2025-3-27 20:29:52.561	WT901BLE68-01(48591DE3C19B)	-0.088	-0.645	0.303	5.676	37.598	12.939	-76.74	23.55	-22.38	-63.014	-23.324	108.780	-0.75888	0.57675	-0.24579	0.17581	30.4	13111	100
2025-3-27 20:29:52.562	WT901BLE68-01(48591DE3C19B)	-0.088	-0.413	0.293	8.362	27.832	14.648	-76.80	23.67	-22.63	-63.014	-23.324	108.780	-0.75888	0.57675	-0.24579	0.17581	30.4	13111	100
2025-3-27 20:29:52.562	WT901BLE68-01(48591DE3C19B)	-0.013	-0.413	0.293	8.362	27.832	14.648	-76.85	23.79	-22.88	-63.014	-23.324	108.780	-0.75888	0.57675	-0.24579	0.17581	30.4	13111	100
2025-3-27 20:29:52.616	WT901BLE68-01(48591DE3C19B)	-0.013	-0.215	0.213	9.521	34.119	23.743	-76.90	24.01	-23.17	-63.014	-23.324	108.780	-0.75888	0.57675	-0.24579	0.17581	30.4	13111	100
2025-3-27 20:29:52.616	WT901BLE68-01(48591DE3C19B)	-0.030	-0.215	0.213	9.521	34.119	23.743	-76.94	24.22	-23.47	-63.014	-23.324	108.780	-0.77597	0.56216	-0.28452	0.02786	30.4	13111	100
2025-3-27 20:29:52.616	WT901BLE68-01(48591DE3C19B)	-0.030	-0.177	0.124	11.475	42.969	31.006	-77.00	24.52	-23.83	-63.014	-23.324	108.780	-0.77597	0.56216	-0.28452	0.02786	30.4	13111	100
2025-3-27 20:29:52.617	WT901BLE68-01(48591DE3C19B)	-0.114	-0.177	0.124	11.475	42.969	31.006	-77.05	24.83	-24.21	-63.014	-23.324	108.780	-0.77597	0.56216	-0.28452	0.02786	30.4	13111	100
2025-3-27 20:29:52.645	WT901BLE68-01(48591DE3C19B)	-0.114	-0.216	0.099	11.475	32.837	39.795	-77.04	25.19	-24.45	-63.014	-23.324	108.780	-0.77597	0.56216	-0.28452	0.02786	30.4	13111	100
2025-3-27 20:29:52.645	WT901BLE68-01(48591DE3C19B)	-0.250	-0.216	0.099	11.475	32.837	39.795	-77.04	25.56	-24.69	-63.014	-23.324	108.780	-0.77597	0.56216	-0.28452	0.02786	30.4	13111	100
2025-3-27 20:29:52.645	WT901BLE68-01(48591DE3C19B)	-0.250	-0.388	0.147	3.723	7.141	44.556	-76.98	25.92	-24.64	-63.014	-23.324	108.780	-0.77597	0.56216	-0.28452	0.02786	30.4	13111	100
2025-3-27 20:29:52.645	WT901BLE68-01(48591DE3C19B)	-0.491	-0.388	0.147	3.723	7.141	44.556	-76.93	26.29	-24.60	-63.014	-23.324	108.780	-0.77597	0.56216	-0.28452	0.02786	30.4	13111	100
2025-3-27 20:29:52.680	WT901BLE68-01(48591DE3C19B)	-0.491	-0.728	0.278	5.737	-32.104	50.476	-76.65	26.64	-24.10	-63.014	-23.324	108.780	-0.77597	0.56216	-0.28452	0.02786	30.4	13111	100
2025-3-27 20:29:52.680	WT901BLE68-01(48591DE3C19B)	-0.575	-0.728	0.278	5.737	-32.104	50.476	-76.35	27.00	-23.61	-63.014	-23.324	108.780	-0.77597	0.56216	-0.28452	0.02786	30.4	13111	100
2025-3-27 20:29:52.680	WT901BLE68-01(48591DE3C19B)	-0.575	-1.146	0.287	-1.526	-64.148	42.175	-75.99	27.21	-22.78	-63.014	-23.324	108.780	-0.77597	0.56216	-0.28452	0.02786	30.4	13111	100
2025-3-27 20:29:52.680	WT901BLE68-01(48591DE3C19B)	-0.323	-1.146	0.287	-1.526	-64.148	42.175	-75.63	27.41	-21.95	-63.014	-23.324	108.780	-0.77597	0.56216	-0.28452	0.02786	30.4	13111	100
2025-3-27 20:29:52.736	WT901BLE68-01(48591DE3C19B)	-0.323	-1.458	0.170	11.719	-57.068	21.057	-75.20	27.42	-21.26	-63.014	-23.324	108.780	-0.77597	0.56216	-0.28452	0.02786	30.4	13111	100
2025-3-27 20:29:52.736	WT901BLE68-01(48591DE3C19B)	-0.295	-1.458	0.170	11.719	-57.068	21.057	-74.78	27.42	-20.57	-63.014	-23.324	108.780	-0.77597	0.56216	-0.28452	0.02786	30.4	13111	100
2025-3-27 20:29:52.736	WT901BLE68-01(48591DE3C19B)	-0.583	-1.548	0.070	25.696	-3.479	-9.949	-74.55	27.26	-20.57	-63.014	-23.324	108.780	-0.77597	0.56216	-0.28452	0.02786	30.4	13111	100
2025-3-27 20:29:52.736	WT901BLE68-01(48591DE3C19B)	-0.583	-1.700	0.159	20.203	36.987	-48.340	-74.48	26.96	-20.86	-63.014	-23.324	108.780	-0.77597	0.56216	-0.28452	0.02786	30.4	13111	100
2025-3-27 20:29:52.767	WT901BLE68-01(48591DE3C19B)	-0.845	-1.700	0.159	20.203	36.987	-48.340	-74.56	26.54	-21.42	-63.014	-23.324	108.780	-0.77597	0.56216	-0.28452	0.02786	30.4	13111	100
2025-3-27 20:29:52.768	WT901BLE68-01(48591DE3C19B)	-0.845	-1.593	0.455	17.822	72.205	-77.087	-74.75	26.02	-22.20	-63.014	-23.324	108.780	-0.77597	0.56216	-0.28452	0.02786	30.4	13111	100
2025-3-27 20:29:52.768	WT901BLE68-01(48591DE3C19B)	-0.918	-1.593	0.455	17.822	72.205	-77.087	-75.04	25.43	-23.20	-63.014	-23.324	108.780	-0.77597	0.56216	-0.28452	0.02786	30.4	13111	100
2025-3-27 20:29:52.768	WT901BLE68-01(48591DE3C19B)	-0.918	-1.170	0.688	27.954	98.328	-72.754	-75.31	24.90	-24.31	-63.014	-23.324	108.780	-0.77597	0.56216	-0.28452	0.02786	30.4	13111	100
2025-3-27 20:29:52.798	WT901BLE68-01(48591DE3C19B)	-0.831	-1.170	0.688	27.954	98.328	-72.754	-75.56	24.42	-25.53	-63.014	-23.324	108.780	-0.77597	0.56216	-0.28452	0.02786	30.4	13111	100
2025-3-27 20:29:52.798	WT901BLE68-01(48591DE3C19B)	-0.831	-0.738	0.670	22.400	90.637	-53.833	-75.78	24.04	-26.66	-63.014	-23.324	108.780	-0.77597	0.56216	-0.28452	0.02786	30.4	13111	100
2025-3-27 20:29:52.798	WT901BLE68-01(48591DE3C19B)	-0.567	-0.738	0.670	22.400	90.637	-53.833	-75.99	23.75	-27.72	-54.782	-16.366	96.922	-0.77597	0.56216	-0.28452	0.02786	30.4	13111	100
2025-3-27 20:29:52.798	WT901BLE68-01(48591DE3C19B)	-0.567	-0.522	0.438	3.113	51.331	-37.415	-76.18	23.50	-28.53	-54.782	-16.366	96.922	-0.77597	0.56216	-0.28452	0.02786	30.4	13111	100
2025-3-27 20:29:52.856	WT901BLE68-01(48591DE3C19B)	-0.394	-0.522	0.438	3.113	51.331	-37.415	-76.37	23.29	-29.11	-54.782	-16.366	96.922	-0.77597	0.56216	-0.28452	0.02786	30.4	13111	100
2025-3-27 20:29:52.856	WT901BLE68-01(48591DE3C19B)	-0.394	-0.459	0.214	-8.423	-2.014	-23.438	-76.48	23.09	-29.37	-54.782	-16.366	96.922	-0.77597	0.56216	-0.28452	0.02786	30.4	13111	100
2025-3-27 20:29:52.856	WT901BLE68-01(48591DE3C19B)	-0.306	-0.459	0.214	-8.423	-2.014	-23.438	-76.54	22.90	-29.34	-54.782	-16.366	96.922	-0.77597	0.56216	-0.28452	0.02786	30.4	13111	100
2025-3-27 20:29:52.856	WT901BLE68-01(48591DE3C19B)	-0.306	-0.415	0.098	-16.785	-52.979	-14.221	-76.53	22.69	-29.03	-54.782	-16.366	96.922	-0.77597	0.56216	-0.28452	0.02786	30.4	13111	100
2025-3-27 20:29:52.885	WT901BLE68-01(48591DE3C19B)	-0.153	-0.415	0.098	-16.785	-52.979	-14.221	-76.46	22.48	-28.44	-54.782	-16.366	96.922	-0.77597	0.56216	-0.28452	0.02786	30.4	13111	100
2025-3-27 20:29:52.885	WT901BLE68-01(48591DE3C19B)	-0.153	-0.330	0.066	-14.526	-61.279	-1.648	-76.35	22.32	-27.79	-54.782	-16.366	96.922	-0.77597	0.56216	-0.28452	0.02786	30.4	13111	100
2025-3-27 20:29:52.885	WT901BLE68-01(48591DE3C19B)	-0.092	-0.330	0.066	-14.526	-61.279	-1.648	-76.22	22.21	-27.09	-54.782	-16.366	96.922	-0.77597	0.56216	-0.28452	0.02786	30.4	13111	100
2025-3-27 20:29:52.885	WT901BLE68-01(48591DE3C19B)	-0.092	-0.169	0.063	-7.996	-28.931	5.676	-76.12	22.17	-26.56	-54.782	-16.366	96.922	-0.77597	0.56216	-0.28452	0.02786	30.4	13111	100
2025-3-27 20:29:52.916	WT901BLE68-01(48591DE3C19B)	-0.111	-0.169	0.063	-7.996	-28.931	5.676	-76.05	22.20	-26.19	-54.782	-16.366	96.922	-0.77597	0.56216	-0.28452	0.02786	30.4	13111	100
2025-3-27 20:29:52.916	WT901BLE68-01(48591DE3C19B)	-0.111	-0.093	0.092	-10.132	12.634	10.681	-76.07	22.31	-26.03	-54.782	-16.366	96.922	-0.77597	0.56216	-0.28452	0.02786	30.4	13111	100
2025-3-27 20:29:52.916	WT901BLE68-01(48591DE3C19B)	-0.264	-0.093	0.092	-10.132	12.634	10.681	-76.17	22.49	-26.07	-54.782	-16.366	96.922	-0.77597	0.56216	-0.28452	0.02786	30.4	13111	100
2025-3-27 20:29:52.916	WT901BLE68-01(48591DE3C19B)	-0.264	-0.294	0.151	-15.442	32.654	9.827	-76.34	22.69	-26.22	-54.782	-16.366	96.922	-0.77597	0.56216	-0.28452	0.02786	30.4	13111	100
2025-3-27 20:29:52.978	WT901BLE68-01(48591DE3C19B)	-0.454	-0.294	0.151	-15.442	32.654	9.827	-76.58	22.92	-26.48	-54.782	-16.366	96.922	-0.77597	0.56216	-0.28452	0.02786	30.4	13111	100
2025-3-27 20:29:52.978	WT901BLE68-01(48591DE3C19B)	-0.454	-0.578	0.183	-16.907	12.756	3.662	-76.79	23.09	-26.64	-54.782	-16.366	96.922	-0.77597	0.56216	-0.28452	0.02786	30.4	13111	100
2025-3-27 20:29:52.978	WT901BLE68-01(48591DE3C19B)	-0.538	-0.578	0.183	-16.907	12.756	3.662	-76.96	23.21	-26.70	-54.782	-16.366	96.922	-0.77597	0.56216	-0.28452	0.02786	30.4	13111	100
2025-3-27 20:29:52.979	WT901BLE68-01(48591DE3C19B)	-0.538	-0.890	0.111	-25.574	-28.687	-1.099	-77.11	23.27	-26.54	-54.782	-16.366	96.922	-0.77597	0.56216	-0.28452	0.02786	30.4	13111	100
2025-3-27 20:29:53.9	WT901BLE68-01(48591DE3C19B)	-0.468	-0.890	0.111	-25.574	-28.687	-1.099	-77.22	23.25	-26.17	-54.782	-16.366	96.922	-0.77396	0.55963	-0.29178	0.05081	30.4	13111	100
2025-3-27 20:29:53.9	WT901BLE68-01(48591DE3C19B)	-0.468	-1.369	-0.007	-35.706	-55.542	-11.963	-77.34	23.15	-25.69	-54.782	-16.366	96.922	-0.77396	0.55963	-0.29178	0.05081	30.4	13111	100
2025-3-27 20:29:53.9	WT901BLE68-01(48591DE3C19B)	-0.409	-1.369	-0.007	-35.706	-55.542	-11.963	-77.48	22.95	-25.08	-54.782	-16.366	96.922	-0.77396	0.55963	-0.29178	0.05081	30.4	13111	100
2025-3-27 20:29:53.9	WT901BLE68-01(48591DE3C19B)	-0.409	-2.148	-0.050	-34.119	-52.185	-29.541	-77.63	22.65	-24.53	-54.782	-16.366	96.922	-0.77396	0.55963	-0.29178	0.05081	30.4	13111	100
2025-3-27 20:29:53.38	WT901BLE68-01(48591DE3C19B)	-0.523	-2.148	-0.050	-34.119	-52.185	-29.541	-77.82	22.26	-24.04	-54.782	-16.366	96.922	-0.77396	0.55963	-0.29178	0.05081	30.4	13111	100
2025-3-27 20:29:53.38	WT901BLE68-01(48591DE3C19B)	-0.523	-2.449	0.070	12.390	-44.983	-26.184	-77.79	21.88	-23.59	-54.782	-16.366	96.922	-0.77396	0.55963	-0.29178	0.05081	30.4	13111	100
2025-3-27 20:29:53.38	WT901BLE68-01(48591DE3C19B)	-0.467	-2.449	0.070	12.390	-44.983	-26.184	-77.56	21.52	-23.19	-54.782	-16.366	96.922	-0.77396	0.55963	-0.29178	0.05081	30.4	13111	100
2025-3-27 20:29:53.38	WT901BLE68-01(48591DE3C19B)	-0.467	-1.667	0.234	24.658	-44.861	-22.522	-77.28	21.17	-22.79	-54.782	-16.366	96.922	-0.77396	0.55963	-0.29178	0.05081	30.4	13111	100
2025-3-27 20:29:53.96	WT901BLE68-01(48591DE3C19B)	-0.128	-1.667	0.234	24.658	-44.861	-22.522	-76.93	20.84	-22.38	-54.782	-16.366	96.922	-0.77396	0.55963	-0.29178	0.05081	30.4	13111	100
2025-3-27 20:29:53.96	WT901BLE68-01(48591DE3C19B)	-0.128	-1.335	0.230	12.390	-17.334	-4.028	-76.69	20.62	-22.11	-54.782	-16.366	96.922	-0.77396	0.55963	-0.29178	0.05081	30.4	13111	100
2025-3-27 20:29:53.96	WT901BLE68-01(48591DE3C19B)	0.013	-1.335	0.230	12.390	-17.334	-4.028	-76.55	20.51	-21.96	-54.782	-16.366	96.922	-0.77396	0.55963	-0.29178	0.05081	30.4	13111	100
2025-3-27 20:29:53.96	WT901BLE68-01(48591DE3C19B)	0.013	-1.107	0.221	16.785	40.710	13.794	-76.49	20.56	-22.09	-54.782	-16.366	96.922	-0.77396	0.55963	-0.29178	0.05081	30.4	13111	100
2025-3-27 20:29:53.125	WT901BLE68-01(48591DE3C19B)	-0.075	-1.107	0.221	16.785	40.710	13.794	-76.50	20.75	-22.51	-54.782	-16.366	96.922	-0.77396	0.55963	-0.29178	0.05081	30.4	13111	100
2025-3-27 20:29:53.125	WT901BLE68-01(48591DE3C19B)	-0.075	-0.832	0.195	18.921	76.599	22.583	-76.56	21.01	-23.09	-54.782	-16.366	96.922	-0.77396	0.55963	-0.29178	0.05081	30.4	13111	100
2025-3-27 20:29:53.125	WT901BLE68-01(48591DE3C19B)	-0.176	-0.832	0.195	18.921	76.599	22.583	-76.68	21.36	-23.86	-54.782	-16.366	96.922	-0.77396	0.55963	-0.29178	0.05081	30.4	13111	100
2025-3-27 20:29:53.125	WT901BLE68-01(48591DE3C19B)	-0.176	-0.579	0.205	19.348	68.848	22.278	-76.78	21.69	-24.58	-54.782	-16.366	96.922	-0.77396	0.55963	-0.29178	0.05081	30.4	13111	100
2025-3-27 20:29:53.158	WT901BLE68-01(48591DE3C19B)	-0.117	-0.579	0.205	19.348	68.848	22.278	-76.87	22.00	-25.26	-54.782	-16.366	96.922	-0.77396	0.55963	-0.29178	0.05081	30.4	13111	100
2025-3-27 20:29:53.158	WT901BLE68-01(48591DE3C19B)	-0.117	-0.311	0.222	21.118	55.420	27.893	-76.92	22.33	-25.86	-54.782	-16.366	96.922	-0.77396	0.55963	-0.29178	0.05081	30.4	13111	100
2025-3-27 20:29:53.158	WT901BLE68-01(48591DE3C19B)	-0.045	-0.311	0.222	21.118	55.420	27.893	-76.92	22.66	-26.38	-54.782	-16.366	96.922	-0.77396	0.55963	-0.29178	0.05081	30.4	13111	100
2025-3-27 20:29:53.158	WT901BLE68-01(48591DE3C19B)	-0.045	-0.104	0.162	20.325	60.852	40.222	-76.93	23.07	-26.92	-54.782	-16.366	96.922	-0.77396	0.55963	-0.29178	0.05081	30.4	13111	100
2025-3-27 20:29:53.216	WT901BLE68-01(48591DE3C19B)	-0.162	-0.104	0.162	20.325	60.852	40.222	-76.95	23.54	-27.47	-54.782	-16.366	96.922	-0.77396	0.55963	-0.29178	0.05081	30.4	13111	100
2025-3-27 20:29:53.216	WT901BLE68-01(48591DE3C19B)	-0.162	-0.144	0.112	16.357	64.148	52.734	-77.01	24.13	-28.02	-50.764	-13.720	86.240	-0.77396	0.55963	-0.29178	0.05081	30.4	13111	100
2025-3-27 20:29:53.216	WT901BLE68-01(48591DE3C19B)	-0.414	-0.144	0.112	16.357	64.148	52.734	-77.07	24.73	-28.56	-50.764	-13.720	86.240	-0.77396	0.55963	-0.29178	0.05081	30.4	13111	100
2025-3-27 20:29:53.217	WT901BLE68-01(48591DE3C19B)	-0.414	-0.387	0.142	10.864	42.053	58.411	-77.09	25.34	-28.86	-50.764	-13.720	86.240	-0.77396	0.55963	-0.29178	0.05081	30.4	13111	100
2025-3-27 20:29:53.245	WT901BLE68-01(48591DE3C19B)	-0.594	-0.387	0.142	10.864	42.053	58.411	-77.11	25.96	-29.14	-50.764	-13.720	86.240	-0.77396	0.55963	-0.29178	0.05081	30.4	13111	100
2025-3-27 20:29:53.245	WT901BLE68-01(48591DE3C19B)	-0.594	-0.654	0.177	1.099	5.859	52.429	-77.06	26.46	-29.04	-50.764	-13.720	86.240	-0.77396	0.55963	-0.29178	0.05081	30.4	13111	100
2025-3-27 20:29:53.245	WT901BLE68-01(48591DE3C19B)	-0.679	-0.654	0.177	1.099	5.859	52.429	-77.01	26.96	-28.94	-50.764	-13.720	86.240	-0.77396	0.55963	-0.29178	0.05081	30.4	13111	100
2025-3-27 20:29:53.245	WT901BLE68-01(48591DE3C19B)	-0.679	-0.973	0.187	-9.033	-26.672	29.846	-76.93	27.18	-28.53	-50.764	-13.720	86.240	-0.77396	0.55963	-0.29178	0.05081	30.4	13111	100
2025-3-27 20:29:53.306	WT901BLE68-01(48591DE3C19B)	-0.717	-0.973	0.187	-9.033	-26.672	29.846	-76.84	27.41	-28.12	-50.764	-13.720	86.240	-0.77396	0.55963	-0.29178	0.05081	30.4	13111	100
2025-3-27 20:29:53.307	WT901BLE68-01(48591DE3C19B)	-0.717	-1.307	0.233	-4.333	-52.002	-11.414	-76.64	27.17	-27.54	-50.764	-13.720	86.240	-0.77396	0.55963	-0.29178	0.05081	30.4	13111	100
2025-3-27 20:29:53.307	WT901BLE68-01(48591DE3C19B)	-0.708	-1.307	0.233	-4.333	-52.002	-11.414	-76.44	26.95	-26.96	-50.764	-13.720	86.240	-0.77396	0.55963	-0.29178	0.05081	30.4	13111	100
2025-3-27 20:29:53.307	WT901BLE68-01(48591DE3C19B)	-0.708	-1.474	0.326	5.066	-64.636	-48.706	-76.15	26.32	-26.36	-50.764	-13.720	86.240	-0.77396	0.55963	-0.29178	0.05081	30.4	13111	100
2025-3-27 20:29:53.335	WT901BLE68-01(48591DE3C19B)	-0.731	-1.474	0.326	5.066	-64.636	-48.706	-75.86	25.70	-25.76	-50.764	-13.720	86.240	-0.77396	0.55963	-0.29178	0.05081	30.4	13111	100
2025-3-27 20:29:53.335	WT901BLE68-01(48591DE3C19B)	-0.731	-1.645	0.424	6.897	-44.312	-74.402	-75.68	24.88	-25.46	-50.764	-13.720	86.240	-0.77396	0.55963	-0.29178	0.05081	30.4	13111	100
2025-3-27 20:29:53.335	WT901BLE68-01(48591DE3C19B)	-0.675	-1.645	0.424	6.897	-44.312	-74.402	-75.51	24.05	-25.18	-50.764	-13.720	86.240	-0.77396	0.55963	-0.29178	0.05081	30.4	13111	100
2025-3-27 20:29:53.335	WT901BLE68-01(48591DE3C19B)	-0.675	-1.366	0.477	25.330	19.043	-75.012	-75.43	23.39	-25.55	-50.764	-13.720	86.240	-0.77396	0.55963	-0.29178	0.05081	30.4	13111	100
2025-3-27 20:29:53.396	WT901BLE68-01(48591DE3C19B)	-0.605	-1.366	0.477	25.330	19.043	-75.012	-75.33	22.73	-25.94	-50.764	-13.720	86.240	-0.77396	0.55963	-0.29178	0.05081	30.4	13111	100
2025-3-27 20:29:53.396	WT901BLE68-01(48591DE3C19B)	-0.605	-0.978	0.505	30.029	70.740	-64.880	-75.38	22.30	-26.82	-50.764	-13.720	86.240	-0.77396	0.55963	-0.29178	0.05081	30.4	13111	100
2025-3-27 20:29:53.397	WT901BLE68-01(48591DE3C19B)	-0.474	-0.978	0.505	30.029	70.740	-64.880	-75.42	21.88	-27.71	-50.764	-13.720	86.240	-0.77396	0.55963	-0.29178	0.05081	30.4	13111	100
2025-3-27 20:29:53.397	WT901BLE68-01(48591DE3C19B)	-0.474	-0.672	0.414	25.146	93.628	-47.913	-75.56	21.68	-28.77	-50.764	-13.720	86.240	-0.77396	0.55963	-0.29178	0.05081	30.4	13111	100
2025-3-27 20:29:53.425	WT901BLE68-01(48591DE3C19B)	-0.500	-0.672	0.414	25.146	93.628	-47.913	-75.69	21.48	-29.82	-50.764	-13.720	86.240	-0.77396	0.55963	-0.29178	0.05081	30.4	13111	100
2025-3-27 20:29:53.425	WT901BLE68-01(48591DE3C19B)	-0.500	-0.434	0.292	11.841	80.994	-32.043	-75.88	21.41	-30.70	-50.764	-13.720	86.240	-0.77396	0.55963	-0.29178	0.05081	30.4	13111	100
2025-3-27 20:29:53.425	WT901BLE68-01(48591DE3C19B)	-0.511	-0.434	0.292	11.841	80.994	-32.043	-76.07	21.34	-31.56	-50.764	-13.720	86.240	-0.77396	0.55963	-0.29178	0.05081	30.4	13111	100
2025-3-27 20:29:53.425	WT901BLE68-01(48591DE3C19B)	-0.511	-0.429	0.228	-19.897	12.390	-21.790	-76.31	21.21	-31.68	-50.764	-13.720	86.240	-0.77396	0.55963	-0.29178	0.05081	30.4	13111	100
2025-3-27 20:29:53.456	WT901BLE68-01(48591DE3C19B)	-0.346	-0.429	0.228	-19.897	12.390	-21.790	-76.54	21.10	-31.79	-50.764	-13.720	86.240	-0.77325	0.54745	-0.30359	0.10031	30.4	13111	100
2025-3-27 20:29:53.456	WT901BLE68-01(48591DE3C19B)	-0.346	-0.545	0.225	-35.400	-48.218	0.671	-76.67	21.06	-31.22	-50.764	-13.720	86.240	-0.77325	0.54745	-0.30359	0.10031	30.4	13111	100
2025-3-27 20:29:53.456	WT901BLE68-01(48591DE3C19B)	-0.261	-0.545	0.225	-35.400	-48.218	0.671	-76.81	21.02	-30.65	-50.764	-13.720	86.240	-0.77325	0.54745	-0.30359	0.10031	30.4	13111	100
2025-3-27 20:29:53.456	WT901BLE68-01(48591DE3C19B)	-0.261	-0.442	0.267	-24.597	-61.218	24.597	-76.76	21.18	-29.89	-50.764	-13.720	86.240	-0.77325	0.54745	-0.30359	0.10031	30.4	13111	100
2025-3-27 20:29:53.485	WT901BLE68-01(48591DE3C19B)	-0.158	-0.442	0.267	-24.597	-61.218	24.597	-76.70	21.34	-29.13	-50.764	-13.720	86.240	-0.77325	0.54745	-0.30359	0.10031	30.4	13111	100
2025-3-27 20:29:53.485	WT901BLE68-01(48591DE3C19B)	-0.158	-0.241	0.237	-20.874	-51.025	37.292	-76.63	21.65	-28.45	-50.764	-13.720	86.240	-0.77325	0.54745	-0.30359	0.10031	30.4	13111	100
2025-3-27 20:29:53.485	WT901BLE68-01(48591DE3C19B)	-0.097	-0.241	0.237	-20.874	-51.025	37.292	-76.55	21.95	-27.77	-50.764	-13.720	86.240	-0.77325	0.54745	-0.30359	0.10031	30.4	13111	100
2025-3-27 20:29:53.485	WT901BLE68-01(48591DE3C19B)	-0.097	-0.319	0.198	-24.231	-29.724	42.786	-76.57	22.35	-27.30	-50.764	-13.720	86.240	-0.77325	0.54745	-0.30359	0.10031	30.4	13111	100
2025-3-27 20:29:53.579	WT901BLE68-01(48591DE3C19B)	-0.186	-0.319	0.198	-24.231	-29.724	42.786	-76.59	22.74	-26.83	-50.764	-13.720	86.240	-0.77325	0.54745	-0.30359	0.10031	30.4	13111	100
2025-3-27 20:29:53.579	WT901BLE68-01(48591DE3C19B)	-0.186	-0.601	0.123	-26.428	-10.376	36.011	-76.71	23.09	-26.59	-50.764	-13.720	86.240	-0.77325	0.54745	-0.30359	0.10031	30.4	13111	100
2025-3-27 20:29:53.579	WT901BLE68-01(48591DE3C19B)	-0.284	-0.601	0.123	-26.428	-10.376	36.011	-76.84	23.44	-26.36	-50.764	-13.720	86.240	-0.77325	0.54745	-0.30359	0.10031	30.4	13111	100
2025-3-27 20:29:53.579	WT901BLE68-01(48591DE3C19B)	-0.284	-0.980	0.023	-36.987	-9.338	20.203	-77.11	23.64	-26.18	-50.764	-13.720	86.240	-0.77325	0.54745	-0.30359	0.10031	30.4	13111	100
2025-3-27 20:29:53.580	WT901BLE68-01(48591DE3C19B)	-0.420	-0.980	0.023	-36.987	-9.338	20.203	-77.39	23.82	-26.01	-50.764	-13.720	86.240	-0.77325	0.54745	-0.30359	0.10031	30.4	13111	100
2025-3-27 20:29:53.580	WT901BLE68-01(48591DE3C19B)	-0.420	-1.626	0.014	-39.124	-17.944	-0.244	-77.69	23.77	-25.80	-50.764	-13.720	86.240	-0.77325	0.54745	-0.30359	0.10031	30.4	13111	100
2025-3-27 20:29:53.580	WT901BLE68-01(48591DE3C19B)	-0.531	-1.626	0.014	-39.124	-17.944	-0.244	-78.00	23.72	-25.60	-50.764	-13.720	86.240	-0.77325	0.54745	-0.30359	0.10031	30.4	13111	100
2025-3-27 20:29:53.580	WT901BLE68-01(48591DE3C19B)	-0.531	-2.422	0.006	-20.813	-31.250	-23.560	-78.12	23.41	-25.33	-50.764	-13.720	86.240	-0.77325	0.54745	-0.30359	0.10031	30.4	13111	100
2025-3-27 20:29:53.608	WT901BLE68-01(48591DE3C19B)	-0.465	-2.422	0.006	-20.813	-31.250	-23.560	-78.24	23.08	-25.06	-50.764	-13.720	86.240	-0.77325	0.54745	-0.30359	0.10031	30.4	13111	100
2025-3-27 20:29:53.609	WT901BLE68-01(48591DE3C19B)	-0.465	-2.284	0.154	38.757	-52.979	-26.489	-77.70	22.68	-24.57	-50.764	-13.720	86.240	-0.77325	0.54745	-0.30359	0.10031	30.4	13111	100
2025-3-27 20:29:53.609	WT901BLE68-01(48591DE3C19B)	-0.193	-2.284	0.154	38.757	-52.979	-26.489	-77.16	22.27	-24.10	-45.570	-9.408	76.930	-0.77325	0.54745	-0.30359	0.10031	30.4	13111	100
2025-3-27 20:29:53.609	WT901BLE68-01(48591DE3C19B)	-0.193	-1.477	0.204	37.720	-42.603	-28.687	-76.68	21.86	-23.74	-45.570	-9.408	76.930	-0.77325	0.54745	-0.30359	0.10031	30.4	13111	100
2025-3-27 20:29:53.666	WT901BLE68-01(48591DE3C19B)	0.035	-1.477	0.204	37.720	-42.603	-28.687	-76.22	21.43	-23.40	-45.570	-9.408	76.930	-0.77325	0.54745	-0.30359	0.10031	30.4	13111	100
2025-3-27 20:29:53.666	WT901BLE68-01(48591DE3C19B)	0.005	-1.168	0.156	33.020	5.005	-18.066	-75.97	21.23	-23.53	-45.570	-9.408	76.930	-0.77325	0.54745	-0.30359	0.10031	30.4	13111	100
2025-3-27 20:29:53.666	WT901BLE68-01(48591DE3C19B)	0.005	-0.888	0.181	27.527	52.429	-9.583	-75.84	21.11	-23.90	-45.570	-9.408	76.930	-0.77325	0.54745	-0.30359	0.10031	30.4	13111	100
2025-3-27 20:29:53.666	WT901BLE68-01(48591DE3C19B)	-0.075	-0.888	0.181	27.527	52.429	-9.583	-75.82	21.09	-24.50	-45.570	-9.408	76.930	-0.77325	0.54745	-0.30359	0.10031	30.4	13111	100
2025-3-27 20:29:53.695	WT901BLE68-01(48591DE3C19B)	-0.075	-0.732	0.230	14.099	66.101	-11.963	-75.88	21.07	-25.17	-45.570	-9.408	76.930	-0.77325	0.54745	-0.30359	0.10031	30.4	13111	100
2025-3-27 20:29:53.695	WT901BLE68-01(48591DE3C19B)	-0.141	-0.732	0.230	14.099	66.101	-11.963	-76.04	21.05	-25.92	-45.570	-9.408	76.930	-0.77325	0.54745	-0.30359	0.10031	30.4	13111	100
2025-3-27 20:29:53.695	WT901BLE68-01(48591DE3C19B)	-0.141	-0.647	0.312	13.855	61.157	-16.968	-76.18	20.99	-26.64	-45.570	-9.408	76.930	-0.77325	0.54745	-0.30359	0.10031	30.4	13111	100
2025-3-27 20:29:53.695	WT901BLE68-01(48591DE3C19B)	-0.182	-0.647	0.312	13.855	61.157	-16.968	-76.32	20.91	-27.33	-45.570	-9.408	76.930	-0.77325	0.54745	-0.30359	0.10031	30.4	13111	100
2025-3-27 20:29:53.726	WT901BLE68-01(48591DE3C19B)	-0.182	-0.440	0.301	24.719	59.509	-16.174	-76.38	20.83	-28.02	-45.570	-9.408	76.930	-0.77325	0.54745	-0.30359	0.10031	30.4	13111	100
2025-3-27 20:29:53.726	WT901BLE68-01(48591DE3C19B)	-0.192	-0.440	0.301	24.719	59.509	-16.174	-76.38	20.76	-28.69	-45.570	-9.408	76.930	-0.77325	0.54745	-0.30359	0.10031	30.4	13111	100
2025-3-27 20:29:53.726	WT901BLE68-01(48591DE3C19B)	-0.192	-0.220	0.150	26.245	62.317	-8.362	-76.37	20.73	-29.35	-45.570	-9.408	76.930	-0.77325	0.54745	-0.30359	0.10031	30.4	13111	100
2025-3-27 20:29:53.726	WT901BLE68-01(48591DE3C19B)	-0.229	-0.220	0.150	26.245	62.317	-8.362	-76.34	20.74	-30.02	-45.570	-9.408	76.930	-0.77325	0.54745	-0.30359	0.10031	30.4	13111	100
2025-3-27 20:29:53.786	WT901BLE68-01(48591DE3C19B)	-0.229	-0.151	0.026	26.245	66.162	6.775	-76.31	20.84	-30.68	-45.570	-9.408	76.930	-0.77325	0.54745	-0.30359	0.10031	30.4	13111	100
2025-3-27 20:29:53.786	WT901BLE68-01(48591DE3C19B)	-0.318	-0.151	0.026	26.245	66.162	6.775	-76.28	21.02	-31.34	-45.570	-9.408	76.930	-0.77325	0.54745	-0.30359	0.10031	30.4	13111	100
2025-3-27 20:29:53.786	WT901BLE68-01(48591DE3C19B)	-0.318	-0.169	-0.003	16.846	47.668	14.832	-76.27	21.24	-31.89	-45.570	-9.408	76.930	-0.77325	0.54745	-0.30359	0.10031	30.4	13111	100
2025-3-27 20:29:53.787	WT901BLE68-01(48591DE3C19B)	-0.379	-0.169	-0.003	16.846	47.668	14.832	-76.27	21.47	-32.33	-45.570	-9.408	76.930	-0.77325	0.54745	-0.30359	0.10031	30.4	13111	100
2025-3-27 20:29:53.815	WT901BLE68-01(48591DE3C19B)	-0.379	-0.382	0.038	0.488	14.709	15.259	-76.29	21.69	-32.59	-45.570	-9.408	76.930	-0.77380	0.54053	-0.31299	0.10483	30.4	13111	100
2025-3-27 20:29:53.815	WT901BLE68-01(48591DE3C19B)	-0.457	-0.382	0.038	0.488	14.709	15.259	-76.34	21.87	-32.67	-45.570	-9.408	76.930	-0.77380	0.54053	-0.31299	0.10483	30.4	13111	100
2025-3-27 20:29:53.815	WT901BLE68-01(48591DE3C19B)	-0.457	-0.657	0.067	-5.188	-11.353	6.165	-76.37	21.99	-32.62	-45.570	-9.408	76.930	-0.77380	0.54053	-0.31299	0.10483	30.4	13111	100
2025-3-27 20:29:53.815	WT901BLE68-01(48591DE3C19B)	-0.566	-0.657	0.067	-5.188	-11.353	6.165	-76.38	22.05	-32.45	-45.570	-9.408	76.930	-0.77380	0.54053	-0.31299	0.10483	30.4	13111	100
2025-3-27 20:29:53.846	WT901BLE68-01(48591DE3C19B)	-0.566	-0.884	0.102	-9.216	-32.227	-13.550	-76.39	21.99	-32.19	-45.570	-9.408	76.930	-0.77380	0.54053	-0.31299	0.10483	30.4	13111	100
2025-3-27 20:29:53.846	WT901BLE68-01(48591DE3C19B)	-0.666	-0.884	0.102	-9.216	-32.227	-13.550	-76.39	21.81	-31.85	-45.570	-9.408	76.930	-0.77380	0.54053	-0.31299	0.10483	30.4	13111	100
2025-3-27 20:29:53.846	WT901BLE68-01(48591DE3C19B)	-0.666	-1.231	0.170	-12.268	-62.988	-46.936	-76.37	21.45	-31.39	-45.570	-9.408	76.930	-0.77380	0.54053	-0.31299	0.10483	30.4	13111	100
2025-3-27 20:29:53.846	WT901BLE68-01(48591DE3C19B)	-0.787	-1.231	0.170	-12.268	-62.988	-46.936	-76.33	20.88	-30.82	-45.570	-9.408	76.930	-0.77380	0.54053	-0.31299	0.10483	30.4	13111	100
2025-3-27 20:29:53.907	WT901BLE68-01(48591DE3C19B)	-0.787	-1.607	0.376	-13.184	-91.064	-91.370	-76.26	20.07	-30.17	-45.570	-9.408	76.930	-0.77380	0.54053	-0.31299	0.10483	30.4	13111	100
2025-3-27 20:29:53.907	WT901BLE68-01(48591DE3C19B)	-0.929	-1.607	0.376	-13.184	-91.064	-91.370	-76.18	19.02	-29.44	-45.570	-9.408	76.930	-0.77380	0.54053	-0.31299	0.10483	30.4	13111	100
2025-3-27 20:29:53.907	WT901BLE68-01(48591DE3C19B)	-0.929	-2.016	0.572	-9.766	-89.905	-101.807	-76.10	17.91	-28.74	-45.570	-9.408	76.930	-0.77380	0.54053	-0.31299	0.10483	30.4	13111	100
2025-3-27 20:29:53.907	WT901BLE68-01(48591DE3C19B)	-0.864	-2.016	0.572	-9.766	-89.905	-101.807	-76.01	16.77	-28.07	-45.570	-9.408	76.930	-0.77380	0.54053	-0.31299	0.10483	30.4	13111	100
2025-3-27 20:29:53.935	WT901BLE68-01(48591DE3C19B)	-0.864	-1.657	0.665	13.855	-55.054	-89.600	-75.87	15.72	-27.56	-45.570	-9.408	76.930	-0.77380	0.54053	-0.31299	0.10483	30.4	13111	100
2025-3-27 20:29:53.935	WT901BLE68-01(48591DE3C19B)	-0.611	-1.657	0.665	13.855	-55.054	-89.600	-75.65	14.78	-27.23	-45.570	-9.408	76.930	-0.77380	0.54053	-0.31299	0.10483	30.4	13111	100
2025-3-27 20:29:53.935	WT901BLE68-01(48591DE3C19B)	-0.611	-1.177	0.576	10.803	-8.301	-73.120	-75.49	13.99	-27.11	-45.570	-9.408	76.930	-0.77380	0.54053	-0.31299	0.10483	30.4	13111	100
2025-3-27 20:29:53.935	WT901BLE68-01(48591DE3C19B)	-0.413	-1.177	0.576	10.803	-8.301	-73.120	-75.40	13.34	-27.21	-45.570	-9.408	76.930	-0.77380	0.54053	-0.31299	0.10483	30.4	13111	100
2025-3-27 20:29:53.966	WT901BLE68-01(48591DE3C19B)	-0.413	-0.932	0.377	4.211	17.883	-41.138	-75.36	12.88	-27.40	-45.570	-9.408	76.930	-0.77380	0.54053	-0.31299	0.10483	30.4	13111	100
2025-3-27 20:29:53.966	WT901BLE68-01(48591DE3C19B)	-0.462	-0.932	0.377	4.211	17.883	-41.138	-75.36	12.60	-27.67	-45.570	-9.408	76.930	-0.77380	0.54053	-0.31299	0.10483	30.4	13111	100
2025-3-27 20:29:53.966	WT901BLE68-01(48591DE3C19B)	-0.462	-0.805	0.253	-9.277	-10.864	-11.292	-75.39	12.43	-27.77	-45.570	-9.408	76.930	-0.77380	0.54053	-0.31299	0.10483	30.4	13111	100
2025-3-27 20:29:53.966	WT901BLE68-01(48591DE3C19B)	-0.420	-0.805	0.253	-9.277	-10.864	-11.292	-75.45	12.38	-27.69	-45.570	-9.408	76.930	-0.77380	0.54053	-0.31299	0.10483	30.4	13111	100
2025-3-27 20:29:54.26	WT901BLE68-01(48591DE3C19B)	-0.420	-0.694	0.182	-30.212	-65.552	13.184	-75.55	12.37	-27.30	-45.570	-9.408	76.930	-0.77380	0.54053	-0.31299	0.10483	30.4	13111	100
2025-3-27 20:29:54.26	WT901BLE68-01(48591DE3C19B)	-0.272	-0.694	0.182	-30.212	-65.552	13.184	-75.68	12.42	-26.61	-48.216	-0.882	72.618	-0.77380	0.54053	-0.31299	0.10483	30.4	13111	100
2025-3-27 20:29:54.26	WT901BLE68-01(48591DE3C19B)	-0.272	-0.612	0.195	-32.654	-75.378	45.227	-75.82	12.61	-25.83	-48.216	-0.882	72.618	-0.77380	0.54053	-0.31299	0.10483	30.4	13111	100
2025-3-27 20:29:54.27	WT901BLE68-01(48591DE3C19B)	-0.163	-0.612	0.195	-32.654	-75.378	45.227	-75.93	12.95	-24.98	-48.216	-0.882	72.618	-0.77380	0.54053	-0.31299	0.10483	30.4	13111	100
2025-3-27 20:29:54.55	WT901BLE68-01(48591DE3C19B)	-0.163	-0.394	0.209	-25.879	-46.570	65.674	-76.04	13.41	-24.24	-48.216	-0.882	72.618	-0.77380	0.54053	-0.31299	0.10483	30.4	13111	100
2025-3-27 20:29:54.55	WT901BLE68-01(48591DE3C19B)	-0.069	-0.394	0.209	-25.879	-46.570	65.674	-76.12	14.01	-23.62	-48.216	-0.882	72.618	-0.77380	0.54053	-0.31299	0.10483	30.4	13111	100
2025-3-27 20:29:54.55	WT901BLE68-01(48591DE3C19B)	-0.069	-0.169	0.224	-23.682	-19.043	80.566	-76.21	14.71	-23.13	-48.216	-0.882	72.618	-0.77380	0.54053	-0.31299	0.10483	30.4	13111	100
2025-3-27 20:29:54.55	WT901BLE68-01(48591DE3C19B)	-0.038	-0.169	0.224	-23.682	-19.043	80.566	-76.31	15.51	-22.75	-48.216	-0.882	72.618	-0.77380	0.54053	-0.31299	0.10483	30.4	13111	100
2025-3-27 20:29:54.86	WT901BLE68-01(48591DE3C19B)	-0.038	-0.088	0.245	-26.917	-8.301	86.060	-76.43	16.34	-22.42	-48.216	-0.882	72.618	-0.77380	0.54053	-0.31299	0.10483	30.4	13111	100
2025-3-27 20:29:54.86	WT901BLE68-01(48591DE3C19B)	-0.105	-0.088	0.245	-26.917	-8.301	86.060	-76.56	17.20	-22.14	-48.216	-0.882	72.618	-0.77380	0.54053	-0.31299	0.10483	30.4	13111	100
2025-3-27 20:29:54.86	WT901BLE68-01(48591DE3C19B)	-0.105	-0.276	0.250	-33.630	-10.498	81.909	-76.71	18.03	-21.85	-48.216	-0.882	72.618	-0.77380	0.54053	-0.31299	0.10483	30.4	13111	100
2025-3-27 20:29:54.86	WT901BLE68-01(48591DE3C19B)	-0.250	-0.276	0.250	-33.630	-10.498	81.909	-76.88	18.84	-21.56	-48.216	-0.882	72.618	-0.77380	0.54053	-0.31299	0.10483	30.4	13111	100
2025-3-27 20:29:54.146	WT901BLE68-01(48591DE3C19B)	-0.250	-0.654	0.199	-36.438	-16.602	67.322	-77.06	19.48	-21.24	-48.216	-0.882	72.618	-0.77380	0.54053	-0.31299	0.10483	30.4	13111	100
2025-3-27 20:29:54.146	WT901BLE68-01(48591DE3C19B)	-0.318	-0.654	0.199	-36.438	-16.602	67.322	-77.25	20.12	-20.92	-48.216	-0.882	72.618	-0.77380	0.54053	-0.31299	0.10483	30.4	13111	100
2025-3-27 20:29:54.146	WT901BLE68-01(48591DE3C19B)	-0.318	-1.020	0.087	-35.095	-25.024	54.565	-77.41	20.61	-20.55	-48.216	-0.882	72.618	-0.77380	0.54053	-0.31299	0.10483	30.4	13111	100
2025-3-27 20:29:54.146	WT901BLE68-01(48591DE3C19B)	-0.397	-1.020	0.087	-35.095	-25.024	54.565	-77.59	21.09	-20.18	-48.216	-0.882	72.618	-0.77380	0.54053	-0.31299	0.10483	30.4	13111	100
2025-3-27 20:29:54.178	WT901BLE68-01(48591DE3C19B)	-0.397	-1.541	0.030	-36.621	-39.063	37.903	-77.75	21.37	-19.71	-48.216	-0.882	72.618	-0.77380	0.54053	-0.31299	0.10483	30.4	13111	100
2025-3-27 20:29:54.178	WT901BLE68-01(48591DE3C19B)	-0.436	-1.541	0.030	-36.621	-39.063	37.903	-77.93	21.65	-19.25	-48.216	-0.882	72.618	-0.77380	0.54053	-0.31299	0.10483	30.4	13111	100
2025-3-27 20:29:54.178	WT901BLE68-01(48591DE3C19B)	-0.436	-2.215	-0.066	-23.621	-55.603	13.977	-77.95	21.65	-18.68	-48.216	-0.882	72.618	-0.77380	0.54053	-0.31299	0.10483	30.4	13111	100
2025-3-27 20:29:54.178	WT901BLE68-01(48591DE3C19B)	-0.396	-2.215	-0.066	-23.621	-55.603	13.977	-77.98	21.65	-18.11	-48.216	-0.882	72.618	-0.77380	0.54053	-0.31299	0.10483	30.4	13111	100
2025-3-27 20:29:54.208	WT901BLE68-01(48591DE3C19B)	-0.396	-2.471	-0.024	13.550	-75.073	15.259	-77.59	21.60	-17.34	-48.216	-0.882	72.618	-0.77380	0.54053	-0.31299	0.10483	30.4	13111	100
2025-3-27 20:29:54.208	WT901BLE68-01(48591DE3C19B)	-0.280	-2.471	-0.024	13.550	-75.073	15.259	-77.20	21.55	-16.58	-48.216	-0.882	72.618	-0.77380	0.54053	-0.31299	0.10483	30.4	13111	100
2025-3-27 20:29:54.208	WT901BLE68-01(48591DE3C19B)	-0.280	-1.838	0.106	36.133	-78.003	11.292	-76.59	21.44	-15.81	-48.216	-0.882	72.618	-0.77963	0.58298	-0.22836	-0.00809	30.4	13111	100
2025-3-27 20:29:54.208	WT901BLE68-01(48591DE3C19B)	-0.030	-1.838	0.106	36.133	-78.003	11.292	-75.98	21.32	-15.05	-48.216	-0.882	72.618	-0.77963	0.58298	-0.22836	-0.00809	30.4	13111	100
2025-3-27 20:29:54.266	WT901BLE68-01(48591DE3C19B)	-0.030	-1.404	0.159	34.424	-50.537	16.785	-75.50	21.31	-14.56	-48.216	-0.882	72.618	-0.77963	0.58298	-0.22836	-0.00809	30.4	13111	100
2025-3-27 20:29:54.266	WT901BLE68-01(48591DE3C19B)	0.102	-1.404	0.159	34.424	-50.537	16.785	-75.01	21.29	-14.07	-48.216	-0.882	72.618	-0.77963	0.58298	-0.22836	-0.00809	30.4	13111	100
2025-3-27 20:29:54.266	WT901BLE68-01(48591DE3C19B)	0.102	-0.942	0.206	36.194	-7.263	28.687	-74.67	21.48	-14.00	-48.216	-0.882	72.618	-0.77963	0.58298	-0.22836	-0.00809	30.4	13111	100
2025-3-27 20:29:54.267	WT901BLE68-01(48591DE3C19B)	0.152	-0.942	0.206	36.194	-7.263	28.687	-74.32	21.67	-13.93	-48.216	-0.882	72.618	-0.77963	0.58298	-0.22836	-0.00809	30.4	13111	100
2025-3-27 20:29:54.295	WT901BLE68-01(48591DE3C19B)	0.152	-0.551	0.227	29.724	35.278	35.278	-74.19	22.03	-14.28	-48.216	-0.882	72.618	-0.77963	0.58298	-0.22836	-0.00809	30.4	13111	100
2025-3-27 20:29:54.295	WT901BLE68-01(48591DE3C19B)	0.040	-0.551	0.227	29.724	35.278	35.278	-74.06	22.38	-14.63	-48.216	-0.882	72.618	-0.77963	0.58298	-0.22836	-0.00809	30.4	13111	100
2025-3-27 20:29:54.295	WT901BLE68-01(48591DE3C19B)	0.040	-0.379	0.193	19.104	57.739	28.015	-74.13	22.71	-15.24	-48.216	-0.882	72.618	-0.77963	0.58298	-0.22836	-0.00809	30.4	13111	100
2025-3-27 20:29:54.295	WT901BLE68-01(48591DE3C19B)	-0.007	-0.379	0.193	19.104	57.739	28.015	-74.20	23.04	-15.84	-48.216	-0.882	72.618	-0.77963	0.58298	-0.22836	-0.00809	30.4	13111	100
2025-3-27 20:29:54.388	WT901BLE68-01(48591DE3C19B)	-0.007	-0.340	0.158	12.695	62.012	28.870	-74.34	23.39	-16.49	-48.216	-0.882	72.618	-0.77963	0.58298	-0.22836	-0.00809	30.4	13111	100
2025-3-27 20:29:54.388	WT901BLE68-01(48591DE3C19B)	0.026	-0.340	0.158	12.695	62.012	28.870	-74.49	23.72	-17.13	-48.216	-0.882	72.618	-0.77963	0.58298	-0.22836	-0.00809	30.4	13111	100
2025-3-27 20:29:54.388	WT901BLE68-01(48591DE3C19B)	0.026	-0.228	0.143	16.052	72.754	31.677	-74.65	24.11	-17.88	-48.216	-0.882	72.618	-0.77963	0.58298	-0.22836	-0.00809	30.4	13111	100
2025-3-27 20:29:54.389	WT901BLE68-01(48591DE3C19B)	-0.049	-0.228	0.143	16.052	72.754	31.677	-74.81	24.50	-18.63	-48.216	-0.882	72.618	-0.77963	0.58298	-0.22836	-0.00809	30.4	13111	100
2025-3-27 20:29:54.389	WT901BLE68-01(48591DE3C19B)	-0.049	-0.135	0.174	18.616	77.698	36.804	-74.95	24.94	-19.41	-48.216	-0.882	72.618	-0.77963	0.58298	-0.22836	-0.00809	30.4	13111	100
2025-3-27 20:29:54.389	WT901BLE68-01(48591DE3C19B)	-0.262	-0.135	0.174	18.616	77.698	36.804	-75.10	25.37	-20.19	-48.216	-0.882	72.618	-0.77963	0.58298	-0.22836	-0.00809	30.4	13111	100
2025-3-27 20:29:54.389	WT901BLE68-01(48591DE3C19B)	-0.262	-0.246	0.226	15.686	58.289	36.255	-75.17	25.76	-20.76	-48.216	-0.882	72.618	-0.77963	0.58298	-0.22836	-0.00809	30.4	13111	100
2025-3-27 20:29:54.389	WT901BLE68-01(48591DE3C19B)	-0.433	-0.246	0.226	15.686	58.289	36.255	-75.25	26.16	-21.32	-48.216	-0.882	72.618	-0.77963	0.58298	-0.22836	-0.00809	30.4	13111	100
2025-3-27 20:29:54.417	WT901BLE68-01(48591DE3C19B)	-0.433	-0.519	0.233	10.315	13.672	23.926	-75.17	26.33	-21.43	-48.216	-0.882	72.618	-0.77963	0.58298	-0.22836	-0.00809	30.4	13111	100
2025-3-27 20:29:54.418	WT901BLE68-01(48591DE3C19B)	-0.529	-0.519	0.233	10.315	13.672	23.926	-75.09	26.53	-21.54	-48.216	-0.882	72.618	-0.77963	0.58298	-0.22836	-0.00809	30.4	13111	100
2025-3-27 20:29:54.418	WT901BLE68-01(48591DE3C19B)	-0.529	-0.856	0.218	4.761	-35.522	2.258	-74.86	26.40	-21.17	-48.216	-0.882	72.618	-0.77963	0.58298	-0.22836	-0.00809	30.4	13111	100
2025-3-27 20:29:54.418	WT901BLE68-01(48591DE3C19B)	-0.548	-0.856	0.218	4.761	-35.522	2.258	-74.62	26.28	-20.79	-38.318	-5.390	70.168	-0.77963	0.58298	-0.22836	-0.00809	30.4	13111	100
2025-3-27 20:29:54.447	WT901BLE68-01(48591DE3C19B)	-0.548	-1.236	0.195	1.709	-70.313	-25.818	-74.31	25.81	-20.13	-38.318	-5.390	70.168	-0.77963	0.58298	-0.22836	-0.00809	30.4	13111	100
2025-3-27 20:29:54.448	WT901BLE68-01(48591DE3C19B)	-0.477	-1.236	0.195	1.709	-70.313	-25.818	-74.01	25.34	-19.47	-38.318	-5.390	70.168	-0.77963	0.58298	-0.22836	-0.00809	30.4	13111	100
2025-3-27 20:29:54.448	WT901BLE68-01(48591DE3C19B)	-0.477	-1.711	0.234	5.005	-70.251	-64.392	-73.75	24.50	-18.95	-38.318	-5.390	70.168	-0.77963	0.58298	-0.22836	-0.00809	30.4	13111	100
2025-3-27 20:29:54.448	WT901BLE68-01(48591DE3C19B)	-0.469	-1.711	0.234	5.005	-70.251	-64.392	-73.50	23.65	-18.45	-38.318	-5.390	70.168	-0.77963	0.58298	-0.22836	-0.00809	30.4	13111	100
2025-3-27 20:29:54.566	WT901BLE68-01(48591DE3C19B)	-0.469	-2.196	0.351	16.357	-36.804	-90.332	-73.33	22.65	-18.38	-38.318	-5.390	70.168	-0.77963	0.58298	-0.22836	-0.00809	30.4	13111	100
2025-3-27 20:29:54.566	WT901BLE68-01(48591DE3C19B)	-0.559	-2.196	0.351	16.357	-36.804	-90.332	-73.17	21.65	-18.32	-38.318	-5.390	70.168	-0.77963	0.58298	-0.22836	-0.00809	30.4	13111	100
2025-3-27 20:29:54.567	WT901BLE68-01(48591DE3C19B)	-0.559	-1.881	0.517	39.978	18.311	-99.670	-72.98	20.73	-18.86	-38.318	-5.390	70.168	-0.77963	0.58298	-0.22836	-0.00809	30.4	13111	100
2025-3-27 20:29:54.567	WT901BLE68-01(48591DE3C19B)	-0.512	-1.881	0.517	39.978	18.311	-99.670	-72.78	19.81	-19.40	-38.318	-5.390	70.168	-0.77963	0.58298	-0.22836	-0.00809	30.4	13111	100
2025-3-27 20:29:54.567	WT901BLE68-01(48591DE3C19B)	-0.512	-1.320	0.656	36.682	68.787	-86.426	-72.77	19.18	-20.40	-38.318	-5.390	70.168	-0.77963	0.58298	-0.22836	-0.00809	30.4	13111	100
2025-3-27 20:29:54.567	WT901BLE68-01(48591DE3C19B)	-0.456	-1.320	0.656	36.682	68.787	-86.426	-72.73	18.54	-21.39	-38.318	-5.390	70.168	-0.77963	0.58298	-0.22836	-0.00809	30.4	13111	100
2025-3-27 20:29:54.568	WT901BLE68-01(48591DE3C19B)	-0.456	-0.976	0.675	34.119	108.032	-67.993	-72.80	18.21	-22.71	-38.318	-5.390	70.168	-0.77963	0.58298	-0.22836	-0.00809	30.4	13111	100
2025-3-27 20:29:54.568	WT901BLE68-01(48591DE3C19B)	-0.470	-0.976	0.675	34.119	108.032	-67.993	-72.86	17.88	-24.02	-38.318	-5.390	70.168	-0.77963	0.58298	-0.22836	-0.00809	30.4	13111	100
2025-3-27 20:29:54.568	WT901BLE68-01(48591DE3C19B)	-0.470	-0.751	0.528	15.747	100.586	-46.326	-73.04	17.73	-25.18	-38.318	-5.390	70.168	-0.77963	0.58298	-0.22836	-0.00809	30.4	13111	100
2025-3-27 20:29:54.568	WT901BLE68-01(48591DE3C19B)	-0.476	-0.751	0.528	15.747	100.586	-46.326	-73.21	17.59	-26.33	-38.318	-5.390	70.168	-0.77963	0.58298	-0.22836	-0.00809	30.4	13111	100
2025-3-27 20:29:54.568	WT901BLE68-01(48591DE3C19B)	-0.417	-0.754	0.353	-9.460	33.813	-40.894	-73.42	17.31	-26.78	-38.318	-5.390	70.168	-0.77963	0.58298	-0.22836	-0.00809	30.4	13111	100
2025-3-27 20:29:54.568	WT901BLE68-01(48591DE3C19B)	-0.417	-0.875	0.286	-20.874	-25.146	-27.222	-73.59	17.02	-26.93	-38.318	-5.390	70.168	-0.77963	0.58298	-0.22836	-0.00809	30.4	13111	100
2025-3-27 20:29:54.626	WT901BLE68-01(48591DE3C19B)	-0.545	-0.875	0.286	-20.874	-25.146	-27.222	-73.72	16.71	-26.75	-38.318	-5.390	70.168	-0.77963	0.58298	-0.22836	-0.00809	30.4	13111	100
2025-3-27 20:29:54.627	WT901BLE68-01(48591DE3C19B)	-0.545	-0.893	0.305	-10.681	-39.185	-17.212	-73.77	16.44	-26.49	-38.318	-5.390	70.168	-0.79016	0.55206	-0.24741	0.09781	30.4	13111	100
2025-3-27 20:29:54.627	WT901BLE68-01(48591DE3C19B)	-0.509	-0.893	0.305	-10.681	-39.185	-17.212	-73.76	16.20	-26.14	-38.318	-5.390	70.168	-0.79016	0.55206	-0.24741	0.09781	30.4	13111	100
2025-3-27 20:29:54.627	WT901BLE68-01(48591DE3C19B)	-0.509	-0.720	0.297	-2.380	-29.907	-13.428	-73.72	16.00	-25.84	-38.318	-5.390	70.168	-0.79016	0.55206	-0.24741	0.09781	30.4	13111	100
2025-3-27 20:29:54.655	WT901BLE68-01(48591DE3C19B)	-0.406	-0.720	0.297	-2.380	-29.907	-13.428	-73.65	15.83	-25.58	-38.318	-5.390	70.168	-0.79016	0.55206	-0.24741	0.09781	30.4	13111	100
2025-3-27 20:29:54.655	WT901BLE68-01(48591DE3C19B)	-0.406	-0.561	0.255	5.554	1.221	-5.615	-73.58	15.75	-25.47	-38.318	-5.390	70.168	-0.79016	0.55206	-0.24741	0.09781	30.4	13111	100
2025-3-27 20:29:54.655	WT901BLE68-01(48591DE3C19B)	-0.403	-0.561	0.255	5.554	1.221	-5.615	-73.50	15.75	-25.49	-38.318	-5.390	70.168	-0.79016	0.55206	-0.24741	0.09781	30.4	13111	100
2025-3-27 20:29:54.655	WT901BLE68-01(48591DE3C19B)	-0.403	-0.473	0.244	14.404	20.264	-4.822	-73.41	15.79	-25.60	-38.318	-5.390	70.168	-0.79016	0.55206	-0.24741	0.09781	30.4	13111	100
2025-3-27 20:29:54.716	WT901BLE68-01(48591DE3C19B)	-0.363	-0.473	0.244	14.404	20.264	-4.822	-73.30	15.87	-25.81	-38.318	-5.390	70.168	-0.79016	0.55206	-0.24741	0.09781	30.4	13111	100
2025-3-27 20:29:54.716	WT901BLE68-01(48591DE3C19B)	-0.363	-0.375	0.257	15.564	21.667	-6.531	-73.18	15.94	-26.03	-38.318	-5.390	70.168	-0.79016	0.55206	-0.24741	0.09781	30.4	13111	100
2025-3-27 20:29:54.716	WT901BLE68-01(48591DE3C19B)	-0.378	-0.375	0.257	15.564	21.667	-6.531	-73.06	16.01	-26.25	-38.318	-5.390	70.168	-0.79016	0.55206	-0.24741	0.09781	30.4	13111	100
2025-3-27 20:29:54.716	WT901BLE68-01(48591DE3C19B)	-0.378	-0.343	0.259	11.841	28.137	-5.310	-72.96	16.11	-26.49	-38.318	-5.390	70.168	-0.79016	0.55206	-0.24741	0.09781	30.4	13111	100
2025-3-27 20:29:54.745	WT901BLE68-01(48591DE3C19B)	-0.478	-0.343	0.259	11.841	28.137	-5.310	-72.89	16.22	-26.77	-38.318	-5.390	70.168	-0.79016	0.55206	-0.24741	0.09781	30.4	13111	100
2025-3-27 20:29:54.745	WT901BLE68-01(48591DE3C19B)	-0.478	-0.404	0.249	7.141	25.085	-3.967	-72.83	16.34	-27.02	-38.318	-5.390	70.168	-0.79016	0.55206	-0.24741	0.09781	30.4	13111	100
2025-3-27 20:29:54.745	WT901BLE68-01(48591DE3C19B)	-0.520	-0.404	0.249	7.141	25.085	-3.967	-72.80	16.47	-27.25	-38.318	-5.390	70.168	-0.79016	0.55206	-0.24741	0.09781	30.4	13111	100
2025-3-27 20:29:54.745	WT901BLE68-01(48591DE3C19B)	-0.520	-0.490	0.277	6.348	13.489	-2.197	-72.74	16.59	-27.41	-38.318	-5.390	70.168	-0.79016	0.55206	-0.24741	0.09781	30.4	13111	100
2025-3-27 20:29:54.778	WT901BLE68-01(48591DE3C19B)	-0.498	-0.490	0.277	6.348	13.489	-2.197	-72.68	16.72	-27.52	-38.318	-5.390	70.168	-0.79016	0.55206	-0.24741	0.09781	30.4	13111	100
2025-3-27 20:29:54.778	WT901BLE68-01(48591DE3C19B)	-0.498	-0.526	0.295	5.188	2.075	4.700	-72.60	16.86	-27.54	-38.318	-5.390	70.168	-0.79016	0.55206	-0.24741	0.09781	30.4	13111	100
2025-3-27 20:29:54.778	WT901BLE68-01(48591DE3C19B)	-0.468	-0.526	0.295	5.188	2.075	4.700	-72.51	17.02	-27.50	-38.318	-5.390	70.168	-0.79016	0.55206	-0.24741	0.09781	30.4	13111	100
2025-3-27 20:29:54.778	WT901BLE68-01(48591DE3C19B)	-0.468	-0.727	0.244	-5.371	-9.888	8.179	-72.45	17.18	-27.40	-38.318	-5.390	70.168	-0.79016	0.55206	-0.24741	0.09781	30.4	13111	100
2025-3-27 20:29:54.837	WT901BLE68-01(48591DE3C19B)	-0.520	-0.727	0.244	-5.371	-9.888	8.179	-72.43	17.34	-27.23	-38.318	-5.390	70.168	-0.79016	0.55206	-0.24741	0.09781	30.4	13111	100
2025-3-27 20:29:54.837	WT901BLE68-01(48591DE3C19B)	-0.520	-1.087	0.247	-17.700	-20.081	4.700	-72.47	17.46	-27.02	-47.040	-2.940	69.090	-0.79016	0.55206	-0.24741	0.09781	30.4	13111	100
2025-3-27 20:29:54.837	WT901BLE68-01(48591DE3C19B)	-0.599	-1.087	0.247	-17.700	-20.081	4.700	-72.55	17.53	-26.77	-47.040	-2.940	69.090	-0.79016	0.55206	-0.24741	0.09781	30.4	13111	100
2025-3-27 20:29:54.837	WT901BLE68-01(48591DE3C19B)	-0.599	-1.539	0.274	-25.146	-28.931	-8.972	-72.67	17.53	-26.52	-47.040	-2.940	69.090	-0.79016	0.55206	-0.24741	0.09781	30.4	13111	100
2025-3-27 20:29:54.896	WT901BLE68-01(48591DE3C19B)	-0.791	-1.539	0.274	-25.146	-28.931	-8.972	-72.84	17.43	-26.24	-47.040	-2.940	69.090	-0.79016	0.55206	-0.24741	0.09781	30.4	13111	100
2025-3-27 20:29:54.896	WT901BLE68-01(48591DE3C19B)	-0.791	-2.094	0.459	-23.438	-46.204	-6.714	-72.98	17.31	-25.88	-47.040	-2.940	69.090	-0.79016	0.55206	-0.24741	0.09781	30.4	13111	100
2025-3-27 20:29:54.896	WT901BLE68-01(48591DE3C19B)	-0.781	-2.094	0.459	-23.438	-46.204	-6.714	-73.08	17.17	-25.44	-47.040	-2.940	69.090	-0.79016	0.55206	-0.24741	0.09781	30.4	13111	100
2025-3-27 20:29:54.896	WT901BLE68-01(48591DE3C19B)	-0.781	-2.276	0.462	-4.578	-65.979	-0.305	-73.06	17.03	-24.90	-47.040	-2.940	69.090	-0.79016	0.55206	-0.24741	0.09781	30.4	13111	100
2025-3-27 20:29:54.898	WT901BLE68-01(48591DE3C19B)	-0.461	-2.276	0.462	-4.578	-65.979	-0.305	-72.93	16.88	-24.25	-47.040	-2.940	69.090	-0.79016	0.55206	-0.24741	0.09781	30.4	13111	100
2025-3-27 20:29:54.898	WT901BLE68-01(48591DE3C19B)	-0.461	-1.725	0.311	4.761	-58.044	28.076	-72.75	16.86	-23.61	-47.040	-2.940	69.090	-0.79016	0.55206	-0.24741	0.09781	30.4	13111	100
2025-3-27 20:29:54.898	WT901BLE68-01(48591DE3C19B)	-0.232	-1.725	0.311	4.761	-58.044	28.076	-72.53	17.00	-22.97	-47.040	-2.940	69.090	-0.79016	0.55206	-0.24741	0.09781	30.4	13111	100
2025-3-27 20:29:54.898	WT901BLE68-01(48591DE3C19B)	-0.232	-1.478	0.195	-5.798	-28.625	57.129	-72.39	17.30	-22.45	-47.040	-2.940	69.090	-0.79016	0.55206	-0.24741	0.09781	30.4	13111	100
2025-3-27 20:29:54.956	WT901BLE68-01(48591DE3C19B)	-0.134	-1.478	0.195	-5.798	-28.625	57.129	-72.34	17.77	-22.02	-47.040	-2.940	69.090	-0.79016	0.55206	-0.24741	0.09781	30.4	13111	100
2025-3-27 20:29:54.956	WT901BLE68-01(48591DE3C19B)	-0.134	-1.416	0.188	-12.451	3.174	88.806	-72.35	18.44	-21.71	-47.040	-2.940	69.090	-0.79016	0.55206	-0.24741	0.09781	30.4	13111	100
2025-3-27 20:29:54.956	WT901BLE68-01(48591DE3C19B)	-0.108	-1.416	0.188	-12.451	3.174	88.806	-72.43	19.29	-21.51	-47.040	-2.940	69.090	-0.79016	0.55206	-0.24741	0.09781	30.4	13111	100
2025-3-27 20:29:54.956	WT901BLE68-01(48591DE3C19B)	-0.108	-1.294	0.221	-22.461	11.353	112.549	-72.56	20.25	-21.32	-47.040	-2.940	69.090	-0.79016	0.55206	-0.24741	0.09781	30.4	13111	100
2025-3-27 20:29:54.988	WT901BLE68-01(48591DE3C19B)	-0.074	-1.294	0.221	-22.461	11.353	112.549	-72.73	21.33	-21.13	-47.040	-2.940	69.090	-0.79016	0.55206	-0.24741	0.09781	30.4	13111	100
2025-3-27 20:29:54.988	WT901BLE68-01(48591DE3C19B)	-0.074	-1.139	0.257	-29.907	9.399	123.047	-72.94	22.45	-20.93	-47.040	-2.940	69.090	-0.79016	0.55206	-0.24741	0.09781	30.4	13111	100
2025-3-27 20:29:54.988	WT901BLE68-01(48591DE3C19B)	-0.145	-1.139	0.257	-29.907	9.399	123.047	-73.16	23.60	-20.71	-47.040	-2.940	69.090	-0.79016	0.55206	-0.24741	0.09781	30.4	13111	100
2025-3-27 20:29:54.988	WT901BLE68-01(48591DE3C19B)	-0.145	-1.023	0.263	-29.419	20.508	124.023	-73.41	24.76	-20.54	-47.040	-2.940	69.090	-0.79016	0.55206	-0.24741	0.09781	30.4	13111	100
2025-3-27 20:29:55.18	WT901BLE68-01(48591DE3C19B)	-0.216	-1.023	0.263	-29.419	20.508	124.023	-73.66	25.93	-20.45	-47.040	-2.940	69.090	-0.79016	0.55206	-0.24741	0.09781	30.4	13111	100
2025-3-27 20:29:55.18	WT901BLE68-01(48591DE3C19B)	-0.216	-0.912	0.256	-28.503	33.569	114.746	-73.95	27.07	-20.44	-47.040	-2.940	69.090	-0.79016	0.55206	-0.24741	0.09781	30.4	13111	100
2025-3-27 20:29:55.18	WT901BLE68-01(48591DE3C19B)	-0.217	-0.912	0.256	-28.503	33.569	114.746	-74.27	28.17	-20.52	-47.040	-2.940	69.090	-0.78580	0.54123	-0.29895	-0.00989	30.4	13111	100
2025-3-27 20:29:55.18	WT901BLE68-01(48591DE3C19B)	-0.217	-0.804	0.249	-24.658	37.109	102.783	-74.60	29.22	-20.65	-47.040	-2.940	69.090	-0.78580	0.54123	-0.29895	-0.00989	30.4	13111	100
2025-3-27 20:29:55.79	WT901BLE68-01(48591DE3C19B)	-0.181	-0.804	0.249	-24.658	37.109	102.783	-74.92	30.21	-20.82	-47.040	-2.940	69.090	-0.78580	0.54123	-0.29895	-0.00989	30.4	13111	100
2025-3-27 20:29:55.79	WT901BLE68-01(48591DE3C19B)	-0.181	-0.690	0.210	-20.752	27.222	90.210	-75.17	31.04	-20.92	-47.040	-2.940	69.090	-0.78580	0.54123	-0.29895	-0.00989	30.4	13111	100
2025-3-27 20:29:55.79	WT901BLE68-01(48591DE3C19B)	-0.148	-0.690	0.210	-20.752	27.222	90.210	-75.42	31.87	-21.03	-47.040	-2.940	69.090	-0.78580	0.54123	-0.29895	-0.00989	30.4	13111	100
2025-3-27 20:29:55.79	WT901BLE68-01(48591DE3C19B)	-0.148	-0.627	0.159	-17.639	18.555	77.393	-75.60	32.55	-21.08	-47.040	-2.940	69.090	-0.78580	0.54123	-0.29895	-0.00989	30.4	13111	100
2025-3-27 20:29:55.106	WT901BLE68-01(48591DE3C19B)	-0.174	-0.627	0.159	-17.639	18.555	77.393	-75.79	33.23	-21.13	-47.040	-2.940	69.090	-0.78580	0.54123	-0.29895	-0.00989	30.4	13111	100
2025-3-27 20:29:55.107	WT901BLE68-01(48591DE3C19B)	-0.174	-0.597	0.123	-15.503	10.498	64.514	-75.92	33.76	-21.13	-47.040	-2.940	69.090	-0.78580	0.54123	-0.29895	-0.00989	30.4	13111	100
2025-3-27 20:29:55.107	WT901BLE68-01(48591DE3C19B)	-0.214	-0.597	0.123	-15.503	10.498	64.514	-76.06	34.28	-21.13	-47.040	-2.940	69.090	-0.78580	0.54123	-0.29895	-0.00989	30.4	13111	100
2025-3-27 20:29:55.107	WT901BLE68-01(48591DE3C19B)	-0.214	-0.595	0.104	-17.151	-0.916	50.232	-76.16	34.64	-21.03	-47.040	-2.940	69.090	-0.78580	0.54123	-0.29895	-0.00989	30.4	13111	100
2025-3-27 20:29:55.135	WT901BLE68-01(48591DE3C19B)	-0.258	-0.595	0.104	-17.151	-0.916	50.232	-76.26	35.00	-20.93	-47.040	-2.940	69.090	-0.78580	0.54123	-0.29895	-0.00989	30.4	13111	100
2025-3-27 20:29:55.135	WT901BLE68-01(48591DE3C19B)	-0.258	-0.646	0.119	-19.348	-18.860	36.255	-76.28	35.19	-20.67	-47.040	-2.940	69.090	-0.78580	0.54123	-0.29895	-0.00989	30.4	13111	100
2025-3-27 20:29:55.135	WT901BLE68-01(48591DE3C19B)	-0.293	-0.646	0.119	-19.348	-18.860	36.255	-76.30	35.38	-20.40	-47.040	-2.940	69.090	-0.78580	0.54123	-0.29895	-0.00989	30.4	13111	100
2025-3-27 20:29:55.135	WT901BLE68-01(48591DE3C19B)	-0.293	-0.742	0.157	-19.531	-36.926	23.254	-76.22	35.39	-19.95	-47.040	-2.940	69.090	-0.78580	0.54123	-0.29895	-0.00989	30.4	13111	100
2025-3-27 20:29:55.195	WT901BLE68-01(48591DE3C19B)	-0.297	-0.742	0.157	-19.531	-36.926	23.254	-76.15	35.42	-19.51	-47.040	-2.940	69.090	-0.78580	0.54123	-0.29895	-0.00989	30.4	13111	100
2025-3-27 20:29:55.195	WT901BLE68-01(48591DE3C19B)	-0.297	-0.823	0.184	-13.184	-45.410	10.925	-75.96	35.30	-19.00	-47.040	-2.940	69.090	-0.78580	0.54123	-0.29895	-0.00989	30.4	13111	100
2025-3-27 20:29:55.195	WT901BLE68-01(48591DE3C19B)	-0.327	-0.823	0.184	-13.184	-45.410	10.925	-75.79	35.19	-18.49	-47.040	-2.940	69.090	-0.78580	0.54123	-0.29895	-0.00989	30.4	13111	100
2025-3-27 20:29:55.195	WT901BLE68-01(48591DE3C19B)	-0.327	-0.829	0.191	-6.714	-45.532	0.916	-75.57	34.98	-18.02	-47.040	-2.940	69.090	-0.78580	0.54123	-0.29895	-0.00989	30.4	13111	100
