time	DeviceName	AccX(g)	AccY(g)	AccZ(g)	AsX(°/s)	AsY(°/s)	AsZ(°/s)	AngleX(°)	AngleY(°)	AngleZ(°)	HX(uT)	HY(uT)	HZ(uT)	Q0()	Q1()	Q2()	Q3()	Temperature(°C)	Version()	Battery level(%)
2025-3-27 20:13:50.776	WT901BLE68-01(48591DE3C19B)	-0.306	-0.927	0.190	2.563	5.188	0.000	-79.82	20.78	-29.72	-66.248	-53.214	23.814	-0.76086	0.58395	-0.27753	0.05420	28.5	13111	100
2025-3-27 20:13:50.776	WT901BLE68-01(48591DE3C19B)	-0.306	-0.926	0.189	3.662	6.836	0.366	-79.81	20.78	-30.06	-66.248	-53.214	23.814	-0.76086	0.58395	-0.27753	0.05420	28.5	13111	100
2025-3-27 20:13:50.776	WT901BLE68-01(48591DE3C19B)	-0.303	-0.926	0.189	3.662	6.836	0.366	-79.79	20.78	-30.39	-66.248	-53.214	23.814	-0.76086	0.58395	-0.27753	0.05420	28.5	13111	100
2025-3-27 20:13:50.776	WT901BLE68-01(48591DE3C19B)	-0.303	-0.927	0.188	4.089	7.629	0.793	-79.78	20.78	-30.73	-66.248	-53.214	23.814	-0.76086	0.58395	-0.27753	0.05420	28.5	13111	100
2025-3-27 20:13:50.836	WT901BLE68-01(48591DE3C19B)	-0.296	-0.927	0.188	4.089	7.629	0.793	-79.77	20.78	-31.06	-66.248	-53.214	23.814	-0.76086	0.58395	-0.27753	0.05420	28.5	13111	100
2025-3-27 20:13:50.836	WT901BLE68-01(48591DE3C19B)	-0.296	-0.929	0.186	5.188	7.996	1.038	-79.74	20.79	-31.40	-66.248	-53.214	23.814	-0.76086	0.58395	-0.27753	0.05420	28.5	13111	100
2025-3-27 20:13:50.836	WT901BLE68-01(48591DE3C19B)	-0.297	-0.929	0.186	5.188	7.996	1.038	-79.72	20.79	-31.74	-66.248	-53.214	23.814	-0.76086	0.58395	-0.27753	0.05420	28.5	13111	100
2025-3-27 20:13:50.836	WT901BLE68-01(48591DE3C19B)	-0.297	-0.921	0.186	5.310	8.789	1.709	-79.70	20.80	-32.08	-66.248	-53.214	23.814	-0.76086	0.58395	-0.27753	0.05420	28.5	13111	100
2025-3-27 20:13:50.871	WT901BLE68-01(48591DE3C19B)	-0.307	-0.921	0.186	5.310	8.789	1.709	-79.68	20.82	-32.42	-66.150	-53.214	23.814	-0.76086	0.58395	-0.27753	0.05420	28.5	13111	100
2025-3-27 20:13:50.871	WT901BLE68-01(48591DE3C19B)	-0.307	-0.926	0.188	4.333	8.667	2.258	-79.66	20.84	-32.75	-66.150	-53.214	23.814	-0.76086	0.58395	-0.27753	0.05420	28.5	13111	100
2025-3-27 20:13:50.872	WT901BLE68-01(48591DE3C19B)	-0.314	-0.926	0.188	4.333	8.667	2.258	-79.65	20.86	-33.09	-66.150	-53.214	23.814	-0.76086	0.58395	-0.27753	0.05420	28.5	13111	100
2025-3-27 20:13:50.872	WT901BLE68-01(48591DE3C19B)	-0.314	-0.935	0.182	3.662	8.118	2.747	-79.65	20.88	-33.41	-66.150	-53.214	23.814	-0.76086	0.58395	-0.27753	0.05420	28.5	13111	100
2025-3-27 20:13:50.896	WT901BLE68-01(48591DE3C19B)	-0.310	-0.935	0.182	3.662	8.118	2.747	-79.63	20.90	-33.73	-66.150	-53.214	23.814	-0.76086	0.58395	-0.27753	0.05420	28.5	13111	100
2025-3-27 20:13:50.896	WT901BLE68-01(48591DE3C19B)	-0.310	-0.926	0.178	3.418	6.287	2.930	-79.62	20.92	-34.03	-66.150	-53.214	23.814	-0.76086	0.58395	-0.27753	0.05420	28.5	13111	100
2025-3-27 20:13:50.897	WT901BLE68-01(48591DE3C19B)	-0.305	-0.926	0.178	3.418	6.287	2.930	-79.61	20.95	-34.33	-66.150	-53.214	23.814	-0.76086	0.58395	-0.27753	0.05420	28.5	13111	100
2025-3-27 20:13:50.897	WT901BLE68-01(48591DE3C19B)	-0.305	-0.916	0.176	3.052	5.310	2.869	-79.60	20.96	-34.61	-66.150	-53.214	23.814	-0.76086	0.58395	-0.27753	0.05420	28.5	13111	100
2025-3-27 20:13:50.956	WT901BLE68-01(48591DE3C19B)	-0.303	-0.916	0.176	3.052	5.310	2.869	-79.59	20.98	-34.89	-66.150	-53.214	23.814	-0.76086	0.58395	-0.27753	0.05420	28.5	13111	100
2025-3-27 20:13:50.956	WT901BLE68-01(48591DE3C19B)	-0.303	-0.916	0.174	2.502	4.028	2.380	-79.58	20.99	-35.16	-66.150	-53.214	23.814	-0.76086	0.58395	-0.27753	0.05420	28.5	13111	100
2025-3-27 20:13:50.956	WT901BLE68-01(48591DE3C19B)	-0.304	-0.916	0.174	2.502	4.028	2.380	-79.57	21.01	-35.43	-66.150	-53.214	23.814	-0.76086	0.58395	-0.27753	0.05420	28.5	13111	100
2025-3-27 20:13:50.956	WT901BLE68-01(48591DE3C19B)	-0.304	-0.938	0.179	2.319	3.967	2.014	-79.56	21.02	-35.69	-66.150	-53.214	23.814	-0.76086	0.58395	-0.27753	0.05420	28.5	13111	100
2025-3-27 20:13:50.985	WT901BLE68-01(48591DE3C19B)	-0.309	-0.938	0.179	2.319	3.967	2.014	-79.56	21.02	-35.96	-66.150	-53.214	23.814	-0.76086	0.58395	-0.27753	0.05420	28.5	13111	100
2025-3-27 20:13:50.985	WT901BLE68-01(48591DE3C19B)	-0.309	-0.965	0.181	3.113	5.981	1.953	-79.55	21.03	-36.24	-66.150	-53.214	23.814	-0.76086	0.58395	-0.27753	0.05420	28.5	13111	100
2025-3-27 20:13:50.985	WT901BLE68-01(48591DE3C19B)	-0.313	-0.965	0.181	3.113	5.981	1.953	-79.55	21.04	-36.52	-66.150	-53.214	23.814	-0.76086	0.58395	-0.27753	0.05420	28.5	13111	100
2025-3-27 20:13:50.985	WT901BLE68-01(48591DE3C19B)	-0.313	-0.953	0.180	3.784	7.751	2.380	-79.54	21.07	-36.82	-66.150	-53.214	23.814	-0.76086	0.58395	-0.27753	0.05420	28.5	13111	100
2025-3-27 20:13:51.16	WT901BLE68-01(48591DE3C19B)	-0.315	-0.953	0.180	3.784	7.751	2.380	-79.53	21.08	-37.12	-66.150	-53.214	23.814	-0.76086	0.58395	-0.27753	0.05420	28.5	13111	100
2025-3-27 20:13:51.16	WT901BLE68-01(48591DE3C19B)	-0.315	-0.927	0.180	3.418	9.583	2.075	-79.54	21.10	-37.43	-66.150	-53.214	23.814	-0.76086	0.58395	-0.27753	0.05420	28.5	13111	100
2025-3-27 20:13:51.16	WT901BLE68-01(48591DE3C19B)	-0.335	-0.927	0.180	3.418	9.583	2.075	-79.54	21.12	-37.74	-66.150	-53.214	23.814	-0.76086	0.58395	-0.27753	0.05420	28.5	13111	100
2025-3-27 20:13:51.16	WT901BLE68-01(48591DE3C19B)	-0.336	-0.916	0.188	1.953	10.559	0.916	-79.56	21.13	-38.06	-66.150	-53.214	23.814	-0.76086	0.58395	-0.27753	0.05420	28.5	13111	100
2025-3-27 20:13:51.75	WT901BLE68-01(48591DE3C19B)	-0.336	-0.914	0.199	-0.183	7.507	-0.854	-79.59	21.13	-38.37	-66.150	-53.214	23.814	-0.76086	0.58395	-0.27753	0.05420	28.5	13111	100
2025-3-27 20:13:51.75	WT901BLE68-01(48591DE3C19B)	-0.337	-0.914	0.199	-0.183	7.507	-0.854	-79.62	21.12	-38.66	-66.150	-53.214	23.814	-0.75113	0.54700	-0.34183	0.14017	28.5	13111	100
2025-3-27 20:13:51.75	WT901BLE68-01(48591DE3C19B)	-0.337	-0.936	0.214	-1.770	3.784	-3.906	-79.65	21.09	-38.93	-66.150	-53.214	23.814	-0.75113	0.54700	-0.34183	0.14017	28.5	13111	100
2025-3-27 20:13:51.75	WT901BLE68-01(48591DE3C19B)	-0.354	-0.936	0.214	-1.770	3.784	-3.906	-79.68	21.04	-39.18	-66.150	-53.214	23.814	-0.75113	0.54700	-0.34183	0.14017	28.5	13111	100
2025-3-27 20:13:51.105	WT901BLE68-01(48591DE3C19B)	-0.354	-0.952	0.224	-2.197	0.244	-7.446	-79.71	20.97	-39.42	-66.150	-53.214	23.814	-0.75113	0.54700	-0.34183	0.14017	28.5	13111	100
2025-3-27 20:13:51.105	WT901BLE68-01(48591DE3C19B)	-0.366	-0.952	0.224	-2.197	0.244	-7.446	-79.74	20.89	-39.64	-66.150	-53.214	23.814	-0.75113	0.54700	-0.34183	0.14017	28.5	13111	100
2025-3-27 20:13:51.105	WT901BLE68-01(48591DE3C19B)	-0.366	-0.953	0.228	-1.953	-2.441	-10.925	-79.76	20.78	-39.86	-66.150	-53.214	23.814	-0.75113	0.54700	-0.34183	0.14017	28.5	13111	100
2025-3-27 20:13:51.105	WT901BLE68-01(48591DE3C19B)	-0.362	-0.953	0.228	-1.953	-2.441	-10.925	-79.77	20.65	-40.06	-66.150	-53.214	23.814	-0.75113	0.54700	-0.34183	0.14017	28.5	13111	100
2025-3-27 20:13:51.136	WT901BLE68-01(48591DE3C19B)	-0.362	-0.933	0.220	-0.793	-1.648	-13.489	-79.77	20.52	-40.26	-66.150	-53.214	23.814	-0.75113	0.54700	-0.34183	0.14017	28.5	13111	100
2025-3-27 20:13:51.136	WT901BLE68-01(48591DE3C19B)	-0.358	-0.933	0.220	-0.793	-1.648	-13.489	-79.77	20.37	-40.47	-66.150	-53.214	23.814	-0.75113	0.54700	-0.34183	0.14017	28.5	13111	100
2025-3-27 20:13:51.136	WT901BLE68-01(48591DE3C19B)	-0.358	-0.896	0.212	0.366	0.305	-14.709	-79.77	20.23	-40.70	-66.150	-53.214	23.814	-0.75113	0.54700	-0.34183	0.14017	28.5	13111	100
2025-3-27 20:13:51.136	WT901BLE68-01(48591DE3C19B)	-0.354	-0.896	0.212	0.366	0.305	-14.709	-79.76	20.08	-40.93	-66.150	-53.214	23.814	-0.75113	0.54700	-0.34183	0.14017	28.5	13111	100
2025-3-27 20:13:51.198	WT901BLE68-01(48591DE3C19B)	-0.354	-0.861	0.210	0.977	2.991	-14.648	-79.76	19.93	-41.18	-66.150	-53.214	23.814	-0.75113	0.54700	-0.34183	0.14017	28.5	13111	100
2025-3-27 20:13:51.198	WT901BLE68-01(48591DE3C19B)	-0.353	-0.861	0.210	0.977	2.991	-14.648	-79.76	19.79	-41.43	-66.150	-53.214	23.814	-0.75113	0.54700	-0.34183	0.14017	28.5	13111	100
2025-3-27 20:13:51.198	WT901BLE68-01(48591DE3C19B)	-0.353	-0.835	0.212	1.343	6.409	-13.672	-79.75	19.65	-41.70	-66.150	-53.214	23.814	-0.75113	0.54700	-0.34183	0.14017	28.5	13111	100
2025-3-27 20:13:51.198	WT901BLE68-01(48591DE3C19B)	-0.346	-0.835	0.212	1.343	6.409	-13.672	-79.76	19.53	-41.99	-66.150	-53.214	23.814	-0.75113	0.54700	-0.34183	0.14017	28.5	13111	100
2025-3-27 20:13:51.229	WT901BLE68-01(48591DE3C19B)	-0.346	-0.823	0.208	1.526	9.216	-12.756	-79.76	19.42	-42.29	-66.150	-53.214	23.814	-0.75113	0.54700	-0.34183	0.14017	28.5	13111	100
2025-3-27 20:13:51.229	WT901BLE68-01(48591DE3C19B)	-0.349	-0.823	0.208	1.526	9.216	-12.756	-79.76	19.31	-42.60	-66.150	-53.214	23.814	-0.75113	0.54700	-0.34183	0.14017	28.5	13111	100
2025-3-27 20:13:51.229	WT901BLE68-01(48591DE3C19B)	-0.349	-0.826	0.198	1.770	12.756	-12.695	-79.77	19.22	-42.92	-66.150	-53.214	23.814	-0.75113	0.54700	-0.34183	0.14017	28.5	13111	100
2025-3-27 20:13:51.229	WT901BLE68-01(48591DE3C19B)	-0.365	-0.826	0.198	1.770	12.756	-12.695	-79.78	19.12	-43.27	-65.170	-53.704	23.912	-0.75113	0.54700	-0.34183	0.14017	28.5	13111	100
2025-3-27 20:13:51.256	WT901BLE68-01(48591DE3C19B)	-0.365	-0.829	0.194	2.380	14.465	-13.428	-79.79	19.02	-43.62	-65.170	-53.704	23.912	-0.75113	0.54700	-0.34183	0.14017	28.5	13111	100
2025-3-27 20:13:51.257	WT901BLE68-01(48591DE3C19B)	-0.378	-0.829	0.194	2.380	14.465	-13.428	-79.80	18.92	-43.98	-65.170	-53.704	23.912	-0.75113	0.54700	-0.34183	0.14017	28.5	13111	100
2025-3-27 20:13:51.257	WT901BLE68-01(48591DE3C19B)	-0.378	-0.837	0.199	2.014	13.184	-14.587	-79.82	18.82	-44.32	-65.170	-53.704	23.912	-0.75113	0.54700	-0.34183	0.14017	28.5	13111	100
2025-3-27 20:13:51.257	WT901BLE68-01(48591DE3C19B)	-0.382	-0.837	0.199	2.014	13.184	-14.587	-79.83	18.71	-44.66	-65.170	-53.704	23.912	-0.75113	0.54700	-0.34183	0.14017	28.5	13111	100
2025-3-27 20:13:51.316	WT901BLE68-01(48591DE3C19B)	-0.382	-0.845	0.205	1.709	11.902	-15.442	-79.84	18.60	-44.99	-65.170	-53.704	23.912	-0.75113	0.54700	-0.34183	0.14017	28.5	13111	100
2025-3-27 20:13:51.316	WT901BLE68-01(48591DE3C19B)	-0.383	-0.845	0.205	1.709	11.902	-15.442	-79.84	18.48	-45.32	-65.170	-53.704	23.912	-0.75113	0.54700	-0.34183	0.14017	28.5	13111	100
2025-3-27 20:13:51.316	WT901BLE68-01(48591DE3C19B)	-0.383	-0.832	0.207	1.465	10.986	-15.320	-79.85	18.37	-45.63	-65.170	-53.704	23.912	-0.75113	0.54700	-0.34183	0.14017	28.5	13111	100
2025-3-27 20:13:51.316	WT901BLE68-01(48591DE3C19B)	-0.380	-0.832	0.207	1.465	10.986	-15.320	-79.85	18.26	-45.94	-65.170	-53.704	23.912	-0.75113	0.54700	-0.34183	0.14017	28.5	13111	100
2025-3-27 20:13:51.345	WT901BLE68-01(48591DE3C19B)	-0.380	-0.810	0.209	-0.122	9.827	-14.526	-79.87	18.15	-46.24	-65.170	-53.704	23.912	-0.75113	0.54700	-0.34183	0.14017	28.5	13111	100
2025-3-27 20:13:51.345	WT901BLE68-01(48591DE3C19B)	-0.384	-0.810	0.209	-0.122	9.827	-14.526	-79.88	18.05	-46.53	-65.170	-53.704	23.912	-0.75113	0.54700	-0.34183	0.14017	28.5	13111	100
2025-3-27 20:13:51.345	WT901BLE68-01(48591DE3C19B)	-0.384	-0.788	0.212	-2.075	7.568	-13.123	-79.90	17.96	-46.81	-65.170	-53.704	23.912	-0.75113	0.54700	-0.34183	0.14017	28.5	13111	100
2025-3-27 20:13:51.346	WT901BLE68-01(48591DE3C19B)	-0.384	-0.788	0.212	-2.075	7.568	-13.123	-79.92	17.86	-47.07	-65.170	-53.704	23.912	-0.75113	0.54700	-0.34183	0.14017	28.5	13111	100
2025-3-27 20:13:51.375	WT901BLE68-01(48591DE3C19B)	-0.384	-0.763	0.214	-4.211	3.540	-11.292	-79.95	17.78	-47.31	-65.170	-53.704	23.912	-0.75113	0.54700	-0.34183	0.14017	28.5	13111	100
2025-3-27 20:13:51.375	WT901BLE68-01(48591DE3C19B)	-0.373	-0.763	0.214	-4.211	3.540	-11.292	-79.97	17.70	-47.52	-65.170	-53.704	23.912	-0.75113	0.54700	-0.34183	0.14017	28.5	13111	100
2025-3-27 20:13:51.375	WT901BLE68-01(48591DE3C19B)	-0.373	-0.756	0.215	-6.348	-0.061	-9.644	-80.00	17.64	-47.71	-65.170	-53.704	23.912	-0.75113	0.54700	-0.34183	0.14017	28.5	13111	100
2025-3-27 20:13:51.375	WT901BLE68-01(48591DE3C19B)	-0.370	-0.756	0.215	-6.348	-0.061	-9.644	-80.04	17.57	-47.89	-65.170	-53.704	23.912	-0.75113	0.54700	-0.34183	0.14017	28.5	13111	100
2025-3-27 20:13:51.435	WT901BLE68-01(48591DE3C19B)	-0.370	-0.760	0.217	-6.470	-2.075	-7.996	-80.07	17.52	-48.05	-65.170	-53.704	23.912	-0.75113	0.54700	-0.34183	0.14017	28.5	13111	100
2025-3-27 20:13:51.435	WT901BLE68-01(48591DE3C19B)	-0.356	-0.760	0.217	-6.470	-2.075	-7.996	-80.10	17.47	-48.20	-65.170	-53.704	23.912	-0.75113	0.54700	-0.34183	0.14017	28.5	13111	100
2025-3-27 20:13:51.435	WT901BLE68-01(48591DE3C19B)	-0.178	-0.744	0.216	-5.554	-3.174	-5.554	-80.11	17.43	-48.35	-65.170	-53.704	23.912	-0.75113	0.54700	-0.34183	0.14017	28.5	13111	100
2025-3-27 20:13:51.435	WT901BLE68-01(48591DE3C19B)	-0.339	-0.372	0.108	-5.554	-3.174	-5.554	-80.12	17.40	-48.48	-65.170	-53.704	23.912	-0.75113	0.54700	-0.34183	0.14017	28.5	13111	100
2025-3-27 20:13:51.471	WT901BLE68-01(48591DE3C19B)	-0.339	-0.728	0.206	-5.676	-2.869	-3.052	-80.13	17.39	-48.61	-65.170	-53.704	23.912	-0.72946	0.53223	-0.36734	0.22269	28.5	13111	100
2025-3-27 20:13:51.471	WT901BLE68-01(48591DE3C19B)	-0.338	-0.728	0.206	-5.676	-2.869	-3.052	-80.14	17.39	-48.75	-65.170	-53.704	23.912	-0.72946	0.53223	-0.36734	0.22269	28.5	13111	100
2025-3-27 20:13:51.471	WT901BLE68-01(48591DE3C19B)	-0.338	-0.730	0.198	-6.165	-2.258	-1.648	-80.15	17.39	-48.88	-65.170	-53.704	23.912	-0.72946	0.53223	-0.36734	0.22269	28.5	13111	100
2025-3-27 20:13:51.471	WT901BLE68-01(48591DE3C19B)	-0.351	-0.730	0.198	-6.165	-2.258	-1.648	-80.17	17.41	-49.02	-65.170	-53.704	23.912	-0.72946	0.53223	-0.36734	0.22269	28.5	13111	100
2025-3-27 20:13:51.527	WT901BLE68-01(48591DE3C19B)	-0.351	-0.745	0.203	-7.385	-4.150	-2.197	-80.19	17.41	-49.14	-65.170	-53.704	23.912	-0.72946	0.53223	-0.36734	0.22269	28.5	13111	100
2025-3-27 20:13:51.527	WT901BLE68-01(48591DE3C19B)	-0.372	-0.745	0.203	-7.385	-4.150	-2.197	-80.21	17.42	-49.26	-65.170	-53.704	23.912	-0.72946	0.53223	-0.36734	0.22269	28.5	13111	100
2025-3-27 20:13:51.527	WT901BLE68-01(48591DE3C19B)	-0.372	-0.788	0.219	-9.033	-9.094	-4.761	-80.23	17.39	-49.33	-65.170	-53.704	23.912	-0.72946	0.53223	-0.36734	0.22269	28.5	13111	100
2025-3-27 20:13:51.527	WT901BLE68-01(48591DE3C19B)	-0.375	-0.788	0.219	-9.033	-9.094	-4.761	-80.26	17.36	-49.40	-65.170	-53.704	23.912	-0.72946	0.53223	-0.36734	0.22269	28.5	13111	100
2025-3-27 20:13:51.555	WT901BLE68-01(48591DE3C19B)	-0.375	-0.835	0.223	-8.484	-13.306	-8.362	-80.27	17.29	-49.43	-65.170	-53.704	23.912	-0.72946	0.53223	-0.36734	0.22269	28.5	13111	100
2025-3-27 20:13:51.555	WT901BLE68-01(48591DE3C19B)	-0.370	-0.835	0.223	-8.484	-13.306	-8.362	-80.27	17.22	-49.47	-65.170	-53.704	23.912	-0.72946	0.53223	-0.36734	0.22269	28.5	13111	100
2025-3-27 20:13:51.555	WT901BLE68-01(48591DE3C19B)	-0.370	-0.871	0.219	-7.080	-13.245	-12.512	-80.27	17.11	-49.50	-65.170	-53.704	23.912	-0.72946	0.53223	-0.36734	0.22269	28.5	13111	100
2025-3-27 20:13:51.555	WT901BLE68-01(48591DE3C19B)	-0.380	-0.871	0.219	-7.080	-13.245	-12.512	-80.27	17.00	-49.54	-65.170	-53.704	23.912	-0.72946	0.53223	-0.36734	0.22269	28.5	13111	100
2025-3-27 20:13:51.586	WT901BLE68-01(48591DE3C19B)	-0.380	-0.926	0.220	-5.005	-10.559	-17.639	-80.26	16.84	-49.62	-65.170	-53.704	23.912	-0.72946	0.53223	-0.36734	0.22269	28.5	13111	100
2025-3-27 20:13:51.586	WT901BLE68-01(48591DE3C19B)	-0.406	-0.926	0.220	-5.005	-10.559	-17.639	-80.24	16.68	-49.70	-65.170	-53.704	23.912	-0.72946	0.53223	-0.36734	0.22269	28.5	13111	100
2025-3-27 20:13:51.586	WT901BLE68-01(48591DE3C19B)	-0.406	-0.993	0.231	-2.319	-7.629	-22.644	-80.22	16.47	-49.81	-65.170	-53.704	23.912	-0.72946	0.53223	-0.36734	0.22269	28.5	13111	100
2025-3-27 20:13:51.586	WT901BLE68-01(48591DE3C19B)	-0.407	-0.993	0.231	-2.319	-7.629	-22.644	-80.19	16.27	-49.92	-65.170	-53.704	23.912	-0.72946	0.53223	-0.36734	0.22269	28.5	13111	100
2025-3-27 20:13:51.617	WT901BLE68-01(48591DE3C19B)	-0.407	-1.036	0.229	1.404	-2.808	-26.428	-80.16	16.04	-50.08	-65.170	-53.704	23.912	-0.72946	0.53223	-0.36734	0.22269	28.5	13111	100
2025-3-27 20:13:51.617	WT901BLE68-01(48591DE3C19B)	-0.402	-1.036	0.229	1.404	-2.808	-26.428	-80.11	15.81	-50.25	-65.170	-53.704	23.912	-0.72946	0.53223	-0.36734	0.22269	28.5	13111	100
2025-3-27 20:13:51.617	WT901BLE68-01(48591DE3C19B)	-0.402	-1.019	0.218	5.432	5.493	-28.503	-80.06	15.57	-50.50	-65.170	-53.704	23.912	-0.72946	0.53223	-0.36734	0.22269	28.5	13111	100
2025-3-27 20:13:51.617	WT901BLE68-01(48591DE3C19B)	-0.416	-1.019	0.218	5.432	5.493	-28.503	-80.00	15.34	-50.75	-65.170	-53.704	23.912	-0.72946	0.53223	-0.36734	0.22269	28.5	13111	100
2025-3-27 20:13:51.706	WT901BLE68-01(48591DE3C19B)	-0.416	-0.949	0.213	8.911	13.000	-26.550	-79.93	15.14	-51.06	-65.170	-53.704	23.912	-0.72946	0.53223	-0.36734	0.22269	28.5	13111	100
2025-3-27 20:13:51.707	WT901BLE68-01(48591DE3C19B)	-0.401	-0.949	0.213	8.911	13.000	-26.550	-79.86	14.94	-51.37	-62.034	-53.998	23.324	-0.72946	0.53223	-0.36734	0.22269	28.5	13111	100
2025-3-27 20:13:51.707	WT901BLE68-01(48591DE3C19B)	-0.401	-0.825	0.226	9.460	18.433	-19.836	-79.79	14.82	-51.73	-62.034	-53.998	23.324	-0.72946	0.53223	-0.36734	0.22269	28.5	13111	100
2025-3-27 20:13:51.707	WT901BLE68-01(48591DE3C19B)	-0.366	-0.825	0.226	9.460	18.433	-19.836	-79.73	14.71	-52.08	-62.034	-53.998	23.324	-0.72946	0.53223	-0.36734	0.22269	28.5	13111	100
2025-3-27 20:13:51.708	WT901BLE68-01(48591DE3C19B)	-0.366	-0.669	0.251	10.925	23.376	-6.897	-79.65	14.72	-52.46	-62.034	-53.998	23.324	-0.72946	0.53223	-0.36734	0.22269	28.5	13111	100
2025-3-27 20:13:51.708	WT901BLE68-01(48591DE3C19B)	-0.323	-0.669	0.251	10.925	23.376	-6.897	-79.57	14.74	-52.84	-62.034	-53.998	23.324	-0.72946	0.53223	-0.36734	0.22269	28.5	13111	100
2025-3-27 20:13:51.708	WT901BLE68-01(48591DE3C19B)	-0.323	-0.505	0.267	9.705	27.710	8.911	-79.50	14.93	-53.24	-62.034	-53.998	23.324	-0.72946	0.53223	-0.36734	0.22269	28.5	13111	100
2025-3-27 20:13:51.708	WT901BLE68-01(48591DE3C19B)	-0.291	-0.505	0.267	9.705	27.710	8.911	-79.43	15.12	-53.65	-62.034	-53.998	23.324	-0.72946	0.53223	-0.36734	0.22269	28.5	13111	100
2025-3-27 20:13:51.737	WT901BLE68-01(48591DE3C19B)	-0.291	-0.411	0.253	5.249	27.710	27.222	-79.39	15.48	-54.02	-62.034	-53.998	23.324	-0.72946	0.53223	-0.36734	0.22269	28.5	13111	100
2025-3-27 20:13:51.737	WT901BLE68-01(48591DE3C19B)	-0.263	-0.411	0.253	5.249	27.710	27.222	-79.34	15.85	-54.40	-62.034	-53.998	23.324	-0.72946	0.53223	-0.36734	0.22269	28.5	13111	100
2025-3-27 20:13:51.738	WT901BLE68-01(48591DE3C19B)	-0.263	-0.458	0.189	-5.859	11.902	40.344	-79.36	16.31	-54.60	-62.034	-53.998	23.324	-0.72946	0.53223	-0.36734	0.22269	28.5	13111	100
2025-3-27 20:13:51.738	WT901BLE68-01(48591DE3C19B)	-0.286	-0.458	0.189	-5.859	11.902	40.344	-79.37	16.77	-54.80	-62.034	-53.998	23.324	-0.72946	0.53223	-0.36734	0.22269	28.5	13111	100
2025-3-27 20:13:51.826	WT901BLE68-01(48591DE3C19B)	-0.286	-0.643	0.079	-23.376	-8.057	43.579	-79.50	17.23	-54.78	-62.034	-53.998	23.324	-0.72946	0.53223	-0.36734	0.22269	28.5	13111	100
2025-3-27 20:13:51.827	WT901BLE68-01(48591DE3C19B)	-0.433	-0.643	0.079	-23.376	-8.057	43.579	-79.64	17.68	-54.76	-62.034	-53.998	23.324	-0.72946	0.53223	-0.36734	0.22269	28.5	13111	100
2025-3-27 20:13:51.827	WT901BLE68-01(48591DE3C19B)	-0.433	-0.959	0.107	-37.109	-37.170	39.185	-79.83	18.03	-54.43	-62.034	-53.998	23.324	-0.72946	0.53223	-0.36734	0.22269	28.5	13111	100
2025-3-27 20:13:51.827	WT901BLE68-01(48591DE3C19B)	-0.588	-0.959	0.107	-37.109	-37.170	39.185	-80.02	18.39	-54.09	-62.034	-53.998	23.324	-0.72946	0.53223	-0.36734	0.22269	28.5	13111	100
2025-3-27 20:13:51.828	WT901BLE68-01(48591DE3C19B)	-0.588	-1.467	0.190	-38.635	-76.294	33.813	-80.11	18.63	-53.35	-62.034	-53.998	23.324	-0.72946	0.53223	-0.36734	0.22269	28.5	13111	100
2025-3-27 20:13:51.828	WT901BLE68-01(48591DE3C19B)	-0.447	-1.467	0.190	-38.635	-76.294	33.813	-80.20	18.86	-52.61	-62.034	-53.998	23.324	-0.72946	0.53223	-0.36734	0.22269	28.5	13111	100
2025-3-27 20:13:51.828	WT901BLE68-01(48591DE3C19B)	-0.447	-1.797	0.161	-14.587	-89.905	28.076	-80.02	19.01	-51.73	-62.034	-53.998	23.324	-0.72946	0.53223	-0.36734	0.22269	28.5	13111	100
2025-3-27 20:13:51.828	WT901BLE68-01(48591DE3C19B)	-0.250	-1.797	0.161	-14.587	-89.905	28.076	-79.84	19.14	-50.87	-62.034	-53.998	23.324	-0.72946	0.53223	-0.36734	0.22269	28.5	13111	100
2025-3-27 20:13:51.886	WT901BLE68-01(48591DE3C19B)	-0.250	-1.765	0.112	18.066	-69.519	25.024	-79.41	19.26	-50.22	-62.034	-53.998	23.324	-0.72946	0.53223	-0.36734	0.22269	28.5	13111	100
2025-3-27 20:13:51.886	WT901BLE68-01(48591DE3C19B)	-0.208	-1.765	0.112	18.066	-69.519	25.024	-78.99	19.37	-49.58	-62.034	-53.998	23.324	-0.72946	0.53223	-0.36734	0.22269	28.5	13111	100
2025-3-27 20:13:51.886	WT901BLE68-01(48591DE3C19B)	-0.208	-1.423	0.092	35.889	-22.461	13.611	-78.57	19.45	-49.44	-62.034	-53.998	23.324	-0.73764	0.51215	-0.37976	0.22186	28.5	13111	100
2025-3-27 20:13:51.887	WT901BLE68-01(48591DE3C19B)	-0.169	-1.423	0.092	35.889	-22.461	13.611	-78.15	19.52	-49.31	-62.034	-53.998	23.324	-0.73764	0.51215	-0.37976	0.22186	28.5	13111	100
2025-3-27 20:13:51.916	WT901BLE68-01(48591DE3C19B)	-0.169	-1.333	0.057	34.790	20.386	5.737	-77.91	19.60	-49.64	-62.034	-53.998	23.324	-0.73764	0.51215	-0.37976	0.22186	28.5	13111	100
2025-3-27 20:13:51.916	WT901BLE68-01(48591DE3C19B)	-0.097	-1.333	0.057	34.790	20.386	5.737	-77.67	19.67	-49.97	-62.034	-53.998	23.324	-0.73764	0.51215	-0.37976	0.22186	28.5	13111	100
2025-3-27 20:13:51.917	WT901BLE68-01(48591DE3C19B)	-0.097	-1.268	0.066	37.109	63.232	1.831	-77.56	19.80	-50.75	-62.034	-53.998	23.324	-0.73764	0.51215	-0.37976	0.22186	28.5	13111	100
2025-3-27 20:13:51.917	WT901BLE68-01(48591DE3C19B)	-0.069	-1.268	0.066	37.109	63.232	1.831	-77.46	19.91	-51.52	-62.034	-53.998	23.324	-0.73764	0.51215	-0.37976	0.22186	28.5	13111	100
2025-3-27 20:13:51.945	WT901BLE68-01(48591DE3C19B)	-0.069	-1.035	0.101	38.757	98.267	2.686	-77.48	20.11	-52.65	-62.034	-53.998	23.324	-0.73764	0.51215	-0.37976	0.22186	28.5	13111	100
2025-3-27 20:13:51.945	WT901BLE68-01(48591DE3C19B)	-0.104	-1.035	0.101	38.757	98.267	2.686	-77.49	20.30	-53.78	-62.034	-53.998	23.324	-0.73764	0.51215	-0.37976	0.22186	28.5	13111	100
2025-3-27 20:13:51.945	WT901BLE68-01(48591DE3C19B)	-0.167	-0.769	0.135	33.691	105.530	-3.845	-77.59	20.44	-55.00	-62.034	-53.998	23.324	-0.73764	0.51215	-0.37976	0.22186	28.5	13111	100
2025-3-27 20:13:51.945	WT901BLE68-01(48591DE3C19B)	-0.167	-0.610	0.133	23.010	89.050	-12.573	-77.71	20.52	-56.13	-62.034	-53.998	23.324	-0.73764	0.51215	-0.37976	0.22186	28.5	13111	100
2025-3-27 20:13:52.36	WT901BLE68-01(48591DE3C19B)	-0.238	-0.610	0.133	23.010	89.050	-12.573	-77.86	20.53	-57.18	-62.034	-53.998	23.324	-0.73764	0.51215	-0.37976	0.22186	28.5	13111	100
2025-3-27 20:13:52.36	WT901BLE68-01(48591DE3C19B)	-0.238	-0.608	0.107	11.475	65.918	-13.550	-78.02	20.51	-58.11	-62.034	-53.998	23.324	-0.73764	0.51215	-0.37976	0.22186	28.5	13111	100
2025-3-27 20:13:52.37	WT901BLE68-01(48591DE3C19B)	-0.275	-0.608	0.107	11.475	65.918	-13.550	-78.20	20.47	-58.90	-62.034	-53.998	23.324	-0.73764	0.51215	-0.37976	0.22186	28.5	13111	100
2025-3-27 20:13:52.37	WT901BLE68-01(48591DE3C19B)	-0.275	-0.624	0.110	9.705	41.321	-12.146	-78.33	20.41	-59.57	-62.034	-53.998	23.324	-0.73764	0.51215	-0.37976	0.22186	28.5	13111	100
2025-3-27 20:13:52.38	WT901BLE68-01(48591DE3C19B)	-0.234	-0.624	0.110	9.705	41.321	-12.146	-78.42	20.33	-60.10	-62.034	-53.998	23.324	-0.73764	0.51215	-0.37976	0.22186	28.5	13111	100
2025-3-27 20:13:52.38	WT901BLE68-01(48591DE3C19B)	-0.234	-0.548	0.140	12.634	19.897	-2.441	-78.45	20.29	-60.50	-62.034	-53.998	23.324	-0.73764	0.51215	-0.37976	0.22186	28.5	13111	100
2025-3-27 20:13:52.38	WT901BLE68-01(48591DE3C19B)	-0.178	-0.548	0.140	12.634	19.897	-2.441	-78.43	20.27	-60.77	-62.034	-53.998	23.324	-0.73764	0.51215	-0.37976	0.22186	28.5	13111	100
2025-3-27 20:13:52.38	WT901BLE68-01(48591DE3C19B)	-0.178	-0.450	0.158	18.799	7.996	11.780	-78.34	20.31	-60.97	-62.034	-53.998	23.324	-0.73764	0.51215	-0.37976	0.22186	28.5	13111	100
2025-3-27 20:13:52.72	WT901BLE68-01(48591DE3C19B)	-0.134	-0.450	0.158	18.799	7.996	11.780	-78.19	20.41	-61.09	-62.034	-53.998	23.324	-0.73764	0.51215	-0.37976	0.22186	28.5	13111	100
2025-3-27 20:13:52.72	WT901BLE68-01(48591DE3C19B)	-0.134	-0.328	0.108	24.353	3.235	24.048	-77.99	20.57	-61.18	-62.034	-53.998	23.324	-0.73764	0.51215	-0.37976	0.22186	28.5	13111	100
2025-3-27 20:13:52.72	WT901BLE68-01(48591DE3C19B)	-0.088	-0.328	0.108	24.353	3.235	24.048	-77.76	20.79	-61.23	-59.486	-54.978	22.932	-0.73764	0.51215	-0.37976	0.22186	28.5	13111	100
2025-3-27 20:13:52.72	WT901BLE68-01(48591DE3C19B)	-0.088	-0.215	0.073	25.635	1.648	37.720	-77.51	21.07	-61.26	-59.486	-54.978	22.932	-0.73764	0.51215	-0.37976	0.22186	28.5	13111	100
2025-3-27 20:13:52.126	WT901BLE68-01(48591DE3C19B)	-0.111	-0.215	0.073	25.635	1.648	37.720	-77.24	21.41	-61.26	-59.486	-54.978	22.932	-0.73764	0.51215	-0.37976	0.22186	28.5	13111	100
2025-3-27 20:13:52.127	WT901BLE68-01(48591DE3C19B)	-0.111	-0.220	0.073	19.470	0.854	48.767	-77.00	21.81	-61.24	-59.486	-54.978	22.932	-0.73764	0.51215	-0.37976	0.22186	28.5	13111	100
2025-3-27 20:13:52.127	WT901BLE68-01(48591DE3C19B)	-0.232	-0.220	0.073	19.470	0.854	48.767	-76.78	22.26	-61.21	-59.486	-54.978	22.932	-0.73764	0.51215	-0.37976	0.22186	28.5	13111	100
2025-3-27 20:13:52.127	WT901BLE68-01(48591DE3C19B)	-0.232	-0.431	0.098	9.705	0.610	54.565	-76.60	22.73	-61.17	-59.486	-54.978	22.932	-0.73764	0.51215	-0.37976	0.22186	28.5	13111	100
2025-3-27 20:13:52.155	WT901BLE68-01(48591DE3C19B)	-0.375	-0.431	0.098	9.705	0.610	54.565	-76.46	23.24	-61.11	-59.486	-54.978	22.932	-0.73764	0.51215	-0.37976	0.22186	28.5	13111	100
2025-3-27 20:13:52.155	WT901BLE68-01(48591DE3C19B)	-0.375	-0.739	0.099	-2.319	1.343	55.237	-76.39	23.75	-61.05	-59.486	-54.978	22.932	-0.73764	0.51215	-0.37976	0.22186	28.5	13111	100
2025-3-27 20:13:52.155	WT901BLE68-01(48591DE3C19B)	-0.489	-0.739	0.099	-2.319	1.343	55.237	-76.38	24.27	-60.99	-59.486	-54.978	22.932	-0.73764	0.51215	-0.37976	0.22186	28.5	13111	100
2025-3-27 20:13:52.155	WT901BLE68-01(48591DE3C19B)	-0.489	-1.208	0.108	-18.005	4.272	34.546	-76.46	24.69	-60.96	-59.486	-54.978	22.932	-0.73764	0.51215	-0.37976	0.22186	28.5	13111	100
2025-3-27 20:13:52.185	WT901BLE68-01(48591DE3C19B)	-0.598	-1.208	0.108	-18.005	4.272	34.546	-76.65	25.02	-60.97	-59.486	-54.978	22.932	-0.73764	0.51215	-0.37976	0.22186	28.5	13111	100
2025-3-27 20:13:52.185	WT901BLE68-01(48591DE3C19B)	-0.598	-1.789	0.188	-4.578	12.024	-1.770	-76.82	25.17	-61.07	-59.486	-54.978	22.932	-0.73764	0.51215	-0.37976	0.22186	28.5	13111	100
2025-3-27 20:13:52.185	WT901BLE68-01(48591DE3C19B)	-0.692	-1.789	0.188	-4.578	12.024	-1.770	-76.95	25.16	-61.25	-59.486	-54.978	22.932	-0.73764	0.51215	-0.37976	0.22186	28.5	13111	100
2025-3-27 20:13:52.185	WT901BLE68-01(48591DE3C19B)	-0.692	-2.097	0.271	4.700	13.062	-25.330	-77.05	25.03	-61.46	-59.486	-54.978	22.932	-0.73764	0.51215	-0.37976	0.22186	28.5	13111	100
2025-3-27 20:13:52.246	WT901BLE68-01(48591DE3C19B)	-0.838	-2.097	0.271	4.700	13.062	-25.330	-77.13	24.78	-61.70	-59.486	-54.978	22.932	-0.73764	0.51215	-0.37976	0.22186	28.5	13111	100
2025-3-27 20:13:52.247	WT901BLE68-01(48591DE3C19B)	-0.838	-1.646	0.403	28.992	38.330	-34.363	-77.14	24.52	-62.10	-59.486	-54.978	22.932	-0.73764	0.51215	-0.37976	0.22186	28.5	13111	100
2025-3-27 20:13:52.247	WT901BLE68-01(48591DE3C19B)	-0.690	-1.646	0.403	28.992	38.330	-34.363	-77.08	24.25	-62.64	-59.486	-54.978	22.932	-0.73764	0.51215	-0.37976	0.22186	28.5	13111	100
2025-3-27 20:13:52.247	WT901BLE68-01(48591DE3C19B)	-0.690	-1.096	0.423	22.766	68.542	-29.236	-77.11	24.04	-63.33	-59.486	-54.978	22.932	-0.73764	0.51215	-0.37976	0.22186	28.5	13111	100
2025-3-27 20:13:52.276	WT901BLE68-01(48591DE3C19B)	-0.548	-1.096	0.423	22.766	68.542	-29.236	-77.22	23.90	-64.17	-59.486	-54.978	22.932	-0.71490	0.43018	-0.46277	0.29935	28.5	13111	100
2025-3-27 20:13:52.276	WT901BLE68-01(48591DE3C19B)	-0.548	-0.870	0.431	11.353	95.947	-22.705	-77.43	23.83	-65.15	-59.486	-54.978	22.932	-0.71490	0.43018	-0.46277	0.29935	28.5	13111	100
2025-3-27 20:13:52.276	WT901BLE68-01(48591DE3C19B)	-0.568	-0.870	0.431	11.353	95.947	-22.705	-77.75	23.81	-66.28	-59.486	-54.978	22.932	-0.71490	0.43018	-0.46277	0.29935	28.5	13111	100
2025-3-27 20:13:52.276	WT901BLE68-01(48591DE3C19B)	-0.568	-0.819	0.345	-7.141	84.412	-12.085	-78.12	23.83	-67.32	-59.486	-54.978	22.932	-0.71490	0.43018	-0.46277	0.29935	28.5	13111	100
2025-3-27 20:13:52.336	WT901BLE68-01(48591DE3C19B)	-0.704	-0.819	0.345	-7.141	84.412	-12.085	-78.56	23.89	-68.30	-59.486	-54.978	22.932	-0.71490	0.43018	-0.46277	0.29935	28.5	13111	100
2025-3-27 20:13:52.336	WT901BLE68-01(48591DE3C19B)	-0.704	-0.970	0.268	-27.161	21.423	-8.362	-78.94	23.91	-68.93	-59.486	-54.978	22.932	-0.71490	0.43018	-0.46277	0.29935	28.5	13111	100
2025-3-27 20:13:52.336	WT901BLE68-01(48591DE3C19B)	-0.604	-0.970	0.268	-27.161	21.423	-8.362	-79.29	23.88	-69.22	-59.486	-54.978	22.932	-0.71490	0.43018	-0.46277	0.29935	28.5	13111	100
2025-3-27 20:13:52.336	WT901BLE68-01(48591DE3C19B)	-0.604	-0.953	0.182	-26.489	-41.992	-1.282	-79.49	23.83	-69.16	-59.486	-54.978	22.932	-0.71490	0.43018	-0.46277	0.29935	28.5	13111	100
2025-3-27 20:13:52.371	WT901BLE68-01(48591DE3C19B)	-0.445	-0.953	0.182	-26.489	-41.992	-1.282	-79.55	23.77	-68.74	-59.486	-54.978	22.932	-0.71490	0.43018	-0.46277	0.29935	28.5	13111	100
2025-3-27 20:13:52.371	WT901BLE68-01(48591DE3C19B)	-0.445	-0.748	0.121	-21.362	-62.805	0.488	-79.54	23.70	-68.21	-59.486	-54.978	22.932	-0.71490	0.43018	-0.46277	0.29935	28.5	13111	100
2025-3-27 20:13:52.371	WT901BLE68-01(48591DE3C19B)	-0.272	-0.748	0.121	-21.362	-62.805	0.488	-79.45	23.62	-67.57	-59.486	-54.978	22.932	-0.71490	0.43018	-0.46277	0.29935	28.5	13111	100
2025-3-27 20:13:52.371	WT901BLE68-01(48591DE3C19B)	-0.272	-0.546	0.120	-13.916	-37.109	-2.380	-79.40	23.54	-67.07	-59.486	-54.978	22.932	-0.71490	0.43018	-0.46277	0.29935	28.5	13111	100
2025-3-27 20:13:52.396	WT901BLE68-01(48591DE3C19B)	-0.205	-0.546	0.120	-13.916	-37.109	-2.380	-79.36	23.48	-66.71	-59.486	-54.978	22.932	-0.71490	0.43018	-0.46277	0.29935	28.5	13111	100
2025-3-27 20:13:52.396	WT901BLE68-01(48591DE3C19B)	-0.205	-0.358	0.198	-8.240	5.676	6.836	-79.38	23.50	-66.59	-59.486	-54.978	22.932	-0.71490	0.43018	-0.46277	0.29935	28.5	13111	100
2025-3-27 20:13:52.396	WT901BLE68-01(48591DE3C19B)	-0.217	-0.358	0.198	-8.240	5.676	6.836	-79.46	23.60	-66.69	-59.486	-54.978	22.932	-0.71490	0.43018	-0.46277	0.29935	28.5	13111	100
2025-3-27 20:13:52.396	WT901BLE68-01(48591DE3C19B)	-0.217	-0.253	0.254	-7.507	28.137	15.503	-79.57	23.77	-66.92	-59.486	-54.978	22.932	-0.71490	0.43018	-0.46277	0.29935	28.5	13111	100
2025-3-27 20:13:52.428	WT901BLE68-01(48591DE3C19B)	-0.239	-0.253	0.254	-7.507	28.137	15.503	-79.72	23.99	-67.27	-59.486	-54.978	22.932	-0.71490	0.43018	-0.46277	0.29935	28.5	13111	100
2025-3-27 20:13:52.428	WT901BLE68-01(48591DE3C19B)	-0.239	-0.163	0.246	-10.132	28.015	18.738	-79.88	24.25	-67.64	-59.486	-54.978	22.932	-0.71490	0.43018	-0.46277	0.29935	28.5	13111	100
2025-3-27 20:13:52.428	WT901BLE68-01(48591DE3C19B)	-0.341	-0.163	0.246	-10.132	28.015	18.738	-80.03	24.51	-68.04	-59.486	-54.978	22.932	-0.71490	0.43018	-0.46277	0.29935	28.5	13111	100
2025-3-27 20:13:52.428	WT901BLE68-01(48591DE3C19B)	-0.341	-0.223	0.174	-26.062	10.132	18.005	-80.25	24.72	-68.26	-59.486	-54.978	22.932	-0.71490	0.43018	-0.46277	0.29935	28.5	13111	100
2025-3-27 20:13:52.486	WT901BLE68-01(48591DE3C19B)	-0.434	-0.223	0.174	-26.062	10.132	18.005	-80.46	24.94	-68.49	-59.486	-54.978	22.932	-0.71490	0.43018	-0.46277	0.29935	28.5	13111	100
2025-3-27 20:13:52.486	WT901BLE68-01(48591DE3C19B)	-0.434	-0.500	0.104	-44.922	-24.902	14.954	-80.71	25.08	-68.36	-56.644	-51.940	18.032	-0.71490	0.43018	-0.46277	0.29935	28.5	13111	100
2025-3-27 20:13:52.486	WT901BLE68-01(48591DE3C19B)	-0.464	-0.500	0.104	-44.922	-24.902	14.954	-80.96	25.23	-68.20	-56.644	-51.940	18.032	-0.71490	0.43018	-0.46277	0.29935	28.5	13111	100
2025-3-27 20:13:52.486	WT901BLE68-01(48591DE3C19B)	-0.464	-0.879	0.105	-59.753	-72.327	8.850	-81.15	25.24	-67.53	-56.644	-51.940	18.032	-0.71490	0.43018	-0.46277	0.29935	28.5	13111	100
2025-3-27 20:13:52.515	WT901BLE68-01(48591DE3C19B)	-0.597	-0.879	0.105	-59.753	-72.327	8.850	-81.35	25.26	-66.83	-56.644	-51.940	18.032	-0.71490	0.43018	-0.46277	0.29935	28.5	13111	100
2025-3-27 20:13:52.515	WT901BLE68-01(48591DE3C19B)	-0.597	-1.614	0.128	-66.711	-112.610	-0.916	-81.45	25.11	-65.69	-56.644	-51.940	18.032	-0.71490	0.43018	-0.46277	0.29935	28.5	13111	100
2025-3-27 20:13:52.515	WT901BLE68-01(48591DE3C19B)	-0.547	-1.614	0.128	-66.711	-112.610	-0.916	-81.57	24.96	-64.54	-56.644	-51.940	18.032	-0.71490	0.43018	-0.46277	0.29935	28.5	13111	100
2025-3-27 20:13:52.515	WT901BLE68-01(48591DE3C19B)	-0.547	-2.432	0.062	-45.166	-130.066	-12.390	-81.43	24.64	-63.22	-56.644	-51.940	18.032	-0.71490	0.43018	-0.46277	0.29935	28.5	13111	100
2025-3-27 20:13:52.546	WT901BLE68-01(48591DE3C19B)	-0.380	-2.432	0.062	-45.166	-130.066	-12.390	-81.31	24.32	-61.91	-56.644	-51.940	18.032	-0.71490	0.43018	-0.46277	0.29935	28.5	13111	100
2025-3-27 20:13:52.546	WT901BLE68-01(48591DE3C19B)	-0.380	-2.127	0.100	21.179	-111.633	-3.967	-80.62	24.09	-60.79	-56.644	-51.940	18.032	-0.71490	0.43018	-0.46277	0.29935	28.5	13111	100
2025-3-27 20:13:52.546	WT901BLE68-01(48591DE3C19B)	-0.178	-2.127	0.100	21.179	-111.633	-3.967	-79.95	23.83	-59.69	-56.644	-51.940	18.032	-0.71490	0.43018	-0.46277	0.29935	28.5	13111	100
2025-3-27 20:13:52.546	WT901BLE68-01(48591DE3C19B)	-0.178	-1.267	0.107	29.053	-60.608	-2.014	-79.43	23.68	-59.14	-56.644	-51.940	18.032	-0.71490	0.43018	-0.46277	0.29935	28.5	13111	100
2025-3-27 20:13:52.606	WT901BLE68-01(48591DE3C19B)	-0.051	-1.267	0.107	29.053	-60.608	-2.014	-78.91	23.51	-58.61	-56.644	-51.940	18.032	-0.71490	0.43018	-0.46277	0.29935	28.5	13111	100
2025-3-27 20:13:52.606	WT901BLE68-01(48591DE3C19B)	-0.051	-0.875	0.144	32.471	-2.869	16.968	-78.61	23.63	-58.66	-56.644	-51.940	18.032	-0.71490	0.43018	-0.46277	0.29935	28.5	13111	100
2025-3-27 20:13:52.606	WT901BLE68-01(48591DE3C19B)	-0.068	-0.875	0.144	32.471	-2.869	16.968	-78.29	23.75	-58.72	-56.644	-51.940	18.032	-0.71490	0.43018	-0.46277	0.29935	28.5	13111	100
2025-3-27 20:13:52.606	WT901BLE68-01(48591DE3C19B)	-0.068	-0.663	0.196	15.869	32.532	31.494	-78.29	24.07	-59.12	-56.644	-51.940	18.032	-0.71490	0.43018	-0.46277	0.29935	28.5	13111	100
2025-3-27 20:13:52.636	WT901BLE68-01(48591DE3C19B)	-0.071	-0.663	0.196	15.869	32.532	31.494	-78.28	24.39	-59.52	-56.644	-51.940	18.032	-0.71490	0.43018	-0.46277	0.29935	28.5	13111	100
2025-3-27 20:13:52.636	WT901BLE68-01(48591DE3C19B)	-0.071	-0.741	0.226	-0.305	44.617	25.452	-78.50	24.67	-60.08	-56.644	-51.940	18.032	-0.71490	0.43018	-0.46277	0.29935	28.5	13111	100
2025-3-27 20:13:52.636	WT901BLE68-01(48591DE3C19B)	-0.163	-0.741	0.226	-0.305	44.617	25.452	-78.71	24.94	-60.63	-56.644	-51.940	18.032	-0.71490	0.43018	-0.46277	0.29935	28.5	13111	100
2025-3-27 20:13:52.636	WT901BLE68-01(48591DE3C19B)	-0.163	-0.761	0.250	8.667	54.321	19.226	-78.88	25.16	-61.31	-56.644	-51.940	18.032	-0.71490	0.43018	-0.46277	0.29935	28.5	13111	100
2025-3-27 20:13:52.697	WT901BLE68-01(48591DE3C19B)	-0.255	-0.761	0.250	8.667	54.321	19.226	-79.05	25.38	-62.00	-56.644	-51.940	18.032	-0.71490	0.43018	-0.46277	0.29935	28.5	13111	100
2025-3-27 20:13:52.697	WT901BLE68-01(48591DE3C19B)	-0.255	-0.653	0.202	18.372	57.922	18.311	-79.13	25.60	-62.73	-56.644	-51.940	18.032	-0.71490	0.43018	-0.46277	0.29935	28.5	13111	100
2025-3-27 20:13:52.697	WT901BLE68-01(48591DE3C19B)	-0.231	-0.653	0.202	18.372	57.922	18.311	-79.22	25.82	-63.45	-56.644	-51.940	18.032	-0.71356	0.43808	-0.47318	0.27368	28.5	13111	100
2025-3-27 20:13:52.697	WT901BLE68-01(48591DE3C19B)	-0.231	-0.515	0.094	24.719	64.392	18.555	-79.28	26.05	-64.24	-56.644	-51.940	18.032	-0.71356	0.43808	-0.47318	0.27368	28.5	13111	100
2025-3-27 20:13:52.725	WT901BLE68-01(48591DE3C19B)	-0.223	-0.515	0.094	24.719	64.392	18.555	-79.34	26.28	-65.03	-56.644	-51.940	18.032	-0.71356	0.43808	-0.47318	0.27368	28.5	13111	100
2025-3-27 20:13:52.725	WT901BLE68-01(48591DE3C19B)	-0.223	-0.363	0.054	32.410	72.266	25.513	-79.35	26.60	-65.89	-56.644	-51.940	18.032	-0.71356	0.43808	-0.47318	0.27368	28.5	13111	100
2025-3-27 20:13:52.725	WT901BLE68-01(48591DE3C19B)	-0.292	-0.363	0.054	32.410	72.266	25.513	-79.37	26.93	-66.74	-56.644	-51.940	18.032	-0.71356	0.43808	-0.47318	0.27368	28.5	13111	100
2025-3-27 20:13:52.726	WT901BLE68-01(48591DE3C19B)	-0.292	-0.240	0.074	29.297	61.523	36.926	-79.36	27.34	-67.45	-56.644	-51.940	18.032	-0.71356	0.43808	-0.47318	0.27368	28.5	13111	100
2025-3-27 20:13:52.755	WT901BLE68-01(48591DE3C19B)	-0.331	-0.240	0.074	29.297	61.523	36.926	-79.35	27.77	-68.15	-56.644	-51.940	18.032	-0.71356	0.43808	-0.47318	0.27368	28.5	13111	100
2025-3-27 20:13:52.755	WT901BLE68-01(48591DE3C19B)	-0.331	-0.231	0.103	13.000	41.748	48.035	-79.39	28.28	-68.61	-56.644	-51.940	18.032	-0.71356	0.43808	-0.47318	0.27368	28.5	13111	100
2025-3-27 20:13:52.755	WT901BLE68-01(48591DE3C19B)	-0.314	-0.231	0.103	13.000	41.748	48.035	-79.44	28.80	-69.07	-56.644	-51.940	18.032	-0.71356	0.43808	-0.47318	0.27368	28.5	13111	100
2025-3-27 20:13:52.755	WT901BLE68-01(48591DE3C19B)	-0.314	-0.434	0.110	-8.423	32.776	50.598	-79.64	29.32	-69.43	-56.644	-51.940	18.032	-0.71356	0.43808	-0.47318	0.27368	28.5	13111	100
2025-3-27 20:13:52.786	WT901BLE68-01(48591DE3C19B)	-0.357	-0.434	0.110	-8.423	32.776	50.598	-79.85	29.84	-69.79	-56.644	-51.940	18.032	-0.71356	0.43808	-0.47318	0.27368	28.5	13111	100
2025-3-27 20:13:52.786	WT901BLE68-01(48591DE3C19B)	-0.357	-0.758	0.114	-18.799	41.321	44.800	-80.22	30.33	-70.26	-56.644	-51.940	18.032	-0.71356	0.43808	-0.47318	0.27368	28.5	13111	100
2025-3-27 20:13:52.786	WT901BLE68-01(48591DE3C19B)	-0.442	-0.758	0.114	-18.799	41.321	44.800	-80.59	30.81	-70.73	-56.644	-51.940	18.032	-0.71356	0.43808	-0.47318	0.27368	28.5	13111	100
2025-3-27 20:13:52.786	WT901BLE68-01(48591DE3C19B)	-0.442	-1.103	0.130	-16.663	56.396	30.334	-81.06	31.16	-71.40	-56.644	-51.940	18.032	-0.71356	0.43808	-0.47318	0.27368	28.5	13111	100
2025-3-27 20:13:52.846	WT901BLE68-01(48591DE3C19B)	-0.559	-1.103	0.130	-16.663	56.396	30.334	-81.53	31.50	-72.06	-56.644	-51.940	18.032	-0.71356	0.43808	-0.47318	0.27368	28.5	13111	100
2025-3-27 20:13:52.846	WT901BLE68-01(48591DE3C19B)	-0.559	-1.462	0.203	-5.310	58.105	0.732	-81.93	31.54	-72.80	-56.644	-51.940	18.032	-0.71356	0.43808	-0.47318	0.27368	28.5	13111	100
2025-3-27 20:13:52.846	WT901BLE68-01(48591DE3C19B)	-0.638	-1.462	0.203	-5.310	58.105	0.732	-82.33	31.57	-73.53	-56.644	-51.940	18.032	-0.71356	0.43808	-0.47318	0.27368	28.5	13111	100
2025-3-27 20:13:52.846	WT901BLE68-01(48591DE3C19B)	-0.638	-1.902	0.192	-7.751	63.904	-33.325	-82.81	31.27	-74.36	-56.644	-51.940	18.032	-0.71356	0.43808	-0.47318	0.27368	28.5	13111	100
2025-3-27 20:13:52.876	WT901BLE68-01(48591DE3C19B)	-0.982	-1.902	0.192	-7.751	63.904	-33.325	-83.29	30.96	-75.18	-56.252	-46.060	12.250	-0.71356	0.43808	-0.47318	0.27368	28.5	13111	100
2025-3-27 20:13:52.876	WT901BLE68-01(48591DE3C19B)	-1.071	-1.875	0.236	16.968	88.440	-57.556	-83.68	30.44	-76.31	-56.252	-46.060	12.250	-0.71356	0.43808	-0.47318	0.27368	28.5	13111	100
2025-3-27 20:13:52.876	WT901BLE68-01(48591DE3C19B)	-1.071	-1.212	0.337	26.733	84.595	-65.369	-83.98	29.89	-77.40	-56.252	-46.060	12.250	-0.71356	0.43808	-0.47318	0.27368	28.5	13111	100
2025-3-27 20:13:52.876	WT901BLE68-01(48591DE3C19B)	-0.840	-1.212	0.337	26.733	84.595	-65.369	-84.22	29.30	-78.46	-56.252	-46.060	12.250	-0.71356	0.43808	-0.47318	0.27368	28.5	13111	100
2025-3-27 20:13:52.906	WT901BLE68-01(48591DE3C19B)	-0.840	-0.690	0.349	13.794	45.593	-49.866	-84.38	28.78	-79.27	-56.252	-46.060	12.250	-0.71356	0.43808	-0.47318	0.27368	28.5	13111	100
2025-3-27 20:13:52.906	WT901BLE68-01(48591DE3C19B)	-0.602	-0.690	0.349	13.794	45.593	-49.866	-84.48	28.33	-79.86	-56.252	-46.060	12.250	-0.71356	0.43808	-0.47318	0.27368	28.5	13111	100
2025-3-27 20:13:52.906	WT901BLE68-01(48591DE3C19B)	-0.602	-0.548	0.204	-16.968	-22.156	-31.311	-84.55	27.95	-80.05	-56.252	-46.060	12.250	-0.71356	0.43808	-0.47318	0.27368	28.5	13111	100
2025-3-27 20:13:52.906	WT901BLE68-01(48591DE3C19B)	-0.512	-0.548	0.204	-16.968	-22.156	-31.311	-84.57	27.65	-79.87	-56.252	-46.060	12.250	-0.71356	0.43808	-0.47318	0.27368	28.5	13111	100
2025-3-27 20:13:52.972	WT901BLE68-01(48591DE3C19B)	-0.512	-0.817	0.075	-39.124	-89.905	-26.672	-84.53	27.33	-79.29	-56.252	-46.060	12.250	-0.71356	0.43808	-0.47318	0.27368	28.5	13111	100
2025-3-27 20:13:52.973	WT901BLE68-01(48591DE3C19B)	-0.389	-0.817	0.075	-39.124	-89.905	-26.672	-84.44	27.01	-78.34	-56.252	-46.060	12.250	-0.71356	0.43808	-0.47318	0.27368	28.5	13111	100
2025-3-27 20:13:52.973	WT901BLE68-01(48591DE3C19B)	-0.389	-0.945	0.042	-29.480	-124.512	-24.414	-84.22	26.69	-77.21	-56.252	-46.060	12.250	-0.71356	0.43808	-0.47318	0.27368	28.5	13111	100
2025-3-27 20:13:52.973	WT901BLE68-01(48591DE3C19B)	-0.311	-0.945	0.042	-29.480	-124.512	-24.414	-83.89	26.34	-75.89	-56.252	-46.060	12.250	-0.71356	0.43808	-0.47318	0.27368	28.5	13111	100
2025-3-27 20:13:52.996	WT901BLE68-01(48591DE3C19B)	-0.311	-0.815	0.087	-16.052	-117.249	-21.057	-83.51	26.01	-74.61	-56.252	-46.060	12.250	-0.71356	0.43808	-0.47318	0.27368	28.5	13111	100
2025-3-27 20:13:52.997	WT901BLE68-01(48591DE3C19B)	-0.149	-0.815	0.087	-16.052	-117.249	-21.057	-83.10	25.69	-73.39	-56.252	-46.060	12.250	-0.71356	0.43808	-0.47318	0.27368	28.5	13111	100
2025-3-27 20:13:52.997	WT901BLE68-01(48591DE3C19B)	-0.149	-0.541	0.104	-9.827	-83.374	-26.489	-82.75	25.35	-72.38	-56.252	-46.060	12.250	-0.71356	0.43808	-0.47318	0.27368	28.5	13111	100
2025-3-27 20:13:52.997	WT901BLE68-01(48591DE3C19B)	-0.013	-0.541	0.104	-9.827	-83.374	-26.489	-82.47	24.99	-71.57	-56.252	-46.060	12.250	-0.71356	0.43808	-0.47318	0.27368	28.5	13111	100
2025-3-27 20:13:53.27	WT901BLE68-01(48591DE3C19B)	-0.013	-0.271	0.117	-11.841	-33.813	-18.738	-82.31	24.71	-71.04	-56.252	-46.060	12.250	-0.71356	0.43808	-0.47318	0.27368	28.5	13111	100
2025-3-27 20:13:53.28	WT901BLE68-01(48591DE3C19B)	-0.083	-0.271	0.117	-11.841	-33.813	-18.738	-82.27	24.49	-70.78	-56.252	-46.060	12.250	-0.71356	0.43808	-0.47318	0.27368	28.5	13111	100
2025-3-27 20:13:53.28	WT901BLE68-01(48591DE3C19B)	-0.083	-0.244	0.164	-21.423	2.136	-11.963	-82.35	24.32	-70.72	-56.252	-46.060	12.250	-0.71356	0.43808	-0.47318	0.27368	28.5	13111	100
2025-3-27 20:13:53.28	WT901BLE68-01(48591DE3C19B)	-0.307	-0.244	0.164	-21.423	2.136	-11.963	-82.56	24.21	-70.87	-56.252	-46.060	12.250	-0.71356	0.43808	-0.47318	0.27368	28.5	13111	100
2025-3-27 20:13:53.116	WT901BLE68-01(48591DE3C19B)	-0.307	-0.473	0.192	-28.809	6.165	-16.907	-82.80	24.08	-71.04	-56.252	-46.060	12.250	-0.71356	0.43808	-0.47318	0.27368	28.5	13111	100
2025-3-27 20:13:53.117	WT901BLE68-01(48591DE3C19B)	-0.450	-0.473	0.192	-28.809	6.165	-16.907	-83.09	23.93	-71.25	-56.252	-46.060	12.250	-0.67517	0.43695	-0.50403	0.31470	28.5	13111	100
2025-3-27 20:13:53.117	WT901BLE68-01(48591DE3C19B)	-0.450	-0.708	0.145	-29.724	-21.667	-22.461	-83.31	23.74	-71.31	-56.252	-46.060	12.250	-0.67517	0.43695	-0.50403	0.31470	28.5	13111	100
2025-3-27 20:13:53.117	WT901BLE68-01(48591DE3C19B)	-0.423	-0.708	0.145	-29.724	-21.667	-22.461	-83.49	23.50	-71.22	-56.252	-46.060	12.250	-0.67517	0.43695	-0.50403	0.31470	28.5	13111	100
2025-3-27 20:13:53.118	WT901BLE68-01(48591DE3C19B)	-0.423	-1.003	0.051	-30.212	-49.927	-28.015	-83.60	23.23	-70.99	-56.252	-46.060	12.250	-0.67517	0.43695	-0.50403	0.31470	28.5	13111	100
2025-3-27 20:13:53.118	WT901BLE68-01(48591DE3C19B)	-0.484	-1.003	0.051	-30.212	-49.927	-28.015	-83.67	22.91	-70.59	-56.252	-46.060	12.250	-0.67517	0.43695	-0.50403	0.31470	28.5	13111	100
2025-3-27 20:13:53.118	WT901BLE68-01(48591DE3C19B)	-0.484	-1.640	-0.039	-26.978	-62.561	-36.926	-83.71	22.54	-70.13	-56.252	-46.060	12.250	-0.67517	0.43695	-0.50403	0.31470	28.5	13111	100
2025-3-27 20:13:53.118	WT901BLE68-01(48591DE3C19B)	-0.500	-1.640	-0.039	-26.978	-62.561	-36.926	-83.73	22.12	-69.59	-56.252	-46.060	12.250	-0.67517	0.43695	-0.50403	0.31470	28.5	13111	100
2025-3-27 20:13:53.176	WT901BLE68-01(48591DE3C19B)	-0.500	-2.140	-0.119	-9.399	-72.449	-36.621	-83.66	21.69	-68.99	-56.252	-46.060	12.250	-0.67517	0.43695	-0.50403	0.31470	28.5	13111	100
2025-3-27 20:13:53.176	WT901BLE68-01(48591DE3C19B)	-0.435	-2.140	-0.119	-9.399	-72.449	-36.621	-83.50	21.24	-68.34	-56.252	-46.060	12.250	-0.67517	0.43695	-0.50403	0.31470	28.5	13111	100
2025-3-27 20:13:53.176	WT901BLE68-01(48591DE3C19B)	-0.435	-1.796	-0.034	24.719	-71.899	-32.898	-83.19	20.81	-67.69	-56.252	-46.060	12.250	-0.67517	0.43695	-0.50403	0.31470	28.5	13111	100
2025-3-27 20:13:53.176	WT901BLE68-01(48591DE3C19B)	-0.290	-1.796	-0.034	24.719	-71.899	-32.898	-82.72	20.39	-67.06	-56.252	-46.060	12.250	-0.67517	0.43695	-0.50403	0.31470	28.5	13111	100
2025-3-27 20:13:53.238	WT901BLE68-01(48591DE3C19B)	-0.290	-1.278	0.067	13.000	-53.955	-21.973	-82.35	20.03	-66.52	-56.252	-46.060	12.250	-0.67517	0.43695	-0.50403	0.31470	28.5	13111	100
2025-3-27 20:13:53.238	WT901BLE68-01(48591DE3C19B)	-0.236	-1.278	0.067	13.000	-53.955	-21.973	-82.07	19.73	-66.07	-56.252	-46.060	12.250	-0.67517	0.43695	-0.50403	0.31470	28.5	13111	100
2025-3-27 20:13:53.238	WT901BLE68-01(48591DE3C19B)	-0.236	-1.116	0.203	4.272	-31.433	-11.597	-81.88	19.49	-65.75	-56.252	-46.060	12.250	-0.67517	0.43695	-0.50403	0.31470	28.5	13111	100
2025-3-27 20:13:53.238	WT901BLE68-01(48591DE3C19B)	-0.284	-1.116	0.203	4.272	-31.433	-11.597	-81.77	19.32	-65.54	-56.252	-46.060	12.250	-0.67517	0.43695	-0.50403	0.31470	28.5	13111	100
2025-3-27 20:13:53.238	WT901BLE68-01(48591DE3C19B)	-0.284	-0.960	0.295	0.488	-23.865	-2.563	-81.68	19.20	-65.37	-56.252	-46.060	12.250	-0.67517	0.43695	-0.50403	0.31470	28.5	13111	100
2025-3-27 20:13:53.239	WT901BLE68-01(48591DE3C19B)	-0.284	-0.960	0.295	0.488	-23.865	-2.563	-81.62	19.12	-65.24	-56.252	-46.060	12.250	-0.67517	0.43695	-0.50403	0.31470	28.5	13111	100
2025-3-27 20:13:53.239	WT901BLE68-01(48591DE3C19B)	-0.284	-0.784	0.291	0.671	-23.987	0.916	-81.55	19.07	-65.12	-56.252	-46.060	12.250	-0.67517	0.43695	-0.50403	0.31470	28.5	13111	100
2025-3-27 20:13:53.239	WT901BLE68-01(48591DE3C19B)	-0.252	-0.784	0.291	0.671	-23.987	0.916	-81.47	19.03	-64.99	-56.252	-46.060	12.250	-0.67517	0.43695	-0.50403	0.31470	28.5	13111	100
2025-3-27 20:13:53.297	WT901BLE68-01(48591DE3C19B)	-0.252	-0.612	0.229	6.287	-15.442	4.700	-81.38	19.01	-64.92	-56.252	-46.060	12.250	-0.67517	0.43695	-0.50403	0.31470	28.5	13111	100
2025-3-27 20:13:53.297	WT901BLE68-01(48591DE3C19B)	-0.241	-0.612	0.229	6.287	-15.442	4.700	-81.26	19.02	-64.89	-56.252	-46.060	12.250	-0.67517	0.43695	-0.50403	0.31470	28.5	13111	100
2025-3-27 20:13:53.297	WT901BLE68-01(48591DE3C19B)	-0.241	-0.479	0.128	14.893	4.578	10.925	-81.13	19.08	-64.97	-58.604	-39.004	7.154	-0.67517	0.43695	-0.50403	0.31470	28.5	13111	100
2025-3-27 20:13:53.298	WT901BLE68-01(48591DE3C19B)	-0.246	-0.479	0.128	14.893	4.578	10.925	-80.99	19.19	-65.14	-58.604	-39.004	7.154	-0.67517	0.43695	-0.50403	0.31470	28.5	13111	100
2025-3-27 20:13:53.325	WT901BLE68-01(48591DE3C19B)	-0.246	-0.371	0.047	21.057	20.752	19.165	-80.84	19.35	-65.39	-58.604	-39.004	7.154	-0.67517	0.43695	-0.50403	0.31470	28.5	13111	100
2025-3-27 20:13:53.325	WT901BLE68-01(48591DE3C19B)	-0.237	-0.371	0.047	21.057	20.752	19.165	-80.69	19.57	-65.72	-58.604	-39.004	7.154	-0.67517	0.43695	-0.50403	0.31470	28.5	13111	100
2025-3-27 20:13:53.326	WT901BLE68-01(48591DE3C19B)	-0.237	-0.277	0.041	22.705	26.794	30.640	-80.55	19.86	-66.07	-58.604	-39.004	7.154	-0.67517	0.43695	-0.50403	0.31470	28.5	13111	100
2025-3-27 20:13:53.326	WT901BLE68-01(48591DE3C19B)	-0.224	-0.277	0.041	22.705	26.794	30.640	-80.39	20.20	-66.43	-58.604	-39.004	7.154	-0.67517	0.43695	-0.50403	0.31470	28.5	13111	100
2025-3-27 20:13:53.417	WT901BLE68-01(48591DE3C19B)	-0.224	-0.251	0.059	18.555	28.564	42.603	-80.29	20.68	-66.79	-58.604	-39.004	7.154	-0.67517	0.43695	-0.50403	0.31470	28.5	13111	100
2025-3-27 20:13:53.417	WT901BLE68-01(48591DE3C19B)	-0.256	-0.251	0.059	18.555	28.564	42.603	-80.18	21.16	-67.15	-58.604	-39.004	7.154	-0.67517	0.43695	-0.50403	0.31470	28.5	13111	100
2025-3-27 20:13:53.417	WT901BLE68-01(48591DE3C19B)	-0.256	-0.327	0.068	10.681	27.771	47.363	-80.15	21.68	-67.49	-58.604	-39.004	7.154	-0.67517	0.43695	-0.50403	0.31470	28.5	13111	100
2025-3-27 20:13:53.418	WT901BLE68-01(48591DE3C19B)	-0.321	-0.327	0.068	10.681	27.771	47.363	-80.11	22.21	-67.83	-58.604	-39.004	7.154	-0.67517	0.43695	-0.50403	0.31470	28.5	13111	100
2025-3-27 20:13:53.418	WT901BLE68-01(48591DE3C19B)	-0.321	-0.504	0.071	5.798	21.423	48.706	-80.11	22.74	-68.10	-58.604	-39.004	7.154	-0.67517	0.43695	-0.50403	0.31470	28.5	13111	100
2025-3-27 20:13:53.418	WT901BLE68-01(48591DE3C19B)	-0.435	-0.504	0.071	5.798	21.423	48.706	-80.10	23.27	-68.36	-58.604	-39.004	7.154	-0.67517	0.43695	-0.50403	0.31470	28.5	13111	100
2025-3-27 20:13:53.418	WT901BLE68-01(48591DE3C19B)	-0.435	-0.741	0.092	-4.944	5.859	39.978	-80.15	23.69	-68.48	-58.604	-39.004	7.154	-0.67517	0.43695	-0.50403	0.31470	28.5	13111	100
2025-3-27 20:13:53.418	WT901BLE68-01(48591DE3C19B)	-0.489	-0.741	0.092	-4.944	5.859	39.978	-80.19	24.11	-68.59	-58.604	-39.004	7.154	-0.67517	0.43695	-0.50403	0.31470	28.5	13111	100
2025-3-27 20:13:53.445	WT901BLE68-01(48591DE3C19B)	-0.489	-1.199	0.110	-20.569	-16.846	17.212	-80.31	24.26	-68.49	-58.604	-39.004	7.154	-0.67517	0.43695	-0.50403	0.31470	28.5	13111	100
2025-3-27 20:13:53.445	WT901BLE68-01(48591DE3C19B)	-0.561	-1.199	0.110	-20.569	-16.846	17.212	-80.44	24.42	-68.39	-58.604	-39.004	7.154	-0.67517	0.43695	-0.50403	0.31470	28.5	13111	100
2025-3-27 20:13:53.446	WT901BLE68-01(48591DE3C19B)	-0.561	-1.950	0.188	-18.250	-25.635	-25.574	-80.54	24.12	-68.27	-58.604	-39.004	7.154	-0.67517	0.43695	-0.50403	0.31470	28.5	13111	100
2025-3-27 20:13:53.446	WT901BLE68-01(48591DE3C19B)	-0.778	-1.950	0.188	-18.250	-25.635	-25.574	-80.64	23.82	-68.16	-58.604	-39.004	7.154	-0.69260	0.43716	-0.48370	0.30838	28.5	13111	100
2025-3-27 20:13:53.475	WT901BLE68-01(48591DE3C19B)	-0.778	-2.508	0.274	1.892	-28.259	-37.964	-80.55	23.38	-68.04	-58.604	-39.004	7.154	-0.69260	0.43716	-0.48370	0.30838	28.5	13111	100
2025-3-27 20:13:53.475	WT901BLE68-01(48591DE3C19B)	-0.867	-2.508	0.274	1.892	-28.259	-37.964	-80.45	22.95	-67.92	-58.604	-39.004	7.154	-0.69260	0.43716	-0.48370	0.30838	28.5	13111	100
2025-3-27 20:13:53.475	WT901BLE68-01(48591DE3C19B)	-0.867	-1.758	0.438	29.724	-15.930	-53.711	-80.15	22.38	-67.96	-58.604	-39.004	7.154	-0.69260	0.43716	-0.48370	0.30838	28.5	13111	100
2025-3-27 20:13:53.476	WT901BLE68-01(48591DE3C19B)	-0.646	-1.758	0.438	29.724	-15.930	-53.711	-79.83	21.83	-68.02	-58.604	-39.004	7.154	-0.69260	0.43716	-0.48370	0.30838	28.5	13111	100
2025-3-27 20:13:53.536	WT901BLE68-01(48591DE3C19B)	-0.646	-1.283	0.479	13.672	12.512	-41.443	-79.78	21.45	-68.36	-58.604	-39.004	7.154	-0.69260	0.43716	-0.48370	0.30838	28.5	13111	100
2025-3-27 20:13:53.536	WT901BLE68-01(48591DE3C19B)	-0.523	-1.283	0.479	13.672	12.512	-41.443	-79.72	21.07	-68.70	-58.604	-39.004	7.154	-0.69260	0.43716	-0.48370	0.30838	28.5	13111	100
2025-3-27 20:13:53.537	WT901BLE68-01(48591DE3C19B)	-0.523	-1.061	0.462	10.986	41.382	-22.949	-79.77	20.92	-69.31	-58.604	-39.004	7.154	-0.69260	0.43716	-0.48370	0.30838	28.5	13111	100
2025-3-27 20:13:53.537	WT901BLE68-01(48591DE3C19B)	-0.425	-1.061	0.462	10.986	41.382	-22.949	-79.81	20.78	-69.93	-58.604	-39.004	7.154	-0.69260	0.43716	-0.48370	0.30838	28.5	13111	100
2025-3-27 20:13:53.596	WT901BLE68-01(48591DE3C19B)	-0.425	-0.716	0.396	5.615	28.564	2.686	-79.84	20.86	-70.37	-58.604	-39.004	7.154	-0.69260	0.43716	-0.48370	0.30838	28.5	13111	100
2025-3-27 20:13:53.597	WT901BLE68-01(48591DE3C19B)	-0.280	-0.716	0.396	5.615	28.564	2.686	-79.86	20.95	-70.82	-58.604	-39.004	7.154	-0.69260	0.43716	-0.48370	0.30838	28.5	13111	100
2025-3-27 20:13:53.597	WT901BLE68-01(48591DE3C19B)	-0.280	-0.515	0.274	-21.606	-24.597	20.691	-79.93	21.12	-70.67	-58.604	-39.004	7.154	-0.69260	0.43716	-0.48370	0.30838	28.5	13111	100
2025-3-27 20:13:53.597	WT901BLE68-01(48591DE3C19B)	-0.168	-0.515	0.274	-21.606	-24.597	20.691	-80.00	21.29	-70.53	-58.604	-39.004	7.154	-0.69260	0.43716	-0.48370	0.30838	28.5	13111	100
2025-3-27 20:13:53.598	WT901BLE68-01(48591DE3C19B)	-0.168	-0.574	0.155	-38.574	-64.636	27.283	-80.08	21.45	-69.96	-58.604	-39.004	7.154	-0.69260	0.43716	-0.48370	0.30838	28.5	13111	100
2025-3-27 20:13:53.598	WT901BLE68-01(48591DE3C19B)	-0.200	-0.574	0.155	-38.574	-64.636	27.283	-80.16	21.60	-69.39	-58.604	-39.004	7.154	-0.69260	0.43716	-0.48370	0.30838	28.5	13111	100
2025-3-27 20:13:53.598	WT901BLE68-01(48591DE3C19B)	-0.200	-0.632	0.118	-28.320	-59.570	35.583	-80.15	21.85	-68.86	-58.604	-39.004	7.154	-0.69260	0.43716	-0.48370	0.30838	28.5	13111	100
2025-3-27 20:13:53.598	WT901BLE68-01(48591DE3C19B)	-0.291	-0.632	0.118	-28.320	-59.570	35.583	-80.14	22.09	-68.33	-58.604	-39.004	7.154	-0.69260	0.43716	-0.48370	0.30838	28.5	13111	100
2025-3-27 20:13:53.686	WT901BLE68-01(48591DE3C19B)	-0.291	-0.500	0.120	-15.076	-39.124	37.598	-80.07	22.39	-68.02	-58.604	-39.004	7.154	-0.69260	0.43716	-0.48370	0.30838	28.5	13111	100
2025-3-27 20:13:53.686	WT901BLE68-01(48591DE3C19B)	-0.221	-0.500	0.120	-15.076	-39.124	37.598	-80.01	22.69	-67.70	-58.604	-39.004	7.154	-0.69260	0.43716	-0.48370	0.30838	28.5	13111	100
2025-3-27 20:13:53.686	WT901BLE68-01(48591DE3C19B)	-0.221	-0.324	0.138	-9.521	-19.043	38.574	-79.96	23.03	-67.60	-58.604	-39.004	7.154	-0.69260	0.43716	-0.48370	0.30838	28.5	13111	100
2025-3-27 20:13:53.686	WT901BLE68-01(48591DE3C19B)	-0.091	-0.324	0.138	-9.521	-19.043	38.574	-79.91	23.37	-67.51	-58.604	-39.004	7.154	-0.69260	0.43716	-0.48370	0.30838	28.5	13111	100
2025-3-27 20:13:53.715	WT901BLE68-01(48591DE3C19B)	-0.091	-0.240	0.142	-5.798	11.108	41.382	-79.95	23.79	-67.73	-60.466	-36.848	4.508	-0.69260	0.43716	-0.48370	0.30838	28.5	13111	100
2025-3-27 20:13:53.715	WT901BLE68-01(48591DE3C19B)	-0.130	-0.240	0.142	-5.798	11.108	41.382	-79.99	24.20	-67.95	-60.466	-36.848	4.508	-0.69260	0.43716	-0.48370	0.30838	28.5	13111	100
2025-3-27 20:13:53.715	WT901BLE68-01(48591DE3C19B)	-0.130	-0.291	0.112	-4.150	37.781	39.124	-80.13	24.64	-68.47	-60.466	-36.848	4.508	-0.69260	0.43716	-0.48370	0.30838	28.5	13111	100
2025-3-27 20:13:53.715	WT901BLE68-01(48591DE3C19B)	-0.268	-0.291	0.112	-4.150	37.781	39.124	-80.27	25.07	-68.99	-60.466	-36.848	4.508	-0.69260	0.43716	-0.48370	0.30838	28.5	13111	100
2025-3-27 20:13:53.716	WT901BLE68-01(48591DE3C19B)	-0.268	-0.495	0.069	-9.277	35.339	29.602	-80.46	25.40	-69.49	-60.466	-36.848	4.508	-0.69260	0.43716	-0.48370	0.30838	28.5	13111	100
2025-3-27 20:13:53.716	WT901BLE68-01(48591DE3C19B)	-0.390	-0.495	0.069	-9.277	35.339	29.602	-80.67	25.73	-70.00	-60.466	-36.848	4.508	-0.69260	0.43716	-0.48370	0.30838	28.5	13111	100
2025-3-27 20:13:53.717	WT901BLE68-01(48591DE3C19B)	-0.390	-0.808	0.044	-21.790	9.705	15.442	-80.89	25.88	-70.24	-60.466	-36.848	4.508	-0.69260	0.43716	-0.48370	0.30838	28.5	13111	100
2025-3-27 20:13:53.717	WT901BLE68-01(48591DE3C19B)	-0.444	-0.808	0.044	-21.790	9.705	15.442	-81.12	26.04	-70.48	-60.466	-36.848	4.508	-0.69260	0.43716	-0.48370	0.30838	28.5	13111	100
2025-3-27 20:13:53.776	WT901BLE68-01(48591DE3C19B)	-0.444	-1.291	0.017	-34.363	-21.729	-1.465	-81.35	25.98	-70.38	-60.466	-36.848	4.508	-0.69260	0.43716	-0.48370	0.30838	28.5	13111	100
2025-3-27 20:13:53.776	WT901BLE68-01(48591DE3C19B)	-0.524	-1.291	0.017	-34.363	-21.729	-1.465	-81.58	25.91	-70.28	-60.466	-36.848	4.508	-0.69260	0.43716	-0.48370	0.30838	28.5	13111	100
2025-3-27 20:13:53.776	WT901BLE68-01(48591DE3C19B)	-0.524	-2.125	0.029	-28.870	-40.527	-25.574	-81.71	25.58	-70.00	-60.466	-36.848	4.508	-0.69260	0.43716	-0.48370	0.30838	28.5	13111	100
2025-3-27 20:13:53.776	WT901BLE68-01(48591DE3C19B)	-0.556	-2.125	0.029	-28.870	-40.527	-25.574	-81.84	25.24	-69.72	-60.466	-36.848	4.508	-0.69260	0.43716	-0.48370	0.30838	28.5	13111	100
2025-3-27 20:13:53.805	WT901BLE68-01(48591DE3C19B)	-0.496	-2.732	0.055	8.301	-53.223	-25.513	-81.56	24.87	-69.31	-60.466	-36.848	4.508	-0.69260	0.43716	-0.48370	0.30838	28.5	13111	100
2025-3-27 20:13:53.805	WT901BLE68-01(48591DE3C19B)	-0.496	-1.755	0.148	46.448	-43.640	-25.452	-81.12	24.51	-68.94	-60.466	-36.848	4.508	-0.69260	0.43716	-0.48370	0.30838	28.5	13111	100
2025-3-27 20:13:53.805	WT901BLE68-01(48591DE3C19B)	-0.170	-1.755	0.148	46.448	-43.640	-25.452	-80.52	24.15	-68.64	-60.466	-36.848	4.508	-0.69260	0.43716	-0.48370	0.30838	28.5	13111	100
2025-3-27 20:13:53.806	WT901BLE68-01(48591DE3C19B)	-0.170	-1.209	0.096	32.410	-0.977	-9.155	-80.08	23.90	-68.56	-60.466	-36.848	4.508	-0.69260	0.43716	-0.48370	0.30838	28.5	13111	100
2025-3-27 20:13:53.867	WT901BLE68-01(48591DE3C19B)	0.012	-1.209	0.096	32.410	-0.977	-9.155	-79.80	23.77	-68.69	-60.466	-36.848	4.508	-0.69260	0.43716	-0.48370	0.30838	28.5	13111	100
2025-3-27 20:13:53.867	WT901BLE68-01(48591DE3C19B)	0.012	-0.813	0.133	31.067	53.101	13.000	-79.64	23.79	-69.10	-60.466	-36.848	4.508	-0.69260	0.43716	-0.48370	0.30838	28.5	13111	100
2025-3-27 20:13:53.867	WT901BLE68-01(48591DE3C19B)	0.002	-0.813	0.133	31.067	53.101	13.000	-79.60	23.96	-69.77	-60.466	-36.848	4.508	-0.69260	0.43716	-0.48370	0.30838	28.5	13111	100
2025-3-27 20:13:53.867	WT901BLE68-01(48591DE3C19B)	0.002	-0.591	0.198	12.268	81.055	22.095	-79.71	24.19	-70.58	-60.466	-36.848	4.508	-0.69260	0.43716	-0.48370	0.30838	28.5	13111	100
2025-3-27 20:13:53.897	WT901BLE68-01(48591DE3C19B)	-0.155	-0.591	0.198	12.268	81.055	22.095	-79.96	24.49	-71.54	-60.466	-36.848	4.508	-0.69260	0.43716	-0.48370	0.30838	28.5	13111	100
2025-3-27 20:13:53.897	WT901BLE68-01(48591DE3C19B)	-0.155	-0.602	0.264	-5.371	62.317	8.118	-80.27	24.69	-72.40	-60.466	-36.848	4.508	-0.68234	0.41064	-0.50598	0.33112	28.5	13111	100
2025-3-27 20:13:53.897	WT901BLE68-01(48591DE3C19B)	-0.325	-0.602	0.264	-5.371	62.317	8.118	-80.63	24.80	-73.19	-60.466	-36.848	4.508	-0.68234	0.41064	-0.50598	0.33112	28.5	13111	100
2025-3-27 20:13:53.897	WT901BLE68-01(48591DE3C19B)	-0.325	-0.614	0.293	-5.371	17.944	-0.793	-80.88	24.82	-73.73	-60.466	-36.848	4.508	-0.68234	0.41064	-0.50598	0.33112	28.5	13111	100
2025-3-27 20:13:53.927	WT901BLE68-01(48591DE3C19B)	-0.406	-0.614	0.293	-5.371	17.944	-0.793	-81.02	24.78	-74.05	-60.466	-36.848	4.508	-0.68234	0.41064	-0.50598	0.33112	28.5	13111	100
2025-3-27 20:13:53.927	WT901BLE68-01(48591DE3C19B)	-0.406	-0.498	0.225	3.479	-12.207	-8.667	-81.05	24.68	-74.21	-60.466	-36.848	4.508	-0.68234	0.41064	-0.50598	0.33112	28.5	13111	100
2025-3-27 20:13:53.927	WT901BLE68-01(48591DE3C19B)	-0.437	-0.498	0.225	3.479	-12.207	-8.667	-80.96	24.52	-74.22	-60.466	-36.848	4.508	-0.68234	0.41064	-0.50598	0.33112	28.5	13111	100
2025-3-27 20:13:53.927	WT901BLE68-01(48591DE3C19B)	-0.437	-0.352	0.114	12.207	-13.367	-8.606	-80.82	24.37	-74.23	-60.466	-36.848	4.508	-0.68234	0.41064	-0.50598	0.33112	28.5	13111	100
2025-3-27 20:13:53.955	WT901BLE68-01(48591DE3C19B)	-0.392	-0.352	0.114	12.207	-13.367	-8.606	-80.63	24.23	-74.23	-60.466	-36.848	4.508	-0.68234	0.41064	-0.50598	0.33112	28.5	13111	100
2025-3-27 20:13:53.955	WT901BLE68-01(48591DE3C19B)	-0.392	-0.271	0.042	17.517	-16.418	-0.122	-80.40	24.15	-74.21	-60.466	-36.848	4.508	-0.68234	0.41064	-0.50598	0.33112	28.5	13111	100
2025-3-27 20:13:53.955	WT901BLE68-01(48591DE3C19B)	-0.226	-0.271	0.042	17.517	-16.418	-0.122	-80.14	24.11	-74.17	-60.466	-36.848	4.508	-0.68234	0.41064	-0.50598	0.33112	28.5	13111	100
2025-3-27 20:13:53.955	WT901BLE68-01(48591DE3C19B)	-0.226	-0.238	0.043	16.663	-16.418	9.338	-79.88	24.13	-74.11	-60.466	-36.848	4.508	-0.68234	0.41064	-0.50598	0.33112	28.5	13111	100
2025-3-27 20:13:54.16	WT901BLE68-01(48591DE3C19B)	-0.174	-0.238	0.043	16.663	-16.418	9.338	-79.62	24.20	-74.05	-60.466	-36.848	4.508	-0.68234	0.41064	-0.50598	0.33112	28.5	13111	100
2025-3-27 20:13:54.16	WT901BLE68-01(48591DE3C19B)	-0.174	-0.354	0.061	10.559	-0.916	11.108	-79.42	24.30	-74.08	-60.466	-36.848	4.508	-0.68234	0.41064	-0.50598	0.33112	28.5	13111	100
2025-3-27 20:13:54.16	WT901BLE68-01(48591DE3C19B)	-0.278	-0.354	0.061	10.559	-0.916	11.108	-79.29	24.42	-74.18	-60.466	-36.848	4.508	-0.68234	0.41064	-0.50598	0.33112	28.5	13111	100
2025-3-27 20:13:54.16	WT901BLE68-01(48591DE3C19B)	-0.278	-0.569	0.114	6.714	12.939	14.038	-79.21	24.56	-74.35	-60.466	-36.848	4.508	-0.68234	0.41064	-0.50598	0.33112	28.5	13111	100
2025-3-27 20:13:54.48	WT901BLE68-01(48591DE3C19B)	-0.416	-0.569	0.114	6.714	12.939	14.038	-79.18	24.73	-74.59	-60.466	-36.848	4.508	-0.68234	0.41064	-0.50598	0.33112	28.5	13111	100
2025-3-27 20:13:54.48	WT901BLE68-01(48591DE3C19B)	-0.416	-0.792	0.117	-5.798	20.325	10.376	-79.23	24.89	-74.87	-60.466	-36.848	4.508	-0.68234	0.41064	-0.50598	0.33112	28.5	13111	100
2025-3-27 20:13:54.48	WT901BLE68-01(48591DE3C19B)	-0.491	-0.792	0.117	-5.798	20.325	10.376	-79.37	25.04	-75.19	-60.466	-36.848	4.508	-0.68234	0.41064	-0.50598	0.33112	28.5	13111	100
2025-3-27 20:13:54.48	WT901BLE68-01(48591DE3C19B)	-0.491	-1.294	0.231	-15.564	33.325	-8.057	-79.60	25.10	-75.60	-60.466	-36.848	4.508	-0.68234	0.41064	-0.50598	0.33112	28.5	13111	100
2025-3-27 20:13:54.77	WT901BLE68-01(48591DE3C19B)	-0.764	-1.294	0.231	-15.564	33.325	-8.057	-79.91	25.09	-76.09	-60.466	-36.848	4.508	-0.68234	0.41064	-0.50598	0.33112	28.5	13111	100
2025-3-27 20:13:54.78	WT901BLE68-01(48591DE3C19B)	-0.764	-2.118	0.396	-6.409	54.871	-37.781	-80.23	24.93	-76.71	-60.466	-36.848	4.508	-0.68234	0.41064	-0.50598	0.33112	28.5	13111	100
2025-3-27 20:13:54.78	WT901BLE68-01(48591DE3C19B)	-1.042	-2.118	0.396	-6.409	54.871	-37.781	-80.57	24.64	-77.48	-60.270	-36.456	3.822	-0.68234	0.41064	-0.50598	0.33112	28.5	13111	100
2025-3-27 20:13:54.78	WT901BLE68-01(48591DE3C19B)	-1.042	-2.519	0.387	20.752	64.697	-39.978	-80.79	24.34	-78.29	-60.270	-36.456	3.822	-0.68234	0.41064	-0.50598	0.33112	28.5	13111	100
2025-3-27 20:13:54.136	WT901BLE68-01(48591DE3C19B)	-0.968	-2.519	0.387	20.752	64.697	-39.978	-80.89	24.04	-79.16	-60.270	-36.456	3.822	-0.68234	0.41064	-0.50598	0.33112	28.5	13111	100
2025-3-27 20:13:54.136	WT901BLE68-01(48591DE3C19B)	-0.968	-1.560	0.388	42.480	83.069	-46.387	-80.93	23.72	-80.11	-60.270	-36.456	3.822	-0.68234	0.41064	-0.50598	0.33112	28.5	13111	100
2025-3-27 20:13:54.136	WT901BLE68-01(48591DE3C19B)	-0.670	-1.560	0.388	42.480	83.069	-46.387	-80.88	23.40	-81.17	-60.270	-36.456	3.822	-0.68234	0.41064	-0.50598	0.33112	28.5	13111	100
2025-3-27 20:13:54.136	WT901BLE68-01(48591DE3C19B)	-0.670	-1.015	0.391	34.119	96.069	-30.273	-80.89	23.17	-82.27	-60.270	-36.456	3.822	-0.68234	0.41064	-0.50598	0.33112	28.5	13111	100
2025-3-27 20:13:54.172	WT901BLE68-01(48591DE3C19B)	-0.524	-1.015	0.391	34.119	96.069	-30.273	-80.96	23.03	-83.43	-60.270	-36.456	3.822	-0.68234	0.41064	-0.50598	0.33112	28.5	13111	100
2025-3-27 20:13:54.172	WT901BLE68-01(48591DE3C19B)	-0.524	-0.627	0.364	26.855	57.007	0.244	-80.96	23.02	-84.35	-60.270	-36.456	3.822	-0.68234	0.41064	-0.50598	0.33112	28.5	13111	100
2025-3-27 20:13:54.172	WT901BLE68-01(48591DE3C19B)	-0.516	-0.627	0.364	26.855	57.007	0.244	-80.90	23.13	-85.05	-60.270	-36.456	3.822	-0.68234	0.41064	-0.50598	0.33112	28.5	13111	100
2025-3-27 20:13:54.172	WT901BLE68-01(48591DE3C19B)	-0.516	-0.451	0.289	-15.442	-28.503	9.216	-80.86	23.22	-85.28	-60.270	-36.456	3.822	-0.68234	0.41064	-0.50598	0.33112	28.5	13111	100
2025-3-27 20:13:54.197	WT901BLE68-01(48591DE3C19B)	-0.370	-0.451	0.289	-15.442	-28.503	9.216	-80.85	23.29	-85.05	-60.270	-36.456	3.822	-0.68234	0.41064	-0.50598	0.33112	28.5	13111	100
2025-3-27 20:13:54.197	WT901BLE68-01(48591DE3C19B)	-0.370	-0.744	0.231	-39.429	-97.656	4.456	-80.80	23.29	-84.47	-60.270	-36.456	3.822	-0.68234	0.41064	-0.50598	0.33112	28.5	13111	100
2025-3-27 20:13:54.197	WT901BLE68-01(48591DE3C19B)	-0.231	-0.744	0.231	-39.429	-97.656	4.456	-80.74	23.20	-83.52	-60.270	-36.456	3.822	-0.68234	0.41064	-0.50598	0.33112	28.5	13111	100
2025-3-27 20:13:54.197	WT901BLE68-01(48591DE3C19B)	-0.231	-0.951	0.159	-15.930	-82.642	11.169	-80.58	23.15	-82.65	-60.270	-36.456	3.822	-0.68234	0.41064	-0.50598	0.33112	28.5	13111	100
2025-3-27 20:13:54.256	WT901BLE68-01(48591DE3C19B)	-0.158	-0.951	0.159	-15.930	-82.642	11.169	-80.35	23.15	-81.86	-60.270	-36.456	3.822	-0.68234	0.41064	-0.50598	0.33112	28.5	13111	100
2025-3-27 20:13:54.256	WT901BLE68-01(48591DE3C19B)	-0.158	-0.808	0.090	9.460	-27.161	5.554	-80.11	23.15	-81.36	-60.270	-36.456	3.822	-0.68234	0.41064	-0.50598	0.33112	28.5	13111	100
2025-3-27 20:13:54.256	WT901BLE68-01(48591DE3C19B)	-0.090	-0.808	0.090	9.460	-27.161	5.554	-79.87	23.16	-81.17	-60.270	-36.456	3.822	-0.68234	0.41064	-0.50598	0.33112	28.5	13111	100
2025-3-27 20:13:54.256	WT901BLE68-01(48591DE3C19B)	-0.090	-0.561	0.044	18.127	24.475	3.174	-79.77	23.24	-81.52	-60.270	-36.456	3.822	-0.68234	0.41064	-0.50598	0.33112	28.5	13111	100
2025-3-27 20:13:54.285	WT901BLE68-01(48591DE3C19B)	-0.083	-0.561	0.044	18.127	24.475	3.174	-79.67	23.31	-81.88	-60.270	-36.456	3.822	-0.65283	0.37228	-0.52829	0.39499	28.5	13111	100
2025-3-27 20:13:54.285	WT901BLE68-01(48591DE3C19B)	-0.083	-0.338	0.053	22.888	57.434	6.714	-79.67	23.47	-82.57	-60.270	-36.456	3.822	-0.65283	0.37228	-0.52829	0.39499	28.5	13111	100
2025-3-27 20:13:54.286	WT901BLE68-01(48591DE3C19B)	-0.124	-0.338	0.053	22.888	57.434	6.714	-79.67	23.63	-83.26	-60.270	-36.456	3.822	-0.65283	0.37228	-0.52829	0.39499	28.5	13111	100
2025-3-27 20:13:54.286	WT901BLE68-01(48591DE3C19B)	-0.124	-0.151	0.105	20.813	66.284	10.620	-79.73	23.84	-84.04	-60.270	-36.456	3.822	-0.65283	0.37228	-0.52829	0.39499	28.5	13111	100
2025-3-27 20:13:54.316	WT901BLE68-01(48591DE3C19B)	-0.250	-0.151	0.105	20.813	66.284	10.620	-79.78	24.05	-84.81	-60.270	-36.456	3.822	-0.65283	0.37228	-0.52829	0.39499	28.5	13111	100
2025-3-27 20:13:54.316	WT901BLE68-01(48591DE3C19B)	-0.250	-0.133	0.111	4.700	47.180	12.939	-79.91	24.26	-85.39	-60.270	-36.456	3.822	-0.65283	0.37228	-0.52829	0.39499	28.5	13111	100
2025-3-27 20:13:54.316	WT901BLE68-01(48591DE3C19B)	-0.324	-0.133	0.111	4.700	47.180	12.939	-80.03	24.47	-85.96	-60.270	-36.456	3.822	-0.65283	0.37228	-0.52829	0.39499	28.5	13111	100
2025-3-27 20:13:54.316	WT901BLE68-01(48591DE3C19B)	-0.324	-0.319	0.066	-20.081	0.000	10.742	-80.19	24.59	-86.03	-60.270	-36.456	3.822	-0.65283	0.37228	-0.52829	0.39499	28.5	13111	100
2025-3-27 20:13:54.376	WT901BLE68-01(48591DE3C19B)	-0.263	-0.319	0.066	-20.081	0.000	10.742	-80.35	24.71	-86.11	-60.270	-36.456	3.822	-0.65283	0.37228	-0.52829	0.39499	28.5	13111	100
2025-3-27 20:13:54.376	WT901BLE68-01(48591DE3C19B)	-0.263	-0.668	0.074	-36.499	-42.725	6.714	-80.49	24.72	-85.72	-60.270	-36.456	3.822	-0.65283	0.37228	-0.52829	0.39499	28.5	13111	100
2025-3-27 20:13:54.376	WT901BLE68-01(48591DE3C19B)	-0.258	-0.668	0.074	-36.499	-42.725	6.714	-80.63	24.73	-85.32	-60.270	-36.456	3.822	-0.65283	0.37228	-0.52829	0.39499	28.5	13111	100
2025-3-27 20:13:54.376	WT901BLE68-01(48591DE3C19B)	-0.258	-1.126	0.090	-30.701	-54.138	2.930	-80.67	24.67	-84.80	-60.270	-36.456	3.822	-0.65283	0.37228	-0.52829	0.39499	28.5	13111	100
2025-3-27 20:13:54.405	WT901BLE68-01(48591DE3C19B)	-0.257	-1.126	0.090	-30.701	-54.138	2.930	-80.73	24.60	-84.27	-60.270	-36.456	3.822	-0.65283	0.37228	-0.52829	0.39499	28.5	13111	100
2025-3-27 20:13:54.405	WT901BLE68-01(48591DE3C19B)	-0.257	-1.667	0.035	-14.648	-42.542	-12.817	-80.70	24.38	-83.89	-60.270	-36.456	3.822	-0.65283	0.37228	-0.52829	0.39499	28.5	13111	100
2025-3-27 20:13:54.406	WT901BLE68-01(48591DE3C19B)	-0.303	-1.667	0.035	-14.648	-42.542	-12.817	-80.68	24.16	-83.50	-60.270	-36.456	3.822	-0.65283	0.37228	-0.52829	0.39499	28.5	13111	100
2025-3-27 20:13:54.406	WT901BLE68-01(48591DE3C19B)	-0.303	-2.125	-0.033	0.366	-7.874	-30.212	-80.69	23.80	-83.51	-60.270	-36.456	3.822	-0.65283	0.37228	-0.52829	0.39499	28.5	13111	100
2025-3-27 20:13:54.437	WT901BLE68-01(48591DE3C19B)	-0.450	-2.125	-0.033	0.366	-7.874	-30.212	-80.71	23.44	-83.52	-60.270	-36.456	3.822	-0.65283	0.37228	-0.52829	0.39499	28.5	13111	100
2025-3-27 20:13:54.438	WT901BLE68-01(48591DE3C19B)	-0.450	-1.979	0.041	36.438	24.170	-26.672	-80.50	23.16	-83.86	-60.270	-36.456	3.822	-0.65283	0.37228	-0.52829	0.39499	28.5	13111	100
2025-3-27 20:13:54.438	WT901BLE68-01(48591DE3C19B)	-0.386	-1.979	0.041	36.438	24.170	-26.672	-80.30	22.89	-84.20	-60.270	-36.456	3.822	-0.65283	0.37228	-0.52829	0.39499	28.5	13111	100
2025-3-27 20:13:54.438	WT901BLE68-01(48591DE3C19B)	-0.386	-1.321	0.135	36.133	36.377	-28.687	-80.15	22.62	-84.67	-60.270	-36.456	3.822	-0.65283	0.37228	-0.52829	0.39499	28.5	13111	100
2025-3-27 20:13:54.497	WT901BLE68-01(48591DE3C19B)	-0.235	-1.321	0.135	36.133	36.377	-28.687	-80.00	22.35	-85.13	-60.270	-36.456	3.822	-0.65283	0.37228	-0.52829	0.39499	28.5	13111	100
2025-3-27 20:13:54.497	WT901BLE68-01(48591DE3C19B)	-0.235	-0.972	0.206	24.231	42.542	-16.907	-79.97	22.21	-85.64	-58.604	-37.338	3.626	-0.65283	0.37228	-0.52829	0.39499	28.5	13111	100
2025-3-27 20:13:54.497	WT901BLE68-01(48591DE3C19B)	-0.203	-0.972	0.206	24.231	42.542	-16.907	-79.95	22.08	-86.15	-58.604	-37.338	3.626	-0.65283	0.37228	-0.52829	0.39499	28.5	13111	100
2025-3-27 20:13:54.497	WT901BLE68-01(48591DE3C19B)	-0.203	-0.810	0.243	10.071	41.687	-8.423	-80.05	22.02	-86.63	-58.604	-37.338	3.626	-0.65283	0.37228	-0.52829	0.39499	28.5	13111	100
2025-3-27 20:13:54.556	WT901BLE68-01(48591DE3C19B)	-0.259	-0.810	0.243	10.071	41.687	-8.423	-80.15	21.96	-87.12	-58.604	-37.338	3.626	-0.65283	0.37228	-0.52829	0.39499	28.5	13111	100
2025-3-27 20:13:54.556	WT901BLE68-01(48591DE3C19B)	-0.259	-0.700	0.223	6.775	29.846	-8.850	-80.22	21.88	-87.47	-58.604	-37.338	3.626	-0.65283	0.37228	-0.52829	0.39499	28.5	13111	100
2025-3-27 20:13:54.556	WT901BLE68-01(48591DE3C19B)	-0.277	-0.700	0.223	6.775	29.846	-8.850	-80.29	21.80	-87.83	-58.604	-37.338	3.626	-0.65283	0.37228	-0.52829	0.39499	28.5	13111	100
2025-3-27 20:13:54.556	WT901BLE68-01(48591DE3C19B)	-0.277	-0.498	0.209	8.850	9.460	-8.972	-80.25	21.69	-87.97	-58.604	-37.338	3.626	-0.65283	0.37228	-0.52829	0.39499	28.5	13111	100
2025-3-27 20:13:54.557	WT901BLE68-01(48591DE3C19B)	-0.203	-0.498	0.209	8.850	9.460	-8.972	-80.21	21.59	-88.12	-58.604	-37.338	3.626	-0.65283	0.37228	-0.52829	0.39499	28.5	13111	100
2025-3-27 20:13:54.558	WT901BLE68-01(48591DE3C19B)	-0.203	-0.361	0.157	10.010	10.559	-3.601	-80.16	21.54	-88.28	-58.604	-37.338	3.626	-0.65283	0.37228	-0.52829	0.39499	28.5	13111	100
2025-3-27 20:13:54.558	WT901BLE68-01(48591DE3C19B)	-0.189	-0.361	0.157	10.010	10.559	-3.601	-80.10	21.50	-88.42	-58.604	-37.338	3.626	-0.65283	0.37228	-0.52829	0.39499	28.5	13111	100
2025-3-27 20:13:54.558	WT901BLE68-01(48591DE3C19B)	-0.189	-0.332	0.071	17.395	31.555	2.869	-80.04	21.56	-88.79	-58.604	-37.338	3.626	-0.65283	0.37228	-0.52829	0.39499	28.5	13111	100
2025-3-27 20:13:54.616	WT901BLE68-01(48591DE3C19B)	-0.273	-0.332	0.071	17.395	31.555	2.869	-79.98	21.62	-89.15	-58.604	-37.338	3.626	-0.65283	0.37228	-0.52829	0.39499	28.5	13111	100
2025-3-27 20:13:54.616	WT901BLE68-01(48591DE3C19B)	-0.273	-0.292	0.034	25.391	48.157	11.169	-79.90	21.80	-89.66	-58.604	-37.338	3.626	-0.65283	0.37228	-0.52829	0.39499	28.5	13111	100
2025-3-27 20:13:54.616	WT901BLE68-01(48591DE3C19B)	-0.374	-0.292	0.034	25.391	48.157	11.169	-79.83	21.99	-90.18	-58.604	-37.338	3.626	-0.65283	0.37228	-0.52829	0.39499	28.5	13111	100
2025-3-27 20:13:54.616	WT901BLE68-01(48591DE3C19B)	-0.374	-0.333	0.050	20.386	42.419	18.616	-79.78	22.25	-90.62	-58.604	-37.338	3.626	-0.65283	0.37228	-0.52829	0.39499	28.5	13111	100
2025-3-27 20:13:54.648	WT901BLE68-01(48591DE3C19B)	-0.441	-0.333	0.050	20.386	42.419	18.616	-79.74	22.52	-91.05	-58.604	-37.338	3.626	-0.65283	0.37228	-0.52829	0.39499	28.5	13111	100
2025-3-27 20:13:54.648	WT901BLE68-01(48591DE3C19B)	-0.441	-0.531	0.091	13.428	33.630	20.691	-79.72	22.80	-91.38	-58.604	-37.338	3.626	-0.65283	0.37228	-0.52829	0.39499	28.5	13111	100
2025-3-27 20:13:54.648	WT901BLE68-01(48591DE3C19B)	-0.516	-0.531	0.091	13.428	33.630	20.691	-79.72	23.08	-91.72	-58.604	-37.338	3.626	-0.65283	0.37228	-0.52829	0.39499	28.5	13111	100
2025-3-27 20:13:54.648	WT901BLE68-01(48591DE3C19B)	-0.516	-0.734	0.104	12.695	34.912	21.179	-79.72	23.38	-92.06	-58.604	-37.338	3.626	-0.65283	0.37228	-0.52829	0.39499	28.5	13111	100
2025-3-27 20:13:54.706	WT901BLE68-01(48591DE3C19B)	-0.583	-0.734	0.104	12.695	34.912	21.179	-79.73	23.69	-92.40	-58.604	-37.338	3.626	-0.65283	0.37228	-0.52829	0.39499	28.5	13111	100
2025-3-27 20:13:54.707	WT901BLE68-01(48591DE3C19B)	-0.583	-0.889	0.102	9.827	36.072	15.381	-79.78	23.93	-92.76	-58.604	-37.338	3.626	-0.65283	0.37228	-0.52829	0.39499	28.5	13111	100
2025-3-27 20:13:54.707	WT901BLE68-01(48591DE3C19B)	-0.713	-0.889	0.102	9.827	36.072	15.381	-79.84	24.19	-93.11	-58.604	-37.338	3.626	-0.61325	0.31476	-0.56604	0.45203	28.5	13111	100
2025-3-27 20:13:54.707	WT901BLE68-01(48591DE3C19B)	-0.713	-1.290	0.255	7.568	36.011	-15.808	-79.94	24.13	-93.53	-58.604	-37.338	3.626	-0.61325	0.31476	-0.56604	0.45203	28.5	13111	100
2025-3-27 20:13:54.771	WT901BLE68-01(48591DE3C19B)	-1.029	-1.290	0.255	7.568	36.011	-15.808	-80.04	24.07	-93.94	-58.604	-37.338	3.626	-0.61325	0.31476	-0.56604	0.45203	28.5	13111	100
2025-3-27 20:13:54.771	WT901BLE68-01(48591DE3C19B)	-1.260	-1.873	0.471	10.559	35.034	-39.734	-80.11	23.77	-94.39	-58.604	-37.338	3.626	-0.61325	0.31476	-0.56604	0.45203	28.5	13111	100
2025-3-27 20:13:54.771	WT901BLE68-01(48591DE3C19B)	-1.260	-1.938	0.583	29.114	24.170	-49.988	-80.06	23.41	-94.79	-58.604	-37.338	3.626	-0.61325	0.31476	-0.56604	0.45203	28.5	13111	100
2025-3-27 20:13:54.771	WT901BLE68-01(48591DE3C19B)	-1.062	-1.938	0.583	29.114	24.170	-49.988	-79.90	23.01	-95.15	-58.604	-37.338	3.626	-0.61325	0.31476	-0.56604	0.45203	28.5	13111	100
2025-3-27 20:13:54.772	WT901BLE68-01(48591DE3C19B)	-1.062	-1.413	0.574	36.804	31.555	-41.321	-79.70	22.65	-95.55	-58.604	-37.338	3.626	-0.61325	0.31476	-0.56604	0.45203	28.5	13111	100
2025-3-27 20:13:54.772	WT901BLE68-01(48591DE3C19B)	-0.857	-1.413	0.574	36.804	31.555	-41.321	-79.47	22.35	-95.99	-58.604	-37.338	3.626	-0.61325	0.31476	-0.56604	0.45203	28.5	13111	100
2025-3-27 20:13:54.772	WT901BLE68-01(48591DE3C19B)	-0.857	-1.196	0.479	24.292	48.157	-22.766	-79.32	22.16	-96.51	-58.604	-37.338	3.626	-0.61325	0.31476	-0.56604	0.45203	28.5	13111	100
2025-3-27 20:13:54.772	WT901BLE68-01(48591DE3C19B)	-0.722	-1.196	0.479	24.292	48.157	-22.766	-79.25	22.08	-97.10	-58.604	-37.338	3.626	-0.61325	0.31476	-0.56604	0.45203	28.5	13111	100
2025-3-27 20:13:54.857	WT901BLE68-01(48591DE3C19B)	-0.722	-1.048	0.371	18.982	32.043	-4.089	-79.17	22.08	-97.60	-58.604	-37.338	3.626	-0.61325	0.31476	-0.56604	0.45203	28.5	13111	100
2025-3-27 20:13:54.857	WT901BLE68-01(48591DE3C19B)	-0.654	-1.048	0.371	18.982	32.043	-4.089	-79.07	22.16	-97.99	-58.604	-37.338	3.626	-0.61325	0.31476	-0.56604	0.45203	28.5	13111	100
2025-3-27 20:13:54.858	WT901BLE68-01(48591DE3C19B)	-0.654	-0.874	0.309	5.005	-13.550	17.517	-78.95	22.30	-98.11	-58.604	-37.338	3.626	-0.61325	0.31476	-0.56604	0.45203	28.5	13111	100
2025-3-27 20:13:54.858	WT901BLE68-01(48591DE3C19B)	-0.525	-0.874	0.309	5.005	-13.550	17.517	-78.79	22.51	-97.99	-58.604	-37.338	3.626	-0.61325	0.31476	-0.56604	0.45203	28.5	13111	100
2025-3-27 20:13:54.858	WT901BLE68-01(48591DE3C19B)	-0.525	-0.849	0.262	-11.658	-49.805	30.334	-78.63	22.73	-97.65	-58.604	-37.338	3.626	-0.61325	0.31476	-0.56604	0.45203	28.5	13111	100
2025-3-27 20:13:54.858	WT901BLE68-01(48591DE3C19B)	-0.380	-0.849	0.262	-11.658	-49.805	30.334	-78.48	22.98	-97.12	-58.604	-37.338	3.626	-0.61325	0.31476	-0.56604	0.45203	28.5	13111	100
2025-3-27 20:13:54.858	WT901BLE68-01(48591DE3C19B)	-0.380	-0.850	0.238	-10.498	-50.171	44.861	-78.32	23.30	-96.56	-58.604	-37.338	3.626	-0.61325	0.31476	-0.56604	0.45203	28.5	13111	100
2025-3-27 20:13:54.858	WT901BLE68-01(48591DE3C19B)	-0.300	-0.850	0.238	-10.498	-50.171	44.861	-78.13	23.69	-95.99	-58.604	-37.338	3.626	-0.61325	0.31476	-0.56604	0.45203	28.5	13111	100
2025-3-27 20:13:54.886	WT901BLE68-01(48591DE3C19B)	-0.300	-0.711	0.215	-2.991	-21.545	47.363	-77.97	24.10	-95.56	-58.604	-37.338	3.626	-0.61325	0.31476	-0.56604	0.45203	28.5	13111	100
2025-3-27 20:13:54.886	WT901BLE68-01(48591DE3C19B)	-0.266	-0.711	0.215	-2.991	-21.545	47.363	-77.83	24.55	-95.29	-58.604	-37.338	3.626	-0.61325	0.31476	-0.56604	0.45203	28.5	13111	100
2025-3-27 20:13:54.886	WT901BLE68-01(48591DE3C19B)	-0.266	-0.538	0.187	0.000	12.329	47.424	-77.74	25.03	-95.19	-54.292	-42.238	4.998	-0.61325	0.31476	-0.56604	0.45203	28.5	13111	100
2025-3-27 20:13:54.886	WT901BLE68-01(48591DE3C19B)	-0.293	-0.538	0.187	0.000	12.329	47.424	-77.72	25.54	-95.28	-54.292	-42.238	4.998	-0.61325	0.31476	-0.56604	0.45203	28.5	13111	100
2025-3-27 20:13:54.946	WT901BLE68-01(48591DE3C19B)	-0.293	-0.414	0.168	-0.977	40.527	47.668	-77.77	26.08	-95.52	-54.292	-42.238	4.998	-0.61325	0.31476	-0.56604	0.45203	28.5	13111	100
2025-3-27 20:13:54.946	WT901BLE68-01(48591DE3C19B)	-0.362	-0.414	0.168	-0.977	40.527	47.668	-77.89	26.65	-95.92	-54.292	-42.238	4.998	-0.61325	0.31476	-0.56604	0.45203	28.5	13111	100
2025-3-27 20:13:54.946	WT901BLE68-01(48591DE3C19B)	-0.362	-0.342	0.165	-5.371	53.955	49.805	-78.07	27.24	-96.39	-54.292	-42.238	4.998	-0.61325	0.31476	-0.56604	0.45203	28.5	13111	100
2025-3-27 20:13:54.946	WT901BLE68-01(48591DE3C19B)	-0.433	-0.342	0.165	-5.371	53.955	49.805	-78.31	27.84	-96.95	-54.292	-42.238	4.998	-0.61325	0.31476	-0.56604	0.45203	28.5	13111	100
2025-3-27 20:13:54.975	WT901BLE68-01(48591DE3C19B)	-0.433	-0.342	0.175	-13.123	43.152	52.490	-78.56	28.46	-97.45	-54.292	-42.238	4.998	-0.61325	0.31476	-0.56604	0.45203	28.5	13111	100
2025-3-27 20:13:54.975	WT901BLE68-01(48591DE3C19B)	-0.484	-0.342	0.175	-13.123	43.152	52.490	-78.82	29.08	-97.91	-54.292	-42.238	4.998	-0.61325	0.31476	-0.56604	0.45203	28.5	13111	100
2025-3-27 20:13:54.975	WT901BLE68-01(48591DE3C19B)	-0.484	-0.393	0.170	-23.621	16.418	56.580	-79.05	29.69	-98.22	-54.292	-42.238	4.998	-0.61325	0.31476	-0.56604	0.45203	28.5	13111	100
2025-3-27 20:13:54.975	WT901BLE68-01(48591DE3C19B)	-0.503	-0.393	0.170	-23.621	16.418	56.580	-79.26	30.29	-98.40	-54.292	-42.238	4.998	-0.61325	0.31476	-0.56604	0.45203	28.5	13111	100
2025-3-27 20:13:55.6	WT901BLE68-01(48591DE3C19B)	-0.503	-0.541	0.153	-32.532	-19.836	58.533	-79.41	30.88	-98.38	-54.292	-42.238	4.998	-0.61325	0.31476	-0.56604	0.45203	28.5	13111	100
2025-3-27 20:13:55.6	WT901BLE68-01(48591DE3C19B)	-0.540	-0.541	0.153	-32.532	-19.836	58.533	-79.50	31.44	-98.15	-54.292	-42.238	4.998	-0.61325	0.31476	-0.56604	0.45203	28.5	13111	100
2025-3-27 20:13:55.6	WT901BLE68-01(48591DE3C19B)	-0.540	-0.747	0.109	-34.607	-52.917	57.373	-79.49	31.97	-97.72	-54.292	-42.238	4.998	-0.61325	0.31476	-0.56604	0.45203	28.5	13111	100
2025-3-27 20:13:55.6	WT901BLE68-01(48591DE3C19B)	-0.559	-0.747	0.109	-34.607	-52.917	57.373	-79.40	32.45	-97.10	-54.292	-42.238	4.998	-0.61325	0.31476	-0.56604	0.45203	28.5	13111	100
2025-3-27 20:13:55.70	WT901BLE68-01(48591DE3C19B)	-0.559	-0.975	0.058	-32.104	-71.472	51.392	-79.24	32.89	-96.35	-54.292	-42.238	4.998	-0.61325	0.31476	-0.56604	0.45203	28.5	13111	100
2025-3-27 20:13:55.71	WT901BLE68-01(48591DE3C19B)	-0.585	-0.975	0.058	-32.104	-71.472	51.392	-79.01	33.28	-95.48	-54.292	-42.238	4.998	-0.61325	0.31476	-0.56604	0.45203	28.5	13111	100
2025-3-27 20:13:55.71	WT901BLE68-01(48591DE3C19B)	-0.585	-1.296	0.048	-26.794	-81.421	36.682	-78.74	33.57	-94.54	-54.292	-42.238	4.998	-0.61325	0.31476	-0.56604	0.45203	28.5	13111	100
2025-3-27 20:13:55.71	WT901BLE68-01(48591DE3C19B)	-0.582	-1.296	0.048	-26.794	-81.421	36.682	-78.44	33.76	-93.55	-54.292	-42.238	4.998	-0.61325	0.31476	-0.56604	0.45203	28.5	13111	100
2025-3-27 20:13:55.101	WT901BLE68-01(48591DE3C19B)	-0.582	-1.654	0.075	-18.372	-71.594	20.569	-78.13	33.88	-92.61	-54.292	-42.238	4.998	-0.64771	0.25418	-0.59073	0.40839	28.5	13111	100
2025-3-27 20:13:55.101	WT901BLE68-01(48591DE3C19B)	-0.622	-1.654	0.075	-18.372	-71.594	20.569	-77.84	33.90	-91.75	-54.292	-42.238	4.998	-0.64771	0.25418	-0.59073	0.40839	28.5	13111	100
2025-3-27 20:13:55.102	WT901BLE68-01(48591DE3C19B)	-0.622	-1.823	0.101	-0.427	-55.237	6.409	-77.53	33.87	-90.99	-54.292	-42.238	4.998	-0.64771	0.25418	-0.59073	0.40839	28.5	13111	100
2025-3-27 20:13:55.102	WT901BLE68-01(48591DE3C19B)	-0.652	-1.823	0.101	-0.427	-55.237	6.409	-77.21	33.77	-90.36	-54.292	-42.238	4.998	-0.64771	0.25418	-0.59073	0.40839	28.5	13111	100
2025-3-27 20:13:55.128	WT901BLE68-01(48591DE3C19B)	-0.652	-1.552	0.177	13.428	-38.025	-2.136	-76.88	33.63	-89.84	-54.292	-42.238	4.998	-0.64771	0.25418	-0.59073	0.40839	28.5	13111	100
2025-3-27 20:13:55.128	WT901BLE68-01(48591DE3C19B)	-0.584	-1.552	0.177	13.428	-38.025	-2.136	-76.55	33.48	-89.43	-54.292	-42.238	4.998	-0.64771	0.25418	-0.59073	0.40839	28.5	13111	100
2025-3-27 20:13:55.128	WT901BLE68-01(48591DE3C19B)	-0.584	-1.281	0.209	12.146	-21.118	-0.732	-76.28	33.35	-89.12	-54.292	-42.238	4.998	-0.64771	0.25418	-0.59073	0.40839	28.5	13111	100
2025-3-27 20:13:55.128	WT901BLE68-01(48591DE3C19B)	-0.500	-1.281	0.209	12.146	-21.118	-0.732	-76.07	33.24	-88.92	-54.292	-42.238	4.998	-0.64771	0.25418	-0.59073	0.40839	28.5	13111	100
2025-3-27 20:13:55.186	WT901BLE68-01(48591DE3C19B)	-0.500	-1.034	0.224	10.681	-2.686	2.869	-75.93	33.18	-88.82	-54.292	-42.238	4.998	-0.64771	0.25418	-0.59073	0.40839	28.5	13111	100
2025-3-27 20:13:55.186	WT901BLE68-01(48591DE3C19B)	-0.423	-1.034	0.224	10.681	-2.686	2.869	-75.84	33.15	-88.84	-54.292	-42.238	4.998	-0.64771	0.25418	-0.59073	0.40839	28.5	13111	100
2025-3-27 20:13:55.186	WT901BLE68-01(48591DE3C19B)	-0.423	-0.768	0.201	6.714	7.324	10.498	-75.81	33.17	-88.89	-54.292	-42.238	4.998	-0.64771	0.25418	-0.59073	0.40839	28.5	13111	100
2025-3-27 20:13:55.186	WT901BLE68-01(48591DE3C19B)	-0.396	-0.768	0.201	6.714	7.324	10.498	-75.81	33.25	-89.00	-54.292	-42.238	4.998	-0.64771	0.25418	-0.59073	0.40839	28.5	13111	100
2025-3-27 20:13:55.215	WT901BLE68-01(48591DE3C19B)	-0.396	-0.542	0.172	-1.404	2.686	15.564	-75.86	33.37	-89.05	-54.292	-42.238	4.998	-0.64771	0.25418	-0.59073	0.40839	28.5	13111	100
2025-3-27 20:13:55.215	WT901BLE68-01(48591DE3C19B)	-0.353	-0.542	0.172	-1.404	2.686	15.564	-75.89	33.48	-89.10	-54.292	-42.238	4.998	-0.64771	0.25418	-0.59073	0.40839	28.5	13111	100
2025-3-27 20:13:55.215	WT901BLE68-01(48591DE3C19B)	-0.353	-0.447	0.142	-14.404	-9.155	14.465	-75.99	33.56	-89.02	-54.292	-42.238	4.998	-0.64771	0.25418	-0.59073	0.40839	28.5	13111	100
2025-3-27 20:13:55.215	WT901BLE68-01(48591DE3C19B)	-0.338	-0.447	0.142	-14.404	-9.155	14.465	-76.07	33.65	-88.95	-54.292	-42.238	4.998	-0.64771	0.25418	-0.59073	0.40839	28.5	13111	100
2025-3-27 20:13:55.248	WT901BLE68-01(48591DE3C19B)	-0.338	-0.485	0.127	-18.555	-12.512	7.568	-76.20	33.66	-88.86	-54.292	-42.238	4.998	-0.64771	0.25418	-0.59073	0.40839	28.5	13111	100
2025-3-27 20:13:55.248	WT901BLE68-01(48591DE3C19B)	-0.396	-0.485	0.127	-18.555	-12.512	7.568	-76.31	33.67	-88.78	-54.292	-42.238	4.998	-0.64771	0.25418	-0.59073	0.40839	28.5	13111	100
2025-3-27 20:13:55.248	WT901BLE68-01(48591DE3C19B)	-0.396	-0.521	0.124	-16.663	-11.719	-0.977	-76.43	33.60	-88.73	-54.292	-42.238	4.998	-0.64771	0.25418	-0.59073	0.40839	28.5	13111	100
2025-3-27 20:13:55.248	WT901BLE68-01(48591DE3C19B)	-0.465	-0.521	0.124	-16.663	-11.719	-0.977	-76.54	33.54	-88.68	-54.292	-42.238	4.998	-0.64771	0.25418	-0.59073	0.40839	28.5	13111	100
2025-3-27 20:13:55.307	WT901BLE68-01(48591DE3C19B)	-0.465	-0.555	0.110	-14.343	-15.015	-9.705	-76.61	33.39	-88.63	-54.292	-42.238	4.998	-0.64771	0.25418	-0.59073	0.40839	28.5	13111	100
2025-3-27 20:13:55.307	WT901BLE68-01(48591DE3C19B)	-0.485	-0.555	0.110	-14.343	-15.015	-9.705	-76.70	33.25	-88.57	-62.034	-41.552	-0.098	-0.64771	0.25418	-0.59073	0.40839	28.5	13111	100
2025-3-27 20:13:55.307	WT901BLE68-01(48591DE3C19B)	-0.485	-0.565	0.099	-9.949	-16.968	-15.198	-76.72	33.06	-88.51	-62.034	-41.552	-0.098	-0.64771	0.25418	-0.59073	0.40839	28.5	13111	100
2025-3-27 20:13:55.307	WT901BLE68-01(48591DE3C19B)	-0.472	-0.565	0.099	-9.949	-16.968	-15.198	-76.76	32.87	-88.45	-62.034	-41.552	-0.098	-0.64771	0.25418	-0.59073	0.40839	28.5	13111	100
2025-3-27 20:13:55.335	WT901BLE68-01(48591DE3C19B)	-0.472	-0.553	0.089	-5.310	-20.691	-15.015	-76.71	32.68	-88.35	-62.034	-41.552	-0.098	-0.64771	0.25418	-0.59073	0.40839	28.5	13111	100
2025-3-27 20:13:55.335	WT901BLE68-01(48591DE3C19B)	-0.437	-0.553	0.089	-5.310	-20.691	-15.015	-76.67	32.49	-88.25	-62.034	-41.552	-0.098	-0.64771	0.25418	-0.59073	0.40839	28.5	13111	100
2025-3-27 20:13:55.335	WT901BLE68-01(48591DE3C19B)	-0.437	-0.561	0.081	-2.197	-27.893	-10.925	-76.56	32.33	-88.07	-62.034	-41.552	-0.098	-0.64771	0.25418	-0.59073	0.40839	28.5	13111	100
2025-3-27 20:13:55.336	WT901BLE68-01(48591DE3C19B)	-0.395	-0.561	0.081	-2.197	-27.893	-10.925	-76.44	32.18	-87.87	-62.034	-41.552	-0.098	-0.64771	0.25418	-0.59073	0.40839	28.5	13111	100
2025-3-27 20:13:55.373	WT901BLE68-01(48591DE3C19B)	-0.395	-0.574	0.074	-0.305	-34.180	-4.700	-76.26	32.07	-87.60	-62.034	-41.552	-0.098	-0.64771	0.25418	-0.59073	0.40839	28.5	13111	100
2025-3-27 20:13:55.373	WT901BLE68-01(48591DE3C19B)	-0.371	-0.574	0.074	-0.305	-34.180	-4.700	-76.09	31.95	-87.32	-62.034	-41.552	-0.098	-0.64771	0.25418	-0.59073	0.40839	28.5	13111	100
2025-3-27 20:13:55.373	WT901BLE68-01(48591DE3C19B)	-0.371	-0.580	0.079	0.732	-35.889	3.540	-75.88	31.92	-87.00	-62.034	-41.552	-0.098	-0.64771	0.25418	-0.59073	0.40839	28.5	13111	100
2025-3-27 20:13:55.373	WT901BLE68-01(48591DE3C19B)	-0.363	-0.580	0.079	0.732	-35.889	3.540	-75.67	31.88	-86.68	-62.034	-41.552	-0.098	-0.64771	0.25418	-0.59073	0.40839	28.5	13111	100
2025-3-27 20:13:55.426	WT901BLE68-01(48591DE3C19B)	-0.363	-0.594	0.125	-0.305	-33.325	15.259	-75.48	31.96	-86.36	-62.034	-41.552	-0.098	-0.64771	0.25418	-0.59073	0.40839	28.5	13111	100
2025-3-27 20:13:55.426	WT901BLE68-01(48591DE3C19B)	-0.369	-0.594	0.125	-0.305	-33.325	15.259	-75.28	32.04	-86.04	-62.034	-41.552	-0.098	-0.64771	0.25418	-0.59073	0.40839	28.5	13111	100
2025-3-27 20:13:55.426	WT901BLE68-01(48591DE3C19B)	-0.369	-0.596	0.197	-2.625	-28.259	27.954	-75.12	32.25	-85.74	-62.034	-41.552	-0.098	-0.64771	0.25418	-0.59073	0.40839	28.5	13111	100
2025-3-27 20:13:55.427	WT901BLE68-01(48591DE3C19B)	-0.369	-0.596	0.197	-2.625	-28.259	27.954	-74.95	32.45	-85.45	-62.034	-41.552	-0.098	-0.64771	0.25418	-0.59073	0.40839	28.5	13111	100
2025-3-27 20:13:55.458	WT901BLE68-01(48591DE3C19B)	-0.369	-0.746	0.233	-8.118	-17.883	33.447	-74.88	32.73	-85.26	-62.034	-41.552	-0.098	-0.64771	0.25418	-0.59073	0.40839	28.5	13111	100
2025-3-27 20:13:55.458	WT901BLE68-01(48591DE3C19B)	-0.468	-0.746	0.233	-8.118	-17.883	33.447	-74.81	33.00	-85.08	-62.034	-41.552	-0.098	-0.64771	0.25418	-0.59073	0.40839	28.5	13111	100
2025-3-27 20:13:55.458	WT901BLE68-01(48591DE3C19B)	-0.468	-0.962	0.257	-6.836	-2.380	29.602	-74.83	33.27	-85.08	-62.034	-41.552	-0.098	-0.64771	0.25418	-0.59073	0.40839	28.5	13111	100
2025-3-27 20:13:55.458	WT901BLE68-01(48591DE3C19B)	-0.584	-0.962	0.257	-6.836	-2.380	29.602	-74.85	33.53	-85.08	-62.034	-41.552	-0.098	-0.64771	0.25418	-0.59073	0.40839	28.5	13111	100
