time	DeviceName	AccX(g)	AccY(g)	AccZ(g)	AsX(°/s)	AsY(°/s)	AsZ(°/s)	AngleX(°)	AngleY(°)	AngleZ(°)	HX(uT)	HY(uT)	HZ(uT)	Q0()	Q1()	Q2()	Q3()	Temperature(°C)	Version()	Battery level(%)
2025-3-27 20:14:56.927	WT901BLE68-01(48591DE3C19B)	-0.344	-0.900	0.280	0.916	3.479	-0.793	-73.40	19.71	-29.55	-50.960	-29.204	79.282	-0.79001	0.53656	-0.28067	0.09525	28.7	13111	100
2025-3-27 20:14:56.927	WT901BLE68-01(48591DE3C19B)	-0.344	-0.898	0.275	0.732	3.357	0.305	-73.40	19.73	-29.56	-50.960	-29.204	79.282	-0.79001	0.53656	-0.28067	0.09525	28.7	13111	100
2025-3-27 20:14:56.927	WT901BLE68-01(48591DE3C19B)	-0.350	-0.898	0.275	0.732	3.357	0.305	-73.39	19.74	-29.56	-50.960	-29.204	79.282	-0.79001	0.53656	-0.28067	0.09525	28.7	13111	100
2025-3-27 20:14:56.927	WT901BLE68-01(48591DE3C19B)	-0.350	-0.900	0.276	0.183	2.014	0.671	-73.39	19.75	-29.56	-50.960	-29.204	79.282	-0.79001	0.53656	-0.28067	0.09525	28.7	13111	100
2025-3-27 20:14:56.928	WT901BLE68-01(48591DE3C19B)	-0.348	-0.900	0.276	0.183	2.014	0.671	-73.39	19.77	-29.56	-50.960	-29.204	79.282	-0.79001	0.53656	-0.28067	0.09525	28.7	13111	100
2025-3-27 20:14:56.928	WT901BLE68-01(48591DE3C19B)	-0.348	-0.906	0.279	-0.122	0.122	0.916	-73.39	19.78	-29.54	-50.960	-29.204	79.282	-0.79001	0.53656	-0.28067	0.09525	28.7	13111	100
2025-3-27 20:14:56.928	WT901BLE68-01(48591DE3C19B)	-0.343	-0.906	0.279	-0.122	0.122	0.916	-73.39	19.79	-29.51	-50.960	-29.204	79.282	-0.79001	0.53656	-0.28067	0.09525	28.7	13111	100
2025-3-27 20:14:56.928	WT901BLE68-01(48591DE3C19B)	-0.343	-0.902	0.278	-0.244	-0.793	1.038	-73.38	19.80	-29.48	-50.960	-29.204	79.282	-0.79001	0.53656	-0.28067	0.09525	28.7	13111	100
2025-3-27 20:14:56.959	WT901BLE68-01(48591DE3C19B)	-0.335	-0.902	0.278	-0.244	-0.793	1.038	-73.38	19.81	-29.44	-50.960	-29.204	79.282	-0.79001	0.53656	-0.28067	0.09525	28.7	13111	100
2025-3-27 20:14:56.959	WT901BLE68-01(48591DE3C19B)	-0.335	-0.902	0.278	-0.610	-0.732	1.160	-73.38	19.82	-29.41	-50.960	-29.204	79.282	-0.79001	0.53656	-0.28067	0.09525	28.7	13111	100
2025-3-27 20:14:56.959	WT901BLE68-01(48591DE3C19B)	-0.329	-0.902	0.278	-0.610	-0.732	1.160	-73.38	19.84	-29.38	-52.724	-28.224	79.282	-0.79001	0.53656	-0.28067	0.09525	28.7	13111	100
2025-3-27 20:14:56.959	WT901BLE68-01(48591DE3C19B)	-0.329	-0.901	0.277	-0.305	0.732	0.854	-73.38	19.85	-29.36	-52.724	-28.224	79.282	-0.79001	0.53656	-0.28067	0.09525	28.7	13111	100
2025-3-27 20:14:57.17	WT901BLE68-01(48591DE3C19B)	-0.334	-0.901	0.277	-0.305	0.732	0.854	-73.38	19.86	-29.34	-52.724	-28.224	79.282	-0.79001	0.53656	-0.28067	0.09525	28.7	13111	100
2025-3-27 20:14:57.17	WT901BLE68-01(48591DE3C19B)	-0.334	-0.902	0.270	0.244	2.136	0.000	-73.38	19.86	-29.34	-52.724	-28.224	79.282	-0.79001	0.53656	-0.28067	0.09525	28.7	13111	100
2025-3-27 20:14:57.18	WT901BLE68-01(48591DE3C19B)	-0.366	-0.902	0.270	0.244	2.136	0.000	-73.38	19.87	-29.34	-52.724	-28.224	79.282	-0.79001	0.53656	-0.28067	0.09525	28.7	13111	100
2025-3-27 20:14:57.18	WT901BLE68-01(48591DE3C19B)	-0.366	-0.894	0.275	1.038	0.305	-0.610	-73.37	19.86	-29.32	-52.724	-28.224	79.282	-0.79001	0.53656	-0.28067	0.09525	28.7	13111	100
2025-3-27 20:14:57.46	WT901BLE68-01(48591DE3C19B)	-0.352	-0.894	0.275	1.038	0.305	-0.610	-73.36	19.86	-29.31	-52.724	-28.224	79.282	-0.79001	0.53656	-0.28067	0.09525	28.7	13111	100
2025-3-27 20:14:57.46	WT901BLE68-01(48591DE3C19B)	-0.352	-0.888	0.277	-0.671	-4.517	-1.038	-73.35	19.84	-29.24	-52.724	-28.224	79.282	-0.79001	0.53656	-0.28067	0.09525	28.7	13111	100
2025-3-27 20:14:57.46	WT901BLE68-01(48591DE3C19B)	-0.328	-0.888	0.277	-0.671	-4.517	-1.038	-73.34	19.82	-29.17	-52.724	-28.224	79.282	-0.79001	0.53656	-0.28067	0.09525	28.7	13111	100
2025-3-27 20:14:57.46	WT901BLE68-01(48591DE3C19B)	-0.328	-0.902	0.283	-0.793	-5.859	-1.953	-73.32	19.79	-29.10	-52.724	-28.224	79.282	-0.79001	0.53656	-0.28067	0.09525	28.7	13111	100
2025-3-27 20:14:57.107	WT901BLE68-01(48591DE3C19B)	-0.320	-0.902	0.283	-0.793	-5.859	-1.953	-73.31	19.75	-29.03	-52.724	-28.224	79.282	-0.79001	0.53656	-0.28067	0.09525	28.7	13111	100
2025-3-27 20:14:57.107	WT901BLE68-01(48591DE3C19B)	-0.320	-0.902	0.290	-0.488	-5.188	-1.770	-73.30	19.72	-28.95	-52.724	-28.224	79.282	-0.79001	0.53656	-0.28067	0.09525	28.7	13111	100
2025-3-27 20:14:57.108	WT901BLE68-01(48591DE3C19B)	-0.321	-0.902	0.290	-0.488	-5.188	-1.770	-73.28	19.69	-28.89	-52.724	-28.224	79.282	-0.79001	0.53656	-0.28067	0.09525	28.7	13111	100
2025-3-27 20:14:57.108	WT901BLE68-01(48591DE3C19B)	-0.321	-0.903	0.286	-0.183	-1.038	-1.648	-73.28	19.67	-28.87	-52.724	-28.224	79.282	-0.79001	0.53656	-0.28067	0.09525	28.7	13111	100
2025-3-27 20:14:57.136	WT901BLE68-01(48591DE3C19B)	-0.333	-0.903	0.286	-0.183	-1.038	-1.648	-73.27	19.65	-28.84	-52.724	-28.224	79.282	-0.79001	0.53656	-0.28067	0.09525	28.7	13111	100
2025-3-27 20:14:57.136	WT901BLE68-01(48591DE3C19B)	-0.333	-0.901	0.281	0.427	2.319	-1.465	-73.27	19.65	-28.85	-52.724	-28.224	79.282	-0.79001	0.53656	-0.28067	0.09525	28.7	13111	100
2025-3-27 20:14:57.136	WT901BLE68-01(48591DE3C19B)	-0.349	-0.901	0.281	0.427	2.319	-1.465	-73.28	19.64	-28.86	-52.724	-28.224	79.282	-0.79001	0.53656	-0.28067	0.09525	28.7	13111	100
2025-3-27 20:14:57.136	WT901BLE68-01(48591DE3C19B)	-0.349	-0.899	0.281	0.183	0.916	-0.671	-73.27	19.63	-28.86	-52.724	-28.224	79.282	-0.79001	0.53656	-0.28067	0.09525	28.7	13111	100
2025-3-27 20:14:57.170	WT901BLE68-01(48591DE3C19B)	-0.346	-0.899	0.281	0.183	0.916	-0.671	-73.27	19.63	-28.85	-52.724	-28.224	79.282	-0.79111	0.53537	-0.27884	0.09830	28.7	13111	100
2025-3-27 20:14:57.170	WT901BLE68-01(48591DE3C19B)	-0.346	-0.891	0.283	-0.061	-2.502	-0.061	-73.26	19.63	-28.81	-52.724	-28.224	79.282	-0.79111	0.53537	-0.27884	0.09830	28.7	13111	100
2025-3-27 20:14:57.170	WT901BLE68-01(48591DE3C19B)	-0.337	-0.891	0.283	-0.061	-2.502	-0.061	-73.25	19.62	-28.76	-52.724	-28.224	79.282	-0.79111	0.53537	-0.27884	0.09830	28.7	13111	100
2025-3-27 20:14:57.170	WT901BLE68-01(48591DE3C19B)	-0.337	-0.881	0.281	-0.671	-5.310	0.366	-73.23	19.61	-28.69	-52.724	-28.224	79.282	-0.79111	0.53537	-0.27884	0.09830	28.7	13111	100
2025-3-27 20:14:57.197	WT901BLE68-01(48591DE3C19B)	-0.325	-0.881	0.281	-0.671	-5.310	0.366	-73.22	19.60	-28.61	-52.724	-28.224	79.282	-0.79111	0.53537	-0.27884	0.09830	28.7	13111	100
2025-3-27 20:14:57.197	WT901BLE68-01(48591DE3C19B)	-0.325	-0.882	0.279	-1.343	-7.202	0.671	-73.20	19.58	-28.52	-52.724	-28.224	79.282	-0.79111	0.53537	-0.27884	0.09830	28.7	13111	100
2025-3-27 20:14:57.197	WT901BLE68-01(48591DE3C19B)	-0.317	-0.882	0.279	-1.343	-7.202	0.671	-73.19	19.57	-28.43	-52.724	-28.224	79.282	-0.79111	0.53537	-0.27884	0.09830	28.7	13111	100
2025-3-27 20:14:57.197	WT901BLE68-01(48591DE3C19B)	-0.317	-0.876	0.275	-1.648	-8.362	1.038	-73.17	19.56	-28.32	-52.724	-28.224	79.282	-0.79111	0.53537	-0.27884	0.09830	28.7	13111	100
2025-3-27 20:14:57.289	WT901BLE68-01(48591DE3C19B)	-0.314	-0.876	0.275	-1.648	-8.362	1.038	-73.15	19.54	-28.22	-52.724	-28.224	79.282	-0.79111	0.53537	-0.27884	0.09830	28.7	13111	100
2025-3-27 20:14:57.289	WT901BLE68-01(48591DE3C19B)	-0.314	-0.875	0.268	-2.930	-10.315	0.977	-73.14	19.52	-28.09	-52.724	-28.224	79.282	-0.79111	0.53537	-0.27884	0.09830	28.7	13111	100
2025-3-27 20:14:57.289	WT901BLE68-01(48591DE3C19B)	-0.319	-0.875	0.268	-2.930	-10.315	0.977	-73.13	19.51	-27.97	-52.724	-28.224	79.282	-0.79111	0.53537	-0.27884	0.09830	28.7	13111	100
2025-3-27 20:14:57.289	WT901BLE68-01(48591DE3C19B)	-0.319	-0.881	0.265	-4.456	-13.855	0.549	-73.13	19.47	-27.82	-52.724	-28.224	79.282	-0.79111	0.53537	-0.27884	0.09830	28.7	13111	100
2025-3-27 20:14:57.289	WT901BLE68-01(48591DE3C19B)	-0.323	-0.881	0.265	-4.456	-13.855	0.549	-73.12	19.43	-27.66	-52.724	-28.224	79.282	-0.79111	0.53537	-0.27884	0.09830	28.7	13111	100
2025-3-27 20:14:57.290	WT901BLE68-01(48591DE3C19B)	-0.323	-0.893	0.266	-6.714	-19.653	0.427	-73.12	19.38	-27.45	-52.724	-28.224	79.282	-0.79111	0.53537	-0.27884	0.09830	28.7	13111	100
2025-3-27 20:14:57.290	WT901BLE68-01(48591DE3C19B)	-0.304	-0.893	0.266	-6.714	-19.653	0.427	-73.12	19.33	-27.24	-52.724	-28.224	79.282	-0.79111	0.53537	-0.27884	0.09830	28.7	13111	100
2025-3-27 20:14:57.290	WT901BLE68-01(48591DE3C19B)	-0.304	-0.908	0.261	-8.606	-24.414	0.854	-73.12	19.26	-26.98	-52.724	-28.224	79.282	-0.79111	0.53537	-0.27884	0.09830	28.7	13111	100
2025-3-27 20:14:57.319	WT901BLE68-01(48591DE3C19B)	-0.273	-0.908	0.261	-8.606	-24.414	0.854	-73.13	19.20	-26.72	-52.724	-28.224	79.282	-0.79111	0.53537	-0.27884	0.09830	28.7	13111	100
2025-3-27 20:14:57.319	WT901BLE68-01(48591DE3C19B)	-0.273	-0.908	0.251	-9.399	-24.963	1.648	-73.13	19.14	-26.46	-52.724	-28.224	79.282	-0.79111	0.53537	-0.27884	0.09830	28.7	13111	100
2025-3-27 20:14:57.319	WT901BLE68-01(48591DE3C19B)	-0.251	-0.908	0.251	-9.399	-24.963	1.648	-73.14	19.08	-26.20	-51.254	-28.420	79.184	-0.79111	0.53537	-0.27884	0.09830	28.7	13111	100
2025-3-27 20:14:57.319	WT901BLE68-01(48591DE3C19B)	-0.251	-0.899	0.244	-10.132	-22.156	2.686	-73.17	19.04	-25.97	-51.254	-28.420	79.184	-0.79111	0.53537	-0.27884	0.09830	28.7	13111	100
2025-3-27 20:14:57.467	WT901BLE68-01(48591DE3C19B)	-0.233	-0.899	0.244	-10.132	-22.156	2.686	-73.20	19.00	-25.73	-51.254	-28.420	79.184	-0.79111	0.53537	-0.27884	0.09830	28.7	13111	100
2025-3-27 20:14:57.467	WT901BLE68-01(48591DE3C19B)	-0.233	-0.906	0.245	-11.597	-17.761	3.418	-73.26	18.97	-25.55	-51.254	-28.420	79.184	-0.79111	0.53537	-0.27884	0.09830	28.7	13111	100
2025-3-27 20:14:57.467	WT901BLE68-01(48591DE3C19B)	-0.231	-0.906	0.245	-11.597	-17.761	3.418	-73.31	18.94	-25.36	-51.254	-28.420	79.184	-0.79111	0.53537	-0.27884	0.09830	28.7	13111	100
2025-3-27 20:14:57.467	WT901BLE68-01(48591DE3C19B)	-0.242	-0.937	0.250	-12.634	-12.878	3.052	-73.39	18.92	-25.23	-51.254	-28.420	79.184	-0.79111	0.53537	-0.27884	0.09830	28.7	13111	100
2025-3-27 20:14:57.468	WT901BLE68-01(48591DE3C19B)	-0.242	-0.976	0.253	-14.038	-10.742	0.488	-73.49	18.89	-25.11	-51.254	-28.420	79.184	-0.79111	0.53537	-0.27884	0.09830	28.7	13111	100
2025-3-27 20:14:57.468	WT901BLE68-01(48591DE3C19B)	-0.255	-0.976	0.253	-14.038	-10.742	0.488	-73.60	18.85	-25.02	-51.254	-28.420	79.184	-0.79111	0.53537	-0.27884	0.09830	28.7	13111	100
2025-3-27 20:14:57.468	WT901BLE68-01(48591DE3C19B)	-0.255	-1.011	0.264	-14.343	-9.277	-3.784	-73.72	18.79	-24.93	-51.254	-28.420	79.184	-0.79111	0.53537	-0.27884	0.09830	28.7	13111	100
2025-3-27 20:14:57.468	WT901BLE68-01(48591DE3C19B)	-0.265	-1.011	0.264	-14.343	-9.277	-3.784	-73.84	18.71	-24.86	-51.254	-28.420	79.184	-0.79111	0.53537	-0.27884	0.09830	28.7	13111	100
2025-3-27 20:14:57.469	WT901BLE68-01(48591DE3C19B)	-0.265	-1.006	0.283	-13.611	-8.179	-8.667	-73.96	18.61	-24.81	-51.254	-28.420	79.184	-0.79111	0.53537	-0.27884	0.09830	28.7	13111	100
2025-3-27 20:14:57.469	WT901BLE68-01(48591DE3C19B)	-0.251	-1.006	0.283	-13.611	-8.179	-8.667	-74.08	18.48	-24.76	-51.254	-28.420	79.184	-0.79111	0.53537	-0.27884	0.09830	28.7	13111	100
2025-3-27 20:14:57.469	WT901BLE68-01(48591DE3C19B)	-0.251	-0.970	0.288	-12.268	-5.310	-13.672	-74.20	18.34	-24.74	-51.254	-28.420	79.184	-0.79111	0.53537	-0.27884	0.09830	28.7	13111	100
2025-3-27 20:14:57.469	WT901BLE68-01(48591DE3C19B)	-0.238	-0.970	0.288	-12.268	-5.310	-13.672	-74.32	18.17	-24.74	-51.254	-28.420	79.184	-0.79111	0.53537	-0.27884	0.09830	28.7	13111	100
2025-3-27 20:14:57.527	WT901BLE68-01(48591DE3C19B)	-0.238	-0.920	0.281	-10.132	0.732	-18.677	-74.44	18.00	-24.78	-51.254	-28.420	79.184	-0.79111	0.53537	-0.27884	0.09830	28.7	13111	100
2025-3-27 20:14:57.527	WT901BLE68-01(48591DE3C19B)	-0.244	-0.920	0.281	-10.132	0.732	-18.677	-74.55	17.80	-24.86	-51.254	-28.420	79.184	-0.79111	0.53537	-0.27884	0.09830	28.7	13111	100
2025-3-27 20:14:57.527	WT901BLE68-01(48591DE3C19B)	-0.244	-0.867	0.288	-8.118	6.897	-23.438	-74.67	17.59	-24.97	-51.254	-28.420	79.184	-0.79111	0.53537	-0.27884	0.09830	28.7	13111	100
2025-3-27 20:14:57.527	WT901BLE68-01(48591DE3C19B)	-0.256	-0.867	0.288	-8.118	6.897	-23.438	-74.79	17.36	-25.11	-51.254	-28.420	79.184	-0.79111	0.53537	-0.27884	0.09830	28.7	13111	100
2025-3-27 20:14:57.556	WT901BLE68-01(48591DE3C19B)	-0.256	-0.831	0.291	-6.653	12.207	-28.564	-74.90	17.13	-25.30	-51.254	-28.420	79.184	-0.79111	0.53537	-0.27884	0.09830	28.7	13111	100
2025-3-27 20:14:57.556	WT901BLE68-01(48591DE3C19B)	-0.286	-0.831	0.291	-6.653	12.207	-28.564	-75.02	16.87	-25.51	-51.254	-28.420	79.184	-0.79111	0.53537	-0.27884	0.09830	28.7	13111	100
2025-3-27 20:14:57.556	WT901BLE68-01(48591DE3C19B)	-0.286	-0.820	0.294	-5.066	15.442	-33.691	-75.13	16.59	-25.74	-51.254	-28.420	79.184	-0.79111	0.53537	-0.27884	0.09830	28.7	13111	100
2025-3-27 20:14:57.556	WT901BLE68-01(48591DE3C19B)	-0.325	-0.820	0.294	-5.066	15.442	-33.691	-75.23	16.30	-25.99	-51.254	-28.420	79.184	-0.78342	0.56348	-0.24533	0.09198	28.7	13111	100
2025-3-27 20:14:57.558	WT901BLE68-01(48591DE3C19B)	-0.325	-0.827	0.296	-3.845	14.038	-38.208	-75.33	15.99	-26.24	-51.254	-28.420	79.184	-0.78342	0.56348	-0.24533	0.09198	28.7	13111	100
2025-3-27 20:14:57.558	WT901BLE68-01(48591DE3C19B)	-0.334	-0.827	0.296	-3.845	14.038	-38.208	-75.42	15.66	-26.48	-51.254	-28.420	79.184	-0.78342	0.56348	-0.24533	0.09198	28.7	13111	100
2025-3-27 20:14:57.558	WT901BLE68-01(48591DE3C19B)	-0.334	-0.849	0.307	-3.357	11.353	-42.297	-75.50	15.31	-26.71	-51.254	-28.420	79.184	-0.78342	0.56348	-0.24533	0.09198	28.7	13111	100
2025-3-27 20:14:57.559	WT901BLE68-01(48591DE3C19B)	-0.343	-0.849	0.307	-3.357	11.353	-42.297	-75.56	14.94	-26.93	-51.254	-28.420	79.184	-0.78342	0.56348	-0.24533	0.09198	28.7	13111	100
2025-3-27 20:14:57.617	WT901BLE68-01(48591DE3C19B)	-0.343	-0.863	0.312	-1.953	11.597	-45.349	-75.63	14.56	-27.16	-51.254	-28.420	79.184	-0.78342	0.56348	-0.24533	0.09198	28.7	13111	100
2025-3-27 20:14:57.617	WT901BLE68-01(48591DE3C19B)	-0.352	-0.863	0.312	-1.953	11.597	-45.349	-75.68	14.17	-27.38	-51.254	-28.420	79.184	-0.78342	0.56348	-0.24533	0.09198	28.7	13111	100
2025-3-27 20:14:57.617	WT901BLE68-01(48591DE3C19B)	-0.352	-0.884	0.317	-1.709	13.123	-47.485	-75.73	13.77	-27.61	-51.254	-28.420	79.184	-0.78342	0.56348	-0.24533	0.09198	28.7	13111	100
2025-3-27 20:14:57.617	WT901BLE68-01(48591DE3C19B)	-0.364	-0.884	0.317	-1.709	13.123	-47.485	-75.78	13.38	-27.85	-51.254	-28.420	79.184	-0.78342	0.56348	-0.24533	0.09198	28.7	13111	100
2025-3-27 20:14:57.645	WT901BLE68-01(48591DE3C19B)	-0.364	-0.903	0.323	-1.038	14.282	-47.546	-75.83	12.98	-28.09	-51.254	-28.420	79.184	-0.78342	0.56348	-0.24533	0.09198	28.7	13111	100
2025-3-27 20:14:57.646	WT901BLE68-01(48591DE3C19B)	-0.389	-0.903	0.323	-1.038	14.282	-47.546	-75.87	12.59	-28.33	-51.254	-28.420	79.184	-0.78342	0.56348	-0.24533	0.09198	28.7	13111	100
2025-3-27 20:14:57.646	WT901BLE68-01(48591DE3C19B)	-0.389	-0.895	0.326	-0.366	13.916	-45.837	-75.90	12.21	-28.57	-51.254	-28.420	79.184	-0.78342	0.56348	-0.24533	0.09198	28.7	13111	100
2025-3-27 20:14:57.646	WT901BLE68-01(48591DE3C19B)	-0.402	-0.895	0.326	-0.366	13.916	-45.837	-75.93	11.84	-28.80	-51.254	-28.420	79.184	-0.78342	0.56348	-0.24533	0.09198	28.7	13111	100
2025-3-27 20:14:57.677	WT901BLE68-01(48591DE3C19B)	-0.402	-0.879	0.317	-0.549	10.986	-42.847	-75.96	11.50	-29.01	-51.254	-28.420	79.184	-0.78342	0.56348	-0.24533	0.09198	28.7	13111	100
2025-3-27 20:14:57.677	WT901BLE68-01(48591DE3C19B)	-0.405	-0.879	0.317	-0.549	10.986	-42.847	-75.98	11.16	-29.20	-51.254	-28.420	79.184	-0.78342	0.56348	-0.24533	0.09198	28.7	13111	100
2025-3-27 20:14:57.677	WT901BLE68-01(48591DE3C19B)	-0.405	-0.862	0.308	-1.099	6.165	-38.574	-75.99	10.84	-29.35	-51.254	-28.420	79.184	-0.78342	0.56348	-0.24533	0.09198	28.7	13111	100
2025-3-27 20:14:57.677	WT901BLE68-01(48591DE3C19B)	-0.405	-0.862	0.308	-1.099	6.165	-38.574	-76.00	10.55	-29.48	-51.254	-28.420	79.184	-0.78342	0.56348	-0.24533	0.09198	28.7	13111	100
2025-3-27 20:14:57.737	WT901BLE68-01(48591DE3C19B)	-0.405	-0.856	0.304	-2.319	0.977	-33.752	-76.01	10.27	-29.57	-51.254	-28.420	79.184	-0.78342	0.56348	-0.24533	0.09198	28.7	13111	100
2025-3-27 20:14:57.737	WT901BLE68-01(48591DE3C19B)	-0.399	-0.856	0.304	-2.319	0.977	-33.752	-76.03	10.01	-29.63	-51.254	-28.420	79.184	-0.78342	0.56348	-0.24533	0.09198	28.7	13111	100
2025-3-27 20:14:57.737	WT901BLE68-01(48591DE3C19B)	-0.399	-0.858	0.304	-3.052	-2.563	-28.625	-76.04	9.78	-29.66	-51.254	-28.420	79.184	-0.78342	0.56348	-0.24533	0.09198	28.7	13111	100
2025-3-27 20:14:57.737	WT901BLE68-01(48591DE3C19B)	-0.398	-0.858	0.304	-3.052	-2.563	-28.625	-76.05	9.57	-29.67	-51.254	-28.420	79.184	-0.78342	0.56348	-0.24533	0.09198	28.7	13111	100
2025-3-27 20:14:57.769	WT901BLE68-01(48591DE3C19B)	-0.398	-0.853	0.305	-3.357	-4.333	-23.315	-76.06	9.38	-29.66	-51.058	-28.812	79.380	-0.78342	0.56348	-0.24533	0.09198	28.7	13111	100
2025-3-27 20:14:57.770	WT901BLE68-01(48591DE3C19B)	-0.391	-0.853	0.305	-3.357	-4.333	-23.315	-76.07	9.23	-29.64	-51.058	-28.812	79.380	-0.78342	0.56348	-0.24533	0.09198	28.7	13111	100
2025-3-27 20:14:57.770	WT901BLE68-01(48591DE3C19B)	-0.391	-0.855	0.300	-3.845	-5.127	-18.555	-76.07	9.09	-29.60	-51.058	-28.812	79.380	-0.78342	0.56348	-0.24533	0.09198	28.7	13111	100
2025-3-27 20:14:57.770	WT901BLE68-01(48591DE3C19B)	-0.380	-0.855	0.300	-3.845	-5.127	-18.555	-76.09	8.98	-29.56	-51.058	-28.812	79.380	-0.78342	0.56348	-0.24533	0.09198	28.7	13111	100
2025-3-27 20:14:57.797	WT901BLE68-01(48591DE3C19B)	-0.380	-0.854	0.293	-3.174	-4.089	-13.977	-76.10	8.90	-29.51	-51.058	-28.812	79.380	-0.78342	0.56348	-0.24533	0.09198	28.7	13111	100
2025-3-27 20:14:57.797	WT901BLE68-01(48591DE3C19B)	-0.377	-0.854	0.293	-3.174	-4.089	-13.977	-76.10	8.83	-29.47	-51.058	-28.812	79.380	-0.78342	0.56348	-0.24533	0.09198	28.7	13111	100
2025-3-27 20:14:57.797	WT901BLE68-01(48591DE3C19B)	-0.377	-0.829	0.276	-2.686	-3.052	-9.644	-76.10	8.79	-29.43	-51.058	-28.812	79.380	-0.78342	0.56348	-0.24533	0.09198	28.7	13111	100
2025-3-27 20:14:57.797	WT901BLE68-01(48591DE3C19B)	-0.373	-0.829	0.276	-2.686	-3.052	-9.644	-76.10	8.78	-29.38	-51.058	-28.812	79.380	-0.78342	0.56348	-0.24533	0.09198	28.7	13111	100
2025-3-27 20:14:57.856	WT901BLE68-01(48591DE3C19B)	-0.373	-0.803	0.248	-4.028	-3.052	-5.798	-76.11	8.78	-29.33	-51.058	-28.812	79.380	-0.78342	0.56348	-0.24533	0.09198	28.7	13111	100
2025-3-27 20:14:57.856	WT901BLE68-01(48591DE3C19B)	-0.380	-0.803	0.248	-4.028	-3.052	-5.798	-76.12	8.81	-29.27	-51.058	-28.812	79.380	-0.78342	0.56348	-0.24533	0.09198	28.7	13111	100
2025-3-27 20:14:57.856	WT901BLE68-01(48591DE3C19B)	-0.380	-0.787	0.234	-7.202	-5.798	-2.502	-76.15	8.84	-29.20	-51.058	-28.812	79.380	-0.78342	0.56348	-0.24533	0.09198	28.7	13111	100
2025-3-27 20:14:57.856	WT901BLE68-01(48591DE3C19B)	-0.391	-0.787	0.234	-7.202	-5.798	-2.502	-76.19	8.89	-29.11	-51.058	-28.812	79.380	-0.78342	0.56348	-0.24533	0.09198	28.7	13111	100
2025-3-27 20:14:57.888	WT901BLE68-01(48591DE3C19B)	-0.391	-0.771	0.242	-9.949	-11.353	0.488	-76.25	8.95	-28.95	-51.058	-28.812	79.380	-0.78342	0.56348	-0.24533	0.09198	28.7	13111	100
2025-3-27 20:14:57.889	WT901BLE68-01(48591DE3C19B)	-0.413	-0.771	0.242	-9.949	-11.353	0.488	-76.31	9.02	-28.80	-51.058	-28.812	79.380	-0.78342	0.56348	-0.24533	0.09198	28.7	13111	100
2025-3-27 20:14:57.889	WT901BLE68-01(48591DE3C19B)	-0.413	-0.754	0.264	-12.207	-19.226	4.639	-76.38	9.11	-28.56	-51.058	-28.812	79.380	-0.78342	0.56348	-0.24533	0.09198	28.7	13111	100
2025-3-27 20:14:57.889	WT901BLE68-01(48591DE3C19B)	-0.416	-0.754	0.264	-12.207	-19.226	4.639	-76.45	9.20	-28.32	-51.058	-28.812	79.380	-0.78342	0.56348	-0.24533	0.09198	28.7	13111	100
2025-3-27 20:14:57.947	WT901BLE68-01(48591DE3C19B)	-0.416	-0.742	0.256	-13.306	-26.001	8.972	-76.51	9.32	-28.00	-51.058	-28.812	79.380	-0.78342	0.56348	-0.24533	0.09198	28.7	13111	100
2025-3-27 20:14:57.947	WT901BLE68-01(48591DE3C19B)	-0.390	-0.742	0.256	-13.306	-26.001	8.972	-76.58	9.44	-27.67	-51.058	-28.812	79.380	-0.78342	0.56348	-0.24533	0.09198	28.7	13111	100
2025-3-27 20:14:57.948	WT901BLE68-01(48591DE3C19B)	-0.390	-0.720	0.228	-13.306	-28.015	12.573	-76.64	9.60	-27.33	-51.058	-28.812	79.380	-0.77188	0.58487	-0.20972	0.13428	28.7	13111	100
2025-3-27 20:14:57.948	WT901BLE68-01(48591DE3C19B)	-0.375	-0.720	0.228	-13.306	-28.015	12.573	-76.70	9.75	-26.98	-51.058	-28.812	79.380	-0.77188	0.58487	-0.20972	0.13428	28.7	13111	100
2025-3-27 20:14:57.976	WT901BLE68-01(48591DE3C19B)	-0.375	-0.717	0.207	-12.939	-26.672	14.587	-76.75	9.93	-26.64	-51.058	-28.812	79.380	-0.77188	0.58487	-0.20972	0.13428	28.7	13111	100
2025-3-27 20:14:57.976	WT901BLE68-01(48591DE3C19B)	-0.393	-0.717	0.207	-12.939	-26.672	14.587	-76.81	10.10	-26.30	-51.058	-28.812	79.380	-0.77188	0.58487	-0.20972	0.13428	28.7	13111	100
2025-3-27 20:14:57.976	WT901BLE68-01(48591DE3C19B)	-0.393	-0.723	0.217	-10.681	-24.170	16.418	-76.84	10.30	-25.98	-51.058	-28.812	79.380	-0.77188	0.58487	-0.20972	0.13428	28.7	13111	100
2025-3-27 20:14:57.976	WT901BLE68-01(48591DE3C19B)	-0.402	-0.723	0.217	-10.681	-24.170	16.418	-76.88	10.50	-25.66	-51.058	-28.812	79.380	-0.77188	0.58487	-0.20972	0.13428	28.7	13111	100
2025-3-27 20:14:58.7	WT901BLE68-01(48591DE3C19B)	-0.402	-0.707	0.212	-8.606	-21.179	17.578	-76.90	10.71	-25.37	-51.058	-28.812	79.380	-0.77188	0.58487	-0.20972	0.13428	28.7	13111	100
2025-3-27 20:14:58.7	WT901BLE68-01(48591DE3C19B)	-0.389	-0.707	0.212	-8.606	-21.179	17.578	-76.92	10.93	-25.08	-51.058	-28.812	79.380	-0.77188	0.58487	-0.20972	0.13428	28.7	13111	100
2025-3-27 20:14:58.7	WT901BLE68-01(48591DE3C19B)	-0.389	-0.685	0.207	-7.690	-15.747	19.104	-76.94	11.18	-24.84	-51.058	-28.812	79.380	-0.77188	0.58487	-0.20972	0.13428	28.7	13111	100
2025-3-27 20:14:58.7	WT901BLE68-01(48591DE3C19B)	-0.397	-0.685	0.207	-7.690	-15.747	19.104	-76.96	11.42	-24.60	-51.058	-28.812	79.380	-0.77188	0.58487	-0.20972	0.13428	28.7	13111	100
2025-3-27 20:14:58.70	WT901BLE68-01(48591DE3C19B)	-0.397	-0.677	0.221	-7.141	-10.498	21.790	-76.98	11.70	-24.40	-51.058	-28.812	79.380	-0.77188	0.58487	-0.20972	0.13428	28.7	13111	100
2025-3-27 20:14:58.70	WT901BLE68-01(48591DE3C19B)	-0.394	-0.677	0.221	-7.141	-10.498	21.790	-77.00	11.99	-24.20	-51.058	-28.812	79.380	-0.77188	0.58487	-0.20972	0.13428	28.7	13111	100
2025-3-27 20:14:58.71	WT901BLE68-01(48591DE3C19B)	-0.394	-0.660	0.248	-6.287	-7.568	26.489	-77.01	12.32	-24.02	-51.058	-28.812	79.380	-0.77188	0.58487	-0.20972	0.13428	28.7	13111	100
2025-3-27 20:14:58.71	WT901BLE68-01(48591DE3C19B)	-0.365	-0.660	0.248	-6.287	-7.568	26.489	-77.02	12.65	-23.84	-51.058	-28.812	79.380	-0.77188	0.58487	-0.20972	0.13428	28.7	13111	100
2025-3-27 20:14:58.99	WT901BLE68-01(48591DE3C19B)	-0.365	-0.623	0.247	-4.883	-2.441	34.546	-77.03	13.07	-23.69	-51.058	-28.812	79.380	-0.77188	0.58487	-0.20972	0.13428	28.7	13111	100
2025-3-27 20:14:58.100	WT901BLE68-01(48591DE3C19B)	-0.355	-0.623	0.247	-4.883	-2.441	34.546	-77.02	13.49	-23.54	-51.058	-28.812	79.380	-0.77188	0.58487	-0.20972	0.13428	28.7	13111	100
2025-3-27 20:14:58.100	WT901BLE68-01(48591DE3C19B)	-0.355	-0.593	0.248	-1.648	2.869	45.593	-76.99	14.02	-23.42	-51.058	-28.812	79.380	-0.77188	0.58487	-0.20972	0.13428	28.7	13111	100
2025-3-27 20:14:58.100	WT901BLE68-01(48591DE3C19B)	-0.364	-0.593	0.248	-1.648	2.869	45.593	-76.96	14.56	-23.30	-51.058	-28.812	79.380	-0.77188	0.58487	-0.20972	0.13428	28.7	13111	100
2025-3-27 20:14:58.157	WT901BLE68-01(48591DE3C19B)	-0.364	-0.547	0.243	-0.671	-2.014	57.434	-76.89	15.19	-23.10	-51.058	-28.812	79.380	-0.77188	0.58487	-0.20972	0.13428	28.7	13111	100
2025-3-27 20:14:58.157	WT901BLE68-01(48591DE3C19B)	-0.365	-0.547	0.243	-0.671	-2.014	57.434	-76.83	15.83	-22.90	-51.058	-28.812	79.380	-0.77188	0.58487	-0.20972	0.13428	28.7	13111	100
2025-3-27 20:14:58.157	WT901BLE68-01(48591DE3C19B)	-0.365	-0.630	0.212	-10.376	-23.315	62.378	-76.79	16.46	-22.46	-47.922	-29.400	80.752	-0.77188	0.58487	-0.20972	0.13428	28.7	13111	100
2025-3-27 20:14:58.157	WT901BLE68-01(48591DE3C19B)	-0.469	-0.630	0.212	-10.376	-23.315	62.378	-76.75	17.09	-22.03	-47.922	-29.400	80.752	-0.77188	0.58487	-0.20972	0.13428	28.7	13111	100
2025-3-27 20:14:58.186	WT901BLE68-01(48591DE3C19B)	-0.469	-1.093	0.267	-25.330	-54.077	49.805	-76.77	17.51	-21.32	-47.922	-29.400	80.752	-0.77188	0.58487	-0.20972	0.13428	28.7	13111	100
2025-3-27 20:14:58.186	WT901BLE68-01(48591DE3C19B)	-1.202	-1.093	0.267	-25.330	-54.077	49.805	-76.79	17.93	-20.62	-47.922	-29.400	80.752	-0.77188	0.58487	-0.20972	0.13428	28.7	13111	100
2025-3-27 20:14:58.186	WT901BLE68-01(48591DE3C19B)	-4.808	-3.592	0.549	-27.283	-93.689	35.522	-76.73	18.11	-19.55	-47.922	-29.400	80.752	-0.77188	0.58487	-0.20972	0.13428	28.7	13111	100
2025-3-27 20:14:58.186	WT901BLE68-01(48591DE3C19B)	-0.436	-14.369	2.196	-27.283	-93.689	35.522	-76.68	18.26	-18.51	-47.922	-29.400	80.752	-0.77188	0.58487	-0.20972	0.13428	28.7	13111	100
2025-3-27 20:14:58.217	WT901BLE68-01(48591DE3C19B)	-0.436	-2.032	0.264	-3.113	-113.159	30.212	-76.34	18.31	-17.29	-47.922	-29.400	80.752	-0.77188	0.58487	-0.20972	0.13428	28.7	13111	100
2025-3-27 20:14:58.217	WT901BLE68-01(48591DE3C19B)	-0.223	-2.032	0.264	-3.113	-113.159	30.212	-76.00	18.34	-16.08	-47.922	-29.400	80.752	-0.77188	0.58487	-0.20972	0.13428	28.7	13111	100
2025-3-27 20:14:58.217	WT901BLE68-01(48591DE3C19B)	-0.223	-1.723	0.153	17.883	-94.971	40.283	-75.50	18.50	-15.04	-47.922	-29.400	80.752	-0.77188	0.58487	-0.20972	0.13428	28.7	13111	100
2025-3-27 20:14:58.217	WT901BLE68-01(48591DE3C19B)	-0.027	-1.723	0.153	17.883	-94.971	40.283	-75.01	18.64	-14.01	-47.922	-29.400	80.752	-0.77188	0.58487	-0.20972	0.13428	28.7	13111	100
2025-3-27 20:14:58.247	WT901BLE68-01(48591DE3C19B)	-0.027	-1.299	0.049	23.315	-56.091	55.359	-74.58	19.02	-13.33	-47.922	-29.400	80.752	-0.77188	0.58487	-0.20972	0.13428	28.7	13111	100
2025-3-27 20:14:58.247	WT901BLE68-01(48591DE3C19B)	0.135	-1.299	0.049	23.315	-56.091	55.359	-74.15	19.39	-12.66	-47.922	-29.400	80.752	-0.77188	0.58487	-0.20972	0.13428	28.7	13111	100
2025-3-27 20:14:58.247	WT901BLE68-01(48591DE3C19B)	0.135	-0.937	0.031	20.630	-7.568	70.435	-73.89	20.01	-12.44	-47.922	-29.400	80.752	-0.77188	0.58487	-0.20972	0.13428	28.7	13111	100
2025-3-27 20:14:58.247	WT901BLE68-01(48591DE3C19B)	0.219	-0.937	0.031	20.630	-7.568	70.435	-73.64	20.63	-12.22	-47.922	-29.400	80.752	-0.77188	0.58487	-0.20972	0.13428	28.7	13111	100
2025-3-27 20:14:58.309	WT901BLE68-01(48591DE3C19B)	0.219	-0.826	0.089	1.526	23.438	75.989	-73.69	21.37	-12.30	-47.922	-29.400	80.752	-0.77188	0.58487	-0.20972	0.13428	28.7	13111	100
2025-3-27 20:14:58.309	WT901BLE68-01(48591DE3C19B)	0.152	-0.826	0.089	1.526	23.438	75.989	-73.73	22.11	-12.39	-47.922	-29.400	80.752	-0.77188	0.58487	-0.20972	0.13428	28.7	13111	100
2025-3-27 20:14:58.309	WT901BLE68-01(48591DE3C19B)	0.152	-1.122	0.123	-11.902	42.847	66.162	-74.01	22.79	-12.72	-47.922	-29.400	80.752	-0.77188	0.58487	-0.20972	0.13428	28.7	13111	100
2025-3-27 20:14:58.309	WT901BLE68-01(48591DE3C19B)	-0.058	-1.122	0.123	-11.902	42.847	66.162	-74.28	23.46	-13.06	-47.922	-29.400	80.752	-0.77188	0.58487	-0.20972	0.13428	28.7	13111	100
2025-3-27 20:14:58.339	WT901BLE68-01(48591DE3C19B)	-0.166	-1.338	0.106	-2.441	40.588	55.908	-74.48	24.01	-13.41	-47.922	-29.400	80.752	-0.77188	0.58487	-0.20972	0.13428	28.7	13111	100
2025-3-27 20:14:58.339	WT901BLE68-01(48591DE3C19B)	-0.166	-1.198	0.078	10.010	23.560	41.321	-74.59	24.47	-13.69	-47.922	-29.400	80.752	-0.77188	0.58487	-0.20972	0.13428	28.7	13111	100
2025-3-27 20:14:58.339	WT901BLE68-01(48591DE3C19B)	-0.090	-1.198	0.078	10.010	23.560	41.321	-74.61	24.83	-13.91	-47.922	-29.400	80.752	-0.77188	0.58487	-0.20972	0.13428	28.7	13111	100
2025-3-27 20:14:58.339	WT901BLE68-01(48591DE3C19B)	-0.090	-0.912	0.047	17.517	18.555	28.320	-74.59	25.12	-14.12	-47.922	-29.400	80.752	-0.78683	0.56503	-0.24557	-0.03516	28.7	13111	100
2025-3-27 20:14:58.371	WT901BLE68-01(48591DE3C19B)	-0.061	-0.912	0.047	17.517	18.555	28.320	-74.53	25.34	-14.32	-47.922	-29.400	80.752	-0.78683	0.56503	-0.24557	-0.03516	28.7	13111	100
2025-3-27 20:14:58.371	WT901BLE68-01(48591DE3C19B)	-0.061	-0.706	0.027	21.606	17.456	18.921	-74.46	25.51	-14.52	-47.922	-29.400	80.752	-0.78683	0.56503	-0.24557	-0.03516	28.7	13111	100
2025-3-27 20:14:58.372	WT901BLE68-01(48591DE3C19B)	0.017	-0.706	0.027	21.606	17.456	18.921	-74.38	25.63	-14.74	-47.922	-29.400	80.752	-0.78683	0.56503	-0.24557	-0.03516	28.7	13111	100
2025-3-27 20:14:58.372	WT901BLE68-01(48591DE3C19B)	0.017	-0.612	0.043	20.020	14.893	8.606	-74.30	25.70	-14.95	-47.922	-29.400	80.752	-0.78683	0.56503	-0.24557	-0.03516	28.7	13111	100
2025-3-27 20:14:58.427	WT901BLE68-01(48591DE3C19B)	0.063	-0.612	0.043	20.020	14.893	8.606	-74.23	25.71	-15.17	-47.922	-29.400	80.752	-0.78683	0.56503	-0.24557	-0.03516	28.7	13111	100
2025-3-27 20:14:58.427	WT901BLE68-01(48591DE3C19B)	0.063	-0.583	0.090	24.109	26.978	1.709	-74.19	25.71	-15.46	-47.922	-29.400	80.752	-0.78683	0.56503	-0.24557	-0.03516	28.7	13111	100
2025-3-27 20:14:58.427	WT901BLE68-01(48591DE3C19B)	0.052	-0.583	0.090	24.109	26.978	1.709	-74.14	25.68	-15.83	-47.922	-29.400	80.752	-0.78683	0.56503	-0.24557	-0.03516	28.7	13111	100
2025-3-27 20:14:58.427	WT901BLE68-01(48591DE3C19B)	0.052	-0.502	0.146	32.532	47.546	-1.831	-74.11	25.66	-16.31	-47.922	-29.400	80.752	-0.78683	0.56503	-0.24557	-0.03516	28.7	13111	100
2025-3-27 20:14:58.456	WT901BLE68-01(48591DE3C19B)	0.012	-0.502	0.146	32.532	47.546	-1.831	-74.08	25.65	-16.91	-47.922	-29.400	80.752	-0.78683	0.56503	-0.24557	-0.03516	28.7	13111	100
2025-3-27 20:14:58.457	WT901BLE68-01(48591DE3C19B)	0.012	-0.395	0.163	36.621	64.209	-3.174	-74.06	25.65	-17.59	-47.922	-29.400	80.752	-0.78683	0.56503	-0.24557	-0.03516	28.7	13111	100
2025-3-27 20:14:58.457	WT901BLE68-01(48591DE3C19B)	-0.074	-0.395	0.163	36.621	64.209	-3.174	-74.06	25.67	-18.36	-47.922	-29.400	80.752	-0.78683	0.56503	-0.24557	-0.03516	28.7	13111	100
2025-3-27 20:14:58.457	WT901BLE68-01(48591DE3C19B)	-0.074	-0.427	0.138	32.288	69.641	-4.211	-74.10	25.69	-19.17	-47.922	-29.400	80.752	-0.78683	0.56503	-0.24557	-0.03516	28.7	13111	100
2025-3-27 20:14:58.487	WT901BLE68-01(48591DE3C19B)	-0.149	-0.427	0.138	32.288	69.641	-4.211	-74.16	25.71	-19.99	-47.922	-29.400	80.752	-0.78683	0.56503	-0.24557	-0.03516	28.7	13111	100
2025-3-27 20:14:58.487	WT901BLE68-01(48591DE3C19B)	-0.149	-0.588	0.120	24.963	65.613	-3.784	-74.24	25.72	-20.79	-47.922	-29.400	80.752	-0.78683	0.56503	-0.24557	-0.03516	28.7	13111	100
2025-3-27 20:14:58.487	WT901BLE68-01(48591DE3C19B)	-0.206	-0.588	0.120	24.963	65.613	-3.784	-74.35	25.75	-21.55	-47.922	-29.400	80.752	-0.78683	0.56503	-0.24557	-0.03516	28.7	13111	100
2025-3-27 20:14:58.487	WT901BLE68-01(48591DE3C19B)	-0.206	-0.773	0.119	17.273	55.664	-5.737	-74.47	25.74	-22.26	-47.922	-29.400	80.752	-0.78683	0.56503	-0.24557	-0.03516	28.7	13111	100
2025-3-27 20:14:58.547	WT901BLE68-01(48591DE3C19B)	-0.298	-0.773	0.119	17.273	55.664	-5.737	-74.60	25.72	-22.92	-47.922	-29.400	80.752	-0.78683	0.56503	-0.24557	-0.03516	28.7	13111	100
2025-3-27 20:14:58.547	WT901BLE68-01(48591DE3C19B)	-0.298	-1.104	0.126	-1.953	45.166	-28.381	-74.82	25.59	-23.54	-47.922	-29.400	80.752	-0.78683	0.56503	-0.24557	-0.03516	28.7	13111	100
2025-3-27 20:14:58.547	WT901BLE68-01(48591DE3C19B)	-0.563	-1.104	0.126	-1.953	45.166	-28.381	-75.13	25.33	-24.13	-47.922	-29.400	80.752	-0.78683	0.56503	-0.24557	-0.03516	28.7	13111	100
2025-3-27 20:14:58.547	WT901BLE68-01(48591DE3C19B)	-0.563	-1.882	0.187	-18.311	22.583	-84.229	-75.49	24.78	-24.67	-47.922	-29.400	80.752	-0.78683	0.56503	-0.24557	-0.03516	28.7	13111	100
2025-3-27 20:14:58.575	WT901BLE68-01(48591DE3C19B)	-0.678	-1.882	0.187	-18.311	22.583	-84.229	-75.90	23.94	-25.15	-48.412	-27.538	84.966	-0.78683	0.56503	-0.24557	-0.03516	28.7	13111	100
2025-3-27 20:14:58.576	WT901BLE68-01(48591DE3C19B)	-0.678	-2.253	0.350	-2.869	9.155	-131.287	-76.23	22.87	-25.61	-48.412	-27.538	84.966	-0.78683	0.56503	-0.24557	-0.03516	28.7	13111	100
2025-3-27 20:14:58.576	WT901BLE68-01(48591DE3C19B)	-0.867	-2.253	0.350	-2.869	9.155	-131.287	-76.45	21.56	-26.04	-48.412	-27.538	84.966	-0.78683	0.56503	-0.24557	-0.03516	28.7	13111	100
2025-3-27 20:14:58.576	WT901BLE68-01(48591DE3C19B)	-0.867	-1.663	0.588	7.446	23.682	-138.245	-76.64	20.25	-26.54	-48.412	-27.538	84.966	-0.78683	0.56503	-0.24557	-0.03516	28.7	13111	100
2025-3-27 20:14:58.607	WT901BLE68-01(48591DE3C19B)	-0.773	-1.663	0.588	7.446	23.682	-138.245	-76.78	18.93	-27.11	-48.412	-27.538	84.966	-0.78683	0.56503	-0.24557	-0.03516	28.7	13111	100
2025-3-27 20:14:58.607	WT901BLE68-01(48591DE3C19B)	-0.773	-1.297	0.588	-6.042	55.481	-141.602	-77.02	17.66	-27.83	-48.412	-27.538	84.966	-0.78683	0.56503	-0.24557	-0.03516	28.7	13111	100
2025-3-27 20:14:58.607	WT901BLE68-01(48591DE3C19B)	-0.657	-1.297	0.588	-6.042	55.481	-141.602	-77.34	16.41	-28.69	-48.412	-27.538	84.966	-0.78683	0.56503	-0.24557	-0.03516	28.7	13111	100
2025-3-27 20:14:58.607	WT901BLE68-01(48591DE3C19B)	-0.657	-1.228	0.449	-6.897	82.642	-131.653	-77.67	15.25	-29.66	-48.412	-27.538	84.966	-0.78683	0.56503	-0.24557	-0.03516	28.7	13111	100
2025-3-27 20:14:58.671	WT901BLE68-01(48591DE3C19B)	-0.579	-1.228	0.449	-6.897	82.642	-131.653	-78.02	14.17	-30.73	-48.412	-27.538	84.966	-0.78683	0.56503	-0.24557	-0.03516	28.7	13111	100
2025-3-27 20:14:58.671	WT901BLE68-01(48591DE3C19B)	-0.579	-0.904	0.304	1.343	53.162	-102.417	-78.26	13.21	-31.61	-48.412	-27.538	84.966	-0.78683	0.56503	-0.24557	-0.03516	28.7	13111	100
2025-3-27 20:14:58.671	WT901BLE68-01(48591DE3C19B)	-0.551	-0.904	0.304	1.343	53.162	-102.417	-78.39	12.38	-32.29	-48.412	-27.538	84.966	-0.78683	0.56503	-0.24557	-0.03516	28.7	13111	100
2025-3-27 20:14:58.671	WT901BLE68-01(48591DE3C19B)	-0.551	-0.603	0.252	-16.846	-31.311	-65.613	-78.51	11.64	-32.51	-48.412	-27.538	84.966	-0.78683	0.56503	-0.24557	-0.03516	28.7	13111	100
2025-3-27 20:14:58.699	WT901BLE68-01(48591DE3C19B)	-0.527	-0.603	0.252	-16.846	-31.311	-65.613	-78.63	11.01	-32.27	-48.412	-27.538	84.966	-0.78683	0.56503	-0.24557	-0.03516	28.7	13111	100
2025-3-27 20:14:58.699	WT901BLE68-01(48591DE3C19B)	-0.527	-0.610	0.208	-35.706	-88.562	-39.734	-78.78	10.47	-31.71	-48.412	-27.538	84.966	-0.78683	0.56503	-0.24557	-0.03516	28.7	13111	100
2025-3-27 20:14:58.699	WT901BLE68-01(48591DE3C19B)	-0.538	-0.610	0.208	-35.706	-88.562	-39.734	-78.98	10.00	-30.83	-48.412	-27.538	84.966	-0.78683	0.56503	-0.24557	-0.03516	28.7	13111	100
2025-3-27 20:14:58.699	WT901BLE68-01(48591DE3C19B)	-0.538	-0.595	0.175	-33.020	-86.060	-16.113	-79.16	9.67	-29.95	-48.412	-27.538	84.966	-0.78683	0.56503	-0.24557	-0.03516	28.7	13111	100
2025-3-27 20:14:58.728	WT901BLE68-01(48591DE3C19B)	-0.499	-0.595	0.175	-33.020	-86.060	-16.113	-79.33	9.46	-29.06	-48.412	-27.538	84.966	-0.78683	0.56503	-0.24557	-0.03516	28.7	13111	100
2025-3-27 20:14:58.728	WT901BLE68-01(48591DE3C19B)	-0.499	-0.530	0.211	-28.137	-66.040	-1.587	-79.50	9.35	-28.25	-48.412	-27.538	84.966	-0.78683	0.56503	-0.24557	-0.03516	28.7	13111	100
2025-3-27 20:14:58.728	WT901BLE68-01(48591DE3C19B)	-0.439	-0.530	0.211	-28.137	-66.040	-1.587	-79.65	9.34	-27.53	-48.412	-27.538	84.966	-0.75583	0.60510	-0.21262	0.13141	28.7	13111	100
2025-3-27 20:14:58.729	WT901BLE68-01(48591DE3C19B)	-0.439	-0.477	0.275	-22.400	-50.110	4.028	-79.78	9.38	-26.87	-48.412	-27.538	84.966	-0.75583	0.60510	-0.21262	0.13141	28.7	13111	100
2025-3-27 20:14:58.787	WT901BLE68-01(48591DE3C19B)	-0.384	-0.477	0.275	-22.400	-50.110	4.028	-79.90	9.46	-26.30	-48.412	-27.538	84.966	-0.75583	0.60510	-0.21262	0.13141	28.7	13111	100
2025-3-27 20:14:58.787	WT901BLE68-01(48591DE3C19B)	-0.384	-0.330	0.298	-14.709	-28.931	11.536	-79.98	9.61	-25.81	-48.412	-27.538	84.966	-0.75583	0.60510	-0.21262	0.13141	28.7	13111	100
2025-3-27 20:14:58.787	WT901BLE68-01(48591DE3C19B)	-0.333	-0.330	0.298	-14.709	-28.931	11.536	-80.04	9.81	-25.43	-48.412	-27.538	84.966	-0.75583	0.60510	-0.21262	0.13141	28.7	13111	100
2025-3-27 20:14:58.787	WT901BLE68-01(48591DE3C19B)	-0.333	-0.167	0.240	-6.104	4.456	22.583	-80.06	10.18	-25.35	-48.412	-27.538	84.966	-0.75583	0.60510	-0.21262	0.13141	28.7	13111	100
2025-3-27 20:14:58.817	WT901BLE68-01(48591DE3C19B)	-0.359	-0.167	0.240	-6.104	4.456	22.583	-80.07	10.56	-25.27	-48.412	-27.538	84.966	-0.75583	0.60510	-0.21262	0.13141	28.7	13111	100
2025-3-27 20:14:58.817	WT901BLE68-01(48591DE3C19B)	-0.359	-0.041	0.208	-1.160	39.795	34.851	-80.10	11.13	-25.50	-48.412	-27.538	84.966	-0.75583	0.60510	-0.21262	0.13141	28.7	13111	100
2025-3-27 20:14:58.817	WT901BLE68-01(48591DE3C19B)	-0.396	-0.041	0.208	-1.160	39.795	34.851	-80.12	11.71	-25.74	-48.412	-27.538	84.966	-0.75583	0.60510	-0.21262	0.13141	28.7	13111	100
2025-3-27 20:14:58.817	WT901BLE68-01(48591DE3C19B)	-0.396	-0.040	0.160	-8.362	47.058	39.429	-80.23	12.36	-26.01	-48.412	-27.538	84.966	-0.75583	0.60510	-0.21262	0.13141	28.7	13111	100
2025-3-27 20:14:58.846	WT901BLE68-01(48591DE3C19B)	-0.426	-0.040	0.160	-8.362	47.058	39.429	-80.35	13.01	-26.28	-48.412	-27.538	84.966	-0.75583	0.60510	-0.21262	0.13141	28.7	13111	100
2025-3-27 20:14:58.846	WT901BLE68-01(48591DE3C19B)	-0.426	-0.228	0.188	-16.846	14.954	36.255	-80.49	13.59	-26.22	-48.412	-27.538	84.966	-0.75583	0.60510	-0.21262	0.13141	28.7	13111	100
2025-3-27 20:14:58.846	WT901BLE68-01(48591DE3C19B)	-0.560	-0.228	0.188	-16.846	14.954	36.255	-80.62	14.17	-26.15	-48.412	-27.538	84.966	-0.75583	0.60510	-0.21262	0.13141	28.7	13111	100
2025-3-27 20:14:58.846	WT901BLE68-01(48591DE3C19B)	-0.560	-0.573	0.260	-14.160	-29.968	28.442	-80.63	14.60	-25.65	-48.412	-27.538	84.966	-0.75583	0.60510	-0.21262	0.13141	28.7	13111	100
2025-3-27 20:14:58.908	WT901BLE68-01(48591DE3C19B)	-0.813	-0.573	0.260	-14.160	-29.968	28.442	-80.62	15.02	-25.14	-48.412	-27.538	84.966	-0.75583	0.60510	-0.21262	0.13141	28.7	13111	100
2025-3-27 20:14:58.909	WT901BLE68-01(48591DE3C19B)	-0.813	-1.196	0.318	-15.930	-80.994	22.400	-80.51	15.28	-24.14	-48.412	-27.538	84.966	-0.75583	0.60510	-0.21262	0.13141	28.7	13111	100
2025-3-27 20:14:58.909	WT901BLE68-01(48591DE3C19B)	-0.897	-1.196	0.318	-15.930	-80.994	22.400	-80.39	15.53	-23.16	-48.412	-27.538	84.966	-0.75583	0.60510	-0.21262	0.13141	28.7	13111	100
2025-3-27 20:14:58.909	WT901BLE68-01(48591DE3C19B)	-0.897	-2.303	0.166	-19.836	-104.980	10.681	-80.27	15.60	-21.98	-48.412	-27.538	84.966	-0.75583	0.60510	-0.21262	0.13141	28.7	13111	100
2025-3-27 20:14:58.937	WT901BLE68-01(48591DE3C19B)	-0.677	-2.303	0.166	-19.836	-104.980	10.681	-80.15	15.63	-20.83	-48.412	-27.538	84.966	-0.75583	0.60510	-0.21262	0.13141	28.7	13111	100
2025-3-27 20:14:58.938	WT901BLE68-01(48591DE3C19B)	-0.677	-3.025	-0.036	18.372	-78.979	27.344	-79.73	15.84	-19.94	-48.412	-27.538	84.966	-0.75583	0.60510	-0.21262	0.13141	28.7	13111	100
2025-3-27 20:14:58.938	WT901BLE68-01(48591DE3C19B)	-0.539	-3.025	-0.036	18.372	-78.979	27.344	-79.32	16.03	-19.07	-48.412	-27.538	84.966	-0.75583	0.60510	-0.21262	0.13141	28.7	13111	100
2025-3-27 20:14:58.938	WT901BLE68-01(48591DE3C19B)	-0.539	-1.840	0.027	71.655	-27.161	42.053	-78.53	16.44	-18.70	-47.138	-27.244	86.730	-0.75583	0.60510	-0.21262	0.13141	28.7	13111	100
2025-3-27 20:14:58.968	WT901BLE68-01(48591DE3C19B)	-0.156	-1.840	0.027	71.655	-27.161	42.053	-77.74	16.83	-18.34	-47.138	-27.244	86.730	-0.75583	0.60510	-0.21262	0.13141	28.7	13111	100
2025-3-27 20:14:58.968	WT901BLE68-01(48591DE3C19B)	-0.156	-1.363	0.169	35.950	14.038	70.190	-77.41	17.57	-18.33	-47.138	-27.244	86.730	-0.75583	0.60510	-0.21262	0.13141	28.7	13111	100
2025-3-27 20:14:58.968	WT901BLE68-01(48591DE3C19B)	0.335	-1.363	0.169	35.950	14.038	70.190	-77.09	18.30	-18.32	-47.138	-27.244	86.730	-0.75583	0.60510	-0.21262	0.13141	28.7	13111	100
2025-3-27 20:14:58.968	WT901BLE68-01(48591DE3C19B)	0.335	-1.242	0.309	20.508	43.274	99.976	-76.98	19.37	-18.55	-47.138	-27.244	86.730	-0.75583	0.60510	-0.21262	0.13141	28.7	13111	100
2025-3-27 20:14:59.87	WT901BLE68-01(48591DE3C19B)	0.530	-1.242	0.309	20.508	43.274	99.976	-76.88	20.41	-18.79	-47.138	-27.244	86.730	-0.75583	0.60510	-0.21262	0.13141	28.7	13111	100
2025-3-27 20:14:59.87	WT901BLE68-01(48591DE3C19B)	0.530	-0.981	0.318	11.597	27.710	91.492	-76.82	21.32	-18.89	-47.138	-27.244	86.730	-0.75583	0.60510	-0.21262	0.13141	28.7	13111	100
2025-3-27 20:14:59.88	WT901BLE68-01(48591DE3C19B)	0.394	-0.981	0.318	11.597	27.710	91.492	-76.76	22.20	-19.01	-47.138	-27.244	86.730	-0.75583	0.60510	-0.21262	0.13141	28.7	13111	100
2025-3-27 20:14:59.88	WT901BLE68-01(48591DE3C19B)	0.394	-0.865	0.282	17.822	5.310	74.646	-76.56	22.84	-18.93	-47.138	-27.244	86.730	-0.75583	0.60510	-0.21262	0.13141	28.7	13111	100
2025-3-27 20:14:59.88	WT901BLE68-01(48591DE3C19B)	0.064	-0.865	0.282	17.822	5.310	74.646	-76.37	23.47	-18.86	-47.138	-27.244	86.730	-0.75583	0.60510	-0.21262	0.13141	28.7	13111	100
2025-3-27 20:14:59.88	WT901BLE68-01(48591DE3C19B)	0.064	-0.705	0.173	28.259	18.250	67.993	-76.12	24.05	-18.95	-47.138	-27.244	86.730	-0.75583	0.60510	-0.21262	0.13141	28.7	13111	100
2025-3-27 20:14:59.89	WT901BLE68-01(48591DE3C19B)	-0.166	-0.705	0.173	28.259	18.250	67.993	-75.88	24.63	-19.03	-47.138	-27.244	86.730	-0.75583	0.60510	-0.21262	0.13141	28.7	13111	100
2025-3-27 20:14:59.89	WT901BLE68-01(48591DE3C19B)	-0.166	-0.529	0.095	28.687	55.359	55.664	-75.81	25.18	-19.54	-47.138	-27.244	86.730	-0.75583	0.60510	-0.21262	0.13141	28.7	13111	100
2025-3-27 20:14:59.89	WT901BLE68-01(48591DE3C19B)	-0.183	-0.529	0.095	28.687	55.359	55.664	-75.75	25.72	-20.05	-47.138	-27.244	86.730	-0.75583	0.60510	-0.21262	0.13141	28.7	13111	100
2025-3-27 20:14:59.89	WT901BLE68-01(48591DE3C19B)	-0.183	-0.385	0.069	26.978	38.696	47.607	-75.64	26.16	-20.40	-47.138	-27.244	86.730	-0.75583	0.60510	-0.21262	0.13141	28.7	13111	100
2025-3-27 20:14:59.89	WT901BLE68-01(48591DE3C19B)	0.102	-0.385	0.069	26.978	38.696	47.607	-75.53	26.59	-20.74	-47.138	-27.244	86.730	-0.75583	0.60510	-0.21262	0.13141	28.7	13111	100
2025-3-27 20:14:59.89	WT901BLE68-01(48591DE3C19B)	0.102	-0.257	0.059	19.226	-4.517	48.828	-75.29	26.93	-20.62	-47.138	-27.244	86.730	-0.75583	0.60510	-0.21262	0.13141	28.7	13111	100
2025-3-27 20:14:59.146	WT901BLE68-01(48591DE3C19B)	0.190	-0.257	0.059	19.226	-4.517	48.828	-75.05	27.26	-20.49	-47.138	-27.244	86.730	-0.75583	0.60510	-0.21262	0.13141	28.7	13111	100
2025-3-27 20:14:59.147	WT901BLE68-01(48591DE3C19B)	0.190	-0.332	0.056	11.719	9.460	42.236	-74.97	27.54	-20.54	-47.138	-27.244	86.730	-0.75583	0.60510	-0.21262	0.13141	28.7	13111	100
2025-3-27 20:14:59.147	WT901BLE68-01(48591DE3C19B)	0.013	-0.332	0.056	11.719	9.460	42.236	-74.88	27.82	-20.59	-47.138	-27.244	86.730	-0.75583	0.60510	-0.21262	0.13141	28.7	13111	100
2025-3-27 20:14:59.147	WT901BLE68-01(48591DE3C19B)	0.013	-0.594	0.051	11.658	26.489	44.434	-74.88	28.16	-20.82	-47.138	-27.244	86.730	-0.75583	0.60510	-0.21262	0.13141	28.7	13111	100
2025-3-27 20:14:59.175	WT901BLE68-01(48591DE3C19B)	-0.135	-0.594	0.051	11.658	26.489	44.434	-74.89	28.50	-21.06	-47.138	-27.244	86.730	-0.78381	0.54367	-0.29984	-0.00653	28.7	13111	100
2025-3-27 20:14:59.176	WT901BLE68-01(48591DE3C19B)	-0.135	-0.841	0.039	2.441	10.681	46.082	-74.92	28.81	-21.11	-47.138	-27.244	86.730	-0.78381	0.54367	-0.29984	-0.00653	28.7	13111	100
2025-3-27 20:14:59.176	WT901BLE68-01(48591DE3C19B)	-0.160	-0.841	0.039	2.441	10.681	46.082	-74.94	29.13	-21.17	-47.138	-27.244	86.730	-0.78381	0.54367	-0.29984	-0.00653	28.7	13111	100
2025-3-27 20:14:59.176	WT901BLE68-01(48591DE3C19B)	-0.080	-1.126	0.023	-14.160	-19.470	38.757	-74.99	29.30	-20.90	-47.138	-27.244	86.730	-0.78381	0.54367	-0.29984	-0.00653	28.7	13111	100
2025-3-27 20:14:59.207	WT901BLE68-01(48591DE3C19B)	-0.206	-0.563	0.012	-14.160	-19.470	38.757	-75.03	29.48	-20.64	-47.138	-27.244	86.730	-0.78381	0.54367	-0.29984	-0.00653	28.7	13111	100
2025-3-27 20:14:59.207	WT901BLE68-01(48591DE3C19B)	-0.206	-1.752	0.039	-30.762	-30.212	5.127	-75.24	29.31	-20.36	-47.138	-27.244	86.730	-0.78381	0.54367	-0.29984	-0.00653	28.7	13111	100
2025-3-27 20:14:59.207	WT901BLE68-01(48591DE3C19B)	-0.228	-1.752	0.039	-30.762	-30.212	5.127	-75.45	29.14	-20.09	-47.138	-27.244	86.730	-0.78381	0.54367	-0.29984	-0.00653	28.7	13111	100
2025-3-27 20:14:59.207	WT901BLE68-01(48591DE3C19B)	-0.504	-2.335	-0.056	-16.724	-2.014	-39.429	-75.75	28.61	-20.25	-47.138	-27.244	86.730	-0.78381	0.54367	-0.29984	-0.00653	28.7	13111	100
2025-3-27 20:14:59.270	WT901BLE68-01(48591DE3C19B)	-0.504	-1.839	0.167	13.550	22.644	-75.623	-75.98	27.95	-20.59	-47.138	-27.244	86.730	-0.78381	0.54367	-0.29984	-0.00653	28.7	13111	100
2025-3-27 20:14:59.271	WT901BLE68-01(48591DE3C19B)	-0.622	-1.839	0.167	13.550	22.644	-75.623	-76.12	27.16	-21.10	-47.138	-27.244	86.730	-0.78381	0.54367	-0.29984	-0.00653	28.7	13111	100
2025-3-27 20:14:59.271	WT901BLE68-01(48591DE3C19B)	-0.622	-1.098	0.392	-6.775	52.917	-117.371	-76.46	26.20	-21.82	-47.138	-27.244	86.730	-0.78381	0.54367	-0.29984	-0.00653	28.7	13111	100
2025-3-27 20:14:59.271	WT901BLE68-01(48591DE3C19B)	-0.690	-1.098	0.392	-6.775	52.917	-117.371	-76.96	25.09	-22.73	-47.138	-27.244	86.730	-0.78381	0.54367	-0.29984	-0.00653	28.7	13111	100
2025-3-27 20:14:59.297	WT901BLE68-01(48591DE3C19B)	-0.690	-0.848	0.557	-17.456	97.229	-112.488	-77.57	24.07	-23.84	-47.138	-27.244	86.730	-0.78381	0.54367	-0.29984	-0.00653	28.7	13111	100
2025-3-27 20:14:59.297	WT901BLE68-01(48591DE3C19B)	-0.692	-0.848	0.557	-17.456	97.229	-112.488	-78.28	23.12	-25.15	-47.138	-27.244	86.730	-0.78381	0.54367	-0.29984	-0.00653	28.7	13111	100
2025-3-27 20:14:59.297	WT901BLE68-01(48591DE3C19B)	-0.692	-0.774	0.568	-14.587	109.985	-104.492	-78.95	22.23	-26.47	-47.138	-27.244	86.730	-0.78381	0.54367	-0.29984	-0.00653	28.7	13111	100
2025-3-27 20:14:59.297	WT901BLE68-01(48591DE3C19B)	-0.542	-0.774	0.568	-14.587	109.985	-104.492	-79.60	21.38	-27.83	-47.138	-27.244	86.730	-0.78381	0.54367	-0.29984	-0.00653	28.7	13111	100
2025-3-27 20:14:59.328	WT901BLE68-01(48591DE3C19B)	-0.542	-0.570	0.421	-19.226	78.369	-102.051	-80.16	20.53	-28.99	-47.138	-27.244	86.730	-0.78381	0.54367	-0.29984	-0.00653	28.7	13111	100
2025-3-27 20:14:59.329	WT901BLE68-01(48591DE3C19B)	-0.475	-0.570	0.421	-19.226	78.369	-102.051	-80.66	19.67	-29.95	-47.138	-27.244	86.730	-0.78381	0.54367	-0.29984	-0.00653	28.7	13111	100
2025-3-27 20:14:59.329	WT901BLE68-01(48591DE3C19B)	-0.475	-0.506	0.224	-29.785	-26.611	-83.740	-81.00	18.81	-30.33	-47.138	-27.244	86.730	-0.78381	0.54367	-0.29984	-0.00653	28.7	13111	100
2025-3-27 20:14:59.329	WT901BLE68-01(48591DE3C19B)	-0.644	-0.506	0.224	-29.785	-26.611	-83.740	-81.21	17.98	-30.15	-47.138	-27.244	86.730	-0.78381	0.54367	-0.29984	-0.00653	28.7	13111	100
2025-3-27 20:14:59.387	WT901BLE68-01(48591DE3C19B)	-0.644	-0.480	0.168	-39.429	-128.906	-57.434	-81.29	17.22	-29.40	-47.138	-27.244	86.730	-0.78381	0.54367	-0.29984	-0.00653	28.7	13111	100
2025-3-27 20:14:59.387	WT901BLE68-01(48591DE3C19B)	-0.619	-0.480	0.168	-39.429	-128.906	-57.434	-81.28	16.52	-28.11	-55.174	-23.716	87.808	-0.78381	0.54367	-0.29984	-0.00653	28.7	13111	100
2025-3-27 20:14:59.387	WT901BLE68-01(48591DE3C19B)	-0.619	-0.354	0.135	-43.152	-161.438	-26.489	-81.25	15.97	-26.64	-55.174	-23.716	87.808	-0.78381	0.54367	-0.29984	-0.00653	28.7	13111	100
2025-3-27 20:14:59.387	WT901BLE68-01(48591DE3C19B)	-0.321	-0.354	0.135	-43.152	-161.438	-26.489	-81.20	15.56	-24.97	-55.174	-23.716	87.808	-0.78381	0.54367	-0.29984	-0.00653	28.7	13111	100
2025-3-27 20:14:59.416	WT901BLE68-01(48591DE3C19B)	-0.321	-0.206	0.150	-46.082	-120.850	9.033	-81.22	15.37	-23.48	-55.174	-23.716	87.808	-0.78381	0.54367	-0.29984	-0.00653	28.7	13111	100
2025-3-27 20:14:59.416	WT901BLE68-01(48591DE3C19B)	-0.086	-0.206	0.150	-46.082	-120.850	9.033	-81.30	15.39	-22.18	-55.174	-23.716	87.808	-0.78381	0.54367	-0.29984	-0.00653	28.7	13111	100
2025-3-27 20:14:59.416	WT901BLE68-01(48591DE3C19B)	-0.086	-0.245	0.220	-42.908	-51.697	31.433	-81.45	15.58	-21.21	-55.174	-23.716	87.808	-0.78381	0.54367	-0.29984	-0.00653	28.7	13111	100
2025-3-27 20:14:59.416	WT901BLE68-01(48591DE3C19B)	-0.210	-0.245	0.220	-42.908	-51.697	31.433	-81.66	15.93	-20.58	-55.174	-23.716	87.808	-0.78381	0.54367	-0.29984	-0.00653	28.7	13111	100
2025-3-27 20:14:59.476	WT901BLE68-01(48591DE3C19B)	-0.210	-0.393	0.365	-30.945	2.380	39.551	-81.88	16.35	-20.24	-55.174	-23.716	87.808	-0.78381	0.54367	-0.29984	-0.00653	28.7	13111	100
2025-3-27 20:14:59.476	WT901BLE68-01(48591DE3C19B)	-0.459	-0.393	0.365	-30.945	2.380	39.551	-82.10	16.85	-20.16	-55.174	-23.716	87.808	-0.78381	0.54367	-0.29984	-0.00653	28.7	13111	100
2025-3-27 20:14:59.477	WT901BLE68-01(48591DE3C19B)	-0.459	-0.574	0.418	-26.611	12.085	36.987	-82.30	17.33	-20.13	-55.174	-23.716	87.808	-0.78381	0.54367	-0.29984	-0.00653	28.7	13111	100
2025-3-27 20:14:59.477	WT901BLE68-01(48591DE3C19B)	-0.607	-0.574	0.418	-26.611	12.085	36.987	-82.49	17.80	-20.16	-55.174	-23.716	87.808	-0.78381	0.54367	-0.29984	-0.00653	28.7	13111	100
2025-3-27 20:14:59.508	WT901BLE68-01(48591DE3C19B)	-0.607	-0.918	0.389	-28.625	2.014	23.987	-82.67	18.21	-20.14	-55.174	-23.716	87.808	-0.78381	0.54367	-0.29984	-0.00653	28.7	13111	100
2025-3-27 20:14:59.508	WT901BLE68-01(48591DE3C19B)	-0.805	-0.918	0.389	-28.625	2.014	23.987	-82.85	18.54	-20.08	-55.174	-23.716	87.808	-0.78381	0.54367	-0.29984	-0.00653	28.7	13111	100
2025-3-27 20:14:59.509	WT901BLE68-01(48591DE3C19B)	-0.805	-1.702	0.337	-28.870	-7.202	2.686	-83.02	18.75	-19.99	-55.174	-23.716	87.808	-0.78381	0.54367	-0.29984	-0.00653	28.7	13111	100
2025-3-27 20:14:59.509	WT901BLE68-01(48591DE3C19B)	-0.792	-1.702	0.337	-28.870	-7.202	2.686	-83.20	18.84	-19.87	-55.174	-23.716	87.808	-0.78381	0.54367	-0.29984	-0.00653	28.7	13111	100
2025-3-27 20:14:59.570	WT901BLE68-01(48591DE3C19B)	-0.792	-2.525	0.061	-10.864	-6.470	-21.484	-83.31	18.80	-19.79	-55.174	-23.716	87.808	-0.78381	0.54367	-0.29984	-0.00653	28.7	13111	100
2025-3-27 20:14:59.570	WT901BLE68-01(48591DE3C19B)	-0.783	-2.525	0.061	-10.864	-6.470	-21.484	-83.35	18.63	-19.74	-55.174	-23.716	87.808	-0.78381	0.54367	-0.29984	-0.00653	28.7	13111	100
2025-3-27 20:14:59.570	WT901BLE68-01(48591DE3C19B)	-0.783	-2.171	-0.037	48.218	0.244	-18.433	-83.13	18.47	-19.73	-55.174	-23.716	87.808	-0.74710	0.62311	-0.23007	0.02258	28.7	13111	100
2025-3-27 20:14:59.570	WT901BLE68-01(48591DE3C19B)	-0.590	-2.171	-0.037	48.218	0.244	-18.433	-82.64	18.33	-19.75	-55.174	-23.716	87.808	-0.74710	0.62311	-0.23007	0.02258	28.7	13111	100
2025-3-27 20:14:59.597	WT901BLE68-01(48591DE3C19B)	-0.590	-1.383	-0.055	38.391	1.099	-11.047	-82.21	18.22	-19.79	-55.174	-23.716	87.808	-0.74710	0.62311	-0.23007	0.02258	28.7	13111	100
2025-3-27 20:14:59.597	WT901BLE68-01(48591DE3C19B)	-0.291	-1.383	-0.055	38.391	1.099	-11.047	-81.84	18.14	-19.82	-55.174	-23.716	87.808	-0.74710	0.62311	-0.23007	0.02258	28.7	13111	100
2025-3-27 20:14:59.597	WT901BLE68-01(48591DE3C19B)	-0.291	-1.082	0.046	29.602	7.446	6.897	-81.52	18.16	-19.87	-55.174	-23.716	87.808	-0.74710	0.62311	-0.23007	0.02258	28.7	13111	100
2025-3-27 20:14:59.598	WT901BLE68-01(48591DE3C19B)	0.063	-1.082	0.046	29.602	7.446	6.897	-81.26	18.26	-19.95	-55.174	-23.716	87.808	-0.74710	0.62311	-0.23007	0.02258	28.7	13111	100
2025-3-27 20:14:59.626	WT901BLE68-01(48591DE3C19B)	0.063	-0.658	0.207	28.320	2.930	28.076	-81.00	18.47	-19.99	-55.174	-23.716	87.808	-0.74710	0.62311	-0.23007	0.02258	28.7	13111	100
2025-3-27 20:14:59.626	WT901BLE68-01(48591DE3C19B)	0.109	-0.658	0.207	28.320	2.930	28.076	-80.72	18.76	-19.99	-55.174	-23.716	87.808	-0.74710	0.62311	-0.23007	0.02258	28.7	13111	100
2025-3-27 20:14:59.626	WT901BLE68-01(48591DE3C19B)	0.109	-0.335	0.314	18.677	-5.005	28.870	-80.47	19.04	-19.95	-55.174	-23.716	87.808	-0.74710	0.62311	-0.23007	0.02258	28.7	13111	100
2025-3-27 20:14:59.626	WT901BLE68-01(48591DE3C19B)	-0.029	-0.335	0.314	18.677	-5.005	28.870	-80.26	19.32	-19.87	-55.174	-23.716	87.808	-0.74710	0.62311	-0.23007	0.02258	28.7	13111	100
2025-3-27 20:14:59.656	WT901BLE68-01(48591DE3C19B)	-0.029	-0.283	0.329	11.047	-26.062	25.757	-80.04	19.55	-19.69	-55.174	-23.716	87.808	-0.74710	0.62311	-0.23007	0.02258	28.7	13111	100
2025-3-27 20:14:59.656	WT901BLE68-01(48591DE3C19B)	0.001	-0.283	0.329	11.047	-26.062	25.757	-79.81	19.74	-19.40	-55.174	-23.716	87.808	-0.74710	0.62311	-0.23007	0.02258	28.7	13111	100
2025-3-27 20:14:59.657	WT901BLE68-01(48591DE3C19B)	0.001	-0.233	0.215	14.282	-20.508	32.288	-79.56	19.96	-19.14	-55.174	-23.716	87.808	-0.74710	0.62311	-0.23007	0.02258	28.7	13111	100
2025-3-27 20:14:59.657	WT901BLE68-01(48591DE3C19B)	0.057	-0.233	0.215	14.282	-20.508	32.288	-79.30	20.21	-18.90	-55.174	-23.716	87.808	-0.74710	0.62311	-0.23007	0.02258	28.7	13111	100
2025-3-27 20:14:59.719	WT901BLE68-01(48591DE3C19B)	0.057	-0.065	0.078	24.719	19.470	38.940	-79.05	20.53	-18.86	-55.174	-23.716	87.808	-0.74710	0.62311	-0.23007	0.02258	28.7	13111	100
2025-3-27 20:14:59.719	WT901BLE68-01(48591DE3C19B)	-0.030	-0.065	0.078	24.719	19.470	38.940	-78.82	20.92	-19.03	-55.174	-23.716	87.808	-0.74710	0.62311	-0.23007	0.02258	28.7	13111	100
2025-3-27 20:14:59.719	WT901BLE68-01(48591DE3C19B)	-0.030	-0.040	-0.018	17.212	47.974	45.532	-78.77	21.42	-19.48	-55.174	-23.716	87.808	-0.74710	0.62311	-0.23007	0.02258	28.7	13111	100
2025-3-27 20:14:59.719	WT901BLE68-01(48591DE3C19B)	-0.191	-0.040	-0.018	17.212	47.974	45.532	-78.73	21.91	-19.93	-55.174	-23.716	87.808	-0.74710	0.62311	-0.23007	0.02258	28.7	13111	100
2025-3-27 20:14:59.748	WT901BLE68-01(48591DE3C19B)	-0.191	-0.369	-0.037	-0.427	48.157	45.654	-78.87	22.42	-20.37	-55.174	-23.716	87.808	-0.74710	0.62311	-0.23007	0.02258	28.7	13111	100
2025-3-27 20:14:59.748	WT901BLE68-01(48591DE3C19B)	-0.375	-0.369	-0.037	-0.427	48.157	45.654	-79.02	22.92	-20.82	-55.174	-23.716	87.808	-0.74710	0.62311	-0.23007	0.02258	28.7	13111	100
2025-3-27 20:14:59.748	WT901BLE68-01(48591DE3C19B)	-0.375	-0.818	0.025	-9.888	22.400	43.457	-79.18	23.36	-21.00	-55.174	-23.716	87.808	-0.74710	0.62311	-0.23007	0.02258	28.7	13111	100
2025-3-27 20:14:59.749	WT901BLE68-01(48591DE3C19B)	-0.535	-0.818	0.025	-9.888	22.400	43.457	-79.34	23.80	-21.17	-52.920	-22.540	87.612	-0.74710	0.62311	-0.23007	0.02258	28.7	13111	100
2025-3-27 20:14:59.778	WT901BLE68-01(48591DE3C19B)	-0.535	-1.293	0.060	-21.790	-22.827	33.752	-79.44	24.06	-20.88	-52.920	-22.540	87.612	-0.74710	0.62311	-0.23007	0.02258	28.7	13111	100
2025-3-27 20:14:59.778	WT901BLE68-01(48591DE3C19B)	-0.550	-1.293	0.060	-21.790	-22.827	33.752	-79.55	24.32	-20.59	-52.920	-22.540	87.612	-0.74710	0.62311	-0.23007	0.02258	28.7	13111	100
2025-3-27 20:14:59.778	WT901BLE68-01(48591DE3C19B)	-0.550	-2.207	0.030	-42.053	-71.106	5.554	-79.68	24.22	-19.84	-52.920	-22.540	87.612	-0.74710	0.62311	-0.23007	0.02258	28.7	13111	100
2025-3-27 20:14:59.778	WT901BLE68-01(48591DE3C19B)	-0.414	-2.207	0.030	-42.053	-71.106	5.554	-79.82	24.11	-19.11	-52.920	-22.540	87.612	-0.74710	0.62311	-0.23007	0.02258	28.7	13111	100
2025-3-27 20:14:59.837	WT901BLE68-01(48591DE3C19B)	-0.414	-3.108	-0.114	-10.193	-82.825	-17.273	-79.62	23.75	-18.30	-52.920	-22.540	87.612	-0.74710	0.62311	-0.23007	0.02258	28.7	13111	100
2025-3-27 20:14:59.837	WT901BLE68-01(48591DE3C19B)	-0.530	-3.108	-0.114	-10.193	-82.825	-17.273	-79.43	23.37	-17.51	-52.920	-22.540	87.612	-0.74710	0.62311	-0.23007	0.02258	28.7	13111	100
2025-3-27 20:14:59.837	WT901BLE68-01(48591DE3C19B)	-0.530	-2.062	0.184	36.438	-75.378	-45.593	-78.85	22.74	-16.86	-52.920	-22.540	87.612	-0.74710	0.62311	-0.23007	0.02258	28.7	13111	100
2025-3-27 20:14:59.837	WT901BLE68-01(48591DE3C19B)	-0.447	-2.062	0.184	36.438	-75.378	-45.593	-78.28	22.09	-16.23	-52.920	-22.540	87.612	-0.74710	0.62311	-0.23007	0.02258	28.7	13111	100
2025-3-27 20:14:59.869	WT901BLE68-01(48591DE3C19B)	-0.447	-1.432	0.366	5.432	-73.486	-48.706	-78.03	21.42	-15.63	-52.920	-22.540	87.612	-0.74710	0.62311	-0.23007	0.02258	28.7	13111	100
2025-3-27 20:14:59.870	WT901BLE68-01(48591DE3C19B)	-0.243	-1.432	0.366	5.432	-73.486	-48.706	-77.79	20.76	-15.04	-52.920	-22.540	87.612	-0.74710	0.62311	-0.23007	0.02258	28.7	13111	100
2025-3-27 20:14:59.870	WT901BLE68-01(48591DE3C19B)	-0.243	-0.996	0.545	2.747	-28.137	-36.621	-77.73	20.31	-14.90	-52.920	-22.540	87.612	-0.74710	0.62311	-0.23007	0.02258	28.7	13111	100
2025-3-27 20:14:59.870	WT901BLE68-01(48591DE3C19B)	-0.200	-0.996	0.545	2.747	-28.137	-36.621	-77.66	19.86	-14.75	-52.920	-22.540	87.612	-0.74710	0.62311	-0.23007	0.02258	28.7	13111	100
2025-3-27 20:14:59.897	WT901BLE68-01(48591DE3C19B)	-0.200	-0.687	0.567	0.488	28.137	-15.808	-77.78	19.73	-15.14	-52.920	-22.540	87.612	-0.74710	0.62311	-0.23007	0.02258	28.7	13111	100
2025-3-27 20:14:59.897	WT901BLE68-01(48591DE3C19B)	-0.165	-0.687	0.567	0.488	28.137	-15.808	-77.90	19.61	-15.53	-52.920	-22.540	87.612	-0.74710	0.62311	-0.23007	0.02258	28.7	13111	100
2025-3-27 20:14:59.897	WT901BLE68-01(48591DE3C19B)	-0.165	-0.433	0.511	-7.080	46.692	-5.981	-78.13	19.61	-16.09	-52.920	-22.540	87.612	-0.74710	0.62311	-0.23007	0.02258	28.7	13111	100
2025-3-27 20:14:59.897	WT901BLE68-01(48591DE3C19B)	-0.144	-0.433	0.511	-7.080	46.692	-5.981	-78.35	19.62	-16.64	-52.920	-22.540	87.612	-0.74710	0.62311	-0.23007	0.02258	28.7	13111	100
2025-3-27 20:14:59.956	WT901BLE68-01(48591DE3C19B)	-0.144	-0.254	0.351	-19.348	17.822	-2.258	-78.57	19.59	-16.88	-52.920	-22.540	87.612	-0.74710	0.62311	-0.23007	0.02258	28.7	13111	100
2025-3-27 20:14:59.957	WT901BLE68-01(48591DE3C19B)	-0.148	-0.254	0.351	-19.348	17.822	-2.258	-78.79	19.58	-17.12	-52.920	-22.540	87.612	-0.74710	0.62311	-0.23007	0.02258	28.7	13111	100
2025-3-27 20:14:59.957	WT901BLE68-01(48591DE3C19B)	-0.148	-0.192	0.145	-26.550	-18.555	1.831	-78.94	19.53	-16.96	-52.920	-22.540	87.612	-0.74710	0.62311	-0.23007	0.02258	28.7	13111	100
2025-3-27 20:14:59.957	WT901BLE68-01(48591DE3C19B)	-0.234	-0.192	0.145	-26.550	-18.555	1.831	-79.09	19.49	-16.81	-52.920	-22.540	87.612	-0.74710	0.62311	-0.23007	0.02258	28.7	13111	100
2025-3-27 20:14:59.986	WT901BLE68-01(48591DE3C19B)	-0.234	-0.151	0.017	-21.667	-23.254	13.855	-79.17	19.57	-16.58	-52.920	-22.540	87.612	-0.76691	0.60287	-0.21979	0.00131	28.7	13111	100
2025-3-27 20:14:59.986	WT901BLE68-01(48591DE3C19B)	-0.273	-0.151	0.017	-21.667	-23.254	13.855	-79.24	19.64	-16.35	-52.920	-22.540	87.612	-0.76691	0.60287	-0.21979	0.00131	28.7	13111	100
2025-3-27 20:14:59.987	WT901BLE68-01(48591DE3C19B)	-0.273	-0.125	0.057	-14.648	-20.752	17.944	-79.26	19.78	-16.13	-52.920	-22.540	87.612	-0.76691	0.60287	-0.21979	0.00131	28.7	13111	100
2025-3-27 20:14:59.987	WT901BLE68-01(48591DE3C19B)	-0.291	-0.125	0.057	-14.648	-20.752	17.944	-79.27	19.93	-15.90	-52.920	-22.540	87.612	-0.76691	0.60287	-0.21979	0.00131	28.7	13111	100
2025-3-27 20:15:0.17	WT901BLE68-01(48591DE3C19B)	-0.291	-0.217	0.188	-12.268	-36.804	17.151	-79.19	20.04	-15.51	-52.920	-22.540	87.612	-0.76691	0.60287	-0.21979	0.00131	28.7	13111	100
2025-3-27 20:15:0.17	WT901BLE68-01(48591DE3C19B)	-0.327	-0.217	0.188	-12.268	-36.804	17.151	-79.11	20.17	-15.10	-52.920	-22.540	87.612	-0.76691	0.60287	-0.21979	0.00131	28.7	13111	100
2025-3-27 20:15:0.17	WT901BLE68-01(48591DE3C19B)	-0.327	-0.437	0.319	-3.418	-48.035	15.747	-78.89	20.26	-14.58	-52.920	-22.540	87.612	-0.76691	0.60287	-0.21979	0.00131	28.7	13111	100
2025-3-27 20:15:0.17	WT901BLE68-01(48591DE3C19B)	-0.338	-0.437	0.319	-3.418	-48.035	15.747	-78.66	20.36	-14.05	-52.920	-22.540	87.612	-0.76691	0.60287	-0.21979	0.00131	28.7	13111	100
2025-3-27 20:15:0.77	WT901BLE68-01(48591DE3C19B)	-0.338	-0.728	0.308	-4.639	-46.143	10.681	-78.46	20.40	-13.56	-52.920	-22.540	87.612	-0.76691	0.60287	-0.21979	0.00131	28.7	13111	100
2025-3-27 20:15:0.77	WT901BLE68-01(48591DE3C19B)	-0.372	-0.728	0.308	-4.639	-46.143	10.681	-78.26	20.45	-13.07	-52.920	-22.540	87.612	-0.76691	0.60287	-0.21979	0.00131	28.7	13111	100
2025-3-27 20:15:0.77	WT901BLE68-01(48591DE3C19B)	-0.372	-1.329	0.289	-13.428	-31.372	-11.536	-78.23	20.29	-12.79	-52.920	-22.540	87.612	-0.76691	0.60287	-0.21979	0.00131	28.7	13111	100
2025-3-27 20:15:0.77	WT901BLE68-01(48591DE3C19B)	-0.454	-1.329	0.289	-13.428	-31.372	-11.536	-78.21	20.12	-12.52	-52.920	-22.540	87.612	-0.76691	0.60287	-0.21979	0.00131	28.7	13111	100
2025-3-27 20:15:0.107	WT901BLE68-01(48591DE3C19B)	-0.454	-2.280	0.143	-4.211	14.526	-42.969	-78.30	19.73	-12.81	-52.920	-22.540	87.612	-0.76691	0.60287	-0.21979	0.00131	28.7	13111	100
2025-3-27 20:15:0.107	WT901BLE68-01(48591DE3C19B)	-0.581	-2.280	0.143	-4.211	14.526	-42.969	-78.41	19.34	-13.11	-52.920	-22.540	87.612	-0.76691	0.60287	-0.21979	0.00131	28.7	13111	100
2025-3-27 20:15:0.107	WT901BLE68-01(48591DE3C19B)	-0.581	-2.444	0.082	52.124	59.326	-23.193	-78.11	19.22	-13.83	-52.920	-22.540	87.612	-0.76691	0.60287	-0.21979	0.00131	28.7	13111	100
2025-3-27 20:15:0.107	WT901BLE68-01(48591DE3C19B)	-0.512	-2.444	0.082	52.124	59.326	-23.193	-77.83	19.10	-14.55	-52.920	-22.540	87.612	-0.76691	0.60287	-0.21979	0.00131	28.7	13111	100
2025-3-27 20:15:0.139	WT901BLE68-01(48591DE3C19B)	-0.512	-1.502	0.108	63.599	81.970	-18.372	-77.51	19.08	-15.49	-52.920	-22.540	87.612	-0.76691	0.60287	-0.21979	0.00131	28.7	13111	100
2025-3-27 20:15:0.139	WT901BLE68-01(48591DE3C19B)	-0.303	-1.502	0.108	63.599	81.970	-18.372	-77.19	19.07	-16.42	-52.920	-22.540	87.612	-0.76691	0.60287	-0.21979	0.00131	28.7	13111	100
2025-3-27 20:15:0.139	WT901BLE68-01(48591DE3C19B)	-0.244	-1.188	0.161	48.462	99.243	0.244	-77.07	19.28	-17.48	-52.920	-22.540	87.612	-0.76691	0.60287	-0.21979	0.00131	28.7	13111	100
2025-3-27 20:15:0.139	WT901BLE68-01(48591DE3C19B)	-0.244	-0.925	0.234	45.593	110.718	18.616	-76.99	19.59	-18.59	-52.920	-22.540	87.612	-0.76691	0.60287	-0.21979	0.00131	28.7	13111	100
2025-3-27 20:15:0.197	WT901BLE68-01(48591DE3C19B)	-0.249	-0.925	0.234	45.593	110.718	18.616	-76.93	20.01	-19.73	-52.920	-22.540	87.612	-0.76691	0.60287	-0.21979	0.00131	28.7	13111	100
2025-3-27 20:15:0.198	WT901BLE68-01(48591DE3C19B)	-0.249	-0.665	0.286	36.682	91.980	28.870	-76.89	20.44	-20.75	-51.058	-19.698	87.514	-0.76691	0.60287	-0.21979	0.00131	28.7	13111	100
2025-3-27 20:15:0.198	WT901BLE68-01(48591DE3C19B)	-0.218	-0.665	0.286	36.682	91.980	28.870	-76.85	20.91	-21.66	-51.058	-19.698	87.514	-0.76691	0.60287	-0.21979	0.00131	28.7	13111	100
2025-3-27 20:15:0.198	WT901BLE68-01(48591DE3C19B)	-0.218	-0.492	0.275	28.137	60.425	32.410	-76.81	21.35	-22.41	-51.058	-19.698	87.514	-0.76691	0.60287	-0.21979	0.00131	28.7	13111	100
2025-3-27 20:15:0.226	WT901BLE68-01(48591DE3C19B)	-0.162	-0.492	0.275	28.137	60.425	32.410	-76.74	21.78	-22.98	-51.058	-19.698	87.514	-0.76691	0.60287	-0.21979	0.00131	28.7	13111	100
2025-3-27 20:15:0.226	WT901BLE68-01(48591DE3C19B)	-0.162	-0.339	0.162	26.672	51.392	43.823	-76.65	22.25	-23.48	-51.058	-19.698	87.514	-0.76691	0.60287	-0.21979	0.00131	28.7	13111	100
2025-3-27 20:15:0.226	WT901BLE68-01(48591DE3C19B)	-0.183	-0.339	0.162	26.672	51.392	43.823	-76.56	22.76	-23.93	-51.058	-19.698	87.514	-0.76691	0.60287	-0.21979	0.00131	28.7	13111	100
2025-3-27 20:15:0.226	WT901BLE68-01(48591DE3C19B)	-0.183	-0.183	0.055	29.907	56.152	58.899	-76.44	23.36	-24.38	-51.058	-19.698	87.514	-0.76691	0.60287	-0.21979	0.00131	28.7	13111	100
2025-3-27 20:15:0.256	WT901BLE68-01(48591DE3C19B)	-0.288	-0.183	0.055	29.907	56.152	58.899	-76.33	24.03	-24.83	-51.058	-19.698	87.514	-0.76691	0.60287	-0.21979	0.00131	28.7	13111	100
2025-3-27 20:15:0.256	WT901BLE68-01(48591DE3C19B)	-0.288	-0.163	-0.007	19.470	43.274	73.486	-76.23	24.76	-25.20	-51.058	-19.698	87.514	-0.76691	0.60287	-0.21979	0.00131	28.7	13111	100
2025-3-27 20:15:0.256	WT901BLE68-01(48591DE3C19B)	-0.307	-0.163	-0.007	19.470	43.274	73.486	-76.15	25.55	-25.47	-51.058	-19.698	87.514	-0.76691	0.60287	-0.21979	0.00131	28.7	13111	100
2025-3-27 20:15:0.256	WT901BLE68-01(48591DE3C19B)	-0.307	-0.345	-0.001	6.165	21.301	80.933	-76.09	26.36	-25.60	-51.058	-19.698	87.514	-0.76691	0.60287	-0.21979	0.00131	28.7	13111	100
2025-3-27 20:15:0.318	WT901BLE68-01(48591DE3C19B)	-0.321	-0.345	-0.001	6.165	21.301	80.933	-76.05	27.18	-25.61	-51.058	-19.698	87.514	-0.76691	0.60287	-0.21979	0.00131	28.7	13111	100
2025-3-27 20:15:0.318	WT901BLE68-01(48591DE3C19B)	-0.321	-0.581	0.052	-0.061	12.207	77.515	-76.02	27.97	-25.57	-51.058	-19.698	87.514	-0.76691	0.60287	-0.21979	0.00131	28.7	13111	100
2025-3-27 20:15:0.318	WT901BLE68-01(48591DE3C19B)	-0.415	-0.581	0.052	-0.061	12.207	77.515	-76.00	28.73	-25.48	-51.058	-19.698	87.514	-0.76691	0.60287	-0.21979	0.00131	28.7	13111	100
2025-3-27 20:15:0.318	WT901BLE68-01(48591DE3C19B)	-0.415	-0.845	0.123	-5.493	11.230	62.012	-76.02	29.42	-25.41	-51.058	-19.698	87.514	-0.76691	0.60287	-0.21979	0.00131	28.7	13111	100
2025-3-27 20:15:0.347	WT901BLE68-01(48591DE3C19B)	-0.565	-0.845	0.123	-5.493	11.230	62.012	-76.07	30.03	-25.35	-51.058	-19.698	87.514	-0.76691	0.60287	-0.21979	0.00131	28.7	13111	100
2025-3-27 20:15:0.347	WT901BLE68-01(48591DE3C19B)	-0.565	-1.418	0.198	-11.475	7.141	19.958	-76.18	30.42	-25.33	-51.058	-19.698	87.514	-0.76691	0.60287	-0.21979	0.00131	28.7	13111	100
2025-3-27 20:15:0.347	WT901BLE68-01(48591DE3C19B)	-0.516	-1.418	0.198	-11.475	7.141	19.958	-76.34	30.59	-25.36	-51.058	-19.698	87.514	-0.76691	0.60287	-0.21979	0.00131	28.7	13111	100
2025-3-27 20:15:0.347	WT901BLE68-01(48591DE3C19B)	-0.516	-2.087	0.162	6.775	40.039	-38.086	-76.54	30.51	-25.65	-51.058	-19.698	87.514	-0.77469	0.53671	-0.33411	0.00919	28.7	13111	100
2025-3-27 20:15:0.378	WT901BLE68-01(48591DE3C19B)	-0.687	-2.087	0.162	6.775	40.039	-38.086	-76.78	30.18	-26.21	-51.058	-19.698	87.514	-0.77469	0.53671	-0.33411	0.00919	28.7	13111	100
2025-3-27 20:15:0.378	WT901BLE68-01(48591DE3C19B)	-0.687	-2.022	0.215	45.166	102.600	-66.650	-77.03	29.78	-27.15	-51.058	-19.698	87.514	-0.77469	0.53671	-0.33411	0.00919	28.7	13111	100
2025-3-27 20:15:0.378	WT901BLE68-01(48591DE3C19B)	-1.000	-2.022	0.215	45.166	102.600	-66.650	-77.26	29.31	-28.48	-51.058	-19.698	87.514	-0.77469	0.53671	-0.33411	0.00919	28.7	13111	100
2025-3-27 20:15:0.378	WT901BLE68-01(48591DE3C19B)	-1.000	-1.281	0.287	53.162	163.086	-81.848	-77.61	28.82	-30.14	-51.058	-19.698	87.514	-0.77469	0.53671	-0.33411	0.00919	28.7	13111	100
2025-3-27 20:15:0.436	WT901BLE68-01(48591DE3C19B)	-0.894	-1.281	0.287	53.162	163.086	-81.848	-78.07	28.33	-32.13	-51.058	-19.698	87.514	-0.77469	0.53671	-0.33411	0.00919	28.7	13111	100
2025-3-27 20:15:0.436	WT901BLE68-01(48591DE3C19B)	-0.894	-0.868	0.403	41.504	189.087	-58.228	-78.61	27.98	-34.21	-51.058	-19.698	87.514	-0.77469	0.53671	-0.33411	0.00919	28.7	13111	100
2025-3-27 20:15:0.437	WT901BLE68-01(48591DE3C19B)	-0.688	-0.868	0.403	41.504	189.087	-58.228	-79.24	27.76	-36.38	-51.058	-19.698	87.514	-0.77469	0.53671	-0.33411	0.00919	28.7	13111	100
2025-3-27 20:15:0.437	WT901BLE68-01(48591DE3C19B)	-0.688	-0.718	0.346	23.865	166.687	-38.025	-79.88	27.60	-38.39	-51.058	-19.698	87.514	-0.77469	0.53671	-0.33411	0.00919	28.7	13111	100
2025-3-27 20:15:0.470	WT901BLE68-01(48591DE3C19B)	-0.614	-0.718	0.346	23.865	166.687	-38.025	-80.52	27.53	-40.24	-51.058	-19.698	87.514	-0.77469	0.53671	-0.33411	0.00919	28.7	13111	100
2025-3-27 20:15:0.470	WT901BLE68-01(48591DE3C19B)	-0.614	-0.640	0.229	8.057	85.754	-17.944	-81.01	27.47	-41.61	-51.058	-19.698	87.514	-0.77469	0.53671	-0.33411	0.00919	28.7	13111	100
2025-3-27 20:15:0.470	WT901BLE68-01(48591DE3C19B)	-0.695	-0.640	0.229	8.057	85.754	-17.944	-81.36	27.44	-42.50	-51.058	-19.698	87.514	-0.77469	0.53671	-0.33411	0.00919	28.7	13111	100
2025-3-27 20:15:0.470	WT901BLE68-01(48591DE3C19B)	-0.695	-0.608	0.123	-22.644	-43.518	-5.432	-81.52	27.39	-42.65	-51.058	-19.698	87.514	-0.77469	0.53671	-0.33411	0.00919	28.7	13111	100
2025-3-27 20:15:0.529	WT901BLE68-01(48591DE3C19B)	-0.533	-0.608	0.123	-22.644	-43.518	-5.432	-81.51	27.31	-42.08	-51.058	-19.698	87.514	-0.77469	0.53671	-0.33411	0.00919	28.7	13111	100
2025-3-27 20:15:0.529	WT901BLE68-01(48591DE3C19B)	-0.533	-0.558	0.122	-39.429	-141.235	11.475	-81.33	27.25	-40.96	-51.058	-19.698	87.514	-0.77469	0.53671	-0.33411	0.00919	28.7	13111	100
2025-3-27 20:15:0.529	WT901BLE68-01(48591DE3C19B)	-0.369	-0.558	0.122	-39.429	-141.235	11.475	-80.98	27.19	-39.28	-51.058	-19.698	87.514	-0.77469	0.53671	-0.33411	0.00919	28.7	13111	100
2025-3-27 20:15:0.529	WT901BLE68-01(48591DE3C19B)	-0.369	-0.343	0.165	-33.020	-155.823	17.944	-80.56	27.15	-37.53	-51.058	-19.698	87.514	-0.77469	0.53671	-0.33411	0.00919	28.7	13111	100
2025-3-27 20:15:0.559	WT901BLE68-01(48591DE3C19B)	-0.183	-0.343	0.165	-33.020	-155.823	17.944	-80.07	27.11	-35.69	-51.058	-19.698	87.514	-0.77469	0.53671	-0.33411	0.00919	28.7	13111	100
2025-3-27 20:15:0.559	WT901BLE68-01(48591DE3C19B)	-0.183	-0.090	0.171	-31.311	-117.554	27.710	-79.67	27.16	-34.06	-51.058	-19.698	87.514	-0.77469	0.53671	-0.33411	0.00919	28.7	13111	100
2025-3-27 20:15:0.559	WT901BLE68-01(48591DE3C19B)	-0.086	-0.090	0.171	-31.311	-117.554	27.710	-79.34	27.27	-32.64	-51.058	-19.698	87.514	-0.77469	0.53671	-0.33411	0.00919	28.7	13111	100
2025-3-27 20:15:0.559	WT901BLE68-01(48591DE3C19B)	-0.086	-0.047	0.175	-34.729	-68.176	35.583	-79.14	27.47	-31.48	-51.058	-19.698	87.514	-0.77469	0.53671	-0.33411	0.00919	28.7	13111	100
2025-3-27 20:15:0.589	WT901BLE68-01(48591DE3C19B)	-0.134	-0.047	0.175	-34.729	-68.176	35.583	-79.07	27.75	-30.58	-63.308	-15.386	86.142	-0.77469	0.53671	-0.33411	0.00919	28.7	13111	100
2025-3-27 20:15:0.589	WT901BLE68-01(48591DE3C19B)	-0.134	-0.216	0.179	-36.926	-28.809	31.067	-79.10	28.05	-29.90	-63.308	-15.386	86.142	-0.77469	0.53671	-0.33411	0.00919	28.7	13111	100
2025-3-27 20:15:0.589	WT901BLE68-01(48591DE3C19B)	-0.278	-0.216	0.179	-36.926	-28.809	31.067	-79.23	28.35	-29.45	-63.308	-15.386	86.142	-0.77469	0.53671	-0.33411	0.00919	28.7	13111	100
2025-3-27 20:15:0.589	WT901BLE68-01(48591DE3C19B)	-0.278	-0.544	0.146	-39.673	-15.137	16.052	-79.42	28.59	-29.09	-63.308	-15.386	86.142	-0.77469	0.53671	-0.33411	0.00919	28.7	13111	100
2025-3-27 20:15:0.618	WT901BLE68-01(48591DE3C19B)	-0.368	-0.544	0.146	-39.673	-15.137	16.052	-79.66	28.77	-28.83	-63.308	-15.386	86.142	-0.77469	0.53671	-0.33411	0.00919	28.7	13111	100
2025-3-27 20:15:0.619	WT901BLE68-01(48591DE3C19B)	-0.368	-0.940	0.089	-43.335	-18.494	-2.930	-79.95	28.73	-28.58	-63.308	-15.386	86.142	-0.77469	0.53671	-0.33411	0.00919	28.7	13111	100
2025-3-27 20:15:0.619	WT901BLE68-01(48591DE3C19B)	-0.471	-0.940	0.089	-43.335	-18.494	-2.930	-80.25	28.70	-28.33	-63.308	-15.386	86.142	-0.77469	0.53671	-0.33411	0.00919	28.7	13111	100
2025-3-27 20:15:0.619	WT901BLE68-01(48591DE3C19B)	-0.471	-1.697	0.039	-45.349	-29.236	-29.053	-80.55	28.36	-28.03	-63.308	-15.386	86.142	-0.77469	0.53671	-0.33411	0.00919	28.7	13111	100
2025-3-27 20:15:0.738	WT901BLE68-01(48591DE3C19B)	-0.537	-1.697	0.039	-45.349	-29.236	-29.053	-80.86	28.02	-27.74	-63.308	-15.386	86.142	-0.77469	0.53671	-0.33411	0.00919	28.7	13111	100
2025-3-27 20:15:0.738	WT901BLE68-01(48591DE3C19B)	-0.537	-2.618	-0.033	-24.048	-41.870	-52.368	-80.94	27.41	-27.37	-63.308	-15.386	86.142	-0.77469	0.53671	-0.33411	0.00919	28.7	13111	100
2025-3-27 20:15:0.738	WT901BLE68-01(48591DE3C19B)	-0.605	-2.618	-0.033	-24.048	-41.870	-52.368	-81.03	26.78	-27.00	-63.308	-15.386	86.142	-0.77469	0.53671	-0.33411	0.00919	28.7	13111	100
2025-3-27 20:15:0.738	WT901BLE68-01(48591DE3C19B)	-0.605	-2.401	0.045	37.048	-50.781	-46.875	-80.47	26.20	-26.55	-63.308	-15.386	86.142	-0.77469	0.53671	-0.33411	0.00919	28.7	13111	100
2025-3-27 20:15:0.739	WT901BLE68-01(48591DE3C19B)	-0.454	-2.401	0.045	37.048	-50.781	-46.875	-79.94	25.61	-26.10	-63.308	-15.386	86.142	-0.77469	0.53671	-0.33411	0.00919	28.7	13111	100
2025-3-27 20:15:0.739	WT901BLE68-01(48591DE3C19B)	-0.454	-1.608	0.057	24.841	-39.124	-49.011	-79.58	25.02	-25.80	-63.308	-15.386	86.142	-0.77469	0.53671	-0.33411	0.00919	28.7	13111	100
2025-3-27 20:15:0.739	WT901BLE68-01(48591DE3C19B)	-0.195	-1.608	0.057	24.841	-39.124	-49.011	-79.25	24.42	-25.50	-63.308	-15.386	86.142	-0.77469	0.53671	-0.33411	0.00919	28.7	13111	100
2025-3-27 20:15:0.739	WT901BLE68-01(48591DE3C19B)	-0.195	-1.353	0.094	22.461	12.268	-36.682	-79.16	24.04	-25.73	-63.308	-15.386	86.142	-0.77469	0.53671	-0.33411	0.00919	28.7	13111	100
2025-3-27 20:15:0.740	WT901BLE68-01(48591DE3C19B)	-0.146	-1.353	0.094	22.461	12.268	-36.682	-79.06	23.66	-25.97	-63.308	-15.386	86.142	-0.77469	0.53671	-0.33411	0.00919	28.7	13111	100
2025-3-27 20:15:0.740	WT901BLE68-01(48591DE3C19B)	-0.146	-0.979	0.216	24.353	66.711	-21.667	-79.16	23.53	-26.75	-63.308	-15.386	86.142	-0.77469	0.53671	-0.33411	0.00919	28.7	13111	100
2025-3-27 20:15:0.740	WT901BLE68-01(48591DE3C19B)	-0.279	-0.979	0.216	24.353	66.711	-21.667	-79.26	23.39	-27.53	-63.308	-15.386	86.142	-0.77469	0.53671	-0.33411	0.00919	28.7	13111	100
2025-3-27 20:15:0.740	WT901BLE68-01(48591DE3C19B)	-0.279	-0.654	0.315	14.038	71.655	-10.376	-79.46	23.37	-28.33	-63.308	-15.386	86.142	-0.77469	0.53671	-0.33411	0.00919	28.7	13111	100
2025-3-27 20:15:0.797	WT901BLE68-01(48591DE3C19B)	-0.339	-0.654	0.315	14.038	71.655	-10.376	-79.66	23.35	-29.14	-63.308	-15.386	86.142	-0.77469	0.53671	-0.33411	0.00919	28.7	13111	100
2025-3-27 20:15:0.798	WT901BLE68-01(48591DE3C19B)	-0.339	-0.437	0.391	5.127	30.396	-11.353	-79.76	23.25	-29.49	-63.308	-15.386	86.142	-0.75974	0.56793	-0.30939	0.06628	28.7	13111	100
2025-3-27 20:15:0.798	WT901BLE68-01(48591DE3C19B)	-0.265	-0.437	0.391	5.127	30.396	-11.353	-79.84	23.16	-29.83	-63.308	-15.386	86.142	-0.75974	0.56793	-0.30939	0.06628	28.7	13111	100
2025-3-27 20:15:0.798	WT901BLE68-01(48591DE3C19B)	-0.265	-0.203	0.368	2.197	-0.183	-2.502	-79.81	23.11	-29.83	-63.308	-15.386	86.142	-0.75974	0.56793	-0.30939	0.06628	28.7	13111	100
2025-3-27 20:15:0.826	WT901BLE68-01(48591DE3C19B)	-0.180	-0.203	0.368	2.197	-0.183	-2.502	-79.77	23.06	-29.83	-63.308	-15.386	86.142	-0.75974	0.56793	-0.30939	0.06628	28.7	13111	100
2025-3-27 20:15:0.826	WT901BLE68-01(48591DE3C19B)	-0.180	-0.039	0.255	3.967	5.615	16.357	-79.71	23.21	-29.84	-63.308	-15.386	86.142	-0.75974	0.56793	-0.30939	0.06628	28.7	13111	100
2025-3-27 20:15:0.826	WT901BLE68-01(48591DE3C19B)	-0.229	-0.039	0.255	3.967	5.615	16.357	-79.64	23.37	-29.86	-63.308	-15.386	86.142	-0.75974	0.56793	-0.30939	0.06628	28.7	13111	100
2025-3-27 20:15:0.826	WT901BLE68-01(48591DE3C19B)	-0.229	-0.019	0.138	4.944	17.822	40.588	-79.58	23.79	-29.95	-63.308	-15.386	86.142	-0.75974	0.56793	-0.30939	0.06628	28.7	13111	100
2025-3-27 20:15:0.886	WT901BLE68-01(48591DE3C19B)	-0.305	-0.019	0.138	4.944	17.822	40.588	-79.53	24.22	-30.04	-63.308	-15.386	86.142	-0.75974	0.56793	-0.30939	0.06628	28.7	13111	100
2025-3-27 20:15:0.886	WT901BLE68-01(48591DE3C19B)	-0.305	-0.158	0.095	-0.244	20.203	54.382	-79.52	24.80	-30.11	-63.308	-15.386	86.142	-0.75974	0.56793	-0.30939	0.06628	28.7	13111	100
2025-3-27 20:15:0.886	WT901BLE68-01(48591DE3C19B)	-0.360	-0.158	0.095	-0.244	20.203	54.382	-79.51	25.39	-30.18	-63.308	-15.386	86.142	-0.75974	0.56793	-0.30939	0.06628	28.7	13111	100
2025-3-27 20:15:0.886	WT901BLE68-01(48591DE3C19B)	-0.360	-0.383	0.083	-5.615	15.686	55.054	-79.54	25.98	-30.20	-63.308	-15.386	86.142	-0.75974	0.56793	-0.30939	0.06628	28.7	13111	100
2025-3-27 20:15:0.916	WT901BLE68-01(48591DE3C19B)	-0.472	-0.383	0.083	-5.615	15.686	55.054	-79.57	26.57	-30.21	-63.308	-15.386	86.142	-0.75974	0.56793	-0.30939	0.06628	28.7	13111	100
2025-3-27 20:15:0.916	WT901BLE68-01(48591DE3C19B)	-0.472	-0.646	0.108	-7.263	8.972	46.143	-79.60	27.06	-30.16	-63.308	-15.386	86.142	-0.75974	0.56793	-0.30939	0.06628	28.7	13111	100
2025-3-27 20:15:0.916	WT901BLE68-01(48591DE3C19B)	-0.605	-0.646	0.108	-7.263	8.972	46.143	-79.64	27.56	-30.11	-63.308	-15.386	86.142	-0.75974	0.56793	-0.30939	0.06628	28.7	13111	100
2025-3-27 20:15:0.916	WT901BLE68-01(48591DE3C19B)	-0.605	-0.902	0.171	-2.563	-6.226	35.889	-79.57	27.93	-29.92	-63.308	-15.386	86.142	-0.75974	0.56793	-0.30939	0.06628	28.7	13111	100
2025-3-27 20:15:0.946	WT901BLE68-01(48591DE3C19B)	-0.661	-0.902	0.171	-2.563	-6.226	35.889	-79.50	28.30	-29.72	-63.308	-15.386	86.142	-0.75974	0.56793	-0.30939	0.06628	28.7	13111	100
2025-3-27 20:15:0.946	WT901BLE68-01(48591DE3C19B)	-0.661	-1.178	0.185	-0.305	-26.855	14.893	-79.32	28.41	-29.33	-63.308	-15.386	86.142	-0.75974	0.56793	-0.30939	0.06628	28.7	13111	100
2025-3-27 20:15:0.946	WT901BLE68-01(48591DE3C19B)	-0.639	-1.178	0.185	-0.305	-26.855	14.893	-79.15	28.53	-28.96	-63.308	-15.386	86.142	-0.75974	0.56793	-0.30939	0.06628	28.7	13111	100
2025-3-27 20:15:0.946	WT901BLE68-01(48591DE3C19B)	-0.639	-1.622	0.252	5.493	-32.471	-35.522	-78.95	28.13	-28.64	-63.308	-15.386	86.142	-0.75974	0.56793	-0.30939	0.06628	28.7	13111	100
2025-3-27 20:15:1.7	WT901BLE68-01(48591DE3C19B)	-0.771	-1.622	0.252	5.493	-32.471	-35.522	-78.76	27.71	-28.32	-63.308	-15.386	86.142	-0.75974	0.56793	-0.30939	0.06628	28.7	13111	100
2025-3-27 20:15:1.7	WT901BLE68-01(48591DE3C19B)	-0.771	-1.989	0.278	19.226	-6.042	-63.232	-78.60	27.08	-28.37	-59.094	-20.090	85.652	-0.75974	0.56793	-0.30939	0.06628	28.7	13111	100
2025-3-27 20:15:1.7	WT901BLE68-01(48591DE3C19B)	-0.994	-1.989	0.278	19.226	-6.042	-63.232	-78.45	26.44	-28.43	-59.094	-20.090	85.652	-0.75974	0.56793	-0.30939	0.06628	28.7	13111	100
2025-3-27 20:15:1.7	WT901BLE68-01(48591DE3C19B)	-0.994	-1.558	0.401	39.734	30.212	-71.960	-78.27	25.80	-28.89	-59.094	-20.090	85.652	-0.75974	0.56793	-0.30939	0.06628	28.7	13111	100
2025-3-27 20:15:1.36	WT901BLE68-01(48591DE3C19B)	-0.904	-1.558	0.401	39.734	30.212	-71.960	-78.09	25.17	-29.36	-59.094	-20.090	85.652	-0.75974	0.56793	-0.30939	0.06628	28.7	13111	100
2025-3-27 20:15:1.36	WT901BLE68-01(48591DE3C19B)	-0.904	-1.143	0.482	34.180	44.800	-61.279	-78.01	24.69	-29.94	-59.094	-20.090	85.652	-0.75974	0.56793	-0.30939	0.06628	28.7	13111	100
2025-3-27 20:15:1.36	WT901BLE68-01(48591DE3C19B)	-0.675	-1.143	0.482	34.180	44.800	-61.279	-77.92	24.21	-30.52	-59.094	-20.090	85.652	-0.75974	0.56793	-0.30939	0.06628	28.7	13111	100
2025-3-27 20:15:1.36	WT901BLE68-01(48591DE3C19B)	-0.675	-0.968	0.393	21.606	42.480	-48.523	-77.92	23.86	-31.04	-59.094	-20.090	85.652	-0.75974	0.56793	-0.30939	0.06628	28.7	13111	100
2025-3-27 20:15:1.69	WT901BLE68-01(48591DE3C19B)	-0.514	-0.968	0.393	21.606	42.480	-48.523	-77.92	23.51	-31.55	-59.094	-20.090	85.652	-0.75974	0.56793	-0.30939	0.06628	28.7	13111	100
2025-3-27 20:15:1.70	WT901BLE68-01(48591DE3C19B)	-0.508	-0.824	0.282	19.043	20.020	-21.057	-77.82	23.38	-31.76	-59.094	-20.090	85.652	-0.75974	0.56793	-0.30939	0.06628	28.7	13111	100
2025-3-27 20:15:1.70	WT901BLE68-01(48591DE3C19B)	-0.508	-0.612	0.214	5.859	-30.579	-0.549	-77.67	23.31	-31.67	-59.094	-20.090	85.652	-0.75974	0.56793	-0.30939	0.06628	28.7	13111	100
2025-3-27 20:15:1.70	WT901BLE68-01(48591DE3C19B)	-0.361	-0.612	0.214	5.859	-30.579	-0.549	-77.46	23.29	-31.29	-59.094	-20.090	85.652	-0.75974	0.56793	-0.30939	0.06628	28.7	13111	100
2025-3-27 20:15:1.129	WT901BLE68-01(48591DE3C19B)	-0.361	-0.527	0.180	-13.000	-71.045	14.404	-77.27	23.29	-30.68	-59.094	-20.090	85.652	-0.75974	0.56793	-0.30939	0.06628	28.7	13111	100
2025-3-27 20:15:1.129	WT901BLE68-01(48591DE3C19B)	-0.224	-0.527	0.180	-13.000	-71.045	14.404	-77.07	23.32	-29.83	-59.094	-20.090	85.652	-0.75974	0.56793	-0.30939	0.06628	28.7	13111	100
2025-3-27 20:15:1.129	WT901BLE68-01(48591DE3C19B)	-0.224	-0.410	0.183	-7.019	-62.622	30.701	-76.85	23.43	-29.02	-59.094	-20.090	85.652	-0.75974	0.56793	-0.30939	0.06628	28.7	13111	100
2025-3-27 20:15:1.129	WT901BLE68-01(48591DE3C19B)	-0.194	-0.410	0.183	-7.019	-62.622	30.701	-76.61	23.64	-28.23	-59.094	-20.090	85.652	-0.75974	0.56793	-0.30939	0.06628	28.7	13111	100
2025-3-27 20:15:1.219	WT901BLE68-01(48591DE3C19B)	-0.194	-0.201	0.175	-4.395	-26.672	38.269	-76.42	23.91	-27.63	-59.094	-20.090	85.652	-0.75974	0.56793	-0.30939	0.06628	28.7	13111	100
2025-3-27 20:15:1.220	WT901BLE68-01(48591DE3C19B)	-0.254	-0.201	0.175	-4.395	-26.672	38.269	-76.29	24.26	-27.20	-59.094	-20.090	85.652	-0.75974	0.56793	-0.30939	0.06628	28.7	13111	100
2025-3-27 20:15:1.220	WT901BLE68-01(48591DE3C19B)	-0.254	-0.113	0.185	-8.423	1.648	46.082	-76.22	24.69	-26.91	-59.094	-20.090	85.652	-0.75974	0.56793	-0.30939	0.06628	28.7	13111	100
2025-3-27 20:15:1.220	WT901BLE68-01(48591DE3C19B)	-0.391	-0.113	0.185	-8.423	1.648	46.082	-76.23	25.18	-26.76	-59.094	-20.090	85.652	-0.77805	0.54590	-0.30743	0.04480	28.7	13111	100
2025-3-27 20:15:1.220	WT901BLE68-01(48591DE3C19B)	-0.391	-0.216	0.194	-13.489	5.981	48.096	-76.27	25.70	-26.61	-59.094	-20.090	85.652	-0.77805	0.54590	-0.30743	0.04480	28.7	13111	100
2025-3-27 20:15:1.220	WT901BLE68-01(48591DE3C19B)	-0.505	-0.216	0.194	-13.489	5.981	48.096	-76.33	26.24	-26.48	-59.094	-20.090	85.652	-0.77805	0.54590	-0.30743	0.04480	28.7	13111	100
2025-3-27 20:15:1.221	WT901BLE68-01(48591DE3C19B)	-0.505	-0.420	0.175	-17.700	-16.357	40.649	-76.37	26.72	-26.23	-59.094	-20.090	85.652	-0.77805	0.54590	-0.30743	0.04480	28.7	13111	100
2025-3-27 20:15:1.221	WT901BLE68-01(48591DE3C19B)	-0.553	-0.420	0.175	-17.700	-16.357	40.649	-76.38	27.14	-25.86	-59.094	-20.090	85.652	-0.77805	0.54590	-0.30743	0.04480	28.7	13111	100
2025-3-27 20:15:1.247	WT901BLE68-01(48591DE3C19B)	-0.553	-0.680	0.131	-23.010	-44.617	28.748	-76.34	27.48	-25.35	-59.094	-20.090	85.652	-0.77805	0.54590	-0.30743	0.04480	28.7	13111	100
2025-3-27 20:15:1.247	WT901BLE68-01(48591DE3C19B)	-0.609	-0.680	0.131	-23.010	-44.617	28.748	-76.28	27.72	-24.70	-59.094	-20.090	85.652	-0.77805	0.54590	-0.30743	0.04480	28.7	13111	100
2025-3-27 20:15:1.248	WT901BLE68-01(48591DE3C19B)	-0.609	-1.054	0.132	-26.367	-73.303	13.489	-76.17	27.85	-23.92	-59.094	-20.090	85.652	-0.77805	0.54590	-0.30743	0.04480	28.7	13111	100
2025-3-27 20:15:1.248	WT901BLE68-01(48591DE3C19B)	-0.661	-1.054	0.132	-26.367	-73.303	13.489	-76.03	27.86	-23.02	-59.094	-20.090	85.652	-0.77805	0.54590	-0.30743	0.04480	28.7	13111	100
2025-3-27 20:15:1.276	WT901BLE68-01(48591DE3C19B)	-0.661	-1.570	0.115	-21.790	-99.182	-4.883	-75.82	27.73	-22.01	-59.094	-20.090	85.652	-0.77805	0.54590	-0.30743	0.04480	28.7	13111	100
2025-3-27 20:15:1.276	WT901BLE68-01(48591DE3C19B)	-0.581	-1.570	0.115	-21.790	-99.182	-4.883	-75.55	27.48	-20.90	-59.094	-20.090	85.652	-0.77805	0.54590	-0.30743	0.04480	28.7	13111	100
2025-3-27 20:15:1.276	WT901BLE68-01(48591DE3C19B)	-0.581	-1.919	0.092	-9.399	-108.643	-8.728	-75.21	27.17	-19.77	-59.094	-20.090	85.652	-0.77805	0.54590	-0.30743	0.04480	28.7	13111	100
2025-3-27 20:15:1.276	WT901BLE68-01(48591DE3C19B)	-0.480	-1.919	0.092	-9.399	-108.643	-8.728	-74.82	26.82	-18.62	-59.094	-20.090	85.652	-0.77805	0.54590	-0.30743	0.04480	28.7	13111	100
2025-3-27 20:15:1.307	WT901BLE68-01(48591DE3C19B)	-0.480	-1.784	0.119	15.930	-79.895	-13.550	-74.38	26.46	-17.65	-59.094	-20.090	85.652	-0.77805	0.54590	-0.30743	0.04480	28.7	13111	100
2025-3-27 20:15:1.307	WT901BLE68-01(48591DE3C19B)	-0.406	-1.784	0.119	15.930	-79.895	-13.550	-73.91	26.11	-16.86	-59.094	-20.090	85.652	-0.77805	0.54590	-0.30743	0.04480	28.7	13111	100
2025-3-27 20:15:1.307	WT901BLE68-01(48591DE3C19B)	-0.406	-1.534	0.190	18.616	-31.311	-10.681	-73.55	25.82	-16.34	-59.094	-20.090	85.652	-0.77805	0.54590	-0.30743	0.04480	28.7	13111	100
2025-3-27 20:15:1.307	WT901BLE68-01(48591DE3C19B)	-0.376	-1.534	0.190	18.616	-31.311	-10.681	-73.29	25.62	-16.08	-59.094	-20.090	85.652	-0.77805	0.54590	-0.30743	0.04480	28.7	13111	100
2025-3-27 20:15:1.366	WT901BLE68-01(48591DE3C19B)	-0.376	-1.366	0.239	20.691	8.789	-1.465	-73.11	25.51	-16.02	-59.094	-20.090	85.652	-0.77805	0.54590	-0.30743	0.04480	28.7	13111	100
2025-3-27 20:15:1.366	WT901BLE68-01(48591DE3C19B)	-0.325	-1.366	0.239	20.691	8.789	-1.465	-73.00	25.49	-16.16	-59.094	-20.090	85.652	-0.77805	0.54590	-0.30743	0.04480	28.7	13111	100
2025-3-27 20:15:1.366	WT901BLE68-01(48591DE3C19B)	-0.325	-1.091	0.237	20.630	28.381	7.751	-72.94	25.55	-16.39	-59.094	-20.090	85.652	-0.77805	0.54590	-0.30743	0.04480	28.7	13111	100
2025-3-27 20:15:1.366	WT901BLE68-01(48591DE3C19B)	-0.292	-1.091	0.237	20.630	28.381	7.751	-72.91	25.68	-16.71	-59.094	-20.090	85.652	-0.77805	0.54590	-0.30743	0.04480	28.7	13111	100
2025-3-27 20:15:1.399	WT901BLE68-01(48591DE3C19B)	-0.292	-0.857	0.194	14.160	41.260	9.155	-72.93	25.83	-17.09	-49.000	-29.106	79.968	-0.77805	0.54590	-0.30743	0.04480	28.7	13111	100
2025-3-27 20:15:1.399	WT901BLE68-01(48591DE3C19B)	-0.318	-0.857	0.194	14.160	41.260	9.155	-73.02	26.00	-17.54	-49.000	-29.106	79.968	-0.77805	0.54590	-0.30743	0.04480	28.7	13111	100
2025-3-27 20:15:1.399	WT901BLE68-01(48591DE3C19B)	-0.318	-0.747	0.131	7.813	51.147	3.845	-73.17	26.16	-18.05	-49.000	-29.106	79.968	-0.77805	0.54590	-0.30743	0.04480	28.7	13111	100
2025-3-27 20:15:1.400	WT901BLE68-01(48591DE3C19B)	-0.379	-0.747	0.131	7.813	51.147	3.845	-73.37	26.31	-18.62	-49.000	-29.106	79.968	-0.77805	0.54590	-0.30743	0.04480	28.7	13111	100
2025-3-27 20:15:1.428	WT901BLE68-01(48591DE3C19B)	-0.379	-0.694	0.117	3.845	49.683	-0.366	-73.60	26.44	-19.18	-49.000	-29.106	79.968	-0.77805	0.54590	-0.30743	0.04480	28.7	13111	100
2025-3-27 20:15:1.428	WT901BLE68-01(48591DE3C19B)	-0.413	-0.694	0.117	3.845	49.683	-0.366	-73.84	26.54	-19.74	-49.000	-29.106	79.968	-0.77805	0.54590	-0.30743	0.04480	28.7	13111	100
2025-3-27 20:15:1.428	WT901BLE68-01(48591DE3C19B)	-0.413	-0.675	0.125	0.061	44.922	-8.606	-74.10	26.60	-20.28	-49.000	-29.106	79.968	-0.77805	0.54590	-0.30743	0.04480	28.7	13111	100
2025-3-27 20:15:1.428	WT901BLE68-01(48591DE3C19B)	-0.471	-0.675	0.125	0.061	44.922	-8.606	-74.37	26.61	-20.80	-49.000	-29.106	79.968	-0.77805	0.54590	-0.30743	0.04480	28.7	13111	100
2025-3-27 20:15:1.487	WT901BLE68-01(48591DE3C19B)	-0.471	-0.604	0.143	1.099	37.048	-13.977	-74.61	26.59	-21.29	-49.000	-29.106	79.968	-0.77805	0.54590	-0.30743	0.04480	28.7	13111	100
2025-3-27 20:15:1.487	WT901BLE68-01(48591DE3C19B)	-0.534	-0.604	0.143	1.099	37.048	-13.977	-74.83	26.54	-21.73	-49.000	-29.106	79.968	-0.77805	0.54590	-0.30743	0.04480	28.7	13111	100
2025-3-27 20:15:1.487	WT901BLE68-01(48591DE3C19B)	-0.534	-0.544	0.179	1.404	19.348	-13.123	-75.00	26.47	-22.07	-49.000	-29.106	79.968	-0.77805	0.54590	-0.30743	0.04480	28.7	13111	100
2025-3-27 20:15:1.487	WT901BLE68-01(48591DE3C19B)	-0.533	-0.544	0.179	1.404	19.348	-13.123	-75.12	26.39	-22.30	-49.000	-29.106	79.968	-0.77805	0.54590	-0.30743	0.04480	28.7	13111	100
2025-3-27 20:15:1.516	WT901BLE68-01(48591DE3C19B)	-0.533	-0.510	0.215	0.427	-12.207	-3.723	-75.16	26.33	-22.34	-49.000	-29.106	79.968	-0.77805	0.54590	-0.30743	0.04480	28.7	13111	100
2025-3-27 20:15:1.516	WT901BLE68-01(48591DE3C19B)	-0.464	-0.510	0.215	0.427	-12.207	-3.723	-75.12	26.28	-22.19	-49.000	-29.106	79.968	-0.77805	0.54590	-0.30743	0.04480	28.7	13111	100
2025-3-27 20:15:1.516	WT901BLE68-01(48591DE3C19B)	-0.464	-0.465	0.235	-3.174	-52.246	10.803	-74.99	26.25	-21.79	-49.000	-29.106	79.968	-0.77805	0.54590	-0.30743	0.04480	28.7	13111	100
2025-3-27 20:15:1.516	WT901BLE68-01(48591DE3C19B)	-0.404	-0.465	0.235	-3.174	-52.246	10.803	-74.77	26.25	-21.16	-49.000	-29.106	79.968	-0.77805	0.54590	-0.30743	0.04480	28.7	13111	100
2025-3-27 20:15:1.548	WT901BLE68-01(48591DE3C19B)	-0.404	-0.464	0.245	-16.479	-81.604	25.818	-74.53	26.28	-20.35	-49.000	-29.106	79.968	-0.77805	0.54590	-0.30743	0.04480	28.7	13111	100
2025-3-27 20:15:1.548	WT901BLE68-01(48591DE3C19B)	-0.417	-0.464	0.245	-16.479	-81.604	25.818	-74.28	26.35	-19.35	-49.000	-29.106	79.968	-0.77805	0.54590	-0.30743	0.04480	28.7	13111	100
2025-3-27 20:15:1.548	WT901BLE68-01(48591DE3C19B)	-0.417	-0.785	0.265	-33.264	-95.093	32.349	-74.11	26.44	-18.20	-49.000	-29.106	79.968	-0.77805	0.54590	-0.30743	0.04480	28.7	13111	100
2025-3-27 20:15:1.549	WT901BLE68-01(48591DE3C19B)	-0.386	-0.785	0.265	-33.264	-95.093	32.349	-73.94	26.52	-17.05	-49.000	-29.106	79.968	-0.77805	0.54590	-0.30743	0.04480	28.7	13111	100
2025-3-27 20:15:1.607	WT901BLE68-01(48591DE3C19B)	-0.386	-1.174	0.321	-35.828	-82.275	31.494	-73.87	26.61	-16.06	-49.000	-29.106	79.968	-0.77805	0.54590	-0.30743	0.04480	28.7	13111	100
2025-3-27 20:15:1.607	WT901BLE68-01(48591DE3C19B)	-0.350	-1.174	0.321	-35.828	-82.275	31.494	-73.78	26.70	-15.08	-49.000	-29.106	79.968	-0.78958	0.55475	-0.25974	-0.03525	28.7	13111	100
2025-3-27 20:15:1.607	WT901BLE68-01(48591DE3C19B)	-0.350	-1.623	0.354	-30.884	-55.725	20.203	-73.80	26.73	-14.45	-49.000	-29.106	79.968	-0.78958	0.55475	-0.25974	-0.03525	28.7	13111	100
2025-3-27 20:15:1.607	WT901BLE68-01(48591DE3C19B)	-0.435	-1.623	0.354	-30.884	-55.725	20.203	-73.82	26.75	-13.83	-49.000	-29.106	79.968	-0.78958	0.55475	-0.25974	-0.03525	28.7	13111	100
2025-3-27 20:15:1.635	WT901BLE68-01(48591DE3C19B)	-0.435	-2.129	0.418	-29.785	-27.222	0.854	-73.99	26.65	-13.59	-49.000	-29.106	79.968	-0.78958	0.55475	-0.25974	-0.03525	28.7	13111	100
2025-3-27 20:15:1.636	WT901BLE68-01(48591DE3C19B)	-0.654	-2.129	0.418	-29.785	-27.222	0.854	-74.18	26.55	-13.36	-49.000	-29.106	79.968	-0.78958	0.55475	-0.25974	-0.03525	28.7	13111	100
2025-3-27 20:15:1.636	WT901BLE68-01(48591DE3C19B)	-0.654	-2.162	0.500	-15.137	-15.259	-7.080	-74.28	26.39	-13.29	-49.000	-29.106	79.968	-0.78958	0.55475	-0.25974	-0.03525	28.7	13111	100
2025-3-27 20:15:1.636	WT901BLE68-01(48591DE3C19B)	-0.640	-2.162	0.500	-15.137	-15.259	-7.080	-74.39	26.24	-13.23	-49.000	-29.106	79.968	-0.78958	0.55475	-0.25974	-0.03525	28.7	13111	100
2025-3-27 20:15:1.670	WT901BLE68-01(48591DE3C19B)	-0.640	-1.422	0.639	-14.404	-12.268	-3.784	-74.49	26.13	-13.18	-49.000	-29.106	79.968	-0.78958	0.55475	-0.25974	-0.03525	28.7	13111	100
2025-3-27 20:15:1.670	WT901BLE68-01(48591DE3C19B)	-0.539	-1.422	0.639	-14.404	-12.268	-3.784	-74.59	26.02	-13.13	-49.000	-29.106	79.968	-0.78958	0.55475	-0.25974	-0.03525	28.7	13111	100
2025-3-27 20:15:1.670	WT901BLE68-01(48591DE3C19B)	-0.539	-1.088	0.666	-23.926	-2.197	13.672	-74.79	26.10	-13.14	-49.000	-29.106	79.968	-0.78958	0.55475	-0.25974	-0.03525	28.7	13111	100
2025-3-27 20:15:1.670	WT901BLE68-01(48591DE3C19B)	-0.475	-1.088	0.666	-23.926	-2.197	13.672	-74.99	26.19	-13.15	-49.000	-29.106	79.968	-0.78958	0.55475	-0.25974	-0.03525	28.7	13111	100
2025-3-27 20:15:1.757	WT901BLE68-01(48591DE3C19B)	-0.237	-1.009	0.525	-25.696	0.732	25.391	-75.20	26.40	-13.16	-49.000	-29.106	79.968	-0.78958	0.55475	-0.25974	-0.03525	28.7	13111	100
2025-3-27 20:15:1.757	WT901BLE68-01(48591DE3C19B)	-0.397	-0.504	0.262	-25.696	0.732	25.391	-75.40	26.61	-13.16	-49.000	-29.106	79.968	-0.78958	0.55475	-0.25974	-0.03525	28.7	13111	100
2025-3-27 20:15:1.757	WT901BLE68-01(48591DE3C19B)	-0.397	-0.969	0.363	-24.780	-23.315	37.415	-75.47	26.87	-12.87	-49.000	-29.106	79.968	-0.78958	0.55475	-0.25974	-0.03525	28.7	13111	100
2025-3-27 20:15:1.757	WT901BLE68-01(48591DE3C19B)	-0.223	-0.969	0.363	-24.780	-23.315	37.415	-75.52	27.14	-12.58	-49.000	-29.106	79.968	-0.78958	0.55475	-0.25974	-0.03525	28.7	13111	100
2025-3-27 20:15:1.758	WT901BLE68-01(48591DE3C19B)	-0.223	-1.034	0.217	-21.667	-46.265	45.227	-75.43	27.41	-12.04	-49.000	-29.106	79.968	-0.78958	0.55475	-0.25974	-0.03525	28.7	13111	100
2025-3-27 20:15:1.759	WT901BLE68-01(48591DE3C19B)	-0.138	-1.034	0.217	-21.667	-46.265	45.227	-75.33	27.68	-11.49	-49.000	-29.106	79.968	-0.78958	0.55475	-0.25974	-0.03525	28.7	13111	100
2025-3-27 20:15:1.759	WT901BLE68-01(48591DE3C19B)	-0.138	-1.010	0.131	0.061	-32.104	48.157	-75.09	28.00	-11.10	-49.000	-29.106	79.968	-0.78958	0.55475	-0.25974	-0.03525	28.7	13111	100
2025-3-27 20:15:1.759	WT901BLE68-01(48591DE3C19B)	-0.181	-1.010	0.131	0.061	-32.104	48.157	-74.86	28.32	-10.71	-47.628	-38.612	67.620	-0.78958	0.55475	-0.25974	-0.03525	28.7	13111	100
2025-3-27 20:15:1.817	WT901BLE68-01(48591DE3C19B)	-0.181	-0.817	0.146	13.367	-2.441	40.283	-74.66	28.64	-10.67	-47.628	-38.612	67.620	-0.78958	0.55475	-0.25974	-0.03525	28.7	13111	100
2025-3-27 20:15:1.817	WT901BLE68-01(48591DE3C19B)	-0.239	-0.817	0.146	13.367	-2.441	40.283	-74.47	28.95	-10.63	-47.628	-38.612	67.620	-0.78958	0.55475	-0.25974	-0.03525	28.7	13111	100
2025-3-27 20:15:1.817	WT901BLE68-01(48591DE3C19B)	-0.239	-0.669	0.204	16.968	28.015	31.433	-74.41	29.25	-10.96	-47.628	-38.612	67.620	-0.78958	0.55475	-0.25974	-0.03525	28.7	13111	100
2025-3-27 20:15:1.817	WT901BLE68-01(48591DE3C19B)	-0.356	-0.669	0.204	16.968	28.015	31.433	-74.36	29.56	-11.28	-47.628	-38.612	67.620	-0.78958	0.55475	-0.25974	-0.03525	28.7	13111	100
2025-3-27 20:15:1.846	WT901BLE68-01(48591DE3C19B)	-0.356	-0.658	0.262	17.822	46.021	27.344	-74.39	29.87	-11.81	-47.628	-38.612	67.620	-0.78958	0.55475	-0.25974	-0.03525	28.7	13111	100
2025-3-27 20:15:1.847	WT901BLE68-01(48591DE3C19B)	-0.420	-0.658	0.262	17.822	46.021	27.344	-74.44	30.19	-12.34	-47.628	-38.612	67.620	-0.78958	0.55475	-0.25974	-0.03525	28.7	13111	100
2025-3-27 20:15:1.847	WT901BLE68-01(48591DE3C19B)	-0.420	-0.685	0.290	17.212	37.903	20.813	-74.44	30.42	-12.79	-47.628	-38.612	67.620	-0.78958	0.55475	-0.25974	-0.03525	28.7	13111	100
2025-3-27 20:15:1.847	WT901BLE68-01(48591DE3C19B)	-0.396	-0.685	0.290	17.212	37.903	20.813	-74.45	30.66	-13.23	-47.628	-38.612	67.620	-0.78958	0.55475	-0.25974	-0.03525	28.7	13111	100
2025-3-27 20:15:1.877	WT901BLE68-01(48591DE3C19B)	-0.396	-0.642	0.293	15.198	18.494	13.855	-74.38	30.78	-13.47	-47.628	-38.612	67.620	-0.78958	0.55475	-0.25974	-0.03525	28.7	13111	100
2025-3-27 20:15:1.877	WT901BLE68-01(48591DE3C19B)	-0.377	-0.642	0.293	15.198	18.494	13.855	-74.30	30.91	-13.72	-47.628	-38.612	67.620	-0.78958	0.55475	-0.25974	-0.03525	28.7	13111	100
2025-3-27 20:15:1.877	WT901BLE68-01(48591DE3C19B)	-0.377	-0.611	0.285	9.949	4.517	6.775	-74.20	30.93	-13.82	-47.628	-38.612	67.620	-0.78958	0.55475	-0.25974	-0.03525	28.7	13111	100
2025-3-27 20:15:1.877	WT901BLE68-01(48591DE3C19B)	-0.403	-0.611	0.285	9.949	4.517	6.775	-74.10	30.96	-13.91	-47.628	-38.612	67.620	-0.78958	0.55475	-0.25974	-0.03525	28.7	13111	100
