time	DeviceName	AccX(g)	AccY(g)	AccZ(g)	AsX(°/s)	AsY(°/s)	AsZ(°/s)	AngleX(°)	AngleY(°)	AngleZ(°)	HX(uT)	HY(uT)	HZ(uT)	Q0()	Q1()	Q2()	Q3()	Temperature(°C)	Version()	Battery level(%)
2025-3-27 20:26:35.123	WT901BLE68-01(48591DE3C19B)	-0.348	-0.934	0.208	3.967	7.629	-1.465	-80.14	21.48	-69.27	-72.716	-35.476	-1.568	-0.71371	0.47095	-0.44775	0.26117	30.2	13111	100
2025-3-27 20:26:35.123	WT901BLE68-01(48591DE3C19B)	-0.348	-0.926	0.211	3.662	7.202	-0.977	-80.12	21.47	-69.53	-72.716	-35.476	-1.568	-0.71371	0.47095	-0.44775	0.26117	30.2	13111	100
2025-3-27 20:26:35.123	WT901BLE68-01(48591DE3C19B)	-0.344	-0.926	0.211	3.662	7.202	-0.977	-80.10	21.46	-69.79	-72.716	-35.476	-1.568	-0.71371	0.47095	-0.44775	0.26117	30.2	13111	100
2025-3-27 20:26:35.123	WT901BLE68-01(48591DE3C19B)	-0.344	-0.919	0.213	2.747	6.287	-0.427	-80.08	21.45	-70.04	-72.716	-35.476	-1.568	-0.71371	0.47095	-0.44775	0.26117	30.2	13111	100
2025-3-27 20:26:35.155	WT901BLE68-01(48591DE3C19B)	-0.333	-0.919	0.213	2.747	6.287	-0.427	-80.06	21.45	-70.28	-72.716	-35.476	-1.568	-0.68372	0.43420	-0.48068	0.33591	30.2	13111	100
2025-3-27 20:26:35.155	WT901BLE68-01(48591DE3C19B)	-0.333	-0.916	0.213	2.441	6.287	0.061	-80.05	21.44	-70.53	-72.716	-35.476	-1.568	-0.68372	0.43420	-0.48068	0.33591	30.2	13111	100
2025-3-27 20:26:35.155	WT901BLE68-01(48591DE3C19B)	-0.329	-0.916	0.213	2.441	6.287	0.061	-80.04	21.44	-70.76	-72.716	-35.476	-1.568	-0.68372	0.43420	-0.48068	0.33591	30.2	13111	100
2025-3-27 20:26:35.155	WT901BLE68-01(48591DE3C19B)	-0.329	-0.899	0.213	2.197	6.531	0.183	-80.02	21.44	-71.00	-72.716	-35.476	-1.568	-0.68372	0.43420	-0.48068	0.33591	30.2	13111	100
2025-3-27 20:26:35.183	WT901BLE68-01(48591DE3C19B)	-0.338	-0.899	0.213	2.197	6.531	0.183	-80.01	21.44	-71.25	-72.716	-35.476	-1.568	-0.68372	0.43420	-0.48068	0.33591	30.2	13111	100
2025-3-27 20:26:35.184	WT901BLE68-01(48591DE3C19B)	-0.338	-0.895	0.218	1.343	4.700	-0.183	-80.00	21.43	-71.48	-72.716	-35.476	-1.568	-0.68372	0.43420	-0.48068	0.33591	30.2	13111	100
2025-3-27 20:26:35.184	WT901BLE68-01(48591DE3C19B)	-0.341	-0.895	0.218	1.343	4.700	-0.183	-79.99	21.43	-71.70	-72.716	-35.476	-1.568	-0.68372	0.43420	-0.48068	0.33591	30.2	13111	100
2025-3-27 20:26:35.184	WT901BLE68-01(48591DE3C19B)	-0.341	-0.903	0.222	0.732	1.343	-0.854	-79.98	21.41	-71.90	-72.716	-35.476	-1.568	-0.68372	0.43420	-0.48068	0.33591	30.2	13111	100
2025-3-27 20:26:35.244	WT901BLE68-01(48591DE3C19B)	-0.335	-0.903	0.222	0.732	1.343	-0.854	-79.96	21.40	-72.08	-72.716	-35.476	-1.568	-0.68372	0.43420	-0.48068	0.33591	30.2	13111	100
2025-3-27 20:26:35.244	WT901BLE68-01(48591DE3C19B)	-0.335	-0.909	0.219	0.916	-1.099	-1.465	-79.93	21.37	-72.24	-72.716	-35.476	-1.568	-0.68372	0.43420	-0.48068	0.33591	30.2	13111	100
2025-3-27 20:26:35.245	WT901BLE68-01(48591DE3C19B)	-0.324	-0.909	0.219	0.916	-1.099	-1.465	-79.90	21.34	-72.40	-72.716	-35.476	-1.568	-0.68372	0.43420	-0.48068	0.33591	30.2	13111	100
2025-3-27 20:26:35.245	WT901BLE68-01(48591DE3C19B)	-0.324	-0.918	0.215	1.465	-1.099	-2.136	-79.87	21.30	-72.56	-72.716	-35.476	-1.568	-0.68372	0.43420	-0.48068	0.33591	30.2	13111	100
2025-3-27 20:26:35.273	WT901BLE68-01(48591DE3C19B)	-0.327	-0.918	0.215	1.465	-1.099	-2.136	-79.84	21.26	-72.72	-72.716	-35.476	-1.568	-0.68372	0.43420	-0.48068	0.33591	30.2	13111	100
2025-3-27 20:26:35.273	WT901BLE68-01(48591DE3C19B)	-0.327	-0.928	0.214	2.502	0.916	-2.686	-79.80	21.23	-72.89	-72.716	-35.476	-1.568	-0.68372	0.43420	-0.48068	0.33591	30.2	13111	100
2025-3-27 20:26:35.273	WT901BLE68-01(48591DE3C19B)	-0.332	-0.928	0.214	2.502	0.916	-2.686	-79.77	21.19	-73.07	-72.716	-35.476	-1.568	-0.68372	0.43420	-0.48068	0.33591	30.2	13111	100
2025-3-27 20:26:35.273	WT901BLE68-01(48591DE3C19B)	-0.332	-0.925	0.214	3.235	2.441	-2.808	-79.73	21.15	-73.26	-72.716	-35.476	-1.568	-0.68372	0.43420	-0.48068	0.33591	30.2	13111	100
2025-3-27 20:26:35.306	WT901BLE68-01(48591DE3C19B)	-0.333	-0.925	0.214	3.235	2.441	-2.808	-79.70	21.12	-73.45	-72.716	-35.476	-1.568	-0.68372	0.43420	-0.48068	0.33591	30.2	13111	100
2025-3-27 20:26:35.306	WT901BLE68-01(48591DE3C19B)	-0.333	-0.917	0.211	3.296	3.235	-2.563	-79.67	21.08	-73.65	-72.716	-35.476	-1.568	-0.68372	0.43420	-0.48068	0.33591	30.2	13111	100
2025-3-27 20:26:35.306	WT901BLE68-01(48591DE3C19B)	-0.344	-0.917	0.211	3.296	3.235	-2.563	-79.63	21.05	-73.85	-72.716	-35.476	-1.568	-0.68372	0.43420	-0.48068	0.33591	30.2	13111	100
2025-3-27 20:26:35.307	WT901BLE68-01(48591DE3C19B)	-0.344	-0.908	0.208	2.686	2.930	-2.258	-79.61	21.02	-74.04	-72.716	-35.476	-1.568	-0.68372	0.43420	-0.48068	0.33591	30.2	13111	100
2025-3-27 20:26:35.394	WT901BLE68-01(48591DE3C19B)	-0.346	-0.908	0.208	2.686	2.930	-2.258	-79.57	20.99	-74.23	-72.716	-35.476	-1.568	-0.68372	0.43420	-0.48068	0.33591	30.2	13111	100
2025-3-27 20:26:35.395	WT901BLE68-01(48591DE3C19B)	-0.346	-0.906	0.208	1.343	0.854	-1.953	-79.55	20.96	-74.40	-71.246	-36.456	-1.666	-0.68372	0.43420	-0.48068	0.33591	30.2	13111	100
2025-3-27 20:26:35.395	WT901BLE68-01(48591DE3C19B)	-0.343	-0.906	0.208	1.343	0.854	-1.953	-79.53	20.93	-74.57	-71.246	-36.456	-1.666	-0.68372	0.43420	-0.48068	0.33591	30.2	13111	100
2025-3-27 20:26:35.395	WT901BLE68-01(48591DE3C19B)	-0.343	-0.904	0.211	0.305	-1.404	-1.587	-79.51	20.91	-74.71	-71.246	-36.456	-1.666	-0.68372	0.43420	-0.48068	0.33591	30.2	13111	100
2025-3-27 20:26:35.396	WT901BLE68-01(48591DE3C19B)	-0.335	-0.904	0.211	0.305	-1.404	-1.587	-79.49	20.88	-74.85	-71.246	-36.456	-1.666	-0.68372	0.43420	-0.48068	0.33591	30.2	13111	100
2025-3-27 20:26:35.397	WT901BLE68-01(48591DE3C19B)	-0.335	-0.900	0.210	-0.488	-2.319	-1.221	-79.48	20.86	-74.98	-71.246	-36.456	-1.666	-0.68372	0.43420	-0.48068	0.33591	30.2	13111	100
2025-3-27 20:26:35.397	WT901BLE68-01(48591DE3C19B)	-0.333	-0.900	0.210	-0.488	-2.319	-1.221	-79.46	20.83	-75.11	-71.246	-36.456	-1.666	-0.68372	0.43420	-0.48068	0.33591	30.2	13111	100
2025-3-27 20:26:35.397	WT901BLE68-01(48591DE3C19B)	-0.333	-0.894	0.208	-0.793	-2.014	-0.793	-79.44	20.81	-75.23	-71.246	-36.456	-1.666	-0.68372	0.43420	-0.48068	0.33591	30.2	13111	100
2025-3-27 20:26:35.426	WT901BLE68-01(48591DE3C19B)	-0.331	-0.894	0.208	-0.793	-2.014	-0.793	-79.43	20.79	-75.37	-71.246	-36.456	-1.666	-0.68372	0.43420	-0.48068	0.33591	30.2	13111	100
2025-3-27 20:26:35.426	WT901BLE68-01(48591DE3C19B)	-0.331	-0.888	0.209	-0.916	-1.343	-0.488	-79.42	20.78	-75.50	-71.246	-36.456	-1.666	-0.68372	0.43420	-0.48068	0.33591	30.2	13111	100
2025-3-27 20:26:35.426	WT901BLE68-01(48591DE3C19B)	-0.337	-0.888	0.209	-0.916	-1.343	-0.488	-79.41	20.76	-75.64	-71.246	-36.456	-1.666	-0.68372	0.43420	-0.48068	0.33591	30.2	13111	100
2025-3-27 20:26:35.426	WT901BLE68-01(48591DE3C19B)	-0.337	-0.881	0.209	-1.038	-1.099	-0.427	-79.40	20.75	-75.77	-71.246	-36.456	-1.666	-0.68372	0.43420	-0.48068	0.33591	30.2	13111	100
2025-3-27 20:26:35.484	WT901BLE68-01(48591DE3C19B)	-0.344	-0.881	0.209	-1.038	-1.099	-0.427	-79.40	20.73	-75.90	-71.246	-36.456	-1.666	-0.68372	0.43420	-0.48068	0.33591	30.2	13111	100
2025-3-27 20:26:35.484	WT901BLE68-01(48591DE3C19B)	-0.344	-0.868	0.207	-1.526	-1.953	-0.427	-79.39	20.72	-76.03	-71.246	-36.456	-1.666	-0.68372	0.43420	-0.48068	0.33591	30.2	13111	100
2025-3-27 20:26:35.484	WT901BLE68-01(48591DE3C19B)	-0.349	-0.868	0.207	-1.526	-1.953	-0.427	-79.39	20.70	-76.16	-71.246	-36.456	-1.666	-0.68372	0.43420	-0.48068	0.33591	30.2	13111	100
2025-3-27 20:26:35.484	WT901BLE68-01(48591DE3C19B)	-0.349	-0.852	0.203	-2.441	-3.540	-0.488	-79.38	20.69	-76.26	-71.246	-36.456	-1.666	-0.68372	0.43420	-0.48068	0.33591	30.2	13111	100
2025-3-27 20:26:35.514	WT901BLE68-01(48591DE3C19B)	-0.362	-0.852	0.203	-2.441	-3.540	-0.488	-79.38	20.67	-76.37	-71.246	-36.456	-1.666	-0.68372	0.43420	-0.48068	0.33591	30.2	13111	100
2025-3-27 20:26:35.514	WT901BLE68-01(48591DE3C19B)	-0.362	-0.847	0.199	-4.211	-5.737	-0.793	-79.39	20.65	-76.45	-71.246	-36.456	-1.666	-0.68372	0.43420	-0.48068	0.33591	30.2	13111	100
2025-3-27 20:26:35.514	WT901BLE68-01(48591DE3C19B)	-0.383	-0.847	0.199	-4.211	-5.737	-0.793	-79.39	20.63	-76.54	-71.246	-36.456	-1.666	-0.68372	0.43420	-0.48068	0.33591	30.2	13111	100
2025-3-27 20:26:35.514	WT901BLE68-01(48591DE3C19B)	-0.383	-0.849	0.199	-6.042	-10.193	-1.526	-79.40	20.59	-76.57	-71.246	-36.456	-1.666	-0.68372	0.43420	-0.48068	0.33591	30.2	13111	100
2025-3-27 20:26:35.574	WT901BLE68-01(48591DE3C19B)	-0.401	-0.849	0.199	-6.042	-10.193	-1.526	-79.40	20.56	-76.61	-71.246	-36.456	-1.666	-0.68372	0.43420	-0.48068	0.33591	30.2	13111	100
2025-3-27 20:26:35.574	WT901BLE68-01(48591DE3C19B)	-0.401	-0.838	0.202	-8.545	-16.785	-2.136	-79.41	20.52	-76.58	-71.246	-36.456	-1.666	-0.68372	0.43420	-0.48068	0.33591	30.2	13111	100
2025-3-27 20:26:35.574	WT901BLE68-01(48591DE3C19B)	-0.408	-0.838	0.202	-8.545	-16.785	-2.136	-79.42	20.47	-76.55	-71.246	-36.456	-1.666	-0.66470	0.40930	-0.49643	0.37958	30.2	13111	100
2025-3-27 20:26:35.574	WT901BLE68-01(48591DE3C19B)	-0.408	-0.829	0.206	-11.353	-24.353	-2.380	-79.43	20.41	-76.44	-71.246	-36.456	-1.666	-0.66470	0.40930	-0.49643	0.37958	30.2	13111	100
2025-3-27 20:26:35.604	WT901BLE68-01(48591DE3C19B)	-0.407	-0.829	0.206	-11.353	-24.353	-2.380	-79.44	20.35	-76.33	-71.246	-36.456	-1.666	-0.66470	0.40930	-0.49643	0.37958	30.2	13111	100
2025-3-27 20:26:35.604	WT901BLE68-01(48591DE3C19B)	-0.407	-0.825	0.211	-13.977	-31.128	-1.465	-79.44	20.29	-76.15	-71.246	-36.456	-1.666	-0.66470	0.40930	-0.49643	0.37958	30.2	13111	100
2025-3-27 20:26:35.604	WT901BLE68-01(48591DE3C19B)	-0.389	-0.825	0.211	-13.977	-31.128	-1.465	-79.45	20.23	-75.96	-71.246	-36.456	-1.666	-0.66470	0.40930	-0.49643	0.37958	30.2	13111	100
2025-3-27 20:26:35.604	WT901BLE68-01(48591DE3C19B)	-0.389	-0.846	0.201	-15.381	-33.936	0.854	-79.46	20.19	-75.76	-71.246	-36.456	-1.666	-0.66470	0.40930	-0.49643	0.37958	30.2	13111	100
2025-3-27 20:26:35.667	WT901BLE68-01(48591DE3C19B)	-0.373	-0.846	0.201	-15.381	-33.936	0.854	-79.46	20.15	-75.54	-71.246	-36.456	-1.666	-0.66470	0.40930	-0.49643	0.37958	30.2	13111	100
2025-3-27 20:26:35.668	WT901BLE68-01(48591DE3C19B)	-0.373	-0.848	0.182	-15.442	-33.264	3.235	-79.48	20.14	-75.33	-71.246	-36.456	-1.666	-0.66470	0.40930	-0.49643	0.37958	30.2	13111	100
2025-3-27 20:26:35.668	WT901BLE68-01(48591DE3C19B)	-0.370	-0.848	0.182	-15.442	-33.264	3.235	-79.49	20.13	-75.12	-71.246	-36.456	-1.666	-0.66470	0.40930	-0.49643	0.37958	30.2	13111	100
2025-3-27 20:26:35.668	WT901BLE68-01(48591DE3C19B)	-0.370	-0.857	0.176	-16.174	-31.250	4.211	-79.51	20.13	-74.93	-71.246	-36.456	-1.666	-0.66470	0.40930	-0.49643	0.37958	30.2	13111	100
2025-3-27 20:26:35.668	WT901BLE68-01(48591DE3C19B)	-0.390	-0.857	0.176	-16.174	-31.250	4.211	-79.54	20.13	-74.74	-71.246	-36.456	-1.666	-0.66470	0.40930	-0.49643	0.37958	30.2	13111	100
2025-3-27 20:26:35.668	WT901BLE68-01(48591DE3C19B)	-0.399	-0.866	0.186	-16.479	-31.799	4.395	-79.57	20.13	-74.54	-71.246	-36.456	-1.666	-0.66470	0.40930	-0.49643	0.37958	30.2	13111	100
2025-3-27 20:26:35.668	WT901BLE68-01(48591DE3C19B)	-0.399	-0.873	0.191	-17.883	-36.438	4.089	-79.60	20.13	-74.32	-71.246	-36.456	-1.666	-0.66470	0.40930	-0.49643	0.37958	30.2	13111	100
2025-3-27 20:26:35.668	WT901BLE68-01(48591DE3C19B)	-0.384	-0.873	0.191	-17.883	-36.438	4.089	-79.62	20.12	-74.07	-71.246	-36.456	-1.666	-0.66470	0.40930	-0.49643	0.37958	30.2	13111	100
2025-3-27 20:26:35.754	WT901BLE68-01(48591DE3C19B)	-0.384	-0.873	0.185	-17.700	-39.856	4.211	-79.65	20.10	-73.81	-71.246	-36.456	-1.666	-0.66470	0.40930	-0.49643	0.37958	30.2	13111	100
2025-3-27 20:26:35.754	WT901BLE68-01(48591DE3C19B)	-0.373	-0.873	0.185	-17.700	-39.856	4.211	-79.66	20.09	-73.53	-71.246	-36.456	-1.666	-0.66470	0.40930	-0.49643	0.37958	30.2	13111	100
2025-3-27 20:26:35.755	WT901BLE68-01(48591DE3C19B)	-0.373	-0.851	0.167	-16.357	-42.053	4.578	-79.66	20.08	-73.23	-71.246	-36.456	-1.666	-0.66470	0.40930	-0.49643	0.37958	30.2	13111	100
2025-3-27 20:26:35.755	WT901BLE68-01(48591DE3C19B)	-0.364	-0.851	0.167	-16.357	-42.053	4.578	-79.65	20.07	-72.93	-71.246	-36.456	-1.666	-0.66470	0.40930	-0.49643	0.37958	30.2	13111	100
2025-3-27 20:26:35.756	WT901BLE68-01(48591DE3C19B)	-0.364	-0.860	0.154	-15.808	-43.518	3.967	-79.64	20.05	-72.62	-75.558	-33.908	0.098	-0.66470	0.40930	-0.49643	0.37958	30.2	13111	100
2025-3-27 20:26:35.756	WT901BLE68-01(48591DE3C19B)	-0.388	-0.860	0.154	-15.808	-43.518	3.967	-79.62	20.03	-72.30	-75.558	-33.908	0.098	-0.66470	0.40930	-0.49643	0.37958	30.2	13111	100
2025-3-27 20:26:35.756	WT901BLE68-01(48591DE3C19B)	-0.388	-0.933	0.156	-14.160	-45.227	1.221	-79.60	19.99	-71.98	-75.558	-33.908	0.098	-0.66470	0.40930	-0.49643	0.37958	30.2	13111	100
2025-3-27 20:26:35.756	WT901BLE68-01(48591DE3C19B)	-0.422	-0.933	0.156	-14.160	-45.227	1.221	-79.57	19.94	-71.65	-75.558	-33.908	0.098	-0.66470	0.40930	-0.49643	0.37958	30.2	13111	100
2025-3-27 20:26:35.786	WT901BLE68-01(48591DE3C19B)	-0.422	-1.039	0.171	-11.536	-49.011	-2.808	-79.52	19.86	-71.30	-75.558	-33.908	0.098	-0.66470	0.40930	-0.49643	0.37958	30.2	13111	100
2025-3-27 20:26:35.786	WT901BLE68-01(48591DE3C19B)	-0.426	-1.039	0.171	-11.536	-49.011	-2.808	-79.46	19.76	-70.93	-75.558	-33.908	0.098	-0.66470	0.40930	-0.49643	0.37958	30.2	13111	100
2025-3-27 20:26:35.786	WT901BLE68-01(48591DE3C19B)	-0.426	-1.136	0.176	-6.958	-51.941	-7.751	-79.37	19.64	-70.57	-75.558	-33.908	0.098	-0.66470	0.40930	-0.49643	0.37958	30.2	13111	100
2025-3-27 20:26:35.787	WT901BLE68-01(48591DE3C19B)	-0.407	-1.136	0.176	-6.958	-51.941	-7.751	-79.26	19.48	-70.18	-75.558	-33.908	0.098	-0.66470	0.40930	-0.49643	0.37958	30.2	13111	100
2025-3-27 20:26:35.843	WT901BLE68-01(48591DE3C19B)	-0.407	-1.164	0.172	0.122	-47.729	-11.108	-79.12	19.31	-69.82	-75.558	-33.908	0.098	-0.66470	0.40930	-0.49643	0.37958	30.2	13111	100
2025-3-27 20:26:35.843	WT901BLE68-01(48591DE3C19B)	-0.366	-1.164	0.172	0.122	-47.729	-11.108	-78.97	19.13	-69.49	-75.558	-33.908	0.098	-0.66470	0.40930	-0.49643	0.37958	30.2	13111	100
2025-3-27 20:26:35.843	WT901BLE68-01(48591DE3C19B)	-0.366	-1.089	0.153	6.958	-36.438	-11.597	-78.80	18.95	-69.22	-75.558	-33.908	0.098	-0.66470	0.40930	-0.49643	0.37958	30.2	13111	100
2025-3-27 20:26:35.843	WT901BLE68-01(48591DE3C19B)	-0.328	-1.089	0.153	6.958	-36.438	-11.597	-78.62	18.78	-69.02	-75.558	-33.908	0.098	-0.66470	0.40930	-0.49643	0.37958	30.2	13111	100
2025-3-27 20:26:35.934	WT901BLE68-01(48591DE3C19B)	-0.328	-0.973	0.138	10.742	-18.799	-9.155	-78.46	18.64	-68.90	-75.558	-33.908	0.098	-0.66470	0.40930	-0.49643	0.37958	30.2	13111	100
2025-3-27 20:26:35.934	WT901BLE68-01(48591DE3C19B)	-0.322	-0.973	0.138	10.742	-18.799	-9.155	-78.31	18.53	-68.86	-75.558	-33.908	0.098	-0.66470	0.40930	-0.49643	0.37958	30.2	13111	100
2025-3-27 20:26:35.934	WT901BLE68-01(48591DE3C19B)	-0.322	-0.869	0.141	11.841	-0.183	-4.639	-78.17	18.46	-68.92	-75.558	-33.908	0.098	-0.66470	0.40930	-0.49643	0.37958	30.2	13111	100
2025-3-27 20:26:35.934	WT901BLE68-01(48591DE3C19B)	-0.341	-0.869	0.141	11.841	-0.183	-4.639	-78.07	18.43	-69.07	-75.558	-33.908	0.098	-0.66470	0.40930	-0.49643	0.37958	30.2	13111	100
2025-3-27 20:26:35.936	WT901BLE68-01(48591DE3C19B)	-0.341	-0.808	0.152	8.850	9.521	0.549	-78.00	18.43	-69.26	-75.558	-33.908	0.098	-0.66470	0.40930	-0.49643	0.37958	30.2	13111	100
2025-3-27 20:26:35.936	WT901BLE68-01(48591DE3C19B)	-0.356	-0.808	0.152	8.850	9.521	0.549	-77.95	18.47	-69.49	-75.558	-33.908	0.098	-0.66470	0.40930	-0.49643	0.37958	30.2	13111	100
2025-3-27 20:26:35.936	WT901BLE68-01(48591DE3C19B)	-0.356	-0.818	0.152	3.601	11.963	4.944	-77.94	18.54	-69.74	-75.558	-33.908	0.098	-0.66470	0.40930	-0.49643	0.37958	30.2	13111	100
2025-3-27 20:26:35.936	WT901BLE68-01(48591DE3C19B)	-0.366	-0.818	0.152	3.601	11.963	4.944	-77.94	18.63	-69.98	-75.558	-33.908	0.098	-0.66470	0.40930	-0.49643	0.37958	30.2	13111	100
2025-3-27 20:26:35.966	WT901BLE68-01(48591DE3C19B)	-0.366	-0.849	0.138	2.502	11.658	7.507	-77.96	18.73	-70.22	-75.558	-33.908	0.098	-0.66470	0.40930	-0.49643	0.37958	30.2	13111	100
2025-3-27 20:26:35.966	WT901BLE68-01(48591DE3C19B)	-0.367	-0.849	0.138	2.502	11.658	7.507	-77.98	18.85	-70.46	-75.558	-33.908	0.098	-0.66470	0.40930	-0.49643	0.37958	30.2	13111	100
2025-3-27 20:26:35.966	WT901BLE68-01(48591DE3C19B)	-0.367	-0.844	0.114	2.075	6.592	8.850	-77.99	18.96	-70.66	-75.558	-33.908	0.098	-0.66470	0.40930	-0.49643	0.37958	30.2	13111	100
2025-3-27 20:26:35.966	WT901BLE68-01(48591DE3C19B)	-0.337	-0.844	0.114	2.075	6.592	8.850	-78.00	19.08	-70.85	-75.558	-33.908	0.098	-0.66470	0.40930	-0.49643	0.37958	30.2	13111	100
2025-3-27 20:26:35.996	WT901BLE68-01(48591DE3C19B)	-0.337	-0.847	0.101	2.502	1.587	9.155	-78.00	19.20	-70.99	-75.558	-33.908	0.098	-0.68475	0.42987	-0.46579	0.35947	30.2	13111	100
2025-3-27 20:26:35.996	WT901BLE68-01(48591DE3C19B)	-0.302	-0.847	0.101	2.502	1.587	9.155	-77.99	19.31	-71.11	-75.558	-33.908	0.098	-0.68475	0.42987	-0.46579	0.35947	30.2	13111	100
2025-3-27 20:26:35.996	WT901BLE68-01(48591DE3C19B)	-0.302	-0.845	0.106	4.272	1.465	9.521	-77.96	19.42	-71.24	-75.558	-33.908	0.098	-0.68475	0.42987	-0.46579	0.35947	30.2	13111	100
2025-3-27 20:26:35.996	WT901BLE68-01(48591DE3C19B)	-0.267	-0.845	0.106	4.272	1.465	9.521	-77.94	19.53	-71.35	-75.558	-33.908	0.098	-0.68475	0.42987	-0.46579	0.35947	30.2	13111	100
2025-3-27 20:26:36.54	WT901BLE68-01(48591DE3C19B)	-0.267	-0.834	0.119	7.263	7.568	10.254	-77.91	19.65	-71.50	-75.558	-33.908	0.098	-0.68475	0.42987	-0.46579	0.35947	30.2	13111	100
2025-3-27 20:26:36.54	WT901BLE68-01(48591DE3C19B)	-0.243	-0.834	0.119	7.263	7.568	10.254	-77.87	19.78	-71.67	-75.558	-33.908	0.098	-0.68475	0.42987	-0.46579	0.35947	30.2	13111	100
2025-3-27 20:26:36.54	WT901BLE68-01(48591DE3C19B)	-0.243	-0.791	0.125	11.658	19.836	11.536	-77.84	19.92	-71.92	-75.558	-33.908	0.098	-0.68475	0.42987	-0.46579	0.35947	30.2	13111	100
2025-3-27 20:26:36.54	WT901BLE68-01(48591DE3C19B)	-0.245	-0.791	0.125	11.658	19.836	11.536	-77.81	20.08	-72.21	-75.558	-33.908	0.098	-0.68475	0.42987	-0.46579	0.35947	30.2	13111	100
2025-3-27 20:26:36.83	WT901BLE68-01(48591DE3C19B)	-0.245	-0.749	0.125	15.930	33.142	13.184	-77.78	20.26	-72.58	-75.558	-33.908	0.098	-0.68475	0.42987	-0.46579	0.35947	30.2	13111	100
2025-3-27 20:26:36.83	WT901BLE68-01(48591DE3C19B)	-0.263	-0.749	0.125	15.930	33.142	13.184	-77.75	20.46	-73.01	-75.558	-33.908	0.098	-0.68475	0.42987	-0.46579	0.35947	30.2	13111	100
2025-3-27 20:26:36.83	WT901BLE68-01(48591DE3C19B)	-0.263	-0.705	0.125	20.508	42.664	14.526	-77.72	20.68	-73.49	-75.558	-33.908	0.098	-0.68475	0.42987	-0.46579	0.35947	30.2	13111	100
2025-3-27 20:26:36.83	WT901BLE68-01(48591DE3C19B)	-0.277	-0.705	0.125	20.508	42.664	14.526	-77.68	20.91	-74.01	-75.558	-33.908	0.098	-0.68475	0.42987	-0.46579	0.35947	30.2	13111	100
2025-3-27 20:26:36.116	WT901BLE68-01(48591DE3C19B)	-0.277	-0.680	0.133	24.597	48.279	15.808	-77.63	21.15	-74.56	-75.558	-33.908	0.098	-0.68475	0.42987	-0.46579	0.35947	30.2	13111	100
2025-3-27 20:26:36.116	WT901BLE68-01(48591DE3C19B)	-0.280	-0.680	0.133	24.597	48.279	15.808	-77.58	21.40	-75.14	-75.558	-33.908	0.098	-0.68475	0.42987	-0.46579	0.35947	30.2	13111	100
2025-3-27 20:26:36.116	WT901BLE68-01(48591DE3C19B)	-0.280	-0.676	0.134	30.701	52.917	17.090	-77.50	21.67	-75.74	-75.558	-33.908	0.098	-0.68475	0.42987	-0.46579	0.35947	30.2	13111	100
2025-3-27 20:26:36.116	WT901BLE68-01(48591DE3C19B)	-0.266	-0.676	0.134	30.701	52.917	17.090	-77.41	21.94	-76.36	-75.558	-33.908	0.098	-0.68475	0.42987	-0.46579	0.35947	30.2	13111	100
2025-3-27 20:26:36.146	WT901BLE68-01(48591DE3C19B)	-0.266	-0.680	0.120	36.560	60.547	18.127	-77.30	22.23	-77.01	-75.558	-33.908	0.098	-0.68475	0.42987	-0.46579	0.35947	30.2	13111	100
2025-3-27 20:26:36.146	WT901BLE68-01(48591DE3C19B)	-0.259	-0.680	0.120	36.560	60.547	18.127	-77.18	22.53	-77.71	-75.558	-33.908	0.098	-0.68475	0.42987	-0.46579	0.35947	30.2	13111	100
2025-3-27 20:26:36.146	WT901BLE68-01(48591DE3C19B)	-0.259	-0.663	0.095	44.128	70.923	18.494	-77.04	22.86	-78.51	-77.616	-34.202	1.666	-0.68475	0.42987	-0.46579	0.35947	30.2	13111	100
2025-3-27 20:26:36.147	WT901BLE68-01(48591DE3C19B)	-0.273	-0.663	0.095	44.128	70.923	18.494	-76.89	23.19	-79.30	-77.616	-34.202	1.666	-0.68475	0.42987	-0.46579	0.35947	30.2	13111	100
2025-3-27 20:26:36.204	WT901BLE68-01(48591DE3C19B)	-0.273	-0.637	0.083	47.913	81.909	18.738	-76.77	23.54	-80.21	-77.616	-34.202	1.666	-0.68475	0.42987	-0.46579	0.35947	30.2	13111	100
2025-3-27 20:26:36.205	WT901BLE68-01(48591DE3C19B)	-0.327	-0.637	0.083	47.913	81.909	18.738	-76.65	23.90	-81.12	-77.616	-34.202	1.666	-0.68475	0.42987	-0.46579	0.35947	30.2	13111	100
2025-3-27 20:26:36.205	WT901BLE68-01(48591DE3C19B)	-0.327	-0.654	0.112	49.133	89.539	19.165	-76.55	24.28	-82.10	-77.616	-34.202	1.666	-0.68475	0.42987	-0.46579	0.35947	30.2	13111	100
2025-3-27 20:26:36.205	WT901BLE68-01(48591DE3C19B)	-0.398	-0.654	0.112	49.133	89.539	19.165	-76.46	24.66	-83.08	-77.616	-34.202	1.666	-0.68475	0.42987	-0.46579	0.35947	30.2	13111	100
2025-3-27 20:26:36.233	WT901BLE68-01(48591DE3C19B)	-0.398	-0.719	0.191	49.316	92.163	21.606	-76.39	25.07	-84.08	-77.616	-34.202	1.666	-0.68475	0.42987	-0.46579	0.35947	30.2	13111	100
2025-3-27 20:26:36.234	WT901BLE68-01(48591DE3C19B)	-0.417	-0.719	0.191	49.316	92.163	21.606	-76.32	25.49	-85.08	-77.616	-34.202	1.666	-0.68475	0.42987	-0.46579	0.35947	30.2	13111	100
2025-3-27 20:26:36.234	WT901BLE68-01(48591DE3C19B)	-0.417	-0.764	0.207	48.523	93.811	23.560	-76.26	25.93	-86.09	-77.616	-34.202	1.666	-0.68475	0.42987	-0.46579	0.35947	30.2	13111	100
2025-3-27 20:26:36.234	WT901BLE68-01(48591DE3C19B)	-0.405	-0.764	0.207	48.523	93.811	23.560	-76.21	26.37	-87.11	-77.616	-34.202	1.666	-0.68475	0.42987	-0.46579	0.35947	30.2	13111	100
2025-3-27 20:26:36.326	WT901BLE68-01(48591DE3C19B)	-0.405	-0.888	0.113	38.940	100.220	15.869	-76.31	26.75	-88.20	-77.616	-34.202	1.666	-0.68475	0.42987	-0.46579	0.35947	30.2	13111	100
2025-3-27 20:26:36.326	WT901BLE68-01(48591DE3C19B)	-0.531	-0.888	0.113	38.940	100.220	15.869	-76.42	27.12	-89.31	-77.616	-34.202	1.666	-0.68475	0.42987	-0.46579	0.35947	30.2	13111	100
2025-3-27 20:26:36.327	WT901BLE68-01(48591DE3C19B)	-0.531	-1.198	0.127	31.921	106.934	-9.644	-76.67	27.26	-90.54	-77.616	-34.202	1.666	-0.68475	0.42987	-0.46579	0.35947	30.2	13111	100
2025-3-27 20:26:36.327	WT901BLE68-01(48591DE3C19B)	-0.783	-1.198	0.127	31.921	106.934	-9.644	-76.92	27.39	-91.77	-77.616	-34.202	1.666	-0.68475	0.42987	-0.46579	0.35947	30.2	13111	100
2025-3-27 20:26:36.327	WT901BLE68-01(48591DE3C19B)	-0.783	-1.481	0.276	30.334	100.525	-38.025	-77.19	27.23	-93.00	-77.616	-34.202	1.666	-0.68475	0.42987	-0.46579	0.35947	30.2	13111	100
2025-3-27 20:26:36.327	WT901BLE68-01(48591DE3C19B)	-0.856	-1.481	0.276	30.334	100.525	-38.025	-77.45	27.06	-94.22	-77.616	-34.202	1.666	-0.68475	0.42987	-0.46579	0.35947	30.2	13111	100
2025-3-27 20:26:36.327	WT901BLE68-01(48591DE3C19B)	-0.856	-1.404	0.416	23.743	79.834	-53.528	-77.68	26.71	-95.25	-77.616	-34.202	1.666	-0.68475	0.42987	-0.46579	0.35947	30.2	13111	100
2025-3-27 20:26:36.327	WT901BLE68-01(48591DE3C19B)	-0.767	-1.404	0.416	23.743	79.834	-53.528	-77.89	26.36	-96.27	-77.616	-34.202	1.666	-0.68475	0.42987	-0.46579	0.35947	30.2	13111	100
2025-3-27 20:26:36.356	WT901BLE68-01(48591DE3C19B)	-0.767	-1.054	0.472	8.728	59.570	-53.894	-78.15	25.96	-97.07	-77.616	-34.202	1.666	-0.68475	0.42987	-0.46579	0.35947	30.2	13111	100
2025-3-27 20:26:36.356	WT901BLE68-01(48591DE3C19B)	-0.730	-1.054	0.472	8.728	59.570	-53.894	-78.38	25.57	-97.87	-77.616	-34.202	1.666	-0.68475	0.42987	-0.46579	0.35947	30.2	13111	100
2025-3-27 20:26:36.356	WT901BLE68-01(48591DE3C19B)	-0.730	-0.886	0.476	-10.132	52.002	-39.429	-78.74	25.30	-98.56	-77.616	-34.202	1.666	-0.68475	0.42987	-0.46579	0.35947	30.2	13111	100
2025-3-27 20:26:36.356	WT901BLE68-01(48591DE3C19B)	-0.830	-0.886	0.476	-10.132	52.002	-39.429	-79.08	25.04	-99.26	-77.616	-34.202	1.666	-0.59274	0.27518	-0.58176	0.48413	30.2	13111	100
2025-3-27 20:26:36.414	WT901BLE68-01(48591DE3C19B)	-0.830	-0.779	0.477	-21.667	20.264	-32.288	-79.38	24.79	-99.60	-77.616	-34.202	1.666	-0.59274	0.27518	-0.58176	0.48413	30.2	13111	100
2025-3-27 20:26:36.414	WT901BLE68-01(48591DE3C19B)	-0.886	-0.779	0.477	-21.667	20.264	-32.288	-79.66	24.55	-99.95	-77.616	-34.202	1.666	-0.59274	0.27518	-0.58176	0.48413	30.2	13111	100
2025-3-27 20:26:36.415	WT901BLE68-01(48591DE3C19B)	-0.886	-0.771	0.479	-44.250	-48.096	-20.142	-79.84	24.31	-99.55	-77.616	-34.202	1.666	-0.59274	0.27518	-0.58176	0.48413	30.2	13111	100
2025-3-27 20:26:36.415	WT901BLE68-01(48591DE3C19B)	-0.831	-0.771	0.479	-44.250	-48.096	-20.142	-80.02	24.08	-99.16	-77.616	-34.202	1.666	-0.59274	0.27518	-0.58176	0.48413	30.2	13111	100
2025-3-27 20:26:36.445	WT901BLE68-01(48591DE3C19B)	-0.831	-0.920	0.446	-50.659	-108.521	-10.925	-79.99	23.85	-98.11	-77.616	-34.202	1.666	-0.59274	0.27518	-0.58176	0.48413	30.2	13111	100
2025-3-27 20:26:36.445	WT901BLE68-01(48591DE3C19B)	-0.774	-0.920	0.446	-50.659	-108.521	-10.925	-79.95	23.61	-97.08	-77.616	-34.202	1.666	-0.59274	0.27518	-0.58176	0.48413	30.2	13111	100
2025-3-27 20:26:36.445	WT901BLE68-01(48591DE3C19B)	-0.774	-0.939	0.344	-39.734	-147.766	-0.122	-79.64	23.41	-95.60	-77.616	-34.202	1.666	-0.59274	0.27518	-0.58176	0.48413	30.2	13111	100
2025-3-27 20:26:36.445	WT901BLE68-01(48591DE3C19B)	-0.595	-0.939	0.344	-39.734	-147.766	-0.122	-79.33	23.20	-94.14	-77.616	-34.202	1.666	-0.59274	0.27518	-0.58176	0.48413	30.2	13111	100
2025-3-27 20:26:36.476	WT901BLE68-01(48591DE3C19B)	-0.595	-0.850	0.232	-31.067	-158.630	9.277	-78.90	23.06	-92.55	-77.616	-34.202	1.666	-0.59274	0.27518	-0.58176	0.48413	30.2	13111	100
2025-3-27 20:26:36.476	WT901BLE68-01(48591DE3C19B)	-0.375	-0.850	0.232	-31.067	-158.630	9.277	-78.48	22.91	-90.96	-77.616	-34.202	1.666	-0.59274	0.27518	-0.58176	0.48413	30.2	13111	100
2025-3-27 20:26:36.476	WT901BLE68-01(48591DE3C19B)	-0.375	-0.785	0.208	-20.081	-131.958	16.113	-78.06	22.86	-89.65	-77.616	-34.202	1.666	-0.59274	0.27518	-0.58176	0.48413	30.2	13111	100
2025-3-27 20:26:36.476	WT901BLE68-01(48591DE3C19B)	-0.261	-0.785	0.208	-20.081	-131.958	16.113	-77.65	22.80	-88.33	-77.616	-34.202	1.666	-0.59274	0.27518	-0.58176	0.48413	30.2	13111	100
2025-3-27 20:26:36.534	WT901BLE68-01(48591DE3C19B)	-0.261	-0.696	0.243	-9.399	-86.487	16.663	-77.32	22.83	-87.50	-77.616	-34.202	1.666	-0.59274	0.27518	-0.58176	0.48413	30.2	13111	100
2025-3-27 20:26:36.535	WT901BLE68-01(48591DE3C19B)	-0.275	-0.696	0.243	-9.399	-86.487	16.663	-76.99	22.85	-86.65	-77.616	-34.202	1.666	-0.59274	0.27518	-0.58176	0.48413	30.2	13111	100
2025-3-27 20:26:36.535	WT901BLE68-01(48591DE3C19B)	-0.275	-0.627	0.324	0.427	-37.292	17.334	-76.77	22.98	-86.34	-77.616	-34.202	1.666	-0.59274	0.27518	-0.58176	0.48413	30.2	13111	100
2025-3-27 20:26:36.535	WT901BLE68-01(48591DE3C19B)	-0.355	-0.627	0.324	0.427	-37.292	17.334	-76.54	23.10	-86.01	-77.616	-34.202	1.666	-0.59274	0.27518	-0.58176	0.48413	30.2	13111	100
2025-3-27 20:26:36.567	WT901BLE68-01(48591DE3C19B)	-0.355	-0.552	0.333	6.592	-2.502	19.897	-76.39	23.32	-86.06	-73.892	-37.730	0.980	-0.59274	0.27518	-0.58176	0.48413	30.2	13111	100
2025-3-27 20:26:36.567	WT901BLE68-01(48591DE3C19B)	-0.388	-0.552	0.333	6.592	-2.502	19.897	-76.24	23.55	-86.09	-73.892	-37.730	0.980	-0.59274	0.27518	-0.58176	0.48413	30.2	13111	100
2025-3-27 20:26:36.567	WT901BLE68-01(48591DE3C19B)	-0.388	-0.468	0.280	5.981	8.728	24.597	-76.14	23.84	-86.25	-73.892	-37.730	0.980	-0.59274	0.27518	-0.58176	0.48413	30.2	13111	100
2025-3-27 20:26:36.567	WT901BLE68-01(48591DE3C19B)	-0.388	-0.468	0.280	5.981	8.728	24.597	-76.03	24.13	-86.40	-73.892	-37.730	0.980	-0.59274	0.27518	-0.58176	0.48413	30.2	13111	100
2025-3-27 20:26:36.597	WT901BLE68-01(48591DE3C19B)	-0.388	-0.453	0.203	-0.305	8.118	28.076	-75.97	24.46	-86.53	-73.892	-37.730	0.980	-0.59274	0.27518	-0.58176	0.48413	30.2	13111	100
2025-3-27 20:26:36.597	WT901BLE68-01(48591DE3C19B)	-0.432	-0.453	0.203	-0.305	8.118	28.076	-75.92	24.79	-86.66	-73.892	-37.730	0.980	-0.59274	0.27518	-0.58176	0.48413	30.2	13111	100
2025-3-27 20:26:36.597	WT901BLE68-01(48591DE3C19B)	-0.489	-0.515	0.162	-5.554	1.282	26.367	-75.89	25.08	-86.72	-73.892	-37.730	0.980	-0.59274	0.27518	-0.58176	0.48413	30.2	13111	100
2025-3-27 20:26:36.597	WT901BLE68-01(48591DE3C19B)	-0.489	-0.604	0.188	-10.437	-15.503	21.667	-75.85	25.33	-86.70	-73.892	-37.730	0.980	-0.59274	0.27518	-0.58176	0.48413	30.2	13111	100
2025-3-27 20:26:36.654	WT901BLE68-01(48591DE3C19B)	-0.496	-0.604	0.188	-10.437	-15.503	21.667	-75.80	25.54	-86.59	-73.892	-37.730	0.980	-0.59274	0.27518	-0.58176	0.48413	30.2	13111	100
2025-3-27 20:26:36.654	WT901BLE68-01(48591DE3C19B)	-0.496	-0.669	0.249	-13.184	-35.828	18.494	-75.72	25.72	-86.37	-73.892	-37.730	0.980	-0.59274	0.27518	-0.58176	0.48413	30.2	13111	100
2025-3-27 20:26:36.654	WT901BLE68-01(48591DE3C19B)	-0.425	-0.669	0.249	-13.184	-35.828	18.494	-75.61	25.85	-86.04	-73.892	-37.730	0.980	-0.59274	0.27518	-0.58176	0.48413	30.2	13111	100
2025-3-27 20:26:36.655	WT901BLE68-01(48591DE3C19B)	-0.425	-0.680	0.276	-12.939	-45.349	21.240	-75.48	25.98	-85.67	-73.892	-37.730	0.980	-0.59274	0.27518	-0.58176	0.48413	30.2	13111	100
2025-3-27 20:26:36.683	WT901BLE68-01(48591DE3C19B)	-0.348	-0.680	0.276	-12.939	-45.349	21.240	-75.32	26.11	-85.23	-73.892	-37.730	0.980	-0.59274	0.27518	-0.58176	0.48413	30.2	13111	100
2025-3-27 20:26:36.684	WT901BLE68-01(48591DE3C19B)	-0.348	-0.620	0.252	-10.559	-41.504	29.846	-75.15	26.28	-84.80	-73.892	-37.730	0.980	-0.59274	0.27518	-0.58176	0.48413	30.2	13111	100
2025-3-27 20:26:36.684	WT901BLE68-01(48591DE3C19B)	-0.319	-0.620	0.252	-10.559	-41.504	29.846	-74.98	26.49	-84.38	-73.892	-37.730	0.980	-0.59274	0.27518	-0.58176	0.48413	30.2	13111	100
2025-3-27 20:26:36.684	WT901BLE68-01(48591DE3C19B)	-0.319	-0.579	0.217	-11.780	-31.738	39.246	-74.82	26.76	-84.00	-73.892	-37.730	0.980	-0.59274	0.27518	-0.58176	0.48413	30.2	13111	100
2025-3-27 20:26:36.716	WT901BLE68-01(48591DE3C19B)	-0.305	-0.579	0.217	-11.780	-31.738	39.246	-74.69	27.08	-83.64	-73.892	-37.730	0.980	-0.59274	0.27518	-0.58176	0.48413	30.2	13111	100
2025-3-27 20:26:36.716	WT901BLE68-01(48591DE3C19B)	-0.305	-0.603	0.194	-16.052	-27.954	46.875	-74.58	27.43	-83.30	-73.892	-37.730	0.980	-0.59274	0.27518	-0.58176	0.48413	30.2	13111	100
2025-3-27 20:26:36.716	WT901BLE68-01(48591DE3C19B)	-0.290	-0.603	0.194	-16.052	-27.954	46.875	-74.50	27.82	-82.96	-73.892	-37.730	0.980	-0.59274	0.27518	-0.58176	0.48413	30.2	13111	100
2025-3-27 20:26:36.716	WT901BLE68-01(48591DE3C19B)	-0.290	-0.704	0.173	-22.034	-29.480	52.856	-74.44	28.23	-82.60	-73.892	-37.730	0.980	-0.59274	0.27518	-0.58176	0.48413	30.2	13111	100
2025-3-27 20:26:36.774	WT901BLE68-01(48591DE3C19B)	-0.311	-0.704	0.173	-22.034	-29.480	52.856	-74.40	28.67	-82.22	-73.892	-37.730	0.980	-0.59274	0.27518	-0.58176	0.48413	30.2	13111	100
2025-3-27 20:26:36.774	WT901BLE68-01(48591DE3C19B)	-0.311	-0.958	0.134	-32.654	-31.738	49.133	-74.42	29.07	-81.82	-73.892	-37.730	0.980	-0.68298	0.31161	-0.53473	0.38779	30.2	13111	100
2025-3-27 20:26:36.774	WT901BLE68-01(48591DE3C19B)	-0.413	-0.958	0.134	-32.654	-31.738	49.133	-74.49	29.45	-81.40	-73.892	-37.730	0.980	-0.68298	0.31161	-0.53473	0.38779	30.2	13111	100
2025-3-27 20:26:36.774	WT901BLE68-01(48591DE3C19B)	-0.413	-1.545	0.114	-38.818	-34.119	31.250	-74.60	29.72	-81.00	-73.892	-37.730	0.980	-0.68298	0.31161	-0.53473	0.38779	30.2	13111	100
2025-3-27 20:26:36.803	WT901BLE68-01(48591DE3C19B)	-0.505	-1.545	0.114	-38.818	-34.119	31.250	-74.77	29.90	-80.60	-73.892	-37.730	0.980	-0.68298	0.31161	-0.53473	0.38779	30.2	13111	100
2025-3-27 20:26:36.803	WT901BLE68-01(48591DE3C19B)	-0.505	-2.001	0.096	-17.517	-39.856	13.611	-74.83	29.98	-80.19	-73.892	-37.730	0.980	-0.68298	0.31161	-0.53473	0.38779	30.2	13111	100
2025-3-27 20:26:36.803	WT901BLE68-01(48591DE3C19B)	-0.473	-2.001	0.096	-17.517	-39.856	13.611	-74.80	29.95	-79.77	-73.892	-37.730	0.980	-0.68298	0.31161	-0.53473	0.38779	30.2	13111	100
2025-3-27 20:26:36.803	WT901BLE68-01(48591DE3C19B)	-0.473	-1.815	0.124	3.113	-39.612	5.371	-74.69	29.88	-79.36	-73.892	-37.730	0.980	-0.68298	0.31161	-0.53473	0.38779	30.2	13111	100
2025-3-27 20:26:36.834	WT901BLE68-01(48591DE3C19B)	-0.339	-1.815	0.124	3.113	-39.612	5.371	-74.48	29.77	-78.97	-73.892	-37.730	0.980	-0.68298	0.31161	-0.53473	0.38779	30.2	13111	100
2025-3-27 20:26:36.834	WT901BLE68-01(48591DE3C19B)	-0.339	-1.506	0.116	5.310	-23.254	-3.113	-74.32	29.63	-78.68	-73.892	-37.730	0.980	-0.68298	0.31161	-0.53473	0.38779	30.2	13111	100
2025-3-27 20:26:36.834	WT901BLE68-01(48591DE3C19B)	-0.251	-1.506	0.116	5.310	-23.254	-3.113	-74.20	29.47	-78.50	-73.892	-37.730	0.980	-0.68298	0.31161	-0.53473	0.38779	30.2	13111	100
2025-3-27 20:26:36.834	WT901BLE68-01(48591DE3C19B)	-0.251	-1.361	0.101	8.850	13.062	-1.709	-74.17	29.37	-78.51	-73.892	-37.730	0.980	-0.68298	0.31161	-0.53473	0.38779	30.2	13111	100
2025-3-27 20:26:36.896	WT901BLE68-01(48591DE3C19B)	-0.245	-1.361	0.101	8.850	13.062	-1.709	-74.22	29.31	-78.72	-73.892	-37.730	0.980	-0.68298	0.31161	-0.53473	0.38779	30.2	13111	100
2025-3-27 20:26:36.896	WT901BLE68-01(48591DE3C19B)	-0.245	-1.130	0.113	13.367	35.278	-0.671	-74.31	29.29	-79.05	-73.892	-37.730	0.980	-0.68298	0.31161	-0.53473	0.38779	30.2	13111	100
2025-3-27 20:26:36.896	WT901BLE68-01(48591DE3C19B)	-0.169	-1.130	0.113	13.367	35.278	-0.671	-74.43	29.30	-79.50	-73.892	-37.730	0.980	-0.68298	0.31161	-0.53473	0.38779	30.2	13111	100
2025-3-27 20:26:36.896	WT901BLE68-01(48591DE3C19B)	-0.169	-0.835	0.123	9.521	35.156	0.732	-74.57	29.32	-79.94	-73.892	-37.730	0.980	-0.68298	0.31161	-0.53473	0.38779	30.2	13111	100
2025-3-27 20:26:36.954	WT901BLE68-01(48591DE3C19B)	-0.118	-0.835	0.123	9.521	35.156	0.732	-74.72	29.33	-80.38	-73.892	-37.730	0.980	-0.68298	0.31161	-0.53473	0.38779	30.2	13111	100
2025-3-27 20:26:36.954	WT901BLE68-01(48591DE3C19B)	-0.118	-0.672	0.103	-0.793	40.344	-5.188	-74.95	29.33	-80.85	-73.892	-37.730	0.980	-0.68298	0.31161	-0.53473	0.38779	30.2	13111	100
2025-3-27 20:26:36.954	WT901BLE68-01(48591DE3C19B)	-0.187	-0.672	0.103	-0.793	40.344	-5.188	-75.24	29.30	-81.36	-73.892	-37.730	0.980	-0.68298	0.31161	-0.53473	0.38779	30.2	13111	100
2025-3-27 20:26:36.954	WT901BLE68-01(48591DE3C19B)	-0.187	-0.623	0.082	-4.150	48.401	-14.343	-75.57	29.22	-81.92	-73.892	-37.730	0.980	-0.68298	0.31161	-0.53473	0.38779	30.2	13111	100
2025-3-27 20:26:36.956	WT901BLE68-01(48591DE3C19B)	-0.243	-0.623	0.082	-4.150	48.401	-14.343	-75.94	29.12	-82.53	-73.892	-37.730	0.980	-0.68298	0.31161	-0.53473	0.38779	30.2	13111	100
2025-3-27 20:26:36.956	WT901BLE68-01(48591DE3C19B)	-0.243	-0.594	0.071	-5.371	47.302	-19.653	-76.32	28.99	-83.14	-73.892	-37.730	0.980	-0.68298	0.31161	-0.53473	0.38779	30.2	13111	100
2025-3-27 20:26:36.956	WT901BLE68-01(48591DE3C19B)	-0.288	-0.594	0.071	-5.371	47.302	-19.653	-76.70	28.82	-83.75	-77.616	-33.222	7.056	-0.68298	0.31161	-0.53473	0.38779	30.2	13111	100
2025-3-27 20:26:36.956	WT901BLE68-01(48591DE3C19B)	-0.288	-0.560	0.091	-3.174	38.940	-24.536	-77.04	28.63	-84.31	-77.616	-33.222	7.056	-0.68298	0.31161	-0.53473	0.38779	30.2	13111	100
2025-3-27 20:26:37.14	WT901BLE68-01(48591DE3C19B)	-0.308	-0.560	0.091	-3.174	38.940	-24.536	-77.34	28.41	-84.83	-77.616	-33.222	7.056	-0.68298	0.31161	-0.53473	0.38779	30.2	13111	100
2025-3-27 20:26:37.14	WT901BLE68-01(48591DE3C19B)	-0.308	-0.520	0.136	1.221	23.071	-27.283	-77.59	28.15	-85.26	-77.616	-33.222	7.056	-0.68298	0.31161	-0.53473	0.38779	30.2	13111	100
2025-3-27 20:26:37.14	WT901BLE68-01(48591DE3C19B)	-0.302	-0.520	0.136	1.221	23.071	-27.283	-77.75	27.88	-85.60	-77.616	-33.222	7.056	-0.68298	0.31161	-0.53473	0.38779	30.2	13111	100
2025-3-27 20:26:37.14	WT901BLE68-01(48591DE3C19B)	-0.302	-0.493	0.174	7.080	8.972	-25.574	-77.85	27.60	-85.85	-77.616	-33.222	7.056	-0.68298	0.31161	-0.53473	0.38779	30.2	13111	100
2025-3-27 20:26:37.44	WT901BLE68-01(48591DE3C19B)	-0.305	-0.493	0.174	7.080	8.972	-25.574	-77.87	27.32	-86.03	-77.616	-33.222	7.056	-0.68298	0.31161	-0.53473	0.38779	30.2	13111	100
2025-3-27 20:26:37.44	WT901BLE68-01(48591DE3C19B)	-0.305	-0.472	0.175	15.076	-0.916	-20.569	-77.82	27.07	-86.15	-77.616	-33.222	7.056	-0.68298	0.31161	-0.53473	0.38779	30.2	13111	100
2025-3-27 20:26:37.44	WT901BLE68-01(48591DE3C19B)	-0.281	-0.472	0.175	15.076	-0.916	-20.569	-77.70	26.83	-86.21	-77.616	-33.222	7.056	-0.68298	0.31161	-0.53473	0.38779	30.2	13111	100
2025-3-27 20:26:37.44	WT901BLE68-01(48591DE3C19B)	-0.281	-0.439	0.133	20.142	-2.502	-14.282	-77.54	26.63	-86.25	-77.616	-33.222	7.056	-0.68298	0.31161	-0.53473	0.38779	30.2	13111	100
2025-3-27 20:26:37.74	WT901BLE68-01(48591DE3C19B)	-0.235	-0.439	0.133	20.142	-2.502	-14.282	-77.35	26.47	-86.29	-77.616	-33.222	7.056	-0.68298	0.31161	-0.53473	0.38779	30.2	13111	100
2025-3-27 20:26:37.74	WT901BLE68-01(48591DE3C19B)	-0.235	-0.435	0.106	23.682	9.644	-3.662	-77.17	26.43	-86.42	-77.616	-33.222	7.056	-0.68298	0.31161	-0.53473	0.38779	30.2	13111	100
2025-3-27 20:26:37.74	WT901BLE68-01(48591DE3C19B)	-0.250	-0.435	0.106	23.682	9.644	-3.662	-76.99	26.40	-86.56	-77.616	-33.222	7.056	-0.68298	0.31161	-0.53473	0.38779	30.2	13111	100
2025-3-27 20:26:37.74	WT901BLE68-01(48591DE3C19B)	-0.250	-0.550	0.134	23.193	31.128	7.751	-76.91	26.53	-86.90	-77.616	-33.222	7.056	-0.68298	0.31161	-0.53473	0.38779	30.2	13111	100
2025-3-27 20:26:37.134	WT901BLE68-01(48591DE3C19B)	-0.370	-0.550	0.134	23.193	31.128	7.751	-76.83	26.66	-87.24	-77.616	-33.222	7.056	-0.68298	0.31161	-0.53473	0.38779	30.2	13111	100
2025-3-27 20:26:37.134	WT901BLE68-01(48591DE3C19B)	-0.370	-0.771	0.197	21.118	44.739	14.099	-76.83	26.88	-87.70	-77.616	-33.222	7.056	-0.68298	0.31161	-0.53473	0.38779	30.2	13111	100
2025-3-27 20:26:37.134	WT901BLE68-01(48591DE3C19B)	-0.497	-0.771	0.197	21.118	44.739	14.099	-76.83	27.10	-88.17	-77.616	-33.222	7.056	-0.68298	0.31161	-0.53473	0.38779	30.2	13111	100
2025-3-27 20:26:37.134	WT901BLE68-01(48591DE3C19B)	-0.497	-1.103	0.219	11.658	57.373	1.709	-77.00	27.22	-88.81	-77.616	-33.222	7.056	-0.68298	0.31161	-0.53473	0.38779	30.2	13111	100
2025-3-27 20:26:37.166	WT901BLE68-01(48591DE3C19B)	-0.604	-1.103	0.219	11.658	57.373	1.709	-77.17	27.35	-89.44	-77.616	-33.222	7.056	-0.64340	0.30051	-0.55771	0.42963	30.2	13111	100
2025-3-27 20:26:37.166	WT901BLE68-01(48591DE3C19B)	-0.604	-1.520	0.285	14.771	70.435	-24.475	-77.41	27.25	-90.27	-77.616	-33.222	7.056	-0.64340	0.30051	-0.55771	0.42963	30.2	13111	100
2025-3-27 20:26:37.166	WT901BLE68-01(48591DE3C19B)	-0.766	-1.520	0.285	14.771	70.435	-24.475	-77.65	27.14	-91.10	-77.616	-33.222	7.056	-0.64340	0.30051	-0.55771	0.42963	30.2	13111	100
2025-3-27 20:26:37.166	WT901BLE68-01(48591DE3C19B)	-0.766	-1.810	0.397	15.991	80.505	-58.289	-77.95	26.71	-92.11	-77.616	-33.222	7.056	-0.64340	0.30051	-0.55771	0.42963	30.2	13111	100
2025-3-27 20:26:37.205	WT901BLE68-01(48591DE3C19B)	-0.993	-1.810	0.397	15.991	80.505	-58.289	-78.24	26.28	-93.11	-77.616	-33.222	7.056	-0.64340	0.30051	-0.55771	0.42963	30.2	13111	100
2025-3-27 20:26:37.205	WT901BLE68-01(48591DE3C19B)	-0.993	-1.851	0.452	27.710	90.637	-76.233	-78.47	25.71	-94.26	-77.616	-33.222	7.056	-0.64340	0.30051	-0.55771	0.42963	30.2	13111	100
2025-3-27 20:26:37.205	WT901BLE68-01(48591DE3C19B)	-0.955	-1.851	0.452	27.710	90.637	-76.233	-78.68	25.14	-95.38	-77.616	-33.222	7.056	-0.64340	0.30051	-0.55771	0.42963	30.2	13111	100
2025-3-27 20:26:37.205	WT901BLE68-01(48591DE3C19B)	-0.955	-1.306	0.464	34.729	108.643	-80.322	-78.89	24.56	-96.71	-77.616	-33.222	7.056	-0.64340	0.30051	-0.55771	0.42963	30.2	13111	100
2025-3-27 20:26:37.254	WT901BLE68-01(48591DE3C19B)	-0.804	-1.306	0.464	34.729	108.643	-80.322	-79.07	23.99	-98.01	-77.616	-33.222	7.056	-0.64340	0.30051	-0.55771	0.42963	30.2	13111	100
2025-3-27 20:26:37.254	WT901BLE68-01(48591DE3C19B)	-0.804	-0.916	0.430	23.560	108.521	-66.040	-79.34	23.57	-99.29	-77.616	-33.222	7.056	-0.64340	0.30051	-0.55771	0.42963	30.2	13111	100
2025-3-27 20:26:37.254	WT901BLE68-01(48591DE3C19B)	-0.673	-0.916	0.430	23.560	108.521	-66.040	-79.59	23.15	-100.56	-77.616	-33.222	7.056	-0.64340	0.30051	-0.55771	0.42963	30.2	13111	100
2025-3-27 20:26:37.254	WT901BLE68-01(48591DE3C19B)	-0.673	-0.690	0.359	8.301	73.303	-50.049	-79.82	22.83	-101.41	-77.616	-33.222	7.056	-0.64340	0.30051	-0.55771	0.42963	30.2	13111	100
2025-3-27 20:26:37.285	WT901BLE68-01(48591DE3C19B)	-0.693	-0.690	0.359	8.301	73.303	-50.049	-80.03	22.52	-102.27	-77.616	-33.222	7.056	-0.64340	0.30051	-0.55771	0.42963	30.2	13111	100
2025-3-27 20:26:37.285	WT901BLE68-01(48591DE3C19B)	-0.693	-0.560	0.329	-11.719	3.662	-35.278	-80.15	22.23	-102.35	-77.616	-33.222	7.056	-0.64340	0.30051	-0.55771	0.42963	30.2	13111	100
2025-3-27 20:26:37.285	WT901BLE68-01(48591DE3C19B)	-0.646	-0.560	0.329	-11.719	3.662	-35.278	-80.25	21.95	-102.45	-77.616	-33.222	7.056	-0.64340	0.30051	-0.55771	0.42963	30.2	13111	100
2025-3-27 20:26:37.285	WT901BLE68-01(48591DE3C19B)	-0.646	-0.619	0.299	-33.386	-68.237	-26.123	-80.28	21.65	-101.78	-77.616	-33.222	7.056	-0.64340	0.30051	-0.55771	0.42963	30.2	13111	100
2025-3-27 20:26:37.316	WT901BLE68-01(48591DE3C19B)	-0.514	-0.619	0.299	-33.386	-68.237	-26.123	-80.31	21.36	-101.12	-77.616	-33.222	7.056	-0.64340	0.30051	-0.55771	0.42963	30.2	13111	100
2025-3-27 20:26:37.316	WT901BLE68-01(48591DE3C19B)	-0.514	-0.607	0.315	-29.114	-91.309	-12.756	-80.20	21.15	-100.20	-77.616	-33.222	7.056	-0.64340	0.30051	-0.55771	0.42963	30.2	13111	100
2025-3-27 20:26:37.316	WT901BLE68-01(48591DE3C19B)	-0.350	-0.607	0.315	-29.114	-91.309	-12.756	-80.09	20.95	-99.29	-77.616	-33.222	7.056	-0.64340	0.30051	-0.55771	0.42963	30.2	13111	100
2025-3-27 20:26:37.316	WT901BLE68-01(48591DE3C19B)	-0.350	-0.467	0.293	-21.362	-74.890	-10.620	-79.96	20.80	-98.55	-77.616	-33.222	7.056	-0.64340	0.30051	-0.55771	0.42963	30.2	13111	100
2025-3-27 20:26:37.374	WT901BLE68-01(48591DE3C19B)	-0.263	-0.467	0.293	-21.362	-74.890	-10.620	-79.83	20.64	-97.83	-77.616	-33.222	7.056	-0.64340	0.30051	-0.55771	0.42963	30.2	13111	100
2025-3-27 20:26:37.374	WT901BLE68-01(48591DE3C19B)	-0.263	-0.356	0.265	-13.733	-34.668	-8.301	-79.77	20.58	-97.54	-68.894	-41.748	7.840	-0.64340	0.30051	-0.55771	0.42963	30.2	13111	100
2025-3-27 20:26:37.374	WT901BLE68-01(48591DE3C19B)	-0.308	-0.356	0.265	-13.733	-34.668	-8.301	-79.71	20.51	-97.25	-68.894	-41.748	7.840	-0.64340	0.30051	-0.55771	0.42963	30.2	13111	100
2025-3-27 20:26:37.374	WT901BLE68-01(48591DE3C19B)	-0.308	-0.272	0.235	-4.456	4.944	-4.211	-79.68	20.56	-97.37	-68.894	-41.748	7.840	-0.64340	0.30051	-0.55771	0.42963	30.2	13111	100
2025-3-27 20:26:37.403	WT901BLE68-01(48591DE3C19B)	-0.330	-0.272	0.235	-4.456	4.944	-4.211	-79.66	20.60	-97.49	-68.894	-41.748	7.840	-0.64340	0.30051	-0.55771	0.42963	30.2	13111	100
2025-3-27 20:26:37.403	WT901BLE68-01(48591DE3C19B)	-0.330	-0.139	0.230	1.038	15.503	1.953	-79.61	20.73	-97.73	-68.894	-41.748	7.840	-0.64340	0.30051	-0.55771	0.42963	30.2	13111	100
2025-3-27 20:26:37.403	WT901BLE68-01(48591DE3C19B)	-0.314	-0.139	0.230	1.038	15.503	1.953	-79.54	20.86	-97.98	-68.894	-41.748	7.840	-0.64340	0.30051	-0.55771	0.42963	30.2	13111	100
2025-3-27 20:26:37.404	WT901BLE68-01(48591DE3C19B)	-0.314	-0.084	0.202	-4.761	5.981	10.620	-79.49	21.06	-98.12	-68.894	-41.748	7.840	-0.64340	0.30051	-0.55771	0.42963	30.2	13111	100
2025-3-27 20:26:37.494	WT901BLE68-01(48591DE3C19B)	-0.349	-0.084	0.202	-4.761	5.981	10.620	-79.43	21.26	-98.28	-68.894	-41.748	7.840	-0.64340	0.30051	-0.55771	0.42963	30.2	13111	100
2025-3-27 20:26:37.494	WT901BLE68-01(48591DE3C19B)	-0.349	-0.234	0.151	-17.456	-16.235	16.113	-79.40	21.48	-98.20	-68.894	-41.748	7.840	-0.64340	0.30051	-0.55771	0.42963	30.2	13111	100
2025-3-27 20:26:37.495	WT901BLE68-01(48591DE3C19B)	-0.395	-0.234	0.151	-17.456	-16.235	16.113	-79.37	21.70	-98.13	-68.894	-41.748	7.840	-0.64340	0.30051	-0.55771	0.42963	30.2	13111	100
2025-3-27 20:26:37.495	WT901BLE68-01(48591DE3C19B)	-0.395	-0.629	-0.014	-37.537	-45.044	13.000	-79.44	21.85	-97.74	-68.894	-41.748	7.840	-0.64340	0.30051	-0.55771	0.42963	30.2	13111	100
2025-3-27 20:26:37.496	WT901BLE68-01(48591DE3C19B)	-0.486	-0.629	-0.014	-37.537	-45.044	13.000	-79.54	21.99	-97.31	-68.894	-41.748	7.840	-0.64340	0.30051	-0.55771	0.42963	30.2	13111	100
2025-3-27 20:26:37.496	WT901BLE68-01(48591DE3C19B)	-0.486	-1.357	-0.089	-55.847	-69.946	3.601	-79.77	21.99	-96.58	-68.894	-41.748	7.840	-0.64340	0.30051	-0.55771	0.42963	30.2	13111	100
2025-3-27 20:26:37.496	WT901BLE68-01(48591DE3C19B)	-0.563	-1.357	-0.089	-55.847	-69.946	3.601	-80.02	21.98	-95.81	-68.894	-41.748	7.840	-0.64340	0.30051	-0.55771	0.42963	30.2	13111	100
2025-3-27 20:26:37.496	WT901BLE68-01(48591DE3C19B)	-0.563	-2.509	-0.190	-36.255	-83.862	-13.977	-80.07	21.74	-94.88	-68.894	-41.748	7.840	-0.64340	0.30051	-0.55771	0.42963	30.2	13111	100
2025-3-27 20:26:37.526	WT901BLE68-01(48591DE3C19B)	-0.497	-2.509	-0.190	-36.255	-83.862	-13.977	-80.15	21.48	-93.95	-68.894	-41.748	7.840	-0.64340	0.30051	-0.55771	0.42963	30.2	13111	100
2025-3-27 20:26:37.526	WT901BLE68-01(48591DE3C19B)	-0.372	-2.624	-0.123	19.653	-92.529	-8.606	-79.65	21.24	-92.91	-68.894	-41.748	7.840	-0.64340	0.30051	-0.55771	0.42963	30.2	13111	100
2025-3-27 20:26:37.526	WT901BLE68-01(48591DE3C19B)	-0.372	-1.815	-0.003	21.973	-64.758	-10.010	-79.19	20.99	-92.02	-68.894	-41.748	7.840	-0.64340	0.30051	-0.55771	0.42963	30.2	13111	100
2025-3-27 20:26:37.526	WT901BLE68-01(48591DE3C19B)	-0.226	-1.815	-0.003	21.973	-64.758	-10.010	-78.79	20.76	-91.29	-68.894	-41.748	7.840	-0.64340	0.30051	-0.55771	0.42963	30.2	13111	100
2025-3-27 20:26:37.614	WT901BLE68-01(48591DE3C19B)	-0.226	-1.710	0.003	13.367	-14.282	6.165	-78.52	20.64	-90.81	-68.894	-41.748	7.840	-0.64340	0.30051	-0.55771	0.42963	30.2	13111	100
2025-3-27 20:26:37.615	WT901BLE68-01(48591DE3C19B)	-0.162	-1.710	0.003	13.367	-14.282	6.165	-78.39	20.64	-90.58	-68.894	-41.748	7.840	-0.64340	0.30051	-0.55771	0.42963	30.2	13111	100
2025-3-27 20:26:37.615	WT901BLE68-01(48591DE3C19B)	-0.162	-1.311	0.108	20.142	21.057	22.522	-78.28	20.76	-90.52	-68.894	-41.748	7.840	-0.61771	0.33777	-0.53940	0.46182	30.2	13111	100
2025-3-27 20:26:37.615	WT901BLE68-01(48591DE3C19B)	-0.036	-1.311	0.108	20.142	21.057	22.522	-78.20	20.98	-90.63	-68.894	-41.748	7.840	-0.61771	0.33777	-0.53940	0.46182	30.2	13111	100
2025-3-27 20:26:37.616	WT901BLE68-01(48591DE3C19B)	-0.036	-0.891	0.237	7.690	35.828	34.729	-78.20	21.28	-90.81	-68.894	-41.748	7.840	-0.61771	0.33777	-0.53940	0.46182	30.2	13111	100
2025-3-27 20:26:37.616	WT901BLE68-01(48591DE3C19B)	-0.076	-0.891	0.237	7.690	35.828	34.729	-78.28	21.63	-91.05	-68.894	-41.748	7.840	-0.61771	0.33777	-0.53940	0.46182	30.2	13111	100
2025-3-27 20:26:37.616	WT901BLE68-01(48591DE3C19B)	-0.076	-0.829	0.275	-8.423	45.044	26.794	-78.46	21.96	-91.35	-68.894	-41.748	7.840	-0.61771	0.33777	-0.53940	0.46182	30.2	13111	100
2025-3-27 20:26:37.616	WT901BLE68-01(48591DE3C19B)	-0.265	-0.829	0.275	-8.423	45.044	26.794	-78.74	22.25	-91.71	-68.894	-41.748	7.840	-0.61771	0.33777	-0.53940	0.46182	30.2	13111	100
2025-3-27 20:26:37.646	WT901BLE68-01(48591DE3C19B)	-0.265	-0.876	0.182	-8.179	35.767	13.611	-79.00	22.46	-92.05	-68.894	-41.748	7.840	-0.61771	0.33777	-0.53940	0.46182	30.2	13111	100
2025-3-27 20:26:37.646	WT901BLE68-01(48591DE3C19B)	-0.302	-0.876	0.182	-8.179	35.767	13.611	-79.24	22.60	-92.35	-68.894	-41.748	7.840	-0.61771	0.33777	-0.53940	0.46182	30.2	13111	100
2025-3-27 20:26:37.646	WT901BLE68-01(48591DE3C19B)	-0.302	-0.677	0.078	1.953	24.048	3.662	-79.40	22.68	-92.60	-68.894	-41.748	7.840	-0.61771	0.33777	-0.53940	0.46182	30.2	13111	100
2025-3-27 20:26:37.646	WT901BLE68-01(48591DE3C19B)	-0.273	-0.677	0.078	1.953	24.048	3.662	-79.50	22.70	-92.79	-68.894	-41.748	7.840	-0.61771	0.33777	-0.53940	0.46182	30.2	13111	100
2025-3-27 20:26:37.674	WT901BLE68-01(48591DE3C19B)	-0.273	-0.375	0.063	9.766	24.780	1.282	-79.56	22.72	-92.99	-68.894	-41.748	7.840	-0.61771	0.33777	-0.53940	0.46182	30.2	13111	100
2025-3-27 20:26:37.675	WT901BLE68-01(48591DE3C19B)	-0.287	-0.375	0.063	9.766	24.780	1.282	-79.58	22.73	-93.20	-68.894	-41.748	7.840	-0.61771	0.33777	-0.53940	0.46182	30.2	13111	100
2025-3-27 20:26:37.675	WT901BLE68-01(48591DE3C19B)	-0.287	-0.197	0.089	9.399	20.020	9.705	-79.59	22.79	-93.36	-68.894	-41.748	7.840	-0.61771	0.33777	-0.53940	0.46182	30.2	13111	100
2025-3-27 20:26:37.675	WT901BLE68-01(48591DE3C19B)	-0.238	-0.197	0.089	9.399	20.020	9.705	-79.59	22.88	-93.50	-68.894	-41.748	7.840	-0.61771	0.33777	-0.53940	0.46182	30.2	13111	100
2025-3-27 20:26:37.734	WT901BLE68-01(48591DE3C19B)	-0.238	-0.250	0.111	9.216	5.920	18.921	-79.55	23.02	-93.55	-68.894	-41.748	7.840	-0.61771	0.33777	-0.53940	0.46182	30.2	13111	100
2025-3-27 20:26:37.734	WT901BLE68-01(48591DE3C19B)	-0.188	-0.250	0.111	9.216	5.920	18.921	-79.48	23.20	-93.53	-68.894	-41.748	7.840	-0.61771	0.33777	-0.53940	0.46182	30.2	13111	100
2025-3-27 20:26:37.734	WT901BLE68-01(48591DE3C19B)	-0.188	-0.297	0.079	18.005	-4.822	24.780	-79.34	23.40	-93.44	-68.894	-41.748	7.840	-0.61771	0.33777	-0.53940	0.46182	30.2	13111	100
2025-3-27 20:26:37.734	WT901BLE68-01(48591DE3C19B)	-0.191	-0.297	0.079	18.005	-4.822	24.780	-79.13	23.62	-93.28	-68.894	-41.748	7.840	-0.61771	0.33777	-0.53940	0.46182	30.2	13111	100
2025-3-27 20:26:37.767	WT901BLE68-01(48591DE3C19B)	-0.191	-0.265	0.077	25.757	-11.963	35.889	-78.86	23.89	-93.09	-68.894	-41.748	7.840	-0.61771	0.33777	-0.53940	0.46182	30.2	13111	100
2025-3-27 20:26:37.767	WT901BLE68-01(48591DE3C19B)	-0.213	-0.265	0.077	25.757	-11.963	35.889	-78.52	24.21	-92.83	-68.894	-41.748	7.840	-0.61771	0.33777	-0.53940	0.46182	30.2	13111	100
2025-3-27 20:26:37.767	WT901BLE68-01(48591DE3C19B)	-0.213	-0.314	0.099	20.691	-12.756	41.138	-78.21	24.55	-92.58	-68.894	-41.748	7.840	-0.61771	0.33777	-0.53940	0.46182	30.2	13111	100
2025-3-27 20:26:37.767	WT901BLE68-01(48591DE3C19B)	-0.248	-0.314	0.099	20.691	-12.756	41.138	-77.92	24.92	-92.31	-69.384	-47.824	11.662	-0.61771	0.33777	-0.53940	0.46182	30.2	13111	100
2025-3-27 20:26:37.823	WT901BLE68-01(48591DE3C19B)	-0.248	-0.517	0.153	13.916	-3.784	39.795	-77.67	25.30	-92.09	-69.384	-47.824	11.662	-0.61771	0.33777	-0.53940	0.46182	30.2	13111	100
2025-3-27 20:26:37.824	WT901BLE68-01(48591DE3C19B)	-0.313	-0.517	0.153	13.916	-3.784	39.795	-77.48	25.67	-91.93	-69.384	-47.824	11.662	-0.61771	0.33777	-0.53940	0.46182	30.2	13111	100
2025-3-27 20:26:37.824	WT901BLE68-01(48591DE3C19B)	-0.313	-0.740	0.195	9.888	13.123	33.752	-77.35	26.03	-91.88	-69.384	-47.824	11.662	-0.61771	0.33777	-0.53940	0.46182	30.2	13111	100
2025-3-27 20:26:37.824	WT901BLE68-01(48591DE3C19B)	-0.378	-0.740	0.195	9.888	13.123	33.752	-77.28	26.37	-91.92	-69.384	-47.824	11.662	-0.61771	0.33777	-0.53940	0.46182	30.2	13111	100
2025-3-27 20:26:37.853	WT901BLE68-01(48591DE3C19B)	-0.378	-1.080	0.229	-3.052	21.973	13.733	-77.31	26.63	-92.04	-69.384	-47.824	11.662	-0.61771	0.33777	-0.53940	0.46182	30.2	13111	100
2025-3-27 20:26:37.853	WT901BLE68-01(48591DE3C19B)	-0.572	-1.080	0.229	-3.052	21.973	13.733	-77.43	26.78	-92.23	-69.384	-47.824	11.662	-0.61771	0.33777	-0.53940	0.46182	30.2	13111	100
2025-3-27 20:26:37.853	WT901BLE68-01(48591DE3C19B)	-0.572	-1.766	0.347	-5.859	26.611	-36.377	-77.60	26.70	-92.51	-69.384	-47.824	11.662	-0.61771	0.33777	-0.53940	0.46182	30.2	13111	100
2025-3-27 20:26:37.853	WT901BLE68-01(48591DE3C19B)	-0.879	-1.766	0.347	-5.859	26.611	-36.377	-77.83	26.37	-92.87	-69.384	-47.824	11.662	-0.61771	0.33777	-0.53940	0.46182	30.2	13111	100
2025-3-27 20:26:37.884	WT901BLE68-01(48591DE3C19B)	-0.879	-2.160	0.423	8.850	23.560	-58.960	-77.99	25.92	-93.24	-69.384	-47.824	11.662	-0.61771	0.33777	-0.53940	0.46182	30.2	13111	100
2025-3-27 20:26:37.885	WT901BLE68-01(48591DE3C19B)	-1.034	-2.160	0.423	8.850	23.560	-58.960	-78.07	25.37	-93.60	-69.384	-47.824	11.662	-0.61771	0.33777	-0.53940	0.46182	30.2	13111	100
2025-3-27 20:26:37.885	WT901BLE68-01(48591DE3C19B)	-1.034	-1.619	0.512	30.212	20.325	-71.594	-78.04	24.75	-93.97	-69.384	-47.824	11.662	-0.61771	0.33777	-0.53940	0.46182	30.2	13111	100
2025-3-27 20:26:37.885	WT901BLE68-01(48591DE3C19B)	-0.802	-1.619	0.512	30.212	20.325	-71.594	-77.89	24.09	-94.33	-69.384	-47.824	11.662	-0.61771	0.33777	-0.53940	0.46182	30.2	13111	100
2025-3-27 20:26:37.943	WT901BLE68-01(48591DE3C19B)	-0.802	-1.239	0.436	20.203	27.405	-64.453	-77.79	23.47	-94.74	-69.384	-47.824	11.662	-0.61771	0.33777	-0.53940	0.46182	30.2	13111	100
2025-3-27 20:26:37.943	WT901BLE68-01(48591DE3C19B)	-0.580	-1.239	0.436	20.203	27.405	-64.453	-77.76	22.91	-95.17	-69.384	-47.824	11.662	-0.61771	0.33777	-0.53940	0.46182	30.2	13111	100
2025-3-27 20:26:37.944	WT901BLE68-01(48591DE3C19B)	-0.580	-1.095	0.298	13.733	29.114	-48.645	-77.74	22.44	-95.60	-69.384	-47.824	11.662	-0.61771	0.33777	-0.53940	0.46182	30.2	13111	100
2025-3-27 20:26:37.944	WT901BLE68-01(48591DE3C19B)	-0.471	-1.095	0.298	13.733	29.114	-48.645	-77.74	22.04	-96.02	-69.384	-47.824	11.662	-0.61771	0.33777	-0.53940	0.46182	30.2	13111	100
2025-3-27 20:26:37.973	WT901BLE68-01(48591DE3C19B)	-0.471	-0.870	0.229	13.123	-6.165	-23.926	-77.67	21.74	-96.22	-69.384	-47.824	11.662	-0.61771	0.33777	-0.53940	0.46182	30.2	13111	100
2025-3-27 20:26:37.973	WT901BLE68-01(48591DE3C19B)	-0.369	-0.870	0.229	13.123	-6.165	-23.926	-77.53	21.52	-96.21	-69.384	-47.824	11.662	-0.61771	0.33777	-0.53940	0.46182	30.2	13111	100
2025-3-27 20:26:37.973	WT901BLE68-01(48591DE3C19B)	-0.369	-0.750	0.201	-6.958	-49.561	-1.770	-77.39	21.36	-95.95	-69.384	-47.824	11.662	-0.61771	0.33777	-0.53940	0.46182	30.2	13111	100
2025-3-27 20:26:37.973	WT901BLE68-01(48591DE3C19B)	-0.301	-0.750	0.201	-6.958	-49.561	-1.770	-77.26	21.26	-95.44	-69.384	-47.824	11.662	-0.60312	0.30707	-0.55011	0.48907	30.2	13111	100
2025-3-27 20:26:38.94	WT901BLE68-01(48591DE3C19B)	-0.301	-0.803	0.190	-14.343	-52.612	16.052	-77.18	21.33	-94.87	-69.384	-47.824	11.662	-0.60312	0.30707	-0.55011	0.48907	30.2	13111	100
2025-3-27 20:26:38.95	WT901BLE68-01(48591DE3C19B)	-0.305	-0.803	0.190	-14.343	-52.612	16.052	-77.10	21.39	-94.29	-69.384	-47.824	11.662	-0.60312	0.30707	-0.55011	0.48907	30.2	13111	100
2025-3-27 20:26:38.95	WT901BLE68-01(48591DE3C19B)	-0.305	-0.726	0.192	-4.211	-24.597	28.259	-77.01	21.63	-93.98	-69.384	-47.824	11.662	-0.60312	0.30707	-0.55011	0.48907	30.2	13111	100
2025-3-27 20:26:38.95	WT901BLE68-01(48591DE3C19B)	-0.261	-0.726	0.192	-4.211	-24.597	28.259	-76.93	21.87	-93.67	-69.384	-47.824	11.662	-0.60312	0.30707	-0.55011	0.48907	30.2	13111	100
2025-3-27 20:26:38.96	WT901BLE68-01(48591DE3C19B)	-0.261	-0.500	0.223	-1.953	1.099	33.447	-76.91	22.21	-93.63	-69.384	-47.824	11.662	-0.60312	0.30707	-0.55011	0.48907	30.2	13111	100
2025-3-27 20:26:38.96	WT901BLE68-01(48591DE3C19B)	-0.173	-0.500	0.223	-1.953	1.099	33.447	-76.89	22.55	-93.59	-69.384	-47.824	11.662	-0.60312	0.30707	-0.55011	0.48907	30.2	13111	100
2025-3-27 20:26:38.96	WT901BLE68-01(48591DE3C19B)	-0.173	-0.267	0.250	-4.272	19.226	41.565	-76.95	23.02	-93.73	-69.384	-47.824	11.662	-0.60312	0.30707	-0.55011	0.48907	30.2	13111	100
2025-3-27 20:26:38.96	WT901BLE68-01(48591DE3C19B)	-0.104	-0.267	0.250	-4.272	19.226	41.565	-77.00	23.47	-93.88	-69.384	-47.824	11.662	-0.60312	0.30707	-0.55011	0.48907	30.2	13111	100
2025-3-27 20:26:38.97	WT901BLE68-01(48591DE3C19B)	-0.104	-0.133	0.246	-11.169	31.067	47.974	-77.16	24.01	-94.15	-69.384	-47.824	11.662	-0.60312	0.30707	-0.55011	0.48907	30.2	13111	100
2025-3-27 20:26:38.97	WT901BLE68-01(48591DE3C19B)	-0.161	-0.133	0.246	-11.169	31.067	47.974	-77.32	24.55	-94.44	-69.384	-47.824	11.662	-0.60312	0.30707	-0.55011	0.48907	30.2	13111	100
2025-3-27 20:26:38.97	WT901BLE68-01(48591DE3C19B)	-0.161	-0.216	0.210	-19.897	33.508	47.668	-77.57	25.08	-94.77	-69.384	-47.824	11.662	-0.60312	0.30707	-0.55011	0.48907	30.2	13111	100
2025-3-27 20:26:38.97	WT901BLE68-01(48591DE3C19B)	-0.312	-0.216	0.210	-19.897	33.508	47.668	-77.81	25.61	-95.12	-69.384	-47.824	11.662	-0.60312	0.30707	-0.55011	0.48907	30.2	13111	100
2025-3-27 20:26:38.126	WT901BLE68-01(48591DE3C19B)	-0.312	-0.435	0.177	-27.710	16.296	39.307	-78.06	26.02	-95.30	-69.384	-47.824	11.662	-0.60312	0.30707	-0.55011	0.48907	30.2	13111	100
2025-3-27 20:26:38.126	WT901BLE68-01(48591DE3C19B)	-0.382	-0.435	0.177	-27.710	16.296	39.307	-78.32	26.43	-95.49	-69.384	-47.824	11.662	-0.60312	0.30707	-0.55011	0.48907	30.2	13111	100
2025-3-27 20:26:38.126	WT901BLE68-01(48591DE3C19B)	-0.382	-0.743	0.106	-37.781	-18.555	26.489	-78.51	26.65	-95.33	-69.384	-47.824	11.662	-0.60312	0.30707	-0.55011	0.48907	30.2	13111	100
2025-3-27 20:26:38.126	WT901BLE68-01(48591DE3C19B)	-0.488	-0.743	0.106	-37.781	-18.555	26.489	-78.72	26.87	-95.15	-69.384	-47.824	11.662	-0.60312	0.30707	-0.55011	0.48907	30.2	13111	100
2025-3-27 20:26:38.185	WT901BLE68-01(48591DE3C19B)	-0.488	-1.339	0.022	-46.204	-53.711	5.859	-78.88	26.82	-94.62	-69.384	-47.824	11.662	-0.60312	0.30707	-0.55011	0.48907	30.2	13111	100
2025-3-27 20:26:38.185	WT901BLE68-01(48591DE3C19B)	-0.527	-1.339	0.022	-46.204	-53.711	5.859	-79.05	26.76	-94.06	-69.090	-58.506	6.370	-0.60312	0.30707	-0.55011	0.48907	30.2	13111	100
2025-3-27 20:26:38.185	WT901BLE68-01(48591DE3C19B)	-0.527	-2.317	-0.070	-32.166	-72.937	-35.217	-79.05	26.26	-93.35	-69.090	-58.506	6.370	-0.60312	0.30707	-0.55011	0.48907	30.2	13111	100
2025-3-27 20:26:38.185	WT901BLE68-01(48591DE3C19B)	-0.521	-2.317	-0.070	-32.166	-72.937	-35.217	-79.08	25.74	-92.63	-69.090	-58.506	6.370	-0.60312	0.30707	-0.55011	0.48907	30.2	13111	100
2025-3-27 20:26:38.213	WT901BLE68-01(48591DE3C19B)	-0.521	-2.563	-0.086	18.188	-78.613	-37.109	-78.60	25.19	-91.84	-69.090	-58.506	6.370	-0.60312	0.30707	-0.55011	0.48907	30.2	13111	100
2025-3-27 20:26:38.213	WT901BLE68-01(48591DE3C19B)	-0.381	-2.563	-0.086	18.188	-78.613	-37.109	-78.14	24.62	-91.05	-69.090	-58.506	6.370	-0.60312	0.30707	-0.55011	0.48907	30.2	13111	100
2025-3-27 20:26:38.213	WT901BLE68-01(48591DE3C19B)	-0.381	-1.557	0.011	43.579	-55.176	-43.579	-77.55	24.03	-90.55	-69.090	-58.506	6.370	-0.60312	0.30707	-0.55011	0.48907	30.2	13111	100
2025-3-27 20:26:38.214	WT901BLE68-01(48591DE3C19B)	-0.130	-1.557	0.011	43.579	-55.176	-43.579	-76.98	23.44	-90.05	-69.090	-58.506	6.370	-0.60312	0.30707	-0.55011	0.48907	30.2	13111	100
2025-3-27 20:26:38.244	WT901BLE68-01(48591DE3C19B)	-0.130	-1.184	0.091	27.161	2.136	-28.870	-76.81	23.12	-90.13	-69.090	-58.506	6.370	-0.60312	0.30707	-0.55011	0.48907	30.2	13111	100
2025-3-27 20:26:38.244	WT901BLE68-01(48591DE3C19B)	-0.078	-1.184	0.091	27.161	2.136	-28.870	-76.64	22.80	-90.22	-69.090	-58.506	6.370	-0.60312	0.30707	-0.55011	0.48907	30.2	13111	100
2025-3-27 20:26:38.244	WT901BLE68-01(48591DE3C19B)	-0.078	-0.971	0.188	26.428	63.782	-14.038	-76.70	22.75	-90.92	-69.090	-58.506	6.370	-0.60312	0.30707	-0.55011	0.48907	30.2	13111	100
2025-3-27 20:26:38.244	WT901BLE68-01(48591DE3C19B)	-0.159	-0.971	0.188	26.428	63.782	-14.038	-76.77	22.71	-91.61	-69.090	-58.506	6.370	-0.60312	0.30707	-0.55011	0.48907	30.2	13111	100
2025-3-27 20:26:38.304	WT901BLE68-01(48591DE3C19B)	-0.159	-0.725	0.262	18.066	81.055	-6.714	-76.97	22.77	-92.48	-69.090	-58.506	6.370	-0.60312	0.30707	-0.55011	0.48907	30.2	13111	100
2025-3-27 20:26:38.304	WT901BLE68-01(48591DE3C19B)	-0.230	-0.725	0.262	18.066	81.055	-6.714	-77.17	22.83	-93.34	-69.090	-58.506	6.370	-0.60312	0.30707	-0.55011	0.48907	30.2	13111	100
2025-3-27 20:26:38.305	WT901BLE68-01(48591DE3C19B)	-0.230	-0.653	0.296	-1.953	50.415	-7.874	-77.44	22.81	-93.89	-69.090	-58.506	6.370	-0.60312	0.30707	-0.55011	0.48907	30.2	13111	100
2025-3-27 20:26:38.305	WT901BLE68-01(48591DE3C19B)	-0.275	-0.653	0.296	-1.953	50.415	-7.874	-77.70	22.79	-94.44	-69.090	-58.506	6.370	-0.60312	0.30707	-0.55011	0.48907	30.2	13111	100
2025-3-27 20:26:38.336	WT901BLE68-01(48591DE3C19B)	-0.275	-0.638	0.265	-5.859	21.545	-9.460	-77.87	22.69	-94.70	-69.090	-58.506	6.370	-0.60312	0.30707	-0.55011	0.48907	30.2	13111	100
2025-3-27 20:26:38.336	WT901BLE68-01(48591DE3C19B)	-0.342	-0.638	0.265	-5.859	21.545	-9.460	-78.04	22.59	-94.96	-69.090	-58.506	6.370	-0.60312	0.30707	-0.55011	0.48907	30.2	13111	100
2025-3-27 20:26:38.336	WT901BLE68-01(48591DE3C19B)	-0.342	-0.528	0.187	-2.258	12.390	-7.935	-78.12	22.50	-95.13	-69.090	-58.506	6.370	-0.60312	0.30707	-0.55011	0.48907	30.2	13111	100
2025-3-27 20:26:38.336	WT901BLE68-01(48591DE3C19B)	-0.390	-0.528	0.187	-2.258	12.390	-7.935	-78.21	22.41	-95.30	-69.090	-58.506	6.370	-0.60312	0.30707	-0.55011	0.48907	30.2	13111	100
2025-3-27 20:26:38.366	WT901BLE68-01(48591DE3C19B)	-0.390	-0.381	0.132	3.906	3.296	0.061	-78.19	22.40	-95.37	-69.090	-58.506	6.370	-0.60312	0.30707	-0.55011	0.48907	30.2	13111	100
2025-3-27 20:26:38.367	WT901BLE68-01(48591DE3C19B)	-0.362	-0.381	0.132	3.906	3.296	0.061	-78.16	22.39	-95.44	-69.090	-58.506	6.370	-0.60312	0.30707	-0.55011	0.48907	30.2	13111	100
2025-3-27 20:26:38.367	WT901BLE68-01(48591DE3C19B)	-0.362	-0.300	0.106	5.493	-7.629	14.221	-78.06	22.51	-95.37	-69.090	-58.506	6.370	-0.60416	0.30319	-0.55869	0.48041	30.2	13111	100
2025-3-27 20:26:38.367	WT901BLE68-01(48591DE3C19B)	-0.242	-0.300	0.106	5.493	-7.629	14.221	-77.96	22.63	-95.31	-69.090	-58.506	6.370	-0.60416	0.30319	-0.55869	0.48041	30.2	13111	100
2025-3-27 20:26:38.424	WT901BLE68-01(48591DE3C19B)	-0.242	-0.286	0.103	9.644	-6.042	31.311	-77.81	22.93	-95.24	-69.090	-58.506	6.370	-0.60416	0.30319	-0.55869	0.48041	30.2	13111	100
2025-3-27 20:26:38.424	WT901BLE68-01(48591DE3C19B)	-0.226	-0.286	0.103	9.644	-6.042	31.311	-77.65	23.23	-95.17	-69.090	-58.506	6.370	-0.60416	0.30319	-0.55869	0.48041	30.2	13111	100
2025-3-27 20:26:38.424	WT901BLE68-01(48591DE3C19B)	-0.226	-0.364	0.097	11.780	4.883	37.354	-77.51	23.62	-95.21	-69.090	-58.506	6.370	-0.60416	0.30319	-0.55869	0.48041	30.2	13111	100
2025-3-27 20:26:38.425	WT901BLE68-01(48591DE3C19B)	-0.304	-0.364	0.097	11.780	4.883	37.354	-77.37	24.00	-95.26	-69.090	-58.506	6.370	-0.60416	0.30319	-0.55869	0.48041	30.2	13111	100
2025-3-27 20:26:38.453	WT901BLE68-01(48591DE3C19B)	-0.304	-0.528	0.107	13.733	14.709	39.856	-77.26	24.43	-95.40	-69.090	-58.506	6.370	-0.60416	0.30319	-0.55869	0.48041	30.2	13111	100
2025-3-27 20:26:38.453	WT901BLE68-01(48591DE3C19B)	-0.450	-0.528	0.107	13.733	14.709	39.856	-77.14	24.86	-95.54	-69.090	-58.506	6.370	-0.60416	0.30319	-0.55869	0.48041	30.2	13111	100
2025-3-27 20:26:38.453	WT901BLE68-01(48591DE3C19B)	-0.539	-0.728	0.159	12.512	16.296	34.119	-77.05	25.24	-95.72	-69.090	-58.506	6.370	-0.60416	0.30319	-0.55869	0.48041	30.2	13111	100
2025-3-27 20:26:38.453	WT901BLE68-01(48591DE3C19B)	-0.539	-1.061	0.136	2.502	11.108	20.874	-77.01	25.54	-95.88	-69.090	-58.506	6.370	-0.60416	0.30319	-0.55869	0.48041	30.2	13111	100
2025-3-27 20:26:38.486	WT901BLE68-01(48591DE3C19B)	-0.590	-1.061	0.136	2.502	11.108	20.874	-77.02	25.78	-96.03	-69.090	-58.506	6.370	-0.60416	0.30319	-0.55869	0.48041	30.2	13111	100
2025-3-27 20:26:38.486	WT901BLE68-01(48591DE3C19B)	-0.590	-1.572	0.188	8.606	12.695	-14.954	-77.03	25.85	-96.22	-69.090	-58.506	6.370	-0.60416	0.30319	-0.55869	0.48041	30.2	13111	100
2025-3-27 20:26:38.486	WT901BLE68-01(48591DE3C19B)	-0.751	-1.572	0.188	8.606	12.695	-14.954	-77.04	25.72	-96.46	-69.090	-58.506	6.370	-0.60416	0.30319	-0.55869	0.48041	30.2	13111	100
2025-3-27 20:26:38.486	WT901BLE68-01(48591DE3C19B)	-0.751	-1.954	0.295	11.230	16.724	-53.833	-77.06	25.42	-96.76	-69.090	-58.506	6.370	-0.60416	0.30319	-0.55869	0.48041	30.2	13111	100
2025-3-27 20:26:38.546	WT901BLE68-01(48591DE3C19B)	-1.012	-1.954	0.295	11.230	16.724	-53.833	-77.10	24.93	-97.12	-69.090	-58.506	6.370	-0.60416	0.30319	-0.55869	0.48041	30.2	13111	100
2025-3-27 20:26:38.546	WT901BLE68-01(48591DE3C19B)	-1.012	-1.825	0.382	25.208	30.334	-59.387	-77.11	24.42	-97.56	-69.090	-58.506	6.370	-0.60416	0.30319	-0.55869	0.48041	30.2	13111	100
2025-3-27 20:26:38.546	WT901BLE68-01(48591DE3C19B)	-0.805	-1.825	0.382	25.208	30.334	-59.387	-77.06	23.92	-98.09	-69.090	-58.506	6.370	-0.60416	0.30319	-0.55869	0.48041	30.2	13111	100
2025-3-27 20:26:38.547	WT901BLE68-01(48591DE3C19B)	-0.805	-1.263	0.426	21.912	48.889	-53.589	-77.07	23.47	-98.71	-69.090	-58.506	6.370	-0.60416	0.30319	-0.55869	0.48041	30.2	13111	100
2025-3-27 20:26:38.576	WT901BLE68-01(48591DE3C19B)	-0.569	-1.263	0.426	21.912	48.889	-53.589	-77.11	23.07	-99.44	-69.090	-58.506	6.370	-0.60416	0.30319	-0.55869	0.48041	30.2	13111	100
2025-3-27 20:26:38.576	WT901BLE68-01(48591DE3C19B)	-0.569	-0.995	0.414	6.409	65.857	-43.701	-77.26	22.75	-100.25	-69.090	-58.506	6.370	-0.60416	0.30319	-0.55869	0.48041	30.2	13111	100
2025-3-27 20:26:38.576	WT901BLE68-01(48591DE3C19B)	-0.459	-0.995	0.414	6.409	65.857	-43.701	-77.49	22.48	-101.15	-69.090	-58.506	6.370	-0.60416	0.30319	-0.55869	0.48041	30.2	13111	100
2025-3-27 20:26:38.576	WT901BLE68-01(48591DE3C19B)	-0.459	-0.765	0.329	0.977	48.462	-24.353	-77.70	22.30	-101.94	-66.640	-69.580	-0.196	-0.60416	0.30319	-0.55869	0.48041	30.2	13111	100
2025-3-27 20:26:38.606	WT901BLE68-01(48591DE3C19B)	-0.511	-0.765	0.329	0.977	48.462	-24.353	-77.89	22.19	-102.62	-66.640	-69.580	-0.196	-0.60416	0.30319	-0.55869	0.48041	30.2	13111	100
2025-3-27 20:26:38.606	WT901BLE68-01(48591DE3C19B)	-0.511	-0.544	0.247	-24.109	-24.597	-17.822	-78.05	22.04	-102.91	-66.640	-69.580	-0.196	-0.60416	0.30319	-0.55869	0.48041	30.2	13111	100
2025-3-27 20:26:38.606	WT901BLE68-01(48591DE3C19B)	-0.388	-0.544	0.247	-24.109	-24.597	-17.822	-78.18	21.84	-102.83	-66.640	-69.580	-0.196	-0.60416	0.30319	-0.55869	0.48041	30.2	13111	100
2025-3-27 20:26:38.606	WT901BLE68-01(48591DE3C19B)	-0.388	-0.577	0.174	-43.457	-95.093	-9.155	-78.26	21.63	-102.38	-66.640	-69.580	-0.196	-0.60416	0.30319	-0.55869	0.48041	30.2	13111	100
2025-3-27 20:26:38.667	WT901BLE68-01(48591DE3C19B)	-0.269	-0.577	0.174	-43.457	-95.093	-9.155	-78.30	21.38	-101.56	-66.640	-69.580	-0.196	-0.60416	0.30319	-0.55869	0.48041	30.2	13111	100
2025-3-27 20:26:38.667	WT901BLE68-01(48591DE3C19B)	-0.269	-0.512	0.166	-36.072	-95.581	-2.625	-78.30	21.17	-100.73	-66.640	-69.580	-0.196	-0.60416	0.30319	-0.55869	0.48041	30.2	13111	100
2025-3-27 20:26:38.667	WT901BLE68-01(48591DE3C19B)	-0.203	-0.512	0.166	-36.072	-95.581	-2.625	-78.27	20.99	-99.90	-66.640	-69.580	-0.196	-0.60416	0.30319	-0.55869	0.48041	30.2	13111	100
2025-3-27 20:26:38.668	WT901BLE68-01(48591DE3C19B)	-0.203	-0.355	0.148	-26.611	-59.021	0.366	-78.25	20.86	-99.27	-66.640	-69.580	-0.196	-0.60416	0.30319	-0.55869	0.48041	30.2	13111	100
2025-3-27 20:26:38.693	WT901BLE68-01(48591DE3C19B)	-0.185	-0.355	0.148	-26.611	-59.021	0.366	-78.26	20.79	-98.83	-66.640	-69.580	-0.196	-0.60416	0.30319	-0.55869	0.48041	30.2	13111	100
2025-3-27 20:26:38.694	WT901BLE68-01(48591DE3C19B)	-0.185	-0.225	0.132	-20.996	-13.245	7.507	-78.31	20.79	-98.62	-66.640	-69.580	-0.196	-0.60416	0.30319	-0.55869	0.48041	30.2	13111	100
2025-3-27 20:26:38.694	WT901BLE68-01(48591DE3C19B)	-0.227	-0.225	0.132	-20.996	-13.245	7.507	-78.42	20.87	-98.66	-66.640	-69.580	-0.196	-0.60416	0.30319	-0.55869	0.48041	30.2	13111	100
2025-3-27 20:26:38.694	WT901BLE68-01(48591DE3C19B)	-0.227	-0.176	0.142	-16.968	16.418	15.808	-78.56	21.03	-98.84	-66.640	-69.580	-0.196	-0.60416	0.30319	-0.55869	0.48041	30.2	13111	100
2025-3-27 20:26:38.726	WT901BLE68-01(48591DE3C19B)	-0.250	-0.176	0.142	-16.968	16.418	15.808	-78.72	21.26	-99.19	-66.640	-69.580	-0.196	-0.60416	0.30319	-0.55869	0.48041	30.2	13111	100
2025-3-27 20:26:38.726	WT901BLE68-01(48591DE3C19B)	-0.250	-0.207	0.153	-18.005	15.686	20.996	-78.88	21.51	-99.54	-66.640	-69.580	-0.196	-0.60416	0.30319	-0.55869	0.48041	30.2	13111	100
2025-3-27 20:26:38.726	WT901BLE68-01(48591DE3C19B)	-0.225	-0.207	0.153	-18.005	15.686	20.996	-79.03	21.79	-99.88	-66.640	-69.580	-0.196	-0.60416	0.30319	-0.55869	0.48041	30.2	13111	100
2025-3-27 20:26:38.726	WT901BLE68-01(48591DE3C19B)	-0.225	-0.337	0.132	-22.827	-2.686	18.921	-79.17	22.03	-100.15	-66.640	-69.580	-0.196	-0.60416	0.30319	-0.55869	0.48041	30.2	13111	100
2025-3-27 20:26:38.784	WT901BLE68-01(48591DE3C19B)	-0.231	-0.337	0.132	-22.827	-2.686	18.921	-79.29	22.25	-100.31	-66.640	-69.580	-0.196	-0.60416	0.30319	-0.55869	0.48041	30.2	13111	100
2025-3-27 20:26:38.785	WT901BLE68-01(48591DE3C19B)	-0.231	-0.580	0.077	-28.076	-23.193	11.841	-79.41	22.42	-100.37	-66.640	-69.580	-0.196	-0.57855	0.28632	-0.57709	0.50012	30.2	13111	100
2025-3-27 20:26:38.785	WT901BLE68-01(48591DE3C19B)	-0.297	-0.580	0.077	-28.076	-23.193	11.841	-79.52	22.52	-100.32	-66.640	-69.580	-0.196	-0.57855	0.28632	-0.57709	0.50012	30.2	13111	100
2025-3-27 20:26:38.785	WT901BLE68-01(48591DE3C19B)	-0.297	-0.992	-0.003	-38.513	-38.452	2.686	-79.67	22.57	-100.17	-66.640	-69.580	-0.196	-0.57855	0.28632	-0.57709	0.50012	30.2	13111	100
2025-3-27 20:26:38.813	WT901BLE68-01(48591DE3C19B)	-0.442	-0.992	-0.003	-38.513	-38.452	2.686	-79.87	22.55	-99.92	-66.640	-69.580	-0.196	-0.57855	0.28632	-0.57709	0.50012	30.2	13111	100
2025-3-27 20:26:38.813	WT901BLE68-01(48591DE3C19B)	-0.442	-1.926	-0.051	-42.603	-40.710	-10.010	-80.10	22.47	-99.64	-66.640	-69.580	-0.196	-0.57855	0.28632	-0.57709	0.50012	30.2	13111	100
2025-3-27 20:26:38.813	WT901BLE68-01(48591DE3C19B)	-0.520	-1.926	-0.051	-42.603	-40.710	-10.010	-80.38	22.30	-99.32	-66.640	-69.580	-0.196	-0.57855	0.28632	-0.57709	0.50012	30.2	13111	100
2025-3-27 20:26:38.813	WT901BLE68-01(48591DE3C19B)	-2.078	-2.951	-0.086	-11.169	-37.964	-29.602	-80.52	22.03	-99.01	-66.640	-69.580	-0.196	-0.57855	0.28632	-0.57709	0.50012	30.2	13111	100
2025-3-27 20:26:38.843	WT901BLE68-01(48591DE3C19B)	-0.570	-11.804	-0.344	-11.169	-37.964	-29.602	-80.55	21.65	-98.70	-66.640	-69.580	-0.196	-0.57855	0.28632	-0.57709	0.50012	30.2	13111	100
2025-3-27 20:26:38.844	WT901BLE68-01(48591DE3C19B)	-0.570	-2.293	0.073	49.011	-32.898	-19.531	-80.29	21.30	-98.38	-66.640	-69.580	-0.196	-0.57855	0.28632	-0.57709	0.50012	30.2	13111	100
2025-3-27 20:26:38.844	WT901BLE68-01(48591DE3C19B)	-0.295	-2.293	0.073	49.011	-32.898	-19.531	-79.74	21.01	-98.10	-66.640	-69.580	-0.196	-0.57855	0.28632	-0.57709	0.50012	30.2	13111	100
2025-3-27 20:26:38.844	WT901BLE68-01(48591DE3C19B)	-0.295	-1.605	0.133	22.339	-9.155	-14.587	-79.38	20.76	-97.94	-66.640	-69.580	-0.196	-0.57855	0.28632	-0.57709	0.50012	30.2	13111	100
2025-3-27 20:26:38.906	WT901BLE68-01(48591DE3C19B)	-0.144	-1.605	0.133	22.339	-9.155	-14.587	-79.19	20.56	-97.90	-66.640	-69.580	-0.196	-0.57855	0.28632	-0.57709	0.50012	30.2	13111	100
2025-3-27 20:26:38.906	WT901BLE68-01(48591DE3C19B)	-0.144	-1.413	0.237	20.813	28.625	-1.160	-79.08	20.46	-98.05	-66.640	-69.580	-0.196	-0.57855	0.28632	-0.57709	0.50012	30.2	13111	100
2025-3-27 20:26:38.906	WT901BLE68-01(48591DE3C19B)	-0.170	-1.413	0.237	20.813	28.625	-1.160	-79.03	20.46	-98.39	-66.640	-69.580	-0.196	-0.57855	0.28632	-0.57709	0.50012	30.2	13111	100
2025-3-27 20:26:38.906	WT901BLE68-01(48591DE3C19B)	-0.170	-1.016	0.353	18.311	46.753	11.108	-79.02	20.53	-98.82	-66.640	-69.580	-0.196	-0.57855	0.28632	-0.57709	0.50012	30.2	13111	100
2025-3-27 20:26:38.936	WT901BLE68-01(48591DE3C19B)	-0.210	-1.016	0.353	18.311	46.753	11.108	-79.05	20.68	-99.32	-66.640	-69.580	-0.196	-0.57855	0.28632	-0.57709	0.50012	30.2	13111	100
2025-3-27 20:26:38.936	WT901BLE68-01(48591DE3C19B)	-0.210	-0.676	0.410	7.996	34.363	7.690	-79.13	20.77	-99.72	-66.640	-69.580	-0.196	-0.57855	0.28632	-0.57709	0.50012	30.2	13111	100
2025-3-27 20:26:38.936	WT901BLE68-01(48591DE3C19B)	-0.239	-0.676	0.410	7.996	34.363	7.690	-79.21	20.86	-100.11	-66.640	-69.580	-0.196	-0.57855	0.28632	-0.57709	0.50012	30.2	13111	100
2025-3-27 20:26:38.936	WT901BLE68-01(48591DE3C19B)	-0.239	-0.474	0.395	3.113	11.841	4.028	-79.24	20.88	-100.29	-66.640	-69.580	-0.196	-0.57855	0.28632	-0.57709	0.50012	30.2	13111	100
2025-3-27 20:26:38.966	WT901BLE68-01(48591DE3C19B)	-0.209	-0.474	0.395	3.113	11.841	4.028	-79.28	20.90	-100.48	-66.640	-69.580	-0.196	-0.57855	0.28632	-0.57709	0.50012	30.2	13111	100
2025-3-27 20:26:38.966	WT901BLE68-01(48591DE3C19B)	-0.209	-0.320	0.278	3.723	8.850	5.737	-79.28	20.92	-100.63	-66.640	-69.580	-0.196	-0.57855	0.28632	-0.57709	0.50012	30.2	13111	100
2025-3-27 20:26:38.966	WT901BLE68-01(48591DE3C19B)	-0.246	-0.320	0.278	3.723	8.850	5.737	-79.28	20.96	-100.79	-72.226	-71.932	-11.074	-0.57855	0.28632	-0.57709	0.50012	30.2	13111	100
2025-3-27 20:26:38.967	WT901BLE68-01(48591DE3C19B)	-0.246	-0.213	0.104	10.376	19.592	14.160	-79.24	21.09	-101.06	-72.226	-71.932	-11.074	-0.57855	0.28632	-0.57709	0.50012	30.2	13111	100
2025-3-27 20:26:39.25	WT901BLE68-01(48591DE3C19B)	-0.308	-0.213	0.104	10.376	19.592	14.160	-79.21	21.24	-101.33	-72.226	-71.932	-11.074	-0.57855	0.28632	-0.57709	0.50012	30.2	13111	100
2025-3-27 20:26:39.25	WT901BLE68-01(48591DE3C19B)	-0.308	-0.158	0.037	14.587	20.569	25.635	-79.12	21.50	-101.59	-72.226	-71.932	-11.074	-0.57855	0.28632	-0.57709	0.50012	30.2	13111	100
2025-3-27 20:26:39.25	WT901BLE68-01(48591DE3C19B)	-0.295	-0.158	0.037	14.587	20.569	25.635	-79.04	21.77	-101.86	-72.226	-71.932	-11.074	-0.57855	0.28632	-0.57709	0.50012	30.2	13111	100
2025-3-27 20:26:39.25	WT901BLE68-01(48591DE3C19B)	-0.295	-0.156	0.065	14.343	13.428	39.734	-78.91	22.18	-102.03	-72.226	-71.932	-11.074	-0.57855	0.28632	-0.57709	0.50012	30.2	13111	100
2025-3-27 20:26:39.53	WT901BLE68-01(48591DE3C19B)	-0.297	-0.156	0.065	14.343	13.428	39.734	-78.79	22.59	-102.21	-72.226	-71.932	-11.074	-0.57855	0.28632	-0.57709	0.50012	30.2	13111	100
2025-3-27 20:26:39.53	WT901BLE68-01(48591DE3C19B)	-0.297	-0.212	0.106	11.719	4.395	46.936	-78.65	23.05	-102.28	-72.226	-71.932	-11.074	-0.57855	0.28632	-0.57709	0.50012	30.2	13111	100
2025-3-27 20:26:39.53	WT901BLE68-01(48591DE3C19B)	-0.316	-0.212	0.106	11.719	4.395	46.936	-78.50	23.53	-102.37	-72.226	-71.932	-11.074	-0.57855	0.28632	-0.57709	0.50012	30.2	13111	100
2025-3-27 20:26:39.53	WT901BLE68-01(48591DE3C19B)	-0.316	-0.374	0.130	6.897	-4.944	48.767	-78.35	24.00	-102.37	-72.226	-71.932	-11.074	-0.57855	0.28632	-0.57709	0.50012	30.2	13111	100
2025-3-27 20:26:39.84	WT901BLE68-01(48591DE3C19B)	-0.396	-0.374	0.130	6.897	-4.944	48.767	-78.20	24.48	-102.36	-72.226	-71.932	-11.074	-0.57855	0.28632	-0.57709	0.50012	30.2	13111	100
2025-3-27 20:26:39.84	WT901BLE68-01(48591DE3C19B)	-0.396	-0.614	0.145	1.831	-13.916	44.861	-78.06	24.90	-102.28	-72.226	-71.932	-11.074	-0.57855	0.28632	-0.57709	0.50012	30.2	13111	100
2025-3-27 20:26:39.84	WT901BLE68-01(48591DE3C19B)	-0.474	-0.614	0.145	1.831	-13.916	44.861	-77.93	25.32	-102.19	-72.226	-71.932	-11.074	-0.57855	0.28632	-0.57709	0.50012	30.2	13111	100
2025-3-27 20:26:39.85	WT901BLE68-01(48591DE3C19B)	-0.474	-0.972	0.186	-5.310	-22.766	31.677	-77.83	25.59	-102.04	-72.226	-71.932	-11.074	-0.57855	0.28632	-0.57709	0.50012	30.2	13111	100
2025-3-27 20:26:39.146	WT901BLE68-01(48591DE3C19B)	-0.550	-0.972	0.186	-5.310	-22.766	31.677	-77.74	25.86	-101.88	-72.226	-71.932	-11.074	-0.57855	0.28632	-0.57709	0.50012	30.2	13111	100
2025-3-27 20:26:39.147	WT901BLE68-01(48591DE3C19B)	-0.550	-1.711	0.245	-7.690	-21.057	-4.761	-77.72	25.77	-101.82	-72.226	-71.932	-11.074	-0.57855	0.28632	-0.57709	0.50012	30.2	13111	100
2025-3-27 20:26:39.147	WT901BLE68-01(48591DE3C19B)	-0.642	-1.711	0.245	-7.690	-21.057	-4.761	-77.71	25.67	-101.73	-72.226	-71.932	-11.074	-0.57855	0.28632	-0.57709	0.50012	30.2	13111	100
2025-3-27 20:26:39.147	WT901BLE68-01(48591DE3C19B)	-0.642	-2.470	0.222	0.000	-7.690	-51.392	-77.74	25.14	-101.89	-72.226	-71.932	-11.074	-0.57855	0.28632	-0.57709	0.50012	30.2	13111	100
2025-3-27 20:26:39.176	WT901BLE68-01(48591DE3C19B)	-0.930	-2.470	0.222	0.000	-7.690	-51.392	-77.78	24.59	-102.04	-72.226	-71.932	-11.074	-0.57855	0.28632	-0.57709	0.50012	30.2	13111	100
2025-3-27 20:26:39.176	WT901BLE68-01(48591DE3C19B)	-0.930	-2.052	0.345	33.936	18.005	-63.660	-77.61	23.99	-102.49	-72.226	-71.932	-11.074	-0.57855	0.28632	-0.57709	0.50012	30.2	13111	100
2025-3-27 20:26:39.176	WT901BLE68-01(48591DE3C19B)	-0.847	-2.052	0.345	33.936	18.005	-63.660	-77.43	23.40	-102.94	-72.226	-71.932	-11.074	-0.57855	0.28632	-0.57709	0.50012	30.2	13111	100
2025-3-27 20:26:39.176	WT901BLE68-01(48591DE3C19B)	-0.847	-1.278	0.486	22.217	37.231	-62.195	-77.44	22.87	-103.60	-72.226	-71.932	-11.074	-0.57034	0.25754	-0.57748	0.52420	30.2	13111	100
2025-3-27 20:26:39.234	WT901BLE68-01(48591DE3C19B)	-0.622	-1.278	0.486	22.217	37.231	-62.195	-77.44	22.36	-104.27	-72.226	-71.932	-11.074	-0.57034	0.25754	-0.57748	0.52420	30.2	13111	100
2025-3-27 20:26:39.234	WT901BLE68-01(48591DE3C19B)	-0.622	-0.907	0.558	11.536	58.899	-46.265	-77.59	22.04	-105.13	-72.226	-71.932	-11.074	-0.57034	0.25754	-0.57748	0.52420	30.2	13111	100
2025-3-27 20:26:39.235	WT901BLE68-01(48591DE3C19B)	-0.413	-0.907	0.558	11.536	58.899	-46.265	-77.73	21.73	-106.01	-72.226	-71.932	-11.074	-0.57034	0.25754	-0.57748	0.52420	30.2	13111	100
2025-3-27 20:26:39.235	WT901BLE68-01(48591DE3C19B)	-0.413	-0.625	0.417	2.258	55.481	-21.851	-77.92	21.65	-106.80	-72.226	-71.932	-11.074	-0.57034	0.25754	-0.57748	0.52420	30.2	13111	100
2025-3-27 20:26:39.267	WT901BLE68-01(48591DE3C19B)	-0.348	-0.625	0.417	2.258	55.481	-21.851	-78.10	21.57	-107.59	-72.226	-71.932	-11.074	-0.57034	0.25754	-0.57748	0.52420	30.2	13111	100
2025-3-27 20:26:39.267	WT901BLE68-01(48591DE3C19B)	-0.348	-0.488	0.270	-19.226	-5.127	-7.996	-78.24	21.49	-107.72	-72.226	-71.932	-11.074	-0.57034	0.25754	-0.57748	0.52420	30.2	13111	100
2025-3-27 20:26:39.268	WT901BLE68-01(48591DE3C19B)	-0.324	-0.488	0.270	-19.226	-5.127	-7.996	-78.38	21.43	-107.85	-72.226	-71.932	-11.074	-0.57034	0.25754	-0.57748	0.52420	30.2	13111	100
2025-3-27 20:26:39.268	WT901BLE68-01(48591DE3C19B)	-0.324	-0.648	0.183	-40.100	-73.364	2.808	-78.46	21.32	-107.25	-72.226	-71.932	-11.074	-0.57034	0.25754	-0.57748	0.52420	30.2	13111	100
2025-3-27 20:26:39.294	WT901BLE68-01(48591DE3C19B)	-0.419	-0.648	0.183	-40.100	-73.364	2.808	-78.54	21.23	-106.64	-72.226	-71.932	-11.074	-0.57034	0.25754	-0.57748	0.52420	30.2	13111	100
2025-3-27 20:26:39.294	WT901BLE68-01(48591DE3C19B)	-0.419	-0.854	0.161	-29.541	-83.496	15.564	-78.46	21.24	-105.91	-72.226	-71.932	-11.074	-0.57034	0.25754	-0.57748	0.52420	30.2	13111	100
2025-3-27 20:26:39.294	WT901BLE68-01(48591DE3C19B)	-0.445	-0.854	0.161	-29.541	-83.496	15.564	-78.39	21.24	-105.17	-72.226	-71.932	-11.074	-0.57034	0.25754	-0.57748	0.52420	30.2	13111	100
2025-3-27 20:26:39.294	WT901BLE68-01(48591DE3C19B)	-0.445	-0.784	0.130	-8.850	-55.664	14.343	-78.22	21.29	-104.73	-72.226	-71.932	-11.074	-0.57034	0.25754	-0.57748	0.52420	30.2	13111	100
2025-3-27 20:26:39.356	WT901BLE68-01(48591DE3C19B)	-0.332	-0.784	0.130	-8.850	-55.664	14.343	-78.06	21.34	-104.28	-72.226	-71.932	-11.074	-0.57034	0.25754	-0.57748	0.52420	30.2	13111	100
2025-3-27 20:26:39.356	WT901BLE68-01(48591DE3C19B)	-0.332	-0.491	0.126	0.977	-16.174	19.592	-77.94	21.53	-104.24	-72.226	-71.932	-11.074	-0.57034	0.25754	-0.57748	0.52420	30.2	13111	100
2025-3-27 20:26:39.356	WT901BLE68-01(48591DE3C19B)	-0.214	-0.491	0.126	0.977	-16.174	19.592	-77.83	21.71	-104.21	-72.226	-71.932	-11.074	-0.57034	0.25754	-0.57748	0.52420	30.2	13111	100
2025-3-27 20:26:39.356	WT901BLE68-01(48591DE3C19B)	-0.214	-0.216	0.140	4.456	19.226	34.851	-77.80	22.13	-104.50	-72.226	-71.932	-11.074	-0.57034	0.25754	-0.57748	0.52420	30.2	13111	100
2025-3-27 20:26:39.385	WT901BLE68-01(48591DE3C19B)	-0.138	-0.216	0.140	4.456	19.226	34.851	-77.77	22.53	-104.80	-72.226	-71.932	-11.074	-0.57034	0.25754	-0.57748	0.52420	30.2	13111	100
2025-3-27 20:26:39.385	WT901BLE68-01(48591DE3C19B)	-0.128	-0.066	0.168	0.732	31.189	47.546	-77.81	23.09	-105.21	-72.226	-71.932	-11.074	-0.57034	0.25754	-0.57748	0.52420	30.2	13111	100
2025-3-27 20:26:39.385	WT901BLE68-01(48591DE3C19B)	-0.128	-0.091	0.197	-11.719	26.978	54.321	-77.89	23.67	-105.59	-72.226	-71.932	-11.074	-0.57034	0.25754	-0.57748	0.52420	30.2	13111	100
2025-3-27 20:26:39.385	WT901BLE68-01(48591DE3C19B)	-0.265	-0.091	0.197	-11.719	26.978	54.321	-78.02	24.28	-105.95	-78.008	-70.560	-20.090	-0.57034	0.25754	-0.57748	0.52420	30.2	13111	100
2025-3-27 20:26:39.413	WT901BLE68-01(48591DE3C19B)	-0.265	-0.302	0.214	-29.297	-2.686	53.772	-78.17	24.85	-106.14	-78.008	-70.560	-20.090	-0.57034	0.25754	-0.57748	0.52420	30.2	13111	100
2025-3-27 20:26:39.413	WT901BLE68-01(48591DE3C19B)	-0.347	-0.302	0.214	-29.297	-2.686	53.772	-78.33	25.38	-106.19	-78.008	-70.560	-20.090	-0.57034	0.25754	-0.57748	0.52420	30.2	13111	100
2025-3-27 20:26:39.413	WT901BLE68-01(48591DE3C19B)	-0.347	-0.705	0.183	-49.133	-45.227	45.105	-78.49	25.83	-106.01	-78.008	-70.560	-20.090	-0.57034	0.25754	-0.57748	0.52420	30.2	13111	100
2025-3-27 20:26:39.414	WT901BLE68-01(48591DE3C19B)	-0.396	-0.705	0.183	-49.133	-45.227	45.105	-78.66	26.19	-105.61	-78.008	-70.560	-20.090	-0.57034	0.25754	-0.57748	0.52420	30.2	13111	100
2025-3-27 20:26:39.474	WT901BLE68-01(48591DE3C19B)	-0.396	-1.378	0.134	-58.960	-69.641	32.166	-78.82	26.46	-105.07	-78.008	-70.560	-20.090	-0.57034	0.25754	-0.57748	0.52420	30.2	13111	100
2025-3-27 20:26:39.474	WT901BLE68-01(48591DE3C19B)	-0.471	-1.378	0.134	-58.960	-69.641	32.166	-79.01	26.63	-104.40	-78.008	-70.560	-20.090	-0.57034	0.25754	-0.57748	0.52420	30.2	13111	100
2025-3-27 20:26:39.474	WT901BLE68-01(48591DE3C19B)	-0.471	-2.404	-0.019	-38.818	-72.449	-5.554	-79.12	26.61	-103.73	-78.008	-70.560	-20.090	-0.57034	0.25754	-0.57748	0.52420	30.2	13111	100
2025-3-27 20:26:39.474	WT901BLE68-01(48591DE3C19B)	-0.541	-2.404	-0.019	-38.818	-72.449	-5.554	-79.16	26.38	-103.06	-78.008	-70.560	-20.090	-0.57034	0.25754	-0.57748	0.52420	30.2	13111	100
2025-3-27 20:26:39.503	WT901BLE68-01(48591DE3C19B)	-0.541	-2.711	0.013	6.348	-67.688	-23.193	-79.02	26.07	-102.43	-78.008	-70.560	-20.090	-0.57034	0.25754	-0.57748	0.52420	30.2	13111	100
2025-3-27 20:26:39.503	WT901BLE68-01(48591DE3C19B)	-0.561	-2.711	0.013	6.348	-67.688	-23.193	-78.70	25.66	-101.83	-78.008	-70.560	-20.090	-0.57034	0.25754	-0.57748	0.52420	30.2	13111	100
2025-3-27 20:26:39.503	WT901BLE68-01(48591DE3C19B)	-0.561	-1.833	0.104	31.982	-50.476	-30.334	-78.30	25.24	-101.33	-78.008	-70.560	-20.090	-0.57034	0.25754	-0.57748	0.52420	30.2	13111	100
2025-3-27 20:26:39.504	WT901BLE68-01(48591DE3C19B)	-0.272	-1.833	0.104	31.982	-50.476	-30.334	-77.83	24.79	-100.93	-78.008	-70.560	-20.090	-0.57034	0.25754	-0.57748	0.52420	30.2	13111	100
2025-3-27 20:26:39.536	WT901BLE68-01(48591DE3C19B)	-0.272	-1.429	0.104	26.123	-10.925	-24.048	-77.48	24.42	-100.75	-78.008	-70.560	-20.090	-0.57034	0.25754	-0.57748	0.52420	30.2	13111	100
2025-3-27 20:26:39.536	WT901BLE68-01(48591DE3C19B)	-0.046	-1.429	0.104	26.123	-10.925	-24.048	-77.25	24.11	-100.77	-78.008	-70.560	-20.090	-0.57034	0.25754	-0.57748	0.52420	30.2	13111	100
2025-3-27 20:26:39.536	WT901BLE68-01(48591DE3C19B)	-0.046	-1.053	0.188	35.828	57.373	-9.460	-77.11	23.96	-101.13	-78.008	-70.560	-20.090	-0.57034	0.25754	-0.57748	0.52420	30.2	13111	100
2025-3-27 20:26:39.536	WT901BLE68-01(48591DE3C19B)	-0.048	-1.053	0.188	35.828	57.373	-9.460	-77.06	23.94	-101.84	-78.008	-70.560	-20.090	-0.57034	0.25754	-0.57748	0.52420	30.2	13111	100
2025-3-27 20:26:39.594	WT901BLE68-01(48591DE3C19B)	-0.048	-0.664	0.205	32.104	96.863	8.545	-77.11	24.05	-102.73	-78.008	-70.560	-20.090	-0.57034	0.25754	-0.57748	0.52420	30.2	13111	100
2025-3-27 20:26:39.595	WT901BLE68-01(48591DE3C19B)	-0.159	-0.664	0.205	32.104	96.863	8.545	-77.25	24.28	-103.82	-78.008	-70.560	-20.090	-0.57227	0.24408	-0.58350	0.52188	30.2	13111	100
2025-3-27 20:26:39.595	WT901BLE68-01(48591DE3C19B)	-0.159	-0.573	0.198	8.789	76.233	6.592	-77.46	24.48	-104.78	-78.008	-70.560	-20.090	-0.57227	0.24408	-0.58350	0.52188	30.2	13111	100
2025-3-27 20:26:39.595	WT901BLE68-01(48591DE3C19B)	-0.221	-0.573	0.198	8.789	76.233	6.592	-77.74	24.64	-105.64	-78.008	-70.560	-20.090	-0.57227	0.24408	-0.58350	0.52188	30.2	13111	100
2025-3-27 20:26:39.623	WT901BLE68-01(48591DE3C19B)	-0.221	-0.773	0.177	-4.883	33.875	0.427	-78.00	24.72	-106.29	-78.008	-70.560	-20.090	-0.57227	0.24408	-0.58350	0.52188	30.2	13111	100
2025-3-27 20:26:39.623	WT901BLE68-01(48591DE3C19B)	-0.326	-0.773	0.177	-4.883	33.875	0.427	-78.23	24.72	-106.71	-78.008	-70.560	-20.090	-0.57227	0.24408	-0.58350	0.52188	30.2	13111	100
2025-3-27 20:26:39.623	WT901BLE68-01(48591DE3C19B)	-0.326	-0.836	0.117	5.737	20.447	-3.479	-78.38	24.70	-107.07	-78.008	-70.560	-20.090	-0.57227	0.24408	-0.58350	0.52188	30.2	13111	100
2025-3-27 20:26:39.623	WT901BLE68-01(48591DE3C19B)	-0.394	-0.836	0.117	5.737	20.447	-3.479	-78.44	24.65	-107.35	-78.008	-70.560	-20.090	-0.57227	0.24408	-0.58350	0.52188	30.2	13111	100
2025-3-27 20:26:39.654	WT901BLE68-01(48591DE3C19B)	-0.394	-0.729	0.068	15.564	21.545	-9.644	-78.45	24.57	-107.66	-78.008	-70.560	-20.090	-0.57227	0.24408	-0.58350	0.52188	30.2	13111	100
2025-3-27 20:26:39.654	WT901BLE68-01(48591DE3C19B)	-0.388	-0.729	0.068	15.564	21.545	-9.644	-78.43	24.47	-107.97	-78.008	-70.560	-20.090	-0.57227	0.24408	-0.58350	0.52188	30.2	13111	100
2025-3-27 20:26:39.654	WT901BLE68-01(48591DE3C19B)	-0.388	-0.557	0.071	22.278	27.771	-5.798	-78.38	24.40	-108.31	-78.008	-70.560	-20.090	-0.57227	0.24408	-0.58350	0.52188	30.2	13111	100
2025-3-27 20:26:39.654	WT901BLE68-01(48591DE3C19B)	-0.337	-0.557	0.071	22.278	27.771	-5.798	-78.32	24.36	-108.69	-78.008	-70.560	-20.090	-0.57227	0.24408	-0.58350	0.52188	30.2	13111	100
2025-3-27 20:26:39.714	WT901BLE68-01(48591DE3C19B)	-0.337	-0.410	0.123	27.405	28.503	8.118	-78.22	24.40	-109.06	-78.008	-70.560	-20.090	-0.57227	0.24408	-0.58350	0.52188	30.2	13111	100
2025-3-27 20:26:39.714	WT901BLE68-01(48591DE3C19B)	-0.255	-0.410	0.123	27.405	28.503	8.118	-78.09	24.52	-109.42	-78.008	-70.560	-20.090	-0.57227	0.24408	-0.58350	0.52188	30.2	13111	100
2025-3-27 20:26:39.714	WT901BLE68-01(48591DE3C19B)	-0.255	-0.344	0.166	27.710	30.457	21.179	-77.95	24.70	-109.78	-78.008	-70.560	-20.090	-0.57227	0.24408	-0.58350	0.52188	30.2	13111	100
2025-3-27 20:26:39.715	WT901BLE68-01(48591DE3C19B)	-0.202	-0.344	0.166	27.710	30.457	21.179	-77.81	24.96	-110.14	-78.008	-70.560	-20.090	-0.57227	0.24408	-0.58350	0.52188	30.2	13111	100
2025-3-27 20:26:39.746	WT901BLE68-01(48591DE3C19B)	-0.202	-0.370	0.144	25.879	37.415	29.419	-77.68	25.27	-110.54	-78.008	-70.560	-20.090	-0.57227	0.24408	-0.58350	0.52188	30.2	13111	100
2025-3-27 20:26:39.746	WT901BLE68-01(48591DE3C19B)	-0.262	-0.370	0.144	25.879	37.415	29.419	-77.57	25.62	-110.96	-78.008	-70.560	-20.090	-0.57227	0.24408	-0.58350	0.52188	30.2	13111	100
2025-3-27 20:26:39.746	WT901BLE68-01(48591DE3C19B)	-0.262	-0.486	0.097	20.630	37.903	31.738	-77.49	25.98	-111.39	-78.008	-70.560	-20.090	-0.57227	0.24408	-0.58350	0.52188	30.2	13111	100
2025-3-27 20:26:39.746	WT901BLE68-01(48591DE3C19B)	-0.360	-0.486	0.097	20.630	37.903	31.738	-77.44	26.36	-111.82	-78.008	-70.560	-20.090	-0.57227	0.24408	-0.58350	0.52188	30.2	13111	100
2025-3-27 20:26:39.776	WT901BLE68-01(48591DE3C19B)	-0.360	-0.683	0.100	15.137	32.837	24.231	-77.42	26.70	-112.23	-78.008	-70.560	-20.090	-0.57227	0.24408	-0.58350	0.52188	30.2	13111	100
2025-3-27 20:26:39.776	WT901BLE68-01(48591DE3C19B)	-0.440	-0.683	0.100	15.137	32.837	24.231	-77.41	26.99	-112.62	-78.008	-70.560	-20.090	-0.57227	0.24408	-0.58350	0.52188	30.2	13111	100
2025-3-27 20:26:39.776	WT901BLE68-01(48591DE3C19B)	-0.440	-0.933	0.137	13.062	36.194	12.207	-77.43	27.23	-113.04	-79.380	-65.464	-24.794	-0.57227	0.24408	-0.58350	0.52188	30.2	13111	100
2025-3-27 20:26:39.776	WT901BLE68-01(48591DE3C19B)	-0.534	-0.933	0.137	13.062	36.194	12.207	-77.48	27.42	-113.49	-79.380	-65.464	-24.794	-0.57227	0.24408	-0.58350	0.52188	30.2	13111	100
2025-3-27 20:26:39.834	WT901BLE68-01(48591DE3C19B)	-0.534	-1.198	0.213	16.235	41.931	-14.954	-77.55	27.47	-114.02	-79.380	-65.464	-24.794	-0.57227	0.24408	-0.58350	0.52188	30.2	13111	100
2025-3-27 20:26:39.834	WT901BLE68-01(48591DE3C19B)	-0.582	-1.198	0.213	16.235	41.931	-14.954	-77.63	27.40	-114.60	-79.380	-65.464	-24.794	-0.57227	0.24408	-0.58350	0.52188	30.2	13111	100
2025-3-27 20:26:39.834	WT901BLE68-01(48591DE3C19B)	-0.582	-1.438	0.289	17.212	55.725	-41.016	-77.76	27.21	-115.28	-79.380	-65.464	-24.794	-0.57227	0.24408	-0.58350	0.52188	30.2	13111	100
2025-3-27 20:26:39.834	WT901BLE68-01(48591DE3C19B)	-0.812	-1.438	0.289	17.212	55.725	-41.016	-77.92	26.91	-116.07	-79.380	-65.464	-24.794	-0.57227	0.24408	-0.58350	0.52188	30.2	13111	100
2025-3-27 20:26:39.867	WT901BLE68-01(48591DE3C19B)	-0.812	-1.639	0.349	23.254	70.740	-50.415	-78.10	26.55	-117.03	-79.380	-65.464	-24.794	-0.57227	0.24408	-0.58350	0.52188	30.2	13111	100
2025-3-27 20:26:39.867	WT901BLE68-01(48591DE3C19B)	-0.839	-1.639	0.349	23.254	70.740	-50.415	-78.27	26.19	-118.00	-79.380	-65.464	-24.794	-0.57227	0.24408	-0.58350	0.52188	30.2	13111	100
2025-3-27 20:26:39.867	WT901BLE68-01(48591DE3C19B)	-0.839	-1.513	0.397	31.372	72.205	-59.998	-78.36	25.75	-119.00	-79.380	-65.464	-24.794	-0.57227	0.24408	-0.58350	0.52188	30.2	13111	100
2025-3-27 20:26:39.867	WT901BLE68-01(48591DE3C19B)	-0.701	-1.513	0.397	31.372	72.205	-59.998	-78.44	25.30	-120.00	-79.380	-65.464	-24.794	-0.57227	0.24408	-0.58350	0.52188	30.2	13111	100
2025-3-27 20:26:39.894	WT901BLE68-01(48591DE3C19B)	-0.701	-1.314	0.359	29.480	68.420	-59.875	-78.51	24.86	-120.95	-79.380	-65.464	-24.794	-0.57227	0.24408	-0.58350	0.52188	30.2	13111	100
2025-3-27 20:26:39.894	WT901BLE68-01(48591DE3C19B)	-0.563	-1.314	0.359	29.480	68.420	-59.875	-78.57	24.41	-121.90	-79.380	-65.464	-24.794	-0.57227	0.24408	-0.58350	0.52188	30.2	13111	100
2025-3-27 20:26:39.894	WT901BLE68-01(48591DE3C19B)	-0.563	-1.106	0.270	30.151	54.749	-44.189	-78.54	24.09	-122.67	-79.380	-65.464	-24.794	-0.57227	0.24408	-0.58350	0.52188	30.2	13111	100
2025-3-27 20:26:39.895	WT901BLE68-01(48591DE3C19B)	-0.490	-1.106	0.270	30.151	54.749	-44.189	-78.51	23.78	-123.44	-79.380	-65.464	-24.794	-0.57227	0.24408	-0.58350	0.52188	30.2	13111	100
2025-3-27 20:26:39.956	WT901BLE68-01(48591DE3C19B)	-0.490	-0.880	0.231	25.024	35.400	-25.269	-78.42	23.62	-123.96	-79.380	-65.464	-24.794	-0.57227	0.24408	-0.58350	0.52188	30.2	13111	100
2025-3-27 20:26:39.956	WT901BLE68-01(48591DE3C19B)	-0.472	-0.880	0.231	25.024	35.400	-25.269	-78.33	23.46	-124.48	-79.380	-65.464	-24.794	-0.57227	0.24408	-0.58350	0.52188	30.2	13111	100
2025-3-27 20:26:39.956	WT901BLE68-01(48591DE3C19B)	-0.472	-0.787	0.236	11.902	19.531	-16.113	-78.30	23.36	-124.82	-79.380	-65.464	-24.794	-0.57227	0.24408	-0.58350	0.52188	30.2	13111	100
2025-3-27 20:26:39.956	WT901BLE68-01(48591DE3C19B)	-0.467	-0.787	0.236	11.902	19.531	-16.113	-78.26	23.26	-125.15	-79.380	-65.464	-24.794	-0.57227	0.24408	-0.58350	0.52188	30.2	13111	100
2025-3-27 20:26:39.986	WT901BLE68-01(48591DE3C19B)	-0.467	-0.827	0.264	7.263	14.221	-8.911	-78.24	23.22	-125.42	-79.380	-65.464	-24.794	-0.57227	0.24408	-0.58350	0.52188	30.2	13111	100
2025-3-27 20:26:39.986	WT901BLE68-01(48591DE3C19B)	-0.489	-0.827	0.264	7.263	14.221	-8.911	-78.22	23.18	-125.69	-79.380	-65.464	-24.794	-0.57227	0.24408	-0.58350	0.52188	30.2	13111	100
2025-3-27 20:26:39.987	WT901BLE68-01(48591DE3C19B)	-0.489	-0.814	0.297	9.277	18.616	-10.315	-78.19	23.14	-126.01	-79.380	-65.464	-24.794	-0.57227	0.24408	-0.58350	0.52188	30.2	13111	100
2025-3-27 20:26:39.987	WT901BLE68-01(48591DE3C19B)	-0.479	-0.814	0.297	9.277	18.616	-10.315	-78.16	23.10	-126.34	-79.380	-65.464	-24.794	-0.45587	0.14005	-0.62131	0.62164	30.2	13111	100
2025-3-27 20:26:40.16	WT901BLE68-01(48591DE3C19B)	-0.479	-0.738	0.281	9.644	22.339	-14.709	-78.15	23.03	-126.72	-79.380	-65.464	-24.794	-0.45587	0.14005	-0.62131	0.62164	30.2	13111	100
2025-3-27 20:26:40.16	WT901BLE68-01(48591DE3C19B)	-0.480	-0.738	0.281	9.644	22.339	-14.709	-78.12	22.96	-127.10	-79.380	-65.464	-24.794	-0.45587	0.14005	-0.62131	0.62164	30.2	13111	100
2025-3-27 20:26:40.16	WT901BLE68-01(48591DE3C19B)	-0.480	-0.689	0.226	10.742	31.921	-18.677	-78.13	22.87	-127.59	-79.380	-65.464	-24.794	-0.45587	0.14005	-0.62131	0.62164	30.2	13111	100
2025-3-27 20:26:40.16	WT901BLE68-01(48591DE3C19B)	-0.513	-0.689	0.226	10.742	31.921	-18.677	-78.14	22.78	-128.08	-79.380	-65.464	-24.794	-0.45587	0.14005	-0.62131	0.62164	30.2	13111	100
2025-3-27 20:26:40.104	WT901BLE68-01(48591DE3C19B)	-0.513	-0.648	0.184	12.939	34.180	-22.461	-78.14	22.66	-128.62	-79.380	-65.464	-24.794	-0.45587	0.14005	-0.62131	0.62164	30.2	13111	100
2025-3-27 20:26:40.104	WT901BLE68-01(48591DE3C19B)	-0.527	-0.648	0.184	12.939	34.180	-22.461	-78.13	22.56	-129.15	-79.380	-65.464	-24.794	-0.45587	0.14005	-0.62131	0.62164	30.2	13111	100
2025-3-27 20:26:40.105	WT901BLE68-01(48591DE3C19B)	-0.527	-0.607	0.164	11.230	23.987	-25.513	-78.11	22.40	-129.59	-79.380	-65.464	-24.794	-0.45587	0.14005	-0.62131	0.62164	30.2	13111	100
2025-3-27 20:26:40.105	WT901BLE68-01(48591DE3C19B)	-0.511	-0.607	0.164	11.230	23.987	-25.513	-78.07	22.25	-130.03	-79.380	-65.464	-24.794	-0.45587	0.14005	-0.62131	0.62164	30.2	13111	100
2025-3-27 20:26:40.106	WT901BLE68-01(48591DE3C19B)	-0.511	-0.570	0.163	7.019	7.446	-26.245	-78.02	22.07	-130.31	-79.380	-65.464	-24.794	-0.45587	0.14005	-0.62131	0.62164	30.2	13111	100
2025-3-27 20:26:40.106	WT901BLE68-01(48591DE3C19B)	-0.503	-0.570	0.163	7.019	7.446	-26.245	-77.96	21.88	-130.59	-79.380	-65.464	-24.794	-0.45587	0.14005	-0.62131	0.62164	30.2	13111	100
2025-3-27 20:26:40.106	WT901BLE68-01(48591DE3C19B)	-0.503	-0.572	0.159	2.136	-9.460	-23.865	-77.88	21.70	-130.70	-79.380	-65.464	-24.794	-0.45587	0.14005	-0.62131	0.62164	30.2	13111	100
2025-3-27 20:26:40.106	WT901BLE68-01(48591DE3C19B)	-0.492	-0.572	0.159	2.136	-9.460	-23.865	-77.81	21.51	-130.81	-79.380	-65.464	-24.794	-0.45587	0.14005	-0.62131	0.62164	30.2	13111	100
2025-3-27 20:26:40.194	WT901BLE68-01(48591DE3C19B)	-0.492	-0.597	0.151	-1.831	-21.606	-19.775	-77.72	21.35	-130.79	-79.380	-65.464	-24.794	-0.45587	0.14005	-0.62131	0.62164	30.2	13111	100
2025-3-27 20:26:40.195	WT901BLE68-01(48591DE3C19B)	-0.469	-0.597	0.151	-1.831	-21.606	-19.775	-77.63	21.18	-130.77	-79.380	-65.464	-24.794	-0.45587	0.14005	-0.62131	0.62164	30.2	13111	100
2025-3-27 20:26:40.195	WT901BLE68-01(48591DE3C19B)	-0.469	-0.643	0.141	-4.028	-24.048	-13.428	-77.55	21.08	-130.71	-79.380	-65.464	-24.794	-0.45587	0.14005	-0.62131	0.62164	30.2	13111	100
2025-3-27 20:26:40.195	WT901BLE68-01(48591DE3C19B)	-0.436	-0.643	0.141	-4.028	-24.048	-13.428	-77.48	20.97	-130.65	-79.380	-65.464	-24.794	-0.45587	0.14005	-0.62131	0.62164	30.2	13111	100
2025-3-27 20:26:40.195	WT901BLE68-01(48591DE3C19B)	-0.436	-0.647	0.122	-4.578	-18.860	-6.958	-77.42	20.94	-130.63	-79.380	-65.464	-24.794	-0.45587	0.14005	-0.62131	0.62164	30.2	13111	100
2025-3-27 20:26:40.195	WT901BLE68-01(48591DE3C19B)	-0.407	-0.647	0.122	-4.578	-18.860	-6.958	-77.37	20.91	-130.61	-79.380	-65.464	-24.794	-0.45587	0.14005	-0.62131	0.62164	30.2	13111	100
2025-3-27 20:26:40.195	WT901BLE68-01(48591DE3C19B)	-0.407	-0.623	0.080	-7.935	-10.559	-0.977	-77.38	20.96	-130.65	-79.380	-65.464	-24.794	-0.45587	0.14005	-0.62131	0.62164	30.2	13111	100
2025-3-27 20:26:40.195	WT901BLE68-01(48591DE3C19B)	-0.392	-0.623	0.080	-7.935	-10.559	-0.977	-77.40	21.00	-130.69	-79.380	-65.464	-24.794	-0.45587	0.14005	-0.62131	0.62164	30.2	13111	100
2025-3-27 20:26:40.224	WT901BLE68-01(48591DE3C19B)	-0.392	-0.644	0.026	-17.456	-2.319	2.563	-77.55	21.10	-130.80	-79.380	-65.464	-24.794	-0.45587	0.14005	-0.62131	0.62164	30.2	13111	100
2025-3-27 20:26:40.224	WT901BLE68-01(48591DE3C19B)	-0.428	-0.644	0.026	-17.456	-2.319	2.563	-77.70	21.20	-130.91	-79.380	-65.464	-24.794	-0.45587	0.14005	-0.62131	0.62164	30.2	13111	100
2025-3-27 20:26:40.224	WT901BLE68-01(48591DE3C19B)	-0.428	-0.838	0.010	-31.311	1.892	-0.793	-78.01	21.27	-131.05	-79.380	-65.464	-24.794	-0.45587	0.14005	-0.62131	0.62164	30.2	13111	100
2025-3-27 20:26:40.224	WT901BLE68-01(48591DE3C19B)	-0.582	-0.838	0.010	-31.311	1.892	-0.793	-78.34	21.34	-131.19	-79.380	-65.464	-24.794	-0.45587	0.14005	-0.62131	0.62164	30.2	13111	100
2025-3-27 20:26:40.256	WT901BLE68-01(48591DE3C19B)	-0.582	-1.222	0.129	-40.405	-6.958	-8.118	-78.72	21.31	-131.23	-79.380	-65.464	-24.794	-0.45587	0.14005	-0.62131	0.62164	30.2	13111	100
2025-3-27 20:26:40.256	WT901BLE68-01(48591DE3C19B)	-0.753	-1.222	0.129	-40.405	-6.958	-8.118	-79.12	21.27	-131.26	-79.380	-65.464	-24.794	-0.45587	0.14005	-0.62131	0.62164	30.2	13111	100
2025-3-27 20:26:40.256	WT901BLE68-01(48591DE3C19B)	-0.753	-1.768	0.218	-41.565	-29.114	-14.709	-79.44	21.13	-131.06	-79.380	-65.464	-24.794	-0.45587	0.14005	-0.62131	0.62164	30.2	13111	100
2025-3-27 20:26:40.256	WT901BLE68-01(48591DE3C19B)	-0.671	-1.768	0.218	-41.565	-29.114	-14.709	-79.77	20.97	-130.83	-79.380	-65.464	-24.794	-0.45587	0.14005	-0.62131	0.62164	30.2	13111	100
2025-3-27 20:26:40.314	WT901BLE68-01(48591DE3C19B)	-0.519	-2.103	0.187	-32.593	-48.462	-16.907	-79.94	20.76	-130.40	-79.380	-65.464	-24.794	-0.45587	0.14005	-0.62131	0.62164	30.2	13111	100
2025-3-27 20:26:40.314	WT901BLE68-01(48591DE3C19B)	-0.519	-1.915	0.173	-13.672	-44.373	0.671	-80.02	20.63	-129.95	-79.380	-65.464	-24.794	-0.45587	0.14005	-0.62131	0.62164	30.2	13111	100
2025-3-27 20:26:40.315	WT901BLE68-01(48591DE3C19B)	-0.298	-1.915	0.173	-13.672	-44.373	0.671	-80.01	20.58	-129.50	-79.380	-65.464	-24.794	-0.45587	0.14005	-0.62131	0.62164	30.2	13111	100
2025-3-27 20:26:40.315	WT901BLE68-01(48591DE3C19B)	-0.298	-1.548	0.184	-12.939	-28.748	10.986	-80.02	20.58	-129.11	-79.380	-65.464	-24.794	-0.45587	0.14005	-0.62131	0.62164	30.2	13111	100
2025-3-27 20:26:40.373	WT901BLE68-01(48591DE3C19B)	-0.110	-1.548	0.184	-12.939	-28.748	10.986	-80.06	20.64	-128.78	-79.380	-65.464	-24.794	-0.45587	0.14005	-0.62131	0.62164	30.2	13111	100
2025-3-27 20:26:40.373	WT901BLE68-01(48591DE3C19B)	-0.110	-1.318	0.205	-13.306	-2.563	25.940	-80.14	20.79	-128.57	-79.380	-65.464	-24.794	-0.45587	0.14005	-0.62131	0.62164	30.2	13111	100
2025-3-27 20:26:40.373	WT901BLE68-01(48591DE3C19B)	-0.092	-1.318	0.205	-13.306	-2.563	25.940	-80.27	21.03	-128.48	-79.380	-65.464	-24.794	-0.45587	0.14005	-0.62131	0.62164	30.2	13111	100
2025-3-27 20:26:40.374	WT901BLE68-01(48591DE3C19B)	-0.092	-1.094	0.270	-16.785	19.775	33.691	-80.44	21.31	-128.49	-79.380	-65.464	-24.794	-0.45587	0.14005	-0.62131	0.62164	30.2	13111	100
2025-3-27 20:26:40.374	WT901BLE68-01(48591DE3C19B)	-0.130	-1.094	0.270	-16.785	19.775	33.691	-80.67	21.65	-128.61	-79.380	-65.464	-24.794	-0.45587	0.14005	-0.62131	0.62164	30.2	13111	100
2025-3-27 20:26:40.374	WT901BLE68-01(48591DE3C19B)	-0.130	-0.955	0.352	-20.203	22.461	34.363	-80.93	21.98	-128.74	-79.380	-65.464	-24.794	-0.45587	0.14005	-0.62131	0.62164	30.2	13111	100
2025-3-27 20:26:40.374	WT901BLE68-01(48591DE3C19B)	-0.147	-0.955	0.352	-20.203	22.461	34.363	-81.19	22.31	-128.89	-79.380	-65.464	-24.794	-0.45587	0.14005	-0.62131	0.62164	30.2	13111	100
2025-3-27 20:26:40.374	WT901BLE68-01(48591DE3C19B)	-0.147	-0.857	0.351	-21.667	15.991	32.410	-81.44	22.62	-129.01	-79.380	-65.464	-24.794	-0.45587	0.14005	-0.62131	0.62164	30.2	13111	100
2025-3-27 20:26:40.494	WT901BLE68-01(48591DE3C19B)	-0.167	-0.857	0.351	-21.667	15.991	32.410	-81.69	22.91	-129.09	-79.380	-65.464	-24.794	-0.45587	0.14005	-0.62131	0.62164	30.2	13111	100
2025-3-27 20:26:40.494	WT901BLE68-01(48591DE3C19B)	-0.167	-0.751	0.298	-19.043	10.986	29.358	-81.90	23.18	-129.16	-79.380	-65.464	-24.794	-0.45587	0.14005	-0.62131	0.62164	30.2	13111	100
2025-3-27 20:26:40.494	WT901BLE68-01(48591DE3C19B)	-0.169	-0.751	0.298	-19.043	10.986	29.358	-82.09	23.43	-129.19	-79.380	-65.464	-24.794	-0.45587	0.14005	-0.62131	0.62164	30.2	13111	100
2025-3-27 20:26:40.494	WT901BLE68-01(48591DE3C19B)	-0.169	-0.671	0.229	-18.066	1.282	25.330	-82.25	23.65	-129.18	-79.380	-65.464	-24.794	-0.45587	0.14005	-0.62131	0.62164	30.2	13111	100
2025-3-27 20:26:40.495	WT901BLE68-01(48591DE3C19B)	-0.138	-0.671	0.229	-18.066	1.282	25.330	-82.38	23.84	-129.12	-79.380	-65.464	-24.794	-0.45587	0.14005	-0.62131	0.62164	30.2	13111	100
2025-3-27 20:26:40.495	WT901BLE68-01(48591DE3C19B)	-0.138	-0.670	0.168	-19.287	-5.798	20.569	-82.50	24.01	-129.03	-79.380	-65.464	-24.794	-0.45587	0.14005	-0.62131	0.62164	30.2	13111	100
2025-3-27 20:26:40.495	WT901BLE68-01(48591DE3C19B)	-0.157	-0.670	0.168	-19.287	-5.798	20.569	-82.62	24.14	-128.90	-79.380	-65.464	-24.794	-0.45587	0.14005	-0.62131	0.62164	30.2	13111	100
2025-3-27 20:26:40.495	WT901BLE68-01(48591DE3C19B)	-0.157	-0.743	0.136	-18.494	-7.080	15.320	-82.72	24.24	-128.77	-79.380	-65.464	-24.794	-0.45587	0.14005	-0.62131	0.62164	30.2	13111	100
2025-3-27 20:26:40.495	WT901BLE68-01(48591DE3C19B)	-0.227	-0.743	0.136	-18.494	-7.080	15.320	-82.82	24.32	-128.63	-79.380	-65.464	-24.794	-0.45587	0.14005	-0.62131	0.62164	30.2	13111	100
2025-3-27 20:26:40.495	WT901BLE68-01(48591DE3C19B)	-0.227	-0.832	0.120	-15.686	-13.550	11.902	-82.90	24.38	-128.46	-79.380	-65.464	-24.794	-0.45587	0.14005	-0.62131	0.62164	30.2	13111	100
2025-3-27 20:26:40.496	WT901BLE68-01(48591DE3C19B)	-0.261	-0.832	0.120	-15.686	-13.550	11.902	-82.95	24.41	-128.25	-79.380	-65.464	-24.794	-0.45587	0.14005	-0.62131	0.62164	30.2	13111	100
2025-3-27 20:26:40.496	WT901BLE68-01(48591DE3C19B)	-0.261	-0.917	0.108	-12.451	-21.484	10.376	-82.96	24.44	-128.00	-79.380	-65.464	-24.794	-0.45587	0.14005	-0.62131	0.62164	30.2	13111	100
