time	DeviceName	AccX(g)	AccY(g)	AccZ(g)	AsX(°/s)	AsY(°/s)	AsZ(°/s)	AngleX(°)	AngleY(°)	AngleZ(°)	HX(uT)	HY(uT)	HZ(uT)	Q0()	Q1()	Q2()	Q3()	Temperature(°C)	Version()	Battery level(%)
2025-3-27 20:26:4.406	WT901BLE68-01(48591DE3C19B)	-0.346	-0.907	0.313	8.362	17.456	-6.958	-72.73	20.43	-38.83	-71.638	-30.968	77.714	-0.78253	0.50336	-0.32803	0.16287	30.2	13111	100
2025-3-27 20:26:4.406	WT901BLE68-01(48591DE3C19B)	-0.357	-0.907	0.313	8.362	17.456	-6.958	-72.71	20.42	-39.01	-71.638	-30.968	77.714	-0.78253	0.50336	-0.32803	0.16287	30.2	13111	100
2025-3-27 20:26:4.406	WT901BLE68-01(48591DE3C19B)	-0.357	-0.901	0.310	9.827	17.578	-7.385	-72.69	20.40	-39.20	-71.638	-30.968	77.714	-0.78253	0.50336	-0.32803	0.16287	30.2	13111	100
2025-3-27 20:26:4.406	WT901BLE68-01(48591DE3C19B)	-0.362	-0.901	0.310	9.827	17.578	-7.385	-72.66	20.39	-39.40	-71.638	-30.968	77.714	-0.78253	0.50336	-0.32803	0.16287	30.2	13111	100
2025-3-27 20:26:4.473	WT901BLE68-01(48591DE3C19B)	-0.362	-0.896	0.308	10.071	15.259	-7.019	-72.62	20.37	-39.58	-71.638	-30.968	77.714	-0.78253	0.50336	-0.32803	0.16287	30.2	13111	100
2025-3-27 20:26:4.473	WT901BLE68-01(48591DE3C19B)	-0.364	-0.896	0.308	10.071	15.259	-7.019	-72.58	20.35	-39.74	-71.638	-30.968	77.714	-0.78253	0.50336	-0.32803	0.16287	30.2	13111	100
2025-3-27 20:26:4.473	WT901BLE68-01(48591DE3C19B)	-0.364	-0.899	0.300	9.644	10.986	-5.493	-72.53	20.32	-39.89	-71.638	-30.968	77.714	-0.78253	0.50336	-0.32803	0.16287	30.2	13111	100
2025-3-27 20:26:4.473	WT901BLE68-01(48591DE3C19B)	-0.360	-0.899	0.300	9.644	10.986	-5.493	-72.47	20.31	-40.00	-71.638	-30.968	77.714	-0.78253	0.50336	-0.32803	0.16287	30.2	13111	100
2025-3-27 20:26:4.493	WT901BLE68-01(48591DE3C19B)	-0.360	-0.910	0.288	8.728	6.287	-3.662	-72.41	20.29	-40.09	-71.638	-30.968	77.714	-0.78253	0.50336	-0.32803	0.16287	30.2	13111	100
2025-3-27 20:26:4.493	WT901BLE68-01(48591DE3C19B)	-0.351	-0.910	0.288	8.728	6.287	-3.662	-72.34	20.28	-40.15	-71.638	-30.968	77.714	-0.78253	0.50336	-0.32803	0.16287	30.2	13111	100
2025-3-27 20:26:4.493	WT901BLE68-01(48591DE3C19B)	-0.351	-0.916	0.277	8.118	2.747	-1.831	-72.27	20.27	-40.19	-71.638	-30.968	77.714	-0.78253	0.50336	-0.32803	0.16287	30.2	13111	100
2025-3-27 20:26:4.493	WT901BLE68-01(48591DE3C19B)	-0.346	-0.916	0.277	8.118	2.747	-1.831	-72.21	20.26	-40.21	-71.638	-30.968	77.714	-0.78253	0.50336	-0.32803	0.16287	30.2	13111	100
2025-3-27 20:26:4.525	WT901BLE68-01(48591DE3C19B)	-0.346	-0.913	0.266	7.202	-0.671	0.366	-72.13	20.26	-40.21	-71.638	-30.968	77.714	-0.78253	0.50336	-0.32803	0.16287	30.2	13111	100
2025-3-27 20:26:4.526	WT901BLE68-01(48591DE3C19B)	-0.337	-0.913	0.266	7.202	-0.671	0.366	-72.06	20.26	-40.19	-71.638	-30.968	77.714	-0.78253	0.50336	-0.32803	0.16287	30.2	13111	100
2025-3-27 20:26:4.526	WT901BLE68-01(48591DE3C19B)	-0.337	-0.907	0.250	5.798	-4.028	2.686	-71.99	20.27	-40.14	-71.638	-30.968	77.714	-0.78253	0.50336	-0.32803	0.16287	30.2	13111	100
2025-3-27 20:26:4.526	WT901BLE68-01(48591DE3C19B)	-0.323	-0.907	0.250	5.798	-4.028	2.686	-71.92	20.29	-40.08	-71.638	-30.968	77.714	-0.78253	0.50336	-0.32803	0.16287	30.2	13111	100
2025-3-27 20:26:4.584	WT901BLE68-01(48591DE3C19B)	-0.323	-0.903	0.248	5.127	-5.676	5.005	-71.85	20.30	-40.01	-71.638	-30.968	77.714	-0.78253	0.50336	-0.32803	0.16287	30.2	13111	100
2025-3-27 20:26:4.584	WT901BLE68-01(48591DE3C19B)	-0.309	-0.903	0.248	5.127	-5.676	5.005	-71.78	20.34	-39.92	-72.814	-30.086	77.028	-0.78253	0.50336	-0.32803	0.16287	30.2	13111	100
2025-3-27 20:26:4.584	WT901BLE68-01(48591DE3C19B)	-0.309	-0.897	0.244	4.517	-4.822	6.958	-71.71	20.37	-39.84	-72.814	-30.086	77.028	-0.78253	0.50336	-0.32803	0.16287	30.2	13111	100
2025-3-27 20:26:4.584	WT901BLE68-01(48591DE3C19B)	-0.300	-0.897	0.244	4.517	-4.822	6.958	-71.65	20.42	-39.75	-72.814	-30.086	77.028	-0.78253	0.50336	-0.32803	0.16287	30.2	13111	100
2025-3-27 20:26:4.613	WT901BLE68-01(48591DE3C19B)	-0.300	-0.899	0.234	3.967	-2.441	7.629	-71.60	20.47	-39.68	-72.814	-30.086	77.028	-0.78253	0.50336	-0.32803	0.16287	30.2	13111	100
2025-3-27 20:26:4.614	WT901BLE68-01(48591DE3C19B)	-0.292	-0.899	0.234	3.967	-2.441	7.629	-71.55	20.53	-39.62	-72.814	-30.086	77.028	-0.78253	0.50336	-0.32803	0.16287	30.2	13111	100
2025-3-27 20:26:4.614	WT901BLE68-01(48591DE3C19B)	-0.292	-0.904	0.244	4.211	1.770	6.958	-71.52	20.59	-39.59	-72.814	-30.086	77.028	-0.78253	0.50336	-0.32803	0.16287	30.2	13111	100
2025-3-27 20:26:4.614	WT901BLE68-01(48591DE3C19B)	-0.301	-0.904	0.244	4.211	1.770	6.958	-71.49	20.65	-39.58	-72.814	-30.086	77.028	-0.78253	0.50336	-0.32803	0.16287	30.2	13111	100
2025-3-27 20:26:4.644	WT901BLE68-01(48591DE3C19B)	-0.301	-0.894	0.260	4.944	5.432	6.348	-71.46	20.72	-39.58	-72.814	-30.086	77.028	-0.78253	0.50336	-0.32803	0.16287	30.2	13111	100
2025-3-27 20:26:4.644	WT901BLE68-01(48591DE3C19B)	-0.289	-0.894	0.260	4.944	5.432	6.348	-71.44	20.79	-39.61	-72.814	-30.086	77.028	-0.78253	0.50336	-0.32803	0.16287	30.2	13111	100
2025-3-27 20:26:4.645	WT901BLE68-01(48591DE3C19B)	-0.289	-0.853	0.260	4.395	8.179	6.409	-71.43	20.85	-39.66	-72.814	-30.086	77.028	-0.78253	0.50336	-0.32803	0.16287	30.2	13111	100
2025-3-27 20:26:4.645	WT901BLE68-01(48591DE3C19B)	-0.278	-0.853	0.260	4.395	8.179	6.409	-71.42	20.93	-39.71	-72.814	-30.086	77.028	-0.78253	0.50336	-0.32803	0.16287	30.2	13111	100
2025-3-27 20:26:4.704	WT901BLE68-01(48591DE3C19B)	-0.278	-0.826	0.252	2.319	11.597	6.714	-71.43	21.01	-39.78	-72.814	-30.086	77.028	-0.78253	0.50336	-0.32803	0.16287	30.2	13111	100
2025-3-27 20:26:4.704	WT901BLE68-01(48591DE3C19B)	-0.290	-0.826	0.252	2.319	11.597	6.714	-71.45	21.09	-39.87	-72.814	-30.086	77.028	-0.78253	0.50336	-0.32803	0.16287	30.2	13111	100
2025-3-27 20:26:4.704	WT901BLE68-01(48591DE3C19B)	-0.290	-0.830	0.254	-2.380	12.573	6.042	-71.53	21.18	-39.97	-72.814	-30.086	77.028	-0.78253	0.50336	-0.32803	0.16287	30.2	13111	100
2025-3-27 20:26:4.704	WT901BLE68-01(48591DE3C19B)	-0.320	-0.830	0.254	-2.380	12.573	6.042	-71.60	21.26	-40.08	-72.814	-30.086	77.028	-0.78253	0.50336	-0.32803	0.16287	30.2	13111	100
2025-3-27 20:26:4.736	WT901BLE68-01(48591DE3C19B)	-0.320	-0.873	0.273	-9.460	9.094	2.319	-71.74	21.29	-40.16	-72.814	-30.086	77.028	-0.78253	0.50336	-0.32803	0.16287	30.2	13111	100
2025-3-27 20:26:4.736	WT901BLE68-01(48591DE3C19B)	-0.362	-0.873	0.273	-9.460	9.094	2.319	-71.87	21.32	-40.23	-72.814	-30.086	77.028	-0.78253	0.50336	-0.32803	0.16287	30.2	13111	100
2025-3-27 20:26:4.736	WT901BLE68-01(48591DE3C19B)	-0.362	-0.939	0.309	-17.273	-1.343	-5.249	-72.05	21.25	-40.23	-72.814	-30.086	77.028	-0.78253	0.50336	-0.32803	0.16287	30.2	13111	100
2025-3-27 20:26:4.736	WT901BLE68-01(48591DE3C19B)	-0.385	-0.939	0.309	-17.273	-1.343	-5.249	-72.24	21.19	-40.23	-72.814	-30.086	77.028	-0.78253	0.50336	-0.32803	0.16287	30.2	13111	100
2025-3-27 20:26:4.824	WT901BLE68-01(48591DE3C19B)	-0.385	-0.980	0.348	-23.499	-16.052	-15.442	-72.43	20.98	-40.11	-72.814	-30.086	77.028	-0.78253	0.50336	-0.32803	0.16287	30.2	13111	100
2025-3-27 20:26:4.824	WT901BLE68-01(48591DE3C19B)	-0.371	-0.980	0.348	-23.499	-16.052	-15.442	-72.63	20.78	-39.98	-72.814	-30.086	77.028	-0.78091	0.49921	-0.33435	0.17047	30.2	13111	100
2025-3-27 20:26:4.824	WT901BLE68-01(48591DE3C19B)	-0.371	-0.971	0.378	-27.466	-27.405	-25.757	-72.82	20.44	-39.78	-72.814	-30.086	77.028	-0.78091	0.49921	-0.33435	0.17047	30.2	13111	100
2025-3-27 20:26:4.824	WT901BLE68-01(48591DE3C19B)	-0.355	-0.971	0.378	-27.466	-27.405	-25.757	-73.03	20.11	-39.57	-72.814	-30.086	77.028	-0.78091	0.49921	-0.33435	0.17047	30.2	13111	100
2025-3-27 20:26:4.825	WT901BLE68-01(48591DE3C19B)	-0.355	-0.907	0.372	-28.320	-33.081	-35.095	-73.22	19.68	-39.34	-72.814	-30.086	77.028	-0.78091	0.49921	-0.33435	0.17047	30.2	13111	100
2025-3-27 20:26:4.825	WT901BLE68-01(48591DE3C19B)	-0.328	-0.907	0.372	-28.320	-33.081	-35.095	-73.41	19.24	-39.11	-72.814	-30.086	77.028	-0.78091	0.49921	-0.33435	0.17047	30.2	13111	100
2025-3-27 20:26:4.825	WT901BLE68-01(48591DE3C19B)	-0.328	-0.818	0.356	-29.236	-36.743	-42.175	-73.61	18.74	-38.86	-72.814	-30.086	77.028	-0.78091	0.49921	-0.33435	0.17047	30.2	13111	100
2025-3-27 20:26:4.825	WT901BLE68-01(48591DE3C19B)	-0.300	-0.818	0.356	-29.236	-36.743	-42.175	-73.80	18.24	-38.61	-72.814	-30.086	77.028	-0.78091	0.49921	-0.33435	0.17047	30.2	13111	100
2025-3-27 20:26:4.854	WT901BLE68-01(48591DE3C19B)	-0.300	-0.769	0.367	-29.785	-36.377	-47.729	-74.00	17.69	-38.38	-72.814	-30.086	77.028	-0.78091	0.49921	-0.33435	0.17047	30.2	13111	100
2025-3-27 20:26:4.854	WT901BLE68-01(48591DE3C19B)	-0.290	-0.769	0.367	-29.785	-36.377	-47.729	-74.20	17.14	-38.16	-72.814	-30.086	77.028	-0.78091	0.49921	-0.33435	0.17047	30.2	13111	100
2025-3-27 20:26:4.854	WT901BLE68-01(48591DE3C19B)	-0.290	-0.770	0.383	-27.588	-29.541	-52.124	-74.40	16.58	-38.01	-72.814	-30.086	77.028	-0.78091	0.49921	-0.33435	0.17047	30.2	13111	100
2025-3-27 20:26:4.854	WT901BLE68-01(48591DE3C19B)	-0.312	-0.770	0.383	-27.588	-29.541	-52.124	-74.60	16.02	-37.86	-72.814	-30.086	77.028	-0.78091	0.49921	-0.33435	0.17047	30.2	13111	100
2025-3-27 20:26:4.914	WT901BLE68-01(48591DE3C19B)	-0.312	-0.798	0.381	-23.193	-17.761	-55.664	-74.78	15.46	-37.84	-72.814	-30.086	77.028	-0.78091	0.49921	-0.33435	0.17047	30.2	13111	100
2025-3-27 20:26:4.915	WT901BLE68-01(48591DE3C19B)	-0.338	-0.798	0.381	-23.193	-17.761	-55.664	-74.97	14.90	-37.82	-72.814	-30.086	77.028	-0.78091	0.49921	-0.33435	0.17047	30.2	13111	100
2025-3-27 20:26:4.915	WT901BLE68-01(48591DE3C19B)	-0.338	-0.854	0.406	-16.846	3.235	-57.251	-75.14	14.39	-38.01	-72.814	-30.086	77.028	-0.78091	0.49921	-0.33435	0.17047	30.2	13111	100
2025-3-27 20:26:4.915	WT901BLE68-01(48591DE3C19B)	-0.367	-0.854	0.406	-16.846	3.235	-57.251	-75.30	13.87	-38.19	-72.814	-30.086	77.028	-0.78091	0.49921	-0.33435	0.17047	30.2	13111	100
2025-3-27 20:26:4.974	WT901BLE68-01(48591DE3C19B)	-0.367	-0.943	0.443	-7.019	32.593	-54.199	-75.43	13.46	-38.66	-72.814	-30.086	77.028	-0.78091	0.49921	-0.33435	0.17047	30.2	13111	100
2025-3-27 20:26:4.974	WT901BLE68-01(48591DE3C19B)	-0.364	-0.943	0.443	-7.019	32.593	-54.199	-75.55	13.06	-39.13	-72.814	-30.086	77.028	-0.78091	0.49921	-0.33435	0.17047	30.2	13111	100
2025-3-27 20:26:4.974	WT901BLE68-01(48591DE3C19B)	-0.364	-1.007	0.423	4.883	66.895	-47.607	-75.62	12.80	-39.91	-72.814	-30.086	77.028	-0.78091	0.49921	-0.33435	0.17047	30.2	13111	100
2025-3-27 20:26:4.974	WT901BLE68-01(48591DE3C19B)	-0.381	-1.007	0.423	4.883	66.895	-47.607	-75.70	12.55	-40.69	-72.814	-30.086	77.028	-0.78091	0.49921	-0.33435	0.17047	30.2	13111	100
2025-3-27 20:26:4.975	WT901BLE68-01(48591DE3C19B)	-0.381	-0.927	0.347	16.846	101.563	-40.710	-75.72	12.45	-41.79	-72.814	-30.086	77.028	-0.78091	0.49921	-0.33435	0.17047	30.2	13111	100
2025-3-27 20:26:4.975	WT901BLE68-01(48591DE3C19B)	-0.475	-0.927	0.347	16.846	101.563	-40.710	-75.74	12.35	-42.88	-72.814	-30.086	77.028	-0.78091	0.49921	-0.33435	0.17047	30.2	13111	100
2025-3-27 20:26:4.976	WT901BLE68-01(48591DE3C19B)	-0.475	-0.761	0.306	19.287	124.573	-33.203	-75.78	12.38	-44.18	-71.834	-34.398	76.048	-0.78091	0.49921	-0.33435	0.17047	30.2	13111	100
2025-3-27 20:26:4.976	WT901BLE68-01(48591DE3C19B)	-0.655	-0.761	0.306	19.287	124.573	-33.203	-75.82	12.42	-45.46	-71.834	-34.398	76.048	-0.78091	0.49921	-0.33435	0.17047	30.2	13111	100
2025-3-27 20:26:5.94	WT901BLE68-01(48591DE3C19B)	-0.655	-0.657	0.344	13.672	115.723	-25.024	-75.90	12.52	-46.63	-71.834	-34.398	76.048	-0.78091	0.49921	-0.33435	0.17047	30.2	13111	100
2025-3-27 20:26:5.95	WT901BLE68-01(48591DE3C19B)	-0.745	-0.657	0.344	13.672	115.723	-25.024	-75.98	12.64	-47.77	-71.834	-34.398	76.048	-0.78091	0.49921	-0.33435	0.17047	30.2	13111	100
2025-3-27 20:26:5.95	WT901BLE68-01(48591DE3C19B)	-0.745	-0.624	0.355	2.563	79.163	-13.794	-76.09	12.79	-48.53	-71.834	-34.398	76.048	-0.78091	0.49921	-0.33435	0.17047	30.2	13111	100
2025-3-27 20:26:5.95	WT901BLE68-01(48591DE3C19B)	-0.751	-0.624	0.355	2.563	79.163	-13.794	-76.20	12.94	-49.26	-71.834	-34.398	76.048	-0.78091	0.49921	-0.33435	0.17047	30.2	13111	100
2025-3-27 20:26:5.95	WT901BLE68-01(48591DE3C19B)	-0.751	-0.606	0.306	-4.517	43.823	-3.906	-76.31	13.12	-49.61	-71.834	-34.398	76.048	-0.78091	0.49921	-0.33435	0.17047	30.2	13111	100
2025-3-27 20:26:5.95	WT901BLE68-01(48591DE3C19B)	-0.736	-0.606	0.306	-4.517	43.823	-3.906	-76.41	13.31	-49.95	-71.834	-34.398	76.048	-0.78091	0.49921	-0.33435	0.17047	30.2	13111	100
2025-3-27 20:26:5.95	WT901BLE68-01(48591DE3C19B)	-0.736	-0.560	0.249	-7.507	14.648	4.944	-76.48	13.52	-49.98	-71.834	-34.398	76.048	-0.78091	0.49921	-0.33435	0.17047	30.2	13111	100
2025-3-27 20:26:5.96	WT901BLE68-01(48591DE3C19B)	-0.687	-0.560	0.249	-7.507	14.648	4.944	-76.55	13.74	-49.99	-71.834	-34.398	76.048	-0.78091	0.49921	-0.33435	0.17047	30.2	13111	100
2025-3-27 20:26:5.96	WT901BLE68-01(48591DE3C19B)	-0.687	-0.484	0.201	-11.536	-10.742	12.939	-76.61	13.99	-49.71	-71.834	-34.398	76.048	-0.78091	0.49921	-0.33435	0.17047	30.2	13111	100
2025-3-27 20:26:5.96	WT901BLE68-01(48591DE3C19B)	-0.628	-0.484	0.201	-11.536	-10.742	12.939	-76.66	14.24	-49.43	-71.834	-34.398	76.048	-0.78091	0.49921	-0.33435	0.17047	30.2	13111	100
2025-3-27 20:26:5.96	WT901BLE68-01(48591DE3C19B)	-0.628	-0.431	0.170	-15.991	-25.696	19.043	-76.73	14.53	-48.99	-71.834	-34.398	76.048	-0.78091	0.49921	-0.33435	0.17047	30.2	13111	100
2025-3-27 20:26:5.96	WT901BLE68-01(48591DE3C19B)	-0.590	-0.431	0.170	-15.991	-25.696	19.043	-76.80	14.82	-48.53	-71.834	-34.398	76.048	-0.78091	0.49921	-0.33435	0.17047	30.2	13111	100
2025-3-27 20:26:5.153	WT901BLE68-01(48591DE3C19B)	-0.590	-0.416	0.148	-19.470	-31.311	22.766	-76.89	15.13	-48.00	-71.834	-34.398	76.048	-0.78091	0.49921	-0.33435	0.17047	30.2	13111	100
2025-3-27 20:26:5.153	WT901BLE68-01(48591DE3C19B)	-0.566	-0.416	0.148	-19.470	-31.311	22.766	-76.98	15.46	-47.48	-71.834	-34.398	76.048	-0.78091	0.49921	-0.33435	0.17047	30.2	13111	100
2025-3-27 20:26:5.153	WT901BLE68-01(48591DE3C19B)	-0.541	-0.406	0.133	-22.278	-31.677	23.682	-77.10	15.79	-46.93	-71.834	-34.398	76.048	-0.78091	0.49921	-0.33435	0.17047	30.2	13111	100
2025-3-27 20:26:5.153	WT901BLE68-01(48591DE3C19B)	-0.541	-0.416	0.125	-24.414	-26.184	24.414	-77.23	16.13	-46.42	-71.834	-34.398	76.048	-0.78091	0.49921	-0.33435	0.17047	30.2	13111	100
2025-3-27 20:26:5.184	WT901BLE68-01(48591DE3C19B)	-0.563	-0.416	0.125	-24.414	-26.184	24.414	-77.39	16.49	-45.93	-71.834	-34.398	76.048	-0.78091	0.49921	-0.33435	0.17047	30.2	13111	100
2025-3-27 20:26:5.185	WT901BLE68-01(48591DE3C19B)	-0.563	-0.483	0.140	-22.583	-20.203	26.978	-77.54	16.87	-45.47	-71.834	-34.398	76.048	-0.78091	0.49921	-0.33435	0.17047	30.2	13111	100
2025-3-27 20:26:5.185	WT901BLE68-01(48591DE3C19B)	-0.599	-0.483	0.140	-22.583	-20.203	26.978	-77.70	17.26	-45.03	-71.834	-34.398	76.048	-0.78091	0.49921	-0.33435	0.17047	30.2	13111	100
2025-3-27 20:26:5.185	WT901BLE68-01(48591DE3C19B)	-0.599	-0.481	0.170	-17.761	-21.729	33.142	-77.82	17.68	-44.59	-71.834	-34.398	76.048	-0.74844	0.52908	-0.34647	0.19946	30.2	13111	100
2025-3-27 20:26:5.244	WT901BLE68-01(48591DE3C19B)	-0.564	-0.481	0.170	-17.761	-21.729	33.142	-77.91	18.13	-44.13	-71.834	-34.398	76.048	-0.74844	0.52908	-0.34647	0.19946	30.2	13111	100
2025-3-27 20:26:5.244	WT901BLE68-01(48591DE3C19B)	-0.564	-0.420	0.168	-15.625	-28.076	46.082	-77.98	18.64	-43.62	-71.834	-34.398	76.048	-0.74844	0.52908	-0.34647	0.19946	30.2	13111	100
2025-3-27 20:26:5.244	WT901BLE68-01(48591DE3C19B)	-0.512	-0.420	0.168	-15.625	-28.076	46.082	-78.01	19.20	-43.06	-71.834	-34.398	76.048	-0.74844	0.52908	-0.34647	0.19946	30.2	13111	100
2025-3-27 20:26:5.244	WT901BLE68-01(48591DE3C19B)	-0.512	-0.383	0.144	-14.038	-32.715	62.256	-78.02	19.84	-42.46	-71.834	-34.398	76.048	-0.74844	0.52908	-0.34647	0.19946	30.2	13111	100
2025-3-27 20:26:5.273	WT901BLE68-01(48591DE3C19B)	-0.506	-0.383	0.144	-14.038	-32.715	62.256	-78.00	20.56	-41.81	-71.834	-34.398	76.048	-0.74844	0.52908	-0.34647	0.19946	30.2	13111	100
2025-3-27 20:26:5.273	WT901BLE68-01(48591DE3C19B)	-0.506	-0.399	0.134	-15.320	-44.373	77.515	-77.95	21.32	-41.09	-71.834	-34.398	76.048	-0.74844	0.52908	-0.34647	0.19946	30.2	13111	100
2025-3-27 20:26:5.273	WT901BLE68-01(48591DE3C19B)	-0.541	-0.399	0.134	-15.320	-44.373	77.515	-77.87	22.15	-40.29	-71.834	-34.398	76.048	-0.74844	0.52908	-0.34647	0.19946	30.2	13111	100
2025-3-27 20:26:5.273	WT901BLE68-01(48591DE3C19B)	-0.541	-0.563	0.153	-20.630	-64.697	88.318	-77.76	23.00	-39.37	-71.834	-34.398	76.048	-0.74844	0.52908	-0.34647	0.19946	30.2	13111	100
2025-3-27 20:26:5.304	WT901BLE68-01(48591DE3C19B)	-0.578	-0.563	0.153	-20.630	-64.697	88.318	-77.61	23.87	-38.33	-71.834	-34.398	76.048	-0.74844	0.52908	-0.34647	0.19946	30.2	13111	100
2025-3-27 20:26:5.304	WT901BLE68-01(48591DE3C19B)	-0.578	-0.927	0.111	-32.043	-86.426	87.708	-77.46	24.70	-37.18	-71.834	-34.398	76.048	-0.74844	0.52908	-0.34647	0.19946	30.2	13111	100
2025-3-27 20:26:5.304	WT901BLE68-01(48591DE3C19B)	-0.604	-0.927	0.111	-32.043	-86.426	87.708	-77.29	25.49	-35.92	-71.834	-34.398	76.048	-0.74844	0.52908	-0.34647	0.19946	30.2	13111	100
2025-3-27 20:26:5.304	WT901BLE68-01(48591DE3C19B)	-2.417	-1.664	-0.004	-44.006	-107.361	67.444	-77.14	26.13	-34.58	-71.834	-34.398	76.048	-0.74844	0.52908	-0.34647	0.19946	30.2	13111	100
2025-3-27 20:26:5.336	WT901BLE68-01(48591DE3C19B)	-0.767	-6.656	-0.016	-44.006	-107.361	67.444	-77.01	26.60	-33.21	-71.834	-34.398	76.048	-0.74844	0.52908	-0.34647	0.19946	30.2	13111	100
2025-3-27 20:26:5.336	WT901BLE68-01(48591DE3C19B)	-0.767	-2.410	0.113	-22.461	-131.653	41.504	-76.75	26.86	-31.76	-71.834	-34.398	76.048	-0.74844	0.52908	-0.34647	0.19946	30.2	13111	100
2025-3-27 20:26:5.336	WT901BLE68-01(48591DE3C19B)	-0.891	-2.410	0.113	-22.461	-131.653	41.504	-76.33	26.96	-30.23	-71.834	-34.398	76.048	-0.74844	0.52908	-0.34647	0.19946	30.2	13111	100
2025-3-27 20:26:5.336	WT901BLE68-01(48591DE3C19B)	-0.891	-2.604	0.218	-2.136	-159.546	39.612	-75.75	26.99	-28.56	-71.834	-34.398	76.048	-0.74844	0.52908	-0.34647	0.19946	30.2	13111	100
2025-3-27 20:26:5.424	WT901BLE68-01(48591DE3C19B)	-0.663	-2.604	0.218	-2.136	-159.546	39.612	-75.00	26.96	-26.75	-71.834	-34.398	76.048	-0.74844	0.52908	-0.34647	0.19946	30.2	13111	100
2025-3-27 20:26:5.424	WT901BLE68-01(48591DE3C19B)	-0.663	-2.029	0.274	15.503	-165.100	45.898	-74.15	26.93	-24.91	-69.972	-29.204	81.928	-0.74844	0.52908	-0.34647	0.19946	30.2	13111	100
2025-3-27 20:26:5.425	WT901BLE68-01(48591DE3C19B)	-0.308	-2.029	0.274	15.503	-165.100	45.898	-73.20	26.89	-23.04	-69.972	-29.204	81.928	-0.74844	0.52908	-0.34647	0.19946	30.2	13111	100
2025-3-27 20:26:5.425	WT901BLE68-01(48591DE3C19B)	-0.308	-1.680	0.242	16.174	-116.028	76.599	-72.34	27.04	-21.40	-69.972	-29.204	81.928	-0.74844	0.52908	-0.34647	0.19946	30.2	13111	100
2025-3-27 20:26:5.426	WT901BLE68-01(48591DE3C19B)	-0.171	-1.680	0.242	16.174	-116.028	76.599	-71.58	27.38	-19.97	-69.972	-29.204	81.928	-0.74844	0.52908	-0.34647	0.19946	30.2	13111	100
2025-3-27 20:26:5.426	WT901BLE68-01(48591DE3C19B)	-0.171	-1.440	0.188	26.062	-59.204	105.408	-70.87	27.93	-18.78	-69.972	-29.204	81.928	-0.74844	0.52908	-0.34647	0.19946	30.2	13111	100
2025-3-27 20:26:5.426	WT901BLE68-01(48591DE3C19B)	-0.042	-1.440	0.188	26.062	-59.204	105.408	-70.21	28.68	-17.84	-69.972	-29.204	81.928	-0.74844	0.52908	-0.34647	0.19946	30.2	13111	100
2025-3-27 20:26:5.426	WT901BLE68-01(48591DE3C19B)	-0.042	-1.137	0.126	17.578	-37.170	123.352	-69.63	29.54	-16.97	-69.972	-29.204	81.928	-0.74844	0.52908	-0.34647	0.19946	30.2	13111	100
2025-3-27 20:26:5.456	WT901BLE68-01(48591DE3C19B)	0.158	-1.137	0.126	17.578	-37.170	123.352	-69.10	30.50	-16.18	-69.972	-29.204	81.928	-0.74844	0.52908	-0.34647	0.19946	30.2	13111	100
2025-3-27 20:26:5.456	WT901BLE68-01(48591DE3C19B)	0.158	-1.038	0.038	2.686	-32.104	119.690	-68.65	31.43	-15.41	-69.972	-29.204	81.928	-0.74844	0.52908	-0.34647	0.19946	30.2	13111	100
2025-3-27 20:26:5.456	WT901BLE68-01(48591DE3C19B)	0.171	-1.038	0.038	2.686	-32.104	119.690	-68.29	32.34	-14.67	-69.972	-29.204	81.928	-0.74844	0.52908	-0.34647	0.19946	30.2	13111	100
2025-3-27 20:26:5.456	WT901BLE68-01(48591DE3C19B)	0.171	-0.976	0.011	10.071	-10.925	106.445	-67.96	33.21	-14.06	-69.972	-29.204	81.928	-0.74844	0.52908	-0.34647	0.19946	30.2	13111	100
2025-3-27 20:26:5.514	WT901BLE68-01(48591DE3C19B)	-0.018	-0.976	0.011	10.071	-10.925	106.445	-67.66	34.05	-13.61	-69.972	-29.204	81.928	-0.74844	0.52908	-0.34647	0.19946	30.2	13111	100
2025-3-27 20:26:5.515	WT901BLE68-01(48591DE3C19B)	-0.018	-0.892	0.018	7.202	14.282	94.482	-67.47	34.86	-13.32	-69.972	-29.204	81.928	-0.74844	0.52908	-0.34647	0.19946	30.2	13111	100
2025-3-27 20:26:5.515	WT901BLE68-01(48591DE3C19B)	-0.191	-0.892	0.018	7.202	14.282	94.482	-67.38	35.66	-13.19	-69.972	-29.204	81.928	-0.74844	0.52908	-0.34647	0.19946	30.2	13111	100
2025-3-27 20:26:5.515	WT901BLE68-01(48591DE3C19B)	-0.191	-0.891	0.068	2.136	26.367	76.111	-67.39	36.39	-13.18	-69.972	-29.204	81.928	-0.74844	0.52908	-0.34647	0.19946	30.2	13111	100
2025-3-27 20:26:5.546	WT901BLE68-01(48591DE3C19B)	-0.197	-0.891	0.068	2.136	26.367	76.111	-67.49	37.05	-13.28	-69.972	-29.204	81.928	-0.74844	0.52908	-0.34647	0.19946	30.2	13111	100
2025-3-27 20:26:5.546	WT901BLE68-01(48591DE3C19B)	-0.197	-0.853	0.124	0.732	24.536	57.617	-67.62	37.63	-13.42	-69.972	-29.204	81.928	-0.74844	0.52908	-0.34647	0.19946	30.2	13111	100
2025-3-27 20:26:5.546	WT901BLE68-01(48591DE3C19B)	-0.140	-0.853	0.124	0.732	24.536	57.617	-67.77	38.11	-13.59	-69.972	-29.204	81.928	-0.74844	0.52908	-0.34647	0.19946	30.2	13111	100
2025-3-27 20:26:5.546	WT901BLE68-01(48591DE3C19B)	-0.140	-0.763	0.154	2.686	9.521	43.457	-67.88	38.50	-13.71	-69.972	-29.204	81.928	-0.74844	0.52908	-0.34647	0.19946	30.2	13111	100
2025-3-27 20:26:5.576	WT901BLE68-01(48591DE3C19B)	0.003	-0.763	0.154	2.686	9.521	43.457	-67.94	38.79	-13.77	-69.972	-29.204	81.928	-0.74844	0.52908	-0.34647	0.19946	30.2	13111	100
2025-3-27 20:26:5.576	WT901BLE68-01(48591DE3C19B)	0.003	-0.661	0.150	6.836	-1.282	26.428	-67.96	38.97	-13.80	-69.972	-29.204	81.928	-0.74844	0.52908	-0.34647	0.19946	30.2	13111	100
2025-3-27 20:26:5.576	WT901BLE68-01(48591DE3C19B)	0.043	-0.661	0.150	6.836	-1.282	26.428	-67.95	39.06	-13.82	-69.972	-29.204	81.928	-0.79831	0.48947	-0.33856	-0.09140	30.2	13111	100
2025-3-27 20:26:5.576	WT901BLE68-01(48591DE3C19B)	0.043	-0.579	0.136	13.123	7.324	9.094	-67.96	39.07	-13.93	-69.972	-29.204	81.928	-0.79831	0.48947	-0.33856	-0.09140	30.2	13111	100
2025-3-27 20:26:5.694	WT901BLE68-01(48591DE3C19B)	-0.003	-0.579	0.136	13.123	7.324	9.094	-68.00	39.02	-14.13	-69.972	-29.204	81.928	-0.79831	0.48947	-0.33856	-0.09140	30.2	13111	100
2025-3-27 20:26:5.695	WT901BLE68-01(48591DE3C19B)	-0.003	-0.532	0.121	20.325	18.616	-7.324	-68.07	38.91	-14.45	-69.972	-29.204	81.928	-0.79831	0.48947	-0.33856	-0.09140	30.2	13111	100
2025-3-27 20:26:5.695	WT901BLE68-01(48591DE3C19B)	-0.012	-0.532	0.121	20.325	18.616	-7.324	-68.16	38.74	-14.86	-69.972	-29.204	81.928	-0.79831	0.48947	-0.33856	-0.09140	30.2	13111	100
2025-3-27 20:26:5.695	WT901BLE68-01(48591DE3C19B)	-0.012	-0.504	0.117	27.283	29.053	-20.081	-68.30	38.49	-15.46	-69.972	-29.204	81.928	-0.79831	0.48947	-0.33856	-0.09140	30.2	13111	100
2025-3-27 20:26:5.696	WT901BLE68-01(48591DE3C19B)	0.000	-0.504	0.117	27.283	29.053	-20.081	-68.43	38.23	-16.05	-69.972	-29.204	81.928	-0.79831	0.48947	-0.33856	-0.09140	30.2	13111	100
2025-3-27 20:26:5.696	WT901BLE68-01(48591DE3C19B)	0.000	-0.506	0.111	36.194	46.143	-31.738	-68.62	37.93	-16.89	-69.972	-29.204	81.928	-0.79831	0.48947	-0.33856	-0.09140	30.2	13111	100
2025-3-27 20:26:5.696	WT901BLE68-01(48591DE3C19B)	-0.022	-0.506	0.111	36.194	46.143	-31.738	-68.81	37.63	-17.73	-69.972	-29.204	81.928	-0.79831	0.48947	-0.33856	-0.09140	30.2	13111	100
2025-3-27 20:26:5.697	WT901BLE68-01(48591DE3C19B)	-0.022	-0.535	0.098	45.959	67.810	-42.114	-69.07	37.30	-18.85	-69.972	-29.204	81.928	-0.79831	0.48947	-0.33856	-0.09140	30.2	13111	100
2025-3-27 20:26:5.697	WT901BLE68-01(48591DE3C19B)	-0.098	-0.535	0.098	45.959	67.810	-42.114	-69.31	36.97	-19.96	-69.972	-29.204	81.928	-0.79831	0.48947	-0.33856	-0.09140	30.2	13111	100
2025-3-27 20:26:5.697	WT901BLE68-01(48591DE3C19B)	-0.098	-0.589	0.117	58.044	86.792	-51.697	-69.58	36.62	-21.32	-69.972	-29.204	81.928	-0.79831	0.48947	-0.33856	-0.09140	30.2	13111	100
2025-3-27 20:26:5.697	WT901BLE68-01(48591DE3C19B)	-0.252	-0.589	0.117	58.044	86.792	-51.697	-69.83	36.26	-22.67	-69.972	-29.204	81.928	-0.79831	0.48947	-0.33856	-0.09140	30.2	13111	100
2025-3-27 20:26:5.697	WT901BLE68-01(48591DE3C19B)	-0.252	-0.665	0.185	71.106	99.243	-60.547	-70.05	35.86	-24.18	-69.972	-29.204	81.928	-0.79831	0.48947	-0.33856	-0.09140	30.2	13111	100
2025-3-27 20:26:5.756	WT901BLE68-01(48591DE3C19B)	-0.466	-0.665	0.185	71.106	99.243	-60.547	-70.24	35.47	-25.66	-69.972	-29.204	81.928	-0.79831	0.48947	-0.33856	-0.09140	30.2	13111	100
2025-3-27 20:26:5.756	WT901BLE68-01(48591DE3C19B)	-0.466	-0.792	0.218	81.787	104.004	-72.144	-70.36	35.00	-27.22	-69.972	-29.204	81.928	-0.79831	0.48947	-0.33856	-0.09140	30.2	13111	100
2025-3-27 20:26:5.756	WT901BLE68-01(48591DE3C19B)	-0.647	-0.792	0.218	81.787	104.004	-72.144	-70.45	34.55	-28.76	-69.972	-29.204	81.928	-0.79831	0.48947	-0.33856	-0.09140	30.2	13111	100
2025-3-27 20:26:5.756	WT901BLE68-01(48591DE3C19B)	-0.647	-1.003	0.143	80.200	109.375	-96.863	-70.63	33.89	-30.43	-69.972	-29.204	81.928	-0.79831	0.48947	-0.33856	-0.09140	30.2	13111	100
2025-3-27 20:26:5.786	WT901BLE68-01(48591DE3C19B)	-0.771	-1.003	0.143	80.200	109.375	-96.863	-70.78	33.24	-32.07	-69.972	-29.204	81.928	-0.79831	0.48947	-0.33856	-0.09140	30.2	13111	100
2025-3-27 20:26:5.786	WT901BLE68-01(48591DE3C19B)	-0.771	-1.186	0.087	80.383	120.972	-126.038	-71.03	32.38	-33.92	-69.972	-29.204	81.928	-0.79831	0.48947	-0.33856	-0.09140	30.2	13111	100
2025-3-27 20:26:5.786	WT901BLE68-01(48591DE3C19B)	-0.909	-1.186	0.087	80.383	120.972	-126.038	-71.26	31.51	-35.74	-69.972	-29.204	81.928	-0.79831	0.48947	-0.33856	-0.09140	30.2	13111	100
2025-3-27 20:26:5.787	WT901BLE68-01(48591DE3C19B)	-0.909	-1.170	0.103	74.219	130.432	-147.461	-71.60	30.49	-37.70	-69.384	-17.150	84.476	-0.79831	0.48947	-0.33856	-0.09140	30.2	13111	100
2025-3-27 20:26:5.816	WT901BLE68-01(48591DE3C19B)	-1.147	-1.170	0.103	74.219	130.432	-147.461	-71.90	29.48	-39.62	-69.384	-17.150	84.476	-0.79831	0.48947	-0.33856	-0.09140	30.2	13111	100
2025-3-27 20:26:5.816	WT901BLE68-01(48591DE3C19B)	-1.147	-1.148	0.242	53.162	140.686	-144.531	-72.41	28.53	-41.60	-69.384	-17.150	84.476	-0.79831	0.48947	-0.33856	-0.09140	30.2	13111	100
2025-3-27 20:26:5.816	WT901BLE68-01(48591DE3C19B)	-1.235	-1.148	0.242	53.162	140.686	-144.531	-72.88	27.58	-43.54	-69.384	-17.150	84.476	-0.79831	0.48947	-0.33856	-0.09140	30.2	13111	100
2025-3-27 20:26:5.816	WT901BLE68-01(48591DE3C19B)	-1.235	-1.002	0.431	36.194	154.114	-133.545	-73.52	26.78	-45.54	-69.384	-17.150	84.476	-0.79831	0.48947	-0.33856	-0.09140	30.2	13111	100
2025-3-27 20:26:5.874	WT901BLE68-01(48591DE3C19B)	-1.202	-1.002	0.431	36.194	154.114	-133.545	-74.10	25.98	-47.50	-69.384	-17.150	84.476	-0.79831	0.48947	-0.33856	-0.09140	30.2	13111	100
2025-3-27 20:26:5.874	WT901BLE68-01(48591DE3C19B)	-1.202	-0.863	0.538	16.113	136.963	-108.337	-74.75	25.37	-49.17	-69.384	-17.150	84.476	-0.79831	0.48947	-0.33856	-0.09140	30.2	13111	100
2025-3-27 20:26:5.874	WT901BLE68-01(48591DE3C19B)	-1.130	-0.863	0.538	16.113	136.963	-108.337	-75.35	24.76	-50.81	-69.384	-17.150	84.476	-0.79831	0.48947	-0.33856	-0.09140	30.2	13111	100
2025-3-27 20:26:5.874	WT901BLE68-01(48591DE3C19B)	-1.130	-0.785	0.517	-6.531	88.257	-86.609	-75.91	24.24	-51.84	-69.384	-17.150	84.476	-0.79831	0.48947	-0.33856	-0.09140	30.2	13111	100
2025-3-27 20:26:5.903	WT901BLE68-01(48591DE3C19B)	-1.041	-0.785	0.517	-6.531	88.257	-86.609	-76.45	23.71	-52.86	-69.384	-17.150	84.476	-0.79831	0.48947	-0.33856	-0.09140	30.2	13111	100
2025-3-27 20:26:5.903	WT901BLE68-01(48591DE3C19B)	-1.041	-0.739	0.363	-24.963	26.489	-66.345	-76.88	23.25	-53.15	-69.384	-17.150	84.476	-0.79831	0.48947	-0.33856	-0.09140	30.2	13111	100
2025-3-27 20:26:5.903	WT901BLE68-01(48591DE3C19B)	-1.009	-0.739	0.363	-24.963	26.489	-66.345	-77.29	22.79	-53.44	-69.384	-17.150	84.476	-0.79831	0.48947	-0.33856	-0.09140	30.2	13111	100
2025-3-27 20:26:5.903	WT901BLE68-01(48591DE3C19B)	-1.009	-0.690	0.229	-38.635	-37.292	-51.086	-77.57	22.35	-53.00	-69.384	-17.150	84.476	-0.79831	0.48947	-0.33856	-0.09140	30.2	13111	100
2025-3-27 20:26:5.933	WT901BLE68-01(48591DE3C19B)	-0.983	-0.690	0.229	-38.635	-37.292	-51.086	-77.86	21.91	-52.57	-69.384	-17.150	84.476	-0.79831	0.48947	-0.33856	-0.09140	30.2	13111	100
2025-3-27 20:26:5.933	WT901BLE68-01(48591DE3C19B)	-0.983	-0.653	0.214	-44.495	-90.759	-38.147	-77.99	21.50	-51.54	-69.384	-17.150	84.476	-0.79831	0.48947	-0.33856	-0.09140	30.2	13111	100
2025-3-27 20:26:5.933	WT901BLE68-01(48591DE3C19B)	-0.895	-0.653	0.214	-44.495	-90.759	-38.147	-78.12	21.10	-50.52	-69.384	-17.150	84.476	-0.79831	0.48947	-0.33856	-0.09140	30.2	13111	100
2025-3-27 20:26:5.934	WT901BLE68-01(48591DE3C19B)	-0.895	-0.674	0.225	-46.387	-105.225	-28.381	-78.23	20.76	-49.32	-69.384	-17.150	84.476	-0.79831	0.48947	-0.33856	-0.09140	30.2	13111	100
2025-3-27 20:26:6.24	WT901BLE68-01(48591DE3C19B)	-0.782	-0.674	0.225	-46.387	-105.225	-28.381	-78.33	20.44	-48.13	-69.384	-17.150	84.476	-0.79831	0.48947	-0.33856	-0.09140	30.2	13111	100
2025-3-27 20:26:6.24	WT901BLE68-01(48591DE3C19B)	-0.782	-0.638	0.233	-35.278	-98.083	-22.278	-78.35	20.19	-47.00	-69.384	-17.150	84.476	-0.79831	0.48947	-0.33856	-0.09140	30.2	13111	100
2025-3-27 20:26:6.24	WT901BLE68-01(48591DE3C19B)	-0.729	-0.638	0.233	-35.278	-98.083	-22.278	-78.38	19.95	-45.88	-69.384	-17.150	84.476	-0.79831	0.48947	-0.33856	-0.09140	30.2	13111	100
2025-3-27 20:26:6.25	WT901BLE68-01(48591DE3C19B)	-0.729	-0.481	0.225	-23.743	-83.740	-14.343	-78.34	19.81	-44.89	-69.384	-17.150	84.476	-0.79831	0.48947	-0.33856	-0.09140	30.2	13111	100
2025-3-27 20:26:6.25	WT901BLE68-01(48591DE3C19B)	-0.641	-0.481	0.225	-23.743	-83.740	-14.343	-78.30	19.68	-43.90	-69.384	-17.150	84.476	-0.74899	0.52737	-0.35547	0.18552	30.2	13111	100
2025-3-27 20:26:6.25	WT901BLE68-01(48591DE3C19B)	-0.641	-0.324	0.246	-16.235	-73.364	-2.869	-78.21	19.69	-42.99	-69.384	-17.150	84.476	-0.74899	0.52737	-0.35547	0.18552	30.2	13111	100
2025-3-27 20:26:6.26	WT901BLE68-01(48591DE3C19B)	-0.517	-0.324	0.246	-16.235	-73.364	-2.869	-78.12	19.70	-42.09	-69.384	-17.150	84.476	-0.74899	0.52737	-0.35547	0.18552	30.2	13111	100
2025-3-27 20:26:6.26	WT901BLE68-01(48591DE3C19B)	-0.517	-0.172	0.261	-13.367	-64.697	8.789	-78.02	19.84	-41.24	-69.384	-17.150	84.476	-0.74899	0.52737	-0.35547	0.18552	30.2	13111	100
2025-3-27 20:26:6.84	WT901BLE68-01(48591DE3C19B)	-0.419	-0.172	0.261	-13.367	-64.697	8.789	-77.92	19.99	-40.39	-69.384	-17.150	84.476	-0.74899	0.52737	-0.35547	0.18552	30.2	13111	100
2025-3-27 20:26:6.84	WT901BLE68-01(48591DE3C19B)	-0.419	-0.060	0.248	-13.672	-57.312	28.503	-77.83	20.35	-39.56	-69.384	-17.150	84.476	-0.74899	0.52737	-0.35547	0.18552	30.2	13111	100
2025-3-27 20:26:6.84	WT901BLE68-01(48591DE3C19B)	-0.405	-0.060	0.248	-13.672	-57.312	28.503	-77.72	20.71	-38.72	-69.384	-17.150	84.476	-0.74899	0.52737	-0.35547	0.18552	30.2	13111	100
2025-3-27 20:26:6.84	WT901BLE68-01(48591DE3C19B)	-0.427	-0.112	0.213	-22.278	-59.753	47.302	-77.67	21.25	-37.81	-69.384	-17.150	84.476	-0.74899	0.52737	-0.35547	0.18552	30.2	13111	100
2025-3-27 20:26:6.113	WT901BLE68-01(48591DE3C19B)	-0.427	-0.435	0.151	-39.001	-72.632	56.885	-77.66	21.83	-36.82	-69.384	-17.150	84.476	-0.74899	0.52737	-0.35547	0.18552	30.2	13111	100
2025-3-27 20:26:6.113	WT901BLE68-01(48591DE3C19B)	-0.494	-0.435	0.151	-39.001	-72.632	56.885	-77.70	22.43	-35.75	-69.384	-17.150	84.476	-0.74899	0.52737	-0.35547	0.18552	30.2	13111	100
2025-3-27 20:26:6.113	WT901BLE68-01(48591DE3C19B)	-0.494	-0.951	0.053	-56.335	-86.121	55.115	-77.78	22.99	-34.62	-69.384	-17.150	84.476	-0.74899	0.52737	-0.35547	0.18552	30.2	13111	100
2025-3-27 20:26:6.113	WT901BLE68-01(48591DE3C19B)	-0.593	-0.951	0.053	-56.335	-86.121	55.115	-77.92	23.51	-33.44	-69.384	-17.150	84.476	-0.74899	0.52737	-0.35547	0.18552	30.2	13111	100
2025-3-27 20:26:6.146	WT901BLE68-01(48591DE3C19B)	-0.593	-1.761	-0.008	-71.411	-102.905	41.748	-78.09	23.92	-32.21	-69.384	-17.150	84.476	-0.74899	0.52737	-0.35547	0.18552	30.2	13111	100
2025-3-27 20:26:6.146	WT901BLE68-01(48591DE3C19B)	-0.596	-1.761	-0.008	-71.411	-102.905	41.748	-78.32	24.22	-30.94	-69.384	-17.150	84.476	-0.74899	0.52737	-0.35547	0.18552	30.2	13111	100
2025-3-27 20:26:6.146	WT901BLE68-01(48591DE3C19B)	-0.596	-2.604	0.006	-50.598	-114.380	31.921	-78.42	24.44	-29.64	-69.384	-17.150	84.476	-0.74899	0.52737	-0.35547	0.18552	30.2	13111	100
2025-3-27 20:26:6.146	WT901BLE68-01(48591DE3C19B)	-0.544	-2.604	0.006	-50.598	-114.380	31.921	-78.41	24.56	-28.31	-69.384	-17.150	84.476	-0.74899	0.52737	-0.35547	0.18552	30.2	13111	100
2025-3-27 20:26:6.240	WT901BLE68-01(48591DE3C19B)	-0.544	-2.381	0.170	-0.488	-110.596	39.673	-78.15	24.70	-27.02	-69.384	-17.150	84.476	-0.74899	0.52737	-0.35547	0.18552	30.2	13111	100
2025-3-27 20:26:6.240	WT901BLE68-01(48591DE3C19B)	-0.203	-2.381	0.170	-0.488	-110.596	39.673	-77.66	24.86	-25.74	-69.384	-17.150	84.476	-0.74899	0.52737	-0.35547	0.18552	30.2	13111	100
2025-3-27 20:26:6.240	WT901BLE68-01(48591DE3C19B)	-0.203	-1.840	0.228	-2.930	-80.627	46.692	-77.24	25.07	-24.62	-62.034	-21.168	90.356	-0.74899	0.52737	-0.35547	0.18552	30.2	13111	100
2025-3-27 20:26:6.240	WT901BLE68-01(48591DE3C19B)	0.177	-1.840	0.228	-2.930	-80.627	46.692	-76.89	25.31	-23.66	-62.034	-21.168	90.356	-0.74899	0.52737	-0.35547	0.18552	30.2	13111	100
2025-3-27 20:26:6.270	WT901BLE68-01(48591DE3C19B)	0.177	-1.615	0.146	7.507	-25.146	56.458	-76.61	25.66	-22.99	-62.034	-21.168	90.356	-0.74899	0.52737	-0.35547	0.18552	30.2	13111	100
2025-3-27 20:26:6.270	WT901BLE68-01(48591DE3C19B)	0.453	-1.615	0.146	7.507	-25.146	56.458	-76.40	26.09	-22.62	-62.034	-21.168	90.356	-0.74899	0.52737	-0.35547	0.18552	30.2	13111	100
2025-3-27 20:26:6.270	WT901BLE68-01(48591DE3C19B)	0.453	-1.143	0.059	16.724	31.494	62.378	-76.28	26.61	-22.54	-62.034	-21.168	90.356	-0.74899	0.52737	-0.35547	0.18552	30.2	13111	100
2025-3-27 20:26:6.271	WT901BLE68-01(48591DE3C19B)	0.442	-1.143	0.059	16.724	31.494	62.378	-76.25	27.20	-22.77	-62.034	-21.168	90.356	-0.74899	0.52737	-0.35547	0.18552	30.2	13111	100
2025-3-27 20:26:6.271	WT901BLE68-01(48591DE3C19B)	0.442	-0.724	0.059	12.451	67.810	45.654	-76.35	27.73	-23.23	-62.034	-21.168	90.356	-0.74899	0.52737	-0.35547	0.18552	30.2	13111	100
2025-3-27 20:26:6.271	WT901BLE68-01(48591DE3C19B)	0.200	-0.724	0.059	12.451	67.810	45.654	-76.59	28.21	-23.91	-62.034	-21.168	90.356	-0.74899	0.52737	-0.35547	0.18552	30.2	13111	100
2025-3-27 20:26:6.271	WT901BLE68-01(48591DE3C19B)	0.200	-0.497	0.069	2.502	71.228	25.635	-76.89	28.57	-24.64	-62.034	-21.168	90.356	-0.74899	0.52737	-0.35547	0.18552	30.2	13111	100
2025-3-27 20:26:6.271	WT901BLE68-01(48591DE3C19B)	0.015	-0.497	0.069	2.502	71.228	25.635	-77.27	28.83	-25.43	-62.034	-21.168	90.356	-0.74899	0.52737	-0.35547	0.18552	30.2	13111	100
2025-3-27 20:26:6.327	WT901BLE68-01(48591DE3C19B)	0.015	-0.479	0.140	-10.498	70.679	10.925	-77.73	29.01	-26.22	-62.034	-21.168	90.356	-0.74899	0.52737	-0.35547	0.18552	30.2	13111	100
2025-3-27 20:26:6.327	WT901BLE68-01(48591DE3C19B)	-0.102	-0.479	0.140	-10.498	70.679	10.925	-78.25	29.10	-27.03	-62.034	-21.168	90.356	-0.74899	0.52737	-0.35547	0.18552	30.2	13111	100
2025-3-27 20:26:6.327	WT901BLE68-01(48591DE3C19B)	-0.102	-0.594	0.176	-6.836	75.806	-2.991	-78.77	29.13	-27.89	-62.034	-21.168	90.356	-0.74899	0.52737	-0.35547	0.18552	30.2	13111	100
2025-3-27 20:26:6.327	WT901BLE68-01(48591DE3C19B)	-0.200	-0.594	0.176	-6.836	75.806	-2.991	-79.29	29.09	-28.78	-62.034	-21.168	90.356	-0.74899	0.52737	-0.35547	0.18552	30.2	13111	100
2025-3-27 20:26:6.384	WT901BLE68-01(48591DE3C19B)	-0.200	-0.627	0.182	8.850	61.584	-9.155	-79.68	29.00	-29.59	-62.034	-21.168	90.356	-0.74899	0.52737	-0.35547	0.18552	30.2	13111	100
2025-3-27 20:26:6.384	WT901BLE68-01(48591DE3C19B)	-0.126	-0.627	0.182	8.850	61.584	-9.155	-79.95	28.87	-30.32	-62.034	-21.168	90.356	-0.74899	0.52737	-0.35547	0.18552	30.2	13111	100
2025-3-27 20:26:6.384	WT901BLE68-01(48591DE3C19B)	-0.126	-0.603	0.165	18.616	28.870	-15.320	-80.08	28.69	-30.87	-62.034	-21.168	90.356	-0.74899	0.52737	-0.35547	0.18552	30.2	13111	100
2025-3-27 20:26:6.384	WT901BLE68-01(48591DE3C19B)	0.003	-0.603	0.165	18.616	28.870	-15.320	-80.07	28.45	-31.23	-62.034	-21.168	90.356	-0.74899	0.52737	-0.35547	0.18552	30.2	13111	100
2025-3-27 20:26:6.385	WT901BLE68-01(48591DE3C19B)	0.003	-0.587	0.172	35.461	18.799	-16.663	-79.95	28.20	-31.54	-62.034	-21.168	90.356	-0.74899	0.52737	-0.35547	0.18552	30.2	13111	100
2025-3-27 20:26:6.385	WT901BLE68-01(48591DE3C19B)	-0.046	-0.587	0.172	35.461	18.799	-16.663	-79.71	27.93	-31.79	-62.034	-21.168	90.356	-0.74899	0.52737	-0.35547	0.18552	30.2	13111	100
2025-3-27 20:26:6.385	WT901BLE68-01(48591DE3C19B)	-0.046	-0.513	0.169	55.908	26.062	-10.681	-79.38	27.70	-32.07	-62.034	-21.168	90.356	-0.76117	0.54346	-0.34839	0.06171	30.2	13111	100
2025-3-27 20:26:6.385	WT901BLE68-01(48591DE3C19B)	-0.164	-0.513	0.169	55.908	26.062	-10.681	-78.96	27.50	-32.39	-62.034	-21.168	90.356	-0.76117	0.54346	-0.34839	0.06171	30.2	13111	100
2025-3-27 20:26:6.444	WT901BLE68-01(48591DE3C19B)	-0.164	-0.496	0.117	62.805	30.334	-5.737	-78.52	27.34	-32.72	-62.034	-21.168	90.356	-0.76117	0.54346	-0.34839	0.06171	30.2	13111	100
2025-3-27 20:26:6.444	WT901BLE68-01(48591DE3C19B)	-0.166	-0.496	0.117	62.805	30.334	-5.737	-78.05	27.22	-33.07	-62.034	-21.168	90.356	-0.76117	0.54346	-0.34839	0.06171	30.2	13111	100
2025-3-27 20:26:6.444	WT901BLE68-01(48591DE3C19B)	-0.166	-0.597	0.064	56.641	24.658	-1.587	-77.60	27.13	-33.38	-62.034	-21.168	90.356	-0.76117	0.54346	-0.34839	0.06171	30.2	13111	100
2025-3-27 20:26:6.444	WT901BLE68-01(48591DE3C19B)	-0.156	-0.597	0.064	56.641	24.658	-1.587	-77.16	27.05	-33.65	-62.034	-21.168	90.356	-0.76117	0.54346	-0.34839	0.06171	30.2	13111	100
2025-3-27 20:26:6.473	WT901BLE68-01(48591DE3C19B)	-0.156	-0.799	0.016	45.959	24.658	-6.104	-76.79	26.95	-33.93	-62.034	-21.168	90.356	-0.76117	0.54346	-0.34839	0.06171	30.2	13111	100
2025-3-27 20:26:6.473	WT901BLE68-01(48591DE3C19B)	-0.252	-0.799	0.016	45.959	24.658	-6.104	-76.49	26.84	-34.20	-62.034	-21.168	90.356	-0.76117	0.54346	-0.34839	0.06171	30.2	13111	100
2025-3-27 20:26:6.473	WT901BLE68-01(48591DE3C19B)	-0.252	-1.141	-0.047	27.283	36.072	-38.330	-76.33	26.59	-34.58	-62.034	-21.168	90.356	-0.76117	0.54346	-0.34839	0.06171	30.2	13111	100
2025-3-27 20:26:6.473	WT901BLE68-01(48591DE3C19B)	-0.455	-1.141	-0.047	27.283	36.072	-38.330	-76.31	26.20	-35.06	-62.034	-21.168	90.356	-0.76117	0.54346	-0.34839	0.06171	30.2	13111	100
2025-3-27 20:26:6.504	WT901BLE68-01(48591DE3C19B)	-0.455	-1.692	-0.040	22.827	60.242	-95.947	-76.42	25.57	-35.74	-62.034	-21.168	90.356	-0.76117	0.54346	-0.34839	0.06171	30.2	13111	100
2025-3-27 20:26:6.504	WT901BLE68-01(48591DE3C19B)	-1.002	-1.692	-0.040	22.827	60.242	-95.947	-76.62	24.69	-36.62	-62.034	-21.168	90.356	-0.76117	0.54346	-0.34839	0.06171	30.2	13111	100
2025-3-27 20:26:6.504	WT901BLE68-01(48591DE3C19B)	-1.002	-1.933	0.369	20.447	54.016	-147.095	-76.84	23.57	-37.51	-62.034	-21.168	90.356	-0.76117	0.54346	-0.34839	0.06171	30.2	13111	100
2025-3-27 20:26:6.504	WT901BLE68-01(48591DE3C19B)	-1.626	-1.933	0.369	20.447	54.016	-147.095	-77.04	22.21	-38.40	-62.034	-21.168	90.356	-0.76117	0.54346	-0.34839	0.06171	30.2	13111	100
2025-3-27 20:26:6.569	WT901BLE68-01(48591DE3C19B)	-1.626	-1.805	0.666	15.076	74.036	-168.701	-77.28	20.79	-39.40	-62.034	-21.168	90.356	-0.76117	0.54346	-0.34839	0.06171	30.2	13111	100
2025-3-27 20:26:6.569	WT901BLE68-01(48591DE3C19B)	-1.212	-1.805	0.666	15.076	74.036	-168.701	-77.56	19.32	-40.49	-62.034	-21.168	90.356	-0.76117	0.54346	-0.34839	0.06171	30.2	13111	100
2025-3-27 20:26:6.569	WT901BLE68-01(48591DE3C19B)	-1.212	-1.079	0.697	28.992	140.747	-136.658	-77.85	18.32	-42.17	-62.034	-21.168	90.356	-0.76117	0.54346	-0.34839	0.06171	30.2	13111	100
2025-3-27 20:26:6.569	WT901BLE68-01(48591DE3C19B)	-0.860	-1.079	0.697	28.992	140.747	-136.658	-78.10	17.34	-43.81	-62.034	-21.168	90.356	-0.76117	0.54346	-0.34839	0.06171	30.2	13111	100
2025-3-27 20:26:6.596	WT901BLE68-01(48591DE3C19B)	-0.860	-0.657	0.473	24.780	199.768	-103.271	-78.51	16.80	-45.97	-62.034	-21.168	90.356	-0.76117	0.54346	-0.34839	0.06171	30.2	13111	100
2025-3-27 20:26:6.596	WT901BLE68-01(48591DE3C19B)	-0.727	-0.657	0.473	24.780	199.768	-103.271	-78.89	16.28	-48.10	-62.034	-21.168	90.356	-0.76117	0.54346	-0.34839	0.06171	30.2	13111	100
2025-3-27 20:26:6.596	WT901BLE68-01(48591DE3C19B)	-0.727	-0.374	0.273	12.329	152.649	-72.693	-79.23	15.95	-49.66	-62.034	-21.168	90.356	-0.76117	0.54346	-0.34839	0.06171	30.2	13111	100
2025-3-27 20:26:6.596	WT901BLE68-01(48591DE3C19B)	-0.721	-0.374	0.273	12.329	152.649	-72.693	-79.55	15.64	-51.22	-72.030	-15.778	89.964	-0.76117	0.54346	-0.34839	0.06171	30.2	13111	100
2025-3-27 20:26:6.625	WT901BLE68-01(48591DE3C19B)	-0.721	-0.357	0.209	-20.020	14.893	-39.124	-79.80	15.41	-51.29	-72.030	-15.778	89.964	-0.76117	0.54346	-0.34839	0.06171	30.2	13111	100
2025-3-27 20:26:6.625	WT901BLE68-01(48591DE3C19B)	-0.651	-0.357	0.209	-20.020	14.893	-39.124	-80.05	15.19	-51.36	-72.030	-15.778	89.964	-0.76117	0.54346	-0.34839	0.06171	30.2	13111	100
2025-3-27 20:26:6.625	WT901BLE68-01(48591DE3C19B)	-0.651	-0.533	0.154	-40.833	-81.787	-14.099	-80.24	15.06	-50.39	-72.030	-15.778	89.964	-0.76117	0.54346	-0.34839	0.06171	30.2	13111	100
2025-3-27 20:26:6.626	WT901BLE68-01(48591DE3C19B)	-0.623	-0.533	0.154	-40.833	-81.787	-14.099	-80.43	14.94	-49.43	-72.030	-15.778	89.964	-0.76117	0.54346	-0.34839	0.06171	30.2	13111	100
2025-3-27 20:26:6.684	WT901BLE68-01(48591DE3C19B)	-0.623	-0.583	0.154	-41.077	-107.117	13.062	-80.54	15.05	-48.16	-72.030	-15.778	89.964	-0.76117	0.54346	-0.34839	0.06171	30.2	13111	100
2025-3-27 20:26:6.684	WT901BLE68-01(48591DE3C19B)	-0.575	-0.583	0.154	-41.077	-107.117	13.062	-80.66	15.16	-46.90	-72.030	-15.778	89.964	-0.76117	0.54346	-0.34839	0.06171	30.2	13111	100
2025-3-27 20:26:6.684	WT901BLE68-01(48591DE3C19B)	-0.575	-0.528	0.160	-30.090	-74.341	27.588	-80.73	15.47	-45.95	-72.030	-15.778	89.964	-0.76117	0.54346	-0.34839	0.06171	30.2	13111	100
2025-3-27 20:26:6.684	WT901BLE68-01(48591DE3C19B)	-0.591	-0.528	0.160	-30.090	-74.341	27.588	-80.81	15.78	-45.00	-72.030	-15.778	89.964	-0.76117	0.54346	-0.34839	0.06171	30.2	13111	100
2025-3-27 20:26:6.713	WT901BLE68-01(48591DE3C19B)	-0.591	-0.403	0.174	-23.315	-26.978	42.542	-80.94	16.32	-44.51	-72.030	-15.778	89.964	-0.76117	0.54346	-0.34839	0.06171	30.2	13111	100
2025-3-27 20:26:6.713	WT901BLE68-01(48591DE3C19B)	-0.490	-0.403	0.174	-23.315	-26.978	42.542	-81.07	16.86	-44.01	-72.030	-15.778	89.964	-0.76117	0.54346	-0.34839	0.06171	30.2	13111	100
2025-3-27 20:26:6.713	WT901BLE68-01(48591DE3C19B)	-0.490	-0.243	0.147	-19.470	-5.005	60.181	-81.21	17.61	-43.71	-72.030	-15.778	89.964	-0.76117	0.54346	-0.34839	0.06171	30.2	13111	100
2025-3-27 20:26:6.713	WT901BLE68-01(48591DE3C19B)	-0.426	-0.243	0.147	-19.470	-5.005	60.181	-81.35	18.37	-43.41	-72.030	-15.778	89.964	-0.76117	0.54346	-0.34839	0.06171	30.2	13111	100
2025-3-27 20:26:6.743	WT901BLE68-01(48591DE3C19B)	-0.426	-0.208	0.116	-20.996	6.531	74.097	-81.54	19.28	-43.20	-72.030	-15.778	89.964	-0.76117	0.54346	-0.34839	0.06171	30.2	13111	100
2025-3-27 20:26:6.743	WT901BLE68-01(48591DE3C19B)	-0.464	-0.208	0.116	-20.996	6.531	74.097	-81.72	20.19	-42.98	-72.030	-15.778	89.964	-0.76117	0.54346	-0.34839	0.06171	30.2	13111	100
2025-3-27 20:26:6.743	WT901BLE68-01(48591DE3C19B)	-0.464	-0.351	0.168	-23.621	-4.028	79.590	-81.89	21.14	-42.65	-72.030	-15.778	89.964	-0.76117	0.54346	-0.34839	0.06171	30.2	13111	100
2025-3-27 20:26:6.743	WT901BLE68-01(48591DE3C19B)	-0.568	-0.351	0.168	-23.621	-4.028	79.590	-82.05	22.09	-42.32	-72.030	-15.778	89.964	-0.76117	0.54346	-0.34839	0.06171	30.2	13111	100
2025-3-27 20:26:6.803	WT901BLE68-01(48591DE3C19B)	-0.568	-0.575	0.183	-27.466	-40.955	80.444	-82.09	22.99	-41.59	-72.030	-15.778	89.964	-0.76117	0.54346	-0.34839	0.06171	30.2	13111	100
2025-3-27 20:26:6.803	WT901BLE68-01(48591DE3C19B)	-0.631	-0.575	0.183	-27.466	-40.955	80.444	-82.12	23.88	-40.86	-72.030	-15.778	89.964	-0.76117	0.54346	-0.34839	0.06171	30.2	13111	100
2025-3-27 20:26:6.804	WT901BLE68-01(48591DE3C19B)	-0.631	-0.991	0.191	-42.114	-97.046	72.327	-82.04	24.59	-39.55	-72.030	-15.778	89.964	-0.76117	0.54346	-0.34839	0.06171	30.2	13111	100
2025-3-27 20:26:6.804	WT901BLE68-01(48591DE3C19B)	-0.677	-0.991	0.191	-42.114	-97.046	72.327	-81.95	25.29	-38.23	-72.030	-15.778	89.964	-0.76117	0.54346	-0.34839	0.06171	30.2	13111	100
2025-3-27 20:26:6.834	WT901BLE68-01(48591DE3C19B)	-0.677	-1.976	0.067	-66.711	-148.193	45.959	-81.87	25.63	-36.41	-72.030	-15.778	89.964	-0.74606	0.55658	-0.35526	0.08548	30.2	13111	100
2025-3-27 20:26:6.835	WT901BLE68-01(48591DE3C19B)	-0.602	-1.976	0.067	-66.711	-148.193	45.959	-81.79	25.93	-34.62	-72.030	-15.778	89.964	-0.74606	0.55658	-0.35526	0.08548	30.2	13111	100
2025-3-27 20:26:6.835	WT901BLE68-01(48591DE3C19B)	-0.602	-3.028	-0.010	-37.048	-162.781	32.959	-81.35	26.04	-32.70	-72.030	-15.778	89.964	-0.74606	0.55658	-0.35526	0.08548	30.2	13111	100
2025-3-27 20:26:6.835	WT901BLE68-01(48591DE3C19B)	-0.608	-3.028	-0.010	-37.048	-162.781	32.959	-80.93	26.11	-30.81	-72.030	-15.778	89.964	-0.74606	0.55658	-0.35526	0.08548	30.2	13111	100
2025-3-27 20:26:6.870	WT901BLE68-01(48591DE3C19B)	-0.608	-2.324	0.179	34.973	-155.334	31.738	-79.82	26.16	-29.01	-72.030	-15.778	89.964	-0.74606	0.55658	-0.35526	0.08548	30.2	13111	100
2025-3-27 20:26:6.870	WT901BLE68-01(48591DE3C19B)	-0.188	-2.324	0.179	34.973	-155.334	31.738	-78.72	26.16	-27.22	-72.030	-15.778	89.964	-0.74606	0.55658	-0.35526	0.08548	30.2	13111	100
2025-3-27 20:26:6.870	WT901BLE68-01(48591DE3C19B)	-0.188	-1.739	0.192	15.625	-123.413	38.025	-77.98	26.25	-25.78	-72.030	-15.778	89.964	-0.74606	0.55658	-0.35526	0.08548	30.2	13111	100
2025-3-27 20:26:6.870	WT901BLE68-01(48591DE3C19B)	0.248	-1.739	0.192	15.625	-123.413	38.025	-77.22	26.31	-24.35	-72.030	-15.778	89.964	-0.74606	0.55658	-0.35526	0.08548	30.2	13111	100
2025-3-27 20:26:6.924	WT901BLE68-01(48591DE3C19B)	0.248	-1.489	0.198	24.353	-35.522	39.978	-76.81	26.56	-23.87	-72.030	-15.778	89.964	-0.74606	0.55658	-0.35526	0.08548	30.2	13111	100
2025-3-27 20:26:6.924	WT901BLE68-01(48591DE3C19B)	0.391	-1.489	0.198	24.353	-35.522	39.978	-76.39	26.80	-23.40	-72.030	-15.778	89.964	-0.74606	0.55658	-0.35526	0.08548	30.2	13111	100
2025-3-27 20:26:6.924	WT901BLE68-01(48591DE3C19B)	0.391	-0.911	0.169	31.799	53.650	49.622	-76.33	27.32	-23.87	-72.030	-15.778	89.964	-0.74606	0.55658	-0.35526	0.08548	30.2	13111	100
2025-3-27 20:26:6.924	WT901BLE68-01(48591DE3C19B)	0.255	-0.911	0.169	31.799	53.650	49.622	-76.27	27.83	-24.35	-72.030	-15.778	89.964	-0.74606	0.55658	-0.35526	0.08548	30.2	13111	100
2025-3-27 20:26:6.984	WT901BLE68-01(48591DE3C19B)	0.255	-0.469	0.176	15.015	84.778	39.185	-76.56	28.29	-25.20	-72.030	-15.778	89.964	-0.74606	0.55658	-0.35526	0.08548	30.2	13111	100
2025-3-27 20:26:6.984	WT901BLE68-01(48591DE3C19B)	-0.055	-0.469	0.176	15.015	84.778	39.185	-76.85	28.74	-26.05	-72.030	-15.778	89.964	-0.74606	0.55658	-0.35526	0.08548	30.2	13111	100
2025-3-27 20:26:6.985	WT901BLE68-01(48591DE3C19B)	-0.055	-0.305	0.220	3.662	30.334	23.315	-76.98	28.90	-26.35	-72.030	-15.778	89.964	-0.74606	0.55658	-0.35526	0.08548	30.2	13111	100
2025-3-27 20:26:6.985	WT901BLE68-01(48591DE3C19B)	-0.112	-0.305	0.220	3.662	30.334	23.315	-77.10	29.06	-26.64	-72.030	-15.778	89.964	-0.74606	0.55658	-0.35526	0.08548	30.2	13111	100
2025-3-27 20:26:6.985	WT901BLE68-01(48591DE3C19B)	-0.112	-0.229	0.192	-14.282	-20.569	19.592	-77.13	29.08	-26.37	-72.030	-15.778	89.964	-0.74606	0.55658	-0.35526	0.08548	30.2	13111	100
2025-3-27 20:26:6.986	WT901BLE68-01(48591DE3C19B)	-0.060	-0.229	0.192	-14.282	-20.569	19.592	-77.15	29.10	-26.11	-72.030	-15.778	89.964	-0.74606	0.55658	-0.35526	0.08548	30.2	13111	100
2025-3-27 20:26:6.986	WT901BLE68-01(48591DE3C19B)	-0.143	-0.160	0.136	-12.817	-31.311	19.409	-77.10	29.09	-25.72	-51.548	-24.402	93.982	-0.74606	0.55658	-0.35526	0.08548	30.2	13111	100
2025-3-27 20:26:6.986	WT901BLE68-01(48591DE3C19B)	-0.143	-0.121	0.127	-8.850	-45.349	19.226	-76.98	29.07	-25.25	-51.548	-24.402	93.982	-0.74606	0.55658	-0.35526	0.08548	30.2	13111	100
2025-3-27 20:26:7.44	WT901BLE68-01(48591DE3C19B)	-0.105	-0.121	0.127	-8.850	-45.349	19.226	-76.79	29.04	-24.71	-51.548	-24.402	93.982	-0.74606	0.55658	-0.35526	0.08548	30.2	13111	100
2025-3-27 20:26:7.44	WT901BLE68-01(48591DE3C19B)	-0.105	-0.183	0.166	-10.010	-64.087	25.269	-76.56	29.01	-24.05	-51.548	-24.402	93.982	-0.74606	0.55658	-0.35526	0.08548	30.2	13111	100
2025-3-27 20:26:7.44	WT901BLE68-01(48591DE3C19B)	-0.082	-0.183	0.166	-10.010	-64.087	25.269	-76.28	29.00	-23.29	-51.548	-24.402	93.982	-0.74606	0.55658	-0.35526	0.08548	30.2	13111	100
2025-3-27 20:26:7.44	WT901BLE68-01(48591DE3C19B)	-0.082	-0.405	0.200	-6.958	-52.307	25.024	-76.01	28.99	-22.58	-51.548	-24.402	93.982	-0.74606	0.55658	-0.35526	0.08548	30.2	13111	100
2025-3-27 20:26:7.72	WT901BLE68-01(48591DE3C19B)	-0.154	-0.405	0.200	-6.958	-52.307	25.024	-75.75	29.00	-21.95	-51.548	-24.402	93.982	-0.74606	0.55658	-0.35526	0.08548	30.2	13111	100
2025-3-27 20:26:7.73	WT901BLE68-01(48591DE3C19B)	-0.154	-0.648	0.183	-1.465	-24.963	22.156	-75.53	29.03	-21.47	-51.548	-24.402	93.982	-0.74606	0.55658	-0.35526	0.08548	30.2	13111	100
2025-3-27 20:26:7.73	WT901BLE68-01(48591DE3C19B)	-0.229	-0.648	0.183	-1.465	-24.963	22.156	-75.37	29.07	-21.15	-51.548	-24.402	93.982	-0.74606	0.55658	-0.35526	0.08548	30.2	13111	100
2025-3-27 20:26:7.73	WT901BLE68-01(48591DE3C19B)	-0.229	-0.944	0.104	-7.690	-0.671	5.676	-75.32	29.07	-20.98	-51.548	-24.402	93.982	-0.74606	0.55658	-0.35526	0.08548	30.2	13111	100
2025-3-27 20:26:7.104	WT901BLE68-01(48591DE3C19B)	-0.357	-0.944	0.104	-7.690	-0.671	5.676	-75.38	29.02	-20.97	-51.548	-24.402	93.982	-0.74606	0.55658	-0.35526	0.08548	30.2	13111	100
2025-3-27 20:26:7.104	WT901BLE68-01(48591DE3C19B)	-0.357	-1.401	0.063	-13.794	17.151	-31.311	-75.56	28.82	-21.12	-51.548	-24.402	93.982	-0.74606	0.55658	-0.35526	0.08548	30.2	13111	100
2025-3-27 20:26:7.104	WT901BLE68-01(48591DE3C19B)	-0.526	-1.401	0.063	-13.794	17.151	-31.311	-75.85	28.46	-21.41	-51.548	-24.402	93.982	-0.74606	0.55658	-0.35526	0.08548	30.2	13111	100
2025-3-27 20:26:7.104	WT901BLE68-01(48591DE3C19B)	-0.526	-1.855	0.127	2.197	53.650	-81.848	-76.19	27.91	-21.96	-51.548	-24.402	93.982	-0.74606	0.55658	-0.35526	0.08548	30.2	13111	100
2025-3-27 20:26:7.169	WT901BLE68-01(48591DE3C19B)	-0.970	-1.855	0.127	2.197	53.650	-81.848	-76.57	27.15	-22.77	-51.548	-24.402	93.982	-0.74606	0.55658	-0.35526	0.08548	30.2	13111	100
2025-3-27 20:26:7.169	WT901BLE68-01(48591DE3C19B)	-0.970	-1.963	0.418	23.499	82.153	-96.863	-76.91	26.37	-23.73	-51.548	-24.402	93.982	-0.74606	0.55658	-0.35526	0.08548	30.2	13111	100
2025-3-27 20:26:7.169	WT901BLE68-01(48591DE3C19B)	-1.172	-1.963	0.418	23.499	82.153	-96.863	-77.19	25.55	-24.84	-51.548	-24.402	93.982	-0.74606	0.55658	-0.35526	0.08548	30.2	13111	100
2025-3-27 20:26:7.169	WT901BLE68-01(48591DE3C19B)	-1.172	-1.599	0.558	24.597	113.464	-117.798	-77.53	24.68	-26.13	-51.548	-24.402	93.982	-0.74606	0.55658	-0.35526	0.08548	30.2	13111	100
2025-3-27 20:26:7.196	WT901BLE68-01(48591DE3C19B)	-0.956	-1.599	0.558	24.597	113.464	-117.798	-77.90	23.75	-27.56	-51.548	-24.402	93.982	-0.74606	0.55658	-0.35526	0.08548	30.2	13111	100
2025-3-27 20:26:7.196	WT901BLE68-01(48591DE3C19B)	-0.956	-1.153	0.546	32.898	159.851	-88.074	-78.28	23.02	-29.19	-51.548	-24.402	93.982	-0.74606	0.55658	-0.35526	0.08548	30.2	13111	100
2025-3-27 20:26:7.196	WT901BLE68-01(48591DE3C19B)	-0.836	-1.153	0.546	32.898	159.851	-88.074	-78.67	22.49	-31.00	-51.548	-24.402	93.982	-0.74606	0.55658	-0.35526	0.08548	30.2	13111	100
2025-3-27 20:26:7.196	WT901BLE68-01(48591DE3C19B)	-0.836	-0.794	0.431	31.799	169.128	-62.561	-79.05	22.10	-32.81	-51.548	-24.402	93.982	-0.76065	0.55740	-0.31821	0.09677	30.2	13111	100
2025-3-27 20:26:7.225	WT901BLE68-01(48591DE3C19B)	-0.785	-0.794	0.431	31.799	169.128	-62.561	-79.42	21.84	-34.62	-51.548	-24.402	93.982	-0.76065	0.55740	-0.31821	0.09677	30.2	13111	100
2025-3-27 20:26:7.226	WT901BLE68-01(48591DE3C19B)	-0.785	-0.535	0.339	16.968	105.530	-29.358	-79.72	21.68	-36.05	-51.548	-24.402	93.982	-0.76065	0.55740	-0.31821	0.09677	30.2	13111	100
2025-3-27 20:26:7.226	WT901BLE68-01(48591DE3C19B)	-0.776	-0.535	0.339	16.968	105.530	-29.358	-79.96	21.64	-37.10	-51.548	-24.402	93.982	-0.76065	0.55740	-0.31821	0.09677	30.2	13111	100
2025-3-27 20:26:7.226	WT901BLE68-01(48591DE3C19B)	-0.776	-0.458	0.270	-12.024	-8.850	-2.991	-80.10	21.63	-37.50	-51.548	-24.402	93.982	-0.76065	0.55740	-0.31821	0.09677	30.2	13111	100
2025-3-27 20:26:7.284	WT901BLE68-01(48591DE3C19B)	-0.579	-0.458	0.270	-12.024	-8.850	-2.991	-80.16	21.67	-37.27	-51.548	-24.402	93.982	-0.76065	0.55740	-0.31821	0.09677	30.2	13111	100
2025-3-27 20:26:7.284	WT901BLE68-01(48591DE3C19B)	-0.579	-0.474	0.207	-30.151	-87.830	19.409	-80.14	21.76	-36.60	-51.548	-24.402	93.982	-0.76065	0.55740	-0.31821	0.09677	30.2	13111	100
2025-3-27 20:26:7.284	WT901BLE68-01(48591DE3C19B)	-0.408	-0.474	0.207	-30.151	-87.830	19.409	-80.05	21.90	-35.49	-51.548	-24.402	93.982	-0.76065	0.55740	-0.31821	0.09677	30.2	13111	100
2025-3-27 20:26:7.284	WT901BLE68-01(48591DE3C19B)	-0.408	-0.313	0.195	-23.071	-110.901	45.471	-79.87	22.14	-34.23	-51.548	-24.402	93.982	-0.76065	0.55740	-0.31821	0.09677	30.2	13111	100
2025-3-27 20:26:7.313	WT901BLE68-01(48591DE3C19B)	-0.243	-0.313	0.195	-23.071	-110.901	45.471	-79.58	22.49	-32.83	-51.548	-24.402	93.982	-0.76065	0.55740	-0.31821	0.09677	30.2	13111	100
2025-3-27 20:26:7.313	WT901BLE68-01(48591DE3C19B)	-0.243	-0.053	0.167	-24.109	-87.952	59.082	-79.34	22.93	-31.53	-51.548	-24.402	93.982	-0.76065	0.55740	-0.31821	0.09677	30.2	13111	100
2025-3-27 20:26:7.313	WT901BLE68-01(48591DE3C19B)	-0.100	-0.053	0.167	-24.109	-87.952	59.082	-79.12	23.45	-30.33	-51.548	-24.402	93.982	-0.76065	0.55740	-0.31821	0.09677	30.2	13111	100
2025-3-27 20:26:7.313	WT901BLE68-01(48591DE3C19B)	-0.100	0.003	0.159	-29.907	-52.979	69.824	-79.00	24.05	-29.30	-51.548	-24.402	93.982	-0.76065	0.55740	-0.31821	0.09677	30.2	13111	100
2025-3-27 20:26:7.344	WT901BLE68-01(48591DE3C19B)	-0.153	0.003	0.159	-29.907	-52.979	69.824	-78.95	24.75	-28.44	-51.548	-24.402	93.982	-0.76065	0.55740	-0.31821	0.09677	30.2	13111	100
2025-3-27 20:26:7.344	WT901BLE68-01(48591DE3C19B)	-0.153	-0.199	0.142	-33.813	-13.367	67.444	-79.00	25.46	-27.78	-51.548	-24.402	93.982	-0.76065	0.55740	-0.31821	0.09677	30.2	13111	100
2025-3-27 20:26:7.344	WT901BLE68-01(48591DE3C19B)	-0.311	-0.199	0.142	-33.813	-13.367	67.444	-79.15	26.19	-27.35	-51.548	-24.402	93.982	-0.76065	0.55740	-0.31821	0.09677	30.2	13111	100
2025-3-27 20:26:7.344	WT901BLE68-01(48591DE3C19B)	-0.311	-0.533	0.107	-38.391	1.831	52.795	-79.37	26.87	-27.02	-51.548	-24.402	93.982	-0.76065	0.55740	-0.31821	0.09677	30.2	13111	100
2025-3-27 20:26:7.404	WT901BLE68-01(48591DE3C19B)	-0.393	-0.533	0.107	-38.391	1.831	52.795	-79.65	27.47	-26.79	-51.548	-24.402	93.982	-0.76065	0.55740	-0.31821	0.09677	30.2	13111	100
2025-3-27 20:26:7.404	WT901BLE68-01(48591DE3C19B)	-0.393	-1.015	0.064	-50.415	-4.700	33.325	-79.99	27.96	-26.56	-51.548	-24.402	93.982	-0.76065	0.55740	-0.31821	0.09677	30.2	13111	100
2025-3-27 20:26:7.404	WT901BLE68-01(48591DE3C19B)	-0.466	-1.015	0.064	-50.415	-4.700	33.325	-80.39	28.33	-26.33	-51.548	-24.402	93.982	-0.76065	0.55740	-0.31821	0.09677	30.2	13111	100
2025-3-27 20:26:7.404	WT901BLE68-01(48591DE3C19B)	-0.466	-1.857	0.017	-49.622	-9.460	4.333	-80.80	28.53	-26.12	-51.548	-24.402	93.982	-0.76065	0.55740	-0.31821	0.09677	30.2	13111	100
2025-3-27 20:26:7.469	WT901BLE68-01(48591DE3C19B)	-0.541	-1.857	0.017	-49.622	-9.460	4.333	-81.22	28.56	-25.93	-51.548	-30.870	94.668	-0.76065	0.55740	-0.31821	0.09677	30.2	13111	100
2025-3-27 20:26:7.469	WT901BLE68-01(48591DE3C19B)	-0.541	-2.557	-0.031	-7.874	-17.578	-16.907	-81.43	28.46	-25.74	-51.548	-30.870	94.668	-0.76065	0.55740	-0.31821	0.09677	30.2	13111	100
2025-3-27 20:26:7.469	WT901BLE68-01(48591DE3C19B)	-0.571	-2.557	-0.031	-7.874	-17.578	-16.907	-81.44	28.23	-25.53	-51.548	-30.870	94.668	-0.76065	0.55740	-0.31821	0.09677	30.2	13111	100
2025-3-27 20:26:7.469	WT901BLE68-01(48591DE3C19B)	-0.571	-1.938	0.070	46.204	-32.837	-12.634	-81.14	28.00	-25.24	-51.548	-30.870	94.668	-0.76065	0.55740	-0.31821	0.09677	30.2	13111	100
2025-3-27 20:26:7.469	WT901BLE68-01(48591DE3C19B)	-0.297	-1.938	0.070	46.204	-32.837	-12.634	-80.54	27.77	-24.87	-51.548	-30.870	94.668	-0.76065	0.55740	-0.31821	0.09677	30.2	13111	100
2025-3-27 20:26:7.469	WT901BLE68-01(48591DE3C19B)	-0.297	-1.381	0.028	34.180	-33.081	-9.155	-80.07	27.58	-24.49	-51.548	-30.870	94.668	-0.76065	0.55740	-0.31821	0.09677	30.2	13111	100
2025-3-27 20:26:7.469	WT901BLE68-01(48591DE3C19B)	-0.054	-1.381	0.028	34.180	-33.081	-9.155	-79.60	27.38	-24.13	-51.548	-30.870	94.668	-0.76065	0.55740	-0.31821	0.09677	30.2	13111	100
2025-3-27 20:26:7.469	WT901BLE68-01(48591DE3C19B)	-0.054	-1.119	0.069	39.734	0.305	3.906	-79.24	27.36	-24.11	-51.548	-30.870	94.668	-0.76065	0.55740	-0.31821	0.09677	30.2	13111	100
2025-3-27 20:26:7.556	WT901BLE68-01(48591DE3C19B)	0.026	-1.119	0.069	39.734	0.305	3.906	-78.88	27.32	-24.09	-51.548	-30.870	94.668	-0.76065	0.55740	-0.31821	0.09677	30.2	13111	100
2025-3-27 20:26:7.556	WT901BLE68-01(48591DE3C19B)	0.026	-0.795	0.186	40.649	36.987	18.738	-78.69	27.50	-24.46	-51.548	-30.870	94.668	-0.76065	0.55740	-0.31821	0.09677	30.2	13111	100
2025-3-27 20:26:7.556	WT901BLE68-01(48591DE3C19B)	-0.045	-0.795	0.186	40.649	36.987	18.738	-78.49	27.68	-24.82	-51.548	-30.870	94.668	-0.76065	0.55740	-0.31821	0.09677	30.2	13111	100
2025-3-27 20:26:7.556	WT901BLE68-01(48591DE3C19B)	-0.045	-0.607	0.268	30.640	51.636	24.292	-78.46	27.93	-25.33	-51.548	-30.870	94.668	-0.76065	0.55740	-0.31821	0.09677	30.2	13111	100
2025-3-27 20:26:7.557	WT901BLE68-01(48591DE3C19B)	-0.112	-0.607	0.268	30.640	51.636	24.292	-78.42	28.19	-25.84	-51.548	-30.870	94.668	-0.76065	0.55740	-0.31821	0.09677	30.2	13111	100
2025-3-27 20:26:7.557	WT901BLE68-01(48591DE3C19B)	-0.112	-0.568	0.313	25.818	47.485	19.226	-78.41	28.37	-26.31	-51.548	-30.870	94.668	-0.76065	0.55740	-0.31821	0.09677	30.2	13111	100
2025-3-27 20:26:7.557	WT901BLE68-01(48591DE3C19B)	-0.207	-0.568	0.313	25.818	47.485	19.226	-78.40	28.56	-26.78	-51.548	-30.870	94.668	-0.76065	0.55740	-0.31821	0.09677	30.2	13111	100
2025-3-27 20:26:7.557	WT901BLE68-01(48591DE3C19B)	-0.207	-0.502	0.249	35.706	48.584	17.151	-78.28	28.73	-27.27	-51.548	-30.870	94.668	-0.76065	0.55740	-0.31821	0.09677	30.2	13111	100
2025-3-27 20:26:7.614	WT901BLE68-01(48591DE3C19B)	-0.277	-0.502	0.249	35.706	48.584	17.151	-78.17	28.91	-27.75	-51.548	-30.870	94.668	-0.76065	0.55740	-0.31821	0.09677	30.2	13111	100
2025-3-27 20:26:7.614	WT901BLE68-01(48591DE3C19B)	-0.277	-0.383	0.131	43.579	60.730	22.156	-78.04	29.16	-28.35	-51.548	-30.870	94.668	-0.76065	0.55740	-0.31821	0.09677	30.2	13111	100
2025-3-27 20:26:7.614	WT901BLE68-01(48591DE3C19B)	-0.356	-0.383	0.131	43.579	60.730	22.156	-77.90	29.42	-28.94	-51.548	-30.870	94.668	-0.76819	0.53937	-0.34314	0.03342	30.2	13111	100
2025-3-27 20:26:7.615	WT901BLE68-01(48591DE3C19B)	-0.356	-0.342	0.054	40.833	67.993	31.799	-77.82	29.79	-29.59	-51.548	-30.870	94.668	-0.76819	0.53937	-0.34314	0.03342	30.2	13111	100
2025-3-27 20:26:7.643	WT901BLE68-01(48591DE3C19B)	-0.399	-0.342	0.054	40.833	67.993	31.799	-77.76	30.18	-30.22	-51.548	-30.870	94.668	-0.76819	0.53937	-0.34314	0.03342	30.2	13111	100
2025-3-27 20:26:7.643	WT901BLE68-01(48591DE3C19B)	-0.399	-0.474	0.077	32.715	63.843	39.368	-77.74	30.64	-30.79	-51.548	-30.870	94.668	-0.76819	0.53937	-0.34314	0.03342	30.2	13111	100
2025-3-27 20:26:7.643	WT901BLE68-01(48591DE3C19B)	-0.475	-0.474	0.077	32.715	63.843	39.368	-77.73	31.10	-31.35	-51.548	-30.870	94.668	-0.76819	0.53937	-0.34314	0.03342	30.2	13111	100
2025-3-27 20:26:7.643	WT901BLE68-01(48591DE3C19B)	-0.475	-0.658	0.123	27.832	56.580	31.799	-77.75	31.49	-31.85	-51.548	-30.870	94.668	-0.76819	0.53937	-0.34314	0.03342	30.2	13111	100
2025-3-27 20:26:7.704	WT901BLE68-01(48591DE3C19B)	-0.647	-0.658	0.123	27.832	56.580	31.799	-77.77	31.88	-32.34	-51.548	-30.870	94.668	-0.76819	0.53937	-0.34314	0.03342	30.2	13111	100
2025-3-27 20:26:7.704	WT901BLE68-01(48591DE3C19B)	-0.647	-0.827	0.133	18.066	39.490	13.184	-77.81	32.05	-32.67	-51.548	-30.870	94.668	-0.76819	0.53937	-0.34314	0.03342	30.2	13111	100
2025-3-27 20:26:7.704	WT901BLE68-01(48591DE3C19B)	-0.833	-0.827	0.133	18.066	39.490	13.184	-77.86	32.23	-33.01	-51.548	-30.870	94.668	-0.76819	0.53937	-0.34314	0.03342	30.2	13111	100
2025-3-27 20:26:7.704	WT901BLE68-01(48591DE3C19B)	-0.833	-1.178	0.171	1.221	13.855	-23.010	-77.96	32.02	-33.13	-51.548	-30.870	94.668	-0.76819	0.53937	-0.34314	0.03342	30.2	13111	100
2025-3-27 20:26:7.733	WT901BLE68-01(48591DE3C19B)	-0.989	-1.178	0.171	1.221	13.855	-23.010	-78.07	31.81	-33.24	-51.548	-30.870	94.668	-0.76819	0.53937	-0.34314	0.03342	30.2	13111	100
2025-3-27 20:26:7.733	WT901BLE68-01(48591DE3C19B)	-0.989	-1.572	0.335	0.916	-6.653	-67.139	-78.12	31.14	-33.23	-51.548	-30.870	94.668	-0.76819	0.53937	-0.34314	0.03342	30.2	13111	100
2025-3-27 20:26:7.733	WT901BLE68-01(48591DE3C19B)	-1.176	-1.572	0.335	0.916	-6.653	-67.139	-78.16	30.46	-33.22	-51.548	-30.870	94.668	-0.76819	0.53937	-0.34314	0.03342	30.2	13111	100
2025-3-27 20:26:7.734	WT901BLE68-01(48591DE3C19B)	-1.176	-1.697	0.500	1.465	-20.813	-89.050	-78.13	29.55	-33.09	-51.548	-30.870	94.668	-0.76819	0.53937	-0.34314	0.03342	30.2	13111	100
2025-3-27 20:26:7.824	WT901BLE68-01(48591DE3C19B)	-0.990	-1.697	0.500	1.465	-20.813	-89.050	-78.11	28.66	-32.96	-51.548	-30.870	94.668	-0.76819	0.53937	-0.34314	0.03342	30.2	13111	100
2025-3-27 20:26:7.824	WT901BLE68-01(48591DE3C19B)	-0.990	-1.358	0.510	2.991	1.526	-86.975	-78.18	27.83	-33.08	-51.548	-30.870	94.668	-0.76819	0.53937	-0.34314	0.03342	30.2	13111	100
2025-3-27 20:26:7.824	WT901BLE68-01(48591DE3C19B)	-0.760	-1.358	0.510	2.991	1.526	-86.975	-78.24	27.02	-33.19	-51.548	-30.870	94.668	-0.76819	0.53937	-0.34314	0.03342	30.2	13111	100
2025-3-27 20:26:7.824	WT901BLE68-01(48591DE3C19B)	-0.760	-1.063	0.475	-1.465	38.269	-72.083	-78.50	26.42	-33.66	-51.548	-30.870	94.668	-0.76819	0.53937	-0.34314	0.03342	30.2	13111	100
2025-3-27 20:26:7.825	WT901BLE68-01(48591DE3C19B)	-0.544	-1.063	0.475	-1.465	38.269	-72.083	-78.76	25.83	-34.12	-51.548	-30.870	94.668	-0.76819	0.53937	-0.34314	0.03342	30.2	13111	100
2025-3-27 20:26:7.825	WT901BLE68-01(48591DE3C19B)	-0.544	-0.797	0.361	-1.587	48.584	-54.871	-79.02	25.43	-34.65	-51.548	-30.870	94.668	-0.76819	0.53937	-0.34314	0.03342	30.2	13111	100
2025-3-27 20:26:7.825	WT901BLE68-01(48591DE3C19B)	-0.512	-0.797	0.361	-1.587	48.584	-54.871	-79.29	25.04	-35.17	-58.604	-27.538	94.864	-0.76819	0.53937	-0.34314	0.03342	30.2	13111	100
2025-3-27 20:26:7.825	WT901BLE68-01(48591DE3C19B)	-0.512	-0.517	0.309	-5.188	20.569	-30.151	-79.43	24.83	-35.33	-58.604	-27.538	94.864	-0.76819	0.53937	-0.34314	0.03342	30.2	13111	100
2025-3-27 20:26:7.853	WT901BLE68-01(48591DE3C19B)	-0.542	-0.517	0.309	-5.188	20.569	-30.151	-79.56	24.63	-35.49	-58.604	-27.538	94.864	-0.76819	0.53937	-0.34314	0.03342	30.2	13111	100
2025-3-27 20:26:7.853	WT901BLE68-01(48591DE3C19B)	-0.542	-0.497	0.282	-26.978	-26.794	-15.137	-79.68	24.50	-35.10	-58.604	-27.538	94.864	-0.76819	0.53937	-0.34314	0.03342	30.2	13111	100
2025-3-27 20:26:7.853	WT901BLE68-01(48591DE3C19B)	-0.442	-0.497	0.282	-26.978	-26.794	-15.137	-79.81	24.37	-34.71	-58.604	-27.538	94.864	-0.76819	0.53937	-0.34314	0.03342	30.2	13111	100
2025-3-27 20:26:7.854	WT901BLE68-01(48591DE3C19B)	-0.442	-0.496	0.301	-25.452	-52.612	8.667	-79.78	24.44	-33.99	-58.604	-27.538	94.864	-0.76819	0.53937	-0.34314	0.03342	30.2	13111	100
2025-3-27 20:26:7.884	WT901BLE68-01(48591DE3C19B)	-0.335	-0.496	0.301	-25.452	-52.612	8.667	-79.74	24.51	-33.27	-58.604	-27.538	94.864	-0.76819	0.53937	-0.34314	0.03342	30.2	13111	100
2025-3-27 20:26:7.884	WT901BLE68-01(48591DE3C19B)	-0.335	-0.339	0.303	-16.846	-39.673	21.912	-79.66	24.72	-32.67	-58.604	-27.538	94.864	-0.76819	0.53937	-0.34314	0.03342	30.2	13111	100
2025-3-27 20:26:7.884	WT901BLE68-01(48591DE3C19B)	-0.239	-0.339	0.303	-16.846	-39.673	21.912	-79.57	24.94	-32.06	-58.604	-27.538	94.864	-0.76819	0.53937	-0.34314	0.03342	30.2	13111	100
2025-3-27 20:26:7.884	WT901BLE68-01(48591DE3C19B)	-0.239	-0.096	0.259	-8.972	-17.151	33.936	-79.49	25.32	-31.67	-58.604	-27.538	94.864	-0.76819	0.53937	-0.34314	0.03342	30.2	13111	100
2025-3-27 20:26:7.913	WT901BLE68-01(48591DE3C19B)	-0.199	-0.096	0.259	-8.972	-17.151	33.936	-79.40	25.71	-31.28	-58.604	-27.538	94.864	-0.76819	0.53937	-0.34314	0.03342	30.2	13111	100
2025-3-27 20:26:7.913	WT901BLE68-01(48591DE3C19B)	-0.199	0.024	0.183	-14.404	2.502	46.326	-79.44	26.25	-31.06	-58.604	-27.538	94.864	-0.76819	0.53937	-0.34314	0.03342	30.2	13111	100
2025-3-27 20:26:7.913	WT901BLE68-01(48591DE3C19B)	-0.290	0.024	0.183	-14.404	2.502	46.326	-79.46	26.81	-30.84	-58.604	-27.538	94.864	-0.76819	0.53937	-0.34314	0.03342	30.2	13111	100
2025-3-27 20:26:7.913	WT901BLE68-01(48591DE3C19B)	-0.405	-0.194	0.117	-27.222	9.155	47.974	-79.66	27.38	-30.68	-58.604	-27.538	94.864	-0.76819	0.53937	-0.34314	0.03342	30.2	13111	100
2025-3-27 20:26:7.976	WT901BLE68-01(48591DE3C19B)	-0.405	-0.568	0.089	-36.926	-1.892	39.063	-79.87	27.91	-30.47	-58.604	-27.538	94.864	-0.76819	0.53937	-0.34314	0.03342	30.2	13111	100
2025-3-27 20:26:7.976	WT901BLE68-01(48591DE3C19B)	-0.474	-0.568	0.089	-36.926	-1.892	39.063	-80.12	28.38	-30.22	-58.604	-27.538	94.864	-0.76819	0.53937	-0.34314	0.03342	30.2	13111	100
2025-3-27 20:26:7.976	WT901BLE68-01(48591DE3C19B)	-0.474	-0.975	0.027	-47.607	-30.090	27.161	-80.35	28.75	-29.82	-58.604	-27.538	94.864	-0.76819	0.53937	-0.34314	0.03342	30.2	13111	100
2025-3-27 20:26:7.976	WT901BLE68-01(48591DE3C19B)	-0.481	-0.975	0.027	-47.607	-30.090	27.161	-80.59	29.03	-29.31	-58.604	-27.538	94.864	-0.76819	0.53937	-0.34314	0.03342	30.2	13111	100
2025-3-27 20:26:8.6	WT901BLE68-01(48591DE3C19B)	-0.481	-1.626	-0.044	-54.260	-57.678	7.141	-80.80	29.17	-28.66	-58.604	-27.538	94.864	-0.76819	0.53937	-0.34314	0.03342	30.2	13111	100
2025-3-27 20:26:8.6	WT901BLE68-01(48591DE3C19B)	-0.438	-1.626	-0.044	-54.260	-57.678	7.141	-81.00	29.16	-27.92	-58.604	-27.538	94.864	-0.76819	0.53937	-0.34314	0.03342	30.2	13111	100
2025-3-27 20:26:8.6	WT901BLE68-01(48591DE3C19B)	-0.438	-2.335	-0.046	-29.724	-75.317	-22.583	-81.05	28.98	-27.11	-58.604	-27.538	94.864	-0.76819	0.53937	-0.34314	0.03342	30.2	13111	100
2025-3-27 20:26:8.6	WT901BLE68-01(48591DE3C19B)	-0.529	-2.335	-0.046	-29.724	-75.317	-22.583	-80.97	28.62	-26.26	-58.604	-27.538	94.864	-0.75439	0.57138	-0.32278	0.00958	30.2	13111	100
2025-3-27 20:26:8.36	WT901BLE68-01(48591DE3C19B)	-0.529	-2.280	0.109	13.550	-79.346	-20.264	-80.67	28.25	-25.41	-58.604	-27.538	94.864	-0.75439	0.57138	-0.32278	0.00958	30.2	13111	100
2025-3-27 20:26:8.36	WT901BLE68-01(48591DE3C19B)	-0.464	-2.280	0.109	13.550	-79.346	-20.264	-80.16	27.87	-24.54	-58.604	-27.538	94.864	-0.75439	0.57138	-0.32278	0.00958	30.2	13111	100
2025-3-27 20:26:8.36	WT901BLE68-01(48591DE3C19B)	-0.464	-1.695	0.132	20.325	-69.336	-23.926	-79.66	27.47	-23.75	-58.604	-27.538	94.864	-0.75439	0.57138	-0.32278	0.00958	30.2	13111	100
2025-3-27 20:26:8.36	WT901BLE68-01(48591DE3C19B)	-0.204	-1.695	0.132	20.325	-69.336	-23.926	-79.17	27.06	-23.03	-58.604	-27.538	94.864	-0.75439	0.57138	-0.32278	0.00958	30.2	13111	100
2025-3-27 20:26:8.154	WT901BLE68-01(48591DE3C19B)	-0.204	-1.394	0.121	27.954	-30.945	-14.893	-78.73	26.72	-22.52	-58.604	-27.538	94.864	-0.75439	0.57138	-0.32278	0.00958	30.2	13111	100
2025-3-27 20:26:8.154	WT901BLE68-01(48591DE3C19B)	-0.033	-1.394	0.121	27.954	-30.945	-14.893	-78.36	26.46	-22.22	-58.604	-27.538	94.864	-0.75439	0.57138	-0.32278	0.00958	30.2	13111	100
2025-3-27 20:26:8.154	WT901BLE68-01(48591DE3C19B)	-0.033	-1.000	0.147	36.255	21.301	-3.052	-78.07	26.30	-22.20	-58.604	-27.538	94.864	-0.75439	0.57138	-0.32278	0.00958	30.2	13111	100
2025-3-27 20:26:8.155	WT901BLE68-01(48591DE3C19B)	-0.007	-1.000	0.147	36.255	21.301	-3.052	-77.85	26.25	-22.45	-58.604	-27.538	94.864	-0.75439	0.57138	-0.32278	0.00958	30.2	13111	100
2025-3-27 20:26:8.156	WT901BLE68-01(48591DE3C19B)	-0.007	-0.692	0.189	34.180	59.692	8.240	-77.74	26.29	-22.90	-58.604	-27.538	94.864	-0.75439	0.57138	-0.32278	0.00958	30.2	13111	100
2025-3-27 20:26:8.156	WT901BLE68-01(48591DE3C19B)	-0.134	-0.692	0.189	34.180	59.692	8.240	-77.72	26.42	-23.54	-58.604	-27.538	94.864	-0.75439	0.57138	-0.32278	0.00958	30.2	13111	100
2025-3-27 20:26:8.156	WT901BLE68-01(48591DE3C19B)	-0.134	-0.527	0.249	33.142	63.110	4.822	-77.71	26.54	-24.20	-58.604	-27.538	94.864	-0.75439	0.57138	-0.32278	0.00958	30.2	13111	100
2025-3-27 20:26:8.156	WT901BLE68-01(48591DE3C19B)	-0.190	-0.527	0.249	33.142	63.110	4.822	-77.71	26.64	-24.89	-58.604	-27.538	94.864	-0.75439	0.57138	-0.32278	0.00958	30.2	13111	100
2025-3-27 20:26:8.186	WT901BLE68-01(48591DE3C19B)	-0.190	-0.355	0.263	35.522	42.969	7.751	-77.65	26.73	-25.46	-58.604	-27.538	94.864	-0.75439	0.57138	-0.32278	0.00958	30.2	13111	100
2025-3-27 20:26:8.186	WT901BLE68-01(48591DE3C19B)	-0.135	-0.355	0.263	35.522	42.969	7.751	-77.51	26.82	-25.90	-58.604	-27.538	94.864	-0.75439	0.57138	-0.32278	0.00958	30.2	13111	100
2025-3-27 20:26:8.186	WT901BLE68-01(48591DE3C19B)	-0.135	-0.166	0.193	38.635	39.307	18.799	-77.34	26.97	-26.31	-58.604	-27.538	94.864	-0.75439	0.57138	-0.32278	0.00958	30.2	13111	100
2025-3-27 20:26:8.187	WT901BLE68-01(48591DE3C19B)	-0.218	-0.166	0.193	38.635	39.307	18.799	-77.13	27.16	-26.69	-58.604	-27.538	94.864	-0.75439	0.57138	-0.32278	0.00958	30.2	13111	100
2025-3-27 20:26:8.215	WT901BLE68-01(48591DE3C19B)	-0.218	-0.070	0.130	41.626	53.772	33.630	-76.93	27.45	-27.11	-58.604	-27.538	94.864	-0.75439	0.57138	-0.32278	0.00958	30.2	13111	100
2025-3-27 20:26:8.216	WT901BLE68-01(48591DE3C19B)	-0.358	-0.070	0.130	41.626	53.772	33.630	-76.74	27.83	-27.59	-58.604	-27.538	94.864	-0.75439	0.57138	-0.32278	0.00958	30.2	13111	100
2025-3-27 20:26:8.216	WT901BLE68-01(48591DE3C19B)	-0.358	-0.110	0.127	39.124	53.284	47.485	-76.56	28.30	-28.05	-58.604	-27.538	94.864	-0.75439	0.57138	-0.32278	0.00958	30.2	13111	100
2025-3-27 20:26:8.216	WT901BLE68-01(48591DE3C19B)	-0.489	-0.110	0.127	39.124	53.284	47.485	-76.37	28.84	-28.47	-58.604	-27.538	94.864	-0.75439	0.57138	-0.32278	0.00958	30.2	13111	100
2025-3-27 20:26:8.245	WT901BLE68-01(48591DE3C19B)	-0.489	-0.307	0.139	28.198	30.701	54.871	-76.17	29.40	-28.73	-55.958	-30.380	93.198	-0.75439	0.57138	-0.32278	0.00958	30.2	13111	100
2025-3-27 20:26:8.245	WT901BLE68-01(48591DE3C19B)	-0.615	-0.307	0.139	28.198	30.701	54.871	-75.97	29.99	-28.86	-55.958	-30.380	93.198	-0.75439	0.57138	-0.32278	0.00958	30.2	13111	100
2025-3-27 20:26:8.245	WT901BLE68-01(48591DE3C19B)	-0.615	-0.586	0.115	17.883	3.967	53.162	-75.74	30.55	-28.81	-55.958	-30.380	93.198	-0.75439	0.57138	-0.32278	0.00958	30.2	13111	100
2025-3-27 20:26:8.246	WT901BLE68-01(48591DE3C19B)	-0.724	-0.586	0.115	17.883	3.967	53.162	-75.49	31.08	-28.61	-55.958	-30.380	93.198	-0.75439	0.57138	-0.32278	0.00958	30.2	13111	100
2025-3-27 20:26:8.274	WT901BLE68-01(48591DE3C19B)	-0.724	-0.930	0.101	6.042	-16.296	40.405	-75.26	31.53	-28.31	-55.958	-30.380	93.198	-0.75439	0.57138	-0.32278	0.00958	30.2	13111	100
2025-3-27 20:26:8.274	WT901BLE68-01(48591DE3C19B)	-0.830	-0.930	0.101	6.042	-16.296	40.405	-75.05	31.89	-27.92	-55.958	-30.380	93.198	-0.75439	0.57138	-0.32278	0.00958	30.2	13111	100
2025-3-27 20:26:8.274	WT901BLE68-01(48591DE3C19B)	-0.830	-1.482	0.163	3.174	-30.762	5.188	-74.84	32.06	-27.49	-55.958	-30.380	93.198	-0.75439	0.57138	-0.32278	0.00958	30.2	13111	100
2025-3-27 20:26:8.274	WT901BLE68-01(48591DE3C19B)	-0.850	-1.482	0.163	3.174	-30.762	5.188	-74.64	32.03	-27.04	-55.958	-30.380	93.198	-0.75439	0.57138	-0.32278	0.00958	30.2	13111	100
2025-3-27 20:26:8.334	WT901BLE68-01(48591DE3C19B)	-0.850	-1.871	0.315	16.113	-36.926	-45.471	-74.40	31.74	-26.65	-55.958	-30.380	93.198	-0.75439	0.57138	-0.32278	0.00958	30.2	13111	100
2025-3-27 20:26:8.334	WT901BLE68-01(48591DE3C19B)	-0.997	-1.871	0.315	16.113	-36.926	-45.471	-74.12	31.20	-26.32	-55.958	-30.380	93.198	-0.75439	0.57138	-0.32278	0.00958	30.2	13111	100
2025-3-27 20:26:8.334	WT901BLE68-01(48591DE3C19B)	-0.997	-1.759	0.463	22.705	-10.315	-57.373	-73.92	30.64	-26.17	-55.958	-30.380	93.198	-0.75439	0.57138	-0.32278	0.00958	30.2	13111	100
2025-3-27 20:26:8.334	WT901BLE68-01(48591DE3C19B)	-0.936	-1.759	0.463	22.705	-10.315	-57.373	-73.75	30.05	-26.19	-55.958	-30.380	93.198	-0.75439	0.57138	-0.32278	0.00958	30.2	13111	100
2025-3-27 20:26:8.368	WT901BLE68-01(48591DE3C19B)	-0.936	-1.261	0.512	25.146	48.950	-60.425	-73.74	29.54	-26.53	-55.958	-30.380	93.198	-0.75439	0.57138	-0.32278	0.00958	30.2	13111	100
2025-3-27 20:26:8.369	WT901BLE68-01(48591DE3C19B)	-0.789	-1.261	0.512	25.146	48.950	-60.425	-73.87	29.10	-27.20	-55.958	-30.380	93.198	-0.75439	0.57138	-0.32278	0.00958	30.2	13111	100
2025-3-27 20:26:8.369	WT901BLE68-01(48591DE3C19B)	-0.789	-0.923	0.545	15.930	85.571	-51.514	-74.11	28.76	-28.04	-55.958	-30.380	93.198	-0.75439	0.57138	-0.32278	0.00958	30.2	13111	100
2025-3-27 20:26:8.369	WT901BLE68-01(48591DE3C19B)	-0.604	-0.923	0.545	15.930	85.571	-51.514	-74.48	28.51	-29.05	-55.958	-30.380	93.198	-0.75439	0.57138	-0.32278	0.00958	30.2	13111	100
2025-3-27 20:26:8.396	WT901BLE68-01(48591DE3C19B)	-0.604	-0.624	0.422	7.263	78.369	-34.424	-74.85	28.33	-29.99	-55.958	-30.380	93.198	-0.75439	0.57138	-0.32278	0.00958	30.2	13111	100
2025-3-27 20:26:8.396	WT901BLE68-01(48591DE3C19B)	-0.671	-0.624	0.422	7.263	78.369	-34.424	-75.22	28.23	-30.86	-55.958	-30.380	93.198	-0.75439	0.57138	-0.32278	0.00958	30.2	13111	100
2025-3-27 20:26:8.396	WT901BLE68-01(48591DE3C19B)	-0.671	-0.364	0.321	-11.353	18.127	-18.250	-75.43	28.14	-31.00	-55.958	-30.380	93.198	-0.77911	0.52039	-0.34387	0.06174	30.2	13111	100
2025-3-27 20:26:8.396	WT901BLE68-01(48591DE3C19B)	-0.622	-0.364	0.321	-11.353	18.127	-18.250	-75.64	28.05	-31.14	-55.958	-30.380	93.198	-0.77911	0.52039	-0.34387	0.06174	30.2	13111	100
2025-3-27 20:26:8.454	WT901BLE68-01(48591DE3C19B)	-0.622	-0.423	0.229	-46.204	-60.791	-6.226	-75.77	27.90	-30.37	-55.958	-30.380	93.198	-0.77911	0.52039	-0.34387	0.06174	30.2	13111	100
2025-3-27 20:26:8.454	WT901BLE68-01(48591DE3C19B)	-0.515	-0.423	0.229	-46.204	-60.791	-6.226	-75.90	27.75	-29.60	-55.958	-30.380	93.198	-0.77911	0.52039	-0.34387	0.06174	30.2	13111	100
2025-3-27 20:26:8.454	WT901BLE68-01(48591DE3C19B)	-0.515	-0.573	0.226	-47.729	-93.506	11.353	-75.86	27.70	-28.42	-55.958	-30.380	93.198	-0.77911	0.52039	-0.34387	0.06174	30.2	13111	100
2025-3-27 20:26:8.454	WT901BLE68-01(48591DE3C19B)	-0.483	-0.573	0.226	-47.729	-93.506	11.353	-75.82	27.65	-27.25	-55.958	-30.380	93.198	-0.77911	0.52039	-0.34387	0.06174	30.2	13111	100
2025-3-27 20:26:8.483	WT901BLE68-01(48591DE3C19B)	-0.483	-0.535	0.268	-32.593	-83.252	17.334	-75.67	27.68	-26.18	-55.958	-30.380	93.198	-0.77911	0.52039	-0.34387	0.06174	30.2	13111	100
2025-3-27 20:26:8.483	WT901BLE68-01(48591DE3C19B)	-0.386	-0.535	0.268	-32.593	-83.252	17.334	-75.52	27.71	-25.11	-55.958	-30.380	93.198	-0.77911	0.52039	-0.34387	0.06174	30.2	13111	100
2025-3-27 20:26:8.483	WT901BLE68-01(48591DE3C19B)	-0.386	-0.340	0.253	-22.217	-66.895	25.391	-75.33	27.86	-24.20	-55.958	-30.380	93.198	-0.77911	0.52039	-0.34387	0.06174	30.2	13111	100
2025-3-27 20:26:8.483	WT901BLE68-01(48591DE3C19B)	-0.258	-0.340	0.253	-22.217	-66.895	25.391	-75.14	28.00	-23.29	-55.958	-30.380	93.198	-0.77911	0.52039	-0.34387	0.06174	30.2	13111	100
2025-3-27 20:26:8.513	WT901BLE68-01(48591DE3C19B)	-0.258	-0.150	0.194	-17.334	-39.246	36.194	-75.03	28.33	-22.64	-55.958	-30.380	93.198	-0.77911	0.52039	-0.34387	0.06174	30.2	13111	100
2025-3-27 20:26:8.513	WT901BLE68-01(48591DE3C19B)	-0.236	-0.150	0.194	-17.334	-39.246	36.194	-74.90	28.65	-21.99	-55.958	-30.380	93.198	-0.77911	0.52039	-0.34387	0.06174	30.2	13111	100
2025-3-27 20:26:8.513	WT901BLE68-01(48591DE3C19B)	-0.236	-0.133	0.146	-16.724	-10.193	46.082	-74.90	29.14	-21.62	-55.958	-30.380	93.198	-0.77911	0.52039	-0.34387	0.06174	30.2	13111	100
2025-3-27 20:26:8.513	WT901BLE68-01(48591DE3C19B)	-0.324	-0.133	0.146	-16.724	-10.193	46.082	-74.89	29.64	-21.24	-55.958	-30.380	93.198	-0.77911	0.52039	-0.34387	0.06174	30.2	13111	100
2025-3-27 20:26:8.575	WT901BLE68-01(48591DE3C19B)	-0.324	-0.285	0.118	-20.203	-0.183	46.265	-74.98	30.16	-20.97	-55.958	-30.380	93.198	-0.77911	0.52039	-0.34387	0.06174	30.2	13111	100
2025-3-27 20:26:8.575	WT901BLE68-01(48591DE3C19B)	-0.452	-0.285	0.118	-20.203	-0.183	46.265	-75.05	30.68	-20.70	-55.958	-30.380	93.198	-0.77911	0.52039	-0.34387	0.06174	30.2	13111	100
2025-3-27 20:26:8.575	WT901BLE68-01(48591DE3C19B)	-0.452	-0.533	0.098	-28.625	-14.160	42.114	-75.15	31.12	-20.30	-55.958	-30.380	93.198	-0.77911	0.52039	-0.34387	0.06174	30.2	13111	100
2025-3-27 20:26:8.576	WT901BLE68-01(48591DE3C19B)	-0.535	-0.533	0.098	-28.625	-14.160	42.114	-75.25	31.55	-19.89	-55.958	-30.380	93.198	-0.77911	0.52039	-0.34387	0.06174	30.2	13111	100
2025-3-27 20:26:8.606	WT901BLE68-01(48591DE3C19B)	-0.535	-0.904	0.092	-42.358	-46.753	32.227	-75.32	31.81	-19.16	-55.958	-30.380	93.198	-0.77911	0.52039	-0.34387	0.06174	30.2	13111	100
2025-3-27 20:26:8.606	WT901BLE68-01(48591DE3C19B)	-0.670	-0.904	0.092	-42.358	-46.753	32.227	-75.39	32.04	-18.44	-55.958	-30.380	93.198	-0.77911	0.52039	-0.34387	0.06174	30.2	13111	100
2025-3-27 20:26:8.606	WT901BLE68-01(48591DE3C19B)	-0.670	-1.666	0.127	-45.288	-75.989	4.456	-75.38	31.92	-17.50	-55.958	-30.380	93.198	-0.77911	0.52039	-0.34387	0.06174	30.2	13111	100
2025-3-27 20:26:8.606	WT901BLE68-01(48591DE3C19B)	-0.894	-1.666	0.127	-45.288	-75.989	4.456	-75.37	31.78	-16.58	-53.704	-34.202	91.630	-0.77911	0.52039	-0.34387	0.06174	30.2	13111	100
2025-3-27 20:26:8.636	WT901BLE68-01(48591DE3C19B)	-0.894	-2.384	0.216	-18.311	-101.013	-32.715	-75.03	31.20	-15.52	-53.704	-34.202	91.630	-0.77911	0.52039	-0.34387	0.06174	30.2	13111	100
2025-3-27 20:26:8.636	WT901BLE68-01(48591DE3C19B)	-0.984	-2.384	0.216	-18.311	-101.013	-32.715	-74.71	30.61	-14.49	-53.704	-34.202	91.630	-0.77911	0.52039	-0.34387	0.06174	30.2	13111	100
2025-3-27 20:26:8.636	WT901BLE68-01(48591DE3C19B)	-0.984	-2.212	0.278	17.761	-102.234	-35.156	-74.06	29.98	-13.46	-53.704	-34.202	91.630	-0.77911	0.52039	-0.34387	0.06174	30.2	13111	100
2025-3-27 20:26:8.636	WT901BLE68-01(48591DE3C19B)	-0.764	-2.212	0.278	17.761	-102.234	-35.156	-73.42	29.34	-12.47	-53.704	-34.202	91.630	-0.77911	0.52039	-0.34387	0.06174	30.2	13111	100
2025-3-27 20:26:8.694	WT901BLE68-01(48591DE3C19B)	-0.764	-1.656	0.250	21.606	-48.889	-35.278	-73.05	28.84	-12.07	-53.704	-34.202	91.630	-0.77911	0.52039	-0.34387	0.06174	30.2	13111	100
2025-3-27 20:26:8.694	WT901BLE68-01(48591DE3C19B)	-0.494	-1.656	0.250	21.606	-48.889	-35.278	-72.69	28.36	-11.68	-53.704	-34.202	91.630	-0.77911	0.52039	-0.34387	0.06174	30.2	13111	100
2025-3-27 20:26:8.694	WT901BLE68-01(48591DE3C19B)	-0.494	-1.514	0.273	27.100	11.780	-23.926	-72.57	28.15	-11.92	-53.704	-34.202	91.630	-0.77911	0.52039	-0.34387	0.06174	30.2	13111	100
2025-3-27 20:26:8.694	WT901BLE68-01(48591DE3C19B)	-0.278	-1.514	0.273	27.100	11.780	-23.926	-72.45	27.94	-12.16	-53.704	-34.202	91.630	-0.77911	0.52039	-0.34387	0.06174	30.2	13111	100
2025-3-27 20:26:8.723	WT901BLE68-01(48591DE3C19B)	-0.278	-1.221	0.255	38.513	48.828	-3.113	-72.37	28.03	-12.72	-53.704	-34.202	91.630	-0.77911	0.52039	-0.34387	0.06174	30.2	13111	100
2025-3-27 20:26:8.723	WT901BLE68-01(48591DE3C19B)	-0.300	-1.221	0.255	38.513	48.828	-3.113	-72.29	28.12	-13.29	-53.704	-34.202	91.630	-0.77911	0.52039	-0.34387	0.06174	30.2	13111	100
2025-3-27 20:26:8.723	WT901BLE68-01(48591DE3C19B)	-0.300	-0.876	0.218	34.973	51.392	15.564	-72.23	28.39	-13.82	-53.704	-34.202	91.630	-0.77911	0.52039	-0.34387	0.06174	30.2	13111	100
2025-3-27 20:26:8.723	WT901BLE68-01(48591DE3C19B)	-0.350	-0.876	0.218	34.973	51.392	15.564	-72.17	28.66	-14.35	-53.704	-34.202	91.630	-0.77911	0.52039	-0.34387	0.06174	30.2	13111	100
2025-3-27 20:26:8.844	WT901BLE68-01(48591DE3C19B)	-0.350	-0.720	0.222	16.479	41.199	16.541	-72.24	28.91	-14.77	-53.704	-34.202	91.630	-0.77911	0.52039	-0.34387	0.06174	30.2	13111	100
2025-3-27 20:26:8.844	WT901BLE68-01(48591DE3C19B)	-0.356	-0.720	0.222	16.479	41.199	16.541	-72.31	29.15	-15.18	-53.704	-34.202	91.630	-0.77911	0.52039	-0.34387	0.06174	30.2	13111	100
2025-3-27 20:26:8.845	WT901BLE68-01(48591DE3C19B)	-0.356	-0.585	0.234	9.033	46.265	26.550	-72.46	29.50	-15.61	-53.704	-34.202	91.630	-0.77911	0.52039	-0.34387	0.06174	30.2	13111	100
2025-3-27 20:26:8.845	WT901BLE68-01(48591DE3C19B)	-0.391	-0.585	0.234	9.033	46.265	26.550	-72.61	29.86	-16.05	-53.704	-34.202	91.630	-0.77911	0.52039	-0.34387	0.06174	30.2	13111	100
2025-3-27 20:26:8.846	WT901BLE68-01(48591DE3C19B)	-0.391	-0.462	0.264	-0.427	57.007	24.902	-72.91	30.23	-16.60	-53.704	-34.202	91.630	-0.77911	0.52039	-0.34387	0.06174	30.2	13111	100
2025-3-27 20:26:8.846	WT901BLE68-01(48591DE3C19B)	-0.445	-0.462	0.264	-0.427	57.007	24.902	-73.21	30.60	-17.15	-53.704	-34.202	91.630	-0.77911	0.52039	-0.34387	0.06174	30.2	13111	100
2025-3-27 20:26:8.846	WT901BLE68-01(48591DE3C19B)	-0.445	-0.363	0.289	-5.737	45.654	20.996	-73.50	30.90	-17.58	-53.704	-34.202	91.630	-0.77911	0.52039	-0.34387	0.06174	30.2	13111	100
2025-3-27 20:26:8.846	WT901BLE68-01(48591DE3C19B)	-0.491	-0.363	0.289	-5.737	45.654	20.996	-73.80	31.20	-18.01	-53.704	-34.202	91.630	-0.77911	0.52039	-0.34387	0.06174	30.2	13111	100
2025-3-27 20:26:8.846	WT901BLE68-01(48591DE3C19B)	-0.491	-0.299	0.300	-9.705	17.639	15.747	-73.96	31.39	-18.12	-53.704	-34.202	91.630	-0.77911	0.52039	-0.34387	0.06174	30.2	13111	100
2025-3-27 20:26:8.847	WT901BLE68-01(48591DE3C19B)	-0.491	-0.299	0.300	-9.705	17.639	15.747	-74.11	31.58	-18.23	-53.704	-34.202	91.630	-0.77911	0.52039	-0.34387	0.06174	30.2	13111	100
2025-3-27 20:26:8.847	WT901BLE68-01(48591DE3C19B)	-0.425	-0.280	0.256	-12.451	-10.864	14.038	-74.13	31.68	-18.01	-53.704	-34.202	91.630	-0.77911	0.52039	-0.34387	0.06174	30.2	13111	100
2025-3-27 20:26:8.847	WT901BLE68-01(48591DE3C19B)	-0.425	-0.313	0.168	-13.550	-34.973	15.137	-74.07	31.77	-17.65	-53.704	-34.202	91.630	-0.77911	0.52039	-0.34387	0.06174	30.2	13111	100
2025-3-27 20:26:8.875	WT901BLE68-01(48591DE3C19B)	-0.337	-0.313	0.168	-13.550	-34.973	15.137	-73.94	31.84	-17.14	-53.704	-34.202	91.630	-0.77911	0.52039	-0.34387	0.06174	30.2	13111	100
2025-3-27 20:26:8.875	WT901BLE68-01(48591DE3C19B)	-0.337	-0.396	0.136	-10.864	-62.195	13.733	-73.72	31.87	-16.48	-53.704	-34.202	91.630	-0.77911	0.52039	-0.34387	0.06174	30.2	13111	100
2025-3-27 20:26:8.875	WT901BLE68-01(48591DE3C19B)	-0.223	-0.396	0.136	-10.864	-62.195	13.733	-73.41	31.84	-15.67	-53.704	-34.202	91.630	-0.78607	0.53937	-0.29623	-0.05734	30.2	13111	100
2025-3-27 20:26:8.876	WT901BLE68-01(48591DE3C19B)	-0.223	-0.496	0.154	-10.132	-93.384	7.690	-73.01	31.74	-14.69	-53.704	-34.202	91.630	-0.78607	0.53937	-0.29623	-0.05734	30.2	13111	100
2025-3-27 20:26:8.934	WT901BLE68-01(48591DE3C19B)	-0.193	-0.496	0.154	-10.132	-93.384	7.690	-72.53	31.56	-13.57	-53.704	-34.202	91.630	-0.78607	0.53937	-0.29623	-0.05734	30.2	13111	100
2025-3-27 20:26:8.934	WT901BLE68-01(48591DE3C19B)	-0.193	-0.599	0.221	-4.639	-96.252	6.958	-72.02	31.35	-12.45	-53.704	-34.202	91.630	-0.78607	0.53937	-0.29623	-0.05734	30.2	13111	100
2025-3-27 20:26:8.934	WT901BLE68-01(48591DE3C19B)	-0.201	-0.599	0.221	-4.639	-96.252	6.958	-71.48	31.12	-11.34	-53.704	-34.202	91.630	-0.78607	0.53937	-0.29623	-0.05734	30.2	13111	100
2025-3-27 20:26:8.934	WT901BLE68-01(48591DE3C19B)	-0.201	-0.647	0.284	2.380	-84.900	8.240	-70.96	30.90	-10.29	-53.704	-34.202	91.630	-0.78607	0.53937	-0.29623	-0.05734	30.2	13111	100
2025-3-27 20:26:8.970	WT901BLE68-01(48591DE3C19B)	-0.165	-0.647	0.284	2.380	-84.900	8.240	-70.43	30.68	-9.33	-53.704	-34.202	91.630	-0.78607	0.53937	-0.29623	-0.05734	30.2	13111	100
2025-3-27 20:26:8.970	WT901BLE68-01(48591DE3C19B)	-0.165	-0.739	0.283	-0.793	-64.636	4.639	-69.98	30.48	-8.51	-53.704	-34.202	91.630	-0.78607	0.53937	-0.29623	-0.05734	30.2	13111	100
2025-3-27 20:26:8.970	WT901BLE68-01(48591DE3C19B)	-0.211	-0.739	0.283	-0.793	-64.636	4.639	-69.63	30.27	-7.81	-53.704	-34.202	91.630	-0.78607	0.53937	-0.29623	-0.05734	30.2	13111	100
2025-3-27 20:26:8.970	WT901BLE68-01(48591DE3C19B)	-0.211	-1.076	0.245	-8.606	-34.790	-6.287	-69.41	30.05	-7.32	-53.704	-34.202	91.630	-0.78607	0.53937	-0.29623	-0.05734	30.2	13111	100
2025-3-27 20:26:8.996	WT901BLE68-01(48591DE3C19B)	-0.293	-1.076	0.245	-8.606	-34.790	-6.287	-69.32	29.82	-7.02	-53.704	-34.202	91.630	-0.78607	0.53937	-0.29623	-0.05734	30.2	13111	100
2025-3-27 20:26:8.996	WT901BLE68-01(48591DE3C19B)	-0.293	-1.463	0.134	-16.235	-10.498	-24.048	-69.38	29.55	-6.90	-53.704	-34.202	91.630	-0.78607	0.53937	-0.29623	-0.05734	30.2	13111	100
2025-3-27 20:26:8.996	WT901BLE68-01(48591DE3C19B)	-0.526	-1.463	0.134	-16.235	-10.498	-24.048	-69.57	29.22	-6.97	-53.704	-34.202	91.630	-0.78607	0.53937	-0.29623	-0.05734	30.2	13111	100
2025-3-27 20:26:8.996	WT901BLE68-01(48591DE3C19B)	-0.526	-1.977	0.247	-26.123	-6.409	-50.232	-69.86	28.79	-7.10	-53.704	-34.202	91.630	-0.78607	0.53937	-0.29623	-0.05734	30.2	13111	100
2025-3-27 20:26:9.53	WT901BLE68-01(48591DE3C19B)	-0.821	-1.977	0.247	-26.123	-6.409	-50.232	-70.23	28.23	-7.31	-53.704	-34.202	91.630	-0.78607	0.53937	-0.29623	-0.05734	30.2	13111	100
2025-3-27 20:26:9.53	WT901BLE68-01(48591DE3C19B)	-0.821	-2.422	0.479	-20.325	-21.606	-59.387	-70.54	27.61	-7.45	-46.746	-34.790	90.552	-0.78607	0.53937	-0.29623	-0.05734	30.2	13111	100
2025-3-27 20:26:9.53	WT901BLE68-01(48591DE3C19B)	-0.701	-2.422	0.479	-20.325	-21.606	-59.387	-70.80	26.92	-7.52	-46.746	-34.790	90.552	-0.78607	0.53937	-0.29623	-0.05734	30.2	13111	100
2025-3-27 20:26:9.53	WT901BLE68-01(48591DE3C19B)	-0.701	-1.689	0.671	-3.662	-50.293	-58.655	-70.89	26.20	-7.43	-46.746	-34.790	90.552	-0.78607	0.53937	-0.29623	-0.05734	30.2	13111	100
2025-3-27 20:26:9.83	WT901BLE68-01(48591DE3C19B)	-0.451	-1.689	0.671	-3.662	-50.293	-58.655	-70.83	25.44	-7.19	-46.746	-34.790	90.552	-0.78607	0.53937	-0.29623	-0.05734	30.2	13111	100
2025-3-27 20:26:9.83	WT901BLE68-01(48591DE3C19B)	-0.451	-1.124	0.687	-17.578	-66.711	-29.236	-70.78	24.80	-6.81	-46.746	-34.790	90.552	-0.78607	0.53937	-0.29623	-0.05734	30.2	13111	100
2025-3-27 20:26:9.83	WT901BLE68-01(48591DE3C19B)	-0.274	-1.124	0.687	-17.578	-66.711	-29.236	-70.74	24.27	-6.29	-46.746	-34.790	90.552	-0.78607	0.53937	-0.29623	-0.05734	30.2	13111	100
2025-3-27 20:26:9.83	WT901BLE68-01(48591DE3C19B)	-0.274	-0.989	0.583	-35.583	-52.429	-13.184	-70.80	23.84	-5.82	-46.746	-34.790	90.552	-0.78607	0.53937	-0.29623	-0.05734	30.2	13111	100
2025-3-27 20:26:9.143	WT901BLE68-01(48591DE3C19B)	-0.217	-0.989	0.583	-35.583	-52.429	-13.184	-70.97	23.51	-5.39	-46.746	-34.790	90.552	-0.78607	0.53937	-0.29623	-0.05734	30.2	13111	100
2025-3-27 20:26:9.143	WT901BLE68-01(48591DE3C19B)	-0.217	-0.979	0.400	-35.095	-18.982	-6.653	-71.19	23.27	-5.14	-46.746	-34.790	90.552	-0.78607	0.53937	-0.29623	-0.05734	30.2	13111	100
2025-3-27 20:26:9.143	WT901BLE68-01(48591DE3C19B)	-0.312	-0.979	0.400	-35.095	-18.982	-6.653	-71.47	23.11	-5.04	-46.746	-34.790	90.552	-0.78607	0.53937	-0.29623	-0.05734	30.2	13111	100
2025-3-27 20:26:9.143	WT901BLE68-01(48591DE3C19B)	-0.312	-0.974	0.324	-31.433	-5.066	-5.798	-71.76	22.97	-5.01	-46.746	-34.790	90.552	-0.78607	0.53937	-0.29623	-0.05734	30.2	13111	100
2025-3-27 20:26:9.173	WT901BLE68-01(48591DE3C19B)	-0.339	-0.974	0.324	-31.433	-5.066	-5.798	-72.05	22.87	-5.05	-46.746	-34.790	90.552	-0.78607	0.53937	-0.29623	-0.05734	30.2	13111	100
2025-3-27 20:26:9.173	WT901BLE68-01(48591DE3C19B)	-0.339	-1.198	0.308	-24.536	-3.052	-8.545	-72.32	22.75	-5.11	-46.746	-34.790	90.552	-0.78607	0.53937	-0.29623	-0.05734	30.2	13111	100
2025-3-27 20:26:9.173	WT901BLE68-01(48591DE3C19B)	-0.328	-1.198	0.308	-24.536	-3.052	-8.545	-72.56	22.62	-5.18	-46.746	-34.790	90.552	-0.78607	0.53937	-0.29623	-0.05734	30.2	13111	100
2025-3-27 20:26:9.173	WT901BLE68-01(48591DE3C19B)	-0.328	-1.189	0.297	1.953	14.343	-11.841	-72.71	22.51	-5.34	-46.746	-34.790	90.552	-0.78607	0.53937	-0.29623	-0.05734	30.2	13111	100
2025-3-27 20:26:9.204	WT901BLE68-01(48591DE3C19B)	-0.258	-1.189	0.297	1.953	14.343	-11.841	-72.76	22.40	-5.60	-46.746	-34.790	90.552	-0.78607	0.53937	-0.29623	-0.05734	30.2	13111	100
2025-3-27 20:26:9.204	WT901BLE68-01(48591DE3C19B)	-0.258	-0.908	0.290	20.081	43.823	-14.343	-72.78	22.32	-6.02	-46.746	-34.790	90.552	-0.78607	0.53937	-0.29623	-0.05734	30.2	13111	100
2025-3-27 20:26:9.204	WT901BLE68-01(48591DE3C19B)	-0.268	-0.908	0.290	20.081	43.823	-14.343	-72.77	22.28	-6.58	-46.746	-34.790	90.552	-0.78607	0.53937	-0.29623	-0.05734	30.2	13111	100
2025-3-27 20:26:9.204	WT901BLE68-01(48591DE3C19B)	-0.268	-0.727	0.306	27.405	73.853	-10.986	-72.77	22.30	-7.29	-46.746	-34.790	90.552	-0.78607	0.53937	-0.29623	-0.05734	30.2	13111	100
2025-3-27 20:26:9.294	WT901BLE68-01(48591DE3C19B)	-0.346	-0.727	0.306	27.405	73.853	-10.986	-72.80	22.37	-8.15	-46.746	-34.790	90.552	-0.78607	0.53937	-0.29623	-0.05734	30.2	13111	100
2025-3-27 20:26:9.294	WT901BLE68-01(48591DE3C19B)	-0.346	-0.625	0.314	26.062	85.266	-10.437	-72.86	22.47	-9.06	-46.746	-34.790	90.552	-0.79578	0.56754	-0.20508	-0.04999	30.2	13111	100
2025-3-27 20:26:9.295	WT901BLE68-01(48591DE3C19B)	-0.430	-0.625	0.314	26.062	85.266	-10.437	-72.94	22.59	-10.03	-46.746	-34.790	90.552	-0.79578	0.56754	-0.20508	-0.04999	30.2	13111	100
2025-3-27 20:26:9.295	WT901BLE68-01(48591DE3C19B)	-0.430	-0.593	0.320	18.494	72.632	-10.437	-73.03	22.69	-10.91	-46.746	-34.790	90.552	-0.79578	0.56754	-0.20508	-0.04999	30.2	13111	100
2025-3-27 20:26:9.295	WT901BLE68-01(48591DE3C19B)	-0.446	-0.593	0.320	18.494	72.632	-10.437	-73.13	22.79	-11.73	-46.746	-34.790	90.552	-0.79578	0.56754	-0.20508	-0.04999	30.2	13111	100
2025-3-27 20:26:9.295	WT901BLE68-01(48591DE3C19B)	-0.446	-0.603	0.308	7.507	45.654	-9.399	-73.22	22.85	-12.39	-46.746	-34.790	90.552	-0.79578	0.56754	-0.20508	-0.04999	30.2	13111	100
2025-3-27 20:26:9.295	WT901BLE68-01(48591DE3C19B)	-0.433	-0.603	0.308	7.507	45.654	-9.399	-73.32	22.87	-12.91	-46.746	-34.790	90.552	-0.79578	0.56754	-0.20508	-0.04999	30.2	13111	100
2025-3-27 20:26:9.295	WT901BLE68-01(48591DE3C19B)	-0.433	-0.636	0.298	-0.977	22.461	-8.972	-73.41	22.88	-13.30	-46.746	-34.790	90.552	-0.79578	0.56754	-0.20508	-0.04999	30.2	13111	100
