time	DeviceName	AccX(g)	AccY(g)	AccZ(g)	AsX(°/s)	AsY(°/s)	AsZ(°/s)	AngleX(°)	AngleY(°)	AngleZ(°)	HX(uT)	HY(uT)	HZ(uT)	Q0()	Q1()	Q2()	Q3()	Temperature(°C)	Version()	Battery level(%)
2025-3-27 20:13:20.296	WT901BLE68-01(48591DE3C19B)	-0.351	-0.887	0.262	0.122	0.244	-0.916	-74.67	21.02	-22.40	-53.606	-21.364	88.984	-0.78827	0.55527	-0.26144	0.04288	28.5	13111	100
2025-3-27 20:13:20.296	WT901BLE68-01(48591DE3C19B)	-0.353	-0.887	0.262	0.122	0.244	-0.916	-74.66	21.01	-22.41	-53.606	-21.364	88.984	-0.78827	0.55527	-0.26144	0.04288	28.5	13111	100
2025-3-27 20:13:20.296	WT901BLE68-01(48591DE3C19B)	-0.353	-0.879	0.264	-0.183	0.366	-0.916	-74.66	20.99	-22.42	-53.606	-21.364	88.984	-0.78827	0.55527	-0.26144	0.04288	28.5	13111	100
2025-3-27 20:13:20.296	WT901BLE68-01(48591DE3C19B)	-0.356	-0.879	0.264	-0.183	0.366	-0.916	-74.66	20.99	-22.43	-53.606	-21.364	88.984	-0.78827	0.55527	-0.26144	0.04288	28.5	13111	100
2025-3-27 20:13:20.296	WT901BLE68-01(48591DE3C19B)	-0.356	-0.886	0.264	-0.671	-0.366	-1.038	-74.66	20.98	-22.43	-53.606	-21.364	88.984	-0.78839	0.55667	-0.25793	0.04385	28.5	13111	100
2025-3-27 20:13:20.296	WT901BLE68-01(48591DE3C19B)	-0.356	-0.886	0.264	-0.671	-0.366	-1.038	-74.65	20.96	-22.43	-53.606	-21.364	88.984	-0.78839	0.55667	-0.25793	0.04385	28.5	13111	100
2025-3-27 20:13:20.296	WT901BLE68-01(48591DE3C19B)	-0.356	-0.896	0.263	-0.549	-0.916	-1.282	-74.65	20.95	-22.43	-53.606	-21.364	88.984	-0.78839	0.55667	-0.25793	0.04385	28.5	13111	100
2025-3-27 20:13:20.297	WT901BLE68-01(48591DE3C19B)	-0.354	-0.896	0.263	-0.549	-0.916	-1.282	-74.65	20.93	-22.43	-53.606	-21.364	88.984	-0.78839	0.55667	-0.25793	0.04385	28.5	13111	100
2025-3-27 20:13:20.325	WT901BLE68-01(48591DE3C19B)	-0.354	-0.897	0.262	-0.183	-0.671	-1.526	-74.64	20.92	-22.43	-53.606	-21.364	88.984	-0.78839	0.55667	-0.25793	0.04385	28.5	13111	100
2025-3-27 20:13:20.325	WT901BLE68-01(48591DE3C19B)	-0.356	-0.897	0.262	-0.183	-0.671	-1.526	-74.64	20.90	-22.43	-53.606	-21.364	88.984	-0.78839	0.55667	-0.25793	0.04385	28.5	13111	100
2025-3-27 20:13:20.325	WT901BLE68-01(48591DE3C19B)	-0.356	-0.900	0.263	0.061	-0.244	-1.770	-74.63	20.89	-22.45	-53.606	-21.364	88.984	-0.78839	0.55667	-0.25793	0.04385	28.5	13111	100
2025-3-27 20:13:20.325	WT901BLE68-01(48591DE3C19B)	-0.358	-0.900	0.263	0.061	-0.244	-1.770	-74.62	20.86	-22.45	-53.606	-21.364	88.984	-0.78839	0.55667	-0.25793	0.04385	28.5	13111	100
2025-3-27 20:13:20.385	WT901BLE68-01(48591DE3C19B)	-0.358	-0.902	0.263	0.183	0.122	-1.648	-74.62	20.85	-22.46	-53.606	-21.364	88.984	-0.78839	0.55667	-0.25793	0.04385	28.5	13111	100
2025-3-27 20:13:20.385	WT901BLE68-01(48591DE3C19B)	-0.358	-0.902	0.263	0.183	0.122	-1.648	-74.61	20.84	-22.47	-53.606	-21.364	88.984	-0.78839	0.55667	-0.25793	0.04385	28.5	13111	100
2025-3-27 20:13:20.385	WT901BLE68-01(48591DE3C19B)	-0.358	-0.900	0.260	0.122	0.183	-1.160	-74.61	20.82	-22.48	-53.606	-21.364	88.984	-0.78839	0.55667	-0.25793	0.04385	28.5	13111	100
2025-3-27 20:13:20.385	WT901BLE68-01(48591DE3C19B)	-0.358	-0.900	0.260	0.122	0.183	-1.160	-74.60	20.81	-22.48	-53.606	-21.364	88.984	-0.78839	0.55667	-0.25793	0.04385	28.5	13111	100
2025-3-27 20:13:20.415	WT901BLE68-01(48591DE3C19B)	-0.358	-0.893	0.260	0.122	0.061	-0.732	-74.60	20.81	-22.49	-53.606	-21.364	88.984	-0.78839	0.55667	-0.25793	0.04385	28.5	13111	100
2025-3-27 20:13:20.415	WT901BLE68-01(48591DE3C19B)	-0.354	-0.893	0.260	0.122	0.061	-0.732	-74.59	20.80	-22.49	-53.606	-21.364	88.984	-0.78839	0.55667	-0.25793	0.04385	28.5	13111	100
2025-3-27 20:13:20.416	WT901BLE68-01(48591DE3C19B)	-0.354	-0.890	0.257	-0.366	-0.427	-0.549	-74.59	20.80	-22.50	-53.606	-21.364	88.984	-0.78839	0.55667	-0.25793	0.04385	28.5	13111	100
2025-3-27 20:13:20.416	WT901BLE68-01(48591DE3C19B)	-0.349	-0.890	0.257	-0.366	-0.427	-0.549	-74.58	20.79	-22.50	-53.606	-21.364	88.984	-0.78839	0.55667	-0.25793	0.04385	28.5	13111	100
2025-3-27 20:13:20.448	WT901BLE68-01(48591DE3C19B)	-0.349	-0.901	0.257	-0.183	-0.305	-0.427	-74.58	20.79	-22.50	-53.606	-21.364	88.984	-0.78839	0.55667	-0.25793	0.04385	28.5	13111	100
2025-3-27 20:13:20.448	WT901BLE68-01(48591DE3C19B)	-0.346	-0.901	0.257	-0.183	-0.305	-0.427	-74.58	20.78	-22.50	-53.606	-21.364	88.984	-0.78839	0.55667	-0.25793	0.04385	28.5	13111	100
2025-3-27 20:13:20.448	WT901BLE68-01(48591DE3C19B)	-0.346	-0.913	0.258	-0.183	0.244	-0.610	-74.58	20.78	-22.51	-53.606	-21.364	88.984	-0.78839	0.55667	-0.25793	0.04385	28.5	13111	100
2025-3-27 20:13:20.448	WT901BLE68-01(48591DE3C19B)	-0.348	-0.913	0.258	-0.183	0.244	-0.610	-74.58	20.77	-22.52	-53.606	-21.364	88.984	-0.78839	0.55667	-0.25793	0.04385	28.5	13111	100
2025-3-27 20:13:20.505	WT901BLE68-01(48591DE3C19B)	-0.348	-0.926	0.263	0.488	0.488	-0.549	-74.56	20.76	-22.53	-53.606	-21.364	88.984	-0.78839	0.55667	-0.25793	0.04385	28.5	13111	100
2025-3-27 20:13:20.505	WT901BLE68-01(48591DE3C19B)	-0.351	-0.926	0.263	0.488	0.488	-0.549	-74.56	20.76	-22.54	-53.606	-21.364	88.886	-0.78839	0.55667	-0.25793	0.04385	28.5	13111	100
2025-3-27 20:13:20.505	WT901BLE68-01(48591DE3C19B)	-0.351	-0.913	0.264	0.610	-0.366	0.000	-74.55	20.76	-22.54	-53.606	-21.364	88.886	-0.78839	0.55667	-0.25793	0.04385	28.5	13111	100
2025-3-27 20:13:20.505	WT901BLE68-01(48591DE3C19B)	-0.349	-0.913	0.264	0.610	-0.366	0.000	-74.54	20.75	-22.54	-53.606	-21.364	88.886	-0.78839	0.55667	-0.25793	0.04385	28.5	13111	100
2025-3-27 20:13:20.535	WT901BLE68-01(48591DE3C19B)	-0.349	-0.898	0.258	-0.610	-3.479	1.160	-74.53	20.75	-22.51	-53.606	-21.364	88.886	-0.78839	0.55667	-0.25793	0.04385	28.5	13111	100
2025-3-27 20:13:20.536	WT901BLE68-01(48591DE3C19B)	-0.348	-0.898	0.258	-0.610	-3.479	1.160	-74.51	20.75	-22.47	-53.606	-21.364	88.886	-0.78839	0.55667	-0.25793	0.04385	28.5	13111	100
2025-3-27 20:13:20.536	WT901BLE68-01(48591DE3C19B)	-0.348	-0.892	0.249	-2.441	-7.385	2.380	-74.51	20.75	-22.40	-53.606	-21.364	88.886	-0.78839	0.55667	-0.25793	0.04385	28.5	13111	100
2025-3-27 20:13:20.536	WT901BLE68-01(48591DE3C19B)	-0.340	-0.892	0.249	-2.441	-7.385	2.380	-74.50	20.76	-22.32	-53.606	-21.364	88.886	-0.78839	0.55667	-0.25793	0.04385	28.5	13111	100
2025-3-27 20:13:20.565	WT901BLE68-01(48591DE3C19B)	-0.340	-0.905	0.241	-4.761	-11.597	3.357	-74.50	20.76	-22.20	-53.606	-21.364	88.886	-0.78839	0.55667	-0.25793	0.04385	28.5	13111	100
2025-3-27 20:13:20.565	WT901BLE68-01(48591DE3C19B)	-0.312	-0.905	0.241	-4.761	-11.597	3.357	-74.50	20.75	-22.08	-53.606	-21.364	88.886	-0.78839	0.55667	-0.25793	0.04385	28.5	13111	100
2025-3-27 20:13:20.565	WT901BLE68-01(48591DE3C19B)	-0.312	-0.917	0.232	-6.470	-13.977	3.052	-74.51	20.74	-21.93	-53.606	-21.364	88.886	-0.78839	0.55667	-0.25793	0.04385	28.5	13111	100
2025-3-27 20:13:20.565	WT901BLE68-01(48591DE3C19B)	-0.286	-0.917	0.232	-6.470	-13.977	3.052	-74.52	20.73	-21.79	-53.606	-21.364	88.886	-0.78839	0.55667	-0.25793	0.04385	28.5	13111	100
2025-3-27 20:13:20.626	WT901BLE68-01(48591DE3C19B)	-0.286	-0.903	0.231	-7.263	-13.855	1.160	-74.54	20.70	-21.65	-53.606	-21.364	88.886	-0.78839	0.55667	-0.25793	0.04385	28.5	13111	100
2025-3-27 20:13:20.627	WT901BLE68-01(48591DE3C19B)	-0.295	-0.903	0.231	-7.263	-13.855	1.160	-74.56	20.67	-21.52	-53.606	-21.364	88.886	-0.78839	0.55667	-0.25793	0.04385	28.5	13111	100
2025-3-27 20:13:20.627	WT901BLE68-01(48591DE3C19B)	-0.295	-0.896	0.232	-9.277	-15.198	-1.526	-74.60	20.60	-21.38	-53.606	-21.364	88.886	-0.78839	0.55667	-0.25793	0.04385	28.5	13111	100
2025-3-27 20:13:20.627	WT901BLE68-01(48591DE3C19B)	-0.278	-0.896	0.232	-9.277	-15.198	-1.526	-74.64	20.54	-21.25	-53.606	-21.364	88.886	-0.78839	0.55667	-0.25793	0.04385	28.5	13111	100
2025-3-27 20:13:20.655	WT901BLE68-01(48591DE3C19B)	-0.245	-0.894	0.232	-11.292	-18.799	-4.272	-74.70	20.44	-21.08	-53.606	-21.364	88.886	-0.78839	0.55667	-0.25793	0.04385	28.5	13111	100
2025-3-27 20:13:20.655	WT901BLE68-01(48591DE3C19B)	-0.245	-0.891	0.217	-12.207	-19.043	-7.263	-74.75	20.32	-20.92	-53.606	-21.364	88.886	-0.78839	0.55667	-0.25793	0.04385	28.5	13111	100
2025-3-27 20:13:20.655	WT901BLE68-01(48591DE3C19B)	-0.238	-0.891	0.217	-12.207	-19.043	-7.263	-74.81	20.20	-20.76	-53.606	-21.364	88.886	-0.78839	0.55667	-0.25793	0.04385	28.5	13111	100
2025-3-27 20:13:20.655	WT901BLE68-01(48591DE3C19B)	-0.238	-0.899	0.212	-12.512	-18.188	-10.437	-74.88	20.05	-20.62	-53.606	-21.364	88.886	-0.78839	0.55667	-0.25793	0.04385	28.5	13111	100
2025-3-27 20:13:20.685	WT901BLE68-01(48591DE3C19B)	-0.229	-0.899	0.212	-12.512	-18.188	-10.437	-74.96	19.89	-20.48	-53.606	-21.364	88.886	-0.78839	0.55667	-0.25793	0.04385	28.5	13111	100
2025-3-27 20:13:20.685	WT901BLE68-01(48591DE3C19B)	-0.229	-0.923	0.216	-12.512	-18.066	-13.123	-75.03	19.71	-20.35	-53.606	-21.364	88.886	-0.78839	0.55667	-0.25793	0.04385	28.5	13111	100
2025-3-27 20:13:20.685	WT901BLE68-01(48591DE3C19B)	-0.216	-0.923	0.216	-12.512	-18.066	-13.123	-75.11	19.52	-20.23	-53.606	-21.364	88.886	-0.78708	0.56836	-0.23691	0.03543	28.5	13111	100
2025-3-27 20:13:20.685	WT901BLE68-01(48591DE3C19B)	-0.216	-0.944	0.221	-10.925	-13.855	-14.465	-75.19	19.34	-20.13	-53.606	-21.364	88.886	-0.78708	0.56836	-0.23691	0.03543	28.5	13111	100
2025-3-27 20:13:20.746	WT901BLE68-01(48591DE3C19B)	-0.194	-0.944	0.221	-10.925	-13.855	-14.465	-75.27	19.14	-20.06	-53.606	-21.364	88.886	-0.78708	0.56836	-0.23691	0.03543	28.5	13111	100
2025-3-27 20:13:20.746	WT901BLE68-01(48591DE3C19B)	-0.194	-0.945	0.221	-9.216	-6.470	-15.320	-75.36	18.95	-20.02	-53.606	-21.364	88.886	-0.78708	0.56836	-0.23691	0.03543	28.5	13111	100
2025-3-27 20:13:20.746	WT901BLE68-01(48591DE3C19B)	-0.193	-0.945	0.221	-9.216	-6.470	-15.320	-75.44	18.76	-20.03	-53.606	-21.364	88.886	-0.78708	0.56836	-0.23691	0.03543	28.5	13111	100
2025-3-27 20:13:20.746	WT901BLE68-01(48591DE3C19B)	-0.193	-0.959	0.221	-7.751	3.418	-16.357	-75.54	18.59	-20.08	-53.606	-21.364	88.886	-0.78708	0.56836	-0.23691	0.03543	28.5	13111	100
2025-3-27 20:13:20.775	WT901BLE68-01(48591DE3C19B)	-0.215	-0.959	0.221	-7.751	3.418	-16.357	-75.65	18.41	-20.19	-53.606	-21.364	88.886	-0.78708	0.56836	-0.23691	0.03543	28.5	13111	100
2025-3-27 20:13:20.775	WT901BLE68-01(48591DE3C19B)	-0.215	-0.980	0.230	-6.653	11.780	-18.127	-75.77	18.24	-20.35	-53.606	-21.364	88.886	-0.78708	0.56836	-0.23691	0.03543	28.5	13111	100
2025-3-27 20:13:20.775	WT901BLE68-01(48591DE3C19B)	-0.246	-0.980	0.230	-6.653	11.780	-18.127	-75.89	18.07	-20.55	-53.606	-21.364	88.886	-0.78708	0.56836	-0.23691	0.03543	28.5	13111	100
2025-3-27 20:13:20.775	WT901BLE68-01(48591DE3C19B)	-0.246	-1.015	0.243	-6.409	16.663	-20.752	-76.01	17.89	-20.78	-53.606	-21.364	88.886	-0.78708	0.56836	-0.23691	0.03543	28.5	13111	100
2025-3-27 20:13:20.806	WT901BLE68-01(48591DE3C19B)	-0.282	-1.015	0.243	-6.409	16.663	-20.752	-76.15	17.71	-21.03	-53.606	-21.364	88.886	-0.78708	0.56836	-0.23691	0.03543	28.5	13111	100
2025-3-27 20:13:20.806	WT901BLE68-01(48591DE3C19B)	-0.282	-1.037	0.253	-5.798	17.334	-23.743	-76.28	17.51	-21.29	-53.606	-21.364	88.886	-0.78708	0.56836	-0.23691	0.03543	28.5	13111	100
2025-3-27 20:13:20.806	WT901BLE68-01(48591DE3C19B)	-0.305	-1.037	0.253	-5.798	17.334	-23.743	-76.41	17.30	-21.55	-53.606	-21.364	88.886	-0.78708	0.56836	-0.23691	0.03543	28.5	13111	100
2025-3-27 20:13:20.806	WT901BLE68-01(48591DE3C19B)	-0.305	-1.013	0.260	-5.615	14.893	-26.978	-76.54	17.07	-21.80	-53.606	-21.364	88.886	-0.78708	0.56836	-0.23691	0.03543	28.5	13111	100
2025-3-27 20:13:20.866	WT901BLE68-01(48591DE3C19B)	-0.313	-1.013	0.260	-5.615	14.893	-26.978	-76.65	16.83	-22.04	-53.606	-21.364	88.886	-0.78708	0.56836	-0.23691	0.03543	28.5	13111	100
2025-3-27 20:13:20.866	WT901BLE68-01(48591DE3C19B)	-0.313	-0.959	0.264	-6.531	11.475	-30.151	-76.77	16.57	-22.26	-53.606	-21.364	88.886	-0.78708	0.56836	-0.23691	0.03543	28.5	13111	100
2025-3-27 20:13:20.866	WT901BLE68-01(48591DE3C19B)	-0.320	-0.959	0.264	-6.531	11.475	-30.151	-76.88	16.29	-22.47	-53.606	-21.364	88.886	-0.78708	0.56836	-0.23691	0.03543	28.5	13111	100
2025-3-27 20:13:20.866	WT901BLE68-01(48591DE3C19B)	-0.320	-0.909	0.265	-8.362	7.935	-32.715	-77.00	16.00	-22.66	-53.606	-21.364	88.886	-0.78708	0.56836	-0.23691	0.03543	28.5	13111	100
2025-3-27 20:13:20.895	WT901BLE68-01(48591DE3C19B)	-0.330	-0.909	0.265	-8.362	7.935	-32.715	-77.12	15.70	-22.84	-52.528	-23.030	89.474	-0.78708	0.56836	-0.23691	0.03543	28.5	13111	100
2025-3-27 20:13:20.895	WT901BLE68-01(48591DE3C19B)	-0.330	-0.871	0.266	-10.010	4.517	-34.607	-77.24	15.39	-22.99	-52.528	-23.030	89.474	-0.78708	0.56836	-0.23691	0.03543	28.5	13111	100
2025-3-27 20:13:20.895	WT901BLE68-01(48591DE3C19B)	-0.329	-0.871	0.266	-10.010	4.517	-34.607	-77.36	15.06	-23.13	-52.528	-23.030	89.474	-0.78708	0.56836	-0.23691	0.03543	28.5	13111	100
2025-3-27 20:13:20.895	WT901BLE68-01(48591DE3C19B)	-0.329	-0.850	0.265	-10.925	2.075	-36.194	-77.48	14.73	-23.26	-52.528	-23.030	89.474	-0.78708	0.56836	-0.23691	0.03543	28.5	13111	100
2025-3-27 20:13:20.957	WT901BLE68-01(48591DE3C19B)	-0.330	-0.850	0.265	-10.925	2.075	-36.194	-77.60	14.40	-23.37	-52.528	-23.030	89.474	-0.78708	0.56836	-0.23691	0.03543	28.5	13111	100
2025-3-27 20:13:20.957	WT901BLE68-01(48591DE3C19B)	-0.330	-0.837	0.267	-10.925	1.282	-37.720	-77.71	14.06	-23.47	-52.528	-23.030	89.474	-0.78708	0.56836	-0.23691	0.03543	28.5	13111	100
2025-3-27 20:13:20.957	WT901BLE68-01(48591DE3C19B)	-0.336	-0.837	0.267	-10.925	1.282	-37.720	-77.82	13.72	-23.58	-52.528	-23.030	89.474	-0.78708	0.56836	-0.23691	0.03543	28.5	13111	100
2025-3-27 20:13:20.957	WT901BLE68-01(48591DE3C19B)	-0.336	-0.842	0.271	-10.071	1.648	-39.551	-77.93	13.36	-23.68	-52.528	-23.030	89.474	-0.78708	0.56836	-0.23691	0.03543	28.5	13111	100
2025-3-27 20:13:20.986	WT901BLE68-01(48591DE3C19B)	-0.339	-0.842	0.271	-10.071	1.648	-39.551	-78.03	13.01	-23.79	-52.528	-23.030	89.474	-0.78708	0.56836	-0.23691	0.03543	28.5	13111	100
2025-3-27 20:13:20.986	WT901BLE68-01(48591DE3C19B)	-0.339	-0.848	0.279	-8.118	3.357	-41.199	-78.12	12.66	-23.90	-52.528	-23.030	89.474	-0.78708	0.56836	-0.23691	0.03543	28.5	13111	100
2025-3-27 20:13:20.986	WT901BLE68-01(48591DE3C19B)	-0.337	-0.848	0.279	-8.118	3.357	-41.199	-78.20	12.30	-24.02	-52.528	-23.030	89.474	-0.78708	0.56836	-0.23691	0.03543	28.5	13111	100
2025-3-27 20:13:20.986	WT901BLE68-01(48591DE3C19B)	-0.337	-0.846	0.283	-5.615	7.263	-42.603	-78.27	11.94	-24.16	-52.528	-23.030	89.474	-0.78708	0.56836	-0.23691	0.03543	28.5	13111	100
2025-3-27 20:13:21.14	WT901BLE68-01(48591DE3C19B)	-0.347	-0.846	0.283	-5.615	7.263	-42.603	-78.33	11.58	-24.32	-52.528	-23.030	89.474	-0.78708	0.56836	-0.23691	0.03543	28.5	13111	100
2025-3-27 20:13:21.14	WT901BLE68-01(48591DE3C19B)	-0.347	-0.840	0.289	-3.357	12.024	-43.457	-78.38	11.23	-24.50	-52.528	-23.030	89.474	-0.78708	0.56836	-0.23691	0.03543	28.5	13111	100
2025-3-27 20:13:21.15	WT901BLE68-01(48591DE3C19B)	-0.366	-0.840	0.289	-3.357	12.024	-43.457	-78.42	10.88	-24.71	-52.528	-23.030	89.474	-0.78708	0.56836	-0.23691	0.03543	28.5	13111	100
2025-3-27 20:13:21.15	WT901BLE68-01(48591DE3C19B)	-0.366	-0.832	0.300	-1.404	15.015	-43.274	-78.45	10.53	-24.93	-52.528	-23.030	89.474	-0.78708	0.56836	-0.23691	0.03543	28.5	13111	100
2025-3-27 20:13:21.47	WT901BLE68-01(48591DE3C19B)	-0.378	-0.832	0.300	-1.404	15.015	-43.274	-78.48	10.20	-25.16	-52.528	-23.030	89.474	-0.78708	0.56836	-0.23691	0.03543	28.5	13111	100
2025-3-27 20:13:21.47	WT901BLE68-01(48591DE3C19B)	-0.378	-0.838	0.308	-0.854	15.869	-41.077	-78.49	9.88	-25.38	-52.528	-23.030	89.474	-0.78708	0.56836	-0.23691	0.03543	28.5	13111	100
2025-3-27 20:13:21.47	WT901BLE68-01(48591DE3C19B)	-0.376	-0.838	0.308	-0.854	15.869	-41.077	-78.50	9.57	-25.61	-52.528	-23.030	89.474	-0.78708	0.56836	-0.23691	0.03543	28.5	13111	100
2025-3-27 20:13:21.47	WT901BLE68-01(48591DE3C19B)	-0.376	-0.833	0.304	0.427	17.578	-37.231	-78.51	9.29	-25.85	-52.528	-23.030	89.474	-0.78708	0.56836	-0.23691	0.03543	28.5	13111	100
2025-3-27 20:13:21.106	WT901BLE68-01(48591DE3C19B)	-0.375	-0.833	0.304	0.427	17.578	-37.231	-78.50	9.03	-26.09	-52.528	-23.030	89.474	-0.78708	0.56836	-0.23691	0.03543	28.5	13111	100
2025-3-27 20:13:21.106	WT901BLE68-01(48591DE3C19B)	-0.375	-0.829	0.300	0.488	21.057	-32.959	-78.50	8.80	-26.33	-52.528	-23.030	89.474	-0.76282	0.60071	-0.20154	0.12860	28.5	13111	100
2025-3-27 20:13:21.106	WT901BLE68-01(48591DE3C19B)	-0.380	-0.829	0.300	0.488	21.057	-32.959	-78.50	8.59	-26.59	-52.528	-23.030	89.474	-0.76282	0.60071	-0.20154	0.12860	28.5	13111	100
2025-3-27 20:13:21.106	WT901BLE68-01(48591DE3C19B)	-0.380	-0.845	0.302	1.160	25.757	-28.687	-78.49	8.44	-26.88	-52.528	-23.030	89.474	-0.76282	0.60071	-0.20154	0.12860	28.5	13111	100
2025-3-27 20:13:21.134	WT901BLE68-01(48591DE3C19B)	-0.410	-0.845	0.302	1.160	25.757	-28.687	-78.49	8.29	-27.17	-52.528	-23.030	89.474	-0.76282	0.60071	-0.20154	0.12860	28.5	13111	100
2025-3-27 20:13:21.135	WT901BLE68-01(48591DE3C19B)	-0.410	-0.833	0.303	2.075	27.954	-23.376	-78.47	8.21	-27.48	-52.528	-23.030	89.474	-0.76282	0.60071	-0.20154	0.12860	28.5	13111	100
2025-3-27 20:13:21.135	WT901BLE68-01(48591DE3C19B)	-0.447	-0.833	0.303	2.075	27.954	-23.376	-78.46	8.12	-27.78	-52.528	-23.030	89.474	-0.76282	0.60071	-0.20154	0.12860	28.5	13111	100
2025-3-27 20:13:21.135	WT901BLE68-01(48591DE3C19B)	-0.447	-0.809	0.303	3.174	26.428	-17.090	-78.43	8.09	-28.05	-52.528	-23.030	89.474	-0.76282	0.60071	-0.20154	0.12860	28.5	13111	100
2025-3-27 20:13:21.165	WT901BLE68-01(48591DE3C19B)	-0.471	-0.809	0.303	3.174	26.428	-17.090	-78.40	8.07	-28.31	-52.528	-23.030	89.474	-0.76282	0.60071	-0.20154	0.12860	28.5	13111	100
2025-3-27 20:13:21.165	WT901BLE68-01(48591DE3C19B)	-0.471	-0.769	0.289	2.686	18.799	-9.827	-78.36	8.11	-28.49	-52.528	-23.030	89.474	-0.76282	0.60071	-0.20154	0.12860	28.5	13111	100
2025-3-27 20:13:21.165	WT901BLE68-01(48591DE3C19B)	-0.467	-0.769	0.289	2.686	18.799	-9.827	-78.32	8.15	-28.66	-52.528	-23.030	89.474	-0.76282	0.60071	-0.20154	0.12860	28.5	13111	100
2025-3-27 20:13:21.165	WT901BLE68-01(48591DE3C19B)	-0.467	-0.737	0.271	1.038	7.629	-2.075	-78.28	8.25	-28.70	-52.528	-23.030	89.474	-0.76282	0.60071	-0.20154	0.12860	28.5	13111	100
2025-3-27 20:13:21.226	WT901BLE68-01(48591DE3C19B)	-0.459	-0.737	0.271	1.038	7.629	-2.075	-78.24	8.34	-28.74	-52.528	-23.030	89.474	-0.76282	0.60071	-0.20154	0.12860	28.5	13111	100
2025-3-27 20:13:21.226	WT901BLE68-01(48591DE3C19B)	-0.459	-0.715	0.255	-0.122	-3.357	5.920	-78.20	8.50	-28.65	-52.528	-23.030	89.474	-0.76282	0.60071	-0.20154	0.12860	28.5	13111	100
2025-3-27 20:13:21.226	WT901BLE68-01(48591DE3C19B)	-0.432	-0.715	0.255	-0.122	-3.357	5.920	-78.16	8.66	-28.56	-52.528	-23.030	89.474	-0.76282	0.60071	-0.20154	0.12860	28.5	13111	100
2025-3-27 20:13:21.226	WT901BLE68-01(48591DE3C19B)	-0.432	-0.683	0.241	-0.916	-12.085	13.916	-78.11	8.89	-28.37	-52.528	-23.030	89.474	-0.76282	0.60071	-0.20154	0.12860	28.5	13111	100
2025-3-27 20:13:21.257	WT901BLE68-01(48591DE3C19B)	-0.393	-0.683	0.241	-0.916	-12.085	13.916	-78.06	9.11	-28.18	-52.528	-23.030	89.474	-0.76282	0.60071	-0.20154	0.12860	28.5	13111	100
2025-3-27 20:13:21.257	WT901BLE68-01(48591DE3C19B)	-0.393	-0.653	0.226	-1.831	-15.137	20.813	-78.01	9.39	-27.94	-52.528	-23.030	89.474	-0.76282	0.60071	-0.20154	0.12860	28.5	13111	100
2025-3-27 20:13:21.257	WT901BLE68-01(48591DE3C19B)	-0.385	-0.653	0.226	-1.831	-15.137	20.813	-77.96	9.67	-27.70	-52.528	-23.030	89.474	-0.76282	0.60071	-0.20154	0.12860	28.5	13111	100
2025-3-27 20:13:21.257	WT901BLE68-01(48591DE3C19B)	-0.385	-0.683	0.206	-3.418	-14.648	24.841	-77.93	10.00	-27.46	-52.528	-23.030	89.474	-0.76282	0.60071	-0.20154	0.12860	28.5	13111	100
2025-3-27 20:13:21.287	WT901BLE68-01(48591DE3C19B)	-0.406	-0.683	0.206	-3.418	-14.648	24.841	-77.89	10.32	-27.22	-52.528	-23.030	89.474	-0.76282	0.60071	-0.20154	0.12860	28.5	13111	100
2025-3-27 20:13:21.288	WT901BLE68-01(48591DE3C19B)	-0.406	-0.769	0.204	-4.761	-14.221	24.597	-77.88	10.63	-26.98	-52.528	-23.030	89.474	-0.76282	0.60071	-0.20154	0.12860	28.5	13111	100
2025-3-27 20:13:21.288	WT901BLE68-01(48591DE3C19B)	-0.431	-0.769	0.204	-4.761	-14.221	24.597	-77.86	10.94	-26.75	-55.664	-22.442	89.768	-0.76282	0.60071	-0.20154	0.12860	28.5	13111	100
2025-3-27 20:13:21.288	WT901BLE68-01(48591DE3C19B)	-0.431	-0.879	0.216	-4.333	-14.587	20.691	-77.84	11.22	-26.52	-55.664	-22.442	89.768	-0.76282	0.60071	-0.20154	0.12860	28.5	13111	100
2025-3-27 20:13:21.346	WT901BLE68-01(48591DE3C19B)	-0.432	-0.879	0.216	-4.333	-14.587	20.691	-77.82	11.49	-26.29	-55.664	-22.442	89.768	-0.76282	0.60071	-0.20154	0.12860	28.5	13111	100
2025-3-27 20:13:21.346	WT901BLE68-01(48591DE3C19B)	-0.432	-0.977	0.234	-1.526	-12.146	17.273	-77.78	11.72	-26.09	-55.664	-22.442	89.768	-0.76282	0.60071	-0.20154	0.12860	28.5	13111	100
2025-3-27 20:13:21.346	WT901BLE68-01(48591DE3C19B)	-0.400	-0.977	0.234	-1.526	-12.146	17.273	-77.74	11.95	-25.90	-55.664	-22.442	89.768	-0.76282	0.60071	-0.20154	0.12860	28.5	13111	100
2025-3-27 20:13:21.346	WT901BLE68-01(48591DE3C19B)	-0.400	-0.955	0.216	3.906	-3.784	17.151	-77.67	12.19	-25.79	-55.664	-22.442	89.768	-0.76282	0.60071	-0.20154	0.12860	28.5	13111	100
2025-3-27 20:13:21.375	WT901BLE68-01(48591DE3C19B)	-0.380	-0.955	0.216	3.906	-3.784	17.151	-77.60	12.44	-25.69	-55.664	-22.442	89.768	-0.76282	0.60071	-0.20154	0.12860	28.5	13111	100
2025-3-27 20:13:21.376	WT901BLE68-01(48591DE3C19B)	-0.380	-0.833	0.189	5.737	5.615	20.081	-77.54	12.72	-25.67	-55.664	-22.442	89.768	-0.76282	0.60071	-0.20154	0.12860	28.5	13111	100
2025-3-27 20:13:21.376	WT901BLE68-01(48591DE3C19B)	-0.380	-0.833	0.189	5.737	5.615	20.081	-77.46	13.00	-25.65	-55.664	-22.442	89.768	-0.76282	0.60071	-0.20154	0.12860	28.5	13111	100
2025-3-27 20:13:21.376	WT901BLE68-01(48591DE3C19B)	-0.380	-0.679	0.196	4.089	8.362	27.039	-77.42	13.36	-25.64	-55.664	-22.442	89.768	-0.76282	0.60071	-0.20154	0.12860	28.5	13111	100
2025-3-27 20:13:21.405	WT901BLE68-01(48591DE3C19B)	-0.374	-0.679	0.196	4.089	8.362	27.039	-77.37	13.72	-25.63	-55.664	-22.442	89.768	-0.76282	0.60071	-0.20154	0.12860	28.5	13111	100
2025-3-27 20:13:21.405	WT901BLE68-01(48591DE3C19B)	-0.374	-0.502	0.219	-0.488	-0.122	37.598	-77.34	14.16	-25.51	-55.664	-22.442	89.768	-0.76282	0.60071	-0.20154	0.12860	28.5	13111	100
2025-3-27 20:13:21.405	WT901BLE68-01(48591DE3C19B)	-0.373	-0.502	0.219	-0.488	-0.122	37.598	-77.31	14.60	-25.39	-55.664	-22.442	89.768	-0.76282	0.60071	-0.20154	0.12860	28.5	13111	100
2025-3-27 20:13:21.405	WT901BLE68-01(48591DE3C19B)	-0.373	-0.363	0.215	-8.911	-18.677	49.744	-77.30	15.12	-25.04	-55.664	-22.442	89.768	-0.76282	0.60071	-0.20154	0.12860	28.5	13111	100
2025-3-27 20:13:21.465	WT901BLE68-01(48591DE3C19B)	-0.370	-0.363	0.215	-8.911	-18.677	49.744	-77.29	15.64	-24.70	-55.664	-22.442	89.768	-0.76282	0.60071	-0.20154	0.12860	28.5	13111	100
2025-3-27 20:13:21.465	WT901BLE68-01(48591DE3C19B)	-0.370	-0.291	0.193	-20.508	-44.922	62.256	-77.31	16.24	-24.05	-55.664	-22.442	89.768	-0.76282	0.60071	-0.20154	0.12860	28.5	13111	100
2025-3-27 20:13:21.465	WT901BLE68-01(48591DE3C19B)	-0.390	-0.291	0.193	-20.508	-44.922	62.256	-77.31	16.83	-23.40	-55.664	-22.442	89.768	-0.76282	0.60071	-0.20154	0.12860	28.5	13111	100
2025-3-27 20:13:21.465	WT901BLE68-01(48591DE3C19B)	-0.390	-0.411	0.147	-36.255	-78.369	71.411	-77.35	17.45	-22.38	-55.664	-22.442	89.768	-0.76282	0.60071	-0.20154	0.12860	28.5	13111	100
2025-3-27 20:13:21.526	WT901BLE68-01(48591DE3C19B)	-0.357	-0.411	0.147	-36.255	-78.369	71.411	-77.39	18.07	-21.36	-55.664	-22.442	89.768	-0.76282	0.60071	-0.20154	0.12860	28.5	13111	100
2025-3-27 20:13:21.526	WT901BLE68-01(48591DE3C19B)	-0.357	-0.683	0.120	-47.974	-111.389	70.618	-77.43	18.60	-20.00	-55.664	-22.442	89.768	-0.76282	0.60071	-0.20154	0.12860	28.5	13111	100
2025-3-27 20:13:21.527	WT901BLE68-01(48591DE3C19B)	-0.329	-0.683	0.120	-47.974	-111.389	70.618	-77.46	19.12	-18.65	-55.664	-22.442	89.768	-0.76282	0.60071	-0.20154	0.12860	28.5	13111	100
2025-3-27 20:13:21.527	WT901BLE68-01(48591DE3C19B)	-0.329	-1.263	0.075	-61.462	-133.362	57.373	-77.56	19.46	-17.12	-55.664	-22.442	89.768	-0.77545	0.59085	-0.22214	0.00964	28.5	13111	100
2025-3-27 20:13:21.527	WT901BLE68-01(48591DE3C19B)	-0.602	-1.263	0.075	-61.462	-133.362	57.373	-77.67	19.78	-15.60	-55.664	-22.442	89.768	-0.77545	0.59085	-0.22214	0.00964	28.5	13111	100
2025-3-27 20:13:21.527	WT901BLE68-01(48591DE3C19B)	-2.406	-4.000	0.047	-42.725	-131.470	39.001	-77.61	19.90	-14.16	-55.664	-22.442	89.768	-0.77545	0.59085	-0.22214	0.00964	28.5	13111	100
2025-3-27 20:13:21.527	WT901BLE68-01(48591DE3C19B)	-0.181	-16.000	0.188	-42.725	-131.470	39.001	-77.59	19.98	-12.76	-55.664	-22.442	89.768	-0.77545	0.59085	-0.22214	0.00964	28.5	13111	100
2025-3-27 20:13:21.528	WT901BLE68-01(48591DE3C19B)	-0.094	-2.504	0.076	5.066	-93.201	29.419	-77.24	20.03	-11.78	-55.664	-22.442	89.768	-0.77545	0.59085	-0.22214	0.00964	28.5	13111	100
2025-3-27 20:13:21.586	WT901BLE68-01(48591DE3C19B)	-0.094	-2.129	0.057	41.870	-31.006	35.706	-76.82	20.17	-11.13	-55.664	-22.442	89.768	-0.77545	0.59085	-0.22214	0.00964	28.5	13111	100
2025-3-27 20:13:21.586	WT901BLE68-01(48591DE3C19B)	0.017	-2.129	0.057	41.870	-31.006	35.706	-76.32	20.40	-10.79	-55.664	-22.442	89.768	-0.77545	0.59085	-0.22214	0.00964	28.5	13111	100
2025-3-27 20:13:21.586	WT901BLE68-01(48591DE3C19B)	0.017	-1.586	0.056	44.617	32.288	38.269	-75.93	20.70	-10.78	-55.664	-22.442	89.768	-0.77545	0.59085	-0.22214	0.00964	28.5	13111	100
2025-3-27 20:13:21.586	WT901BLE68-01(48591DE3C19B)	0.056	-1.586	0.056	44.617	32.288	38.269	-75.64	21.09	-11.10	-55.664	-22.442	89.768	-0.77545	0.59085	-0.22214	0.00964	28.5	13111	100
2025-3-27 20:13:21.615	WT901BLE68-01(48591DE3C19B)	0.056	-1.286	0.094	37.659	91.980	43.518	-75.50	21.58	-11.71	-55.664	-22.442	89.768	-0.77545	0.59085	-0.22214	0.00964	28.5	13111	100
2025-3-27 20:13:21.615	WT901BLE68-01(48591DE3C19B)	-0.020	-1.286	0.094	37.659	91.980	43.518	-75.52	22.15	-12.63	-55.664	-22.442	89.768	-0.77545	0.59085	-0.22214	0.00964	28.5	13111	100
2025-3-27 20:13:21.615	WT901BLE68-01(48591DE3C19B)	-0.020	-1.097	0.125	25.513	128.784	42.358	-75.68	22.76	-13.74	-55.664	-22.442	89.768	-0.77545	0.59085	-0.22214	0.00964	28.5	13111	100
2025-3-27 20:13:21.615	WT901BLE68-01(48591DE3C19B)	-0.029	-1.097	0.125	25.513	128.784	42.358	-75.99	23.40	-15.05	-55.664	-22.442	89.768	-0.77545	0.59085	-0.22214	0.00964	28.5	13111	100
2025-3-27 20:13:21.676	WT901BLE68-01(48591DE3C19B)	-0.029	-1.007	0.118	10.193	134.888	29.663	-76.40	23.96	-16.41	-55.664	-22.442	89.768	-0.77545	0.59085	-0.22214	0.00964	28.5	13111	100
2025-3-27 20:13:21.677	WT901BLE68-01(48591DE3C19B)	-0.009	-1.007	0.118	10.193	134.888	29.663	-76.93	24.46	-17.83	-55.664	-22.442	89.768	-0.77545	0.59085	-0.22214	0.00964	28.5	13111	100
2025-3-27 20:13:21.677	WT901BLE68-01(48591DE3C19B)	-0.009	-0.966	0.094	5.066	130.859	16.113	-77.49	24.87	-19.25	-55.664	-22.442	89.768	-0.77545	0.59085	-0.22214	0.00964	28.5	13111	100
2025-3-27 20:13:21.677	WT901BLE68-01(48591DE3C19B)	-0.095	-0.966	0.094	5.066	130.859	16.113	-78.07	25.19	-20.67	-55.664	-22.442	89.768	-0.77545	0.59085	-0.22214	0.00964	28.5	13111	100
2025-3-27 20:13:21.708	WT901BLE68-01(48591DE3C19B)	-0.095	-0.896	0.044	6.592	122.498	0.122	-78.65	25.41	-22.06	-55.664	-22.442	89.768	-0.77545	0.59085	-0.22214	0.00964	28.5	13111	100
2025-3-27 20:13:21.708	WT901BLE68-01(48591DE3C19B)	-0.250	-0.896	0.044	6.592	122.498	0.122	-79.20	25.53	-23.42	-46.256	-27.146	88.200	-0.77545	0.59085	-0.22214	0.00964	28.5	13111	100
2025-3-27 20:13:21.708	WT901BLE68-01(48591DE3C19B)	-0.250	-0.770	0.014	13.123	96.619	-14.648	-79.67	25.54	-24.65	-46.256	-27.146	88.200	-0.77545	0.59085	-0.22214	0.00964	28.5	13111	100
2025-3-27 20:13:21.708	WT901BLE68-01(48591DE3C19B)	-0.356	-0.770	0.014	13.123	96.619	-14.648	-80.05	25.46	-25.74	-46.256	-27.146	88.200	-0.77545	0.59085	-0.22214	0.00964	28.5	13111	100
2025-3-27 20:13:21.737	WT901BLE68-01(48591DE3C19B)	-0.356	-0.565	0.039	16.724	52.246	-22.827	-80.30	25.29	-26.60	-46.256	-27.146	88.200	-0.77545	0.59085	-0.22214	0.00964	28.5	13111	100
2025-3-27 20:13:21.738	WT901BLE68-01(48591DE3C19B)	-0.316	-0.565	0.039	16.724	52.246	-22.827	-80.43	25.05	-27.21	-46.256	-27.146	88.200	-0.77545	0.59085	-0.22214	0.00964	28.5	13111	100
2025-3-27 20:13:21.738	WT901BLE68-01(48591DE3C19B)	-0.316	-0.386	0.082	15.137	7.935	-15.564	-80.46	24.82	-27.58	-46.256	-27.146	88.200	-0.77545	0.59085	-0.22214	0.00964	28.5	13111	100
2025-3-27 20:13:21.738	WT901BLE68-01(48591DE3C19B)	-0.219	-0.386	0.082	15.137	7.935	-15.564	-80.39	24.60	-27.68	-46.256	-27.146	88.200	-0.77545	0.59085	-0.22214	0.00964	28.5	13111	100
2025-3-27 20:13:21.796	WT901BLE68-01(48591DE3C19B)	-0.219	-0.333	0.107	13.611	-17.151	-3.540	-80.26	24.43	-27.64	-46.256	-27.146	88.200	-0.77545	0.59085	-0.22214	0.00964	28.5	13111	100
2025-3-27 20:13:21.796	WT901BLE68-01(48591DE3C19B)	-0.162	-0.333	0.107	13.611	-17.151	-3.540	-80.08	24.30	-27.45	-46.256	-27.146	88.200	-0.77545	0.59085	-0.22214	0.00964	28.5	13111	100
2025-3-27 20:13:21.796	WT901BLE68-01(48591DE3C19B)	-0.162	-0.320	0.078	15.015	-31.006	1.038	-79.86	24.19	-27.19	-46.256	-27.146	88.200	-0.77545	0.59085	-0.22214	0.00964	28.5	13111	100
2025-3-27 20:13:21.797	WT901BLE68-01(48591DE3C19B)	-0.131	-0.320	0.078	15.015	-31.006	1.038	-79.60	24.08	-26.84	-46.256	-27.146	88.200	-0.77545	0.59085	-0.22214	0.00964	28.5	13111	100
2025-3-27 20:13:21.825	WT901BLE68-01(48591DE3C19B)	-0.131	-0.283	0.059	15.503	-42.969	7.690	-79.31	24.01	-26.42	-46.256	-27.146	88.200	-0.77545	0.59085	-0.22214	0.00964	28.5	13111	100
2025-3-27 20:13:21.825	WT901BLE68-01(48591DE3C19B)	-0.058	-0.283	0.059	15.503	-42.969	7.690	-78.99	23.94	-25.94	-46.256	-27.146	88.200	-0.77545	0.59085	-0.22214	0.00964	28.5	13111	100
2025-3-27 20:13:21.825	WT901BLE68-01(48591DE3C19B)	-0.058	-0.275	0.070	12.207	-42.175	16.968	-78.68	23.93	-25.45	-46.256	-27.146	88.200	-0.77545	0.59085	-0.22214	0.00964	28.5	13111	100
2025-3-27 20:13:21.825	WT901BLE68-01(48591DE3C19B)	-0.014	-0.275	0.070	12.207	-42.175	16.968	-78.39	23.97	-24.96	-46.256	-27.146	88.200	-0.77545	0.59085	-0.22214	0.00964	28.5	13111	100
2025-3-27 20:13:21.857	WT901BLE68-01(48591DE3C19B)	-0.014	-0.423	0.047	6.165	-18.066	20.508	-78.18	24.04	-24.59	-46.256	-27.146	88.200	-0.77545	0.59085	-0.22214	0.00964	28.5	13111	100
2025-3-27 20:13:21.857	WT901BLE68-01(48591DE3C19B)	-0.072	-0.423	0.047	6.165	-18.066	20.508	-78.05	24.14	-24.36	-46.256	-27.146	88.200	-0.77545	0.59085	-0.22214	0.00964	28.5	13111	100
2025-3-27 20:13:21.857	WT901BLE68-01(48591DE3C19B)	-0.072	-0.675	0.047	1.892	41.199	18.555	-78.07	24.29	-24.44	-46.256	-27.146	88.200	-0.77545	0.59085	-0.22214	0.00964	28.5	13111	100
2025-3-27 20:13:21.857	WT901BLE68-01(48591DE3C19B)	-0.268	-0.675	0.047	1.892	41.199	18.555	-78.25	24.49	-24.85	-46.256	-27.146	88.200	-0.77545	0.59085	-0.22214	0.00964	28.5	13111	100
2025-3-27 20:13:21.946	WT901BLE68-01(48591DE3C19B)	-0.268	-1.015	0.080	3.540	118.896	7.019	-78.60	24.70	-25.69	-46.256	-27.146	88.200	-0.77545	0.59085	-0.22214	0.00964	28.5	13111	100
2025-3-27 20:13:21.946	WT901BLE68-01(48591DE3C19B)	-0.586	-1.015	0.080	3.540	118.896	7.019	-79.13	24.92	-26.95	-46.256	-27.146	88.200	-0.76242	0.56583	-0.31058	0.04462	28.5	13111	100
2025-3-27 20:13:21.946	WT901BLE68-01(48591DE3C19B)	-0.586	-1.468	0.108	9.888	162.659	-30.396	-79.75	24.99	-28.49	-46.256	-27.146	88.200	-0.76242	0.56583	-0.31058	0.04462	28.5	13111	100
2025-3-27 20:13:21.946	WT901BLE68-01(48591DE3C19B)	-1.034	-1.468	0.108	9.888	162.659	-30.396	-80.44	24.91	-30.28	-46.256	-27.146	88.200	-0.76242	0.56583	-0.31058	0.04462	28.5	13111	100
2025-3-27 20:13:21.947	WT901BLE68-01(48591DE3C19B)	-1.034	-1.819	0.258	24.292	145.996	-71.411	-81.04	24.61	-32.01	-46.256	-27.146	88.200	-0.76242	0.56583	-0.31058	0.04462	28.5	13111	100
2025-3-27 20:13:21.947	WT901BLE68-01(48591DE3C19B)	-1.530	-1.819	0.258	24.292	145.996	-71.411	-81.51	24.09	-33.66	-46.256	-27.146	88.200	-0.76242	0.56583	-0.31058	0.04462	28.5	13111	100
2025-3-27 20:13:21.948	WT901BLE68-01(48591DE3C19B)	-1.530	-1.585	0.274	29.236	98.267	-73.059	-81.83	23.54	-35.02	-46.256	-27.146	88.200	-0.76242	0.56583	-0.31058	0.04462	28.5	13111	100
2025-3-27 20:13:21.948	WT901BLE68-01(48591DE3C19B)	-1.330	-1.585	0.274	29.236	98.267	-73.059	-82.01	22.97	-36.10	-46.256	-27.146	88.200	-0.76242	0.56583	-0.31058	0.04462	28.5	13111	100
2025-3-27 20:13:21.978	WT901BLE68-01(48591DE3C19B)	-1.330	-1.284	0.198	23.071	80.627	-65.308	-82.17	22.45	-37.06	-46.256	-27.146	88.200	-0.76242	0.56583	-0.31058	0.04462	28.5	13111	100
2025-3-27 20:13:21.978	WT901BLE68-01(48591DE3C19B)	-0.995	-1.284	0.198	23.071	80.627	-65.308	-82.31	21.96	-37.91	-46.256	-27.146	88.200	-0.76242	0.56583	-0.31058	0.04462	28.5	13111	100
2025-3-27 20:13:21.978	WT901BLE68-01(48591DE3C19B)	-0.995	-1.192	0.165	3.113	68.726	-41.382	-82.51	21.59	-38.67	-46.256	-27.146	88.200	-0.76242	0.56583	-0.31058	0.04462	28.5	13111	100
2025-3-27 20:13:21.978	WT901BLE68-01(48591DE3C19B)	-0.781	-1.192	0.165	3.113	68.726	-41.382	-82.79	21.34	-39.33	-46.256	-27.146	88.200	-0.76242	0.56583	-0.31058	0.04462	28.5	13111	100
2025-3-27 20:13:22.35	WT901BLE68-01(48591DE3C19B)	-0.781	-1.042	0.132	-12.085	21.606	-14.771	-83.03	21.20	-39.73	-46.256	-27.146	88.200	-0.76242	0.56583	-0.31058	0.04462	28.5	13111	100
2025-3-27 20:13:22.35	WT901BLE68-01(48591DE3C19B)	-0.750	-1.042	0.132	-12.085	21.606	-14.771	-83.25	21.15	-39.85	-46.256	-27.146	88.200	-0.76242	0.56583	-0.31058	0.04462	28.5	13111	100
2025-3-27 20:13:22.35	WT901BLE68-01(48591DE3C19B)	-0.750	-0.846	0.147	-33.203	-72.144	15.808	-83.31	21.30	-38.94	-46.256	-27.146	88.200	-0.76242	0.56583	-0.31058	0.04462	28.5	13111	100
2025-3-27 20:13:22.36	WT901BLE68-01(48591DE3C19B)	-0.599	-0.846	0.147	-33.203	-72.144	15.808	-83.36	21.46	-38.03	-46.256	-27.146	88.200	-0.76242	0.56583	-0.31058	0.04462	28.5	13111	100
2025-3-27 20:13:22.67	WT901BLE68-01(48591DE3C19B)	-0.599	-0.792	0.163	-50.842	-146.912	26.978	-83.29	21.64	-36.32	-46.256	-27.146	88.200	-0.76242	0.56583	-0.31058	0.04462	28.5	13111	100
2025-3-27 20:13:22.67	WT901BLE68-01(48591DE3C19B)	-0.380	-0.792	0.163	-50.842	-146.912	26.978	-83.22	21.82	-34.60	-46.256	-27.146	88.200	-0.76242	0.56583	-0.31058	0.04462	28.5	13111	100
2025-3-27 20:13:22.68	WT901BLE68-01(48591DE3C19B)	-0.380	-0.685	0.193	-51.208	-171.509	38.635	-83.02	22.08	-32.62	-46.256	-27.146	88.200	-0.76242	0.56583	-0.31058	0.04462	28.5	13111	100
2025-3-27 20:13:22.68	WT901BLE68-01(48591DE3C19B)	-0.259	-0.685	0.193	-51.208	-171.509	38.635	-82.82	22.32	-30.64	-46.256	-27.146	88.200	-0.76242	0.56583	-0.31058	0.04462	28.5	13111	100
2025-3-27 20:13:22.97	WT901BLE68-01(48591DE3C19B)	-0.259	-0.545	0.218	-44.983	-133.728	47.668	-82.69	22.70	-29.05	-46.256	-27.146	88.200	-0.76242	0.56583	-0.31058	0.04462	28.5	13111	100
2025-3-27 20:13:22.98	WT901BLE68-01(48591DE3C19B)	-0.201	-0.545	0.218	-44.983	-133.728	47.668	-82.55	23.07	-27.47	-46.256	-27.146	88.200	-0.76242	0.56583	-0.31058	0.04462	28.5	13111	100
2025-3-27 20:13:22.98	WT901BLE68-01(48591DE3C19B)	-0.201	-0.441	0.207	-37.292	-73.181	51.453	-82.56	23.54	-26.53	-53.214	-28.714	89.670	-0.76242	0.56583	-0.31058	0.04462	28.5	13111	100
2025-3-27 20:13:22.98	WT901BLE68-01(48591DE3C19B)	-0.208	-0.441	0.207	-37.292	-73.181	51.453	-82.57	24.01	-25.60	-53.214	-28.714	89.670	-0.76242	0.56583	-0.31058	0.04462	28.5	13111	100
2025-3-27 20:13:22.157	WT901BLE68-01(48591DE3C19B)	-0.208	-0.346	0.208	-28.259	-25.879	54.749	-82.67	24.57	-25.17	-53.214	-28.714	89.670	-0.76242	0.56583	-0.31058	0.04462	28.5	13111	100
2025-3-27 20:13:22.157	WT901BLE68-01(48591DE3C19B)	-0.255	-0.346	0.208	-28.259	-25.879	54.749	-82.77	25.13	-24.74	-53.214	-28.714	89.670	-0.76242	0.56583	-0.31058	0.04462	28.5	13111	100
2025-3-27 20:13:22.157	WT901BLE68-01(48591DE3C19B)	-0.255	-0.217	0.198	-21.851	-4.089	56.885	-82.90	25.74	-24.54	-53.214	-28.714	89.670	-0.76242	0.56583	-0.31058	0.04462	28.5	13111	100
2025-3-27 20:13:22.157	WT901BLE68-01(48591DE3C19B)	-0.262	-0.217	0.198	-21.851	-4.089	56.885	-83.01	26.34	-24.33	-53.214	-28.714	89.670	-0.76242	0.56583	-0.31058	0.04462	28.5	13111	100
2025-3-27 20:13:22.188	WT901BLE68-01(48591DE3C19B)	-0.262	-0.132	0.187	-23.621	-5.127	63.171	-83.13	27.01	-24.11	-53.214	-28.714	89.670	-0.76242	0.56583	-0.31058	0.04462	28.5	13111	100
2025-3-27 20:13:22.188	WT901BLE68-01(48591DE3C19B)	-0.232	-0.132	0.187	-23.621	-5.127	63.171	-83.24	27.69	-23.87	-53.214	-28.714	89.670	-0.76242	0.56583	-0.31058	0.04462	28.5	13111	100
2025-3-27 20:13:22.188	WT901BLE68-01(48591DE3C19B)	-0.232	-0.179	0.173	-29.602	-21.912	69.824	-83.31	28.41	-23.43	-53.214	-28.714	89.670	-0.76242	0.56583	-0.31058	0.04462	28.5	13111	100
2025-3-27 20:13:22.188	WT901BLE68-01(48591DE3C19B)	-0.147	-0.179	0.173	-29.602	-21.912	69.824	-83.36	29.12	-22.99	-53.214	-28.714	89.670	-0.76242	0.56583	-0.31058	0.04462	28.5	13111	100
2025-3-27 20:13:22.215	WT901BLE68-01(48591DE3C19B)	-0.147	-0.334	0.105	-40.039	-46.143	69.275	-83.39	29.81	-22.26	-53.214	-28.714	89.670	-0.76242	0.56583	-0.31058	0.04462	28.5	13111	100
2025-3-27 20:13:22.216	WT901BLE68-01(48591DE3C19B)	-0.070	-0.334	0.105	-40.039	-46.143	69.275	-83.40	30.48	-21.55	-53.214	-28.714	89.670	-0.76242	0.56583	-0.31058	0.04462	28.5	13111	100
2025-3-27 20:13:22.216	WT901BLE68-01(48591DE3C19B)	-0.070	-0.649	0.045	-51.025	-58.228	57.739	-83.45	31.00	-20.72	-53.214	-28.714	89.670	-0.76242	0.56583	-0.31058	0.04462	28.5	13111	100
2025-3-27 20:13:22.216	WT901BLE68-01(48591DE3C19B)	-0.167	-0.649	0.045	-51.025	-58.228	57.739	-83.50	31.50	-19.91	-53.214	-28.714	89.670	-0.76242	0.56583	-0.31058	0.04462	28.5	13111	100
2025-3-27 20:13:22.276	WT901BLE68-01(48591DE3C19B)	-0.167	-1.392	-0.051	-67.932	-59.753	29.053	-83.75	31.69	-19.14	-53.214	-28.714	89.670	-0.76242	0.56583	-0.31058	0.04462	28.5	13111	100
2025-3-27 20:13:22.277	WT901BLE68-01(48591DE3C19B)	-0.328	-1.392	-0.051	-67.932	-59.753	29.053	-84.01	31.86	-18.40	-53.214	-28.714	89.670	-0.76242	0.56583	-0.31058	0.04462	28.5	13111	100
2025-3-27 20:13:22.277	WT901BLE68-01(48591DE3C19B)	-0.328	-2.732	-0.220	-49.622	-47.913	-13.550	-84.23	31.59	-17.88	-53.214	-28.714	89.670	-0.76242	0.56583	-0.31058	0.04462	28.5	13111	100
2025-3-27 20:13:22.277	WT901BLE68-01(48591DE3C19B)	-0.542	-2.732	-0.220	-49.622	-47.913	-13.550	-84.46	31.31	-17.37	-53.214	-28.714	89.670	-0.76242	0.56583	-0.31058	0.04462	28.5	13111	100
2025-3-27 20:13:22.305	WT901BLE68-01(48591DE3C19B)	-0.542	-3.208	-0.100	26.001	-52.063	-23.804	-83.94	30.92	-16.84	-53.214	-28.714	89.670	-0.76242	0.56583	-0.31058	0.04462	28.5	13111	100
2025-3-27 20:13:22.305	WT901BLE68-01(48591DE3C19B)	-0.534	-3.208	-0.100	26.001	-52.063	-23.804	-83.42	30.52	-16.32	-53.214	-28.714	89.670	-0.76242	0.56583	-0.31058	0.04462	28.5	13111	100
2025-3-27 20:13:22.305	WT901BLE68-01(48591DE3C19B)	-0.534	-1.922	0.191	43.152	-55.725	-47.974	-82.75	29.88	-15.80	-53.214	-28.714	89.670	-0.76242	0.56583	-0.31058	0.04462	28.5	13111	100
2025-3-27 20:13:22.305	WT901BLE68-01(48591DE3C19B)	-0.172	-1.922	0.191	43.152	-55.725	-47.974	-82.08	29.23	-15.29	-53.214	-28.714	89.670	-0.74637	0.60406	-0.27133	-0.06543	28.5	13111	100
2025-3-27 20:13:22.335	WT901BLE68-01(48591DE3C19B)	-0.172	-1.429	0.195	29.175	-18.494	-44.250	-81.77	28.67	-15.21	-53.214	-28.714	89.670	-0.74637	0.60406	-0.27133	-0.06543	28.5	13111	100
2025-3-27 20:13:22.335	WT901BLE68-01(48591DE3C19B)	-0.072	-1.429	0.195	29.175	-18.494	-44.250	-81.46	28.12	-15.13	-53.214	-28.714	89.670	-0.74637	0.60406	-0.27133	-0.06543	28.5	13111	100
2025-3-27 20:13:22.335	WT901BLE68-01(48591DE3C19B)	-0.072	-0.914	0.293	32.654	34.363	-23.315	-81.37	27.84	-15.61	-53.214	-28.714	89.670	-0.74637	0.60406	-0.27133	-0.06543	28.5	13111	100
2025-3-27 20:13:22.336	WT901BLE68-01(48591DE3C19B)	-0.103	-0.914	0.293	32.654	34.363	-23.315	-81.27	27.57	-16.08	-53.214	-28.714	89.670	-0.74637	0.60406	-0.27133	-0.06543	28.5	13111	100
2025-3-27 20:13:22.426	WT901BLE68-01(48591DE3C19B)	-0.103	-0.528	0.323	6.348	30.884	-8.423	-81.40	27.44	-16.50	-53.214	-28.714	89.670	-0.74637	0.60406	-0.27133	-0.06543	28.5	13111	100
2025-3-27 20:13:22.426	WT901BLE68-01(48591DE3C19B)	-0.022	-0.528	0.323	6.348	30.884	-8.423	-81.52	27.30	-16.90	-53.214	-28.714	89.670	-0.74637	0.60406	-0.27133	-0.06543	28.5	13111	100
2025-3-27 20:13:22.426	WT901BLE68-01(48591DE3C19B)	-0.022	-0.480	0.343	-20.813	-17.029	-20.691	-81.67	26.98	-16.79	-53.214	-28.714	89.670	-0.74637	0.60406	-0.27133	-0.06543	28.5	13111	100
2025-3-27 20:13:22.426	WT901BLE68-01(48591DE3C19B)	-0.009	-0.480	0.343	-20.813	-17.029	-20.691	-81.80	26.65	-16.68	-53.214	-28.714	89.670	-0.74637	0.60406	-0.27133	-0.06543	28.5	13111	100
2025-3-27 20:13:22.427	WT901BLE68-01(48591DE3C19B)	-0.009	-0.502	0.340	-18.066	-36.682	-29.663	-81.82	26.21	-16.38	-53.214	-28.714	89.670	-0.74637	0.60406	-0.27133	-0.06543	28.5	13111	100
2025-3-27 20:13:22.427	WT901BLE68-01(48591DE3C19B)	-0.151	-0.502	0.340	-18.066	-36.682	-29.663	-81.82	25.76	-16.07	-53.214	-28.714	89.670	-0.74637	0.60406	-0.27133	-0.06543	28.5	13111	100
2025-3-27 20:13:22.427	WT901BLE68-01(48591DE3C19B)	-0.151	-0.415	0.274	1.282	-30.579	-32.593	-81.66	25.30	-15.85	-53.214	-28.714	89.670	-0.74637	0.60406	-0.27133	-0.06543	28.5	13111	100
2025-3-27 20:13:22.427	WT901BLE68-01(48591DE3C19B)	-0.295	-0.415	0.274	1.282	-30.579	-32.593	-81.50	24.84	-15.62	-53.214	-28.714	89.670	-0.74637	0.60406	-0.27133	-0.06543	28.5	13111	100
2025-3-27 20:13:22.457	WT901BLE68-01(48591DE3C19B)	-0.295	-0.276	0.085	16.174	-12.268	-33.508	-81.28	24.41	-15.59	-53.214	-28.714	89.670	-0.74637	0.60406	-0.27133	-0.06543	28.5	13111	100
2025-3-27 20:13:22.457	WT901BLE68-01(48591DE3C19B)	-0.296	-0.276	0.085	16.174	-12.268	-33.508	-81.05	23.99	-15.55	-53.214	-28.714	89.670	-0.74637	0.60406	-0.27133	-0.06543	28.5	13111	100
2025-3-27 20:13:22.457	WT901BLE68-01(48591DE3C19B)	-0.242	-0.197	-0.070	22.522	19.775	-25.513	-80.90	23.71	-15.84	-53.214	-28.714	89.670	-0.74637	0.60406	-0.27133	-0.06543	28.5	13111	100
2025-3-27 20:13:22.457	WT901BLE68-01(48591DE3C19B)	-0.242	-0.201	-0.125	23.865	52.856	-16.174	-80.82	23.52	-16.29	-53.214	-28.714	89.670	-0.74637	0.60406	-0.27133	-0.06543	28.5	13111	100
2025-3-27 20:13:22.516	WT901BLE68-01(48591DE3C19B)	-0.349	-0.201	-0.125	23.865	52.856	-16.174	-80.80	23.42	-16.90	-53.214	-28.714	89.670	-0.74637	0.60406	-0.27133	-0.06543	28.5	13111	100
2025-3-27 20:13:22.516	WT901BLE68-01(48591DE3C19B)	-0.349	-0.308	-0.093	20.874	63.965	-15.808	-80.84	23.33	-17.56	-44.982	-36.064	84.966	-0.74637	0.60406	-0.27133	-0.06543	28.5	13111	100
2025-3-27 20:13:22.516	WT901BLE68-01(48591DE3C19B)	-0.591	-0.308	-0.093	20.874	63.965	-15.808	-80.91	23.26	-18.27	-44.982	-36.064	84.966	-0.74637	0.60406	-0.27133	-0.06543	28.5	13111	100
2025-3-27 20:13:22.516	WT901BLE68-01(48591DE3C19B)	-0.591	-0.527	-0.048	14.343	58.228	-16.968	-81.02	23.20	-18.94	-44.982	-36.064	84.966	-0.74637	0.60406	-0.27133	-0.06543	28.5	13111	100
2025-3-27 20:13:22.544	WT901BLE68-01(48591DE3C19B)	-0.942	-0.527	-0.048	14.343	58.228	-16.968	-81.15	23.15	-19.56	-44.982	-36.064	84.966	-0.74637	0.60406	-0.27133	-0.06543	28.5	13111	100
2025-3-27 20:13:22.545	WT901BLE68-01(48591DE3C19B)	-0.942	-0.958	-0.030	0.366	33.630	-38.940	-81.31	22.98	-20.06	-44.982	-36.064	84.966	-0.74637	0.60406	-0.27133	-0.06543	28.5	13111	100
2025-3-27 20:13:22.545	WT901BLE68-01(48591DE3C19B)	-1.236	-0.958	-0.030	0.366	33.630	-38.940	-81.50	22.71	-20.42	-44.982	-36.064	84.966	-0.74637	0.60406	-0.27133	-0.06543	28.5	13111	100
2025-3-27 20:13:22.545	WT901BLE68-01(48591DE3C19B)	-1.236	-1.657	0.156	12.878	7.874	-70.374	-81.59	22.26	-20.67	-44.982	-36.064	84.966	-0.74637	0.60406	-0.27133	-0.06543	28.5	13111	100
2025-3-27 20:13:22.576	WT901BLE68-01(48591DE3C19B)	-1.514	-1.657	0.156	12.878	7.874	-70.374	-81.57	21.66	-20.80	-44.982	-36.064	84.966	-0.74637	0.60406	-0.27133	-0.06543	28.5	13111	100
2025-3-27 20:13:22.577	WT901BLE68-01(48591DE3C19B)	-1.514	-2.059	0.374	13.733	-16.846	-70.618	-81.49	21.03	-20.80	-44.982	-36.064	84.966	-0.74637	0.60406	-0.27133	-0.06543	28.5	13111	100
2025-3-27 20:13:22.577	WT901BLE68-01(48591DE3C19B)	-1.443	-2.059	0.374	13.733	-16.846	-70.618	-81.36	20.40	-20.67	-44.982	-36.064	84.966	-0.74637	0.60406	-0.27133	-0.06543	28.5	13111	100
2025-3-27 20:13:22.577	WT901BLE68-01(48591DE3C19B)	-1.443	-1.705	0.484	26.611	16.357	-60.120	-81.21	19.84	-20.70	-44.982	-36.064	84.966	-0.74637	0.60406	-0.27133	-0.06543	28.5	13111	100
2025-3-27 20:13:22.635	WT901BLE68-01(48591DE3C19B)	-1.146	-1.705	0.484	26.611	16.357	-60.120	-81.06	19.37	-20.89	-44.982	-36.064	84.966	-0.74637	0.60406	-0.27133	-0.06543	28.5	13111	100
2025-3-27 20:13:22.636	WT901BLE68-01(48591DE3C19B)	-1.146	-1.270	0.536	20.813	68.054	-17.029	-81.00	19.17	-21.31	-44.982	-36.064	84.966	-0.74637	0.60406	-0.27133	-0.06543	28.5	13111	100
2025-3-27 20:13:22.636	WT901BLE68-01(48591DE3C19B)	-0.927	-1.270	0.536	20.813	68.054	-17.029	-81.04	19.21	-21.96	-44.982	-36.064	84.966	-0.74637	0.60406	-0.27133	-0.06543	28.5	13111	100
2025-3-27 20:13:22.636	WT901BLE68-01(48591DE3C19B)	-0.927	-1.116	0.380	-2.075	75.256	18.921	-81.19	19.44	-22.62	-44.982	-36.064	84.966	-0.74637	0.60406	-0.27133	-0.06543	28.5	13111	100
2025-3-27 20:13:22.667	WT901BLE68-01(48591DE3C19B)	-0.775	-1.116	0.380	-2.075	75.256	18.921	-81.46	19.85	-23.28	-44.982	-36.064	84.966	-0.74637	0.60406	-0.27133	-0.06543	28.5	13111	100
2025-3-27 20:13:22.668	WT901BLE68-01(48591DE3C19B)	-0.775	-0.891	0.234	-13.367	32.410	61.951	-81.70	20.43	-23.68	-44.982	-36.064	84.966	-0.74637	0.60406	-0.27133	-0.06543	28.5	13111	100
2025-3-27 20:13:22.668	WT901BLE68-01(48591DE3C19B)	-0.723	-0.891	0.234	-13.367	32.410	61.951	-81.91	21.20	-23.83	-44.982	-36.064	84.966	-0.74637	0.60406	-0.27133	-0.06543	28.5	13111	100
2025-3-27 20:13:22.668	WT901BLE68-01(48591DE3C19B)	-0.723	-0.674	0.175	-36.438	-35.583	83.252	-82.10	22.02	-23.60	-44.982	-36.064	84.966	-0.74637	0.60406	-0.27133	-0.06543	28.5	13111	100
2025-3-27 20:13:22.726	WT901BLE68-01(48591DE3C19B)	-0.544	-0.674	0.175	-36.438	-35.583	83.252	-82.26	22.89	-22.99	-44.982	-36.064	84.966	-0.74637	0.60406	-0.27133	-0.06543	28.5	13111	100
2025-3-27 20:13:22.726	WT901BLE68-01(48591DE3C19B)	-0.544	-0.608	0.168	-55.847	-92.712	105.835	-82.38	23.84	-22.07	-44.982	-36.064	84.966	-0.74637	0.60406	-0.27133	-0.06543	28.5	13111	100
2025-3-27 20:13:22.726	WT901BLE68-01(48591DE3C19B)	-0.383	-0.608	0.168	-55.847	-92.712	105.835	-82.44	24.86	-20.81	-44.982	-36.064	84.966	-0.74808	0.60364	-0.27545	-0.00681	28.5	13111	100
2025-3-27 20:13:22.726	WT901BLE68-01(48591DE3C19B)	-0.383	-0.592	0.205	-55.542	-96.375	116.943	-82.46	25.92	-19.52	-44.982	-36.064	84.966	-0.74808	0.60364	-0.27545	-0.00681	28.5	13111	100
2025-3-27 20:13:22.757	WT901BLE68-01(48591DE3C19B)	-0.239	-0.592	0.205	-55.542	-96.375	116.943	-82.43	27.03	-18.20	-44.982	-36.064	84.966	-0.74808	0.60364	-0.27545	-0.00681	28.5	13111	100
2025-3-27 20:13:22.757	WT901BLE68-01(48591DE3C19B)	-0.239	-0.497	0.211	-43.945	-65.979	116.760	-82.40	28.15	-17.04	-44.982	-36.064	84.966	-0.74808	0.60364	-0.27545	-0.00681	28.5	13111	100
2025-3-27 20:13:22.757	WT901BLE68-01(48591DE3C19B)	-0.132	-0.497	0.211	-43.945	-65.979	116.760	-82.36	29.27	-16.05	-44.982	-36.064	84.966	-0.74808	0.60364	-0.27545	-0.00681	28.5	13111	100
2025-3-27 20:13:22.757	WT901BLE68-01(48591DE3C19B)	-0.132	-0.325	0.225	-31.677	-42.053	116.333	-82.30	30.40	-15.18	-44.982	-36.064	84.966	-0.74808	0.60364	-0.27545	-0.00681	28.5	13111	100
2025-3-27 20:13:22.786	WT901BLE68-01(48591DE3C19B)	-0.081	-0.325	0.225	-31.677	-42.053	116.333	-82.23	31.53	-14.45	-44.982	-36.064	84.966	-0.74808	0.60364	-0.27545	-0.00681	28.5	13111	100
2025-3-27 20:13:22.786	WT901BLE68-01(48591DE3C19B)	-0.081	-0.206	0.193	-26.794	-23.071	117.310	-82.16	32.67	-13.82	-44.982	-36.064	84.966	-0.74808	0.60364	-0.27545	-0.00681	28.5	13111	100
2025-3-27 20:13:22.786	WT901BLE68-01(48591DE3C19B)	-0.053	-0.206	0.193	-26.794	-23.071	117.310	-82.12	33.81	-13.30	-44.982	-36.064	84.966	-0.74808	0.60364	-0.27545	-0.00681	28.5	13111	100
2025-3-27 20:13:22.786	WT901BLE68-01(48591DE3C19B)	-0.053	-0.245	0.129	-26.489	-12.024	116.028	-82.08	34.94	-12.84	-44.982	-36.064	84.966	-0.74808	0.60364	-0.27545	-0.00681	28.5	13111	100
2025-3-27 20:13:22.816	WT901BLE68-01(48591DE3C19B)	-0.088	-0.245	0.129	-26.489	-12.024	116.028	-82.08	36.07	-12.45	-44.982	-36.064	84.966	-0.74808	0.60364	-0.27545	-0.00681	28.5	13111	100
2025-3-27 20:13:22.816	WT901BLE68-01(48591DE3C19B)	-0.088	-0.476	0.042	-33.203	-7.507	107.422	-82.12	37.13	-12.10	-44.982	-36.064	84.966	-0.74808	0.60364	-0.27545	-0.00681	28.5	13111	100
2025-3-27 20:13:22.816	WT901BLE68-01(48591DE3C19B)	-0.160	-0.476	0.042	-33.203	-7.507	107.422	-82.21	38.15	-11.79	-44.982	-36.064	84.966	-0.74808	0.60364	-0.27545	-0.00681	28.5	13111	100
2025-3-27 20:13:22.816	WT901BLE68-01(48591DE3C19B)	-0.160	-0.840	-0.004	-41.199	-20.508	97.778	-82.30	39.09	-11.43	-44.982	-36.064	84.966	-0.74808	0.60364	-0.27545	-0.00681	28.5	13111	100
2025-3-27 20:13:22.878	WT901BLE68-01(48591DE3C19B)	-0.253	-0.840	-0.004	-41.199	-20.508	97.778	-82.39	39.96	-11.00	-44.982	-36.064	84.966	-0.74808	0.60364	-0.27545	-0.00681	28.5	13111	100
2025-3-27 20:13:22.878	WT901BLE68-01(48591DE3C19B)	-0.253	-1.447	-0.056	-50.171	-55.298	86.121	-82.40	40.73	-10.39	-44.982	-36.064	84.966	-0.74808	0.60364	-0.27545	-0.00681	28.5	13111	100
2025-3-27 20:13:22.878	WT901BLE68-01(48591DE3C19B)	-0.202	-1.447	-0.056	-50.171	-55.298	86.121	-82.33	41.39	-9.57	-44.982	-36.064	84.966	-0.74808	0.60364	-0.27545	-0.00681	28.5	13111	100
2025-3-27 20:13:22.879	WT901BLE68-01(48591DE3C19B)	-0.202	-2.582	-0.049	-29.236	-90.332	38.757	-82.03	41.78	-8.58	-44.982	-36.064	84.966	-0.74808	0.60364	-0.27545	-0.00681	28.5	13111	100
2025-3-27 20:13:22.907	WT901BLE68-01(48591DE3C19B)	-0.251	-2.582	-0.049	-29.236	-90.332	38.757	-81.52	41.89	-7.43	-44.982	-36.064	84.966	-0.74808	0.60364	-0.27545	-0.00681	28.5	13111	100
2025-3-27 20:13:22.907	WT901BLE68-01(48591DE3C19B)	-0.251	-2.870	-0.014	27.344	-102.600	11.475	-80.72	41.82	-6.25	-44.982	-36.064	84.966	-0.74808	0.60364	-0.27545	-0.00681	28.5	13111	100
2025-3-27 20:13:22.907	WT901BLE68-01(48591DE3C19B)	-0.340	-2.870	-0.014	27.344	-102.600	11.475	-79.62	41.59	-5.03	-44.982	-36.064	84.966	-0.74808	0.60364	-0.27545	-0.00681	28.5	13111	100
2025-3-27 20:13:22.908	WT901BLE68-01(48591DE3C19B)	-0.340	-2.057	0.139	45.410	-77.087	-36.682	-78.61	41.13	-4.07	-49.098	-44.198	79.184	-0.74808	0.60364	-0.27545	-0.00681	28.5	13111	100
2025-3-27 20:13:22.937	WT901BLE68-01(48591DE3C19B)	-0.207	-2.057	0.139	45.410	-77.087	-36.682	-77.68	40.45	-3.36	-49.098	-44.198	79.184	-0.74808	0.60364	-0.27545	-0.00681	28.5	13111	100
2025-3-27 20:13:22.937	WT901BLE68-01(48591DE3C19B)	-0.207	-1.484	0.141	45.532	-23.987	-61.401	-77.26	39.63	-3.41	-49.098	-44.198	79.184	-0.74808	0.60364	-0.27545	-0.00681	28.5	13111	100
2025-3-27 20:13:22.937	WT901BLE68-01(48591DE3C19B)	-0.056	-1.484	0.141	45.532	-23.987	-61.401	-76.84	38.83	-3.47	-49.098	-44.198	79.184	-0.74808	0.60364	-0.27545	-0.00681	28.5	13111	100
2025-3-27 20:13:22.937	WT901BLE68-01(48591DE3C19B)	-0.056	-0.927	0.172	49.194	39.673	-57.983	-76.87	38.19	-4.31	-49.098	-44.198	79.184	-0.74808	0.60364	-0.27545	-0.00681	28.5	13111	100
2025-3-27 20:13:23.26	WT901BLE68-01(48591DE3C19B)	-0.094	-0.927	0.172	49.194	39.673	-57.983	-76.89	37.57	-5.14	-49.098	-44.198	79.184	-0.74808	0.60364	-0.27545	-0.00681	28.5	13111	100
2025-3-27 20:13:23.26	WT901BLE68-01(48591DE3C19B)	-0.094	-0.634	0.148	36.194	87.708	-56.702	-77.37	37.05	-6.54	-49.098	-44.198	79.184	-0.74808	0.60364	-0.27545	-0.00681	28.5	13111	100
2025-3-27 20:13:23.26	WT901BLE68-01(48591DE3C19B)	-0.229	-0.634	0.148	36.194	87.708	-56.702	-77.83	36.54	-7.92	-49.098	-44.198	79.184	-0.74808	0.60364	-0.27545	-0.00681	28.5	13111	100
2025-3-27 20:13:23.26	WT901BLE68-01(48591DE3C19B)	-0.229	-0.555	0.114	11.719	72.998	-73.975	-78.42	35.81	-9.13	-49.098	-44.198	79.184	-0.74808	0.60364	-0.27545	-0.00681	28.5	13111	100
2025-3-27 20:13:23.27	WT901BLE68-01(48591DE3C19B)	-0.201	-0.555	0.114	11.719	72.998	-73.975	-78.98	35.08	-10.31	-49.098	-44.198	79.184	-0.74808	0.60364	-0.27545	-0.00681	28.5	13111	100
2025-3-27 20:13:23.27	WT901BLE68-01(48591DE3C19B)	-0.201	-0.600	0.135	-8.362	34.424	-86.426	-79.47	34.17	-11.04	-49.098	-44.198	79.184	-0.74808	0.60364	-0.27545	-0.00681	28.5	13111	100
2025-3-27 20:13:23.28	WT901BLE68-01(48591DE3C19B)	-0.289	-0.600	0.135	-8.362	34.424	-86.426	-79.93	33.25	-11.74	-49.098	-44.198	79.184	-0.74808	0.60364	-0.27545	-0.00681	28.5	13111	100
2025-3-27 20:13:23.28	WT901BLE68-01(48591DE3C19B)	-0.289	-0.628	0.185	-5.493	10.437	-99.609	-80.20	32.16	-12.16	-49.098	-44.198	79.184	-0.74808	0.60364	-0.27545	-0.00681	28.5	13111	100
2025-3-27 20:13:23.57	WT901BLE68-01(48591DE3C19B)	-0.489	-0.628	0.185	-5.493	10.437	-99.609	-80.45	31.09	-12.57	-49.098	-44.198	79.184	-0.74808	0.60364	-0.27545	-0.00681	28.5	13111	100
2025-3-27 20:13:23.57	WT901BLE68-01(48591DE3C19B)	-0.489	-0.592	0.178	3.113	-15.442	-105.164	-80.45	29.93	-12.68	-49.098	-44.198	79.184	-0.74808	0.60364	-0.27545	-0.00681	28.5	13111	100
2025-3-27 20:13:23.57	WT901BLE68-01(48591DE3C19B)	-0.543	-0.592	0.178	3.113	-15.442	-105.164	-80.45	28.80	-12.78	-49.098	-44.198	79.184	-0.74808	0.60364	-0.27545	-0.00681	28.5	13111	100
2025-3-27 20:13:23.57	WT901BLE68-01(48591DE3C19B)	-0.543	-0.504	0.107	11.658	-31.921	-104.004	-80.27	27.66	-12.67	-49.098	-44.198	79.184	-0.74808	0.60364	-0.27545	-0.00681	28.5	13111	100
2025-3-27 20:13:23.116	WT901BLE68-01(48591DE3C19B)	-0.413	-0.504	0.107	11.658	-31.921	-104.004	-80.08	26.54	-12.56	-49.098	-44.198	79.184	-0.74808	0.60364	-0.27545	-0.00681	28.5	13111	100
2025-3-27 20:13:23.116	WT901BLE68-01(48591DE3C19B)	-0.413	-0.369	0.048	20.508	-28.320	-90.027	-79.83	25.59	-12.46	-49.098	-44.198	79.184	-0.75891	0.60355	-0.23679	-0.06006	28.5	13111	100
2025-3-27 20:13:23.116	WT901BLE68-01(48591DE3C19B)	-0.294	-0.369	0.048	20.508	-28.320	-90.027	-79.58	24.65	-12.36	-49.098	-44.198	79.184	-0.75891	0.60355	-0.23679	-0.06006	28.5	13111	100
2025-3-27 20:13:23.116	WT901BLE68-01(48591DE3C19B)	-0.294	-0.266	0.025	25.696	-2.747	-72.327	-79.38	23.94	-12.49	-49.098	-44.198	79.184	-0.75891	0.60355	-0.23679	-0.06006	28.5	13111	100
2025-3-27 20:13:23.144	WT901BLE68-01(48591DE3C19B)	-0.191	-0.266	0.025	25.696	-2.747	-72.327	-79.18	23.24	-12.62	-49.098	-44.198	79.184	-0.75891	0.60355	-0.23679	-0.06006	28.5	13111	100
2025-3-27 20:13:23.145	WT901BLE68-01(48591DE3C19B)	-0.191	-0.207	0.036	28.564	27.344	-56.519	-79.07	22.76	-13.04	-49.098	-44.198	79.184	-0.75891	0.60355	-0.23679	-0.06006	28.5	13111	100
2025-3-27 20:13:23.145	WT901BLE68-01(48591DE3C19B)	-0.265	-0.207	0.036	28.564	27.344	-56.519	-78.95	22.30	-13.44	-49.098	-44.198	79.184	-0.75891	0.60355	-0.23679	-0.06006	28.5	13111	100
2025-3-27 20:13:23.145	WT901BLE68-01(48591DE3C19B)	-0.265	-0.251	0.022	25.574	73.914	-43.396	-79.04	22.05	-14.30	-49.098	-44.198	79.184	-0.75891	0.60355	-0.23679	-0.06006	28.5	13111	100
2025-3-27 20:13:23.206	WT901BLE68-01(48591DE3C19B)	-0.563	-0.251	0.022	25.574	73.914	-43.396	-79.12	21.81	-15.16	-49.098	-44.198	79.184	-0.75891	0.60355	-0.23679	-0.06006	28.5	13111	100
2025-3-27 20:13:23.206	WT901BLE68-01(48591DE3C19B)	-0.563	-0.481	-0.049	14.832	114.319	-46.143	-79.48	21.63	-16.43	-49.098	-44.198	79.184	-0.75891	0.60355	-0.23679	-0.06006	28.5	13111	100
2025-3-27 20:13:23.206	WT901BLE68-01(48591DE3C19B)	-0.930	-0.481	-0.049	14.832	114.319	-46.143	-79.83	21.46	-17.68	-49.098	-44.198	79.184	-0.75891	0.60355	-0.23679	-0.06006	28.5	13111	100
2025-3-27 20:13:23.206	WT901BLE68-01(48591DE3C19B)	-0.930	-0.950	-0.020	5.493	124.756	-59.082	-80.33	21.18	-19.05	-49.098	-44.198	79.184	-0.75891	0.60355	-0.23679	-0.06006	28.5	13111	100
2025-3-27 20:13:23.234	WT901BLE68-01(48591DE3C19B)	-1.575	-0.950	-0.020	5.493	124.756	-59.082	-80.83	20.89	-20.41	-49.098	-44.198	79.184	-0.75891	0.60355	-0.23679	-0.06006	28.5	13111	100
2025-3-27 20:13:23.235	WT901BLE68-01(48591DE3C19B)	-1.575	-1.627	0.289	15.930	92.041	-86.121	-81.10	20.29	-21.44	-49.098	-44.198	79.184	-0.75891	0.60355	-0.23679	-0.06006	28.5	13111	100
2025-3-27 20:13:23.235	WT901BLE68-01(48591DE3C19B)	-1.966	-1.627	0.289	15.930	92.041	-86.121	-81.35	19.70	-22.46	-49.098	-44.198	79.184	-0.75891	0.60355	-0.23679	-0.06006	28.5	13111	100
2025-3-27 20:13:23.235	WT901BLE68-01(48591DE3C19B)	-1.966	-2.123	0.345	13.123	42.786	-86.060	-81.44	19.04	-22.94	-49.098	-44.198	79.184	-0.75891	0.60355	-0.23679	-0.06006	28.5	13111	100
2025-3-27 20:13:23.267	WT901BLE68-01(48591DE3C19B)	-1.580	-2.123	0.345	13.123	42.786	-86.060	-81.52	18.39	-23.42	-49.098	-44.198	79.184	-0.75891	0.60355	-0.23679	-0.06006	28.5	13111	100
2025-3-27 20:13:23.267	WT901BLE68-01(48591DE3C19B)	-1.580	-1.633	0.327	46.143	53.711	-64.758	-81.30	17.96	-23.98	-49.098	-44.198	79.184	-0.75891	0.60355	-0.23679	-0.06006	28.5	13111	100
2025-3-27 20:13:23.267	WT901BLE68-01(48591DE3C19B)	-1.195	-1.633	0.327	46.143	53.711	-64.758	-81.07	17.55	-24.53	-49.098	-44.198	79.184	-0.75891	0.60355	-0.23679	-0.06006	28.5	13111	100
2025-3-27 20:13:23.268	WT901BLE68-01(48591DE3C19B)	-1.195	-1.134	0.306	24.780	67.139	-16.663	-81.06	17.63	-25.14	-49.098	-44.198	79.184	-0.75891	0.60355	-0.23679	-0.06006	28.5	13111	100
2025-3-27 20:13:23.385	WT901BLE68-01(48591DE3C19B)	-1.000	-1.134	0.306	24.780	67.139	-16.663	-81.06	17.71	-25.75	-49.098	-44.198	79.184	-0.75891	0.60355	-0.23679	-0.06006	28.5	13111	100
2025-3-27 20:13:23.386	WT901BLE68-01(48591DE3C19B)	-1.000	-0.944	0.192	-1.892	52.673	31.799	-81.25	18.25	-26.12	-53.116	-36.554	82.320	-0.75891	0.60355	-0.23679	-0.06006	28.5	13111	100
2025-3-27 20:13:23.386	WT901BLE68-01(48591DE3C19B)	-0.954	-0.944	0.192	-1.892	52.673	31.799	-81.46	18.79	-26.50	-53.116	-36.554	82.320	-0.75891	0.60355	-0.23679	-0.06006	28.5	13111	100
2025-3-27 20:13:23.386	WT901BLE68-01(48591DE3C19B)	-0.954	-0.775	0.188	-25.391	24.231	77.881	-81.78	19.74	-26.50	-53.116	-36.554	82.320	-0.75891	0.60355	-0.23679	-0.06006	28.5	13111	100
2025-3-27 20:13:23.386	WT901BLE68-01(48591DE3C19B)	-0.979	-0.775	0.188	-25.391	24.231	77.881	-82.10	20.69	-26.52	-53.116	-36.554	82.320	-0.75891	0.60355	-0.23679	-0.06006	28.5	13111	100
2025-3-27 20:13:23.387	WT901BLE68-01(48591DE3C19B)	-0.979	-0.754	0.193	-52.917	-19.653	101.746	-82.51	21.81	-26.04	-53.116	-36.554	82.320	-0.75891	0.60355	-0.23679	-0.06006	28.5	13111	100
2025-3-27 20:13:23.387	WT901BLE68-01(48591DE3C19B)	-0.778	-0.754	0.193	-52.917	-19.653	101.746	-82.92	22.92	-25.56	-53.116	-36.554	82.320	-0.75891	0.60355	-0.23679	-0.06006	28.5	13111	100
2025-3-27 20:13:23.387	WT901BLE68-01(48591DE3C19B)	-0.778	-0.794	0.200	-65.125	-51.208	125.000	-83.29	24.24	-24.72	-53.116	-36.554	82.320	-0.75891	0.60355	-0.23679	-0.06006	28.5	13111	100
2025-3-27 20:13:23.388	WT901BLE68-01(48591DE3C19B)	-0.512	-0.794	0.200	-65.125	-51.208	125.000	-83.64	25.54	-23.88	-53.116	-36.554	82.320	-0.75891	0.60355	-0.23679	-0.06006	28.5	13111	100
2025-3-27 20:13:23.388	WT901BLE68-01(48591DE3C19B)	-0.329	-0.698	0.271	-62.195	-55.359	128.357	-83.91	26.87	-22.99	-53.116	-36.554	82.320	-0.75891	0.60355	-0.23679	-0.06006	28.5	13111	100
2025-3-27 20:13:23.388	WT901BLE68-01(48591DE3C19B)	-0.329	-0.460	0.297	-57.251	-52.368	132.507	-84.14	28.21	-22.13	-53.116	-36.554	82.320	-0.75891	0.60355	-0.23679	-0.06006	28.5	13111	100
2025-3-27 20:13:23.388	WT901BLE68-01(48591DE3C19B)	-0.189	-0.460	0.297	-57.251	-52.368	132.507	-84.33	29.57	-21.27	-53.116	-36.554	82.320	-0.75891	0.60355	-0.23679	-0.06006	28.5	13111	100
2025-3-27 20:13:23.478	WT901BLE68-01(48591DE3C19B)	-0.189	-0.246	0.279	-52.795	-56.946	136.536	-84.45	30.93	-20.38	-53.116	-36.554	82.320	-0.75891	0.60355	-0.23679	-0.06006	28.5	13111	100
2025-3-27 20:13:23.478	WT901BLE68-01(48591DE3C19B)	-0.132	-0.246	0.279	-52.795	-56.946	136.536	-84.50	32.31	-19.46	-53.116	-36.554	82.320	-0.75891	0.60355	-0.23679	-0.06006	28.5	13111	100
2025-3-27 20:13:23.478	WT901BLE68-01(48591DE3C19B)	-0.132	-0.125	0.220	-49.622	-56.091	138.184	-84.50	33.68	-18.52	-53.116	-36.554	82.320	-0.75891	0.60355	-0.23679	-0.06006	28.5	13111	100
2025-3-27 20:13:23.478	WT901BLE68-01(48591DE3C19B)	-0.153	-0.125	0.220	-49.622	-56.091	138.184	-84.45	35.06	-17.58	-53.116	-36.554	82.320	-0.75891	0.60355	-0.23679	-0.06006	28.5	13111	100
2025-3-27 20:13:23.479	WT901BLE68-01(48591DE3C19B)	-0.153	-0.165	0.160	-53.040	-54.321	135.193	-84.40	36.41	-16.63	-53.116	-36.554	82.320	-0.75891	0.60355	-0.23679	-0.06006	28.5	13111	100
2025-3-27 20:13:23.479	WT901BLE68-01(48591DE3C19B)	-0.158	-0.165	0.160	-53.040	-54.321	135.193	-84.33	37.74	-15.68	-53.116	-36.554	82.320	-0.75891	0.60355	-0.23679	-0.06006	28.5	13111	100
2025-3-27 20:13:23.479	WT901BLE68-01(48591DE3C19B)	-0.158	-0.382	0.054	-62.073	-66.223	127.075	-84.24	39.02	-14.64	-53.116	-36.554	82.320	-0.75891	0.60355	-0.23679	-0.06006	28.5	13111	100
2025-3-27 20:13:23.479	WT901BLE68-01(48591DE3C19B)	-0.144	-0.382	0.054	-62.073	-66.223	127.075	-84.12	40.23	-13.52	-53.116	-36.554	82.320	-0.75891	0.60355	-0.23679	-0.06006	28.5	13111	100
2025-3-27 20:13:23.508	WT901BLE68-01(48591DE3C19B)	-0.144	-0.755	0.009	-71.716	-85.632	116.028	-83.94	41.35	-12.29	-53.116	-36.554	82.320	-0.75891	0.60355	-0.23679	-0.06006	28.5	13111	100
2025-3-27 20:13:23.508	WT901BLE68-01(48591DE3C19B)	-0.162	-0.755	0.009	-71.716	-85.632	116.028	-83.70	42.37	-10.94	-53.116	-36.554	82.320	-0.75891	0.60355	-0.23679	-0.06006	28.5	13111	100
2025-3-27 20:13:23.508	WT901BLE68-01(48591DE3C19B)	-0.162	-1.396	-0.128	-77.026	-93.262	93.872	-83.46	43.26	-9.56	-53.116	-36.554	82.320	-0.71042	0.59393	-0.32446	-0.19269	28.5	13111	100
2025-3-27 20:13:23.508	WT901BLE68-01(48591DE3C19B)	-0.190	-1.396	-0.128	-77.026	-93.262	93.872	-83.23	43.99	-8.18	-53.116	-36.554	82.320	-0.71042	0.59393	-0.32446	-0.19269	28.5	13111	100
2025-3-27 20:13:23.596	WT901BLE68-01(48591DE3C19B)	-0.190	-2.233	-0.210	-41.748	-89.172	43.884	-82.88	44.45	-6.89	-53.116	-36.554	82.320	-0.71042	0.59393	-0.32446	-0.19269	28.5	13111	100
2025-3-27 20:13:23.596	WT901BLE68-01(48591DE3C19B)	-0.310	-2.233	-0.210	-41.748	-89.172	43.884	-82.42	44.62	-5.71	-53.116	-36.554	82.320	-0.71042	0.59393	-0.32446	-0.19269	28.5	13111	100
2025-3-27 20:13:23.596	WT901BLE68-01(48591DE3C19B)	-0.310	-2.453	-0.114	3.357	-92.651	4.822	-81.78	44.58	-4.55	-53.116	-36.554	82.320	-0.71042	0.59393	-0.32446	-0.19269	28.5	13111	100
2025-3-27 20:13:23.596	WT901BLE68-01(48591DE3C19B)	-0.451	-2.453	-0.114	3.357	-92.651	4.822	-80.94	44.33	-3.44	-53.116	-36.554	82.320	-0.71042	0.59393	-0.32446	-0.19269	28.5	13111	100
2025-3-27 20:13:23.597	WT901BLE68-01(48591DE3C19B)	-0.451	-1.939	0.027	22.400	-83.862	-31.250	-80.11	43.89	-2.46	-53.116	-36.554	82.320	-0.71042	0.59393	-0.32446	-0.19269	28.5	13111	100
2025-3-27 20:13:23.597	WT901BLE68-01(48591DE3C19B)	-0.300	-1.939	0.027	22.400	-83.862	-31.250	-79.27	43.28	-1.60	-53.116	-36.554	82.320	-0.71042	0.59393	-0.32446	-0.19269	28.5	13111	100
2025-3-27 20:13:23.598	WT901BLE68-01(48591DE3C19B)	-0.300	-1.576	0.034	21.484	-42.786	-53.589	-78.67	42.58	-1.07	-53.116	-36.554	82.320	-0.71042	0.59393	-0.32446	-0.19269	28.5	13111	100
2025-3-27 20:13:23.598	WT901BLE68-01(48591DE3C19B)	-0.150	-1.576	0.034	21.484	-42.786	-53.589	-78.31	41.81	-0.85	-53.116	-36.554	82.320	-0.71042	0.59393	-0.32446	-0.19269	28.5	13111	100
2025-3-27 20:13:23.627	WT901BLE68-01(48591DE3C19B)	-0.150	-1.313	0.079	31.738	23.193	-66.040	-78.18	41.06	-1.09	-53.116	-36.554	82.320	-0.71042	0.59393	-0.32446	-0.19269	28.5	13111	100
2025-3-27 20:13:23.627	WT901BLE68-01(48591DE3C19B)	-0.188	-1.313	0.079	31.738	23.193	-66.040	-78.30	40.31	-1.77	-53.116	-36.554	82.320	-0.71042	0.59393	-0.32446	-0.19269	28.5	13111	100
2025-3-27 20:13:23.627	WT901BLE68-01(48591DE3C19B)	-0.188	-0.987	0.125	37.842	68.848	-67.139	-78.56	39.61	-2.72	-53.116	-36.554	82.320	-0.71042	0.59393	-0.32446	-0.19269	28.5	13111	100
2025-3-27 20:13:23.627	WT901BLE68-01(48591DE3C19B)	-0.280	-0.987	0.125	37.842	68.848	-67.139	-78.95	38.93	-3.95	-53.116	-36.554	82.320	-0.71042	0.59393	-0.32446	-0.19269	28.5	13111	100
2025-3-27 20:13:23.688	WT901BLE68-01(48591DE3C19B)	-0.280	-0.722	0.159	27.161	59.082	-73.181	-79.33	38.22	-5.09	-53.116	-36.554	82.320	-0.71042	0.59393	-0.32446	-0.19269	28.5	13111	100
2025-3-27 20:13:23.688	WT901BLE68-01(48591DE3C19B)	-0.207	-0.722	0.159	27.161	59.082	-73.181	-79.70	37.47	-6.16	-53.116	-36.554	82.320	-0.71042	0.59393	-0.32446	-0.19269	28.5	13111	100
2025-3-27 20:13:23.688	WT901BLE68-01(48591DE3C19B)	-0.207	-0.601	0.158	14.282	34.058	-83.740	-80.02	36.64	-7.05	-53.116	-36.554	82.320	-0.71042	0.59393	-0.32446	-0.19269	28.5	13111	100
2025-3-27 20:13:23.688	WT901BLE68-01(48591DE3C19B)	-0.220	-0.601	0.158	14.282	34.058	-83.740	-80.29	35.75	-7.78	-53.116	-36.554	82.320	-0.71042	0.59393	-0.32446	-0.19269	28.5	13111	100
2025-3-27 20:13:23.717	WT901BLE68-01(48591DE3C19B)	-0.220	-0.507	0.096	15.015	33.630	-91.858	-80.55	34.82	-8.50	-53.116	-36.554	82.320	-0.71042	0.59393	-0.32446	-0.19269	28.5	13111	100
2025-3-27 20:13:23.717	WT901BLE68-01(48591DE3C19B)	-0.313	-0.507	0.096	15.015	33.630	-91.858	-80.78	33.85	-9.21	-53.116	-36.554	82.320	-0.71042	0.59393	-0.32446	-0.19269	28.5	13111	100
2025-3-27 20:13:23.717	WT901BLE68-01(48591DE3C19B)	-0.313	-0.363	0.021	21.179	40.527	-90.637	-80.98	32.90	-9.93	-53.116	-36.554	82.320	-0.71042	0.59393	-0.32446	-0.19269	28.5	13111	100
2025-3-27 20:13:23.718	WT901BLE68-01(48591DE3C19B)	-0.354	-0.363	0.021	21.179	40.527	-90.637	-81.15	31.98	-10.67	-52.528	-44.492	80.850	-0.71042	0.59393	-0.32446	-0.19269	28.5	13111	100
2025-3-27 20:13:23.776	WT901BLE68-01(48591DE3C19B)	-0.354	-0.221	-0.012	20.081	38.940	-78.857	-81.30	31.12	-11.37	-52.528	-44.492	80.850	-0.71042	0.59393	-0.32446	-0.19269	28.5	13111	100
2025-3-27 20:13:23.776	WT901BLE68-01(48591DE3C19B)	-0.333	-0.221	-0.012	20.081	38.940	-78.857	-81.43	30.33	-12.03	-52.528	-44.492	80.850	-0.71042	0.59393	-0.32446	-0.19269	28.5	13111	100
2025-3-27 20:13:23.777	WT901BLE68-01(48591DE3C19B)	-0.333	-0.215	0.010	12.390	30.884	-63.171	-81.56	29.64	-12.61	-52.528	-44.492	80.850	-0.71042	0.59393	-0.32446	-0.19269	28.5	13111	100
2025-3-27 20:13:23.777	WT901BLE68-01(48591DE3C19B)	-0.303	-0.215	0.010	12.390	30.884	-63.171	-81.69	29.01	-13.12	-52.528	-44.492	80.850	-0.71042	0.59393	-0.32446	-0.19269	28.5	13111	100
2025-3-27 20:13:23.805	WT901BLE68-01(48591DE3C19B)	-0.303	-0.363	0.054	3.357	28.442	-50.354	-81.84	28.47	-13.58	-52.528	-44.492	80.850	-0.71042	0.59393	-0.32446	-0.19269	28.5	13111	100
2025-3-27 20:13:23.805	WT901BLE68-01(48591DE3C19B)	-0.314	-0.363	0.054	3.357	28.442	-50.354	-82.01	28.00	-14.01	-52.528	-44.492	80.850	-0.71042	0.59393	-0.32446	-0.19269	28.5	13111	100
2025-3-27 20:13:23.805	WT901BLE68-01(48591DE3C19B)	-0.314	-0.598	0.067	-0.610	32.166	-46.021	-82.21	27.55	-14.45	-52.528	-44.492	80.850	-0.71042	0.59393	-0.32446	-0.19269	28.5	13111	100
2025-3-27 20:13:23.805	WT901BLE68-01(48591DE3C19B)	-0.371	-0.598	0.067	-0.610	32.166	-46.021	-82.43	27.14	-14.90	-52.528	-44.492	80.850	-0.71042	0.59393	-0.32446	-0.19269	28.5	13111	100
2025-3-27 20:13:23.835	WT901BLE68-01(48591DE3C19B)	-0.371	-0.827	0.045	-1.282	37.781	-51.697	-82.66	26.69	-15.38	-52.528	-44.492	80.850	-0.71042	0.59393	-0.32446	-0.19269	28.5	13111	100
2025-3-27 20:13:23.835	WT901BLE68-01(48591DE3C19B)	-0.487	-0.827	0.045	-1.282	37.781	-51.697	-82.91	26.22	-15.88	-52.528	-44.492	80.850	-0.71042	0.59393	-0.32446	-0.19269	28.5	13111	100
2025-3-27 20:13:23.835	WT901BLE68-01(48591DE3C19B)	-0.487	-1.175	0.055	-2.380	41.809	-76.111	-83.17	25.64	-16.42	-52.528	-44.492	80.850	-0.71042	0.59393	-0.32446	-0.19269	28.5	13111	100
2025-3-27 20:13:23.836	WT901BLE68-01(48591DE3C19B)	-0.751	-1.175	0.055	-2.380	41.809	-76.111	-83.45	24.93	-16.99	-52.528	-44.492	80.850	-0.71042	0.59393	-0.32446	-0.19269	28.5	13111	100
2025-3-27 20:13:23.864	WT901BLE68-01(48591DE3C19B)	-0.751	-1.861	0.135	-3.418	38.696	-119.385	-83.73	23.80	-17.57	-52.528	-44.492	80.850	-0.71042	0.59393	-0.32446	-0.19269	28.5	13111	100
2025-3-27 20:13:23.864	WT901BLE68-01(48591DE3C19B)	-1.271	-1.861	0.135	-3.418	38.696	-119.385	-84.00	22.65	-18.14	-52.528	-44.492	80.850	-0.71042	0.59393	-0.32446	-0.19269	28.5	13111	100
2025-3-27 20:13:23.864	WT901BLE68-01(48591DE3C19B)	-1.271	-2.723	0.260	4.639	13.489	-139.954	-84.07	21.29	-18.46	-52.528	-44.492	80.850	-0.71042	0.59393	-0.32446	-0.19269	28.5	13111	100
2025-3-27 20:13:23.864	WT901BLE68-01(48591DE3C19B)	-1.335	-2.723	0.260	4.639	13.489	-139.954	-84.13	19.94	-18.76	-52.528	-44.492	80.850	-0.71042	0.59393	-0.32446	-0.19269	28.5	13111	100
2025-3-27 20:13:23.926	WT901BLE68-01(48591DE3C19B)	-1.335	-1.899	0.381	53.955	16.968	-146.484	-83.71	18.54	-19.10	-52.528	-44.492	80.850	-0.71042	0.59393	-0.32446	-0.19269	28.5	13111	100
2025-3-27 20:13:23.926	WT901BLE68-01(48591DE3C19B)	-0.894	-1.899	0.381	53.955	16.968	-146.484	-83.28	17.16	-19.44	-52.528	-44.492	80.850	-0.71042	0.59393	-0.32446	-0.19269	28.5	13111	100
2025-3-27 20:13:23.926	WT901BLE68-01(48591DE3C19B)	-0.894	-1.003	0.321	40.161	65.186	-118.286	-83.12	16.13	-20.24	-52.528	-44.492	80.850	-0.71042	0.59393	-0.32446	-0.19269	28.5	13111	100
2025-3-27 20:13:23.926	WT901BLE68-01(48591DE3C19B)	-0.607	-1.003	0.321	40.161	65.186	-118.286	-82.94	15.12	-21.03	-52.528	-44.492	80.850	-0.71042	0.59393	-0.32446	-0.19269	28.5	13111	100
2025-3-27 20:13:23.956	WT901BLE68-01(48591DE3C19B)	-0.607	-0.649	0.299	18.982	103.394	-78.125	-83.04	14.56	-22.15	-52.528	-44.492	80.850	-0.74493	0.62704	-0.21945	0.06018	28.5	13111	100
2025-3-27 20:13:23.956	WT901BLE68-01(48591DE3C19B)	-0.563	-0.649	0.299	18.982	103.394	-78.125	-83.13	14.01	-23.25	-52.528	-44.492	80.850	-0.74493	0.62704	-0.21945	0.06018	28.5	13111	100
2025-3-27 20:13:23.956	WT901BLE68-01(48591DE3C19B)	-0.563	-0.415	0.251	4.089	60.242	-35.828	-83.23	13.84	-23.86	-52.528	-44.492	80.850	-0.74493	0.62704	-0.21945	0.06018	28.5	13111	100
2025-3-27 20:13:23.956	WT901BLE68-01(48591DE3C19B)	-0.639	-0.415	0.251	4.089	60.242	-35.828	-83.34	13.67	-24.44	-52.528	-44.492	80.850	-0.74493	0.62704	-0.21945	0.06018	28.5	13111	100
2025-3-27 20:13:23.986	WT901BLE68-01(48591DE3C19B)	-0.639	-0.375	0.210	-34.607	-33.997	-11.230	-83.59	13.64	-24.04	-52.528	-44.492	80.850	-0.74493	0.62704	-0.21945	0.06018	28.5	13111	100
2025-3-27 20:13:23.986	WT901BLE68-01(48591DE3C19B)	-0.493	-0.375	0.210	-34.607	-33.997	-11.230	-83.84	13.63	-23.63	-52.528	-44.492	80.850	-0.74493	0.62704	-0.21945	0.06018	28.5	13111	100
2025-3-27 20:13:23.986	WT901BLE68-01(48591DE3C19B)	-0.493	-0.469	0.180	-52.429	-110.718	9.583	-84.07	13.74	-22.40	-52.528	-44.492	80.850	-0.74493	0.62704	-0.21945	0.06018	28.5	13111	100
2025-3-27 20:13:23.986	WT901BLE68-01(48591DE3C19B)	-0.421	-0.469	0.180	-52.429	-110.718	9.583	-84.29	13.87	-21.18	-52.528	-44.492	80.850	-0.74493	0.62704	-0.21945	0.06018	28.5	13111	100
2025-3-27 20:13:24.45	WT901BLE68-01(48591DE3C19B)	-0.421	-0.385	0.203	-33.325	-110.840	31.006	-84.31	14.21	-19.93	-52.528	-44.492	80.850	-0.74493	0.62704	-0.21945	0.06018	28.5	13111	100
2025-3-27 20:13:24.46	WT901BLE68-01(48591DE3C19B)	-0.369	-0.385	0.203	-33.325	-110.840	31.006	-84.33	14.55	-18.69	-52.528	-44.492	80.850	-0.74493	0.62704	-0.21945	0.06018	28.5	13111	100
2025-3-27 20:13:24.46	WT901BLE68-01(48591DE3C19B)	-0.369	-0.138	0.165	-16.357	-57.983	38.513	-84.29	15.03	-17.98	-52.528	-44.492	80.850	-0.74493	0.62704	-0.21945	0.06018	28.5	13111	100
2025-3-27 20:13:24.46	WT901BLE68-01(48591DE3C19B)	-0.301	-0.138	0.165	-16.357	-57.983	38.513	-84.25	15.51	-17.26	-52.528	-44.492	80.850	-0.74493	0.62704	-0.21945	0.06018	28.5	13111	100
2025-3-27 20:13:24.78	WT901BLE68-01(48591DE3C19B)	-0.301	0.011	0.123	-8.606	0.793	52.368	-84.28	16.18	-17.12	-52.528	-44.492	80.850	-0.74493	0.62704	-0.21945	0.06018	28.5	13111	100
2025-3-27 20:13:24.78	WT901BLE68-01(48591DE3C19B)	-0.413	0.011	0.123	-8.606	0.793	52.368	-84.31	16.87	-16.96	-52.528	-44.492	80.850	-0.74493	0.62704	-0.21945	0.06018	28.5	13111	100
2025-3-27 20:13:24.78	WT901BLE68-01(48591DE3C19B)	-0.413	-0.050	0.089	-4.211	52.124	65.247	-84.46	17.74	-17.32	-52.528	-44.492	80.850	-0.74493	0.62704	-0.21945	0.06018	28.5	13111	100
2025-3-27 20:13:24.78	WT901BLE68-01(48591DE3C19B)	-0.546	-0.050	0.089	-4.211	52.124	65.247	-84.62	18.62	-17.67	-52.528	-44.492	80.850	-0.74493	0.62704	-0.21945	0.06018	28.5	13111	100
2025-3-27 20:13:24.108	WT901BLE68-01(48591DE3C19B)	-0.546	-0.230	0.076	-5.737	56.396	69.519	-84.82	19.56	-18.05	-52.528	-44.492	80.850	-0.74493	0.62704	-0.21945	0.06018	28.5	13111	100
2025-3-27 20:13:24.108	WT901BLE68-01(48591DE3C19B)	-0.601	-0.230	0.076	-5.737	56.396	69.519	-85.03	20.48	-18.42	-52.528	-44.492	80.850	-0.74493	0.62704	-0.21945	0.06018	28.5	13111	100
2025-3-27 20:13:24.108	WT901BLE68-01(48591DE3C19B)	-0.601	-0.438	0.083	-9.888	25.696	67.078	-85.19	21.36	-18.47	-54.684	-44.198	82.418	-0.74493	0.62704	-0.21945	0.06018	28.5	13111	100
2025-3-27 20:13:24.108	WT901BLE68-01(48591DE3C19B)	-0.686	-0.438	0.083	-9.888	25.696	67.078	-85.35	22.24	-18.53	-54.684	-44.198	82.418	-0.74493	0.62704	-0.21945	0.06018	28.5	13111	100
2025-3-27 20:13:24.165	WT901BLE68-01(48591DE3C19B)	-0.686	-0.828	0.153	-22.339	-15.015	57.312	-85.47	22.97	-18.18	-54.684	-44.198	82.418	-0.74493	0.62704	-0.21945	0.06018	28.5	13111	100
2025-3-27 20:13:24.165	WT901BLE68-01(48591DE3C19B)	-0.884	-0.828	0.153	-22.339	-15.015	57.312	-85.59	23.68	-17.83	-54.684	-44.198	82.418	-0.74493	0.62704	-0.21945	0.06018	28.5	13111	100
2025-3-27 20:13:24.165	WT901BLE68-01(48591DE3C19B)	-0.884	-1.802	0.122	-43.274	-64.392	37.231	-85.70	24.13	-17.00	-54.684	-44.198	82.418	-0.74493	0.62704	-0.21945	0.06018	28.5	13111	100
2025-3-27 20:13:24.165	WT901BLE68-01(48591DE3C19B)	-0.935	-1.802	0.122	-43.274	-64.392	37.231	-85.81	24.55	-16.19	-54.684	-44.198	82.418	-0.74493	0.62704	-0.21945	0.06018	28.5	13111	100
2025-3-27 20:13:24.197	WT901BLE68-01(48591DE3C19B)	-0.935	-3.059	-0.066	-32.898	-98.877	30.518	-85.65	24.85	-15.05	-54.684	-44.198	82.418	-0.74493	0.62704	-0.21945	0.06018	28.5	13111	100
2025-3-27 20:13:24.198	WT901BLE68-01(48591DE3C19B)	-0.754	-3.059	-0.066	-32.898	-98.877	30.518	-85.51	25.11	-13.94	-54.684	-44.198	82.418	-0.74493	0.62704	-0.21945	0.06018	28.5	13111	100
2025-3-27 20:13:24.198	WT901BLE68-01(48591DE3C19B)	-0.754	-2.582	-0.039	44.312	-100.708	41.870	-84.58	25.46	-12.82	-54.684	-44.198	82.418	-0.74493	0.62704	-0.21945	0.06018	28.5	13111	100
2025-3-27 20:13:24.198	WT901BLE68-01(48591DE3C19B)	-0.354	-2.582	-0.039	44.312	-100.708	41.870	-83.66	25.77	-11.69	-54.684	-44.198	82.418	-0.74493	0.62704	-0.21945	0.06018	28.5	13111	100
2025-3-27 20:13:24.288	WT901BLE68-01(48591DE3C19B)	-0.354	-1.773	0.038	21.179	-60.791	57.556	-83.14	26.27	-11.00	-54.684	-44.198	82.418	-0.74493	0.62704	-0.21945	0.06018	28.5	13111	100
2025-3-27 20:13:24.288	WT901BLE68-01(48591DE3C19B)	0.003	-1.773	0.038	21.179	-60.791	57.556	-82.62	26.75	-10.31	-54.684	-44.198	82.418	-0.74493	0.62704	-0.21945	0.06018	28.5	13111	100
2025-3-27 20:13:24.288	WT901BLE68-01(48591DE3C19B)	0.003	-1.660	0.137	19.531	-6.165	68.481	-82.38	27.38	-10.22	-54.684	-44.198	82.418	-0.74493	0.62704	-0.21945	0.06018	28.5	13111	100
2025-3-27 20:13:24.288	WT901BLE68-01(48591DE3C19B)	0.131	-1.660	0.137	19.531	-6.165	68.481	-82.14	28.00	-10.13	-54.684	-44.198	82.418	-0.74493	0.62704	-0.21945	0.06018	28.5	13111	100
2025-3-27 20:13:24.289	WT901BLE68-01(48591DE3C19B)	0.131	-1.235	0.172	25.269	24.780	81.482	-82.00	28.78	-10.39	-54.684	-44.198	82.418	-0.74493	0.62704	-0.21945	0.06018	28.5	13111	100
2025-3-27 20:13:24.289	WT901BLE68-01(48591DE3C19B)	0.006	-1.235	0.172	25.269	24.780	81.482	-81.86	29.54	-10.64	-54.684	-44.198	82.418	-0.74493	0.62704	-0.21945	0.06018	28.5	13111	100
2025-3-27 20:13:24.289	WT901BLE68-01(48591DE3C19B)	0.006	-0.790	0.229	13.367	17.395	67.383	-81.82	30.15	-10.84	-54.684	-44.198	82.418	-0.74493	0.62704	-0.21945	0.06018	28.5	13111	100
2025-3-27 20:13:24.289	WT901BLE68-01(48591DE3C19B)	-0.090	-0.790	0.229	13.367	17.395	67.383	-81.77	30.74	-11.04	-54.684	-44.198	82.418	-0.74493	0.62704	-0.21945	0.06018	28.5	13111	100
2025-3-27 20:13:24.345	WT901BLE68-01(48591DE3C19B)	-0.090	-0.545	0.267	3.235	-4.089	46.387	-81.70	31.09	-11.04	-54.684	-44.198	82.418	-0.74493	0.62704	-0.21945	0.06018	28.5	13111	100
2025-3-27 20:13:24.345	WT901BLE68-01(48591DE3C19B)	-0.158	-0.545	0.267	3.235	-4.089	46.387	-81.63	31.43	-11.03	-54.684	-44.198	82.418	-0.74493	0.62704	-0.21945	0.06018	28.5	13111	100
2025-3-27 20:13:24.345	WT901BLE68-01(48591DE3C19B)	-0.198	-0.447	0.261	-2.808	7.996	36.804	-81.70	31.70	-11.18	-54.684	-44.198	82.418	-0.74493	0.62704	-0.21945	0.06018	28.5	13111	100
2025-3-27 20:13:24.345	WT901BLE68-01(48591DE3C19B)	-0.198	-0.373	0.196	3.967	40.894	33.752	-81.83	31.97	-11.52	-54.684	-44.198	82.418	-0.74081	0.60553	-0.27026	-0.10654	28.5	13111	100
2025-3-27 20:13:24.347	WT901BLE68-01(48591DE3C19B)	-0.201	-0.373	0.196	3.967	40.894	33.752	-82.03	32.26	-12.06	-54.684	-44.198	82.418	-0.74081	0.60553	-0.27026	-0.10654	28.5	13111	100
2025-3-27 20:13:24.347	WT901BLE68-01(48591DE3C19B)	-0.201	-0.298	0.104	12.512	44.922	35.950	-82.19	32.55	-12.61	-54.684	-44.198	82.418	-0.74081	0.60553	-0.27026	-0.10654	28.5	13111	100
2025-3-27 20:13:24.347	WT901BLE68-01(48591DE3C19B)	-0.100	-0.298	0.104	12.512	44.922	35.950	-82.32	32.86	-13.18	-54.684	-44.198	82.418	-0.74081	0.60553	-0.27026	-0.10654	28.5	13111	100
2025-3-27 20:13:24.347	WT901BLE68-01(48591DE3C19B)	-0.100	-0.215	0.016	13.916	12.207	42.969	-82.33	33.18	-13.56	-54.684	-44.198	82.418	-0.74081	0.60553	-0.27026	-0.10654	28.5	13111	100
2025-3-27 20:13:24.406	WT901BLE68-01(48591DE3C19B)	0.023	-0.215	0.016	13.916	12.207	42.969	-82.23	33.52	-13.73	-54.684	-44.198	82.418	-0.74081	0.60553	-0.27026	-0.10654	28.5	13111	100
2025-3-27 20:13:24.407	WT901BLE68-01(48591DE3C19B)	0.023	-0.194	-0.017	6.531	-9.583	43.274	-82.10	33.84	-13.77	-54.684	-44.198	82.418	-0.74081	0.60553	-0.27026	-0.10654	28.5	13111	100
2025-3-27 20:13:24.407	WT901BLE68-01(48591DE3C19B)	-0.049	-0.194	-0.017	6.531	-9.583	43.274	-81.94	34.15	-13.68	-54.684	-44.198	82.418	-0.74081	0.60553	-0.27026	-0.10654	28.5	13111	100
2025-3-27 20:13:24.407	WT901BLE68-01(48591DE3C19B)	-0.049	-0.374	-0.017	-6.897	-27.039	36.072	-81.79	34.40	-13.50	-54.684	-44.198	82.418	-0.74081	0.60553	-0.27026	-0.10654	28.5	13111	100
2025-3-27 20:13:24.435	WT901BLE68-01(48591DE3C19B)	-0.257	-0.374	-0.017	-6.897	-27.039	36.072	-81.66	34.60	-13.23	-54.684	-44.198	82.418	-0.74081	0.60553	-0.27026	-0.10654	28.5	13111	100
2025-3-27 20:13:24.435	WT901BLE68-01(48591DE3C19B)	-0.257	-0.648	0.006	-19.409	-58.655	17.395	-81.50	34.68	-12.78	-54.684	-44.198	82.418	-0.74081	0.60553	-0.27026	-0.10654	28.5	13111	100
2025-3-27 20:13:24.435	WT901BLE68-01(48591DE3C19B)	-0.300	-0.648	0.006	-19.409	-58.655	17.395	-81.30	34.65	-12.16	-54.684	-44.198	82.418	-0.74081	0.60553	-0.27026	-0.10654	28.5	13111	100
2025-3-27 20:13:24.435	WT901BLE68-01(48591DE3C19B)	-0.300	-0.897	0.023	-29.358	-91.370	-6.287	-81.06	34.48	-11.37	-54.684	-44.198	82.418	-0.74081	0.60553	-0.27026	-0.10654	28.5	13111	100
2025-3-27 20:13:24.465	WT901BLE68-01(48591DE3C19B)	-0.353	-0.897	0.023	-29.358	-91.370	-6.287	-80.79	34.17	-10.40	-54.684	-44.198	82.418	-0.74081	0.60553	-0.27026	-0.10654	28.5	13111	100
2025-3-27 20:13:24.465	WT901BLE68-01(48591DE3C19B)	-0.353	-1.310	0.114	-26.062	-107.971	-46.082	-80.48	33.65	-9.40	-54.684	-44.198	82.418	-0.74081	0.60553	-0.27026	-0.10654	28.5	13111	100
2025-3-27 20:13:24.465	WT901BLE68-01(48591DE3C19B)	-0.458	-1.310	0.114	-26.062	-107.971	-46.082	-80.15	32.92	-8.34	-54.684	-44.198	82.418	-0.74081	0.60553	-0.27026	-0.10654	28.5	13111	100
2025-3-27 20:13:24.465	WT901BLE68-01(48591DE3C19B)	-0.458	-1.904	0.215	-14.282	-86.182	-108.826	-79.87	31.89	-7.51	-54.684	-44.198	82.418	-0.74081	0.60553	-0.27026	-0.10654	28.5	13111	100
2025-3-27 20:13:24.525	WT901BLE68-01(48591DE3C19B)	-0.676	-1.904	0.215	-14.282	-86.182	-108.826	-79.67	30.59	-6.88	-54.684	-44.198	82.418	-0.74081	0.60553	-0.27026	-0.10654	28.5	13111	100
2025-3-27 20:13:24.525	WT901BLE68-01(48591DE3C19B)	-0.676	-2.204	0.364	2.136	-35.645	-136.658	-79.56	29.19	-6.58	-54.684	-44.198	82.418	-0.74081	0.60553	-0.27026	-0.10654	28.5	13111	100
2025-3-27 20:13:24.525	WT901BLE68-01(48591DE3C19B)	-0.973	-2.204	0.364	2.136	-35.645	-136.658	-79.52	27.71	-6.60	-54.684	-44.198	82.418	-0.74081	0.60553	-0.27026	-0.10654	28.5	13111	100
2025-3-27 20:13:24.525	WT901BLE68-01(48591DE3C19B)	-0.973	-1.760	0.436	14.893	35.950	-149.719	-79.60	26.24	-7.01	-54.684	-44.198	82.418	-0.74081	0.60553	-0.27026	-0.10654	28.5	13111	100
2025-3-27 20:13:24.616	WT901BLE68-01(48591DE3C19B)	-0.827	-1.760	0.436	14.893	35.950	-149.719	-79.77	24.79	-7.81	-55.468	-47.530	82.614	-0.74081	0.60553	-0.27026	-0.10654	28.5	13111	100
2025-3-27 20:13:24.616	WT901BLE68-01(48591DE3C19B)	-0.827	-1.387	0.506	14.343	86.670	-139.282	-80.01	23.45	-8.84	-55.468	-47.530	82.614	-0.74081	0.60553	-0.27026	-0.10654	28.5	13111	100
2025-3-27 20:13:24.616	WT901BLE68-01(48591DE3C19B)	-0.630	-1.387	0.506	14.343	86.670	-139.282	-80.33	22.21	-10.10	-55.468	-47.530	82.614	-0.74081	0.60553	-0.27026	-0.10654	28.5	13111	100
2025-3-27 20:13:24.616	WT901BLE68-01(48591DE3C19B)	-0.630	-1.131	0.471	14.526	115.051	-123.108	-80.65	21.09	-11.46	-55.468	-47.530	82.614	-0.74081	0.60553	-0.27026	-0.10654	28.5	13111	100
2025-3-27 20:13:24.617	WT901BLE68-01(48591DE3C19B)	-0.651	-1.131	0.471	14.526	115.051	-123.108	-80.99	20.07	-12.94	-55.468	-47.530	82.614	-0.74081	0.60553	-0.27026	-0.10654	28.5	13111	100
2025-3-27 20:13:24.617	WT901BLE68-01(48591DE3C19B)	-0.651	-0.778	0.373	19.348	85.449	-82.031	-81.20	19.23	-14.20	-55.468	-47.530	82.614	-0.74081	0.60553	-0.27026	-0.10654	28.5	13111	100
2025-3-27 20:13:24.617	WT901BLE68-01(48591DE3C19B)	-0.751	-0.778	0.373	19.348	85.449	-82.031	-81.30	18.57	-15.25	-55.468	-47.530	82.614	-0.74081	0.60553	-0.27026	-0.10654	28.5	13111	100
2025-3-27 20:13:24.618	WT901BLE68-01(48591DE3C19B)	-0.751	-0.542	0.231	-8.911	-15.869	-58.960	-81.36	17.97	-15.74	-55.468	-47.530	82.614	-0.74081	0.60553	-0.27026	-0.10654	28.5	13111	100
2025-3-27 20:13:24.706	WT901BLE68-01(48591DE3C19B)	-0.496	-0.542	0.231	-8.911	-15.869	-58.960	-81.40	17.42	-15.67	-55.468	-47.530	82.614	-0.74081	0.60553	-0.27026	-0.10654	28.5	13111	100
2025-3-27 20:13:24.706	WT901BLE68-01(48591DE3C19B)	-0.496	-0.552	0.136	-37.354	-92.346	-37.720	-81.45	16.93	-15.18	-55.468	-47.530	82.614	-0.74081	0.60553	-0.27026	-0.10654	28.5	13111	100
2025-3-27 20:13:24.706	WT901BLE68-01(48591DE3C19B)	-0.415	-0.552	0.136	-37.354	-92.346	-37.720	-81.52	16.50	-14.28	-55.468	-47.530	82.614	-0.74081	0.60553	-0.27026	-0.10654	28.5	13111	100
2025-3-27 20:13:24.706	WT901BLE68-01(48591DE3C19B)	-0.415	-0.576	0.154	-26.794	-83.618	-12.451	-81.56	16.20	-13.41	-55.468	-47.530	82.614	-0.74081	0.60553	-0.27026	-0.10654	28.5	13111	100
2025-3-27 20:13:24.707	WT901BLE68-01(48591DE3C19B)	-0.452	-0.576	0.154	-26.794	-83.618	-12.451	-81.56	16.05	-12.56	-55.468	-47.530	82.614	-0.74081	0.60553	-0.27026	-0.10654	28.5	13111	100
2025-3-27 20:13:24.707	WT901BLE68-01(48591DE3C19B)	-0.452	-0.390	0.198	-13.245	-40.771	1.099	-81.55	15.99	-11.93	-55.468	-47.530	82.614	-0.74081	0.60553	-0.27026	-0.10654	28.5	13111	100
2025-3-27 20:13:24.707	WT901BLE68-01(48591DE3C19B)	-0.429	-0.390	0.198	-13.245	-40.771	1.099	-81.52	16.03	-11.49	-55.468	-47.530	82.614	-0.74081	0.60553	-0.27026	-0.10654	28.5	13111	100
2025-3-27 20:13:24.707	WT901BLE68-01(48591DE3C19B)	-0.429	-0.170	0.230	-9.949	-15.076	18.982	-81.51	16.19	-11.17	-55.468	-47.530	82.614	-0.74081	0.60553	-0.27026	-0.10654	28.5	13111	100
2025-3-27 20:13:24.765	WT901BLE68-01(48591DE3C19B)	-0.403	-0.170	0.230	-9.949	-15.076	18.982	-81.52	16.46	-10.96	-55.468	-47.530	82.614	-0.74081	0.60553	-0.27026	-0.10654	28.5	13111	100
2025-3-27 20:13:24.765	WT901BLE68-01(48591DE3C19B)	-0.403	-0.042	0.215	-8.301	-2.747	37.781	-81.52	16.85	-10.78	-55.468	-47.530	82.614	-0.74081	0.60553	-0.27026	-0.10654	28.5	13111	100
2025-3-27 20:13:24.766	WT901BLE68-01(48591DE3C19B)	-0.375	-0.042	0.215	-8.301	-2.747	37.781	-81.52	17.35	-10.63	-55.468	-47.530	82.614	-0.74081	0.60553	-0.27026	-0.10654	28.5	13111	100
2025-3-27 20:13:24.766	WT901BLE68-01(48591DE3C19B)	-0.375	0.005	0.181	-10.742	-2.075	52.917	-81.53	17.93	-10.46	-55.468	-47.530	82.614	-0.74081	0.60553	-0.27026	-0.10654	28.5	13111	100
2025-3-27 20:13:24.767	WT901BLE68-01(48591DE3C19B)	-0.363	0.005	0.181	-10.742	-2.075	52.917	-81.55	18.59	-10.26	-55.468	-47.530	82.614	-0.75348	0.63065	-0.18106	-0.04089	28.5	13111	100
2025-3-27 20:13:24.767	WT901BLE68-01(48591DE3C19B)	-0.363	-0.018	0.158	-17.517	-11.169	58.411	-81.58	19.29	-9.99	-55.468	-47.530	82.614	-0.75348	0.63065	-0.18106	-0.04089	28.5	13111	100
2025-3-27 20:13:24.767	WT901BLE68-01(48591DE3C19B)	-0.451	-0.018	0.158	-17.517	-11.169	58.411	-81.62	20.02	-9.64	-55.468	-47.530	82.614	-0.75348	0.63065	-0.18106	-0.04089	28.5	13111	100
2025-3-27 20:13:24.767	WT901BLE68-01(48591DE3C19B)	-0.451	-0.172	0.146	-30.029	-34.241	57.129	-81.69	20.74	-9.16	-55.468	-47.530	82.614	-0.75348	0.63065	-0.18106	-0.04089	28.5	13111	100
2025-3-27 20:13:24.797	WT901BLE68-01(48591DE3C19B)	-0.577	-0.172	0.146	-30.029	-34.241	57.129	-81.78	21.43	-8.54	-55.468	-47.530	82.614	-0.75348	0.63065	-0.18106	-0.04089	28.5	13111	100
2025-3-27 20:13:24.797	WT901BLE68-01(48591DE3C19B)	-0.577	-0.502	0.199	-37.964	-63.293	47.485	-81.83	21.99	-7.64	-55.468	-47.530	82.614	-0.75348	0.63065	-0.18106	-0.04089	28.5	13111	100
2025-3-27 20:13:24.797	WT901BLE68-01(48591DE3C19B)	-0.753	-0.502	0.199	-37.964	-63.293	47.485	-81.87	22.54	-6.73	-55.468	-47.530	82.614	-0.75348	0.63065	-0.18106	-0.04089	28.5	13111	100
2025-3-27 20:13:24.798	WT901BLE68-01(48591DE3C19B)	-0.753	-1.067	0.264	-42.542	-101.807	41.870	-81.79	22.97	-5.45	-55.468	-47.530	82.614	-0.75348	0.63065	-0.18106	-0.04089	28.5	13111	100
2025-3-27 20:13:24.855	WT901BLE68-01(48591DE3C19B)	-0.831	-1.067	0.264	-42.542	-101.807	41.870	-81.71	23.37	-4.19	-55.468	-47.530	82.614	-0.75348	0.63065	-0.18106	-0.04089	28.5	13111	100
2025-3-27 20:13:24.856	WT901BLE68-01(48591DE3C19B)	-0.831	-2.130	0.182	-42.236	-120.972	17.334	-81.56	23.47	-2.82	-55.468	-47.530	82.614	-0.75348	0.63065	-0.18106	-0.04089	28.5	13111	100
2025-3-27 20:13:24.856	WT901BLE68-01(48591DE3C19B)	-0.765	-2.130	0.182	-42.236	-120.972	17.334	-81.41	23.54	-1.48	-55.468	-47.530	82.614	-0.75348	0.63065	-0.18106	-0.04089	28.5	13111	100
2025-3-27 20:13:24.856	WT901BLE68-01(48591DE3C19B)	-0.765	-3.089	-0.020	4.089	-115.845	18.188	-80.84	23.58	-0.25	-55.468	-47.530	82.614	-0.75348	0.63065	-0.18106	-0.04089	28.5	13111	100
2025-3-27 20:13:24.887	WT901BLE68-01(48591DE3C19B)	-0.678	-3.089	-0.020	4.089	-115.845	18.188	-80.29	23.59	0.94	-55.468	-47.530	82.614	-0.75348	0.63065	-0.18106	-0.04089	28.5	13111	100
2025-3-27 20:13:24.887	WT901BLE68-01(48591DE3C19B)	-0.678	-2.181	-0.024	72.205	-61.157	16.174	-79.32	23.66	1.53	-55.468	-47.530	82.614	-0.75348	0.63065	-0.18106	-0.04089	28.5	13111	100
2025-3-27 20:13:24.887	WT901BLE68-01(48591DE3C19B)	-0.408	-2.181	-0.024	72.205	-61.157	16.174	-78.35	23.71	2.11	-55.468	-47.530	82.614	-0.75348	0.63065	-0.18106	-0.04089	28.5	13111	100
2025-3-27 20:13:24.887	WT901BLE68-01(48591DE3C19B)	-0.408	-1.732	0.058	55.237	-0.366	27.161	-77.82	23.98	2.05	-55.468	-47.530	82.614	-0.75348	0.63065	-0.18106	-0.04089	28.5	13111	100
2025-3-27 20:13:24.917	WT901BLE68-01(48591DE3C19B)	-0.122	-1.732	0.058	55.237	-0.366	27.161	-77.29	24.24	2.00	-55.468	-47.530	82.614	-0.75348	0.63065	-0.18106	-0.04089	28.5	13111	100
2025-3-27 20:13:24.917	WT901BLE68-01(48591DE3C19B)	-0.122	-1.501	0.251	61.707	48.462	33.386	-76.90	24.65	1.43	-55.468	-47.530	82.614	-0.75348	0.63065	-0.18106	-0.04089	28.5	13111	100
2025-3-27 20:13:24.917	WT901BLE68-01(48591DE3C19B)	-0.001	-1.501	0.251	61.707	48.462	33.386	-76.53	25.07	0.86	-53.508	-54.096	83.202	-0.75348	0.63065	-0.18106	-0.04089	28.5	13111	100
2025-3-27 20:13:24.918	WT901BLE68-01(48591DE3C19B)	-0.001	-1.009	0.313	62.927	70.740	46.936	-76.23	25.65	0.07	-53.508	-54.096	83.202	-0.75348	0.63065	-0.18106	-0.04089	28.5	13111	100
2025-3-27 20:13:24.976	WT901BLE68-01(48591DE3C19B)	-0.195	-1.009	0.313	62.927	70.740	46.936	-75.93	26.22	-0.71	-53.508	-54.096	83.202	-0.75348	0.63065	-0.18106	-0.04089	28.5	13111	100
2025-3-27 20:13:24.976	WT901BLE68-01(48591DE3C19B)	-0.195	-0.608	0.315	47.058	65.063	34.546	-75.79	26.67	-1.47	-53.508	-54.096	83.202	-0.75348	0.63065	-0.18106	-0.04089	28.5	13111	100
2025-3-27 20:13:24.977	WT901BLE68-01(48591DE3C19B)	-0.335	-0.608	0.315	47.058	65.063	34.546	-75.64	27.11	-2.22	-53.508	-54.096	83.202	-0.75348	0.63065	-0.18106	-0.04089	28.5	13111	100
2025-3-27 20:13:24.977	WT901BLE68-01(48591DE3C19B)	-0.335	-0.451	0.209	30.762	52.673	26.611	-75.61	27.44	-2.86	-53.508	-54.096	83.202	-0.75348	0.63065	-0.18106	-0.04089	28.5	13111	100
2025-3-27 20:13:25.5	WT901BLE68-01(48591DE3C19B)	-0.355	-0.451	0.209	30.762	52.673	26.611	-75.57	27.77	-3.49	-53.508	-54.096	83.202	-0.75348	0.63065	-0.18106	-0.04089	28.5	13111	100
2025-3-27 20:13:25.5	WT901BLE68-01(48591DE3C19B)	-0.355	-0.424	0.130	20.081	64.148	26.184	-75.70	28.14	-4.25	-53.508	-54.096	83.202	-0.75348	0.63065	-0.18106	-0.04089	28.5	13111	100
2025-3-27 20:13:25.5	WT901BLE68-01(48591DE3C19B)	-0.369	-0.424	0.130	20.081	64.148	26.184	-75.83	28.50	-4.99	-53.508	-54.096	83.202	-0.75348	0.63065	-0.18106	-0.04089	28.5	13111	100
2025-3-27 20:13:25.5	WT901BLE68-01(48591DE3C19B)	-0.369	-0.336	0.090	20.020	77.576	24.475	-76.03	28.88	-5.89	-53.508	-54.096	83.202	-0.75348	0.63065	-0.18106	-0.04089	28.5	13111	100
2025-3-27 20:13:25.35	WT901BLE68-01(48591DE3C19B)	-0.487	-0.336	0.090	20.020	77.576	24.475	-76.24	29.26	-6.78	-53.508	-54.096	83.202	-0.75348	0.63065	-0.18106	-0.04089	28.5	13111	100
2025-3-27 20:13:25.35	WT901BLE68-01(48591DE3C19B)	-0.487	-0.226	0.123	14.954	52.429	30.396	-76.35	29.65	-7.36	-53.508	-54.096	83.202	-0.75348	0.63065	-0.18106	-0.04089	28.5	13111	100
2025-3-27 20:13:25.35	WT901BLE68-01(48591DE3C19B)	-0.475	-0.226	0.123	14.954	52.429	30.396	-76.46	30.05	-7.93	-53.508	-54.096	83.202	-0.75348	0.63065	-0.18106	-0.04089	28.5	13111	100
2025-3-27 20:13:25.36	WT901BLE68-01(48591DE3C19B)	-0.475	-0.232	0.144	0.977	-4.333	43.091	-76.38	30.45	-7.81	-53.508	-54.096	83.202	-0.75348	0.63065	-0.18106	-0.04089	28.5	13111	100
2025-3-27 20:13:25.98	WT901BLE68-01(48591DE3C19B)	-0.417	-0.232	0.144	0.977	-4.333	43.091	-76.28	30.86	-7.67	-53.508	-54.096	83.202	-0.75348	0.63065	-0.18106	-0.04089	28.5	13111	100
2025-3-27 20:13:25.98	WT901BLE68-01(48591DE3C19B)	-0.417	-0.313	0.158	-5.310	-51.941	55.481	-75.95	31.28	-6.95	-53.508	-54.096	83.202	-0.75348	0.63065	-0.18106	-0.04089	28.5	13111	100
2025-3-27 20:13:25.98	WT901BLE68-01(48591DE3C19B)	-0.450	-0.313	0.158	-5.310	-51.941	55.481	-75.61	31.70	-6.22	-53.508	-54.096	83.202	-0.75348	0.63065	-0.18106	-0.04089	28.5	13111	100
2025-3-27 20:13:25.98	WT901BLE68-01(48591DE3C19B)	-0.450	-0.371	0.150	-5.737	-98.999	69.580	-74.95	32.14	-4.91	-53.508	-54.096	83.202	-0.75348	0.63065	-0.18106	-0.04089	28.5	13111	100
2025-3-27 20:13:25.127	WT901BLE68-01(48591DE3C19B)	-0.374	-0.371	0.150	-5.737	-98.999	69.580	-74.28	32.57	-3.57	-53.508	-54.096	83.202	-0.75348	0.63065	-0.18106	-0.04089	28.5	13111	100
2025-3-27 20:13:25.127	WT901BLE68-01(48591DE3C19B)	-0.374	-0.457	0.096	-19.653	-135.620	82.397	-73.50	33.00	-1.76	-53.508	-54.096	83.202	-0.75348	0.63065	-0.18106	-0.04089	28.5	13111	100
2025-3-27 20:13:25.127	WT901BLE68-01(48591DE3C19B)	-0.217	-0.457	0.096	-19.653	-135.620	82.397	-72.70	33.42	0.04	-53.508	-54.096	83.202	-0.75348	0.63065	-0.18106	-0.04089	28.5	13111	100
2025-3-27 20:13:25.127	WT901BLE68-01(48591DE3C19B)	-0.217	-0.755	0.026	-34.241	-142.395	86.853	-71.98	33.82	1.93	-53.508	-54.096	83.202	-0.77087	0.56528	-0.22308	-0.19052	28.5	13111	100
2025-3-27 20:13:25.157	WT901BLE68-01(48591DE3C19B)	-0.067	-0.755	0.026	-34.241	-142.395	86.853	-71.26	34.19	3.81	-53.508	-54.096	83.202	-0.77087	0.56528	-0.22308	-0.19052	28.5	13111	100
2025-3-27 20:13:25.157	WT901BLE68-01(48591DE3C19B)	-0.067	-1.228	0.004	-41.321	-115.540	68.420	-70.84	34.44	5.27	-53.508	-54.096	83.202	-0.77087	0.56528	-0.22308	-0.19052	28.5	13111	100
2025-3-27 20:13:25.157	WT901BLE68-01(48591DE3C19B)	-0.139	-1.228	0.004	-41.321	-115.540	68.420	-70.43	34.66	6.71	-53.508	-54.096	83.202	-0.77087	0.56528	-0.22308	-0.19052	28.5	13111	100
2025-3-27 20:13:25.157	WT901BLE68-01(48591DE3C19B)	-0.139	-2.271	0.098	-40.039	-67.688	10.254	-70.47	34.47	7.32	-53.508	-54.096	83.202	-0.77087	0.56528	-0.22308	-0.19052	28.5	13111	100
2025-3-27 20:13:25.216	WT901BLE68-01(48591DE3C19B)	-0.399	-2.271	0.098	-40.039	-67.688	10.254	-70.53	34.26	7.89	-53.508	-54.096	83.202	-0.77087	0.56528	-0.22308	-0.19052	28.5	13111	100
2025-3-27 20:13:25.216	WT901BLE68-01(48591DE3C19B)	-0.399	-3.511	0.158	-11.658	-19.958	-27.283	-70.71	33.85	7.76	-53.508	-54.096	83.202	-0.77087	0.56528	-0.22308	-0.19052	28.5	13111	100
2025-3-27 20:13:25.216	WT901BLE68-01(48591DE3C19B)	-0.892	-3.511	0.158	-11.658	-19.958	-27.283	-70.91	33.43	7.62	-53.508	-54.096	83.202	-0.77087	0.56528	-0.22308	-0.19052	28.5	13111	100
2025-3-27 20:13:25.216	WT901BLE68-01(48591DE3C19B)	-0.892	-2.228	0.646	44.983	26.001	-66.772	-70.89	32.79	6.82	-53.508	-54.096	83.202	-0.77087	0.56528	-0.22308	-0.19052	28.5	13111	100
2025-3-27 20:13:25.244	WT901BLE68-01(48591DE3C19B)	-0.641	-2.228	0.646	44.983	26.001	-66.772	-70.85	32.16	6.04	-53.508	-54.096	83.202	-0.77087	0.56528	-0.22308	-0.19052	28.5	13111	100
2025-3-27 20:13:25.245	WT901BLE68-01(48591DE3C19B)	-0.547	-1.393	0.843	26.794	96.802	-59.814	-71.37	31.83	4.51	-53.508	-54.096	83.202	-0.77087	0.56528	-0.22308	-0.19052	28.5	13111	100
2025-3-27 20:13:25.245	WT901BLE68-01(48591DE3C19B)	-0.547	-1.014	0.907	37.354	180.908	-24.719	-72.02	31.78	2.60	-53.508	-54.096	83.202	-0.77087	0.56528	-0.22308	-0.19052	28.5	13111	100
2025-3-27 20:13:25.245	WT901BLE68-01(48591DE3C19B)	-0.765	-1.014	0.907	37.354	180.908	-24.719	-72.81	32.01	0.30	-53.508	-54.096	83.202	-0.77087	0.56528	-0.22308	-0.19052	28.5	13111	100
2025-3-27 20:13:25.276	WT901BLE68-01(48591DE3C19B)	-0.765	-0.546	0.733	40.771	169.617	2.258	-73.52	32.32	-1.89	-53.508	-54.096	83.202	-0.77087	0.56528	-0.22308	-0.19052	28.5	13111	100
2025-3-27 20:13:25.276	WT901BLE68-01(48591DE3C19B)	-0.702	-0.546	0.733	40.771	169.617	2.258	-74.15	32.73	-3.96	-53.508	-54.096	83.202	-0.77087	0.56528	-0.22308	-0.19052	28.5	13111	100
2025-3-27 20:13:25.277	WT901BLE68-01(48591DE3C19B)	-0.702	-0.446	0.544	-21.423	40.588	13.855	-74.68	33.02	-5.27	-53.508	-54.096	83.202	-0.77087	0.56528	-0.22308	-0.19052	28.5	13111	100
2025-3-27 20:13:25.277	WT901BLE68-01(48591DE3C19B)	-0.471	-0.446	0.544	-21.423	40.588	13.855	-75.10	33.20	-5.80	-53.508	-54.096	83.202	-0.77087	0.56528	-0.22308	-0.19052	28.5	13111	100
2025-3-27 20:13:25.365	WT901BLE68-01(48591DE3C19B)	-0.471	-0.847	0.338	-55.054	-53.223	21.362	-75.37	33.29	-5.77	-53.508	-54.096	83.202	-0.77087	0.56528	-0.22308	-0.19052	28.5	13111	100
2025-3-27 20:13:25.366	WT901BLE68-01(48591DE3C19B)	-0.448	-0.847	0.338	-55.054	-53.223	21.362	-75.50	33.31	-5.20	-53.508	-54.096	83.202	-0.77087	0.56528	-0.22308	-0.19052	28.5	13111	100
2025-3-27 20:13:25.366	WT901BLE68-01(48591DE3C19B)	-0.448	-1.062	0.167	-33.081	-74.036	21.667	-75.46	33.29	-4.50	-53.508	-54.096	83.202	-0.77087	0.56528	-0.22308	-0.19052	28.5	13111	100
2025-3-27 20:13:25.366	WT901BLE68-01(48591DE3C19B)	-0.337	-1.062	0.167	-33.081	-74.036	21.667	-75.25	33.26	-3.69	-53.508	-54.096	83.202	-0.77087	0.56528	-0.22308	-0.19052	28.5	13111	100
2025-3-27 20:13:25.366	WT901BLE68-01(48591DE3C19B)	-0.337	-0.905	0.121	-4.578	-60.547	15.259	-74.96	33.21	-2.97	-63.112	-52.038	85.358	-0.77087	0.56528	-0.22308	-0.19052	28.5	13111	100
2025-3-27 20:13:25.366	WT901BLE68-01(48591DE3C19B)	-0.190	-0.905	0.121	-4.578	-60.547	15.259	-74.58	33.13	-2.35	-63.112	-52.038	85.358	-0.77087	0.56528	-0.22308	-0.19052	28.5	13111	100
2025-3-27 20:13:25.366	WT901BLE68-01(48591DE3C19B)	-0.190	-0.752	0.113	5.005	-22.156	11.597	-74.29	33.10	-1.96	-63.112	-52.038	85.358	-0.77087	0.56528	-0.22308	-0.19052	28.5	13111	100
2025-3-27 20:13:25.366	WT901BLE68-01(48591DE3C19B)	-0.217	-0.752	0.113	5.005	-22.156	11.597	-74.09	33.09	-1.80	-63.112	-52.038	85.358	-0.77087	0.56528	-0.22308	-0.19052	28.5	13111	100
2025-3-27 20:13:25.426	WT901BLE68-01(48591DE3C19B)	-0.217	-0.641	0.138	14.404	16.541	9.766	-73.96	33.12	-1.87	-63.112	-52.038	85.358	-0.77087	0.56528	-0.22308	-0.19052	28.5	13111	100
2025-3-27 20:13:25.426	WT901BLE68-01(48591DE3C19B)	-0.286	-0.641	0.138	14.404	16.541	9.766	-73.91	33.20	-2.16	-63.112	-52.038	85.358	-0.77087	0.56528	-0.22308	-0.19052	28.5	13111	100
2025-3-27 20:13:25.426	WT901BLE68-01(48591DE3C19B)	-0.286	-0.542	0.194	17.212	34.424	1.831	-73.92	33.26	-2.58	-63.112	-52.038	85.358	-0.77087	0.56528	-0.22308	-0.19052	28.5	13111	100
2025-3-27 20:13:25.426	WT901BLE68-01(48591DE3C19B)	-0.323	-0.542	0.194	17.212	34.424	1.831	-73.97	33.30	-3.10	-63.112	-52.038	85.358	-0.77087	0.56528	-0.22308	-0.19052	28.5	13111	100
2025-3-27 20:13:25.515	WT901BLE68-01(48591DE3C19B)	-0.323	-0.496	0.266	16.052	40.894	-6.409	-74.05	33.32	-3.66	-63.112	-52.038	85.358	-0.77087	0.56528	-0.22308	-0.19052	28.5	13111	100
2025-3-27 20:13:25.515	WT901BLE68-01(48591DE3C19B)	-0.454	-0.496	0.266	16.052	40.894	-6.409	-74.16	33.31	-4.28	-63.112	-52.038	85.358	-0.77087	0.56528	-0.22308	-0.19052	28.5	13111	100
2025-3-27 20:13:25.515	WT901BLE68-01(48591DE3C19B)	-0.454	-0.446	0.317	14.465	40.100	-13.245	-74.27	33.27	-4.89	-63.112	-52.038	85.358	-0.77087	0.56528	-0.22308	-0.19052	28.5	13111	100
2025-3-27 20:13:25.515	WT901BLE68-01(48591DE3C19B)	-0.641	-0.446	0.317	14.465	40.100	-13.245	-74.38	33.20	-5.49	-63.112	-52.038	85.358	-0.77087	0.56528	-0.22308	-0.19052	28.5	13111	100
2025-3-27 20:13:25.516	WT901BLE68-01(48591DE3C19B)	-0.641	-0.482	0.311	1.892	16.724	-18.677	-74.48	33.08	-5.95	-63.112	-52.038	85.358	-0.77087	0.56528	-0.22308	-0.19052	28.5	13111	100
2025-3-27 20:13:25.516	WT901BLE68-01(48591DE3C19B)	-0.639	-0.482	0.311	1.892	16.724	-18.677	-74.56	32.92	-6.26	-63.112	-52.038	85.358	-0.77087	0.56528	-0.22308	-0.19052	28.5	13111	100
2025-3-27 20:13:25.516	WT901BLE68-01(48591DE3C19B)	-0.639	-0.643	0.316	-7.874	-23.987	-22.400	-74.56	32.69	-6.33	-63.112	-52.038	85.358	-0.77087	0.56528	-0.22308	-0.19052	28.5	13111	100
2025-3-27 20:13:25.516	WT901BLE68-01(48591DE3C19B)	-0.560	-0.643	0.316	-7.874	-23.987	-22.400	-74.49	32.40	-6.16	-63.112	-52.038	85.358	-0.77087	0.56528	-0.22308	-0.19052	28.5	13111	100
2025-3-27 20:13:25.516	WT901BLE68-01(48591DE3C19B)	-0.560	-0.777	0.343	-6.470	-41.626	-24.353	-74.36	32.09	-5.88	-63.112	-52.038	85.358	-0.77087	0.56528	-0.22308	-0.19052	28.5	13111	100
2025-3-27 20:13:25.516	WT901BLE68-01(48591DE3C19B)	-0.515	-0.777	0.343	-6.470	-41.626	-24.353	-74.17	31.75	-5.52	-63.112	-52.038	85.358	-0.77087	0.56528	-0.22308	-0.19052	28.5	13111	100
2025-3-27 20:13:25.516	WT901BLE68-01(48591DE3C19B)	-0.515	-0.874	0.371	-2.014	-34.668	-28.992	-73.99	31.39	-5.20	-63.112	-52.038	85.358	-0.77087	0.56528	-0.22308	-0.19052	28.5	13111	100
2025-3-27 20:13:25.516	WT901BLE68-01(48591DE3C19B)	-0.510	-0.874	0.371	-2.014	-34.668	-28.992	-73.82	31.03	-4.93	-63.112	-52.038	85.358	-0.77087	0.56528	-0.22308	-0.19052	28.5	13111	100
2025-3-27 20:13:25.605	WT901BLE68-01(48591DE3C19B)	-0.510	-0.885	0.379	2.380	-17.090	-31.799	-73.67	30.66	-4.78	-63.112	-52.038	85.358	-0.77087	0.56528	-0.22308	-0.19052	28.5	13111	100
2025-3-27 20:13:25.605	WT901BLE68-01(48591DE3C19B)	-0.508	-0.885	0.379	2.380	-17.090	-31.799	-73.56	30.31	-4.74	-63.112	-52.038	85.358	-0.77881	0.56879	-0.23309	-0.12448	28.5	13111	100
2025-3-27 20:13:25.605	WT901BLE68-01(48591DE3C19B)	-0.508	-0.848	0.349	5.981	1.343	-27.161	-73.49	30.01	-4.78	-63.112	-52.038	85.358	-0.77881	0.56879	-0.23309	-0.12448	28.5	13111	100
2025-3-27 20:13:25.605	WT901BLE68-01(48591DE3C19B)	-0.537	-0.848	0.349	5.981	1.343	-27.161	-73.44	29.76	-4.93	-63.112	-52.038	85.358	-0.77881	0.56879	-0.23309	-0.12448	28.5	13111	100
2025-3-27 20:13:25.607	WT901BLE68-01(48591DE3C19B)	-0.537	-0.808	0.312	6.470	10.437	-24.902	-73.42	29.53	-5.13	-63.112	-52.038	85.358	-0.77881	0.56879	-0.23309	-0.12448	28.5	13111	100
2025-3-27 20:13:25.607	WT901BLE68-01(48591DE3C19B)	-0.580	-0.808	0.312	6.470	10.437	-24.902	-73.41	29.33	-5.36	-63.112	-52.038	85.358	-0.77881	0.56879	-0.23309	-0.12448	28.5	13111	100
2025-3-27 20:13:25.607	WT901BLE68-01(48591DE3C19B)	-0.580	-0.792	0.282	3.540	7.019	-24.292	-73.41	29.12	-5.58	-63.112	-52.038	85.358	-0.77881	0.56879	-0.23309	-0.12448	28.5	13111	100
2025-3-27 20:13:25.607	WT901BLE68-01(48591DE3C19B)	-0.583	-0.792	0.282	3.540	7.019	-24.292	-73.42	28.93	-5.77	-63.112	-52.038	85.358	-0.77881	0.56879	-0.23309	-0.12448	28.5	13111	100
2025-3-27 20:13:25.637	WT901BLE68-01(48591DE3C19B)	-0.583	-0.790	0.247	-1.770	-4.761	-20.569	-73.42	28.73	-5.88	-63.112	-52.038	85.358	-0.77881	0.56879	-0.23309	-0.12448	28.5	13111	100
2025-3-27 20:13:25.638	WT901BLE68-01(48591DE3C19B)	-0.547	-0.790	0.247	-1.770	-4.761	-20.569	-73.41	28.54	-5.92	-63.112	-52.038	85.358	-0.77881	0.56879	-0.23309	-0.12448	28.5	13111	100
2025-3-27 20:13:25.638	WT901BLE68-01(48591DE3C19B)	-0.547	-0.804	0.215	-6.653	-16.602	-16.418	-73.40	28.36	-5.89	-63.112	-52.038	85.358	-0.77881	0.56879	-0.23309	-0.12448	28.5	13111	100
2025-3-27 20:13:25.638	WT901BLE68-01(48591DE3C19B)	-0.499	-0.804	0.215	-6.653	-16.602	-16.418	-73.38	28.17	-5.78	-63.112	-52.038	85.358	-0.77881	0.56879	-0.23309	-0.12448	28.5	13111	100
2025-3-27 20:13:25.697	WT901BLE68-01(48591DE3C19B)	-0.499	-0.816	0.207	-9.033	-23.682	-11.536	-73.36	28.01	-5.64	-63.112	-52.038	85.358	-0.77881	0.56879	-0.23309	-0.12448	28.5	13111	100
2025-3-27 20:13:25.697	WT901BLE68-01(48591DE3C19B)	-0.448	-0.816	0.207	-9.033	-23.682	-11.536	-73.33	27.86	-5.44	-63.112	-52.038	85.358	-0.77881	0.56879	-0.23309	-0.12448	28.5	13111	100
2025-3-27 20:13:25.697	WT901BLE68-01(48591DE3C19B)	-0.448	-0.815	0.222	-9.033	-23.438	-7.263	-73.30	27.72	-5.25	-63.112	-52.038	85.358	-0.77881	0.56879	-0.23309	-0.12448	28.5	13111	100
2025-3-27 20:13:25.697	WT901BLE68-01(48591DE3C19B)	-0.438	-0.815	0.222	-9.033	-23.438	-7.263	-73.27	27.61	-5.05	-63.112	-52.038	85.358	-0.77881	0.56879	-0.23309	-0.12448	28.5	13111	100
