time	DeviceName	AccX(g)	AccY(g)	AccZ(g)	AsX(°/s)	AsY(°/s)	AsZ(°/s)	AngleX(°)	AngleY(°)	AngleZ(°)	HX(uT)	HY(uT)	HZ(uT)	Q0()	Q1()	Q2()	Q3()	Temperature(°C)	Version()	Battery level(%)
2025-3-27 20:36:52.953	WT901BLE68-01(48591DE3C19B)	-0.374	-0.891	0.207	-4.639	-3.784	-1.465	-79.78	22.39	-95.00	-30.968	-11.270	-9.310	-0.60516	0.31531	-0.56219	0.46707	30.6	13111	100
2025-3-27 20:36:52.953	WT901BLE68-01(48591DE3C19B)	-0.385	-0.891	0.207	-4.639	-3.784	-1.465	-79.80	22.37	-95.07	-30.968	-11.270	-9.310	-0.60516	0.31531	-0.56219	0.46707	30.6	13111	100
2025-3-27 20:36:52.953	WT901BLE68-01(48591DE3C19B)	-0.385	-0.931	0.202	-3.052	-1.831	-1.465	-79.81	22.35	-95.16	-30.968	-11.270	-9.310	-0.60516	0.31531	-0.56219	0.46707	30.6	13111	100
2025-3-27 20:36:52.953	WT901BLE68-01(48591DE3C19B)	-0.385	-0.958	0.193	-0.671	1.404	-1.709	-79.82	22.33	-95.27	-30.968	-11.270	-9.310	-0.60516	0.31531	-0.56219	0.46707	30.6	13111	100
2025-3-27 20:36:52.982	WT901BLE68-01(48591DE3C19B)	-0.387	-0.958	0.193	-0.671	1.404	-1.709	-79.82	22.31	-95.40	-30.968	-11.270	-9.310	-0.60516	0.31531	-0.56219	0.46707	30.6	13111	100
2025-3-27 20:36:52.982	WT901BLE68-01(48591DE3C19B)	-0.387	-0.956	0.186	1.343	4.272	-1.526	-79.81	22.30	-95.54	-30.968	-11.270	-9.310	-0.60516	0.31531	-0.56219	0.46707	30.6	13111	100
2025-3-27 20:36:52.982	WT901BLE68-01(48591DE3C19B)	-0.386	-0.956	0.186	1.343	4.272	-1.526	-79.80	22.29	-95.69	-30.968	-11.270	-9.310	-0.60516	0.31531	-0.56219	0.46707	30.6	13111	100
2025-3-27 20:36:52.982	WT901BLE68-01(48591DE3C19B)	-0.386	-0.925	0.185	1.526	5.188	-1.465	-79.80	22.28	-95.85	-30.968	-11.270	-9.310	-0.60516	0.31531	-0.56219	0.46707	30.6	13111	100
2025-3-27 20:36:53.12	WT901BLE68-01(48591DE3C19B)	-0.389	-0.925	0.185	1.526	5.188	-1.465	-79.79	22.27	-96.01	-30.968	-11.270	-9.310	-0.60516	0.31531	-0.56219	0.46707	30.6	13111	100
2025-3-27 20:36:53.12	WT901BLE68-01(48591DE3C19B)	-0.389	-0.888	0.188	0.549	4.333	-1.587	-79.79	22.26	-96.16	-30.968	-11.270	-9.310	-0.60516	0.31531	-0.56219	0.46707	30.6	13111	100
2025-3-27 20:36:53.12	WT901BLE68-01(48591DE3C19B)	-0.394	-0.888	0.188	0.549	4.333	-1.587	-79.80	22.25	-96.32	-30.870	-9.604	-9.212	-0.60516	0.31531	-0.56219	0.46707	30.6	13111	100
2025-3-27 20:36:53.12	WT901BLE68-01(48591DE3C19B)	-0.394	-0.866	0.188	-1.831	0.977	-2.075	-79.80	22.24	-96.45	-30.870	-9.604	-9.212	-0.60516	0.31531	-0.56219	0.46707	30.6	13111	100
2025-3-27 20:36:53.72	WT901BLE68-01(48591DE3C19B)	-0.404	-0.866	0.188	-1.831	0.977	-2.075	-79.82	22.22	-96.56	-30.870	-9.604	-9.212	-0.60516	0.31531	-0.56219	0.46707	30.6	13111	100
2025-3-27 20:36:53.72	WT901BLE68-01(48591DE3C19B)	-0.404	-0.876	0.174	-3.906	-5.432	-2.808	-79.83	22.19	-96.65	-30.870	-9.604	-9.212	-0.60516	0.31531	-0.56219	0.46707	30.6	13111	100
2025-3-27 20:36:53.72	WT901BLE68-01(48591DE3C19B)	-0.414	-0.876	0.174	-3.906	-5.432	-2.808	-79.84	22.16	-96.69	-30.870	-9.604	-9.212	-0.60516	0.31531	-0.56219	0.46707	30.6	13111	100
2025-3-27 20:36:53.72	WT901BLE68-01(48591DE3C19B)	-0.414	-0.899	0.161	-4.211	-12.146	-3.540	-79.83	22.12	-96.70	-30.870	-9.604	-9.212	-0.60516	0.31531	-0.56219	0.46707	30.6	13111	100
2025-3-27 20:36:53.99	WT901BLE68-01(48591DE3C19B)	-0.408	-0.899	0.161	-4.211	-12.146	-3.540	-79.82	22.06	-96.68	-30.870	-9.604	-9.212	-0.60516	0.31531	-0.56219	0.46707	30.6	13111	100
2025-3-27 20:36:53.99	WT901BLE68-01(48591DE3C19B)	-0.408	-0.930	0.157	-3.418	-16.907	-3.845	-79.79	22.01	-96.63	-30.870	-9.604	-9.212	-0.60516	0.31531	-0.56219	0.46707	30.6	13111	100
2025-3-27 20:36:53.99	WT901BLE68-01(48591DE3C19B)	-0.383	-0.930	0.157	-3.418	-16.907	-3.845	-79.76	21.95	-96.56	-30.870	-9.604	-9.212	-0.60516	0.31531	-0.56219	0.46707	30.6	13111	100
2025-3-27 20:36:53.99	WT901BLE68-01(48591DE3C19B)	-0.383	-0.939	0.157	-1.404	-16.174	-3.418	-79.71	21.88	-96.49	-30.870	-9.604	-9.212	-0.60516	0.31531	-0.56219	0.46707	30.6	13111	100
2025-3-27 20:36:53.130	WT901BLE68-01(48591DE3C19B)	-0.370	-0.939	0.157	-1.404	-16.174	-3.418	-79.66	21.83	-96.43	-30.870	-9.604	-9.212	-0.60516	0.31531	-0.56219	0.46707	30.6	13111	100
2025-3-27 20:36:53.130	WT901BLE68-01(48591DE3C19B)	-0.370	-0.937	0.153	0.122	-10.193	-2.563	-79.61	21.79	-96.39	-30.870	-9.604	-9.212	-0.60516	0.31531	-0.56219	0.46707	30.6	13111	100
2025-3-27 20:36:53.130	WT901BLE68-01(48591DE3C19B)	-0.373	-0.937	0.153	0.122	-10.193	-2.563	-79.57	21.75	-96.39	-30.870	-9.604	-9.212	-0.60516	0.31531	-0.56219	0.46707	30.6	13111	100
2025-3-27 20:36:53.131	WT901BLE68-01(48591DE3C19B)	-0.373	-0.929	0.148	1.343	-3.296	-1.465	-79.54	21.72	-96.42	-30.870	-9.604	-9.212	-0.60516	0.31531	-0.56219	0.46707	30.6	13111	100
2025-3-27 20:36:53.191	WT901BLE68-01(48591DE3C19B)	-0.388	-0.929	0.148	1.343	-3.296	-1.465	-79.51	21.70	-96.49	-30.870	-9.604	-9.212	-0.60516	0.31531	-0.56219	0.46707	30.6	13111	100
2025-3-27 20:36:53.191	WT901BLE68-01(48591DE3C19B)	-0.388	-0.913	0.142	1.160	-0.183	-0.488	-79.49	21.70	-96.56	-30.870	-9.604	-9.212	-0.60516	0.31531	-0.56219	0.46707	30.6	13111	100
2025-3-27 20:36:53.191	WT901BLE68-01(48591DE3C19B)	-0.404	-0.913	0.142	1.160	-0.183	-0.488	-79.48	21.70	-96.66	-30.870	-9.604	-9.212	-0.60516	0.31531	-0.56219	0.46707	30.6	13111	100
2025-3-27 20:36:53.191	WT901BLE68-01(48591DE3C19B)	-0.404	-0.900	0.136	0.000	-1.648	0.122	-79.48	21.70	-96.75	-30.870	-9.604	-9.212	-0.60516	0.31531	-0.56219	0.46707	30.6	13111	100
2025-3-27 20:36:53.221	WT901BLE68-01(48591DE3C19B)	-0.401	-0.900	0.136	0.000	-1.648	0.122	-79.47	21.70	-96.83	-30.870	-9.604	-9.212	-0.59109	0.30817	-0.56577	0.48517	30.6	13111	100
2025-3-27 20:36:53.222	WT901BLE68-01(48591DE3C19B)	-0.401	-0.880	0.130	-1.526	-5.920	0.427	-79.47	21.70	-96.88	-30.870	-9.604	-9.212	-0.59109	0.30817	-0.56577	0.48517	30.6	13111	100
2025-3-27 20:36:53.222	WT901BLE68-01(48591DE3C19B)	-0.393	-0.880	0.130	-1.526	-5.920	0.427	-79.46	21.71	-96.92	-30.870	-9.604	-9.212	-0.59109	0.30817	-0.56577	0.48517	30.6	13111	100
2025-3-27 20:36:53.222	WT901BLE68-01(48591DE3C19B)	-0.393	-0.864	0.127	-3.479	-10.315	0.549	-79.46	21.71	-96.92	-30.870	-9.604	-9.212	-0.59109	0.30817	-0.56577	0.48517	30.6	13111	100
2025-3-27 20:36:53.250	WT901BLE68-01(48591DE3C19B)	-0.385	-0.864	0.127	-3.479	-10.315	0.549	-79.46	21.70	-96.91	-30.870	-9.604	-9.212	-0.59109	0.30817	-0.56577	0.48517	30.6	13111	100
2025-3-27 20:36:53.251	WT901BLE68-01(48591DE3C19B)	-0.385	-0.865	0.132	-5.432	-13.977	0.244	-79.46	21.69	-96.87	-30.870	-9.604	-9.212	-0.59109	0.30817	-0.56577	0.48517	30.6	13111	100
2025-3-27 20:36:53.251	WT901BLE68-01(48591DE3C19B)	-0.379	-0.865	0.132	-5.432	-13.977	0.244	-79.47	21.68	-96.82	-30.870	-9.604	-9.212	-0.59109	0.30817	-0.56577	0.48517	30.6	13111	100
2025-3-27 20:36:53.251	WT901BLE68-01(48591DE3C19B)	-0.379	-0.871	0.138	-6.653	-15.747	-0.183	-79.48	21.67	-96.76	-30.870	-9.604	-9.212	-0.59109	0.30817	-0.56577	0.48517	30.6	13111	100
2025-3-27 20:36:53.310	WT901BLE68-01(48591DE3C19B)	-0.374	-0.871	0.138	-6.653	-15.747	-0.183	-79.49	21.65	-96.69	-30.870	-9.604	-9.212	-0.59109	0.30817	-0.56577	0.48517	30.6	13111	100
2025-3-27 20:36:53.311	WT901BLE68-01(48591DE3C19B)	-0.374	-0.873	0.141	-7.141	-16.357	-1.160	-79.50	21.62	-96.61	-30.870	-9.604	-9.212	-0.59109	0.30817	-0.56577	0.48517	30.6	13111	100
2025-3-27 20:36:53.311	WT901BLE68-01(48591DE3C19B)	-0.376	-0.873	0.141	-7.141	-16.357	-1.160	-79.52	21.59	-96.54	-30.870	-9.604	-9.212	-0.59109	0.30817	-0.56577	0.48517	30.6	13111	100
2025-3-27 20:36:53.311	WT901BLE68-01(48591DE3C19B)	-0.376	-0.879	0.144	-7.385	-16.541	-2.380	-79.53	21.56	-96.47	-30.870	-9.604	-9.212	-0.59109	0.30817	-0.56577	0.48517	30.6	13111	100
2025-3-27 20:36:53.342	WT901BLE68-01(48591DE3C19B)	-0.379	-0.879	0.144	-7.385	-16.541	-2.380	-79.55	21.52	-96.39	-30.870	-9.604	-9.212	-0.59109	0.30817	-0.56577	0.48517	30.6	13111	100
2025-3-27 20:36:53.342	WT901BLE68-01(48591DE3C19B)	-0.379	-0.893	0.150	-7.141	-16.724	-3.296	-79.57	21.47	-96.32	-30.870	-9.604	-9.212	-0.59109	0.30817	-0.56577	0.48517	30.6	13111	100
2025-3-27 20:36:53.342	WT901BLE68-01(48591DE3C19B)	-0.373	-0.893	0.150	-7.141	-16.724	-3.296	-79.58	21.42	-96.25	-30.870	-9.604	-9.212	-0.59109	0.30817	-0.56577	0.48517	30.6	13111	100
2025-3-27 20:36:53.342	WT901BLE68-01(48591DE3C19B)	-0.373	-0.902	0.152	-5.798	-15.930	-3.601	-79.59	21.36	-96.18	-30.870	-9.604	-9.212	-0.59109	0.30817	-0.56577	0.48517	30.6	13111	100
2025-3-27 20:36:53.371	WT901BLE68-01(48591DE3C19B)	-0.366	-0.902	0.152	-5.798	-15.930	-3.601	-79.60	21.31	-96.11	-30.870	-9.604	-9.212	-0.59109	0.30817	-0.56577	0.48517	30.6	13111	100
2025-3-27 20:36:53.372	WT901BLE68-01(48591DE3C19B)	-0.366	-0.896	0.151	-4.333	-13.184	-3.662	-79.60	21.26	-96.06	-30.870	-9.604	-9.212	-0.59109	0.30817	-0.56577	0.48517	30.6	13111	100
2025-3-27 20:36:53.372	WT901BLE68-01(48591DE3C19B)	-0.363	-0.896	0.151	-4.333	-13.184	-3.662	-79.60	21.21	-96.03	-30.870	-9.604	-9.212	-0.59109	0.30817	-0.56577	0.48517	30.6	13111	100
2025-3-27 20:36:53.372	WT901BLE68-01(48591DE3C19B)	-0.363	-0.892	0.152	-3.235	-9.949	-3.662	-79.60	21.16	-96.00	-30.870	-9.604	-9.212	-0.59109	0.30817	-0.56577	0.48517	30.6	13111	100
2025-3-27 20:36:53.431	WT901BLE68-01(48591DE3C19B)	-0.366	-0.892	0.152	-3.235	-9.949	-3.662	-79.60	21.12	-96.00	-30.870	-9.604	-9.212	-0.59109	0.30817	-0.56577	0.48517	30.6	13111	100
2025-3-27 20:36:53.431	WT901BLE68-01(48591DE3C19B)	-0.366	-0.889	0.154	-2.380	-7.446	-3.540	-79.60	21.08	-96.03	-33.810	-8.722	-10.094	-0.59109	0.30817	-0.56577	0.48517	30.6	13111	100
2025-3-27 20:36:53.431	WT901BLE68-01(48591DE3C19B)	-0.372	-0.889	0.154	-2.380	-7.446	-3.540	-79.60	21.04	-96.05	-33.810	-8.722	-10.094	-0.59109	0.30817	-0.56577	0.48517	30.6	13111	100
2025-3-27 20:36:53.431	WT901BLE68-01(48591DE3C19B)	-0.372	-0.882	0.154	-1.770	-6.592	-3.357	-79.60	21.01	-96.08	-33.810	-8.722	-10.094	-0.59109	0.30817	-0.56577	0.48517	30.6	13111	100
2025-3-27 20:36:53.459	WT901BLE68-01(48591DE3C19B)	-0.372	-0.882	0.154	-1.770	-6.592	-3.357	-79.60	20.97	-96.11	-33.810	-8.722	-10.094	-0.59109	0.30817	-0.56577	0.48517	30.6	13111	100
2025-3-27 20:36:53.459	WT901BLE68-01(48591DE3C19B)	-0.372	-0.861	0.155	-1.526	-7.263	-3.235	-79.60	20.93	-96.13	-33.810	-8.722	-10.094	-0.59109	0.30817	-0.56577	0.48517	30.6	13111	100
2025-3-27 20:36:53.459	WT901BLE68-01(48591DE3C19B)	-0.373	-0.861	0.155	-1.526	-7.263	-3.235	-79.58	20.90	-96.15	-33.810	-8.722	-10.094	-0.59109	0.30817	-0.56577	0.48517	30.6	13111	100
2025-3-27 20:36:53.459	WT901BLE68-01(48591DE3C19B)	-0.373	-0.850	0.154	-1.953	-9.033	-3.357	-79.58	20.86	-96.15	-33.810	-8.722	-10.094	-0.59109	0.30817	-0.56577	0.48517	30.6	13111	100
2025-3-27 20:36:53.490	WT901BLE68-01(48591DE3C19B)	-0.374	-0.850	0.154	-1.953	-9.033	-3.357	-79.57	20.82	-96.16	-33.810	-8.722	-10.094	-0.59109	0.30817	-0.56577	0.48517	30.6	13111	100
2025-3-27 20:36:53.491	WT901BLE68-01(48591DE3C19B)	-0.374	-0.855	0.152	-2.136	-10.986	-3.601	-79.55	20.78	-96.14	-33.810	-8.722	-10.094	-0.59109	0.30817	-0.56577	0.48517	30.6	13111	100
2025-3-27 20:36:53.491	WT901BLE68-01(48591DE3C19B)	-0.374	-0.855	0.152	-2.136	-10.986	-3.601	-79.54	20.74	-96.12	-33.810	-8.722	-10.094	-0.59109	0.30817	-0.56577	0.48517	30.6	13111	100
2025-3-27 20:36:53.491	WT901BLE68-01(48591DE3C19B)	-0.374	-0.866	0.149	-1.587	-13.306	-3.784	-79.51	20.69	-96.09	-33.810	-8.722	-10.094	-0.59109	0.30817	-0.56577	0.48517	30.6	13111	100
2025-3-27 20:36:53.550	WT901BLE68-01(48591DE3C19B)	-0.375	-0.866	0.149	-1.587	-13.306	-3.784	-79.48	20.64	-96.04	-33.810	-8.722	-10.094	-0.59109	0.30817	-0.56577	0.48517	30.6	13111	100
2025-3-27 20:36:53.550	WT901BLE68-01(48591DE3C19B)	-0.375	-0.872	0.151	-0.305	-15.320	-3.784	-79.43	20.59	-95.98	-33.810	-8.722	-10.094	-0.59109	0.30817	-0.56577	0.48517	30.6	13111	100
2025-3-27 20:36:53.550	WT901BLE68-01(48591DE3C19B)	-0.369	-0.872	0.151	-0.305	-15.320	-3.784	-79.38	20.54	-95.92	-33.810	-8.722	-10.094	-0.59109	0.30817	-0.56577	0.48517	30.6	13111	100
2025-3-27 20:36:53.551	WT901BLE68-01(48591DE3C19B)	-0.369	-0.869	0.155	0.977	-16.785	-3.113	-79.32	20.49	-95.84	-33.810	-8.722	-10.094	-0.59109	0.30817	-0.56577	0.48517	30.6	13111	100
2025-3-27 20:36:53.581	WT901BLE68-01(48591DE3C19B)	-0.357	-0.869	0.155	0.977	-16.785	-3.113	-79.25	20.45	-95.76	-33.810	-8.722	-10.094	-0.59109	0.30817	-0.56577	0.48517	30.6	13111	100
2025-3-27 20:36:53.582	WT901BLE68-01(48591DE3C19B)	-0.357	-0.872	0.153	2.563	-15.259	-2.380	-79.17	20.41	-95.70	-33.810	-8.722	-10.094	-0.59109	0.30817	-0.56577	0.48517	30.6	13111	100
2025-3-27 20:36:53.582	WT901BLE68-01(48591DE3C19B)	-0.329	-0.872	0.153	2.563	-15.259	-2.380	-79.10	20.37	-95.64	-33.810	-8.722	-10.094	-0.59109	0.30817	-0.56577	0.48517	30.6	13111	100
2025-3-27 20:36:53.582	WT901BLE68-01(48591DE3C19B)	-0.329	-0.851	0.149	4.883	-9.705	-0.977	-79.02	20.36	-95.63	-33.810	-8.722	-10.094	-0.59109	0.30817	-0.56577	0.48517	30.6	13111	100
2025-3-27 20:36:53.640	WT901BLE68-01(48591DE3C19B)	-0.306	-0.851	0.149	4.883	-9.705	-0.977	-78.94	20.35	-95.63	-33.810	-8.722	-10.094	-0.59109	0.30817	-0.56577	0.48517	30.6	13111	100
2025-3-27 20:36:53.640	WT901BLE68-01(48591DE3C19B)	-0.306	-0.822	0.146	6.653	-0.916	0.183	-78.88	20.36	-95.71	-33.810	-8.722	-10.094	-0.59109	0.30817	-0.56577	0.48517	30.6	13111	100
2025-3-27 20:36:53.640	WT901BLE68-01(48591DE3C19B)	-0.296	-0.822	0.146	6.653	-0.916	0.183	-78.81	20.37	-95.79	-33.810	-8.722	-10.094	-0.59314	0.31754	-0.55515	0.48892	30.6	13111	100
2025-3-27 20:36:53.640	WT901BLE68-01(48591DE3C19B)	-0.296	-0.783	0.141	8.118	7.385	0.854	-78.76	20.40	-95.95	-33.810	-8.722	-10.094	-0.59314	0.31754	-0.55515	0.48892	30.6	13111	100
2025-3-27 20:36:53.671	WT901BLE68-01(48591DE3C19B)	-0.320	-0.783	0.141	8.118	7.385	0.854	-78.71	20.43	-96.12	-33.810	-8.722	-10.094	-0.59314	0.31754	-0.55515	0.48892	30.6	13111	100
2025-3-27 20:36:53.671	WT901BLE68-01(48591DE3C19B)	-0.320	-0.772	0.140	7.996	12.085	0.305	-78.68	20.47	-96.33	-33.810	-8.722	-10.094	-0.59314	0.31754	-0.55515	0.48892	30.6	13111	100
2025-3-27 20:36:53.671	WT901BLE68-01(48591DE3C19B)	-0.351	-0.772	0.140	7.996	12.085	0.305	-78.66	20.50	-96.55	-33.810	-8.722	-10.094	-0.59314	0.31754	-0.55515	0.48892	30.6	13111	100
2025-3-27 20:36:53.671	WT901BLE68-01(48591DE3C19B)	-0.351	-0.788	0.146	8.362	10.620	-0.732	-78.62	20.53	-96.75	-33.810	-8.722	-10.094	-0.59314	0.31754	-0.55515	0.48892	30.6	13111	100
2025-3-27 20:36:53.700	WT901BLE68-01(48591DE3C19B)	-0.357	-0.788	0.146	8.362	10.620	-0.732	-78.58	20.55	-96.94	-33.810	-8.722	-10.094	-0.59314	0.31754	-0.55515	0.48892	30.6	13111	100
2025-3-27 20:36:53.700	WT901BLE68-01(48591DE3C19B)	-0.357	-0.787	0.146	9.277	5.981	-1.526	-78.51	20.56	-97.09	-33.810	-8.722	-10.094	-0.59314	0.31754	-0.55515	0.48892	30.6	13111	100
2025-3-27 20:36:53.700	WT901BLE68-01(48591DE3C19B)	-0.340	-0.787	0.146	9.277	5.981	-1.526	-78.45	20.57	-97.25	-33.810	-8.722	-10.094	-0.59314	0.31754	-0.55515	0.48892	30.6	13111	100
2025-3-27 20:36:53.700	WT901BLE68-01(48591DE3C19B)	-0.340	-0.767	0.136	10.681	4.089	-1.892	-78.37	20.57	-97.37	-33.810	-8.722	-10.094	-0.59314	0.31754	-0.55515	0.48892	30.6	13111	100
2025-3-27 20:36:53.729	WT901BLE68-01(48591DE3C19B)	-0.326	-0.767	0.136	10.681	4.089	-1.892	-78.29	20.57	-97.50	-33.810	-8.722	-10.094	-0.59314	0.31754	-0.55515	0.48892	30.6	13111	100
2025-3-27 20:36:53.729	WT901BLE68-01(48591DE3C19B)	-0.326	-0.754	0.124	11.841	5.554	-1.465	-78.20	20.58	-97.64	-33.810	-8.722	-10.094	-0.59314	0.31754	-0.55515	0.48892	30.6	13111	100
2025-3-27 20:36:53.729	WT901BLE68-01(48591DE3C19B)	-0.322	-0.754	0.124	11.841	5.554	-1.465	-78.11	20.59	-97.78	-33.810	-8.722	-10.094	-0.59314	0.31754	-0.55515	0.48892	30.6	13111	100
2025-3-27 20:36:53.729	WT901BLE68-01(48591DE3C19B)	-0.322	-0.754	0.118	12.512	8.362	-0.732	-78.02	20.62	-97.95	-33.810	-8.722	-10.094	-0.59314	0.31754	-0.55515	0.48892	30.6	13111	100
2025-3-27 20:36:53.790	WT901BLE68-01(48591DE3C19B)	-0.338	-0.754	0.118	12.512	8.362	-0.732	-77.94	20.64	-98.12	-33.810	-8.722	-10.094	-0.59314	0.31754	-0.55515	0.48892	30.6	13111	100
2025-3-27 20:36:53.791	WT901BLE68-01(48591DE3C19B)	-0.338	-0.756	0.122	13.184	11.169	-0.305	-77.87	20.68	-98.31	-33.810	-8.722	-10.094	-0.59314	0.31754	-0.55515	0.48892	30.6	13111	100
2025-3-27 20:36:53.791	WT901BLE68-01(48591DE3C19B)	-0.363	-0.756	0.122	13.184	11.169	-0.305	-77.79	20.71	-98.50	-33.810	-8.722	-10.094	-0.59314	0.31754	-0.55515	0.48892	30.6	13111	100
2025-3-27 20:36:53.791	WT901BLE68-01(48591DE3C19B)	-0.363	-0.740	0.132	13.733	10.315	0.244	-77.70	20.75	-98.68	-33.810	-8.722	-10.094	-0.59314	0.31754	-0.55515	0.48892	30.6	13111	100
2025-3-27 20:36:53.819	WT901BLE68-01(48591DE3C19B)	-0.354	-0.740	0.132	13.733	10.315	0.244	-77.62	20.80	-98.87	-33.810	-8.722	-10.094	-0.59314	0.31754	-0.55515	0.48892	30.6	13111	100
2025-3-27 20:36:53.819	WT901BLE68-01(48591DE3C19B)	-0.354	-0.689	0.127	13.977	7.629	2.136	-77.52	20.85	-99.01	-33.810	-8.722	-10.094	-0.59314	0.31754	-0.55515	0.48892	30.6	13111	100
2025-3-27 20:36:53.819	WT901BLE68-01(48591DE3C19B)	-0.324	-0.689	0.127	13.977	7.629	2.136	-77.42	20.91	-99.16	-33.810	-8.722	-10.094	-0.59314	0.31754	-0.55515	0.48892	30.6	13111	100
2025-3-27 20:36:53.819	WT901BLE68-01(48591DE3C19B)	-0.324	-0.603	0.108	14.160	8.240	6.104	-77.32	21.01	-99.31	-32.046	-10.976	-8.134	-0.59314	0.31754	-0.55515	0.48892	30.6	13111	100
2025-3-27 20:36:53.850	WT901BLE68-01(48591DE3C19B)	-0.304	-0.603	0.108	14.160	8.240	6.104	-77.22	21.11	-99.45	-32.046	-10.976	-8.134	-0.59314	0.31754	-0.55515	0.48892	30.6	13111	100
2025-3-27 20:36:53.850	WT901BLE68-01(48591DE3C19B)	-0.310	-0.520	0.105	11.169	10.620	11.658	-77.15	21.27	-99.60	-32.046	-10.976	-8.134	-0.59314	0.31754	-0.55515	0.48892	30.6	13111	100
2025-3-27 20:36:53.850	WT901BLE68-01(48591DE3C19B)	-0.310	-0.548	0.105	1.038	9.705	16.663	-77.12	21.46	-99.74	-32.046	-10.976	-8.134	-0.59314	0.31754	-0.55515	0.48892	30.6	13111	100
2025-3-27 20:36:53.850	WT901BLE68-01(48591DE3C19B)	-0.356	-0.548	0.105	1.038	9.705	16.663	-77.15	21.67	-99.88	-32.046	-10.976	-8.134	-0.59314	0.31754	-0.55515	0.48892	30.6	13111	100
2025-3-27 20:36:53.909	WT901BLE68-01(48591DE3C19B)	-0.356	-0.707	0.098	-11.169	7.019	16.357	-77.23	21.87	-100.00	-32.046	-10.976	-8.134	-0.59314	0.31754	-0.55515	0.48892	30.6	13111	100
2025-3-27 20:36:53.910	WT901BLE68-01(48591DE3C19B)	-0.457	-0.707	0.098	-11.169	7.019	16.357	-77.37	22.07	-100.10	-32.046	-10.976	-8.134	-0.59314	0.31754	-0.55515	0.48892	30.6	13111	100
2025-3-27 20:36:53.910	WT901BLE68-01(48591DE3C19B)	-0.457	-0.984	0.155	-21.362	9.399	3.906	-77.57	22.21	-100.23	-32.046	-10.976	-8.134	-0.59314	0.31754	-0.55515	0.48892	30.6	13111	100
2025-3-27 20:36:53.910	WT901BLE68-01(48591DE3C19B)	-0.618	-0.984	0.155	-21.362	9.399	3.906	-77.83	22.29	-100.38	-32.046	-10.976	-8.134	-0.59314	0.31754	-0.55515	0.48892	30.6	13111	100
2025-3-27 20:36:53.940	WT901BLE68-01(48591DE3C19B)	-2.472	-1.450	0.272	-25.208	9.705	-14.343	-78.12	22.28	-100.55	-32.046	-10.976	-8.134	-0.59314	0.31754	-0.55515	0.48892	30.6	13111	100
2025-3-27 20:36:53.940	WT901BLE68-01(48591DE3C19B)	-0.731	-5.800	1.091	-25.208	9.705	-14.343	-78.43	22.18	-100.74	-32.046	-10.976	-8.134	-0.59314	0.31754	-0.55515	0.48892	30.6	13111	100
2025-3-27 20:36:53.940	WT901BLE68-01(48591DE3C19B)	-0.731	-1.752	0.378	-20.447	0.671	-35.339	-78.71	21.95	-100.90	-32.046	-10.976	-8.134	-0.59314	0.31754	-0.55515	0.48892	30.6	13111	100
2025-3-27 20:36:53.940	WT901BLE68-01(48591DE3C19B)	-0.764	-1.752	0.378	-20.447	0.671	-35.339	-78.94	21.62	-101.02	-32.046	-10.976	-8.134	-0.59314	0.31754	-0.55515	0.48892	30.6	13111	100
2025-3-27 20:36:54.0	WT901BLE68-01(48591DE3C19B)	-0.764	-1.777	0.409	-21.240	-11.780	-36.255	-79.16	21.27	-101.09	-32.046	-10.976	-8.134	-0.59314	0.31754	-0.55515	0.48892	30.6	13111	100
2025-3-27 20:36:54.0	WT901BLE68-01(48591DE3C19B)	-0.769	-1.777	0.409	-21.240	-11.780	-36.255	-79.35	20.91	-101.07	-32.046	-10.976	-8.134	-0.59314	0.31754	-0.55515	0.48892	30.6	13111	100
2025-3-27 20:36:54.1	WT901BLE68-01(48591DE3C19B)	-0.769	-1.491	0.431	-23.071	-18.494	-31.616	-79.54	20.56	-101.02	-32.046	-10.976	-8.134	-0.59314	0.31754	-0.55515	0.48892	30.6	13111	100
2025-3-27 20:36:54.1	WT901BLE68-01(48591DE3C19B)	-0.773	-1.491	0.431	-23.071	-18.494	-31.616	-79.71	20.24	-100.92	-32.046	-10.976	-8.134	-0.59314	0.31754	-0.55515	0.48892	30.6	13111	100
2025-3-27 20:36:54.60	WT901BLE68-01(48591DE3C19B)	-0.773	-1.244	0.445	-31.494	-35.950	-15.625	-79.89	19.98	-100.71	-32.046	-10.976	-8.134	-0.59314	0.31754	-0.55515	0.48892	30.6	13111	100
2025-3-27 20:36:54.61	WT901BLE68-01(48591DE3C19B)	-0.678	-1.244	0.445	-31.494	-35.950	-15.625	-80.06	19.79	-100.40	-32.046	-10.976	-8.134	-0.56772	0.30447	-0.57104	0.50873	30.6	13111	100
2025-3-27 20:36:54.61	WT901BLE68-01(48591DE3C19B)	-0.678	-1.064	0.416	-39.368	-66.895	7.507	-80.22	19.69	-99.90	-32.046	-10.976	-8.134	-0.56772	0.30447	-0.57104	0.50873	30.6	13111	100
2025-3-27 20:36:54.61	WT901BLE68-01(48591DE3C19B)	-0.437	-1.064	0.416	-39.368	-66.895	7.507	-80.34	19.69	-99.23	-32.046	-10.976	-8.134	-0.56772	0.30447	-0.57104	0.50873	30.6	13111	100
2025-3-27 20:36:54.61	WT901BLE68-01(48591DE3C19B)	-0.437	-0.959	0.345	-42.358	-84.961	28.748	-80.44	19.78	-98.45	-32.046	-10.976	-8.134	-0.56772	0.30447	-0.57104	0.50873	30.6	13111	100
2025-3-27 20:36:54.61	WT901BLE68-01(48591DE3C19B)	-0.236	-0.959	0.345	-42.358	-84.961	28.748	-80.51	19.95	-97.56	-32.046	-10.976	-8.134	-0.56772	0.30447	-0.57104	0.50873	30.6	13111	100
2025-3-27 20:36:54.62	WT901BLE68-01(48591DE3C19B)	-0.236	-0.872	0.273	-33.203	-71.167	45.288	-80.55	20.21	-96.73	-32.046	-10.976	-8.134	-0.56772	0.30447	-0.57104	0.50873	30.6	13111	100
2025-3-27 20:36:54.62	WT901BLE68-01(48591DE3C19B)	-0.165	-0.872	0.273	-33.203	-71.167	45.288	-80.56	20.57	-95.96	-32.046	-10.976	-8.134	-0.56772	0.30447	-0.57104	0.50873	30.6	13111	100
2025-3-27 20:36:54.92	WT901BLE68-01(48591DE3C19B)	-0.165	-0.812	0.266	-18.799	-32.532	50.842	-80.56	20.97	-95.39	-32.046	-10.976	-8.134	-0.56772	0.30447	-0.57104	0.50873	30.6	13111	100
2025-3-27 20:36:54.92	WT901BLE68-01(48591DE3C19B)	-0.149	-0.812	0.266	-18.799	-32.532	50.842	-80.56	21.43	-95.03	-32.046	-10.976	-8.134	-0.56772	0.30447	-0.57104	0.50873	30.6	13111	100
2025-3-27 20:36:54.92	WT901BLE68-01(48591DE3C19B)	-0.149	-0.747	0.307	-7.690	5.371	53.528	-80.56	21.92	-94.86	-32.046	-10.976	-8.134	-0.56772	0.30447	-0.57104	0.50873	30.6	13111	100
2025-3-27 20:36:54.93	WT901BLE68-01(48591DE3C19B)	-0.167	-0.747	0.307	-7.690	5.371	53.528	-80.58	22.45	-94.88	-32.046	-10.976	-8.134	-0.56772	0.30447	-0.57104	0.50873	30.6	13111	100
2025-3-27 20:36:54.150	WT901BLE68-01(48591DE3C19B)	-0.167	-0.811	0.319	0.244	36.560	52.490	-80.63	22.99	-95.08	-32.046	-10.976	-8.134	-0.56772	0.30447	-0.57104	0.50873	30.6	13111	100
2025-3-27 20:36:54.150	WT901BLE68-01(48591DE3C19B)	-0.228	-0.811	0.319	0.244	36.560	52.490	-80.70	23.54	-95.45	-32.046	-10.976	-8.134	-0.56772	0.30447	-0.57104	0.50873	30.6	13111	100
2025-3-27 20:36:54.150	WT901BLE68-01(48591DE3C19B)	-0.228	-0.837	0.271	12.390	59.570	48.035	-80.77	24.09	-95.94	-32.046	-10.976	-8.134	-0.56772	0.30447	-0.57104	0.50873	30.6	13111	100
2025-3-27 20:36:54.150	WT901BLE68-01(48591DE3C19B)	-0.295	-0.837	0.271	12.390	59.570	48.035	-80.83	24.62	-96.56	-32.046	-10.976	-8.134	-0.56772	0.30447	-0.57104	0.50873	30.6	13111	100
2025-3-27 20:36:54.182	WT901BLE68-01(48591DE3C19B)	-0.295	-0.773	0.193	18.860	66.101	41.870	-80.88	25.13	-97.23	-32.046	-10.976	-8.134	-0.56772	0.30447	-0.57104	0.50873	30.6	13111	100
2025-3-27 20:36:54.182	WT901BLE68-01(48591DE3C19B)	-0.334	-0.773	0.193	18.860	66.101	41.870	-80.93	25.60	-97.93	-32.046	-10.976	-8.134	-0.56772	0.30447	-0.57104	0.50873	30.6	13111	100
2025-3-27 20:36:54.182	WT901BLE68-01(48591DE3C19B)	-0.334	-0.738	0.146	18.250	54.443	33.020	-80.95	26.02	-98.58	-32.046	-10.976	-8.134	-0.56772	0.30447	-0.57104	0.50873	30.6	13111	100
2025-3-27 20:36:54.182	WT901BLE68-01(48591DE3C19B)	-0.338	-0.738	0.146	18.250	54.443	33.020	-80.97	26.39	-99.17	-32.046	-10.976	-8.134	-0.56772	0.30447	-0.57104	0.50873	30.6	13111	100
2025-3-27 20:36:54.212	WT901BLE68-01(48591DE3C19B)	-0.338	-0.713	0.131	14.343	33.386	21.851	-80.96	26.69	-99.65	-32.046	-10.976	-8.134	-0.56772	0.30447	-0.57104	0.50873	30.6	13111	100
2025-3-27 20:36:54.212	WT901BLE68-01(48591DE3C19B)	-0.344	-0.713	0.131	14.343	33.386	21.851	-80.93	26.92	-100.03	-32.046	-10.976	-8.134	-0.56772	0.30447	-0.57104	0.50873	30.6	13111	100
2025-3-27 20:36:54.213	WT901BLE68-01(48591DE3C19B)	-0.344	-0.669	0.133	8.545	10.559	9.094	-80.88	27.06	-100.29	-28.714	-14.308	-3.528	-0.56772	0.30447	-0.57104	0.50873	30.6	13111	100
2025-3-27 20:36:54.213	WT901BLE68-01(48591DE3C19B)	-0.342	-0.669	0.133	8.545	10.559	9.094	-80.81	27.13	-100.43	-28.714	-14.308	-3.528	-0.56772	0.30447	-0.57104	0.50873	30.6	13111	100
2025-3-27 20:36:54.273	WT901BLE68-01(48591DE3C19B)	-0.342	-0.633	0.149	1.221	-8.972	-2.258	-80.73	27.14	-100.48	-28.714	-14.308	-3.528	-0.56772	0.30447	-0.57104	0.50873	30.6	13111	100
2025-3-27 20:36:54.273	WT901BLE68-01(48591DE3C19B)	-0.363	-0.633	0.149	1.221	-8.972	-2.258	-80.65	27.06	-100.43	-28.714	-14.308	-3.528	-0.56772	0.30447	-0.57104	0.50873	30.6	13111	100
2025-3-27 20:36:54.273	WT901BLE68-01(48591DE3C19B)	-0.363	-0.648	0.174	-4.944	-23.010	-10.559	-80.56	26.95	-100.32	-28.714	-14.308	-3.528	-0.56772	0.30447	-0.57104	0.50873	30.6	13111	100
2025-3-27 20:36:54.273	WT901BLE68-01(48591DE3C19B)	-0.381	-0.648	0.174	-4.944	-23.010	-10.559	-80.47	26.78	-100.13	-28.714	-14.308	-3.528	-0.56772	0.30447	-0.57104	0.50873	30.6	13111	100
2025-3-27 20:36:54.301	WT901BLE68-01(48591DE3C19B)	-0.381	-0.681	0.198	-9.338	-37.476	-16.907	-80.38	26.58	-99.88	-28.714	-14.308	-3.528	-0.56772	0.30447	-0.57104	0.50873	30.6	13111	100
2025-3-27 20:36:54.301	WT901BLE68-01(48591DE3C19B)	-0.341	-0.681	0.198	-9.338	-37.476	-16.907	-80.27	26.33	-99.56	-28.714	-14.308	-3.528	-0.56772	0.30447	-0.57104	0.50873	30.6	13111	100
2025-3-27 20:36:54.301	WT901BLE68-01(48591DE3C19B)	-0.341	-0.678	0.201	-11.108	-47.180	-20.630	-80.16	26.06	-99.20	-28.714	-14.308	-3.528	-0.56772	0.30447	-0.57104	0.50873	30.6	13111	100
2025-3-27 20:36:54.301	WT901BLE68-01(48591DE3C19B)	-0.275	-0.678	0.201	-11.108	-47.180	-20.630	-80.03	25.76	-98.78	-28.714	-14.308	-3.528	-0.56772	0.30447	-0.57104	0.50873	30.6	13111	100
2025-3-27 20:36:54.393	WT901BLE68-01(48591DE3C19B)	-0.275	-0.594	0.199	-9.583	-47.607	-20.630	-79.89	25.47	-98.38	-28.714	-14.308	-3.528	-0.56772	0.30447	-0.57104	0.50873	30.6	13111	100
2025-3-27 20:36:54.393	WT901BLE68-01(48591DE3C19B)	-0.186	-0.594	0.199	-9.583	-47.607	-20.630	-79.75	25.18	-97.98	-28.714	-14.308	-3.528	-0.56772	0.30447	-0.57104	0.50873	30.6	13111	100
2025-3-27 20:36:54.393	WT901BLE68-01(48591DE3C19B)	-0.186	-0.434	0.206	-6.348	-39.734	-16.602	-79.61	24.93	-97.65	-28.714	-14.308	-3.528	-0.56772	0.30447	-0.57104	0.50873	30.6	13111	100
2025-3-27 20:36:54.393	WT901BLE68-01(48591DE3C19B)	-0.099	-0.434	0.206	-6.348	-39.734	-16.602	-79.47	24.69	-97.34	-28.714	-14.308	-3.528	-0.56772	0.30447	-0.57104	0.50873	30.6	13111	100
2025-3-27 20:36:54.393	WT901BLE68-01(48591DE3C19B)	-0.099	-0.239	0.212	-3.479	-23.560	-7.385	-79.36	24.56	-97.19	-28.714	-14.308	-3.528	-0.56772	0.30447	-0.57104	0.50873	30.6	13111	100
2025-3-27 20:36:54.393	WT901BLE68-01(48591DE3C19B)	-0.063	-0.239	0.212	-3.479	-23.560	-7.385	-79.25	24.43	-97.04	-28.714	-14.308	-3.528	-0.56772	0.30447	-0.57104	0.50873	30.6	13111	100
2025-3-27 20:36:54.393	WT901BLE68-01(48591DE3C19B)	-0.063	-0.131	0.178	-7.935	-8.118	2.014	-79.24	24.43	-97.04	-28.714	-14.308	-3.528	-0.56772	0.30447	-0.57104	0.50873	30.6	13111	100
2025-3-27 20:36:54.393	WT901BLE68-01(48591DE3C19B)	-0.136	-0.131	0.178	-7.935	-8.118	2.014	-79.22	24.42	-97.04	-28.714	-14.308	-3.528	-0.56772	0.30447	-0.57104	0.50873	30.6	13111	100
2025-3-27 20:36:54.422	WT901BLE68-01(48591DE3C19B)	-0.136	-0.240	0.126	-19.226	-1.770	5.676	-79.33	24.46	-97.11	-28.714	-14.308	-3.528	-0.56772	0.30447	-0.57104	0.50873	30.6	13111	100
2025-3-27 20:36:54.422	WT901BLE68-01(48591DE3C19B)	-0.219	-0.240	0.126	-19.226	-1.770	5.676	-79.44	24.49	-97.17	-28.714	-14.308	-3.528	-0.56772	0.30447	-0.57104	0.50873	30.6	13111	100
2025-3-27 20:36:54.423	WT901BLE68-01(48591DE3C19B)	-0.219	-0.547	0.071	-28.320	-3.113	0.977	-79.65	24.48	-97.23	-28.714	-14.308	-3.528	-0.59763	0.29199	-0.57773	0.47296	30.6	13111	100
2025-3-27 20:36:54.423	WT901BLE68-01(48591DE3C19B)	-0.330	-0.547	0.071	-28.320	-3.113	0.977	-79.86	24.47	-97.28	-28.714	-14.308	-3.528	-0.59763	0.29199	-0.57773	0.47296	30.6	13111	100
2025-3-27 20:36:54.510	WT901BLE68-01(48591DE3C19B)	-0.330	-0.933	0.101	-26.123	-11.841	-12.634	-80.04	24.31	-97.26	-28.714	-14.308	-3.528	-0.59763	0.29199	-0.57773	0.47296	30.6	13111	100
2025-3-27 20:36:54.511	WT901BLE68-01(48591DE3C19B)	-0.545	-0.933	0.101	-26.123	-11.841	-12.634	-80.22	24.15	-97.23	-28.714	-14.308	-3.528	-0.59763	0.29199	-0.57773	0.47296	30.6	13111	100
2025-3-27 20:36:54.511	WT901BLE68-01(48591DE3C19B)	-0.545	-1.571	0.114	-16.602	-24.963	-27.405	-80.28	23.83	-97.08	-28.714	-14.308	-3.528	-0.59763	0.29199	-0.57773	0.47296	30.6	13111	100
2025-3-27 20:36:54.511	WT901BLE68-01(48591DE3C19B)	-0.600	-1.571	0.114	-16.602	-24.963	-27.405	-80.34	23.50	-96.92	-28.714	-14.308	-3.528	-0.59763	0.29199	-0.57773	0.47296	30.6	13111	100
2025-3-27 20:36:54.511	WT901BLE68-01(48591DE3C19B)	-0.600	-2.225	0.076	5.310	-40.100	-48.035	-80.16	22.94	-96.62	-28.714	-14.308	-3.528	-0.59763	0.29199	-0.57773	0.47296	30.6	13111	100
2025-3-27 20:36:54.512	WT901BLE68-01(48591DE3C19B)	-0.533	-2.225	0.076	5.310	-40.100	-48.035	-79.99	22.38	-96.33	-28.714	-14.308	-3.528	-0.59763	0.29199	-0.57773	0.47296	30.6	13111	100
2025-3-27 20:36:54.512	WT901BLE68-01(48591DE3C19B)	-0.533	-2.264	0.023	35.706	-35.034	-50.354	-79.56	21.80	-96.10	-28.714	-14.308	-3.528	-0.59763	0.29199	-0.57773	0.47296	30.6	13111	100
2025-3-27 20:36:54.512	WT901BLE68-01(48591DE3C19B)	-0.448	-2.264	0.023	35.706	-35.034	-50.354	-79.13	21.21	-95.87	-28.714	-14.308	-3.528	-0.59763	0.29199	-0.57773	0.47296	30.6	13111	100
2025-3-27 20:36:54.541	WT901BLE68-01(48591DE3C19B)	-0.448	-1.786	0.028	47.241	-1.343	-56.091	-78.74	20.64	-96.00	-28.714	-14.308	-3.528	-0.59763	0.29199	-0.57773	0.47296	30.6	13111	100
2025-3-27 20:36:54.542	WT901BLE68-01(48591DE3C19B)	-0.422	-1.786	0.028	47.241	-1.343	-56.091	-78.35	20.07	-96.15	-28.714	-14.308	-3.528	-0.59763	0.29199	-0.57773	0.47296	30.6	13111	100
2025-3-27 20:36:54.542	WT901BLE68-01(48591DE3C19B)	-0.422	-1.375	0.122	43.640	40.100	-43.152	-78.13	19.71	-96.69	-28.714	-14.308	-3.528	-0.59763	0.29199	-0.57773	0.47296	30.6	13111	100
2025-3-27 20:36:54.542	WT901BLE68-01(48591DE3C19B)	-0.368	-1.375	0.122	43.640	40.100	-43.152	-77.92	19.35	-97.23	-28.714	-14.308	-3.528	-0.59763	0.29199	-0.57773	0.47296	30.6	13111	100
2025-3-27 20:36:54.600	WT901BLE68-01(48591DE3C19B)	-0.368	-0.995	0.250	35.461	59.937	-21.362	-77.83	19.25	-97.93	-28.714	-14.308	-3.528	-0.59763	0.29199	-0.57773	0.47296	30.6	13111	100
2025-3-27 20:36:54.600	WT901BLE68-01(48591DE3C19B)	-0.308	-0.995	0.250	35.461	59.937	-21.362	-77.73	19.16	-98.63	-28.714	-14.308	-3.528	-0.59763	0.29199	-0.57773	0.47296	30.6	13111	100
2025-3-27 20:36:54.600	WT901BLE68-01(48591DE3C19B)	-0.308	-0.766	0.333	19.287	59.998	-8.972	-77.79	19.19	-99.29	-28.714	-14.308	-3.528	-0.59763	0.29199	-0.57773	0.47296	30.6	13111	100
2025-3-27 20:36:54.601	WT901BLE68-01(48591DE3C19B)	-0.301	-0.766	0.333	19.287	59.998	-8.972	-77.83	19.22	-99.96	-28.714	-14.308	-3.528	-0.59763	0.29199	-0.57773	0.47296	30.6	13111	100
2025-3-27 20:36:54.629	WT901BLE68-01(48591DE3C19B)	-0.301	-0.734	0.306	3.235	39.368	-6.775	-77.96	19.23	-100.40	-29.596	-16.562	-3.234	-0.59763	0.29199	-0.57773	0.47296	30.6	13111	100
2025-3-27 20:36:54.629	WT901BLE68-01(48591DE3C19B)	-0.349	-0.734	0.306	3.235	39.368	-6.775	-78.08	19.24	-100.85	-29.596	-16.562	-3.234	-0.59763	0.29199	-0.57773	0.47296	30.6	13111	100
2025-3-27 20:36:54.629	WT901BLE68-01(48591DE3C19B)	-0.349	-0.780	0.235	-0.488	20.813	-7.446	-78.17	19.20	-101.10	-29.596	-16.562	-3.234	-0.59763	0.29199	-0.57773	0.47296	30.6	13111	100
2025-3-27 20:36:54.629	WT901BLE68-01(48591DE3C19B)	-0.416	-0.780	0.235	-0.488	20.813	-7.446	-78.26	19.17	-101.35	-29.596	-16.562	-3.234	-0.59763	0.29199	-0.57773	0.47296	30.6	13111	100
2025-3-27 20:36:54.690	WT901BLE68-01(48591DE3C19B)	-0.416	-0.720	0.167	6.470	15.503	-4.089	-78.26	19.16	-101.55	-29.596	-16.562	-3.234	-0.59763	0.29199	-0.57773	0.47296	30.6	13111	100
2025-3-27 20:36:54.691	WT901BLE68-01(48591DE3C19B)	-0.412	-0.720	0.167	6.470	15.503	-4.089	-78.25	19.15	-101.74	-29.596	-16.562	-3.234	-0.59763	0.29199	-0.57773	0.47296	30.6	13111	100
2025-3-27 20:36:54.691	WT901BLE68-01(48591DE3C19B)	-0.412	-0.552	0.128	15.320	19.409	1.709	-78.17	19.23	-101.96	-29.596	-16.562	-3.234	-0.59763	0.29199	-0.57773	0.47296	30.6	13111	100
2025-3-27 20:36:54.691	WT901BLE68-01(48591DE3C19B)	-0.318	-0.552	0.128	15.320	19.409	1.709	-78.08	19.30	-102.19	-29.596	-16.562	-3.234	-0.59763	0.29199	-0.57773	0.47296	30.6	13111	100
2025-3-27 20:36:54.719	WT901BLE68-01(48591DE3C19B)	-0.318	-0.355	0.123	22.095	29.236	15.442	-77.95	19.53	-102.49	-29.596	-16.562	-3.234	-0.59763	0.29199	-0.57773	0.47296	30.6	13111	100
2025-3-27 20:36:54.719	WT901BLE68-01(48591DE3C19B)	-0.264	-0.355	0.123	22.095	29.236	15.442	-77.82	19.77	-102.78	-29.596	-16.562	-3.234	-0.59763	0.29199	-0.57773	0.47296	30.6	13111	100
2025-3-27 20:36:54.719	WT901BLE68-01(48591DE3C19B)	-0.264	-0.233	0.110	25.757	45.349	30.884	-77.70	20.19	-103.22	-29.596	-16.562	-3.234	-0.59763	0.29199	-0.57773	0.47296	30.6	13111	100
2025-3-27 20:36:54.719	WT901BLE68-01(48591DE3C19B)	-0.253	-0.233	0.110	25.757	45.349	30.884	-77.57	20.63	-103.65	-29.596	-16.562	-3.234	-0.59763	0.29199	-0.57773	0.47296	30.6	13111	100
2025-3-27 20:36:54.750	WT901BLE68-01(48591DE3C19B)	-0.253	-0.241	0.071	20.569	52.124	40.588	-77.53	21.17	-104.14	-29.596	-16.562	-3.234	-0.59763	0.29199	-0.57773	0.47296	30.6	13111	100
2025-3-27 20:36:54.750	WT901BLE68-01(48591DE3C19B)	-0.313	-0.241	0.071	20.569	52.124	40.588	-77.48	21.71	-104.63	-29.596	-16.562	-3.234	-0.59763	0.29199	-0.57773	0.47296	30.6	13111	100
2025-3-27 20:36:54.750	WT901BLE68-01(48591DE3C19B)	-0.313	-0.373	0.037	12.390	51.575	50.659	-77.51	22.35	-105.10	-29.596	-16.562	-3.234	-0.59763	0.29199	-0.57773	0.47296	30.6	13111	100
2025-3-27 20:36:54.750	WT901BLE68-01(48591DE3C19B)	-0.342	-0.373	0.037	12.390	51.575	50.659	-77.55	23.00	-105.56	-29.596	-16.562	-3.234	-0.59763	0.29199	-0.57773	0.47296	30.6	13111	100
2025-3-27 20:36:54.782	WT901BLE68-01(48591DE3C19B)	-0.342	-0.572	0.018	1.038	50.293	55.603	-77.70	23.69	-106.00	-29.596	-16.562	-3.234	-0.59763	0.29199	-0.57773	0.47296	30.6	13111	100
2025-3-27 20:36:54.782	WT901BLE68-01(48591DE3C19B)	-0.394	-0.572	0.018	1.038	50.293	55.603	-77.87	24.37	-106.43	-29.596	-16.562	-3.234	-0.59763	0.29199	-0.57773	0.47296	30.6	13111	100
2025-3-27 20:36:54.782	WT901BLE68-01(48591DE3C19B)	-0.527	-0.825	0.066	-6.775	47.302	49.622	-78.11	24.98	-106.84	-29.596	-16.562	-3.234	-0.59763	0.29199	-0.57773	0.47296	30.6	13111	100
2025-3-27 20:36:54.782	WT901BLE68-01(48591DE3C19B)	-0.527	-1.150	0.186	-3.235	33.875	29.419	-78.33	25.47	-107.19	-29.596	-16.562	-3.234	-0.59763	0.29199	-0.57773	0.47296	30.6	13111	100
2025-3-27 20:36:54.871	WT901BLE68-01(48591DE3C19B)	-0.648	-1.150	0.186	-3.235	33.875	29.419	-78.50	25.84	-107.50	-29.596	-16.562	-3.234	-0.59763	0.29199	-0.57773	0.47296	30.6	13111	100
2025-3-27 20:36:54.871	WT901BLE68-01(48591DE3C19B)	-0.648	-1.400	0.334	1.831	19.836	1.160	-78.63	26.05	-107.75	-29.596	-16.562	-3.234	-0.55923	0.22256	-0.60190	0.52472	30.6	13111	100
2025-3-27 20:36:54.871	WT901BLE68-01(48591DE3C19B)	-0.704	-1.400	0.334	1.831	19.836	1.160	-78.72	26.11	-107.96	-29.596	-16.562	-3.234	-0.55923	0.22256	-0.60190	0.52472	30.6	13111	100
2025-3-27 20:36:54.871	WT901BLE68-01(48591DE3C19B)	-0.704	-1.774	0.333	-1.343	18.738	-39.063	-78.83	25.96	-108.20	-29.596	-16.562	-3.234	-0.55923	0.22256	-0.60190	0.52472	30.6	13111	100
2025-3-27 20:36:54.872	WT901BLE68-01(48591DE3C19B)	-0.881	-1.774	0.333	-1.343	18.738	-39.063	-78.97	25.61	-108.47	-29.596	-16.562	-3.234	-0.55923	0.22256	-0.60190	0.52472	30.6	13111	100
2025-3-27 20:36:54.872	WT901BLE68-01(48591DE3C19B)	-0.881	-1.790	0.332	18.127	47.974	-49.561	-79.09	25.24	-108.91	-29.596	-16.562	-3.234	-0.55923	0.22256	-0.60190	0.52472	30.6	13111	100
2025-3-27 20:36:54.872	WT901BLE68-01(48591DE3C19B)	-0.894	-1.790	0.332	18.127	47.974	-49.561	-79.17	24.84	-109.50	-29.596	-16.562	-3.234	-0.55923	0.22256	-0.60190	0.52472	30.6	13111	100
2025-3-27 20:36:54.872	WT901BLE68-01(48591DE3C19B)	-0.894	-1.260	0.365	20.874	54.138	-52.734	-79.25	24.44	-110.13	-29.596	-16.562	-3.234	-0.55923	0.22256	-0.60190	0.52472	30.6	13111	100
2025-3-27 20:36:54.902	WT901BLE68-01(48591DE3C19B)	-0.711	-1.260	0.365	20.874	54.138	-52.734	-79.32	24.04	-110.79	-29.596	-16.562	-3.234	-0.55923	0.22256	-0.60190	0.52472	30.6	13111	100
2025-3-27 20:36:54.902	WT901BLE68-01(48591DE3C19B)	-0.711	-0.992	0.340	1.282	33.630	-46.631	-79.44	23.65	-111.34	-29.596	-16.562	-3.234	-0.55923	0.22256	-0.60190	0.52472	30.6	13111	100
2025-3-27 20:36:54.902	WT901BLE68-01(48591DE3C19B)	-0.536	-0.992	0.340	1.282	33.630	-46.631	-79.59	23.28	-111.77	-29.596	-16.562	-3.234	-0.55923	0.22256	-0.60190	0.52472	30.6	13111	100
2025-3-27 20:36:54.902	WT901BLE68-01(48591DE3C19B)	-0.536	-0.954	0.294	-15.442	-1.831	-34.790	-79.74	22.94	-112.01	-29.596	-16.562	-3.234	-0.55923	0.22256	-0.60190	0.52472	30.6	13111	100
2025-3-27 20:36:54.960	WT901BLE68-01(48591DE3C19B)	-0.457	-0.954	0.294	-15.442	-1.831	-34.790	-79.90	22.63	-112.05	-29.596	-16.562	-3.234	-0.55923	0.22256	-0.60190	0.52472	30.6	13111	100
2025-3-27 20:36:54.960	WT901BLE68-01(48591DE3C19B)	-0.457	-0.934	0.237	-28.259	-52.612	-19.226	-80.01	22.35	-111.80	-29.596	-16.562	-3.234	-0.55923	0.22256	-0.60190	0.52472	30.6	13111	100
2025-3-27 20:36:54.960	WT901BLE68-01(48591DE3C19B)	-0.302	-0.934	0.237	-28.259	-52.612	-19.226	-80.07	22.11	-111.27	-29.596	-16.562	-3.234	-0.55923	0.22256	-0.60190	0.52472	30.6	13111	100
2025-3-27 20:36:54.960	WT901BLE68-01(48591DE3C19B)	-0.302	-0.930	0.221	-34.546	-87.341	-1.038	-80.09	21.92	-110.54	-29.596	-16.562	-3.234	-0.55923	0.22256	-0.60190	0.52472	30.6	13111	100
2025-3-27 20:36:54.992	WT901BLE68-01(48591DE3C19B)	-0.125	-0.930	0.221	-34.546	-87.341	-1.038	-80.07	21.80	-109.61	-29.596	-16.562	-3.234	-0.55923	0.22256	-0.60190	0.52472	30.6	13111	100
2025-3-27 20:36:54.992	WT901BLE68-01(48591DE3C19B)	-0.125	-0.886	0.196	-23.621	-63.232	11.963	-80.04	21.74	-108.80	-29.596	-16.562	-3.234	-0.55923	0.22256	-0.60190	0.52472	30.6	13111	100
2025-3-27 20:36:54.992	WT901BLE68-01(48591DE3C19B)	-0.142	-0.886	0.196	-23.621	-63.232	11.963	-80.00	21.77	-108.11	-29.596	-16.562	-3.234	-0.55923	0.22256	-0.60190	0.52472	30.6	13111	100
2025-3-27 20:36:54.992	WT901BLE68-01(48591DE3C19B)	-0.142	-0.792	0.141	-10.315	-6.470	17.395	-80.00	21.86	-107.72	-29.596	-16.562	-3.234	-0.55923	0.22256	-0.60190	0.52472	30.6	13111	100
2025-3-27 20:36:55.21	WT901BLE68-01(48591DE3C19B)	-0.257	-0.792	0.141	-10.315	-6.470	17.395	-80.05	22.03	-107.61	-29.596	-16.562	-3.234	-0.55923	0.22256	-0.60190	0.52472	30.6	13111	100
2025-3-27 20:36:55.22	WT901BLE68-01(48591DE3C19B)	-0.257	-0.715	0.129	-1.587	28.259	17.822	-80.12	22.21	-107.69	-29.596	-16.562	-3.234	-0.55923	0.22256	-0.60190	0.52472	30.6	13111	100
2025-3-27 20:36:55.22	WT901BLE68-01(48591DE3C19B)	-0.291	-0.715	0.129	-1.587	28.259	17.822	-80.22	22.43	-107.95	-25.480	-23.618	0.588	-0.55923	0.22256	-0.60190	0.52472	30.6	13111	100
2025-3-27 20:36:55.22	WT901BLE68-01(48591DE3C19B)	-0.291	-0.589	0.149	4.089	43.335	16.357	-80.33	22.65	-108.29	-25.480	-23.618	0.588	-0.55923	0.22256	-0.60190	0.52472	30.6	13111	100
2025-3-27 20:36:55.80	WT901BLE68-01(48591DE3C19B)	-0.260	-0.589	0.149	4.089	43.335	16.357	-80.43	22.88	-108.72	-25.480	-23.618	0.588	-0.55923	0.22256	-0.60190	0.52472	30.6	13111	100
2025-3-27 20:36:55.80	WT901BLE68-01(48591DE3C19B)	-0.260	-0.409	0.174	6.226	49.683	18.860	-80.54	23.13	-109.18	-25.480	-23.618	0.588	-0.55923	0.22256	-0.60190	0.52472	30.6	13111	100
2025-3-27 20:36:55.80	WT901BLE68-01(48591DE3C19B)	-0.235	-0.409	0.174	6.226	49.683	18.860	-80.65	23.39	-109.67	-25.480	-23.618	0.588	-0.55923	0.22256	-0.60190	0.52472	30.6	13111	100
2025-3-27 20:36:55.80	WT901BLE68-01(48591DE3C19B)	-0.235	-0.239	0.189	3.479	41.382	25.635	-80.76	23.68	-110.13	-25.480	-23.618	0.588	-0.55923	0.22256	-0.60190	0.52472	30.6	13111	100
2025-3-27 20:36:55.109	WT901BLE68-01(48591DE3C19B)	-0.200	-0.239	0.189	3.479	41.382	25.635	-80.85	23.99	-110.54	-25.480	-23.618	0.588	-0.55923	0.22256	-0.60190	0.52472	30.6	13111	100
2025-3-27 20:36:55.109	WT901BLE68-01(48591DE3C19B)	-0.200	-0.154	0.184	-7.263	16.479	29.663	-80.94	24.32	-110.83	-25.480	-23.618	0.588	-0.55923	0.22256	-0.60190	0.52472	30.6	13111	100
2025-3-27 20:36:55.109	WT901BLE68-01(48591DE3C19B)	-0.115	-0.154	0.184	-7.263	16.479	29.663	-81.01	24.64	-111.00	-25.480	-23.618	0.588	-0.55923	0.22256	-0.60190	0.52472	30.6	13111	100
2025-3-27 20:36:55.109	WT901BLE68-01(48591DE3C19B)	-0.115	-0.210	0.172	-17.456	-5.188	27.466	-81.08	24.93	-111.07	-25.480	-23.618	0.588	-0.55923	0.22256	-0.60190	0.52472	30.6	13111	100
2025-3-27 20:36:55.139	WT901BLE68-01(48591DE3C19B)	-0.088	-0.210	0.172	-17.456	-5.188	27.466	-81.15	25.19	-111.03	-25.480	-23.618	0.588	-0.55923	0.22256	-0.60190	0.52472	30.6	13111	100
2025-3-27 20:36:55.140	WT901BLE68-01(48591DE3C19B)	-0.088	-0.363	0.197	-19.104	-17.639	17.578	-81.19	25.39	-110.94	-25.480	-23.618	0.588	-0.55923	0.22256	-0.60190	0.52472	30.6	13111	100
2025-3-27 20:36:55.140	WT901BLE68-01(48591DE3C19B)	-0.212	-0.363	0.197	-19.104	-17.639	17.578	-81.22	25.53	-110.79	-25.480	-23.618	0.588	-0.55923	0.22256	-0.60190	0.52472	30.6	13111	100
2025-3-27 20:36:55.140	WT901BLE68-01(48591DE3C19B)	-0.212	-0.603	0.216	-14.587	-25.391	6.348	-81.21	25.59	-110.62	-25.480	-23.618	0.588	-0.55923	0.22256	-0.60190	0.52472	30.6	13111	100
2025-3-27 20:36:55.202	WT901BLE68-01(48591DE3C19B)	-0.384	-0.603	0.216	-14.587	-25.391	6.348	-81.15	25.59	-110.40	-25.480	-23.618	0.588	-0.55923	0.22256	-0.60190	0.52472	30.6	13111	100
2025-3-27 20:36:55.202	WT901BLE68-01(48591DE3C19B)	-0.384	-0.993	0.221	-11.475	-35.583	-8.850	-81.07	25.51	-110.14	-25.480	-23.618	0.588	-0.55923	0.22256	-0.60190	0.52472	30.6	13111	100
2025-3-27 20:36:55.202	WT901BLE68-01(48591DE3C19B)	-0.628	-0.993	0.221	-11.475	-35.583	-8.850	-80.96	25.35	-109.83	-25.480	-23.618	0.588	-0.55923	0.22256	-0.60190	0.52472	30.6	13111	100
2025-3-27 20:36:55.202	WT901BLE68-01(48591DE3C19B)	-0.628	-1.732	0.113	-9.705	-42.175	-20.752	-80.85	25.11	-109.49	-25.480	-23.618	0.588	-0.55923	0.22256	-0.60190	0.52472	30.6	13111	100
2025-3-27 20:36:55.231	WT901BLE68-01(48591DE3C19B)	-0.609	-1.732	0.113	-9.705	-42.175	-20.752	-80.74	24.82	-109.10	-25.480	-23.618	0.588	-0.55923	0.22256	-0.60190	0.52472	30.6	13111	100
2025-3-27 20:36:55.232	WT901BLE68-01(48591DE3C19B)	-0.609	-2.296	-0.018	11.475	-49.377	-42.908	-80.53	24.41	-108.67	-25.480	-23.618	0.588	-0.55923	0.22256	-0.60190	0.52472	30.6	13111	100
2025-3-27 20:36:55.232	WT901BLE68-01(48591DE3C19B)	-0.501	-2.296	-0.018	11.475	-49.377	-42.908	-80.23	23.88	-108.20	-25.480	-23.618	0.588	-0.55923	0.22256	-0.60190	0.52472	30.6	13111	100
2025-3-27 20:36:55.232	WT901BLE68-01(48591DE3C19B)	-0.501	-2.044	-0.016	33.752	-50.598	-36.743	-79.84	23.37	-107.72	-25.480	-23.618	0.588	-0.54785	0.24509	-0.59912	0.52985	30.6	13111	100
2025-3-27 20:36:55.261	WT901BLE68-01(48591DE3C19B)	-0.379	-2.044	-0.016	33.752	-50.598	-36.743	-79.34	22.89	-107.23	-25.480	-23.618	0.588	-0.54785	0.24509	-0.59912	0.52985	30.6	13111	100
2025-3-27 20:36:55.262	WT901BLE68-01(48591DE3C19B)	-0.379	-1.612	0.110	24.109	-33.630	-40.405	-79.02	22.40	-106.92	-25.480	-23.618	0.588	-0.54785	0.24509	-0.59912	0.52985	30.6	13111	100
2025-3-27 20:36:55.262	WT901BLE68-01(48591DE3C19B)	-0.347	-1.612	0.110	24.109	-33.630	-40.405	-78.72	21.91	-106.63	-25.480	-23.618	0.588	-0.54785	0.24509	-0.59912	0.52985	30.6	13111	100
2025-3-27 20:36:55.262	WT901BLE68-01(48591DE3C19B)	-0.347	-1.345	0.269	16.785	-16.663	-31.372	-78.54	21.53	-106.50	-25.480	-23.618	0.588	-0.54785	0.24509	-0.59912	0.52985	30.6	13111	100
2025-3-27 20:36:55.320	WT901BLE68-01(48591DE3C19B)	-0.265	-1.345	0.269	16.785	-16.663	-31.372	-78.37	21.17	-106.38	-25.480	-23.618	0.588	-0.54785	0.24509	-0.59912	0.52985	30.6	13111	100
2025-3-27 20:36:55.320	WT901BLE68-01(48591DE3C19B)	-0.265	-0.954	0.379	9.399	-11.963	-18.738	-78.27	20.93	-106.29	-25.480	-23.618	0.588	-0.54785	0.24509	-0.59912	0.52985	30.6	13111	100
2025-3-27 20:36:55.320	WT901BLE68-01(48591DE3C19B)	-0.158	-0.954	0.379	9.399	-11.963	-18.738	-78.17	20.69	-106.22	-25.480	-23.618	0.588	-0.54785	0.24509	-0.59912	0.52985	30.6	13111	100
2025-3-27 20:36:55.320	WT901BLE68-01(48591DE3C19B)	-0.158	-0.733	0.379	-1.526	-6.531	-15.808	-78.18	20.49	-106.20	-25.480	-23.618	0.588	-0.54785	0.24509	-0.59912	0.52985	30.6	13111	100
2025-3-27 20:36:55.349	WT901BLE68-01(48591DE3C19B)	-0.246	-0.733	0.379	-1.526	-6.531	-15.808	-78.20	20.30	-106.19	-25.480	-23.618	0.588	-0.54785	0.24509	-0.59912	0.52985	30.6	13111	100
2025-3-27 20:36:55.349	WT901BLE68-01(48591DE3C19B)	-0.246	-0.733	0.299	-4.517	4.578	-15.076	-78.27	20.13	-106.30	-25.480	-23.618	0.588	-0.54785	0.24509	-0.59912	0.52985	30.6	13111	100
2025-3-27 20:36:55.349	WT901BLE68-01(48591DE3C19B)	-0.361	-0.733	0.299	-4.517	4.578	-15.076	-78.34	19.97	-106.41	-25.480	-23.618	0.588	-0.54785	0.24509	-0.59912	0.52985	30.6	13111	100
2025-3-27 20:36:55.349	WT901BLE68-01(48591DE3C19B)	-0.361	-0.696	0.208	0.977	6.592	-13.550	-78.35	19.83	-106.55	-25.480	-23.618	0.588	-0.54785	0.24509	-0.59912	0.52985	30.6	13111	100
2025-3-27 20:36:55.379	WT901BLE68-01(48591DE3C19B)	-0.345	-0.696	0.208	0.977	6.592	-13.550	-78.37	19.69	-106.69	-25.480	-23.618	0.588	-0.54785	0.24509	-0.59912	0.52985	30.6	13111	100
2025-3-27 20:36:55.379	WT901BLE68-01(48591DE3C19B)	-0.345	-0.567	0.132	7.202	9.644	-10.071	-78.33	19.61	-106.85	-25.480	-23.618	0.588	-0.54785	0.24509	-0.59912	0.52985	30.6	13111	100
2025-3-27 20:36:55.379	WT901BLE68-01(48591DE3C19B)	-0.313	-0.567	0.132	7.202	9.644	-10.071	-78.29	19.52	-107.02	-25.480	-23.618	0.588	-0.54785	0.24509	-0.59912	0.52985	30.6	13111	100
2025-3-27 20:36:55.379	WT901BLE68-01(48591DE3C19B)	-0.313	-0.432	0.086	13.428	18.921	-1.770	-78.22	19.54	-107.27	-25.480	-23.618	0.588	-0.54785	0.24509	-0.59912	0.52985	30.6	13111	100
2025-3-27 20:36:55.440	WT901BLE68-01(48591DE3C19B)	-0.300	-0.432	0.086	13.428	18.921	-1.770	-78.14	19.57	-107.52	-25.480	-23.618	0.588	-0.54785	0.24509	-0.59912	0.52985	30.6	13111	100
2025-3-27 20:36:55.440	WT901BLE68-01(48591DE3C19B)	-0.300	-0.319	0.069	18.250	25.269	9.583	-78.04	19.72	-107.81	-25.480	-23.618	0.588	-0.54785	0.24509	-0.59912	0.52985	30.6	13111	100
2025-3-27 20:36:55.440	WT901BLE68-01(48591DE3C19B)	-0.270	-0.319	0.069	18.250	25.269	9.583	-77.93	19.89	-108.11	-25.480	-23.618	0.588	-0.54785	0.24509	-0.59912	0.52985	30.6	13111	100
2025-3-27 20:36:55.440	WT901BLE68-01(48591DE3C19B)	-0.270	-0.250	0.043	13.916	26.550	18.555	-77.86	20.14	-108.41	-25.480	-23.618	0.588	-0.54785	0.24509	-0.59912	0.52985	30.6	13111	100
2025-3-27 20:36:55.470	WT901BLE68-01(48591DE3C19B)	-0.239	-0.250	0.043	13.916	26.550	18.555	-77.80	20.41	-108.72	-29.694	-27.146	-3.528	-0.54785	0.24509	-0.59912	0.52985	30.6	13111	100
2025-3-27 20:36:55.470	WT901BLE68-01(48591DE3C19B)	-0.239	-0.339	0.003	5.676	27.100	26.306	-77.82	20.75	-109.01	-29.694	-27.146	-3.528	-0.54785	0.24509	-0.59912	0.52985	30.6	13111	100
2025-3-27 20:36:55.470	WT901BLE68-01(48591DE3C19B)	-0.256	-0.339	0.003	5.676	27.100	26.306	-77.84	21.10	-109.30	-29.694	-27.146	-3.528	-0.54785	0.24509	-0.59912	0.52985	30.6	13111	100
2025-3-27 20:36:55.470	WT901BLE68-01(48591DE3C19B)	-0.256	-0.498	-0.031	-0.977	28.015	29.297	-77.94	21.47	-109.58	-29.694	-27.146	-3.528	-0.54785	0.24509	-0.59912	0.52985	30.6	13111	100
2025-3-27 20:36:55.500	WT901BLE68-01(48591DE3C19B)	-0.348	-0.498	-0.031	-0.977	28.015	29.297	-78.05	21.85	-109.86	-29.694	-27.146	-3.528	-0.54785	0.24509	-0.59912	0.52985	30.6	13111	100
2025-3-27 20:36:55.500	WT901BLE68-01(48591DE3C19B)	-0.348	-0.764	-0.005	-14.221	18.372	21.851	-78.26	22.13	-110.06	-29.694	-27.146	-3.528	-0.54785	0.24509	-0.59912	0.52985	30.6	13111	100
2025-3-27 20:36:55.500	WT901BLE68-01(48591DE3C19B)	-0.504	-0.764	-0.005	-14.221	18.372	21.851	-78.49	22.40	-110.23	-29.694	-27.146	-3.528	-0.54785	0.24509	-0.59912	0.52985	30.6	13111	100
2025-3-27 20:36:55.501	WT901BLE68-01(48591DE3C19B)	-0.504	-1.296	0.091	-20.813	-2.747	-0.732	-78.71	22.41	-110.23	-29.694	-27.146	-3.528	-0.54785	0.24509	-0.59912	0.52985	30.6	13111	100
2025-3-27 20:36:55.560	WT901BLE68-01(48591DE3C19B)	-0.708	-1.296	0.091	-20.813	-2.747	-0.732	-78.94	22.41	-110.21	-29.694	-27.146	-3.528	-0.54785	0.24509	-0.59912	0.52985	30.6	13111	100
2025-3-27 20:36:55.560	WT901BLE68-01(48591DE3C19B)	-0.708	-1.682	0.246	-0.671	-23.560	-31.799	-78.90	22.07	-110.05	-29.694	-27.146	-3.528	-0.54785	0.24509	-0.59912	0.52985	30.6	13111	100
2025-3-27 20:36:55.560	WT901BLE68-01(48591DE3C19B)	-0.819	-1.682	0.246	-0.671	-23.560	-31.799	-78.87	21.72	-109.89	-29.694	-27.146	-3.528	-0.54785	0.24509	-0.59912	0.52985	30.6	13111	100
2025-3-27 20:36:55.560	WT901BLE68-01(48591DE3C19B)	-0.819	-1.640	0.399	1.526	-40.222	-54.749	-78.76	21.13	-109.62	-29.694	-27.146	-3.528	-0.54785	0.24509	-0.59912	0.52985	30.6	13111	100
2025-3-27 20:36:55.592	WT901BLE68-01(48591DE3C19B)	-0.911	-1.640	0.399	1.526	-40.222	-54.749	-78.65	20.53	-109.35	-29.694	-27.146	-3.528	-0.54785	0.24509	-0.59912	0.52985	30.6	13111	100
2025-3-27 20:36:55.592	WT901BLE68-01(48591DE3C19B)	-0.911	-1.675	0.433	2.441	-27.710	-67.505	-78.59	19.85	-109.25	-29.694	-27.146	-3.528	-0.54785	0.24509	-0.59912	0.52985	30.6	13111	100
2025-3-27 20:36:55.592	WT901BLE68-01(48591DE3C19B)	-0.884	-1.675	0.433	2.441	-27.710	-67.505	-78.51	19.17	-109.17	-29.694	-27.146	-3.528	-0.54785	0.24509	-0.59912	0.52985	30.6	13111	100
2025-3-27 20:36:55.592	WT901BLE68-01(48591DE3C19B)	-0.884	-1.381	0.394	7.507	-10.925	-54.077	-78.44	18.66	-109.24	-29.694	-27.146	-3.528	-0.54785	0.24509	-0.59912	0.52985	30.6	13111	100
2025-3-27 20:36:55.621	WT901BLE68-01(48591DE3C19B)	-0.652	-1.381	0.394	7.507	-10.925	-54.077	-78.36	18.16	-109.32	-29.694	-27.146	-3.528	-0.54785	0.24509	-0.59912	0.52985	30.6	13111	100
2025-3-27 20:36:55.622	WT901BLE68-01(48591DE3C19B)	-0.652	-0.925	0.319	-1.892	-6.531	-35.095	-78.37	17.86	-109.41	-29.694	-27.146	-3.528	-0.54785	0.24509	-0.59912	0.52985	30.6	13111	100
2025-3-27 20:36:55.622	WT901BLE68-01(48591DE3C19B)	-0.357	-0.925	0.319	-1.892	-6.531	-35.095	-78.38	17.56	-109.50	-29.694	-27.146	-3.528	-0.52078	0.26376	-0.57828	0.56982	30.6	13111	100
2025-3-27 20:36:55.622	WT901BLE68-01(48591DE3C19B)	-0.357	-0.666	0.238	-25.085	-24.353	-10.681	-78.55	17.47	-109.36	-29.694	-27.146	-3.528	-0.52078	0.26376	-0.57828	0.56982	30.6	13111	100
2025-3-27 20:36:55.680	WT901BLE68-01(48591DE3C19B)	-0.283	-0.666	0.238	-25.085	-24.353	-10.681	-78.71	17.37	-109.23	-29.694	-27.146	-3.528	-0.52078	0.26376	-0.57828	0.56982	30.6	13111	100
2025-3-27 20:36:55.680	WT901BLE68-01(48591DE3C19B)	-0.283	-0.740	0.201	-46.448	-67.505	12.634	-78.93	17.43	-108.59	-29.694	-27.146	-3.528	-0.52078	0.26376	-0.57828	0.56982	30.6	13111	100
2025-3-27 20:36:55.680	WT901BLE68-01(48591DE3C19B)	-0.231	-0.740	0.201	-46.448	-67.505	12.634	-79.16	17.48	-107.96	-29.694	-27.146	-3.528	-0.52078	0.26376	-0.57828	0.56982	30.6	13111	100
2025-3-27 20:36:55.680	WT901BLE68-01(48591DE3C19B)	-0.231	-0.838	0.187	-47.607	-101.990	26.245	-79.28	17.59	-106.94	-29.694	-27.146	-3.528	-0.52078	0.26376	-0.57828	0.56982	30.6	13111	100
2025-3-27 20:36:55.709	WT901BLE68-01(48591DE3C19B)	-0.157	-0.838	0.187	-47.607	-101.990	26.245	-79.40	17.71	-105.92	-29.694	-27.146	-3.528	-0.52078	0.26376	-0.57828	0.56982	30.6	13111	100
2025-3-27 20:36:55.709	WT901BLE68-01(48591DE3C19B)	-0.147	-0.749	0.182	-32.349	-89.844	41.748	-79.39	17.99	-105.00	-29.694	-27.146	-3.528	-0.52078	0.26376	-0.57828	0.56982	30.6	13111	100
2025-3-27 20:36:55.709	WT901BLE68-01(48591DE3C19B)	-0.147	-0.582	0.169	-17.578	-37.048	45.898	-79.39	18.33	-104.35	-29.694	-27.146	-3.528	-0.52078	0.26376	-0.57828	0.56982	30.6	13111	100
2025-3-27 20:36:55.709	WT901BLE68-01(48591DE3C19B)	-0.125	-0.582	0.169	-17.578	-37.048	45.898	-79.39	18.74	-103.96	-29.694	-27.146	-3.528	-0.52078	0.26376	-0.57828	0.56982	30.6	13111	100
2025-3-27 20:36:55.770	WT901BLE68-01(48591DE3C19B)	-0.125	-0.424	0.134	-7.996	19.165	52.856	-79.44	19.23	-103.86	-29.694	-27.146	-3.528	-0.52078	0.26376	-0.57828	0.56982	30.6	13111	100
2025-3-27 20:36:55.770	WT901BLE68-01(48591DE3C19B)	-0.141	-0.424	0.134	-7.996	19.165	52.856	-79.52	19.79	-104.04	-29.694	-27.146	-3.528	-0.52078	0.26376	-0.57828	0.56982	30.6	13111	100
2025-3-27 20:36:55.770	WT901BLE68-01(48591DE3C19B)	-0.141	-0.320	0.104	-1.282	65.369	61.096	-79.66	20.43	-104.46	-29.694	-27.146	-3.528	-0.52078	0.26376	-0.57828	0.56982	30.6	13111	100
2025-3-27 20:36:55.770	WT901BLE68-01(48591DE3C19B)	-0.202	-0.320	0.104	-1.282	65.369	61.096	-79.85	21.15	-105.11	-29.694	-27.146	-3.528	-0.52078	0.26376	-0.57828	0.56982	30.6	13111	100
2025-3-27 20:36:55.802	WT901BLE68-01(48591DE3C19B)	-0.202	-0.272	0.139	-2.625	72.937	67.139	-80.07	21.91	-105.80	-29.694	-27.146	-3.528	-0.52078	0.26376	-0.57828	0.56982	30.6	13111	100
2025-3-27 20:36:55.802	WT901BLE68-01(48591DE3C19B)	-0.304	-0.272	0.139	-2.625	72.937	67.139	-80.30	22.69	-106.53	-29.694	-27.146	-3.528	-0.52078	0.26376	-0.57828	0.56982	30.6	13111	100
2025-3-27 20:36:55.802	WT901BLE68-01(48591DE3C19B)	-0.304	-0.401	0.182	-13.428	42.908	68.237	-80.55	23.45	-107.12	-29.694	-27.146	-3.528	-0.52078	0.26376	-0.57828	0.56982	30.6	13111	100
2025-3-27 20:36:55.802	WT901BLE68-01(48591DE3C19B)	-0.351	-0.401	0.182	-13.428	42.908	68.237	-80.77	24.19	-107.55	-29.694	-27.146	-3.528	-0.52078	0.26376	-0.57828	0.56982	30.6	13111	100
2025-3-27 20:36:55.832	WT901BLE68-01(48591DE3C19B)	-0.351	-0.617	0.179	-20.569	6.958	69.519	-80.96	24.91	-107.79	-29.694	-27.146	-3.528	-0.52078	0.26376	-0.57828	0.56982	30.6	13111	100
2025-3-27 20:36:55.832	WT901BLE68-01(48591DE3C19B)	-0.278	-0.617	0.179	-20.569	6.958	69.519	-81.10	25.60	-107.84	-29.694	-27.146	-3.528	-0.52078	0.26376	-0.57828	0.56982	30.6	13111	100
2025-3-27 20:36:55.832	WT901BLE68-01(48591DE3C19B)	-0.278	-0.821	0.155	-23.254	-22.034	67.078	-81.19	26.25	-107.73	-35.868	-27.538	-7.056	-0.52078	0.26376	-0.57828	0.56982	30.6	13111	100
2025-3-27 20:36:55.832	WT901BLE68-01(48591DE3C19B)	-0.236	-0.821	0.155	-23.254	-22.034	67.078	-81.22	26.86	-107.46	-35.868	-27.538	-7.056	-0.52078	0.26376	-0.57828	0.56982	30.6	13111	100
2025-3-27 20:36:55.890	WT901BLE68-01(48591DE3C19B)	-0.236	-1.249	0.073	-27.161	-33.752	55.176	-81.25	27.39	-107.13	-35.868	-27.538	-7.056	-0.52078	0.26376	-0.57828	0.56982	30.6	13111	100
2025-3-27 20:36:55.891	WT901BLE68-01(48591DE3C19B)	-0.407	-1.249	0.073	-27.161	-33.752	55.176	-81.28	27.85	-106.73	-35.868	-27.538	-7.056	-0.52078	0.26376	-0.57828	0.56982	30.6	13111	100
2025-3-27 20:36:55.891	WT901BLE68-01(48591DE3C19B)	-0.407	-2.033	0.046	-15.198	-25.696	30.334	-81.29	28.17	-106.39	-35.868	-27.538	-7.056	-0.52078	0.26376	-0.57828	0.56982	30.6	13111	100
2025-3-27 20:36:55.891	WT901BLE68-01(48591DE3C19B)	-0.516	-2.033	0.046	-15.198	-25.696	30.334	-81.29	28.37	-106.09	-35.868	-27.538	-7.056	-0.52078	0.26376	-0.57828	0.56982	30.6	13111	100
2025-3-27 20:36:55.919	WT901BLE68-01(48591DE3C19B)	-0.516	-2.409	0.000	14.160	-23.132	8.911	-81.16	28.46	-105.82	-35.868	-27.538	-7.056	-0.52078	0.26376	-0.57828	0.56982	30.6	13111	100
2025-3-27 20:36:55.919	WT901BLE68-01(48591DE3C19B)	-0.458	-2.409	0.000	14.160	-23.132	8.911	-80.91	28.44	-105.58	-35.868	-27.538	-7.056	-0.52078	0.26376	-0.57828	0.56982	30.6	13111	100
2025-3-27 20:36:55.919	WT901BLE68-01(48591DE3C19B)	-0.458	-1.644	0.125	39.124	-20.020	-5.676	-80.56	28.34	-105.36	-35.868	-27.538	-7.056	-0.52078	0.26376	-0.57828	0.56982	30.6	13111	100
2025-3-27 20:36:55.919	WT901BLE68-01(48591DE3C19B)	-0.249	-1.644	0.125	39.124	-20.020	-5.676	-80.10	28.17	-105.18	-35.868	-27.538	-7.056	-0.52078	0.26376	-0.57828	0.56982	30.6	13111	100
2025-3-27 20:36:55.950	WT901BLE68-01(48591DE3C19B)	-0.249	-1.218	0.146	19.836	5.371	-9.216	-79.81	28.02	-105.14	-35.868	-27.538	-7.056	-0.52078	0.26376	-0.57828	0.56982	30.6	13111	100
2025-3-27 20:36:55.950	WT901BLE68-01(48591DE3C19B)	-0.254	-1.218	0.146	19.836	5.371	-9.216	-79.68	27.86	-105.25	-35.868	-27.538	-7.056	-0.52078	0.26376	-0.57828	0.56982	30.6	13111	100
2025-3-27 20:36:55.950	WT901BLE68-01(48591DE3C19B)	-0.254	-1.073	0.226	14.954	39.734	-10.925	-79.67	27.72	-105.56	-35.868	-27.538	-7.056	-0.52078	0.26376	-0.57828	0.56982	30.6	13111	100
2025-3-27 20:36:55.950	WT901BLE68-01(48591DE3C19B)	-0.329	-1.073	0.226	14.954	39.734	-10.925	-79.77	27.61	-106.05	-35.868	-27.538	-7.056	-0.52078	0.26376	-0.57828	0.56982	30.6	13111	100
2025-3-27 20:36:56.12	WT901BLE68-01(48591DE3C19B)	-0.329	-0.912	0.266	9.338	36.377	-16.357	-79.88	27.46	-106.52	-35.868	-27.538	-7.056	-0.52078	0.26376	-0.57828	0.56982	30.6	13111	100
2025-3-27 20:36:56.12	WT901BLE68-01(48591DE3C19B)	-0.324	-0.912	0.266	9.338	36.377	-16.357	-80.01	27.29	-106.99	-35.868	-27.538	-7.056	-0.52078	0.26376	-0.57828	0.56982	30.6	13111	100
2025-3-27 20:36:56.12	WT901BLE68-01(48591DE3C19B)	-0.324	-0.718	0.279	1.526	5.554	-23.193	-80.10	27.06	-107.29	-35.868	-27.538	-7.056	-0.52078	0.26376	-0.57828	0.56982	30.6	13111	100
2025-3-27 20:36:56.12	WT901BLE68-01(48591DE3C19B)	-0.346	-0.718	0.279	1.526	5.554	-23.193	-80.13	26.78	-107.43	-35.868	-27.538	-7.056	-0.52078	0.26376	-0.57828	0.56982	30.6	13111	100
2025-3-27 20:36:56.42	WT901BLE68-01(48591DE3C19B)	-0.346	-0.604	0.270	-2.441	-19.775	-27.893	-80.13	26.46	-107.44	-35.868	-27.538	-7.056	-0.52078	0.26376	-0.57828	0.56982	30.6	13111	100
2025-3-27 20:36:56.42	WT901BLE68-01(48591DE3C19B)	-0.392	-0.604	0.270	-2.441	-19.775	-27.893	-80.08	26.09	-107.32	-35.868	-27.538	-7.056	-0.52078	0.26376	-0.57828	0.56982	30.6	13111	100
2025-3-27 20:36:56.42	WT901BLE68-01(48591DE3C19B)	-0.392	-0.569	0.243	1.282	-28.381	-26.917	-79.99	25.73	-107.16	-35.868	-27.538	-7.056	-0.52078	0.26376	-0.57828	0.56982	30.6	13111	100
2025-3-27 20:36:56.42	WT901BLE68-01(48591DE3C19B)	-0.387	-0.569	0.243	1.282	-28.381	-26.917	-79.86	25.38	-106.96	-35.868	-27.538	-7.056	-0.55841	0.23846	-0.60245	0.51791	30.6	13111	100
2025-3-27 20:36:56.71	WT901BLE68-01(48591DE3C19B)	-0.387	-0.583	0.164	10.803	-23.071	-16.968	-79.69	25.08	-106.79	-35.868	-27.538	-7.056	-0.55841	0.23846	-0.60245	0.51791	30.6	13111	100
2025-3-27 20:36:56.71	WT901BLE68-01(48591DE3C19B)	-0.288	-0.583	0.164	10.803	-23.071	-16.968	-79.48	24.85	-106.64	-35.868	-27.538	-7.056	-0.55841	0.23846	-0.60245	0.51791	30.6	13111	100
2025-3-27 20:36:56.71	WT901BLE68-01(48591DE3C19B)	-0.288	-0.465	0.049	21.301	-14.099	-6.226	-79.23	24.68	-106.54	-35.868	-27.538	-7.056	-0.55841	0.23846	-0.60245	0.51791	30.6	13111	100
2025-3-27 20:36:56.71	WT901BLE68-01(48591DE3C19B)	-0.158	-0.465	0.049	21.301	-14.099	-6.226	-78.95	24.58	-106.47	-35.868	-27.538	-7.056	-0.55841	0.23846	-0.60245	0.51791	30.6	13111	100
2025-3-27 20:36:56.130	WT901BLE68-01(48591DE3C19B)	-0.158	-0.281	0.011	22.888	2.014	9.033	-78.70	24.57	-106.48	-35.868	-27.538	-7.056	-0.55841	0.23846	-0.60245	0.51791	30.6	13111	100
2025-3-27 20:36:56.130	WT901BLE68-01(48591DE3C19B)	-0.154	-0.281	0.011	22.888	2.014	9.033	-78.47	24.65	-106.56	-35.868	-27.538	-7.056	-0.55841	0.23846	-0.60245	0.51791	30.6	13111	100
2025-3-27 20:36:56.130	WT901BLE68-01(48591DE3C19B)	-0.154	-0.342	0.030	11.902	23.499	23.560	-78.34	24.83	-106.73	-35.868	-27.538	-7.056	-0.55841	0.23846	-0.60245	0.51791	30.6	13111	100
2025-3-27 20:36:56.130	WT901BLE68-01(48591DE3C19B)	-0.309	-0.342	0.030	11.902	23.499	23.560	-78.31	25.09	-107.01	-35.868	-27.538	-7.056	-0.55841	0.23846	-0.60245	0.51791	30.6	13111	100
2025-3-27 20:36:56.159	WT901BLE68-01(48591DE3C19B)	-0.309	-0.609	0.048	4.578	26.428	31.372	-78.33	25.41	-107.28	-35.868	-27.538	-7.056	-0.55841	0.23846	-0.60245	0.51791	30.6	13111	100
2025-3-27 20:36:56.159	WT901BLE68-01(48591DE3C19B)	-0.445	-0.609	0.048	4.578	26.428	31.372	-78.38	25.75	-107.57	-35.868	-27.538	-7.056	-0.55841	0.23846	-0.60245	0.51791	30.6	13111	100
2025-3-27 20:36:56.159	WT901BLE68-01(48591DE3C19B)	-0.445	-0.901	0.095	-4.700	12.390	28.259	-78.46	26.08	-107.77	-35.868	-27.538	-7.056	-0.55841	0.23846	-0.60245	0.51791	30.6	13111	100
2025-3-27 20:36:56.159	WT901BLE68-01(48591DE3C19B)	-0.506	-0.901	0.095	-4.700	12.390	28.259	-78.56	26.37	-107.91	-35.868	-27.538	-7.056	-0.55841	0.23846	-0.60245	0.51791	30.6	13111	100
2025-3-27 20:36:56.190	WT901BLE68-01(48591DE3C19B)	-0.506	-1.248	0.158	0.427	2.563	16.541	-78.56	26.52	-107.96	-35.868	-27.538	-7.056	-0.55841	0.23846	-0.60245	0.51791	30.6	13111	100
2025-3-27 20:36:56.190	WT901BLE68-01(48591DE3C19B)	-0.579	-1.248	0.158	0.427	2.563	16.541	-78.57	26.67	-108.00	-35.868	-27.538	-7.056	-0.55841	0.23846	-0.60245	0.51791	30.6	13111	100
2025-3-27 20:36:56.190	WT901BLE68-01(48591DE3C19B)	-0.579	-1.440	0.234	13.489	-0.488	-8.423	-78.46	26.57	-108.07	-35.868	-27.538	-7.056	-0.55841	0.23846	-0.60245	0.51791	30.6	13111	100
2025-3-27 20:36:56.190	WT901BLE68-01(48591DE3C19B)	-0.663	-1.440	0.234	13.489	-0.488	-8.423	-78.35	26.47	-108.13	-35.868	-27.538	-7.056	-0.55841	0.23846	-0.60245	0.51791	30.6	13111	100
2025-3-27 20:36:56.250	WT901BLE68-01(48591DE3C19B)	-0.663	-1.474	0.287	13.245	-1.038	-34.607	-78.27	26.11	-108.25	-35.868	-27.538	-7.056	-0.55841	0.23846	-0.60245	0.51791	30.6	13111	100
2025-3-27 20:36:56.250	WT901BLE68-01(48591DE3C19B)	-0.787	-1.474	0.287	13.245	-1.038	-34.607	-78.18	25.75	-108.37	-35.868	-27.538	-7.056	-0.55841	0.23846	-0.60245	0.51791	30.6	13111	100
2025-3-27 20:36:56.250	WT901BLE68-01(48591DE3C19B)	-0.787	-1.566	0.319	17.700	24.414	-57.251	-78.19	25.23	-108.82	-35.868	-27.538	-7.056	-0.55841	0.23846	-0.60245	0.51791	30.6	13111	100
2025-3-27 20:36:56.250	WT901BLE68-01(48591DE3C19B)	-0.904	-1.566	0.319	17.700	24.414	-57.251	-78.20	24.72	-109.27	-35.868	-27.538	-7.056	-0.55841	0.23846	-0.60245	0.51791	30.6	13111	100
2025-3-27 20:36:56.279	WT901BLE68-01(48591DE3C19B)	-0.904	-1.325	0.381	27.954	47.974	-55.847	-78.19	24.27	-109.97	-35.868	-27.538	-7.056	-0.55841	0.23846	-0.60245	0.51791	30.6	13111	100
2025-3-27 20:36:56.279	WT901BLE68-01(48591DE3C19B)	-0.758	-1.325	0.381	27.954	47.974	-55.847	-78.17	23.84	-110.67	-35.868	-27.538	-7.056	-0.55841	0.23846	-0.60245	0.51791	30.6	13111	100
2025-3-27 20:36:56.279	WT901BLE68-01(48591DE3C19B)	-0.758	-0.993	0.363	22.644	49.194	-50.720	-78.20	23.46	-111.38	-35.868	-27.538	-7.056	-0.55841	0.23846	-0.60245	0.51791	30.6	13111	100
2025-3-27 20:36:56.279	WT901BLE68-01(48591DE3C19B)	-0.536	-0.993	0.363	22.644	49.194	-50.720	-78.22	23.09	-112.09	-35.868	-27.538	-7.056	-0.55841	0.23846	-0.60245	0.51791	30.6	13111	100
2025-3-27 20:36:56.310	WT901BLE68-01(48591DE3C19B)	-0.536	-0.794	0.292	7.629	38.086	-42.725	-78.32	22.79	-112.67	-35.868	-27.538	-7.056	-0.55841	0.23846	-0.60245	0.51791	30.6	13111	100
2025-3-27 20:36:56.310	WT901BLE68-01(48591DE3C19B)	-0.504	-0.794	0.292	7.629	38.086	-42.725	-78.42	22.48	-113.24	-35.868	-27.538	-7.056	-0.55841	0.23846	-0.60245	0.51791	30.6	13111	100
2025-3-27 20:36:56.310	WT901BLE68-01(48591DE3C19B)	-0.504	-0.767	0.227	-6.531	2.075	-28.442	-78.50	22.24	-113.41	-35.868	-27.538	-7.056	-0.55841	0.23846	-0.60245	0.51791	30.6	13111	100
2025-3-27 20:36:56.310	WT901BLE68-01(48591DE3C19B)	-0.472	-0.767	0.227	-6.531	2.075	-28.442	-78.57	22.01	-113.57	-35.868	-27.538	-7.056	-0.55841	0.23846	-0.60245	0.51791	30.6	13111	100
2025-3-27 20:36:56.370	WT901BLE68-01(48591DE3C19B)	-0.472	-0.766	0.198	-20.325	-46.204	-18.005	-78.59	21.78	-113.21	-35.868	-27.538	-7.056	-0.55841	0.23846	-0.60245	0.51791	30.6	13111	100
2025-3-27 20:36:56.370	WT901BLE68-01(48591DE3C19B)	-0.315	-0.766	0.198	-20.325	-46.204	-18.005	-78.60	21.56	-112.84	-35.868	-27.538	-7.056	-0.55841	0.23846	-0.60245	0.51791	30.6	13111	100
2025-3-27 20:36:56.370	WT901BLE68-01(48591DE3C19B)	-0.315	-0.744	0.182	-21.851	-59.326	-3.967	-78.57	21.45	-112.31	-35.868	-27.538	-7.056	-0.55841	0.23846	-0.60245	0.51791	30.6	13111	100
2025-3-27 20:36:56.370	WT901BLE68-01(48591DE3C19B)	-0.274	-0.744	0.182	-21.851	-59.326	-3.967	-78.55	21.33	-111.77	-35.868	-27.538	-7.056	-0.55841	0.23846	-0.60245	0.51791	30.6	13111	100
2025-3-27 20:36:56.431	WT901BLE68-01(48591DE3C19B)	-0.274	-0.610	0.174	-13.428	-32.288	6.348	-78.53	21.37	-111.49	-35.868	-27.538	-7.056	-0.55841	0.23846	-0.60245	0.51791	30.6	13111	100
2025-3-27 20:36:56.432	WT901BLE68-01(48591DE3C19B)	-0.285	-0.610	0.174	-13.428	-32.288	6.348	-78.51	21.40	-111.22	-35.868	-27.538	-7.056	-0.55841	0.23846	-0.60245	0.51791	30.6	13111	100
2025-3-27 20:36:56.432	WT901BLE68-01(48591DE3C19B)	-0.285	-0.384	0.171	-10.315	-8.789	15.442	-78.55	21.57	-111.18	-35.868	-27.538	-7.056	-0.55841	0.23846	-0.60245	0.51791	30.6	13111	100
2025-3-27 20:36:56.432	WT901BLE68-01(48591DE3C19B)	-0.229	-0.384	0.171	-10.315	-8.789	15.442	-78.57	21.74	-111.13	-35.868	-27.538	-7.056	-0.55841	0.23846	-0.60245	0.51791	30.6	13111	100
2025-3-27 20:36:56.432	WT901BLE68-01(48591DE3C19B)	-0.229	-0.178	0.188	-14.954	1.526	28.137	-78.67	22.06	-111.18	-35.868	-27.538	-7.056	-0.55841	0.23846	-0.60245	0.51791	30.6	13111	100
2025-3-27 20:36:56.432	WT901BLE68-01(48591DE3C19B)	-0.224	-0.178	0.188	-14.954	1.526	28.137	-78.77	22.38	-111.23	-35.868	-27.538	-7.056	-0.55841	0.23846	-0.60245	0.51791	30.6	13111	100
2025-3-27 20:36:56.432	WT901BLE68-01(48591DE3C19B)	-0.224	-0.152	0.206	-25.208	-0.427	39.490	-78.94	22.80	-111.25	-35.868	-27.538	-7.056	-0.55841	0.23846	-0.60245	0.51791	30.6	13111	100
2025-3-27 20:36:56.433	WT901BLE68-01(48591DE3C19B)	-0.287	-0.152	0.206	-25.208	-0.427	39.490	-79.10	23.23	-111.28	-35.868	-27.538	-7.056	-0.55841	0.23846	-0.60245	0.51791	30.6	13111	100
2025-3-27 20:36:56.490	WT901BLE68-01(48591DE3C19B)	-0.287	-0.335	0.177	-35.767	-16.357	43.457	-79.28	23.66	-111.13	-35.868	-27.538	-7.056	-0.55841	0.23846	-0.60245	0.51791	30.6	13111	100
2025-3-27 20:36:56.491	WT901BLE68-01(48591DE3C19B)	-0.304	-0.335	0.177	-35.767	-16.357	43.457	-79.47	24.10	-110.99	-35.868	-27.538	-7.056	-0.55841	0.23846	-0.60245	0.51791	30.6	13111	100
2025-3-27 20:36:56.491	WT901BLE68-01(48591DE3C19B)	-0.304	-0.601	0.119	-41.626	-37.964	42.969	-79.62	24.48	-110.62	-35.868	-27.538	-7.056	-0.55841	0.23846	-0.60245	0.51791	30.6	13111	100
2025-3-27 20:36:56.491	WT901BLE68-01(48591DE3C19B)	-0.285	-0.601	0.119	-41.626	-37.964	42.969	-79.77	24.87	-110.23	-35.868	-27.538	-7.056	-0.55841	0.23846	-0.60245	0.51791	30.6	13111	100
2025-3-27 20:36:56.521	WT901BLE68-01(48591DE3C19B)	-0.285	-0.879	0.075	-42.297	-53.162	40.039	-79.87	25.19	-109.67	-35.868	-27.538	-7.056	-0.55841	0.23846	-0.60245	0.51791	30.6	13111	100
2025-3-27 20:36:56.521	WT901BLE68-01(48591DE3C19B)	-0.337	-0.879	0.075	-42.297	-53.162	40.039	-79.97	25.50	-109.09	-35.868	-27.538	-7.056	-0.55841	0.23846	-0.60245	0.51791	30.6	13111	100
2025-3-27 20:36:56.522	WT901BLE68-01(48591DE3C19B)	-0.337	-1.357	0.077	-38.147	-54.565	30.701	-80.05	25.71	-108.49	-35.868	-27.538	-7.056	-0.55841	0.23846	-0.60245	0.51791	30.6	13111	100
2025-3-27 20:36:56.522	WT901BLE68-01(48591DE3C19B)	-0.407	-1.357	0.077	-38.147	-54.565	30.701	-80.13	25.91	-107.87	-35.868	-27.538	-7.056	-0.55841	0.23846	-0.60245	0.51791	30.6	13111	100
2025-3-27 20:36:56.550	WT901BLE68-01(48591DE3C19B)	-0.407	-1.919	0.117	-16.663	-53.589	10.864	-80.03	25.90	-107.29	-35.868	-27.538	-7.056	-0.55841	0.23846	-0.60245	0.51791	30.6	13111	100
2025-3-27 20:36:56.550	WT901BLE68-01(48591DE3C19B)	-0.375	-1.919	0.117	-16.663	-53.589	10.864	-79.94	25.88	-106.69	-35.868	-27.538	-7.056	-0.55841	0.23846	-0.60245	0.51791	30.6	13111	100
2025-3-27 20:36:56.550	WT901BLE68-01(48591DE3C19B)	-0.375	-2.113	0.163	10.986	-45.044	3.540	-79.63	25.79	-106.20	-35.868	-27.538	-7.056	-0.55841	0.23846	-0.60245	0.51791	30.6	13111	100
2025-3-27 20:36:56.550	WT901BLE68-01(48591DE3C19B)	-0.313	-2.113	0.163	10.986	-45.044	3.540	-79.32	25.69	-105.70	-35.868	-27.538	-7.056	-0.55841	0.23846	-0.60245	0.51791	30.6	13111	100
2025-3-27 20:36:56.610	WT901BLE68-01(48591DE3C19B)	-0.313	-1.839	0.136	36.865	-10.925	-8.118	-78.94	25.53	-105.61	-35.868	-27.538	-7.056	-0.55841	0.23846	-0.60245	0.51791	30.6	13111	100
2025-3-27 20:36:56.610	WT901BLE68-01(48591DE3C19B)	-0.228	-1.839	0.136	36.865	-10.925	-8.118	-78.55	25.37	-105.50	-35.868	-27.538	-7.056	-0.55841	0.23846	-0.60245	0.51791	30.6	13111	100
2025-3-27 20:36:56.610	WT901BLE68-01(48591DE3C19B)	-0.228	-1.553	0.105	40.405	30.640	-15.076	-78.34	25.21	-105.86	-35.868	-27.538	-7.056	-0.55841	0.23846	-0.60245	0.51791	30.6	13111	100
2025-3-27 20:36:56.610	WT901BLE68-01(48591DE3C19B)	-0.230	-1.553	0.105	40.405	30.640	-15.076	-78.13	25.06	-106.22	-35.868	-27.538	-7.056	-0.55841	0.23846	-0.60245	0.51791	30.6	13111	100
2025-3-27 20:36:56.639	WT901BLE68-01(48591DE3C19B)	-0.230	-1.270	0.145	39.246	62.134	-20.264	-78.07	24.92	-106.91	-35.868	-27.538	-7.056	-0.55841	0.23846	-0.60245	0.51791	30.6	13111	100
2025-3-27 20:36:56.639	WT901BLE68-01(48591DE3C19B)	-0.248	-1.270	0.145	39.246	62.134	-20.264	-78.01	24.77	-107.61	-35.868	-27.538	-7.056	-0.55841	0.23846	-0.60245	0.51791	30.6	13111	100
2025-3-27 20:36:56.639	WT901BLE68-01(48591DE3C19B)	-0.352	-0.966	0.237	34.058	78.247	-24.048	-78.09	24.63	-108.48	-35.868	-27.538	-7.056	-0.55841	0.23846	-0.60245	0.51791	30.6	13111	100
2025-3-27 20:36:56.639	WT901BLE68-01(48591DE3C19B)	-0.352	-0.775	0.278	23.560	69.458	-30.457	-78.18	24.44	-109.31	-35.868	-27.538	-7.056	-0.55841	0.23846	-0.60245	0.51791	30.6	13111	100
2025-3-27 20:36:56.671	WT901BLE68-01(48591DE3C19B)	-0.391	-0.775	0.278	23.560	69.458	-30.457	-78.30	24.22	-110.10	-35.868	-27.538	-7.056	-0.55841	0.23846	-0.60245	0.51791	30.6	13111	100
2025-3-27 20:36:56.671	WT901BLE68-01(48591DE3C19B)	-0.391	-0.662	0.256	14.526	41.565	-35.767	-78.40	23.96	-110.74	-35.868	-27.538	-7.056	-0.55841	0.23846	-0.60245	0.51791	30.6	13111	100
2025-3-27 20:36:56.671	WT901BLE68-01(48591DE3C19B)	-0.377	-0.662	0.256	14.526	41.565	-35.767	-78.48	23.64	-111.24	-35.868	-27.538	-7.056	-0.55841	0.23846	-0.60245	0.51791	30.6	13111	100
2025-3-27 20:36:56.671	WT901BLE68-01(48591DE3C19B)	-0.377	-0.553	0.240	13.855	17.944	-35.889	-78.50	23.31	-111.61	-35.868	-27.538	-7.056	-0.55841	0.23846	-0.60245	0.51791	30.6	13111	100
2025-3-27 20:36:56.730	WT901BLE68-01(48591DE3C19B)	-0.371	-0.553	0.240	13.855	17.944	-35.889	-78.47	22.96	-111.86	-35.868	-27.538	-7.056	-0.55841	0.23846	-0.60245	0.51791	30.6	13111	100
2025-3-27 20:36:56.730	WT901BLE68-01(48591DE3C19B)	-0.371	-0.407	0.214	18.372	4.639	-30.762	-78.38	22.63	-112.04	-35.868	-27.538	-7.056	-0.55841	0.23846	-0.60245	0.51791	30.6	13111	100
2025-3-27 20:36:56.730	WT901BLE68-01(48591DE3C19B)	-0.302	-0.407	0.214	18.372	4.639	-30.762	-78.24	22.32	-112.15	-35.868	-27.538	-7.056	-0.55841	0.23846	-0.60245	0.51791	30.6	13111	100
2025-3-27 20:36:56.730	WT901BLE68-01(48591DE3C19B)	-0.302	-0.295	0.147	20.630	3.357	-20.142	-78.07	22.07	-112.26	-35.868	-27.538	-7.056	-0.55841	0.23846	-0.60245	0.51791	30.6	13111	100
2025-3-27 20:36:56.759	WT901BLE68-01(48591DE3C19B)	-0.249	-0.295	0.147	20.630	3.357	-20.142	-77.89	21.88	-112.35	-41.160	-35.084	-3.136	-0.55841	0.23846	-0.60245	0.51791	30.6	13111	100
2025-3-27 20:36:56.759	WT901BLE68-01(48591DE3C19B)	-0.249	-0.248	0.082	23.438	11.230	-8.911	-77.70	21.76	-112.47	-41.160	-35.084	-3.136	-0.55841	0.23846	-0.60245	0.51791	30.6	13111	100
2025-3-27 20:36:56.759	WT901BLE68-01(48591DE3C19B)	-0.241	-0.248	0.082	23.438	11.230	-8.911	-77.50	21.71	-112.63	-41.160	-35.084	-3.136	-0.55841	0.23846	-0.60245	0.51791	30.6	13111	100
2025-3-27 20:36:56.759	WT901BLE68-01(48591DE3C19B)	-0.241	-0.260	0.050	23.560	18.921	5.432	-77.32	21.75	-112.81	-41.160	-35.084	-3.136	-0.55841	0.23846	-0.60245	0.51791	30.6	13111	100
2025-3-27 20:36:56.790	WT901BLE68-01(48591DE3C19B)	-0.275	-0.260	0.050	23.560	18.921	5.432	-77.15	21.86	-113.02	-41.160	-35.084	-3.136	-0.55841	0.23846	-0.60245	0.51791	30.6	13111	100
2025-3-27 20:36:56.791	WT901BLE68-01(48591DE3C19B)	-0.275	-0.417	0.048	16.174	18.616	15.320	-77.00	22.03	-113.21	-41.160	-35.084	-3.136	-0.55841	0.23846	-0.60245	0.51791	30.6	13111	100
2025-3-27 20:36:56.791	WT901BLE68-01(48591DE3C19B)	-0.330	-0.417	0.048	16.174	18.616	15.320	-76.90	22.25	-113.40	-41.160	-35.084	-3.136	-0.55841	0.23846	-0.60245	0.51791	30.6	13111	100
2025-3-27 20:36:56.791	WT901BLE68-01(48591DE3C19B)	-0.330	-0.659	0.068	13.184	16.541	20.081	-76.81	22.49	-113.55	-41.160	-35.084	-3.136	-0.55841	0.23846	-0.60245	0.51791	30.6	13111	100
2025-3-27 20:36:56.850	WT901BLE68-01(48591DE3C19B)	-0.436	-0.659	0.068	13.184	16.541	20.081	-76.73	22.75	-113.69	-41.160	-35.084	-3.136	-0.55841	0.23846	-0.60245	0.51791	30.6	13111	100
2025-3-27 20:36:56.850	WT901BLE68-01(48591DE3C19B)	-0.436	-0.966	0.098	7.751	14.221	16.602	-76.68	22.99	-113.81	-41.160	-35.084	-3.136	-0.55841	0.23846	-0.60245	0.51791	30.6	13111	100
2025-3-27 20:36:56.850	WT901BLE68-01(48591DE3C19B)	-0.557	-0.966	0.098	7.751	14.221	16.602	-76.66	23.20	-113.91	-41.160	-35.084	-3.136	-0.55841	0.23846	-0.60245	0.51791	30.6	13111	100
2025-3-27 20:36:56.850	WT901BLE68-01(48591DE3C19B)	-0.557	-1.317	0.156	9.705	8.362	-1.709	-76.64	23.32	-113.99	-41.160	-35.084	-3.136	-0.55841	0.23846	-0.60245	0.51791	30.6	13111	100
2025-3-27 20:36:56.912	WT901BLE68-01(48591DE3C19B)	-0.669	-1.317	0.156	9.705	8.362	-1.709	-76.60	23.33	-114.06	-41.160	-35.084	-3.136	-0.55841	0.23846	-0.60245	0.51791	30.6	13111	100
2025-3-27 20:36:56.912	WT901BLE68-01(48591DE3C19B)	-0.669	-1.413	0.298	17.944	-0.549	-22.095	-76.52	23.24	-114.10	-41.160	-35.084	-3.136	-0.55841	0.23846	-0.60245	0.51791	30.6	13111	100
2025-3-27 20:36:56.912	WT901BLE68-01(48591DE3C19B)	-0.776	-1.413	0.298	17.944	-0.549	-22.095	-76.38	23.03	-114.11	-41.160	-35.084	-3.136	-0.55841	0.23846	-0.60245	0.51791	30.6	13111	100
2025-3-27 20:36:56.912	WT901BLE68-01(48591DE3C19B)	-0.776	-1.511	0.389	5.981	-5.859	-41.992	-76.31	22.73	-114.14	-41.160	-35.084	-3.136	-0.55841	0.23846	-0.60245	0.51791	30.6	13111	100
2025-3-27 20:36:56.913	WT901BLE68-01(48591DE3C19B)	-0.888	-1.511	0.389	5.981	-5.859	-41.992	-76.28	22.32	-114.16	-41.160	-35.084	-3.136	-0.55841	0.23846	-0.60245	0.51791	30.6	13111	100
2025-3-27 20:36:56.913	WT901BLE68-01(48591DE3C19B)	-0.888	-1.678	0.444	8.362	5.920	-55.054	-76.27	21.87	-114.27	-41.160	-35.084	-3.136	-0.55841	0.23846	-0.60245	0.51791	30.6	13111	100
2025-3-27 20:36:56.913	WT901BLE68-01(48591DE3C19B)	-0.836	-1.678	0.444	8.362	5.920	-55.054	-76.27	21.38	-114.46	-41.160	-35.084	-3.136	-0.55841	0.23846	-0.60245	0.51791	30.6	13111	100
2025-3-27 20:36:56.913	WT901BLE68-01(48591DE3C19B)	-0.836	-1.346	0.461	11.230	15.015	-45.227	-76.27	20.95	-114.69	-41.160	-35.084	-3.136	-0.55841	0.23846	-0.60245	0.51791	30.6	13111	100
2025-3-27 20:36:57.0	WT901BLE68-01(48591DE3C19B)	-0.662	-1.346	0.461	11.230	15.015	-45.227	-76.26	20.58	-114.95	-41.160	-35.084	-3.136	-0.55841	0.23846	-0.60245	0.51791	30.6	13111	100
2025-3-27 20:36:57.0	WT901BLE68-01(48591DE3C19B)	-0.662	-1.013	0.412	-1.038	15.076	-36.316	-76.29	20.26	-115.22	-41.160	-35.084	-3.136	-0.50641	0.20889	-0.58755	0.59546	30.6	13111	100
2025-3-27 20:36:57.1	WT901BLE68-01(48591DE3C19B)	-0.522	-1.013	0.412	-1.038	15.076	-36.316	-76.39	19.99	-115.48	-41.160	-35.084	-3.136	-0.50641	0.20889	-0.58755	0.59546	30.6	13111	100
2025-3-27 20:36:57.1	WT901BLE68-01(48591DE3C19B)	-0.522	-0.844	0.325	-15.015	0.183	-21.118	-76.50	19.78	-115.64	-41.160	-35.084	-3.136	-0.50641	0.20889	-0.58755	0.59546	30.6	13111	100
2025-3-27 20:36:57.2	WT901BLE68-01(48591DE3C19B)	-0.489	-0.844	0.325	-15.015	0.183	-21.118	-76.66	19.62	-115.71	-41.160	-35.084	-3.136	-0.50641	0.20889	-0.58755	0.59546	30.6	13111	100
2025-3-27 20:36:57.2	WT901BLE68-01(48591DE3C19B)	-0.489	-0.751	0.262	-26.428	-33.569	-4.822	-76.80	19.51	-115.60	-41.160	-35.084	-3.136	-0.50641	0.20889	-0.58755	0.59546	30.6	13111	100
2025-3-27 20:36:57.2	WT901BLE68-01(48591DE3C19B)	-0.393	-0.751	0.262	-26.428	-33.569	-4.822	-76.93	19.44	-115.29	-41.160	-35.084	-3.136	-0.50641	0.20889	-0.58755	0.59546	30.6	13111	100
2025-3-27 20:36:57.2	WT901BLE68-01(48591DE3C19B)	-0.393	-0.678	0.220	-33.997	-63.843	8.301	-77.04	19.40	-114.81	-41.160	-35.084	-3.136	-0.50641	0.20889	-0.58755	0.59546	30.6	13111	100
2025-3-27 20:36:57.32	WT901BLE68-01(48591DE3C19B)	-0.302	-0.678	0.220	-33.997	-63.843	8.301	-77.14	19.39	-114.16	-41.160	-35.084	-3.136	-0.50641	0.20889	-0.58755	0.59546	30.6	13111	100
2025-3-27 20:36:57.32	WT901BLE68-01(48591DE3C19B)	-0.302	-0.621	0.218	-28.625	-60.059	19.287	-77.20	19.45	-113.53	-41.160	-35.084	-3.136	-0.50641	0.20889	-0.58755	0.59546	30.6	13111	100
2025-3-27 20:36:57.32	WT901BLE68-01(48591DE3C19B)	-0.304	-0.621	0.218	-28.625	-60.059	19.287	-77.23	19.55	-112.89	-41.160	-35.084	-3.136	-0.50641	0.20889	-0.58755	0.59546	30.6	13111	100
2025-3-27 20:36:57.32	WT901BLE68-01(48591DE3C19B)	-0.304	-0.492	0.217	-18.555	-32.227	22.583	-77.27	19.70	-112.40	-41.160	-35.084	-3.136	-0.50641	0.20889	-0.58755	0.59546	30.6	13111	100
2025-3-27 20:36:57.91	WT901BLE68-01(48591DE3C19B)	-0.290	-0.492	0.217	-18.555	-32.227	22.583	-77.29	19.90	-112.05	-41.160	-35.084	-3.136	-0.50641	0.20889	-0.58755	0.59546	30.6	13111	100
2025-3-27 20:36:57.91	WT901BLE68-01(48591DE3C19B)	-0.290	-0.300	0.208	-11.292	-5.432	27.954	-77.32	20.15	-111.84	-41.160	-35.084	-3.136	-0.50641	0.20889	-0.58755	0.59546	30.6	13111	100
2025-3-27 20:36:57.91	WT901BLE68-01(48591DE3C19B)	-0.230	-0.300	0.208	-11.292	-5.432	27.954	-77.35	20.47	-111.77	-41.160	-35.084	-3.136	-0.50641	0.20889	-0.58755	0.59546	30.6	13111	100
2025-3-27 20:36:57.91	WT901BLE68-01(48591DE3C19B)	-0.230	-0.096	0.202	-8.606	12.573	39.124	-77.39	20.85	-111.79	-41.160	-35.084	-3.136	-0.50641	0.20889	-0.58755	0.59546	30.6	13111	100
2025-3-27 20:36:57.121	WT901BLE68-01(48591DE3C19B)	-0.224	-0.096	0.202	-8.606	12.573	39.124	-77.44	21.31	-111.90	-41.160	-35.084	-3.136	-0.50641	0.20889	-0.58755	0.59546	30.6	13111	100
2025-3-27 20:36:57.122	WT901BLE68-01(48591DE3C19B)	-0.224	-0.018	0.196	-17.090	10.315	47.180	-77.54	21.85	-111.99	-41.160	-35.084	-3.136	-0.50641	0.20889	-0.58755	0.59546	30.6	13111	100
2025-3-27 20:36:57.122	WT901BLE68-01(48591DE3C19B)	-0.269	-0.018	0.196	-17.090	10.315	47.180	-77.63	22.38	-112.09	-41.160	-35.084	-3.136	-0.50641	0.20889	-0.58755	0.59546	30.6	13111	100
2025-3-27 20:36:57.122	WT901BLE68-01(48591DE3C19B)	-0.269	-0.111	0.181	-30.518	-12.451	47.668	-77.76	22.87	-111.97	-41.160	-35.084	-3.136	-0.50641	0.20889	-0.58755	0.59546	30.6	13111	100
2025-3-27 20:36:57.180	WT901BLE68-01(48591DE3C19B)	-0.322	-0.111	0.181	-30.518	-12.451	47.668	-77.88	23.37	-111.87	-41.160	-35.084	-3.136	-0.50641	0.20889	-0.58755	0.59546	30.6	13111	100
2025-3-27 20:36:57.180	WT901BLE68-01(48591DE3C19B)	-0.322	-0.397	0.156	-46.387	-46.570	40.588	-78.01	23.72	-111.42	-45.374	-38.612	1.372	-0.50641	0.20889	-0.58755	0.59546	30.6	13111	100
2025-3-27 20:36:57.180	WT901BLE68-01(48591DE3C19B)	-0.382	-0.397	0.156	-46.387	-46.570	40.588	-78.13	24.08	-110.97	-45.374	-38.612	1.372	-0.50641	0.20889	-0.58755	0.59546	30.6	13111	100
2025-3-27 20:36:57.180	WT901BLE68-01(48591DE3C19B)	-0.382	-0.815	0.114	-57.495	-81.299	31.067	-78.24	24.26	-110.14	-45.374	-38.612	1.372	-0.50641	0.20889	-0.58755	0.59546	30.6	13111	100
2025-3-27 20:36:57.210	WT901BLE68-01(48591DE3C19B)	-0.490	-0.815	0.114	-57.495	-81.299	31.067	-78.37	24.45	-109.29	-45.374	-38.612	1.372	-0.50641	0.20889	-0.58755	0.59546	30.6	13111	100
2025-3-27 20:36:57.210	WT901BLE68-01(48591DE3C19B)	-0.490	-1.563	0.063	-64.941	-103.149	19.470	-78.50	24.47	-108.18	-45.374	-38.612	1.372	-0.50641	0.20889	-0.58755	0.59546	30.6	13111	100
2025-3-27 20:36:57.210	WT901BLE68-01(48591DE3C19B)	-0.504	-1.563	0.063	-64.941	-103.149	19.470	-78.66	24.48	-107.03	-45.374	-38.612	1.372	-0.50641	0.20889	-0.58755	0.59546	30.6	13111	100
2025-3-27 20:36:57.210	WT901BLE68-01(48591DE3C19B)	-0.504	-2.497	-0.037	-38.574	-104.797	-1.526	-78.58	24.26	-105.88	-45.374	-38.612	1.372	-0.50641	0.20889	-0.58755	0.59546	30.6	13111	100
2025-3-27 20:36:57.240	WT901BLE68-01(48591DE3C19B)	-0.494	-2.497	-0.037	-38.574	-104.797	-1.526	-78.53	24.02	-104.70	-45.374	-38.612	1.372	-0.50641	0.20889	-0.58755	0.59546	30.6	13111	100
2025-3-27 20:36:57.240	WT901BLE68-01(48591DE3C19B)	-0.494	-2.479	0.038	12.146	-99.060	3.967	-78.00	23.82	-103.57	-45.374	-38.612	1.372	-0.50641	0.20889	-0.58755	0.59546	30.6	13111	100
2025-3-27 20:36:57.240	WT901BLE68-01(48591DE3C19B)	-0.375	-2.479	0.038	12.146	-99.060	3.967	-77.49	23.62	-102.45	-45.374	-38.612	1.372	-0.50641	0.20889	-0.58755	0.59546	30.6	13111	100
2025-3-27 20:36:57.240	WT901BLE68-01(48591DE3C19B)	-0.375	-1.805	0.143	16.602	-73.364	1.465	-77.06	23.43	-101.61	-45.374	-38.612	1.372	-0.50641	0.20889	-0.58755	0.59546	30.6	13111	100
2025-3-27 20:36:57.300	WT901BLE68-01(48591DE3C19B)	-0.169	-1.805	0.143	16.602	-73.364	1.465	-76.63	23.23	-100.78	-45.374	-38.612	1.372	-0.50641	0.20889	-0.58755	0.59546	30.6	13111	100
2025-3-27 20:36:57.300	WT901BLE68-01(48591DE3C19B)	-0.169	-1.678	0.176	17.395	-29.724	10.132	-76.37	23.21	-100.39	-45.374	-38.612	1.372	-0.50641	0.20889	-0.58755	0.59546	30.6	13111	100
2025-3-27 20:36:57.301	WT901BLE68-01(48591DE3C19B)	-0.013	-1.678	0.176	17.395	-29.724	10.132	-76.11	23.18	-100.01	-45.374	-38.612	1.372	-0.50641	0.20889	-0.58755	0.59546	30.6	13111	100
2025-3-27 20:36:57.301	WT901BLE68-01(48591DE3C19B)	-0.013	-1.318	0.230	22.888	22.034	19.531	-76.00	23.36	-100.15	-45.374	-38.612	1.372	-0.50641	0.20889	-0.58755	0.59546	30.6	13111	100
2025-3-27 20:36:57.360	WT901BLE68-01(48591DE3C19B)	0.011	-1.318	0.230	22.888	22.034	19.531	-75.89	23.53	-100.28	-45.374	-38.612	1.372	-0.50641	0.20889	-0.58755	0.59546	30.6	13111	100
2025-3-27 20:36:57.360	WT901BLE68-01(48591DE3C19B)	0.011	-0.919	0.250	22.095	58.899	25.574	-75.94	23.85	-100.80	-45.374	-38.612	1.372	-0.50641	0.20889	-0.58755	0.59546	30.6	13111	100
2025-3-27 20:36:57.360	WT901BLE68-01(48591DE3C19B)	-0.121	-0.919	0.250	22.095	58.899	25.574	-75.99	24.15	-101.31	-45.374	-38.612	1.372	-0.50641	0.20889	-0.58755	0.59546	30.6	13111	100
2025-3-27 20:36:57.360	WT901BLE68-01(48591DE3C19B)	-0.121	-0.646	0.246	15.747	62.866	14.099	-76.12	24.36	-101.90	-45.374	-38.612	1.372	-0.50641	0.20889	-0.58755	0.59546	30.6	13111	100
2025-3-27 20:36:57.361	WT901BLE68-01(48591DE3C19B)	-0.195	-0.646	0.246	15.747	62.866	14.099	-76.25	24.55	-102.49	-45.374	-38.612	1.372	-0.50641	0.20889	-0.58755	0.59546	30.6	13111	100
2025-3-27 20:36:57.362	WT901BLE68-01(48591DE3C19B)	-0.195	-0.550	0.219	8.606	51.453	7.507	-76.41	24.66	-102.97	-45.374	-38.612	1.372	-0.50641	0.20889	-0.58755	0.59546	30.6	13111	100
2025-3-27 20:36:57.362	WT901BLE68-01(48591DE3C19B)	-0.224	-0.550	0.219	8.606	51.453	7.507	-76.56	24.77	-103.45	-45.374	-38.612	1.372	-0.57794	0.24146	-0.58038	0.52029	30.6	13111	100
2025-3-27 20:36:57.362	WT901BLE68-01(48591DE3C19B)	-0.224	-0.561	0.167	8.789	54.871	2.930	-76.73	24.85	-103.99	-45.374	-38.612	1.372	-0.57794	0.24146	-0.58038	0.52029	30.6	13111	100
2025-3-27 20:36:57.420	WT901BLE68-01(48591DE3C19B)	-0.308	-0.561	0.167	8.789	54.871	2.930	-76.90	24.92	-104.51	-45.374	-38.612	1.372	-0.57794	0.24146	-0.58038	0.52029	30.6	13111	100
2025-3-27 20:36:57.420	WT901BLE68-01(48591DE3C19B)	-0.308	-0.572	0.128	18.066	62.500	-0.366	-77.01	24.99	-105.13	-45.374	-38.612	1.372	-0.57794	0.24146	-0.58038	0.52029	30.6	13111	100
2025-3-27 20:36:57.420	WT901BLE68-01(48591DE3C19B)	-0.383	-0.572	0.128	18.066	62.500	-0.366	-77.12	25.05	-105.75	-45.374	-38.612	1.372	-0.57794	0.24146	-0.58038	0.52029	30.6	13111	100
2025-3-27 20:36:57.420	WT901BLE68-01(48591DE3C19B)	-0.383	-0.527	0.103	26.184	54.382	0.061	-77.11	25.12	-106.28	-45.374	-38.612	1.372	-0.57794	0.24146	-0.58038	0.52029	30.6	13111	100
2025-3-27 20:36:57.449	WT901BLE68-01(48591DE3C19B)	-0.358	-0.527	0.103	26.184	54.382	0.061	-77.11	25.19	-106.80	-45.374	-38.612	1.372	-0.57794	0.24146	-0.58038	0.52029	30.6	13111	100
2025-3-27 20:36:57.449	WT901BLE68-01(48591DE3C19B)	-0.358	-0.445	0.090	30.701	35.400	2.319	-76.97	25.25	-107.12	-45.374	-38.612	1.372	-0.57794	0.24146	-0.58038	0.52029	30.6	13111	100
2025-3-27 20:36:57.449	WT901BLE68-01(48591DE3C19B)	-0.291	-0.445	0.090	30.701	35.400	2.319	-76.83	25.31	-107.42	-45.374	-38.612	1.372	-0.57794	0.24146	-0.58038	0.52029	30.6	13111	100
2025-3-27 20:36:57.449	WT901BLE68-01(48591DE3C19B)	-0.291	-0.366	0.090	33.752	21.179	4.944	-76.60	25.38	-107.58	-45.374	-38.612	1.372	-0.57794	0.24146	-0.58038	0.52029	30.6	13111	100
2025-3-27 20:36:57.480	WT901BLE68-01(48591DE3C19B)	-0.260	-0.366	0.090	33.752	21.179	4.944	-76.37	25.45	-107.73	-45.374	-38.612	1.372	-0.57794	0.24146	-0.58038	0.52029	30.6	13111	100
2025-3-27 20:36:57.480	WT901BLE68-01(48591DE3C19B)	-0.260	-0.322	0.100	34.790	14.038	13.245	-76.08	25.59	-107.79	-45.374	-38.612	1.372	-0.57794	0.24146	-0.58038	0.52029	30.6	13111	100
2025-3-27 20:36:57.480	WT901BLE68-01(48591DE3C19B)	-0.251	-0.322	0.100	34.790	14.038	13.245	-75.80	25.74	-107.84	-45.374	-38.612	1.372	-0.57794	0.24146	-0.58038	0.52029	30.6	13111	100
2025-3-27 20:36:57.480	WT901BLE68-01(48591DE3C19B)	-0.251	-0.393	0.095	27.649	11.353	20.447	-75.56	25.96	-107.85	-45.374	-38.612	1.372	-0.57794	0.24146	-0.58038	0.52029	30.6	13111	100
2025-3-27 20:36:57.540	WT901BLE68-01(48591DE3C19B)	-0.232	-0.393	0.095	27.649	11.353	20.447	-75.33	26.17	-107.86	-45.374	-38.612	1.372	-0.57794	0.24146	-0.58038	0.52029	30.6	13111	100
2025-3-27 20:36:57.540	WT901BLE68-01(48591DE3C19B)	-0.232	-0.594	0.083	20.203	15.320	22.766	-75.19	26.42	-107.90	-45.374	-38.612	1.372	-0.57794	0.24146	-0.58038	0.52029	30.6	13111	100
2025-3-27 20:36:57.540	WT901BLE68-01(48591DE3C19B)	-0.301	-0.594	0.083	20.203	15.320	22.766	-75.05	26.66	-107.94	-45.374	-38.612	1.372	-0.57794	0.24146	-0.58038	0.52029	30.6	13111	100
2025-3-27 20:36:57.540	WT901BLE68-01(48591DE3C19B)	-0.301	-0.879	0.116	13.428	28.381	17.090	-75.06	26.88	-108.13	-45.374	-38.612	1.372	-0.57794	0.24146	-0.58038	0.52029	30.6	13111	100
2025-3-27 20:36:57.570	WT901BLE68-01(48591DE3C19B)	-0.484	-0.879	0.116	13.428	28.381	17.090	-75.06	27.09	-108.31	-50.470	-45.766	5.684	-0.57794	0.24146	-0.58038	0.52029	30.6	13111	100
2025-3-27 20:36:57.570	WT901BLE68-01(48591DE3C19B)	-0.680	-1.292	0.226	8.972	34.973	0.488	-75.17	27.15	-108.61	-50.470	-45.766	5.684	-0.57794	0.24146	-0.58038	0.52029	30.6	13111	100
2025-3-27 20:36:57.570	WT901BLE68-01(48591DE3C19B)	-0.680	-1.678	0.353	15.503	32.532	-25.513	-75.26	27.08	-108.93	-50.470	-45.766	5.684	-0.57794	0.24146	-0.58038	0.52029	30.6	13111	100
2025-3-27 20:36:57.570	WT901BLE68-01(48591DE3C19B)	-0.779	-1.678	0.353	15.503	32.532	-25.513	-75.32	26.89	-109.27	-50.470	-45.766	5.684	-0.57794	0.24146	-0.58038	0.52029	30.6	13111	100
2025-3-27 20:36:57.630	WT901BLE68-01(48591DE3C19B)	-0.779	-1.730	0.459	18.311	28.992	-34.241	-75.35	26.65	-109.61	-50.470	-45.766	5.684	-0.57794	0.24146	-0.58038	0.52029	30.6	13111	100
2025-3-27 20:36:57.630	WT901BLE68-01(48591DE3C19B)	-0.831	-1.730	0.459	18.311	28.992	-34.241	-75.37	26.36	-109.93	-50.470	-45.766	5.684	-0.57794	0.24146	-0.58038	0.52029	30.6	13111	100
2025-3-27 20:36:57.630	WT901BLE68-01(48591DE3C19B)	-0.831	-1.595	0.503	18.188	35.645	-46.570	-75.40	26.03	-110.32	-50.470	-45.766	5.684	-0.57794	0.24146	-0.58038	0.52029	30.6	13111	100
2025-3-27 20:36:57.630	WT901BLE68-01(48591DE3C19B)	-0.772	-1.595	0.503	18.188	35.645	-46.570	-75.45	25.65	-110.77	-50.470	-45.766	5.684	-0.57794	0.24146	-0.58038	0.52029	30.6	13111	100
2025-3-27 20:36:57.659	WT901BLE68-01(48591DE3C19B)	-0.772	-1.318	0.516	16.418	43.396	-44.800	-75.52	25.30	-111.25	-50.470	-45.766	5.684	-0.57794	0.24146	-0.58038	0.52029	30.6	13111	100
2025-3-27 20:36:57.659	WT901BLE68-01(48591DE3C19B)	-0.688	-1.318	0.516	16.418	43.396	-44.800	-75.60	24.97	-111.79	-50.470	-45.766	5.684	-0.57794	0.24146	-0.58038	0.52029	30.6	13111	100
2025-3-27 20:36:57.659	WT901BLE68-01(48591DE3C19B)	-0.688	-0.998	0.490	9.583	34.607	-39.001	-75.69	24.66	-112.27	-50.470	-45.766	5.684	-0.57794	0.24146	-0.58038	0.52029	30.6	13111	100
2025-3-27 20:36:57.659	WT901BLE68-01(48591DE3C19B)	-0.571	-0.998	0.490	9.583	34.607	-39.001	-75.78	24.37	-112.71	-50.470	-45.766	5.684	-0.57794	0.24146	-0.58038	0.52029	30.6	13111	100
2025-3-27 20:36:57.690	WT901BLE68-01(48591DE3C19B)	-0.571	-0.750	0.416	-0.610	6.714	-29.724	-75.84	24.10	-112.99	-50.470	-45.766	5.684	-0.57794	0.24146	-0.58038	0.52029	30.6	13111	100
2025-3-27 20:36:57.690	WT901BLE68-01(48591DE3C19B)	-0.485	-0.750	0.416	-0.610	6.714	-29.724	-75.89	23.85	-113.14	-50.470	-45.766	5.684	-0.57794	0.24146	-0.58038	0.52029	30.6	13111	100
2025-3-27 20:36:57.690	WT901BLE68-01(48591DE3C19B)	-0.485	-0.657	0.334	-11.353	-26.733	-22.461	-75.90	23.59	-113.10	-50.470	-45.766	5.684	-0.57794	0.24146	-0.58038	0.52029	30.6	13111	100
2025-3-27 20:36:57.690	WT901BLE68-01(48591DE3C19B)	-0.429	-0.657	0.334	-11.353	-26.733	-22.461	-75.90	23.33	-112.89	-50.470	-45.766	5.684	-0.57794	0.24146	-0.58038	0.52029	30.6	13111	100
2025-3-27 20:36:57.722	WT901BLE68-01(48591DE3C19B)	-0.429	-0.717	0.246	-13.184	-39.978	-16.785	-75.87	23.09	-112.61	-50.470	-45.766	5.684	-0.57794	0.24146	-0.58038	0.52029	30.6	13111	100
2025-3-27 20:36:57.722	WT901BLE68-01(48591DE3C19B)	-0.414	-0.717	0.246	-13.184	-39.978	-16.785	-75.82	22.86	-112.26	-50.470	-45.766	5.684	-0.57794	0.24146	-0.58038	0.52029	30.6	13111	100
2025-3-27 20:36:57.722	WT901BLE68-01(48591DE3C19B)	-0.414	-0.750	0.167	-1.831	-24.170	-12.146	-75.75	22.68	-111.98	-50.470	-45.766	5.684	-0.57794	0.24146	-0.58038	0.52029	30.6	13111	100
2025-3-27 20:36:57.722	WT901BLE68-01(48591DE3C19B)	-0.431	-0.750	0.167	-1.831	-24.170	-12.146	-75.65	22.53	-111.78	-50.470	-45.766	5.684	-0.57794	0.24146	-0.58038	0.52029	30.6	13111	100
2025-3-27 20:36:57.841	WT901BLE68-01(48591DE3C19B)	-0.431	-0.684	0.125	8.972	2.991	-11.597	-75.56	22.43	-111.71	-50.470	-45.766	5.684	-0.57794	0.24146	-0.58038	0.52029	30.6	13111	100
2025-3-27 20:36:57.841	WT901BLE68-01(48591DE3C19B)	-0.444	-0.684	0.125	8.972	2.991	-11.597	-75.48	22.36	-111.79	-50.470	-45.766	5.684	-0.53305	0.20953	-0.58289	0.57626	30.6	13111	100
2025-3-27 20:36:57.841	WT901BLE68-01(48591DE3C19B)	-0.444	-0.604	0.125	14.771	28.992	-14.160	-75.42	22.32	-111.99	-50.470	-45.766	5.684	-0.53305	0.20953	-0.58289	0.57626	30.6	13111	100
2025-3-27 20:36:57.841	WT901BLE68-01(48591DE3C19B)	-0.477	-0.604	0.125	14.771	28.992	-14.160	-75.38	22.30	-112.33	-50.470	-45.766	5.684	-0.53305	0.20953	-0.58289	0.57626	30.6	13111	100
2025-3-27 20:36:57.842	WT901BLE68-01(48591DE3C19B)	-0.477	-0.561	0.146	17.639	46.265	-16.113	-75.38	22.29	-112.76	-50.470	-45.766	5.684	-0.53305	0.20953	-0.58289	0.57626	30.6	13111	100
2025-3-27 20:36:57.842	WT901BLE68-01(48591DE3C19B)	-0.513	-0.561	0.146	17.639	46.265	-16.113	-75.39	22.30	-113.29	-50.470	-45.766	5.684	-0.53305	0.20953	-0.58289	0.57626	30.6	13111	100
2025-3-27 20:36:57.842	WT901BLE68-01(48591DE3C19B)	-0.513	-0.539	0.178	17.273	48.401	-15.564	-75.41	22.32	-113.82	-50.470	-45.766	5.684	-0.53305	0.20953	-0.58289	0.57626	30.6	13111	100
2025-3-27 20:36:57.842	WT901BLE68-01(48591DE3C19B)	-0.529	-0.539	0.178	17.273	48.401	-15.564	-75.43	22.36	-114.38	-50.470	-45.766	5.684	-0.53305	0.20953	-0.58289	0.57626	30.6	13111	100
2025-3-27 20:36:57.842	WT901BLE68-01(48591DE3C19B)	-0.529	-0.518	0.200	15.381	40.222	-12.756	-75.45	22.40	-114.90	-50.470	-45.766	5.684	-0.53305	0.20953	-0.58289	0.57626	30.6	13111	100
2025-3-27 20:36:57.842	WT901BLE68-01(48591DE3C19B)	-0.519	-0.518	0.200	15.381	40.222	-12.756	-75.45	22.44	-115.39	-50.470	-45.766	5.684	-0.53305	0.20953	-0.58289	0.57626	30.6	13111	100
2025-3-27 20:36:57.843	WT901BLE68-01(48591DE3C19B)	-0.519	-0.490	0.196	13.123	30.701	-6.897	-75.43	22.51	-115.85	-50.470	-45.766	5.684	-0.53305	0.20953	-0.58289	0.57626	30.6	13111	100
2025-3-27 20:36:57.843	WT901BLE68-01(48591DE3C19B)	-0.488	-0.490	0.196	13.123	30.701	-6.897	-75.40	22.59	-116.26	-50.470	-45.766	5.684	-0.53305	0.20953	-0.58289	0.57626	30.6	13111	100
2025-3-27 20:36:57.900	WT901BLE68-01(48591DE3C19B)	-0.488	-0.426	0.180	9.521	24.292	4.700	-75.37	22.73	-116.66	-50.470	-45.766	5.684	-0.53305	0.20953	-0.58289	0.57626	30.6	13111	100
2025-3-27 20:36:57.900	WT901BLE68-01(48591DE3C19B)	-0.438	-0.426	0.180	9.521	24.292	4.700	-75.33	22.92	-117.04	-50.470	-45.766	5.684	-0.53305	0.20953	-0.58289	0.57626	30.6	13111	100
2025-3-27 20:36:57.900	WT901BLE68-01(48591DE3C19B)	-0.438	-0.363	0.159	1.770	17.273	20.142	-75.30	23.17	-117.41	-50.470	-45.766	5.684	-0.53305	0.20953	-0.58289	0.57626	30.6	13111	100
2025-3-27 20:36:57.900	WT901BLE68-01(48591DE3C19B)	-0.403	-0.363	0.159	1.770	17.273	20.142	-75.27	23.49	-117.74	-50.470	-45.766	5.684	-0.53305	0.20953	-0.58289	0.57626	30.6	13111	100
2025-3-27 20:36:57.932	WT901BLE68-01(48591DE3C19B)	-0.403	-0.409	0.134	-12.695	6.409	34.119	-75.29	23.86	-118.03	-50.470	-45.766	5.684	-0.53305	0.20953	-0.58289	0.57626	30.6	13111	100
2025-3-27 20:36:57.932	WT901BLE68-01(48591DE3C19B)	-0.468	-0.409	0.134	-12.695	6.409	34.119	-75.34	24.29	-118.25	-50.470	-45.766	5.684	-0.53305	0.20953	-0.58289	0.57626	30.6	13111	100
2025-3-27 20:36:57.932	WT901BLE68-01(48591DE3C19B)	-0.468	-0.663	0.142	-30.762	-10.376	41.260	-75.45	24.72	-118.38	-50.470	-45.766	5.684	-0.53305	0.20953	-0.58289	0.57626	30.6	13111	100
2025-3-27 20:36:57.932	WT901BLE68-01(48591DE3C19B)	-0.634	-0.663	0.142	-30.762	-10.376	41.260	-75.61	25.16	-118.39	-50.470	-45.766	5.684	-0.53305	0.20953	-0.58289	0.57626	30.6	13111	100
2025-3-27 20:36:57.962	WT901BLE68-01(48591DE3C19B)	-0.634	-1.021	0.209	-45.959	-44.312	36.316	-75.78	25.54	-118.17	-50.470	-45.766	5.684	-0.53305	0.20953	-0.58289	0.57626	30.6	13111	100
2025-3-27 20:36:57.962	WT901BLE68-01(48591DE3C19B)	-0.764	-1.021	0.209	-45.959	-44.312	36.316	-75.96	25.86	-117.72	-50.470	-45.766	5.684	-0.53305	0.20953	-0.58289	0.57626	30.6	13111	100
2025-3-27 20:36:57.962	WT901BLE68-01(48591DE3C19B)	-0.764	-1.483	0.345	-47.485	-84.290	25.940	-76.07	26.07	-117.00	-46.452	-51.940	9.506	-0.53305	0.20953	-0.58289	0.57626	30.6	13111	100
2025-3-27 20:36:57.962	WT901BLE68-01(48591DE3C19B)	-0.816	-1.483	0.345	-47.485	-84.290	25.940	-76.11	26.16	-116.03	-46.452	-51.940	9.506	-0.53305	0.20953	-0.58289	0.57626	30.6	13111	100
2025-3-27 20:36:58.20	WT901BLE68-01(48591DE3C19B)	-0.816	-1.882	0.425	-34.363	-110.474	13.855	-76.03	26.16	-114.91	-46.452	-51.940	9.506	-0.53305	0.20953	-0.58289	0.57626	30.6	13111	100
2025-3-27 20:36:58.20	WT901BLE68-01(48591DE3C19B)	-0.713	-1.882	0.425	-34.363	-110.474	13.855	-75.83	26.06	-113.64	-46.452	-51.940	9.506	-0.53305	0.20953	-0.58289	0.57626	30.6	13111	100
2025-3-27 20:36:58.20	WT901BLE68-01(48591DE3C19B)	-0.713	-2.005	0.318	-15.808	-116.760	22.339	-75.52	25.98	-112.31	-46.452	-51.940	9.506	-0.53305	0.20953	-0.58289	0.57626	30.6	13111	100
2025-3-27 20:36:58.20	WT901BLE68-01(48591DE3C19B)	-0.443	-2.005	0.318	-15.808	-116.760	22.339	-75.11	25.91	-110.93	-46.452	-51.940	9.506	-0.53305	0.20953	-0.58289	0.57626	30.6	13111	100
2025-3-27 20:36:58.49	WT901BLE68-01(48591DE3C19B)	-0.443	-1.766	0.218	-0.793	-81.848	27.649	-74.72	25.97	-109.90	-46.452	-51.940	9.506	-0.53305	0.20953	-0.58289	0.57626	30.6	13111	100
2025-3-27 20:36:58.49	WT901BLE68-01(48591DE3C19B)	-0.331	-1.766	0.218	-0.793	-81.848	27.649	-74.33	26.00	-108.86	-46.452	-51.940	9.506	-0.53305	0.20953	-0.58289	0.57626	30.6	13111	100
2025-3-27 20:36:58.49	WT901BLE68-01(48591DE3C19B)	-0.331	-1.598	0.173	2.197	-29.968	36.804	-74.15	26.26	-108.34	-46.452	-51.940	9.506	-0.53305	0.20953	-0.58289	0.57626	30.6	13111	100
2025-3-27 20:36:58.49	WT901BLE68-01(48591DE3C19B)	-0.277	-1.598	0.173	2.197	-29.968	36.804	-73.96	26.50	-107.82	-46.452	-51.940	9.506	-0.53305	0.20953	-0.58289	0.57626	30.6	13111	100
2025-3-27 20:36:58.80	WT901BLE68-01(48591DE3C19B)	-0.277	-1.372	0.213	8.179	11.719	45.898	-73.91	26.93	-107.72	-46.452	-51.940	9.506	-0.53305	0.20953	-0.58289	0.57626	30.6	13111	100
2025-3-27 20:36:58.80	WT901BLE68-01(48591DE3C19B)	-0.243	-1.372	0.213	8.179	11.719	45.898	-73.84	27.36	-107.61	-46.452	-51.940	9.506	-0.53305	0.20953	-0.58289	0.57626	30.6	13111	100
2025-3-27 20:36:58.80	WT901BLE68-01(48591DE3C19B)	-0.243	-1.126	0.292	3.052	33.508	56.763	-73.93	27.94	-107.70	-46.452	-51.940	9.506	-0.53305	0.20953	-0.58289	0.57626	30.6	13111	100
2025-3-27 20:36:58.80	WT901BLE68-01(48591DE3C19B)	-0.276	-1.126	0.292	3.052	33.508	56.763	-74.01	28.52	-107.80	-46.452	-51.940	9.506	-0.53305	0.20953	-0.58289	0.57626	30.6	13111	100
2025-3-27 20:36:58.142	WT901BLE68-01(48591DE3C19B)	-0.276	-1.059	0.312	-5.310	36.377	56.396	-74.20	29.10	-107.94	-46.452	-51.940	9.506	-0.53305	0.20953	-0.58289	0.57626	30.6	13111	100
2025-3-27 20:36:58.142	WT901BLE68-01(48591DE3C19B)	-0.287	-1.059	0.312	-5.310	36.377	56.396	-74.38	29.66	-108.09	-46.452	-51.940	9.506	-0.53305	0.20953	-0.58289	0.57626	30.6	13111	100
2025-3-27 20:36:58.142	WT901BLE68-01(48591DE3C19B)	-0.287	-1.037	0.264	-3.967	40.649	54.443	-74.57	30.22	-108.30	-46.452	-51.940	9.506	-0.53305	0.20953	-0.58289	0.57626	30.6	13111	100
2025-3-27 20:36:58.142	WT901BLE68-01(48591DE3C19B)	-0.334	-1.037	0.264	-3.967	40.649	54.443	-74.77	30.77	-108.51	-46.452	-51.940	9.506	-0.53305	0.20953	-0.58289	0.57626	30.6	13111	100
2025-3-27 20:36:58.172	WT901BLE68-01(48591DE3C19B)	-0.334	-0.944	0.218	-2.380	46.326	46.692	-75.00	31.26	-108.80	-46.452	-51.940	9.506	-0.53305	0.20953	-0.58289	0.57626	30.6	13111	100
2025-3-27 20:36:58.172	WT901BLE68-01(48591DE3C19B)	-0.352	-0.944	0.218	-2.380	46.326	46.692	-75.23	31.75	-109.11	-46.452	-51.940	9.506	-0.53305	0.20953	-0.58289	0.57626	30.6	13111	100
2025-3-27 20:36:58.172	WT901BLE68-01(48591DE3C19B)	-0.352	-0.817	0.192	-1.221	52.734	38.330	-75.50	32.17	-109.51	-46.452	-51.940	9.506	-0.53305	0.20953	-0.58289	0.57626	30.6	13111	100
2025-3-27 20:36:58.172	WT901BLE68-01(48591DE3C19B)	-0.434	-0.817	0.192	-1.221	52.734	38.330	-75.78	32.59	-109.92	-46.452	-51.940	9.506	-0.57593	0.15714	-0.60974	0.52127	30.6	13111	100
2025-3-27 20:36:58.202	WT901BLE68-01(48591DE3C19B)	-0.434	-0.727	0.184	-2.991	51.392	31.189	-76.08	32.93	-110.34	-46.452	-51.940	9.506	-0.57593	0.15714	-0.60974	0.52127	30.6	13111	100
2025-3-27 20:36:58.202	WT901BLE68-01(48591DE3C19B)	-0.470	-0.727	0.184	-2.991	51.392	31.189	-76.38	33.27	-110.76	-46.452	-51.940	9.506	-0.57593	0.15714	-0.60974	0.52127	30.6	13111	100
2025-3-27 20:36:58.202	WT901BLE68-01(48591DE3C19B)	-0.470	-0.678	0.176	-6.470	32.532	24.719	-76.61	33.51	-110.99	-46.452	-51.940	9.506	-0.57593	0.15714	-0.60974	0.52127	30.6	13111	100
2025-3-27 20:36:58.202	WT901BLE68-01(48591DE3C19B)	-0.437	-0.678	0.176	-6.470	32.532	24.719	-76.84	33.76	-111.22	-46.452	-51.940	9.506	-0.57593	0.15714	-0.60974	0.52127	30.6	13111	100
2025-3-27 20:36:58.260	WT901BLE68-01(48591DE3C19B)	-0.437	-0.654	0.179	-10.254	8.789	19.531	-76.96	33.90	-111.19	-46.452	-51.940	9.506	-0.57593	0.15714	-0.60974	0.52127	30.6	13111	100
2025-3-27 20:36:58.260	WT901BLE68-01(48591DE3C19B)	-0.407	-0.654	0.179	-10.254	8.789	19.531	-77.09	34.05	-111.17	-46.452	-51.940	9.506	-0.57593	0.15714	-0.60974	0.52127	30.6	13111	100
2025-3-27 20:36:58.260	WT901BLE68-01(48591DE3C19B)	-0.407	-0.655	0.180	-13.062	-12.207	14.771	-77.10	34.11	-110.92	-46.452	-51.940	9.506	-0.57593	0.15714	-0.60974	0.52127	30.6	13111	100
2025-3-27 20:36:58.260	WT901BLE68-01(48591DE3C19B)	-0.405	-0.655	0.180	-13.062	-12.207	14.771	-77.12	34.16	-110.68	-46.452	-51.940	9.506	-0.57593	0.15714	-0.60974	0.52127	30.6	13111	100
2025-3-27 20:36:58.290	WT901BLE68-01(48591DE3C19B)	-0.405	-0.711	0.180	-13.916	-28.198	11.658	-77.05	34.16	-110.26	-46.452	-51.940	9.506	-0.57593	0.15714	-0.60974	0.52127	30.6	13111	100
2025-3-27 20:36:58.291	WT901BLE68-01(48591DE3C19B)	-0.386	-0.711	0.180	-13.916	-28.198	11.658	-76.98	34.16	-109.85	-46.452	-51.940	9.506	-0.57593	0.15714	-0.60974	0.52127	30.6	13111	100
2025-3-27 20:36:58.291	WT901BLE68-01(48591DE3C19B)	-0.386	-0.760	0.172	-11.597	-38.513	8.728	-76.82	34.10	-109.33	-46.452	-51.940	9.506	-0.57593	0.15714	-0.60974	0.52127	30.6	13111	100
2025-3-27 20:36:58.291	WT901BLE68-01(48591DE3C19B)	-0.331	-0.760	0.172	-11.597	-38.513	8.728	-76.66	34.05	-108.81	-46.452	-51.940	9.506	-0.57593	0.15714	-0.60974	0.52127	30.6	13111	100
2025-3-27 20:36:58.322	WT901BLE68-01(48591DE3C19B)	-0.331	-0.774	0.165	-6.470	-30.640	6.226	-76.51	33.99	-108.40	-46.452	-51.940	9.506	-0.57593	0.15714	-0.60974	0.52127	30.6	13111	100
2025-3-27 20:36:58.322	WT901BLE68-01(48591DE3C19B)	-0.321	-0.774	0.165	-6.470	-30.640	6.226	-76.37	33.92	-107.99	-46.452	-51.940	9.506	-0.57593	0.15714	-0.60974	0.52127	30.6	13111	100
2025-3-27 20:36:58.322	WT901BLE68-01(48591DE3C19B)	-0.321	-0.774	0.167	-0.427	-10.498	2.625	-76.29	33.87	-107.83	-46.452	-51.940	9.506	-0.57593	0.15714	-0.60974	0.52127	30.6	13111	100
2025-3-27 20:36:58.322	WT901BLE68-01(48591DE3C19B)	-0.374	-0.774	0.167	-0.427	-10.498	2.625	-76.23	33.82	-107.66	-46.452	-51.940	9.506	-0.57593	0.15714	-0.60974	0.52127	30.6	13111	100
