time	DeviceName	AccX(g)	AccY(g)	AccZ(g)	AsX(°/s)	AsY(°/s)	AsZ(°/s)	AngleX(°)	AngleY(°)	AngleZ(°)	HX(uT)	HY(uT)	HZ(uT)	Q0()	Q1()	Q2()	Q3()	Temperature(°C)	Version()	Battery level(%)
2025-3-27 20:27:47.154	WT901BLE68-01(48591DE3C19B)	-0.342	-0.909	0.241	-0.183	-1.160	-1.221	-76.16	20.45	-23.10	-52.038	-30.968	79.478	-0.78046	0.56723	-0.25864	0.04608	30.3	13111	100
2025-3-27 20:27:47.154	WT901BLE68-01(48591DE3C19B)	-0.342	-0.915	0.243	-0.061	-1.709	-1.587	-76.15	20.42	-23.10	-52.038	-30.968	79.478	-0.78046	0.56723	-0.25864	0.04608	30.3	13111	100
2025-3-27 20:27:47.154	WT901BLE68-01(48591DE3C19B)	-0.338	-0.915	0.243	-0.061	-1.709	-1.587	-76.14	20.40	-23.10	-52.038	-30.870	79.576	-0.78046	0.56723	-0.25864	0.04608	30.3	13111	100
2025-3-27 20:27:47.155	WT901BLE68-01(48591DE3C19B)	-0.338	-0.917	0.241	0.244	-1.587	-1.648	-76.12	20.38	-23.10	-52.038	-30.870	79.576	-0.78046	0.56723	-0.25864	0.04608	30.3	13111	100
2025-3-27 20:27:47.184	WT901BLE68-01(48591DE3C19B)	-0.336	-0.917	0.241	0.244	-1.587	-1.648	-76.11	20.36	-23.09	-52.038	-30.870	79.576	-0.78046	0.56723	-0.25864	0.04608	30.3	13111	100
2025-3-27 20:27:47.184	WT901BLE68-01(48591DE3C19B)	-0.336	-0.913	0.241	0.854	-0.549	-1.587	-76.10	20.34	-23.10	-52.038	-30.870	79.576	-0.78046	0.56723	-0.25864	0.04608	30.3	13111	100
2025-3-27 20:27:47.184	WT901BLE68-01(48591DE3C19B)	-0.334	-0.913	0.241	0.854	-0.549	-1.587	-76.09	20.32	-23.10	-52.038	-30.870	79.576	-0.78046	0.56723	-0.25864	0.04608	30.3	13111	100
2025-3-27 20:27:47.184	WT901BLE68-01(48591DE3C19B)	-0.334	-0.911	0.244	1.038	0.244	-1.099	-76.07	20.30	-23.12	-52.038	-30.870	79.576	-0.78046	0.56723	-0.25864	0.04608	30.3	13111	100
2025-3-27 20:27:47.245	WT901BLE68-01(48591DE3C19B)	-0.337	-0.911	0.244	1.038	0.244	-1.099	-76.06	20.29	-23.13	-52.038	-30.870	79.576	-0.78046	0.56723	-0.25864	0.04608	30.3	13111	100
2025-3-27 20:27:47.245	WT901BLE68-01(48591DE3C19B)	-0.337	-0.917	0.244	0.854	0.305	-0.854	-76.04	20.28	-23.15	-52.038	-30.870	79.576	-0.78046	0.56723	-0.25864	0.04608	30.3	13111	100
2025-3-27 20:27:47.245	WT901BLE68-01(48591DE3C19B)	-0.335	-0.917	0.244	0.854	0.305	-0.854	-76.03	20.26	-23.16	-52.038	-30.870	79.576	-0.78046	0.56723	-0.25864	0.04608	30.3	13111	100
2025-3-27 20:27:47.246	WT901BLE68-01(48591DE3C19B)	-0.335	-0.917	0.242	1.221	-0.427	-0.916	-76.01	20.25	-23.18	-52.038	-30.870	79.576	-0.78046	0.56723	-0.25864	0.04608	30.3	13111	100
2025-3-27 20:27:47.246	WT901BLE68-01(48591DE3C19B)	-0.329	-0.917	0.242	1.221	-0.427	-0.916	-76.00	20.24	-23.18	-52.038	-30.870	79.576	-0.78046	0.56723	-0.25864	0.04608	30.3	13111	100
2025-3-27 20:27:47.246	WT901BLE68-01(48591DE3C19B)	-0.329	-0.914	0.242	1.526	-0.793	-1.282	-75.98	20.23	-23.19	-52.038	-30.870	79.576	-0.78046	0.56723	-0.25864	0.04608	30.3	13111	100
2025-3-27 20:27:47.247	WT901BLE68-01(48591DE3C19B)	-0.322	-0.914	0.242	1.526	-0.793	-1.282	-75.96	20.21	-23.20	-52.038	-30.870	79.576	-0.78046	0.56723	-0.25864	0.04608	30.3	13111	100
2025-3-27 20:27:47.247	WT901BLE68-01(48591DE3C19B)	-0.322	-0.915	0.241	2.075	-0.610	-1.587	-75.93	20.19	-23.20	-52.038	-30.870	79.576	-0.78046	0.56723	-0.25864	0.04608	30.3	13111	100
2025-3-27 20:27:47.335	WT901BLE68-01(48591DE3C19B)	-0.316	-0.915	0.241	2.075	-0.610	-1.587	-75.90	20.17	-23.21	-52.038	-30.870	79.576	-0.78046	0.56723	-0.25864	0.04608	30.3	13111	100
2025-3-27 20:27:47.335	WT901BLE68-01(48591DE3C19B)	-0.316	-0.916	0.240	2.686	0.732	-1.892	-75.88	20.14	-23.23	-52.038	-30.870	79.576	-0.78046	0.56723	-0.25864	0.04608	30.3	13111	100
2025-3-27 20:27:47.335	WT901BLE68-01(48591DE3C19B)	-0.318	-0.916	0.240	2.686	0.732	-1.892	-75.86	20.12	-23.25	-52.038	-30.870	79.576	-0.78046	0.56723	-0.25864	0.04608	30.3	13111	100
2025-3-27 20:27:47.336	WT901BLE68-01(48591DE3C19B)	-0.318	-0.913	0.240	3.296	2.014	-2.136	-75.83	20.10	-23.28	-52.038	-30.870	79.576	-0.78046	0.56723	-0.25864	0.04608	30.3	13111	100
2025-3-27 20:27:47.337	WT901BLE68-01(48591DE3C19B)	-0.320	-0.913	0.240	3.296	2.014	-2.136	-75.80	20.08	-23.32	-52.038	-30.870	79.576	-0.78046	0.56723	-0.25864	0.04608	30.3	13111	100
2025-3-27 20:27:47.337	WT901BLE68-01(48591DE3C19B)	-0.320	-0.915	0.244	3.418	2.075	-2.563	-75.77	20.06	-23.36	-52.038	-30.870	79.576	-0.78046	0.56723	-0.25864	0.04608	30.3	13111	100
2025-3-27 20:27:47.337	WT901BLE68-01(48591DE3C19B)	-0.324	-0.915	0.244	3.418	2.075	-2.563	-75.75	20.03	-23.40	-52.038	-30.870	79.576	-0.78046	0.56723	-0.25864	0.04608	30.3	13111	100
2025-3-27 20:27:47.337	WT901BLE68-01(48591DE3C19B)	-0.324	-0.920	0.244	3.906	1.465	-2.625	-75.71	20.01	-23.43	-52.038	-30.870	79.576	-0.78046	0.56723	-0.25864	0.04608	30.3	13111	100
2025-3-27 20:27:47.374	WT901BLE68-01(48591DE3C19B)	-0.312	-0.920	0.244	3.906	1.465	-2.625	-75.68	19.98	-23.47	-52.038	-30.870	79.576	-0.78046	0.56723	-0.25864	0.04608	30.3	13111	100
2025-3-27 20:27:47.374	WT901BLE68-01(48591DE3C19B)	-0.312	-0.920	0.248	4.761	1.404	-2.441	-75.64	19.95	-23.51	-52.038	-30.870	79.576	-0.78046	0.56723	-0.25864	0.04608	30.3	13111	100
2025-3-27 20:27:47.374	WT901BLE68-01(48591DE3C19B)	-0.300	-0.920	0.248	4.761	1.404	-2.441	-75.60	19.92	-23.54	-52.038	-30.870	79.576	-0.78360	0.56284	-0.25702	0.05515	30.3	13111	100
2025-3-27 20:27:47.374	WT901BLE68-01(48591DE3C19B)	-0.300	-0.911	0.246	6.104	2.930	-1.648	-75.54	19.91	-23.58	-52.038	-30.870	79.576	-0.78360	0.56284	-0.25702	0.05515	30.3	13111	100
2025-3-27 20:27:47.425	WT901BLE68-01(48591DE3C19B)	-0.289	-0.911	0.246	6.104	2.930	-1.648	-75.49	19.90	-23.63	-52.038	-30.870	79.576	-0.78360	0.56284	-0.25702	0.05515	30.3	13111	100
2025-3-27 20:27:47.425	WT901BLE68-01(48591DE3C19B)	-0.289	-0.910	0.243	6.775	5.493	-0.610	-75.44	19.89	-23.70	-52.038	-30.870	79.576	-0.78360	0.56284	-0.25702	0.05515	30.3	13111	100
2025-3-27 20:27:47.425	WT901BLE68-01(48591DE3C19B)	-0.287	-0.910	0.243	6.775	5.493	-0.610	-75.39	19.89	-23.77	-52.038	-30.870	79.576	-0.78360	0.56284	-0.25702	0.05515	30.3	13111	100
2025-3-27 20:27:47.425	WT901BLE68-01(48591DE3C19B)	-0.287	-0.926	0.239	7.263	8.850	0.305	-75.35	19.91	-23.87	-52.038	-30.870	79.576	-0.78360	0.56284	-0.25702	0.05515	30.3	13111	100
2025-3-27 20:27:47.454	WT901BLE68-01(48591DE3C19B)	-0.289	-0.926	0.239	7.263	8.850	0.305	-75.31	19.92	-23.98	-52.038	-30.870	79.576	-0.78360	0.56284	-0.25702	0.05515	30.3	13111	100
2025-3-27 20:27:47.455	WT901BLE68-01(48591DE3C19B)	-0.289	-0.954	0.239	7.385	10.681	0.916	-75.27	19.95	-24.10	-52.038	-30.870	79.576	-0.78360	0.56284	-0.25702	0.05515	30.3	13111	100
2025-3-27 20:27:47.455	WT901BLE68-01(48591DE3C19B)	-0.287	-0.954	0.239	7.385	10.681	0.916	-75.23	19.97	-24.22	-52.038	-30.870	79.576	-0.78360	0.56284	-0.25702	0.05515	30.3	13111	100
2025-3-27 20:27:47.455	WT901BLE68-01(48591DE3C19B)	-0.287	-0.977	0.247	7.813	12.573	1.038	-75.20	20.00	-24.36	-52.038	-30.870	79.576	-0.78360	0.56284	-0.25702	0.05515	30.3	13111	100
2025-3-27 20:27:47.485	WT901BLE68-01(48591DE3C19B)	-0.283	-0.977	0.247	7.813	12.573	1.038	-75.17	20.02	-24.50	-52.038	-30.870	79.576	-0.78360	0.56284	-0.25702	0.05515	30.3	13111	100
2025-3-27 20:27:47.485	WT901BLE68-01(48591DE3C19B)	-0.283	-0.973	0.249	8.484	14.465	0.671	-75.14	20.05	-24.66	-52.038	-30.870	79.576	-0.78360	0.56284	-0.25702	0.05515	30.3	13111	100
2025-3-27 20:27:47.485	WT901BLE68-01(48591DE3C19B)	-0.276	-0.973	0.249	8.484	14.465	0.671	-75.10	20.08	-24.82	-52.038	-30.870	79.576	-0.78360	0.56284	-0.25702	0.05515	30.3	13111	100
2025-3-27 20:27:47.485	WT901BLE68-01(48591DE3C19B)	-0.276	-0.955	0.249	8.606	16.418	-0.183	-75.08	20.10	-25.00	-52.038	-30.870	79.576	-0.78360	0.56284	-0.25702	0.05515	30.3	13111	100
2025-3-27 20:27:47.544	WT901BLE68-01(48591DE3C19B)	-0.280	-0.955	0.249	8.606	16.418	-0.183	-75.05	20.12	-25.19	-52.038	-30.870	79.576	-0.78360	0.56284	-0.25702	0.05515	30.3	13111	100
2025-3-27 20:27:47.545	WT901BLE68-01(48591DE3C19B)	-0.280	-0.923	0.250	8.789	17.700	-1.709	-75.03	20.13	-25.39	-52.038	-30.870	79.576	-0.78360	0.56284	-0.25702	0.05515	30.3	13111	100
2025-3-27 20:27:47.545	WT901BLE68-01(48591DE3C19B)	-0.284	-0.923	0.250	8.789	17.700	-1.709	-75.01	20.14	-25.59	-52.038	-30.870	79.576	-0.78360	0.56284	-0.25702	0.05515	30.3	13111	100
2025-3-27 20:27:47.545	WT901BLE68-01(48591DE3C19B)	-0.284	-0.887	0.255	7.996	16.724	-3.845	-74.99	20.12	-25.78	-52.038	-30.870	79.576	-0.78360	0.56284	-0.25702	0.05515	30.3	13111	100
2025-3-27 20:27:47.578	WT901BLE68-01(48591DE3C19B)	-0.290	-0.887	0.255	7.996	16.724	-3.845	-74.98	20.11	-25.98	-53.116	-29.694	79.870	-0.78360	0.56284	-0.25702	0.05515	30.3	13111	100
2025-3-27 20:27:47.578	WT901BLE68-01(48591DE3C19B)	-0.290	-0.872	0.257	7.202	15.015	-6.714	-74.97	20.06	-26.16	-53.116	-29.694	79.870	-0.78360	0.56284	-0.25702	0.05515	30.3	13111	100
2025-3-27 20:27:47.579	WT901BLE68-01(48591DE3C19B)	-0.302	-0.872	0.257	7.202	15.015	-6.714	-74.95	20.02	-26.34	-53.116	-29.694	79.870	-0.78360	0.56284	-0.25702	0.05515	30.3	13111	100
2025-3-27 20:27:47.579	WT901BLE68-01(48591DE3C19B)	-0.302	-0.885	0.264	6.958	12.878	-10.498	-74.94	19.93	-26.51	-53.116	-29.694	79.870	-0.78360	0.56284	-0.25702	0.05515	30.3	13111	100
2025-3-27 20:27:47.606	WT901BLE68-01(48591DE3C19B)	-0.315	-0.885	0.264	6.958	12.878	-10.498	-74.92	19.85	-26.68	-53.116	-29.694	79.870	-0.78360	0.56284	-0.25702	0.05515	30.3	13111	100
2025-3-27 20:27:47.607	WT901BLE68-01(48591DE3C19B)	-0.315	-0.903	0.271	8.179	11.597	-14.221	-74.89	19.73	-26.84	-53.116	-29.694	79.870	-0.78360	0.56284	-0.25702	0.05515	30.3	13111	100
2025-3-27 20:27:47.607	WT901BLE68-01(48591DE3C19B)	-0.312	-0.903	0.271	8.179	11.597	-14.221	-74.86	19.61	-27.00	-53.116	-29.694	79.870	-0.78360	0.56284	-0.25702	0.05515	30.3	13111	100
2025-3-27 20:27:47.607	WT901BLE68-01(48591DE3C19B)	-0.312	-0.897	0.270	9.521	11.292	-16.724	-74.81	19.46	-27.17	-53.116	-29.694	79.870	-0.78360	0.56284	-0.25702	0.05515	30.3	13111	100
2025-3-27 20:27:47.665	WT901BLE68-01(48591DE3C19B)	-0.313	-0.897	0.270	9.521	11.292	-16.724	-74.77	19.32	-27.33	-53.116	-29.694	79.870	-0.78360	0.56284	-0.25702	0.05515	30.3	13111	100
2025-3-27 20:27:47.665	WT901BLE68-01(48591DE3C19B)	-0.313	-0.890	0.271	10.010	13.000	-17.944	-74.72	19.17	-27.52	-53.116	-29.694	79.870	-0.78360	0.56284	-0.25702	0.05515	30.3	13111	100
2025-3-27 20:27:47.665	WT901BLE68-01(48591DE3C19B)	-0.328	-0.890	0.271	10.010	13.000	-17.944	-74.68	19.02	-27.70	-53.116	-29.694	79.870	-0.78360	0.56284	-0.25702	0.05515	30.3	13111	100
2025-3-27 20:27:47.665	WT901BLE68-01(48591DE3C19B)	-0.328	-0.877	0.277	10.071	14.465	-17.822	-74.64	18.89	-27.90	-53.116	-29.694	79.870	-0.78360	0.56284	-0.25702	0.05515	30.3	13111	100
2025-3-27 20:27:47.694	WT901BLE68-01(48591DE3C19B)	-0.329	-0.877	0.277	10.071	14.465	-17.822	-74.60	18.75	-28.09	-53.116	-29.694	79.870	-0.78360	0.56284	-0.25702	0.05515	30.3	13111	100
2025-3-27 20:27:47.694	WT901BLE68-01(48591DE3C19B)	-0.329	-0.859	0.277	8.667	13.733	-16.479	-74.56	18.62	-28.27	-53.116	-29.694	79.870	-0.78360	0.56284	-0.25702	0.05515	30.3	13111	100
2025-3-27 20:27:47.694	WT901BLE68-01(48591DE3C19B)	-0.333	-0.859	0.277	8.667	13.733	-16.479	-74.53	18.50	-28.45	-53.116	-29.694	79.870	-0.78360	0.56284	-0.25702	0.05515	30.3	13111	100
2025-3-27 20:27:47.694	WT901BLE68-01(48591DE3C19B)	-0.333	-0.867	0.273	6.287	12.512	-14.832	-74.51	18.39	-28.61	-53.116	-29.694	79.870	-0.78360	0.56284	-0.25702	0.05515	30.3	13111	100
2025-3-27 20:27:47.727	WT901BLE68-01(48591DE3C19B)	-0.348	-0.867	0.273	6.287	12.512	-14.832	-74.49	18.29	-28.78	-53.116	-29.694	79.870	-0.78360	0.56284	-0.25702	0.05515	30.3	13111	100
2025-3-27 20:27:47.727	WT901BLE68-01(48591DE3C19B)	-0.348	-0.895	0.277	4.700	10.681	-14.038	-74.49	18.18	-28.92	-53.116	-29.694	79.870	-0.78360	0.56284	-0.25702	0.05515	30.3	13111	100
2025-3-27 20:27:47.727	WT901BLE68-01(48591DE3C19B)	-0.355	-0.895	0.277	4.700	10.681	-14.038	-74.48	18.08	-29.05	-53.116	-29.694	79.870	-0.78360	0.56284	-0.25702	0.05515	30.3	13111	100
2025-3-27 20:27:47.727	WT901BLE68-01(48591DE3C19B)	-0.355	-0.918	0.291	3.296	7.813	-14.038	-74.47	17.97	-29.16	-53.116	-29.694	79.870	-0.78360	0.56284	-0.25702	0.05515	30.3	13111	100
2025-3-27 20:27:47.785	WT901BLE68-01(48591DE3C19B)	-0.352	-0.918	0.291	3.296	7.813	-14.038	-74.47	17.87	-29.26	-53.116	-29.694	79.870	-0.78360	0.56284	-0.25702	0.05515	30.3	13111	100
2025-3-27 20:27:47.785	WT901BLE68-01(48591DE3C19B)	-0.352	-0.938	0.306	2.380	5.920	-14.282	-74.47	17.75	-29.35	-53.116	-29.694	79.870	-0.78458	0.54715	-0.27032	0.10895	30.3	13111	100
2025-3-27 20:27:47.785	WT901BLE68-01(48591DE3C19B)	-0.345	-0.938	0.306	2.380	5.920	-14.282	-74.46	17.64	-29.44	-53.116	-29.694	79.870	-0.78458	0.54715	-0.27032	0.10895	30.3	13111	100
2025-3-27 20:27:47.785	WT901BLE68-01(48591DE3C19B)	-0.345	-0.939	0.311	2.869	7.019	-14.526	-74.45	17.53	-29.54	-53.116	-29.694	79.870	-0.78458	0.54715	-0.27032	0.10895	30.3	13111	100
2025-3-27 20:27:47.814	WT901BLE68-01(48591DE3C19B)	-0.345	-0.939	0.311	2.869	7.019	-14.526	-74.45	17.42	-29.64	-53.116	-29.694	79.870	-0.78458	0.54715	-0.27032	0.10895	30.3	13111	100
2025-3-27 20:27:47.814	WT901BLE68-01(48591DE3C19B)	-0.345	-0.908	0.315	3.540	9.460	-14.648	-74.44	17.32	-29.76	-53.116	-29.694	79.870	-0.78458	0.54715	-0.27032	0.10895	30.3	13111	100
2025-3-27 20:27:47.814	WT901BLE68-01(48591DE3C19B)	-0.351	-0.908	0.315	3.540	9.460	-14.648	-74.44	17.22	-29.88	-53.116	-29.694	79.870	-0.78458	0.54715	-0.27032	0.10895	30.3	13111	100
2025-3-27 20:27:47.814	WT901BLE68-01(48591DE3C19B)	-0.354	-0.874	0.314	3.845	10.559	-14.587	-74.43	17.12	-30.01	-53.116	-29.694	79.870	-0.78458	0.54715	-0.27032	0.10895	30.3	13111	100
2025-3-27 20:27:47.844	WT901BLE68-01(48591DE3C19B)	-0.354	-0.839	0.305	4.272	9.827	-14.526	-74.42	17.02	-30.14	-53.116	-29.694	79.870	-0.78458	0.54715	-0.27032	0.10895	30.3	13111	100
2025-3-27 20:27:47.845	WT901BLE68-01(48591DE3C19B)	-0.358	-0.839	0.305	4.272	9.827	-14.526	-74.40	16.93	-30.26	-53.116	-29.694	79.870	-0.78458	0.54715	-0.27032	0.10895	30.3	13111	100
2025-3-27 20:27:47.845	WT901BLE68-01(48591DE3C19B)	-0.358	-0.821	0.293	4.822	8.789	-14.709	-74.38	16.83	-30.38	-53.116	-29.694	79.870	-0.78458	0.54715	-0.27032	0.10895	30.3	13111	100
2025-3-27 20:27:47.845	WT901BLE68-01(48591DE3C19B)	-0.361	-0.821	0.293	4.822	8.789	-14.709	-74.35	16.74	-30.49	-53.116	-29.694	79.870	-0.78458	0.54715	-0.27032	0.10895	30.3	13111	100
2025-3-27 20:27:47.907	WT901BLE68-01(48591DE3C19B)	-0.361	-0.821	0.285	5.554	8.118	-15.564	-74.32	16.63	-30.59	-53.116	-29.694	79.870	-0.78458	0.54715	-0.27032	0.10895	30.3	13111	100
2025-3-27 20:27:47.907	WT901BLE68-01(48591DE3C19B)	-0.367	-0.821	0.285	5.554	8.118	-15.564	-74.28	16.53	-30.70	-53.116	-29.694	79.870	-0.78458	0.54715	-0.27032	0.10895	30.3	13111	100
2025-3-27 20:27:47.907	WT901BLE68-01(48591DE3C19B)	-0.367	-0.828	0.284	6.531	8.606	-16.785	-74.24	16.42	-30.80	-53.116	-29.694	79.870	-0.78458	0.54715	-0.27032	0.10895	30.3	13111	100
2025-3-27 20:27:47.907	WT901BLE68-01(48591DE3C19B)	-0.383	-0.828	0.284	6.531	8.606	-16.785	-74.20	16.31	-30.91	-53.116	-29.694	79.870	-0.78458	0.54715	-0.27032	0.10895	30.3	13111	100
2025-3-27 20:27:47.936	WT901BLE68-01(48591DE3C19B)	-0.383	-0.839	0.284	6.897	8.972	-18.250	-74.15	16.20	-31.02	-53.116	-29.694	79.870	-0.78458	0.54715	-0.27032	0.10895	30.3	13111	100
2025-3-27 20:27:47.936	WT901BLE68-01(48591DE3C19B)	-0.396	-0.839	0.284	6.897	8.972	-18.250	-74.11	16.08	-31.14	-53.116	-29.694	79.870	-0.78458	0.54715	-0.27032	0.10895	30.3	13111	100
2025-3-27 20:27:47.936	WT901BLE68-01(48591DE3C19B)	-0.396	-0.841	0.281	6.653	8.667	-19.775	-74.06	15.96	-31.25	-53.116	-29.694	79.870	-0.78458	0.54715	-0.27032	0.10895	30.3	13111	100
2025-3-27 20:27:47.937	WT901BLE68-01(48591DE3C19B)	-0.410	-0.841	0.281	6.653	8.667	-19.775	-74.02	15.83	-31.36	-55.958	-27.342	80.066	-0.78458	0.54715	-0.27032	0.10895	30.3	13111	100
2025-3-27 20:27:47.995	WT901BLE68-01(48591DE3C19B)	-0.410	-0.839	0.277	5.493	7.080	-20.752	-73.99	15.69	-31.46	-55.958	-27.342	80.066	-0.78458	0.54715	-0.27032	0.10895	30.3	13111	100
2025-3-27 20:27:47.995	WT901BLE68-01(48591DE3C19B)	-0.420	-0.839	0.277	5.493	7.080	-20.752	-73.95	15.56	-31.56	-55.958	-27.342	80.066	-0.78458	0.54715	-0.27032	0.10895	30.3	13111	100
2025-3-27 20:27:47.995	WT901BLE68-01(48591DE3C19B)	-0.420	-0.835	0.273	3.845	4.272	-20.996	-73.92	15.41	-31.64	-55.958	-27.342	80.066	-0.78458	0.54715	-0.27032	0.10895	30.3	13111	100
2025-3-27 20:27:47.995	WT901BLE68-01(48591DE3C19B)	-0.426	-0.835	0.273	3.845	4.272	-20.996	-73.90	15.27	-31.71	-55.958	-27.342	80.066	-0.78458	0.54715	-0.27032	0.10895	30.3	13111	100
2025-3-27 20:27:48.24	WT901BLE68-01(48591DE3C19B)	-0.426	-0.825	0.273	2.136	0.854	-20.081	-73.88	15.13	-31.76	-55.958	-27.342	80.066	-0.78458	0.54715	-0.27032	0.10895	30.3	13111	100
2025-3-27 20:27:48.24	WT901BLE68-01(48591DE3C19B)	-0.422	-0.825	0.273	2.136	0.854	-20.081	-73.87	14.99	-31.78	-55.958	-27.342	80.066	-0.78458	0.54715	-0.27032	0.10895	30.3	13111	100
2025-3-27 20:27:48.24	WT901BLE68-01(48591DE3C19B)	-0.422	-0.807	0.276	0.305	-2.075	-17.944	-73.86	14.86	-31.79	-55.958	-27.342	80.066	-0.78458	0.54715	-0.27032	0.10895	30.3	13111	100
2025-3-27 20:27:48.24	WT901BLE68-01(48591DE3C19B)	-0.418	-0.807	0.276	0.305	-2.075	-17.944	-73.85	14.74	-31.78	-55.958	-27.342	80.066	-0.78458	0.54715	-0.27032	0.10895	30.3	13111	100
2025-3-27 20:27:48.54	WT901BLE68-01(48591DE3C19B)	-0.418	-0.787	0.271	-1.465	-4.150	-15.259	-73.85	14.63	-31.76	-55.958	-27.342	80.066	-0.78458	0.54715	-0.27032	0.10895	30.3	13111	100
2025-3-27 20:27:48.55	WT901BLE68-01(48591DE3C19B)	-0.418	-0.787	0.271	-1.465	-4.150	-15.259	-73.86	14.53	-31.72	-55.958	-27.342	80.066	-0.78458	0.54715	-0.27032	0.10895	30.3	13111	100
2025-3-27 20:27:48.55	WT901BLE68-01(48591DE3C19B)	-0.418	-0.779	0.266	-3.479	-6.409	-12.268	-73.87	14.45	-31.66	-55.958	-27.342	80.066	-0.78458	0.54715	-0.27032	0.10895	30.3	13111	100
2025-3-27 20:27:48.55	WT901BLE68-01(48591DE3C19B)	-0.417	-0.779	0.266	-3.479	-6.409	-12.268	-73.88	14.38	-31.59	-55.958	-27.342	80.066	-0.78458	0.54715	-0.27032	0.10895	30.3	13111	100
2025-3-27 20:27:48.84	WT901BLE68-01(48591DE3C19B)	-0.417	-0.785	0.270	-5.127	-8.423	-8.972	-73.91	14.32	-31.50	-55.958	-27.342	80.066	-0.78458	0.54715	-0.27032	0.10895	30.3	13111	100
2025-3-27 20:27:48.84	WT901BLE68-01(48591DE3C19B)	-0.417	-0.785	0.270	-5.127	-8.423	-8.972	-73.93	14.28	-31.39	-55.958	-27.342	80.066	-0.78458	0.54715	-0.27032	0.10895	30.3	13111	100
2025-3-27 20:27:48.84	WT901BLE68-01(48591DE3C19B)	-0.417	-0.776	0.271	-6.348	-10.071	-5.676	-73.96	14.25	-31.28	-55.958	-27.342	80.066	-0.78458	0.54715	-0.27032	0.10895	30.3	13111	100
2025-3-27 20:27:48.84	WT901BLE68-01(48591DE3C19B)	-0.409	-0.776	0.271	-6.348	-10.071	-5.676	-73.99	14.23	-31.15	-55.958	-27.342	80.066	-0.78458	0.54715	-0.27032	0.10895	30.3	13111	100
2025-3-27 20:27:48.145	WT901BLE68-01(48591DE3C19B)	-0.409	-0.768	0.265	-8.240	-11.414	-2.502	-74.03	14.23	-31.01	-55.958	-27.342	80.066	-0.78458	0.54715	-0.27032	0.10895	30.3	13111	100
2025-3-27 20:27:48.145	WT901BLE68-01(48591DE3C19B)	-0.409	-0.768	0.265	-8.240	-11.414	-2.502	-74.08	14.25	-30.86	-55.958	-27.342	80.066	-0.78458	0.54715	-0.27032	0.10895	30.3	13111	100
2025-3-27 20:27:48.145	WT901BLE68-01(48591DE3C19B)	-0.409	-0.762	0.263	-9.949	-12.939	0.244	-74.12	14.28	-30.70	-55.958	-27.342	80.066	-0.78458	0.54715	-0.27032	0.10895	30.3	13111	100
2025-3-27 20:27:48.145	WT901BLE68-01(48591DE3C19B)	-0.414	-0.762	0.263	-9.949	-12.939	0.244	-74.18	14.32	-30.52	-55.958	-27.342	80.066	-0.78458	0.54715	-0.27032	0.10895	30.3	13111	100
2025-3-27 20:27:48.177	WT901BLE68-01(48591DE3C19B)	-0.414	-0.752	0.269	-11.597	-15.991	2.563	-74.24	14.36	-30.33	-55.958	-27.342	80.066	-0.78326	0.55179	-0.25284	0.13416	30.3	13111	100
2025-3-27 20:27:48.177	WT901BLE68-01(48591DE3C19B)	-0.406	-0.752	0.269	-11.597	-15.991	2.563	-74.30	14.41	-30.12	-55.958	-27.342	80.066	-0.78326	0.55179	-0.25284	0.13416	30.3	13111	100
2025-3-27 20:27:48.178	WT901BLE68-01(48591DE3C19B)	-0.406	-0.730	0.264	-13.000	-19.470	5.127	-74.36	14.47	-29.89	-55.958	-27.342	80.066	-0.78326	0.55179	-0.25284	0.13416	30.3	13111	100
2025-3-27 20:27:48.178	WT901BLE68-01(48591DE3C19B)	-0.385	-0.730	0.264	-13.000	-19.470	5.127	-74.42	14.54	-29.64	-55.958	-27.342	80.066	-0.78326	0.55179	-0.25284	0.13416	30.3	13111	100
2025-3-27 20:27:48.235	WT901BLE68-01(48591DE3C19B)	-0.385	-0.708	0.254	-14.282	-21.606	7.935	-74.49	14.62	-29.37	-55.958	-27.342	80.066	-0.78326	0.55179	-0.25284	0.13416	30.3	13111	100
2025-3-27 20:27:48.235	WT901BLE68-01(48591DE3C19B)	-0.383	-0.708	0.254	-14.282	-21.606	7.935	-74.55	14.72	-29.09	-55.958	-27.342	80.066	-0.78326	0.55179	-0.25284	0.13416	30.3	13111	100
2025-3-27 20:27:48.235	WT901BLE68-01(48591DE3C19B)	-0.383	-0.718	0.252	-15.442	-22.217	10.376	-74.62	14.82	-28.81	-55.958	-27.342	80.066	-0.78326	0.55179	-0.25284	0.13416	30.3	13111	100
2025-3-27 20:27:48.236	WT901BLE68-01(48591DE3C19B)	-0.380	-0.718	0.252	-15.442	-22.217	10.376	-74.70	14.93	-28.52	-55.958	-27.342	80.066	-0.78326	0.55179	-0.25284	0.13416	30.3	13111	100
2025-3-27 20:27:48.295	WT901BLE68-01(48591DE3C19B)	-0.380	-0.736	0.256	-15.686	-22.583	12.268	-74.77	15.05	-28.22	-55.958	-27.342	80.066	-0.78326	0.55179	-0.25284	0.13416	30.3	13111	100
2025-3-27 20:27:48.295	WT901BLE68-01(48591DE3C19B)	-0.360	-0.736	0.256	-15.686	-22.583	12.268	-74.83	15.18	-27.92	-55.958	-27.342	80.066	-0.78326	0.55179	-0.25284	0.13416	30.3	13111	100
2025-3-27 20:27:48.295	WT901BLE68-01(48591DE3C19B)	-0.360	-0.772	0.252	-15.381	-21.057	13.245	-74.90	15.31	-27.64	-55.958	-27.342	80.066	-0.78326	0.55179	-0.25284	0.13416	30.3	13111	100
2025-3-27 20:27:48.295	WT901BLE68-01(48591DE3C19B)	-0.347	-0.772	0.252	-15.381	-21.057	13.245	-74.97	15.45	-27.36	-55.958	-27.342	80.066	-0.78326	0.55179	-0.25284	0.13416	30.3	13111	100
2025-3-27 20:27:48.296	WT901BLE68-01(48591DE3C19B)	-0.347	-0.785	0.251	-13.306	-16.724	13.489	-75.04	15.60	-27.10	-55.958	-27.342	80.066	-0.78326	0.55179	-0.25284	0.13416	30.3	13111	100
2025-3-27 20:27:48.296	WT901BLE68-01(48591DE3C19B)	-0.366	-0.785	0.251	-13.306	-16.724	13.489	-75.09	15.74	-26.86	-55.958	-27.342	80.066	-0.78326	0.55179	-0.25284	0.13416	30.3	13111	100
2025-3-27 20:27:48.296	WT901BLE68-01(48591DE3C19B)	-0.366	-0.830	0.257	-13.062	-12.878	13.733	-75.16	15.90	-26.67	-55.958	-27.342	80.066	-0.78326	0.55179	-0.25284	0.13416	30.3	13111	100
2025-3-27 20:27:48.296	WT901BLE68-01(48591DE3C19B)	-0.373	-0.830	0.257	-13.062	-12.878	13.733	-75.22	16.06	-26.48	-55.958	-27.342	80.066	-0.78326	0.55179	-0.25284	0.13416	30.3	13111	100
2025-3-27 20:27:48.355	WT901BLE68-01(48591DE3C19B)	-0.373	-0.883	0.256	-12.207	-11.353	13.855	-75.28	16.22	-26.30	-55.958	-27.342	80.066	-0.78326	0.55179	-0.25284	0.13416	30.3	13111	100
2025-3-27 20:27:48.355	WT901BLE68-01(48591DE3C19B)	-0.378	-0.883	0.256	-12.207	-11.353	13.855	-75.34	16.37	-26.13	-55.958	-27.342	80.066	-0.78326	0.55179	-0.25284	0.13416	30.3	13111	100
2025-3-27 20:27:48.355	WT901BLE68-01(48591DE3C19B)	-0.378	-0.937	0.251	-11.658	-9.949	14.221	-75.40	16.53	-25.97	-55.958	-27.342	80.066	-0.78326	0.55179	-0.25284	0.13416	30.3	13111	100
2025-3-27 20:27:48.356	WT901BLE68-01(48591DE3C19B)	-0.372	-0.937	0.251	-11.658	-9.949	14.221	-75.47	16.69	-25.81	-55.958	-27.342	80.066	-0.78326	0.55179	-0.25284	0.13416	30.3	13111	100
2025-3-27 20:27:48.384	WT901BLE68-01(48591DE3C19B)	-0.372	-0.978	0.249	-10.071	-8.362	14.893	-75.52	16.85	-25.68	-53.606	-28.126	80.752	-0.78326	0.55179	-0.25284	0.13416	30.3	13111	100
2025-3-27 20:27:48.384	WT901BLE68-01(48591DE3C19B)	-0.340	-0.978	0.249	-10.071	-8.362	14.893	-75.57	17.01	-25.54	-53.606	-28.126	80.752	-0.78326	0.55179	-0.25284	0.13416	30.3	13111	100
2025-3-27 20:27:48.384	WT901BLE68-01(48591DE3C19B)	-0.340	-0.938	0.240	-7.629	-4.883	17.578	-75.61	17.20	-25.43	-53.606	-28.126	80.752	-0.78326	0.55179	-0.25284	0.13416	30.3	13111	100
2025-3-27 20:27:48.384	WT901BLE68-01(48591DE3C19B)	-0.314	-0.938	0.240	-7.629	-4.883	17.578	-75.64	17.39	-25.32	-53.606	-28.126	80.752	-0.78326	0.55179	-0.25284	0.13416	30.3	13111	100
2025-3-27 20:27:48.475	WT901BLE68-01(48591DE3C19B)	-0.314	-0.845	0.236	-7.263	-1.709	21.606	-75.68	17.63	-25.24	-53.606	-28.126	80.752	-0.78326	0.55179	-0.25284	0.13416	30.3	13111	100
2025-3-27 20:27:48.475	WT901BLE68-01(48591DE3C19B)	-0.293	-0.845	0.236	-7.263	-1.709	21.606	-75.72	17.85	-25.16	-53.606	-28.126	80.752	-0.78326	0.55179	-0.25284	0.13416	30.3	13111	100
2025-3-27 20:27:48.475	WT901BLE68-01(48591DE3C19B)	-0.293	-0.731	0.239	-9.705	-2.319	26.184	-75.78	18.13	-25.06	-53.606	-28.126	80.752	-0.78326	0.55179	-0.25284	0.13416	30.3	13111	100
2025-3-27 20:27:48.475	WT901BLE68-01(48591DE3C19B)	-0.261	-0.731	0.239	-9.705	-2.319	26.184	-75.83	18.40	-24.97	-53.606	-28.126	80.752	-0.78326	0.55179	-0.25284	0.13416	30.3	13111	100
2025-3-27 20:27:48.476	WT901BLE68-01(48591DE3C19B)	-0.261	-0.641	0.243	-12.939	-5.554	31.189	-75.90	18.70	-24.82	-53.606	-28.126	80.752	-0.78326	0.55179	-0.25284	0.13416	30.3	13111	100
2025-3-27 20:27:48.476	WT901BLE68-01(48591DE3C19B)	-0.232	-0.641	0.243	-12.939	-5.554	31.189	-75.97	19.01	-24.68	-53.606	-28.126	80.752	-0.78326	0.55179	-0.25284	0.13416	30.3	13111	100
2025-3-27 20:27:48.476	WT901BLE68-01(48591DE3C19B)	-0.232	-0.583	0.247	-14.709	-10.437	36.194	-76.03	19.35	-24.48	-53.606	-28.126	80.752	-0.78326	0.55179	-0.25284	0.13416	30.3	13111	100
2025-3-27 20:27:48.477	WT901BLE68-01(48591DE3C19B)	-0.222	-0.583	0.247	-14.709	-10.437	36.194	-76.09	19.68	-24.27	-53.606	-28.126	80.752	-0.78326	0.55179	-0.25284	0.13416	30.3	13111	100
2025-3-27 20:27:48.506	WT901BLE68-01(48591DE3C19B)	-0.222	-0.567	0.226	-16.724	-17.761	40.466	-76.14	20.04	-23.99	-53.606	-28.126	80.752	-0.78326	0.55179	-0.25284	0.13416	30.3	13111	100
2025-3-27 20:27:48.506	WT901BLE68-01(48591DE3C19B)	-0.267	-0.567	0.226	-16.724	-17.761	40.466	-76.17	20.40	-23.70	-53.606	-28.126	80.752	-0.78326	0.55179	-0.25284	0.13416	30.3	13111	100
2025-3-27 20:27:48.506	WT901BLE68-01(48591DE3C19B)	-0.267	-0.698	0.188	-23.865	-30.884	41.565	-76.23	20.73	-23.28	-53.606	-28.126	80.752	-0.78326	0.55179	-0.25284	0.13416	30.3	13111	100
2025-3-27 20:27:48.506	WT901BLE68-01(48591DE3C19B)	-0.344	-0.698	0.188	-23.865	-30.884	41.565	-76.29	21.06	-22.86	-53.606	-28.126	80.752	-0.78326	0.55179	-0.25284	0.13416	30.3	13111	100
2025-3-27 20:27:48.565	WT901BLE68-01(48591DE3C19B)	-0.344	-1.022	0.185	-31.982	-49.438	34.790	-76.38	21.28	-22.26	-53.606	-28.126	80.752	-0.78326	0.55179	-0.25284	0.13416	30.3	13111	100
2025-3-27 20:27:48.565	WT901BLE68-01(48591DE3C19B)	-0.884	-1.022	0.185	-31.982	-49.438	34.790	-76.46	21.50	-21.67	-53.606	-28.126	80.752	-0.78326	0.55179	-0.25284	0.13416	30.3	13111	100
2025-3-27 20:27:48.565	WT901BLE68-01(48591DE3C19B)	-3.535	-3.158	0.449	-31.433	-70.251	20.630	-76.48	21.52	-20.90	-53.606	-28.126	80.752	-0.78326	0.55179	-0.25284	0.13416	30.3	13111	100
2025-3-27 20:27:48.565	WT901BLE68-01(48591DE3C19B)	-0.408	-12.632	1.797	-31.433	-70.251	20.630	-76.51	21.54	-20.15	-53.606	-28.126	80.752	-0.78326	0.55179	-0.25284	0.13416	30.3	13111	100
2025-3-27 20:27:48.594	WT901BLE68-01(48591DE3C19B)	-0.408	-1.830	0.232	-5.859	-81.299	9.705	-76.27	21.41	-19.31	-53.606	-28.126	80.752	-0.78326	0.55179	-0.25284	0.13416	30.3	13111	100
2025-3-27 20:27:48.594	WT901BLE68-01(48591DE3C19B)	-0.220	-1.830	0.232	-5.859	-81.299	9.705	-76.04	21.29	-18.48	-53.606	-28.126	80.752	-0.78326	0.55179	-0.25284	0.13416	30.3	13111	100
2025-3-27 20:27:48.594	WT901BLE68-01(48591DE3C19B)	-0.220	-1.604	0.182	11.658	-65.063	5.188	-75.70	21.15	-17.84	-53.606	-28.126	80.752	-0.78326	0.55179	-0.25284	0.13416	30.3	13111	100
2025-3-27 20:27:48.594	WT901BLE68-01(48591DE3C19B)	-0.116	-1.604	0.182	11.658	-65.063	5.188	-75.37	21.00	-17.20	-53.606	-28.126	80.752	-0.78326	0.55179	-0.25284	0.13416	30.3	13111	100
2025-3-27 20:27:48.625	WT901BLE68-01(48591DE3C19B)	-0.116	-1.324	0.109	18.677	-24.841	11.230	-75.11	21.01	-16.97	-53.606	-28.126	80.752	-0.78790	0.57077	-0.23087	0.00455	30.3	13111	100
2025-3-27 20:27:48.625	WT901BLE68-01(48591DE3C19B)	-0.103	-1.324	0.109	18.677	-24.841	11.230	-74.87	21.02	-16.75	-53.606	-28.126	80.752	-0.78790	0.57077	-0.23087	0.00455	30.3	13111	100
2025-3-27 20:27:48.625	WT901BLE68-01(48591DE3C19B)	-0.103	-1.122	0.066	19.531	17.395	15.198	-74.76	21.17	-16.95	-53.606	-28.126	80.752	-0.78790	0.57077	-0.23087	0.00455	30.3	13111	100
2025-3-27 20:27:48.625	WT901BLE68-01(48591DE3C19B)	-0.129	-1.122	0.066	19.531	17.395	15.198	-74.67	21.31	-17.14	-53.606	-28.126	80.752	-0.78790	0.57077	-0.23087	0.00455	30.3	13111	100
2025-3-27 20:27:48.654	WT901BLE68-01(48591DE3C19B)	-0.129	-1.010	0.096	10.376	37.964	17.822	-74.73	21.53	-17.55	-53.606	-28.126	80.752	-0.78790	0.57077	-0.23087	0.00455	30.3	13111	100
2025-3-27 20:27:48.654	WT901BLE68-01(48591DE3C19B)	-0.147	-1.010	0.096	10.376	37.964	17.822	-74.81	21.75	-17.96	-53.606	-28.126	80.752	-0.78790	0.57077	-0.23087	0.00455	30.3	13111	100
2025-3-27 20:27:48.654	WT901BLE68-01(48591DE3C19B)	-0.147	-1.018	0.158	0.244	44.739	14.954	-75.01	21.95	-18.44	-53.606	-28.126	80.752	-0.78790	0.57077	-0.23087	0.00455	30.3	13111	100
2025-3-27 20:27:48.654	WT901BLE68-01(48591DE3C19B)	-0.234	-1.018	0.158	0.244	44.739	14.954	-75.22	22.15	-18.92	-53.606	-28.126	80.752	-0.78790	0.57077	-0.23087	0.00455	30.3	13111	100
2025-3-27 20:27:48.717	WT901BLE68-01(48591DE3C19B)	-0.234	-0.995	0.202	-3.174	43.274	9.338	-75.46	22.29	-19.40	-53.606	-28.126	80.752	-0.78790	0.57077	-0.23087	0.00455	30.3	13111	100
2025-3-27 20:27:48.717	WT901BLE68-01(48591DE3C19B)	-0.292	-0.995	0.202	-3.174	43.274	9.338	-75.70	22.42	-19.89	-53.606	-28.126	80.752	-0.78790	0.57077	-0.23087	0.00455	30.3	13111	100
2025-3-27 20:27:48.717	WT901BLE68-01(48591DE3C19B)	-0.292	-0.957	0.200	-6.409	33.325	3.662	-75.93	22.48	-20.27	-53.606	-28.126	80.752	-0.78790	0.57077	-0.23087	0.00455	30.3	13111	100
2025-3-27 20:27:48.717	WT901BLE68-01(48591DE3C19B)	-0.300	-0.957	0.200	-6.409	33.325	3.662	-76.16	22.53	-20.66	-53.606	-28.126	80.752	-0.78790	0.57077	-0.23087	0.00455	30.3	13111	100
2025-3-27 20:27:48.746	WT901BLE68-01(48591DE3C19B)	-0.300	-0.927	0.153	-4.761	22.827	-3.174	-76.33	22.50	-20.95	-53.606	-28.126	80.752	-0.78790	0.57077	-0.23087	0.00455	30.3	13111	100
2025-3-27 20:27:48.746	WT901BLE68-01(48591DE3C19B)	-0.341	-0.927	0.153	-4.761	22.827	-3.174	-76.50	22.47	-21.24	-53.606	-28.126	80.752	-0.78790	0.57077	-0.23087	0.00455	30.3	13111	100
2025-3-27 20:27:48.747	WT901BLE68-01(48591DE3C19B)	-0.308	-0.868	0.120	0.427	3.357	-10.437	-76.55	22.32	-21.34	-53.606	-28.126	80.752	-0.78790	0.57077	-0.23087	0.00455	30.3	13111	100
2025-3-27 20:27:48.747	WT901BLE68-01(48591DE3C19B)	-0.308	-0.783	0.132	4.700	-16.479	-14.587	-76.55	22.14	-21.33	-50.176	-29.400	82.810	-0.78790	0.57077	-0.23087	0.00455	30.3	13111	100
2025-3-27 20:27:48.805	WT901BLE68-01(48591DE3C19B)	-0.246	-0.783	0.132	4.700	-16.479	-14.587	-76.48	21.92	-21.23	-50.176	-29.400	82.810	-0.78790	0.57077	-0.23087	0.00455	30.3	13111	100
2025-3-27 20:27:48.805	WT901BLE68-01(48591DE3C19B)	-0.246	-0.702	0.166	13.123	-20.874	-12.756	-76.36	21.70	-21.09	-50.176	-29.400	82.810	-0.78790	0.57077	-0.23087	0.00455	30.3	13111	100
2025-3-27 20:27:48.805	WT901BLE68-01(48591DE3C19B)	-0.230	-0.702	0.166	13.123	-20.874	-12.756	-76.19	21.49	-20.94	-50.176	-29.400	82.810	-0.78790	0.57077	-0.23087	0.00455	30.3	13111	100
2025-3-27 20:27:48.805	WT901BLE68-01(48591DE3C19B)	-0.230	-0.607	0.180	22.095	-14.160	-6.653	-75.98	21.32	-20.81	-50.176	-29.400	82.810	-0.78790	0.57077	-0.23087	0.00455	30.3	13111	100
2025-3-27 20:27:48.834	WT901BLE68-01(48591DE3C19B)	-0.191	-0.607	0.180	22.095	-14.160	-6.653	-75.74	21.19	-20.71	-50.176	-29.400	82.810	-0.78790	0.57077	-0.23087	0.00455	30.3	13111	100
2025-3-27 20:27:48.834	WT901BLE68-01(48591DE3C19B)	-0.191	-0.516	0.162	28.381	-1.831	1.770	-75.49	21.12	-20.67	-50.176	-29.400	82.810	-0.78790	0.57077	-0.23087	0.00455	30.3	13111	100
2025-3-27 20:27:48.834	WT901BLE68-01(48591DE3C19B)	-0.144	-0.516	0.162	28.381	-1.831	1.770	-75.22	21.10	-20.67	-50.176	-29.400	82.810	-0.78790	0.57077	-0.23087	0.00455	30.3	13111	100
2025-3-27 20:27:48.834	WT901BLE68-01(48591DE3C19B)	-0.144	-0.423	0.141	34.180	15.747	15.198	-74.94	21.18	-20.74	-50.176	-29.400	82.810	-0.78790	0.57077	-0.23087	0.00455	30.3	13111	100
2025-3-27 20:27:48.864	WT901BLE68-01(48591DE3C19B)	-0.139	-0.423	0.141	34.180	15.747	15.198	-74.67	21.34	-20.89	-50.176	-29.400	82.810	-0.78790	0.57077	-0.23087	0.00455	30.3	13111	100
2025-3-27 20:27:48.864	WT901BLE68-01(48591DE3C19B)	-0.139	-0.381	0.137	35.461	36.621	29.053	-74.42	21.59	-21.12	-50.176	-29.400	82.810	-0.78790	0.57077	-0.23087	0.00455	30.3	13111	100
2025-3-27 20:27:48.864	WT901BLE68-01(48591DE3C19B)	-0.208	-0.381	0.137	35.461	36.621	29.053	-74.20	21.94	-21.44	-50.176	-29.400	82.810	-0.78790	0.57077	-0.23087	0.00455	30.3	13111	100
2025-3-27 20:27:48.864	WT901BLE68-01(48591DE3C19B)	-0.208	-0.441	0.162	34.607	51.880	41.443	-74.00	22.37	-21.81	-50.176	-29.400	82.810	-0.78790	0.57077	-0.23087	0.00455	30.3	13111	100
2025-3-27 20:27:48.894	WT901BLE68-01(48591DE3C19B)	-0.308	-0.441	0.162	34.607	51.880	41.443	-73.83	22.88	-22.25	-50.176	-29.400	82.810	-0.78790	0.57077	-0.23087	0.00455	30.3	13111	100
2025-3-27 20:27:48.894	WT901BLE68-01(48591DE3C19B)	-0.308	-0.575	0.195	31.067	58.472	48.340	-73.69	23.43	-22.70	-50.176	-29.400	82.810	-0.78790	0.57077	-0.23087	0.00455	30.3	13111	100
2025-3-27 20:27:48.895	WT901BLE68-01(48591DE3C19B)	-0.424	-0.575	0.195	31.067	58.472	48.340	-73.58	24.03	-23.16	-50.176	-29.400	82.810	-0.78790	0.57077	-0.23087	0.00455	30.3	13111	100
2025-3-27 20:27:48.895	WT901BLE68-01(48591DE3C19B)	-0.424	-0.770	0.216	23.743	58.838	44.861	-73.52	24.62	-23.64	-50.176	-29.400	82.810	-0.78790	0.57077	-0.23087	0.00455	30.3	13111	100
2025-3-27 20:27:48.955	WT901BLE68-01(48591DE3C19B)	-0.508	-0.770	0.216	23.743	58.838	44.861	-73.49	25.19	-24.11	-50.176	-29.400	82.810	-0.78790	0.57077	-0.23087	0.00455	30.3	13111	100
2025-3-27 20:27:48.955	WT901BLE68-01(48591DE3C19B)	-0.508	-1.036	0.249	17.883	54.504	26.489	-73.50	25.67	-24.59	-50.176	-29.400	82.810	-0.78790	0.57077	-0.23087	0.00455	30.3	13111	100
2025-3-27 20:27:48.955	WT901BLE68-01(48591DE3C19B)	-0.500	-1.036	0.249	17.883	54.504	26.489	-73.55	26.05	-25.08	-50.176	-29.400	82.810	-0.78790	0.57077	-0.23087	0.00455	30.3	13111	100
2025-3-27 20:27:48.955	WT901BLE68-01(48591DE3C19B)	-0.500	-1.239	0.265	19.531	56.519	3.235	-73.61	26.33	-25.60	-50.176	-29.400	82.810	-0.78790	0.57077	-0.23087	0.00455	30.3	13111	100
2025-3-27 20:27:48.984	WT901BLE68-01(48591DE3C19B)	-0.576	-1.239	0.265	19.531	56.519	3.235	-73.70	26.50	-26.18	-50.176	-29.400	82.810	-0.78973	0.52704	-0.31085	0.04251	30.3	13111	100
2025-3-27 20:27:48.984	WT901BLE68-01(48591DE3C19B)	-0.576	-1.455	0.276	15.259	67.505	-31.921	-73.86	26.50	-26.87	-50.176	-29.400	82.810	-0.78973	0.52704	-0.31085	0.04251	30.3	13111	100
2025-3-27 20:27:48.984	WT901BLE68-01(48591DE3C19B)	-0.774	-1.455	0.276	15.259	67.505	-31.921	-74.09	26.36	-27.67	-50.176	-29.400	82.810	-0.78973	0.52704	-0.31085	0.04251	30.3	13111	100
2025-3-27 20:27:48.984	WT901BLE68-01(48591DE3C19B)	-0.774	-1.562	0.333	19.165	79.102	-49.377	-74.33	26.14	-28.55	-50.176	-29.400	82.810	-0.78973	0.52704	-0.31085	0.04251	30.3	13111	100
2025-3-27 20:27:49.15	WT901BLE68-01(48591DE3C19B)	-0.820	-1.562	0.333	19.165	79.102	-49.377	-74.59	25.86	-29.51	-50.176	-29.400	82.810	-0.78973	0.52704	-0.31085	0.04251	30.3	13111	100
2025-3-27 20:27:49.15	WT901BLE68-01(48591DE3C19B)	-0.820	-1.188	0.387	20.447	72.021	-59.021	-74.83	25.52	-30.44	-50.176	-29.400	82.810	-0.78973	0.52704	-0.31085	0.04251	30.3	13111	100
2025-3-27 20:27:49.15	WT901BLE68-01(48591DE3C19B)	-0.722	-1.188	0.387	20.447	72.021	-59.021	-75.04	25.13	-31.33	-50.176	-29.400	82.810	-0.78973	0.52704	-0.31085	0.04251	30.3	13111	100
2025-3-27 20:27:49.15	WT901BLE68-01(48591DE3C19B)	-0.722	-0.986	0.372	2.747	52.856	-54.626	-75.27	24.75	-32.10	-50.176	-29.400	82.810	-0.78973	0.52704	-0.31085	0.04251	30.3	13111	100
2025-3-27 20:27:49.75	WT901BLE68-01(48591DE3C19B)	-0.679	-0.986	0.372	2.747	52.856	-54.626	-75.54	24.36	-32.76	-50.176	-29.400	82.810	-0.78973	0.52704	-0.31085	0.04251	30.3	13111	100
2025-3-27 20:27:49.75	WT901BLE68-01(48591DE3C19B)	-0.679	-0.956	0.301	-10.925	16.724	-49.988	-75.79	23.96	-33.20	-50.176	-29.400	82.810	-0.78973	0.52704	-0.31085	0.04251	30.3	13111	100
2025-3-27 20:27:49.75	WT901BLE68-01(48591DE3C19B)	-0.696	-0.956	0.301	-10.925	16.724	-49.988	-76.02	23.54	-33.44	-50.176	-29.400	82.810	-0.78973	0.52704	-0.31085	0.04251	30.3	13111	100
2025-3-27 20:27:49.75	WT901BLE68-01(48591DE3C19B)	-0.696	-0.885	0.249	-20.874	-34.241	-40.161	-76.18	23.12	-33.39	-50.176	-29.400	82.810	-0.78973	0.52704	-0.31085	0.04251	30.3	13111	100
2025-3-27 20:27:49.104	WT901BLE68-01(48591DE3C19B)	-0.561	-0.885	0.249	-20.874	-34.241	-40.161	-76.29	22.69	-33.06	-50.176	-29.400	82.810	-0.78973	0.52704	-0.31085	0.04251	30.3	13111	100
2025-3-27 20:27:49.104	WT901BLE68-01(48591DE3C19B)	-0.561	-0.731	0.233	-31.555	-79.712	-27.100	-76.35	22.27	-32.47	-50.176	-29.400	82.810	-0.78973	0.52704	-0.31085	0.04251	30.3	13111	100
2025-3-27 20:27:49.104	WT901BLE68-01(48591DE3C19B)	-0.364	-0.731	0.233	-31.555	-79.712	-27.100	-76.37	21.87	-31.63	-50.176	-29.400	82.810	-0.78973	0.52704	-0.31085	0.04251	30.3	13111	100
2025-3-27 20:27:49.104	WT901BLE68-01(48591DE3C19B)	-0.364	-0.650	0.216	-39.185	-85.449	-14.709	-76.42	21.53	-30.75	-50.176	-29.400	82.810	-0.78973	0.52704	-0.31085	0.04251	30.3	13111	100
2025-3-27 20:27:49.136	WT901BLE68-01(48591DE3C19B)	-0.271	-0.650	0.216	-39.185	-85.449	-14.709	-76.49	21.25	-29.83	-50.176	-29.400	82.810	-0.78973	0.52704	-0.31085	0.04251	30.3	13111	100
2025-3-27 20:27:49.137	WT901BLE68-01(48591DE3C19B)	-0.271	-0.628	0.205	-35.522	-58.655	-5.249	-76.59	21.04	-29.04	-50.176	-29.400	82.810	-0.78973	0.52704	-0.31085	0.04251	30.3	13111	100
2025-3-27 20:27:49.137	WT901BLE68-01(48591DE3C19B)	-0.305	-0.628	0.205	-35.522	-58.655	-5.249	-76.72	20.91	-28.39	-50.176	-29.400	82.810	-0.78973	0.52704	-0.31085	0.04251	30.3	13111	100
2025-3-27 20:27:49.137	WT901BLE68-01(48591DE3C19B)	-0.305	-0.602	0.230	-28.748	-33.752	-1.526	-76.86	20.82	-27.87	-50.176	-29.400	82.810	-0.78973	0.52704	-0.31085	0.04251	30.3	13111	100
2025-3-27 20:27:49.195	WT901BLE68-01(48591DE3C19B)	-0.326	-0.602	0.230	-28.748	-33.752	-1.526	-77.00	20.78	-27.47	-50.176	-29.400	82.810	-0.78973	0.52704	-0.31085	0.04251	30.3	13111	100
2025-3-27 20:27:49.195	WT901BLE68-01(48591DE3C19B)	-0.326	-0.519	0.266	-23.621	-24.414	0.916	-77.14	20.76	-27.12	-55.860	-24.794	86.338	-0.78973	0.52704	-0.31085	0.04251	30.3	13111	100
2025-3-27 20:27:49.195	WT901BLE68-01(48591DE3C19B)	-0.277	-0.519	0.266	-23.621	-24.414	0.916	-77.26	20.77	-26.81	-55.860	-24.794	86.338	-0.78973	0.52704	-0.31085	0.04251	30.3	13111	100
2025-3-27 20:27:49.195	WT901BLE68-01(48591DE3C19B)	-0.277	-0.353	0.253	-16.602	-13.306	6.775	-77.35	20.82	-26.56	-55.860	-24.794	86.338	-0.78973	0.52704	-0.31085	0.04251	30.3	13111	100
2025-3-27 20:27:49.224	WT901BLE68-01(48591DE3C19B)	-0.256	-0.353	0.253	-16.602	-13.306	6.775	-77.43	20.91	-26.35	-55.860	-24.794	86.338	-0.78973	0.52704	-0.31085	0.04251	30.3	13111	100
2025-3-27 20:27:49.224	WT901BLE68-01(48591DE3C19B)	-0.256	-0.198	0.201	-15.259	-4.211	18.799	-77.51	21.14	-26.21	-55.860	-24.794	86.338	-0.78973	0.52704	-0.31085	0.04251	30.3	13111	100
2025-3-27 20:27:49.224	WT901BLE68-01(48591DE3C19B)	-0.292	-0.198	0.201	-15.259	-4.211	18.799	-77.59	21.37	-26.07	-55.860	-24.794	86.338	-0.78973	0.52704	-0.31085	0.04251	30.3	13111	100
2025-3-27 20:27:49.224	WT901BLE68-01(48591DE3C19B)	-0.292	-0.232	0.165	-24.109	-9.094	28.259	-77.71	21.70	-25.84	-55.860	-24.794	86.338	-0.78973	0.52704	-0.31085	0.04251	30.3	13111	100
2025-3-27 20:27:49.254	WT901BLE68-01(48591DE3C19B)	-0.347	-0.232	0.165	-24.109	-9.094	28.259	-77.84	22.02	-25.61	-55.860	-24.794	86.338	-0.78973	0.52704	-0.31085	0.04251	30.3	13111	100
2025-3-27 20:27:49.255	WT901BLE68-01(48591DE3C19B)	-0.347	-0.446	0.169	-31.189	-25.391	32.043	-77.97	22.35	-25.20	-55.860	-24.794	86.338	-0.78973	0.52704	-0.31085	0.04251	30.3	13111	100
2025-3-27 20:27:49.255	WT901BLE68-01(48591DE3C19B)	-0.354	-0.446	0.169	-31.189	-25.391	32.043	-78.10	22.68	-24.79	-55.860	-24.794	86.338	-0.78973	0.52704	-0.31085	0.04251	30.3	13111	100
2025-3-27 20:27:49.255	WT901BLE68-01(48591DE3C19B)	-0.354	-0.633	0.180	-32.227	-46.143	31.372	-78.15	22.96	-24.17	-55.860	-24.794	86.338	-0.78973	0.52704	-0.31085	0.04251	30.3	13111	100
2025-3-27 20:27:49.315	WT901BLE68-01(48591DE3C19B)	-0.313	-0.633	0.180	-32.227	-46.143	31.372	-78.21	23.23	-23.55	-55.860	-24.794	86.338	-0.78973	0.52704	-0.31085	0.04251	30.3	13111	100
2025-3-27 20:27:49.315	WT901BLE68-01(48591DE3C19B)	-0.313	-0.924	0.161	-36.377	-57.312	24.841	-78.26	23.40	-22.84	-55.860	-24.794	86.338	-0.78973	0.52704	-0.31085	0.04251	30.3	13111	100
2025-3-27 20:27:49.316	WT901BLE68-01(48591DE3C19B)	-0.420	-0.924	0.161	-36.377	-57.312	24.841	-78.32	23.56	-22.13	-55.860	-24.794	86.338	-0.78973	0.52704	-0.31085	0.04251	30.3	13111	100
2025-3-27 20:27:49.316	WT901BLE68-01(48591DE3C19B)	-0.420	-1.644	0.217	-32.898	-54.504	3.845	-78.39	23.51	-21.52	-55.860	-24.794	86.338	-0.78973	0.52704	-0.31085	0.04251	30.3	13111	100
2025-3-27 20:27:49.344	WT901BLE68-01(48591DE3C19B)	-0.517	-1.644	0.217	-32.898	-54.504	3.845	-78.46	23.44	-20.92	-55.860	-24.794	86.338	-0.78973	0.52704	-0.31085	0.04251	30.3	13111	100
2025-3-27 20:27:49.344	WT901BLE68-01(48591DE3C19B)	-0.517	-2.424	0.161	-6.897	-39.063	-20.447	-78.38	23.15	-20.56	-55.860	-24.794	86.338	-0.78973	0.52704	-0.31085	0.04251	30.3	13111	100
2025-3-27 20:27:49.344	WT901BLE68-01(48591DE3C19B)	-0.440	-2.424	0.161	-6.897	-39.063	-20.447	-78.31	22.86	-20.20	-55.860	-24.794	86.338	-0.78973	0.52704	-0.31085	0.04251	30.3	13111	100
2025-3-27 20:27:49.344	WT901BLE68-01(48591DE3C19B)	-0.440	-2.297	0.111	39.246	-13.489	-13.672	-77.89	22.67	-20.12	-55.860	-24.794	86.338	-0.78973	0.52704	-0.31085	0.04251	30.3	13111	100
2025-3-27 20:27:49.405	WT901BLE68-01(48591DE3C19B)	-0.280	-2.297	0.111	39.246	-13.489	-13.672	-77.49	22.47	-20.04	-55.860	-24.794	86.338	-0.78973	0.52704	-0.31085	0.04251	30.3	13111	100
2025-3-27 20:27:49.406	WT901BLE68-01(48591DE3C19B)	-0.280	-1.600	0.107	45.654	31.799	-14.709	-77.21	22.36	-20.44	-55.860	-24.794	86.338	-0.78973	0.52704	-0.31085	0.04251	30.3	13111	100
2025-3-27 20:27:49.406	WT901BLE68-01(48591DE3C19B)	-0.194	-1.600	0.107	45.654	31.799	-14.709	-76.93	22.25	-20.84	-55.860	-24.794	86.338	-0.77725	0.57291	-0.25903	0.02090	30.3	13111	100
2025-3-27 20:27:49.406	WT901BLE68-01(48591DE3C19B)	-0.194	-1.301	0.142	36.255	73.059	-3.174	-76.90	22.35	-21.65	-55.860	-24.794	86.338	-0.77725	0.57291	-0.25903	0.02090	30.3	13111	100
2025-3-27 20:27:49.435	WT901BLE68-01(48591DE3C19B)	-0.258	-1.301	0.142	36.255	73.059	-3.174	-76.88	22.43	-22.46	-55.860	-24.794	86.338	-0.77725	0.57291	-0.25903	0.02090	30.3	13111	100
2025-3-27 20:27:49.435	WT901BLE68-01(48591DE3C19B)	-0.258	-0.944	0.256	28.748	79.224	12.024	-76.94	22.68	-23.29	-55.860	-24.794	86.338	-0.77725	0.57291	-0.25903	0.02090	30.3	13111	100
2025-3-27 20:27:49.435	WT901BLE68-01(48591DE3C19B)	-0.255	-0.944	0.256	28.748	79.224	12.024	-77.00	22.92	-24.12	-55.860	-24.794	86.338	-0.77725	0.57291	-0.25903	0.02090	30.3	13111	100
2025-3-27 20:27:49.435	WT901BLE68-01(48591DE3C19B)	-0.255	-0.624	0.354	7.263	49.622	16.846	-77.14	23.15	-24.62	-55.860	-24.794	86.338	-0.77725	0.57291	-0.25903	0.02090	30.3	13111	100
2025-3-27 20:27:49.464	WT901BLE68-01(48591DE3C19B)	-0.235	-0.624	0.354	7.263	49.622	16.846	-77.28	23.37	-25.12	-55.860	-24.794	86.338	-0.77725	0.57291	-0.25903	0.02090	30.3	13111	100
2025-3-27 20:27:49.464	WT901BLE68-01(48591DE3C19B)	-0.235	-0.521	0.375	-11.292	15.198	20.691	-77.44	23.55	-25.25	-55.860	-24.794	86.338	-0.77725	0.57291	-0.25903	0.02090	30.3	13111	100
2025-3-27 20:27:49.464	WT901BLE68-01(48591DE3C19B)	-0.219	-0.521	0.375	-11.292	15.198	20.691	-77.60	23.74	-25.37	-55.860	-24.794	86.338	-0.77725	0.57291	-0.25903	0.02090	30.3	13111	100
2025-3-27 20:27:49.464	WT901BLE68-01(48591DE3C19B)	-0.219	-0.461	0.296	-13.306	-4.700	25.940	-77.68	23.94	-25.27	-55.860	-24.794	86.338	-0.77725	0.57291	-0.25903	0.02090	30.3	13111	100
2025-3-27 20:27:49.495	WT901BLE68-01(48591DE3C19B)	-0.244	-0.461	0.296	-13.306	-4.700	25.940	-77.76	24.14	-25.16	-55.860	-24.794	86.338	-0.77725	0.57291	-0.25903	0.02090	30.3	13111	100
2025-3-27 20:27:49.495	WT901BLE68-01(48591DE3C19B)	-0.244	-0.461	0.203	-9.094	-10.193	28.809	-77.75	24.35	-25.00	-55.860	-24.794	86.338	-0.77725	0.57291	-0.25903	0.02090	30.3	13111	100
2025-3-27 20:27:49.495	WT901BLE68-01(48591DE3C19B)	-0.247	-0.461	0.203	-9.094	-10.193	28.809	-77.75	24.57	-24.83	-55.860	-24.794	86.338	-0.77725	0.57291	-0.25903	0.02090	30.3	13111	100
2025-3-27 20:27:49.495	WT901BLE68-01(48591DE3C19B)	-0.247	-0.484	0.166	2.563	-10.620	27.466	-77.62	24.77	-24.65	-55.860	-24.794	86.338	-0.77725	0.57291	-0.25903	0.02090	30.3	13111	100
2025-3-27 20:27:49.615	WT901BLE68-01(48591DE3C19B)	-0.193	-0.484	0.166	2.563	-10.620	27.466	-77.50	24.98	-24.48	-55.860	-24.794	86.338	-0.77725	0.57291	-0.25903	0.02090	30.3	13111	100
2025-3-27 20:27:49.616	WT901BLE68-01(48591DE3C19B)	-0.193	-0.439	0.175	18.616	-4.028	29.175	-77.24	25.21	-24.37	-55.860	-24.794	86.338	-0.77725	0.57291	-0.25903	0.02090	30.3	13111	100
2025-3-27 20:27:49.616	WT901BLE68-01(48591DE3C19B)	-0.160	-0.439	0.175	18.616	-4.028	29.175	-76.98	25.45	-24.26	-55.860	-24.794	86.338	-0.77725	0.57291	-0.25903	0.02090	30.3	13111	100
2025-3-27 20:27:49.616	WT901BLE68-01(48591DE3C19B)	-0.080	-0.375	0.196	33.691	15.320	30.762	-76.66	25.75	-24.35	-55.860	-24.794	86.338	-0.77725	0.57291	-0.25903	0.02090	30.3	13111	100
2025-3-27 20:27:49.617	WT901BLE68-01(48591DE3C19B)	-0.242	-0.187	0.098	33.691	15.320	30.762	-76.33	26.04	-24.44	-55.174	-24.108	87.514	-0.77725	0.57291	-0.25903	0.02090	30.3	13111	100
2025-3-27 20:27:49.617	WT901BLE68-01(48591DE3C19B)	-0.242	-0.414	0.159	39.734	40.100	30.029	-76.06	26.38	-24.80	-55.174	-24.108	87.514	-0.77725	0.57291	-0.25903	0.02090	30.3	13111	100
2025-3-27 20:27:49.617	WT901BLE68-01(48591DE3C19B)	-0.381	-0.414	0.159	39.734	40.100	30.029	-75.80	26.74	-25.14	-55.174	-24.108	87.514	-0.77725	0.57291	-0.25903	0.02090	30.3	13111	100
2025-3-27 20:27:49.617	WT901BLE68-01(48591DE3C19B)	-0.381	-0.586	0.081	34.607	53.467	29.419	-75.66	27.12	-25.64	-55.174	-24.108	87.514	-0.77725	0.57291	-0.25903	0.02090	30.3	13111	100
2025-3-27 20:27:49.618	WT901BLE68-01(48591DE3C19B)	-0.499	-0.586	0.081	34.607	53.467	29.419	-75.53	27.51	-26.12	-55.174	-24.108	87.514	-0.77725	0.57291	-0.25903	0.02090	30.3	13111	100
2025-3-27 20:27:49.618	WT901BLE68-01(48591DE3C19B)	-0.499	-0.776	-0.011	20.996	51.331	24.414	-75.54	27.85	-26.59	-55.174	-24.108	87.514	-0.77725	0.57291	-0.25903	0.02090	30.3	13111	100
2025-3-27 20:27:49.618	WT901BLE68-01(48591DE3C19B)	-0.596	-0.776	-0.011	20.996	51.331	24.414	-75.57	28.20	-27.06	-55.174	-24.108	87.514	-0.77725	0.57291	-0.25903	0.02090	30.3	13111	100
2025-3-27 20:27:49.618	WT901BLE68-01(48591DE3C19B)	-0.596	-1.132	0.041	2.625	33.447	8.179	-75.72	28.34	-27.38	-55.174	-24.108	87.514	-0.77725	0.57291	-0.25903	0.02090	30.3	13111	100
2025-3-27 20:27:49.675	WT901BLE68-01(48591DE3C19B)	-0.701	-1.132	0.041	2.625	33.447	8.179	-75.89	28.49	-27.70	-55.174	-24.108	87.514	-0.77725	0.57291	-0.25903	0.02090	30.3	13111	100
2025-3-27 20:27:49.675	WT901BLE68-01(48591DE3C19B)	-0.701	-1.514	0.228	-3.296	-0.427	-20.752	-75.97	28.27	-27.73	-55.174	-24.108	87.514	-0.77725	0.57291	-0.25903	0.02090	30.3	13111	100
2025-3-27 20:27:49.675	WT901BLE68-01(48591DE3C19B)	-0.790	-1.514	0.228	-3.296	-0.427	-20.752	-76.06	28.05	-27.76	-55.174	-24.108	87.514	-0.77725	0.57291	-0.25903	0.02090	30.3	13111	100
2025-3-27 20:27:49.675	WT901BLE68-01(48591DE3C19B)	-0.912	-1.719	0.472	-11.230	-29.846	-42.175	-76.09	27.55	-27.52	-55.174	-24.108	87.514	-0.77725	0.57291	-0.25903	0.02090	30.3	13111	100
2025-3-27 20:27:49.704	WT901BLE68-01(48591DE3C19B)	-0.912	-1.598	0.626	-5.127	-25.635	-50.415	-76.11	27.03	-27.32	-55.174	-24.108	87.514	-0.77725	0.57291	-0.25903	0.02090	30.3	13111	100
2025-3-27 20:27:49.705	WT901BLE68-01(48591DE3C19B)	-0.817	-1.598	0.626	-5.127	-25.635	-50.415	-76.10	26.47	-27.16	-55.174	-24.108	87.514	-0.77725	0.57291	-0.25903	0.02090	30.3	13111	100
2025-3-27 20:27:49.705	WT901BLE68-01(48591DE3C19B)	-0.817	-1.243	0.631	-1.526	-4.578	-36.987	-76.11	26.02	-27.09	-55.174	-24.108	87.514	-0.77725	0.57291	-0.25903	0.02090	30.3	13111	100
2025-3-27 20:27:49.705	WT901BLE68-01(48591DE3C19B)	-0.641	-1.243	0.631	-1.526	-4.578	-36.987	-76.14	25.65	-27.10	-55.174	-24.108	87.514	-0.77725	0.57291	-0.25903	0.02090	30.3	13111	100
2025-3-27 20:27:49.765	WT901BLE68-01(48591DE3C19B)	-0.641	-1.054	0.464	-8.606	13.062	-27.832	-76.23	25.36	-27.20	-55.174	-24.108	87.514	-0.77725	0.57291	-0.25903	0.02090	30.3	13111	100
2025-3-27 20:27:49.765	WT901BLE68-01(48591DE3C19B)	-0.487	-1.054	0.464	-8.606	13.062	-27.832	-76.38	25.13	-27.38	-55.174	-24.108	87.514	-0.77725	0.57291	-0.25903	0.02090	30.3	13111	100
2025-3-27 20:27:49.765	WT901BLE68-01(48591DE3C19B)	-0.487	-0.970	0.257	-13.733	2.258	-17.517	-76.53	24.94	-27.49	-55.174	-24.108	87.514	-0.77725	0.57291	-0.25903	0.02090	30.3	13111	100
2025-3-27 20:27:49.765	WT901BLE68-01(48591DE3C19B)	-0.467	-0.970	0.257	-13.733	2.258	-17.517	-76.67	24.80	-27.52	-55.174	-24.108	87.514	-0.77725	0.57291	-0.25903	0.02090	30.3	13111	100
2025-3-27 20:27:49.794	WT901BLE68-01(48591DE3C19B)	-0.467	-0.936	0.153	-15.564	-26.489	-5.432	-76.75	24.68	-27.39	-55.174	-24.108	87.514	-0.77545	0.55017	-0.30530	0.05164	30.3	13111	100
2025-3-27 20:27:49.794	WT901BLE68-01(48591DE3C19B)	-0.440	-0.936	0.153	-15.564	-26.489	-5.432	-76.78	24.58	-27.09	-55.174	-24.108	87.514	-0.77545	0.55017	-0.30530	0.05164	30.3	13111	100
2025-3-27 20:27:49.794	WT901BLE68-01(48591DE3C19B)	-0.440	-0.899	0.091	-16.357	-51.697	2.197	-76.75	24.49	-26.65	-55.174	-24.108	87.514	-0.77545	0.55017	-0.30530	0.05164	30.3	13111	100
2025-3-27 20:27:49.795	WT901BLE68-01(48591DE3C19B)	-0.356	-0.899	0.091	-16.357	-51.697	2.197	-76.67	24.41	-26.07	-55.174	-24.108	87.514	-0.77545	0.55017	-0.30530	0.05164	30.3	13111	100
2025-3-27 20:27:49.855	WT901BLE68-01(48591DE3C19B)	-0.356	-0.782	0.091	-9.827	-39.124	9.705	-76.59	24.38	-25.55	-55.174	-24.108	87.514	-0.77545	0.55017	-0.30530	0.05164	30.3	13111	100
2025-3-27 20:27:49.855	WT901BLE68-01(48591DE3C19B)	-0.307	-0.782	0.091	-9.827	-39.124	9.705	-76.50	24.40	-25.09	-55.174	-24.108	87.514	-0.77545	0.55017	-0.30530	0.05164	30.3	13111	100
2025-3-27 20:27:49.855	WT901BLE68-01(48591DE3C19B)	-0.307	-0.627	0.103	-3.418	-1.038	9.521	-76.48	24.46	-24.83	-55.174	-24.108	87.514	-0.77545	0.55017	-0.30530	0.05164	30.3	13111	100
2025-3-27 20:27:49.855	WT901BLE68-01(48591DE3C19B)	-0.320	-0.627	0.103	-3.418	-1.038	9.521	-76.50	24.55	-24.79	-55.174	-24.108	87.514	-0.77545	0.55017	-0.30530	0.05164	30.3	13111	100
2025-3-27 20:27:49.884	WT901BLE68-01(48591DE3C19B)	-0.320	-0.532	0.140	-0.061	37.842	9.888	-76.59	24.70	-24.94	-55.174	-24.108	87.514	-0.77545	0.55017	-0.30530	0.05164	30.3	13111	100
2025-3-27 20:27:49.885	WT901BLE68-01(48591DE3C19B)	-0.384	-0.532	0.140	-0.061	37.842	9.888	-76.75	24.90	-25.31	-55.174	-24.108	87.514	-0.77545	0.55017	-0.30530	0.05164	30.3	13111	100
2025-3-27 20:27:49.885	WT901BLE68-01(48591DE3C19B)	-0.384	-0.440	0.191	5.371	48.340	10.132	-76.91	25.11	-25.73	-55.174	-24.108	87.514	-0.77545	0.55017	-0.30530	0.05164	30.3	13111	100
2025-3-27 20:27:49.885	WT901BLE68-01(48591DE3C19B)	-0.376	-0.440	0.191	5.371	48.340	10.132	-77.06	25.33	-26.20	-55.174	-24.108	87.514	-0.77545	0.55017	-0.30530	0.05164	30.3	13111	100
2025-3-27 20:27:49.914	WT901BLE68-01(48591DE3C19B)	-0.376	-0.303	0.221	3.540	31.189	14.648	-77.18	25.56	-26.57	-55.174	-24.108	87.514	-0.77545	0.55017	-0.30530	0.05164	30.3	13111	100
2025-3-27 20:27:49.914	WT901BLE68-01(48591DE3C19B)	-0.331	-0.303	0.221	3.540	31.189	14.648	-77.26	25.80	-26.83	-55.174	-24.108	87.514	-0.77545	0.55017	-0.30530	0.05164	30.3	13111	100
2025-3-27 20:27:49.914	WT901BLE68-01(48591DE3C19B)	-0.331	-0.201	0.208	-4.761	10.498	22.278	-77.32	26.05	-26.97	-55.174	-24.108	87.514	-0.77545	0.55017	-0.30530	0.05164	30.3	13111	100
2025-3-27 20:27:49.914	WT901BLE68-01(48591DE3C19B)	-0.277	-0.201	0.208	-4.761	10.498	22.278	-77.37	26.33	-26.99	-55.174	-24.108	87.514	-0.77545	0.55017	-0.30530	0.05164	30.3	13111	100
2025-3-27 20:27:49.947	WT901BLE68-01(48591DE3C19B)	-0.277	-0.179	0.186	-18.494	-8.179	26.306	-77.43	26.61	-26.88	-55.174	-24.108	87.514	-0.77545	0.55017	-0.30530	0.05164	30.3	13111	100
2025-3-27 20:27:49.947	WT901BLE68-01(48591DE3C19B)	-0.326	-0.179	0.186	-18.494	-8.179	26.306	-77.51	26.90	-26.67	-55.174	-24.108	87.514	-0.77545	0.55017	-0.30530	0.05164	30.3	13111	100
2025-3-27 20:27:49.947	WT901BLE68-01(48591DE3C19B)	-0.326	-0.407	0.229	-38.696	-36.133	21.851	-77.61	27.14	-26.31	-55.174	-24.108	87.514	-0.77545	0.55017	-0.30530	0.05164	30.3	13111	100
2025-3-27 20:27:49.947	WT901BLE68-01(48591DE3C19B)	-0.426	-0.407	0.229	-38.696	-36.133	21.851	-77.74	27.32	-25.80	-55.174	-24.108	87.514	-0.77545	0.55017	-0.30530	0.05164	30.3	13111	100
2025-3-27 20:27:50.5	WT901BLE68-01(48591DE3C19B)	-0.426	-0.765	0.283	-51.758	-74.768	12.329	-77.84	27.42	-25.10	-55.174	-24.108	87.514	-0.77545	0.55017	-0.30530	0.05164	30.3	13111	100
2025-3-27 20:27:50.5	WT901BLE68-01(48591DE3C19B)	-0.504	-0.765	0.283	-51.758	-74.768	12.329	-77.91	27.42	-24.20	-58.604	-21.364	86.828	-0.77545	0.55017	-0.30530	0.05164	30.3	13111	100
2025-3-27 20:27:50.5	WT901BLE68-01(48591DE3C19B)	-0.504	-1.311	0.313	-57.434	-104.004	-1.343	-77.95	27.32	-23.16	-58.604	-21.364	86.828	-0.77545	0.55017	-0.30530	0.05164	30.3	13111	100
2025-3-27 20:27:50.5	WT901BLE68-01(48591DE3C19B)	-0.541	-1.311	0.313	-57.434	-104.004	-1.343	-77.95	27.11	-22.00	-58.604	-21.364	86.828	-0.77545	0.55017	-0.30530	0.05164	30.3	13111	100
2025-3-27 20:27:50.34	WT901BLE68-01(48591DE3C19B)	-0.541	-2.209	0.200	-48.584	-107.727	-31.677	-77.94	26.74	-20.87	-58.604	-21.364	86.828	-0.77545	0.55017	-0.30530	0.05164	30.3	13111	100
2025-3-27 20:27:50.34	WT901BLE68-01(48591DE3C19B)	-0.528	-2.209	0.200	-48.584	-107.727	-31.677	-77.92	26.19	-19.79	-58.604	-21.364	86.828	-0.77545	0.55017	-0.30530	0.05164	30.3	13111	100
2025-3-27 20:27:50.34	WT901BLE68-01(48591DE3C19B)	-0.528	-2.420	0.112	-4.333	-89.844	-23.743	-77.73	25.70	-18.81	-58.604	-21.364	86.828	-0.77545	0.55017	-0.30530	0.05164	30.3	13111	100
2025-3-27 20:27:50.34	WT901BLE68-01(48591DE3C19B)	-0.427	-2.420	0.112	-4.333	-89.844	-23.743	-77.40	25.24	-17.95	-58.604	-21.364	86.828	-0.77545	0.55017	-0.30530	0.05164	30.3	13111	100
2025-3-27 20:27:50.64	WT901BLE68-01(48591DE3C19B)	-0.427	-1.527	0.142	27.588	-57.434	-17.639	-76.99	24.85	-17.25	-58.604	-21.364	86.828	-0.77545	0.55017	-0.30530	0.05164	30.3	13111	100
2025-3-27 20:27:50.64	WT901BLE68-01(48591DE3C19B)	-0.128	-1.527	0.142	27.588	-57.434	-17.639	-76.51	24.51	-16.74	-58.604	-21.364	86.828	-0.77545	0.55017	-0.30530	0.05164	30.3	13111	100
2025-3-27 20:27:50.64	WT901BLE68-01(48591DE3C19B)	-0.128	-1.081	0.117	20.691	-10.681	0.183	-76.16	24.31	-16.46	-58.604	-21.364	86.828	-0.77545	0.55017	-0.30530	0.05164	30.3	13111	100
2025-3-27 20:27:50.64	WT901BLE68-01(48591DE3C19B)	-0.010	-1.081	0.117	20.691	-10.681	0.183	-75.94	24.25	-16.41	-58.604	-21.364	86.828	-0.77545	0.55017	-0.30530	0.05164	30.3	13111	100
2025-3-27 20:27:50.124	WT901BLE68-01(48591DE3C19B)	-0.010	-0.861	0.193	18.311	42.419	22.583	-75.85	24.36	-16.62	-58.604	-21.364	86.828	-0.77545	0.55017	-0.30530	0.05164	30.3	13111	100
2025-3-27 20:27:50.124	WT901BLE68-01(48591DE3C19B)	-0.099	-0.861	0.193	18.311	42.419	22.583	-75.87	24.63	-17.08	-58.604	-21.364	86.828	-0.77545	0.55017	-0.30530	0.05164	30.3	13111	100
2025-3-27 20:27:50.124	WT901BLE68-01(48591DE3C19B)	-0.099	-0.741	0.217	7.202	52.734	28.503	-75.96	24.94	-17.59	-58.604	-21.364	86.828	-0.77545	0.55017	-0.30530	0.05164	30.3	13111	100
2025-3-27 20:27:50.124	WT901BLE68-01(48591DE3C19B)	-0.119	-0.741	0.217	7.202	52.734	28.503	-76.13	25.28	-18.14	-58.604	-21.364	86.828	-0.77545	0.55017	-0.30530	0.05164	30.3	13111	100
2025-3-27 20:27:50.154	WT901BLE68-01(48591DE3C19B)	-0.119	-0.787	0.230	-8.362	25.574	20.691	-76.32	25.54	-18.57	-58.604	-21.364	86.828	-0.77545	0.55017	-0.30530	0.05164	30.3	13111	100
2025-3-27 20:27:50.154	WT901BLE68-01(48591DE3C19B)	-0.180	-0.787	0.230	-8.362	25.574	20.691	-76.53	25.73	-18.85	-58.604	-21.364	86.828	-0.77545	0.55017	-0.30530	0.05164	30.3	13111	100
2025-3-27 20:27:50.154	WT901BLE68-01(48591DE3C19B)	-0.180	-0.790	0.222	2.625	19.104	17.395	-76.60	25.87	-19.08	-58.604	-21.364	86.828	-0.77545	0.55017	-0.30530	0.05164	30.3	13111	100
2025-3-27 20:27:50.154	WT901BLE68-01(48591DE3C19B)	-0.282	-0.790	0.222	2.625	19.104	17.395	-76.66	26.01	-19.31	-58.604	-21.364	86.828	-0.77545	0.55017	-0.30530	0.05164	30.3	13111	100
2025-3-27 20:27:50.214	WT901BLE68-01(48591DE3C19B)	-0.282	-0.644	0.171	15.015	36.560	6.775	-76.70	26.09	-19.74	-58.604	-21.364	86.828	-0.77545	0.55017	-0.30530	0.05164	30.3	13111	100
2025-3-27 20:27:50.214	WT901BLE68-01(48591DE3C19B)	-0.324	-0.644	0.171	15.015	36.560	6.775	-76.73	26.16	-20.18	-58.604	-21.364	86.828	-0.77545	0.55017	-0.30530	0.05164	30.3	13111	100
2025-3-27 20:27:50.215	WT901BLE68-01(48591DE3C19B)	-0.324	-0.491	0.109	23.499	55.420	4.517	-76.77	26.27	-20.82	-58.604	-21.364	86.828	-0.77609	0.56174	-0.28638	0.00092	30.3	13111	100
2025-3-27 20:27:50.215	WT901BLE68-01(48591DE3C19B)	-0.307	-0.491	0.109	23.499	55.420	4.517	-76.81	26.38	-21.45	-58.604	-21.364	86.828	-0.77609	0.56174	-0.28638	0.00092	30.3	13111	100
2025-3-27 20:27:50.244	WT901BLE68-01(48591DE3C19B)	-0.307	-0.424	0.108	29.846	60.364	9.949	-76.81	26.56	-22.12	-58.604	-21.364	86.828	-0.77609	0.56174	-0.28638	0.00092	30.3	13111	100
2025-3-27 20:27:50.244	WT901BLE68-01(48591DE3C19B)	-0.289	-0.424	0.108	29.846	60.364	9.949	-76.80	26.75	-22.79	-58.604	-21.364	86.828	-0.77609	0.56174	-0.28638	0.00092	30.3	13111	100
2025-3-27 20:27:50.244	WT901BLE68-01(48591DE3C19B)	-0.289	-0.381	0.146	36.072	52.002	11.780	-76.68	26.94	-23.35	-58.604	-21.364	86.828	-0.77609	0.56174	-0.28638	0.00092	30.3	13111	100
2025-3-27 20:27:50.244	WT901BLE68-01(48591DE3C19B)	-0.321	-0.381	0.146	36.072	52.002	11.780	-76.57	27.14	-23.90	-58.604	-21.364	86.828	-0.77609	0.56174	-0.28638	0.00092	30.3	13111	100
2025-3-27 20:27:50.305	WT901BLE68-01(48591DE3C19B)	-0.321	-0.308	0.202	40.039	41.931	14.954	-76.37	27.34	-24.33	-58.604	-21.364	86.828	-0.77609	0.56174	-0.28638	0.00092	30.3	13111	100
2025-3-27 20:27:50.305	WT901BLE68-01(48591DE3C19B)	-0.400	-0.308	0.202	40.039	41.931	14.954	-76.15	27.56	-24.76	-58.604	-21.364	86.828	-0.77609	0.56174	-0.28638	0.00092	30.3	13111	100
2025-3-27 20:27:50.305	WT901BLE68-01(48591DE3C19B)	-0.400	-0.294	0.196	33.081	21.606	26.855	-75.89	27.86	-24.92	-58.604	-21.364	86.828	-0.77609	0.56174	-0.28638	0.00092	30.3	13111	100
2025-3-27 20:27:50.305	WT901BLE68-01(48591DE3C19B)	-0.374	-0.294	0.196	33.081	21.606	26.855	-75.62	28.16	-25.08	-58.604	-21.364	86.828	-0.77609	0.56174	-0.28638	0.00092	30.3	13111	100
2025-3-27 20:27:50.307	WT901BLE68-01(48591DE3C19B)	-0.374	-0.413	0.133	18.555	1.648	33.020	-75.38	28.49	-24.98	-58.604	-21.364	86.828	-0.77609	0.56174	-0.28638	0.00092	30.3	13111	100
2025-3-27 20:27:50.307	WT901BLE68-01(48591DE3C19B)	-0.315	-0.413	0.133	18.555	1.648	33.020	-75.14	28.81	-24.89	-58.604	-21.364	86.828	-0.77609	0.56174	-0.28638	0.00092	30.3	13111	100
2025-3-27 20:27:50.307	WT901BLE68-01(48591DE3C19B)	-0.315	-0.654	0.073	6.165	-2.075	32.715	-75.01	29.12	-24.75	-58.604	-21.364	86.828	-0.77609	0.56174	-0.28638	0.00092	30.3	13111	100
2025-3-27 20:27:50.307	WT901BLE68-01(48591DE3C19B)	-0.401	-0.654	0.073	6.165	-2.075	32.715	-74.89	29.43	-24.63	-58.604	-21.364	86.828	-0.77609	0.56174	-0.28638	0.00092	30.3	13111	100
2025-3-27 20:27:50.364	WT901BLE68-01(48591DE3C19B)	-0.401	-1.036	0.100	-2.075	2.808	22.644	-74.90	29.65	-24.58	-58.604	-21.364	86.828	-0.77609	0.56174	-0.28638	0.00092	30.3	13111	100
2025-3-27 20:27:50.364	WT901BLE68-01(48591DE3C19B)	-0.573	-1.036	0.100	-2.075	2.808	22.644	-74.92	29.86	-24.55	-58.604	-21.364	86.828	-0.77609	0.56174	-0.28638	0.00092	30.3	13111	100
2025-3-27 20:27:50.364	WT901BLE68-01(48591DE3C19B)	-0.573	-1.433	0.229	4.517	3.967	-0.549	-74.92	29.83	-24.60	-58.604	-21.364	86.828	-0.77609	0.56174	-0.28638	0.00092	30.3	13111	100
2025-3-27 20:27:50.364	WT901BLE68-01(48591DE3C19B)	-0.675	-1.433	0.229	4.517	3.967	-0.549	-74.92	29.81	-24.66	-58.604	-21.364	86.828	-0.77609	0.56174	-0.28638	0.00092	30.3	13111	100
2025-3-27 20:27:50.425	WT901BLE68-01(48591DE3C19B)	-0.675	-1.568	0.347	4.089	4.822	-30.579	-74.98	29.50	-24.82	-59.976	-16.856	85.750	-0.77609	0.56174	-0.28638	0.00092	30.3	13111	100
2025-3-27 20:27:50.425	WT901BLE68-01(48591DE3C19B)	-0.787	-1.568	0.347	4.089	4.822	-30.579	-75.03	29.19	-24.97	-59.976	-16.856	85.750	-0.77609	0.56174	-0.28638	0.00092	30.3	13111	100
2025-3-27 20:27:50.425	WT901BLE68-01(48591DE3C19B)	-0.787	-1.640	0.390	2.747	26.672	-44.250	-75.23	28.80	-25.41	-59.976	-16.856	85.750	-0.77609	0.56174	-0.28638	0.00092	30.3	13111	100
2025-3-27 20:27:50.425	WT901BLE68-01(48591DE3C19B)	-0.832	-1.640	0.390	2.747	26.672	-44.250	-75.42	28.42	-25.84	-59.976	-16.856	85.750	-0.77609	0.56174	-0.28638	0.00092	30.3	13111	100
2025-3-27 20:27:50.454	WT901BLE68-01(48591DE3C19B)	-0.832	-1.357	0.412	7.813	53.528	-52.551	-75.70	28.03	-26.58	-59.976	-16.856	85.750	-0.77609	0.56174	-0.28638	0.00092	30.3	13111	100
2025-3-27 20:27:50.454	WT901BLE68-01(48591DE3C19B)	-0.725	-1.357	0.412	7.813	53.528	-52.551	-75.97	27.64	-27.31	-59.976	-16.856	85.750	-0.77609	0.56174	-0.28638	0.00092	30.3	13111	100
2025-3-27 20:27:50.454	WT901BLE68-01(48591DE3C19B)	-0.725	-1.010	0.394	0.671	53.162	-49.805	-76.29	27.27	-28.02	-59.976	-16.856	85.750	-0.77609	0.56174	-0.28638	0.00092	30.3	13111	100
2025-3-27 20:27:50.454	WT901BLE68-01(48591DE3C19B)	-0.574	-1.010	0.394	0.671	53.162	-49.805	-76.60	26.92	-28.71	-59.976	-16.856	85.750	-0.77609	0.56174	-0.28638	0.00092	30.3	13111	100
2025-3-27 20:27:50.484	WT901BLE68-01(48591DE3C19B)	-0.574	-0.761	0.307	-12.695	25.574	-44.800	-76.90	26.54	-29.08	-59.976	-16.856	85.750	-0.77609	0.56174	-0.28638	0.00092	30.3	13111	100
2025-3-27 20:27:50.484	WT901BLE68-01(48591DE3C19B)	-0.538	-0.761	0.307	-12.695	25.574	-44.800	-77.18	26.18	-29.45	-59.976	-16.856	85.750	-0.77609	0.56174	-0.28638	0.00092	30.3	13111	100
2025-3-27 20:27:50.484	WT901BLE68-01(48591DE3C19B)	-0.538	-0.708	0.217	-30.518	-17.334	-41.870	-77.43	25.75	-29.33	-59.976	-16.856	85.750	-0.77609	0.56174	-0.28638	0.00092	30.3	13111	100
2025-3-27 20:27:50.484	WT901BLE68-01(48591DE3C19B)	-0.577	-0.708	0.217	-30.518	-17.334	-41.870	-77.68	25.33	-29.22	-59.976	-16.856	85.750	-0.77609	0.56174	-0.28638	0.00092	30.3	13111	100
2025-3-27 20:27:50.545	WT901BLE68-01(48591DE3C19B)	-0.577	-0.818	0.210	-41.321	-61.340	-40.527	-77.83	24.83	-28.63	-59.976	-16.856	85.750	-0.77609	0.56174	-0.28638	0.00092	30.3	13111	100
2025-3-27 20:27:50.545	WT901BLE68-01(48591DE3C19B)	-0.573	-0.818	0.210	-41.321	-61.340	-40.527	-77.99	24.35	-28.04	-59.976	-16.856	85.750	-0.77609	0.56174	-0.28638	0.00092	30.3	13111	100
2025-3-27 20:27:50.545	WT901BLE68-01(48591DE3C19B)	-0.573	-0.883	0.257	-37.476	-87.341	-36.804	-78.00	23.85	-27.16	-59.976	-16.856	85.750	-0.77609	0.56174	-0.28638	0.00092	30.3	13111	100
2025-3-27 20:27:50.546	WT901BLE68-01(48591DE3C19B)	-0.462	-0.883	0.257	-37.476	-87.341	-36.804	-78.01	23.35	-26.30	-59.976	-16.856	85.750	-0.77609	0.56174	-0.28638	0.00092	30.3	13111	100
2025-3-27 20:27:50.546	WT901BLE68-01(48591DE3C19B)	-0.462	-0.809	0.286	-27.405	-81.238	-35.339	-77.96	22.88	-25.50	-59.976	-16.856	85.750	-0.77609	0.56174	-0.28638	0.00092	30.3	13111	100
2025-3-27 20:27:50.546	WT901BLE68-01(48591DE3C19B)	-0.345	-0.809	0.286	-27.405	-81.238	-35.339	-77.91	22.41	-24.71	-59.976	-16.856	85.750	-0.77609	0.56174	-0.28638	0.00092	30.3	13111	100
2025-3-27 20:27:50.546	WT901BLE68-01(48591DE3C19B)	-0.345	-0.625	0.258	-16.907	-55.176	-26.855	-77.85	22.08	-24.18	-59.976	-16.856	85.750	-0.77609	0.56174	-0.28638	0.00092	30.3	13111	100
2025-3-27 20:27:50.546	WT901BLE68-01(48591DE3C19B)	-0.229	-0.625	0.258	-16.907	-55.176	-26.855	-77.81	21.75	-23.65	-59.976	-16.856	85.750	-0.77609	0.56174	-0.28638	0.00092	30.3	13111	100
2025-3-27 20:27:50.605	WT901BLE68-01(48591DE3C19B)	-0.229	-0.408	0.233	-8.301	-22.339	-13.977	-77.78	21.62	-23.44	-59.976	-16.856	85.750	-0.77609	0.56174	-0.28638	0.00092	30.3	13111	100
2025-3-27 20:27:50.605	WT901BLE68-01(48591DE3C19B)	-0.172	-0.408	0.233	-8.301	-22.339	-13.977	-77.75	21.48	-23.24	-59.976	-16.856	85.750	-0.77271	0.57477	-0.26630	0.03943	30.3	13111	100
2025-3-27 20:27:50.605	WT901BLE68-01(48591DE3C19B)	-0.203	-0.244	0.242	-6.104	3.723	-1.526	-77.79	21.52	-23.27	-59.976	-16.856	85.750	-0.77271	0.57477	-0.26630	0.03943	30.3	13111	100
2025-3-27 20:27:50.605	WT901BLE68-01(48591DE3C19B)	-0.203	-0.274	0.245	-14.771	13.000	8.606	-77.88	21.63	-23.35	-59.976	-16.856	85.750	-0.77271	0.57477	-0.26630	0.03943	30.3	13111	100
2025-3-27 20:27:50.694	WT901BLE68-01(48591DE3C19B)	-0.304	-0.274	0.245	-14.771	13.000	8.606	-78.01	21.79	-23.45	-59.976	-16.856	85.750	-0.77271	0.57477	-0.26630	0.03943	30.3	13111	100
2025-3-27 20:27:50.695	WT901BLE68-01(48591DE3C19B)	-0.304	-0.440	0.251	-25.513	-1.038	15.137	-78.17	21.96	-23.48	-59.976	-16.856	85.750	-0.77271	0.57477	-0.26630	0.03943	30.3	13111	100
2025-3-27 20:27:50.695	WT901BLE68-01(48591DE3C19B)	-0.429	-0.440	0.251	-25.513	-1.038	15.137	-78.34	22.15	-23.42	-59.976	-16.856	85.750	-0.77271	0.57477	-0.26630	0.03943	30.3	13111	100
2025-3-27 20:27:50.695	WT901BLE68-01(48591DE3C19B)	-0.429	-0.688	0.237	-37.354	-32.715	18.860	-78.50	22.34	-23.19	-59.976	-16.856	85.750	-0.77271	0.57477	-0.26630	0.03943	30.3	13111	100
2025-3-27 20:27:50.695	WT901BLE68-01(48591DE3C19B)	-0.548	-0.688	0.237	-37.354	-32.715	18.860	-78.66	22.50	-22.80	-59.976	-16.856	85.750	-0.77271	0.57477	-0.26630	0.03943	30.3	13111	100
2025-3-27 20:27:50.696	WT901BLE68-01(48591DE3C19B)	-0.548	-1.138	0.241	-49.683	-73.120	21.790	-78.80	22.64	-22.18	-59.976	-16.856	85.750	-0.77271	0.57477	-0.26630	0.03943	30.3	13111	100
2025-3-27 20:27:50.696	WT901BLE68-01(48591DE3C19B)	-0.515	-1.138	0.241	-49.683	-73.120	21.790	-78.93	22.75	-21.36	-59.976	-16.856	85.750	-0.77271	0.57477	-0.26630	0.03943	30.3	13111	100
2025-3-27 20:27:50.696	WT901BLE68-01(48591DE3C19B)	-0.515	-1.875	0.167	-47.546	-95.032	5.615	-79.01	22.76	-20.45	-59.976	-16.856	85.750	-0.77271	0.57477	-0.26630	0.03943	30.3	13111	100
2025-3-27 20:27:50.724	WT901BLE68-01(48591DE3C19B)	-0.407	-1.875	0.167	-47.546	-95.032	5.615	-79.06	22.65	-19.45	-59.976	-16.856	85.750	-0.77271	0.57477	-0.26630	0.03943	30.3	13111	100
2025-3-27 20:27:50.724	WT901BLE68-01(48591DE3C19B)	-0.407	-2.307	0.102	-13.367	-86.548	-7.446	-78.98	22.47	-18.52	-59.976	-16.856	85.750	-0.77271	0.57477	-0.26630	0.03943	30.3	13111	100
2025-3-27 20:27:50.724	WT901BLE68-01(48591DE3C19B)	-0.405	-2.307	0.102	-13.367	-86.548	-7.446	-78.77	22.23	-17.67	-59.976	-16.856	85.750	-0.77271	0.57477	-0.26630	0.03943	30.3	13111	100
2025-3-27 20:27:50.724	WT901BLE68-01(48591DE3C19B)	-0.405	-1.951	0.143	22.705	-69.580	-5.676	-78.43	21.99	-16.92	-59.976	-16.856	85.750	-0.77271	0.57477	-0.26630	0.03943	30.3	13111	100
2025-3-27 20:27:50.784	WT901BLE68-01(48591DE3C19B)	-0.191	-1.951	0.143	22.705	-69.580	-5.676	-77.95	21.77	-16.27	-59.976	-16.856	85.750	-0.77271	0.57477	-0.26630	0.03943	30.3	13111	100
2025-3-27 20:27:50.784	WT901BLE68-01(48591DE3C19B)	-0.191	-1.443	0.147	23.621	-36.194	-8.118	-77.55	21.57	-15.80	-59.976	-16.856	85.750	-0.77271	0.57477	-0.26630	0.03943	30.3	13111	100
2025-3-27 20:27:50.784	WT901BLE68-01(48591DE3C19B)	-0.052	-1.443	0.147	23.621	-36.194	-8.118	-77.21	21.38	-15.51	-59.976	-16.856	85.750	-0.77271	0.57477	-0.26630	0.03943	30.3	13111	100
2025-3-27 20:27:50.784	WT901BLE68-01(48591DE3C19B)	-0.052	-1.173	0.181	24.902	21.118	-1.343	-76.98	21.29	-15.53	-59.976	-16.856	85.750	-0.77271	0.57477	-0.26630	0.03943	30.3	13111	100
2025-3-27 20:27:50.785	WT901BLE68-01(48591DE3C19B)	-0.130	-1.173	0.181	24.902	21.118	-1.343	-76.85	21.29	-15.83	-59.976	-16.856	85.750	-0.77271	0.57477	-0.26630	0.03943	30.3	13111	100
2025-3-27 20:27:50.785	WT901BLE68-01(48591DE3C19B)	-0.130	-0.933	0.217	25.696	62.195	3.357	-76.79	21.35	-16.35	-59.976	-16.856	85.750	-0.77271	0.57477	-0.26630	0.03943	30.3	13111	100
2025-3-27 20:27:50.785	WT901BLE68-01(48591DE3C19B)	-0.230	-0.933	0.217	25.696	62.195	3.357	-76.80	21.47	-17.07	-55.076	-19.796	86.730	-0.77271	0.57477	-0.26630	0.03943	30.3	13111	100
2025-3-27 20:27:50.785	WT901BLE68-01(48591DE3C19B)	-0.230	-0.723	0.203	20.813	62.073	3.113	-76.84	21.60	-17.78	-55.076	-19.796	86.730	-0.77271	0.57477	-0.26630	0.03943	30.3	13111	100
2025-3-27 20:27:50.875	WT901BLE68-01(48591DE3C19B)	-0.235	-0.723	0.203	20.813	62.073	3.113	-76.89	21.72	-18.50	-55.076	-19.796	86.730	-0.77271	0.57477	-0.26630	0.03943	30.3	13111	100
2025-3-27 20:27:50.875	WT901BLE68-01(48591DE3C19B)	-0.235	-0.554	0.157	14.099	40.710	0.488	-76.94	21.80	-19.09	-55.076	-19.796	86.730	-0.77271	0.57477	-0.26630	0.03943	30.3	13111	100
2025-3-27 20:27:50.875	WT901BLE68-01(48591DE3C19B)	-0.214	-0.554	0.157	14.099	40.710	0.488	-76.99	21.86	-19.58	-55.076	-19.796	86.730	-0.77271	0.57477	-0.26630	0.03943	30.3	13111	100
2025-3-27 20:27:50.875	WT901BLE68-01(48591DE3C19B)	-0.214	-0.468	0.081	10.071	23.987	1.038	-77.01	21.89	-19.98	-55.076	-19.796	86.730	-0.77271	0.57477	-0.26630	0.03943	30.3	13111	100
2025-3-27 20:27:50.876	WT901BLE68-01(48591DE3C19B)	-0.250	-0.468	0.081	10.071	23.987	1.038	-77.03	21.91	-20.29	-55.076	-19.796	86.730	-0.77271	0.57477	-0.26630	0.03943	30.3	13111	100
2025-3-27 20:27:50.876	WT901BLE68-01(48591DE3C19B)	-0.250	-0.472	0.056	9.949	16.846	3.845	-77.03	21.95	-20.55	-55.076	-19.796	86.730	-0.77271	0.57477	-0.26630	0.03943	30.3	13111	100
2025-3-27 20:27:50.876	WT901BLE68-01(48591DE3C19B)	-0.284	-0.472	0.056	9.949	16.846	3.845	-77.01	21.98	-20.77	-55.076	-19.796	86.730	-0.77271	0.57477	-0.26630	0.03943	30.3	13111	100
2025-3-27 20:27:50.876	WT901BLE68-01(48591DE3C19B)	-0.284	-0.535	0.066	13.550	9.338	9.155	-76.96	22.05	-20.93	-55.076	-19.796	86.730	-0.77271	0.57477	-0.26630	0.03943	30.3	13111	100
2025-3-27 20:27:50.905	WT901BLE68-01(48591DE3C19B)	-0.197	-0.535	0.066	13.550	9.338	9.155	-76.87	22.13	-21.06	-55.076	-19.796	86.730	-0.77271	0.57477	-0.26630	0.03943	30.3	13111	100
2025-3-27 20:27:50.905	WT901BLE68-01(48591DE3C19B)	-0.197	-0.425	0.099	23.682	4.028	19.836	-76.72	22.26	-21.14	-55.076	-19.796	86.730	-0.77271	0.57477	-0.26630	0.03943	30.3	13111	100
2025-3-27 20:27:50.905	WT901BLE68-01(48591DE3C19B)	-0.142	-0.425	0.099	23.682	4.028	19.836	-76.51	22.45	-21.17	-55.076	-19.796	86.730	-0.77271	0.57477	-0.26630	0.03943	30.3	13111	100
2025-3-27 20:27:50.905	WT901BLE68-01(48591DE3C19B)	-0.142	-0.294	0.128	28.992	12.024	31.067	-76.28	22.69	-21.24	-55.076	-19.796	86.730	-0.77271	0.57477	-0.26630	0.03943	30.3	13111	100
2025-3-27 20:27:50.965	WT901BLE68-01(48591DE3C19B)	-0.194	-0.294	0.128	28.992	12.024	31.067	-76.03	23.00	-21.32	-55.076	-19.796	86.730	-0.77271	0.57477	-0.26630	0.03943	30.3	13111	100
2025-3-27 20:27:50.965	WT901BLE68-01(48591DE3C19B)	-0.194	-0.316	0.147	24.902	22.156	42.297	-75.81	23.37	-21.45	-55.076	-19.796	86.730	-0.77271	0.57477	-0.26630	0.03943	30.3	13111	100
2025-3-27 20:27:50.965	WT901BLE68-01(48591DE3C19B)	-0.302	-0.316	0.147	24.902	22.156	42.297	-75.62	23.82	-21.60	-55.076	-19.796	86.730	-0.77271	0.57477	-0.26630	0.03943	30.3	13111	100
2025-3-27 20:27:50.965	WT901BLE68-01(48591DE3C19B)	-0.302	-0.554	0.148	15.564	23.376	49.622	-75.48	24.30	-21.75	-55.076	-19.796	86.730	-0.77271	0.57477	-0.26630	0.03943	30.3	13111	100
2025-3-27 20:27:50.994	WT901BLE68-01(48591DE3C19B)	-0.326	-0.554	0.148	15.564	23.376	49.622	-75.38	24.82	-21.89	-55.076	-19.796	86.730	-0.77271	0.57477	-0.26630	0.03943	30.3	13111	100
2025-3-27 20:27:50.994	WT901BLE68-01(48591DE3C19B)	-0.326	-0.845	0.100	8.118	22.827	48.279	-75.32	25.33	-22.03	-55.076	-19.796	86.730	-0.77271	0.57477	-0.26630	0.03943	30.3	13111	100
2025-3-27 20:27:50.994	WT901BLE68-01(48591DE3C19B)	-0.383	-0.845	0.100	8.118	22.827	48.279	-75.31	25.83	-22.17	-55.076	-19.796	86.730	-0.77271	0.57477	-0.26630	0.03943	30.3	13111	100
2025-3-27 20:27:50.995	WT901BLE68-01(48591DE3C19B)	-0.383	-1.214	0.083	4.150	29.114	33.569	-75.34	26.27	-22.37	-55.076	-19.796	86.730	-0.78308	0.54889	-0.29190	0.01328	30.3	13111	100
2025-3-27 20:27:51.24	WT901BLE68-01(48591DE3C19B)	-0.550	-1.214	0.083	4.150	29.114	33.569	-75.43	26.63	-22.62	-55.076	-19.796	86.730	-0.78308	0.54889	-0.29190	0.01328	30.3	13111	100
2025-3-27 20:27:51.25	WT901BLE68-01(48591DE3C19B)	-0.550	-1.509	0.168	16.785	30.945	-1.709	-75.48	26.83	-22.94	-55.076	-19.796	86.730	-0.78308	0.54889	-0.29190	0.01328	30.3	13111	100
2025-3-27 20:27:51.25	WT901BLE68-01(48591DE3C19B)	-0.752	-1.509	0.168	16.785	30.945	-1.709	-75.51	26.85	-23.32	-55.076	-19.796	86.730	-0.78308	0.54889	-0.29190	0.01328	30.3	13111	100
2025-3-27 20:27:51.25	WT901BLE68-01(48591DE3C19B)	-0.752	-1.596	0.345	9.094	16.846	-46.997	-75.56	26.64	-23.68	-55.076	-19.796	86.730	-0.78308	0.54889	-0.29190	0.01328	30.3	13111	100
2025-3-27 20:27:51.147	WT901BLE68-01(48591DE3C19B)	-0.966	-1.596	0.345	9.094	16.846	-46.997	-75.65	26.20	-24.02	-55.076	-19.796	86.730	-0.78308	0.54889	-0.29190	0.01328	30.3	13111	100
2025-3-27 20:27:51.147	WT901BLE68-01(48591DE3C19B)	-0.966	-1.751	0.475	5.066	11.963	-67.444	-75.76	25.55	-24.36	-55.076	-19.796	86.730	-0.78308	0.54889	-0.29190	0.01328	30.3	13111	100
2025-3-27 20:27:51.147	WT901BLE68-01(48591DE3C19B)	-0.940	-1.751	0.475	5.066	11.963	-67.444	-75.86	24.92	-24.69	-55.076	-19.796	86.730	-0.78308	0.54889	-0.29190	0.01328	30.3	13111	100
2025-3-27 20:27:51.147	WT901BLE68-01(48591DE3C19B)	-0.940	-1.387	0.562	12.512	27.283	-69.275	-75.95	24.31	-25.17	-55.076	-19.796	86.730	-0.78308	0.54889	-0.29190	0.01328	30.3	13111	100
2025-3-27 20:27:51.148	WT901BLE68-01(48591DE3C19B)	-0.735	-1.387	0.562	12.512	27.283	-69.275	-76.02	23.71	-25.65	-55.076	-19.796	86.730	-0.78308	0.54889	-0.29190	0.01328	30.3	13111	100
2025-3-27 20:27:51.148	WT901BLE68-01(48591DE3C19B)	-0.735	-0.968	0.544	4.700	39.185	-56.030	-76.19	23.28	-26.21	-55.076	-19.796	86.730	-0.78308	0.54889	-0.29190	0.01328	30.3	13111	100
2025-3-27 20:27:51.148	WT901BLE68-01(48591DE3C19B)	-0.498	-0.968	0.544	4.700	39.185	-56.030	-76.35	22.85	-26.76	-55.076	-19.796	86.730	-0.78308	0.54889	-0.29190	0.01328	30.3	13111	100
2025-3-27 20:27:51.148	WT901BLE68-01(48591DE3C19B)	-0.498	-0.647	0.383	-3.052	30.273	-36.560	-76.52	22.60	-27.16	-55.076	-19.796	86.730	-0.78308	0.54889	-0.29190	0.01328	30.3	13111	100
2025-3-27 20:27:51.205	WT901BLE68-01(48591DE3C19B)	-0.425	-0.647	0.383	-3.052	30.273	-36.560	-76.68	22.35	-27.55	-55.076	-19.796	86.730	-0.78308	0.54889	-0.29190	0.01328	30.3	13111	100
2025-3-27 20:27:51.205	WT901BLE68-01(48591DE3C19B)	-0.425	-0.466	0.247	-19.287	-18.860	-14.343	-76.78	22.20	-27.37	-55.076	-19.796	86.730	-0.78308	0.54889	-0.29190	0.01328	30.3	13111	100
2025-3-27 20:27:51.206	WT901BLE68-01(48591DE3C19B)	-0.371	-0.466	0.247	-19.287	-18.860	-14.343	-76.88	22.07	-27.19	-55.076	-19.796	86.730	-0.78308	0.54889	-0.29190	0.01328	30.3	13111	100
2025-3-27 20:27:51.206	WT901BLE68-01(48591DE3C19B)	-0.371	-0.539	0.159	-39.307	-73.181	-5.798	-76.96	21.89	-26.42	-55.076	-19.796	86.730	-0.78308	0.54889	-0.29190	0.01328	30.3	13111	100
2025-3-27 20:27:51.207	WT901BLE68-01(48591DE3C19B)	-0.345	-0.539	0.159	-39.307	-73.181	-5.798	-77.04	21.71	-25.65	-55.076	-19.796	86.730	-0.78308	0.54889	-0.29190	0.01328	30.3	13111	100
2025-3-27 20:27:51.207	WT901BLE68-01(48591DE3C19B)	-0.345	-0.721	0.174	-36.133	-79.102	4.700	-77.06	21.63	-24.80	-61.054	-16.072	85.554	-0.78308	0.54889	-0.29190	0.01328	30.3	13111	100
2025-3-27 20:27:51.207	WT901BLE68-01(48591DE3C19B)	-0.380	-0.721	0.174	-36.133	-79.102	4.700	-77.09	21.55	-23.96	-61.054	-16.072	85.554	-0.78308	0.54889	-0.29190	0.01328	30.3	13111	100
2025-3-27 20:27:51.207	WT901BLE68-01(48591DE3C19B)	-0.380	-0.840	0.240	-19.653	-49.011	-1.770	-77.07	21.47	-23.45	-61.054	-16.072	85.554	-0.78308	0.54889	-0.29190	0.01328	30.3	13111	100
2025-3-27 20:27:51.236	WT901BLE68-01(48591DE3C19B)	-0.386	-0.840	0.240	-19.653	-49.011	-1.770	-77.05	21.38	-22.94	-61.054	-16.072	85.554	-0.78308	0.54889	-0.29190	0.01328	30.3	13111	100
2025-3-27 20:27:51.237	WT901BLE68-01(48591DE3C19B)	-0.386	-0.820	0.292	-4.089	-12.512	-10.620	-77.03	21.29	-22.85	-61.054	-16.072	85.554	-0.78308	0.54889	-0.29190	0.01328	30.3	13111	100
2025-3-27 20:27:51.237	WT901BLE68-01(48591DE3C19B)	-0.376	-0.820	0.292	-4.089	-12.512	-10.620	-77.00	21.19	-22.75	-61.054	-16.072	85.554	-0.78308	0.54889	-0.29190	0.01328	30.3	13111	100
2025-3-27 20:27:51.237	WT901BLE68-01(48591DE3C19B)	-0.376	-0.702	0.258	5.066	26.306	-9.949	-77.03	21.19	-23.05	-61.054	-16.072	85.554	-0.78308	0.54889	-0.29190	0.01328	30.3	13111	100
2025-3-27 20:27:51.325	WT901BLE68-01(48591DE3C19B)	-0.377	-0.702	0.258	5.066	26.306	-9.949	-77.05	21.19	-23.36	-61.054	-16.072	85.554	-0.78308	0.54889	-0.29190	0.01328	30.3	13111	100
2025-3-27 20:27:51.325	WT901BLE68-01(48591DE3C19B)	-0.377	-0.559	0.200	13.062	51.636	-2.075	-77.09	21.32	-23.90	-61.054	-16.072	85.554	-0.78308	0.54889	-0.29190	0.01328	30.3	13111	100
2025-3-27 20:27:51.325	WT901BLE68-01(48591DE3C19B)	-0.354	-0.559	0.200	13.062	51.636	-2.075	-77.12	21.46	-24.44	-61.054	-16.072	85.554	-0.78308	0.54889	-0.29190	0.01328	30.3	13111	100
2025-3-27 20:27:51.325	WT901BLE68-01(48591DE3C19B)	-0.354	-0.394	0.197	14.832	55.481	5.127	-77.15	21.67	-25.00	-61.054	-16.072	85.554	-0.78308	0.54889	-0.29190	0.01328	30.3	13111	100
2025-3-27 20:27:51.326	WT901BLE68-01(48591DE3C19B)	-0.337	-0.394	0.197	14.832	55.481	5.127	-77.18	21.89	-25.56	-61.054	-16.072	85.554	-0.78308	0.54889	-0.29190	0.01328	30.3	13111	100
2025-3-27 20:27:51.327	WT901BLE68-01(48591DE3C19B)	-0.337	-0.257	0.232	3.845	37.048	16.724	-77.23	22.19	-25.89	-61.054	-16.072	85.554	-0.78308	0.54889	-0.29190	0.01328	30.3	13111	100
2025-3-27 20:27:51.327	WT901BLE68-01(48591DE3C19B)	-0.360	-0.257	0.232	3.845	37.048	16.724	-77.28	22.48	-26.21	-61.054	-16.072	85.554	-0.78308	0.54889	-0.29190	0.01328	30.3	13111	100
2025-3-27 20:27:51.327	WT901BLE68-01(48591DE3C19B)	-0.360	-0.330	0.224	-24.048	-14.465	26.978	-77.38	22.77	-25.97	-61.054	-16.072	85.554	-0.78308	0.54889	-0.29190	0.01328	30.3	13111	100
2025-3-27 20:27:51.356	WT901BLE68-01(48591DE3C19B)	-0.316	-0.330	0.224	-24.048	-14.465	26.978	-77.48	23.07	-25.72	-61.054	-16.072	85.554	-0.78308	0.54889	-0.29190	0.01328	30.3	13111	100
2025-3-27 20:27:51.357	WT901BLE68-01(48591DE3C19B)	-0.316	-0.691	0.181	-50.476	-73.181	29.480	-77.60	23.25	-24.85	-61.054	-16.072	85.554	-0.78308	0.54889	-0.29190	0.01328	30.3	13111	100
2025-3-27 20:27:51.357	WT901BLE68-01(48591DE3C19B)	-0.352	-0.691	0.181	-50.476	-73.181	29.480	-77.72	23.43	-23.98	-61.054	-16.072	85.554	-0.78308	0.54889	-0.29190	0.01328	30.3	13111	100
2025-3-27 20:27:51.357	WT901BLE68-01(48591DE3C19B)	-0.352	-1.168	0.187	-56.030	-100.403	33.081	-77.78	23.58	-22.82	-61.054	-16.072	85.554	-0.78308	0.54889	-0.29190	0.01328	30.3	13111	100
2025-3-27 20:27:51.415	WT901BLE68-01(48591DE3C19B)	-0.373	-1.168	0.187	-56.030	-100.403	33.081	-77.84	23.71	-21.68	-61.054	-16.072	85.554	-0.78308	0.54889	-0.29190	0.01328	30.3	13111	100
2025-3-27 20:27:51.415	WT901BLE68-01(48591DE3C19B)	-0.373	-1.800	0.149	-42.419	-102.234	17.456	-77.79	23.68	-20.58	-61.054	-16.072	85.554	-0.77258	0.57733	-0.26395	0.00580	30.3	13111	100
2025-3-27 20:27:51.415	WT901BLE68-01(48591DE3C19B)	-0.319	-1.800	0.149	-42.419	-102.234	17.456	-77.76	23.62	-19.48	-61.054	-16.072	85.554	-0.77258	0.57733	-0.26395	0.00580	30.3	13111	100
2025-3-27 20:27:51.415	WT901BLE68-01(48591DE3C19B)	-0.319	-2.210	0.102	-16.357	-78.674	5.798	-77.59	23.49	-18.68	-61.054	-16.072	85.554	-0.77258	0.57733	-0.26395	0.00580	30.3	13111	100
2025-3-27 20:27:51.444	WT901BLE68-01(48591DE3C19B)	-0.271	-2.210	0.102	-16.357	-78.674	5.798	-77.43	23.35	-17.90	-61.054	-16.072	85.554	-0.77258	0.57733	-0.26395	0.00580	30.3	13111	100
2025-3-27 20:27:51.444	WT901BLE68-01(48591DE3C19B)	-0.271	-2.063	0.131	21.362	-40.588	4.639	-77.07	23.26	-17.52	-61.054	-16.072	85.554	-0.77258	0.57733	-0.26395	0.00580	30.3	13111	100
2025-3-27 20:27:51.444	WT901BLE68-01(48591DE3C19B)	-0.139	-2.063	0.131	21.362	-40.588	4.639	-76.72	23.16	-17.16	-61.054	-16.072	85.554	-0.77258	0.57733	-0.26395	0.00580	30.3	13111	100
2025-3-27 20:27:51.444	WT901BLE68-01(48591DE3C19B)	-0.139	-1.579	0.160	30.579	3.235	0.366	-76.48	23.13	-17.27	-61.054	-16.072	85.554	-0.77258	0.57733	-0.26395	0.00580	30.3	13111	100
2025-3-27 20:27:51.475	WT901BLE68-01(48591DE3C19B)	-0.050	-1.579	0.160	30.579	3.235	0.366	-76.23	23.08	-17.39	-61.054	-16.072	85.554	-0.77258	0.57733	-0.26395	0.00580	30.3	13111	100
2025-3-27 20:27:51.475	WT901BLE68-01(48591DE3C19B)	-0.050	-1.349	0.197	32.166	50.232	-1.282	-76.16	23.13	-18.00	-61.054	-16.072	85.554	-0.77258	0.57733	-0.26395	0.00580	30.3	13111	100
2025-3-27 20:27:51.475	WT901BLE68-01(48591DE3C19B)	-0.099	-1.349	0.197	32.166	50.232	-1.282	-76.10	23.16	-18.61	-61.054	-16.072	85.554	-0.77258	0.57733	-0.26395	0.00580	30.3	13111	100
2025-3-27 20:27:51.475	WT901BLE68-01(48591DE3C19B)	-0.099	-1.090	0.250	32.166	83.435	-0.305	-76.17	23.29	-19.57	-61.054	-16.072	85.554	-0.77258	0.57733	-0.26395	0.00580	30.3	13111	100
2025-3-27 20:27:51.535	WT901BLE68-01(48591DE3C19B)	-0.209	-1.090	0.250	32.166	83.435	-0.305	-76.25	23.41	-20.52	-61.054	-16.072	85.554	-0.77258	0.57733	-0.26395	0.00580	30.3	13111	100
2025-3-27 20:27:51.535	WT901BLE68-01(48591DE3C19B)	-0.209	-0.858	0.239	21.912	80.322	-7.751	-76.41	23.44	-21.46	-61.054	-16.072	85.554	-0.77258	0.57733	-0.26395	0.00580	30.3	13111	100
2025-3-27 20:27:51.535	WT901BLE68-01(48591DE3C19B)	-0.233	-0.858	0.239	21.912	80.322	-7.751	-76.57	23.48	-22.40	-61.054	-16.072	85.554	-0.77258	0.57733	-0.26395	0.00580	30.3	13111	100
2025-3-27 20:27:51.535	WT901BLE68-01(48591DE3C19B)	-0.244	-0.763	0.190	12.573	54.321	-19.958	-76.72	23.33	-23.08	-61.054	-16.072	85.554	-0.77258	0.57733	-0.26395	0.00580	30.3	13111	100
2025-3-27 20:27:51.571	WT901BLE68-01(48591DE3C19B)	-0.244	-0.676	0.158	13.000	37.231	-27.893	-76.84	23.14	-23.68	-61.054	-16.072	85.554	-0.77258	0.57733	-0.26395	0.00580	30.3	13111	100
2025-3-27 20:27:51.571	WT901BLE68-01(48591DE3C19B)	-0.302	-0.676	0.158	13.000	37.231	-27.893	-76.92	22.88	-24.19	-61.054	-16.072	85.554	-0.77258	0.57733	-0.26395	0.00580	30.3	13111	100
2025-3-27 20:27:51.571	WT901BLE68-01(48591DE3C19B)	-0.302	-0.541	0.153	16.357	28.687	-35.522	-76.95	22.59	-24.65	-61.054	-16.072	85.554	-0.77258	0.57733	-0.26395	0.00580	30.3	13111	100
2025-3-27 20:27:51.571	WT901BLE68-01(48591DE3C19B)	-0.343	-0.541	0.153	16.357	28.687	-35.522	-76.96	22.25	-25.08	-61.054	-16.072	85.554	-0.77258	0.57733	-0.26395	0.00580	30.3	13111	100
2025-3-27 20:27:51.625	WT901BLE68-01(48591DE3C19B)	-0.343	-0.397	0.178	18.738	17.944	-32.898	-76.92	21.92	-25.45	-61.054	-16.072	85.554	-0.77258	0.57733	-0.26395	0.00580	30.3	13111	100
2025-3-27 20:27:51.625	WT901BLE68-01(48591DE3C19B)	-0.323	-0.397	0.178	18.738	17.944	-32.898	-76.85	21.60	-25.75	-61.054	-16.072	85.554	-0.77258	0.57733	-0.26395	0.00580	30.3	13111	100
2025-3-27 20:27:51.625	WT901BLE68-01(48591DE3C19B)	-0.323	-0.318	0.198	18.738	7.141	-21.118	-76.74	21.35	-25.97	-58.996	-17.542	85.064	-0.77258	0.57733	-0.26395	0.00580	30.3	13111	100
2025-3-27 20:27:51.625	WT901BLE68-01(48591DE3C19B)	-0.275	-0.318	0.198	18.738	7.141	-21.118	-76.60	21.14	-26.12	-58.996	-17.542	85.064	-0.77258	0.57733	-0.26395	0.00580	30.3	13111	100
2025-3-27 20:27:51.657	WT901BLE68-01(48591DE3C19B)	-0.275	-0.313	0.184	19.775	3.357	-11.597	-76.44	20.98	-26.23	-58.996	-17.542	85.064	-0.77258	0.57733	-0.26395	0.00580	30.3	13111	100
2025-3-27 20:27:51.657	WT901BLE68-01(48591DE3C19B)	-0.234	-0.313	0.184	19.775	3.357	-11.597	-76.26	20.87	-26.31	-58.996	-17.542	85.064	-0.77258	0.57733	-0.26395	0.00580	30.3	13111	100
2025-3-27 20:27:51.657	WT901BLE68-01(48591DE3C19B)	-0.234	-0.300	0.133	23.315	-1.160	2.380	-76.04	20.84	-26.34	-58.996	-17.542	85.064	-0.77258	0.57733	-0.26395	0.00580	30.3	13111	100
2025-3-27 20:27:51.657	WT901BLE68-01(48591DE3C19B)	-0.218	-0.300	0.133	23.315	-1.160	2.380	-75.79	20.86	-26.33	-58.996	-17.542	85.064	-0.77258	0.57733	-0.26395	0.00580	30.3	13111	100
2025-3-27 20:27:51.685	WT901BLE68-01(48591DE3C19B)	-0.218	-0.276	0.123	23.560	-6.958	19.226	-75.53	20.97	-26.26	-58.996	-17.542	85.064	-0.77258	0.57733	-0.26395	0.00580	30.3	13111	100
2025-3-27 20:27:51.685	WT901BLE68-01(48591DE3C19B)	-0.187	-0.276	0.123	23.560	-6.958	19.226	-75.23	21.15	-26.14	-58.996	-17.542	85.064	-0.77258	0.57733	-0.26395	0.00580	30.3	13111	100
2025-3-27 20:27:51.685	WT901BLE68-01(48591DE3C19B)	-0.187	-0.372	0.158	17.151	-9.827	35.156	-74.96	21.41	-25.98	-58.996	-17.542	85.064	-0.77258	0.57733	-0.26395	0.00580	30.3	13111	100
2025-3-27 20:27:51.685	WT901BLE68-01(48591DE3C19B)	-0.155	-0.372	0.158	17.151	-9.827	35.156	-74.70	21.74	-25.78	-58.996	-17.542	85.064	-0.77258	0.57733	-0.26395	0.00580	30.3	13111	100
2025-3-27 20:27:51.714	WT901BLE68-01(48591DE3C19B)	-0.155	-0.632	0.206	12.207	-2.869	40.283	-74.48	22.10	-25.61	-58.996	-17.542	85.064	-0.77258	0.57733	-0.26395	0.00580	30.3	13111	100
2025-3-27 20:27:51.714	WT901BLE68-01(48591DE3C19B)	-0.228	-0.632	0.206	12.207	-2.869	40.283	-74.28	22.48	-25.48	-58.996	-17.542	85.064	-0.77258	0.57733	-0.26395	0.00580	30.3	13111	100
2025-3-27 20:27:51.714	WT901BLE68-01(48591DE3C19B)	-0.228	-0.917	0.251	15.076	18.494	37.476	-74.12	22.87	-25.46	-58.996	-17.542	85.064	-0.77258	0.57733	-0.26395	0.00580	30.3	13111	100
2025-3-27 20:27:51.714	WT901BLE68-01(48591DE3C19B)	-0.409	-0.917	0.251	15.076	18.494	37.476	-74.00	23.27	-25.55	-58.996	-17.542	85.064	-0.77258	0.57733	-0.26395	0.00580	30.3	13111	100
2025-3-27 20:27:51.775	WT901BLE68-01(48591DE3C19B)	-0.409	-1.276	0.270	14.709	34.119	24.231	-73.92	23.62	-25.76	-58.996	-17.542	85.064	-0.77258	0.57733	-0.26395	0.00580	30.3	13111	100
2025-3-27 20:27:51.775	WT901BLE68-01(48591DE3C19B)	-0.542	-1.276	0.270	14.709	34.119	24.231	-73.89	23.91	-26.07	-58.996	-17.542	85.064	-0.77258	0.57733	-0.26395	0.00580	30.3	13111	100
2025-3-27 20:27:51.775	WT901BLE68-01(48591DE3C19B)	-0.542	-1.754	0.277	16.602	42.664	-9.766	-73.89	24.06	-26.47	-58.996	-17.542	85.064	-0.77258	0.57733	-0.26395	0.00580	30.3	13111	100
2025-3-27 20:27:51.775	WT901BLE68-01(48591DE3C19B)	-0.735	-1.754	0.277	16.602	42.664	-9.766	-73.94	24.05	-26.97	-58.996	-17.542	85.064	-0.77258	0.57733	-0.26395	0.00580	30.3	13111	100
2025-3-27 20:27:51.803	WT901BLE68-01(48591DE3C19B)	-0.735	-2.120	0.315	19.531	46.143	-37.048	-73.99	23.91	-27.52	-58.996	-17.542	85.064	-0.77258	0.57733	-0.26395	0.00580	30.3	13111	100
2025-3-27 20:27:51.803	WT901BLE68-01(48591DE3C19B)	-0.984	-2.120	0.315	19.531	46.143	-37.048	-74.06	23.65	-28.13	-58.996	-17.542	85.064	-0.77258	0.57733	-0.26395	0.00580	30.3	13111	100
2025-3-27 20:27:51.803	WT901BLE68-01(48591DE3C19B)	-0.984	-1.873	0.465	30.762	41.504	-64.148	-74.08	23.26	-28.76	-58.996	-17.542	85.064	-0.77258	0.57733	-0.26395	0.00580	30.3	13111	100
2025-3-27 20:27:51.804	WT901BLE68-01(48591DE3C19B)	-0.897	-1.873	0.465	30.762	41.504	-64.148	-74.04	22.74	-29.38	-58.996	-17.542	85.064	-0.78720	0.53104	-0.30197	0.08368	30.3	13111	100
2025-3-27 20:27:51.834	WT901BLE68-01(48591DE3C19B)	-0.897	-1.400	0.563	21.240	25.513	-67.200	-74.01	22.20	-29.93	-58.996	-17.542	85.064	-0.78720	0.53104	-0.30197	0.08368	30.3	13111	100
2025-3-27 20:27:51.834	WT901BLE68-01(48591DE3C19B)	-0.676	-1.400	0.563	21.240	25.513	-67.200	-73.99	21.63	-30.38	-58.996	-17.542	85.064	-0.78720	0.53104	-0.30197	0.08368	30.3	13111	100
2025-3-27 20:27:51.834	WT901BLE68-01(48591DE3C19B)	-0.676	-1.068	0.563	11.353	28.503	-59.570	-74.00	21.10	-30.83	-58.996	-17.542	85.064	-0.78720	0.53104	-0.30197	0.08368	30.3	13111	100
2025-3-27 20:27:51.834	WT901BLE68-01(48591DE3C19B)	-0.516	-1.068	0.563	11.353	28.503	-59.570	-74.06	20.63	-31.29	-58.996	-17.542	85.064	-0.78720	0.53104	-0.30197	0.08368	30.3	13111	100
2025-3-27 20:27:51.895	WT901BLE68-01(48591DE3C19B)	-0.516	-0.862	0.455	0.671	24.292	-49.988	-74.14	20.20	-31.70	-58.996	-17.542	85.064	-0.78720	0.53104	-0.30197	0.08368	30.3	13111	100
2025-3-27 20:27:51.895	WT901BLE68-01(48591DE3C19B)	-0.448	-0.862	0.455	0.671	24.292	-49.988	-74.26	19.81	-32.07	-58.996	-17.542	85.064	-0.78720	0.53104	-0.30197	0.08368	30.3	13111	100
2025-3-27 20:27:51.895	WT901BLE68-01(48591DE3C19B)	-0.448	-0.821	0.345	-10.864	-7.263	-35.706	-74.37	19.46	-32.25	-58.996	-17.542	85.064	-0.78720	0.53104	-0.30197	0.08368	30.3	13111	100
2025-3-27 20:27:51.895	WT901BLE68-01(48591DE3C19B)	-0.422	-0.821	0.345	-10.864	-7.263	-35.706	-74.47	19.13	-32.26	-58.996	-17.542	85.064	-0.78720	0.53104	-0.30197	0.08368	30.3	13111	100
2025-3-27 20:27:51.924	WT901BLE68-01(48591DE3C19B)	-0.422	-0.829	0.287	-15.442	-36.743	-23.071	-74.54	18.83	-32.09	-58.996	-17.542	85.064	-0.78720	0.53104	-0.30197	0.08368	30.3	13111	100
2025-3-27 20:27:51.924	WT901BLE68-01(48591DE3C19B)	-0.377	-0.829	0.287	-15.442	-36.743	-23.071	-74.58	18.54	-31.76	-58.996	-17.542	85.064	-0.78720	0.53104	-0.30197	0.08368	30.3	13111	100
2025-3-27 20:27:51.924	WT901BLE68-01(48591DE3C19B)	-0.377	-0.754	0.261	-9.094	-33.020	-7.874	-74.58	18.35	-31.42	-58.996	-17.542	85.064	-0.78720	0.53104	-0.30197	0.08368	30.3	13111	100
2025-3-27 20:27:51.924	WT901BLE68-01(48591DE3C19B)	-0.361	-0.754	0.261	-9.094	-33.020	-7.874	-74.55	18.23	-31.09	-58.996	-17.542	85.064	-0.78720	0.53104	-0.30197	0.08368	30.3	13111	100
2025-3-27 20:27:51.956	WT901BLE68-01(48591DE3C19B)	-0.361	-0.597	0.248	-0.427	-4.089	-1.831	-74.53	18.17	-30.89	-58.996	-17.542	85.064	-0.78720	0.53104	-0.30197	0.08368	30.3	13111	100
2025-3-27 20:27:51.956	WT901BLE68-01(48591DE3C19B)	-0.383	-0.597	0.248	-0.427	-4.089	-1.831	-74.50	18.19	-30.83	-58.996	-17.542	85.064	-0.78720	0.53104	-0.30197	0.08368	30.3	13111	100
2025-3-27 20:27:51.956	WT901BLE68-01(48591DE3C19B)	-0.383	-0.493	0.237	-1.038	26.123	4.089	-74.52	18.28	-30.92	-58.996	-17.542	85.064	-0.78720	0.53104	-0.30197	0.08368	30.3	13111	100
2025-3-27 20:27:51.956	WT901BLE68-01(48591DE3C19B)	-0.470	-0.493	0.237	-1.038	26.123	4.089	-74.59	18.44	-31.15	-58.996	-17.542	85.064	-0.78720	0.53104	-0.30197	0.08368	30.3	13111	100
2025-3-27 20:27:52.16	WT901BLE68-01(48591DE3C19B)	-0.470	-0.500	0.251	-2.258	37.109	6.226	-74.68	18.62	-31.43	-58.996	-17.542	85.064	-0.78720	0.53104	-0.30197	0.08368	30.3	13111	100
2025-3-27 20:27:52.16	WT901BLE68-01(48591DE3C19B)	-0.505	-0.500	0.251	-2.258	37.109	6.226	-74.79	18.84	-31.75	-62.034	-17.444	83.104	-0.78720	0.53104	-0.30197	0.08368	30.3	13111	100
2025-3-27 20:27:52.16	WT901BLE68-01(48591DE3C19B)	-0.505	-0.438	0.268	-2.686	21.667	7.751	-74.85	19.03	-31.90	-62.034	-17.444	83.104	-0.78720	0.53104	-0.30197	0.08368	30.3	13111	100
2025-3-27 20:27:52.16	WT901BLE68-01(48591DE3C19B)	-0.476	-0.438	0.268	-2.686	21.667	7.751	-74.91	19.23	-32.06	-62.034	-17.444	83.104	-0.78720	0.53104	-0.30197	0.08368	30.3	13111	100
2025-3-27 20:27:52.75	WT901BLE68-01(48591DE3C19B)	-0.476	-0.334	0.277	-6.714	-4.211	14.099	-74.91	19.43	-31.92	-62.034	-17.444	83.104	-0.78720	0.53104	-0.30197	0.08368	30.3	13111	100
2025-3-27 20:27:52.75	WT901BLE68-01(48591DE3C19B)	-0.421	-0.334	0.277	-6.714	-4.211	14.099	-74.91	19.64	-31.78	-62.034	-17.444	83.104	-0.78720	0.53104	-0.30197	0.08368	30.3	13111	100
2025-3-27 20:27:52.75	WT901BLE68-01(48591DE3C19B)	-0.421	-0.250	0.267	-11.780	-26.489	25.452	-74.87	19.91	-31.37	-62.034	-17.444	83.104	-0.78720	0.53104	-0.30197	0.08368	30.3	13111	100
2025-3-27 20:27:52.75	WT901BLE68-01(48591DE3C19B)	-0.363	-0.250	0.267	-11.780	-26.489	25.452	-74.82	20.18	-30.95	-62.034	-17.444	83.104	-0.78720	0.53104	-0.30197	0.08368	30.3	13111	100
2025-3-27 20:27:52.76	WT901BLE68-01(48591DE3C19B)	-0.363	-0.195	0.250	-17.517	-46.631	38.330	-74.74	20.53	-30.29	-62.034	-17.444	83.104	-0.78720	0.53104	-0.30197	0.08368	30.3	13111	100
2025-3-27 20:27:52.76	WT901BLE68-01(48591DE3C19B)	-0.296	-0.195	0.250	-17.517	-46.631	38.330	-74.65	20.88	-29.62	-62.034	-17.444	83.104	-0.78720	0.53104	-0.30197	0.08368	30.3	13111	100
2025-3-27 20:27:52.76	WT901BLE68-01(48591DE3C19B)	-0.296	-0.189	0.229	-26.428	-64.880	51.453	-74.55	21.31	-28.72	-62.034	-17.444	83.104	-0.78720	0.53104	-0.30197	0.08368	30.3	13111	100
2025-3-27 20:27:52.76	WT901BLE68-01(48591DE3C19B)	-0.254	-0.189	0.229	-26.428	-64.880	51.453	-74.45	21.75	-27.81	-62.034	-17.444	83.104	-0.78720	0.53104	-0.30197	0.08368	30.3	13111	100
2025-3-27 20:27:52.135	WT901BLE68-01(48591DE3C19B)	-0.254	-0.364	0.199	-37.537	-75.623	60.913	-74.40	22.24	-26.77	-62.034	-17.444	83.104	-0.78720	0.53104	-0.30197	0.08368	30.3	13111	100
2025-3-27 20:27:52.135	WT901BLE68-01(48591DE3C19B)	-0.305	-0.364	0.199	-37.537	-75.623	60.913	-74.33	22.72	-25.72	-62.034	-17.444	83.104	-0.78720	0.53104	-0.30197	0.08368	30.3	13111	100
2025-3-27 20:27:52.135	WT901BLE68-01(48591DE3C19B)	-0.305	-0.673	0.187	-45.166	-80.933	63.416	-74.32	23.20	-24.63	-62.034	-17.444	83.104	-0.78720	0.53104	-0.30197	0.08368	30.3	13111	100
2025-3-27 20:27:52.136	WT901BLE68-01(48591DE3C19B)	-0.375	-0.673	0.187	-45.166	-80.933	63.416	-74.30	23.66	-23.53	-62.034	-17.444	83.104	-0.78720	0.53104	-0.30197	0.08368	30.3	13111	100
2025-3-27 20:27:52.173	WT901BLE68-01(48591DE3C19B)	-0.375	-1.177	0.216	-51.697	-81.848	62.866	-74.34	24.10	-22.45	-62.034	-17.444	83.104	-0.78720	0.53104	-0.30197	0.08368	30.3	13111	100
2025-3-27 20:27:52.173	WT901BLE68-01(48591DE3C19B)	-0.397	-1.177	0.216	-51.697	-81.848	62.866	-74.39	24.52	-21.38	-62.034	-17.444	83.104	-0.78720	0.53104	-0.30197	0.08368	30.3	13111	100
2025-3-27 20:27:52.173	WT901BLE68-01(48591DE3C19B)	-0.397	-1.968	0.186	-37.598	-72.510	47.668	-74.37	24.80	-20.48	-62.034	-17.444	83.104	-0.78720	0.53104	-0.30197	0.08368	30.3	13111	100
2025-3-27 20:27:52.173	WT901BLE68-01(48591DE3C19B)	-0.396	-1.968	0.186	-37.598	-72.510	47.668	-74.37	25.05	-19.59	-62.034	-17.444	83.104	-0.78720	0.53104	-0.30197	0.08368	30.3	13111	100
2025-3-27 20:27:52.197	WT901BLE68-01(48591DE3C19B)	-0.396	-2.337	0.156	-2.991	-53.894	29.297	-74.14	25.16	-18.97	-62.034	-17.444	83.104	-0.78720	0.53104	-0.30197	0.08368	30.3	13111	100
2025-3-27 20:27:52.197	WT901BLE68-01(48591DE3C19B)	-0.503	-2.337	0.156	-2.991	-53.894	29.297	-73.92	25.26	-18.35	-62.034	-17.444	83.104	-0.78720	0.53104	-0.30197	0.08368	30.3	13111	100
2025-3-27 20:27:52.197	WT901BLE68-01(48591DE3C19B)	-0.503	-2.054	0.263	26.001	-34.363	13.977	-73.52	25.25	-18.00	-62.034	-17.444	83.104	-0.79254	0.54941	-0.26431	-0.00690	30.3	13111	100
2025-3-27 20:27:52.197	WT901BLE68-01(48591DE3C19B)	-0.480	-2.054	0.263	26.001	-34.363	13.977	-73.14	25.24	-17.65	-62.034	-17.444	83.104	-0.79254	0.54941	-0.26431	-0.00690	30.3	13111	100
2025-3-27 20:27:52.255	WT901BLE68-01(48591DE3C19B)	-0.480	-1.744	0.284	23.071	-13.123	0.610	-72.89	25.16	-17.57	-62.034	-17.444	83.104	-0.79254	0.54941	-0.26431	-0.00690	30.3	13111	100
2025-3-27 20:27:52.255	WT901BLE68-01(48591DE3C19B)	-0.389	-1.744	0.284	23.071	-13.123	0.610	-72.65	25.08	-17.49	-62.034	-17.444	83.104	-0.79254	0.54941	-0.26431	-0.00690	30.3	13111	100
2025-3-27 20:27:52.255	WT901BLE68-01(48591DE3C19B)	-0.389	-1.479	0.301	24.475	16.785	-0.793	-72.54	25.08	-17.73	-62.034	-17.444	83.104	-0.79254	0.54941	-0.26431	-0.00690	30.3	13111	100
2025-3-27 20:27:52.255	WT901BLE68-01(48591DE3C19B)	-0.315	-1.479	0.301	24.475	16.785	-0.793	-72.42	25.07	-17.97	-62.034	-17.444	83.104	-0.79254	0.54941	-0.26431	-0.00690	30.3	13111	100
2025-3-27 20:27:52.284	WT901BLE68-01(48591DE3C19B)	-0.315	-1.172	0.304	26.794	43.518	3.540	-72.39	25.18	-18.47	-62.034	-17.444	83.104	-0.79254	0.54941	-0.26431	-0.00690	30.3	13111	100
2025-3-27 20:27:52.284	WT901BLE68-01(48591DE3C19B)	-0.307	-1.172	0.304	26.794	43.518	3.540	-72.36	25.29	-18.97	-62.034	-17.444	83.104	-0.79254	0.54941	-0.26431	-0.00690	30.3	13111	100
2025-3-27 20:27:52.284	WT901BLE68-01(48591DE3C19B)	-0.307	-0.893	0.267	23.010	49.500	6.897	-72.39	25.46	-19.52	-62.034	-17.444	83.104	-0.79254	0.54941	-0.26431	-0.00690	30.3	13111	100
2025-3-27 20:27:52.284	WT901BLE68-01(48591DE3C19B)	-0.342	-0.893	0.267	23.010	49.500	6.897	-72.42	25.61	-20.06	-62.034	-17.444	83.104	-0.79254	0.54941	-0.26431	-0.00690	30.3	13111	100
2025-3-27 20:27:52.315	WT901BLE68-01(48591DE3C19B)	-0.342	-0.733	0.188	11.353	25.208	4.456	-72.45	25.68	-20.36	-62.034	-17.444	83.104	-0.79254	0.54941	-0.26431	-0.00690	30.3	13111	100
2025-3-27 20:27:52.315	WT901BLE68-01(48591DE3C19B)	-0.332	-0.733	0.188	11.353	25.208	4.456	-72.49	25.75	-20.65	-62.034	-17.444	83.104	-0.79254	0.54941	-0.26431	-0.00690	30.3	13111	100
2025-3-27 20:27:52.315	WT901BLE68-01(48591DE3C19B)	-0.332	-0.725	0.124	1.038	-2.258	-2.991	-72.51	25.67	-20.67	-62.034	-17.444	83.104	-0.79254	0.54941	-0.26431	-0.00690	30.3	13111	100
2025-3-27 20:27:52.315	WT901BLE68-01(48591DE3C19B)	-0.349	-0.725	0.124	1.038	-2.258	-2.991	-72.53	25.59	-20.69	-62.034	-17.444	83.104	-0.79254	0.54941	-0.26431	-0.00690	30.3	13111	100
2025-3-27 20:27:52.377	WT901BLE68-01(48591DE3C19B)	-0.349	-0.723	0.125	3.235	-12.329	-9.888	-72.50	25.42	-20.63	-62.034	-17.444	83.104	-0.79254	0.54941	-0.26431	-0.00690	30.3	13111	100
2025-3-27 20:27:52.377	WT901BLE68-01(48591DE3C19B)	-0.385	-0.723	0.125	3.235	-12.329	-9.888	-72.46	25.25	-20.56	-62.034	-17.444	83.104	-0.79254	0.54941	-0.26431	-0.00690	30.3	13111	100
2025-3-27 20:27:52.377	WT901BLE68-01(48591DE3C19B)	-0.385	-0.661	0.158	5.737	-13.428	-20.508	-72.41	24.98	-20.51	-62.034	-17.444	83.104	-0.79254	0.54941	-0.26431	-0.00690	30.3	13111	100
2025-3-27 20:27:52.377	WT901BLE68-01(48591DE3C19B)	-0.374	-0.661	0.158	5.737	-13.428	-20.508	-72.36	24.72	-20.46	-62.034	-17.444	83.104	-0.79254	0.54941	-0.26431	-0.00690	30.3	13111	100
2025-3-27 20:27:52.435	WT901BLE68-01(48591DE3C19B)	-0.374	-0.551	0.187	7.446	-9.521	-26.001	-72.32	24.42	-20.47	-62.034	-17.444	83.104	-0.79254	0.54941	-0.26431	-0.00690	30.3	13111	100
2025-3-27 20:27:52.435	WT901BLE68-01(48591DE3C19B)	-0.335	-0.551	0.187	7.446	-9.521	-26.001	-72.27	24.13	-20.48	-62.034	-17.444	83.104	-0.79254	0.54941	-0.26431	-0.00690	30.3	13111	100
2025-3-27 20:27:52.435	WT901BLE68-01(48591DE3C19B)	-0.335	-0.465	0.185	9.155	-2.930	-24.780	-72.23	23.88	-20.54	-62.034	-17.444	83.104	-0.79254	0.54941	-0.26431	-0.00690	30.3	13111	100
2025-3-27 20:27:52.435	WT901BLE68-01(48591DE3C19B)	-0.299	-0.465	0.185	9.155	-2.930	-24.780	-72.19	23.64	-20.60	-51.058	-27.734	80.164	-0.79254	0.54941	-0.26431	-0.00690	30.3	13111	100
2025-3-27 20:27:52.436	WT901BLE68-01(48591DE3C19B)	-0.299	-0.418	0.141	9.338	1.282	-23.071	-72.15	23.42	-20.69	-51.058	-27.734	80.164	-0.79254	0.54941	-0.26431	-0.00690	30.3	13111	100
2025-3-27 20:27:52.436	WT901BLE68-01(48591DE3C19B)	-0.305	-0.418	0.141	9.338	1.282	-23.071	-72.12	23.22	-20.79	-51.058	-27.734	80.164	-0.79254	0.54941	-0.26431	-0.00690	30.3	13111	100
2025-3-27 20:27:52.437	WT901BLE68-01(48591DE3C19B)	-0.327	-0.416	0.101	5.493	-0.244	-21.240	-72.11	23.03	-20.85	-51.058	-27.734	80.164	-0.79254	0.54941	-0.26431	-0.00690	30.3	13111	100
2025-3-27 20:27:52.437	WT901BLE68-01(48591DE3C19B)	-0.327	-0.476	0.086	-1.099	-13.977	-14.587	-72.11	22.85	-20.83	-51.058	-27.734	80.164	-0.79254	0.54941	-0.26431	-0.00690	30.3	13111	100
2025-3-27 20:27:52.495	WT901BLE68-01(48591DE3C19B)	-0.317	-0.476	0.086	-1.099	-13.977	-14.587	-72.11	22.70	-20.72	-51.058	-27.734	80.164	-0.79254	0.54941	-0.26431	-0.00690	30.3	13111	100
2025-3-27 20:27:52.495	WT901BLE68-01(48591DE3C19B)	-0.317	-0.608	0.114	-8.057	-29.236	-5.554	-72.11	22.56	-20.52	-51.058	-27.734	80.164	-0.79254	0.54941	-0.26431	-0.00690	30.3	13111	100
2025-3-27 20:27:52.495	WT901BLE68-01(48591DE3C19B)	-0.265	-0.608	0.114	-8.057	-29.236	-5.554	-72.11	22.45	-20.23	-51.058	-27.734	80.164	-0.79254	0.54941	-0.26431	-0.00690	30.3	13111	100
2025-3-27 20:27:52.495	WT901BLE68-01(48591DE3C19B)	-0.265	-0.770	0.139	-9.583	-29.053	3.967	-72.11	22.37	-19.92	-51.058	-27.734	80.164	-0.79254	0.54941	-0.26431	-0.00690	30.3	13111	100
2025-3-27 20:27:52.524	WT901BLE68-01(48591DE3C19B)	-0.237	-0.770	0.139	-9.583	-29.053	3.967	-72.12	22.35	-19.61	-51.058	-27.734	80.164	-0.79254	0.54941	-0.26431	-0.00690	30.3	13111	100
2025-3-27 20:27:52.524	WT901BLE68-01(48591DE3C19B)	-0.237	-0.824	0.143	-3.906	-16.663	13.000	-72.12	22.37	-19.35	-51.058	-27.734	80.164	-0.79254	0.54941	-0.26431	-0.00690	30.3	13111	100
2025-3-27 20:27:52.524	WT901BLE68-01(48591DE3C19B)	-0.212	-0.824	0.143	-3.906	-16.663	13.000	-72.11	22.46	-19.15	-51.058	-27.734	80.164	-0.79254	0.54941	-0.26431	-0.00690	30.3	13111	100
2025-3-27 20:27:52.524	WT901BLE68-01(48591DE3C19B)	-0.212	-0.758	0.191	-1.343	0.000	22.156	-72.12	22.60	-19.02	-51.058	-27.734	80.164	-0.79254	0.54941	-0.26431	-0.00690	30.3	13111	100
2025-3-27 20:27:52.585	WT901BLE68-01(48591DE3C19B)	-0.214	-0.758	0.191	-1.343	0.000	22.156	-72.14	22.81	-18.97	-51.058	-27.734	80.164	-0.79254	0.54941	-0.26431	-0.00690	30.3	13111	100
2025-3-27 20:27:52.585	WT901BLE68-01(48591DE3C19B)	-0.214	-0.831	0.221	-9.216	16.602	28.076	-72.22	23.07	-18.99	-51.058	-27.734	80.164	-0.79254	0.54941	-0.26431	-0.00690	30.3	13111	100
2025-3-27 20:27:52.585	WT901BLE68-01(48591DE3C19B)	-0.318	-0.831	0.221	-9.216	16.602	28.076	-72.38	23.37	-19.10	-51.058	-27.734	80.164	-0.79254	0.54941	-0.26431	-0.00690	30.3	13111	100
2025-3-27 20:27:52.585	WT901BLE68-01(48591DE3C19B)	-0.318	-1.108	0.224	-10.742	31.006	25.574	-72.58	23.68	-19.29	-51.058	-27.734	80.164	-0.79254	0.54941	-0.26431	-0.00690	30.3	13111	100
2025-3-27 20:27:52.614	WT901BLE68-01(48591DE3C19B)	-0.395	-1.108	0.224	-10.742	31.006	25.574	-72.81	23.99	-19.56	-51.058	-27.734	80.164	-0.79254	0.54941	-0.26431	-0.00690	30.3	13111	100
2025-3-27 20:27:52.614	WT901BLE68-01(48591DE3C19B)	-0.395	-1.305	0.165	-7.996	39.124	18.799	-73.05	24.27	-19.89	-51.058	-27.734	80.164	-0.79254	0.54941	-0.26431	-0.00690	30.3	13111	100
2025-3-27 20:27:52.614	WT901BLE68-01(48591DE3C19B)	-0.442	-1.305	0.165	-7.996	39.124	18.799	-73.31	24.53	-20.28	-51.058	-27.734	80.164	-0.79254	0.54941	-0.26431	-0.00690	30.3	13111	100
2025-3-27 20:27:52.614	WT901BLE68-01(48591DE3C19B)	-0.442	-1.471	0.183	-10.315	41.321	5.737	-73.60	24.73	-20.70	-51.058	-27.734	80.164	-0.79160	0.54517	-0.27533	0.01514	30.3	13111	100
2025-3-27 20:27:52.644	WT901BLE68-01(48591DE3C19B)	-0.559	-1.471	0.183	-10.315	41.321	5.737	-73.92	24.86	-21.15	-51.058	-27.734	80.164	-0.79160	0.54517	-0.27533	0.01514	30.3	13111	100
2025-3-27 20:27:52.645	WT901BLE68-01(48591DE3C19B)	-0.559	-1.742	0.278	-10.925	40.527	-8.850	-74.25	24.92	-21.63	-51.058	-27.734	80.164	-0.79160	0.54517	-0.27533	0.01514	30.3	13111	100
2025-3-27 20:27:52.645	WT901BLE68-01(48591DE3C19B)	-0.661	-1.742	0.278	-10.925	40.527	-8.850	-74.59	24.90	-22.12	-51.058	-27.734	80.164	-0.79160	0.54517	-0.27533	0.01514	30.3	13111	100
2025-3-27 20:27:52.645	WT901BLE68-01(48591DE3C19B)	-0.661	-1.748	0.387	-8.057	26.611	-19.348	-74.88	24.81	-22.54	-51.058	-27.734	80.164	-0.79160	0.54517	-0.27533	0.01514	30.3	13111	100
2025-3-27 20:27:52.770	WT901BLE68-01(48591DE3C19B)	-0.569	-1.748	0.387	-8.057	26.611	-19.348	-75.14	24.66	-22.91	-51.058	-27.734	80.164	-0.79160	0.54517	-0.27533	0.01514	30.3	13111	100
2025-3-27 20:27:52.770	WT901BLE68-01(48591DE3C19B)	-0.569	-1.472	0.462	-12.512	7.141	-15.320	-75.36	24.50	-23.16	-51.058	-27.734	80.164	-0.79160	0.54517	-0.27533	0.01514	30.3	13111	100
2025-3-27 20:27:52.770	WT901BLE68-01(48591DE3C19B)	-0.429	-1.472	0.462	-12.512	7.141	-15.320	-75.55	24.33	-23.30	-51.058	-27.734	80.164	-0.79160	0.54517	-0.27533	0.01514	30.3	13111	100
2025-3-27 20:27:52.770	WT901BLE68-01(48591DE3C19B)	-0.429	-1.276	0.484	-23.560	6.165	-10.559	-75.79	24.20	-23.43	-51.058	-27.734	80.164	-0.79160	0.54517	-0.27533	0.01514	30.3	13111	100
2025-3-27 20:27:52.797	WT901BLE68-01(48591DE3C19B)	-0.434	-1.276	0.484	-23.560	6.165	-10.559	-76.07	24.08	-23.55	-51.058	-27.734	80.164	-0.79160	0.54517	-0.27533	0.01514	30.3	13111	100
2025-3-27 20:27:52.797	WT901BLE68-01(48591DE3C19B)	-0.434	-1.183	0.474	-30.273	10.620	-6.958	-76.39	23.98	-23.69	-51.058	-27.734	80.164	-0.79160	0.54517	-0.27533	0.01514	30.3	13111	100
2025-3-27 20:27:52.797	WT901BLE68-01(48591DE3C19B)	-0.513	-1.183	0.474	-30.273	10.620	-6.958	-76.73	23.90	-23.85	-51.058	-27.734	80.164	-0.79160	0.54517	-0.27533	0.01514	30.3	13111	100
2025-3-27 20:27:52.797	WT901BLE68-01(48591DE3C19B)	-0.513	-1.105	0.473	-36.743	-9.766	-2.441	-77.06	23.83	-23.88	-51.058	-27.734	80.164	-0.79160	0.54517	-0.27533	0.01514	30.3	13111	100
2025-3-27 20:27:52.798	WT901BLE68-01(48591DE3C19B)	-0.452	-1.105	0.473	-36.743	-9.766	-2.441	-77.37	23.75	-23.81	-51.058	-27.734	80.164	-0.79160	0.54517	-0.27533	0.01514	30.3	13111	100
2025-3-27 20:27:52.798	WT901BLE68-01(48591DE3C19B)	-0.452	-1.041	0.484	-39.124	-41.016	0.488	-77.62	23.66	-23.57	-51.058	-27.734	80.164	-0.79160	0.54517	-0.27533	0.01514	30.3	13111	100
2025-3-27 20:27:52.798	WT901BLE68-01(48591DE3C19B)	-0.349	-1.041	0.484	-39.124	-41.016	0.488	-77.81	23.56	-23.15	-51.058	-27.734	80.164	-0.79160	0.54517	-0.27533	0.01514	30.3	13111	100
2025-3-27 20:27:52.798	WT901BLE68-01(48591DE3C19B)	-0.349	-0.937	0.463	-31.982	-50.110	2.563	-77.93	23.46	-22.69	-51.058	-27.734	80.164	-0.79160	0.54517	-0.27533	0.01514	30.3	13111	100
2025-3-27 20:27:52.826	WT901BLE68-01(48591DE3C19B)	-0.288	-0.937	0.463	-31.982	-50.110	2.563	-78.00	23.35	-22.18	-51.058	-27.734	80.164	-0.79160	0.54517	-0.27533	0.01514	30.3	13111	100
2025-3-27 20:27:52.827	WT901BLE68-01(48591DE3C19B)	-0.288	-0.832	0.388	-23.071	-40.710	3.052	-78.03	23.26	-21.73	-51.058	-36.554	69.972	-0.79160	0.54517	-0.27533	0.01514	30.3	13111	100
2025-3-27 20:27:52.827	WT901BLE68-01(48591DE3C19B)	-0.262	-0.832	0.388	-23.071	-40.710	3.052	-78.04	23.18	-21.33	-51.058	-36.554	69.972	-0.79160	0.54517	-0.27533	0.01514	30.3	13111	100
2025-3-27 20:27:52.827	WT901BLE68-01(48591DE3C19B)	-0.262	-0.743	0.303	-14.526	-22.095	0.305	-78.05	23.10	-21.03	-51.058	-36.554	69.972	-0.79160	0.54517	-0.27533	0.01514	30.3	13111	100
2025-3-27 20:27:52.856	WT901BLE68-01(48591DE3C19B)	-0.278	-0.743	0.303	-14.526	-22.095	0.305	-78.05	23.04	-20.85	-51.058	-36.554	69.972	-0.79160	0.54517	-0.27533	0.01514	30.3	13111	100
2025-3-27 20:27:52.857	WT901BLE68-01(48591DE3C19B)	-0.278	-0.679	0.254	-8.179	-7.263	-3.723	-78.06	22.97	-20.74	-51.058	-36.554	69.972	-0.79160	0.54517	-0.27533	0.01514	30.3	13111	100
2025-3-27 20:27:52.857	WT901BLE68-01(48591DE3C19B)	-0.313	-0.679	0.254	-8.179	-7.263	-3.723	-78.06	22.89	-20.71	-51.058	-36.554	69.972	-0.79160	0.54517	-0.27533	0.01514	30.3	13111	100
2025-3-27 20:27:52.857	WT901BLE68-01(48591DE3C19B)	-0.313	-0.629	0.240	-5.493	-1.099	-9.033	-78.07	22.80	-20.73	-51.058	-36.554	69.972	-0.79160	0.54517	-0.27533	0.01514	30.3	13111	100
2025-3-27 20:27:52.884	WT901BLE68-01(48591DE3C19B)	-0.369	-0.629	0.240	-5.493	-1.099	-9.033	-78.08	22.69	-20.78	-51.058	-36.554	69.972	-0.79160	0.54517	-0.27533	0.01514	30.3	13111	100
2025-3-27 20:27:52.884	WT901BLE68-01(48591DE3C19B)	-0.369	-0.615	0.246	-7.019	-6.042	-13.306	-78.09	22.55	-20.81	-51.058	-36.554	69.972	-0.79160	0.54517	-0.27533	0.01514	30.3	13111	100
2025-3-27 20:27:52.884	WT901BLE68-01(48591DE3C19B)	-0.416	-0.615	0.246	-7.019	-6.042	-13.306	-78.09	22.40	-20.81	-51.058	-36.554	69.972	-0.79160	0.54517	-0.27533	0.01514	30.3	13111	100
2025-3-27 20:27:52.885	WT901BLE68-01(48591DE3C19B)	-0.416	-0.651	0.254	-10.559	-23.743	-15.564	-78.08	22.22	-20.72	-51.058	-36.554	69.972	-0.79160	0.54517	-0.27533	0.01514	30.3	13111	100
