time	DeviceName	AccX(g)	AccY(g)	AccZ(g)	AsX(°/s)	AsY(°/s)	AsZ(°/s)	AngleX(°)	AngleY(°)	AngleZ(°)	HX(uT)	HY(uT)	HZ(uT)	Q0()	Q1()	Q2()	Q3()	Temperature(°C)	Version()	Battery level(%)
2025-3-27 20:28:46.107	WT901BLE68-01(48591DE3C19B)	-0.359	-0.875	0.303	-0.244	-1.038	-3.052	-72.25	23.13	23.31	-78.596	-22.638	105.056	-0.75885	0.59653	-0.02774	-0.25964	30.4	13111	100
2025-3-27 20:28:46.108	WT901BLE68-01(48591DE3C19B)	-0.365	-0.875	0.303	-0.244	-1.038	-3.052	-72.25	23.09	23.31	-78.596	-22.638	105.056	-0.75885	0.59653	-0.02774	-0.25964	30.4	13111	100
2025-3-27 20:28:46.108	WT901BLE68-01(48591DE3C19B)	-0.365	-0.871	0.299	0.366	-0.427	-4.089	-72.24	23.03	23.30	-78.596	-22.638	105.056	-0.75885	0.59653	-0.02774	-0.25964	30.4	13111	100
2025-3-27 20:28:46.108	WT901BLE68-01(48591DE3C19B)	-0.372	-0.871	0.299	0.366	-0.427	-4.089	-72.23	22.98	23.30	-78.596	-22.638	105.056	-0.75885	0.59653	-0.02774	-0.25964	30.4	13111	100
2025-3-27 20:28:46.108	WT901BLE68-01(48591DE3C19B)	-0.372	-0.877	0.298	0.427	-0.793	-5.066	-72.22	22.92	23.29	-78.596	-22.638	105.056	-0.75885	0.59653	-0.02774	-0.25964	30.4	13111	100
2025-3-27 20:28:46.108	WT901BLE68-01(48591DE3C19B)	-0.374	-0.877	0.298	0.427	-0.793	-5.066	-72.21	22.87	23.28	-78.596	-22.638	105.056	-0.75885	0.59653	-0.02774	-0.25964	30.4	13111	100
2025-3-27 20:28:46.108	WT901BLE68-01(48591DE3C19B)	-0.371	-0.884	0.296	0.366	-1.709	-5.859	-72.20	22.80	23.28	-78.596	-22.638	105.056	-0.75885	0.59653	-0.02774	-0.25964	30.4	13111	100
2025-3-27 20:28:46.108	WT901BLE68-01(48591DE3C19B)	-0.371	-0.883	0.294	0.122	-2.136	-6.592	-72.20	22.73	23.29	-78.596	-22.638	105.056	-0.75885	0.59653	-0.02774	-0.25964	30.4	13111	100
2025-3-27 20:28:46.137	WT901BLE68-01(48591DE3C19B)	-0.371	-0.883	0.294	0.122	-2.136	-6.592	-72.19	22.65	23.29	-78.596	-22.638	105.056	-0.75885	0.59653	-0.02774	-0.25964	30.4	13111	100
2025-3-27 20:28:46.137	WT901BLE68-01(48591DE3C19B)	-0.371	-0.884	0.294	-0.183	-1.831	-7.141	-72.18	22.57	23.29	-78.596	-22.638	105.056	-0.75885	0.59653	-0.02774	-0.25964	30.4	13111	100
2025-3-27 20:28:46.137	WT901BLE68-01(48591DE3C19B)	-0.375	-0.884	0.294	-0.183	-1.831	-7.141	-72.18	22.49	23.28	-78.596	-22.638	105.056	-0.75314	0.59763	-0.03751	-0.27225	30.4	13111	100
2025-3-27 20:28:46.137	WT901BLE68-01(48591DE3C19B)	-0.375	-0.889	0.294	-0.244	-1.892	-7.568	-72.18	22.41	23.28	-78.596	-22.638	105.056	-0.75314	0.59763	-0.03751	-0.27225	30.4	13111	100
2025-3-27 20:28:46.195	WT901BLE68-01(48591DE3C19B)	-0.370	-0.889	0.294	-0.244	-1.892	-7.568	-72.17	22.33	23.27	-78.596	-22.638	105.056	-0.75314	0.59763	-0.03751	-0.27225	30.4	13111	100
2025-3-27 20:28:46.195	WT901BLE68-01(48591DE3C19B)	-0.370	-0.887	0.294	0.244	-2.075	-7.751	-72.17	22.25	23.27	-78.596	-22.638	105.056	-0.75314	0.59763	-0.03751	-0.27225	30.4	13111	100
2025-3-27 20:28:46.196	WT901BLE68-01(48591DE3C19B)	-0.368	-0.887	0.294	0.244	-2.075	-7.751	-72.17	22.16	23.27	-78.596	-22.638	105.056	-0.75314	0.59763	-0.03751	-0.27225	30.4	13111	100
2025-3-27 20:28:46.196	WT901BLE68-01(48591DE3C19B)	-0.368	-0.876	0.295	0.671	-1.587	-7.507	-72.16	22.08	23.26	-78.596	-22.638	105.056	-0.75314	0.59763	-0.03751	-0.27225	30.4	13111	100
2025-3-27 20:28:46.225	WT901BLE68-01(48591DE3C19B)	-0.372	-0.876	0.295	0.671	-1.587	-7.507	-72.15	22.01	23.26	-78.596	-22.638	105.056	-0.75314	0.59763	-0.03751	-0.27225	30.4	13111	100
2025-3-27 20:28:46.225	WT901BLE68-01(48591DE3C19B)	-0.372	-0.874	0.293	0.183	-0.854	-7.324	-72.15	21.93	23.25	-78.596	-22.638	105.056	-0.75314	0.59763	-0.03751	-0.27225	30.4	13111	100
2025-3-27 20:28:46.225	WT901BLE68-01(48591DE3C19B)	-0.381	-0.874	0.293	0.183	-0.854	-7.324	-72.15	21.85	23.23	-78.596	-22.638	105.056	-0.75314	0.59763	-0.03751	-0.27225	30.4	13111	100
2025-3-27 20:28:46.225	WT901BLE68-01(48591DE3C19B)	-0.381	-0.883	0.290	-0.244	-0.183	-7.141	-72.15	21.78	23.21	-78.596	-22.638	105.056	-0.75314	0.59763	-0.03751	-0.27225	30.4	13111	100
2025-3-27 20:28:46.256	WT901BLE68-01(48591DE3C19B)	-0.383	-0.883	0.290	-0.244	-0.183	-7.141	-72.16	21.71	23.19	-78.596	-22.638	105.056	-0.75314	0.59763	-0.03751	-0.27225	30.4	13111	100
2025-3-27 20:28:46.256	WT901BLE68-01(48591DE3C19B)	-0.383	-0.879	0.293	-0.488	-0.977	-7.385	-72.16	21.64	23.18	-78.596	-22.638	105.056	-0.75314	0.59763	-0.03751	-0.27225	30.4	13111	100
2025-3-27 20:28:46.256	WT901BLE68-01(48591DE3C19B)	-0.375	-0.879	0.293	-0.488	-0.977	-7.385	-72.17	21.57	23.16	-78.596	-22.638	105.056	-0.75314	0.59763	-0.03751	-0.27225	30.4	13111	100
2025-3-27 20:28:46.256	WT901BLE68-01(48591DE3C19B)	-0.375	-0.873	0.295	-0.854	-0.854	-7.263	-72.17	21.51	23.15	-78.596	-22.638	105.056	-0.75314	0.59763	-0.03751	-0.27225	30.4	13111	100
2025-3-27 20:28:46.315	WT901BLE68-01(48591DE3C19B)	-0.372	-0.873	0.295	-0.854	-0.854	-7.263	-72.19	21.43	23.14	-78.596	-22.638	105.056	-0.75314	0.59763	-0.03751	-0.27225	30.4	13111	100
2025-3-27 20:28:46.315	WT901BLE68-01(48591DE3C19B)	-0.372	-0.866	0.294	-1.038	-0.183	-6.897	-72.20	21.37	23.12	-78.596	-22.638	105.056	-0.75314	0.59763	-0.03751	-0.27225	30.4	13111	100
2025-3-27 20:28:46.316	WT901BLE68-01(48591DE3C19B)	-0.368	-0.866	0.294	-1.038	-0.183	-6.897	-72.21	21.31	23.10	-78.596	-22.638	105.056	-0.75314	0.59763	-0.03751	-0.27225	30.4	13111	100
2025-3-27 20:28:46.316	WT901BLE68-01(48591DE3C19B)	-0.368	-0.860	0.299	-1.526	0.732	-6.287	-72.23	21.25	23.08	-78.596	-22.638	105.056	-0.75314	0.59763	-0.03751	-0.27225	30.4	13111	100
2025-3-27 20:28:46.345	WT901BLE68-01(48591DE3C19B)	-0.366	-0.860	0.299	-1.526	0.732	-6.287	-72.25	21.20	23.05	-77.812	-23.128	105.448	-0.75314	0.59763	-0.03751	-0.27225	30.4	13111	100
2025-3-27 20:28:46.345	WT901BLE68-01(48591DE3C19B)	-0.366	-0.857	0.301	-1.831	2.014	-5.737	-72.27	21.15	23.02	-77.812	-23.128	105.448	-0.75314	0.59763	-0.03751	-0.27225	30.4	13111	100
2025-3-27 20:28:46.345	WT901BLE68-01(48591DE3C19B)	-0.366	-0.857	0.301	-1.831	2.014	-5.737	-72.30	21.10	22.98	-77.812	-23.128	105.448	-0.75314	0.59763	-0.03751	-0.27225	30.4	13111	100
2025-3-27 20:28:46.345	WT901BLE68-01(48591DE3C19B)	-0.366	-0.849	0.299	-2.258	3.052	-5.188	-72.33	21.07	22.94	-77.812	-23.128	105.448	-0.75314	0.59763	-0.03751	-0.27225	30.4	13111	100
2025-3-27 20:28:46.375	WT901BLE68-01(48591DE3C19B)	-0.369	-0.849	0.299	-2.258	3.052	-5.188	-72.36	21.03	22.89	-77.812	-23.128	105.448	-0.75314	0.59763	-0.03751	-0.27225	30.4	13111	100
2025-3-27 20:28:46.375	WT901BLE68-01(48591DE3C19B)	-0.369	-0.848	0.302	-3.113	3.052	-4.822	-72.39	21.00	22.85	-77.812	-23.128	105.448	-0.75314	0.59763	-0.03751	-0.27225	30.4	13111	100
2025-3-27 20:28:46.375	WT901BLE68-01(48591DE3C19B)	-0.371	-0.848	0.302	-3.113	3.052	-4.822	-72.43	20.97	22.80	-77.812	-23.128	105.448	-0.75314	0.59763	-0.03751	-0.27225	30.4	13111	100
2025-3-27 20:28:46.375	WT901BLE68-01(48591DE3C19B)	-0.371	-0.855	0.311	-4.028	2.441	-4.395	-72.48	20.94	22.76	-77.812	-23.128	105.448	-0.75314	0.59763	-0.03751	-0.27225	30.4	13111	100
2025-3-27 20:28:46.435	WT901BLE68-01(48591DE3C19B)	-0.367	-0.855	0.311	-4.028	2.441	-4.395	-72.52	20.91	22.72	-77.812	-23.128	105.448	-0.75314	0.59763	-0.03751	-0.27225	30.4	13111	100
2025-3-27 20:28:46.435	WT901BLE68-01(48591DE3C19B)	-0.367	-0.841	0.315	-4.639	1.892	-3.967	-72.56	20.89	22.69	-77.812	-23.128	105.448	-0.75314	0.59763	-0.03751	-0.27225	30.4	13111	100
2025-3-27 20:28:46.435	WT901BLE68-01(48591DE3C19B)	-0.367	-0.841	0.315	-4.639	1.892	-3.967	-72.61	20.86	22.65	-77.812	-23.128	105.448	-0.75314	0.59763	-0.03751	-0.27225	30.4	13111	100
2025-3-27 20:28:46.436	WT901BLE68-01(48591DE3C19B)	-0.367	-0.833	0.316	-6.165	1.160	-3.906	-72.66	20.84	22.63	-77.812	-23.128	105.448	-0.75314	0.59763	-0.03751	-0.27225	30.4	13111	100
2025-3-27 20:28:46.467	WT901BLE68-01(48591DE3C19B)	-0.376	-0.833	0.316	-6.165	1.160	-3.906	-72.72	20.81	22.60	-77.812	-23.128	105.448	-0.75314	0.59763	-0.03751	-0.27225	30.4	13111	100
2025-3-27 20:28:46.468	WT901BLE68-01(48591DE3C19B)	-0.376	-0.834	0.321	-7.202	-0.366	-4.456	-72.77	20.78	22.59	-77.812	-23.128	105.448	-0.75314	0.59763	-0.03751	-0.27225	30.4	13111	100
2025-3-27 20:28:46.468	WT901BLE68-01(48591DE3C19B)	-0.382	-0.834	0.321	-7.202	-0.366	-4.456	-72.83	20.75	22.58	-77.812	-23.128	105.448	-0.75314	0.59763	-0.03751	-0.27225	30.4	13111	100
2025-3-27 20:28:46.468	WT901BLE68-01(48591DE3C19B)	-0.382	-0.833	0.322	-8.057	-2.991	-5.249	-72.89	20.70	22.58	-77.812	-23.128	105.448	-0.75314	0.59763	-0.03751	-0.27225	30.4	13111	100
2025-3-27 20:28:46.497	WT901BLE68-01(48591DE3C19B)	-0.382	-0.833	0.322	-8.057	-2.991	-5.249	-72.95	20.65	22.60	-77.812	-23.128	105.448	-0.75314	0.59763	-0.03751	-0.27225	30.4	13111	100
2025-3-27 20:28:46.497	WT901BLE68-01(48591DE3C19B)	-0.382	-0.834	0.322	-9.155	-5.554	-6.226	-73.01	20.60	22.63	-77.812	-23.128	105.448	-0.75314	0.59763	-0.03751	-0.27225	30.4	13111	100
2025-3-27 20:28:46.497	WT901BLE68-01(48591DE3C19B)	-0.390	-0.834	0.322	-9.155	-5.554	-6.226	-73.07	20.53	22.66	-77.812	-23.128	105.448	-0.75314	0.59763	-0.03751	-0.27225	30.4	13111	100
2025-3-27 20:28:46.498	WT901BLE68-01(48591DE3C19B)	-0.390	-0.843	0.326	-9.766	-8.423	-7.080	-73.13	20.46	22.71	-77.812	-23.128	105.448	-0.75314	0.59763	-0.03751	-0.27225	30.4	13111	100
2025-3-27 20:28:46.616	WT901BLE68-01(48591DE3C19B)	-0.404	-0.843	0.326	-9.766	-8.423	-7.080	-73.18	20.39	22.78	-77.812	-23.128	105.448	-0.75314	0.59763	-0.03751	-0.27225	30.4	13111	100
2025-3-27 20:28:46.616	WT901BLE68-01(48591DE3C19B)	-0.404	-0.853	0.331	-11.108	-12.512	-7.507	-73.23	20.30	22.86	-77.812	-23.128	105.448	-0.75354	0.60349	-0.02228	-0.25961	30.4	13111	100
2025-3-27 20:28:46.616	WT901BLE68-01(48591DE3C19B)	-0.405	-0.853	0.331	-11.108	-12.512	-7.507	-73.28	20.21	22.97	-77.812	-23.128	105.448	-0.75354	0.60349	-0.02228	-0.25961	30.4	13111	100
2025-3-27 20:28:46.616	WT901BLE68-01(48591DE3C19B)	-0.405	-0.863	0.327	-12.329	-17.395	-7.141	-73.33	20.11	23.10	-77.812	-23.128	105.448	-0.75354	0.60349	-0.02228	-0.25961	30.4	13111	100
2025-3-27 20:28:46.617	WT901BLE68-01(48591DE3C19B)	-0.395	-0.863	0.327	-12.329	-17.395	-7.141	-73.38	20.01	23.25	-77.812	-23.128	105.448	-0.75354	0.60349	-0.02228	-0.25961	30.4	13111	100
2025-3-27 20:28:46.617	WT901BLE68-01(48591DE3C19B)	-0.395	-0.860	0.312	-13.123	-21.179	-5.920	-73.42	19.91	23.45	-77.812	-23.128	105.448	-0.75354	0.60349	-0.02228	-0.25961	30.4	13111	100
2025-3-27 20:28:46.617	WT901BLE68-01(48591DE3C19B)	-0.388	-0.860	0.312	-13.123	-21.179	-5.920	-73.46	19.81	23.65	-77.812	-23.128	105.448	-0.75354	0.60349	-0.02228	-0.25961	30.4	13111	100
2025-3-27 20:28:46.618	WT901BLE68-01(48591DE3C19B)	-0.388	-0.853	0.298	-13.672	-23.376	-4.211	-73.49	19.73	23.87	-77.812	-23.128	105.448	-0.75354	0.60349	-0.02228	-0.25961	30.4	13111	100
2025-3-27 20:28:46.618	WT901BLE68-01(48591DE3C19B)	-0.383	-0.853	0.298	-13.672	-23.376	-4.211	-73.53	19.64	24.10	-77.812	-23.128	105.448	-0.75354	0.60349	-0.02228	-0.25961	30.4	13111	100
2025-3-27 20:28:46.618	WT901BLE68-01(48591DE3C19B)	-0.383	-0.844	0.288	-14.587	-25.391	-2.319	-73.57	19.57	24.35	-77.812	-23.128	105.448	-0.75354	0.60349	-0.02228	-0.25961	30.4	13111	100
2025-3-27 20:28:46.618	WT901BLE68-01(48591DE3C19B)	-0.376	-0.844	0.288	-14.587	-25.391	-2.319	-73.61	19.50	24.60	-77.812	-23.128	105.448	-0.75354	0.60349	-0.02228	-0.25961	30.4	13111	100
2025-3-27 20:28:46.618	WT901BLE68-01(48591DE3C19B)	-0.376	-0.842	0.277	-15.930	-26.367	-0.671	-73.66	19.44	24.87	-77.812	-23.128	105.448	-0.75354	0.60349	-0.02228	-0.25961	30.4	13111	100
2025-3-27 20:28:46.675	WT901BLE68-01(48591DE3C19B)	-0.378	-0.842	0.277	-15.930	-26.367	-0.671	-73.71	19.38	25.14	-77.812	-23.128	105.448	-0.75354	0.60349	-0.02228	-0.25961	30.4	13111	100
2025-3-27 20:28:46.675	WT901BLE68-01(48591DE3C19B)	-0.378	-0.853	0.270	-17.395	-27.161	0.427	-73.77	19.33	25.41	-77.812	-23.128	105.448	-0.75354	0.60349	-0.02228	-0.25961	30.4	13111	100
2025-3-27 20:28:46.675	WT901BLE68-01(48591DE3C19B)	-0.375	-0.853	0.270	-17.395	-27.161	0.427	-73.84	19.29	25.69	-77.812	-23.128	105.448	-0.75354	0.60349	-0.02228	-0.25961	30.4	13111	100
2025-3-27 20:28:46.676	WT901BLE68-01(48591DE3C19B)	-0.375	-0.867	0.261	-18.127	-27.710	1.038	-73.91	19.24	25.98	-77.812	-23.128	105.448	-0.75354	0.60349	-0.02228	-0.25961	30.4	13111	100
2025-3-27 20:28:46.735	WT901BLE68-01(48591DE3C19B)	-0.369	-0.867	0.261	-18.127	-27.710	1.038	-73.98	19.20	26.26	-77.812	-23.128	105.448	-0.75354	0.60349	-0.02228	-0.25961	30.4	13111	100
2025-3-27 20:28:46.736	WT901BLE68-01(48591DE3C19B)	-0.369	-0.865	0.251	-18.677	-27.283	1.465	-74.05	19.16	26.54	-77.812	-23.128	105.448	-0.75354	0.60349	-0.02228	-0.25961	30.4	13111	100
2025-3-27 20:28:46.736	WT901BLE68-01(48591DE3C19B)	-0.369	-0.865	0.251	-18.677	-27.283	1.465	-74.14	19.12	26.83	-77.812	-23.128	105.448	-0.75354	0.60349	-0.02228	-0.25961	30.4	13111	100
2025-3-27 20:28:46.736	WT901BLE68-01(48591DE3C19B)	-0.369	-0.862	0.243	-19.287	-27.039	1.648	-74.22	19.08	27.11	-77.812	-23.128	105.448	-0.75354	0.60349	-0.02228	-0.25961	30.4	13111	100
2025-3-27 20:28:46.736	WT901BLE68-01(48591DE3C19B)	-0.377	-0.862	0.243	-19.287	-27.039	1.648	-74.31	19.05	27.39	-77.812	-23.128	105.448	-0.75354	0.60349	-0.02228	-0.25961	30.4	13111	100
2025-3-27 20:28:46.736	WT901BLE68-01(48591DE3C19B)	-0.377	-0.869	0.237	-20.325	-27.710	1.831	-74.41	19.02	27.67	-77.812	-23.128	105.448	-0.75354	0.60349	-0.02228	-0.25961	30.4	13111	100
2025-3-27 20:28:46.737	WT901BLE68-01(48591DE3C19B)	-0.378	-0.869	0.237	-20.325	-27.710	1.831	-74.50	18.98	27.97	-72.422	-27.342	107.506	-0.75354	0.60349	-0.02228	-0.25961	30.4	13111	100
2025-3-27 20:28:46.737	WT901BLE68-01(48591DE3C19B)	-0.378	-0.875	0.233	-21.362	-29.541	2.014	-74.61	18.95	28.27	-72.422	-27.342	107.506	-0.75354	0.60349	-0.02228	-0.25961	30.4	13111	100
2025-3-27 20:28:46.826	WT901BLE68-01(48591DE3C19B)	-0.370	-0.875	0.233	-21.362	-29.541	2.014	-74.71	18.91	28.58	-72.422	-27.342	107.506	-0.75354	0.60349	-0.02228	-0.25961	30.4	13111	100
2025-3-27 20:28:46.826	WT901BLE68-01(48591DE3C19B)	-0.370	-0.880	0.226	-22.217	-30.945	2.502	-74.82	18.87	28.90	-72.422	-27.342	107.506	-0.75354	0.60349	-0.02228	-0.25961	30.4	13111	100
2025-3-27 20:28:46.826	WT901BLE68-01(48591DE3C19B)	-0.361	-0.880	0.226	-22.217	-30.945	2.502	-74.93	18.84	29.22	-72.422	-27.342	107.506	-0.75354	0.60349	-0.02228	-0.25961	30.4	13111	100
2025-3-27 20:28:46.826	WT901BLE68-01(48591DE3C19B)	-0.361	-0.850	0.223	-21.912	-31.250	3.601	-75.04	18.82	29.55	-72.422	-27.342	107.506	-0.75354	0.60349	-0.02228	-0.25961	30.4	13111	100
2025-3-27 20:28:46.827	WT901BLE68-01(48591DE3C19B)	-0.357	-0.850	0.223	-21.912	-31.250	3.601	-75.14	18.80	29.88	-72.422	-27.342	107.506	-0.75354	0.60349	-0.02228	-0.25961	30.4	13111	100
2025-3-27 20:28:46.827	WT901BLE68-01(48591DE3C19B)	-0.357	-0.816	0.221	-22.766	-32.715	5.554	-75.25	18.79	30.23	-72.422	-27.342	107.506	-0.75354	0.60349	-0.02228	-0.25961	30.4	13111	100
2025-3-27 20:28:46.827	WT901BLE68-01(48591DE3C19B)	-0.354	-0.816	0.221	-22.766	-32.715	5.554	-75.36	18.78	30.59	-72.422	-27.342	107.506	-0.75354	0.60349	-0.02228	-0.25961	30.4	13111	100
2025-3-27 20:28:46.827	WT901BLE68-01(48591DE3C19B)	-0.354	-0.816	0.215	-23.621	-34.973	7.751	-75.47	18.79	30.96	-72.422	-27.342	107.506	-0.75354	0.60349	-0.02228	-0.25961	30.4	13111	100
2025-3-27 20:28:46.857	WT901BLE68-01(48591DE3C19B)	-0.359	-0.816	0.215	-23.621	-34.973	7.751	-75.57	18.80	31.34	-72.422	-27.342	107.506	-0.75354	0.60349	-0.02228	-0.25961	30.4	13111	100
2025-3-27 20:28:46.857	WT901BLE68-01(48591DE3C19B)	-0.359	-0.864	0.209	-23.804	-37.781	8.789	-75.67	18.82	31.75	-72.422	-27.342	107.506	-0.75354	0.60349	-0.02228	-0.25961	30.4	13111	100
2025-3-27 20:28:46.857	WT901BLE68-01(48591DE3C19B)	-0.372	-0.864	0.209	-23.804	-37.781	8.789	-75.77	18.83	32.16	-72.422	-27.342	107.506	-0.75354	0.60349	-0.02228	-0.25961	30.4	13111	100
2025-3-27 20:28:46.857	WT901BLE68-01(48591DE3C19B)	-0.372	-0.954	0.213	-22.034	-40.527	7.568	-75.84	18.83	32.60	-72.422	-27.342	107.506	-0.75354	0.60349	-0.02228	-0.25961	30.4	13111	100
2025-3-27 20:28:46.915	WT901BLE68-01(48591DE3C19B)	-0.375	-0.954	0.213	-22.034	-40.527	7.568	-75.92	18.83	33.04	-72.422	-27.342	107.506	-0.75354	0.60349	-0.02228	-0.25961	30.4	13111	100
2025-3-27 20:28:46.915	WT901BLE68-01(48591DE3C19B)	-0.375	-1.040	0.222	-18.127	-41.199	5.066	-75.95	18.79	33.47	-72.422	-27.342	107.506	-0.75354	0.60349	-0.02228	-0.25961	30.4	13111	100
2025-3-27 20:28:46.916	WT901BLE68-01(48591DE3C19B)	-0.353	-1.040	0.222	-18.127	-41.199	5.066	-76.00	18.76	33.91	-72.422	-27.342	107.506	-0.75354	0.60349	-0.02228	-0.25961	30.4	13111	100
2025-3-27 20:28:46.916	WT901BLE68-01(48591DE3C19B)	-0.353	-1.087	0.220	-11.719	-36.133	2.869	-75.99	18.72	34.29	-72.422	-27.342	107.506	-0.75354	0.60349	-0.02228	-0.25961	30.4	13111	100
2025-3-27 20:28:46.945	WT901BLE68-01(48591DE3C19B)	-0.328	-1.087	0.220	-11.719	-36.133	2.869	-75.99	18.67	34.67	-72.422	-27.342	107.506	-0.75354	0.60349	-0.02228	-0.25961	30.4	13111	100
2025-3-27 20:28:46.945	WT901BLE68-01(48591DE3C19B)	-0.328	-1.081	0.210	-4.822	-24.536	1.770	-75.96	18.64	34.93	-72.422	-27.342	107.506	-0.75354	0.60349	-0.02228	-0.25961	30.4	13111	100
2025-3-27 20:28:46.945	WT901BLE68-01(48591DE3C19B)	-0.318	-1.081	0.210	-4.822	-24.536	1.770	-75.93	18.61	35.18	-72.422	-27.342	107.506	-0.75354	0.60349	-0.02228	-0.25961	30.4	13111	100
2025-3-27 20:28:46.945	WT901BLE68-01(48591DE3C19B)	-0.318	-1.039	0.197	0.427	-9.521	2.625	-75.90	18.61	35.29	-72.422	-27.342	107.506	-0.71133	0.61697	0.06244	-0.33063	30.4	13111	100
2025-3-27 20:28:46.974	WT901BLE68-01(48591DE3C19B)	-0.315	-1.039	0.197	0.427	-9.521	2.625	-75.87	18.62	35.39	-72.422	-27.342	107.506	-0.71133	0.61697	0.06244	-0.33063	30.4	13111	100
2025-3-27 20:28:46.974	WT901BLE68-01(48591DE3C19B)	-0.315	-0.960	0.182	3.113	3.113	4.761	-75.86	18.68	35.38	-72.422	-27.342	107.506	-0.71133	0.61697	0.06244	-0.33063	30.4	13111	100
2025-3-27 20:28:46.974	WT901BLE68-01(48591DE3C19B)	-0.331	-0.960	0.182	3.113	3.113	4.761	-75.84	18.73	35.36	-72.422	-27.342	107.506	-0.71133	0.61697	0.06244	-0.33063	30.4	13111	100
2025-3-27 20:28:46.974	WT901BLE68-01(48591DE3C19B)	-0.331	-0.891	0.175	2.075	10.315	6.714	-75.87	18.83	35.27	-72.422	-27.342	107.506	-0.71133	0.61697	0.06244	-0.33063	30.4	13111	100
2025-3-27 20:28:47.35	WT901BLE68-01(48591DE3C19B)	-0.354	-0.891	0.175	2.075	10.315	6.714	-75.88	18.92	35.18	-72.422	-27.342	107.506	-0.71133	0.61697	0.06244	-0.33063	30.4	13111	100
2025-3-27 20:28:47.35	WT901BLE68-01(48591DE3C19B)	-0.354	-0.854	0.174	-0.977	10.315	7.385	-75.93	19.02	35.10	-72.422	-27.342	107.506	-0.71133	0.61697	0.06244	-0.33063	30.4	13111	100
2025-3-27 20:28:47.35	WT901BLE68-01(48591DE3C19B)	-0.365	-0.854	0.174	-0.977	10.315	7.385	-75.98	19.12	35.01	-72.422	-27.342	107.506	-0.71133	0.61697	0.06244	-0.33063	30.4	13111	100
2025-3-27 20:28:47.36	WT901BLE68-01(48591DE3C19B)	-0.368	-0.836	0.171	-4.028	4.028	7.019	-76.04	19.20	34.99	-72.422	-27.342	107.506	-0.71133	0.61697	0.06244	-0.33063	30.4	13111	100
2025-3-27 20:28:47.67	WT901BLE68-01(48591DE3C19B)	-0.368	-0.830	0.166	-5.615	-3.906	6.226	-76.10	19.27	35.01	-72.422	-27.342	107.506	-0.71133	0.61697	0.06244	-0.33063	30.4	13111	100
2025-3-27 20:28:47.67	WT901BLE68-01(48591DE3C19B)	-0.362	-0.830	0.166	-5.615	-3.906	6.226	-76.15	19.32	35.07	-72.422	-27.342	107.506	-0.71133	0.61697	0.06244	-0.33063	30.4	13111	100
2025-3-27 20:28:47.67	WT901BLE68-01(48591DE3C19B)	-0.362	-0.819	0.164	-6.165	-12.085	4.822	-76.18	19.37	35.17	-72.422	-27.342	107.506	-0.71133	0.61697	0.06244	-0.33063	30.4	13111	100
2025-3-27 20:28:47.67	WT901BLE68-01(48591DE3C19B)	-0.345	-0.819	0.164	-6.165	-12.085	4.822	-76.22	19.40	35.30	-72.422	-27.342	107.506	-0.71133	0.61697	0.06244	-0.33063	30.4	13111	100
2025-3-27 20:28:47.97	WT901BLE68-01(48591DE3C19B)	-0.345	-0.817	0.158	-5.798	-18.127	3.845	-76.23	19.41	35.47	-72.422	-27.342	107.506	-0.71133	0.61697	0.06244	-0.33063	30.4	13111	100
2025-3-27 20:28:47.97	WT901BLE68-01(48591DE3C19B)	-0.320	-0.817	0.158	-5.798	-18.127	3.845	-76.24	19.42	35.67	-72.422	-27.342	107.506	-0.71133	0.61697	0.06244	-0.33063	30.4	13111	100
2025-3-27 20:28:47.98	WT901BLE68-01(48591DE3C19B)	-0.320	-0.809	0.156	-4.028	-18.738	3.235	-76.23	19.42	35.87	-72.422	-27.342	107.506	-0.71133	0.61697	0.06244	-0.33063	30.4	13111	100
2025-3-27 20:28:47.98	WT901BLE68-01(48591DE3C19B)	-0.300	-0.809	0.156	-4.028	-18.738	3.235	-76.22	19.42	36.07	-72.422	-27.342	107.506	-0.71133	0.61697	0.06244	-0.33063	30.4	13111	100
2025-3-27 20:28:47.216	WT901BLE68-01(48591DE3C19B)	-0.300	-0.813	0.154	-2.075	-14.099	3.235	-76.21	19.43	36.25	-72.422	-27.342	107.506	-0.71133	0.61697	0.06244	-0.33063	30.4	13111	100
2025-3-27 20:28:47.216	WT901BLE68-01(48591DE3C19B)	-0.291	-0.813	0.154	-2.075	-14.099	3.235	-76.19	19.43	36.41	-62.132	-30.772	109.074	-0.71133	0.61697	0.06244	-0.33063	30.4	13111	100
2025-3-27 20:28:47.216	WT901BLE68-01(48591DE3C19B)	-0.291	-0.832	0.148	1.221	-6.409	3.906	-76.17	19.46	36.52	-62.132	-30.772	109.074	-0.71133	0.61697	0.06244	-0.33063	30.4	13111	100
2025-3-27 20:28:47.216	WT901BLE68-01(48591DE3C19B)	-0.292	-0.832	0.148	1.221	-6.409	3.906	-76.15	19.48	36.60	-62.132	-30.772	109.074	-0.71133	0.61697	0.06244	-0.33063	30.4	13111	100
2025-3-27 20:28:47.217	WT901BLE68-01(48591DE3C19B)	-0.292	-0.833	0.148	5.127	1.831	5.127	-76.12	19.53	36.64	-62.132	-30.772	109.074	-0.71133	0.61697	0.06244	-0.33063	30.4	13111	100
2025-3-27 20:28:47.217	WT901BLE68-01(48591DE3C19B)	-0.299	-0.833	0.148	5.127	1.831	5.127	-76.09	19.59	36.63	-62.132	-30.772	109.074	-0.71133	0.61697	0.06244	-0.33063	30.4	13111	100
2025-3-27 20:28:47.217	WT901BLE68-01(48591DE3C19B)	-0.299	-0.842	0.143	8.301	8.545	6.409	-76.05	19.67	36.60	-62.132	-30.772	109.074	-0.71133	0.61697	0.06244	-0.33063	30.4	13111	100
2025-3-27 20:28:47.217	WT901BLE68-01(48591DE3C19B)	-0.292	-0.842	0.143	8.301	8.545	6.409	-76.01	19.75	36.52	-62.132	-30.772	109.074	-0.71133	0.61697	0.06244	-0.33063	30.4	13111	100
2025-3-27 20:28:47.275	WT901BLE68-01(48591DE3C19B)	-0.292	-0.841	0.134	12.146	15.564	8.057	-75.97	19.85	36.42	-62.132	-30.772	109.074	-0.71133	0.61697	0.06244	-0.33063	30.4	13111	100
2025-3-27 20:28:47.275	WT901BLE68-01(48591DE3C19B)	-0.285	-0.841	0.134	12.146	15.564	8.057	-75.92	19.97	36.28	-62.132	-30.772	109.074	-0.71133	0.61697	0.06244	-0.33063	30.4	13111	100
2025-3-27 20:28:47.275	WT901BLE68-01(48591DE3C19B)	-0.285	-0.822	0.126	15.564	22.705	10.498	-75.86	20.10	36.11	-62.132	-30.772	109.074	-0.71133	0.61697	0.06244	-0.33063	30.4	13111	100
2025-3-27 20:28:47.276	WT901BLE68-01(48591DE3C19B)	-0.272	-0.822	0.126	15.564	22.705	10.498	-75.80	20.26	35.90	-62.132	-30.772	109.074	-0.71133	0.61697	0.06244	-0.33063	30.4	13111	100
2025-3-27 20:28:47.277	WT901BLE68-01(48591DE3C19B)	-0.272	-0.791	0.113	17.944	30.090	13.123	-75.74	20.44	35.66	-62.132	-30.772	109.074	-0.71133	0.61697	0.06244	-0.33063	30.4	13111	100
2025-3-27 20:28:47.277	WT901BLE68-01(48591DE3C19B)	-0.263	-0.791	0.113	17.944	30.090	13.123	-75.68	20.63	35.39	-62.132	-30.772	109.074	-0.71133	0.61697	0.06244	-0.33063	30.4	13111	100
2025-3-27 20:28:47.277	WT901BLE68-01(48591DE3C19B)	-0.263	-0.754	0.102	19.409	37.720	15.320	-75.64	20.85	35.07	-62.132	-30.772	109.074	-0.71133	0.61697	0.06244	-0.33063	30.4	13111	100
2025-3-27 20:28:47.277	WT901BLE68-01(48591DE3C19B)	-0.259	-0.754	0.102	19.409	37.720	15.320	-75.60	21.08	34.72	-62.132	-30.772	109.074	-0.71133	0.61697	0.06244	-0.33063	30.4	13111	100
2025-3-27 20:28:47.308	WT901BLE68-01(48591DE3C19B)	-0.259	-0.742	0.099	18.982	45.044	15.564	-75.58	21.32	34.34	-62.132	-30.772	109.074	-0.71133	0.61697	0.06244	-0.33063	30.4	13111	100
2025-3-27 20:28:47.308	WT901BLE68-01(48591DE3C19B)	-0.271	-0.742	0.099	18.982	45.044	15.564	-75.57	21.58	33.91	-62.132	-30.772	109.074	-0.71133	0.61697	0.06244	-0.33063	30.4	13111	100
2025-3-27 20:28:47.308	WT901BLE68-01(48591DE3C19B)	-0.271	-0.775	0.104	19.714	52.124	12.146	-75.59	21.82	33.44	-62.132	-30.772	109.074	-0.71133	0.61697	0.06244	-0.33063	30.4	13111	100
2025-3-27 20:28:47.308	WT901BLE68-01(48591DE3C19B)	-0.299	-0.775	0.104	19.714	52.124	12.146	-75.61	22.05	32.93	-62.132	-30.772	109.074	-0.71133	0.61697	0.06244	-0.33063	30.4	13111	100
2025-3-27 20:28:47.368	WT901BLE68-01(48591DE3C19B)	-0.299	-0.799	0.127	21.912	57.434	4.700	-75.65	22.25	32.38	-62.132	-30.772	109.074	-0.71133	0.61697	0.06244	-0.33063	30.4	13111	100
2025-3-27 20:28:47.368	WT901BLE68-01(48591DE3C19B)	-0.333	-0.799	0.127	21.912	57.434	4.700	-75.68	22.42	31.78	-62.132	-30.772	109.074	-0.71280	0.62106	0.01501	-0.32541	30.4	13111	100
2025-3-27 20:28:47.368	WT901BLE68-01(48591DE3C19B)	-0.333	-0.807	0.160	26.123	58.655	-4.944	-75.71	22.54	31.17	-62.132	-30.772	109.074	-0.71280	0.62106	0.01501	-0.32541	30.4	13111	100
2025-3-27 20:28:47.368	WT901BLE68-01(48591DE3C19B)	-0.382	-0.807	0.160	26.123	58.655	-4.944	-75.72	22.63	30.55	-62.132	-30.772	109.074	-0.71280	0.62106	0.01501	-0.32541	30.4	13111	100
2025-3-27 20:28:47.395	WT901BLE68-01(48591DE3C19B)	-0.382	-0.802	0.199	31.250	57.312	-12.756	-75.71	22.67	29.92	-62.132	-30.772	109.074	-0.71280	0.62106	0.01501	-0.32541	30.4	13111	100
2025-3-27 20:28:47.395	WT901BLE68-01(48591DE3C19B)	-0.404	-0.802	0.199	31.250	57.312	-12.756	-75.67	22.68	29.28	-62.132	-30.772	109.074	-0.71280	0.62106	0.01501	-0.32541	30.4	13111	100
2025-3-27 20:28:47.395	WT901BLE68-01(48591DE3C19B)	-0.404	-0.793	0.224	36.804	56.152	-17.639	-75.60	22.66	28.64	-62.132	-30.772	109.074	-0.71280	0.62106	0.01501	-0.32541	30.4	13111	100
2025-3-27 20:28:47.395	WT901BLE68-01(48591DE3C19B)	-0.410	-0.793	0.224	36.804	56.152	-17.639	-75.50	22.62	28.00	-62.132	-30.772	109.074	-0.71280	0.62106	0.01501	-0.32541	30.4	13111	100
2025-3-27 20:28:47.456	WT901BLE68-01(48591DE3C19B)	-0.410	-0.795	0.224	41.199	63.354	-19.165	-75.39	22.59	27.33	-62.132	-30.772	109.074	-0.71280	0.62106	0.01501	-0.32541	30.4	13111	100
2025-3-27 20:28:47.456	WT901BLE68-01(48591DE3C19B)	-0.404	-0.795	0.224	41.199	63.354	-19.165	-75.27	22.57	26.61	-62.132	-30.772	109.074	-0.71280	0.62106	0.01501	-0.32541	30.4	13111	100
2025-3-27 20:28:47.456	WT901BLE68-01(48591DE3C19B)	-0.404	-0.842	0.188	40.283	76.233	-19.836	-75.18	22.55	25.83	-62.132	-30.772	109.074	-0.71280	0.62106	0.01501	-0.32541	30.4	13111	100
2025-3-27 20:28:47.456	WT901BLE68-01(48591DE3C19B)	-0.430	-0.842	0.188	40.283	76.233	-19.836	-75.12	22.57	24.98	-62.132	-30.772	109.074	-0.71280	0.62106	0.01501	-0.32541	30.4	13111	100
2025-3-27 20:28:47.518	WT901BLE68-01(48591DE3C19B)	-0.430	-0.916	0.192	35.156	89.539	-20.569	-75.11	22.59	24.05	-62.132	-30.772	109.074	-0.71280	0.62106	0.01501	-0.32541	30.4	13111	100
2025-3-27 20:28:47.518	WT901BLE68-01(48591DE3C19B)	-0.532	-0.916	0.192	35.156	89.539	-20.569	-75.16	22.62	23.06	-62.132	-30.772	109.074	-0.71280	0.62106	0.01501	-0.32541	30.4	13111	100
2025-3-27 20:28:47.518	WT901BLE68-01(48591DE3C19B)	-0.532	-0.956	0.285	28.870	96.497	-19.958	-75.25	22.67	22.03	-62.132	-30.772	109.074	-0.71280	0.62106	0.01501	-0.32541	30.4	13111	100
2025-3-27 20:28:47.518	WT901BLE68-01(48591DE3C19B)	-0.602	-0.956	0.285	28.870	96.497	-19.958	-75.39	22.73	20.96	-62.132	-30.772	109.074	-0.71280	0.62106	0.01501	-0.32541	30.4	13111	100
2025-3-27 20:28:47.519	WT901BLE68-01(48591DE3C19B)	-0.602	-0.865	0.387	14.465	89.661	-17.029	-75.57	22.80	19.93	-62.132	-30.772	109.074	-0.71280	0.62106	0.01501	-0.32541	30.4	13111	100
2025-3-27 20:28:47.519	WT901BLE68-01(48591DE3C19B)	-0.666	-0.865	0.387	14.465	89.661	-17.029	-75.81	22.87	18.95	-62.132	-30.772	109.074	-0.71280	0.62106	0.01501	-0.32541	30.4	13111	100
2025-3-27 20:28:47.519	WT901BLE68-01(48591DE3C19B)	-0.666	-0.908	0.420	-7.996	71.228	-16.113	-76.19	22.91	18.15	-62.132	-30.772	109.074	-0.71280	0.62106	0.01501	-0.32541	30.4	13111	100
2025-3-27 20:28:47.519	WT901BLE68-01(48591DE3C19B)	-0.767	-0.908	0.420	-7.996	71.228	-16.113	-76.56	22.95	17.36	-62.132	-30.772	109.074	-0.71280	0.62106	0.01501	-0.32541	30.4	13111	100
2025-3-27 20:28:47.545	WT901BLE68-01(48591DE3C19B)	-0.767	-1.020	0.442	-21.179	40.710	-17.151	-76.93	22.91	16.89	-62.132	-30.772	109.074	-0.71280	0.62106	0.01501	-0.32541	30.4	13111	100
2025-3-27 20:28:47.546	WT901BLE68-01(48591DE3C19B)	-1.641	-1.020	0.442	-21.179	40.710	-17.151	-77.29	22.87	16.41	-62.132	-30.772	109.074	-0.71280	0.62106	0.01501	-0.32541	30.4	13111	100
2025-3-27 20:28:47.546	WT901BLE68-01(48591DE3C19B)	-6.565	-2.102	0.927	-31.860	-7.996	-17.578	-77.56	22.73	16.45	-84.476	-21.462	105.056	-0.71280	0.62106	0.01501	-0.32541	30.4	13111	100
2025-3-27 20:28:47.546	WT901BLE68-01(48591DE3C19B)	-0.750	-8.408	3.707	-31.860	-7.996	-17.578	-77.81	22.59	16.49	-84.476	-21.462	105.056	-0.71280	0.62106	0.01501	-0.32541	30.4	13111	100
2025-3-27 20:28:47.606	WT901BLE68-01(48591DE3C19B)	-0.750	-1.024	0.448	-34.485	-53.223	-14.282	-77.90	22.40	17.01	-84.476	-21.462	105.056	-0.71280	0.62106	0.01501	-0.32541	30.4	13111	100
2025-3-27 20:28:47.606	WT901BLE68-01(48591DE3C19B)	-0.638	-1.024	0.448	-34.485	-53.223	-14.282	-77.99	22.21	17.54	-84.476	-21.462	105.056	-0.71280	0.62106	0.01501	-0.32541	30.4	13111	100
2025-3-27 20:28:47.606	WT901BLE68-01(48591DE3C19B)	-0.638	-0.939	0.418	-29.663	-76.111	-5.859	-77.94	22.06	18.32	-84.476	-21.462	105.056	-0.71280	0.62106	0.01501	-0.32541	30.4	13111	100
2025-3-27 20:28:47.606	WT901BLE68-01(48591DE3C19B)	-0.518	-0.939	0.418	-29.663	-76.111	-5.859	-77.88	21.91	19.11	-84.476	-21.462	105.056	-0.71280	0.62106	0.01501	-0.32541	30.4	13111	100
2025-3-27 20:28:47.635	WT901BLE68-01(48591DE3C19B)	-0.518	-0.885	0.363	-22.949	-80.994	3.235	-77.73	21.84	19.96	-84.476	-21.462	105.056	-0.71280	0.62106	0.01501	-0.32541	30.4	13111	100
2025-3-27 20:28:47.635	WT901BLE68-01(48591DE3C19B)	-0.374	-0.885	0.363	-22.949	-80.994	3.235	-77.59	21.76	20.81	-84.476	-21.462	105.056	-0.71280	0.62106	0.01501	-0.32541	30.4	13111	100
2025-3-27 20:28:47.635	WT901BLE68-01(48591DE3C19B)	-0.374	-0.891	0.303	-11.658	-60.852	7.813	-77.41	21.76	21.47	-84.476	-21.462	105.056	-0.71280	0.62106	0.01501	-0.32541	30.4	13111	100
2025-3-27 20:28:47.635	WT901BLE68-01(48591DE3C19B)	-0.338	-0.891	0.303	-11.658	-60.852	7.813	-77.23	21.76	22.12	-84.476	-21.462	105.056	-0.71280	0.62106	0.01501	-0.32541	30.4	13111	100
2025-3-27 20:28:47.668	WT901BLE68-01(48591DE3C19B)	-0.338	-0.854	0.277	3.418	-26.978	10.193	-77.04	21.85	22.42	-84.476	-21.462	105.056	-0.71280	0.62106	0.01501	-0.32541	30.4	13111	100
2025-3-27 20:28:47.668	WT901BLE68-01(48591DE3C19B)	-0.383	-0.854	0.277	3.418	-26.978	10.193	-76.84	21.93	22.73	-84.476	-21.462	105.056	-0.71280	0.62106	0.01501	-0.32541	30.4	13111	100
2025-3-27 20:28:47.668	WT901BLE68-01(48591DE3C19B)	-0.383	-0.791	0.260	10.132	-2.686	8.057	-76.67	22.05	22.77	-84.476	-21.462	105.056	-0.71280	0.62106	0.01501	-0.32541	30.4	13111	100
2025-3-27 20:28:47.668	WT901BLE68-01(48591DE3C19B)	-0.438	-0.791	0.260	10.132	-2.686	8.057	-76.51	22.16	22.82	-84.476	-21.462	105.056	-0.71280	0.62106	0.01501	-0.32541	30.4	13111	100
2025-3-27 20:28:47.725	WT901BLE68-01(48591DE3C19B)	-0.438	-0.801	0.261	10.803	10.437	3.601	-76.40	22.26	22.72	-84.476	-21.462	105.056	-0.71280	0.62106	0.01501	-0.32541	30.4	13111	100
2025-3-27 20:28:47.725	WT901BLE68-01(48591DE3C19B)	-0.488	-0.801	0.261	10.803	10.437	3.601	-76.29	22.36	22.62	-84.476	-21.462	105.056	-0.71280	0.62106	0.01501	-0.32541	30.4	13111	100
2025-3-27 20:28:47.726	WT901BLE68-01(48591DE3C19B)	-0.488	-0.790	0.274	12.939	14.771	1.282	-76.18	22.45	22.47	-84.476	-21.462	105.056	-0.71280	0.62106	0.01501	-0.32541	30.4	13111	100
2025-3-27 20:28:47.726	WT901BLE68-01(48591DE3C19B)	-0.514	-0.790	0.274	12.939	14.771	1.282	-76.08	22.53	22.31	-84.476	-21.462	105.056	-0.71280	0.62106	0.01501	-0.32541	30.4	13111	100
2025-3-27 20:28:47.757	WT901BLE68-01(48591DE3C19B)	-0.514	-0.729	0.262	9.033	6.836	1.648	-75.98	22.60	22.24	-84.476	-21.462	105.056	-0.73526	0.62170	-0.03564	-0.26740	30.4	13111	100
2025-3-27 20:28:47.757	WT901BLE68-01(48591DE3C19B)	-0.497	-0.729	0.262	9.033	6.836	1.648	-75.88	22.68	22.18	-84.476	-21.462	105.056	-0.73526	0.62170	-0.03564	-0.26740	30.4	13111	100
2025-3-27 20:28:47.757	WT901BLE68-01(48591DE3C19B)	-0.497	-0.710	0.229	1.587	-6.470	3.784	-75.80	22.74	22.25	-84.476	-21.462	105.056	-0.73526	0.62170	-0.03564	-0.26740	30.4	13111	100
2025-3-27 20:28:47.757	WT901BLE68-01(48591DE3C19B)	-0.491	-0.710	0.229	1.587	-6.470	3.784	-75.72	22.81	22.33	-84.476	-21.462	105.056	-0.73526	0.62170	-0.03564	-0.26740	30.4	13111	100
2025-3-27 20:28:47.787	WT901BLE68-01(48591DE3C19B)	-0.491	-0.721	0.206	-5.066	-19.470	6.165	-75.66	22.86	22.55	-84.476	-21.462	105.056	-0.73526	0.62170	-0.03564	-0.26740	30.4	13111	100
2025-3-27 20:28:47.788	WT901BLE68-01(48591DE3C19B)	-0.471	-0.721	0.206	-5.066	-19.470	6.165	-75.60	22.92	22.77	-84.476	-21.462	105.056	-0.73526	0.62170	-0.03564	-0.26740	30.4	13111	100
2025-3-27 20:28:47.788	WT901BLE68-01(48591DE3C19B)	-0.471	-0.675	0.216	-10.681	-31.677	11.902	-75.53	23.01	23.14	-84.476	-21.462	105.056	-0.73526	0.62170	-0.03564	-0.26740	30.4	13111	100
2025-3-27 20:28:47.788	WT901BLE68-01(48591DE3C19B)	-0.426	-0.675	0.216	-10.681	-31.677	11.902	-75.47	23.09	23.50	-84.476	-21.462	105.056	-0.73526	0.62170	-0.03564	-0.26740	30.4	13111	100
2025-3-27 20:28:47.845	WT901BLE68-01(48591DE3C19B)	-0.426	-0.565	0.235	-15.015	-45.349	22.827	-75.38	23.25	24.04	-84.476	-21.462	105.056	-0.73526	0.62170	-0.03564	-0.26740	30.4	13111	100
2025-3-27 20:28:47.845	WT901BLE68-01(48591DE3C19B)	-0.391	-0.565	0.235	-15.015	-45.349	22.827	-75.29	23.40	24.58	-84.476	-21.462	105.056	-0.73526	0.62170	-0.03564	-0.26740	30.4	13111	100
2025-3-27 20:28:47.845	WT901BLE68-01(48591DE3C19B)	-0.391	-0.440	0.237	-20.630	-59.326	38.757	-75.17	23.68	25.32	-84.476	-21.462	105.056	-0.73526	0.62170	-0.03564	-0.26740	30.4	13111	100
2025-3-27 20:28:47.845	WT901BLE68-01(48591DE3C19B)	-0.386	-0.440	0.237	-20.630	-59.326	38.757	-75.05	23.95	26.05	-84.476	-21.462	105.056	-0.73526	0.62170	-0.03564	-0.26740	30.4	13111	100
2025-3-27 20:28:47.874	WT901BLE68-01(48591DE3C19B)	-0.386	-0.351	0.191	-29.846	-79.407	58.533	-74.90	24.36	27.06	-84.476	-21.462	105.056	-0.73526	0.62170	-0.03564	-0.26740	30.4	13111	100
2025-3-27 20:28:47.874	WT901BLE68-01(48591DE3C19B)	-0.341	-0.351	0.191	-29.846	-79.407	58.533	-74.75	24.78	28.07	-84.476	-21.462	105.056	-0.73526	0.62170	-0.03564	-0.26740	30.4	13111	100
2025-3-27 20:28:47.874	WT901BLE68-01(48591DE3C19B)	-0.341	-0.414	0.151	-46.326	-101.501	73.242	-74.64	25.27	29.37	-84.476	-21.462	105.056	-0.73526	0.62170	-0.03564	-0.26740	30.4	13111	100
2025-3-27 20:28:47.874	WT901BLE68-01(48591DE3C19B)	-0.278	-0.414	0.151	-46.326	-101.501	73.242	-74.50	25.76	30.67	-84.476	-21.462	105.056	-0.73526	0.62170	-0.03564	-0.26740	30.4	13111	100
2025-3-27 20:28:47.905	WT901BLE68-01(48591DE3C19B)	-0.278	-0.646	0.126	-57.007	-111.328	80.566	-74.42	26.28	32.11	-84.476	-21.462	105.056	-0.73526	0.62170	-0.03564	-0.26740	30.4	13111	100
2025-3-27 20:28:47.906	WT901BLE68-01(48591DE3C19B)	-0.265	-0.646	0.126	-57.007	-111.328	80.566	-74.32	26.80	33.56	-84.476	-21.462	105.056	-0.73526	0.62170	-0.03564	-0.26740	30.4	13111	100
2025-3-27 20:28:47.906	WT901BLE68-01(48591DE3C19B)	-0.265	-0.942	0.111	-56.580	-107.300	73.669	-74.25	27.24	34.95	-84.476	-21.462	105.056	-0.73526	0.62170	-0.03564	-0.26740	30.4	13111	100
2025-3-27 20:28:47.906	WT901BLE68-01(48591DE3C19B)	-0.309	-0.942	0.111	-56.580	-107.300	73.669	-74.17	27.66	36.35	-84.476	-21.462	105.056	-0.73526	0.62170	-0.03564	-0.26740	30.4	13111	100
2025-3-27 20:28:47.967	WT901BLE68-01(48591DE3C19B)	-0.309	-1.299	0.149	-46.204	-100.830	56.396	-74.04	27.93	37.63	-84.476	-21.462	105.056	-0.73526	0.62170	-0.03564	-0.26740	30.4	13111	100
2025-3-27 20:28:47.968	WT901BLE68-01(48591DE3C19B)	-0.341	-1.299	0.149	-46.204	-100.830	56.396	-73.92	28.17	38.91	-63.602	-23.422	106.036	-0.73526	0.62170	-0.03564	-0.26740	30.4	13111	100
2025-3-27 20:28:47.968	WT901BLE68-01(48591DE3C19B)	-0.259	-1.631	0.178	-28.870	-84.839	35.828	-73.74	28.25	39.96	-63.602	-23.422	106.036	-0.73526	0.62170	-0.03564	-0.26740	30.4	13111	100
2025-3-27 20:28:47.968	WT901BLE68-01(48591DE3C19B)	-0.259	-1.800	0.144	-4.761	-46.265	10.559	-73.57	28.24	40.75	-63.602	-23.422	106.036	-0.73526	0.62170	-0.03564	-0.26740	30.4	13111	100
2025-3-27 20:28:47.995	WT901BLE68-01(48591DE3C19B)	-0.289	-1.800	0.144	-4.761	-46.265	10.559	-73.40	28.16	41.29	-63.602	-23.422	106.036	-0.73526	0.62170	-0.03564	-0.26740	30.4	13111	100
2025-3-27 20:28:47.995	WT901BLE68-01(48591DE3C19B)	-0.289	-1.676	0.102	19.287	8.606	3.906	-73.27	28.11	41.52	-63.602	-23.422	106.036	-0.73526	0.62170	-0.03564	-0.26740	30.4	13111	100
2025-3-27 20:28:47.995	WT901BLE68-01(48591DE3C19B)	-0.307	-1.676	0.102	19.287	8.606	3.906	-73.16	28.10	41.45	-63.602	-23.422	106.036	-0.73526	0.62170	-0.03564	-0.26740	30.4	13111	100
2025-3-27 20:28:47.995	WT901BLE68-01(48591DE3C19B)	-0.307	-1.494	0.051	33.630	48.767	-2.197	-73.10	28.11	41.14	-63.602	-23.422	106.036	-0.73526	0.62170	-0.03564	-0.26740	30.4	13111	100
2025-3-27 20:28:48.24	WT901BLE68-01(48591DE3C19B)	-0.227	-1.494	0.051	33.630	48.767	-2.197	-73.08	28.16	40.60	-63.602	-23.422	106.036	-0.73526	0.62170	-0.03564	-0.26740	30.4	13111	100
2025-3-27 20:28:48.24	WT901BLE68-01(48591DE3C19B)	-0.227	-1.269	0.047	42.175	74.585	-2.441	-73.09	28.23	39.92	-63.602	-23.422	106.036	-0.73526	0.62170	-0.03564	-0.26740	30.4	13111	100
2025-3-27 20:28:48.24	WT901BLE68-01(48591DE3C19B)	-0.184	-1.269	0.047	42.175	74.585	-2.441	-73.13	28.34	39.11	-63.602	-23.422	106.036	-0.73526	0.62170	-0.03564	-0.26740	30.4	13111	100
2025-3-27 20:28:48.24	WT901BLE68-01(48591DE3C19B)	-0.184	-1.021	0.072	40.161	91.003	0.244	-73.21	28.48	38.20	-63.602	-23.422	106.036	-0.73526	0.62170	-0.03564	-0.26740	30.4	13111	100
2025-3-27 20:28:48.85	WT901BLE68-01(48591DE3C19B)	-0.230	-1.021	0.072	40.161	91.003	0.244	-73.36	28.66	37.21	-63.602	-23.422	106.036	-0.73526	0.62170	-0.03564	-0.26740	30.4	13111	100
2025-3-27 20:28:48.85	WT901BLE68-01(48591DE3C19B)	-0.230	-0.881	0.103	30.701	93.567	-2.808	-73.56	28.82	36.19	-63.602	-23.422	106.036	-0.73526	0.62170	-0.03564	-0.26740	30.4	13111	100
2025-3-27 20:28:48.85	WT901BLE68-01(48591DE3C19B)	-0.314	-0.881	0.103	30.701	93.567	-2.808	-73.82	28.96	35.16	-63.602	-23.422	106.036	-0.73526	0.62170	-0.03564	-0.26740	30.4	13111	100
2025-3-27 20:28:48.85	WT901BLE68-01(48591DE3C19B)	-0.314	-0.790	0.120	24.719	82.397	-10.071	-74.09	29.05	34.17	-63.602	-23.422	106.036	-0.73526	0.62170	-0.03564	-0.26740	30.4	13111	100
2025-3-27 20:28:48.145	WT901BLE68-01(48591DE3C19B)	-0.356	-0.790	0.120	24.719	82.397	-10.071	-74.36	29.09	33.24	-63.602	-23.422	106.036	-0.73526	0.62170	-0.03564	-0.26740	30.4	13111	100
2025-3-27 20:28:48.145	WT901BLE68-01(48591DE3C19B)	-0.356	-0.677	0.140	22.339	65.186	-16.052	-74.59	29.07	32.39	-63.602	-23.422	106.036	-0.73526	0.62170	-0.03564	-0.26740	30.4	13111	100
2025-3-27 20:28:48.145	WT901BLE68-01(48591DE3C19B)	-0.335	-0.677	0.140	22.339	65.186	-16.052	-74.79	29.01	31.63	-63.602	-23.422	106.036	-0.73526	0.62170	-0.03564	-0.26740	30.4	13111	100
2025-3-27 20:28:48.145	WT901BLE68-01(48591DE3C19B)	-0.335	-0.571	0.159	19.043	49.194	-19.226	-74.97	28.91	30.95	-63.602	-23.422	106.036	-0.73526	0.62170	-0.03564	-0.26740	30.4	13111	100
2025-3-27 20:28:48.146	WT901BLE68-01(48591DE3C19B)	-0.321	-0.571	0.159	19.043	49.194	-19.226	-75.11	28.78	30.36	-63.602	-23.422	106.036	-0.73526	0.62170	-0.03564	-0.26740	30.4	13111	100
2025-3-27 20:28:48.146	WT901BLE68-01(48591DE3C19B)	-0.321	-0.546	0.174	18.005	40.649	-19.714	-75.24	28.65	29.82	-63.602	-23.422	106.036	-0.73526	0.62170	-0.03564	-0.26740	30.4	13111	100
2025-3-27 20:28:48.146	WT901BLE68-01(48591DE3C19B)	-0.358	-0.546	0.174	18.005	40.649	-19.714	-75.34	28.50	29.32	-63.602	-23.422	106.036	-0.70407	0.62231	-0.03860	-0.33972	30.4	13111	100
2025-3-27 20:28:48.146	WT901BLE68-01(48591DE3C19B)	-0.358	-0.523	0.202	24.048	28.503	-17.761	-75.37	28.36	28.90	-63.602	-23.422	106.036	-0.70407	0.62231	-0.03860	-0.33972	30.4	13111	100
2025-3-27 20:28:48.235	WT901BLE68-01(48591DE3C19B)	-0.394	-0.523	0.202	24.048	28.503	-17.761	-75.33	28.21	28.54	-63.602	-23.422	106.036	-0.70407	0.62231	-0.03860	-0.33972	30.4	13111	100
2025-3-27 20:28:48.235	WT901BLE68-01(48591DE3C19B)	-0.394	-0.465	0.218	29.053	13.062	-11.780	-75.21	28.08	28.28	-63.602	-23.422	106.036	-0.70407	0.62231	-0.03860	-0.33972	30.4	13111	100
2025-3-27 20:28:48.235	WT901BLE68-01(48591DE3C19B)	-0.348	-0.465	0.218	29.053	13.062	-11.780	-75.03	27.97	28.12	-63.602	-23.422	106.036	-0.70407	0.62231	-0.03860	-0.33972	30.4	13111	100
2025-3-27 20:28:48.235	WT901BLE68-01(48591DE3C19B)	-0.348	-0.394	0.207	31.067	3.479	-0.366	-74.79	27.91	28.03	-63.602	-23.422	106.036	-0.70407	0.62231	-0.03860	-0.33972	30.4	13111	100
2025-3-27 20:28:48.236	WT901BLE68-01(48591DE3C19B)	-0.305	-0.394	0.207	31.067	3.479	-0.366	-74.51	27.90	28.00	-63.602	-23.422	106.036	-0.70407	0.62231	-0.03860	-0.33972	30.4	13111	100
2025-3-27 20:28:48.236	WT901BLE68-01(48591DE3C19B)	-0.305	-0.389	0.184	31.006	10.376	14.099	-74.23	27.97	27.96	-63.602	-23.422	106.036	-0.70407	0.62231	-0.03860	-0.33972	30.4	13111	100
2025-3-27 20:28:48.236	WT901BLE68-01(48591DE3C19B)	-0.322	-0.389	0.184	31.006	10.376	14.099	-73.96	28.13	27.91	-63.602	-23.422	106.036	-0.70407	0.62231	-0.03860	-0.33972	30.4	13111	100
2025-3-27 20:28:48.236	WT901BLE68-01(48591DE3C19B)	-0.322	-0.501	0.160	29.297	27.710	26.428	-73.73	28.37	27.77	-63.602	-23.422	106.036	-0.70407	0.62231	-0.03860	-0.33972	30.4	13111	100
2025-3-27 20:28:48.295	WT901BLE68-01(48591DE3C19B)	-0.367	-0.501	0.160	29.297	27.710	26.428	-73.54	28.70	27.57	-63.602	-23.422	106.036	-0.70407	0.62231	-0.03860	-0.33972	30.4	13111	100
2025-3-27 20:28:48.295	WT901BLE68-01(48591DE3C19B)	-0.367	-0.656	0.139	24.536	47.424	27.954	-73.44	29.06	27.26	-63.602	-23.422	106.036	-0.70407	0.62231	-0.03860	-0.33972	30.4	13111	100
2025-3-27 20:28:48.295	WT901BLE68-01(48591DE3C19B)	-0.498	-0.656	0.139	24.536	47.424	27.954	-73.41	29.45	26.84	-63.602	-23.422	106.036	-0.70407	0.62231	-0.03860	-0.33972	30.4	13111	100
2025-3-27 20:28:48.295	WT901BLE68-01(48591DE3C19B)	-0.498	-0.922	0.175	15.686	62.134	9.521	-73.48	29.78	26.31	-63.602	-23.422	106.036	-0.70407	0.62231	-0.03860	-0.33972	30.4	13111	100
2025-3-27 20:28:48.325	WT901BLE68-01(48591DE3C19B)	-0.692	-0.922	0.175	15.686	62.134	9.521	-73.67	30.03	25.67	-63.602	-23.422	106.036	-0.70407	0.62231	-0.03860	-0.33972	30.4	13111	100
2025-3-27 20:28:48.325	WT901BLE68-01(48591DE3C19B)	-0.692	-1.275	0.339	17.395	65.125	-22.400	-73.88	30.14	24.95	-63.602	-23.422	106.036	-0.70407	0.62231	-0.03860	-0.33972	30.4	13111	100
2025-3-27 20:28:48.326	WT901BLE68-01(48591DE3C19B)	-0.810	-1.275	0.339	17.395	65.125	-22.400	-74.11	30.09	24.17	-63.602	-23.422	106.036	-0.70407	0.62231	-0.03860	-0.33972	30.4	13111	100
2025-3-27 20:28:48.326	WT901BLE68-01(48591DE3C19B)	-0.810	-1.351	0.509	20.874	64.087	-54.504	-74.35	29.88	23.35	-63.602	-23.422	106.036	-0.70407	0.62231	-0.03860	-0.33972	30.4	13111	100
2025-3-27 20:28:48.415	WT901BLE68-01(48591DE3C19B)	-0.944	-1.351	0.509	20.874	64.087	-54.504	-74.58	29.52	22.48	-63.602	-23.422	106.036	-0.70407	0.62231	-0.03860	-0.33972	30.4	13111	100
2025-3-27 20:28:48.415	WT901BLE68-01(48591DE3C19B)	-0.944	-1.297	0.505	18.372	83.252	-65.369	-74.86	29.13	21.49	-63.602	-23.422	106.036	-0.70407	0.62231	-0.03860	-0.33972	30.4	13111	100
2025-3-27 20:28:48.415	WT901BLE68-01(48591DE3C19B)	-0.972	-1.297	0.505	18.372	83.252	-65.369	-75.20	28.72	20.40	-63.602	-23.422	106.036	-0.70407	0.62231	-0.03860	-0.33972	30.4	13111	100
2025-3-27 20:28:48.415	WT901BLE68-01(48591DE3C19B)	-0.972	-1.124	0.391	23.926	96.619	-65.369	-75.54	28.32	19.23	-77.126	-13.132	99.862	-0.70407	0.62231	-0.03860	-0.33972	30.4	13111	100
2025-3-27 20:28:48.416	WT901BLE68-01(48591DE3C19B)	-0.888	-1.124	0.391	23.926	96.619	-65.369	-75.86	27.94	17.73	-77.126	-13.132	99.862	-0.70407	0.62231	-0.03860	-0.33972	30.4	13111	100
2025-3-27 20:28:48.416	WT901BLE68-01(48591DE3C19B)	-0.888	-0.905	0.292	15.808	71.899	-58.594	-76.13	27.56	16.39	-77.126	-13.132	99.862	-0.70407	0.62231	-0.03860	-0.33972	30.4	13111	100
2025-3-27 20:28:48.416	WT901BLE68-01(48591DE3C19B)	-0.825	-0.905	0.292	15.808	71.899	-58.594	-76.37	27.19	15.21	-77.126	-13.132	99.862	-0.70407	0.62231	-0.03860	-0.33972	30.4	13111	100
2025-3-27 20:28:48.416	WT901BLE68-01(48591DE3C19B)	-0.825	-0.792	0.233	1.160	30.762	-51.147	-76.56	26.81	14.28	-77.126	-13.132	99.862	-0.70407	0.62231	-0.03860	-0.33972	30.4	13111	100
2025-3-27 20:28:48.444	WT901BLE68-01(48591DE3C19B)	-0.832	-0.792	0.233	1.160	30.762	-51.147	-76.72	26.43	13.60	-77.126	-13.132	99.862	-0.70407	0.62231	-0.03860	-0.33972	30.4	13111	100
2025-3-27 20:28:48.444	WT901BLE68-01(48591DE3C19B)	-0.832	-0.789	0.246	-14.404	-14.893	-45.105	-76.79	26.00	13.43	-77.126	-13.132	99.862	-0.70407	0.62231	-0.03860	-0.33972	30.4	13111	100
2025-3-27 20:28:48.444	WT901BLE68-01(48591DE3C19B)	-0.700	-0.789	0.246	-14.404	-14.893	-45.105	-76.87	25.59	13.26	-77.126	-13.132	99.862	-0.70407	0.62231	-0.03860	-0.33972	30.4	13111	100
2025-3-27 20:28:48.444	WT901BLE68-01(48591DE3C19B)	-0.700	-0.784	0.280	-23.804	-45.044	-37.292	-76.89	25.19	13.44	-77.126	-13.132	99.862	-0.70407	0.62231	-0.03860	-0.33972	30.4	13111	100
2025-3-27 20:28:48.506	WT901BLE68-01(48591DE3C19B)	-0.526	-0.784	0.280	-23.804	-45.044	-37.292	-76.91	24.79	13.62	-77.126	-13.132	99.862	-0.70407	0.62231	-0.03860	-0.33972	30.4	13111	100
2025-3-27 20:28:48.506	WT901BLE68-01(48591DE3C19B)	-0.526	-0.688	0.305	-22.217	-47.119	-28.015	-76.90	24.47	13.85	-77.126	-13.132	99.862	-0.70407	0.62231	-0.03860	-0.33972	30.4	13111	100
2025-3-27 20:28:48.506	WT901BLE68-01(48591DE3C19B)	-0.393	-0.688	0.305	-22.217	-47.119	-28.015	-76.88	24.16	14.07	-77.126	-13.132	99.862	-0.70407	0.62231	-0.03860	-0.33972	30.4	13111	100
2025-3-27 20:28:48.506	WT901BLE68-01(48591DE3C19B)	-0.393	-0.568	0.299	-20.874	-33.936	-20.081	-76.90	23.95	14.17	-77.126	-13.132	99.862	-0.70407	0.62231	-0.03860	-0.33972	30.4	13111	100
2025-3-27 20:28:48.506	WT901BLE68-01(48591DE3C19B)	-0.375	-0.568	0.299	-20.874	-33.936	-20.081	-76.92	23.74	14.27	-77.126	-13.132	99.862	-0.70407	0.62231	-0.03860	-0.33972	30.4	13111	100
2025-3-27 20:28:48.507	WT901BLE68-01(48591DE3C19B)	-0.375	-0.488	0.287	-17.883	-15.991	-12.878	-76.98	23.64	14.20	-77.126	-13.132	99.862	-0.70407	0.62231	-0.03860	-0.33972	30.4	13111	100
2025-3-27 20:28:48.507	WT901BLE68-01(48591DE3C19B)	-0.370	-0.488	0.287	-17.883	-15.991	-12.878	-77.03	23.54	14.12	-77.126	-13.132	99.862	-0.70407	0.62231	-0.03860	-0.33972	30.4	13111	100
2025-3-27 20:28:48.507	WT901BLE68-01(48591DE3C19B)	-0.370	-0.364	0.271	-15.564	-7.202	-4.089	-77.08	23.54	13.99	-77.126	-13.132	99.862	-0.70407	0.62231	-0.03860	-0.33972	30.4	13111	100
2025-3-27 20:28:48.567	WT901BLE68-01(48591DE3C19B)	-0.287	-0.364	0.271	-15.564	-7.202	-4.089	-77.13	23.54	13.84	-77.126	-13.132	99.862	-0.70407	0.62231	-0.03860	-0.33972	30.4	13111	100
2025-3-27 20:28:48.567	WT901BLE68-01(48591DE3C19B)	-0.287	-0.215	0.213	-20.142	-5.920	10.315	-77.21	23.69	13.73	-77.126	-13.132	99.862	-0.74396	0.62546	-0.08624	-0.21860	30.4	13111	100
2025-3-27 20:28:48.567	WT901BLE68-01(48591DE3C19B)	-0.240	-0.215	0.213	-20.142	-5.920	10.315	-77.28	23.84	13.62	-77.126	-13.132	99.862	-0.74396	0.62546	-0.08624	-0.21860	30.4	13111	100
2025-3-27 20:28:48.567	WT901BLE68-01(48591DE3C19B)	-0.120	-0.171	0.116	-32.471	-5.188	23.560	-77.47	24.11	13.55	-77.126	-13.132	99.862	-0.74396	0.62546	-0.08624	-0.21860	30.4	13111	100
2025-3-27 20:28:48.595	WT901BLE68-01(48591DE3C19B)	-0.285	-0.085	0.058	-32.471	-5.188	23.560	-77.65	24.40	13.47	-77.126	-13.132	99.862	-0.74396	0.62546	-0.08624	-0.21860	30.4	13111	100
2025-3-27 20:28:48.595	WT901BLE68-01(48591DE3C19B)	-0.285	-0.342	0.061	-49.377	-15.686	29.602	-77.95	24.71	13.52	-77.126	-13.132	99.862	-0.74396	0.62546	-0.08624	-0.21860	30.4	13111	100
2025-3-27 20:28:48.595	WT901BLE68-01(48591DE3C19B)	-0.369	-0.342	0.061	-49.377	-15.686	29.602	-78.26	25.03	13.57	-77.126	-13.132	99.862	-0.74396	0.62546	-0.08624	-0.21860	30.4	13111	100
2025-3-27 20:28:48.595	WT901BLE68-01(48591DE3C19B)	-0.369	-0.669	0.063	-57.495	-39.978	30.701	-78.54	25.31	13.89	-77.126	-13.132	99.862	-0.74396	0.62546	-0.08624	-0.21860	30.4	13111	100
2025-3-27 20:28:48.686	WT901BLE68-01(48591DE3C19B)	-0.426	-0.669	0.063	-57.495	-39.978	30.701	-78.83	25.59	14.22	-77.126	-13.132	99.862	-0.74396	0.62546	-0.08624	-0.21860	30.4	13111	100
2025-3-27 20:28:48.686	WT901BLE68-01(48591DE3C19B)	-0.426	-1.061	0.054	-56.152	-68.176	21.118	-79.00	25.71	14.83	-77.126	-13.132	99.862	-0.74396	0.62546	-0.08624	-0.21860	30.4	13111	100
2025-3-27 20:28:48.686	WT901BLE68-01(48591DE3C19B)	-0.428	-1.061	0.054	-56.152	-68.176	21.118	-79.18	25.83	15.44	-77.126	-13.132	99.862	-0.74396	0.62546	-0.08624	-0.21860	30.4	13111	100
2025-3-27 20:28:48.686	WT901BLE68-01(48591DE3C19B)	-0.428	-1.679	0.083	-43.335	-78.369	-5.859	-79.24	25.65	16.11	-77.126	-13.132	99.862	-0.74396	0.62546	-0.08624	-0.21860	30.4	13111	100
2025-3-27 20:28:48.687	WT901BLE68-01(48591DE3C19B)	-0.451	-1.679	0.083	-43.335	-78.369	-5.859	-79.30	25.46	16.77	-77.126	-13.132	99.862	-0.74396	0.62546	-0.08624	-0.21860	30.4	13111	100
2025-3-27 20:28:48.687	WT901BLE68-01(48591DE3C19B)	-0.451	-2.280	0.060	-16.785	-63.293	-34.424	-79.22	25.00	17.21	-77.126	-13.132	99.862	-0.74396	0.62546	-0.08624	-0.21860	30.4	13111	100
2025-3-27 20:28:48.687	WT901BLE68-01(48591DE3C19B)	-0.460	-2.280	0.060	-16.785	-63.293	-34.424	-79.16	24.53	17.64	-77.126	-13.132	99.862	-0.74396	0.62546	-0.08624	-0.21860	30.4	13111	100
2025-3-27 20:28:48.687	WT901BLE68-01(48591DE3C19B)	-0.460	-2.084	0.084	19.897	-32.654	-27.039	-78.88	24.18	17.76	-77.126	-13.132	99.862	-0.74396	0.62546	-0.08624	-0.21860	30.4	13111	100
2025-3-27 20:28:48.715	WT901BLE68-01(48591DE3C19B)	-0.378	-2.084	0.084	19.897	-32.654	-27.039	-78.60	23.83	17.87	-77.126	-13.132	99.862	-0.74396	0.62546	-0.08624	-0.21860	30.4	13111	100
2025-3-27 20:28:48.716	WT901BLE68-01(48591DE3C19B)	-0.378	-1.554	0.111	28.076	1.343	-21.118	-78.39	23.60	17.64	-77.126	-13.132	99.862	-0.74396	0.62546	-0.08624	-0.21860	30.4	13111	100
2025-3-27 20:28:48.716	WT901BLE68-01(48591DE3C19B)	-0.207	-1.554	0.111	28.076	1.343	-21.118	-78.18	23.38	17.40	-77.126	-13.132	99.862	-0.74396	0.62546	-0.08624	-0.21860	30.4	13111	100
2025-3-27 20:28:48.716	WT901BLE68-01(48591DE3C19B)	-0.207	-1.223	0.153	28.748	39.368	-2.869	-78.12	23.40	16.80	-77.126	-13.132	99.862	-0.74396	0.62546	-0.08624	-0.21860	30.4	13111	100
2025-3-27 20:28:48.774	WT901BLE68-01(48591DE3C19B)	-0.156	-1.223	0.153	28.748	39.368	-2.869	-78.05	23.42	16.20	-77.126	-13.132	99.862	-0.74396	0.62546	-0.08624	-0.21860	30.4	13111	100
2025-3-27 20:28:48.774	WT901BLE68-01(48591DE3C19B)	-0.156	-0.817	0.172	22.156	58.838	17.578	-78.11	23.68	15.44	-72.128	-18.816	99.666	-0.74396	0.62546	-0.08624	-0.21860	30.4	13111	100
2025-3-27 20:28:48.774	WT901BLE68-01(48591DE3C19B)	-0.172	-0.817	0.172	22.156	58.838	17.578	-78.17	23.93	14.67	-72.128	-18.816	99.666	-0.74396	0.62546	-0.08624	-0.21860	30.4	13111	100
2025-3-27 20:28:48.775	WT901BLE68-01(48591DE3C19B)	-0.172	-0.671	0.159	-2.563	50.232	21.362	-78.45	24.20	14.01	-72.128	-18.816	99.666	-0.74396	0.62546	-0.08624	-0.21860	30.4	13111	100
2025-3-27 20:28:48.805	WT901BLE68-01(48591DE3C19B)	-0.266	-0.671	0.159	-2.563	50.232	21.362	-78.72	24.46	13.34	-72.128	-18.816	99.666	-0.74396	0.62546	-0.08624	-0.21860	30.4	13111	100
2025-3-27 20:28:48.805	WT901BLE68-01(48591DE3C19B)	-0.266	-0.780	0.169	-8.789	29.907	15.564	-78.96	24.63	12.88	-72.128	-18.816	99.666	-0.74396	0.62546	-0.08624	-0.21860	30.4	13111	100
2025-3-27 20:28:48.805	WT901BLE68-01(48591DE3C19B)	-0.363	-0.780	0.169	-8.789	29.907	15.564	-79.20	24.79	12.42	-72.128	-18.816	99.666	-0.74396	0.62546	-0.08624	-0.21860	30.4	13111	100
2025-3-27 20:28:48.805	WT901BLE68-01(48591DE3C19B)	-0.363	-0.722	0.187	1.221	8.728	13.000	-79.25	24.88	12.18	-72.128	-18.816	99.666	-0.74396	0.62546	-0.08624	-0.21860	30.4	13111	100
2025-3-27 20:28:48.835	WT901BLE68-01(48591DE3C19B)	-0.307	-0.722	0.187	1.221	8.728	13.000	-79.29	24.98	11.95	-72.128	-18.816	99.666	-0.74396	0.62546	-0.08624	-0.21860	30.4	13111	100
2025-3-27 20:28:48.835	WT901BLE68-01(48591DE3C19B)	-0.307	-0.553	0.173	6.775	-3.174	12.695	-79.22	25.06	11.85	-72.128	-18.816	99.666	-0.74396	0.62546	-0.08624	-0.21860	30.4	13111	100
2025-3-27 20:28:48.835	WT901BLE68-01(48591DE3C19B)	-0.222	-0.553	0.173	6.775	-3.174	12.695	-79.14	25.14	11.74	-72.128	-18.816	99.666	-0.74396	0.62546	-0.08624	-0.21860	30.4	13111	100
2025-3-27 20:28:48.835	WT901BLE68-01(48591DE3C19B)	-0.222	-0.418	0.145	15.808	4.456	26.489	-79.00	25.37	11.59	-72.128	-18.816	99.666	-0.74396	0.62546	-0.08624	-0.21860	30.4	13111	100
2025-3-27 20:28:48.895	WT901BLE68-01(48591DE3C19B)	-0.216	-0.418	0.145	15.808	4.456	26.489	-78.85	25.61	11.44	-72.128	-18.816	99.666	-0.74396	0.62546	-0.08624	-0.21860	30.4	13111	100
2025-3-27 20:28:48.896	WT901BLE68-01(48591DE3C19B)	-0.201	-0.294	0.139	22.400	12.146	43.762	-78.65	26.03	11.24	-72.128	-18.816	99.666	-0.74396	0.62546	-0.08624	-0.21860	30.4	13111	100
2025-3-27 20:28:48.896	WT901BLE68-01(48591DE3C19B)	-0.201	-0.279	0.137	15.869	15.015	50.598	-78.49	26.48	11.04	-72.128	-18.816	99.666	-0.74396	0.62546	-0.08624	-0.21860	30.4	13111	100
2025-3-27 20:28:48.896	WT901BLE68-01(48591DE3C19B)	-0.213	-0.279	0.137	15.869	15.015	50.598	-78.35	26.97	10.83	-72.128	-18.816	99.666	-0.74396	0.62546	-0.08624	-0.21860	30.4	13111	100
2025-3-27 20:28:48.926	WT901BLE68-01(48591DE3C19B)	-0.213	-0.471	0.135	6.226	18.005	48.767	-78.28	27.46	10.60	-72.128	-18.816	99.666	-0.74396	0.62546	-0.08624	-0.21860	30.4	13111	100
2025-3-27 20:28:48.926	WT901BLE68-01(48591DE3C19B)	-0.325	-0.471	0.135	6.226	18.005	48.767	-78.26	27.94	10.36	-72.128	-18.816	99.666	-0.74396	0.62546	-0.08624	-0.21860	30.4	13111	100
2025-3-27 20:28:48.926	WT901BLE68-01(48591DE3C19B)	-0.325	-0.704	0.133	7.385	19.043	40.344	-78.23	28.37	10.10	-72.128	-18.816	99.666	-0.74396	0.62546	-0.08624	-0.21860	30.4	13111	100
2025-3-27 20:28:48.926	WT901BLE68-01(48591DE3C19B)	-0.480	-0.704	0.133	7.385	19.043	40.344	-78.22	28.77	9.83	-72.128	-18.816	99.666	-0.74396	0.62546	-0.08624	-0.21860	30.4	13111	100
2025-3-27 20:28:48.955	WT901BLE68-01(48591DE3C19B)	-0.480	-0.948	0.129	8.057	11.230	23.254	-78.20	29.07	9.58	-72.128	-18.816	99.666	-0.74396	0.62546	-0.08624	-0.21860	30.4	13111	100
2025-3-27 20:28:48.955	WT901BLE68-01(48591DE3C19B)	-0.613	-0.948	0.129	8.057	11.230	23.254	-78.16	29.28	9.36	-72.128	-18.816	99.666	-0.74396	0.62546	-0.08624	-0.21860	30.4	13111	100
2025-3-27 20:28:48.955	WT901BLE68-01(48591DE3C19B)	-0.613	-1.338	0.185	12.024	-1.160	-7.996	-78.09	29.34	9.17	-72.128	-18.816	99.666	-0.73666	0.62277	-0.14746	-0.21820	30.4	13111	100
2025-3-27 20:28:48.955	WT901BLE68-01(48591DE3C19B)	-0.678	-1.338	0.185	12.024	-1.160	-7.996	-77.99	29.22	9.01	-72.128	-18.816	99.666	-0.73666	0.62277	-0.14746	-0.21820	30.4	13111	100
2025-3-27 20:28:49.16	WT901BLE68-01(48591DE3C19B)	-0.678	-1.583	0.232	17.883	-3.723	-45.288	-77.88	28.93	8.83	-72.128	-18.816	99.666	-0.73666	0.62277	-0.14746	-0.21820	30.4	13111	100
2025-3-27 20:28:49.16	WT901BLE68-01(48591DE3C19B)	-0.772	-1.583	0.232	17.883	-3.723	-45.288	-77.75	28.45	8.61	-72.128	-18.816	99.666	-0.73666	0.62277	-0.14746	-0.21820	30.4	13111	100
2025-3-27 20:28:49.16	WT901BLE68-01(48591DE3C19B)	-0.772	-1.626	0.260	21.484	14.648	-53.650	-77.66	27.96	8.28	-72.128	-18.816	99.666	-0.73666	0.62277	-0.14746	-0.21820	30.4	13111	100
2025-3-27 20:28:49.16	WT901BLE68-01(48591DE3C19B)	-0.710	-1.626	0.260	21.484	14.648	-53.650	-77.60	27.45	7.84	-72.128	-18.816	99.666	-0.73666	0.62277	-0.14746	-0.21820	30.4	13111	100
2025-3-27 20:28:49.75	WT901BLE68-01(48591DE3C19B)	-0.710	-1.279	0.360	25.940	26.062	-59.021	-77.55	26.93	7.34	-72.128	-18.816	99.666	-0.73666	0.62277	-0.14746	-0.21820	30.4	13111	100
2025-3-27 20:28:49.75	WT901BLE68-01(48591DE3C19B)	-0.564	-1.279	0.360	25.940	26.062	-59.021	-77.50	26.40	6.77	-72.128	-18.816	99.666	-0.73666	0.62277	-0.14746	-0.21820	30.4	13111	100
2025-3-27 20:28:49.75	WT901BLE68-01(48591DE3C19B)	-0.564	-0.931	0.411	18.372	31.311	-47.119	-77.48	25.94	6.20	-72.128	-18.816	99.666	-0.73666	0.62277	-0.14746	-0.21820	30.4	13111	100
2025-3-27 20:28:49.75	WT901BLE68-01(48591DE3C19B)	-0.571	-0.931	0.411	18.372	31.311	-47.119	-77.49	25.54	5.60	-72.128	-18.816	99.666	-0.73666	0.62277	-0.14746	-0.21820	30.4	13111	100
2025-3-27 20:28:49.77	WT901BLE68-01(48591DE3C19B)	-0.571	-0.662	0.321	6.714	25.635	-32.837	-77.54	25.22	5.06	-72.128	-18.816	99.666	-0.73666	0.62277	-0.14746	-0.21820	30.4	13111	100
2025-3-27 20:28:49.77	WT901BLE68-01(48591DE3C19B)	-0.639	-0.662	0.321	6.714	25.635	-32.837	-77.60	24.96	4.57	-72.128	-18.816	99.666	-0.73666	0.62277	-0.14746	-0.21820	30.4	13111	100
2025-3-27 20:28:49.77	WT901BLE68-01(48591DE3C19B)	-0.639	-0.626	0.191	-17.090	-6.104	-28.931	-77.71	24.70	4.26	-72.128	-18.816	99.666	-0.73666	0.62277	-0.14746	-0.21820	30.4	13111	100
2025-3-27 20:28:49.77	WT901BLE68-01(48591DE3C19B)	-0.548	-0.626	0.191	-17.090	-6.104	-28.931	-77.86	24.43	4.13	-72.128	-18.816	99.666	-0.73666	0.62277	-0.14746	-0.21820	30.4	13111	100
2025-3-27 20:28:49.137	WT901BLE68-01(48591DE3C19B)	-0.548	-0.719	0.183	-24.963	-36.682	-25.146	-77.98	24.15	4.16	-72.128	-18.816	99.666	-0.73666	0.62277	-0.14746	-0.21820	30.4	13111	100
2025-3-27 20:28:49.137	WT901BLE68-01(48591DE3C19B)	-0.399	-0.719	0.183	-24.963	-36.682	-25.146	-78.06	23.87	4.36	-72.128	-18.816	99.666	-0.73666	0.62277	-0.14746	-0.21820	30.4	13111	100
2025-3-27 20:28:49.137	WT901BLE68-01(48591DE3C19B)	-0.399	-0.618	0.233	-13.855	-45.715	-18.188	-78.07	23.61	4.63	-72.128	-18.816	99.666	-0.73666	0.62277	-0.14746	-0.21820	30.4	13111	100
2025-3-27 20:28:49.137	WT901BLE68-01(48591DE3C19B)	-0.210	-0.618	0.233	-13.855	-45.715	-18.188	-78.01	23.38	4.94	-72.128	-18.816	99.666	-0.73666	0.62277	-0.14746	-0.21820	30.4	13111	100
2025-3-27 20:28:49.167	WT901BLE68-01(48591DE3C19B)	-0.210	-0.339	0.247	-4.761	-34.912	-10.742	-77.91	23.19	5.21	-72.128	-18.816	99.666	-0.73666	0.62277	-0.14746	-0.21820	30.4	13111	100
2025-3-27 20:28:49.167	WT901BLE68-01(48591DE3C19B)	-0.056	-0.339	0.247	-4.761	-34.912	-10.742	-77.78	23.05	5.43	-72.128	-18.816	99.666	-0.73666	0.62277	-0.14746	-0.21820	30.4	13111	100
2025-3-27 20:28:49.167	WT901BLE68-01(48591DE3C19B)	-0.056	-0.159	0.208	-3.662	-9.460	-0.122	-77.70	22.99	5.52	-72.128	-18.816	99.666	-0.73666	0.62277	-0.14746	-0.21820	30.4	13111	100
2025-3-27 20:28:49.167	WT901BLE68-01(48591DE3C19B)	-0.096	-0.159	0.208	-3.662	-9.460	-0.122	-77.65	23.01	5.49	-72.128	-16.856	99.666	-0.73666	0.62277	-0.14746	-0.21820	30.4	13111	100
2025-3-27 20:28:49.197	WT901BLE68-01(48591DE3C19B)	-0.096	-0.271	0.147	-7.690	25.024	-2.075	-77.68	23.05	5.28	-72.128	-16.856	99.666	-0.73666	0.62277	-0.14746	-0.21820	30.4	13111	100
2025-3-27 20:28:49.197	WT901BLE68-01(48591DE3C19B)	-0.279	-0.271	0.147	-7.690	25.024	-2.075	-77.81	23.11	4.88	-72.128	-16.856	99.666	-0.73666	0.62277	-0.14746	-0.21820	30.4	13111	100
2025-3-27 20:28:49.198	WT901BLE68-01(48591DE3C19B)	-0.279	-0.465	0.131	-10.254	37.781	-12.512	-77.98	23.13	4.41	-72.128	-16.856	99.666	-0.73666	0.62277	-0.14746	-0.21820	30.4	13111	100
2025-3-27 20:28:49.198	WT901BLE68-01(48591DE3C19B)	-0.430	-0.465	0.131	-10.254	37.781	-12.512	-78.20	23.11	3.85	-72.128	-16.856	99.666	-0.73666	0.62277	-0.14746	-0.21820	30.4	13111	100
2025-3-27 20:28:49.256	WT901BLE68-01(48591DE3C19B)	-0.430	-0.707	0.138	-17.273	17.212	-20.996	-78.41	23.03	3.39	-72.128	-16.856	99.666	-0.73666	0.62277	-0.14746	-0.21820	30.4	13111	100
2025-3-27 20:28:49.256	WT901BLE68-01(48591DE3C19B)	-0.483	-0.707	0.138	-17.273	17.212	-20.996	-78.62	22.89	3.04	-72.128	-16.856	99.666	-0.73666	0.62277	-0.14746	-0.21820	30.4	13111	100
2025-3-27 20:28:49.256	WT901BLE68-01(48591DE3C19B)	-0.483	-1.073	0.107	-20.203	-15.137	-29.602	-78.79	22.68	2.85	-72.128	-16.856	99.666	-0.73666	0.62277	-0.14746	-0.21820	30.4	13111	100
2025-3-27 20:28:49.256	WT901BLE68-01(48591DE3C19B)	-0.521	-1.073	0.107	-20.203	-15.137	-29.602	-78.92	22.39	2.83	-72.128	-16.856	99.666	-0.73666	0.62277	-0.14746	-0.21820	30.4	13111	100
2025-3-27 20:28:49.317	WT901BLE68-01(48591DE3C19B)	-0.521	-1.673	0.036	-18.799	-38.452	-41.504	-79.01	22.02	2.92	-72.128	-16.856	99.666	-0.73666	0.62277	-0.14746	-0.21820	30.4	13111	100
2025-3-27 20:28:49.317	WT901BLE68-01(48591DE3C19B)	-0.494	-1.673	0.036	-18.799	-38.452	-41.504	-79.07	21.56	3.12	-72.128	-16.856	99.666	-0.73666	0.62277	-0.14746	-0.21820	30.4	13111	100
2025-3-27 20:28:49.317	WT901BLE68-01(48591DE3C19B)	-0.494	-2.022	0.051	8.728	-45.105	-48.828	-79.01	21.06	3.35	-72.128	-16.856	99.666	-0.73666	0.62277	-0.14746	-0.21820	30.4	13111	100
2025-3-27 20:28:49.318	WT901BLE68-01(48591DE3C19B)	-0.438	-2.022	0.051	8.728	-45.105	-48.828	-78.80	20.51	3.60	-72.128	-16.856	99.666	-0.73666	0.62277	-0.14746	-0.21820	30.4	13111	100
2025-3-27 20:28:49.318	WT901BLE68-01(48591DE3C19B)	-0.438	-1.516	0.110	31.128	-42.847	-28.015	-78.50	20.05	3.86	-72.128	-16.856	99.666	-0.73666	0.62277	-0.14746	-0.21820	30.4	13111	100
2025-3-27 20:28:49.318	WT901BLE68-01(48591DE3C19B)	-0.226	-1.516	0.110	31.128	-42.847	-28.015	-78.09	19.70	4.13	-72.128	-16.856	99.666	-0.73666	0.62277	-0.14746	-0.21820	30.4	13111	100
2025-3-27 20:28:49.318	WT901BLE68-01(48591DE3C19B)	-0.226	-1.092	0.109	21.423	-21.240	-9.949	-77.76	19.45	4.30	-72.128	-16.856	99.666	-0.73666	0.62277	-0.14746	-0.21820	30.4	13111	100
2025-3-27 20:28:49.318	WT901BLE68-01(48591DE3C19B)	-0.089	-1.092	0.109	21.423	-21.240	-9.949	-77.52	19.31	4.38	-72.128	-16.856	99.666	-0.73666	0.62277	-0.14746	-0.21820	30.4	13111	100
2025-3-27 20:28:49.375	WT901BLE68-01(48591DE3C19B)	-0.089	-0.867	0.118	14.465	26.428	10.254	-77.39	19.32	4.24	-72.128	-16.856	99.666	-0.73666	0.62277	-0.14746	-0.21820	30.4	13111	100
2025-3-27 20:28:49.375	WT901BLE68-01(48591DE3C19B)	-0.177	-0.867	0.118	14.465	26.428	10.254	-77.37	19.47	3.87	-72.128	-16.856	99.666	-0.76508	0.62012	-0.11374	-0.13062	30.4	13111	100
2025-3-27 20:28:49.375	WT901BLE68-01(48591DE3C19B)	-0.177	-0.735	0.163	6.653	50.049	23.438	-77.49	19.80	3.28	-72.128	-16.856	99.666	-0.76508	0.62012	-0.11374	-0.13062	30.4	13111	100
2025-3-27 20:28:49.375	WT901BLE68-01(48591DE3C19B)	-0.252	-0.735	0.163	6.653	50.049	23.438	-77.62	20.12	2.70	-72.128	-16.856	99.666	-0.76508	0.62012	-0.11374	-0.13062	30.4	13111	100
2025-3-27 20:28:49.405	WT901BLE68-01(48591DE3C19B)	-0.252	-0.626	0.213	-1.831	25.146	33.325	-77.74	20.48	2.40	-72.128	-16.856	99.666	-0.76508	0.62012	-0.11374	-0.13062	30.4	13111	100
2025-3-27 20:28:49.405	WT901BLE68-01(48591DE3C19B)	-0.168	-0.626	0.213	-1.831	25.146	33.325	-77.85	20.85	2.09	-72.128	-16.856	99.666	-0.76508	0.62012	-0.11374	-0.13062	30.4	13111	100
2025-3-27 20:28:49.405	WT901BLE68-01(48591DE3C19B)	-0.168	-0.503	0.250	-1.892	5.127	41.870	-77.87	21.24	2.02	-72.128	-16.856	99.666	-0.76508	0.62012	-0.11374	-0.13062	30.4	13111	100
2025-3-27 20:28:49.405	WT901BLE68-01(48591DE3C19B)	-0.149	-0.503	0.250	-1.892	5.127	41.870	-77.89	21.64	1.94	-72.128	-16.856	99.666	-0.76508	0.62012	-0.11374	-0.13062	30.4	13111	100
2025-3-27 20:28:49.468	WT901BLE68-01(48591DE3C19B)	-0.149	-0.372	0.214	2.319	13.428	55.115	-77.88	22.18	1.81	-72.128	-16.856	99.666	-0.76508	0.62012	-0.11374	-0.13062	30.4	13111	100
2025-3-27 20:28:49.468	WT901BLE68-01(48591DE3C19B)	-0.285	-0.372	0.214	2.319	13.428	55.115	-77.87	22.71	1.69	-72.128	-16.856	99.666	-0.76508	0.62012	-0.11374	-0.13062	30.4	13111	100
2025-3-27 20:28:49.468	WT901BLE68-01(48591DE3C19B)	-0.285	-0.439	0.159	0.977	22.400	60.181	-77.90	23.32	1.47	-72.128	-16.856	99.666	-0.76508	0.62012	-0.11374	-0.13062	30.4	13111	100
2025-3-27 20:28:49.468	WT901BLE68-01(48591DE3C19B)	-0.391	-0.439	0.159	0.977	22.400	60.181	-77.93	23.93	1.26	-72.128	-16.856	99.666	-0.76508	0.62012	-0.11374	-0.13062	30.4	13111	100
2025-3-27 20:28:49.555	WT901BLE68-01(48591DE3C19B)	-0.391	-0.645	0.118	-1.953	19.836	55.481	-77.98	24.49	1.06	-72.128	-16.856	99.666	-0.76508	0.62012	-0.11374	-0.13062	30.4	13111	100
2025-3-27 20:28:49.556	WT901BLE68-01(48591DE3C19B)	-0.470	-0.645	0.118	-1.953	19.836	55.481	-78.04	25.05	0.86	-72.128	-16.856	99.666	-0.76508	0.62012	-0.11374	-0.13062	30.4	13111	100
2025-3-27 20:28:49.556	WT901BLE68-01(48591DE3C19B)	-0.470	-0.878	0.151	-2.502	8.423	35.217	-78.06	25.39	0.74	-72.128	-16.856	99.666	-0.76508	0.62012	-0.11374	-0.13062	30.4	13111	100
2025-3-27 20:28:49.556	WT901BLE68-01(48591DE3C19B)	-0.562	-0.878	0.151	-2.502	8.423	35.217	-78.10	25.74	0.63	-72.128	-16.856	99.666	-0.76508	0.62012	-0.11374	-0.13062	30.4	13111	100
2025-3-27 20:28:49.557	WT901BLE68-01(48591DE3C19B)	-0.562	-1.110	0.240	1.892	-5.981	5.920	-78.04	25.76	0.59	-72.128	-16.856	99.666	-0.76508	0.62012	-0.11374	-0.13062	30.4	13111	100
2025-3-27 20:28:49.558	WT901BLE68-01(48591DE3C19B)	-0.654	-1.110	0.240	1.892	-5.981	5.920	-77.99	25.80	0.57	-72.128	-16.856	99.666	-0.76508	0.62012	-0.11374	-0.13062	30.4	13111	100
2025-3-27 20:28:49.558	WT901BLE68-01(48591DE3C19B)	-0.654	-1.255	0.293	6.042	-19.165	-25.818	-77.87	25.49	0.61	-72.128	-16.856	99.666	-0.76508	0.62012	-0.11374	-0.13062	30.4	13111	100
2025-3-27 20:28:49.558	WT901BLE68-01(48591DE3C19B)	-0.732	-1.255	0.293	6.042	-19.165	-25.818	-77.74	25.20	0.65	-72.128	-16.856	99.666	-0.76508	0.62012	-0.11374	-0.13062	30.4	13111	100
2025-3-27 20:28:49.588	WT901BLE68-01(48591DE3C19B)	-0.732	-1.534	0.320	-0.671	-28.015	-56.091	-77.68	24.59	0.72	-72.128	-16.856	99.666	-0.76508	0.62012	-0.11374	-0.13062	30.4	13111	100
2025-3-27 20:28:49.588	WT901BLE68-01(48591DE3C19B)	-0.743	-1.534	0.320	-0.671	-28.015	-56.091	-77.61	23.98	0.78	-72.128	-16.856	99.666	-0.76508	0.62012	-0.11374	-0.13062	30.4	13111	100
2025-3-27 20:28:49.588	WT901BLE68-01(48591DE3C19B)	-0.743	-1.617	0.356	4.883	-21.301	-69.641	-77.54	23.26	0.74	-72.128	-16.856	99.666	-0.76508	0.62012	-0.11374	-0.13062	30.4	13111	100
2025-3-27 20:28:49.588	WT901BLE68-01(48591DE3C19B)	-0.667	-1.617	0.356	4.883	-21.301	-69.641	-77.46	22.55	0.70	-72.128	-16.856	99.666	-0.76508	0.62012	-0.11374	-0.13062	30.4	13111	100
2025-3-27 20:28:49.617	WT901BLE68-01(48591DE3C19B)	-0.333	-1.215	0.426	5.310	-10.498	-65.430	-77.43	21.91	0.56	-72.128	-16.856	99.666	-0.76508	0.62012	-0.11374	-0.13062	30.4	13111	100
2025-3-27 20:28:49.617	WT901BLE68-01(48591DE3C19B)	-0.573	-0.607	0.213	5.310	-10.498	-65.430	-77.38	21.26	0.42	-65.170	-20.972	100.548	-0.76508	0.62012	-0.11374	-0.13062	30.4	13111	100
2025-3-27 20:28:49.617	WT901BLE68-01(48591DE3C19B)	-0.573	-0.909	0.384	-7.263	-9.399	-58.716	-77.45	20.70	0.28	-65.170	-20.972	100.548	-0.76508	0.62012	-0.11374	-0.13062	30.4	13111	100
2025-3-27 20:28:49.618	WT901BLE68-01(48591DE3C19B)	-0.531	-0.909	0.384	-7.263	-9.399	-58.716	-77.52	20.14	0.14	-65.170	-20.972	100.548	-0.76508	0.62012	-0.11374	-0.13062	30.4	13111	100
2025-3-27 20:28:49.675	WT901BLE68-01(48591DE3C19B)	-0.531	-0.737	0.302	-20.508	-24.170	-47.424	-77.65	19.66	0.19	-65.170	-20.972	100.548	-0.76508	0.62012	-0.11374	-0.13062	30.4	13111	100
2025-3-27 20:28:49.675	WT901BLE68-01(48591DE3C19B)	-0.557	-0.737	0.302	-20.508	-24.170	-47.424	-77.78	19.19	0.23	-65.170	-20.972	100.548	-0.76508	0.62012	-0.11374	-0.13062	30.4	13111	100
2025-3-27 20:28:49.675	WT901BLE68-01(48591DE3C19B)	-0.557	-0.736	0.251	-37.170	-67.871	-35.583	-77.92	18.74	0.76	-65.170	-20.972	100.548	-0.76508	0.62012	-0.11374	-0.13062	30.4	13111	100
2025-3-27 20:28:49.675	WT901BLE68-01(48591DE3C19B)	-0.457	-0.736	0.251	-37.170	-67.871	-35.583	-78.06	18.31	1.28	-65.170	-20.972	100.548	-0.76508	0.62012	-0.11374	-0.13062	30.4	13111	100
2025-3-27 20:28:49.677	WT901BLE68-01(48591DE3C19B)	-0.457	-0.716	0.278	-41.443	-107.422	-20.813	-78.11	17.95	2.25	-65.170	-20.972	100.548	-0.76508	0.62012	-0.11374	-0.13062	30.4	13111	100
2025-3-27 20:28:49.677	WT901BLE68-01(48591DE3C19B)	-0.295	-0.716	0.278	-41.443	-107.422	-20.813	-78.16	17.58	3.21	-65.170	-20.972	100.548	-0.76508	0.62012	-0.11374	-0.13062	30.4	13111	100
2025-3-27 20:28:49.677	WT901BLE68-01(48591DE3C19B)	-0.295	-0.551	0.271	-34.302	-111.572	-3.601	-78.12	17.38	4.25	-65.170	-20.972	100.548	-0.76508	0.62012	-0.11374	-0.13062	30.4	13111	100
2025-3-27 20:28:49.677	WT901BLE68-01(48591DE3C19B)	-0.122	-0.551	0.271	-34.302	-111.572	-3.601	-78.07	17.18	5.29	-65.170	-20.972	100.548	-0.76508	0.62012	-0.11374	-0.13062	30.4	13111	100
2025-3-27 20:28:49.766	WT901BLE68-01(48591DE3C19B)	-0.122	-0.288	0.230	-28.625	-88.379	11.597	-78.04	17.17	6.12	-65.170	-20.972	100.548	-0.76508	0.62012	-0.11374	-0.13062	30.4	13111	100
2025-3-27 20:28:49.767	WT901BLE68-01(48591DE3C19B)	-0.043	-0.288	0.230	-28.625	-88.379	11.597	-78.00	17.16	6.96	-65.170	-20.972	100.548	-0.76508	0.62012	-0.11374	-0.13062	30.4	13111	100
2025-3-27 20:28:49.767	WT901BLE68-01(48591DE3C19B)	-0.043	-0.208	0.182	-32.349	-54.993	22.400	-78.08	17.32	7.48	-65.170	-20.972	100.548	-0.76508	0.62012	-0.11374	-0.13062	30.4	13111	100
2025-3-27 20:28:49.767	WT901BLE68-01(48591DE3C19B)	-0.093	-0.208	0.182	-32.349	-54.993	22.400	-78.16	17.47	8.00	-65.170	-20.972	100.548	-0.76508	0.62012	-0.11374	-0.13062	30.4	13111	100
2025-3-27 20:28:49.795	WT901BLE68-01(48591DE3C19B)	-0.093	-0.429	0.180	-36.133	-33.813	24.109	-78.33	17.68	8.31	-65.170	-20.972	100.548	-0.76508	0.62012	-0.11374	-0.13062	30.4	13111	100
2025-3-27 20:28:49.795	WT901BLE68-01(48591DE3C19B)	-0.207	-0.429	0.180	-36.133	-33.813	24.109	-78.51	17.89	8.61	-65.170	-20.972	100.548	-0.76508	0.62012	-0.11374	-0.13062	30.4	13111	100
2025-3-27 20:28:49.795	WT901BLE68-01(48591DE3C19B)	-0.207	-0.693	0.169	-33.752	-31.006	16.602	-78.67	18.02	8.88	-65.170	-20.972	100.548	-0.76508	0.62012	-0.11374	-0.13062	30.4	13111	100
2025-3-27 20:28:49.795	WT901BLE68-01(48591DE3C19B)	-0.287	-0.693	0.169	-33.752	-31.006	16.602	-78.84	18.14	9.14	-65.170	-20.972	100.548	-0.75238	0.63477	-0.07141	-0.16058	30.4	13111	100
2025-3-27 20:28:49.797	WT901BLE68-01(48591DE3C19B)	-0.287	-0.951	0.106	-32.776	-39.856	8.179	-78.99	18.16	9.42	-65.170	-20.972	100.548	-0.75238	0.63477	-0.07141	-0.16058	30.4	13111	100
2025-3-27 20:28:49.797	WT901BLE68-01(48591DE3C19B)	-0.357	-0.951	0.106	-32.776	-39.856	8.179	-79.14	18.18	9.69	-65.170	-20.972	100.548	-0.75238	0.63477	-0.07141	-0.16058	30.4	13111	100
2025-3-27 20:28:49.797	WT901BLE68-01(48591DE3C19B)	-0.355	-1.350	0.057	-28.137	-47.363	-0.854	-79.24	18.09	10.01	-65.170	-20.972	100.548	-0.75238	0.63477	-0.07141	-0.16058	30.4	13111	100
2025-3-27 20:28:49.797	WT901BLE68-01(48591DE3C19B)	-0.355	-1.763	0.028	-13.123	-49.622	-11.292	-79.28	17.95	10.34	-65.170	-20.972	100.548	-0.75238	0.63477	-0.07141	-0.16058	30.4	13111	100
2025-3-27 20:28:49.915	WT901BLE68-01(48591DE3C19B)	-0.264	-1.763	0.028	-13.123	-49.622	-11.292	-79.27	17.75	10.65	-65.170	-20.972	100.548	-0.75238	0.63477	-0.07141	-0.16058	30.4	13111	100
2025-3-27 20:28:49.915	WT901BLE68-01(48591DE3C19B)	-0.264	-1.822	-0.032	11.292	-35.461	-2.075	-79.16	17.61	10.90	-65.170	-20.972	100.548	-0.75238	0.63477	-0.07141	-0.16058	30.4	13111	100
2025-3-27 20:28:49.915	WT901BLE68-01(48591DE3C19B)	-0.132	-1.822	-0.032	11.292	-35.461	-2.075	-78.96	17.51	11.07	-65.170	-20.972	100.548	-0.75238	0.63477	-0.07141	-0.16058	30.4	13111	100
2025-3-27 20:28:49.916	WT901BLE68-01(48591DE3C19B)	-0.132	-1.521	-0.094	28.442	-7.324	6.104	-78.73	17.48	11.11	-65.170	-20.972	100.548	-0.75238	0.63477	-0.07141	-0.16058	30.4	13111	100
2025-3-27 20:28:49.916	WT901BLE68-01(48591DE3C19B)	-0.011	-1.521	-0.094	28.442	-7.324	6.104	-78.47	17.52	11.01	-65.170	-20.972	100.548	-0.75238	0.63477	-0.07141	-0.16058	30.4	13111	100
2025-3-27 20:28:49.916	WT901BLE68-01(48591DE3C19B)	-0.011	-1.306	-0.098	23.926	25.635	17.212	-78.28	17.63	10.74	-65.170	-20.972	100.548	-0.75238	0.63477	-0.07141	-0.16058	30.4	13111	100
2025-3-27 20:28:49.916	WT901BLE68-01(48591DE3C19B)	-0.036	-1.306	-0.098	23.926	25.635	17.212	-78.18	17.83	10.32	-65.170	-20.972	100.548	-0.75238	0.63477	-0.07141	-0.16058	30.4	13111	100
2025-3-27 20:28:49.916	WT901BLE68-01(48591DE3C19B)	-0.036	-1.157	0.010	19.104	51.208	24.353	-78.14	18.08	9.78	-65.170	-20.972	100.548	-0.75238	0.63477	-0.07141	-0.16058	30.4	13111	100
2025-3-27 20:28:49.917	WT901BLE68-01(48591DE3C19B)	-0.164	-1.157	0.010	19.104	51.208	24.353	-78.17	18.39	9.11	-65.170	-20.972	100.548	-0.75238	0.63477	-0.07141	-0.16058	30.4	13111	100
2025-3-27 20:28:49.917	WT901BLE68-01(48591DE3C19B)	-0.164	-0.958	0.157	15.747	54.138	24.597	-78.23	18.69	8.42	-65.170	-20.972	100.548	-0.75238	0.63477	-0.07141	-0.16058	30.4	13111	100
2025-3-27 20:28:49.917	WT901BLE68-01(48591DE3C19B)	-0.230	-0.958	0.157	15.747	54.138	24.597	-78.31	19.00	7.72	-65.170	-20.972	100.548	-0.75238	0.63477	-0.07141	-0.16058	30.4	13111	100
2025-3-27 20:28:49.917	WT901BLE68-01(48591DE3C19B)	-0.230	-0.763	0.245	16.785	40.710	24.231	-78.35	19.29	7.10	-65.170	-20.972	100.548	-0.75238	0.63477	-0.07141	-0.16058	30.4	13111	100
2025-3-27 20:28:49.975	WT901BLE68-01(48591DE3C19B)	-0.176	-0.763	0.245	16.785	40.710	24.231	-78.37	19.56	6.54	-65.170	-20.972	100.548	-0.75238	0.63477	-0.07141	-0.16058	30.4	13111	100
2025-3-27 20:28:49.975	WT901BLE68-01(48591DE3C19B)	-0.176	-0.566	0.219	18.616	37.964	29.602	-78.37	19.85	6.02	-65.170	-20.972	100.548	-0.75238	0.63477	-0.07141	-0.16058	30.4	13111	100
2025-3-27 20:28:49.975	WT901BLE68-01(48591DE3C19B)	-0.133	-0.566	0.219	18.616	37.964	29.602	-78.34	20.17	5.50	-65.170	-20.972	100.548	-0.75238	0.63477	-0.07141	-0.16058	30.4	13111	100
2025-3-27 20:28:49.975	WT901BLE68-01(48591DE3C19B)	-0.133	-0.407	0.152	22.400	44.922	36.255	-78.31	20.53	4.97	-65.170	-20.972	100.548	-0.75238	0.63477	-0.07141	-0.16058	30.4	13111	100
2025-3-27 20:28:50.65	WT901BLE68-01(48591DE3C19B)	-0.189	-0.407	0.152	22.400	44.922	36.255	-78.26	20.92	4.41	-47.628	-33.810	96.040	-0.75238	0.63477	-0.07141	-0.16058	30.4	13111	100
2025-3-27 20:28:50.65	WT901BLE68-01(48591DE3C19B)	-0.189	-0.307	0.125	21.729	47.119	44.067	-78.22	21.36	3.85	-47.628	-33.810	96.040	-0.75238	0.63477	-0.07141	-0.16058	30.4	13111	100
2025-3-27 20:28:50.65	WT901BLE68-01(48591DE3C19B)	-0.289	-0.307	0.125	21.729	47.119	44.067	-78.18	21.84	3.29	-47.628	-33.810	96.040	-0.75238	0.63477	-0.07141	-0.16058	30.4	13111	100
2025-3-27 20:28:50.65	WT901BLE68-01(48591DE3C19B)	-0.289	-0.388	0.134	11.292	36.926	47.302	-78.17	22.32	2.80	-47.628	-33.810	96.040	-0.75238	0.63477	-0.07141	-0.16058	30.4	13111	100
2025-3-27 20:28:50.66	WT901BLE68-01(48591DE3C19B)	-0.397	-0.388	0.134	11.292	36.926	47.302	-78.19	22.81	2.36	-47.628	-33.810	96.040	-0.75238	0.63477	-0.07141	-0.16058	30.4	13111	100
2025-3-27 20:28:50.66	WT901BLE68-01(48591DE3C19B)	-0.397	-0.583	0.175	6.104	21.118	42.542	-78.20	23.27	2.01	-47.628	-33.810	96.040	-0.75238	0.63477	-0.07141	-0.16058	30.4	13111	100
2025-3-27 20:28:50.67	WT901BLE68-01(48591DE3C19B)	-0.518	-0.583	0.175	6.104	21.118	42.542	-78.21	23.70	1.75	-47.628	-33.810	96.040	-0.75238	0.63477	-0.07141	-0.16058	30.4	13111	100
2025-3-27 20:28:50.67	WT901BLE68-01(48591DE3C19B)	-0.518	-0.782	0.220	4.333	3.784	33.447	-78.18	24.07	1.58	-47.628	-33.810	96.040	-0.75238	0.63477	-0.07141	-0.16058	30.4	13111	100
2025-3-27 20:28:50.126	WT901BLE68-01(48591DE3C19B)	-0.550	-0.782	0.220	4.333	3.784	33.447	-78.13	24.38	1.49	-47.628	-33.810	96.040	-0.75238	0.63477	-0.07141	-0.16058	30.4	13111	100
2025-3-27 20:28:50.126	WT901BLE68-01(48591DE3C19B)	-0.550	-1.035	0.252	2.686	-18.799	12.390	-78.04	24.58	1.52	-47.628	-33.810	96.040	-0.75238	0.63477	-0.07141	-0.16058	30.4	13111	100
2025-3-27 20:28:50.126	WT901BLE68-01(48591DE3C19B)	-0.575	-1.035	0.252	2.686	-18.799	12.390	-77.92	24.65	1.64	-47.628	-33.810	96.040	-0.75238	0.63477	-0.07141	-0.16058	30.4	13111	100
2025-3-27 20:28:50.126	WT901BLE68-01(48591DE3C19B)	-0.575	-1.368	0.273	7.141	-34.363	-19.470	-77.75	24.55	1.81	-47.628	-33.810	96.040	-0.75238	0.63477	-0.07141	-0.16058	30.4	13111	100
2025-3-27 20:28:50.127	WT901BLE68-01(48591DE3C19B)	-0.710	-1.368	0.273	7.141	-34.363	-19.470	-77.55	24.28	2.03	-47.628	-33.810	96.040	-0.75238	0.63477	-0.07141	-0.16058	30.4	13111	100
2025-3-27 20:28:50.127	WT901BLE68-01(48591DE3C19B)	-0.710	-1.679	0.311	13.123	-31.921	-47.913	-77.33	23.87	2.20	-47.628	-33.810	96.040	-0.75238	0.63477	-0.07141	-0.16058	30.4	13111	100
2025-3-27 20:28:50.127	WT901BLE68-01(48591DE3C19B)	-0.743	-1.679	0.311	13.123	-31.921	-47.913	-77.12	23.33	2.31	-47.628	-33.810	96.040	-0.75238	0.63477	-0.07141	-0.16058	30.4	13111	100
2025-3-27 20:28:50.127	WT901BLE68-01(48591DE3C19B)	-0.743	-1.511	0.349	24.475	-21.484	-53.223	-76.88	22.78	2.36	-47.628	-33.810	96.040	-0.75238	0.63477	-0.07141	-0.16058	30.4	13111	100
2025-3-27 20:28:50.276	WT901BLE68-01(48591DE3C19B)	-0.611	-1.511	0.349	24.475	-21.484	-53.223	-76.60	22.23	2.35	-47.628	-33.810	96.040	-0.75238	0.63477	-0.07141	-0.16058	30.4	13111	100
2025-3-27 20:28:50.276	WT901BLE68-01(48591DE3C19B)	-0.611	-1.210	0.366	21.423	1.343	-47.607	-76.39	21.72	2.23	-47.628	-33.810	96.040	-0.77023	0.60953	-0.13544	-0.12946	30.4	13111	100
2025-3-27 20:28:50.276	WT901BLE68-01(48591DE3C19B)	-0.514	-1.210	0.366	21.423	1.343	-47.607	-76.23	21.28	1.99	-47.628	-33.810	96.040	-0.77023	0.60953	-0.13544	-0.12946	30.4	13111	100
2025-3-27 20:28:50.276	WT901BLE68-01(48591DE3C19B)	-0.514	-1.067	0.348	15.442	23.132	-36.316	-76.13	20.92	1.66	-47.628	-33.810	96.040	-0.77023	0.60953	-0.13544	-0.12946	30.4	13111	100
2025-3-27 20:28:50.277	WT901BLE68-01(48591DE3C19B)	-0.489	-1.067	0.348	15.442	23.132	-36.316	-76.09	20.64	1.24	-47.628	-33.810	96.040	-0.77023	0.60953	-0.13544	-0.12946	30.4	13111	100
2025-3-27 20:28:50.277	WT901BLE68-01(48591DE3C19B)	-0.489	-0.904	0.315	7.019	14.709	-16.785	-76.07	20.45	0.88	-47.628	-33.810	96.040	-0.77023	0.60953	-0.13544	-0.12946	30.4	13111	100
2025-3-27 20:28:50.277	WT901BLE68-01(48591DE3C19B)	-0.403	-0.904	0.315	7.019	14.709	-16.785	-76.06	20.35	0.60	-47.628	-33.810	96.040	-0.77023	0.60953	-0.13544	-0.12946	30.4	13111	100
2025-3-27 20:28:50.277	WT901BLE68-01(48591DE3C19B)	-0.403	-0.776	0.264	-9.583	-19.043	0.671	-76.06	20.29	0.53	-47.628	-33.810	96.040	-0.77023	0.60953	-0.13544	-0.12946	30.4	13111	100
2025-3-27 20:28:50.307	WT901BLE68-01(48591DE3C19B)	-0.255	-0.776	0.264	-9.583	-19.043	0.671	-76.08	20.28	0.64	-47.628	-33.810	96.040	-0.77023	0.60953	-0.13544	-0.12946	30.4	13111	100
2025-3-27 20:28:50.307	WT901BLE68-01(48591DE3C19B)	-0.255	-0.639	0.235	-15.869	-32.959	13.489	-76.10	20.31	0.85	-47.628	-33.810	96.040	-0.77023	0.60953	-0.13544	-0.12946	30.4	13111	100
2025-3-27 20:28:50.308	WT901BLE68-01(48591DE3C19B)	-0.186	-0.639	0.235	-15.869	-32.959	13.489	-76.11	20.39	1.14	-47.628	-33.810	96.040	-0.77023	0.60953	-0.13544	-0.12946	30.4	13111	100
2025-3-27 20:28:50.308	WT901BLE68-01(48591DE3C19B)	-0.186	-0.383	0.246	-12.207	-25.391	30.090	-76.11	20.55	1.41	-47.628	-33.810	96.040	-0.77023	0.60953	-0.13544	-0.12946	30.4	13111	100
2025-3-27 20:28:50.308	WT901BLE68-01(48591DE3C19B)	-0.123	-0.383	0.246	-12.207	-25.391	30.090	-76.09	20.80	1.66	-47.628	-33.810	96.040	-0.77023	0.60953	-0.13544	-0.12946	30.4	13111	100
2025-3-27 20:28:50.308	WT901BLE68-01(48591DE3C19B)	-0.123	-0.156	0.240	-18.677	-15.259	40.833	-76.15	21.18	1.85	-47.628	-33.810	96.040	-0.77023	0.60953	-0.13544	-0.12946	30.4	13111	100
2025-3-27 20:28:50.308	WT901BLE68-01(48591DE3C19B)	-0.110	-0.156	0.240	-18.677	-15.259	40.833	-76.21	21.55	2.02	-47.628	-33.810	96.040	-0.77023	0.60953	-0.13544	-0.12946	30.4	13111	100
2025-3-27 20:28:50.308	WT901BLE68-01(48591DE3C19B)	-0.110	-0.136	0.240	-27.466	-8.362	50.110	-76.36	22.03	2.16	-47.628	-33.810	96.040	-0.77023	0.60953	-0.13544	-0.12946	30.4	13111	100
2025-3-27 20:28:50.337	WT901BLE68-01(48591DE3C19B)	-0.213	-0.136	0.240	-27.466	-8.362	50.110	-76.50	22.51	2.30	-47.628	-33.810	96.040	-0.77023	0.60953	-0.13544	-0.12946	30.4	13111	100
2025-3-27 20:28:50.337	WT901BLE68-01(48591DE3C19B)	-0.213	-0.401	0.210	-36.316	-5.554	49.683	-76.74	22.98	2.40	-47.628	-33.810	96.040	-0.77023	0.60953	-0.13544	-0.12946	30.4	13111	100
2025-3-27 20:28:50.337	WT901BLE68-01(48591DE3C19B)	-0.344	-0.401	0.210	-36.316	-5.554	49.683	-76.97	23.46	2.50	-47.628	-33.810	96.040	-0.77023	0.60953	-0.13544	-0.12946	30.4	13111	100
2025-3-27 20:28:50.337	WT901BLE68-01(48591DE3C19B)	-0.344	-0.736	0.145	-37.964	-16.296	38.818	-77.18	23.80	2.69	-47.628	-33.810	96.040	-0.77023	0.60953	-0.13544	-0.12946	30.4	13111	100
2025-3-27 20:28:50.395	WT901BLE68-01(48591DE3C19B)	-0.392	-0.736	0.145	-37.964	-16.296	38.818	-77.40	24.14	2.88	-47.628	-33.810	96.040	-0.77023	0.60953	-0.13544	-0.12946	30.4	13111	100
2025-3-27 20:28:50.396	WT901BLE68-01(48591DE3C19B)	-0.392	-1.066	0.047	-38.330	-34.363	28.198	-77.57	24.33	3.22	-47.628	-33.810	96.040	-0.77023	0.60953	-0.13544	-0.12946	30.4	13111	100
2025-3-27 20:28:50.396	WT901BLE68-01(48591DE3C19B)	-0.351	-1.066	0.047	-38.330	-34.363	28.198	-77.76	24.53	3.57	-46.256	-43.512	87.710	-0.77023	0.60953	-0.13544	-0.12946	30.4	13111	100
2025-3-27 20:28:50.396	WT901BLE68-01(48591DE3C19B)	-0.351	-1.469	-0.007	-31.067	-46.814	11.108	-77.84	24.53	3.99	-46.256	-43.512	87.710	-0.77023	0.60953	-0.13544	-0.12946	30.4	13111	100
2025-3-27 20:28:50.424	WT901BLE68-01(48591DE3C19B)	-0.342	-1.469	-0.007	-31.067	-46.814	11.108	-77.94	24.52	4.40	-46.256	-43.512	87.710	-0.77023	0.60953	-0.13544	-0.12946	30.4	13111	100
2025-3-27 20:28:50.424	WT901BLE68-01(48591DE3C19B)	-0.342	-2.077	0.005	-15.320	-38.391	-17.151	-77.96	24.25	4.64	-46.256	-43.512	87.710	-0.77023	0.60953	-0.13544	-0.12946	30.4	13111	100
2025-3-27 20:28:50.425	WT901BLE68-01(48591DE3C19B)	-0.435	-2.077	0.005	-15.320	-38.391	-17.151	-78.00	23.96	4.87	-46.256	-43.512	87.710	-0.77023	0.60953	-0.13544	-0.12946	30.4	13111	100
2025-3-27 20:28:50.425	WT901BLE68-01(48591DE3C19B)	-0.435	-2.237	0.063	19.470	-17.151	-22.034	-77.80	23.68	4.84	-46.256	-43.512	87.710	-0.77023	0.60953	-0.13544	-0.12946	30.4	13111	100
2025-3-27 20:28:50.455	WT901BLE68-01(48591DE3C19B)	-0.361	-2.237	0.063	19.470	-17.151	-22.034	-77.61	23.38	4.82	-46.256	-43.512	87.710	-0.77023	0.60953	-0.13544	-0.12946	30.4	13111	100
2025-3-27 20:28:50.455	WT901BLE68-01(48591DE3C19B)	-0.361	-1.636	0.134	31.738	14.160	-26.367	-77.43	23.12	4.45	-46.256	-43.512	87.710	-0.77023	0.60953	-0.13544	-0.12946	30.4	13111	100
2025-3-27 20:28:50.455	WT901BLE68-01(48591DE3C19B)	-0.170	-1.636	0.134	31.738	14.160	-26.367	-77.26	22.85	4.09	-46.256	-43.512	87.710	-0.77023	0.60953	-0.13544	-0.12946	30.4	13111	100
2025-3-27 20:28:50.455	WT901BLE68-01(48591DE3C19B)	-0.170	-1.333	0.173	26.245	68.054	-15.503	-77.34	22.80	3.18	-46.256	-43.512	87.710	-0.77023	0.60953	-0.13544	-0.12946	30.4	13111	100
2025-3-27 20:28:50.485	WT901BLE68-01(48591DE3C19B)	-0.071	-1.333	0.173	26.245	68.054	-15.503	-77.43	22.76	2.26	-46.256	-43.512	87.710	-0.77023	0.60953	-0.13544	-0.12946	30.4	13111	100
2025-3-27 20:28:50.485	WT901BLE68-01(48591DE3C19B)	-0.071	-1.000	0.244	28.198	122.742	-2.563	-77.71	22.94	0.81	-46.256	-43.512	87.710	-0.77023	0.60953	-0.13544	-0.12946	30.4	13111	100
2025-3-27 20:28:50.485	WT901BLE68-01(48591DE3C19B)	-0.215	-1.000	0.244	28.198	122.742	-2.563	-77.99	23.12	-0.64	-46.256	-43.512	87.710	-0.77023	0.60953	-0.13544	-0.12946	30.4	13111	100
2025-3-27 20:28:50.485	WT901BLE68-01(48591DE3C19B)	-0.215	-0.642	0.243	20.691	138.245	10.437	-78.39	23.44	-2.23	-46.256	-43.512	87.710	-0.77023	0.60953	-0.13544	-0.12946	30.4	13111	100
2025-3-27 20:28:50.547	WT901BLE68-01(48591DE3C19B)	-0.399	-0.642	0.243	20.691	138.245	10.437	-78.80	23.75	-3.82	-46.256	-43.512	87.710	-0.77023	0.60953	-0.13544	-0.12946	30.4	13111	100
2025-3-27 20:28:50.547	WT901BLE68-01(48591DE3C19B)	-0.399	-0.365	0.209	9.338	94.421	18.433	-79.13	24.05	-4.91	-46.256	-43.512	87.710	-0.77023	0.60953	-0.13544	-0.12946	30.4	13111	100
2025-3-27 20:28:50.548	WT901BLE68-01(48591DE3C19B)	-0.335	-0.365	0.209	9.338	94.421	18.433	-79.45	24.36	-6.00	-46.256	-43.512	87.710	-0.77023	0.60953	-0.13544	-0.12946	30.4	13111	100
2025-3-27 20:28:50.548	WT901BLE68-01(48591DE3C19B)	-0.335	-0.184	0.187	-5.310	48.401	34.607	-79.70	24.74	-6.55	-46.256	-43.512	87.710	-0.77023	0.60953	-0.13544	-0.12946	30.4	13111	100
2025-3-27 20:28:50.577	WT901BLE68-01(48591DE3C19B)	-0.209	-0.184	0.187	-5.310	48.401	34.607	-79.95	25.13	-7.10	-46.256	-43.512	87.710	-0.77023	0.60953	-0.13544	-0.12946	30.4	13111	100
2025-3-27 20:28:50.577	WT901BLE68-01(48591DE3C19B)	-0.209	-0.148	0.115	-13.794	37.476	52.124	-80.21	25.66	-7.50	-46.256	-43.512	87.710	-0.77023	0.60953	-0.13544	-0.12946	30.4	13111	100
2025-3-27 20:28:50.577	WT901BLE68-01(48591DE3C19B)	-0.243	-0.148	0.115	-13.794	37.476	52.124	-80.47	26.20	-7.89	-46.256	-43.512	87.710	-0.77023	0.60953	-0.13544	-0.12946	30.4	13111	100
2025-3-27 20:28:50.577	WT901BLE68-01(48591DE3C19B)	-0.243	-0.223	0.082	-16.663	38.330	64.636	-80.76	26.87	-8.27	-46.256	-43.512	87.710	-0.74884	0.61563	-0.22495	-0.09763	30.4	13111	100
2025-3-27 20:28:50.607	WT901BLE68-01(48591DE3C19B)	-0.350	-0.223	0.082	-16.663	38.330	64.636	-81.04	27.54	-8.64	-46.256	-43.512	87.710	-0.74884	0.61563	-0.22495	-0.09763	30.4	13111	100
2025-3-27 20:28:50.607	WT901BLE68-01(48591DE3C19B)	-0.350	-0.415	0.083	-20.813	23.010	66.956	-81.29	28.20	-8.84	-46.256	-43.512	87.710	-0.74884	0.61563	-0.22495	-0.09763	30.4	13111	100
2025-3-27 20:28:50.607	WT901BLE68-01(48591DE3C19B)	-0.358	-0.415	0.083	-20.813	23.010	66.956	-81.54	28.88	-9.04	-46.256	-43.512	87.710	-0.74884	0.61563	-0.22495	-0.09763	30.4	13111	100
2025-3-27 20:28:50.607	WT901BLE68-01(48591DE3C19B)	-0.358	-0.665	0.035	-20.630	5.310	53.833	-81.71	29.39	-9.05	-46.256	-43.512	87.710	-0.74884	0.61563	-0.22495	-0.09763	30.4	13111	100
2025-3-27 20:28:50.668	WT901BLE68-01(48591DE3C19B)	-0.336	-0.665	0.035	-20.630	5.310	53.833	-81.88	29.91	-9.07	-46.256	-43.512	87.710	-0.74884	0.61563	-0.22495	-0.09763	30.4	13111	100
2025-3-27 20:28:50.668	WT901BLE68-01(48591DE3C19B)	-0.336	-1.011	0.009	-9.094	3.906	27.588	-81.97	30.16	-9.13	-46.256	-43.512	87.710	-0.74884	0.61563	-0.22495	-0.09763	30.4	13111	100
2025-3-27 20:28:50.668	WT901BLE68-01(48591DE3C19B)	-0.422	-1.011	0.009	-9.094	3.906	27.588	-82.06	30.40	-9.20	-46.256	-43.512	87.710	-0.74884	0.61563	-0.22495	-0.09763	30.4	13111	100
2025-3-27 20:28:50.668	WT901BLE68-01(48591DE3C19B)	-0.422	-1.361	0.083	18.311	15.198	-6.226	-81.97	30.31	-9.45	-46.256	-43.512	87.710	-0.74884	0.61563	-0.22495	-0.09763	30.4	13111	100
2025-3-27 20:28:50.694	WT901BLE68-01(48591DE3C19B)	-0.533	-1.361	0.083	18.311	15.198	-6.226	-81.90	30.22	-9.72	-46.256	-43.512	87.710	-0.74884	0.61563	-0.22495	-0.09763	30.4	13111	100
2025-3-27 20:28:50.694	WT901BLE68-01(48591DE3C19B)	-0.533	-1.470	0.166	33.447	19.775	-42.297	-81.73	29.79	-10.09	-46.256	-43.512	87.710	-0.74884	0.61563	-0.22495	-0.09763	30.4	13111	100
2025-3-27 20:28:50.694	WT901BLE68-01(48591DE3C19B)	-0.623	-1.470	0.166	33.447	19.775	-42.297	-81.56	29.35	-10.46	-46.256	-43.512	87.710	-0.74884	0.61563	-0.22495	-0.09763	30.4	13111	100
2025-3-27 20:28:50.694	WT901BLE68-01(48591DE3C19B)	-0.623	-1.614	0.178	37.109	35.339	-60.730	-81.45	28.76	-11.05	-46.256	-43.512	87.710	-0.74884	0.61563	-0.22495	-0.09763	30.4	13111	100
2025-3-27 20:28:50.725	WT901BLE68-01(48591DE3C19B)	-0.670	-1.614	0.178	37.109	35.339	-60.730	-81.33	28.17	-11.62	-46.256	-43.512	87.710	-0.74884	0.61563	-0.22495	-0.09763	30.4	13111	100
2025-3-27 20:28:50.725	WT901BLE68-01(48591DE3C19B)	-0.723	-1.501	0.245	44.739	60.608	-67.261	-81.27	27.56	-12.48	-46.256	-43.512	87.710	-0.74884	0.61563	-0.22495	-0.09763	30.4	13111	100
2025-3-27 20:28:50.725	WT901BLE68-01(48591DE3C19B)	-0.723	-1.210	0.396	40.222	66.345	-61.462	-81.23	26.99	-13.36	-46.256	-43.512	87.710	-0.74884	0.61563	-0.22495	-0.09763	30.4	13111	100
2025-3-27 20:28:50.725	WT901BLE68-01(48591DE3C19B)	-0.707	-1.210	0.396	40.222	66.345	-61.462	-81.21	26.46	-14.25	-46.256	-43.512	87.710	-0.74884	0.61563	-0.22495	-0.09763	30.4	13111	100
2025-3-27 20:28:50.786	WT901BLE68-01(48591DE3C19B)	-0.707	-0.930	0.438	31.921	46.143	-55.420	-81.16	25.96	-15.01	-46.256	-43.512	87.710	-0.74884	0.61563	-0.22495	-0.09763	30.4	13111	100
2025-3-27 20:28:50.786	WT901BLE68-01(48591DE3C19B)	-0.626	-0.930	0.438	31.921	46.143	-55.420	-81.09	25.48	-15.64	-46.256	-43.512	87.710	-0.74884	0.61563	-0.22495	-0.09763	30.4	13111	100
2025-3-27 20:28:50.786	WT901BLE68-01(48591DE3C19B)	-0.626	-0.749	0.351	19.287	12.085	-44.189	-80.99	25.03	-16.07	-46.256	-43.512	87.710	-0.74884	0.61563	-0.22495	-0.09763	30.4	13111	100
2025-3-27 20:28:50.786	WT901BLE68-01(48591DE3C19B)	-0.560	-0.749	0.351	19.287	12.085	-44.189	-80.86	24.63	-16.30	-46.256	-43.512	87.710	-0.74884	0.61563	-0.22495	-0.09763	30.4	13111	100
2025-3-27 20:28:50.845	WT901BLE68-01(48591DE3C19B)	-0.560	-0.702	0.222	8.972	-23.132	-35.278	-80.69	24.25	-16.31	-58.800	-49.196	79.380	-0.74884	0.61563	-0.22495	-0.09763	30.4	13111	100
2025-3-27 20:28:50.846	WT901BLE68-01(48591DE3C19B)	-0.475	-0.702	0.222	8.972	-23.132	-35.278	-80.50	23.88	-16.13	-58.800	-49.196	79.380	-0.74884	0.61563	-0.22495	-0.09763	30.4	13111	100
2025-3-27 20:28:50.846	WT901BLE68-01(48591DE3C19B)	-0.475	-0.667	0.160	8.057	-37.231	-29.907	-80.28	23.55	-15.87	-58.800	-49.196	79.380	-0.74884	0.61563	-0.22495	-0.09763	30.4	13111	100
2025-3-27 20:28:50.846	WT901BLE68-01(48591DE3C19B)	-0.426	-0.667	0.160	8.057	-37.231	-29.907	-80.04	23.23	-15.53	-58.800	-49.196	79.380	-0.74884	0.61563	-0.22495	-0.09763	30.4	13111	100
2025-3-27 20:28:50.847	WT901BLE68-01(48591DE3C19B)	-0.426	-0.686	0.163	12.573	-20.325	-23.254	-79.81	22.96	-15.27	-58.800	-49.196	79.380	-0.74884	0.61563	-0.22495	-0.09763	30.4	13111	100
2025-3-27 20:28:50.847	WT901BLE68-01(48591DE3C19B)	-0.469	-0.686	0.163	12.573	-20.325	-23.254	-79.60	22.74	-15.10	-58.800	-49.196	79.380	-0.74884	0.61563	-0.22495	-0.09763	30.4	13111	100
2025-3-27 20:28:50.847	WT901BLE68-01(48591DE3C19B)	-0.469	-0.724	0.185	21.423	10.864	-19.165	-79.40	22.56	-15.09	-58.800	-49.196	79.380	-0.74884	0.61563	-0.22495	-0.09763	30.4	13111	100
2025-3-27 20:28:50.847	WT901BLE68-01(48591DE3C19B)	-0.562	-0.724	0.185	21.423	10.864	-19.165	-79.23	22.44	-15.24	-58.800	-49.196	79.380	-0.74884	0.61563	-0.22495	-0.09763	30.4	13111	100
2025-3-27 20:28:50.905	WT901BLE68-01(48591DE3C19B)	-0.562	-0.685	0.203	30.029	28.259	-15.991	-79.04	22.35	-15.48	-58.800	-49.196	79.380	-0.74884	0.61563	-0.22495	-0.09763	30.4	13111	100
2025-3-27 20:28:50.906	WT901BLE68-01(48591DE3C19B)	-0.579	-0.685	0.203	30.029	28.259	-15.991	-78.85	22.30	-15.80	-58.800	-49.196	79.380	-0.74884	0.61563	-0.22495	-0.09763	30.4	13111	100
2025-3-27 20:28:50.906	WT901BLE68-01(48591DE3C19B)	-0.579	-0.615	0.189	33.936	32.959	-9.216	-78.65	22.30	-16.13	-58.800	-49.196	79.380	-0.74884	0.61563	-0.22495	-0.09763	30.4	13111	100
2025-3-27 20:28:50.906	WT901BLE68-01(48591DE3C19B)	-0.550	-0.615	0.189	33.936	32.959	-9.216	-78.43	22.34	-16.47	-58.800	-49.196	79.380	-0.74884	0.61563	-0.22495	-0.09763	30.4	13111	100
2025-3-27 20:28:50.966	WT901BLE68-01(48591DE3C19B)	-0.550	-0.560	0.175	33.752	31.433	1.892	-78.21	22.43	-16.79	-58.800	-49.196	79.380	-0.74884	0.61563	-0.22495	-0.09763	30.4	13111	100
2025-3-27 20:28:50.966	WT901BLE68-01(48591DE3C19B)	-0.512	-0.560	0.175	33.752	31.433	1.892	-77.99	22.59	-17.07	-58.800	-49.196	79.380	-0.74884	0.61563	-0.22495	-0.09763	30.4	13111	100
2025-3-27 20:28:50.966	WT901BLE68-01(48591DE3C19B)	-0.512	-0.499	0.153	26.184	23.682	11.902	-77.78	22.79	-17.30	-58.800	-49.196	79.380	-0.74884	0.61563	-0.22495	-0.09763	30.4	13111	100
2025-3-27 20:28:50.966	WT901BLE68-01(48591DE3C19B)	-0.495	-0.499	0.153	26.184	23.682	11.902	-77.60	23.04	-17.46	-58.800	-49.196	79.380	-0.74884	0.61563	-0.22495	-0.09763	30.4	13111	100
2025-3-27 20:28:50.967	WT901BLE68-01(48591DE3C19B)	-0.495	-0.590	0.118	9.827	12.329	16.113	-77.47	23.29	-17.56	-58.800	-49.196	79.380	-0.74884	0.61563	-0.22495	-0.09763	30.4	13111	100
2025-3-27 20:28:50.967	WT901BLE68-01(48591DE3C19B)	-0.561	-0.590	0.118	9.827	12.329	16.113	-77.40	23.55	-17.59	-58.800	-49.196	79.380	-0.74884	0.61563	-0.22495	-0.09763	30.4	13111	100
2025-3-27 20:28:50.967	WT901BLE68-01(48591DE3C19B)	-0.561	-0.874	0.099	-2.808	-0.854	9.155	-77.38	23.77	-17.56	-58.800	-49.196	79.380	-0.77444	0.57996	-0.25226	-0.01062	30.4	13111	100
2025-3-27 20:28:50.967	WT901BLE68-01(48591DE3C19B)	-0.675	-0.874	0.099	-2.808	-0.854	9.155	-77.40	23.93	-17.47	-58.800	-49.196	79.380	-0.77444	0.57996	-0.25226	-0.01062	30.4	13111	100
2025-3-27 20:28:51.56	WT901BLE68-01(48591DE3C19B)	-0.675	-1.185	0.132	-7.263	-18.616	-0.061	-77.40	24.03	-17.31	-58.800	-49.196	79.380	-0.77444	0.57996	-0.25226	-0.01062	30.4	13111	100
2025-3-27 20:28:51.56	WT901BLE68-01(48591DE3C19B)	-0.748	-1.185	0.132	-7.263	-18.616	-0.061	-77.40	24.05	-17.07	-58.800	-49.196	79.380	-0.77444	0.57996	-0.25226	-0.01062	30.4	13111	100
2025-3-27 20:28:51.56	WT901BLE68-01(48591DE3C19B)	-0.748	-1.503	0.180	-7.874	-36.499	-12.817	-77.38	23.99	-16.76	-58.800	-49.196	79.380	-0.77444	0.57996	-0.25226	-0.01062	30.4	13111	100
2025-3-27 20:28:51.56	WT901BLE68-01(48591DE3C19B)	-0.768	-1.503	0.180	-7.874	-36.499	-12.817	-77.33	23.83	-16.38	-58.800	-49.196	79.380	-0.77444	0.57996	-0.25226	-0.01062	30.4	13111	100
2025-3-27 20:28:51.57	WT901BLE68-01(48591DE3C19B)	-0.768	-1.726	0.223	-4.883	-36.377	-20.264	-77.27	23.64	-16.02	-58.800	-49.196	79.380	-0.77444	0.57996	-0.25226	-0.01062	30.4	13111	100
2025-3-27 20:28:51.57	WT901BLE68-01(48591DE3C19B)	-0.741	-1.726	0.223	-4.883	-36.377	-20.264	-77.21	23.41	-15.69	-58.800	-49.196	79.380	-0.77444	0.57996	-0.25226	-0.01062	30.4	13111	100
2025-3-27 20:28:51.57	WT901BLE68-01(48591DE3C19B)	-0.741	-1.720	0.208	0.000	-35.217	-11.353	-77.11	23.21	-15.35	-58.800	-49.196	79.380	-0.77444	0.57996	-0.25226	-0.01062	30.4	13111	100
2025-3-27 20:28:51.57	WT901BLE68-01(48591DE3C19B)	-0.614	-1.720	0.208	0.000	-35.217	-11.353	-77.00	23.06	-15.03	-58.800	-49.196	79.380	-0.77444	0.57996	-0.25226	-0.01062	30.4	13111	100
2025-3-27 20:28:51.87	WT901BLE68-01(48591DE3C19B)	-0.614	-1.444	0.217	-3.479	-32.898	-1.099	-76.91	22.95	-14.71	-58.800	-49.196	79.380	-0.77444	0.57996	-0.25226	-0.01062	30.4	13111	100
2025-3-27 20:28:51.87	WT901BLE68-01(48591DE3C19B)	-0.481	-1.444	0.217	-3.479	-32.898	-1.099	-76.84	22.90	-14.40	-58.800	-49.196	79.380	-0.77444	0.57996	-0.25226	-0.01062	30.4	13111	100
2025-3-27 20:28:51.87	WT901BLE68-01(48591DE3C19B)	-0.481	-1.343	0.209	-14.832	-25.574	15.137	-76.83	22.92	-14.11	-58.800	-49.196	79.380	-0.77444	0.57996	-0.25226	-0.01062	30.4	13111	100
2025-3-27 20:28:51.88	WT901BLE68-01(48591DE3C19B)	-0.407	-1.343	0.209	-14.832	-25.574	15.137	-76.88	23.03	-13.84	-58.800	-49.196	79.380	-0.77444	0.57996	-0.25226	-0.01062	30.4	13111	100
2025-3-27 20:28:51.147	WT901BLE68-01(48591DE3C19B)	-0.407	-1.273	0.176	-23.499	-16.418	33.875	-76.99	23.24	-13.61	-58.800	-49.196	79.380	-0.77444	0.57996	-0.25226	-0.01062	30.4	13111	100
2025-3-27 20:28:51.147	WT901BLE68-01(48591DE3C19B)	-0.395	-1.273	0.176	-23.499	-16.418	33.875	-77.15	23.54	-13.41	-58.800	-49.196	79.380	-0.77444	0.57996	-0.25226	-0.01062	30.4	13111	100
2025-3-27 20:28:51.147	WT901BLE68-01(48591DE3C19B)	-0.395	-1.105	0.174	-33.081	-20.203	49.805	-77.33	23.91	-13.19	-58.800	-49.196	79.380	-0.77444	0.57996	-0.25226	-0.01062	30.4	13111	100
2025-3-27 20:28:51.147	WT901BLE68-01(48591DE3C19B)	-0.377	-1.105	0.174	-33.081	-20.203	49.805	-77.55	24.35	-12.93	-58.800	-49.196	79.380	-0.77444	0.57996	-0.25226	-0.01062	30.4	13111	100
2025-3-27 20:28:51.206	WT901BLE68-01(48591DE3C19B)	-0.377	-0.972	0.190	-43.640	-32.837	58.838	-77.79	24.82	-12.60	-58.800	-49.196	79.380	-0.77444	0.57996	-0.25226	-0.01062	30.4	13111	100
2025-3-27 20:28:51.206	WT901BLE68-01(48591DE3C19B)	-0.344	-0.972	0.190	-43.640	-32.837	58.838	-78.04	25.32	-12.19	-58.800	-49.196	79.380	-0.77444	0.57996	-0.25226	-0.01062	30.4	13111	100
2025-3-27 20:28:51.206	WT901BLE68-01(48591DE3C19B)	-0.344	-0.904	0.226	-49.316	-37.231	66.711	-78.29	25.85	-11.76	-58.800	-49.196	79.380	-0.77444	0.57996	-0.25226	-0.01062	30.4	13111	100
2025-3-27 20:28:51.206	WT901BLE68-01(48591DE3C19B)	-0.316	-0.904	0.226	-49.316	-37.231	66.711	-78.56	26.41	-11.30	-60.760	-55.272	67.718	-0.77444	0.57996	-0.25226	-0.01062	30.4	13111	100
2025-3-27 20:28:51.207	WT901BLE68-01(48591DE3C19B)	-0.316	-0.897	0.222	-49.194	-37.415	70.984	-78.81	27.00	-10.85	-60.760	-55.272	67.718	-0.77444	0.57996	-0.25226	-0.01062	30.4	13111	100
2025-3-27 20:28:51.207	WT901BLE68-01(48591DE3C19B)	-0.319	-0.897	0.222	-49.194	-37.415	70.984	-79.05	27.60	-10.40	-60.760	-55.272	67.718	-0.77444	0.57996	-0.25226	-0.01062	30.4	13111	100
2025-3-27 20:28:51.207	WT901BLE68-01(48591DE3C19B)	-0.319	-0.872	0.200	-45.166	-30.090	74.402	-79.28	28.23	-10.03	-60.760	-55.272	67.718	-0.77444	0.57996	-0.25226	-0.01062	30.4	13111	100
2025-3-27 20:28:51.207	WT901BLE68-01(48591DE3C19B)	-0.302	-0.872	0.200	-45.166	-30.090	74.402	-79.51	28.87	-9.67	-60.760	-55.272	67.718	-0.77444	0.57996	-0.25226	-0.01062	30.4	13111	100
2025-3-27 20:28:51.267	WT901BLE68-01(48591DE3C19B)	-0.302	-0.800	0.152	-40.894	-25.757	74.829	-79.71	29.51	-9.36	-60.760	-55.272	67.718	-0.77444	0.57996	-0.25226	-0.01062	30.4	13111	100
2025-3-27 20:28:51.267	WT901BLE68-01(48591DE3C19B)	-0.264	-0.800	0.152	-40.894	-25.757	74.829	-79.90	30.16	-9.06	-60.760	-55.272	67.718	-0.77444	0.57996	-0.25226	-0.01062	30.4	13111	100
2025-3-27 20:28:51.267	WT901BLE68-01(48591DE3C19B)	-0.264	-0.729	0.121	-38.940	-21.118	74.463	-80.11	30.80	-8.82	-60.760	-55.272	67.718	-0.77444	0.57996	-0.25226	-0.01062	30.4	13111	100
2025-3-27 20:28:51.268	WT901BLE68-01(48591DE3C19B)	-0.252	-0.729	0.121	-38.940	-21.118	74.463	-80.30	31.44	-8.58	-60.760	-55.272	67.718	-0.77444	0.57996	-0.25226	-0.01062	30.4	13111	100
2025-3-27 20:28:51.295	WT901BLE68-01(48591DE3C19B)	-0.252	-0.702	0.118	-37.598	-16.357	71.716	-80.52	32.05	-8.42	-60.760	-55.272	67.718	-0.77444	0.57996	-0.25226	-0.01062	30.4	13111	100
2025-3-27 20:28:51.295	WT901BLE68-01(48591DE3C19B)	-0.273	-0.702	0.118	-37.598	-16.357	71.716	-80.73	32.67	-8.25	-60.760	-55.272	67.718	-0.77444	0.57996	-0.25226	-0.01062	30.4	13111	100
2025-3-27 20:28:51.295	WT901BLE68-01(48591DE3C19B)	-0.273	-0.712	0.122	-35.645	-17.395	66.406	-80.92	33.22	-8.10	-60.760	-55.272	67.718	-0.77444	0.57996	-0.25226	-0.01062	30.4	13111	100
2025-3-27 20:28:51.295	WT901BLE68-01(48591DE3C19B)	-0.292	-0.712	0.122	-35.645	-17.395	66.406	-81.11	33.78	-7.94	-60.760	-55.272	67.718	-0.77444	0.57996	-0.25226	-0.01062	30.4	13111	100
2025-3-27 20:28:51.325	WT901BLE68-01(48591DE3C19B)	-0.292	-0.720	0.123	-32.471	-23.193	59.570	-81.23	34.25	-7.74	-60.760	-55.272	67.718	-0.77444	0.57996	-0.25226	-0.01062	30.4	13111	100
2025-3-27 20:28:51.326	WT901BLE68-01(48591DE3C19B)	-0.303	-0.720	0.123	-32.471	-23.193	59.570	-81.35	34.72	-7.54	-60.760	-55.272	67.718	-0.77444	0.57996	-0.25226	-0.01062	30.4	13111	100
2025-3-27 20:28:51.326	WT901BLE68-01(48591DE3C19B)	-0.303	-0.722	0.139	-28.198	-29.053	50.476	-81.40	35.10	-7.28	-60.760	-55.272	67.718	-0.77444	0.57996	-0.25226	-0.01062	30.4	13111	100
2025-3-27 20:28:51.326	WT901BLE68-01(48591DE3C19B)	-0.311	-0.722	0.139	-28.198	-29.053	50.476	-81.44	35.47	-7.04	-60.760	-55.272	67.718	-0.77444	0.57996	-0.25226	-0.01062	30.4	13111	100
