time	DeviceName	AccX(g)	AccY(g)	AccZ(g)	AsX(°/s)	AsY(°/s)	AsZ(°/s)	AngleX(°)	AngleY(°)	AngleZ(°)	HX(uT)	HY(uT)	HZ(uT)	Q0()	Q1()	Q2()	Q3()	Temperature(°C)	Version()	Battery level(%)
2025-3-27 20:6:31.693	WT901BLE68-01(48591DE3C19B)	-0.352	-0.883	0.276	-5.737	0.977	-5.554	-73.64	23.69	-20.42	-44.002	-23.716	85.848	0.79187	-0.55969	0.23938	-0.04761	25.4	13111	100
2025-3-27 20:6:31.693	WT901BLE68-01(48591DE3C19B)	-0.352	-0.882	0.279	-6.226	0.549	-7.141	-73.71	23.59	-20.44	-44.002	-23.716	85.848	0.79187	-0.55969	0.23938	-0.04761	25.4	13111	100
2025-3-27 20:6:31.693	WT901BLE68-01(48591DE3C19B)	-0.359	-0.882	0.279	-6.226	0.549	-7.141	-73.78	23.49	-20.46	-44.002	-23.716	85.848	0.79187	-0.55969	0.23938	-0.04761	25.4	13111	100
2025-3-27 20:6:31.693	WT901BLE68-01(48591DE3C19B)	-0.359	-0.883	0.280	-6.897	-0.671	-9.338	-73.86	23.38	-20.47	-44.002	-23.716	85.848	0.79187	-0.55969	0.23938	-0.04761	25.4	13111	100
2025-3-27 20:6:31.723	WT901BLE68-01(48591DE3C19B)	-0.355	-0.883	0.280	-6.897	-0.671	-9.338	-73.93	23.26	-20.48	-44.002	-23.716	85.848	0.79187	-0.55969	0.23938	-0.04761	25.4	13111	100
2025-3-27 20:6:31.723	WT901BLE68-01(48591DE3C19B)	-0.355	-0.886	0.283	-6.531	-0.244	-11.475	-74.00	23.13	-20.50	-44.002	-23.716	85.848	0.79187	-0.55969	0.23938	-0.04761	25.4	13111	100
2025-3-27 20:6:31.724	WT901BLE68-01(48591DE3C19B)	-0.356	-0.886	0.283	-6.531	-0.244	-11.475	-74.07	23.01	-20.52	-44.002	-23.716	85.848	0.79187	-0.55969	0.23938	-0.04761	25.4	13111	100
2025-3-27 20:6:31.724	WT901BLE68-01(48591DE3C19B)	-0.356	-0.880	0.288	-5.920	0.977	-13.489	-74.14	22.86	-20.56	-44.002	-23.716	85.848	0.79080	-0.55310	0.26102	-0.02200	25.4	13111	100
2025-3-27 20:6:31.754	WT901BLE68-01(48591DE3C19B)	-0.359	-0.880	0.288	-5.920	0.977	-13.489	-74.21	22.71	-20.59	-44.002	-23.716	85.848	0.79080	-0.55310	0.26102	-0.02200	25.4	13111	100
2025-3-27 20:6:31.754	WT901BLE68-01(48591DE3C19B)	-0.359	-0.879	0.291	-5.554	2.258	-15.381	-74.28	22.56	-20.65	-44.002	-23.716	85.848	0.79080	-0.55310	0.26102	-0.02200	25.4	13111	100
2025-3-27 20:6:31.754	WT901BLE68-01(48591DE3C19B)	-0.363	-0.879	0.291	-5.554	2.258	-15.381	-74.35	22.40	-20.70	-44.002	-23.716	85.848	0.79080	-0.55310	0.26102	-0.02200	25.4	13111	100
2025-3-27 20:6:31.754	WT901BLE68-01(48591DE3C19B)	-0.363	-0.878	0.290	-5.066	3.601	-17.029	-74.42	22.24	-20.77	-44.002	-23.716	85.848	0.79080	-0.55310	0.26102	-0.02200	25.4	13111	100
2025-3-27 20:6:31.811	WT901BLE68-01(48591DE3C19B)	-0.367	-0.878	0.290	-5.066	3.601	-17.029	-74.49	22.07	-20.84	-44.002	-23.716	85.848	0.79080	-0.55310	0.26102	-0.02200	25.4	13111	100
2025-3-27 20:6:31.812	WT901BLE68-01(48591DE3C19B)	-0.367	-0.887	0.286	-4.822	4.150	-18.921	-74.56	21.90	-20.92	-44.002	-23.716	85.848	0.79080	-0.55310	0.26102	-0.02200	25.4	13111	100
2025-3-27 20:6:31.812	WT901BLE68-01(48591DE3C19B)	-0.374	-0.887	0.286	-4.822	4.150	-18.921	-74.63	21.71	-21.00	-44.002	-23.716	85.848	0.79080	-0.55310	0.26102	-0.02200	25.4	13111	100
2025-3-27 20:6:31.812	WT901BLE68-01(48591DE3C19B)	-0.374	-0.888	0.286	-4.395	3.357	-20.691	-74.70	21.52	-21.08	-44.002	-23.716	85.848	0.79080	-0.55310	0.26102	-0.02200	25.4	13111	100
2025-3-27 20:6:31.840	WT901BLE68-01(48591DE3C19B)	-0.377	-0.888	0.286	-4.395	3.357	-20.691	-74.76	21.33	-21.15	-44.002	-23.716	85.848	0.79080	-0.55310	0.26102	-0.02200	25.4	13111	100
2025-3-27 20:6:31.841	WT901BLE68-01(48591DE3C19B)	-0.377	-0.888	0.286	-4.395	1.221	-22.400	-74.82	21.12	-21.20	-44.002	-23.716	85.848	0.79080	-0.55310	0.26102	-0.02200	25.4	13111	100
2025-3-27 20:6:31.841	WT901BLE68-01(48591DE3C19B)	-0.376	-0.888	0.286	-4.395	1.221	-22.400	-74.87	20.90	-21.26	-44.002	-23.716	85.848	0.79080	-0.55310	0.26102	-0.02200	25.4	13111	100
2025-3-27 20:6:31.841	WT901BLE68-01(48591DE3C19B)	-0.378	-0.887	0.282	-4.211	-0.549	-24.048	-74.92	20.67	-21.30	-44.002	-23.716	85.848	0.79080	-0.55310	0.26102	-0.02200	25.4	13111	100
2025-3-27 20:6:31.931	WT901BLE68-01(48591DE3C19B)	-0.378	-0.893	0.280	-4.211	-2.502	-25.452	-74.96	20.43	-21.33	-44.002	-23.716	85.848	0.79080	-0.55310	0.26102	-0.02200	25.4	13111	100
2025-3-27 20:6:31.932	WT901BLE68-01(48591DE3C19B)	-0.384	-0.893	0.280	-4.211	-2.502	-25.452	-75.00	20.19	-21.35	-44.002	-23.716	85.848	0.79080	-0.55310	0.26102	-0.02200	25.4	13111	100
2025-3-27 20:6:31.932	WT901BLE68-01(48591DE3C19B)	-0.384	-0.902	0.291	-4.089	-5.493	-26.245	-75.04	19.93	-21.36	-44.002	-23.716	85.848	0.79080	-0.55310	0.26102	-0.02200	25.4	13111	100
2025-3-27 20:6:31.932	WT901BLE68-01(48591DE3C19B)	-0.389	-0.902	0.291	-4.089	-5.493	-26.245	-75.07	19.68	-21.35	-44.002	-23.716	85.848	0.79080	-0.55310	0.26102	-0.02200	25.4	13111	100
2025-3-27 20:6:31.963	WT901BLE68-01(48591DE3C19B)	-0.389	-0.909	0.303	-4.456	-10.071	-26.123	-75.09	19.42	-21.32	-44.002	-23.716	85.848	0.79080	-0.55310	0.26102	-0.02200	25.4	13111	100
2025-3-27 20:6:31.963	WT901BLE68-01(48591DE3C19B)	-0.384	-0.909	0.303	-4.456	-10.071	-26.123	-75.11	19.15	-21.26	-44.002	-23.716	85.848	0.79080	-0.55310	0.26102	-0.02200	25.4	13111	100
2025-3-27 20:6:31.963	WT901BLE68-01(48591DE3C19B)	-0.384	-0.924	0.312	-4.395	-13.855	-25.085	-75.12	18.90	-21.19	-44.002	-23.716	85.848	0.79080	-0.55310	0.26102	-0.02200	25.4	13111	100
2025-3-27 20:6:31.963	WT901BLE68-01(48591DE3C19B)	-0.375	-0.924	0.312	-4.395	-13.855	-25.085	-75.12	18.63	-21.09	-44.002	-23.716	85.848	0.79080	-0.55310	0.26102	-0.02200	25.4	13111	100
2025-3-27 20:6:31.964	WT901BLE68-01(48591DE3C19B)	-0.375	-0.926	0.311	-2.625	-14.832	-23.254	-75.11	18.39	-20.99	-44.002	-23.716	85.848	0.79080	-0.55310	0.26102	-0.02200	25.4	13111	100
2025-3-27 20:6:31.964	WT901BLE68-01(48591DE3C19B)	-0.357	-0.926	0.311	-2.625	-14.832	-23.254	-75.10	18.14	-20.88	-44.002	-23.716	85.848	0.79080	-0.55310	0.26102	-0.02200	25.4	13111	100
2025-3-27 20:6:31.964	WT901BLE68-01(48591DE3C19B)	-0.357	-0.914	0.303	-1.038	-14.160	-21.301	-75.07	17.91	-20.77	-44.002	-23.716	85.848	0.79080	-0.55310	0.26102	-0.02200	25.4	13111	100
2025-3-27 20:6:31.964	WT901BLE68-01(48591DE3C19B)	-0.347	-0.914	0.303	-1.038	-14.160	-21.301	-75.03	17.69	-20.67	-44.198	-23.814	86.240	0.79080	-0.55310	0.26102	-0.02200	25.4	13111	100
2025-3-27 20:6:32.83	WT901BLE68-01(48591DE3C19B)	-0.347	-0.912	0.299	1.160	-10.925	-19.470	-74.99	17.48	-20.58	-44.198	-23.814	86.240	0.79080	-0.55310	0.26102	-0.02200	25.4	13111	100
2025-3-27 20:6:32.83	WT901BLE68-01(48591DE3C19B)	-0.353	-0.912	0.299	1.160	-10.925	-19.470	-74.95	17.29	-20.50	-44.198	-23.814	86.240	0.79080	-0.55310	0.26102	-0.02200	25.4	13111	100
2025-3-27 20:6:32.83	WT901BLE68-01(48591DE3C19B)	-0.353	-0.915	0.303	3.784	-6.836	-17.273	-74.89	17.11	-20.45	-44.198	-23.814	86.240	0.79080	-0.55310	0.26102	-0.02200	25.4	13111	100
2025-3-27 20:6:32.83	WT901BLE68-01(48591DE3C19B)	-0.352	-0.915	0.303	3.784	-6.836	-17.273	-74.83	16.95	-20.41	-44.198	-23.814	86.240	0.79080	-0.55310	0.26102	-0.02200	25.4	13111	100
2025-3-27 20:6:32.114	WT901BLE68-01(48591DE3C19B)	-0.352	-0.917	0.306	6.287	-2.991	-14.404	-74.76	16.81	-20.39	-44.198	-23.814	86.240	0.79080	-0.55310	0.26102	-0.02200	25.4	13111	100
2025-3-27 20:6:32.114	WT901BLE68-01(48591DE3C19B)	-0.342	-0.917	0.306	6.287	-2.991	-14.404	-74.69	16.69	-20.38	-44.198	-23.814	86.240	0.79080	-0.55310	0.26102	-0.02200	25.4	13111	100
2025-3-27 20:6:32.114	WT901BLE68-01(48591DE3C19B)	-0.342	-0.913	0.296	8.972	1.709	-10.864	-74.60	16.59	-20.39	-44.198	-23.814	86.240	0.79080	-0.55310	0.26102	-0.02200	25.4	13111	100
2025-3-27 20:6:32.114	WT901BLE68-01(48591DE3C19B)	-0.333	-0.913	0.296	8.972	1.709	-10.864	-74.51	16.51	-20.42	-44.198	-23.814	86.240	0.79080	-0.55310	0.26102	-0.02200	25.4	13111	100
2025-3-27 20:6:32.115	WT901BLE68-01(48591DE3C19B)	-0.333	-0.910	0.283	11.353	6.836	-7.080	-74.41	16.46	-20.48	-44.198	-23.814	86.240	0.79080	-0.55310	0.26102	-0.02200	25.4	13111	100
2025-3-27 20:6:32.115	WT901BLE68-01(48591DE3C19B)	-0.335	-0.910	0.283	11.353	6.836	-7.080	-74.31	16.44	-20.55	-44.198	-23.814	86.240	0.79080	-0.55310	0.26102	-0.02200	25.4	13111	100
2025-3-27 20:6:32.115	WT901BLE68-01(48591DE3C19B)	-0.335	-0.904	0.276	13.245	11.169	-3.113	-74.20	16.44	-20.64	-44.198	-23.814	86.240	0.79080	-0.55310	0.26102	-0.02200	25.4	13111	100
2025-3-27 20:6:32.115	WT901BLE68-01(48591DE3C19B)	-0.335	-0.904	0.276	13.245	11.169	-3.113	-74.09	16.46	-20.75	-44.198	-23.814	86.240	0.79080	-0.55310	0.26102	-0.02200	25.4	13111	100
2025-3-27 20:6:32.115	WT901BLE68-01(48591DE3C19B)	-0.335	-0.892	0.268	14.465	13.550	0.854	-73.98	16.51	-20.86	-44.198	-23.814	86.240	0.79080	-0.55310	0.26102	-0.02200	25.4	13111	100
2025-3-27 20:6:32.116	WT901BLE68-01(48591DE3C19B)	-0.335	-0.892	0.268	14.465	13.550	0.854	-73.86	16.57	-20.98	-44.198	-23.814	86.240	0.79080	-0.55310	0.26102	-0.02200	25.4	13111	100
2025-3-27 20:6:32.116	WT901BLE68-01(48591DE3C19B)	-0.335	-0.879	0.258	14.526	13.794	4.639	-73.75	16.66	-21.09	-44.198	-23.814	86.240	0.79080	-0.55310	0.26102	-0.02200	25.4	13111	100
2025-3-27 20:6:32.116	WT901BLE68-01(48591DE3C19B)	-0.333	-0.879	0.258	14.526	13.794	4.639	-73.63	16.76	-21.20	-44.198	-23.814	86.240	0.79080	-0.55310	0.26102	-0.02200	25.4	13111	100
2025-3-27 20:6:32.171	WT901BLE68-01(48591DE3C19B)	-0.333	-0.878	0.253	13.855	12.268	7.813	-73.52	16.88	-21.30	-44.198	-23.814	86.240	0.79080	-0.55310	0.26102	-0.02200	25.4	13111	100
2025-3-27 20:6:32.171	WT901BLE68-01(48591DE3C19B)	-0.328	-0.878	0.253	13.855	12.268	7.813	-73.41	17.01	-21.38	-44.198	-23.814	86.240	0.79550	-0.55881	0.22617	-0.06027	25.4	13111	100
2025-3-27 20:6:32.171	WT901BLE68-01(48591DE3C19B)	-0.328	-0.878	0.254	13.062	10.132	10.437	-73.29	17.14	-21.46	-44.198	-23.814	86.240	0.79550	-0.55881	0.22617	-0.06027	25.4	13111	100
2025-3-27 20:6:32.171	WT901BLE68-01(48591DE3C19B)	-0.316	-0.878	0.254	13.062	10.132	10.437	-73.18	17.29	-21.51	-44.198	-23.814	86.240	0.79550	-0.55881	0.22617	-0.06027	25.4	13111	100
2025-3-27 20:6:32.200	WT901BLE68-01(48591DE3C19B)	-0.316	-0.875	0.254	12.146	9.094	12.634	-73.08	17.44	-21.56	-44.198	-23.814	86.240	0.79550	-0.55881	0.22617	-0.06027	25.4	13111	100
2025-3-27 20:6:32.201	WT901BLE68-01(48591DE3C19B)	-0.300	-0.875	0.254	12.146	9.094	12.634	-72.97	17.61	-21.59	-44.198	-23.814	86.240	0.79550	-0.55881	0.22617	-0.06027	25.4	13111	100
2025-3-27 20:6:32.201	WT901BLE68-01(48591DE3C19B)	-0.300	-0.888	0.256	11.230	10.132	14.221	-72.87	17.78	-21.64	-44.198	-23.814	86.240	0.79550	-0.55881	0.22617	-0.06027	25.4	13111	100
2025-3-27 20:6:32.201	WT901BLE68-01(48591DE3C19B)	-0.292	-0.888	0.256	11.230	10.132	14.221	-72.78	17.95	-21.68	-44.198	-23.814	86.240	0.79550	-0.55881	0.22617	-0.06027	25.4	13111	100
2025-3-27 20:6:32.264	WT901BLE68-01(48591DE3C19B)	-0.292	-0.909	0.259	11.902	13.672	15.564	-72.69	18.13	-21.74	-44.198	-23.814	86.240	0.79550	-0.55881	0.22617	-0.06027	25.4	13111	100
2025-3-27 20:6:32.264	WT901BLE68-01(48591DE3C19B)	-0.285	-0.909	0.259	11.902	13.672	15.564	-72.60	18.33	-21.82	-44.198	-23.814	86.240	0.79550	-0.55881	0.22617	-0.06027	25.4	13111	100
2025-3-27 20:6:32.264	WT901BLE68-01(48591DE3C19B)	-0.285	-0.906	0.257	11.597	17.334	16.907	-72.53	18.53	-21.91	-44.198	-23.814	86.240	0.79550	-0.55881	0.22617	-0.06027	25.4	13111	100
2025-3-27 20:6:32.264	WT901BLE68-01(48591DE3C19B)	-0.272	-0.906	0.257	11.597	17.334	16.907	-72.45	18.75	-22.02	-44.198	-23.814	86.240	0.79550	-0.55881	0.22617	-0.06027	25.4	13111	100
2025-3-27 20:6:32.293	WT901BLE68-01(48591DE3C19B)	-0.272	-0.898	0.253	10.681	22.583	17.822	-72.39	18.97	-22.16	-44.198	-23.814	86.240	0.79550	-0.55881	0.22617	-0.06027	25.4	13111	100
2025-3-27 20:6:32.293	WT901BLE68-01(48591DE3C19B)	-0.282	-0.898	0.253	10.681	22.583	17.822	-72.35	19.20	-22.32	-44.198	-23.814	86.240	0.79550	-0.55881	0.22617	-0.06027	25.4	13111	100
2025-3-27 20:6:32.293	WT901BLE68-01(48591DE3C19B)	-0.282	-0.898	0.253	7.996	26.917	17.456	-72.33	19.44	-22.51	-44.198	-23.814	86.240	0.79550	-0.55881	0.22617	-0.06027	25.4	13111	100
2025-3-27 20:6:32.293	WT901BLE68-01(48591DE3C19B)	-0.296	-0.898	0.253	7.996	26.917	17.456	-72.33	19.68	-22.71	-44.198	-23.814	86.240	0.79550	-0.55881	0.22617	-0.06027	25.4	13111	100
2025-3-27 20:6:32.323	WT901BLE68-01(48591DE3C19B)	-0.296	-0.921	0.266	3.540	28.320	14.771	-72.36	19.91	-22.93	-44.198	-23.814	86.240	0.79550	-0.55881	0.22617	-0.06027	25.4	13111	100
2025-3-27 20:6:32.323	WT901BLE68-01(48591DE3C19B)	-0.320	-0.921	0.266	3.540	28.320	14.771	-72.42	20.12	-23.16	-44.198	-23.814	86.240	0.79550	-0.55881	0.22617	-0.06027	25.4	13111	100
2025-3-27 20:6:32.323	WT901BLE68-01(48591DE3C19B)	-0.320	-0.963	0.287	-0.488	26.978	9.460	-72.51	20.28	-23.40	-46.452	-21.070	86.632	0.79550	-0.55881	0.22617	-0.06027	25.4	13111	100
2025-3-27 20:6:32.323	WT901BLE68-01(48591DE3C19B)	-0.348	-0.963	0.287	-0.488	26.978	9.460	-72.61	20.43	-23.63	-46.452	-21.070	86.632	0.79550	-0.55881	0.22617	-0.06027	25.4	13111	100
2025-3-27 20:6:32.382	WT901BLE68-01(48591DE3C19B)	-0.348	-0.980	0.317	-3.052	22.766	2.563	-72.72	20.51	-23.83	-46.452	-21.070	86.632	0.79550	-0.55881	0.22617	-0.06027	25.4	13111	100
2025-3-27 20:6:32.382	WT901BLE68-01(48591DE3C19B)	-0.351	-0.980	0.317	-3.052	22.766	2.563	-72.83	20.58	-24.05	-46.452	-21.070	86.632	0.79550	-0.55881	0.22617	-0.06027	25.4	13111	100
2025-3-27 20:6:32.382	WT901BLE68-01(48591DE3C19B)	-0.351	-0.934	0.340	-4.211	18.921	-3.906	-72.95	20.59	-24.24	-46.452	-21.070	86.632	0.79550	-0.55881	0.22617	-0.06027	25.4	13111	100
2025-3-27 20:6:32.382	WT901BLE68-01(48591DE3C19B)	-0.348	-0.934	0.340	-4.211	18.921	-3.906	-73.06	20.59	-24.43	-46.452	-21.070	86.632	0.79550	-0.55881	0.22617	-0.06027	25.4	13111	100
2025-3-27 20:6:32.410	WT901BLE68-01(48591DE3C19B)	-0.348	-0.837	0.345	-5.127	16.479	-8.911	-73.18	20.54	-24.60	-46.452	-21.070	86.632	0.79550	-0.55881	0.22617	-0.06027	25.4	13111	100
2025-3-27 20:6:32.410	WT901BLE68-01(48591DE3C19B)	-0.342	-0.837	0.345	-5.127	16.479	-8.911	-73.29	20.49	-24.78	-46.452	-21.070	86.632	0.79550	-0.55881	0.22617	-0.06027	25.4	13111	100
2025-3-27 20:6:32.410	WT901BLE68-01(48591DE3C19B)	-0.342	-0.759	0.339	-6.775	15.198	-12.451	-73.42	20.41	-24.95	-46.452	-21.070	86.632	0.79550	-0.55881	0.22617	-0.06027	25.4	13111	100
2025-3-27 20:6:32.410	WT901BLE68-01(48591DE3C19B)	-0.341	-0.759	0.339	-6.775	15.198	-12.451	-73.53	20.32	-25.12	-46.452	-21.070	86.632	0.79550	-0.55881	0.22617	-0.06027	25.4	13111	100
2025-3-27 20:6:32.441	WT901BLE68-01(48591DE3C19B)	-0.341	-0.720	0.326	-8.484	14.832	-15.442	-73.67	20.22	-25.29	-46.452	-21.070	86.632	0.79550	-0.55881	0.22617	-0.06027	25.4	13111	100
2025-3-27 20:6:32.441	WT901BLE68-01(48591DE3C19B)	-0.361	-0.720	0.326	-8.484	14.832	-15.442	-73.80	20.11	-25.46	-46.452	-21.070	86.632	0.79550	-0.55881	0.22617	-0.06027	25.4	13111	100
2025-3-27 20:6:32.441	WT901BLE68-01(48591DE3C19B)	-0.361	-0.723	0.322	-9.460	14.709	-19.104	-73.94	19.97	-25.64	-46.452	-21.070	86.632	0.79550	-0.55881	0.22617	-0.06027	25.4	13111	100
2025-3-27 20:6:32.441	WT901BLE68-01(48591DE3C19B)	-0.392	-0.723	0.322	-9.460	14.709	-19.104	-74.08	19.84	-25.81	-46.452	-21.070	86.632	0.79550	-0.55881	0.22617	-0.06027	25.4	13111	100
2025-3-27 20:6:32.503	WT901BLE68-01(48591DE3C19B)	-0.392	-0.739	0.329	-9.338	11.719	-23.071	-74.20	19.65	-25.96	-46.452	-21.070	86.632	0.79550	-0.55881	0.22617	-0.06027	25.4	13111	100
2025-3-27 20:6:32.503	WT901BLE68-01(48591DE3C19B)	-0.413	-0.739	0.329	-9.338	11.719	-23.071	-74.33	19.48	-26.11	-46.452	-21.070	86.632	0.79550	-0.55881	0.22617	-0.06027	25.4	13111	100
2025-3-27 20:6:32.503	WT901BLE68-01(48591DE3C19B)	-0.413	-0.754	0.337	-8.728	6.348	-26.611	-74.43	19.26	-26.21	-46.452	-21.070	86.632	0.79550	-0.55881	0.22617	-0.06027	25.4	13111	100
2025-3-27 20:6:32.503	WT901BLE68-01(48591DE3C19B)	-0.420	-0.754	0.337	-8.728	6.348	-26.611	-74.53	19.04	-26.31	-46.452	-21.070	86.632	0.79550	-0.55881	0.22617	-0.06027	25.4	13111	100
2025-3-27 20:6:32.533	WT901BLE68-01(48591DE3C19B)	-0.420	-0.764	0.339	-7.751	1.587	-29.602	-74.60	18.79	-26.36	-46.452	-21.070	86.632	0.79550	-0.55881	0.22617	-0.06027	25.4	13111	100
2025-3-27 20:6:32.533	WT901BLE68-01(48591DE3C19B)	-0.409	-0.764	0.339	-7.751	1.587	-29.602	-74.67	18.53	-26.42	-46.452	-21.070	86.632	0.79550	-0.55881	0.22617	-0.06027	25.4	13111	100
2025-3-27 20:6:32.533	WT901BLE68-01(48591DE3C19B)	-0.409	-0.762	0.340	-7.629	-0.305	-31.799	-74.73	18.26	-26.46	-46.452	-21.070	86.632	0.79550	-0.55881	0.22617	-0.06027	25.4	13111	100
2025-3-27 20:6:32.533	WT901BLE68-01(48591DE3C19B)	-0.398	-0.762	0.340	-7.629	-0.305	-31.799	-74.80	18.00	-26.49	-46.452	-21.070	86.632	0.78528	-0.55594	0.25769	-0.08817	25.4	13111	100
2025-3-27 20:6:32.564	WT901BLE68-01(48591DE3C19B)	-0.398	-0.756	0.345	-8.057	1.770	-32.654	-74.87	17.72	-26.55	-46.452	-21.070	86.632	0.78528	-0.55594	0.25769	-0.08817	25.4	13111	100
2025-3-27 20:6:32.564	WT901BLE68-01(48591DE3C19B)	-0.410	-0.756	0.345	-8.057	1.770	-32.654	-74.94	17.46	-26.61	-46.452	-21.070	86.632	0.78528	-0.55594	0.25769	-0.08817	25.4	13111	100
2025-3-27 20:6:32.564	WT901BLE68-01(48591DE3C19B)	-0.410	-0.752	0.346	-8.850	3.540	-32.166	-75.03	17.20	-26.68	-46.452	-21.070	86.632	0.78528	-0.55594	0.25769	-0.08817	25.4	13111	100
2025-3-27 20:6:32.564	WT901BLE68-01(48591DE3C19B)	-0.425	-0.752	0.346	-8.850	3.540	-32.166	-75.10	16.95	-26.75	-46.452	-21.070	86.632	0.78528	-0.55594	0.25769	-0.08817	25.4	13111	100
2025-3-27 20:6:32.621	WT901BLE68-01(48591DE3C19B)	-0.425	-0.722	0.338	-10.132	0.610	-29.846	-75.18	16.71	-26.78	-46.452	-21.070	86.632	0.78528	-0.55594	0.25769	-0.08817	25.4	13111	100
2025-3-27 20:6:32.621	WT901BLE68-01(48591DE3C19B)	-0.427	-0.722	0.338	-10.132	0.610	-29.846	-75.26	16.48	-26.81	-46.452	-21.070	86.632	0.78528	-0.55594	0.25769	-0.08817	25.4	13111	100
2025-3-27 20:6:32.621	WT901BLE68-01(48591DE3C19B)	-0.427	-0.684	0.321	-11.841	-5.615	-25.696	-75.34	16.28	-26.77	-46.452	-21.070	86.632	0.78528	-0.55594	0.25769	-0.08817	25.4	13111	100
2025-3-27 20:6:32.622	WT901BLE68-01(48591DE3C19B)	-0.418	-0.684	0.321	-11.841	-5.615	-25.696	-75.41	16.08	-26.72	-46.452	-21.070	86.632	0.78528	-0.55594	0.25769	-0.08817	25.4	13111	100
2025-3-27 20:6:32.651	WT901BLE68-01(48591DE3C19B)	-0.418	-0.647	0.307	-13.062	-13.000	-20.081	-75.48	15.92	-26.58	-46.452	-21.070	86.632	0.78528	-0.55594	0.25769	-0.08817	25.4	13111	100
2025-3-27 20:6:32.652	WT901BLE68-01(48591DE3C19B)	-0.400	-0.647	0.307	-13.062	-13.000	-20.081	-75.54	15.76	-26.44	-46.452	-21.070	86.632	0.78528	-0.55594	0.25769	-0.08817	25.4	13111	100
2025-3-27 20:6:32.652	WT901BLE68-01(48591DE3C19B)	-0.400	-0.603	0.294	-13.550	-20.508	-13.245	-75.57	15.66	-26.21	-46.452	-21.070	86.632	0.78528	-0.55594	0.25769	-0.08817	25.4	13111	100
2025-3-27 20:6:32.652	WT901BLE68-01(48591DE3C19B)	-0.367	-0.603	0.294	-13.550	-20.508	-13.245	-75.61	15.55	-25.97	-46.452	-21.070	86.632	0.78528	-0.55594	0.25769	-0.08817	25.4	13111	100
2025-3-27 20:6:32.681	WT901BLE68-01(48591DE3C19B)	-0.367	-0.549	0.277	-13.794	-26.245	-5.676	-75.64	15.51	-25.66	-46.452	-21.070	86.632	0.78528	-0.55594	0.25769	-0.08817	25.4	13111	100
2025-3-27 20:6:32.682	WT901BLE68-01(48591DE3C19B)	-0.337	-0.549	0.277	-13.794	-26.245	-5.676	-75.65	15.47	-25.35	-46.452	-21.070	86.632	0.78528	-0.55594	0.25769	-0.08817	25.4	13111	100
2025-3-27 20:6:32.682	WT901BLE68-01(48591DE3C19B)	-0.337	-0.519	0.255	-14.282	-27.893	0.854	-75.67	15.49	-25.00	-46.452	-21.070	86.632	0.78528	-0.55594	0.25769	-0.08817	25.4	13111	100
2025-3-27 20:6:32.682	WT901BLE68-01(48591DE3C19B)	-0.326	-0.519	0.255	-14.282	-27.893	0.854	-75.68	15.51	-24.65	-46.452	-21.070	86.632	0.78528	-0.55594	0.25769	-0.08817	25.4	13111	100
2025-3-27 20:6:32.741	WT901BLE68-01(48591DE3C19B)	-0.326	-0.529	0.230	-14.893	-27.649	4.761	-75.70	15.57	-24.30	-46.452	-21.070	86.632	0.78528	-0.55594	0.25769	-0.08817	25.4	13111	100
2025-3-27 20:6:32.742	WT901BLE68-01(48591DE3C19B)	-0.326	-0.529	0.230	-14.893	-27.649	4.761	-75.72	15.63	-23.95	-46.452	-21.070	86.632	0.78528	-0.55594	0.25769	-0.08817	25.4	13111	100
2025-3-27 20:6:32.742	WT901BLE68-01(48591DE3C19B)	-0.326	-0.586	0.211	-15.747	-26.978	4.395	-75.75	15.69	-23.60	-46.452	-21.070	86.632	0.78528	-0.55594	0.25769	-0.08817	25.4	13111	100
2025-3-27 20:6:32.742	WT901BLE68-01(48591DE3C19B)	-0.342	-0.586	0.211	-15.747	-26.978	4.395	-75.78	15.74	-23.26	-46.452	-21.070	86.632	0.78528	-0.55594	0.25769	-0.08817	25.4	13111	100
2025-3-27 20:6:32.770	WT901BLE68-01(48591DE3C19B)	-0.342	-0.688	0.210	-16.785	-26.978	-1.099	-75.83	15.75	-22.93	-46.354	-22.344	87.122	0.78528	-0.55594	0.25769	-0.08817	25.4	13111	100
2025-3-27 20:6:32.770	WT901BLE68-01(48591DE3C19B)	-0.362	-0.688	0.210	-16.785	-26.978	-1.099	-75.89	15.75	-22.61	-46.354	-22.344	87.122	0.78528	-0.55594	0.25769	-0.08817	25.4	13111	100
2025-3-27 20:6:32.770	WT901BLE68-01(48591DE3C19B)	-0.376	-0.833	0.233	-16.418	-25.574	-10.803	-75.95	15.66	-22.33	-46.354	-22.344	87.122	0.78528	-0.55594	0.25769	-0.08817	25.4	13111	100
2025-3-27 20:6:32.771	WT901BLE68-01(48591DE3C19B)	-0.376	-0.965	0.275	-11.780	-17.334	-20.569	-76.01	15.52	-22.10	-46.354	-22.344	87.122	0.78528	-0.55594	0.25769	-0.08817	25.4	13111	100
2025-3-27 20:6:32.802	WT901BLE68-01(48591DE3C19B)	-0.365	-0.965	0.275	-11.780	-17.334	-20.569	-76.06	15.35	-21.94	-46.354	-22.344	87.122	0.78528	-0.55594	0.25769	-0.08817	25.4	13111	100
2025-3-27 20:6:32.802	WT901BLE68-01(48591DE3C19B)	-0.365	-1.003	0.284	-4.822	-2.380	-28.259	-76.10	15.14	-21.86	-46.354	-22.344	87.122	0.78528	-0.55594	0.25769	-0.08817	25.4	13111	100
2025-3-27 20:6:32.802	WT901BLE68-01(48591DE3C19B)	-0.354	-1.003	0.284	-4.822	-2.380	-28.259	-76.13	14.92	-21.87	-46.354	-22.344	87.122	0.78528	-0.55594	0.25769	-0.08817	25.4	13111	100
2025-3-27 20:6:32.802	WT901BLE68-01(48591DE3C19B)	-0.354	-0.968	0.275	0.854	15.442	-32.288	-76.16	14.71	-21.98	-46.354	-22.344	87.122	0.78528	-0.55594	0.25769	-0.08817	25.4	13111	100
2025-3-27 20:6:32.865	WT901BLE68-01(48591DE3C19B)	-0.372	-0.968	0.275	0.854	15.442	-32.288	-76.18	14.49	-22.18	-46.354	-22.344	87.122	0.78528	-0.55594	0.25769	-0.08817	25.4	13111	100
2025-3-27 20:6:32.865	WT901BLE68-01(48591DE3C19B)	-0.372	-0.901	0.266	3.052	27.832	-30.579	-76.22	14.28	-22.44	-46.354	-22.344	87.122	0.78528	-0.55594	0.25769	-0.08817	25.4	13111	100
2025-3-27 20:6:32.865	WT901BLE68-01(48591DE3C19B)	-0.380	-0.901	0.266	3.052	27.832	-30.579	-76.25	14.11	-22.76	-46.354	-22.344	87.122	0.78528	-0.55594	0.25769	-0.08817	25.4	13111	100
2025-3-27 20:6:32.865	WT901BLE68-01(48591DE3C19B)	-0.380	-0.862	0.276	2.197	34.668	-24.353	-76.29	13.97	-23.10	-46.354	-22.344	87.122	0.78528	-0.55594	0.25769	-0.08817	25.4	13111	100
2025-3-27 20:6:32.890	WT901BLE68-01(48591DE3C19B)	-0.398	-0.862	0.276	2.197	34.668	-24.353	-76.35	13.86	-23.47	-46.354	-22.344	87.122	0.78528	-0.55594	0.25769	-0.08817	25.4	13111	100
2025-3-27 20:6:32.890	WT901BLE68-01(48591DE3C19B)	-0.398	-0.871	0.297	1.770	33.386	-14.343	-76.40	13.82	-23.82	-46.354	-22.344	87.122	0.78528	-0.55594	0.25769	-0.08817	25.4	13111	100
2025-3-27 20:6:32.890	WT901BLE68-01(48591DE3C19B)	-0.407	-0.871	0.297	1.770	33.386	-14.343	-76.45	13.81	-24.15	-46.354	-22.344	87.122	0.78528	-0.55594	0.25769	-0.08817	25.4	13111	100
2025-3-27 20:6:32.890	WT901BLE68-01(48591DE3C19B)	-0.407	-0.894	0.283	0.427	26.001	-1.587	-76.49	13.86	-24.42	-46.354	-22.344	87.122	0.78528	-0.55594	0.25769	-0.08817	25.4	13111	100
2025-3-27 20:6:32.921	WT901BLE68-01(48591DE3C19B)	-0.409	-0.894	0.283	0.427	26.001	-1.587	-76.53	13.96	-24.64	-46.354	-22.344	87.122	0.78528	-0.55594	0.25769	-0.08817	25.4	13111	100
2025-3-27 20:6:32.922	WT901BLE68-01(48591DE3C19B)	-0.409	-1.085	0.292	-4.028	13.794	8.850	-76.56	14.10	-24.79	-46.354	-22.344	87.122	0.78528	-0.55594	0.25769	-0.08817	25.4	13111	100
2025-3-27 20:6:32.922	WT901BLE68-01(48591DE3C19B)	-0.479	-1.085	0.292	-4.028	13.794	8.850	-76.61	14.27	-24.87	-46.354	-22.344	87.122	0.78528	-0.55594	0.25769	-0.08817	25.4	13111	100
2025-3-27 20:6:32.922	WT901BLE68-01(48591DE3C19B)	-1.919	-1.527	0.357	-3.540	-2.686	14.160	-76.64	14.44	-24.85	-46.354	-22.344	87.122	0.78528	-0.55594	0.25769	-0.08817	25.4	13111	100
2025-3-27 20:6:32.982	WT901BLE68-01(48591DE3C19B)	-0.482	-6.109	1.429	-3.540	-2.686	14.160	-76.65	14.61	-24.76	-46.354	-22.344	87.122	0.78528	-0.55594	0.25769	-0.08817	25.4	13111	100
2025-3-27 20:6:32.983	WT901BLE68-01(48591DE3C19B)	-0.482	-1.761	0.373	14.465	-13.489	21.851	-76.55	14.79	-24.60	-46.354	-22.344	87.122	0.77817	-0.57797	0.22968	-0.08685	25.4	13111	100
2025-3-27 20:6:32.983	WT901BLE68-01(48591DE3C19B)	-0.342	-1.761	0.373	14.465	-13.489	21.851	-76.35	15.00	-24.39	-46.354	-22.344	87.122	0.77817	-0.57797	0.22968	-0.08685	25.4	13111	100
2025-3-27 20:6:32.983	WT901BLE68-01(48591DE3C19B)	-0.342	-1.541	0.339	33.264	-7.690	34.241	-76.07	15.26	-24.19	-46.354	-22.344	87.122	0.77817	-0.57797	0.22968	-0.08685	25.4	13111	100
2025-3-27 20:6:33.11	WT901BLE68-01(48591DE3C19B)	-0.257	-1.541	0.339	33.264	-7.690	34.241	-75.69	15.59	-24.00	-46.354	-22.344	87.122	0.77817	-0.57797	0.22968	-0.08685	25.4	13111	100
2025-3-27 20:6:33.11	WT901BLE68-01(48591DE3C19B)	-0.257	-1.331	0.261	34.668	10.315	48.462	-75.33	16.00	-23.89	-46.354	-22.344	87.122	0.77817	-0.57797	0.22968	-0.08685	25.4	13111	100
2025-3-27 20:6:33.11	WT901BLE68-01(48591DE3C19B)	-0.224	-1.331	0.261	34.668	10.315	48.462	-74.98	16.50	-23.85	-46.354	-22.344	87.122	0.77817	-0.57797	0.22968	-0.08685	25.4	13111	100
2025-3-27 20:6:33.11	WT901BLE68-01(48591DE3C19B)	-0.224	-1.225	0.227	34.424	33.691	65.979	-74.67	17.11	-23.90	-46.354	-22.344	87.122	0.77817	-0.57797	0.22968	-0.08685	25.4	13111	100
2025-3-27 20:6:33.41	WT901BLE68-01(48591DE3C19B)	-0.238	-1.225	0.227	34.424	33.691	65.979	-74.38	17.82	-24.04	-46.354	-22.344	87.122	0.77817	-0.57797	0.22968	-0.08685	25.4	13111	100
2025-3-27 20:6:33.41	WT901BLE68-01(48591DE3C19B)	-0.238	-1.059	0.218	28.015	45.654	82.764	-74.15	18.63	-24.21	-46.354	-22.344	87.122	0.77817	-0.57797	0.22968	-0.08685	25.4	13111	100
2025-3-27 20:6:33.41	WT901BLE68-01(48591DE3C19B)	-0.225	-1.059	0.218	28.015	45.654	82.764	-73.96	19.53	-24.42	-46.354	-22.344	87.122	0.77817	-0.57797	0.22968	-0.08685	25.4	13111	100
2025-3-27 20:6:33.42	WT901BLE68-01(48591DE3C19B)	-0.225	-1.008	0.215	9.583	45.227	89.661	-73.86	20.45	-24.61	-46.354	-22.344	87.122	0.77817	-0.57797	0.22968	-0.08685	25.4	13111	100
2025-3-27 20:6:33.101	WT901BLE68-01(48591DE3C19B)	-0.269	-1.008	0.215	9.583	45.227	89.661	-73.86	21.40	-24.80	-46.354	-22.344	87.122	0.77817	-0.57797	0.22968	-0.08685	25.4	13111	100
2025-3-27 20:6:33.102	WT901BLE68-01(48591DE3C19B)	-0.269	-1.018	0.244	2.502	47.852	89.111	-73.89	22.34	-25.00	-46.354	-22.344	87.122	0.77817	-0.57797	0.22968	-0.08685	25.4	13111	100
2025-3-27 20:6:33.102	WT901BLE68-01(48591DE3C19B)	-0.374	-1.018	0.244	2.502	47.852	89.111	-73.98	23.28	-25.22	-46.354	-22.344	87.122	0.77817	-0.57797	0.22968	-0.08685	25.4	13111	100
2025-3-27 20:6:33.102	WT901BLE68-01(48591DE3C19B)	-0.374	-0.854	0.273	-0.366	39.673	85.327	-74.06	24.19	-25.40	-46.354	-22.344	87.122	0.77817	-0.57797	0.22968	-0.08685	25.4	13111	100
2025-3-27 20:6:33.131	WT901BLE68-01(48591DE3C19B)	-0.373	-0.854	0.273	-0.366	39.673	85.327	-74.15	25.06	-25.54	-46.354	-22.344	87.122	0.77817	-0.57797	0.22968	-0.08685	25.4	13111	100
2025-3-27 20:6:33.131	WT901BLE68-01(48591DE3C19B)	-0.373	-0.665	0.261	-7.141	17.883	78.979	-74.22	25.87	-25.58	-46.354	-22.344	87.122	0.77817	-0.57797	0.22968	-0.08685	25.4	13111	100
2025-3-27 20:6:33.131	WT901BLE68-01(48591DE3C19B)	-0.322	-0.665	0.261	-7.141	17.883	78.979	-74.28	26.62	-25.51	-46.354	-22.344	87.122	0.77817	-0.57797	0.22968	-0.08685	25.4	13111	100
2025-3-27 20:6:33.131	WT901BLE68-01(48591DE3C19B)	-0.322	-0.562	0.205	-11.719	-4.028	69.702	-74.31	27.30	-25.33	-45.766	-22.932	86.632	0.77817	-0.57797	0.22968	-0.08685	25.4	13111	100
2025-3-27 20:6:33.164	WT901BLE68-01(48591DE3C19B)	-0.292	-0.562	0.205	-11.719	-4.028	69.702	-74.31	27.90	-25.05	-45.766	-22.932	86.632	0.77817	-0.57797	0.22968	-0.08685	25.4	13111	100
2025-3-27 20:6:33.165	WT901BLE68-01(48591DE3C19B)	-0.292	-0.548	0.146	-13.977	-26.611	59.509	-74.27	28.42	-24.66	-45.766	-22.932	86.632	0.77817	-0.57797	0.22968	-0.08685	25.4	13111	100
2025-3-27 20:6:33.165	WT901BLE68-01(48591DE3C19B)	-0.254	-0.548	0.146	-13.977	-26.611	59.509	-74.18	28.86	-24.16	-45.766	-22.932	86.632	0.77817	-0.57797	0.22968	-0.08685	25.4	13111	100
2025-3-27 20:6:33.165	WT901BLE68-01(48591DE3C19B)	-0.254	-0.575	0.111	-15.320	-44.495	48.645	-74.06	29.23	-23.57	-45.766	-22.932	86.632	0.77817	-0.57797	0.22968	-0.08685	25.4	13111	100
2025-3-27 20:6:33.221	WT901BLE68-01(48591DE3C19B)	-0.200	-0.575	0.111	-15.320	-44.495	48.645	-73.90	29.51	-22.91	-45.766	-22.932	86.632	0.77817	-0.57797	0.22968	-0.08685	25.4	13111	100
2025-3-27 20:6:33.221	WT901BLE68-01(48591DE3C19B)	-0.200	-0.598	0.117	-13.367	-50.415	38.025	-73.72	29.74	-22.22	-45.766	-22.932	86.632	0.77817	-0.57797	0.22968	-0.08685	25.4	13111	100
2025-3-27 20:6:33.221	WT901BLE68-01(48591DE3C19B)	-0.181	-0.598	0.117	-13.367	-50.415	38.025	-73.53	29.90	-21.53	-45.766	-22.932	86.632	0.77817	-0.57797	0.22968	-0.08685	25.4	13111	100
2025-3-27 20:6:33.221	WT901BLE68-01(48591DE3C19B)	-0.181	-0.639	0.135	-9.766	-46.509	28.198	-73.34	30.02	-20.87	-45.766	-22.932	86.632	0.77817	-0.57797	0.22968	-0.08685	25.4	13111	100
2025-3-27 20:6:33.251	WT901BLE68-01(48591DE3C19B)	-0.183	-0.639	0.135	-9.766	-46.509	28.198	-73.15	30.09	-20.25	-45.766	-22.932	86.632	0.77817	-0.57797	0.22968	-0.08685	25.4	13111	100
2025-3-27 20:6:33.252	WT901BLE68-01(48591DE3C19B)	-0.183	-0.724	0.161	-3.784	-35.522	18.555	-72.98	30.10	-19.79	-45.766	-22.932	86.632	0.77817	-0.57797	0.22968	-0.08685	25.4	13111	100
2025-3-27 20:6:33.252	WT901BLE68-01(48591DE3C19B)	-0.204	-0.724	0.161	-3.784	-35.522	18.555	-72.81	30.10	-19.34	-45.766	-22.932	86.632	0.77817	-0.57797	0.22968	-0.08685	25.4	13111	100
2025-3-27 20:6:33.252	WT901BLE68-01(48591DE3C19B)	-0.204	-0.854	0.192	6.165	-20.813	8.667	-72.65	30.05	-19.08	-45.766	-22.932	86.632	0.77817	-0.57797	0.22968	-0.08685	25.4	13111	100
2025-3-27 20:6:33.281	WT901BLE68-01(48591DE3C19B)	-0.227	-0.854	0.192	6.165	-20.813	8.667	-72.48	29.99	-18.83	-45.766	-22.932	86.632	0.77817	-0.57797	0.22968	-0.08685	25.4	13111	100
2025-3-27 20:6:33.281	WT901BLE68-01(48591DE3C19B)	-0.227	-0.931	0.220	23.743	-3.296	0.122	-72.25	29.91	-18.80	-45.766	-22.932	86.632	0.77817	-0.57797	0.22968	-0.08685	25.4	13111	100
2025-3-27 20:6:33.281	WT901BLE68-01(48591DE3C19B)	-0.243	-0.931	0.220	23.743	-3.296	0.122	-72.03	29.82	-18.78	-45.766	-22.932	86.632	0.77817	-0.57797	0.22968	-0.08685	25.4	13111	100
2025-3-27 20:6:33.281	WT901BLE68-01(48591DE3C19B)	-0.243	-0.852	0.221	43.030	13.733	-3.113	-71.71	29.76	-18.95	-45.766	-22.932	86.632	0.77817	-0.57797	0.22968	-0.08685	25.4	13111	100
2025-3-27 20:6:33.340	WT901BLE68-01(48591DE3C19B)	-0.257	-0.852	0.221	43.030	13.733	-3.113	-71.39	29.69	-19.12	-45.766	-22.932	86.632	0.77817	-0.57797	0.22968	-0.08685	25.4	13111	100
2025-3-27 20:6:33.340	WT901BLE68-01(48591DE3C19B)	-0.257	-0.725	0.212	56.213	30.090	0.977	-71.02	29.72	-19.45	-45.766	-22.932	86.632	0.77817	-0.57797	0.22968	-0.08685	25.4	13111	100
2025-3-27 20:6:33.340	WT901BLE68-01(48591DE3C19B)	-0.286	-0.725	0.212	56.213	30.090	0.977	-70.65	29.75	-19.78	-45.766	-22.932	86.632	0.77817	-0.57797	0.22968	-0.08685	25.4	13111	100
2025-3-27 20:6:33.340	WT901BLE68-01(48591DE3C19B)	-0.286	-0.647	0.208	60.852	41.687	8.301	-70.29	29.89	-20.19	-45.766	-22.932	86.632	0.77817	-0.57797	0.22968	-0.08685	25.4	13111	100
2025-3-27 20:6:33.371	WT901BLE68-01(48591DE3C19B)	-0.330	-0.647	0.208	60.852	41.687	8.301	-69.92	30.03	-20.61	-45.766	-22.932	86.632	0.80530	-0.50650	0.30792	0.00446	25.4	13111	100
2025-3-27 20:6:33.371	WT901BLE68-01(48591DE3C19B)	-0.330	-0.705	0.222	55.237	39.978	15.137	-69.59	30.24	-20.97	-45.766	-22.932	86.632	0.80530	-0.50650	0.30792	0.00446	25.4	13111	100
2025-3-27 20:6:33.371	WT901BLE68-01(48591DE3C19B)	-0.399	-0.705	0.222	55.237	39.978	15.137	-69.26	30.45	-21.34	-45.766	-22.932	86.632	0.80530	-0.50650	0.30792	0.00446	25.4	13111	100
2025-3-27 20:6:33.371	WT901BLE68-01(48591DE3C19B)	-0.399	-0.840	0.244	45.898	26.123	19.043	-68.94	30.65	-21.52	-45.766	-22.932	86.632	0.80530	-0.50650	0.30792	0.00446	25.4	13111	100
2025-3-27 20:6:33.400	WT901BLE68-01(48591DE3C19B)	-0.464	-0.840	0.244	45.898	26.123	19.043	-68.62	30.86	-21.70	-45.766	-22.932	86.632	0.80530	-0.50650	0.30792	0.00446	25.4	13111	100
2025-3-27 20:6:33.400	WT901BLE68-01(48591DE3C19B)	-0.464	-0.994	0.275	33.386	11.658	11.780	-68.36	30.95	-21.76	-45.766	-22.932	86.632	0.80530	-0.50650	0.30792	0.00446	25.4	13111	100
2025-3-27 20:6:33.401	WT901BLE68-01(48591DE3C19B)	-0.513	-0.994	0.275	33.386	11.658	11.780	-68.10	31.04	-21.81	-45.766	-22.932	86.632	0.80530	-0.50650	0.30792	0.00446	25.4	13111	100
2025-3-27 20:6:33.401	WT901BLE68-01(48591DE3C19B)	-0.513	-1.128	0.307	17.395	15.137	-8.057	-68.07	30.96	-21.98	-45.766	-22.932	86.632	0.80530	-0.50650	0.30792	0.00446	25.4	13111	100
2025-3-27 20:6:33.464	WT901BLE68-01(48591DE3C19B)	-0.664	-1.128	0.307	17.395	15.137	-8.057	-68.04	30.88	-22.16	-45.766	-22.932	86.632	0.80530	-0.50650	0.30792	0.00446	25.4	13111	100
2025-3-27 20:6:33.464	WT901BLE68-01(48591DE3C19B)	-0.664	-1.305	0.386	-0.916	23.987	-40.039	-68.30	30.55	-22.55	-45.766	-22.932	86.632	0.80530	-0.50650	0.30792	0.00446	25.4	13111	100
2025-3-27 20:6:33.464	WT901BLE68-01(48591DE3C19B)	-0.810	-1.305	0.386	-0.916	23.987	-40.039	-68.56	30.22	-22.95	-45.766	-22.932	86.632	0.80530	-0.50650	0.30792	0.00446	25.4	13111	100
2025-3-27 20:6:33.464	WT901BLE68-01(48591DE3C19B)	-0.810	-1.286	0.629	-14.343	26.123	-63.416	-69.01	29.69	-23.45	-45.766	-22.932	86.632	0.80530	-0.50650	0.30792	0.00446	25.4	13111	100
2025-3-27 20:6:33.490	WT901BLE68-01(48591DE3C19B)	-0.897	-1.286	0.629	-14.343	26.123	-63.416	-69.43	29.15	-23.94	-45.766	-22.932	86.632	0.80530	-0.50650	0.30792	0.00446	25.4	13111	100
2025-3-27 20:6:33.491	WT901BLE68-01(48591DE3C19B)	-0.897	-1.019	0.774	-19.043	23.315	-64.270	-69.86	28.61	-24.38	-45.766	-22.932	86.632	0.80530	-0.50650	0.30792	0.00446	25.4	13111	100
2025-3-27 20:6:33.491	WT901BLE68-01(48591DE3C19B)	-0.821	-1.019	0.774	-19.043	23.315	-64.270	-70.27	28.08	-24.80	-45.766	-22.932	86.632	0.80530	-0.50650	0.30792	0.00446	25.4	13111	100
2025-3-27 20:6:33.491	WT901BLE68-01(48591DE3C19B)	-0.821	-0.770	0.698	-26.123	6.714	-47.424	-70.63	27.66	-24.97	-45.766	-22.932	86.632	0.80530	-0.50650	0.30792	0.00446	25.4	13111	100
2025-3-27 20:6:33.523	WT901BLE68-01(48591DE3C19B)	-0.741	-0.770	0.698	-26.123	6.714	-47.424	-70.97	27.25	-25.11	-45.766	-22.932	86.632	0.80530	-0.50650	0.30792	0.00446	25.4	13111	100
2025-3-27 20:6:33.523	WT901BLE68-01(48591DE3C19B)	-0.741	-0.689	0.504	-39.001	-21.912	-36.926	-71.27	26.86	-24.92	-45.766	-22.932	86.632	0.80530	-0.50650	0.30792	0.00446	25.4	13111	100
2025-3-27 20:6:33.523	WT901BLE68-01(48591DE3C19B)	-0.707	-0.689	0.504	-39.001	-21.912	-36.926	-71.58	26.47	-24.71	-45.766	-22.932	86.632	0.80530	-0.50650	0.30792	0.00446	25.4	13111	100
2025-3-27 20:6:33.523	WT901BLE68-01(48591DE3C19B)	-0.707	-0.661	0.367	-43.396	-56.763	-31.067	-71.75	26.04	-24.10	-45.766	-22.932	86.632	0.80530	-0.50650	0.30792	0.00446	25.4	13111	100
2025-3-27 20:6:33.582	WT901BLE68-01(48591DE3C19B)	-0.639	-0.661	0.367	-43.396	-56.763	-31.067	-71.92	25.63	-23.50	-45.766	-22.932	86.632	0.80530	-0.50650	0.30792	0.00446	25.4	13111	100
2025-3-27 20:6:33.582	WT901BLE68-01(48591DE3C19B)	-0.639	-0.670	0.333	-50.659	-84.534	-24.170	-72.04	25.20	-22.58	-43.806	-23.324	86.436	0.80530	-0.50650	0.30792	0.00446	25.4	13111	100
2025-3-27 20:6:33.582	WT901BLE68-01(48591DE3C19B)	-0.517	-0.670	0.333	-50.659	-84.534	-24.170	-72.16	24.77	-21.67	-43.806	-23.324	86.436	0.80530	-0.50650	0.30792	0.00446	25.4	13111	100
2025-3-27 20:6:33.582	WT901BLE68-01(48591DE3C19B)	-0.517	-0.703	0.358	-42.480	-86.060	-20.874	-72.20	24.38	-20.73	-43.806	-23.324	86.436	0.80530	-0.50650	0.30792	0.00446	25.4	13111	100
2025-3-27 20:6:33.610	WT901BLE68-01(48591DE3C19B)	-0.449	-0.703	0.358	-42.480	-86.060	-20.874	-72.24	23.98	-19.79	-43.806	-23.324	86.436	0.80530	-0.50650	0.30792	0.00446	25.4	13111	100
2025-3-27 20:6:33.610	WT901BLE68-01(48591DE3C19B)	-0.449	-0.622	0.411	-25.879	-70.923	-19.714	-72.18	23.65	-19.02	-43.806	-23.324	86.436	0.80530	-0.50650	0.30792	0.00446	25.4	13111	100
2025-3-27 20:6:33.611	WT901BLE68-01(48591DE3C19B)	-0.406	-0.622	0.411	-25.879	-70.923	-19.714	-72.13	23.32	-18.25	-43.806	-23.324	86.436	0.80530	-0.50650	0.30792	0.00446	25.4	13111	100
2025-3-27 20:6:33.611	WT901BLE68-01(48591DE3C19B)	-0.406	-0.537	0.417	-12.939	-44.128	-23.682	-72.05	23.03	-17.77	-43.806	-23.324	86.436	0.80530	-0.50650	0.30792	0.00446	25.4	13111	100
2025-3-27 20:6:33.671	WT901BLE68-01(48591DE3C19B)	-0.409	-0.537	0.417	-12.939	-44.128	-23.682	-71.98	22.74	-17.30	-43.806	-23.324	86.436	0.80530	-0.50650	0.30792	0.00446	25.4	13111	100
2025-3-27 20:6:33.671	WT901BLE68-01(48591DE3C19B)	-0.409	-0.469	0.392	0.732	-11.719	-25.757	-71.91	22.53	-17.16	-43.806	-23.324	86.436	0.80530	-0.50650	0.30792	0.00446	25.4	13111	100
2025-3-27 20:6:33.671	WT901BLE68-01(48591DE3C19B)	-0.455	-0.469	0.392	0.732	-11.719	-25.757	-71.82	22.33	-17.02	-43.806	-23.324	86.436	0.80530	-0.50650	0.30792	0.00446	25.4	13111	100
2025-3-27 20:6:33.671	WT901BLE68-01(48591DE3C19B)	-0.455	-0.386	0.367	8.179	8.423	-25.146	-71.75	22.20	-17.09	-43.806	-23.324	86.436	0.80530	-0.50650	0.30792	0.00446	25.4	13111	100
2025-3-27 20:6:33.701	WT901BLE68-01(48591DE3C19B)	-0.485	-0.386	0.367	8.179	8.423	-25.146	-71.66	22.07	-17.14	-43.806	-23.324	86.436	0.80530	-0.50650	0.30792	0.00446	25.4	13111	100
2025-3-27 20:6:33.701	WT901BLE68-01(48591DE3C19B)	-0.489	-0.332	0.350	6.226	10.437	-24.780	-71.61	21.97	-17.22	-43.806	-23.324	86.436	0.80530	-0.50650	0.30792	0.00446	25.4	13111	100
2025-3-27 20:6:33.701	WT901BLE68-01(48591DE3C19B)	-0.489	-0.345	0.353	3.235	4.150	-21.545	-71.55	21.87	-17.24	-43.806	-23.324	86.436	0.80530	-0.50650	0.30792	0.00446	25.4	13111	100
2025-3-27 20:6:33.701	WT901BLE68-01(48591DE3C19B)	-0.495	-0.345	0.353	3.235	4.150	-21.545	-71.49	21.79	-17.22	-43.806	-23.324	86.436	0.80530	-0.50650	0.30792	0.00446	25.4	13111	100
2025-3-27 20:6:33.731	WT901BLE68-01(48591DE3C19B)	-0.495	-0.350	0.338	3.845	-7.080	-12.207	-71.41	21.73	-17.11	-43.806	-23.324	86.436	0.80530	-0.50650	0.30792	0.00446	25.4	13111	100
2025-3-27 20:6:33.731	WT901BLE68-01(48591DE3C19B)	-0.468	-0.350	0.338	3.845	-7.080	-12.207	-71.28	21.71	-16.94	-43.806	-23.324	86.436	0.80530	-0.50650	0.30792	0.00446	25.4	13111	100
2025-3-27 20:6:33.731	WT901BLE68-01(48591DE3C19B)	-0.468	-0.317	0.289	2.930	-25.513	2.319	-71.13	21.74	-16.63	-43.806	-23.324	86.436	0.80530	-0.50650	0.30792	0.00446	25.4	13111	100
2025-3-27 20:6:33.731	WT901BLE68-01(48591DE3C19B)	-0.392	-0.317	0.289	2.930	-25.513	2.319	-70.93	21.80	-16.20	-43.806	-23.324	86.436	0.80530	-0.50650	0.30792	0.00446	25.4	13111	100
2025-3-27 20:6:33.791	WT901BLE68-01(48591DE3C19B)	-0.392	-0.331	0.209	-1.404	-42.053	16.479	-70.72	21.91	-15.66	-43.806	-23.324	86.436	0.80530	-0.50650	0.30792	0.00446	25.4	13111	100
2025-3-27 20:6:33.792	WT901BLE68-01(48591DE3C19B)	-0.339	-0.331	0.209	-1.404	-42.053	16.479	-70.49	22.06	-15.01	-43.806	-23.324	86.436	0.80954	-0.54086	0.22787	0.00714	25.4	13111	100
2025-3-27 20:6:33.792	WT901BLE68-01(48591DE3C19B)	-0.339	-0.440	0.152	-6.653	-51.453	24.475	-70.27	22.22	-14.30	-43.806	-23.324	86.436	0.80954	-0.54086	0.22787	0.00714	25.4	13111	100
2025-3-27 20:6:33.792	WT901BLE68-01(48591DE3C19B)	-0.345	-0.440	0.152	-6.653	-51.453	24.475	-70.05	22.40	-13.54	-43.806	-23.324	86.436	0.80954	-0.54086	0.22787	0.00714	25.4	13111	100
2025-3-27 20:6:33.820	WT901BLE68-01(48591DE3C19B)	-0.345	-0.695	0.112	-21.667	-60.547	21.179	-69.90	22.54	-12.75	-43.806	-23.324	86.436	0.80954	-0.54086	0.22787	0.00714	25.4	13111	100
2025-3-27 20:6:33.820	WT901BLE68-01(48591DE3C19B)	-0.375	-0.695	0.112	-21.667	-60.547	21.179	-69.82	22.64	-11.94	-43.806	-23.324	86.436	0.80954	-0.54086	0.22787	0.00714	25.4	13111	100
2025-3-27 20:6:33.820	WT901BLE68-01(48591DE3C19B)	-0.375	-1.347	0.058	-51.453	-73.608	-3.357	-69.88	22.58	-11.12	-43.806	-23.324	86.436	0.80954	-0.54086	0.22787	0.00714	25.4	13111	100
2025-3-27 20:6:33.820	WT901BLE68-01(48591DE3C19B)	-0.417	-1.347	0.058	-51.453	-73.608	-3.357	-70.11	22.36	-10.33	-43.806	-23.324	86.436	0.80954	-0.54086	0.22787	0.00714	25.4	13111	100
2025-3-27 20:6:33.851	WT901BLE68-01(48591DE3C19B)	-0.417	-2.186	0.133	-41.565	-75.134	-17.883	-70.32	22.06	-9.58	-43.806	-23.324	86.436	0.80954	-0.54086	0.22787	0.00714	25.4	13111	100
2025-3-27 20:6:33.852	WT901BLE68-01(48591DE3C19B)	-0.413	-2.186	0.133	-41.565	-75.134	-17.883	-70.50	21.67	-8.88	-43.806	-23.324	86.436	0.80954	-0.54086	0.22787	0.00714	25.4	13111	100
2025-3-27 20:6:33.852	WT901BLE68-01(48591DE3C19B)	-0.413	-2.266	0.251	9.033	-56.152	-19.165	-70.49	21.29	-8.30	-43.806	-23.324	86.436	0.80954	-0.54086	0.22787	0.00714	25.4	13111	100
2025-3-27 20:6:33.852	WT901BLE68-01(48591DE3C19B)	-0.269	-2.266	0.251	9.033	-56.152	-19.165	-70.27	20.92	-7.83	-43.806	-23.324	86.436	0.80954	-0.54086	0.22787	0.00714	25.4	13111	100
2025-3-27 20:6:33.913	WT901BLE68-01(48591DE3C19B)	-0.269	-1.754	0.266	22.766	-20.142	-18.860	-70.06	20.60	-7.56	-43.806	-23.324	86.436	0.80954	-0.54086	0.22787	0.00714	25.4	13111	100
2025-3-27 20:6:33.913	WT901BLE68-01(48591DE3C19B)	0.004	-1.754	0.266	22.766	-20.142	-18.860	-69.85	20.34	-7.48	-43.806	-23.324	86.436	0.80954	-0.54086	0.22787	0.00714	25.4	13111	100
2025-3-27 20:6:33.913	WT901BLE68-01(48591DE3C19B)	0.004	-1.527	0.158	18.311	39.001	-19.775	-69.76	20.17	-7.70	-43.806	-23.324	86.436	0.80954	-0.54086	0.22787	0.00714	25.4	13111	100
2025-3-27 20:6:33.913	WT901BLE68-01(48591DE3C19B)	0.127	-1.527	0.158	18.311	39.001	-19.775	-69.81	20.09	-8.22	-43.806	-23.324	86.436	0.80954	-0.54086	0.22787	0.00714	25.4	13111	100
2025-3-27 20:6:33.943	WT901BLE68-01(48591DE3C19B)	0.127	-1.219	0.074	19.165	98.267	-12.573	-69.95	20.14	-9.03	-43.806	-23.324	86.436	0.80954	-0.54086	0.22787	0.00714	25.4	13111	100
2025-3-27 20:6:33.943	WT901BLE68-01(48591DE3C19B)	0.088	-1.219	0.074	19.165	98.267	-12.573	-70.19	20.31	-10.12	-43.806	-23.324	86.436	0.80954	-0.54086	0.22787	0.00714	25.4	13111	100
2025-3-27 20:6:33.943	WT901BLE68-01(48591DE3C19B)	0.088	-0.809	0.107	1.038	121.643	-13.977	-70.57	20.49	-11.34	-43.806	-23.324	86.436	0.80954	-0.54086	0.22787	0.00714	25.4	13111	100
2025-3-27 20:6:33.943	WT901BLE68-01(48591DE3C19B)	0.021	-0.809	0.107	1.038	121.643	-13.977	-71.08	20.70	-12.68	-36.848	-29.596	81.536	0.80954	-0.54086	0.22787	0.00714	25.4	13111	100
2025-3-27 20:6:33.973	WT901BLE68-01(48591DE3C19B)	0.021	-0.688	0.205	-17.639	125.305	-23.315	-71.70	20.85	-14.05	-36.848	-29.596	81.536	0.80954	-0.54086	0.22787	0.00714	25.4	13111	100
2025-3-27 20:6:33.973	WT901BLE68-01(48591DE3C19B)	-0.213	-0.688	0.205	-17.639	125.305	-23.315	-72.42	20.93	-15.46	-36.848	-29.596	81.536	0.80954	-0.54086	0.22787	0.00714	25.4	13111	100
2025-3-27 20:6:33.973	WT901BLE68-01(48591DE3C19B)	-0.213	-0.663	0.242	-19.897	114.929	-26.062	-73.13	20.97	-16.81	-36.848	-29.596	81.536	0.80954	-0.54086	0.22787	0.00714	25.4	13111	100
2025-3-27 20:6:33.973	WT901BLE68-01(48591DE3C19B)	-0.381	-0.663	0.242	-19.897	114.929	-26.062	-73.82	20.97	-18.11	-36.848	-29.596	81.536	0.80954	-0.54086	0.22787	0.00714	25.4	13111	100
2025-3-27 20:6:34.31	WT901BLE68-01(48591DE3C19B)	-0.381	-0.634	0.219	-17.944	77.026	-29.175	-74.43	20.90	-19.22	-36.848	-29.596	81.536	0.80954	-0.54086	0.22787	0.00714	25.4	13111	100
2025-3-27 20:6:34.31	WT901BLE68-01(48591DE3C19B)	-0.429	-0.634	0.219	-17.944	77.026	-29.175	-74.95	20.76	-20.11	-36.848	-29.596	81.536	0.80954	-0.54086	0.22787	0.00714	25.4	13111	100
2025-3-27 20:6:34.31	WT901BLE68-01(48591DE3C19B)	-0.429	-0.570	0.203	-12.817	10.803	-26.917	-75.31	20.55	-20.65	-36.848	-29.596	81.536	0.80954	-0.54086	0.22787	0.00714	25.4	13111	100
2025-3-27 20:6:34.31	WT901BLE68-01(48591DE3C19B)	-0.287	-0.570	0.203	-12.817	10.803	-26.917	-75.52	20.28	-20.84	-36.848	-29.596	81.536	0.80954	-0.54086	0.22787	0.00714	25.4	13111	100
2025-3-27 20:6:34.63	WT901BLE68-01(48591DE3C19B)	-0.287	-0.467	0.188	-10.864	-45.837	-14.099	-75.61	20.00	-20.71	-36.848	-29.596	81.536	0.80954	-0.54086	0.22787	0.00714	25.4	13111	100
2025-3-27 20:6:34.63	WT901BLE68-01(48591DE3C19B)	-0.176	-0.467	0.188	-10.864	-45.837	-14.099	-75.57	19.73	-20.28	-36.848	-29.596	81.536	0.80954	-0.54086	0.22787	0.00714	25.4	13111	100
2025-3-27 20:6:34.63	WT901BLE68-01(48591DE3C19B)	-0.176	-0.357	0.179	-1.404	-64.697	2.563	-75.45	19.52	-19.72	-36.848	-29.596	81.536	0.80954	-0.54086	0.22787	0.00714	25.4	13111	100
2025-3-27 20:6:34.63	WT901BLE68-01(48591DE3C19B)	-0.226	-0.357	0.179	-1.404	-64.697	2.563	-75.25	19.37	-19.05	-36.848	-29.596	81.536	0.80954	-0.54086	0.22787	0.00714	25.4	13111	100
2025-3-27 20:6:34.91	WT901BLE68-01(48591DE3C19B)	-0.226	-0.289	0.179	5.981	-67.932	20.996	-74.99	19.30	-18.34	-36.848	-29.596	81.536	0.80954	-0.54086	0.22787	0.00714	25.4	13111	100
2025-3-27 20:6:34.91	WT901BLE68-01(48591DE3C19B)	-0.252	-0.289	0.179	5.981	-67.932	20.996	-74.68	19.32	-17.58	-36.848	-29.596	81.536	0.80954	-0.54086	0.22787	0.00714	25.4	13111	100
2025-3-27 20:6:34.92	WT901BLE68-01(48591DE3C19B)	-0.252	-0.394	0.121	-6.348	-88.806	33.630	-74.38	19.37	-16.70	-36.848	-29.596	81.536	0.80954	-0.54086	0.22787	0.00714	25.4	13111	100
2025-3-27 20:6:34.92	WT901BLE68-01(48591DE3C19B)	-0.109	-0.394	0.121	-6.348	-88.806	33.630	-74.11	19.46	-15.70	-36.848	-29.596	81.536	0.80954	-0.54086	0.22787	0.00714	25.4	13111	100
2025-3-27 20:6:34.151	WT901BLE68-01(48591DE3C19B)	-0.109	-0.640	0.082	-20.142	-105.835	38.635	-73.87	19.55	-14.61	-36.848	-29.596	81.536	0.80954	-0.54086	0.22787	0.00714	25.4	13111	100
2025-3-27 20:6:34.151	WT901BLE68-01(48591DE3C19B)	0.039	-0.640	0.082	-20.142	-105.835	38.635	-73.68	19.62	-13.43	-36.848	-29.596	81.536	0.80954	-0.54086	0.22787	0.00714	25.4	13111	100
2025-3-27 20:6:34.151	WT901BLE68-01(48591DE3C19B)	0.039	-0.970	0.031	-43.335	-91.187	22.888	-73.80	19.57	-12.46	-36.848	-29.596	81.536	0.80954	-0.54086	0.22787	0.00714	25.4	13111	100
2025-3-27 20:6:34.151	WT901BLE68-01(48591DE3C19B)	0.019	-0.970	0.031	-43.335	-91.187	22.888	-73.92	19.51	-11.51	-36.848	-29.596	81.536	0.80954	-0.54086	0.22787	0.00714	25.4	13111	100
2025-3-27 20:6:34.184	WT901BLE68-01(48591DE3C19B)	0.019	-1.771	0.083	-71.960	-59.204	-28.381	-74.51	19.03	-11.05	-36.848	-29.596	81.536	0.78955	-0.58432	0.18564	0.02484	25.4	13111	100
2025-3-27 20:6:34.184	WT901BLE68-01(48591DE3C19B)	-0.152	-1.771	0.083	-71.960	-59.204	-28.381	-75.10	18.56	-10.60	-36.848	-29.596	81.536	0.78955	-0.58432	0.18564	0.02484	25.4	13111	100
2025-3-27 20:6:34.184	WT901BLE68-01(48591DE3C19B)	-0.152	-2.852	0.186	-54.688	-25.085	-71.167	-75.68	17.74	-10.61	-36.848	-29.596	81.536	0.78955	-0.58432	0.18564	0.02484	25.4	13111	100
2025-3-27 20:6:34.184	WT901BLE68-01(48591DE3C19B)	-0.480	-2.852	0.186	-54.688	-25.085	-71.167	-76.26	16.94	-10.61	-36.848	-29.596	81.536	0.78955	-0.58432	0.18564	0.02484	25.4	13111	100
2025-3-27 20:6:34.213	WT901BLE68-01(48591DE3C19B)	-0.480	-2.361	0.617	22.461	21.484	-96.558	-76.21	16.00	-11.15	-36.848	-29.596	81.536	0.78955	-0.58432	0.18564	0.02484	25.4	13111	100
2025-3-27 20:6:34.213	WT901BLE68-01(48591DE3C19B)	-0.558	-2.361	0.617	22.461	21.484	-96.558	-76.14	15.07	-11.67	-36.848	-29.596	81.536	0.78955	-0.58432	0.18564	0.02484	25.4	13111	100
2025-3-27 20:6:34.213	WT901BLE68-01(48591DE3C19B)	-0.558	-1.323	0.797	17.273	87.463	-111.023	-76.28	14.17	-12.88	-36.848	-29.596	81.536	0.78955	-0.58432	0.18564	0.02484	25.4	13111	100
2025-3-27 20:6:34.213	WT901BLE68-01(48591DE3C19B)	-0.521	-1.323	0.797	17.273	87.463	-111.023	-76.39	13.28	-14.07	-36.848	-29.596	81.536	0.78955	-0.58432	0.18564	0.02484	25.4	13111	100
2025-3-27 20:6:34.271	WT901BLE68-01(48591DE3C19B)	-0.521	-0.941	0.761	26.550	181.396	-89.600	-76.57	12.82	-16.13	-36.848	-29.596	81.536	0.78955	-0.58432	0.18564	0.02484	25.4	13111	100
2025-3-27 20:6:34.271	WT901BLE68-01(48591DE3C19B)	-0.641	-0.941	0.761	26.550	181.396	-89.600	-76.72	12.37	-18.17	-36.848	-29.596	81.536	0.78955	-0.58432	0.18564	0.02484	25.4	13111	100
2025-3-27 20:6:34.271	WT901BLE68-01(48591DE3C19B)	-0.641	-0.516	0.661	22.644	198.364	-67.383	-76.92	12.17	-20.30	-36.848	-29.596	81.536	0.78955	-0.58432	0.18564	0.02484	25.4	13111	100
2025-3-27 20:6:34.271	WT901BLE68-01(48591DE3C19B)	-0.417	-0.516	0.661	22.644	198.364	-67.383	-77.09	11.99	-22.42	-36.848	-29.596	81.536	0.78955	-0.58432	0.18564	0.02484	25.4	13111	100
2025-3-27 20:6:34.301	WT901BLE68-01(48591DE3C19B)	-0.417	-0.286	0.526	-29.358	107.361	-40.588	-77.57	11.86	-23.55	-36.848	-29.596	81.536	0.78955	-0.58432	0.18564	0.02484	25.4	13111	100
2025-3-27 20:6:34.302	WT901BLE68-01(48591DE3C19B)	-0.213	-0.286	0.526	-29.358	107.361	-40.588	-78.03	11.73	-24.68	-36.848	-29.596	81.536	0.78955	-0.58432	0.18564	0.02484	25.4	13111	100
2025-3-27 20:6:34.302	WT901BLE68-01(48591DE3C19B)	-0.213	-0.480	0.348	-59.753	-12.756	-30.212	-78.54	11.46	-24.58	-36.848	-29.596	81.536	0.78955	-0.58432	0.18564	0.02484	25.4	13111	100
2025-3-27 20:6:34.302	WT901BLE68-01(48591DE3C19B)	-0.271	-0.480	0.348	-59.753	-12.756	-30.212	-79.04	11.19	-24.48	-36.848	-29.596	81.536	0.78955	-0.58432	0.18564	0.02484	25.4	13111	100
2025-3-27 20:6:34.333	WT901BLE68-01(48591DE3C19B)	-0.271	-0.628	0.180	-70.251	-92.285	-23.926	-79.48	10.84	-23.57	-36.848	-29.596	81.536	0.78955	-0.58432	0.18564	0.02484	25.4	13111	100
2025-3-27 20:6:34.333	WT901BLE68-01(48591DE3C19B)	-0.417	-0.628	0.180	-70.251	-92.285	-23.926	-79.94	10.49	-22.66	-36.848	-29.596	81.536	0.78955	-0.58432	0.18564	0.02484	25.4	13111	100
2025-3-27 20:6:34.333	WT901BLE68-01(48591DE3C19B)	-0.417	-0.595	0.161	-57.312	-123.047	-5.432	-80.21	10.29	-21.42	-36.848	-29.596	81.536	0.78955	-0.58432	0.18564	0.02484	25.4	13111	100
2025-3-27 20:6:34.333	WT901BLE68-01(48591DE3C19B)	-0.414	-0.595	0.161	-57.312	-123.047	-5.432	-80.49	10.10	-20.17	-36.848	-29.596	81.536	0.78955	-0.58432	0.18564	0.02484	25.4	13111	100
2025-3-27 20:6:34.391	WT901BLE68-01(48591DE3C19B)	-0.414	-0.487	0.223	-42.725	-109.863	5.737	-80.64	10.06	-19.03	-36.848	-29.596	81.536	0.78955	-0.58432	0.18564	0.02484	25.4	13111	100
2025-3-27 20:6:34.392	WT901BLE68-01(48591DE3C19B)	-0.213	-0.487	0.223	-42.725	-109.863	5.737	-80.79	10.03	-17.90	-40.572	-33.026	80.164	0.78955	-0.58432	0.18564	0.02484	25.4	13111	100
2025-3-27 20:6:34.392	WT901BLE68-01(48591DE3C19B)	-0.213	-0.323	0.261	-22.705	-65.369	15.198	-80.82	10.16	-17.19	-40.572	-33.026	80.164	0.78955	-0.58432	0.18564	0.02484	25.4	13111	100
2025-3-27 20:6:34.392	WT901BLE68-01(48591DE3C19B)	-0.096	-0.323	0.261	-22.705	-65.369	15.198	-80.84	10.29	-16.48	-40.572	-33.026	80.164	0.78955	-0.58432	0.18564	0.02484	25.4	13111	100
2025-3-27 20:6:34.420	WT901BLE68-01(48591DE3C19B)	-0.096	-0.192	0.261	-8.850	-17.456	23.865	-80.80	10.59	-16.24	-40.572	-33.026	80.164	0.78955	-0.58432	0.18564	0.02484	25.4	13111	100
2025-3-27 20:6:34.420	WT901BLE68-01(48591DE3C19B)	-0.134	-0.192	0.261	-8.850	-17.456	23.865	-80.74	10.88	-16.01	-40.572	-33.026	80.164	0.78955	-0.58432	0.18564	0.02484	25.4	13111	100
2025-3-27 20:6:34.420	WT901BLE68-01(48591DE3C19B)	-0.134	-0.255	0.291	-0.061	8.179	26.123	-80.65	11.23	-16.02	-40.572	-33.026	80.164	0.78955	-0.58432	0.18564	0.02484	25.4	13111	100
2025-3-27 20:6:34.420	WT901BLE68-01(48591DE3C19B)	-0.188	-0.255	0.291	-0.061	8.179	26.123	-80.54	11.57	-16.03	-40.572	-33.026	80.164	0.78955	-0.58432	0.18564	0.02484	25.4	13111	100
2025-3-27 20:6:34.452	WT901BLE68-01(48591DE3C19B)	-0.188	-0.459	0.383	6.470	13.916	25.024	-80.37	11.91	-16.11	-40.572	-33.026	80.164	0.78955	-0.58432	0.18564	0.02484	25.4	13111	100
2025-3-27 20:6:34.452	WT901BLE68-01(48591DE3C19B)	-0.229	-0.459	0.383	6.470	13.916	25.024	-80.21	12.26	-16.19	-40.572	-33.026	80.164	0.78955	-0.58432	0.18564	0.02484	25.4	13111	100
2025-3-27 20:6:34.452	WT901BLE68-01(48591DE3C19B)	-0.229	-0.686	0.320	-3.540	11.047	16.174	-80.13	12.49	-16.25	-40.572	-33.026	80.164	0.78955	-0.58432	0.18564	0.02484	25.4	13111	100
2025-3-27 20:6:34.452	WT901BLE68-01(48591DE3C19B)	-0.311	-0.686	0.320	-3.540	11.047	16.174	-80.07	12.73	-16.33	-40.572	-33.026	80.164	0.78955	-0.58432	0.18564	0.02484	25.4	13111	100
2025-3-27 20:6:34.512	WT901BLE68-01(48591DE3C19B)	-0.311	-1.400	0.269	-35.156	-1.587	-13.611	-80.32	12.63	-16.33	-40.572	-33.026	80.164	0.78955	-0.58432	0.18564	0.02484	25.4	13111	100
2025-3-27 20:6:34.513	WT901BLE68-01(48591DE3C19B)	-0.487	-1.400	0.269	-35.156	-1.587	-13.611	-80.58	12.54	-16.34	-40.572	-33.026	80.164	0.78955	-0.58432	0.18564	0.02484	25.4	13111	100
2025-3-27 20:6:34.513	WT901BLE68-01(48591DE3C19B)	-0.487	-2.684	0.110	-39.856	-8.423	-21.912	-80.91	12.33	-16.30	-40.572	-33.026	80.164	0.78955	-0.58432	0.18564	0.02484	25.4	13111	100
2025-3-27 20:6:34.513	WT901BLE68-01(48591DE3C19B)	-0.533	-2.684	0.110	-39.856	-8.423	-21.912	-81.26	12.12	-16.28	-40.572	-33.026	80.164	0.78955	-0.58432	0.18564	0.02484	25.4	13111	100
2025-3-27 20:6:34.541	WT901BLE68-01(48591DE3C19B)	-0.533	-2.931	0.046	68.298	15.381	-8.545	-80.60	12.07	-16.47	-40.572	-33.026	80.164	0.78955	-0.58432	0.18564	0.02484	25.4	13111	100
2025-3-27 20:6:34.541	WT901BLE68-01(48591DE3C19B)	-0.478	-2.931	0.046	68.298	15.381	-8.545	-79.95	12.02	-16.67	-40.572	-33.026	80.164	0.78955	-0.58432	0.18564	0.02484	25.4	13111	100
2025-3-27 20:6:34.541	WT901BLE68-01(48591DE3C19B)	-0.478	-1.625	0.091	85.999	44.495	-1.770	-79.19	12.10	-17.14	-40.572	-33.026	80.164	0.78955	-0.58432	0.18564	0.02484	25.4	13111	100
2025-3-27 20:6:34.541	WT901BLE68-01(48591DE3C19B)	-0.252	-1.625	0.091	85.999	44.495	-1.770	-78.45	12.18	-17.61	-40.572	-33.026	80.164	0.77145	-0.60876	0.17749	-0.05161	25.4	13111	100
2025-3-27 20:6:34.571	WT901BLE68-01(48591DE3C19B)	-0.252	-1.211	0.117	66.467	97.229	19.409	-78.00	12.58	-18.56	-40.572	-33.026	80.164	0.77145	-0.60876	0.17749	-0.05161	25.4	13111	100
2025-3-27 20:6:34.571	WT901BLE68-01(48591DE3C19B)	-0.322	-1.211	0.117	66.467	97.229	19.409	-77.57	12.98	-19.51	-40.572	-33.026	80.164	0.77145	-0.60876	0.17749	-0.05161	25.4	13111	100
2025-3-27 20:6:34.571	WT901BLE68-01(48591DE3C19B)	-0.321	-0.891	0.252	46.753	120.850	56.091	-77.39	13.79	-20.61	-40.572	-33.026	80.164	0.77145	-0.60876	0.17749	-0.05161	25.4	13111	100
2025-3-27 20:6:34.571	WT901BLE68-01(48591DE3C19B)	-0.321	-0.698	0.382	13.794	76.294	74.524	-77.31	14.64	-21.46	-40.572	-33.026	80.164	0.77145	-0.60876	0.17749	-0.05161	25.4	13111	100
2025-3-27 20:6:34.631	WT901BLE68-01(48591DE3C19B)	-0.180	-0.698	0.382	13.794	76.294	74.524	-77.35	15.54	-22.06	-40.572	-33.026	80.164	0.77145	-0.60876	0.17749	-0.05161	25.4	13111	100
2025-3-27 20:6:34.631	WT901BLE68-01(48591DE3C19B)	-0.180	-0.556	0.456	0.061	23.926	77.332	-77.38	16.38	-22.40	-40.572	-33.026	80.164	0.77145	-0.60876	0.17749	-0.05161	25.4	13111	100
2025-3-27 20:6:34.631	WT901BLE68-01(48591DE3C19B)	-0.216	-0.556	0.456	0.061	23.926	77.332	-77.40	17.18	-22.47	-40.572	-33.026	80.164	0.77145	-0.60876	0.17749	-0.05161	25.4	13111	100
2025-3-27 20:6:34.631	WT901BLE68-01(48591DE3C19B)	-0.216	-0.413	0.380	4.272	1.648	84.656	-77.35	17.98	-22.42	-40.572	-33.026	80.164	0.77145	-0.60876	0.17749	-0.05161	25.4	13111	100
2025-3-27 20:6:34.723	WT901BLE68-01(48591DE3C19B)	-0.274	-0.413	0.380	4.272	1.648	84.656	-77.23	18.80	-22.24	-40.572	-33.026	80.164	0.77145	-0.60876	0.17749	-0.05161	25.4	13111	100
2025-3-27 20:6:34.723	WT901BLE68-01(48591DE3C19B)	-0.274	-0.271	0.210	7.446	-1.526	98.450	-77.07	19.67	-22.03	-40.572	-33.026	80.164	0.77145	-0.60876	0.17749	-0.05161	25.4	13111	100
2025-3-27 20:6:34.723	WT901BLE68-01(48591DE3C19B)	-0.258	-0.271	0.210	7.446	-1.526	98.450	-76.89	20.61	-21.77	-40.572	-33.026	80.164	0.77145	-0.60876	0.17749	-0.05161	25.4	13111	100
2025-3-27 20:6:34.723	WT901BLE68-01(48591DE3C19B)	-0.258	-0.179	0.115	11.841	-0.366	113.342	-76.66	21.62	-21.51	-40.572	-33.026	80.164	0.77145	-0.60876	0.17749	-0.05161	25.4	13111	100
2025-3-27 20:6:34.724	WT901BLE68-01(48591DE3C19B)	-0.188	-0.179	0.115	11.841	-0.366	113.342	-76.40	22.70	-21.21	-40.572	-33.026	80.164	0.77145	-0.60876	0.17749	-0.05161	25.4	13111	100
2025-3-27 20:6:34.724	WT901BLE68-01(48591DE3C19B)	-0.188	-0.214	0.041	10.498	2.808	124.756	-76.14	23.85	-20.91	-40.572	-33.026	80.164	0.77145	-0.60876	0.17749	-0.05161	25.4	13111	100
2025-3-27 20:6:34.724	WT901BLE68-01(48591DE3C19B)	-0.229	-0.214	0.041	10.498	2.808	124.756	-75.88	25.04	-20.59	-40.572	-33.026	80.164	0.77145	-0.60876	0.17749	-0.05161	25.4	13111	100
2025-3-27 20:6:34.724	WT901BLE68-01(48591DE3C19B)	-0.229	-0.350	-0.105	12.634	-16.113	121.521	-75.57	26.20	-20.18	-40.572	-33.026	80.164	0.77145	-0.60876	0.17749	-0.05161	25.4	13111	100
2025-3-27 20:6:34.754	WT901BLE68-01(48591DE3C19B)	-0.367	-0.350	-0.105	12.634	-16.113	121.521	-75.20	27.31	-19.64	-40.572	-33.026	80.164	0.77145	-0.60876	0.17749	-0.05161	25.4	13111	100
2025-3-27 20:6:34.754	WT901BLE68-01(48591DE3C19B)	-0.367	-0.507	-0.259	-17.334	-78.064	99.792	-74.83	28.23	-18.80	-40.572	-33.026	80.164	0.77145	-0.60876	0.17749	-0.05161	25.4	13111	100
2025-3-27 20:6:34.754	WT901BLE68-01(48591DE3C19B)	-0.436	-0.507	-0.259	-17.334	-78.064	99.792	-74.49	28.97	-17.63	-40.572	-33.026	80.164	0.77145	-0.60876	0.17749	-0.05161	25.4	13111	100
2025-3-27 20:6:34.754	WT901BLE68-01(48591DE3C19B)	-0.436	-0.846	-0.158	-55.542	-161.926	74.463	-74.12	29.46	-16.04	-40.572	-33.026	80.164	0.77145	-0.60876	0.17749	-0.05161	25.4	13111	100
2025-3-27 20:6:34.784	WT901BLE68-01(48591DE3C19B)	-0.406	-0.846	-0.158	-55.542	-161.926	74.463	-73.75	29.71	-14.03	-46.746	-35.966	80.066	0.77145	-0.60876	0.17749	-0.05161	25.4	13111	100
2025-3-27 20:6:34.784	WT901BLE68-01(48591DE3C19B)	-0.406	-1.399	-0.014	-75.684	-227.844	30.884	-73.34	29.65	-11.74	-46.746	-35.966	80.066	0.77145	-0.60876	0.17749	-0.05161	25.4	13111	100
2025-3-27 20:6:34.784	WT901BLE68-01(48591DE3C19B)	-0.192	-1.399	-0.014	-75.684	-227.844	30.884	-72.91	29.25	-9.18	-46.746	-35.966	80.066	0.77145	-0.60876	0.17749	-0.05161	25.4	13111	100
2025-3-27 20:6:34.784	WT901BLE68-01(48591DE3C19B)	-0.192	-1.792	0.118	-58.655	-239.624	-14.160	-72.43	28.61	-6.68	-46.746	-35.966	80.066	0.77145	-0.60876	0.17749	-0.05161	25.4	13111	100
2025-3-27 20:6:34.813	WT901BLE68-01(48591DE3C19B)	-0.075	-1.792	0.118	-58.655	-239.624	-14.160	-71.92	27.70	-4.24	-46.746	-35.966	80.066	0.77145	-0.60876	0.17749	-0.05161	25.4	13111	100
2025-3-27 20:6:34.813	WT901BLE68-01(48591DE3C19B)	-0.075	-1.660	0.476	-28.748	-182.007	-52.795	-71.48	26.67	-2.22	-46.746	-35.966	80.066	0.77145	-0.60876	0.17749	-0.05161	25.4	13111	100
2025-3-27 20:6:34.813	WT901BLE68-01(48591DE3C19B)	-0.183	-1.660	0.476	-28.748	-182.007	-52.795	-71.11	25.54	-0.63	-46.746	-35.966	80.066	0.77145	-0.60876	0.17749	-0.05161	25.4	13111	100
2025-3-27 20:6:34.813	WT901BLE68-01(48591DE3C19B)	-0.183	-1.426	0.675	-19.226	-87.952	-74.097	-70.93	24.44	0.40	-46.746	-35.966	80.066	0.77145	-0.60876	0.17749	-0.05161	25.4	13111	100
2025-3-27 20:6:34.871	WT901BLE68-01(48591DE3C19B)	-0.246	-1.426	0.675	-19.226	-87.952	-74.097	-70.94	23.40	0.90	-46.746	-35.966	80.066	0.77145	-0.60876	0.17749	-0.05161	25.4	13111	100
2025-3-27 20:6:34.871	WT901BLE68-01(48591DE3C19B)	-0.246	-1.219	0.730	-4.883	15.320	-77.576	-71.08	22.51	0.86	-46.746	-35.966	80.066	0.77145	-0.60876	0.17749	-0.05161	25.4	13111	100
2025-3-27 20:6:34.871	WT901BLE68-01(48591DE3C19B)	-0.203	-1.219	0.730	-4.883	15.320	-77.576	-71.33	21.77	0.29	-46.746	-35.966	80.066	0.77145	-0.60876	0.17749	-0.05161	25.4	13111	100
2025-3-27 20:6:34.871	WT901BLE68-01(48591DE3C19B)	-0.203	-0.965	0.684	13.489	115.051	-72.144	-71.65	21.21	-0.76	-46.746	-35.966	80.066	0.77145	-0.60876	0.17749	-0.05161	25.4	13111	100
2025-3-27 20:6:34.901	WT901BLE68-01(48591DE3C19B)	-0.152	-0.965	0.684	13.489	115.051	-72.144	-72.03	20.82	-2.30	-46.746	-35.966	80.066	0.77145	-0.60876	0.17749	-0.05161	25.4	13111	100
2025-3-27 20:6:34.901	WT901BLE68-01(48591DE3C19B)	-0.152	-0.590	0.509	11.963	158.875	-56.213	-72.47	20.58	-4.02	-46.746	-35.966	80.066	0.77145	-0.60876	0.17749	-0.05161	25.4	13111	100
2025-3-27 20:6:34.901	WT901BLE68-01(48591DE3C19B)	-0.035	-0.590	0.509	11.963	158.875	-56.213	-72.97	20.45	-5.92	-46.746	-35.966	80.066	0.77145	-0.60876	0.17749	-0.05161	25.4	13111	100
2025-3-27 20:6:34.901	WT901BLE68-01(48591DE3C19B)	-0.035	-0.403	0.292	3.479	144.470	-45.654	-73.47	20.35	-7.73	-46.746	-35.966	80.066	0.77145	-0.60876	0.17749	-0.05161	25.4	13111	100
2025-3-27 20:6:34.933	WT901BLE68-01(48591DE3C19B)	-0.105	-0.403	0.292	3.479	144.470	-45.654	-73.96	20.25	-9.44	-46.746	-35.966	80.066	0.77145	-0.60876	0.17749	-0.05161	25.4	13111	100
2025-3-27 20:6:34.933	WT901BLE68-01(48591DE3C19B)	-0.105	-0.351	0.171	7.080	106.934	-35.034	-74.36	20.14	-10.94	-46.746	-35.966	80.066	0.77145	-0.60876	0.17749	-0.05161	25.4	13111	100
2025-3-27 20:6:34.933	WT901BLE68-01(48591DE3C19B)	-0.366	-0.351	0.171	7.080	106.934	-35.034	-74.66	20.03	-12.21	-46.746	-35.966	80.066	0.77145	-0.60876	0.17749	-0.05161	25.4	13111	100
2025-3-27 20:6:34.933	WT901BLE68-01(48591DE3C19B)	-0.366	-0.245	0.149	19.775	53.955	-12.329	-74.78	19.96	-13.18	-46.746	-35.966	80.066	0.77145	-0.60876	0.17749	-0.05161	25.4	13111	100
2025-3-27 20:6:34.991	WT901BLE68-01(48591DE3C19B)	-0.516	-0.245	0.149	19.775	53.955	-12.329	-74.74	19.94	-13.83	-46.746	-35.966	80.066	0.77145	-0.60876	0.17749	-0.05161	25.4	13111	100
2025-3-27 20:6:34.992	WT901BLE68-01(48591DE3C19B)	-0.516	-0.134	0.134	2.258	-16.602	11.292	-74.64	19.96	-14.06	-46.746	-35.966	80.066	0.79013	-0.57574	0.20984	0.00842	25.4	13111	100
2025-3-27 20:6:34.992	WT901BLE68-01(48591DE3C19B)	-0.479	-0.134	0.134	2.258	-16.602	11.292	-74.50	20.02	-13.88	-46.746	-35.966	80.066	0.79013	-0.57574	0.20984	0.00842	25.4	13111	100
2025-3-27 20:6:34.992	WT901BLE68-01(48591DE3C19B)	-0.479	-0.317	0.169	-22.034	-70.007	15.442	-74.37	20.04	-13.39	-46.746	-35.966	80.066	0.79013	-0.57574	0.20984	0.00842	25.4	13111	100
2025-3-27 20:6:35.20	WT901BLE68-01(48591DE3C19B)	-0.438	-0.317	0.169	-22.034	-70.007	15.442	-74.28	20.03	-12.62	-46.746	-35.966	80.066	0.79013	-0.57574	0.20984	0.00842	25.4	13111	100
2025-3-27 20:6:35.20	WT901BLE68-01(48591DE3C19B)	-0.438	-0.665	0.211	-38.940	-101.074	5.493	-74.22	19.95	-11.68	-46.746	-35.966	80.066	0.79013	-0.57574	0.20984	0.00842	25.4	13111	100
2025-3-27 20:6:35.21	WT901BLE68-01(48591DE3C19B)	-0.394	-0.665	0.211	-38.940	-101.074	5.493	-74.21	19.78	-10.61	-46.746	-35.966	80.066	0.79013	-0.57574	0.20984	0.00842	25.4	13111	100
2025-3-27 20:6:35.21	WT901BLE68-01(48591DE3C19B)	-0.394	-1.198	0.200	-68.176	-133.118	-20.813	-74.31	19.43	-9.42	-46.746	-35.966	80.066	0.79013	-0.57574	0.20984	0.00842	25.4	13111	100
2025-3-27 20:6:35.51	WT901BLE68-01(48591DE3C19B)	-0.297	-1.198	0.200	-68.176	-133.118	-20.813	-74.53	18.92	-8.12	-46.746	-35.966	80.066	0.79013	-0.57574	0.20984	0.00842	25.4	13111	100
2025-3-27 20:6:35.52	WT901BLE68-01(48591DE3C19B)	-0.297	-2.121	0.264	-85.266	-143.433	-54.077	-74.95	18.05	-6.84	-46.746	-35.966	80.066	0.79013	-0.57574	0.20984	0.00842	25.4	13111	100
2025-3-27 20:6:35.52	WT901BLE68-01(48591DE3C19B)	-0.133	-2.121	0.264	-85.266	-143.433	-54.077	-75.40	17.17	-5.59	-46.746	-35.966	80.066	0.79013	-0.57574	0.20984	0.00842	25.4	13111	100
2025-3-27 20:6:35.52	WT901BLE68-01(48591DE3C19B)	-0.133	-2.731	0.346	-20.508	-83.008	-56.519	-75.42	16.41	-4.97	-46.746	-35.966	80.066	0.79013	-0.57574	0.20984	0.00842	25.4	13111	100
2025-3-27 20:6:35.111	WT901BLE68-01(48591DE3C19B)	-0.288	-2.731	0.346	-20.508	-83.008	-56.519	-75.45	15.64	-4.38	-46.746	-35.966	80.066	0.79013	-0.57574	0.20984	0.00842	25.4	13111	100
2025-3-27 20:6:35.111	WT901BLE68-01(48591DE3C19B)	-0.288	-1.943	0.433	44.678	7.813	-61.707	-75.09	15.05	-4.71	-46.746	-35.966	80.066	0.79013	-0.57574	0.20984	0.00842	25.4	13111	100
2025-3-27 20:6:35.111	WT901BLE68-01(48591DE3C19B)	-0.271	-1.943	0.433	44.678	7.813	-61.707	-74.72	14.46	-5.05	-46.746	-35.966	80.066	0.79013	-0.57574	0.20984	0.00842	25.4	13111	100
2025-3-27 20:6:35.112	WT901BLE68-01(48591DE3C19B)	-0.271	-1.559	0.322	38.757	73.608	-52.795	-74.58	14.13	-6.02	-46.746	-35.966	80.066	0.79013	-0.57574	0.20984	0.00842	25.4	13111	100
2025-3-27 20:6:35.143	WT901BLE68-01(48591DE3C19B)	-0.178	-1.559	0.322	38.757	73.608	-52.795	-74.42	13.81	-6.99	-46.746	-35.966	80.066	0.79013	-0.57574	0.20984	0.00842	25.4	13111	100
2025-3-27 20:6:35.143	WT901BLE68-01(48591DE3C19B)	-0.178	-1.257	0.303	43.335	138.184	-28.442	-74.36	13.89	-8.51	-46.746	-35.966	80.066	0.79013	-0.57574	0.20984	0.00842	25.4	13111	100
2025-3-27 20:6:35.143	WT901BLE68-01(48591DE3C19B)	-0.172	-1.257	0.303	43.335	138.184	-28.442	-74.30	13.97	-10.04	-46.746	-35.966	80.066	0.79013	-0.57574	0.20984	0.00842	25.4	13111	100
2025-3-27 20:6:35.143	WT901BLE68-01(48591DE3C19B)	-0.172	-0.874	0.365	36.072	166.138	1.282	-74.36	14.41	-11.76	-46.746	-35.966	80.066	0.79013	-0.57574	0.20984	0.00842	25.4	13111	100
2025-3-27 20:6:35.202	WT901BLE68-01(48591DE3C19B)	-0.141	-0.874	0.365	36.072	166.138	1.282	-74.43	14.85	-13.46	-46.746	-35.966	80.066	0.79013	-0.57574	0.20984	0.00842	25.4	13111	100
2025-3-27 20:6:35.202	WT901BLE68-01(48591DE3C19B)	-0.141	-0.603	0.435	25.330	159.790	20.142	-74.59	15.45	-15.06	-41.062	-37.730	79.576	0.79013	-0.57574	0.20984	0.00842	25.4	13111	100
2025-3-27 20:6:35.202	WT901BLE68-01(48591DE3C19B)	-0.140	-0.603	0.435	25.330	159.790	20.142	-74.76	16.03	-16.65	-41.062	-37.730	79.576	0.79013	-0.57574	0.20984	0.00842	25.4	13111	100
2025-3-27 20:6:35.202	WT901BLE68-01(48591DE3C19B)	-0.140	-0.418	0.404	23.560	145.691	35.889	-74.89	16.73	-18.06	-41.062	-37.730	79.576	0.79013	-0.57574	0.20984	0.00842	25.4	13111	100
2025-3-27 20:6:35.230	WT901BLE68-01(48591DE3C19B)	-0.203	-0.418	0.404	23.560	145.691	35.889	-75.05	17.41	-19.47	-41.062	-37.730	79.576	0.79013	-0.57574	0.20984	0.00842	25.4	13111	100
2025-3-27 20:6:35.230	WT901BLE68-01(48591DE3C19B)	-0.203	-0.240	0.281	28.687	137.024	55.603	-75.11	18.26	-20.75	-41.062	-37.730	79.576	0.79013	-0.57574	0.20984	0.00842	25.4	13111	100
2025-3-27 20:6:35.230	WT901BLE68-01(48591DE3C19B)	-0.290	-0.240	0.281	28.687	137.024	55.603	-75.19	19.11	-22.02	-41.062	-37.730	79.576	0.79013	-0.57574	0.20984	0.00842	25.4	13111	100
2025-3-27 20:6:35.231	WT901BLE68-01(48591DE3C19B)	-0.290	-0.113	0.161	28.870	126.160	76.233	-75.23	20.13	-23.12	-41.062	-37.730	79.576	0.79013	-0.57574	0.20984	0.00842	25.4	13111	100
2025-3-27 20:6:35.264	WT901BLE68-01(48591DE3C19B)	-0.354	-0.113	0.161	28.870	126.160	76.233	-75.28	21.15	-24.22	-41.062	-37.730	79.576	0.79013	-0.57574	0.20984	0.00842	25.4	13111	100
2025-3-27 20:6:35.264	WT901BLE68-01(48591DE3C19B)	-0.354	-0.137	0.085	19.226	102.966	91.736	-75.34	22.27	-25.03	-41.062	-37.730	79.576	0.79013	-0.57574	0.20984	0.00842	25.4	13111	100
2025-3-27 20:6:35.265	WT901BLE68-01(48591DE3C19B)	-0.353	-0.137	0.085	19.226	102.966	91.736	-75.43	23.41	-25.83	-41.062	-37.730	79.576	0.79013	-0.57574	0.20984	0.00842	25.4	13111	100
2025-3-27 20:6:35.265	WT901BLE68-01(48591DE3C19B)	-0.353	-0.290	0.019	4.028	74.402	94.360	-75.55	24.49	-26.33	-41.062	-37.730	79.576	0.79013	-0.57574	0.20984	0.00842	25.4	13111	100
2025-3-27 20:6:35.323	WT901BLE68-01(48591DE3C19B)	-0.348	-0.290	0.019	4.028	74.402	94.360	-75.70	25.58	-26.82	-41.062	-37.730	79.576	0.79013	-0.57574	0.20984	0.00842	25.4	13111	100
2025-3-27 20:6:35.323	WT901BLE68-01(48591DE3C19B)	-0.348	-0.531	-0.068	-10.254	52.490	82.153	-75.92	26.50	-27.10	-41.062	-37.730	79.576	0.79013	-0.57574	0.20984	0.00842	25.4	13111	100
2025-3-27 20:6:35.323	WT901BLE68-01(48591DE3C19B)	-0.395	-0.531	-0.068	-10.254	52.490	82.153	-76.16	27.42	-27.39	-41.062	-37.730	79.576	0.79013	-0.57574	0.20984	0.00842	25.4	13111	100
2025-3-27 20:6:35.323	WT901BLE68-01(48591DE3C19B)	-0.395	-0.749	-0.116	-17.517	33.936	62.134	-76.43	28.09	-27.54	-41.062	-37.730	79.576	0.79013	-0.57574	0.20984	0.00842	25.4	13111	100
2025-3-27 20:6:35.353	WT901BLE68-01(48591DE3C19B)	-0.388	-0.749	-0.116	-17.517	33.936	62.134	-76.72	28.76	-27.70	-41.062	-37.730	79.576	0.79013	-0.57574	0.20984	0.00842	25.4	13111	100
2025-3-27 20:6:35.354	WT901BLE68-01(48591DE3C19B)	-0.388	-1.091	-0.221	-37.292	17.517	19.348	-77.18	28.97	-27.80	-41.062	-37.730	79.576	0.79013	-0.57574	0.20984	0.00842	25.4	13111	100
2025-3-27 20:6:35.354	WT901BLE68-01(48591DE3C19B)	-0.446	-1.091	-0.221	-37.292	17.517	19.348	-77.67	29.17	-27.90	-41.062	-37.730	79.576	0.79013	-0.57574	0.20984	0.00842	25.4	13111	100
2025-3-27 20:6:35.354	WT901BLE68-01(48591DE3C19B)	-0.446	-1.637	-0.107	-14.038	20.813	-28.503	-78.02	28.90	-28.17	-41.062	-37.730	79.576	0.76721	-0.54514	0.33630	-0.03195	25.4	13111	100
2025-3-27 20:6:35.384	WT901BLE68-01(48591DE3C19B)	-0.804	-1.637	-0.107	-14.038	20.813	-28.503	-78.36	28.62	-28.45	-41.062	-37.730	79.576	0.76721	-0.54514	0.33630	-0.03195	25.4	13111	100
2025-3-27 20:6:35.384	WT901BLE68-01(48591DE3C19B)	-0.804	-1.695	0.216	23.865	46.875	-65.002	-78.50	28.04	-29.09	-41.062	-37.730	79.576	0.76721	-0.54514	0.33630	-0.03195	25.4	13111	100
2025-3-27 20:6:35.384	WT901BLE68-01(48591DE3C19B)	-1.178	-1.695	0.216	23.865	46.875	-65.002	-78.62	27.47	-29.72	-41.062	-37.730	79.576	0.76721	-0.54514	0.33630	-0.03195	25.4	13111	100
2025-3-27 20:6:35.384	WT901BLE68-01(48591DE3C19B)	-1.178	-1.461	0.459	26.978	64.392	-73.486	-78.78	26.86	-30.55	-41.062	-37.730	79.576	0.76721	-0.54514	0.33630	-0.03195	25.4	13111	100
2025-3-27 20:6:35.441	WT901BLE68-01(48591DE3C19B)	-1.048	-1.461	0.459	26.978	64.392	-73.486	-78.93	26.26	-31.35	-41.062	-37.730	79.576	0.76721	-0.54514	0.33630	-0.03195	25.4	13111	100
2025-3-27 20:6:35.441	WT901BLE68-01(48591DE3C19B)	-1.048	-1.027	0.563	38.330	76.538	-60.364	-78.99	25.83	-32.24	-41.062	-37.730	79.576	0.76721	-0.54514	0.33630	-0.03195	25.4	13111	100
2025-3-27 20:6:35.441	WT901BLE68-01(48591DE3C19B)	-0.748	-1.027	0.563	38.330	76.538	-60.364	-79.02	25.41	-33.12	-41.062	-37.730	79.576	0.76721	-0.54514	0.33630	-0.03195	25.4	13111	100
2025-3-27 20:6:35.441	WT901BLE68-01(48591DE3C19B)	-0.748	-0.639	0.519	34.485	82.947	-33.264	-79.09	25.28	-33.99	-41.062	-37.730	79.576	0.76721	-0.54514	0.33630	-0.03195	25.4	13111	100
2025-3-27 20:6:35.470	WT901BLE68-01(48591DE3C19B)	-0.536	-0.639	0.519	34.485	82.947	-33.264	-79.15	25.15	-34.84	-41.062	-37.730	79.576	0.76721	-0.54514	0.33630	-0.03195	25.4	13111	100
2025-3-27 20:6:35.470	WT901BLE68-01(48591DE3C19B)	-0.536	-0.313	0.441	10.498	38.879	4.700	-79.19	25.33	-35.14	-41.062	-37.730	79.576	0.76721	-0.54514	0.33630	-0.03195	25.4	13111	100
2025-3-27 20:6:35.470	WT901BLE68-01(48591DE3C19B)	-0.373	-0.313	0.441	10.498	38.879	4.700	-79.24	25.51	-35.42	-41.062	-37.730	79.576	0.76721	-0.54514	0.33630	-0.03195	25.4	13111	100
2025-3-27 20:6:35.470	WT901BLE68-01(48591DE3C19B)	-0.373	-0.190	0.331	-21.912	-49.866	23.560	-79.16	25.72	-34.69	-41.062	-37.730	79.576	0.76721	-0.54514	0.33630	-0.03195	25.4	13111	100
2025-3-27 20:6:35.501	WT901BLE68-01(48591DE3C19B)	-0.106	-0.190	0.331	-21.912	-49.866	23.560	-79.08	25.93	-33.97	-41.062	-37.730	79.576	0.76721	-0.54514	0.33630	-0.03195	25.4	13111	100
2025-3-27 20:6:35.501	WT901BLE68-01(48591DE3C19B)	0.014	-0.167	0.250	-44.983	-129.211	35.156	-78.82	26.10	-32.35	-41.062	-37.730	79.576	0.76721	-0.54514	0.33630	-0.03195	25.4	13111	100
2025-3-27 20:6:35.501	WT901BLE68-01(48591DE3C19B)	0.014	-0.106	0.233	-51.392	-160.767	47.180	-78.50	26.28	-30.55	-41.062	-37.730	79.576	0.76721	-0.54514	0.33630	-0.03195	25.4	13111	100
2025-3-27 20:6:35.502	WT901BLE68-01(48591DE3C19B)	-0.135	-0.106	0.233	-51.392	-160.767	47.180	-78.12	26.48	-28.58	-41.062	-37.730	79.576	0.76721	-0.54514	0.33630	-0.03195	25.4	13111	100
2025-3-27 20:6:35.591	WT901BLE68-01(48591DE3C19B)	-0.135	-0.180	0.208	-47.241	-155.273	64.575	-77.70	26.76	-26.62	-41.062	-37.730	79.576	0.76721	-0.54514	0.33630	-0.03195	25.4	13111	100
2025-3-27 20:6:35.592	WT901BLE68-01(48591DE3C19B)	-0.256	-0.180	0.208	-47.241	-155.273	64.575	-77.25	27.10	-24.68	-41.062	-37.730	79.576	0.76721	-0.54514	0.33630	-0.03195	25.4	13111	100
2025-3-27 20:6:35.592	WT901BLE68-01(48591DE3C19B)	-0.256	-0.546	0.081	-68.970	-102.600	59.937	-77.03	27.47	-23.02	-41.062	-37.730	79.576	0.76721	-0.54514	0.33630	-0.03195	25.4	13111	100
2025-3-27 20:6:35.592	WT901BLE68-01(48591DE3C19B)	-0.322	-0.546	0.081	-68.970	-102.600	59.937	-77.05	27.86	-21.67	-41.062	-37.730	79.576	0.76721	-0.54514	0.33630	-0.03195	25.4	13111	100
2025-3-27 20:6:35.593	WT901BLE68-01(48591DE3C19B)	-0.322	-1.105	-0.032	-80.383	-88.196	26.428	-77.19	28.10	-20.45	-55.468	-39.298	82.418	0.76721	-0.54514	0.33630	-0.03195	25.4	13111	100
2025-3-27 20:6:35.593	WT901BLE68-01(48591DE3C19B)	-0.398	-1.105	-0.032	-80.383	-88.196	26.428	-77.46	28.17	-19.37	-55.468	-39.298	82.418	0.76721	-0.54514	0.33630	-0.03195	25.4	13111	100
2025-3-27 20:6:35.593	WT901BLE68-01(48591DE3C19B)	-0.398	-2.016	-0.131	-95.520	-81.604	-16.357	-77.87	28.04	-18.41	-55.468	-39.298	82.418	0.76721	-0.54514	0.33630	-0.03195	25.4	13111	100
2025-3-27 20:6:35.593	WT901BLE68-01(48591DE3C19B)	-0.487	-2.016	-0.131	-95.520	-81.604	-16.357	-78.43	27.69	-17.56	-55.468	-39.298	82.418	0.76721	-0.54514	0.33630	-0.03195	25.4	13111	100
2025-3-27 20:6:35.623	WT901BLE68-01(48591DE3C19B)	-0.487	-2.839	-0.127	-31.738	-75.500	-41.016	-78.72	27.21	-16.79	-55.468	-39.298	82.418	0.76721	-0.54514	0.33630	-0.03195	25.4	13111	100
2025-3-27 20:6:35.623	WT901BLE68-01(48591DE3C19B)	-0.608	-2.839	-0.127	-31.738	-75.500	-41.016	-78.74	26.61	-16.10	-55.468	-39.298	82.418	0.76721	-0.54514	0.33630	-0.03195	25.4	13111	100
2025-3-27 20:6:35.623	WT901BLE68-01(48591DE3C19B)	-0.608	-2.141	0.195	31.311	-86.609	-51.453	-78.45	25.95	-15.38	-55.468	-39.298	82.418	0.76721	-0.54514	0.33630	-0.03195	25.4	13111	100
2025-3-27 20:6:35.623	WT901BLE68-01(48591DE3C19B)	-0.376	-2.141	0.195	31.311	-86.609	-51.453	-77.83	25.22	-14.62	-55.468	-39.298	82.418	0.76721	-0.54514	0.33630	-0.03195	25.4	13111	100
2025-3-27 20:6:35.682	WT901BLE68-01(48591DE3C19B)	-0.376	-1.618	0.227	14.648	-75.623	-62.561	-77.35	24.44	-13.95	-55.468	-39.298	82.418	0.76721	-0.54514	0.33630	-0.03195	25.4	13111	100
2025-3-27 20:6:35.682	WT901BLE68-01(48591DE3C19B)	-0.193	-1.618	0.227	14.648	-75.623	-62.561	-76.99	23.63	-13.36	-55.468	-39.298	82.418	0.76721	-0.54514	0.33630	-0.03195	25.4	13111	100
2025-3-27 20:6:35.682	WT901BLE68-01(48591DE3C19B)	-0.193	-1.351	0.322	27.222	-28.320	-56.152	-76.67	22.89	-13.03	-55.468	-39.298	82.418	0.76721	-0.54514	0.33630	-0.03195	25.4	13111	100
2025-3-27 20:6:35.682	WT901BLE68-01(48591DE3C19B)	-0.180	-1.351	0.322	27.222	-28.320	-56.152	-76.39	22.24	-12.95	-55.468	-39.298	82.418	0.76721	-0.54514	0.33630	-0.03195	25.4	13111	100
2025-3-27 20:6:35.710	WT901BLE68-01(48591DE3C19B)	-0.180	-0.917	0.394	33.752	8.484	-31.006	-76.14	21.75	-13.03	-55.468	-39.298	82.418	0.76721	-0.54514	0.33630	-0.03195	25.4	13111	100
2025-3-27 20:6:35.711	WT901BLE68-01(48591DE3C19B)	-0.209	-0.917	0.394	33.752	8.484	-31.006	-75.91	21.43	-13.27	-55.468	-39.298	82.418	0.76721	-0.54514	0.33630	-0.03195	25.4	13111	100
2025-3-27 20:6:35.711	WT901BLE68-01(48591DE3C19B)	-0.209	-0.614	0.475	15.503	-2.136	-11.658	-75.73	21.19	-13.43	-55.468	-39.298	82.418	0.76721	-0.54514	0.33630	-0.03195	25.4	13111	100
2025-3-27 20:6:35.711	WT901BLE68-01(48591DE3C19B)	-0.067	-0.614	0.475	15.503	-2.136	-11.658	-75.60	21.04	-13.51	-55.468	-39.298	82.418	0.76721	-0.54514	0.33630	-0.03195	25.4	13111	100
2025-3-27 20:6:35.750	WT901BLE68-01(48591DE3C19B)	-0.067	-0.517	0.475	3.723	-15.259	-2.502	-75.50	20.91	-13.51	-55.468	-39.298	82.418	0.76721	-0.54514	0.33630	-0.03195	25.4	13111	100
2025-3-27 20:6:35.752	WT901BLE68-01(48591DE3C19B)	-0.040	-0.517	0.475	3.723	-15.259	-2.502	-75.42	20.80	-13.43	-55.468	-39.298	82.418	0.76721	-0.54514	0.33630	-0.03195	25.4	13111	100
2025-3-27 20:6:35.752	WT901BLE68-01(48591DE3C19B)	-0.040	-0.414	0.375	13.062	9.827	1.526	-75.32	20.75	-13.48	-55.468	-39.298	82.418	0.76721	-0.54514	0.33630	-0.03195	25.4	13111	100
2025-3-27 20:6:35.752	WT901BLE68-01(48591DE3C19B)	-0.084	-0.414	0.375	13.062	9.827	1.526	-75.22	20.74	-13.66	-55.468	-39.298	82.418	0.76721	-0.54514	0.33630	-0.03195	25.4	13111	100
2025-3-27 20:6:35.862	WT901BLE68-01(48591DE3C19B)	-0.084	-0.262	0.233	24.719	47.241	9.888	-75.11	20.82	-14.02	-55.468	-39.298	82.418	0.76721	-0.54514	0.33630	-0.03195	25.4	13111	100
2025-3-27 20:6:35.862	WT901BLE68-01(48591DE3C19B)	-0.141	-0.262	0.233	24.719	47.241	9.888	-75.01	20.98	-14.56	-55.468	-39.298	82.418	0.78799	-0.57446	0.22104	0.00964	25.4	13111	100
2025-3-27 20:6:35.862	WT901BLE68-01(48591DE3C19B)	-0.141	-0.173	0.118	30.396	77.820	22.400	-74.93	21.25	-15.23	-55.468	-39.298	82.418	0.78799	-0.57446	0.22104	0.00964	25.4	13111	100
2025-3-27 20:6:35.862	WT901BLE68-01(48591DE3C19B)	-0.274	-0.173	0.118	30.396	77.820	22.400	-74.87	21.62	-16.05	-55.468	-39.298	82.418	0.78799	-0.57446	0.22104	0.00964	25.4	13111	100
2025-3-27 20:6:35.863	WT901BLE68-01(48591DE3C19B)	-0.274	-0.188	0.085	33.020	87.708	33.508	-74.81	22.06	-16.89	-55.468	-39.298	82.418	0.78799	-0.57446	0.22104	0.00964	25.4	13111	100
2025-3-27 20:6:35.863	WT901BLE68-01(48591DE3C19B)	-0.396	-0.188	0.085	33.020	87.708	33.508	-74.76	22.57	-17.75	-55.468	-39.298	82.418	0.78799	-0.57446	0.22104	0.00964	25.4	13111	100
2025-3-27 20:6:35.864	WT901BLE68-01(48591DE3C19B)	-0.396	-0.351	0.076	22.522	63.843	40.710	-74.72	23.10	-18.47	-55.468	-39.298	82.418	0.78799	-0.57446	0.22104	0.00964	25.4	13111	100
2025-3-27 20:6:35.864	WT901BLE68-01(48591DE3C19B)	-0.445	-0.351	0.076	22.522	63.843	40.710	-74.69	23.64	-19.04	-55.468	-39.298	82.418	0.78799	-0.57446	0.22104	0.00964	25.4	13111	100
2025-3-27 20:6:35.864	WT901BLE68-01(48591DE3C19B)	-0.445	-0.613	0.033	5.005	28.137	35.217	-74.67	24.11	-19.42	-55.468	-39.298	82.418	0.78799	-0.57446	0.22104	0.00964	25.4	13111	100
2025-3-27 20:6:35.864	WT901BLE68-01(48591DE3C19B)	-0.512	-0.613	0.033	5.005	28.137	35.217	-74.69	24.53	-19.61	-55.468	-39.298	82.418	0.78799	-0.57446	0.22104	0.00964	25.4	13111	100
2025-3-27 20:6:35.864	WT901BLE68-01(48591DE3C19B)	-0.512	-0.878	0.037	-4.700	8.301	18.616	-74.73	24.84	-19.70	-55.468	-39.298	82.418	0.78799	-0.57446	0.22104	0.00964	25.4	13111	100
2025-3-27 20:6:35.864	WT901BLE68-01(48591DE3C19B)	-0.663	-0.878	0.037	-4.700	8.301	18.616	-74.80	25.05	-19.72	-55.468	-39.298	82.418	0.78799	-0.57446	0.22104	0.00964	25.4	13111	100
2025-3-27 20:6:35.921	WT901BLE68-01(48591DE3C19B)	-0.663	-1.283	0.141	-9.827	-7.751	-9.094	-74.88	25.10	-19.69	-55.468	-39.298	82.418	0.78799	-0.57446	0.22104	0.00964	25.4	13111	100
2025-3-27 20:6:35.921	WT901BLE68-01(48591DE3C19B)	-0.797	-1.283	0.141	-9.827	-7.751	-9.094	-74.98	25.00	-19.62	-55.468	-39.298	82.418	0.78799	-0.57446	0.22104	0.00964	25.4	13111	100
2025-3-27 20:6:35.921	WT901BLE68-01(48591DE3C19B)	-0.797	-1.959	0.328	-14.038	-25.574	-50.171	-75.09	24.69	-19.52	-55.468	-39.298	82.418	0.78799	-0.57446	0.22104	0.00964	25.4	13111	100
2025-3-27 20:6:35.921	WT901BLE68-01(48591DE3C19B)	-0.829	-1.959	0.328	-14.038	-25.574	-50.171	-75.20	24.14	-19.38	-55.468	-39.298	82.418	0.78799	-0.57446	0.22104	0.00964	25.4	13111	100
2025-3-27 20:6:35.954	WT901BLE68-01(48591DE3C19B)	-0.829	-2.314	0.500	13.367	1.587	-65.430	-75.24	23.55	-19.41	-55.468	-39.298	82.418	0.78799	-0.57446	0.22104	0.00964	25.4	13111	100
2025-3-27 20:6:35.954	WT901BLE68-01(48591DE3C19B)	-0.906	-2.314	0.500	13.367	1.587	-65.430	-75.21	22.93	-19.61	-55.468	-39.298	82.418	0.78799	-0.57446	0.22104	0.00964	25.4	13111	100
2025-3-27 20:6:35.954	WT901BLE68-01(48591DE3C19B)	-0.906	-1.567	0.650	50.659	74.524	-57.312	-75.12	22.44	-20.18	-55.468	-39.298	82.418	0.78799	-0.57446	0.22104	0.00964	25.4	13111	100
2025-3-27 20:6:35.954	WT901BLE68-01(48591DE3C19B)	-0.838	-1.567	0.650	50.659	74.524	-57.312	-74.99	22.09	-21.12	-55.468	-39.298	82.418	0.78799	-0.57446	0.22104	0.00964	25.4	13111	100
2025-3-27 20:6:35.984	WT901BLE68-01(48591DE3C19B)	-0.838	-0.989	0.829	49.622	100.708	-29.358	-74.92	22.08	-22.23	-55.468	-39.298	82.418	0.78799	-0.57446	0.22104	0.00964	25.4	13111	100
2025-3-27 20:6:35.984	WT901BLE68-01(48591DE3C19B)	-0.638	-0.989	0.829	49.622	100.708	-29.358	-74.83	22.09	-23.33	-55.468	-39.298	82.418	0.78799	-0.57446	0.22104	0.00964	25.4	13111	100
2025-3-27 20:6:35.984	WT901BLE68-01(48591DE3C19B)	-0.638	-0.690	0.748	33.081	86.792	3.723	-74.82	22.38	-24.18	-56.056	-40.376	83.986	0.78799	-0.57446	0.22104	0.00964	25.4	13111	100
2025-3-27 20:6:35.984	WT901BLE68-01(48591DE3C19B)	-0.577	-0.690	0.748	33.081	86.792	3.723	-74.79	22.67	-25.03	-56.056	-40.376	83.986	0.78799	-0.57446	0.22104	0.00964	25.4	13111	100
2025-3-27 20:6:36.102	WT901BLE68-01(48591DE3C19B)	-0.577	-0.393	0.549	17.822	30.579	33.081	-74.66	23.11	-25.20	-56.056	-40.376	83.986	0.78799	-0.57446	0.22104	0.00964	25.4	13111	100
2025-3-27 20:6:36.102	WT901BLE68-01(48591DE3C19B)	-0.415	-0.393	0.549	17.822	30.579	33.081	-74.51	23.55	-25.37	-56.056	-40.376	83.986	0.78799	-0.57446	0.22104	0.00964	25.4	13111	100
2025-3-27 20:6:36.102	WT901BLE68-01(48591DE3C19B)	-0.415	-0.242	0.313	-16.235	-58.838	45.471	-74.31	23.87	-24.55	-56.056	-40.376	83.986	0.78799	-0.57446	0.22104	0.00964	25.4	13111	100
2025-3-27 20:6:36.102	WT901BLE68-01(48591DE3C19B)	-0.164	-0.242	0.313	-16.235	-58.838	45.471	-74.10	24.20	-23.72	-56.056	-40.376	83.986	0.78799	-0.57446	0.22104	0.00964	25.4	13111	100
2025-3-27 20:6:36.103	WT901BLE68-01(48591DE3C19B)	-0.164	-0.237	0.137	-31.921	-101.807	51.697	-73.86	24.46	-22.43	-56.056	-40.376	83.986	0.78799	-0.57446	0.22104	0.00964	25.4	13111	100
2025-3-27 20:6:36.103	WT901BLE68-01(48591DE3C19B)	-0.101	-0.237	0.137	-31.921	-101.807	51.697	-73.60	24.72	-21.14	-56.056	-40.376	83.986	0.78799	-0.57446	0.22104	0.00964	25.4	13111	100
2025-3-27 20:6:36.103	WT901BLE68-01(48591DE3C19B)	-0.101	-0.225	0.088	-25.513	-72.205	59.509	-73.39	25.13	-20.14	-56.056	-40.376	83.986	0.78799	-0.57446	0.22104	0.00964	25.4	13111	100
2025-3-27 20:6:36.103	WT901BLE68-01(48591DE3C19B)	-0.212	-0.225	0.088	-25.513	-72.205	59.509	-73.17	25.53	-19.14	-56.056	-40.376	83.986	0.78799	-0.57446	0.22104	0.00964	25.4	13111	100
2025-3-27 20:6:36.104	WT901BLE68-01(48591DE3C19B)	-0.212	-0.216	0.138	-13.428	-15.320	56.702	-73.10	26.06	-18.75	-56.056	-40.376	83.986	0.78799	-0.57446	0.22104	0.00964	25.4	13111	100
2025-3-27 20:6:36.104	WT901BLE68-01(48591DE3C19B)	-0.318	-0.216	0.138	-13.428	-15.320	56.702	-73.02	26.59	-18.36	-56.056	-40.376	83.986	0.78799	-0.57446	0.22104	0.00964	25.4	13111	100
2025-3-27 20:6:36.104	WT901BLE68-01(48591DE3C19B)	-0.318	-0.146	0.182	-7.874	14.038	52.185	-73.02	27.17	-18.29	-56.056	-40.376	83.986	0.78799	-0.57446	0.22104	0.00964	25.4	13111	100
2025-3-27 20:6:36.104	WT901BLE68-01(48591DE3C19B)	-0.361	-0.146	0.182	-7.874	14.038	52.185	-73.03	27.75	-18.20	-56.056	-40.376	83.986	0.78799	-0.57446	0.22104	0.00964	25.4	13111	100
2025-3-27 20:6:36.252	WT901BLE68-01(48591DE3C19B)	-0.361	-0.126	0.181	-8.606	12.634	49.927	-73.03	28.32	-18.09	-56.056	-40.376	83.986	0.78799	-0.57446	0.22104	0.00964	25.4	13111	100
2025-3-27 20:6:36.252	WT901BLE68-01(48591DE3C19B)	-0.389	-0.126	0.181	-8.606	12.634	49.927	-73.03	28.89	-17.96	-56.056	-40.376	83.986	0.78799	-0.57446	0.22104	0.00964	25.4	13111	100
2025-3-27 20:6:36.252	WT901BLE68-01(48591DE3C19B)	-0.389	-0.210	0.176	-10.742	-11.841	46.265	-72.92	29.37	-17.56	-56.056	-40.376	83.986	0.78799	-0.57446	0.22104	0.00964	25.4	13111	100
2025-3-27 20:6:36.252	WT901BLE68-01(48591DE3C19B)	-0.431	-0.210	0.176	-10.742	-11.841	46.265	-72.82	29.84	-17.15	-56.056	-40.376	83.986	0.78799	-0.57446	0.22104	0.00964	25.4	13111	100
2025-3-27 20:6:36.254	WT901BLE68-01(48591DE3C19B)	-0.431	-0.416	0.114	-21.545	-49.011	34.973	-72.64	30.11	-16.36	-56.056	-40.376	83.986	0.79199	-0.53632	0.28854	0.04153	25.4	13111	100
2025-3-27 20:6:36.254	WT901BLE68-01(48591DE3C19B)	-0.541	-0.416	0.114	-21.545	-49.011	34.973	-72.47	30.37	-15.58	-56.056	-40.376	83.986	0.79199	-0.53632	0.28854	0.04153	25.4	13111	100
2025-3-27 20:6:36.254	WT901BLE68-01(48591DE3C19B)	-0.541	-0.835	0.095	-40.710	-86.548	12.695	-72.33	30.29	-14.47	-56.056	-40.376	83.986	0.79199	-0.53632	0.28854	0.04153	25.4	13111	100
2025-3-27 20:6:36.254	WT901BLE68-01(48591DE3C19B)	-0.710	-0.835	0.095	-40.710	-86.548	12.695	-72.21	30.21	-13.39	-56.056	-40.376	83.986	0.79199	-0.53632	0.28854	0.04153	25.4	13111	100
2025-3-27 20:6:36.283	WT901BLE68-01(48591DE3C19B)	-0.710	-1.631	0.058	-61.401	-122.253	-18.372	-72.19	29.71	-12.07	-56.056	-40.376	83.986	0.79199	-0.53632	0.28854	0.04153	25.4	13111	100
2025-3-27 20:6:36.283	WT901BLE68-01(48591DE3C19B)	-0.820	-1.631	0.058	-61.401	-122.253	-18.372	-72.19	29.19	-10.79	-56.056	-40.376	83.986	0.79199	-0.53632	0.28854	0.04153	25.4	13111	100
2025-3-27 20:6:36.284	WT901BLE68-01(48591DE3C19B)	-0.820	-2.736	0.085	-55.237	-148.132	-44.678	-72.09	28.32	-9.37	-56.056	-40.376	83.986	0.79199	-0.53632	0.28854	0.04153	25.4	13111	100
2025-3-27 20:6:36.284	WT901BLE68-01(48591DE3C19B)	-0.748	-2.736	0.085	-55.237	-148.132	-44.678	-72.02	27.44	-7.98	-56.056	-40.376	83.986	0.79199	-0.53632	0.28854	0.04153	25.4	13111	100
2025-3-27 20:6:36.284	WT901BLE68-01(48591DE3C19B)	-0.748	-2.800	0.204	20.996	-143.860	-44.922	-71.26	26.55	-6.69	-56.056	-40.376	83.986	0.79199	-0.53632	0.28854	0.04153	25.4	13111	100
2025-3-27 20:6:36.284	WT901BLE68-01(48591DE3C19B)	-0.577	-2.800	0.204	20.996	-143.860	-44.922	-70.53	25.64	-5.42	-56.056	-40.376	83.986	0.79199	-0.53632	0.28854	0.04153	25.4	13111	100
2025-3-27 20:6:36.284	WT901BLE68-01(48591DE3C19B)	-0.577	-1.936	0.343	27.161	-85.815	-44.312	-70.03	24.93	-4.79	-56.056	-40.376	83.986	0.79199	-0.53632	0.28854	0.04153	25.4	13111	100
2025-3-27 20:6:36.284	WT901BLE68-01(48591DE3C19B)	-0.304	-1.936	0.343	27.161	-85.815	-44.312	-69.54	24.20	-4.17	-56.056	-40.376	83.986	0.79199	-0.53632	0.28854	0.04153	25.4	13111	100
2025-3-27 20:6:36.315	WT901BLE68-01(48591DE3C19B)	-0.304	-1.625	0.443	31.799	-7.141	-11.353	-69.29	24.06	-4.25	-56.056	-40.376	83.986	0.79199	-0.53632	0.28854	0.04153	25.4	13111	100
2025-3-27 20:6:36.315	WT901BLE68-01(48591DE3C19B)	-0.197	-1.625	0.443	31.799	-7.141	-11.353	-69.03	23.91	-4.33	-56.056	-40.376	83.986	0.79199	-0.53632	0.28854	0.04153	25.4	13111	100
2025-3-27 20:6:36.316	WT901BLE68-01(48591DE3C19B)	-0.197	-1.109	0.481	45.410	59.265	20.630	-68.87	24.29	-4.97	-56.056	-40.376	83.986	0.79199	-0.53632	0.28854	0.04153	25.4	13111	100
2025-3-27 20:6:36.316	WT901BLE68-01(48591DE3C19B)	-0.274	-1.109	0.481	45.410	59.265	20.630	-68.70	24.66	-5.60	-56.056	-40.376	83.986	0.79199	-0.53632	0.28854	0.04153	25.4	13111	100
2025-3-27 20:6:36.343	WT901BLE68-01(48591DE3C19B)	-0.274	-0.673	0.386	22.217	61.462	33.691	-68.75	25.16	-6.21	-56.056	-40.376	83.986	0.79199	-0.53632	0.28854	0.04153	25.4	13111	100
2025-3-27 20:6:36.343	WT901BLE68-01(48591DE3C19B)	-0.209	-0.673	0.386	22.217	61.462	33.691	-68.80	25.66	-6.81	-56.056	-40.376	83.986	0.79199	-0.53632	0.28854	0.04153	25.4	13111	100
2025-3-27 20:6:36.343	WT901BLE68-01(48591DE3C19B)	-0.209	-0.589	0.322	-1.343	42.358	30.029	-69.01	26.05	-7.23	-56.056	-40.376	83.986	0.79199	-0.53632	0.28854	0.04153	25.4	13111	100
2025-3-27 20:6:36.343	WT901BLE68-01(48591DE3C19B)	-0.146	-0.589	0.322	-1.343	42.358	30.029	-69.21	26.44	-7.66	-56.056	-40.376	83.986	0.79199	-0.53632	0.28854	0.04153	25.4	13111	100
2025-3-27 20:6:36.401	WT901BLE68-01(48591DE3C19B)	-0.146	-0.517	0.241	-7.446	52.979	26.062	-69.53	26.82	-8.21	-56.056	-40.376	83.986	0.79199	-0.53632	0.28854	0.04153	25.4	13111	100
2025-3-27 20:6:36.402	WT901BLE68-01(48591DE3C19B)	-0.356	-0.517	0.241	-7.446	52.979	26.062	-69.85	27.20	-8.77	-55.174	-45.178	86.338	0.79199	-0.53632	0.28854	0.04153	25.4	13111	100
2025-3-27 20:6:36.402	WT901BLE68-01(48591DE3C19B)	-0.356	-0.440	0.215	-7.874	91.187	23.376	-70.36	27.67	-9.73	-55.174	-45.178	86.338	0.79199	-0.53632	0.28854	0.04153	25.4	13111	100
2025-3-27 20:6:36.402	WT901BLE68-01(48591DE3C19B)	-0.556	-0.440	0.215	-7.874	91.187	23.376	-70.87	28.15	-10.71	-55.174	-45.178	86.338	0.79199	-0.53632	0.28854	0.04153	25.4	13111	100
2025-3-27 20:6:36.430	WT901BLE68-01(48591DE3C19B)	-0.725	-0.415	0.214	-11.658	109.009	7.629	-71.55	28.53	-11.91	-55.174	-45.178	86.338	0.79199	-0.53632	0.28854	0.04153	25.4	13111	100
2025-3-27 20:6:36.430	WT901BLE68-01(48591DE3C19B)	-0.725	-0.382	0.251	-9.766	89.233	-3.906	-72.17	28.82	-13.03	-55.174	-45.178	86.338	0.79199	-0.53632	0.28854	0.04153	25.4	13111	100
2025-3-27 20:6:36.430	WT901BLE68-01(48591DE3C19B)	-0.817	-0.382	0.251	-9.766	89.233	-3.906	-72.74	29.04	-14.04	-55.174	-45.178	86.338	0.79199	-0.53632	0.28854	0.04153	25.4	13111	100
2025-3-27 20:6:36.430	WT901BLE68-01(48591DE3C19B)	-0.817	-0.393	0.237	-8.728	43.396	-10.925	-73.19	29.16	-14.79	-55.174	-45.178	86.338	0.79199	-0.53632	0.28854	0.04153	25.4	13111	100
2025-3-27 20:6:36.491	WT901BLE68-01(48591DE3C19B)	-0.802	-0.393	0.237	-8.728	43.396	-10.925	-73.50	29.20	-15.27	-55.174	-45.178	86.338	0.79199	-0.53632	0.28854	0.04153	25.4	13111	100
2025-3-27 20:6:36.492	WT901BLE68-01(48591DE3C19B)	-0.802	-0.377	0.169	-6.714	-17.944	-9.460	-73.64	29.17	-15.39	-55.174	-45.178	86.338	0.79199	-0.53632	0.28854	0.04153	25.4	13111	100
2025-3-27 20:6:36.492	WT901BLE68-01(48591DE3C19B)	-0.679	-0.377	0.169	-6.714	-17.944	-9.460	-73.61	29.09	-15.16	-55.174	-45.178	86.338	0.79199	-0.53632	0.28854	0.04153	25.4	13111	100
2025-3-27 20:6:36.492	WT901BLE68-01(48591DE3C19B)	-0.679	-0.416	0.082	-11.353	-71.777	-5.127	-73.46	28.95	-14.61	-55.174	-45.178	86.338	0.79199	-0.53632	0.28854	0.04153	25.4	13111	100
2025-3-27 20:6:36.520	WT901BLE68-01(48591DE3C19B)	-0.524	-0.416	0.082	-11.353	-71.777	-5.127	-73.19	28.78	-13.75	-55.174	-45.178	86.338	0.79199	-0.53632	0.28854	0.04153	25.4	13111	100
2025-3-27 20:6:36.520	WT901BLE68-01(48591DE3C19B)	-0.524	-0.522	0.029	-11.169	-101.746	-1.953	-72.86	28.58	-12.73	-55.174	-45.178	86.338	0.79199	-0.53632	0.28854	0.04153	25.4	13111	100
2025-3-27 20:6:36.520	WT901BLE68-01(48591DE3C19B)	-0.377	-0.522	0.029	-11.169	-101.746	-1.953	-72.46	28.34	-11.55	-55.174	-45.178	86.338	0.79199	-0.53632	0.28854	0.04153	25.4	13111	100
2025-3-27 20:6:36.520	WT901BLE68-01(48591DE3C19B)	-0.377	-0.586	0.061	-6.470	-104.797	2.441	-72.04	28.11	-10.35	-55.174	-45.178	86.338	0.79199	-0.53632	0.28854	0.04153	25.4	13111	100
2025-3-27 20:6:36.553	WT901BLE68-01(48591DE3C19B)	-0.246	-0.586	0.061	-6.470	-104.797	2.441	-71.59	27.89	-9.16	-55.174	-45.178	86.338	0.79199	-0.53632	0.28854	0.04153	25.4	13111	100
2025-3-27 20:6:36.554	WT901BLE68-01(48591DE3C19B)	-0.246	-0.648	0.153	-1.160	-86.670	6.226	-71.17	27.71	-8.07	-55.174	-45.178	86.338	0.79199	-0.53632	0.28854	0.04153	25.4	13111	100
2025-3-27 20:6:36.554	WT901BLE68-01(48591DE3C19B)	-0.163	-0.648	0.153	-1.160	-86.670	6.226	-70.77	27.55	-7.09	-55.174	-45.178	86.338	0.79199	-0.53632	0.28854	0.04153	25.4	13111	100
2025-3-27 20:6:36.554	WT901BLE68-01(48591DE3C19B)	-0.163	-0.706	0.245	8.179	-50.232	11.536	-70.41	27.47	-6.31	-55.174	-45.178	86.338	0.79199	-0.53632	0.28854	0.04153	25.4	13111	100
2025-3-27 20:6:36.612	WT901BLE68-01(48591DE3C19B)	-0.177	-0.706	0.245	8.179	-50.232	11.536	-70.09	27.45	-5.74	-55.174	-45.178	86.338	0.79199	-0.53632	0.28854	0.04153	25.4	13111	100
2025-3-27 20:6:36.612	WT901BLE68-01(48591DE3C19B)	-0.177	-0.747	0.349	21.667	-4.517	19.775	-69.80	27.54	-5.41	-55.174	-45.178	86.338	0.80249	-0.54489	0.22180	0.09900	25.4	13111	100
2025-3-27 20:6:36.612	WT901BLE68-01(48591DE3C19B)	-0.240	-0.747	0.349	21.667	-4.517	19.775	-69.54	27.73	-5.32	-55.174	-45.178	86.338	0.80249	-0.54489	0.22180	0.09900	25.4	13111	100
2025-3-27 20:6:36.612	WT901BLE68-01(48591DE3C19B)	-0.240	-0.851	0.333	22.583	34.912	25.696	-69.37	28.00	-5.44	-55.174	-45.178	86.338	0.80249	-0.54489	0.22180	0.09900	25.4	13111	100
2025-3-27 20:6:36.640	WT901BLE68-01(48591DE3C19B)	-0.287	-0.851	0.333	22.583	34.912	25.696	-69.29	28.36	-5.76	-55.174	-45.178	86.338	0.80249	-0.54489	0.22180	0.09900	25.4	13111	100
2025-3-27 20:6:36.640	WT901BLE68-01(48591DE3C19B)	-0.287	-1.147	0.212	10.437	65.430	23.376	-69.35	28.76	-6.27	-55.174	-45.178	86.338	0.80249	-0.54489	0.22180	0.09900	25.4	13111	100
2025-3-27 20:6:36.640	WT901BLE68-01(48591DE3C19B)	-0.301	-1.147	0.212	10.437	65.430	23.376	-69.56	29.17	-6.96	-55.174	-45.178	86.338	0.80249	-0.54489	0.22180	0.09900	25.4	13111	100
2025-3-27 20:6:36.640	WT901BLE68-01(48591DE3C19B)	-0.301	-1.585	0.050	-8.850	89.478	8.301	-69.96	29.55	-7.82	-55.174	-45.178	86.338	0.80249	-0.54489	0.22180	0.09900	25.4	13111	100
2025-3-27 20:6:36.671	WT901BLE68-01(48591DE3C19B)	-0.540	-1.585	0.050	-8.850	89.478	8.301	-70.57	29.88	-8.86	-55.174	-45.178	86.338	0.80249	-0.54489	0.22180	0.09900	25.4	13111	100
2025-3-27 20:6:36.671	WT901BLE68-01(48591DE3C19B)	-0.540	-2.191	0.195	-7.874	98.022	-16.968	-71.22	30.09	-10.00	-55.174	-45.178	86.338	0.80249	-0.54489	0.22180	0.09900	25.4	13111	100
2025-3-27 20:6:36.671	WT901BLE68-01(48591DE3C19B)	-1.032	-2.191	0.195	-7.874	98.022	-16.968	-71.94	30.17	-11.25	-55.174	-45.178	86.338	0.80249	-0.54489	0.22180	0.09900	25.4	13111	100
2025-3-27 20:6:36.671	WT901BLE68-01(48591DE3C19B)	-1.032	-2.392	0.577	2.197	52.856	-27.832	-72.48	30.12	-12.26	-55.174	-45.178	86.338	0.80249	-0.54489	0.22180	0.09900	25.4	13111	100
2025-3-27 20:6:36.731	WT901BLE68-01(48591DE3C19B)	-0.992	-2.392	0.577	2.197	52.856	-27.832	-72.86	29.95	-13.04	-55.174	-45.178	86.338	0.80249	-0.54489	0.22180	0.09900	25.4	13111	100
2025-3-27 20:6:36.731	WT901BLE68-01(48591DE3C19B)	-0.992	-1.637	0.884	-1.038	-1.526	-34.302	-73.09	29.68	-13.51	-55.174	-45.178	86.338	0.80249	-0.54489	0.22180	0.09900	25.4	13111	100
2025-3-27 20:6:36.731	WT901BLE68-01(48591DE3C19B)	-0.642	-1.637	0.884	-1.038	-1.526	-34.302	-73.17	29.30	-13.68	-55.174	-45.178	86.338	0.80249	-0.54489	0.22180	0.09900	25.4	13111	100
2025-3-27 20:6:36.731	WT901BLE68-01(48591DE3C19B)	-0.642	-1.141	0.919	-16.663	-13.550	-8.057	-73.27	29.03	-13.74	-55.174	-45.178	86.338	0.80249	-0.54489	0.22180	0.09900	25.4	13111	100
2025-3-27 20:6:36.763	WT901BLE68-01(48591DE3C19B)	-0.489	-1.141	0.919	-16.663	-13.550	-8.057	-73.37	28.87	-13.69	-55.174	-45.178	86.338	0.80249	-0.54489	0.22180	0.09900	25.4	13111	100
2025-3-27 20:6:36.763	WT901BLE68-01(48591DE3C19B)	-0.489	-0.927	0.818	-26.978	-10.864	16.785	-73.50	28.83	-13.62	-55.174	-45.178	86.338	0.80249	-0.54489	0.22180	0.09900	25.4	13111	100
2025-3-27 20:6:36.763	WT901BLE68-01(48591DE3C19B)	-0.438	-0.927	0.818	-26.978	-10.864	16.785	-73.66	28.92	-13.52	-55.174	-45.178	86.338	0.80249	-0.54489	0.22180	0.09900	25.4	13111	100
2025-3-27 20:6:36.763	WT901BLE68-01(48591DE3C19B)	-0.438	-0.789	0.601	-37.048	-52.002	35.583	-73.74	29.04	-13.17	-55.174	-45.178	86.338	0.80249	-0.54489	0.22180	0.09900	25.4	13111	100
2025-3-27 20:6:36.793	WT901BLE68-01(48591DE3C19B)	-0.324	-0.789	0.601	-37.048	-52.002	35.583	-73.73	29.20	-12.56	-55.174	-45.178	86.338	0.80249	-0.54489	0.22180	0.09900	25.4	13111	100
2025-3-27 20:6:36.793	WT901BLE68-01(48591DE3C19B)	-0.324	-0.834	0.421	-56.091	-124.939	51.880	-73.61	29.32	-11.54	-55.174	-45.178	86.338	0.80249	-0.54489	0.22180	0.09900	25.4	13111	100
2025-3-27 20:6:36.793	WT901BLE68-01(48591DE3C19B)	-0.172	-0.834	0.421	-56.091	-124.939	51.880	-73.37	29.42	-10.08	-62.916	-48.902	85.750	0.80249	-0.54489	0.22180	0.09900	25.4	13111	100
2025-3-27 20:6:36.794	WT901BLE68-01(48591DE3C19B)	-0.172	-0.965	0.209	-43.091	-154.114	55.420	-72.98	29.48	-8.48	-62.916	-48.902	85.750	0.80249	-0.54489	0.22180	0.09900	25.4	13111	100
2025-3-27 20:6:36.852	WT901BLE68-01(48591DE3C19B)	-0.061	-0.965	0.209	-43.091	-154.114	55.420	-72.45	29.49	-6.71	-62.916	-48.902	85.750	0.80249	-0.54489	0.22180	0.09900	25.4	13111	100
2025-3-27 20:6:36.852	WT901BLE68-01(48591DE3C19B)	-0.061	-0.900	0.160	-11.780	-103.333	56.396	-71.92	29.57	-5.24	-62.916	-48.902	85.750	0.80249	-0.54489	0.22180	0.09900	25.4	13111	100
2025-3-27 20:6:36.852	WT901BLE68-01(48591DE3C19B)	-0.051	-0.900	0.160	-11.780	-103.333	56.396	-71.37	29.71	-4.05	-62.916	-48.902	85.750	0.80249	-0.54489	0.22180	0.09900	25.4	13111	100
2025-3-27 20:6:36.852	WT901BLE68-01(48591DE3C19B)	-0.051	-0.715	0.195	13.062	-13.672	45.166	-70.96	29.93	-3.38	-62.916	-48.902	85.750	0.80249	-0.54489	0.22180	0.09900	25.4	13111	100
2025-3-27 20:6:36.881	WT901BLE68-01(48591DE3C19B)	-0.149	-0.715	0.195	13.062	-13.672	45.166	-70.68	30.23	-3.22	-62.916	-48.902	85.750	0.80249	-0.54489	0.22180	0.09900	25.4	13111	100
2025-3-27 20:6:36.881	WT901BLE68-01(48591DE3C19B)	-0.149	-0.589	0.249	23.376	49.622	36.560	-70.53	30.60	-3.43	-62.916	-48.902	85.750	0.80249	-0.54489	0.22180	0.09900	25.4	13111	100
2025-3-27 20:6:36.881	WT901BLE68-01(48591DE3C19B)	-0.270	-0.589	0.249	23.376	49.622	36.560	-70.53	31.02	-4.00	-62.916	-48.902	85.750	0.80249	-0.54489	0.22180	0.09900	25.4	13111	100
2025-3-27 20:6:36.882	WT901BLE68-01(48591DE3C19B)	-0.270	-0.539	0.282	26.550	79.224	24.231	-70.68	31.43	-4.94	-62.916	-48.902	85.750	0.80249	-0.54489	0.22180	0.09900	25.4	13111	100
2025-3-27 20:6:36.911	WT901BLE68-01(48591DE3C19B)	-0.325	-0.539	0.282	26.550	79.224	24.231	-70.83	31.83	-5.88	-62.916	-48.902	85.750	0.80249	-0.54489	0.22180	0.09900	25.4	13111	100
2025-3-27 20:6:36.911	WT901BLE68-01(48591DE3C19B)	-0.325	-0.528	0.332	23.193	79.651	11.597	-71.05	32.11	-6.87	-62.916	-48.902	85.750	0.80249	-0.54489	0.22180	0.09900	25.4	13111	100
2025-3-27 20:6:36.911	WT901BLE68-01(48591DE3C19B)	-0.353	-0.528	0.332	23.193	79.651	11.597	-71.26	32.39	-7.85	-62.916	-48.902	85.750	0.80249	-0.54489	0.22180	0.09900	25.4	13111	100
2025-3-27 20:6:36.911	WT901BLE68-01(48591DE3C19B)	-0.353	-0.555	0.366	18.860	72.510	2.075	-71.49	32.56	-8.78	-62.916	-48.902	85.750	0.80249	-0.54489	0.22180	0.09900	25.4	13111	100
2025-3-27 20:6:36.970	WT901BLE68-01(48591DE3C19B)	-0.482	-0.555	0.366	18.860	72.510	2.075	-71.72	32.72	-9.71	-62.916	-48.902	85.750	0.80249	-0.54489	0.22180	0.09900	25.4	13111	100
2025-3-27 20:6:36.970	WT901BLE68-01(48591DE3C19B)	-0.482	-0.602	0.352	14.221	48.462	-7.385	-71.86	32.73	-10.39	-62.916	-48.902	85.750	0.80249	-0.54489	0.22180	0.09900	25.4	13111	100
2025-3-27 20:6:36.970	WT901BLE68-01(48591DE3C19B)	-0.546	-0.602	0.352	14.221	48.462	-7.385	-71.99	32.74	-11.05	-62.916	-48.902	85.750	0.80249	-0.54489	0.22180	0.09900	25.4	13111	100
2025-3-27 20:6:36.970	WT901BLE68-01(48591DE3C19B)	-0.546	-0.688	0.326	4.822	13.977	-18.860	-72.03	32.55	-11.36	-62.916	-48.902	85.750	0.80249	-0.54489	0.22180	0.09900	25.4	13111	100
2025-3-27 20:6:37.1	WT901BLE68-01(48591DE3C19B)	-0.540	-0.688	0.326	4.822	13.977	-18.860	-72.06	32.37	-11.66	-62.916	-48.902	85.750	0.78958	-0.53934	0.28036	0.08328	25.4	13111	100
2025-3-27 20:6:37.1	WT901BLE68-01(48591DE3C19B)	-0.540	-0.784	0.298	-5.188	-16.174	-28.931	-72.03	32.00	-11.64	-62.916	-48.902	85.750	0.78958	-0.53934	0.28036	0.08328	25.4	13111	100
2025-3-27 20:6:37.1	WT901BLE68-01(48591DE3C19B)	-0.509	-0.784	0.298	-5.188	-16.174	-28.931	-72.00	31.65	-11.62	-62.916	-48.902	85.750	0.78958	-0.53934	0.28036	0.08328	25.4	13111	100
2025-3-27 20:6:37.1	WT901BLE68-01(48591DE3C19B)	-0.509	-0.863	0.275	-14.343	-38.208	-35.156	-71.95	31.16	-11.37	-62.916	-48.902	85.750	0.78958	-0.53934	0.28036	0.08328	25.4	13111	100
2025-3-27 20:6:37.30	WT901BLE68-01(48591DE3C19B)	-0.455	-0.863	0.275	-14.343	-38.208	-35.156	-71.92	30.69	-11.12	-62.916	-48.902	85.750	0.78958	-0.53934	0.28036	0.08328	25.4	13111	100
2025-3-27 20:6:37.30	WT901BLE68-01(48591DE3C19B)	-0.455	-0.906	0.274	-20.325	-49.133	-38.147	-71.89	30.15	-10.77	-62.916	-48.902	85.750	0.78958	-0.53934	0.28036	0.08328	25.4	13111	100
2025-3-27 20:6:37.30	WT901BLE68-01(48591DE3C19B)	-0.469	-0.906	0.274	-20.325	-49.133	-38.147	-71.87	29.62	-10.43	-62.916	-48.902	85.750	0.78958	-0.53934	0.28036	0.08328	25.4	13111	100
2025-3-27 20:6:37.31	WT901BLE68-01(48591DE3C19B)	-0.469	-0.905	0.296	-22.400	-50.537	-35.522	-71.87	29.11	-10.06	-62.916	-48.902	85.750	0.78958	-0.53934	0.28036	0.08328	25.4	13111	100
2025-3-27 20:6:37.92	WT901BLE68-01(48591DE3C19B)	-0.500	-0.905	0.296	-22.400	-50.537	-35.522	-71.87	28.60	-9.70	-62.916	-48.902	85.750	0.78958	-0.53934	0.28036	0.08328	25.4	13111	100
2025-3-27 20:6:37.92	WT901BLE68-01(48591DE3C19B)	-0.500	-0.879	0.313	-22.827	-46.387	-29.907	-71.89	28.16	-9.35	-62.916	-48.902	85.750	0.78958	-0.53934	0.28036	0.08328	25.4	13111	100
2025-3-27 20:6:37.92	WT901BLE68-01(48591DE3C19B)	-0.522	-0.879	0.313	-22.827	-46.387	-29.907	-71.92	27.73	-9.02	-62.916	-48.902	85.750	0.78958	-0.53934	0.28036	0.08328	25.4	13111	100
2025-3-27 20:6:37.92	WT901BLE68-01(48591DE3C19B)	-0.522	-0.857	0.302	-22.339	-41.382	-24.475	-71.97	27.37	-8.71	-62.916	-48.902	85.750	0.78958	-0.53934	0.28036	0.08328	25.4	13111	100
2025-3-27 20:6:37.120	WT901BLE68-01(48591DE3C19B)	-0.507	-0.857	0.302	-22.339	-41.382	-24.475	-72.01	27.01	-8.41	-62.916	-48.902	85.750	0.78958	-0.53934	0.28036	0.08328	25.4	13111	100
2025-3-27 20:6:37.120	WT901BLE68-01(48591DE3C19B)	-0.507	-0.850	0.279	-20.813	-39.490	-20.386	-72.04	26.70	-8.11	-62.916	-48.902	85.750	0.78958	-0.53934	0.28036	0.08328	25.4	13111	100
2025-3-27 20:6:37.120	WT901BLE68-01(48591DE3C19B)	-0.468	-0.850	0.279	-20.813	-39.490	-20.386	-72.08	26.39	-7.81	-62.916	-48.902	85.750	0.78958	-0.53934	0.28036	0.08328	25.4	13111	100
2025-3-27 20:6:37.120	WT901BLE68-01(48591DE3C19B)	-0.468	-0.841	0.277	-17.639	-36.133	-17.578	-72.10	26.13	-7.54	-62.916	-48.902	85.750	0.78958	-0.53934	0.28036	0.08328	25.4	13111	100
2025-3-27 20:6:37.153	WT901BLE68-01(48591DE3C19B)	-0.460	-0.841	0.277	-17.639	-36.133	-17.578	-72.13	25.86	-7.26	-62.916	-48.902	85.750	0.78958	-0.53934	0.28036	0.08328	25.4	13111	100
2025-3-27 20:6:37.153	WT901BLE68-01(48591DE3C19B)	-0.460	-0.841	0.290	-13.855	-28.992	-15.198	-72.14	25.64	-7.06	-62.916	-48.902	85.750	0.78958	-0.53934	0.28036	0.08328	25.4	13111	100
2025-3-27 20:6:37.153	WT901BLE68-01(48591DE3C19B)	-0.458	-0.841	0.290	-13.855	-28.992	-15.198	-72.16	25.42	-6.86	-62.916	-48.902	85.750	0.78958	-0.53934	0.28036	0.08328	25.4	13111	100
2025-3-27 20:6:37.153	WT901BLE68-01(48591DE3C19B)	-0.458	-0.822	0.300	-10.315	-21.057	-14.099	-72.17	25.24	-6.73	-62.916	-48.902	85.750	0.78958	-0.53934	0.28036	0.08328	25.4	13111	100
2025-3-27 20:6:37.211	WT901BLE68-01(48591DE3C19B)	-0.461	-0.822	0.300	-10.315	-21.057	-14.099	-72.19	25.05	-6.60	-62.916	-48.902	85.750	0.78958	-0.53934	0.28036	0.08328	25.4	13111	100
2025-3-27 20:6:37.212	WT901BLE68-01(48591DE3C19B)	-0.461	-0.804	0.303	-8.362	-13.977	-13.855	-72.22	24.89	-6.55	-58.506	-49.196	85.554	0.78958	-0.53934	0.28036	0.08328	25.4	13111	100
2025-3-27 20:6:37.212	WT901BLE68-01(48591DE3C19B)	-0.478	-0.804	0.303	-8.362	-13.977	-13.855	-72.25	24.74	-6.50	-58.506	-49.196	85.554	0.78958	-0.53934	0.28036	0.08328	25.4	13111	100
2025-3-27 20:6:37.212	WT901BLE68-01(48591DE3C19B)	-0.478	-0.803	0.309	-8.240	-11.536	-14.099	-72.28	24.59	-6.47	-58.506	-49.196	85.554	0.78958	-0.53934	0.28036	0.08328	25.4	13111	100
2025-3-27 20:6:37.240	WT901BLE68-01(48591DE3C19B)	-0.486	-0.803	0.309	-8.240	-11.536	-14.099	-72.32	24.44	-6.44	-58.506	-49.196	85.554	0.78958	-0.53934	0.28036	0.08328	25.4	13111	100
2025-3-27 20:6:37.241	WT901BLE68-01(48591DE3C19B)	-0.486	-0.813	0.314	-10.254	-16.785	-15.320	-72.36	24.26	-6.36	-58.506	-49.196	85.554	0.78958	-0.53934	0.28036	0.08328	25.4	13111	100
2025-3-27 20:6:37.241	WT901BLE68-01(48591DE3C19B)	-0.467	-0.813	0.314	-10.254	-16.785	-15.320	-72.39	24.09	-6.28	-58.506	-49.196	85.554	0.78958	-0.53934	0.28036	0.08328	25.4	13111	100
2025-3-27 20:6:37.241	WT901BLE68-01(48591DE3C19B)	-0.467	-0.812	0.317	-13.794	-24.292	-16.785	-72.43	23.88	-6.12	-58.506	-49.196	85.554	0.78958	-0.53934	0.28036	0.08328	25.4	13111	100
2025-3-27 20:6:37.271	WT901BLE68-01(48591DE3C19B)	-0.477	-0.812	0.317	-13.794	-24.292	-16.785	-72.47	23.68	-5.97	-58.506	-49.196	85.554	0.78958	-0.53934	0.28036	0.08328	25.4	13111	100
2025-3-27 20:6:37.271	WT901BLE68-01(48591DE3C19B)	-0.477	-0.827	0.318	-16.968	-25.696	-17.883	-72.54	23.46	-5.80	-58.506	-49.196	85.554	0.78958	-0.53934	0.28036	0.08328	25.4	13111	100
2025-3-27 20:6:37.271	WT901BLE68-01(48591DE3C19B)	-0.496	-0.827	0.318	-16.968	-25.696	-17.883	-72.60	23.24	-5.63	-58.506	-49.196	85.554	0.78958	-0.53934	0.28036	0.08328	25.4	13111	100
2025-3-27 20:6:37.271	WT901BLE68-01(48591DE3C19B)	-0.496	-0.824	0.316	-19.287	-30.090	-20.508	-72.67	22.98	-5.43	-58.506	-49.196	85.554	0.78958	-0.53934	0.28036	0.08328	25.4	13111	100
2025-3-27 20:6:37.331	WT901BLE68-01(48591DE3C19B)	-0.483	-0.824	0.316	-19.287	-30.090	-20.508	-72.75	22.73	-5.22	-58.506	-49.196	85.554	0.78958	-0.53934	0.28036	0.08328	25.4	13111	100
2025-3-27 20:6:37.331	WT901BLE68-01(48591DE3C19B)	-0.483	-0.817	0.331	-21.362	-35.645	-22.949	-72.83	22.44	-4.97	-58.506	-49.196	85.554	0.78958	-0.53934	0.28036	0.08328	25.4	13111	100
2025-3-27 20:6:37.332	WT901BLE68-01(48591DE3C19B)	-0.457	-0.817	0.331	-21.362	-35.645	-22.949	-72.91	22.15	-4.71	-58.506	-49.196	85.554	0.78958	-0.53934	0.28036	0.08328	25.4	13111	100
2025-3-27 20:6:37.332	WT901BLE68-01(48591DE3C19B)	-0.445	-0.811	0.344	-21.240	-35.339	-25.269	-72.99	21.85	-4.46	-58.506	-49.196	85.554	0.78958	-0.53934	0.28036	0.08328	25.4	13111	100
