time	DeviceName	AccX(g)	AccY(g)	AccZ(g)	AsX(°/s)	AsY(°/s)	AsZ(°/s)	AngleX(°)	AngleY(°)	AngleZ(°)	HX(uT)	HY(uT)	HZ(uT)	Q0()	Q1()	Q2()	Q3()	Temperature(°C)	Version()	Battery level(%)
2025-3-27 20:31:43.109	WT901BLE68-01(48591DE3C19B)	-0.403	-0.869	0.289	0.549	7.019	1.221	-72.80	24.62	-38.66	-76.342	-29.302	75.656	-0.78757	0.49283	-0.33582	0.15491	30.5	13111	100
2025-3-27 20:31:43.109	WT901BLE68-01(48591DE3C19B)	-0.403	-0.869	0.289	0.549	7.019	1.221	-72.82	24.64	-38.73	-76.342	-29.302	75.656	-0.78757	0.49283	-0.33582	0.15491	30.5	13111	100
2025-3-27 20:31:43.109	WT901BLE68-01(48591DE3C19B)	-0.403	-0.855	0.286	-0.122	5.371	0.427	-72.83	24.66	-38.79	-76.342	-29.302	75.656	-0.78757	0.49283	-0.33582	0.15491	30.5	13111	100
2025-3-27 20:31:43.109	WT901BLE68-01(48591DE3C19B)	-0.403	-0.855	0.286	-0.122	5.371	0.427	-72.85	24.67	-38.85	-76.342	-29.302	75.656	-0.78757	0.49283	-0.33582	0.15491	30.5	13111	100
2025-3-27 20:31:43.139	WT901BLE68-01(48591DE3C19B)	-0.403	-0.855	0.280	-0.732	4.639	-0.305	-72.87	24.68	-38.90	-76.342	-29.302	75.656	-0.78757	0.49283	-0.33582	0.15491	30.5	13111	100
2025-3-27 20:31:43.139	WT901BLE68-01(48591DE3C19B)	-0.411	-0.855	0.280	-0.732	4.639	-0.305	-72.89	24.68	-38.95	-76.342	-29.302	75.656	-0.78757	0.49283	-0.33582	0.15491	30.5	13111	100
2025-3-27 20:31:43.139	WT901BLE68-01(48591DE3C19B)	-0.411	-0.856	0.280	-1.160	3.662	-1.282	-72.91	24.68	-39.00	-76.342	-29.302	75.656	-0.78757	0.49283	-0.33582	0.15491	30.5	13111	100
2025-3-27 20:31:43.139	WT901BLE68-01(48591DE3C19B)	-0.428	-0.856	0.280	-1.160	3.662	-1.282	-72.93	24.66	-39.04	-76.342	-29.302	75.656	-0.78281	0.48987	-0.35599	0.14297	30.5	13111	100
2025-3-27 20:31:43.197	WT901BLE68-01(48591DE3C19B)	-0.428	-0.870	0.285	-2.014	1.282	-2.380	-72.95	24.65	-39.07	-76.342	-29.302	75.656	-0.78281	0.48987	-0.35599	0.14297	30.5	13111	100
2025-3-27 20:31:43.197	WT901BLE68-01(48591DE3C19B)	-0.433	-0.870	0.285	-2.014	1.282	-2.380	-72.98	24.63	-39.08	-76.342	-29.302	75.656	-0.78281	0.48987	-0.35599	0.14297	30.5	13111	100
2025-3-27 20:31:43.197	WT901BLE68-01(48591DE3C19B)	-0.433	-0.876	0.282	-2.380	-1.404	-3.662	-72.99	24.59	-39.09	-76.342	-29.302	75.656	-0.78281	0.48987	-0.35599	0.14297	30.5	13111	100
2025-3-27 20:31:43.197	WT901BLE68-01(48591DE3C19B)	-0.448	-0.876	0.282	-2.380	-1.404	-3.662	-73.01	24.55	-39.08	-76.342	-29.302	75.656	-0.78281	0.48987	-0.35599	0.14297	30.5	13111	100
2025-3-27 20:31:43.226	WT901BLE68-01(48591DE3C19B)	-0.448	-0.885	0.284	-2.747	-3.906	-4.944	-73.02	24.49	-39.07	-76.342	-29.302	75.656	-0.78281	0.48987	-0.35599	0.14297	30.5	13111	100
2025-3-27 20:31:43.227	WT901BLE68-01(48591DE3C19B)	-0.465	-0.885	0.284	-2.747	-3.906	-4.944	-73.03	24.44	-39.03	-76.342	-29.302	75.656	-0.78281	0.48987	-0.35599	0.14297	30.5	13111	100
2025-3-27 20:31:43.227	WT901BLE68-01(48591DE3C19B)	-0.465	-0.887	0.289	-2.991	-7.080	-5.859	-73.04	24.37	-38.99	-76.342	-29.302	75.656	-0.78281	0.48987	-0.35599	0.14297	30.5	13111	100
2025-3-27 20:31:43.227	WT901BLE68-01(48591DE3C19B)	-0.458	-0.887	0.289	-2.991	-7.080	-5.859	-73.04	24.30	-38.92	-76.342	-29.302	75.656	-0.78281	0.48987	-0.35599	0.14297	30.5	13111	100
2025-3-27 20:31:43.287	WT901BLE68-01(48591DE3C19B)	-0.458	-0.869	0.284	-3.601	-9.460	-6.226	-73.03	24.21	-38.85	-76.342	-29.302	75.656	-0.78281	0.48987	-0.35599	0.14297	30.5	13111	100
2025-3-27 20:31:43.287	WT901BLE68-01(48591DE3C19B)	-0.451	-0.869	0.284	-3.601	-9.460	-6.226	-73.03	24.14	-38.77	-76.342	-29.302	75.656	-0.78281	0.48987	-0.35599	0.14297	30.5	13111	100
2025-3-27 20:31:43.287	WT901BLE68-01(48591DE3C19B)	-0.451	-0.849	0.279	-4.211	-9.460	-6.287	-73.03	24.05	-38.68	-76.342	-29.302	75.656	-0.78281	0.48987	-0.35599	0.14297	30.5	13111	100
2025-3-27 20:31:43.287	WT901BLE68-01(48591DE3C19B)	-0.461	-0.849	0.279	-4.211	-9.460	-6.287	-73.03	23.97	-38.59	-76.342	-29.302	75.656	-0.78281	0.48987	-0.35599	0.14297	30.5	13111	100
2025-3-27 20:31:43.288	WT901BLE68-01(48591DE3C19B)	-0.461	-0.837	0.282	-4.883	-9.644	-6.592	-73.04	23.90	-38.50	-76.342	-29.302	75.656	-0.78281	0.48987	-0.35599	0.14297	30.5	13111	100
2025-3-27 20:31:43.288	WT901BLE68-01(48591DE3C19B)	-0.470	-0.837	0.282	-4.883	-9.644	-6.592	-73.05	23.81	-38.41	-76.342	-29.302	75.656	-0.78281	0.48987	-0.35599	0.14297	30.5	13111	100
2025-3-27 20:31:43.288	WT901BLE68-01(48591DE3C19B)	-0.470	-0.831	0.284	-5.798	-11.047	-6.897	-73.06	23.73	-38.31	-76.342	-29.302	75.656	-0.78281	0.48987	-0.35599	0.14297	30.5	13111	100
2025-3-27 20:31:43.288	WT901BLE68-01(48591DE3C19B)	-0.476	-0.831	0.284	-5.798	-11.047	-6.897	-73.07	23.65	-38.21	-76.342	-29.302	75.656	-0.78281	0.48987	-0.35599	0.14297	30.5	13111	100
2025-3-27 20:31:43.347	WT901BLE68-01(48591DE3C19B)	-0.476	-0.835	0.277	-6.409	-13.306	-6.958	-73.08	23.56	-38.08	-76.342	-29.302	75.656	-0.78281	0.48987	-0.35599	0.14297	30.5	13111	100
2025-3-27 20:31:43.347	WT901BLE68-01(48591DE3C19B)	-0.478	-0.835	0.277	-6.409	-13.306	-6.958	-73.09	23.47	-37.95	-76.342	-29.302	75.656	-0.78281	0.48987	-0.35599	0.14297	30.5	13111	100
2025-3-27 20:31:43.347	WT901BLE68-01(48591DE3C19B)	-0.478	-0.836	0.269	-6.165	-15.686	-6.958	-73.09	23.38	-37.80	-76.342	-29.302	75.656	-0.78281	0.48987	-0.35599	0.14297	30.5	13111	100
2025-3-27 20:31:43.347	WT901BLE68-01(48591DE3C19B)	-0.473	-0.836	0.269	-6.165	-15.686	-6.958	-73.09	23.29	-37.64	-76.342	-29.302	75.656	-0.78281	0.48987	-0.35599	0.14297	30.5	13111	100
2025-3-27 20:31:43.376	WT901BLE68-01(48591DE3C19B)	-0.473	-0.835	0.264	-6.409	-17.517	-7.019	-73.08	23.20	-37.47	-76.146	-29.792	75.852	-0.78281	0.48987	-0.35599	0.14297	30.5	13111	100
2025-3-27 20:31:43.376	WT901BLE68-01(48591DE3C19B)	-0.466	-0.835	0.264	-6.409	-17.517	-7.019	-73.08	23.10	-37.29	-76.146	-29.792	75.852	-0.78281	0.48987	-0.35599	0.14297	30.5	13111	100
2025-3-27 20:31:43.376	WT901BLE68-01(48591DE3C19B)	-0.466	-0.832	0.261	-6.531	-17.883	-7.019	-73.07	23.01	-37.12	-76.146	-29.792	75.852	-0.78281	0.48987	-0.35599	0.14297	30.5	13111	100
2025-3-27 20:31:43.376	WT901BLE68-01(48591DE3C19B)	-0.458	-0.832	0.261	-6.531	-17.883	-7.019	-73.06	22.92	-36.94	-76.146	-29.792	75.852	-0.78281	0.48987	-0.35599	0.14297	30.5	13111	100
2025-3-27 20:31:43.407	WT901BLE68-01(48591DE3C19B)	-0.458	-0.828	0.261	-6.958	-16.663	-6.958	-73.07	22.83	-36.78	-76.146	-29.792	75.852	-0.78281	0.48987	-0.35599	0.14297	30.5	13111	100
2025-3-27 20:31:43.407	WT901BLE68-01(48591DE3C19B)	-0.451	-0.828	0.261	-6.958	-16.663	-6.958	-73.08	22.74	-36.61	-76.146	-29.792	75.852	-0.78281	0.48987	-0.35599	0.14297	30.5	13111	100
2025-3-27 20:31:43.408	WT901BLE68-01(48591DE3C19B)	-0.451	-0.841	0.258	-7.324	-13.977	-6.836	-73.10	22.66	-36.47	-76.146	-29.792	75.852	-0.78281	0.48987	-0.35599	0.14297	30.5	13111	100
2025-3-27 20:31:43.408	WT901BLE68-01(48591DE3C19B)	-0.447	-0.841	0.258	-7.324	-13.977	-6.836	-73.12	22.59	-36.34	-76.146	-29.792	75.852	-0.78281	0.48987	-0.35599	0.14297	30.5	13111	100
2025-3-27 20:31:43.497	WT901BLE68-01(48591DE3C19B)	-0.447	-0.843	0.251	-5.798	-10.376	-6.531	-73.14	22.52	-36.24	-76.146	-29.792	75.852	-0.78281	0.48987	-0.35599	0.14297	30.5	13111	100
2025-3-27 20:31:43.497	WT901BLE68-01(48591DE3C19B)	-0.444	-0.843	0.251	-5.798	-10.376	-6.531	-73.16	22.46	-36.15	-76.146	-29.792	75.852	-0.78281	0.48987	-0.35599	0.14297	30.5	13111	100
2025-3-27 20:31:43.497	WT901BLE68-01(48591DE3C19B)	-0.444	-0.833	0.241	-5.005	-7.507	-6.042	-73.19	22.41	-36.07	-76.146	-29.792	75.852	-0.78281	0.48987	-0.35599	0.14297	30.5	13111	100
2025-3-27 20:31:43.497	WT901BLE68-01(48591DE3C19B)	-0.445	-0.833	0.241	-5.005	-7.507	-6.042	-73.21	22.36	-36.00	-76.146	-29.792	75.852	-0.78281	0.48987	-0.35599	0.14297	30.5	13111	100
2025-3-27 20:31:43.498	WT901BLE68-01(48591DE3C19B)	-0.445	-0.829	0.238	-4.883	-5.737	-5.615	-73.24	22.32	-35.95	-76.146	-29.792	75.852	-0.78281	0.48987	-0.35599	0.14297	30.5	13111	100
2025-3-27 20:31:43.498	WT901BLE68-01(48591DE3C19B)	-0.454	-0.829	0.238	-4.883	-5.737	-5.615	-73.27	22.28	-35.90	-76.146	-29.792	75.852	-0.78281	0.48987	-0.35599	0.14297	30.5	13111	100
2025-3-27 20:31:43.499	WT901BLE68-01(48591DE3C19B)	-0.454	-0.828	0.249	-5.432	-6.653	-4.639	-73.31	22.25	-35.83	-76.146	-29.792	75.852	-0.78281	0.48987	-0.35599	0.14297	30.5	13111	100
2025-3-27 20:31:43.499	WT901BLE68-01(48591DE3C19B)	-0.455	-0.828	0.249	-5.432	-6.653	-4.639	-73.34	22.21	-35.77	-76.146	-29.792	75.852	-0.78281	0.48987	-0.35599	0.14297	30.5	13111	100
2025-3-27 20:31:43.529	WT901BLE68-01(48591DE3C19B)	-0.455	-0.841	0.261	-7.263	-9.583	-3.296	-73.38	22.19	-35.67	-76.146	-29.792	75.852	-0.78281	0.48987	-0.35599	0.14297	30.5	13111	100
2025-3-27 20:31:43.529	WT901BLE68-01(48591DE3C19B)	-0.445	-0.841	0.261	-7.263	-9.583	-3.296	-73.41	22.16	-35.57	-76.146	-29.792	75.852	-0.78281	0.48987	-0.35599	0.14297	30.5	13111	100
2025-3-27 20:31:43.529	WT901BLE68-01(48591DE3C19B)	-0.445	-0.859	0.266	-7.690	-11.597	-1.526	-73.44	22.14	-35.44	-76.146	-29.792	75.852	-0.78281	0.48987	-0.35599	0.14297	30.5	13111	100
2025-3-27 20:31:43.529	WT901BLE68-01(48591DE3C19B)	-0.432	-0.859	0.266	-7.690	-11.597	-1.526	-73.48	22.12	-35.32	-76.146	-29.792	75.852	-0.78281	0.48987	-0.35599	0.14297	30.5	13111	100
2025-3-27 20:31:43.587	WT901BLE68-01(48591DE3C19B)	-0.432	-0.872	0.269	-7.263	-12.268	0.732	-73.49	22.13	-35.18	-76.146	-29.792	75.852	-0.78281	0.48987	-0.35599	0.14297	30.5	13111	100
2025-3-27 20:31:43.588	WT901BLE68-01(48591DE3C19B)	-0.417	-0.872	0.269	-7.263	-12.268	0.732	-73.52	22.13	-35.04	-76.146	-29.792	75.852	-0.78433	0.51376	-0.32343	0.12720	30.5	13111	100
2025-3-27 20:31:43.588	WT901BLE68-01(48591DE3C19B)	-0.417	-0.884	0.273	-6.104	-11.902	3.296	-73.53	22.15	-34.90	-76.146	-29.792	75.852	-0.78433	0.51376	-0.32343	0.12720	30.5	13111	100
2025-3-27 20:31:43.588	WT901BLE68-01(48591DE3C19B)	-0.398	-0.884	0.273	-6.104	-11.902	3.296	-73.53	22.18	-34.77	-76.146	-29.792	75.852	-0.78433	0.51376	-0.32343	0.12720	30.5	13111	100
2025-3-27 20:31:43.617	WT901BLE68-01(48591DE3C19B)	-0.398	-0.877	0.278	-4.272	-10.498	5.676	-73.52	22.22	-34.64	-76.146	-29.792	75.852	-0.78433	0.51376	-0.32343	0.12720	30.5	13111	100
2025-3-27 20:31:43.617	WT901BLE68-01(48591DE3C19B)	-0.385	-0.877	0.278	-4.272	-10.498	5.676	-73.52	22.27	-34.51	-76.146	-29.792	75.852	-0.78433	0.51376	-0.32343	0.12720	30.5	13111	100
2025-3-27 20:31:43.617	WT901BLE68-01(48591DE3C19B)	-0.385	-0.861	0.284	-2.197	-7.690	7.690	-73.49	22.34	-34.41	-76.146	-29.792	75.852	-0.78433	0.51376	-0.32343	0.12720	30.5	13111	100
2025-3-27 20:31:43.617	WT901BLE68-01(48591DE3C19B)	-0.372	-0.861	0.284	-2.197	-7.690	7.690	-73.47	22.41	-34.31	-76.146	-29.792	75.852	-0.78433	0.51376	-0.32343	0.12720	30.5	13111	100
2025-3-27 20:31:43.647	WT901BLE68-01(48591DE3C19B)	-0.372	-0.840	0.282	0.244	-5.066	9.277	-73.43	22.50	-34.23	-76.146	-29.792	75.852	-0.78433	0.51376	-0.32343	0.12720	30.5	13111	100
2025-3-27 20:31:43.647	WT901BLE68-01(48591DE3C19B)	-0.358	-0.840	0.282	0.244	-5.066	9.277	-73.39	22.59	-34.16	-76.146	-29.792	75.852	-0.78433	0.51376	-0.32343	0.12720	30.5	13111	100
2025-3-27 20:31:43.647	WT901BLE68-01(48591DE3C19B)	-0.358	-0.814	0.276	2.869	-2.258	10.071	-73.33	22.69	-34.11	-76.146	-29.792	75.852	-0.78433	0.51376	-0.32343	0.12720	30.5	13111	100
2025-3-27 20:31:43.647	WT901BLE68-01(48591DE3C19B)	-0.352	-0.814	0.276	2.869	-2.258	10.071	-73.28	22.79	-34.06	-76.146	-29.792	75.852	-0.78433	0.51376	-0.32343	0.12720	30.5	13111	100
2025-3-27 20:31:43.709	WT901BLE68-01(48591DE3C19B)	-0.352	-0.800	0.272	5.005	0.427	10.315	-73.21	22.90	-34.04	-76.146	-29.792	75.852	-0.78433	0.51376	-0.32343	0.12720	30.5	13111	100
2025-3-27 20:31:43.709	WT901BLE68-01(48591DE3C19B)	-0.347	-0.800	0.272	5.005	0.427	10.315	-73.14	23.01	-34.02	-76.146	-29.792	75.852	-0.78433	0.51376	-0.32343	0.12720	30.5	13111	100
2025-3-27 20:31:43.709	WT901BLE68-01(48591DE3C19B)	-0.347	-0.798	0.269	7.690	2.808	9.949	-73.06	23.12	-34.04	-76.146	-29.792	75.852	-0.78433	0.51376	-0.32343	0.12720	30.5	13111	100
2025-3-27 20:31:43.709	WT901BLE68-01(48591DE3C19B)	-0.338	-0.798	0.269	7.690	2.808	9.949	-72.97	23.22	-34.04	-76.146	-29.792	75.852	-0.78433	0.51376	-0.32343	0.12720	30.5	13111	100
2025-3-27 20:31:43.738	WT901BLE68-01(48591DE3C19B)	-0.338	-0.802	0.259	9.949	5.676	8.606	-72.88	23.32	-34.09	-76.146	-29.792	75.852	-0.78433	0.51376	-0.32343	0.12720	30.5	13111	100
2025-3-27 20:31:43.739	WT901BLE68-01(48591DE3C19B)	-0.330	-0.802	0.259	9.949	5.676	8.606	-72.79	23.42	-34.13	-76.146	-29.792	75.852	-0.78433	0.51376	-0.32343	0.12720	30.5	13111	100
2025-3-27 20:31:43.739	WT901BLE68-01(48591DE3C19B)	-0.330	-0.805	0.245	12.756	9.460	6.592	-72.69	23.51	-34.22	-76.146	-29.792	75.852	-0.78433	0.51376	-0.32343	0.12720	30.5	13111	100
2025-3-27 20:31:43.739	WT901BLE68-01(48591DE3C19B)	-0.330	-0.805	0.245	12.756	9.460	6.592	-72.59	23.60	-34.31	-76.146	-29.792	75.852	-0.78433	0.51376	-0.32343	0.12720	30.5	13111	100
2025-3-27 20:31:43.769	WT901BLE68-01(48591DE3C19B)	-0.335	-0.811	0.232	14.648	13.000	3.845	-72.49	23.67	-34.45	-76.146	-29.792	75.852	-0.78433	0.51376	-0.32343	0.12720	30.5	13111	100
2025-3-27 20:31:43.769	WT901BLE68-01(48591DE3C19B)	-0.335	-0.807	0.223	16.052	15.564	0.671	-72.39	23.73	-34.60	-76.146	-29.792	75.852	-0.78433	0.51376	-0.32343	0.12720	30.5	13111	100
2025-3-27 20:31:43.769	WT901BLE68-01(48591DE3C19B)	-0.333	-0.807	0.223	16.052	15.564	0.671	-72.30	23.78	-34.78	-74.480	-28.616	77.616	-0.78433	0.51376	-0.32343	0.12720	30.5	13111	100
2025-3-27 20:31:43.769	WT901BLE68-01(48591DE3C19B)	-0.333	-0.786	0.215	16.113	17.151	-2.319	-72.21	23.81	-34.96	-74.480	-28.616	77.616	-0.78433	0.51376	-0.32343	0.12720	30.5	13111	100
2025-3-27 20:31:43.827	WT901BLE68-01(48591DE3C19B)	-0.328	-0.786	0.215	16.113	17.151	-2.319	-72.13	23.83	-35.16	-74.480	-28.616	77.616	-0.78433	0.51376	-0.32343	0.12720	30.5	13111	100
2025-3-27 20:31:43.827	WT901BLE68-01(48591DE3C19B)	-0.328	-0.788	0.204	14.587	18.799	-5.249	-72.06	23.85	-35.37	-74.480	-28.616	77.616	-0.78433	0.51376	-0.32343	0.12720	30.5	13111	100
2025-3-27 20:31:43.827	WT901BLE68-01(48591DE3C19B)	-0.330	-0.788	0.204	14.587	18.799	-5.249	-72.02	23.85	-35.59	-74.480	-28.616	77.616	-0.78433	0.51376	-0.32343	0.12720	30.5	13111	100
2025-3-27 20:31:43.827	WT901BLE68-01(48591DE3C19B)	-0.330	-0.801	0.199	13.855	20.996	-8.545	-71.98	23.83	-35.83	-74.480	-28.616	77.616	-0.78433	0.51376	-0.32343	0.12720	30.5	13111	100
2025-3-27 20:31:43.856	WT901BLE68-01(48591DE3C19B)	-0.336	-0.801	0.199	13.855	20.996	-8.545	-71.95	23.81	-36.08	-74.480	-28.616	77.616	-0.78433	0.51376	-0.32343	0.12720	30.5	13111	100
2025-3-27 20:31:43.856	WT901BLE68-01(48591DE3C19B)	-0.336	-0.810	0.198	13.794	23.010	-12.024	-71.93	23.77	-36.36	-74.480	-28.616	77.616	-0.78433	0.51376	-0.32343	0.12720	30.5	13111	100
2025-3-27 20:31:43.856	WT901BLE68-01(48591DE3C19B)	-0.338	-0.810	0.198	13.794	23.010	-12.024	-71.92	23.72	-36.64	-74.480	-28.616	77.616	-0.78433	0.51376	-0.32343	0.12720	30.5	13111	100
2025-3-27 20:31:43.856	WT901BLE68-01(48591DE3C19B)	-0.338	-0.796	0.192	13.611	24.353	-15.747	-71.91	23.66	-36.94	-74.480	-28.616	77.616	-0.78433	0.51376	-0.32343	0.12720	30.5	13111	100
2025-3-27 20:31:43.919	WT901BLE68-01(48591DE3C19B)	-0.342	-0.796	0.192	13.611	24.353	-15.747	-71.92	23.58	-37.25	-74.480	-28.616	77.616	-0.78433	0.51376	-0.32343	0.12720	30.5	13111	100
2025-3-27 20:31:43.919	WT901BLE68-01(48591DE3C19B)	-0.342	-0.785	0.185	13.672	25.208	-19.714	-71.92	23.48	-37.57	-74.480	-28.616	77.616	-0.78433	0.51376	-0.32343	0.12720	30.5	13111	100
2025-3-27 20:31:43.919	WT901BLE68-01(48591DE3C19B)	-0.350	-0.785	0.185	13.672	25.208	-19.714	-71.94	23.36	-37.90	-74.480	-28.616	77.616	-0.78433	0.51376	-0.32343	0.12720	30.5	13111	100
2025-3-27 20:31:43.919	WT901BLE68-01(48591DE3C19B)	-0.350	-0.763	0.184	14.221	24.963	-23.010	-71.95	23.23	-38.23	-74.480	-28.616	77.616	-0.78433	0.51376	-0.32343	0.12720	30.5	13111	100
2025-3-27 20:31:43.948	WT901BLE68-01(48591DE3C19B)	-0.355	-0.763	0.184	14.221	24.963	-23.010	-71.95	23.09	-38.57	-74.480	-28.616	77.616	-0.78433	0.51376	-0.32343	0.12720	30.5	13111	100
2025-3-27 20:31:43.949	WT901BLE68-01(48591DE3C19B)	-0.355	-0.737	0.198	15.991	23.193	-25.330	-71.95	22.93	-38.89	-74.480	-28.616	77.616	-0.78433	0.51376	-0.32343	0.12720	30.5	13111	100
2025-3-27 20:31:43.949	WT901BLE68-01(48591DE3C19B)	-0.371	-0.737	0.198	15.991	23.193	-25.330	-71.94	22.76	-39.21	-74.480	-28.616	77.616	-0.78433	0.51376	-0.32343	0.12720	30.5	13111	100
2025-3-27 20:31:43.949	WT901BLE68-01(48591DE3C19B)	-0.371	-0.712	0.209	18.799	21.851	-26.367	-71.91	22.59	-39.52	-74.480	-28.616	77.616	-0.78574	0.48795	-0.34393	0.16168	30.5	13111	100
2025-3-27 20:31:43.979	WT901BLE68-01(48591DE3C19B)	-0.407	-0.712	0.209	18.799	21.851	-26.367	-71.86	22.41	-39.82	-74.480	-28.616	77.616	-0.78574	0.48795	-0.34393	0.16168	30.5	13111	100
2025-3-27 20:31:43.979	WT901BLE68-01(48591DE3C19B)	-0.407	-0.688	0.218	24.048	22.095	-25.452	-71.78	22.24	-40.12	-74.480	-28.616	77.616	-0.78574	0.48795	-0.34393	0.16168	30.5	13111	100
2025-3-27 20:31:43.979	WT901BLE68-01(48591DE3C19B)	-0.424	-0.688	0.218	24.048	22.095	-25.452	-71.68	22.08	-40.42	-74.480	-28.616	77.616	-0.78574	0.48795	-0.34393	0.16168	30.5	13111	100
2025-3-27 20:31:43.979	WT901BLE68-01(48591DE3C19B)	-0.424	-0.650	0.214	28.748	20.874	-20.874	-71.55	21.95	-40.70	-74.480	-28.616	77.616	-0.78574	0.48795	-0.34393	0.16168	30.5	13111	100
2025-3-27 20:31:44.67	WT901BLE68-01(48591DE3C19B)	-0.433	-0.650	0.214	28.748	20.874	-20.874	-71.38	21.84	-40.96	-74.480	-28.616	77.616	-0.78574	0.48795	-0.34393	0.16168	30.5	13111	100
2025-3-27 20:31:44.67	WT901BLE68-01(48591DE3C19B)	-0.433	-0.604	0.224	33.630	21.179	-12.878	-71.19	21.77	-41.20	-74.480	-28.616	77.616	-0.78574	0.48795	-0.34393	0.16168	30.5	13111	100
2025-3-27 20:31:44.67	WT901BLE68-01(48591DE3C19B)	-0.466	-0.604	0.224	33.630	21.179	-12.878	-70.97	21.75	-41.43	-74.480	-28.616	77.616	-0.78574	0.48795	-0.34393	0.16168	30.5	13111	100
2025-3-27 20:31:44.67	WT901BLE68-01(48591DE3C19B)	-0.466	-0.595	0.230	33.752	20.264	-2.991	-70.74	21.78	-41.64	-74.480	-28.616	77.616	-0.78574	0.48795	-0.34393	0.16168	30.5	13111	100
2025-3-27 20:31:44.68	WT901BLE68-01(48591DE3C19B)	-0.441	-0.595	0.230	33.752	20.264	-2.991	-70.49	21.86	-41.82	-74.480	-28.616	77.616	-0.78574	0.48795	-0.34393	0.16168	30.5	13111	100
2025-3-27 20:31:44.69	WT901BLE68-01(48591DE3C19B)	-0.441	-0.627	0.218	27.771	17.761	6.775	-70.27	21.98	-41.97	-74.480	-28.616	77.616	-0.78574	0.48795	-0.34393	0.16168	30.5	13111	100
2025-3-27 20:31:44.69	WT901BLE68-01(48591DE3C19B)	-0.414	-0.627	0.218	27.771	17.761	6.775	-70.07	22.15	-42.08	-74.480	-28.616	77.616	-0.78574	0.48795	-0.34393	0.16168	30.5	13111	100
2025-3-27 20:31:44.69	WT901BLE68-01(48591DE3C19B)	-0.414	-0.790	0.184	15.259	23.010	8.911	-69.94	22.34	-42.21	-74.480	-28.616	77.616	-0.78574	0.48795	-0.34393	0.16168	30.5	13111	100
2025-3-27 20:31:44.100	WT901BLE68-01(48591DE3C19B)	-0.493	-0.790	0.184	15.259	23.010	8.911	-69.88	22.54	-42.37	-74.480	-28.616	77.616	-0.78574	0.48795	-0.34393	0.16168	30.5	13111	100
2025-3-27 20:31:44.100	WT901BLE68-01(48591DE3C19B)	-0.493	-1.026	0.249	5.615	29.541	-0.916	-69.90	22.70	-42.58	-74.480	-28.616	77.616	-0.78574	0.48795	-0.34393	0.16168	30.5	13111	100
2025-3-27 20:31:44.100	WT901BLE68-01(48591DE3C19B)	-0.653	-1.026	0.249	5.615	29.541	-0.916	-69.99	22.83	-42.85	-74.480	-28.616	77.616	-0.78574	0.48795	-0.34393	0.16168	30.5	13111	100
2025-3-27 20:31:44.100	WT901BLE68-01(48591DE3C19B)	-2.612	-1.301	0.391	-5.310	24.231	-17.822	-70.13	22.86	-43.12	-74.480	-28.616	77.616	-0.78574	0.48795	-0.34393	0.16168	30.5	13111	100
2025-3-27 20:31:44.157	WT901BLE68-01(48591DE3C19B)	-0.722	-5.203	1.563	-5.310	24.231	-17.822	-70.32	22.80	-43.40	-74.480	-28.616	77.616	-0.78574	0.48795	-0.34393	0.16168	30.5	13111	100
2025-3-27 20:31:44.157	WT901BLE68-01(48591DE3C19B)	-0.722	-1.476	0.546	-19.348	14.832	-35.095	-70.58	22.64	-43.66	-74.480	-28.616	77.616	-0.78574	0.48795	-0.34393	0.16168	30.5	13111	100
2025-3-27 20:31:44.157	WT901BLE68-01(48591DE3C19B)	-0.751	-1.476	0.546	-19.348	14.832	-35.095	-70.89	22.38	-43.91	-74.480	-28.616	77.616	-0.78574	0.48795	-0.34393	0.16168	30.5	13111	100
2025-3-27 20:31:44.158	WT901BLE68-01(48591DE3C19B)	-0.751	-1.383	0.657	-14.954	15.442	-38.086	-71.19	22.11	-44.15	-74.480	-28.616	77.616	-0.78574	0.48795	-0.34393	0.16168	30.5	13111	100
2025-3-27 20:31:44.217	WT901BLE68-01(48591DE3C19B)	-0.726	-1.383	0.657	-14.954	15.442	-38.086	-71.45	21.82	-44.41	-81.046	-23.716	75.852	-0.78574	0.48795	-0.34393	0.16168	30.5	13111	100
2025-3-27 20:31:44.217	WT901BLE68-01(48591DE3C19B)	-0.726	-0.996	0.661	-14.038	9.644	-30.884	-71.68	21.57	-44.62	-81.046	-23.716	75.852	-0.78574	0.48795	-0.34393	0.16168	30.5	13111	100
2025-3-27 20:31:44.218	WT901BLE68-01(48591DE3C19B)	-0.655	-0.996	0.661	-14.038	9.644	-30.884	-71.89	21.34	-44.79	-81.046	-23.716	75.852	-0.78574	0.48795	-0.34393	0.16168	30.5	13111	100
2025-3-27 20:31:44.218	WT901BLE68-01(48591DE3C19B)	-0.655	-0.730	0.584	-23.132	-10.254	-15.015	-72.09	21.16	-44.82	-81.046	-23.716	75.852	-0.78574	0.48795	-0.34393	0.16168	30.5	13111	100
2025-3-27 20:31:44.219	WT901BLE68-01(48591DE3C19B)	-0.563	-0.730	0.584	-23.132	-10.254	-15.015	-72.27	21.03	-44.73	-81.046	-23.716	75.852	-0.78574	0.48795	-0.34393	0.16168	30.5	13111	100
2025-3-27 20:31:44.219	WT901BLE68-01(48591DE3C19B)	-0.563	-0.654	0.487	-36.621	-40.710	-2.930	-72.46	20.91	-44.46	-81.046	-23.716	75.852	-0.78574	0.48795	-0.34393	0.16168	30.5	13111	100
2025-3-27 20:31:44.219	WT901BLE68-01(48591DE3C19B)	-0.509	-0.654	0.487	-36.621	-40.710	-2.930	-72.65	20.81	-44.02	-81.046	-23.716	75.852	-0.78574	0.48795	-0.34393	0.16168	30.5	13111	100
2025-3-27 20:31:44.219	WT901BLE68-01(48591DE3C19B)	-0.509	-0.766	0.408	-41.138	-63.660	6.531	-72.81	20.73	-43.45	-81.046	-23.716	75.852	-0.78574	0.48795	-0.34393	0.16168	30.5	13111	100
2025-3-27 20:31:44.277	WT901BLE68-01(48591DE3C19B)	-0.410	-0.766	0.408	-41.138	-63.660	6.531	-72.94	20.65	-42.74	-81.046	-23.716	75.852	-0.78574	0.48795	-0.34393	0.16168	30.5	13111	100
2025-3-27 20:31:44.277	WT901BLE68-01(48591DE3C19B)	-0.410	-0.893	0.338	-32.104	-65.735	13.855	-72.97	20.65	-42.00	-81.046	-23.716	75.852	-0.78574	0.48795	-0.34393	0.16168	30.5	13111	100
2025-3-27 20:31:44.277	WT901BLE68-01(48591DE3C19B)	-0.328	-0.893	0.338	-32.104	-65.735	13.855	-72.99	20.64	-41.25	-81.046	-23.716	75.852	-0.78574	0.48795	-0.34393	0.16168	30.5	13111	100
2025-3-27 20:31:44.277	WT901BLE68-01(48591DE3C19B)	-0.328	-0.940	0.281	-13.062	-44.434	17.944	-72.91	20.72	-40.72	-81.046	-23.716	75.852	-0.78574	0.48795	-0.34393	0.16168	30.5	13111	100
2025-3-27 20:31:44.306	WT901BLE68-01(48591DE3C19B)	-0.327	-0.940	0.281	-13.062	-44.434	17.944	-72.82	20.80	-40.19	-81.046	-23.716	75.852	-0.78574	0.48795	-0.34393	0.16168	30.5	13111	100
2025-3-27 20:31:44.306	WT901BLE68-01(48591DE3C19B)	-0.327	-0.893	0.231	4.761	-19.104	17.822	-72.65	20.95	-39.92	-81.046	-23.716	75.852	-0.78574	0.48795	-0.34393	0.16168	30.5	13111	100
2025-3-27 20:31:44.306	WT901BLE68-01(48591DE3C19B)	-0.322	-0.893	0.231	4.761	-19.104	17.822	-72.49	21.09	-39.66	-81.046	-23.716	75.852	-0.78574	0.48795	-0.34393	0.16168	30.5	13111	100
2025-3-27 20:31:44.306	WT901BLE68-01(48591DE3C19B)	-0.322	-0.814	0.213	11.169	-4.395	12.634	-72.33	21.23	-39.56	-81.046	-23.716	75.852	-0.78574	0.48795	-0.34393	0.16168	30.5	13111	100
2025-3-27 20:31:44.339	WT901BLE68-01(48591DE3C19B)	-0.298	-0.814	0.213	11.169	-4.395	12.634	-72.17	21.36	-39.46	-81.046	-23.716	75.852	-0.78574	0.48795	-0.34393	0.16168	30.5	13111	100
2025-3-27 20:31:44.339	WT901BLE68-01(48591DE3C19B)	-0.298	-0.722	0.242	15.808	14.954	9.827	-72.04	21.52	-39.57	-81.046	-23.716	75.852	-0.78574	0.48795	-0.34393	0.16168	30.5	13111	100
2025-3-27 20:31:44.339	WT901BLE68-01(48591DE3C19B)	-0.382	-0.722	0.242	15.808	14.954	9.827	-71.91	21.68	-39.67	-81.046	-23.716	75.852	-0.78574	0.48795	-0.34393	0.16168	30.5	13111	100
2025-3-27 20:31:44.339	WT901BLE68-01(48591DE3C19B)	-0.382	-0.599	0.278	17.456	33.142	8.179	-71.83	21.88	-39.97	-81.046	-23.716	75.852	-0.78574	0.48795	-0.34393	0.16168	30.5	13111	100
2025-3-27 20:31:44.398	WT901BLE68-01(48591DE3C19B)	-0.452	-0.599	0.278	17.456	33.142	8.179	-71.76	22.08	-40.26	-81.046	-23.716	75.852	-0.78574	0.48795	-0.34393	0.16168	30.5	13111	100
2025-3-27 20:31:44.398	WT901BLE68-01(48591DE3C19B)	-0.452	-0.487	0.279	5.920	31.311	9.399	-71.80	22.29	-40.53	-81.046	-23.716	75.852	-0.78458	0.48477	-0.34741	0.16922	30.5	13111	100
2025-3-27 20:31:44.398	WT901BLE68-01(48591DE3C19B)	-0.427	-0.487	0.279	5.920	31.311	9.399	-71.83	22.51	-40.79	-81.046	-23.716	75.852	-0.78458	0.48477	-0.34741	0.16922	30.5	13111	100
2025-3-27 20:31:44.398	WT901BLE68-01(48591DE3C19B)	-0.427	-0.431	0.255	-7.996	18.250	11.658	-71.94	22.71	-40.91	-81.046	-23.716	75.852	-0.78458	0.48477	-0.34741	0.16922	30.5	13111	100
2025-3-27 20:31:44.427	WT901BLE68-01(48591DE3C19B)	-0.421	-0.431	0.255	-7.996	18.250	11.658	-72.05	22.91	-41.02	-81.046	-23.716	75.852	-0.78458	0.48477	-0.34741	0.16922	30.5	13111	100
2025-3-27 20:31:44.427	WT901BLE68-01(48591DE3C19B)	-0.421	-0.386	0.203	-19.104	1.343	15.320	-72.20	23.10	-40.94	-81.046	-23.716	75.852	-0.78458	0.48477	-0.34741	0.16922	30.5	13111	100
2025-3-27 20:31:44.427	WT901BLE68-01(48591DE3C19B)	-0.437	-0.386	0.203	-19.104	1.343	15.320	-72.34	23.30	-40.85	-81.046	-23.716	75.852	-0.78458	0.48477	-0.34741	0.16922	30.5	13111	100
2025-3-27 20:31:44.427	WT901BLE68-01(48591DE3C19B)	-0.437	-0.323	0.165	-31.067	-26.489	22.278	-72.49	23.49	-40.46	-81.046	-23.716	75.852	-0.78458	0.48477	-0.34741	0.16922	30.5	13111	100
2025-3-27 20:31:44.457	WT901BLE68-01(48591DE3C19B)	-0.435	-0.323	0.165	-31.067	-26.489	22.278	-72.63	23.68	-40.05	-81.046	-23.716	75.852	-0.78458	0.48477	-0.34741	0.16922	30.5	13111	100
2025-3-27 20:31:44.457	WT901BLE68-01(48591DE3C19B)	-0.435	-0.290	0.151	-42.847	-61.279	32.471	-72.72	23.88	-39.24	-81.046	-23.716	75.852	-0.78458	0.48477	-0.34741	0.16922	30.5	13111	100
2025-3-27 20:31:44.457	WT901BLE68-01(48591DE3C19B)	-0.412	-0.290	0.151	-42.847	-61.279	32.471	-72.82	24.08	-38.44	-81.046	-23.716	75.852	-0.78458	0.48477	-0.34741	0.16922	30.5	13111	100
2025-3-27 20:31:44.457	WT901BLE68-01(48591DE3C19B)	-0.412	-0.313	0.157	-52.246	-94.788	47.058	-72.84	24.33	-37.22	-81.046	-23.716	75.852	-0.78458	0.48477	-0.34741	0.16922	30.5	13111	100
2025-3-27 20:31:44.518	WT901BLE68-01(48591DE3C19B)	-0.349	-0.313	0.157	-52.246	-94.788	47.058	-72.86	24.58	-36.01	-81.046	-23.716	75.852	-0.78458	0.48477	-0.34741	0.16922	30.5	13111	100
2025-3-27 20:31:44.518	WT901BLE68-01(48591DE3C19B)	-0.349	-0.404	0.172	-58.228	-116.943	62.988	-72.81	24.92	-34.51	-81.046	-23.716	75.852	-0.78458	0.48477	-0.34741	0.16922	30.5	13111	100
2025-3-27 20:31:44.518	WT901BLE68-01(48591DE3C19B)	-0.301	-0.404	0.172	-58.228	-116.943	62.988	-72.75	25.26	-33.01	-81.046	-23.716	75.852	-0.78458	0.48477	-0.34741	0.16922	30.5	13111	100
2025-3-27 20:31:44.518	WT901BLE68-01(48591DE3C19B)	-0.301	-0.608	0.153	-63.721	-124.939	72.388	-72.69	25.65	-31.40	-81.046	-23.716	75.852	-0.78458	0.48477	-0.34741	0.16922	30.5	13111	100
2025-3-27 20:31:44.546	WT901BLE68-01(48591DE3C19B)	-0.251	-0.608	0.153	-63.721	-124.939	72.388	-72.61	26.03	-29.79	-81.046	-23.716	75.852	-0.78458	0.48477	-0.34741	0.16922	30.5	13111	100
2025-3-27 20:31:44.547	WT901BLE68-01(48591DE3C19B)	-0.251	-1.066	0.129	-75.439	-121.094	57.251	-72.71	26.26	-28.30	-81.046	-23.716	75.852	-0.78458	0.48477	-0.34741	0.16922	30.5	13111	100
2025-3-27 20:31:44.547	WT901BLE68-01(48591DE3C19B)	-0.354	-1.066	0.129	-75.439	-121.094	57.251	-72.80	26.48	-26.82	-81.046	-23.716	75.852	-0.78458	0.48477	-0.34741	0.16922	30.5	13111	100
2025-3-27 20:31:44.547	WT901BLE68-01(48591DE3C19B)	-0.354	-1.938	0.105	-72.327	-106.445	26.001	-72.99	26.42	-25.62	-81.046	-23.716	75.852	-0.78458	0.48477	-0.34741	0.16922	30.5	13111	100
2025-3-27 20:31:44.577	WT901BLE68-01(48591DE3C19B)	-0.369	-1.938	0.105	-72.327	-106.445	26.001	-73.20	26.34	-24.44	-81.046	-23.716	75.852	-0.78458	0.48477	-0.34741	0.16922	30.5	13111	100
2025-3-27 20:31:44.577	WT901BLE68-01(48591DE3C19B)	-0.369	-2.398	0.123	-17.761	-78.308	-0.916	-73.05	26.07	-23.66	-81.046	-23.716	75.852	-0.78458	0.48477	-0.34741	0.16922	30.5	13111	100
2025-3-27 20:31:44.577	WT901BLE68-01(48591DE3C19B)	-0.402	-2.398	0.123	-17.761	-78.308	-0.916	-72.93	25.79	-22.90	-66.738	-21.952	85.848	-0.78458	0.48477	-0.34741	0.16922	30.5	13111	100
2025-3-27 20:31:44.577	WT901BLE68-01(48591DE3C19B)	-0.402	-2.079	0.226	19.470	-47.302	-4.028	-72.59	25.57	-22.49	-66.738	-21.952	85.848	-0.78458	0.48477	-0.34741	0.16922	30.5	13111	100
2025-3-27 20:31:44.637	WT901BLE68-01(48591DE3C19B)	-0.351	-2.079	0.226	19.470	-47.302	-4.028	-72.25	25.33	-22.08	-66.738	-21.952	85.848	-0.78458	0.48477	-0.34741	0.16922	30.5	13111	100
2025-3-27 20:31:44.638	WT901BLE68-01(48591DE3C19B)	-0.351	-1.747	0.254	27.222	7.568	-13.489	-72.10	25.17	-22.27	-66.738	-21.952	85.848	-0.78458	0.48477	-0.34741	0.16922	30.5	13111	100
2025-3-27 20:31:44.638	WT901BLE68-01(48591DE3C19B)	-0.331	-1.747	0.254	27.222	7.568	-13.489	-71.95	25.01	-22.47	-66.738	-21.952	85.848	-0.78458	0.48477	-0.34741	0.16922	30.5	13111	100
2025-3-27 20:31:44.638	WT901BLE68-01(48591DE3C19B)	-0.331	-1.475	0.255	41.321	60.059	-2.991	-71.88	25.11	-23.19	-66.738	-21.952	85.848	-0.78458	0.48477	-0.34741	0.16922	30.5	13111	100
2025-3-27 20:31:44.697	WT901BLE68-01(48591DE3C19B)	-0.213	-1.475	0.255	41.321	60.059	-2.991	-71.81	25.21	-23.89	-66.738	-21.952	85.848	-0.78458	0.48477	-0.34741	0.16922	30.5	13111	100
2025-3-27 20:31:44.697	WT901BLE68-01(48591DE3C19B)	-0.213	-1.008	0.290	47.241	87.585	10.193	-71.78	25.52	-24.84	-66.738	-21.952	85.848	-0.78458	0.48477	-0.34741	0.16922	30.5	13111	100
2025-3-27 20:31:44.698	WT901BLE68-01(48591DE3C19B)	-0.097	-1.008	0.290	47.241	87.585	10.193	-71.75	25.82	-25.78	-66.738	-21.952	85.848	-0.78458	0.48477	-0.34741	0.16922	30.5	13111	100
2025-3-27 20:31:44.698	WT901BLE68-01(48591DE3C19B)	-0.097	-0.552	0.318	21.729	79.163	17.944	-71.93	26.17	-26.61	-66.738	-21.952	85.848	-0.78458	0.48477	-0.34741	0.16922	30.5	13111	100
2025-3-27 20:31:44.699	WT901BLE68-01(48591DE3C19B)	-0.063	-0.552	0.318	21.729	79.163	17.944	-72.11	26.50	-27.43	-66.738	-21.952	85.848	-0.78458	0.48477	-0.34741	0.16922	30.5	13111	100
2025-3-27 20:31:44.699	WT901BLE68-01(48591DE3C19B)	-0.135	-0.380	0.322	-7.324	60.486	9.521	-72.49	26.70	-28.09	-66.738	-21.952	85.848	-0.78458	0.48477	-0.34741	0.16922	30.5	13111	100
2025-3-27 20:31:44.699	WT901BLE68-01(48591DE3C19B)	-0.135	-0.332	0.310	-14.709	46.204	4.028	-72.88	26.85	-28.68	-66.738	-21.952	85.848	-0.78458	0.48477	-0.34741	0.16922	30.5	13111	100
2025-3-27 20:31:44.699	WT901BLE68-01(48591DE3C19B)	-0.208	-0.332	0.310	-14.709	46.204	4.028	-73.26	26.94	-29.20	-66.738	-21.952	85.848	-0.78458	0.48477	-0.34741	0.16922	30.5	13111	100
2025-3-27 20:31:44.757	WT901BLE68-01(48591DE3C19B)	-0.208	-0.321	0.260	-14.954	33.813	6.897	-73.61	27.03	-29.64	-66.738	-21.952	85.848	-0.78458	0.48477	-0.34741	0.16922	30.5	13111	100
2025-3-27 20:31:44.757	WT901BLE68-01(48591DE3C19B)	-0.243	-0.321	0.260	-14.954	33.813	6.897	-73.92	27.11	-30.01	-66.738	-21.952	85.848	-0.78458	0.48477	-0.34741	0.16922	30.5	13111	100
2025-3-27 20:31:44.757	WT901BLE68-01(48591DE3C19B)	-0.243	-0.328	0.192	-7.263	24.475	5.737	-74.15	27.18	-30.33	-66.738	-21.952	85.848	-0.78458	0.48477	-0.34741	0.16922	30.5	13111	100
2025-3-27 20:31:44.757	WT901BLE68-01(48591DE3C19B)	-0.221	-0.328	0.192	-7.263	24.475	5.737	-74.32	27.24	-30.60	-66.738	-21.952	85.848	-0.78458	0.48477	-0.34741	0.16922	30.5	13111	100
2025-3-27 20:31:44.786	WT901BLE68-01(48591DE3C19B)	-0.221	-0.301	0.150	3.723	10.803	9.399	-74.40	27.29	-30.78	-66.738	-21.952	85.848	-0.78409	0.51654	-0.33713	0.06790	30.5	13111	100
2025-3-27 20:31:44.786	WT901BLE68-01(48591DE3C19B)	-0.184	-0.301	0.150	3.723	10.803	9.399	-74.38	27.36	-30.88	-66.738	-21.952	85.848	-0.78409	0.51654	-0.33713	0.06790	30.5	13111	100
2025-3-27 20:31:44.787	WT901BLE68-01(48591DE3C19B)	-0.184	-0.297	0.141	11.902	0.671	16.846	-74.29	27.44	-30.91	-66.738	-21.952	85.848	-0.78409	0.51654	-0.33713	0.06790	30.5	13111	100
2025-3-27 20:31:44.787	WT901BLE68-01(48591DE3C19B)	-0.269	-0.297	0.141	11.902	0.671	16.846	-74.12	27.55	-30.87	-66.738	-21.952	85.848	-0.78409	0.51654	-0.33713	0.06790	30.5	13111	100
2025-3-27 20:31:44.817	WT901BLE68-01(48591DE3C19B)	-0.269	-0.409	0.139	17.212	-6.409	20.630	-73.92	27.68	-30.78	-66.738	-21.952	85.848	-0.78409	0.51654	-0.33713	0.06790	30.5	13111	100
2025-3-27 20:31:44.817	WT901BLE68-01(48591DE3C19B)	-0.404	-0.409	0.139	17.212	-6.409	20.630	-73.66	27.82	-30.65	-66.738	-21.952	85.848	-0.78409	0.51654	-0.33713	0.06790	30.5	13111	100
2025-3-27 20:31:44.817	WT901BLE68-01(48591DE3C19B)	-0.404	-0.563	0.155	18.738	-16.541	23.743	-73.37	27.96	-30.45	-66.738	-21.952	85.848	-0.78409	0.51654	-0.33713	0.06790	30.5	13111	100
2025-3-27 20:31:44.817	WT901BLE68-01(48591DE3C19B)	-0.464	-0.563	0.155	18.738	-16.541	23.743	-73.04	28.11	-30.18	-66.738	-21.952	85.848	-0.78409	0.51654	-0.33713	0.06790	30.5	13111	100
2025-3-27 20:31:44.938	WT901BLE68-01(48591DE3C19B)	-0.464	-0.808	0.170	10.498	-27.100	16.296	-72.75	28.21	-29.87	-66.738	-21.952	85.848	-0.78409	0.51654	-0.33713	0.06790	30.5	13111	100
2025-3-27 20:31:44.939	WT901BLE68-01(48591DE3C19B)	-0.457	-0.808	0.170	10.498	-27.100	16.296	-72.47	28.27	-29.51	-66.738	-21.952	85.848	-0.78409	0.51654	-0.33713	0.06790	30.5	13111	100
2025-3-27 20:31:44.939	WT901BLE68-01(48591DE3C19B)	-0.457	-1.211	0.145	1.648	-23.865	-9.094	-72.28	28.21	-29.21	-66.738	-21.952	85.848	-0.78409	0.51654	-0.33713	0.06790	30.5	13111	100
2025-3-27 20:31:44.939	WT901BLE68-01(48591DE3C19B)	-0.453	-1.211	0.145	1.648	-23.865	-9.094	-72.17	28.03	-28.98	-66.738	-21.952	85.848	-0.78409	0.51654	-0.33713	0.06790	30.5	13111	100
2025-3-27 20:31:44.939	WT901BLE68-01(48591DE3C19B)	-0.453	-1.659	0.141	7.690	2.563	-52.795	-72.15	27.67	-28.97	-66.738	-21.952	85.848	-0.78409	0.51654	-0.33713	0.06790	30.5	13111	100
2025-3-27 20:31:44.939	WT901BLE68-01(48591DE3C19B)	-0.641	-1.659	0.141	7.690	2.563	-52.795	-72.20	27.15	-29.18	-66.738	-21.952	85.848	-0.78409	0.51654	-0.33713	0.06790	30.5	13111	100
2025-3-27 20:31:44.939	WT901BLE68-01(48591DE3C19B)	-0.641	-1.910	0.276	25.024	39.001	-76.172	-72.28	26.56	-29.63	-66.738	-21.952	85.848	-0.78409	0.51654	-0.33713	0.06790	30.5	13111	100
2025-3-27 20:31:44.939	WT901BLE68-01(48591DE3C19B)	-0.933	-1.910	0.276	25.024	39.001	-76.172	-72.37	25.93	-30.31	-66.738	-21.952	85.848	-0.78409	0.51654	-0.33713	0.06790	30.5	13111	100
2025-3-27 20:31:44.939	WT901BLE68-01(48591DE3C19B)	-0.933	-1.651	0.446	40.588	105.896	-100.281	-72.55	25.27	-31.37	-66.738	-21.952	85.848	-0.78409	0.51654	-0.33713	0.06790	30.5	13111	100
2025-3-27 20:31:44.939	WT901BLE68-01(48591DE3C19B)	-0.897	-1.651	0.446	40.588	105.896	-100.281	-72.79	24.61	-32.79	-66.738	-21.952	85.848	-0.78409	0.51654	-0.33713	0.06790	30.5	13111	100
2025-3-27 20:31:44.939	WT901BLE68-01(48591DE3C19B)	-0.897	-1.219	0.553	60.913	178.894	-86.548	-73.05	24.13	-34.57	-66.738	-21.952	85.848	-0.78409	0.51654	-0.33713	0.06790	30.5	13111	100
2025-3-27 20:31:44.939	WT901BLE68-01(48591DE3C19B)	-0.816	-1.219	0.553	60.913	178.894	-86.548	-73.34	23.82	-36.67	-66.738	-21.952	85.848	-0.78409	0.51654	-0.33713	0.06790	30.5	13111	100
2025-3-27 20:31:44.998	WT901BLE68-01(48591DE3C19B)	-0.816	-0.871	0.560	57.373	211.914	-64.392	-73.67	23.66	-38.90	-66.738	-21.952	85.848	-0.78409	0.51654	-0.33713	0.06790	30.5	13111	100
2025-3-27 20:31:44.998	WT901BLE68-01(48591DE3C19B)	-0.715	-0.871	0.560	57.373	211.914	-64.392	-74.08	23.65	-41.25	-69.678	-15.386	87.710	-0.78409	0.51654	-0.33713	0.06790	30.5	13111	100
2025-3-27 20:31:44.998	WT901BLE68-01(48591DE3C19B)	-0.715	-0.678	0.379	32.166	174.377	-42.358	-74.50	23.69	-43.35	-69.678	-15.386	87.710	-0.78409	0.51654	-0.33713	0.06790	30.5	13111	100
2025-3-27 20:31:44.998	WT901BLE68-01(48591DE3C19B)	-0.698	-0.678	0.379	32.166	174.377	-42.358	-74.95	23.77	-45.22	-69.678	-15.386	87.710	-0.78409	0.51654	-0.33713	0.06790	30.5	13111	100
2025-3-27 20:31:45.26	WT901BLE68-01(48591DE3C19B)	-0.698	-0.679	0.229	0.610	82.703	-26.001	-75.36	23.81	-46.57	-69.678	-15.386	87.710	-0.78409	0.51654	-0.33713	0.06790	30.5	13111	100
2025-3-27 20:31:45.26	WT901BLE68-01(48591DE3C19B)	-0.633	-0.679	0.229	0.610	82.703	-26.001	-75.72	23.82	-47.41	-69.678	-15.386	87.710	-0.78409	0.51654	-0.33713	0.06790	30.5	13111	100
2025-3-27 20:31:45.26	WT901BLE68-01(48591DE3C19B)	-0.633	-0.684	0.189	-26.245	-2.014	-10.010	-76.03	23.80	-47.77	-69.678	-15.386	87.710	-0.78409	0.51654	-0.33713	0.06790	30.5	13111	100
2025-3-27 20:31:45.26	WT901BLE68-01(48591DE3C19B)	-0.629	-0.684	0.189	-26.245	-2.014	-10.010	-76.27	23.75	-47.66	-69.678	-15.386	87.710	-0.78409	0.51654	-0.33713	0.06790	30.5	13111	100
2025-3-27 20:31:45.56	WT901BLE68-01(48591DE3C19B)	-0.629	-0.670	0.247	-36.987	-51.270	9.094	-76.46	23.75	-47.26	-69.678	-15.386	87.710	-0.78409	0.51654	-0.33713	0.06790	30.5	13111	100
2025-3-27 20:31:45.56	WT901BLE68-01(48591DE3C19B)	-0.590	-0.670	0.247	-36.987	-51.270	9.094	-76.59	23.79	-46.58	-69.678	-15.386	87.710	-0.78409	0.51654	-0.33713	0.06790	30.5	13111	100
2025-3-27 20:31:45.56	WT901BLE68-01(48591DE3C19B)	-0.590	-0.632	0.357	-39.856	-66.772	11.597	-76.69	23.82	-45.82	-69.678	-15.386	87.710	-0.78409	0.51654	-0.33713	0.06790	30.5	13111	100
2025-3-27 20:31:45.56	WT901BLE68-01(48591DE3C19B)	-0.478	-0.632	0.357	-39.856	-66.772	11.597	-76.77	23.85	-44.97	-69.678	-15.386	87.710	-0.78409	0.51654	-0.33713	0.06790	30.5	13111	100
2025-3-27 20:31:45.117	WT901BLE68-01(48591DE3C19B)	-0.478	-0.571	0.437	-32.654	-59.875	14.954	-76.82	23.91	-44.15	-69.678	-15.386	87.710	-0.78409	0.51654	-0.33713	0.06790	30.5	13111	100
2025-3-27 20:31:45.117	WT901BLE68-01(48591DE3C19B)	-0.394	-0.571	0.437	-32.654	-59.875	14.954	-76.83	24.00	-43.37	-69.678	-15.386	87.710	-0.78409	0.51654	-0.33713	0.06790	30.5	13111	100
2025-3-27 20:31:45.117	WT901BLE68-01(48591DE3C19B)	-0.394	-0.440	0.440	-19.714	-38.574	20.996	-76.82	24.14	-42.69	-69.678	-15.386	87.710	-0.78409	0.51654	-0.33713	0.06790	30.5	13111	100
2025-3-27 20:31:45.117	WT901BLE68-01(48591DE3C19B)	-0.268	-0.440	0.440	-19.714	-38.574	20.996	-76.78	24.33	-42.12	-69.678	-15.386	87.710	-0.78409	0.51654	-0.33713	0.06790	30.5	13111	100
2025-3-27 20:31:45.148	WT901BLE68-01(48591DE3C19B)	-0.268	-0.261	0.368	-8.118	-16.174	31.555	-76.71	24.60	-41.66	-69.678	-15.386	87.710	-0.78409	0.51654	-0.33713	0.06790	30.5	13111	100
2025-3-27 20:31:45.149	WT901BLE68-01(48591DE3C19B)	-0.203	-0.261	0.368	-8.118	-16.174	31.555	-76.61	24.94	-41.30	-69.678	-15.386	87.710	-0.78409	0.51654	-0.33713	0.06790	30.5	13111	100
2025-3-27 20:31:45.149	WT901BLE68-01(48591DE3C19B)	-0.203	-0.126	0.307	-2.197	-0.427	41.016	-76.51	25.35	-41.01	-69.678	-15.386	87.710	-0.78409	0.51654	-0.33713	0.06790	30.5	13111	100
2025-3-27 20:31:45.149	WT901BLE68-01(48591DE3C19B)	-0.287	-0.126	0.307	-2.197	-0.427	41.016	-76.40	25.82	-40.79	-69.678	-15.386	87.710	-0.78409	0.51654	-0.33713	0.06790	30.5	13111	100
2025-3-27 20:31:45.179	WT901BLE68-01(48591DE3C19B)	-0.287	-0.117	0.273	-9.277	4.700	47.119	-76.37	26.36	-40.59	-69.678	-15.386	87.710	-0.78409	0.51654	-0.33713	0.06790	30.5	13111	100
2025-3-27 20:31:45.179	WT901BLE68-01(48591DE3C19B)	-0.378	-0.117	0.273	-9.277	4.700	47.119	-76.32	26.91	-40.40	-69.678	-15.386	87.710	-0.78409	0.51654	-0.33713	0.06790	30.5	13111	100
2025-3-27 20:31:45.179	WT901BLE68-01(48591DE3C19B)	-0.378	-0.322	0.223	-27.283	-13.062	50.293	-76.37	27.44	-40.00	-69.678	-15.386	87.710	-0.76764	0.50055	-0.38058	0.12332	30.5	13111	100
2025-3-27 20:31:45.179	WT901BLE68-01(48591DE3C19B)	-0.411	-0.322	0.223	-27.283	-13.062	50.293	-76.41	27.98	-39.59	-69.678	-15.386	87.710	-0.76764	0.50055	-0.38058	0.12332	30.5	13111	100
2025-3-27 20:31:45.237	WT901BLE68-01(48591DE3C19B)	-0.411	-0.683	0.143	-44.495	-42.297	50.476	-76.48	28.44	-38.86	-69.678	-15.386	87.710	-0.76764	0.50055	-0.38058	0.12332	30.5	13111	100
2025-3-27 20:31:45.237	WT901BLE68-01(48591DE3C19B)	-0.452	-0.683	0.143	-44.495	-42.297	50.476	-76.55	28.90	-38.14	-69.678	-15.386	87.710	-0.76764	0.50055	-0.38058	0.12332	30.5	13111	100
2025-3-27 20:31:45.237	WT901BLE68-01(48591DE3C19B)	-0.452	-1.291	0.099	-60.242	-68.665	38.696	-76.67	29.16	-37.17	-69.678	-15.386	87.710	-0.76764	0.50055	-0.38058	0.12332	30.5	13111	100
2025-3-27 20:31:45.237	WT901BLE68-01(48591DE3C19B)	-0.482	-1.291	0.099	-60.242	-68.665	38.696	-76.80	29.40	-36.21	-69.678	-15.386	87.710	-0.76764	0.50055	-0.38058	0.12332	30.5	13111	100
2025-3-27 20:31:45.267	WT901BLE68-01(48591DE3C19B)	-0.482	-2.314	0.017	-45.471	-72.876	-0.122	-76.83	29.23	-35.33	-69.678	-15.386	87.710	-0.76764	0.50055	-0.38058	0.12332	30.5	13111	100
2025-3-27 20:31:45.267	WT901BLE68-01(48591DE3C19B)	-0.501	-2.314	0.017	-45.471	-72.876	-0.122	-76.89	29.04	-34.48	-69.678	-15.386	87.710	-0.76764	0.50055	-0.38058	0.12332	30.5	13111	100
2025-3-27 20:31:45.267	WT901BLE68-01(48591DE3C19B)	-0.501	-2.631	0.049	30.212	-58.533	-3.174	-76.30	28.83	-33.80	-69.678	-15.386	87.710	-0.76764	0.50055	-0.38058	0.12332	30.5	13111	100
2025-3-27 20:31:45.267	WT901BLE68-01(48591DE3C19B)	-0.554	-2.631	0.049	30.212	-58.533	-3.174	-75.73	28.60	-33.15	-69.678	-15.386	87.710	-0.76764	0.50055	-0.38058	0.12332	30.5	13111	100
2025-3-27 20:31:45.328	WT901BLE68-01(48591DE3C19B)	-0.554	-1.671	0.204	54.138	-19.714	-19.470	-75.15	28.31	-32.97	-69.678	-15.386	87.710	-0.76764	0.50055	-0.38058	0.12332	30.5	13111	100
2025-3-27 20:31:45.328	WT901BLE68-01(48591DE3C19B)	-0.428	-1.671	0.204	54.138	-19.714	-19.470	-74.58	28.02	-32.79	-69.678	-15.386	87.710	-0.76764	0.50055	-0.38058	0.12332	30.5	13111	100
2025-3-27 20:31:45.328	WT901BLE68-01(48591DE3C19B)	-0.428	-1.350	0.214	41.382	32.349	-12.573	-74.39	27.93	-33.16	-69.678	-15.386	87.710	-0.76764	0.50055	-0.38058	0.12332	30.5	13111	100
2025-3-27 20:31:45.328	WT901BLE68-01(48591DE3C19B)	-0.380	-1.350	0.214	41.382	32.349	-12.573	-74.21	27.84	-33.54	-69.678	-15.386	87.710	-0.76764	0.50055	-0.38058	0.12332	30.5	13111	100
2025-3-27 20:31:45.387	WT901BLE68-01(48591DE3C19B)	-0.380	-1.052	0.325	50.842	81.909	-1.099	-74.17	27.99	-34.40	-69.678	-15.386	87.710	-0.76764	0.50055	-0.38058	0.12332	30.5	13111	100
2025-3-27 20:31:45.388	WT901BLE68-01(48591DE3C19B)	-0.396	-1.052	0.325	50.842	81.909	-1.099	-74.12	28.15	-35.27	-69.678	-15.386	87.710	-0.76764	0.50055	-0.38058	0.12332	30.5	13111	100
2025-3-27 20:31:45.388	WT901BLE68-01(48591DE3C19B)	-0.396	-0.664	0.400	37.415	73.547	9.033	-74.14	28.38	-36.00	-69.678	-15.386	87.710	-0.76764	0.50055	-0.38058	0.12332	30.5	13111	100
2025-3-27 20:31:45.388	WT901BLE68-01(48591DE3C19B)	-0.305	-0.664	0.400	37.415	73.547	9.033	-74.16	28.61	-36.74	-63.406	-16.464	91.630	-0.76764	0.50055	-0.38058	0.12332	30.5	13111	100
2025-3-27 20:31:45.389	WT901BLE68-01(48591DE3C19B)	-0.305	-0.484	0.403	11.841	34.912	13.245	-74.22	28.78	-37.03	-63.406	-16.464	91.630	-0.76764	0.50055	-0.38058	0.12332	30.5	13111	100
2025-3-27 20:31:45.389	WT901BLE68-01(48591DE3C19B)	-0.236	-0.484	0.403	11.841	34.912	13.245	-74.27	28.96	-37.32	-63.406	-16.464	91.630	-0.76764	0.50055	-0.38058	0.12332	30.5	13111	100
2025-3-27 20:31:45.389	WT901BLE68-01(48591DE3C19B)	-0.236	-0.370	0.338	5.127	5.615	13.611	-74.23	29.06	-37.28	-63.406	-16.464	91.630	-0.76764	0.50055	-0.38058	0.12332	30.5	13111	100
2025-3-27 20:31:45.389	WT901BLE68-01(48591DE3C19B)	-0.267	-0.370	0.338	5.127	5.615	13.611	-74.17	29.16	-37.24	-63.406	-16.464	91.630	-0.76764	0.50055	-0.38058	0.12332	30.5	13111	100
2025-3-27 20:31:45.447	WT901BLE68-01(48591DE3C19B)	-0.267	-0.224	0.250	7.202	-7.874	20.020	-74.01	29.29	-37.03	-63.406	-16.464	91.630	-0.76764	0.50055	-0.38058	0.12332	30.5	13111	100
2025-3-27 20:31:45.447	WT901BLE68-01(48591DE3C19B)	-0.301	-0.224	0.250	7.202	-7.874	20.020	-73.84	29.42	-36.82	-63.406	-16.464	91.630	-0.76764	0.50055	-0.38058	0.12332	30.5	13111	100
2025-3-27 20:31:45.447	WT901BLE68-01(48591DE3C19B)	-0.301	-0.140	0.156	10.437	-8.667	34.485	-73.61	29.70	-36.54	-63.406	-16.464	91.630	-0.76764	0.50055	-0.38058	0.12332	30.5	13111	100
2025-3-27 20:31:45.447	WT901BLE68-01(48591DE3C19B)	-0.326	-0.140	0.156	10.437	-8.667	34.485	-73.37	29.98	-36.26	-63.406	-16.464	91.630	-0.76764	0.50055	-0.38058	0.12332	30.5	13111	100
2025-3-27 20:31:45.476	WT901BLE68-01(48591DE3C19B)	-0.326	-0.189	0.095	10.681	-0.366	53.711	-73.14	30.48	-36.00	-63.406	-16.464	91.630	-0.76764	0.50055	-0.38058	0.12332	30.5	13111	100
2025-3-27 20:31:45.476	WT901BLE68-01(48591DE3C19B)	-0.318	-0.189	0.095	10.681	-0.366	53.711	-72.91	30.98	-35.73	-63.406	-16.464	91.630	-0.76764	0.50055	-0.38058	0.12332	30.5	13111	100
2025-3-27 20:31:45.476	WT901BLE68-01(48591DE3C19B)	-0.318	-0.293	0.073	11.292	11.475	65.918	-72.72	31.63	-35.54	-63.406	-16.464	91.630	-0.76764	0.50055	-0.38058	0.12332	30.5	13111	100
2025-3-27 20:31:45.476	WT901BLE68-01(48591DE3C19B)	-0.383	-0.293	0.073	11.292	11.475	65.918	-72.53	32.29	-35.34	-63.406	-16.464	91.630	-0.76764	0.50055	-0.38058	0.12332	30.5	13111	100
2025-3-27 20:31:45.539	WT901BLE68-01(48591DE3C19B)	-0.383	-0.440	0.071	4.761	14.038	64.575	-72.43	32.94	-35.18	-63.406	-16.464	91.630	-0.76764	0.50055	-0.38058	0.12332	30.5	13111	100
2025-3-27 20:31:45.539	WT901BLE68-01(48591DE3C19B)	-0.503	-0.440	0.071	4.761	14.038	64.575	-72.33	33.60	-35.01	-63.406	-16.464	91.630	-0.76764	0.50055	-0.38058	0.12332	30.5	13111	100
2025-3-27 20:31:45.539	WT901BLE68-01(48591DE3C19B)	-0.503	-0.650	0.097	-7.996	-5.371	54.810	-72.26	34.10	-34.65	-63.406	-16.464	91.630	-0.76764	0.50055	-0.38058	0.12332	30.5	13111	100
2025-3-27 20:31:45.539	WT901BLE68-01(48591DE3C19B)	-0.637	-0.650	0.097	-7.996	-5.371	54.810	-72.20	34.60	-34.29	-63.406	-16.464	91.630	-0.76764	0.50055	-0.38058	0.12332	30.5	13111	100
2025-3-27 20:31:45.569	WT901BLE68-01(48591DE3C19B)	-0.637	-0.946	0.172	-18.677	-32.410	29.785	-72.12	34.78	-33.71	-63.406	-16.464	91.630	-0.76764	0.50055	-0.38058	0.12332	30.5	13111	100
2025-3-27 20:31:45.569	WT901BLE68-01(48591DE3C19B)	-0.681	-0.946	0.172	-18.677	-32.410	29.785	-72.04	34.95	-33.13	-63.406	-16.464	91.630	-0.76764	0.50055	-0.38058	0.12332	30.5	13111	100
2025-3-27 20:31:45.569	WT901BLE68-01(48591DE3C19B)	-0.681	-1.276	0.265	-20.691	-53.528	-8.484	-71.94	34.69	-32.46	-63.406	-16.464	91.630	-0.76764	0.50055	-0.38058	0.12332	30.5	13111	100
2025-3-27 20:31:45.569	WT901BLE68-01(48591DE3C19B)	-0.670	-1.276	0.265	-20.691	-53.528	-8.484	-71.83	34.43	-31.81	-63.406	-16.464	91.630	-0.76764	0.50055	-0.38058	0.12332	30.5	13111	100
2025-3-27 20:31:45.599	WT901BLE68-01(48591DE3C19B)	-0.670	-1.592	0.409	-19.287	-61.584	-55.359	-71.77	33.69	-31.24	-63.406	-16.464	91.630	-0.79294	0.47897	-0.37372	0.04532	30.5	13111	100
2025-3-27 20:31:45.599	WT901BLE68-01(48591DE3C19B)	-0.863	-1.592	0.409	-19.287	-61.584	-55.359	-71.72	32.94	-30.69	-63.406	-16.464	91.630	-0.79294	0.47897	-0.37372	0.04532	30.5	13111	100
2025-3-27 20:31:45.600	WT901BLE68-01(48591DE3C19B)	-0.863	-1.755	0.510	-4.700	-26.001	-80.200	-71.79	32.07	-30.64	-63.406	-16.464	91.630	-0.79294	0.47897	-0.37372	0.04532	30.5	13111	100
2025-3-27 20:31:45.600	WT901BLE68-01(48591DE3C19B)	-0.888	-1.755	0.510	-4.700	-26.001	-80.200	-71.86	31.21	-30.58	-63.406	-16.464	91.630	-0.79294	0.47897	-0.37372	0.04532	30.5	13111	100
2025-3-27 20:31:45.628	WT901BLE68-01(48591DE3C19B)	-0.753	-1.310	0.535	22.400	32.959	-83.801	-71.99	30.50	-31.19	-63.406	-16.464	91.630	-0.79294	0.47897	-0.37372	0.04532	30.5	13111	100
2025-3-27 20:31:45.629	WT901BLE68-01(48591DE3C19B)	-0.753	-0.830	0.497	23.804	64.453	-71.899	-72.17	29.90	-31.93	-63.406	-16.464	91.630	-0.79294	0.47897	-0.37372	0.04532	30.5	13111	100
2025-3-27 20:31:45.629	WT901BLE68-01(48591DE3C19B)	-0.561	-0.830	0.497	23.804	64.453	-71.899	-72.41	29.42	-32.81	-63.406	-16.464	91.630	-0.79294	0.47897	-0.37372	0.04532	30.5	13111	100
2025-3-27 20:31:45.629	WT901BLE68-01(48591DE3C19B)	-0.561	-0.590	0.359	6.531	54.871	-63.232	-72.69	28.96	-33.60	-63.406	-16.464	91.630	-0.79294	0.47897	-0.37372	0.04532	30.5	13111	100
2025-3-27 20:31:45.687	WT901BLE68-01(48591DE3C19B)	-0.523	-0.590	0.359	6.531	54.871	-63.232	-73.00	28.53	-34.32	-63.406	-16.464	91.630	-0.79294	0.47897	-0.37372	0.04532	30.5	13111	100
2025-3-27 20:31:45.687	WT901BLE68-01(48591DE3C19B)	-0.523	-0.513	0.247	-12.085	14.038	-46.631	-73.27	28.13	-34.77	-63.406	-16.464	91.630	-0.79294	0.47897	-0.37372	0.04532	30.5	13111	100
2025-3-27 20:31:45.687	WT901BLE68-01(48591DE3C19B)	-0.465	-0.513	0.247	-12.085	14.038	-46.631	-73.52	27.76	-34.96	-63.406	-16.464	91.630	-0.79294	0.47897	-0.37372	0.04532	30.5	13111	100
2025-3-27 20:31:45.687	WT901BLE68-01(48591DE3C19B)	-0.465	-0.524	0.133	-33.386	-43.335	-36.682	-73.72	27.35	-34.83	-63.406	-16.464	91.630	-0.79294	0.47897	-0.37372	0.04532	30.5	13111	100
2025-3-27 20:31:45.716	WT901BLE68-01(48591DE3C19B)	-0.351	-0.524	0.133	-33.386	-43.335	-36.682	-73.88	26.92	-34.37	-63.406	-16.464	91.630	-0.79294	0.47897	-0.37372	0.04532	30.5	13111	100
2025-3-27 20:31:45.716	WT901BLE68-01(48591DE3C19B)	-0.351	-0.522	0.124	-37.598	-68.726	-20.142	-73.99	26.54	-33.74	-63.406	-16.464	91.630	-0.79294	0.47897	-0.37372	0.04532	30.5	13111	100
2025-3-27 20:31:45.716	WT901BLE68-01(48591DE3C19B)	-0.334	-0.522	0.124	-37.598	-68.726	-20.142	-74.05	26.21	-32.97	-63.406	-16.464	91.630	-0.79294	0.47897	-0.37372	0.04532	30.5	13111	100
2025-3-27 20:31:45.716	WT901BLE68-01(48591DE3C19B)	-0.334	-0.463	0.232	-26.733	-52.429	-5.249	-74.09	25.97	-32.26	-63.406	-16.464	91.630	-0.79294	0.47897	-0.37372	0.04532	30.5	13111	100
2025-3-27 20:31:45.749	WT901BLE68-01(48591DE3C19B)	-0.321	-0.463	0.232	-26.733	-52.429	-5.249	-74.11	25.82	-31.62	-63.406	-16.464	91.630	-0.79294	0.47897	-0.37372	0.04532	30.5	13111	100
2025-3-27 20:31:45.749	WT901BLE68-01(48591DE3C19B)	-0.321	-0.317	0.277	-17.029	-18.982	8.667	-74.14	25.80	-31.13	-63.406	-16.464	91.630	-0.79294	0.47897	-0.37372	0.04532	30.5	13111	100
2025-3-27 20:31:45.749	WT901BLE68-01(48591DE3C19B)	-0.316	-0.317	0.277	-17.029	-18.982	8.667	-74.19	25.88	-30.80	-63.406	-16.464	91.630	-0.79294	0.47897	-0.37372	0.04532	30.5	13111	100
2025-3-27 20:31:45.749	WT901BLE68-01(48591DE3C19B)	-0.316	-0.206	0.265	-12.085	7.690	30.029	-74.25	26.11	-30.58	-63.406	-16.464	91.630	-0.79294	0.47897	-0.37372	0.04532	30.5	13111	100
2025-3-27 20:31:45.838	WT901BLE68-01(48591DE3C19B)	-0.385	-0.206	0.265	-12.085	7.690	30.029	-74.33	26.48	-30.46	-63.406	-16.464	91.630	-0.79294	0.47897	-0.37372	0.04532	30.5	13111	100
2025-3-27 20:31:45.838	WT901BLE68-01(48591DE3C19B)	-0.385	-0.312	0.244	-18.860	6.104	43.274	-74.42	26.92	-30.31	-56.840	-20.482	93.590	-0.79294	0.47897	-0.37372	0.04532	30.5	13111	100
2025-3-27 20:31:45.838	WT901BLE68-01(48591DE3C19B)	-0.415	-0.312	0.244	-18.860	6.104	43.274	-74.53	27.41	-30.12	-56.840	-20.482	93.590	-0.79294	0.47897	-0.37372	0.04532	30.5	13111	100
2025-3-27 20:31:45.838	WT901BLE68-01(48591DE3C19B)	-0.415	-0.584	0.232	-30.212	-20.508	41.931	-74.63	27.87	-29.79	-56.840	-20.482	93.590	-0.79294	0.47897	-0.37372	0.04532	30.5	13111	100
2025-3-27 20:31:45.839	WT901BLE68-01(48591DE3C19B)	-0.402	-0.584	0.232	-30.212	-20.508	41.931	-74.72	28.28	-29.31	-56.840	-20.482	93.590	-0.79294	0.47897	-0.37372	0.04532	30.5	13111	100
2025-3-27 20:31:45.839	WT901BLE68-01(48591DE3C19B)	-0.402	-0.923	0.229	-41.443	-46.326	32.227	-74.80	28.60	-28.72	-56.840	-20.482	93.590	-0.79294	0.47897	-0.37372	0.04532	30.5	13111	100
2025-3-27 20:31:45.839	WT901BLE68-01(48591DE3C19B)	-0.435	-0.923	0.229	-41.443	-46.326	32.227	-74.88	28.83	-28.01	-56.840	-20.482	93.590	-0.79294	0.47897	-0.37372	0.04532	30.5	13111	100
2025-3-27 20:31:45.839	WT901BLE68-01(48591DE3C19B)	-0.435	-1.469	0.221	-50.781	-67.383	13.245	-74.97	28.93	-27.22	-56.840	-20.482	93.590	-0.79294	0.47897	-0.37372	0.04532	30.5	13111	100
2025-3-27 20:31:45.869	WT901BLE68-01(48591DE3C19B)	-0.440	-1.469	0.221	-50.781	-67.383	13.245	-75.07	28.89	-26.37	-56.840	-20.482	93.590	-0.79294	0.47897	-0.37372	0.04532	30.5	13111	100
2025-3-27 20:31:45.869	WT901BLE68-01(48591DE3C19B)	-0.440	-2.042	0.174	-36.560	-64.941	-5.432	-75.14	28.75	-25.57	-56.840	-20.482	93.590	-0.79294	0.47897	-0.37372	0.04532	30.5	13111	100
2025-3-27 20:31:45.869	WT901BLE68-01(48591DE3C19B)	-0.494	-2.042	0.174	-36.560	-64.941	-5.432	-75.17	28.51	-24.83	-56.840	-20.482	93.590	-0.79294	0.47897	-0.37372	0.04532	30.5	13111	100
2025-3-27 20:31:45.869	WT901BLE68-01(48591DE3C19B)	-0.494	-1.958	0.238	15.747	-47.729	-0.488	-74.99	28.30	-24.20	-56.840	-20.482	93.590	-0.79294	0.47897	-0.37372	0.04532	30.5	13111	100
2025-3-27 20:31:45.927	WT901BLE68-01(48591DE3C19B)	-0.445	-1.958	0.238	15.747	-47.729	-0.488	-74.61	28.13	-23.66	-56.840	-20.482	93.590	-0.79294	0.47897	-0.37372	0.04532	30.5	13111	100
2025-3-27 20:31:45.927	WT901BLE68-01(48591DE3C19B)	-0.445	-1.443	0.304	22.278	-22.522	-8.972	-74.27	27.94	-23.29	-56.840	-20.482	93.590	-0.79294	0.47897	-0.37372	0.04532	30.5	13111	100
2025-3-27 20:31:45.927	WT901BLE68-01(48591DE3C19B)	-0.292	-1.443	0.304	22.278	-22.522	-8.972	-73.98	27.74	-23.05	-56.840	-20.482	93.590	-0.79294	0.47897	-0.37372	0.04532	30.5	13111	100
2025-3-27 20:31:45.928	WT901BLE68-01(48591DE3C19B)	-0.292	-1.212	0.304	26.306	22.583	1.587	-73.77	27.65	-23.06	-56.840	-20.482	93.590	-0.79294	0.47897	-0.37372	0.04532	30.5	13111	100
2025-3-27 20:31:45.964	WT901BLE68-01(48591DE3C19B)	-0.261	-1.212	0.304	26.306	22.583	1.587	-73.65	27.68	-23.29	-56.840	-20.482	93.590	-0.79294	0.47897	-0.37372	0.04532	30.5	13111	100
2025-3-27 20:31:45.964	WT901BLE68-01(48591DE3C19B)	-0.261	-0.994	0.317	33.386	63.782	5.554	-73.59	27.78	-23.74	-56.840	-20.482	93.590	-0.79294	0.47897	-0.37372	0.04532	30.5	13111	100
2025-3-27 20:31:45.964	WT901BLE68-01(48591DE3C19B)	-0.267	-0.994	0.317	33.386	63.782	5.554	-73.59	27.95	-24.40	-56.840	-20.482	93.590	-0.79294	0.47897	-0.37372	0.04532	30.5	13111	100
2025-3-27 20:31:45.964	WT901BLE68-01(48591DE3C19B)	-0.267	-0.793	0.284	26.123	66.589	7.813	-73.64	28.14	-25.08	-56.840	-20.482	93.590	-0.79294	0.47897	-0.37372	0.04532	30.5	13111	100
2025-3-27 20:31:45.989	WT901BLE68-01(48591DE3C19B)	-0.281	-0.793	0.284	26.123	66.589	7.813	-73.72	28.33	-25.76	-56.840	-20.482	93.590	-0.79294	0.47897	-0.37372	0.04532	30.5	13111	100
2025-3-27 20:31:45.989	WT901BLE68-01(48591DE3C19B)	-0.281	-0.672	0.254	19.409	52.368	4.578	-73.81	28.49	-26.36	-56.840	-20.482	93.590	-0.79294	0.47897	-0.37372	0.04532	30.5	13111	100
2025-3-27 20:31:45.989	WT901BLE68-01(48591DE3C19B)	-0.352	-0.672	0.254	19.409	52.368	4.578	-73.89	28.62	-26.89	-56.840	-20.482	93.590	-0.78738	0.51981	-0.32916	0.03696	30.5	13111	100
2025-3-27 20:31:45.989	WT901BLE68-01(48591DE3C19B)	-0.352	-0.563	0.248	23.804	36.072	3.601	-73.91	28.72	-27.33	-56.840	-20.482	93.590	-0.78738	0.51981	-0.32916	0.03696	30.5	13111	100
2025-3-27 20:31:46.47	WT901BLE68-01(48591DE3C19B)	-0.406	-0.563	0.248	23.804	36.072	3.601	-73.86	28.80	-27.69	-56.840	-20.482	93.590	-0.78738	0.51981	-0.32916	0.03696	30.5	13111	100
2025-3-27 20:31:46.47	WT901BLE68-01(48591DE3C19B)	-0.406	-0.464	0.215	28.198	26.855	12.634	-73.75	28.91	-27.97	-56.840	-20.482	93.590	-0.78738	0.51981	-0.32916	0.03696	30.5	13111	100
2025-3-27 20:31:46.47	WT901BLE68-01(48591DE3C19B)	-0.419	-0.464	0.215	28.198	26.855	12.634	-73.59	29.05	-28.17	-56.840	-20.482	93.590	-0.78738	0.51981	-0.32916	0.03696	30.5	13111	100
2025-3-27 20:31:46.47	WT901BLE68-01(48591DE3C19B)	-0.419	-0.421	0.172	33.447	27.039	29.785	-73.38	29.30	-28.35	-56.840	-20.482	93.590	-0.78738	0.51981	-0.32916	0.03696	30.5	13111	100
2025-3-27 20:31:46.76	WT901BLE68-01(48591DE3C19B)	-0.418	-0.421	0.172	33.447	27.039	29.785	-73.14	29.62	-28.49	-56.840	-20.482	93.590	-0.78738	0.51981	-0.32916	0.03696	30.5	13111	100
2025-3-27 20:31:46.76	WT901BLE68-01(48591DE3C19B)	-0.418	-0.395	0.161	37.842	23.865	49.255	-72.86	30.04	-28.58	-56.840	-20.482	93.590	-0.78738	0.51981	-0.32916	0.03696	30.5	13111	100
2025-3-27 20:31:46.76	WT901BLE68-01(48591DE3C19B)	-0.467	-0.395	0.161	37.842	23.865	49.255	-72.52	30.56	-28.60	-56.840	-20.482	93.590	-0.78738	0.51981	-0.32916	0.03696	30.5	13111	100
2025-3-27 20:31:46.76	WT901BLE68-01(48591DE3C19B)	-0.467	-0.447	0.194	33.508	10.986	59.753	-72.14	31.14	-28.44	-56.840	-20.482	93.590	-0.78738	0.51981	-0.32916	0.03696	30.5	13111	100
2025-3-27 20:31:46.107	WT901BLE68-01(48591DE3C19B)	-0.558	-0.447	0.194	33.508	10.986	59.753	-71.75	31.73	-28.26	-56.840	-20.482	93.590	-0.78738	0.51981	-0.32916	0.03696	30.5	13111	100
2025-3-27 20:31:46.107	WT901BLE68-01(48591DE3C19B)	-0.558	-0.542	0.214	25.024	-7.141	63.477	-71.33	32.29	-27.86	-56.840	-20.482	93.590	-0.78738	0.51981	-0.32916	0.03696	30.5	13111	100
2025-3-27 20:31:46.107	WT901BLE68-01(48591DE3C19B)	-0.661	-0.542	0.214	25.024	-7.141	63.477	-70.90	32.87	-27.45	-56.840	-20.482	93.590	-0.78738	0.51981	-0.32916	0.03696	30.5	13111	100
2025-3-27 20:31:46.107	WT901BLE68-01(48591DE3C19B)	-0.661	-0.778	0.187	-1.709	-25.391	48.462	-70.66	33.24	-26.88	-56.840	-20.482	93.590	-0.78738	0.51981	-0.32916	0.03696	30.5	13111	100
2025-3-27 20:31:46.167	WT901BLE68-01(48591DE3C19B)	-0.770	-0.778	0.187	-1.709	-25.391	48.462	-70.43	33.61	-26.32	-56.840	-20.482	93.590	-0.78738	0.51981	-0.32916	0.03696	30.5	13111	100
2025-3-27 20:31:46.167	WT901BLE68-01(48591DE3C19B)	-0.770	-1.265	0.217	-18.555	-35.828	7.385	-70.39	33.56	-25.80	-56.840	-20.482	93.590	-0.78738	0.51981	-0.32916	0.03696	30.5	13111	100
2025-3-27 20:31:46.167	WT901BLE68-01(48591DE3C19B)	-0.851	-1.265	0.217	-18.555	-35.828	7.385	-70.36	33.50	-25.29	-56.840	-20.482	93.590	-0.78738	0.51981	-0.32916	0.03696	30.5	13111	100
2025-3-27 20:31:46.167	WT901BLE68-01(48591DE3C19B)	-0.851	-1.552	0.414	-13.000	-40.771	-34.058	-70.33	33.04	-24.90	-56.840	-20.482	93.590	-0.78738	0.51981	-0.32916	0.03696	30.5	13111	100
2025-3-27 20:31:46.199	WT901BLE68-01(48591DE3C19B)	-1.031	-1.552	0.414	-13.000	-40.771	-34.058	-70.32	32.57	-24.51	-53.018	-23.226	94.374	-0.78738	0.51981	-0.32916	0.03696	30.5	13111	100
2025-3-27 20:31:46.199	WT901BLE68-01(48591DE3C19B)	-1.031	-1.420	0.665	-6.348	-47.058	-44.983	-70.22	31.98	-24.09	-53.018	-23.226	94.374	-0.78738	0.51981	-0.32916	0.03696	30.5	13111	100
2025-3-27 20:31:46.199	WT901BLE68-01(48591DE3C19B)	-1.037	-1.420	0.665	-6.348	-47.058	-44.983	-70.11	31.40	-23.68	-53.018	-23.226	94.374	-0.78738	0.51981	-0.32916	0.03696	30.5	13111	100
2025-3-27 20:31:46.199	WT901BLE68-01(48591DE3C19B)	-1.037	-0.991	0.755	1.038	-5.798	-46.814	-70.17	30.95	-23.72	-53.018	-23.226	94.374	-0.78738	0.51981	-0.32916	0.03696	30.5	13111	100
2025-3-27 20:31:46.229	WT901BLE68-01(48591DE3C19B)	-0.871	-0.991	0.755	1.038	-5.798	-46.814	-70.22	30.51	-23.76	-53.018	-23.226	94.374	-0.78738	0.51981	-0.32916	0.03696	30.5	13111	100
2025-3-27 20:31:46.229	WT901BLE68-01(48591DE3C19B)	-0.871	-0.696	0.698	-6.042	34.180	-19.165	-70.49	30.47	-24.10	-53.018	-23.226	94.374	-0.78738	0.51981	-0.32916	0.03696	30.5	13111	100
2025-3-27 20:31:46.229	WT901BLE68-01(48591DE3C19B)	-0.635	-0.696	0.698	-6.042	34.180	-19.165	-70.75	30.44	-24.44	-53.018	-23.226	94.374	-0.78738	0.51981	-0.32916	0.03696	30.5	13111	100
2025-3-27 20:31:46.229	WT901BLE68-01(48591DE3C19B)	-0.635	-0.597	0.455	-22.034	20.447	-15.320	-71.07	30.40	-24.60	-53.018	-23.226	94.374	-0.78738	0.51981	-0.32916	0.03696	30.5	13111	100
2025-3-27 20:31:46.287	WT901BLE68-01(48591DE3C19B)	-0.515	-0.597	0.455	-22.034	20.447	-15.320	-71.39	30.37	-24.76	-53.018	-23.226	94.374	-0.78738	0.51981	-0.32916	0.03696	30.5	13111	100
2025-3-27 20:31:46.288	WT901BLE68-01(48591DE3C19B)	-0.515	-0.493	0.281	-31.372	-33.875	1.343	-71.48	30.32	-24.26	-53.018	-23.226	94.374	-0.78738	0.51981	-0.32916	0.03696	30.5	13111	100
2025-3-27 20:31:46.288	WT901BLE68-01(48591DE3C19B)	-0.469	-0.493	0.281	-31.372	-33.875	1.343	-71.55	30.27	-23.76	-53.018	-23.226	94.374	-0.78738	0.51981	-0.32916	0.03696	30.5	13111	100
2025-3-27 20:31:46.288	WT901BLE68-01(48591DE3C19B)	-0.234	-0.479	0.201	-46.326	-91.614	14.648	-71.44	30.17	-22.58	-53.018	-23.226	94.374	-0.78738	0.51981	-0.32916	0.03696	30.5	13111	100
2025-3-27 20:31:46.316	WT901BLE68-01(48591DE3C19B)	-0.297	-0.240	0.101	-46.326	-91.614	14.648	-71.34	30.07	-21.40	-53.018	-23.226	94.374	-0.78738	0.51981	-0.32916	0.03696	30.5	13111	100
2025-3-27 20:31:46.316	WT901BLE68-01(48591DE3C19B)	-0.297	-0.512	0.150	-47.546	-99.854	26.001	-71.18	30.05	-20.10	-53.018	-23.226	94.374	-0.78738	0.51981	-0.32916	0.03696	30.5	13111	100
2025-3-27 20:31:46.316	WT901BLE68-01(48591DE3C19B)	-0.176	-0.512	0.150	-47.546	-99.854	26.001	-71.03	30.01	-18.81	-53.018	-23.226	94.374	-0.78738	0.51981	-0.32916	0.03696	30.5	13111	100
2025-3-27 20:31:46.316	WT901BLE68-01(48591DE3C19B)	-0.176	-0.401	0.143	-32.898	-59.631	28.992	-70.94	30.14	-17.95	-53.018	-23.226	94.374	-0.78738	0.51981	-0.32916	0.03696	30.5	13111	100
2025-3-27 20:31:46.348	WT901BLE68-01(48591DE3C19B)	-0.122	-0.401	0.143	-32.898	-59.631	28.992	-70.86	30.25	-17.10	-53.018	-23.226	94.374	-0.78738	0.51981	-0.32916	0.03696	30.5	13111	100
2025-3-27 20:31:46.349	WT901BLE68-01(48591DE3C19B)	-0.122	-0.249	0.204	-22.461	-5.310	30.029	-70.97	30.55	-16.84	-53.018	-23.226	94.374	-0.78738	0.51981	-0.32916	0.03696	30.5	13111	100
2025-3-27 20:31:46.349	WT901BLE68-01(48591DE3C19B)	-0.141	-0.249	0.204	-22.461	-5.310	30.029	-71.07	30.84	-16.58	-53.018	-23.226	94.374	-0.78738	0.51981	-0.32916	0.03696	30.5	13111	100
2025-3-27 20:31:46.349	WT901BLE68-01(48591DE3C19B)	-0.141	-0.183	0.242	-19.226	33.325	36.438	-71.33	31.32	-16.73	-53.018	-23.226	94.374	-0.78738	0.51981	-0.32916	0.03696	30.5	13111	100
2025-3-27 20:31:46.407	WT901BLE68-01(48591DE3C19B)	-0.297	-0.183	0.242	-19.226	33.325	36.438	-71.58	31.79	-16.86	-53.018	-23.226	94.374	-0.78738	0.51981	-0.32916	0.03696	30.5	13111	100
2025-3-27 20:31:46.407	WT901BLE68-01(48591DE3C19B)	-0.297	-0.259	0.212	-20.752	45.349	41.138	-71.92	32.34	-17.12	-53.018	-23.226	94.374	-0.79306	0.52411	-0.30685	-0.04596	30.5	13111	100
2025-3-27 20:31:46.407	WT901BLE68-01(48591DE3C19B)	-0.444	-0.259	0.212	-20.752	45.349	41.138	-72.25	32.89	-17.37	-53.018	-23.226	94.374	-0.79306	0.52411	-0.30685	-0.04596	30.5	13111	100
2025-3-27 20:31:46.408	WT901BLE68-01(48591DE3C19B)	-0.444	-0.490	0.146	-30.334	29.968	42.603	-72.59	33.41	-17.45	-53.018	-23.226	94.374	-0.79306	0.52411	-0.30685	-0.04596	30.5	13111	100
2025-3-27 20:31:46.467	WT901BLE68-01(48591DE3C19B)	-0.513	-0.490	0.146	-30.334	29.968	42.603	-72.94	33.93	-17.53	-53.018	-23.226	94.374	-0.79306	0.52411	-0.30685	-0.04596	30.5	13111	100
2025-3-27 20:31:46.467	WT901BLE68-01(48591DE3C19B)	-0.513	-0.810	0.036	-42.786	2.502	35.217	-73.27	34.29	-17.33	-53.018	-23.226	94.374	-0.79306	0.52411	-0.30685	-0.04596	30.5	13111	100
2025-3-27 20:31:46.467	WT901BLE68-01(48591DE3C19B)	-0.498	-0.810	0.036	-42.786	2.502	35.217	-73.61	34.64	-17.14	-53.018	-23.226	94.374	-0.79306	0.52411	-0.30685	-0.04596	30.5	13111	100
2025-3-27 20:31:46.467	WT901BLE68-01(48591DE3C19B)	-0.498	-1.265	-0.075	-55.298	-26.794	18.860	-73.94	34.74	-16.69	-53.018	-23.226	94.374	-0.79306	0.52411	-0.30685	-0.04596	30.5	13111	100
2025-3-27 20:31:46.469	WT901BLE68-01(48591DE3C19B)	-0.528	-1.265	-0.075	-55.298	-26.794	18.860	-74.29	34.84	-16.27	-53.018	-23.226	94.374	-0.79306	0.52411	-0.30685	-0.04596	30.5	13111	100
2025-3-27 20:31:46.469	WT901BLE68-01(48591DE3C19B)	-0.528	-1.954	-0.113	-39.490	-42.297	-8.240	-74.45	34.61	-15.77	-53.018	-23.226	94.374	-0.79306	0.52411	-0.30685	-0.04596	30.5	13111	100
2025-3-27 20:31:46.469	WT901BLE68-01(48591DE3C19B)	-0.606	-1.954	-0.113	-39.490	-42.297	-8.240	-74.63	34.37	-15.30	-53.018	-23.226	94.374	-0.79306	0.52411	-0.30685	-0.04596	30.5	13111	100
2025-3-27 20:31:46.469	WT901BLE68-01(48591DE3C19B)	-0.606	-2.211	-0.027	2.563	-60.486	-15.625	-74.31	34.00	-14.66	-53.018	-23.226	94.374	-0.79306	0.52411	-0.30685	-0.04596	30.5	13111	100
2025-3-27 20:31:46.564	WT901BLE68-01(48591DE3C19B)	-0.595	-2.211	-0.027	2.563	-60.486	-15.625	-73.99	33.62	-14.04	-53.018	-23.226	94.374	-0.79306	0.52411	-0.30685	-0.04596	30.5	13111	100
2025-3-27 20:31:46.564	WT901BLE68-01(48591DE3C19B)	-0.595	-1.691	0.122	23.560	-57.556	-28.870	-73.53	33.11	-13.50	-53.018	-23.226	94.374	-0.79306	0.52411	-0.30685	-0.04596	30.5	13111	100
2025-3-27 20:31:46.564	WT901BLE68-01(48591DE3C19B)	-0.400	-1.691	0.122	23.560	-57.556	-28.870	-73.08	32.61	-12.98	-53.018	-23.226	94.374	-0.79306	0.52411	-0.30685	-0.04596	30.5	13111	100
2025-3-27 20:31:46.564	WT901BLE68-01(48591DE3C19B)	-0.400	-1.439	0.164	19.714	-23.254	-29.602	-72.88	32.20	-12.85	-53.018	-23.226	94.374	-0.79306	0.52411	-0.30685	-0.04596	30.5	13111	100
2025-3-27 20:31:46.565	WT901BLE68-01(48591DE3C19B)	-0.293	-1.439	0.164	19.714	-23.254	-29.602	-72.68	31.78	-12.73	-53.018	-23.226	94.374	-0.79306	0.52411	-0.30685	-0.04596	30.5	13111	100
2025-3-27 20:31:46.565	WT901BLE68-01(48591DE3C19B)	-0.298	-1.241	0.205	31.067	31.250	-27.527	-72.69	31.54	-13.22	-53.018	-23.226	94.374	-0.79306	0.52411	-0.30685	-0.04596	30.5	13111	100
2025-3-27 20:31:46.565	WT901BLE68-01(48591DE3C19B)	-0.298	-0.882	0.196	36.133	58.594	-23.865	-72.74	31.36	-13.85	-53.018	-23.226	94.374	-0.79306	0.52411	-0.30685	-0.04596	30.5	13111	100
2025-3-27 20:31:46.565	WT901BLE68-01(48591DE3C19B)	-0.284	-0.882	0.196	36.133	58.594	-23.865	-72.83	31.23	-14.62	-53.018	-23.226	94.374	-0.79306	0.52411	-0.30685	-0.04596	30.5	13111	100
2025-3-27 20:31:46.620	WT901BLE68-01(48591DE3C19B)	-0.284	-0.581	0.201	21.301	55.786	-23.804	-72.99	31.11	-15.36	-53.018	-23.226	94.374	-0.79306	0.52411	-0.30685	-0.04596	30.5	13111	100
2025-3-27 20:31:46.620	WT901BLE68-01(48591DE3C19B)	-0.274	-0.581	0.201	21.301	55.786	-23.804	-73.21	30.98	-16.09	-53.018	-23.226	94.374	-0.79306	0.52411	-0.30685	-0.04596	30.5	13111	100
2025-3-27 20:31:46.620	WT901BLE68-01(48591DE3C19B)	-0.274	-0.428	0.210	12.573	45.715	-24.597	-73.43	30.82	-16.75	-46.648	-33.712	92.708	-0.79306	0.52411	-0.30685	-0.04596	30.5	13111	100
2025-3-27 20:31:46.620	WT901BLE68-01(48591DE3C19B)	-0.290	-0.428	0.210	12.573	45.715	-24.597	-73.65	30.66	-17.35	-46.648	-33.712	92.708	-0.79306	0.52411	-0.30685	-0.04596	30.5	13111	100
2025-3-27 20:31:46.646	WT901BLE68-01(48591DE3C19B)	-0.290	-0.313	0.195	10.437	39.063	-18.127	-73.86	30.51	-17.89	-46.648	-33.712	92.708	-0.79306	0.52411	-0.30685	-0.04596	30.5	13111	100
2025-3-27 20:31:46.646	WT901BLE68-01(48591DE3C19B)	-0.291	-0.313	0.195	10.437	39.063	-18.127	-74.04	30.40	-18.37	-46.648	-33.712	92.708	-0.79306	0.52411	-0.30685	-0.04596	30.5	13111	100
2025-3-27 20:31:46.646	WT901BLE68-01(48591DE3C19B)	-0.291	-0.236	0.186	11.414	34.607	-4.211	-74.18	30.34	-18.81	-46.648	-33.712	92.708	-0.79306	0.52411	-0.30685	-0.04596	30.5	13111	100
2025-3-27 20:31:46.646	WT901BLE68-01(48591DE3C19B)	-0.313	-0.236	0.186	11.414	34.607	-4.211	-74.29	30.36	-19.19	-46.648	-33.712	92.708	-0.79306	0.52411	-0.30685	-0.04596	30.5	13111	100
2025-3-27 20:31:46.677	WT901BLE68-01(48591DE3C19B)	-0.313	-0.186	0.196	14.526	24.597	16.724	-74.33	30.47	-19.47	-46.648	-33.712	92.708	-0.79306	0.52411	-0.30685	-0.04596	30.5	13111	100
2025-3-27 20:31:46.677	WT901BLE68-01(48591DE3C19B)	-0.369	-0.186	0.196	14.526	24.597	16.724	-74.31	30.67	-19.65	-46.648	-33.712	92.708	-0.79306	0.52411	-0.30685	-0.04596	30.5	13111	100
2025-3-27 20:31:46.677	WT901BLE68-01(48591DE3C19B)	-0.369	-0.213	0.186	10.986	9.277	30.396	-74.23	30.93	-19.71	-46.648	-33.712	92.708	-0.79306	0.52411	-0.30685	-0.04596	30.5	13111	100
2025-3-27 20:31:46.677	WT901BLE68-01(48591DE3C19B)	-0.479	-0.213	0.186	10.986	9.277	30.396	-74.12	31.23	-19.67	-46.648	-33.712	92.708	-0.79306	0.52411	-0.30685	-0.04596	30.5	13111	100
2025-3-27 20:31:46.737	WT901BLE68-01(48591DE3C19B)	-0.479	-0.373	0.176	5.249	-6.897	32.410	-73.99	31.54	-19.51	-46.648	-33.712	92.708	-0.79306	0.52411	-0.30685	-0.04596	30.5	13111	100
2025-3-27 20:31:46.737	WT901BLE68-01(48591DE3C19B)	-0.681	-0.373	0.176	5.249	-6.897	32.410	-73.83	31.84	-19.25	-46.648	-33.712	92.708	-0.79306	0.52411	-0.30685	-0.04596	30.5	13111	100
2025-3-27 20:31:46.737	WT901BLE68-01(48591DE3C19B)	-0.681	-0.638	0.179	-2.808	-28.198	25.024	-73.65	32.08	-18.87	-46.648	-33.712	92.708	-0.79306	0.52411	-0.30685	-0.04596	30.5	13111	100
2025-3-27 20:31:46.737	WT901BLE68-01(48591DE3C19B)	-0.837	-0.638	0.179	-2.808	-28.198	25.024	-73.45	32.26	-18.38	-46.648	-33.712	92.708	-0.79306	0.52411	-0.30685	-0.04596	30.5	13111	100
2025-3-27 20:31:46.770	WT901BLE68-01(48591DE3C19B)	-0.837	-1.037	0.210	-14.526	-60.669	4.333	-73.24	32.31	-17.74	-46.648	-33.712	92.708	-0.79306	0.52411	-0.30685	-0.04596	30.5	13111	100
2025-3-27 20:31:46.770	WT901BLE68-01(48591DE3C19B)	-0.865	-1.037	0.210	-14.526	-60.669	4.333	-73.02	32.20	-16.95	-46.648	-33.712	92.708	-0.79306	0.52411	-0.30685	-0.04596	30.5	13111	100
2025-3-27 20:31:46.770	WT901BLE68-01(48591DE3C19B)	-0.865	-1.396	0.323	-12.878	-92.468	-31.982	-72.73	31.87	-16.06	-46.648	-33.712	92.708	-0.79306	0.52411	-0.30685	-0.04596	30.5	13111	100
2025-3-27 20:31:46.770	WT901BLE68-01(48591DE3C19B)	-0.862	-1.396	0.323	-12.878	-92.468	-31.982	-72.39	31.32	-15.07	-46.648	-33.712	92.708	-0.79306	0.52411	-0.30685	-0.04596	30.5	13111	100
2025-3-27 20:31:46.799	WT901BLE68-01(48591DE3C19B)	-0.862	-1.720	0.542	-15.564	-98.083	-53.772	-72.09	30.64	-14.11	-46.648	-33.712	92.708	-0.79306	0.52411	-0.30685	-0.04596	30.5	13111	100
2025-3-27 20:31:46.799	WT901BLE68-01(48591DE3C19B)	-1.026	-1.720	0.542	-15.564	-98.083	-53.772	-71.81	29.84	-13.17	-46.648	-33.712	92.708	-0.79306	0.52411	-0.30685	-0.04596	30.5	13111	100
2025-3-27 20:31:46.799	WT901BLE68-01(48591DE3C19B)	-1.026	-1.786	0.693	2.136	-35.767	-69.153	-71.65	29.07	-12.63	-46.648	-33.712	92.708	-0.79681	0.54141	-0.26166	-0.05826	30.5	13111	100
2025-3-27 20:31:46.799	WT901BLE68-01(48591DE3C19B)	-0.894	-1.786	0.693	2.136	-35.767	-69.153	-71.56	28.32	-12.45	-46.648	-33.712	92.708	-0.79681	0.54141	-0.26166	-0.05826	30.5	13111	100
2025-3-27 20:31:46.857	WT901BLE68-01(48591DE3C19B)	-0.894	-1.338	0.724	22.827	33.875	-53.528	-71.54	27.75	-12.62	-46.648	-33.712	92.708	-0.79681	0.54141	-0.26166	-0.05826	30.5	13111	100
2025-3-27 20:31:46.857	WT901BLE68-01(48591DE3C19B)	-0.694	-1.338	0.724	22.827	33.875	-53.528	-71.57	27.37	-13.13	-46.648	-33.712	92.708	-0.79681	0.54141	-0.26166	-0.05826	30.5	13111	100
2025-3-27 20:31:46.857	WT901BLE68-01(48591DE3C19B)	-0.694	-0.933	0.680	23.193	68.665	-37.048	-71.65	27.13	-13.79	-46.648	-33.712	92.708	-0.79681	0.54141	-0.26166	-0.05826	30.5	13111	100
2025-3-27 20:31:46.857	WT901BLE68-01(48591DE3C19B)	-0.583	-0.933	0.680	23.193	68.665	-37.048	-71.80	27.02	-14.60	-46.648	-33.712	92.708	-0.79681	0.54141	-0.26166	-0.05826	30.5	13111	100
2025-3-27 20:31:46.886	WT901BLE68-01(48591DE3C19B)	-0.583	-0.597	0.493	13.367	61.829	-7.874	-71.94	27.04	-15.30	-46.648	-33.712	92.708	-0.79681	0.54141	-0.26166	-0.05826	30.5	13111	100
2025-3-27 20:31:46.886	WT901BLE68-01(48591DE3C19B)	-0.582	-0.597	0.493	13.367	61.829	-7.874	-72.08	27.19	-15.92	-46.648	-33.712	92.708	-0.79681	0.54141	-0.26166	-0.05826	30.5	13111	100
2025-3-27 20:31:46.887	WT901BLE68-01(48591DE3C19B)	-0.582	-0.480	0.352	-11.353	24.170	10.254	-72.24	27.36	-16.30	-46.648	-33.712	92.708	-0.79681	0.54141	-0.26166	-0.05826	30.5	13111	100
2025-3-27 20:31:46.887	WT901BLE68-01(48591DE3C19B)	-0.550	-0.480	0.352	-11.353	24.170	10.254	-72.42	27.57	-16.44	-46.648	-33.712	92.708	-0.79681	0.54141	-0.26166	-0.05826	30.5	13111	100
2025-3-27 20:31:46.918	WT901BLE68-01(48591DE3C19B)	-0.550	-0.521	0.268	-29.846	-8.972	26.611	-72.59	27.81	-16.36	-46.648	-33.712	92.708	-0.79681	0.54141	-0.26166	-0.05826	30.5	13111	100
2025-3-27 20:31:46.919	WT901BLE68-01(48591DE3C19B)	-0.501	-0.521	0.268	-29.846	-8.972	26.611	-72.75	28.09	-16.08	-46.648	-33.712	92.708	-0.79681	0.54141	-0.26166	-0.05826	30.5	13111	100
2025-3-27 20:31:46.919	WT901BLE68-01(48591DE3C19B)	-0.501	-0.583	0.264	-27.527	-24.719	38.086	-72.86	28.39	-15.70	-46.648	-33.712	92.708	-0.79681	0.54141	-0.26166	-0.05826	30.5	13111	100
2025-3-27 20:31:46.919	WT901BLE68-01(48591DE3C19B)	-0.454	-0.583	0.264	-27.527	-24.719	38.086	-72.90	28.73	-15.21	-46.648	-33.712	92.708	-0.79681	0.54141	-0.26166	-0.05826	30.5	13111	100
2025-3-27 20:31:46.977	WT901BLE68-01(48591DE3C19B)	-0.454	-0.541	0.313	-17.456	-23.315	39.185	-72.89	29.07	-14.72	-46.648	-33.712	92.708	-0.79681	0.54141	-0.26166	-0.05826	30.5	13111	100
2025-3-27 20:31:46.977	WT901BLE68-01(48591DE3C19B)	-0.322	-0.541	0.313	-17.456	-23.315	39.185	-72.83	29.42	-14.24	-46.648	-33.712	92.708	-0.79681	0.54141	-0.26166	-0.05826	30.5	13111	100
2025-3-27 20:31:46.977	WT901BLE68-01(48591DE3C19B)	-0.322	-0.372	0.293	-9.888	-14.282	38.269	-72.75	29.77	-13.81	-46.648	-33.712	92.708	-0.79681	0.54141	-0.26166	-0.05826	30.5	13111	100
2025-3-27 20:31:46.977	WT901BLE68-01(48591DE3C19B)	-0.207	-0.372	0.293	-9.888	-14.282	38.269	-72.65	30.14	-13.43	-46.648	-33.712	92.708	-0.79681	0.54141	-0.26166	-0.05826	30.5	13111	100
2025-3-27 20:31:47.36	WT901BLE68-01(48591DE3C19B)	-0.207	-0.185	0.235	-0.305	8.057	46.997	-72.55	30.57	-13.15	-46.942	-34.104	91.140	-0.79681	0.54141	-0.26166	-0.05826	30.5	13111	100
2025-3-27 20:31:47.36	WT901BLE68-01(48591DE3C19B)	-0.217	-0.185	0.235	-0.305	8.057	46.997	-72.45	31.08	-12.98	-46.942	-34.104	91.140	-0.79681	0.54141	-0.26166	-0.05826	30.5	13111	100
2025-3-27 20:31:47.36	WT901BLE68-01(48591DE3C19B)	-0.217	-0.092	0.188	2.563	24.597	57.251	-72.37	31.66	-12.88	-46.942	-34.104	91.140	-0.79681	0.54141	-0.26166	-0.05826	30.5	13111	100
2025-3-27 20:31:47.37	WT901BLE68-01(48591DE3C19B)	-0.303	-0.092	0.188	2.563	24.597	57.251	-72.31	32.32	-12.84	-46.942	-34.104	91.140	-0.79681	0.54141	-0.26166	-0.05826	30.5	13111	100
2025-3-27 20:31:47.38	WT901BLE68-01(48591DE3C19B)	-0.303	-0.190	0.151	-11.414	15.747	59.814	-72.33	32.97	-12.68	-46.942	-34.104	91.140	-0.79681	0.54141	-0.26166	-0.05826	30.5	13111	100
2025-3-27 20:31:47.38	WT901BLE68-01(48591DE3C19B)	-0.373	-0.190	0.151	-11.414	15.747	59.814	-72.35	33.62	-12.52	-46.942	-34.104	91.140	-0.79681	0.54141	-0.26166	-0.05826	30.5	13111	100
2025-3-27 20:31:47.38	WT901BLE68-01(48591DE3C19B)	-0.373	-0.435	0.110	-30.701	-13.184	54.321	-72.39	34.14	-12.05	-46.942	-34.104	91.140	-0.79681	0.54141	-0.26166	-0.05826	30.5	13111	100
2025-3-27 20:31:47.38	WT901BLE68-01(48591DE3C19B)	-0.423	-0.435	0.110	-30.701	-13.184	54.321	-72.43	34.65	-11.58	-46.942	-34.104	91.140	-0.79681	0.54141	-0.26166	-0.05826	30.5	13111	100
2025-3-27 20:31:47.97	WT901BLE68-01(48591DE3C19B)	-0.423	-0.784	0.107	-48.767	-53.528	41.443	-72.43	34.90	-10.71	-46.942	-34.104	91.140	-0.79681	0.54141	-0.26166	-0.05826	30.5	13111	100
2025-3-27 20:31:47.98	WT901BLE68-01(48591DE3C19B)	-0.512	-0.784	0.107	-48.767	-53.528	41.443	-72.43	35.15	-9.85	-46.942	-34.104	91.140	-0.79681	0.54141	-0.26166	-0.05826	30.5	13111	100
2025-3-27 20:31:47.98	WT901BLE68-01(48591DE3C19B)	-0.512	-1.466	0.103	-67.993	-90.576	13.306	-72.46	35.00	-8.71	-46.942	-34.104	91.140	-0.79681	0.54141	-0.26166	-0.05826	30.5	13111	100
2025-3-27 20:31:47.98	WT901BLE68-01(48591DE3C19B)	-0.642	-1.466	0.103	-67.993	-90.576	13.306	-72.51	34.83	-7.59	-46.942	-34.104	91.140	-0.79681	0.54141	-0.26166	-0.05826	30.5	13111	100
2025-3-27 20:31:47.126	WT901BLE68-01(48591DE3C19B)	-0.642	-2.491	0.146	-50.720	-113.525	-35.034	-72.37	34.12	-6.43	-46.942	-34.104	91.140	-0.79681	0.54141	-0.26166	-0.05826	30.5	13111	100
2025-3-27 20:31:47.126	WT901BLE68-01(48591DE3C19B)	-0.725	-2.491	0.146	-50.720	-113.525	-35.034	-72.27	33.39	-5.31	-46.942	-34.104	91.140	-0.79681	0.54141	-0.26166	-0.05826	30.5	13111	100
2025-3-27 20:31:47.126	WT901BLE68-01(48591DE3C19B)	-0.725	-2.675	0.206	20.874	-110.779	-41.992	-71.53	32.59	-4.27	-46.942	-34.104	91.140	-0.79681	0.54141	-0.26166	-0.05826	30.5	13111	100
2025-3-27 20:31:47.126	WT901BLE68-01(48591DE3C19B)	-0.661	-2.675	0.206	20.874	-110.779	-41.992	-70.82	31.78	-3.27	-46.942	-34.104	91.140	-0.79681	0.54141	-0.26166	-0.05826	30.5	13111	100
2025-3-27 20:31:47.162	WT901BLE68-01(48591DE3C19B)	-0.661	-1.765	0.229	34.668	-68.359	-49.500	-70.26	31.03	-2.80	-46.942	-34.104	91.140	-0.79681	0.54141	-0.26166	-0.05826	30.5	13111	100
2025-3-27 20:31:47.162	WT901BLE68-01(48591DE3C19B)	-0.387	-1.765	0.229	34.668	-68.359	-49.500	-69.71	30.28	-2.33	-46.942	-34.104	91.140	-0.79681	0.54141	-0.26166	-0.05826	30.5	13111	100
2025-3-27 20:31:47.162	WT901BLE68-01(48591DE3C19B)	-0.387	-1.519	0.220	43.701	-10.620	-41.199	-69.38	29.81	-2.47	-46.942	-34.104	91.140	-0.79681	0.54141	-0.26166	-0.05826	30.5	13111	100
2025-3-27 20:31:47.162	WT901BLE68-01(48591DE3C19B)	-0.134	-1.519	0.220	43.701	-10.620	-41.199	-69.06	29.33	-2.61	-46.942	-34.104	91.140	-0.79681	0.54141	-0.26166	-0.05826	30.5	13111	100
2025-3-27 20:31:47.217	WT901BLE68-01(48591DE3C19B)	-0.134	-1.099	0.253	65.247	58.350	-27.832	-68.86	29.23	-3.43	-46.942	-34.104	91.140	-0.79681	0.54141	-0.26166	-0.05826	30.5	13111	100
2025-3-27 20:31:47.217	WT901BLE68-01(48591DE3C19B)	-0.143	-1.099	0.253	65.247	58.350	-27.832	-68.65	29.12	-4.26	-46.942	-34.104	91.140	-0.80429	0.53656	-0.23083	-0.10873	30.5	13111	100
2025-3-27 20:31:47.217	WT901BLE68-01(48591DE3C19B)	-0.143	-0.600	0.220	53.528	86.609	-8.240	-68.67	29.30	-5.30	-46.942	-34.104	91.140	-0.80429	0.53656	-0.23083	-0.10873	30.5	13111	100
2025-3-27 20:31:47.217	WT901BLE68-01(48591DE3C19B)	-0.255	-0.600	0.220	53.528	86.609	-8.240	-68.69	29.48	-6.34	-46.942	-34.104	91.140	-0.80429	0.53656	-0.23083	-0.10873	30.5	13111	100
2025-3-27 20:31:47.246	WT901BLE68-01(48591DE3C19B)	-0.255	-0.421	0.179	17.639	49.683	-14.221	-68.88	29.46	-7.00	-46.942	-34.104	91.140	-0.80429	0.53656	-0.23083	-0.10873	30.5	13111	100
2025-3-27 20:31:47.246	WT901BLE68-01(48591DE3C19B)	-0.181	-0.421	0.179	17.639	49.683	-14.221	-69.06	29.44	-7.66	-46.942	-34.104	91.140	-0.80429	0.53656	-0.23083	-0.10873	30.5	13111	100
2025-3-27 20:31:47.246	WT901BLE68-01(48591DE3C19B)	-0.181	-0.452	0.183	3.113	23.621	-11.536	-69.24	29.36	-8.02	-46.942	-34.104	91.140	-0.80429	0.53656	-0.23083	-0.10873	30.5	13111	100
2025-3-27 20:31:47.246	WT901BLE68-01(48591DE3C19B)	-0.219	-0.452	0.183	3.113	23.621	-11.536	-69.42	29.27	-8.38	-46.942	-34.104	91.140	-0.80429	0.53656	-0.23083	-0.10873	30.5	13111	100
2025-3-27 20:31:47.277	WT901BLE68-01(48591DE3C19B)	-0.219	-0.368	0.198	9.766	42.847	-8.057	-69.62	29.28	-8.93	-46.942	-34.104	91.140	-0.80429	0.53656	-0.23083	-0.10873	30.5	13111	100
2025-3-27 20:31:47.277	WT901BLE68-01(48591DE3C19B)	-0.345	-0.368	0.198	9.766	42.847	-8.057	-69.81	29.30	-9.47	-46.942	-34.104	91.140	-0.80429	0.53656	-0.23083	-0.10873	30.5	13111	100
2025-3-27 20:31:47.277	WT901BLE68-01(48591DE3C19B)	-0.345	-0.314	0.185	14.648	65.247	-9.338	-70.07	29.38	-10.25	-46.942	-34.104	91.140	-0.80429	0.53656	-0.23083	-0.10873	30.5	13111	100
2025-3-27 20:31:47.277	WT901BLE68-01(48591DE3C19B)	-0.466	-0.314	0.185	14.648	65.247	-9.338	-70.32	29.48	-11.02	-46.942	-34.104	91.140	-0.80429	0.53656	-0.23083	-0.10873	30.5	13111	100
2025-3-27 20:31:47.337	WT901BLE68-01(48591DE3C19B)	-0.466	-0.335	0.170	16.113	66.650	-3.967	-70.55	29.62	-11.77	-46.942	-34.104	91.140	-0.80429	0.53656	-0.23083	-0.10873	30.5	13111	100
2025-3-27 20:31:47.337	WT901BLE68-01(48591DE3C19B)	-0.528	-0.335	0.170	16.113	66.650	-3.967	-70.77	29.78	-12.51	-46.942	-34.104	91.140	-0.80429	0.53656	-0.23083	-0.10873	30.5	13111	100
2025-3-27 20:31:47.337	WT901BLE68-01(48591DE3C19B)	-0.528	-0.360	0.177	21.545	43.640	1.587	-70.81	29.93	-12.96	-46.942	-34.104	91.140	-0.80429	0.53656	-0.23083	-0.10873	30.5	13111	100
2025-3-27 20:31:47.337	WT901BLE68-01(48591DE3C19B)	-0.546	-0.360	0.177	21.545	43.640	1.587	-70.84	30.09	-13.40	-46.942	-34.104	91.140	-0.80429	0.53656	-0.23083	-0.10873	30.5	13111	100
2025-3-27 20:31:47.369	WT901BLE68-01(48591DE3C19B)	-0.546	-0.346	0.178	24.841	7.324	12.085	-70.62	30.23	-13.39	-46.942	-34.104	91.140	-0.80429	0.53656	-0.23083	-0.10873	30.5	13111	100
2025-3-27 20:31:47.369	WT901BLE68-01(48591DE3C19B)	-0.496	-0.346	0.178	24.841	7.324	12.085	-70.40	30.39	-13.37	-46.942	-34.104	91.140	-0.80429	0.53656	-0.23083	-0.10873	30.5	13111	100
2025-3-27 20:31:47.369	WT901BLE68-01(48591DE3C19B)	-0.496	-0.371	0.141	21.118	-24.231	23.987	-70.02	30.56	-12.95	-46.942	-34.104	91.140	-0.80429	0.53656	-0.23083	-0.10873	30.5	13111	100
2025-3-27 20:31:47.369	WT901BLE68-01(48591DE3C19B)	-0.412	-0.371	0.141	21.118	-24.231	23.987	-69.64	30.75	-12.52	-46.942	-34.104	91.140	-0.80429	0.53656	-0.23083	-0.10873	30.5	13111	100
2025-3-27 20:31:47.457	WT901BLE68-01(48591DE3C19B)	-0.412	-0.477	0.075	13.428	-37.842	26.917	-69.25	30.90	-11.93	-46.942	-34.104	91.140	-0.80429	0.53656	-0.23083	-0.10873	30.5	13111	100
2025-3-27 20:31:47.457	WT901BLE68-01(48591DE3C19B)	-0.357	-0.477	0.075	13.428	-37.842	26.917	-68.87	31.06	-11.34	-46.942	-34.104	91.140	-0.80429	0.53656	-0.23083	-0.10873	30.5	13111	100
2025-3-27 20:31:47.457	WT901BLE68-01(48591DE3C19B)	-0.357	-0.692	0.006	3.723	-28.687	20.691	-68.66	31.18	-10.89	-47.236	-33.418	90.454	-0.80429	0.53656	-0.23083	-0.10873	30.5	13111	100
2025-3-27 20:31:47.457	WT901BLE68-01(48591DE3C19B)	-0.413	-0.692	0.006	3.723	-28.687	20.691	-68.47	31.29	-10.45	-47.236	-33.418	90.454	-0.80429	0.53656	-0.23083	-0.10873	30.5	13111	100
2025-3-27 20:31:47.465	WT901BLE68-01(48591DE3C19B)	-0.413	-1.012	0.044	-5.432	2.930	0.916	-68.59	31.33	-10.46	-47.236	-33.418	90.454	-0.80429	0.53656	-0.23083	-0.10873	30.5	13111	100
2025-3-27 20:31:47.465	WT901BLE68-01(48591DE3C19B)	-0.564	-1.012	0.044	-5.432	2.930	0.916	-68.72	31.35	-10.48	-47.236	-33.418	90.454	-0.80429	0.53656	-0.23083	-0.10873	30.5	13111	100
2025-3-27 20:31:47.465	WT901BLE68-01(48591DE3C19B)	-0.564	-1.364	0.232	-5.615	37.231	-33.875	-69.13	31.17	-11.02	-47.236	-33.418	90.454	-0.80429	0.53656	-0.23083	-0.10873	30.5	13111	100
2025-3-27 20:31:47.465	WT901BLE68-01(48591DE3C19B)	-0.852	-1.364	0.232	-5.615	37.231	-33.875	-69.53	30.98	-11.57	-47.236	-33.418	90.454	-0.80429	0.53656	-0.23083	-0.10873	30.5	13111	100
2025-3-27 20:31:47.489	WT901BLE68-01(48591DE3C19B)	-1.187	-1.608	0.498	-8.484	54.688	-54.199	-70.09	30.65	-12.39	-47.236	-33.418	90.454	-0.80429	0.53656	-0.23083	-0.10873	30.5	13111	100
2025-3-27 20:31:47.489	WT901BLE68-01(48591DE3C19B)	-1.187	-1.580	0.711	-8.179	75.500	-70.374	-70.70	30.27	-13.34	-47.236	-33.418	90.454	-0.80429	0.53656	-0.23083	-0.10873	30.5	13111	100
2025-3-27 20:31:47.489	WT901BLE68-01(48591DE3C19B)	-1.101	-1.580	0.711	-8.179	75.500	-70.374	-71.35	29.85	-14.40	-47.236	-33.418	90.454	-0.80429	0.53656	-0.23083	-0.10873	30.5	13111	100
2025-3-27 20:31:47.490	WT901BLE68-01(48591DE3C19B)	-1.101	-1.306	0.787	0.000	94.727	-65.735	-71.99	29.48	-15.54	-47.236	-33.418	90.454	-0.80429	0.53656	-0.23083	-0.10873	30.5	13111	100
2025-3-27 20:31:47.519	WT901BLE68-01(48591DE3C19B)	-0.926	-1.306	0.787	0.000	94.727	-65.735	-72.60	29.16	-16.76	-47.236	-33.418	90.454	-0.80429	0.53656	-0.23083	-0.10873	30.5	13111	100
2025-3-27 20:31:47.519	WT901BLE68-01(48591DE3C19B)	-0.926	-1.015	0.658	0.183	84.473	-54.810	-73.16	28.87	-17.88	-47.236	-33.418	90.454	-0.80429	0.53656	-0.23083	-0.10873	30.5	13111	100
2025-3-27 20:31:47.519	WT901BLE68-01(48591DE3C19B)	-0.796	-1.015	0.658	0.183	84.473	-54.810	-73.66	28.61	-18.91	-47.236	-33.418	90.454	-0.80429	0.53656	-0.23083	-0.10873	30.5	13111	100
2025-3-27 20:31:47.519	WT901BLE68-01(48591DE3C19B)	-0.796	-0.791	0.471	-4.272	30.212	-29.480	-74.01	28.40	-19.59	-47.236	-33.418	90.454	-0.80429	0.53656	-0.23083	-0.10873	30.5	13111	100
2025-3-27 20:31:47.579	WT901BLE68-01(48591DE3C19B)	-0.681	-0.791	0.471	-4.272	30.212	-29.480	-74.22	28.23	-19.92	-47.236	-33.418	90.454	-0.80429	0.53656	-0.23083	-0.10873	30.5	13111	100
2025-3-27 20:31:47.579	WT901BLE68-01(48591DE3C19B)	-0.681	-0.710	0.346	-17.395	-27.954	-4.150	-74.32	28.13	-19.90	-47.236	-33.418	90.454	-0.80429	0.53656	-0.23083	-0.10873	30.5	13111	100
2025-3-27 20:31:47.579	WT901BLE68-01(48591DE3C19B)	-0.534	-0.710	0.346	-17.395	-27.954	-4.150	-74.32	28.05	-19.52	-47.236	-33.418	90.454	-0.80429	0.53656	-0.23083	-0.10873	30.5	13111	100
2025-3-27 20:31:47.579	WT901BLE68-01(48591DE3C19B)	-0.534	-0.693	0.257	-22.400	-50.903	18.494	-74.27	28.07	-18.97	-47.236	-33.418	90.454	-0.80429	0.53656	-0.23083	-0.10873	30.5	13111	100
2025-3-27 20:31:47.609	WT901BLE68-01(48591DE3C19B)	-0.386	-0.693	0.257	-22.400	-50.903	18.494	-74.17	28.16	-18.28	-47.236	-33.418	90.454	-0.80429	0.53656	-0.23083	-0.10873	30.5	13111	100
2025-3-27 20:31:47.609	WT901BLE68-01(48591DE3C19B)	-0.386	-0.662	0.203	-16.602	-28.442	34.912	-74.08	28.36	-17.68	-47.236	-33.418	90.454	-0.80429	0.53656	-0.23083	-0.10873	30.5	13111	100
2025-3-27 20:31:47.609	WT901BLE68-01(48591DE3C19B)	-0.383	-0.662	0.203	-16.602	-28.442	34.912	-74.01	28.65	-17.18	-47.236	-33.418	90.454	-0.80429	0.53656	-0.23083	-0.10873	30.5	13111	100
2025-3-27 20:31:47.609	WT901BLE68-01(48591DE3C19B)	-0.383	-0.554	0.199	-5.188	4.639	38.818	-73.97	29.01	-16.86	-47.236	-33.418	90.454	-0.78699	0.54678	-0.28336	-0.03568	30.5	13111	100
2025-3-27 20:31:47.638	WT901BLE68-01(48591DE3C19B)	-0.435	-0.554	0.199	-5.188	4.639	38.818	-73.95	29.44	-16.72	-47.236	-33.418	90.454	-0.78699	0.54678	-0.28336	-0.03568	30.5	13111	100
2025-3-27 20:31:47.639	WT901BLE68-01(48591DE3C19B)	-0.435	-0.449	0.221	-4.517	24.109	34.607	-73.99	29.86	-16.69	-47.236	-33.418	90.454	-0.78699	0.54678	-0.28336	-0.03568	30.5	13111	100
2025-3-27 20:31:47.639	WT901BLE68-01(48591DE3C19B)	-0.481	-0.449	0.221	-4.517	24.109	34.607	-74.09	30.29	-16.78	-47.236	-33.418	90.454	-0.78699	0.54678	-0.28336	-0.03568	30.5	13111	100
2025-3-27 20:31:47.639	WT901BLE68-01(48591DE3C19B)	-0.481	-0.409	0.221	-9.460	27.222	26.855	-74.21	30.69	-16.89	-47.236	-33.418	90.454	-0.78699	0.54678	-0.28336	-0.03568	30.5	13111	100
2025-3-27 20:31:47.697	WT901BLE68-01(48591DE3C19B)	-0.529	-0.409	0.221	-9.460	27.222	26.855	-74.38	31.06	-17.03	-47.236	-33.418	90.454	-0.78699	0.54678	-0.28336	-0.03568	30.5	13111	100
2025-3-27 20:31:47.698	WT901BLE68-01(48591DE3C19B)	-0.529	-0.390	0.232	-11.658	17.090	21.545	-74.54	31.39	-17.11	-47.236	-33.418	90.454	-0.78699	0.54678	-0.28336	-0.03568	30.5	13111	100
2025-3-27 20:31:47.698	WT901BLE68-01(48591DE3C19B)	-0.572	-0.390	0.232	-11.658	17.090	21.545	-74.68	31.69	-17.14	-47.236	-33.418	90.454	-0.78699	0.54678	-0.28336	-0.03568	30.5	13111	100
2025-3-27 20:31:47.698	WT901BLE68-01(48591DE3C19B)	-0.572	-0.376	0.256	-16.113	-8.118	18.494	-74.77	31.94	-17.03	-47.236	-33.418	90.454	-0.78699	0.54678	-0.28336	-0.03568	30.5	13111	100
2025-3-27 20:31:47.726	WT901BLE68-01(48591DE3C19B)	-0.579	-0.376	0.256	-16.113	-8.118	18.494	-74.81	32.16	-16.77	-47.236	-33.418	90.454	-0.78699	0.54678	-0.28336	-0.03568	30.5	13111	100
2025-3-27 20:31:47.726	WT901BLE68-01(48591DE3C19B)	-0.579	-0.365	0.254	-23.132	-38.147	15.625	-74.79	32.32	-16.33	-47.236	-33.418	90.454	-0.78699	0.54678	-0.28336	-0.03568	30.5	13111	100
2025-3-27 20:31:47.726	WT901BLE68-01(48591DE3C19B)	-0.561	-0.365	0.254	-23.132	-38.147	15.625	-74.71	32.44	-15.72	-47.236	-33.418	90.454	-0.78699	0.54678	-0.28336	-0.03568	30.5	13111	100
2025-3-27 20:31:47.726	WT901BLE68-01(48591DE3C19B)	-0.561	-0.396	0.250	-30.579	-65.247	15.381	-74.59	32.53	-14.95	-47.236	-33.418	90.454	-0.78699	0.54678	-0.28336	-0.03568	30.5	13111	100
2025-3-27 20:31:47.764	WT901BLE68-01(48591DE3C19B)	-0.559	-0.396	0.250	-30.579	-65.247	15.381	-74.42	32.57	-14.03	-47.236	-33.418	90.454	-0.78699	0.54678	-0.28336	-0.03568	30.5	13111	100
2025-3-27 20:31:47.764	WT901BLE68-01(48591DE3C19B)	-0.559	-0.482	0.234	-38.025	-92.896	18.677	-74.20	32.60	-12.94	-47.236	-33.418	90.454	-0.78699	0.54678	-0.28336	-0.03568	30.5	13111	100
2025-3-27 20:31:47.765	WT901BLE68-01(48591DE3C19B)	-0.478	-0.482	0.234	-38.025	-92.896	18.677	-73.93	32.61	-11.69	-47.236	-33.418	90.454	-0.78699	0.54678	-0.28336	-0.03568	30.5	13111	100
2025-3-27 20:31:47.765	WT901BLE68-01(48591DE3C19B)	-0.478	-0.608	0.216	-43.457	-105.896	25.696	-73.65	32.62	-10.36	-47.236	-33.418	90.454	-0.78699	0.54678	-0.28336	-0.03568	30.5	13111	100
2025-3-27 20:31:47.817	WT901BLE68-01(48591DE3C19B)	-0.399	-0.608	0.216	-43.457	-105.896	25.696	-73.34	32.64	-8.95	-47.236	-33.418	90.454	-0.78699	0.54678	-0.28336	-0.03568	30.5	13111	100
2025-3-27 20:31:47.817	WT901BLE68-01(48591DE3C19B)	-0.399	-0.830	0.189	-47.424	-96.069	29.175	-73.09	32.67	-7.62	-50.078	-37.436	89.964	-0.78699	0.54678	-0.28336	-0.03568	30.5	13111	100
2025-3-27 20:31:47.818	WT901BLE68-01(48591DE3C19B)	-0.441	-0.830	0.189	-47.424	-96.069	29.175	-72.89	32.72	-6.35	-50.078	-37.436	89.964	-0.78699	0.54678	-0.28336	-0.03568	30.5	13111	100
2025-3-27 20:31:47.818	WT901BLE68-01(48591DE3C19B)	-0.441	-1.167	0.173	-49.927	-74.829	21.057	-72.78	32.75	-5.23	-50.078	-37.436	89.964	-0.78699	0.54678	-0.28336	-0.03568	30.5	13111	100
2025-3-27 20:31:47.846	WT901BLE68-01(48591DE3C19B)	-0.503	-1.167	0.173	-49.927	-74.829	21.057	-72.77	32.75	-4.28	-50.078	-37.436	89.964	-0.78699	0.54678	-0.28336	-0.03568	30.5	13111	100
2025-3-27 20:31:47.846	WT901BLE68-01(48591DE3C19B)	-0.503	-1.604	0.160	-54.932	-55.298	7.507	-72.87	32.70	-3.49	-50.078	-37.436	89.964	-0.78699	0.54678	-0.28336	-0.03568	30.5	13111	100
2025-3-27 20:31:47.846	WT901BLE68-01(48591DE3C19B)	-0.651	-1.604	0.160	-54.932	-55.298	7.507	-73.07	32.60	-2.86	-50.078	-37.436	89.964	-0.78699	0.54678	-0.28336	-0.03568	30.5	13111	100
2025-3-27 20:31:47.846	WT901BLE68-01(48591DE3C19B)	-0.651	-2.157	0.215	-41.809	-37.109	1.465	-73.28	32.49	-2.36	-50.078	-37.436	89.964	-0.78699	0.54678	-0.28336	-0.03568	30.5	13111	100
2025-3-27 20:31:47.877	WT901BLE68-01(48591DE3C19B)	-0.804	-2.157	0.215	-41.809	-37.109	1.465	-73.50	32.37	-1.99	-50.078	-37.436	89.964	-0.78699	0.54678	-0.28336	-0.03568	30.5	13111	100
2025-3-27 20:31:47.877	WT901BLE68-01(48591DE3C19B)	-0.804	-2.202	0.364	-8.484	-31.006	-5.859	-73.59	32.21	-1.68	-50.078	-37.436	89.964	-0.78699	0.54678	-0.28336	-0.03568	30.5	13111	100
2025-3-27 20:31:47.877	WT901BLE68-01(48591DE3C19B)	-0.714	-2.202	0.364	-8.484	-31.006	-5.859	-73.54	32.02	-1.42	-50.078	-37.436	89.964	-0.78699	0.54678	-0.28336	-0.03568	30.5	13111	100
2025-3-27 20:31:47.877	WT901BLE68-01(48591DE3C19B)	-0.714	-1.675	0.424	1.526	-29.846	2.747	-73.44	31.87	-1.16	-50.078	-37.436	89.964	-0.78699	0.54678	-0.28336	-0.03568	30.5	13111	100
2025-3-27 20:31:47.937	WT901BLE68-01(48591DE3C19B)	-0.490	-1.675	0.424	1.526	-29.846	2.747	-73.28	31.77	-0.90	-50.078	-37.436	89.964	-0.78699	0.54678	-0.28336	-0.03568	30.5	13111	100
2025-3-27 20:31:47.937	WT901BLE68-01(48591DE3C19B)	-0.490	-1.397	0.347	2.014	-10.742	20.264	-73.16	31.77	-0.71	-50.078	-37.436	89.964	-0.78699	0.54678	-0.28336	-0.03568	30.5	13111	100
2025-3-27 20:31:47.937	WT901BLE68-01(48591DE3C19B)	-0.346	-1.397	0.347	2.014	-10.742	20.264	-73.09	31.88	-0.60	-50.078	-37.436	89.964	-0.78699	0.54678	-0.28336	-0.03568	30.5	13111	100
2025-3-27 20:31:47.937	WT901BLE68-01(48591DE3C19B)	-0.346	-1.167	0.266	6.104	17.151	33.508	-73.10	32.20	-0.76	-50.078	-37.436	89.964	-0.78699	0.54678	-0.28336	-0.03568	30.5	13111	100
2025-3-27 20:31:47.969	WT901BLE68-01(48591DE3C19B)	-0.350	-1.167	0.266	6.104	17.151	33.508	-73.13	32.51	-0.93	-50.078	-37.436	89.964	-0.78699	0.54678	-0.28336	-0.03568	30.5	13111	100
2025-3-27 20:31:47.969	WT901BLE68-01(48591DE3C19B)	-0.350	-0.968	0.204	0.916	21.179	44.495	-73.20	32.93	-1.10	-50.078	-37.436	89.964	-0.78699	0.54678	-0.28336	-0.03568	30.5	13111	100
2025-3-27 20:31:47.969	WT901BLE68-01(48591DE3C19B)	-0.354	-0.968	0.204	0.916	21.179	44.495	-73.28	33.35	-1.28	-50.078	-37.436	89.964	-0.78699	0.54678	-0.28336	-0.03568	30.5	13111	100
2025-3-27 20:31:47.969	WT901BLE68-01(48591DE3C19B)	-0.354	-0.837	0.197	-12.207	2.747	44.983	-73.38	33.72	-1.24	-50.078	-37.436	89.964	-0.78699	0.54678	-0.28336	-0.03568	30.5	13111	100
2025-3-27 20:31:47.999	WT901BLE68-01(48591DE3C19B)	-0.338	-0.837	0.197	-12.207	2.747	44.983	-73.47	34.09	-1.20	-50.078	-37.436	89.964	-0.78699	0.54678	-0.28336	-0.03568	30.5	13111	100
2025-3-27 20:31:47.999	WT901BLE68-01(48591DE3C19B)	-0.338	-0.746	0.233	-15.625	-9.033	41.138	-73.53	34.38	-1.04	-50.078	-37.436	89.964	-0.78699	0.54678	-0.28336	-0.03568	30.5	13111	100
2025-3-27 20:31:47.999	WT901BLE68-01(48591DE3C19B)	-0.366	-0.746	0.233	-15.625	-9.033	41.138	-73.58	34.68	-0.88	-50.078	-37.436	89.964	-0.76578	0.56976	-0.24307	-0.17255	30.5	13111	100
2025-3-27 20:31:48.0	WT901BLE68-01(48591DE3C19B)	-0.366	-0.630	0.268	-16.479	-8.545	36.499	-73.64	34.93	-0.74	-50.078	-37.436	89.964	-0.76578	0.56976	-0.24307	-0.17255	30.5	13111	100
2025-3-27 20:31:48.57	WT901BLE68-01(48591DE3C19B)	-0.398	-0.630	0.268	-16.479	-8.545	36.499	-73.70	35.18	-0.60	-50.078	-37.436	89.964	-0.76578	0.56976	-0.24307	-0.17255	30.5	13111	100
2025-3-27 20:31:48.57	WT901BLE68-01(48591DE3C19B)	-0.398	-0.597	0.287	-18.860	-5.859	28.748	-73.81	35.37	-0.51	-50.078	-37.436	89.964	-0.76578	0.56976	-0.24307	-0.17255	30.5	13111	100
2025-3-27 20:31:48.57	WT901BLE68-01(48591DE3C19B)	-0.430	-0.597	0.287	-18.860	-5.859	28.748	-73.92	35.56	-0.41	-50.078	-37.436	89.964	-0.76578	0.56976	-0.24307	-0.17255	30.5	13111	100
2025-3-27 20:31:48.57	WT901BLE68-01(48591DE3C19B)	-0.430	-0.613	0.274	-18.066	-7.385	20.447	-74.01	35.67	-0.32	-50.078	-37.436	89.964	-0.76578	0.56976	-0.24307	-0.17255	30.5	13111	100
2025-3-27 20:31:48.87	WT901BLE68-01(48591DE3C19B)	-0.438	-0.613	0.274	-18.066	-7.385	20.447	-74.11	35.78	-0.23	-50.078	-37.436	89.964	-0.76578	0.56976	-0.24307	-0.17255	30.5	13111	100
2025-3-27 20:31:48.87	WT901BLE68-01(48591DE3C19B)	-0.438	-0.635	0.241	-16.357	-16.235	11.902	-74.14	35.78	-0.04	-50.078	-37.436	89.964	-0.76578	0.56976	-0.24307	-0.17255	30.5	13111	100
2025-3-27 20:31:48.87	WT901BLE68-01(48591DE3C19B)	-0.428	-0.635	0.241	-16.357	-16.235	11.902	-74.16	35.80	0.13	-50.078	-37.436	89.964	-0.76578	0.56976	-0.24307	-0.17255	30.5	13111	100
2025-3-27 20:31:48.87	WT901BLE68-01(48591DE3C19B)	-0.428	-0.671	0.210	-15.076	-27.832	3.174	-74.11	35.69	0.42	-50.078	-37.436	89.964	-0.76578	0.56976	-0.24307	-0.17255	30.5	13111	100
2025-3-27 20:31:48.116	WT901BLE68-01(48591DE3C19B)	-0.437	-0.671	0.210	-15.076	-27.832	3.174	-74.05	35.60	0.72	-50.078	-37.436	89.964	-0.76578	0.56976	-0.24307	-0.17255	30.5	13111	100
2025-3-27 20:31:48.116	WT901BLE68-01(48591DE3C19B)	-0.437	-0.777	0.192	-14.038	-38.391	-4.883	-73.94	35.40	1.11	-50.078	-37.436	89.964	-0.76578	0.56976	-0.24307	-0.17255	30.5	13111	100
2025-3-27 20:31:48.116	WT901BLE68-01(48591DE3C19B)	-0.458	-0.777	0.192	-14.038	-38.391	-4.883	-73.83	35.19	1.49	-50.078	-37.436	89.964	-0.76578	0.56976	-0.24307	-0.17255	30.5	13111	100
2025-3-27 20:31:48.116	WT901BLE68-01(48591DE3C19B)	-0.458	-0.896	0.184	-10.742	-46.448	-10.681	-73.65	34.91	1.96	-50.078	-37.436	89.964	-0.76578	0.56976	-0.24307	-0.17255	30.5	13111	100
2025-3-27 20:31:48.179	WT901BLE68-01(48591DE3C19B)	-0.464	-0.896	0.184	-10.742	-46.448	-10.681	-73.48	34.64	2.41	-50.078	-37.436	89.964	-0.76578	0.56976	-0.24307	-0.17255	30.5	13111	100
2025-3-27 20:31:48.179	WT901BLE68-01(48591DE3C19B)	-0.464	-0.959	0.179	-5.920	-50.354	-13.306	-73.24	34.32	2.89	-50.078	-37.436	89.964	-0.76578	0.56976	-0.24307	-0.17255	30.5	13111	100
2025-3-27 20:31:48.179	WT901BLE68-01(48591DE3C19B)	-0.458	-0.959	0.179	-5.920	-50.354	-13.306	-73.02	34.01	3.36	-50.078	-37.436	89.964	-0.76578	0.56976	-0.24307	-0.17255	30.5	13111	100
2025-3-27 20:31:48.179	WT901BLE68-01(48591DE3C19B)	-0.458	-0.960	0.189	-1.587	-47.791	-12.390	-72.77	33.71	3.80	-50.078	-37.436	89.964	-0.76578	0.56976	-0.24307	-0.17255	30.5	13111	100
2025-3-27 20:31:48.209	WT901BLE68-01(48591DE3C19B)	-0.453	-0.960	0.189	-1.587	-47.791	-12.390	-72.54	33.41	4.24	-50.078	-37.436	89.964	-0.76578	0.56976	-0.24307	-0.17255	30.5	13111	100
2025-3-27 20:31:48.209	WT901BLE68-01(48591DE3C19B)	-0.453	-0.938	0.220	0.854	-37.903	-10.193	-72.34	33.16	4.56	-50.078	-37.436	89.964	-0.76578	0.56976	-0.24307	-0.17255	30.5	13111	100
2025-3-27 20:31:48.209	WT901BLE68-01(48591DE3C19B)	-0.477	-0.938	0.220	0.854	-37.903	-10.193	-72.15	32.90	4.88	-50.078	-37.436	89.964	-0.76578	0.56976	-0.24307	-0.17255	30.5	13111	100
2025-3-27 20:31:48.209	WT901BLE68-01(48591DE3C19B)	-0.477	-0.911	0.253	2.747	-26.367	-8.179	-72.00	32.71	5.08	-50.078	-37.436	89.964	-0.76578	0.56976	-0.24307	-0.17255	30.5	13111	100
