time	DeviceName	AccX(g)	AccY(g)	AccZ(g)	AsX(°/s)	AsY(°/s)	AsZ(°/s)	AngleX(°)	AngleY(°)	AngleZ(°)	HX(uT)	HY(uT)	HZ(uT)	Q0()	Q1()	Q2()	Q3()	Temperature(°C)	Version()	Battery level(%)
2025-3-27 20:10:43.994	WT901BLE68-01(48591DE3C19B)	-0.250	-0.952	0.227	-0.061	2.197	-0.122	-78.08	15.42	-13.58	-62.524	-26.558	99.176	-0.77390	0.60883	-0.17416	0.00012	27.5	13111	100
2025-3-27 20:10:43.994	WT901BLE68-01(48591DE3C19B)	-0.246	-0.952	0.227	-0.061	2.197	-0.122	-78.07	15.42	-13.65	-62.524	-26.558	99.176	-0.77390	0.60883	-0.17416	0.00012	27.5	13111	100
2025-3-27 20:10:43.994	WT901BLE68-01(48591DE3C19B)	-0.246	-0.949	0.226	0.427	2.686	-0.366	-78.07	15.42	-13.71	-62.524	-26.558	99.176	-0.77390	0.60883	-0.17416	0.00012	27.5	13111	100
2025-3-27 20:10:43.994	WT901BLE68-01(48591DE3C19B)	-0.251	-0.949	0.226	0.427	2.686	-0.366	-78.06	15.41	-13.77	-62.524	-26.558	99.176	-0.77390	0.60883	-0.17416	0.00012	27.5	13111	100
2025-3-27 20:10:43.996	WT901BLE68-01(48591DE3C19B)	-0.251	-0.943	0.227	0.732	2.808	-0.793	-78.05	15.41	-13.83	-62.524	-26.558	99.176	-0.77390	0.60883	-0.17416	0.00012	27.5	13111	100
2025-3-27 20:10:43.996	WT901BLE68-01(48591DE3C19B)	-0.246	-0.943	0.227	0.732	2.808	-0.793	-78.05	15.40	-13.90	-62.524	-26.558	99.176	-0.77390	0.60883	-0.17416	0.00012	27.5	13111	100
2025-3-27 20:10:43.996	WT901BLE68-01(48591DE3C19B)	-0.246	-0.939	0.229	0.549	2.136	-0.916	-78.04	15.39	-13.96	-63.210	-26.264	99.078	-0.77390	0.60883	-0.17416	0.00012	27.5	13111	100
2025-3-27 20:10:43.996	WT901BLE68-01(48591DE3C19B)	-0.239	-0.939	0.229	0.549	2.136	-0.916	-78.03	15.38	-14.01	-63.210	-26.264	99.078	-0.77390	0.60883	-0.17416	0.00012	27.5	13111	100
2025-3-27 20:10:44.84	WT901BLE68-01(48591DE3C19B)	-0.239	-0.942	0.225	0.854	2.930	-0.854	-78.02	15.37	-14.08	-63.210	-26.264	99.078	-0.77390	0.60883	-0.17416	0.00012	27.5	13111	100
2025-3-27 20:10:44.84	WT901BLE68-01(48591DE3C19B)	-0.235	-0.942	0.225	0.854	2.930	-0.854	-78.01	15.36	-14.14	-63.210	-26.264	99.078	-0.77390	0.60883	-0.17416	0.00012	27.5	13111	100
2025-3-27 20:10:44.84	WT901BLE68-01(48591DE3C19B)	-0.235	-0.942	0.224	1.221	4.150	-0.793	-78.00	15.35	-14.22	-63.210	-26.264	99.078	-0.77390	0.60883	-0.17416	0.00012	27.5	13111	100
2025-3-27 20:10:44.84	WT901BLE68-01(48591DE3C19B)	-0.243	-0.942	0.224	1.221	4.150	-0.793	-77.99	15.35	-14.30	-63.210	-26.264	99.078	-0.77390	0.60883	-0.17416	0.00012	27.5	13111	100
2025-3-27 20:10:44.85	WT901BLE68-01(48591DE3C19B)	-0.243	-0.945	0.230	1.770	5.676	-0.854	-77.98	15.34	-14.39	-63.210	-26.264	99.078	-0.77390	0.60883	-0.17416	0.00012	27.5	13111	100
2025-3-27 20:10:44.85	WT901BLE68-01(48591DE3C19B)	-0.251	-0.945	0.230	1.770	5.676	-0.854	-77.97	15.34	-14.49	-63.210	-26.264	99.078	-0.77390	0.60883	-0.17416	0.00012	27.5	13111	100
2025-3-27 20:10:44.86	WT901BLE68-01(48591DE3C19B)	-0.251	-0.953	0.233	2.075	5.432	-0.732	-77.95	15.34	-14.57	-63.210	-26.264	99.078	-0.77390	0.60883	-0.17416	0.00012	27.5	13111	100
2025-3-27 20:10:44.86	WT901BLE68-01(48591DE3C19B)	-0.250	-0.953	0.233	2.075	5.432	-0.732	-77.94	15.33	-14.66	-63.210	-26.264	99.078	-0.77390	0.60883	-0.17416	0.00012	27.5	13111	100
2025-3-27 20:10:44.116	WT901BLE68-01(48591DE3C19B)	-0.250	-0.949	0.231	2.380	4.761	-0.549	-77.92	15.33	-14.74	-63.210	-26.264	99.078	-0.77390	0.60883	-0.17416	0.00012	27.5	13111	100
2025-3-27 20:10:44.116	WT901BLE68-01(48591DE3C19B)	-0.245	-0.949	0.231	2.380	4.761	-0.549	-77.90	15.33	-14.83	-63.210	-26.264	99.078	-0.77390	0.60883	-0.17416	0.00012	27.5	13111	100
2025-3-27 20:10:44.117	WT901BLE68-01(48591DE3C19B)	-0.245	-0.945	0.232	2.319	4.395	-0.305	-77.88	15.33	-14.90	-63.210	-26.264	99.078	-0.77390	0.60883	-0.17416	0.00012	27.5	13111	100
2025-3-27 20:10:44.117	WT901BLE68-01(48591DE3C19B)	-0.239	-0.945	0.232	2.319	4.395	-0.305	-77.86	15.33	-14.98	-63.210	-26.264	99.078	-0.77390	0.60883	-0.17416	0.00012	27.5	13111	100
2025-3-27 20:10:44.174	WT901BLE68-01(48591DE3C19B)	-0.239	-0.944	0.236	2.258	4.822	-0.122	-77.84	15.33	-15.06	-63.210	-26.264	99.078	-0.77390	0.60883	-0.17416	0.00012	27.5	13111	100
2025-3-27 20:10:44.174	WT901BLE68-01(48591DE3C19B)	-0.239	-0.944	0.236	2.258	4.822	-0.122	-77.82	15.33	-15.14	-63.210	-26.264	99.078	-0.77390	0.60883	-0.17416	0.00012	27.5	13111	100
2025-3-27 20:10:44.175	WT901BLE68-01(48591DE3C19B)	-0.239	-0.944	0.237	2.563	5.493	-0.122	-77.81	15.33	-15.23	-63.210	-26.264	99.078	-0.77390	0.60883	-0.17416	0.00012	27.5	13111	100
2025-3-27 20:10:44.175	WT901BLE68-01(48591DE3C19B)	-0.122	-0.944	0.237	2.563	5.493	-0.122	-77.78	15.33	-15.31	-63.210	-26.264	99.078	-0.77390	0.60883	-0.17416	0.00012	27.5	13111	100
2025-3-27 20:10:44.204	WT901BLE68-01(48591DE3C19B)	-0.240	-0.474	0.120	2.930	4.944	-0.366	-77.76	15.33	-15.40	-63.210	-26.264	99.078	-0.77579	0.60239	-0.18646	0.02063	27.5	13111	100
2025-3-27 20:10:44.204	WT901BLE68-01(48591DE3C19B)	-0.240	-0.952	0.240	3.662	4.150	-0.854	-77.73	15.33	-15.47	-63.210	-26.264	99.078	-0.77579	0.60239	-0.18646	0.02063	27.5	13111	100
2025-3-27 20:10:44.205	WT901BLE68-01(48591DE3C19B)	-0.237	-0.952	0.240	3.662	4.150	-0.854	-77.70	15.32	-15.55	-63.210	-26.264	99.078	-0.77579	0.60239	-0.18646	0.02063	27.5	13111	100
2025-3-27 20:10:44.205	WT901BLE68-01(48591DE3C19B)	-0.237	-0.948	0.239	4.639	4.517	-1.099	-77.66	15.31	-15.62	-63.210	-26.264	99.078	-0.77579	0.60239	-0.18646	0.02063	27.5	13111	100
2025-3-27 20:10:44.234	WT901BLE68-01(48591DE3C19B)	-0.232	-0.948	0.239	4.639	4.517	-1.099	-77.61	15.30	-15.70	-63.210	-26.264	99.078	-0.77579	0.60239	-0.18646	0.02063	27.5	13111	100
2025-3-27 20:10:44.235	WT901BLE68-01(48591DE3C19B)	-0.232	-0.945	0.240	5.310	5.371	-1.099	-77.57	15.29	-15.78	-63.210	-26.264	99.078	-0.77579	0.60239	-0.18646	0.02063	27.5	13111	100
2025-3-27 20:10:44.235	WT901BLE68-01(48591DE3C19B)	-0.231	-0.945	0.240	5.310	5.371	-1.099	-77.53	15.29	-15.87	-63.210	-26.264	99.078	-0.77579	0.60239	-0.18646	0.02063	27.5	13111	100
2025-3-27 20:10:44.235	WT901BLE68-01(48591DE3C19B)	-0.231	-0.940	0.241	5.981	6.653	-0.854	-77.48	15.28	-15.96	-63.210	-26.264	99.078	-0.77579	0.60239	-0.18646	0.02063	27.5	13111	100
2025-3-27 20:10:44.293	WT901BLE68-01(48591DE3C19B)	-0.237	-0.940	0.241	5.981	6.653	-0.854	-77.43	15.28	-16.06	-63.210	-26.264	99.078	-0.77579	0.60239	-0.18646	0.02063	27.5	13111	100
2025-3-27 20:10:44.293	WT901BLE68-01(48591DE3C19B)	-0.237	-0.938	0.242	6.348	7.324	-0.549	-77.37	15.28	-16.16	-63.210	-26.264	99.078	-0.77579	0.60239	-0.18646	0.02063	27.5	13111	100
2025-3-27 20:10:44.293	WT901BLE68-01(48591DE3C19B)	-0.233	-0.938	0.242	6.348	7.324	-0.549	-77.32	15.28	-16.27	-63.210	-26.264	99.078	-0.77579	0.60239	-0.18646	0.02063	27.5	13111	100
2025-3-27 20:10:44.294	WT901BLE68-01(48591DE3C19B)	-0.233	-0.938	0.240	6.592	6.897	-0.183	-77.27	15.28	-16.37	-63.210	-26.264	99.078	-0.77579	0.60239	-0.18646	0.02063	27.5	13111	100
2025-3-27 20:10:44.324	WT901BLE68-01(48591DE3C19B)	-0.232	-0.938	0.240	6.592	6.897	-0.183	-77.21	15.28	-16.47	-63.210	-26.264	99.078	-0.77579	0.60239	-0.18646	0.02063	27.5	13111	100
2025-3-27 20:10:44.325	WT901BLE68-01(48591DE3C19B)	-0.232	-0.937	0.235	7.263	7.019	0.366	-77.15	15.29	-16.57	-63.210	-26.264	99.078	-0.77579	0.60239	-0.18646	0.02063	27.5	13111	100
2025-3-27 20:10:44.325	WT901BLE68-01(48591DE3C19B)	-0.216	-0.937	0.235	7.263	7.019	0.366	-77.09	15.30	-16.66	-63.210	-26.264	99.078	-0.77579	0.60239	-0.18646	0.02063	27.5	13111	100
2025-3-27 20:10:44.325	WT901BLE68-01(48591DE3C19B)	-0.216	-0.924	0.234	7.996	8.118	1.099	-77.03	15.31	-16.77	-63.210	-26.264	99.078	-0.77579	0.60239	-0.18646	0.02063	27.5	13111	100
2025-3-27 20:10:44.360	WT901BLE68-01(48591DE3C19B)	-0.199	-0.924	0.234	7.996	8.118	1.099	-76.96	15.33	-16.88	-63.210	-26.264	99.078	-0.77579	0.60239	-0.18646	0.02063	27.5	13111	100
2025-3-27 20:10:44.360	WT901BLE68-01(48591DE3C19B)	-0.199	-0.916	0.228	8.667	11.841	2.197	-76.90	15.36	-17.00	-63.210	-26.264	99.078	-0.77579	0.60239	-0.18646	0.02063	27.5	13111	100
2025-3-27 20:10:44.360	WT901BLE68-01(48591DE3C19B)	-0.199	-0.916	0.228	8.667	11.841	2.197	-76.84	15.39	-17.14	-63.210	-26.264	99.078	-0.77579	0.60239	-0.18646	0.02063	27.5	13111	100
2025-3-27 20:10:44.360	WT901BLE68-01(48591DE3C19B)	-0.199	-0.910	0.220	8.850	16.357	3.235	-76.78	15.44	-17.30	-63.210	-26.264	99.078	-0.77579	0.60239	-0.18646	0.02063	27.5	13111	100
2025-3-27 20:10:44.445	WT901BLE68-01(48591DE3C19B)	-0.200	-0.910	0.220	8.850	16.357	3.235	-76.73	15.49	-17.48	-63.210	-26.264	99.078	-0.77579	0.60239	-0.18646	0.02063	27.5	13111	100
2025-3-27 20:10:44.445	WT901BLE68-01(48591DE3C19B)	-0.200	-0.911	0.216	8.362	19.592	3.723	-76.68	15.55	-17.69	-65.366	-24.500	98.392	-0.77579	0.60239	-0.18646	0.02063	27.5	13111	100
2025-3-27 20:10:44.445	WT901BLE68-01(48591DE3C19B)	-0.214	-0.911	0.216	8.362	19.592	3.723	-76.65	15.62	-17.95	-65.366	-24.500	98.392	-0.77579	0.60239	-0.18646	0.02063	27.5	13111	100
2025-3-27 20:10:44.445	WT901BLE68-01(48591DE3C19B)	-0.214	-0.939	0.221	6.653	21.912	3.967	-76.63	15.68	-18.23	-65.366	-24.500	98.392	-0.77579	0.60239	-0.18646	0.02063	27.5	13111	100
2025-3-27 20:10:44.446	WT901BLE68-01(48591DE3C19B)	-0.231	-0.939	0.221	6.653	21.912	3.967	-76.62	15.75	-18.52	-65.366	-24.500	98.392	-0.77579	0.60239	-0.18646	0.02063	27.5	13111	100
2025-3-27 20:10:44.446	WT901BLE68-01(48591DE3C19B)	-0.231	-0.973	0.222	5.493	22.339	4.578	-76.62	15.83	-18.81	-65.366	-24.500	98.392	-0.77579	0.60239	-0.18646	0.02063	27.5	13111	100
2025-3-27 20:10:44.446	WT901BLE68-01(48591DE3C19B)	-0.246	-0.973	0.222	5.493	22.339	4.578	-76.62	15.91	-19.09	-65.366	-24.500	98.392	-0.77579	0.60239	-0.18646	0.02063	27.5	13111	100
2025-3-27 20:10:44.446	WT901BLE68-01(48591DE3C19B)	-0.246	-0.981	0.221	4.333	22.522	5.371	-76.63	15.99	-19.39	-65.366	-24.500	98.392	-0.77579	0.60239	-0.18646	0.02063	27.5	13111	100
2025-3-27 20:10:44.475	WT901BLE68-01(48591DE3C19B)	-0.281	-0.981	0.221	4.333	22.522	5.371	-76.65	16.07	-19.67	-65.366	-24.500	98.392	-0.77579	0.60239	-0.18646	0.02063	27.5	13111	100
2025-3-27 20:10:44.475	WT901BLE68-01(48591DE3C19B)	-0.281	-0.982	0.229	2.502	19.714	6.165	-76.67	16.16	-19.94	-65.366	-24.500	98.392	-0.77579	0.60239	-0.18646	0.02063	27.5	13111	100
2025-3-27 20:10:44.475	WT901BLE68-01(48591DE3C19B)	-0.287	-0.982	0.229	2.502	19.714	6.165	-76.70	16.25	-20.19	-65.366	-24.500	98.392	-0.77579	0.60239	-0.18646	0.02063	27.5	13111	100
2025-3-27 20:10:44.475	WT901BLE68-01(48591DE3C19B)	-0.287	-0.972	0.237	-0.183	13.794	5.859	-76.73	16.33	-20.41	-65.366	-24.500	98.392	-0.77579	0.60239	-0.18646	0.02063	27.5	13111	100
2025-3-27 20:10:44.594	WT901BLE68-01(48591DE3C19B)	-0.273	-0.972	0.237	-0.183	13.794	5.859	-76.77	16.40	-20.60	-65.366	-24.500	98.392	-0.77579	0.60239	-0.18646	0.02063	27.5	13111	100
2025-3-27 20:10:44.595	WT901BLE68-01(48591DE3C19B)	-0.273	-0.937	0.248	-0.854	9.460	3.784	-76.81	16.46	-20.77	-65.366	-24.500	98.392	-0.77579	0.60239	-0.18646	0.02063	27.5	13111	100
2025-3-27 20:10:44.595	WT901BLE68-01(48591DE3C19B)	-0.250	-0.937	0.248	-0.854	9.460	3.784	-76.84	16.51	-20.92	-65.366	-24.500	98.392	-0.77579	0.60239	-0.18646	0.02063	27.5	13111	100
2025-3-27 20:10:44.595	WT901BLE68-01(48591DE3C19B)	-0.250	-0.876	0.253	-1.160	9.155	0.183	-76.87	16.53	-21.07	-65.366	-24.500	98.392	-0.77579	0.60239	-0.18646	0.02063	27.5	13111	100
2025-3-27 20:10:44.596	WT901BLE68-01(48591DE3C19B)	-0.249	-0.876	0.253	-1.160	9.155	0.183	-76.90	16.55	-21.23	-65.366	-24.500	98.392	-0.77579	0.60239	-0.18646	0.02063	27.5	13111	100
2025-3-27 20:10:44.596	WT901BLE68-01(48591DE3C19B)	-0.249	-0.848	0.256	-0.793	10.986	-3.906	-76.94	16.53	-21.39	-65.366	-24.500	98.392	-0.77579	0.60239	-0.18646	0.02063	27.5	13111	100
2025-3-27 20:10:44.596	WT901BLE68-01(48591DE3C19B)	-0.261	-0.848	0.256	-0.793	10.986	-3.906	-76.98	16.51	-21.57	-65.366	-24.500	98.392	-0.77579	0.60239	-0.18646	0.02063	27.5	13111	100
2025-3-27 20:10:44.596	WT901BLE68-01(48591DE3C19B)	-0.261	-0.826	0.252	0.488	12.939	-7.507	-77.00	16.47	-21.76	-65.366	-24.500	98.392	-0.77579	0.60239	-0.18646	0.02063	27.5	13111	100
2025-3-27 20:10:44.625	WT901BLE68-01(48591DE3C19B)	-0.284	-0.826	0.252	0.488	12.939	-7.507	-77.03	16.41	-21.97	-65.366	-24.500	98.392	-0.77579	0.60239	-0.18646	0.02063	27.5	13111	100
2025-3-27 20:10:44.626	WT901BLE68-01(48591DE3C19B)	-0.284	-0.822	0.246	0.977	13.245	-10.681	-77.06	16.35	-22.18	-65.366	-24.500	98.392	-0.77579	0.60239	-0.18646	0.02063	27.5	13111	100
2025-3-27 20:10:44.626	WT901BLE68-01(48591DE3C19B)	-0.308	-0.822	0.246	0.977	13.245	-10.681	-77.08	16.27	-22.38	-65.366	-24.500	98.392	-0.77579	0.60239	-0.18646	0.02063	27.5	13111	100
2025-3-27 20:10:44.626	WT901BLE68-01(48591DE3C19B)	-0.308	-0.844	0.248	0.610	11.414	-13.611	-77.10	16.17	-22.59	-65.366	-24.500	98.392	-0.77579	0.60239	-0.18646	0.02063	27.5	13111	100
2025-3-27 20:10:44.660	WT901BLE68-01(48591DE3C19B)	-0.329	-0.844	0.248	0.610	11.414	-13.611	-77.12	16.06	-22.79	-65.366	-24.500	98.392	-0.77579	0.60239	-0.18646	0.02063	27.5	13111	100
2025-3-27 20:10:44.660	WT901BLE68-01(48591DE3C19B)	-0.329	-0.873	0.260	0.549	8.362	-16.174	-77.14	15.94	-22.97	-65.366	-24.500	98.392	-0.77597	0.58344	-0.22919	0.06943	27.5	13111	100
2025-3-27 20:10:44.660	WT901BLE68-01(48591DE3C19B)	-0.347	-0.873	0.260	0.549	8.362	-16.174	-77.15	15.81	-23.14	-65.366	-24.500	98.392	-0.77597	0.58344	-0.22919	0.06943	27.5	13111	100
2025-3-27 20:10:44.660	WT901BLE68-01(48591DE3C19B)	-0.347	-0.888	0.268	-0.183	5.310	-17.883	-77.16	15.66	-23.27	-65.366	-24.500	98.392	-0.77597	0.58344	-0.22919	0.06943	27.5	13111	100
2025-3-27 20:10:44.835	WT901BLE68-01(48591DE3C19B)	-0.354	-0.888	0.268	-0.183	5.310	-17.883	-77.16	15.50	-23.41	-65.366	-24.500	98.392	-0.77597	0.58344	-0.22919	0.06943	27.5	13111	100
2025-3-27 20:10:44.835	WT901BLE68-01(48591DE3C19B)	-0.354	-0.899	0.269	-0.854	3.235	-19.043	-77.17	15.34	-23.53	-65.366	-24.500	98.392	-0.77597	0.58344	-0.22919	0.06943	27.5	13111	100
2025-3-27 20:10:44.835	WT901BLE68-01(48591DE3C19B)	-0.360	-0.899	0.269	-0.854	3.235	-19.043	-77.18	15.17	-23.64	-65.366	-24.500	98.392	-0.77597	0.58344	-0.22919	0.06943	27.5	13111	100
2025-3-27 20:10:44.835	WT901BLE68-01(48591DE3C19B)	-0.360	-0.898	0.269	-1.648	2.258	-19.714	-77.20	15.01	-23.75	-65.366	-24.500	98.392	-0.77597	0.58344	-0.22919	0.06943	27.5	13111	100
2025-3-27 20:10:44.836	WT901BLE68-01(48591DE3C19B)	-0.372	-0.898	0.269	-1.648	2.258	-19.714	-77.21	14.84	-23.85	-65.366	-24.500	98.392	-0.77597	0.58344	-0.22919	0.06943	27.5	13111	100
2025-3-27 20:10:44.836	WT901BLE68-01(48591DE3C19B)	-0.372	-0.895	0.274	-2.686	1.953	-19.897	-77.23	14.67	-23.95	-65.366	-24.500	98.392	-0.77597	0.58344	-0.22919	0.06943	27.5	13111	100
2025-3-27 20:10:44.836	WT901BLE68-01(48591DE3C19B)	-0.393	-0.895	0.274	-2.686	1.953	-19.897	-77.25	14.51	-24.05	-65.366	-24.500	98.392	-0.77597	0.58344	-0.22919	0.06943	27.5	13111	100
2025-3-27 20:10:44.836	WT901BLE68-01(48591DE3C19B)	-0.393	-0.900	0.287	-3.906	-0.061	-19.592	-77.28	14.35	-24.12	-65.366	-24.500	98.392	-0.77597	0.58344	-0.22919	0.06943	27.5	13111	100
2025-3-27 20:10:44.836	WT901BLE68-01(48591DE3C19B)	-0.402	-0.900	0.287	-3.906	-0.061	-19.592	-77.31	14.19	-24.20	-65.366	-24.500	98.392	-0.77597	0.58344	-0.22919	0.06943	27.5	13111	100
2025-3-27 20:10:44.836	WT901BLE68-01(48591DE3C19B)	-0.402	-0.913	0.295	-5.127	-3.174	-18.616	-77.33	14.04	-24.24	-65.366	-24.500	98.392	-0.77597	0.58344	-0.22919	0.06943	27.5	13111	100
2025-3-27 20:10:44.837	WT901BLE68-01(48591DE3C19B)	-0.396	-0.913	0.295	-5.127	-3.174	-18.616	-77.36	13.89	-24.27	-65.366	-24.500	98.392	-0.77597	0.58344	-0.22919	0.06943	27.5	13111	100
2025-3-27 20:10:44.837	WT901BLE68-01(48591DE3C19B)	-0.396	-0.905	0.297	-4.883	-4.578	-17.700	-77.38	13.74	-24.29	-65.366	-24.500	98.392	-0.77597	0.58344	-0.22919	0.06943	27.5	13111	100
2025-3-27 20:10:44.837	WT901BLE68-01(48591DE3C19B)	-0.392	-0.905	0.297	-4.883	-4.578	-17.700	-77.40	13.60	-24.31	-65.366	-24.500	98.392	-0.77597	0.58344	-0.22919	0.06943	27.5	13111	100
2025-3-27 20:10:44.837	WT901BLE68-01(48591DE3C19B)	-0.392	-0.888	0.295	-4.700	-5.005	-16.541	-77.42	13.47	-24.32	-65.366	-24.500	98.392	-0.77597	0.58344	-0.22919	0.06943	27.5	13111	100
2025-3-27 20:10:44.837	WT901BLE68-01(48591DE3C19B)	-0.392	-0.888	0.295	-4.700	-5.005	-16.541	-77.43	13.35	-24.33	-65.366	-24.500	98.392	-0.77597	0.58344	-0.22919	0.06943	27.5	13111	100
2025-3-27 20:10:44.837	WT901BLE68-01(48591DE3C19B)	-0.392	-0.874	0.298	-4.517	-5.127	-14.648	-77.44	13.24	-24.34	-65.366	-24.500	98.392	-0.77597	0.58344	-0.22919	0.06943	27.5	13111	100
2025-3-27 20:10:44.838	WT901BLE68-01(48591DE3C19B)	-0.387	-0.874	0.298	-4.517	-5.127	-14.648	-77.45	13.14	-24.34	-65.366	-24.500	98.392	-0.77597	0.58344	-0.22919	0.06943	27.5	13111	100
2025-3-27 20:10:44.838	WT901BLE68-01(48591DE3C19B)	-0.387	-0.868	0.297	-4.089	-4.272	-12.146	-77.45	13.06	-24.35	-65.366	-24.500	98.392	-0.77597	0.58344	-0.22919	0.06943	27.5	13111	100
2025-3-27 20:10:44.838	WT901BLE68-01(48591DE3C19B)	-0.374	-0.868	0.297	-4.089	-4.272	-12.146	-77.46	12.99	-24.36	-65.366	-24.500	98.392	-0.77597	0.58344	-0.22919	0.06943	27.5	13111	100
2025-3-27 20:10:44.838	WT901BLE68-01(48591DE3C19B)	-0.374	-0.853	0.294	-3.479	-2.319	-9.338	-77.46	12.94	-24.38	-65.366	-24.500	98.392	-0.77597	0.58344	-0.22919	0.06943	27.5	13111	100
2025-3-27 20:10:44.924	WT901BLE68-01(48591DE3C19B)	-0.371	-0.853	0.294	-3.479	-2.319	-9.338	-77.46	12.90	-24.40	-65.366	-24.500	98.392	-0.77597	0.58344	-0.22919	0.06943	27.5	13111	100
2025-3-27 20:10:44.925	WT901BLE68-01(48591DE3C19B)	-0.371	-0.840	0.286	-2.625	-0.061	-6.348	-77.45	12.89	-24.43	-69.482	-24.794	98.000	-0.77597	0.58344	-0.22919	0.06943	27.5	13111	100
2025-3-27 20:10:44.925	WT901BLE68-01(48591DE3C19B)	-0.369	-0.840	0.286	-2.625	-0.061	-6.348	-77.45	12.88	-24.47	-69.482	-24.794	98.000	-0.77597	0.58344	-0.22919	0.06943	27.5	13111	100
2025-3-27 20:10:44.925	WT901BLE68-01(48591DE3C19B)	-0.369	-0.825	0.279	-2.197	1.831	-2.869	-77.44	12.91	-24.52	-69.482	-24.794	98.000	-0.77597	0.58344	-0.22919	0.06943	27.5	13111	100
2025-3-27 20:10:44.926	WT901BLE68-01(48591DE3C19B)	-0.360	-0.825	0.279	-2.197	1.831	-2.869	-77.44	12.94	-24.56	-69.482	-24.794	98.000	-0.77597	0.58344	-0.22919	0.06943	27.5	13111	100
2025-3-27 20:10:44.926	WT901BLE68-01(48591DE3C19B)	-0.360	-0.814	0.267	-1.587	3.174	0.793	-77.42	13.01	-24.61	-69.482	-24.794	98.000	-0.77597	0.58344	-0.22919	0.06943	27.5	13111	100
2025-3-27 20:10:44.926	WT901BLE68-01(48591DE3C19B)	-0.347	-0.814	0.267	-1.587	3.174	0.793	-77.41	13.08	-24.66	-69.482	-24.794	98.000	-0.77597	0.58344	-0.22919	0.06943	27.5	13111	100
2025-3-27 20:10:44.926	WT901BLE68-01(48591DE3C19B)	-0.347	-0.804	0.251	-1.404	5.005	4.761	-77.40	13.19	-24.72	-69.482	-24.794	98.000	-0.77597	0.58344	-0.22919	0.06943	27.5	13111	100
2025-3-27 20:10:44.961	WT901BLE68-01(48591DE3C19B)	-0.334	-0.804	0.251	-1.404	5.005	4.761	-77.39	13.30	-24.79	-69.482	-24.794	98.000	-0.77597	0.58344	-0.22919	0.06943	27.5	13111	100
2025-3-27 20:10:44.961	WT901BLE68-01(48591DE3C19B)	-0.334	-0.794	0.240	-1.099	7.446	8.484	-77.38	13.45	-24.87	-69.482	-24.794	98.000	-0.77597	0.58344	-0.22919	0.06943	27.5	13111	100
2025-3-27 20:10:44.961	WT901BLE68-01(48591DE3C19B)	-0.326	-0.794	0.240	-1.099	7.446	8.484	-77.37	13.60	-24.94	-69.482	-24.794	98.000	-0.77597	0.58344	-0.22919	0.06943	27.5	13111	100
2025-3-27 20:10:44.961	WT901BLE68-01(48591DE3C19B)	-0.326	-0.770	0.230	-0.916	9.460	11.597	-77.37	13.79	-25.03	-69.482	-24.794	98.000	-0.77597	0.58344	-0.22919	0.06943	27.5	13111	100
2025-3-27 20:10:45.15	WT901BLE68-01(48591DE3C19B)	-0.320	-0.770	0.230	-0.916	9.460	11.597	-77.36	13.97	-25.12	-69.482	-24.794	98.000	-0.77597	0.58344	-0.22919	0.06943	27.5	13111	100
2025-3-27 20:10:45.15	WT901BLE68-01(48591DE3C19B)	-0.320	-0.730	0.223	-1.282	10.803	13.550	-77.36	14.17	-25.22	-69.482	-24.794	98.000	-0.77277	0.58417	-0.22940	0.09384	27.5	13111	100
2025-3-27 20:10:45.15	WT901BLE68-01(48591DE3C19B)	-0.327	-0.730	0.223	-1.282	10.803	13.550	-77.36	14.38	-25.32	-69.482	-24.794	98.000	-0.77277	0.58417	-0.22940	0.09384	27.5	13111	100
2025-3-27 20:10:45.15	WT901BLE68-01(48591DE3C19B)	-0.327	-0.705	0.214	-2.441	10.132	14.709	-77.37	14.59	-25.41	-69.482	-24.794	98.000	-0.77277	0.58417	-0.22940	0.09384	27.5	13111	100
2025-3-27 20:10:45.43	WT901BLE68-01(48591DE3C19B)	-0.338	-0.705	0.214	-2.441	10.132	14.709	-77.39	14.80	-25.49	-69.482	-24.794	98.000	-0.77277	0.58417	-0.22940	0.09384	27.5	13111	100
2025-3-27 20:10:45.44	WT901BLE68-01(48591DE3C19B)	-0.338	-0.685	0.208	-3.357	6.287	15.686	-77.40	15.01	-25.54	-69.482	-24.794	98.000	-0.77277	0.58417	-0.22940	0.09384	27.5	13111	100
2025-3-27 20:10:45.44	WT901BLE68-01(48591DE3C19B)	-0.337	-0.685	0.208	-3.357	6.287	15.686	-77.41	15.23	-25.59	-69.482	-24.794	98.000	-0.77277	0.58417	-0.22940	0.09384	27.5	13111	100
2025-3-27 20:10:45.44	WT901BLE68-01(48591DE3C19B)	-0.337	-0.672	0.192	-4.700	0.793	16.724	-77.42	15.44	-25.58	-69.482	-24.794	98.000	-0.77277	0.58417	-0.22940	0.09384	27.5	13111	100
2025-3-27 20:10:45.104	WT901BLE68-01(48591DE3C19B)	-0.333	-0.672	0.192	-4.700	0.793	16.724	-77.43	15.65	-25.57	-69.482	-24.794	98.000	-0.77277	0.58417	-0.22940	0.09384	27.5	13111	100
2025-3-27 20:10:45.105	WT901BLE68-01(48591DE3C19B)	-0.333	-0.693	0.176	-7.019	-3.906	16.785	-77.45	15.85	-25.51	-69.482	-24.794	98.000	-0.77277	0.58417	-0.22940	0.09384	27.5	13111	100
2025-3-27 20:10:45.105	WT901BLE68-01(48591DE3C19B)	-0.335	-0.693	0.176	-7.019	-3.906	16.785	-77.48	16.05	-25.45	-69.482	-24.794	98.000	-0.77277	0.58417	-0.22940	0.09384	27.5	13111	100
2025-3-27 20:10:45.105	WT901BLE68-01(48591DE3C19B)	-0.340	-0.743	0.168	-8.301	-6.226	14.709	-77.51	16.23	-25.37	-69.482	-24.794	98.000	-0.77277	0.58417	-0.22940	0.09384	27.5	13111	100
2025-3-27 20:10:45.133	WT901BLE68-01(48591DE3C19B)	-0.340	-0.781	0.179	-8.484	-6.653	10.437	-77.54	16.38	-25.30	-69.482	-24.794	98.000	-0.77277	0.58417	-0.22940	0.09384	27.5	13111	100
2025-3-27 20:10:45.134	WT901BLE68-01(48591DE3C19B)	-0.348	-0.781	0.179	-8.484	-6.653	10.437	-77.58	16.51	-25.22	-69.482	-24.794	98.000	-0.77277	0.58417	-0.22940	0.09384	27.5	13111	100
2025-3-27 20:10:45.134	WT901BLE68-01(48591DE3C19B)	-0.348	-0.827	0.199	-7.996	-5.432	6.409	-77.62	16.62	-25.16	-69.482	-24.794	98.000	-0.77277	0.58417	-0.22940	0.09384	27.5	13111	100
2025-3-27 20:10:45.134	WT901BLE68-01(48591DE3C19B)	-0.332	-0.827	0.199	-7.996	-5.432	6.409	-77.66	16.72	-25.10	-69.482	-24.794	98.000	-0.77277	0.58417	-0.22940	0.09384	27.5	13111	100
2025-3-27 20:10:45.166	WT901BLE68-01(48591DE3C19B)	-0.332	-0.836	0.202	-4.639	-1.587	5.554	-77.70	16.80	-25.07	-69.482	-24.794	98.000	-0.77277	0.58417	-0.22940	0.09384	27.5	13111	100
2025-3-27 20:10:45.166	WT901BLE68-01(48591DE3C19B)	-0.279	-0.836	0.202	-4.639	-1.587	5.554	-77.72	16.89	-25.06	-69.482	-24.794	98.000	-0.77277	0.58417	-0.22940	0.09384	27.5	13111	100
2025-3-27 20:10:45.166	WT901BLE68-01(48591DE3C19B)	-0.279	-0.708	0.189	-1.282	6.165	9.460	-77.73	17.01	-25.08	-69.482	-24.794	98.000	-0.77277	0.58417	-0.22940	0.09384	27.5	13111	100
2025-3-27 20:10:45.166	WT901BLE68-01(48591DE3C19B)	-0.242	-0.708	0.189	-1.282	6.165	9.460	-77.74	17.14	-25.14	-69.482	-24.794	98.000	-0.77277	0.58417	-0.22940	0.09384	27.5	13111	100
2025-3-27 20:10:45.224	WT901BLE68-01(48591DE3C19B)	-0.242	-0.571	0.197	-2.808	15.808	15.442	-77.77	17.32	-25.24	-69.482	-24.794	98.000	-0.77277	0.58417	-0.22940	0.09384	27.5	13111	100
2025-3-27 20:10:45.224	WT901BLE68-01(48591DE3C19B)	-0.245	-0.571	0.197	-2.808	15.808	15.442	-77.82	17.53	-25.38	-71.344	-23.912	101.920	-0.77277	0.58417	-0.22940	0.09384	27.5	13111	100
2025-3-27 20:10:45.225	WT901BLE68-01(48591DE3C19B)	-0.245	-0.505	0.214	-6.287	18.250	21.851	-77.88	17.78	-25.53	-71.344	-23.912	101.920	-0.77277	0.58417	-0.22940	0.09384	27.5	13111	100
2025-3-27 20:10:45.225	WT901BLE68-01(48591DE3C19B)	-0.248	-0.505	0.214	-6.287	18.250	21.851	-77.96	18.06	-25.69	-71.344	-23.912	101.920	-0.77277	0.58417	-0.22940	0.09384	27.5	13111	100
2025-3-27 20:10:45.262	WT901BLE68-01(48591DE3C19B)	-0.248	-0.506	0.245	-13.672	8.057	28.687	-78.06	18.36	-25.78	-71.344	-23.912	101.920	-0.77277	0.58417	-0.22940	0.09384	27.5	13111	100
2025-3-27 20:10:45.262	WT901BLE68-01(48591DE3C19B)	-0.261	-0.506	0.245	-13.672	8.057	28.687	-78.17	18.68	-25.82	-71.344	-23.912	101.920	-0.77277	0.58417	-0.22940	0.09384	27.5	13111	100
2025-3-27 20:10:45.262	WT901BLE68-01(48591DE3C19B)	-0.261	-0.664	0.234	-24.719	-9.277	29.846	-78.31	18.99	-25.76	-71.344	-23.912	101.920	-0.77277	0.58417	-0.22940	0.09384	27.5	13111	100
2025-3-27 20:10:45.262	WT901BLE68-01(48591DE3C19B)	-0.371	-0.664	0.234	-24.719	-9.277	29.846	-78.46	19.29	-25.62	-71.344	-23.912	101.920	-0.77277	0.58417	-0.22940	0.09384	27.5	13111	100
2025-3-27 20:10:45.284	WT901BLE68-01(48591DE3C19B)	-0.371	-1.257	0.242	-42.603	-27.466	9.583	-78.68	19.46	-25.40	-71.344	-23.912	101.920	-0.77277	0.58417	-0.22940	0.09384	27.5	13111	100
2025-3-27 20:10:45.285	WT901BLE68-01(48591DE3C19B)	-0.697	-1.257	0.242	-42.603	-27.466	9.583	-78.97	19.51	-25.11	-71.344	-23.912	101.920	-0.77277	0.58417	-0.22940	0.09384	27.5	13111	100
2025-3-27 20:10:45.285	WT901BLE68-01(48591DE3C19B)	-2.789	-2.000	0.258	-23.987	-59.937	-2.258	-79.12	19.47	-24.66	-71.344	-23.912	101.920	-0.77277	0.58417	-0.22940	0.09384	27.5	13111	100
2025-3-27 20:10:45.285	WT901BLE68-01(48591DE3C19B)	-0.523	-8.000	1.032	-23.987	-59.937	-2.258	-79.15	19.34	-24.05	-71.344	-23.912	101.920	-0.77277	0.58417	-0.22940	0.09384	27.5	13111	100
2025-3-27 20:10:45.344	WT901BLE68-01(48591DE3C19B)	-0.523	-2.183	0.188	1.465	-90.454	-1.404	-79.01	19.18	-23.29	-71.344	-23.912	101.920	-0.77277	0.58417	-0.22940	0.09384	27.5	13111	100
2025-3-27 20:10:45.344	WT901BLE68-01(48591DE3C19B)	-0.228	-2.183	0.188	1.465	-90.454	-1.404	-78.70	18.99	-22.36	-71.344	-23.912	101.920	-0.77277	0.58417	-0.22940	0.09384	27.5	13111	100
2025-3-27 20:10:45.345	WT901BLE68-01(48591DE3C19B)	-0.228	-1.758	0.125	20.325	-86.853	10.132	-78.31	18.85	-21.45	-71.344	-23.912	101.920	-0.77277	0.58417	-0.22940	0.09384	27.5	13111	100
2025-3-27 20:10:45.345	WT901BLE68-01(48591DE3C19B)	-0.011	-1.758	0.125	20.325	-86.853	10.132	-77.82	18.76	-20.54	-71.344	-23.912	101.920	-0.77277	0.58417	-0.22940	0.09384	27.5	13111	100
2025-3-27 20:10:45.376	WT901BLE68-01(48591DE3C19B)	-0.011	-1.427	0.111	17.639	-39.734	13.245	-77.44	18.73	-19.88	-71.344	-23.912	101.920	-0.77277	0.58417	-0.22940	0.09384	27.5	13111	100
2025-3-27 20:10:45.376	WT901BLE68-01(48591DE3C19B)	-0.028	-1.427	0.111	17.639	-39.734	13.245	-77.15	18.75	-19.45	-71.344	-23.912	101.920	-0.77277	0.58417	-0.22940	0.09384	27.5	13111	100
2025-3-27 20:10:45.377	WT901BLE68-01(48591DE3C19B)	-0.028	-1.271	0.118	16.602	10.132	18.066	-76.95	18.85	-19.28	-71.344	-23.912	101.920	-0.77277	0.58417	-0.22940	0.09384	27.5	13111	100
2025-3-27 20:10:45.377	WT901BLE68-01(48591DE3C19B)	-0.071	-1.271	0.118	16.602	10.132	18.066	-76.84	19.01	-19.35	-71.344	-23.912	101.920	-0.77277	0.58417	-0.22940	0.09384	27.5	13111	100
2025-3-27 20:10:45.406	WT901BLE68-01(48591DE3C19B)	-0.071	-1.099	0.141	7.263	29.907	16.541	-76.82	19.19	-19.53	-71.344	-23.912	101.920	-0.77277	0.58417	-0.22940	0.09384	27.5	13111	100
2025-3-27 20:10:45.407	WT901BLE68-01(48591DE3C19B)	-0.037	-1.099	0.141	7.263	29.907	16.541	-76.87	19.37	-19.81	-71.344	-23.912	101.920	-0.77277	0.58417	-0.22940	0.09384	27.5	13111	100
2025-3-27 20:10:45.407	WT901BLE68-01(48591DE3C19B)	-0.037	-0.987	0.185	-2.258	47.668	5.310	-77.00	19.52	-20.20	-71.344	-23.912	101.920	-0.77713	0.58081	-0.23990	0.03250	27.5	13111	100
2025-3-27 20:10:45.407	WT901BLE68-01(48591DE3C19B)	-0.100	-0.987	0.185	-2.258	47.668	5.310	-77.22	19.63	-20.70	-71.344	-23.912	101.920	-0.77713	0.58081	-0.23990	0.03250	27.5	13111	100
2025-3-27 20:10:45.464	WT901BLE68-01(48591DE3C19B)	-0.100	-0.851	0.179	-1.953	71.228	-5.859	-77.48	19.70	-21.33	-71.344	-23.912	101.920	-0.77713	0.58081	-0.23990	0.03250	27.5	13111	100
2025-3-27 20:10:45.464	WT901BLE68-01(48591DE3C19B)	-0.195	-0.851	0.179	-1.953	71.228	-5.859	-77.78	19.74	-22.10	-71.344	-23.912	101.920	-0.77713	0.58081	-0.23990	0.03250	27.5	13111	100
2025-3-27 20:10:45.464	WT901BLE68-01(48591DE3C19B)	-0.195	-0.738	0.126	-2.075	92.346	-17.334	-78.12	19.75	-22.99	-71.344	-23.912	101.920	-0.77713	0.58081	-0.23990	0.03250	27.5	13111	100
2025-3-27 20:10:45.464	WT901BLE68-01(48591DE3C19B)	-0.229	-0.738	0.126	-2.075	92.346	-17.334	-78.50	19.71	-24.00	-71.344	-23.912	101.920	-0.77713	0.58081	-0.23990	0.03250	27.5	13111	100
2025-3-27 20:10:45.493	WT901BLE68-01(48591DE3C19B)	-0.229	-0.706	0.063	1.282	96.741	-28.687	-78.87	19.62	-25.04	-71.344	-23.912	101.920	-0.77713	0.58081	-0.23990	0.03250	27.5	13111	100
2025-3-27 20:10:45.493	WT901BLE68-01(48591DE3C19B)	-0.269	-0.706	0.063	1.282	96.741	-28.687	-79.23	19.47	-26.13	-71.344	-23.912	101.920	-0.77713	0.58081	-0.23990	0.03250	27.5	13111	100
2025-3-27 20:10:45.494	WT901BLE68-01(48591DE3C19B)	-0.269	-0.649	0.038	7.813	84.595	-35.339	-79.54	19.28	-27.14	-71.344	-23.912	101.920	-0.77713	0.58081	-0.23990	0.03250	27.5	13111	100
2025-3-27 20:10:45.494	WT901BLE68-01(48591DE3C19B)	-0.259	-0.649	0.038	7.813	84.595	-35.339	-79.78	19.04	-28.10	-71.344	-23.912	101.920	-0.77713	0.58081	-0.23990	0.03250	27.5	13111	100
2025-3-27 20:10:45.524	WT901BLE68-01(48591DE3C19B)	-0.259	-0.589	0.028	11.719	65.918	-33.630	-79.98	18.80	-28.96	-71.344	-23.912	101.920	-0.77713	0.58081	-0.23990	0.03250	27.5	13111	100
2025-3-27 20:10:45.524	WT901BLE68-01(48591DE3C19B)	-0.270	-0.589	0.028	11.719	65.918	-33.630	-80.12	18.55	-29.72	-71.344	-23.912	101.920	-0.77713	0.58081	-0.23990	0.03250	27.5	13111	100
2025-3-27 20:10:45.524	WT901BLE68-01(48591DE3C19B)	-0.270	-0.554	0.021	18.188	52.124	-26.001	-80.19	18.33	-30.39	-71.344	-23.912	101.920	-0.77713	0.58081	-0.23990	0.03250	27.5	13111	100
2025-3-27 20:10:45.524	WT901BLE68-01(48591DE3C19B)	-0.314	-0.554	0.021	18.188	52.124	-26.001	-80.22	18.14	-30.99	-71.344	-23.912	101.920	-0.77713	0.58081	-0.23990	0.03250	27.5	13111	100
2025-3-27 20:10:45.584	WT901BLE68-01(48591DE3C19B)	-0.314	-0.526	-0.004	22.766	35.156	-16.052	-80.19	18.00	-31.49	-71.344	-23.912	101.920	-0.77713	0.58081	-0.23990	0.03250	27.5	13111	100
2025-3-27 20:10:45.584	WT901BLE68-01(48591DE3C19B)	-0.277	-0.526	-0.004	22.766	35.156	-16.052	-80.10	17.89	-31.89	-71.344	-23.912	101.920	-0.77713	0.58081	-0.23990	0.03250	27.5	13111	100
2025-3-27 20:10:45.585	WT901BLE68-01(48591DE3C19B)	-0.277	-0.532	-0.041	22.827	20.325	-4.395	-79.97	17.89	-32.12	-71.344	-23.912	101.920	-0.77713	0.58081	-0.23990	0.03250	27.5	13111	100
2025-3-27 20:10:45.585	WT901BLE68-01(48591DE3C19B)	-0.182	-0.532	-0.041	22.827	20.325	-4.395	-79.84	17.88	-32.35	-71.344	-23.912	101.920	-0.77713	0.58081	-0.23990	0.03250	27.5	13111	100
2025-3-27 20:10:45.616	WT901BLE68-01(48591DE3C19B)	-0.182	-0.507	-0.042	26.489	18.005	10.254	-79.67	18.01	-32.53	-78.302	-21.952	105.350	-0.77713	0.58081	-0.23990	0.03250	27.5	13111	100
2025-3-27 20:10:45.616	WT901BLE68-01(48591DE3C19B)	-0.095	-0.507	-0.042	26.489	18.005	10.254	-79.49	18.15	-32.70	-78.302	-21.952	105.350	-0.77713	0.58081	-0.23990	0.03250	27.5	13111	100
2025-3-27 20:10:45.616	WT901BLE68-01(48591DE3C19B)	-0.095	-0.389	-0.013	29.846	30.884	26.794	-79.32	18.47	-32.98	-78.302	-21.952	105.350	-0.77713	0.58081	-0.23990	0.03250	27.5	13111	100
2025-3-27 20:10:45.616	WT901BLE68-01(48591DE3C19B)	-0.034	-0.389	-0.013	29.846	30.884	26.794	-79.16	18.79	-33.25	-78.302	-21.952	105.350	-0.77713	0.58081	-0.23990	0.03250	27.5	13111	100
2025-3-27 20:10:45.646	WT901BLE68-01(48591DE3C19B)	-0.034	-0.263	0.020	28.137	58.838	41.687	-79.10	19.30	-33.79	-78.302	-21.952	105.350	-0.77713	0.58081	-0.23990	0.03250	27.5	13111	100
2025-3-27 20:10:45.646	WT901BLE68-01(48591DE3C19B)	-0.064	-0.263	0.020	28.137	58.838	41.687	-79.04	19.81	-34.33	-78.302	-21.952	105.350	-0.77713	0.58081	-0.23990	0.03250	27.5	13111	100
2025-3-27 20:10:45.646	WT901BLE68-01(48591DE3C19B)	-0.064	-0.253	0.014	20.508	95.520	52.063	-79.19	20.48	-35.24	-78.302	-21.952	105.350	-0.77713	0.58081	-0.23990	0.03250	27.5	13111	100
2025-3-27 20:10:45.646	WT901BLE68-01(48591DE3C19B)	-0.169	-0.253	0.014	20.508	95.520	52.063	-79.35	21.15	-36.15	-78.302	-21.952	105.350	-0.77713	0.58081	-0.23990	0.03250	27.5	13111	100
2025-3-27 20:10:45.704	WT901BLE68-01(48591DE3C19B)	-0.169	-0.467	-0.032	6.470	127.136	54.871	-79.79	21.90	-37.40	-78.302	-21.952	105.350	-0.77713	0.58081	-0.23990	0.03250	27.5	13111	100
2025-3-27 20:10:45.704	WT901BLE68-01(48591DE3C19B)	-0.358	-0.467	-0.032	6.470	127.136	54.871	-80.25	22.63	-38.66	-78.302	-21.952	105.350	-0.77713	0.58081	-0.23990	0.03250	27.5	13111	100
2025-3-27 20:10:45.704	WT901BLE68-01(48591DE3C19B)	-0.358	-0.837	0.049	-4.883	135.559	45.593	-80.88	23.27	-40.05	-78.302	-21.952	105.350	-0.77713	0.58081	-0.23990	0.03250	27.5	13111	100
2025-3-27 20:10:45.705	WT901BLE68-01(48591DE3C19B)	-0.699	-0.837	0.049	-4.883	135.559	45.593	-81.52	23.90	-41.45	-78.302	-21.952	105.350	-0.77713	0.58081	-0.23990	0.03250	27.5	13111	100
2025-3-27 20:10:45.733	WT901BLE68-01(48591DE3C19B)	-0.699	-1.391	0.191	-3.723	109.375	15.625	-82.06	24.19	-42.62	-78.302	-21.952	105.350	-0.77713	0.58081	-0.23990	0.03250	27.5	13111	100
2025-3-27 20:10:45.733	WT901BLE68-01(48591DE3C19B)	-0.999	-1.391	0.191	-3.723	109.375	15.625	-82.60	24.47	-43.80	-78.302	-21.952	105.350	-0.77713	0.58081	-0.23990	0.03250	27.5	13111	100
2025-3-27 20:10:45.733	WT901BLE68-01(48591DE3C19B)	-0.999	-2.137	0.271	-1.770	62.500	-38.391	-82.94	24.15	-44.54	-78.302	-21.952	105.350	-0.77713	0.58081	-0.23990	0.03250	27.5	13111	100
2025-3-27 20:10:45.733	WT901BLE68-01(48591DE3C19B)	-1.268	-2.137	0.271	-1.770	62.500	-38.391	-83.26	23.85	-45.29	-78.302	-21.952	105.350	-0.77713	0.58081	-0.23990	0.03250	27.5	13111	100
2025-3-27 20:10:45.766	WT901BLE68-01(48591DE3C19B)	-1.268	-2.849	0.227	-1.709	13.062	-51.392	-83.37	23.35	-45.51	-78.302	-21.952	105.350	-0.77713	0.58081	-0.23990	0.03250	27.5	13111	100
2025-3-27 20:10:45.766	WT901BLE68-01(48591DE3C19B)	-1.127	-2.849	0.227	-1.709	13.062	-51.392	-83.47	22.86	-45.72	-78.302	-21.952	105.350	-0.77713	0.58081	-0.23990	0.03250	27.5	13111	100
2025-3-27 20:10:45.766	WT901BLE68-01(48591DE3C19B)	-1.127	-1.783	0.308	18.921	-2.686	-65.002	-83.31	22.22	-45.78	-78.302	-21.952	105.350	-0.77713	0.58081	-0.23990	0.03250	27.5	13111	100
2025-3-27 20:10:45.766	WT901BLE68-01(48591DE3C19B)	-0.813	-1.783	0.308	18.921	-2.686	-65.002	-83.14	21.59	-45.85	-78.302	-21.952	105.350	-0.77713	0.58081	-0.23990	0.03250	27.5	13111	100
2025-3-27 20:10:45.824	WT901BLE68-01(48591DE3C19B)	-0.813	-1.068	0.540	-11.169	-14.465	-44.006	-83.22	21.17	-45.76	-78.302	-21.952	105.350	-0.77713	0.58081	-0.23990	0.03250	27.5	13111	100
2025-3-27 20:10:45.824	WT901BLE68-01(48591DE3C19B)	-0.576	-1.068	0.540	-11.169	-14.465	-44.006	-83.28	20.75	-45.67	-78.302	-21.952	105.350	-0.72369	0.55148	-0.37643	0.17416	27.5	13111	100
2025-3-27 20:10:45.824	WT901BLE68-01(48591DE3C19B)	-0.576	-0.728	0.654	-29.724	-35.950	-18.799	-83.42	20.56	-45.32	-78.302	-21.952	105.350	-0.72369	0.55148	-0.37643	0.17416	27.5	13111	100
2025-3-27 20:10:45.824	WT901BLE68-01(48591DE3C19B)	-0.492	-0.728	0.654	-29.724	-35.950	-18.799	-83.56	20.38	-44.98	-78.302	-21.952	105.350	-0.72369	0.55148	-0.37643	0.17416	27.5	13111	100
2025-3-27 20:10:45.884	WT901BLE68-01(48591DE3C19B)	-0.492	-0.648	0.613	-47.668	-86.975	7.446	-83.66	20.40	-44.06	-78.302	-21.952	105.350	-0.72369	0.55148	-0.37643	0.17416	27.5	13111	100
2025-3-27 20:10:45.884	WT901BLE68-01(48591DE3C19B)	-0.373	-0.648	0.613	-47.668	-86.975	7.446	-83.74	20.43	-43.14	-78.302	-21.952	105.350	-0.72369	0.55148	-0.37643	0.17416	27.5	13111	100
2025-3-27 20:10:45.885	WT901BLE68-01(48591DE3C19B)	-0.373	-0.791	0.431	-53.650	-151.367	16.296	-83.64	20.47	-41.53	-78.302	-21.952	105.350	-0.72369	0.55148	-0.37643	0.17416	27.5	13111	100
2025-3-27 20:10:45.885	WT901BLE68-01(48591DE3C19B)	-0.265	-0.791	0.431	-53.650	-151.367	16.296	-83.53	20.51	-39.92	-78.302	-21.952	105.350	-0.72369	0.55148	-0.37643	0.17416	27.5	13111	100
2025-3-27 20:10:45.886	WT901BLE68-01(48591DE3C19B)	-0.265	-0.790	0.186	-24.292	-147.705	27.161	-83.14	20.65	-38.33	-78.302	-21.952	105.350	-0.72369	0.55148	-0.37643	0.17416	27.5	13111	100
2025-3-27 20:10:45.886	WT901BLE68-01(48591DE3C19B)	-0.197	-0.790	0.186	-24.292	-147.705	27.161	-82.75	20.77	-36.74	-78.302	-21.952	105.350	-0.72369	0.55148	-0.37643	0.17416	27.5	13111	100
2025-3-27 20:10:45.886	WT901BLE68-01(48591DE3C19B)	-0.197	-0.632	0.054	-3.723	-86.731	23.071	-82.39	20.92	-35.80	-78.302	-21.952	105.350	-0.72369	0.55148	-0.37643	0.17416	27.5	13111	100
2025-3-27 20:10:45.886	WT901BLE68-01(48591DE3C19B)	-0.115	-0.632	0.054	-3.723	-86.731	23.071	-82.02	21.06	-34.85	-78.302	-21.952	105.350	-0.72369	0.55148	-0.37643	0.17416	27.5	13111	100
2025-3-27 20:10:45.944	WT901BLE68-01(48591DE3C19B)	-0.115	-0.545	0.028	5.310	-8.850	19.104	-81.88	21.26	-34.74	-78.302	-21.952	105.350	-0.72369	0.55148	-0.37643	0.17416	27.5	13111	100
2025-3-27 20:10:45.944	WT901BLE68-01(48591DE3C19B)	-0.149	-0.545	0.028	5.310	-8.850	19.104	-81.74	21.45	-34.63	-78.302	-21.952	105.350	-0.72369	0.55148	-0.37643	0.17416	27.5	13111	100
2025-3-27 20:10:45.944	WT901BLE68-01(48591DE3C19B)	-0.149	-0.527	0.079	11.230	56.641	16.174	-81.80	21.70	-35.21	-78.302	-21.952	105.350	-0.72369	0.55148	-0.37643	0.17416	27.5	13111	100
2025-3-27 20:10:45.944	WT901BLE68-01(48591DE3C19B)	-0.287	-0.527	0.079	11.230	56.641	16.174	-81.86	21.96	-35.80	-78.302	-21.952	105.350	-0.72369	0.55148	-0.37643	0.17416	27.5	13111	100
2025-3-27 20:10:45.976	WT901BLE68-01(48591DE3C19B)	-0.287	-0.535	0.133	15.930	89.111	7.935	-82.02	22.16	-36.74	-78.302	-21.952	105.350	-0.72369	0.55148	-0.37643	0.17416	27.5	13111	100
2025-3-27 20:10:45.976	WT901BLE68-01(48591DE3C19B)	-0.387	-0.535	0.133	15.930	89.111	7.935	-82.17	22.37	-37.69	-78.302	-21.952	105.350	-0.72369	0.55148	-0.37643	0.17416	27.5	13111	100
2025-3-27 20:10:45.976	WT901BLE68-01(48591DE3C19B)	-0.387	-0.442	0.147	18.616	84.167	4.578	-82.29	22.55	-38.59	-78.302	-21.952	105.350	-0.72369	0.55148	-0.37643	0.17416	27.5	13111	100
2025-3-27 20:10:45.976	WT901BLE68-01(48591DE3C19B)	-0.419	-0.442	0.147	18.616	84.167	4.578	-82.40	22.72	-39.50	-78.302	-21.952	105.350	-0.72369	0.55148	-0.37643	0.17416	27.5	13111	100
2025-3-27 20:10:46.6	WT901BLE68-01(48591DE3C19B)	-0.419	-0.256	0.114	11.169	50.964	8.484	-82.46	22.90	-40.05	-78.302	-21.952	105.350	-0.72369	0.55148	-0.37643	0.17416	27.5	13111	100
2025-3-27 20:10:46.6	WT901BLE68-01(48591DE3C19B)	-0.321	-0.256	0.114	11.169	50.964	8.484	-82.51	23.09	-40.59	-78.302	-21.952	105.350	-0.72369	0.55148	-0.37643	0.17416	27.5	13111	100
2025-3-27 20:10:46.6	WT901BLE68-01(48591DE3C19B)	-0.220	-0.142	0.090	-7.324	3.479	15.930	-82.53	23.30	-40.61	-85.750	-19.796	107.114	-0.72369	0.55148	-0.37643	0.17416	27.5	13111	100
2025-3-27 20:10:46.6	WT901BLE68-01(48591DE3C19B)	-0.220	-0.208	0.102	-24.719	-38.147	19.409	-82.56	23.50	-40.41	-85.750	-19.796	107.114	-0.72369	0.55148	-0.37643	0.17416	27.5	13111	100
2025-3-27 20:10:46.64	WT901BLE68-01(48591DE3C19B)	-0.237	-0.208	0.102	-24.719	-38.147	19.409	-82.57	23.70	-39.98	-85.750	-19.796	107.114	-0.72369	0.55148	-0.37643	0.17416	27.5	13111	100
2025-3-27 20:10:46.64	WT901BLE68-01(48591DE3C19B)	-0.237	-0.487	0.136	-36.072	-64.575	19.043	-82.58	23.88	-39.40	-85.750	-19.796	107.114	-0.72369	0.55148	-0.37643	0.17416	27.5	13111	100
2025-3-27 20:10:46.64	WT901BLE68-01(48591DE3C19B)	-0.410	-0.487	0.136	-36.072	-64.575	19.043	-82.60	24.03	-38.68	-85.750	-19.796	107.114	-0.72369	0.55148	-0.37643	0.17416	27.5	13111	100
2025-3-27 20:10:46.64	WT901BLE68-01(48591DE3C19B)	-0.410	-0.947	0.188	-35.889	-86.243	16.663	-82.56	24.16	-37.85	-85.750	-19.796	107.114	-0.72369	0.55148	-0.37643	0.17416	27.5	13111	100
2025-3-27 20:10:46.94	WT901BLE68-01(48591DE3C19B)	-0.569	-0.947	0.188	-35.889	-86.243	16.663	-82.47	24.25	-36.89	-85.750	-19.796	107.114	-0.72369	0.55148	-0.37643	0.17416	27.5	13111	100
2025-3-27 20:10:46.94	WT901BLE68-01(48591DE3C19B)	-0.569	-1.667	0.123	-36.682	-100.403	3.296	-82.37	24.25	-35.87	-85.750	-19.796	107.114	-0.72369	0.55148	-0.37643	0.17416	27.5	13111	100
2025-3-27 20:10:46.94	WT901BLE68-01(48591DE3C19B)	-0.507	-1.667	0.123	-36.682	-100.403	3.296	-82.26	24.16	-34.78	-85.750	-19.796	107.114	-0.72369	0.55148	-0.37643	0.17416	27.5	13111	100
2025-3-27 20:10:46.94	WT901BLE68-01(48591DE3C19B)	-0.507	-2.396	-0.018	-22.156	-91.858	-6.348	-82.12	24.02	-33.74	-85.750	-19.796	107.114	-0.72369	0.55148	-0.37643	0.17416	27.5	13111	100
2025-3-27 20:10:46.160	WT901BLE68-01(48591DE3C19B)	-0.359	-2.396	-0.018	-22.156	-91.858	-6.348	-81.94	23.82	-32.76	-85.750	-19.796	107.114	-0.72369	0.55148	-0.37643	0.17416	27.5	13111	100
2025-3-27 20:10:46.160	WT901BLE68-01(48591DE3C19B)	-0.359	-2.453	-0.088	12.024	-72.815	1.831	-81.65	23.65	-31.87	-85.750	-19.796	107.114	-0.72369	0.55148	-0.37643	0.17416	27.5	13111	100
2025-3-27 20:10:46.160	WT901BLE68-01(48591DE3C19B)	-0.240	-2.453	-0.088	12.024	-72.815	1.831	-81.24	23.53	-31.09	-85.750	-19.796	107.114	-0.72369	0.55148	-0.37643	0.17416	27.5	13111	100
2025-3-27 20:10:46.160	WT901BLE68-01(48591DE3C19B)	-0.240	-1.803	-0.045	23.315	-43.396	-1.465	-80.85	23.40	-30.47	-85.750	-19.796	107.114	-0.72369	0.55148	-0.37643	0.17416	27.5	13111	100
2025-3-27 20:10:46.186	WT901BLE68-01(48591DE3C19B)	-0.143	-1.803	-0.045	23.315	-43.396	-1.465	-80.47	23.26	-30.01	-85.750	-19.796	107.114	-0.72369	0.55148	-0.37643	0.17416	27.5	13111	100
2025-3-27 20:10:46.186	WT901BLE68-01(48591DE3C19B)	-0.143	-1.580	0.060	15.137	-15.442	2.563	-80.21	23.16	-29.70	-85.750	-19.796	107.114	-0.72369	0.55148	-0.37643	0.17416	27.5	13111	100
2025-3-27 20:10:46.186	WT901BLE68-01(48591DE3C19B)	-0.115	-1.580	0.060	15.137	-15.442	2.563	-80.04	23.10	-29.54	-85.750	-19.796	107.114	-0.72369	0.55148	-0.37643	0.17416	27.5	13111	100
2025-3-27 20:10:46.187	WT901BLE68-01(48591DE3C19B)	-0.115	-1.231	0.207	9.521	7.751	9.521	-79.94	23.09	-29.49	-85.750	-19.796	107.114	-0.72369	0.55148	-0.37643	0.17416	27.5	13111	100
2025-3-27 20:10:46.216	WT901BLE68-01(48591DE3C19B)	-0.112	-1.231	0.207	9.521	7.751	9.521	-79.91	23.14	-29.56	-85.750	-19.796	107.114	-0.72369	0.55148	-0.37643	0.17416	27.5	13111	100
2025-3-27 20:10:46.216	WT901BLE68-01(48591DE3C19B)	-0.112	-0.900	0.330	-2.747	17.578	5.249	-79.97	23.16	-29.69	-85.750	-19.796	107.114	-0.72369	0.55148	-0.37643	0.17416	27.5	13111	100
2025-3-27 20:10:46.216	WT901BLE68-01(48591DE3C19B)	-0.229	-0.900	0.330	-2.747	17.578	5.249	-80.10	23.17	-29.88	-85.750	-19.796	107.114	-0.72369	0.55148	-0.37643	0.17416	27.5	13111	100
2025-3-27 20:10:46.216	WT901BLE68-01(48591DE3C19B)	-0.229	-0.734	0.349	-9.521	21.484	-7.690	-80.27	23.12	-30.10	-85.750	-19.796	107.114	-0.75684	0.57004	-0.31189	0.06973	27.5	13111	100
2025-3-27 20:10:46.245	WT901BLE68-01(48591DE3C19B)	-0.321	-0.734	0.349	-9.521	21.484	-7.690	-80.47	23.01	-30.34	-85.750	-19.796	107.114	-0.75684	0.57004	-0.31189	0.06973	27.5	13111	100
2025-3-27 20:10:46.246	WT901BLE68-01(48591DE3C19B)	-0.321	-0.601	0.279	-9.460	16.907	-17.273	-80.66	22.85	-30.57	-85.750	-19.796	107.114	-0.75684	0.57004	-0.31189	0.06973	27.5	13111	100
2025-3-27 20:10:46.246	WT901BLE68-01(48591DE3C19B)	-0.334	-0.601	0.279	-9.460	16.907	-17.273	-80.84	22.64	-30.79	-85.750	-19.796	107.114	-0.75684	0.57004	-0.31189	0.06973	27.5	13111	100
2025-3-27 20:10:46.246	WT901BLE68-01(48591DE3C19B)	-0.334	-0.457	0.193	-3.601	14.221	-21.484	-80.97	22.42	-30.99	-85.750	-19.796	107.114	-0.75684	0.57004	-0.31189	0.06973	27.5	13111	100
2025-3-27 20:10:46.303	WT901BLE68-01(48591DE3C19B)	-0.360	-0.457	0.193	-3.601	14.221	-21.484	-81.07	22.19	-31.18	-85.750	-19.796	107.114	-0.75684	0.57004	-0.31189	0.06973	27.5	13111	100
2025-3-27 20:10:46.303	WT901BLE68-01(48591DE3C19B)	-0.360	-0.291	0.140	1.648	4.517	-22.278	-81.12	21.95	-31.32	-85.750	-19.796	107.114	-0.75684	0.57004	-0.31189	0.06973	27.5	13111	100
2025-3-27 20:10:46.303	WT901BLE68-01(48591DE3C19B)	-0.305	-0.291	0.140	1.648	4.517	-22.278	-81.12	21.71	-31.40	-85.750	-19.796	107.114	-0.75684	0.57004	-0.31189	0.06973	27.5	13111	100
2025-3-27 20:10:46.303	WT901BLE68-01(48591DE3C19B)	-0.305	-0.192	0.113	1.160	-12.329	-15.320	-81.08	21.50	-31.40	-85.750	-19.796	107.114	-0.75684	0.57004	-0.31189	0.06973	27.5	13111	100
2025-3-27 20:10:46.334	WT901BLE68-01(48591DE3C19B)	-0.226	-0.192	0.113	1.160	-12.329	-15.320	-81.01	21.32	-31.29	-85.750	-19.796	107.114	-0.75684	0.57004	-0.31189	0.06973	27.5	13111	100
2025-3-27 20:10:46.334	WT901BLE68-01(48591DE3C19B)	-0.226	-0.186	0.097	1.038	-22.278	-6.653	-80.91	21.19	-31.14	-85.750	-19.796	107.114	-0.75684	0.57004	-0.31189	0.06973	27.5	13111	100
2025-3-27 20:10:46.334	WT901BLE68-01(48591DE3C19B)	-0.244	-0.186	0.097	1.038	-22.278	-6.653	-80.79	21.09	-30.91	-85.750	-19.796	107.114	-0.75684	0.57004	-0.31189	0.06973	27.5	13111	100
2025-3-27 20:10:46.334	WT901BLE68-01(48591DE3C19B)	-0.244	-0.181	0.145	10.742	-33.936	2.747	-80.60	21.04	-30.62	-85.750	-19.796	107.114	-0.75684	0.57004	-0.31189	0.06973	27.5	13111	100
2025-3-27 20:10:46.363	WT901BLE68-01(48591DE3C19B)	-0.287	-0.181	0.145	10.742	-33.936	2.747	-80.33	21.04	-30.26	-85.750	-19.796	107.114	-0.75684	0.57004	-0.31189	0.06973	27.5	13111	100
2025-3-27 20:10:46.363	WT901BLE68-01(48591DE3C19B)	-0.287	-0.152	0.228	18.982	-56.702	17.395	-79.97	21.09	-29.77	-85.750	-19.796	107.114	-0.75684	0.57004	-0.31189	0.06973	27.5	13111	100
2025-3-27 20:10:46.363	WT901BLE68-01(48591DE3C19B)	-0.264	-0.152	0.228	18.982	-56.702	17.395	-79.50	21.20	-29.14	-85.750	-19.796	107.114	-0.75684	0.57004	-0.31189	0.06973	27.5	13111	100
2025-3-27 20:10:46.363	WT901BLE68-01(48591DE3C19B)	-0.264	-0.245	0.151	8.118	-71.289	21.606	-79.06	21.32	-28.43	-85.750	-19.796	107.114	-0.75684	0.57004	-0.31189	0.06973	27.5	13111	100
2025-3-27 20:10:46.424	WT901BLE68-01(48591DE3C19B)	-0.156	-0.245	0.151	8.118	-71.289	21.606	-78.63	21.44	-27.65	-85.750	-19.796	107.114	-0.75684	0.57004	-0.31189	0.06973	27.5	13111	100
2025-3-27 20:10:46.424	WT901BLE68-01(48591DE3C19B)	-0.156	-0.587	-0.048	-9.277	-49.377	10.193	-78.34	21.53	-26.98	-85.750	-19.796	107.114	-0.75684	0.57004	-0.31189	0.06973	27.5	13111	100
2025-3-27 20:10:46.425	WT901BLE68-01(48591DE3C19B)	-0.339	-0.587	-0.048	-9.277	-49.377	10.193	-78.21	21.57	-26.44	-85.750	-19.796	107.114	-0.75684	0.57004	-0.31189	0.06973	27.5	13111	100
2025-3-27 20:10:46.425	WT901BLE68-01(48591DE3C19B)	-0.339	-1.083	0.003	-18.555	-21.790	-4.944	-78.19	21.56	-26.07	-85.750	-19.796	107.114	-0.75684	0.57004	-0.31189	0.06973	27.5	13111	100
2025-3-27 20:10:46.453	WT901BLE68-01(48591DE3C19B)	-0.645	-1.083	0.003	-18.555	-21.790	-4.944	-78.29	21.49	-25.85	-67.914	-19.012	109.074	-0.75684	0.57004	-0.31189	0.06973	27.5	13111	100
2025-3-27 20:10:46.453	WT901BLE68-01(48591DE3C19B)	-0.645	-1.832	0.136	-23.987	-26.550	-30.762	-78.44	21.29	-25.63	-67.914	-19.012	109.074	-0.75684	0.57004	-0.31189	0.06973	27.5	13111	100
2025-3-27 20:10:46.453	WT901BLE68-01(48591DE3C19B)	-0.805	-1.832	0.136	-23.987	-26.550	-30.762	-78.62	20.95	-25.42	-67.914	-19.012	109.074	-0.75684	0.57004	-0.31189	0.06973	27.5	13111	100
2025-3-27 20:10:46.453	WT901BLE68-01(48591DE3C19B)	-0.805	-2.413	0.384	-8.301	-39.185	-42.358	-78.71	20.53	-25.15	-67.914	-19.012	109.074	-0.75684	0.57004	-0.31189	0.06973	27.5	13111	100
2025-3-27 20:10:46.484	WT901BLE68-01(48591DE3C19B)	-0.925	-2.413	0.384	-8.301	-39.185	-42.358	-78.70	20.04	-24.83	-67.914	-19.012	109.074	-0.75684	0.57004	-0.31189	0.06973	27.5	13111	100
2025-3-27 20:10:46.484	WT901BLE68-01(48591DE3C19B)	-0.925	-1.961	0.705	13.428	-35.034	-43.030	-78.49	19.57	-24.55	-67.914	-19.012	109.074	-0.75684	0.57004	-0.31189	0.06973	27.5	13111	100
2025-3-27 20:10:46.484	WT901BLE68-01(48591DE3C19B)	-0.787	-1.961	0.705	13.428	-35.034	-43.030	-78.26	19.09	-24.28	-67.914	-19.012	109.074	-0.75684	0.57004	-0.31189	0.06973	27.5	13111	100
2025-3-27 20:10:46.484	WT901BLE68-01(48591DE3C19B)	-0.787	-1.431	0.746	9.460	-14.343	-23.071	-78.13	18.86	-24.19	-67.914	-19.012	109.074	-0.75684	0.57004	-0.31189	0.06973	27.5	13111	100
2025-3-27 20:10:46.544	WT901BLE68-01(48591DE3C19B)	-0.504	-1.431	0.746	9.460	-14.343	-23.071	-77.99	18.63	-24.09	-67.914	-19.012	109.074	-0.75684	0.57004	-0.31189	0.06973	27.5	13111	100
2025-3-27 20:10:46.544	WT901BLE68-01(48591DE3C19B)	-0.504	-1.126	0.602	10.254	14.893	1.770	-77.90	18.70	-24.24	-67.914	-19.012	109.074	-0.75684	0.57004	-0.31189	0.06973	27.5	13111	100
2025-3-27 20:10:46.544	WT901BLE68-01(48591DE3C19B)	-0.098	-1.126	0.602	10.254	14.893	1.770	-77.82	18.78	-24.39	-67.914	-19.012	109.074	-0.75684	0.57004	-0.31189	0.06973	27.5	13111	100
2025-3-27 20:10:46.544	WT901BLE68-01(48591DE3C19B)	-0.098	-0.922	0.392	-0.061	20.020	22.644	-77.84	19.06	-24.55	-67.914	-19.012	109.074	-0.75684	0.57004	-0.31189	0.06973	27.5	13111	100
2025-3-27 20:10:46.576	WT901BLE68-01(48591DE3C19B)	-0.002	-0.922	0.392	-0.061	20.020	22.644	-77.85	19.33	-24.70	-67.914	-19.012	109.074	-0.75684	0.57004	-0.31189	0.06973	27.5	13111	100
2025-3-27 20:10:46.576	WT901BLE68-01(48591DE3C19B)	-0.002	-0.915	0.300	-7.813	12.573	32.837	-77.91	19.68	-24.76	-67.914	-19.012	109.074	-0.75684	0.57004	-0.31189	0.06973	27.5	13111	100
2025-3-27 20:10:46.576	WT901BLE68-01(48591DE3C19B)	-0.165	-0.915	0.300	-7.813	12.573	32.837	-77.97	20.01	-24.82	-67.914	-19.012	109.074	-0.75684	0.57004	-0.31189	0.06973	27.5	13111	100
2025-3-27 20:10:46.576	WT901BLE68-01(48591DE3C19B)	-0.165	-0.982	0.234	1.465	8.240	35.767	-77.92	20.36	-24.82	-67.914	-19.012	109.074	-0.75684	0.57004	-0.31189	0.06973	27.5	13111	100
2025-3-27 20:10:46.634	WT901BLE68-01(48591DE3C19B)	-0.279	-0.982	0.234	1.465	8.240	35.767	-77.87	20.70	-24.82	-67.914	-19.012	109.074	-0.75684	0.57004	-0.31189	0.06973	27.5	13111	100
2025-3-27 20:10:46.634	WT901BLE68-01(48591DE3C19B)	-0.279	-0.856	0.143	11.169	18.250	35.034	-77.77	21.06	-24.93	-67.914	-19.012	109.074	-0.77216	0.57101	-0.27347	0.05270	27.5	13111	100
2025-3-27 20:10:46.634	WT901BLE68-01(48591DE3C19B)	-0.212	-0.856	0.143	11.169	18.250	35.034	-77.67	21.41	-25.04	-67.914	-19.012	109.074	-0.77216	0.57101	-0.27347	0.05270	27.5	13111	100
2025-3-27 20:10:46.634	WT901BLE68-01(48591DE3C19B)	-0.212	-0.693	0.093	21.057	55.786	22.949	-77.63	21.72	-25.58	-67.914	-19.012	109.074	-0.77216	0.57101	-0.27347	0.05270	27.5	13111	100
2025-3-27 20:10:46.665	WT901BLE68-01(48591DE3C19B)	-0.212	-0.693	0.093	21.057	55.786	22.949	-77.61	22.03	-26.10	-67.914	-19.012	109.074	-0.77216	0.57101	-0.27347	0.05270	27.5	13111	100
2025-3-27 20:10:46.665	WT901BLE68-01(48591DE3C19B)	-0.212	-0.528	0.097	26.855	103.271	17.700	-77.72	22.40	-27.15	-67.914	-19.012	109.074	-0.77216	0.57101	-0.27347	0.05270	27.5	13111	100
2025-3-27 20:10:46.665	WT901BLE68-01(48591DE3C19B)	-0.337	-0.528	0.097	26.855	103.271	17.700	-77.84	22.75	-28.20	-67.914	-19.012	109.074	-0.77216	0.57101	-0.27347	0.05270	27.5	13111	100
2025-3-27 20:10:46.665	WT901BLE68-01(48591DE3C19B)	-0.337	-0.350	0.186	33.875	116.699	20.569	-77.94	23.16	-29.39	-67.914	-19.012	109.074	-0.77216	0.57101	-0.27347	0.05270	27.5	13111	100
2025-3-27 20:10:46.694	WT901BLE68-01(48591DE3C19B)	-0.398	-0.350	0.186	33.875	116.699	20.569	-78.06	23.59	-30.58	-67.914	-19.012	109.074	-0.77216	0.57101	-0.27347	0.05270	27.5	13111	100
2025-3-27 20:10:46.694	WT901BLE68-01(48591DE3C19B)	-0.398	-0.104	0.251	33.752	84.961	29.968	-78.03	24.04	-31.42	-67.914	-19.012	109.074	-0.77216	0.57101	-0.27347	0.05270	27.5	13111	100
2025-3-27 20:10:46.694	WT901BLE68-01(48591DE3C19B)	-0.401	-0.104	0.251	33.752	84.961	29.968	-78.00	24.51	-32.26	-67.914	-19.012	109.074	-0.77216	0.57101	-0.27347	0.05270	27.5	13111	100
2025-3-27 20:10:46.694	WT901BLE68-01(48591DE3C19B)	-0.401	0.024	0.249	18.311	40.405	39.429	-77.90	24.98	-32.60	-67.914	-19.012	109.074	-0.77216	0.57101	-0.27347	0.05270	27.5	13111	100
2025-3-27 20:10:46.760	WT901BLE68-01(48591DE3C19B)	-0.425	0.024	0.249	18.311	40.405	39.429	-77.81	25.47	-32.94	-67.914	-19.012	109.074	-0.77216	0.57101	-0.27347	0.05270	27.5	13111	100
2025-3-27 20:10:46.760	WT901BLE68-01(48591DE3C19B)	-0.425	-0.110	0.190	-2.991	-12.207	46.875	-77.66	25.94	-32.70	-67.914	-19.012	109.074	-0.77216	0.57101	-0.27347	0.05270	27.5	13111	100
2025-3-27 20:10:46.760	WT901BLE68-01(48591DE3C19B)	-0.395	-0.110	0.190	-2.991	-12.207	46.875	-77.50	26.41	-32.45	-67.914	-19.012	109.074	-0.77216	0.57101	-0.27347	0.05270	27.5	13111	100
2025-3-27 20:10:46.760	WT901BLE68-01(48591DE3C19B)	-0.395	-0.433	0.140	-23.376	-68.665	48.401	-77.27	26.78	-31.59	-67.914	-19.012	109.074	-0.77216	0.57101	-0.27347	0.05270	27.5	13111	100
2025-3-27 20:10:46.786	WT901BLE68-01(48591DE3C19B)	-0.355	-0.433	0.140	-23.376	-68.665	48.401	-77.04	27.15	-30.71	-67.914	-19.012	109.074	-0.77216	0.57101	-0.27347	0.05270	27.5	13111	100
2025-3-27 20:10:46.786	WT901BLE68-01(48591DE3C19B)	-0.355	-0.858	0.076	-41.199	-104.187	36.987	-76.84	27.32	-29.47	-67.914	-19.012	109.074	-0.77216	0.57101	-0.27347	0.05270	27.5	13111	100
2025-3-27 20:10:46.786	WT901BLE68-01(48591DE3C19B)	-0.398	-0.858	0.076	-41.199	-104.187	36.987	-76.64	27.47	-28.22	-67.914	-19.012	109.074	-0.77216	0.57101	-0.27347	0.05270	27.5	13111	100
2025-3-27 20:10:46.786	WT901BLE68-01(48591DE3C19B)	-0.398	-1.583	0.110	-45.898	-114.014	12.024	-76.49	27.34	-26.94	-67.914	-19.012	109.074	-0.77216	0.57101	-0.27347	0.05270	27.5	13111	100
2025-3-27 20:10:46.844	WT901BLE68-01(48591DE3C19B)	-0.467	-1.583	0.110	-45.898	-114.014	12.024	-76.37	27.19	-25.65	-67.914	-19.012	109.074	-0.77216	0.57101	-0.27347	0.05270	27.5	13111	100
2025-3-27 20:10:46.844	WT901BLE68-01(48591DE3C19B)	-0.467	-2.505	0.127	-25.757	-107.361	-10.742	-76.12	26.80	-24.50	-67.914	-19.012	109.074	-0.77216	0.57101	-0.27347	0.05270	27.5	13111	100
2025-3-27 20:10:46.844	WT901BLE68-01(48591DE3C19B)	-0.507	-2.505	0.127	-25.757	-107.361	-10.742	-75.90	26.40	-23.36	-60.074	-14.700	100.254	-0.77216	0.57101	-0.27347	0.05270	27.5	13111	100
2025-3-27 20:10:46.844	WT901BLE68-01(48591DE3C19B)	-0.507	-2.417	0.203	25.146	-86.243	-6.165	-75.28	26.08	-22.43	-60.074	-14.700	100.254	-0.77216	0.57101	-0.27347	0.05270	27.5	13111	100
2025-3-27 20:10:46.873	WT901BLE68-01(48591DE3C19B)	-0.406	-2.417	0.203	25.146	-86.243	-6.165	-74.68	25.75	-21.52	-60.074	-14.700	100.254	-0.77216	0.57101	-0.27347	0.05270	27.5	13111	100
2025-3-27 20:10:46.873	WT901BLE68-01(48591DE3C19B)	-0.406	-1.763	0.205	23.193	-42.358	-17.944	-74.32	25.41	-21.12	-60.074	-14.700	100.254	-0.77216	0.57101	-0.27347	0.05270	27.5	13111	100
2025-3-27 20:10:46.873	WT901BLE68-01(48591DE3C19B)	-0.209	-1.763	0.205	23.193	-42.358	-17.944	-73.98	25.07	-20.71	-60.074	-14.700	100.254	-0.77216	0.57101	-0.27347	0.05270	27.5	13111	100
2025-3-27 20:10:46.873	WT901BLE68-01(48591DE3C19B)	-0.209	-1.622	0.184	24.170	16.235	-17.029	-73.88	24.89	-20.93	-60.074	-14.700	100.254	-0.77216	0.57101	-0.27347	0.05270	27.5	13111	100
2025-3-27 20:10:46.904	WT901BLE68-01(48591DE3C19B)	-0.147	-1.622	0.184	24.170	16.235	-17.029	-73.79	24.71	-21.15	-60.074	-14.700	100.254	-0.77216	0.57101	-0.27347	0.05270	27.5	13111	100
2025-3-27 20:10:46.904	WT901BLE68-01(48591DE3C19B)	-0.147	-1.177	0.245	33.875	69.702	-6.409	-73.82	24.77	-21.91	-60.074	-14.700	100.254	-0.77216	0.57101	-0.27347	0.05270	27.5	13111	100
2025-3-27 20:10:46.904	WT901BLE68-01(48591DE3C19B)	-0.211	-1.177	0.245	33.875	69.702	-6.409	-73.86	24.84	-22.70	-60.074	-14.700	100.254	-0.77216	0.57101	-0.27347	0.05270	27.5	13111	100
2025-3-27 20:10:46.904	WT901BLE68-01(48591DE3C19B)	-0.211	-0.715	0.312	17.517	68.542	1.831	-74.04	24.98	-23.45	-60.074	-14.700	100.254	-0.77216	0.57101	-0.27347	0.05270	27.5	13111	100
2025-3-27 20:10:46.933	WT901BLE68-01(48591DE3C19B)	-0.222	-0.715	0.312	17.517	68.542	1.831	-74.21	25.11	-24.20	-60.074	-14.700	100.254	-0.77216	0.57101	-0.27347	0.05270	27.5	13111	100
2025-3-27 20:10:46.933	WT901BLE68-01(48591DE3C19B)	-0.284	-0.600	0.344	-10.315	34.241	-9.216	-74.51	25.05	-24.61	-60.074	-14.700	100.254	-0.77216	0.57101	-0.27347	0.05270	27.5	13111	100
2025-3-27 20:10:46.933	WT901BLE68-01(48591DE3C19B)	-0.284	-0.610	0.283	-15.869	10.742	-15.259	-74.79	24.93	-24.90	-60.074	-14.700	100.254	-0.77216	0.57101	-0.27347	0.05270	27.5	13111	100
2025-3-27 20:10:46.933	WT901BLE68-01(48591DE3C19B)	-0.349	-0.610	0.283	-15.869	10.742	-15.259	-75.03	24.75	-25.07	-60.074	-14.700	100.254	-0.77216	0.57101	-0.27347	0.05270	27.5	13111	100
2025-3-27 20:10:46.996	WT901BLE68-01(48591DE3C19B)	-0.349	-0.529	0.200	-11.169	0.183	-15.076	-75.22	24.56	-25.18	-60.074	-14.700	100.254	-0.77216	0.57101	-0.27347	0.05270	27.5	13111	100
2025-3-27 20:10:46.996	WT901BLE68-01(48591DE3C19B)	-0.386	-0.529	0.200	-11.169	0.183	-15.076	-75.36	24.37	-25.23	-60.074	-14.700	100.254	-0.77216	0.57101	-0.27347	0.05270	27.5	13111	100
2025-3-27 20:10:46.996	WT901BLE68-01(48591DE3C19B)	-0.386	-0.424	0.140	-7.202	-8.667	-14.099	-75.45	24.17	-25.23	-60.074	-14.700	100.254	-0.77216	0.57101	-0.27347	0.05270	27.5	13111	100
2025-3-27 20:10:46.997	WT901BLE68-01(48591DE3C19B)	-0.368	-0.424	0.140	-7.202	-8.667	-14.099	-75.51	23.98	-25.18	-60.074	-14.700	100.254	-0.77216	0.57101	-0.27347	0.05270	27.5	13111	100
2025-3-27 20:10:47.26	WT901BLE68-01(48591DE3C19B)	-0.368	-0.442	0.114	-7.629	-18.433	-11.841	-75.54	23.80	-25.07	-60.074	-14.700	100.254	-0.77216	0.57101	-0.27347	0.05270	27.5	13111	100
2025-3-27 20:10:47.26	WT901BLE68-01(48591DE3C19B)	-0.319	-0.442	0.114	-7.629	-18.433	-11.841	-75.55	23.62	-24.90	-60.074	-14.700	100.254	-0.77216	0.57101	-0.27347	0.05270	27.5	13111	100
2025-3-27 20:10:47.26	WT901BLE68-01(48591DE3C19B)	-0.319	-0.500	0.128	-1.526	-23.315	-8.972	-75.53	23.46	-24.69	-60.074	-14.700	100.254	-0.77216	0.57101	-0.27347	0.05270	27.5	13111	100
2025-3-27 20:10:47.26	WT901BLE68-01(48591DE3C19B)	-0.323	-0.500	0.128	-1.526	-23.315	-8.972	-75.45	23.31	-24.46	-60.074	-14.700	100.254	-0.78339	0.55203	-0.28214	0.04294	27.5	13111	100
2025-3-27 20:10:47.61	WT901BLE68-01(48591DE3C19B)	-0.323	-0.484	0.131	9.216	-27.222	-5.432	-75.32	23.18	-24.21	-60.074	-14.700	100.254	-0.78339	0.55203	-0.28214	0.04294	27.5	13111	100
2025-3-27 20:10:47.61	WT901BLE68-01(48591DE3C19B)	-0.292	-0.484	0.131	9.216	-27.222	-5.432	-75.13	23.07	-23.92	-60.074	-14.700	100.254	-0.78339	0.55203	-0.28214	0.04294	27.5	13111	100
2025-3-27 20:10:47.61	WT901BLE68-01(48591DE3C19B)	-0.292	-0.390	0.103	17.517	-32.837	3.113	-74.88	22.99	-23.60	-60.074	-14.700	100.254	-0.78339	0.55203	-0.28214	0.04294	27.5	13111	100
2025-3-27 20:10:47.61	WT901BLE68-01(48591DE3C19B)	-0.239	-0.390	0.103	17.517	-32.837	3.113	-74.57	22.94	-23.23	-60.074	-14.700	100.254	-0.78339	0.55203	-0.28214	0.04294	27.5	13111	100
2025-3-27 20:10:47.117	WT901BLE68-01(48591DE3C19B)	-0.239	-0.306	0.102	18.127	-33.264	14.587	-74.26	22.96	-22.85	-60.074	-14.700	100.254	-0.78339	0.55203	-0.28214	0.04294	27.5	13111	100
2025-3-27 20:10:47.117	WT901BLE68-01(48591DE3C19B)	-0.199	-0.306	0.102	18.127	-33.264	14.587	-73.93	23.03	-22.45	-60.074	-14.700	100.254	-0.78339	0.55203	-0.28214	0.04294	27.5	13111	100
2025-3-27 20:10:47.117	WT901BLE68-01(48591DE3C19B)	-0.199	-0.365	0.117	12.695	-26.001	24.170	-73.64	23.16	-22.06	-60.074	-14.700	100.254	-0.78339	0.55203	-0.28214	0.04294	27.5	13111	100
2025-3-27 20:10:47.117	WT901BLE68-01(48591DE3C19B)	-0.191	-0.365	0.117	12.695	-26.001	24.170	-73.39	23.35	-21.70	-60.074	-14.700	100.254	-0.78339	0.55203	-0.28214	0.04294	27.5	13111	100
2025-3-27 20:10:47.143	WT901BLE68-01(48591DE3C19B)	-0.191	-0.570	0.146	7.751	-6.165	26.978	-73.20	23.57	-21.45	-60.074	-14.700	100.254	-0.78339	0.55203	-0.28214	0.04294	27.5	13111	100
2025-3-27 20:10:47.143	WT901BLE68-01(48591DE3C19B)	-0.297	-0.570	0.146	7.751	-6.165	26.978	-73.07	23.82	-21.29	-60.074	-14.700	100.254	-0.78339	0.55203	-0.28214	0.04294	27.5	13111	100
2025-3-27 20:10:47.143	WT901BLE68-01(48591DE3C19B)	-0.297	-0.794	0.179	4.211	22.034	22.705	-73.03	24.09	-21.29	-60.074	-14.700	100.254	-0.78339	0.55203	-0.28214	0.04294	27.5	13111	100
2025-3-27 20:10:47.143	WT901BLE68-01(48591DE3C19B)	-0.402	-0.794	0.179	4.211	22.034	22.705	-73.06	24.37	-21.45	-60.074	-14.700	100.254	-0.78339	0.55203	-0.28214	0.04294	27.5	13111	100
2025-3-27 20:10:47.175	WT901BLE68-01(48591DE3C19B)	-0.402	-1.079	0.210	-10.132	41.199	2.258	-73.23	24.58	-21.74	-60.074	-14.700	100.254	-0.78339	0.55203	-0.28214	0.04294	27.5	13111	100
2025-3-27 20:10:47.175	WT901BLE68-01(48591DE3C19B)	-0.649	-1.079	0.210	-10.132	41.199	2.258	-73.53	24.71	-22.16	-60.074	-14.700	100.254	-0.78339	0.55203	-0.28214	0.04294	27.5	13111	100
2025-3-27 20:10:47.175	WT901BLE68-01(48591DE3C19B)	-0.649	-1.711	0.387	-15.991	39.795	-43.884	-73.88	24.61	-22.66	-60.074	-14.700	100.254	-0.78339	0.55203	-0.28214	0.04294	27.5	13111	100
2025-3-27 20:10:47.175	WT901BLE68-01(48591DE3C19B)	-1.017	-1.711	0.387	-15.991	39.795	-43.884	-74.28	24.29	-23.21	-60.074	-14.700	100.254	-0.78339	0.55203	-0.28214	0.04294	27.5	13111	100
2025-3-27 20:10:47.234	WT901BLE68-01(48591DE3C19B)	-1.017	-2.247	0.590	-6.958	28.564	-52.795	-74.62	23.91	-23.71	-60.074	-14.700	100.254	-0.78339	0.55203	-0.28214	0.04294	27.5	13111	100
2025-3-27 20:10:47.234	WT901BLE68-01(48591DE3C19B)	-1.082	-2.247	0.590	-6.958	28.564	-52.795	-74.88	23.47	-24.16	-60.074	-14.700	100.254	-0.78339	0.55203	-0.28214	0.04294	27.5	13111	100
2025-3-27 20:10:47.234	WT901BLE68-01(48591DE3C19B)	-1.082	-1.708	0.679	20.630	24.841	-57.007	-74.99	23.00	-24.59	-60.074	-14.700	100.254	-0.78339	0.55203	-0.28214	0.04294	27.5	13111	100
2025-3-27 20:10:47.234	WT901BLE68-01(48591DE3C19B)	-0.768	-1.708	0.679	20.630	24.841	-57.007	-74.94	22.53	-24.99	-60.074	-14.700	100.254	-0.78339	0.55203	-0.28214	0.04294	27.5	13111	100
2025-3-27 20:10:47.263	WT901BLE68-01(48591DE3C19B)	-0.768	-1.163	0.586	10.559	44.556	-42.358	-74.97	22.15	-25.48	-54.684	-9.898	91.434	-0.78339	0.55203	-0.28214	0.04294	27.5	13111	100
2025-3-27 20:10:47.263	WT901BLE68-01(48591DE3C19B)	-0.536	-1.163	0.586	10.559	44.556	-42.358	-75.08	21.88	-26.03	-54.684	-9.898	91.434	-0.78339	0.55203	-0.28214	0.04294	27.5	13111	100
2025-3-27 20:10:47.263	WT901BLE68-01(48591DE3C19B)	-0.536	-1.024	0.423	-3.906	61.340	-34.912	-75.27	21.67	-26.66	-54.684	-9.898	91.434	-0.78339	0.55203	-0.28214	0.04294	27.5	13111	100
2025-3-27 20:10:47.263	WT901BLE68-01(48591DE3C19B)	-0.486	-1.024	0.423	-3.906	61.340	-34.912	-75.55	21.52	-27.37	-54.684	-9.898	91.434	-0.78339	0.55203	-0.28214	0.04294	27.5	13111	100
2025-3-27 20:10:47.294	WT901BLE68-01(48591DE3C19B)	-0.486	-0.864	0.356	-1.770	36.621	-13.916	-75.77	21.43	-27.91	-54.684	-9.898	91.434	-0.78339	0.55203	-0.28214	0.04294	27.5	13111	100
2025-3-27 20:10:47.294	WT901BLE68-01(48591DE3C19B)	-0.509	-0.864	0.356	-1.770	36.621	-13.916	-75.91	21.41	-28.29	-54.684	-9.898	91.434	-0.78339	0.55203	-0.28214	0.04294	27.5	13111	100
2025-3-27 20:10:47.294	WT901BLE68-01(48591DE3C19B)	-0.509	-0.693	0.329	-20.081	-23.132	-0.793	-76.02	21.39	-28.34	-54.684	-9.898	91.434	-0.78339	0.55203	-0.28214	0.04294	27.5	13111	100
2025-3-27 20:10:47.294	WT901BLE68-01(48591DE3C19B)	-0.408	-0.693	0.329	-20.081	-23.132	-0.793	-76.10	21.36	-28.06	-54.684	-9.898	91.434	-0.78339	0.55203	-0.28214	0.04294	27.5	13111	100
2025-3-27 20:10:47.362	WT901BLE68-01(48591DE3C19B)	-0.408	-0.642	0.329	-28.687	-58.533	13.367	-76.15	21.36	-27.59	-54.684	-9.898	91.434	-0.78339	0.55203	-0.28214	0.04294	27.5	13111	100
2025-3-27 20:10:47.362	WT901BLE68-01(48591DE3C19B)	-0.331	-0.642	0.329	-28.687	-58.533	13.367	-76.17	21.39	-26.91	-54.684	-9.898	91.434	-0.78339	0.55203	-0.28214	0.04294	27.5	13111	100
2025-3-27 20:10:47.362	WT901BLE68-01(48591DE3C19B)	-0.331	-0.577	0.284	-22.949	-41.626	24.536	-76.18	21.49	-26.31	-54.684	-9.898	91.434	-0.78339	0.55203	-0.28214	0.04294	27.5	13111	100
2025-3-27 20:10:47.362	WT901BLE68-01(48591DE3C19B)	-0.304	-0.577	0.284	-22.949	-41.626	24.536	-76.18	21.67	-25.77	-54.684	-9.898	91.434	-0.78339	0.55203	-0.28214	0.04294	27.5	13111	100
2025-3-27 20:10:47.386	WT901BLE68-01(48591DE3C19B)	-0.304	-0.486	0.220	-16.235	-4.700	21.729	-76.22	21.87	-25.44	-54.684	-9.898	91.434	-0.78339	0.55203	-0.28214	0.04294	27.5	13111	100
2025-3-27 20:10:47.386	WT901BLE68-01(48591DE3C19B)	-0.322	-0.486	0.220	-16.235	-4.700	21.729	-76.30	22.11	-25.31	-54.684	-9.898	91.434	-0.78339	0.55203	-0.28214	0.04294	27.5	13111	100
2025-3-27 20:10:47.386	WT901BLE68-01(48591DE3C19B)	-0.322	-0.471	0.199	-14.160	27.466	20.325	-76.43	22.38	-25.35	-54.684	-9.898	91.434	-0.78339	0.55203	-0.28214	0.04294	27.5	13111	100
2025-3-27 20:10:47.386	WT901BLE68-01(48591DE3C19B)	-0.488	-0.471	0.199	-14.160	27.466	20.325	-76.61	22.68	-25.55	-54.684	-9.898	91.434	-0.78339	0.55203	-0.28214	0.04294	27.5	13111	100
2025-3-27 20:10:47.416	WT901BLE68-01(48591DE3C19B)	-0.488	-0.462	0.201	-7.507	17.517	18.616	-76.70	22.94	-25.65	-54.684	-9.898	91.434	-0.78339	0.55203	-0.28214	0.04294	27.5	13111	100
2025-3-27 20:10:47.416	WT901BLE68-01(48591DE3C19B)	-0.582	-0.462	0.201	-7.507	17.517	18.616	-76.78	23.20	-25.74	-54.684	-9.898	91.434	-0.78339	0.55203	-0.28214	0.04294	27.5	13111	100
2025-3-27 20:10:47.416	WT901BLE68-01(48591DE3C19B)	-0.582	-0.313	0.223	-7.690	-44.556	22.400	-76.60	23.37	-25.16	-54.684	-9.898	91.434	-0.77737	0.55765	-0.28738	0.04486	27.5	13111	100
2025-3-27 20:10:47.416	WT901BLE68-01(48591DE3C19B)	-0.398	-0.313	0.223	-7.690	-44.556	22.400	-76.41	23.55	-24.58	-54.684	-9.898	91.434	-0.77737	0.55765	-0.28738	0.04486	27.5	13111	100
2025-3-27 20:10:47.474	WT901BLE68-01(48591DE3C19B)	-0.398	-0.132	0.225	-19.165	-102.417	35.645	-76.08	23.74	-23.33	-54.684	-9.898	91.434	-0.77737	0.55765	-0.28738	0.04486	27.5	13111	100
2025-3-27 20:10:47.474	WT901BLE68-01(48591DE3C19B)	-0.190	-0.132	0.225	-19.165	-102.417	35.645	-75.74	23.92	-22.09	-54.684	-9.898	91.434	-0.77737	0.55765	-0.28738	0.04486	27.5	13111	100
2025-3-27 20:10:47.474	WT901BLE68-01(48591DE3C19B)	-0.190	-0.086	0.181	-33.264	-130.615	48.889	-75.39	24.15	-20.51	-54.684	-9.898	91.434	-0.77737	0.55765	-0.28738	0.04486	27.5	13111	100
2025-3-27 20:10:47.474	WT901BLE68-01(48591DE3C19B)	-0.058	-0.086	0.181	-33.264	-130.615	48.889	-75.04	24.38	-18.92	-54.684	-9.898	91.434	-0.77737	0.55765	-0.28738	0.04486	27.5	13111	100
2025-3-27 20:10:47.503	WT901BLE68-01(48591DE3C19B)	-0.058	-0.263	0.126	-50.720	-141.907	51.331	-74.79	24.59	-17.22	-54.684	-9.898	91.434	-0.77737	0.55765	-0.28738	0.04486	27.5	13111	100
2025-3-27 20:10:47.503	WT901BLE68-01(48591DE3C19B)	-0.015	-0.263	0.126	-50.720	-141.907	51.331	-74.54	24.79	-15.51	-54.684	-9.898	91.434	-0.77737	0.55765	-0.28738	0.04486	27.5	13111	100
2025-3-27 20:10:47.503	WT901BLE68-01(48591DE3C19B)	-0.015	-0.723	0.136	-66.284	-129.395	38.391	-74.51	24.86	-14.00	-54.684	-9.898	91.434	-0.77737	0.55765	-0.28738	0.04486	27.5	13111	100
2025-3-27 20:10:47.503	WT901BLE68-01(48591DE3C19B)	-0.098	-0.723	0.136	-66.284	-129.395	38.391	-74.50	24.91	-12.52	-54.684	-9.898	91.434	-0.77737	0.55765	-0.28738	0.04486	27.5	13111	100
2025-3-27 20:10:47.534	WT901BLE68-01(48591DE3C19B)	-0.098	-1.359	0.135	-68.054	-89.905	15.442	-74.73	24.82	-11.55	-54.684	-9.898	91.434	-0.77737	0.55765	-0.28738	0.04486	27.5	13111	100
2025-3-27 20:10:47.534	WT901BLE68-01(48591DE3C19B)	-0.247	-1.359	0.135	-68.054	-89.905	15.442	-74.98	24.71	-10.59	-54.684	-9.898	91.434	-0.77737	0.55765	-0.28738	0.04486	27.5	13111	100
2025-3-27 20:10:47.534	WT901BLE68-01(48591DE3C19B)	-0.247	-2.221	0.066	-50.964	-44.189	-7.874	-75.31	24.48	-10.21	-54.684	-9.898	91.434	-0.77737	0.55765	-0.28738	0.04486	27.5	13111	100
2025-3-27 20:10:47.534	WT901BLE68-01(48591DE3C19B)	-0.392	-2.221	0.066	-50.964	-44.189	-7.874	-75.66	24.25	-9.84	-54.684	-9.898	91.434	-0.77737	0.55765	-0.28738	0.04486	27.5	13111	100
2025-3-27 20:10:47.624	WT901BLE68-01(48591DE3C19B)	-0.392	-2.721	0.109	-0.671	-1.526	-11.108	-75.71	24.07	-9.94	-54.684	-9.898	91.434	-0.77737	0.55765	-0.28738	0.04486	27.5	13111	100
2025-3-27 20:10:47.624	WT901BLE68-01(48591DE3C19B)	-0.476	-2.721	0.109	-0.671	-1.526	-11.108	-75.78	23.90	-10.04	-54.684	-9.898	91.434	-0.77737	0.55765	-0.28738	0.04486	27.5	13111	100
2025-3-27 20:10:47.624	WT901BLE68-01(48591DE3C19B)	-0.476	-1.834	0.205	42.480	30.884	-16.235	-75.55	23.75	-10.49	-54.684	-9.898	91.434	-0.77737	0.55765	-0.28738	0.04486	27.5	13111	100
2025-3-27 20:10:47.624	WT901BLE68-01(48591DE3C19B)	-0.303	-1.834	0.205	42.480	30.884	-16.235	-75.33	23.62	-10.94	-54.684	-9.898	91.434	-0.77737	0.55765	-0.28738	0.04486	27.5	13111	100
2025-3-27 20:10:47.626	WT901BLE68-01(48591DE3C19B)	-0.303	-1.469	0.118	27.344	54.077	-9.888	-75.36	23.59	-11.62	-54.684	-9.898	91.434	-0.77737	0.55765	-0.28738	0.04486	27.5	13111	100
2025-3-27 20:10:47.626	WT901BLE68-01(48591DE3C19B)	-0.150	-1.469	0.118	27.344	54.077	-9.888	-75.38	23.57	-12.29	-54.684	-9.898	91.434	-0.77737	0.55765	-0.28738	0.04486	27.5	13111	100
2025-3-27 20:10:47.626	WT901BLE68-01(48591DE3C19B)	-0.150	-1.336	0.184	25.574	86.670	-3.357	-75.55	23.69	-13.29	-54.684	-9.898	91.434	-0.77737	0.55765	-0.28738	0.04486	27.5	13111	100
2025-3-27 20:10:47.626	WT901BLE68-01(48591DE3C19B)	-0.179	-1.336	0.184	25.574	86.670	-3.357	-75.72	23.81	-14.28	-40.474	-13.818	81.242	-0.77737	0.55765	-0.28738	0.04486	27.5	13111	100
2025-3-27 20:10:47.661	WT901BLE68-01(48591DE3C19B)	-0.179	-1.194	0.288	15.137	94.666	1.099	-76.03	23.98	-15.34	-40.474	-13.818	81.242	-0.77737	0.55765	-0.28738	0.04486	27.5	13111	100
2025-3-27 20:10:47.661	WT901BLE68-01(48591DE3C19B)	-0.255	-1.194	0.288	15.137	94.666	1.099	-76.33	24.14	-16.40	-40.474	-13.818	81.242	-0.77737	0.55765	-0.28738	0.04486	27.5	13111	100
2025-3-27 20:10:47.661	WT901BLE68-01(48591DE3C19B)	-0.255	-1.115	0.349	4.211	64.758	-9.888	-76.61	24.11	-17.17	-40.474	-13.818	81.242	-0.77737	0.55765	-0.28738	0.04486	27.5	13111	100
2025-3-27 20:10:47.661	WT901BLE68-01(48591DE3C19B)	-0.388	-1.115	0.349	4.211	64.758	-9.888	-76.89	24.09	-17.93	-40.474	-13.818	81.242	-0.77737	0.55765	-0.28738	0.04486	27.5	13111	100
2025-3-27 20:10:47.714	WT901BLE68-01(48591DE3C19B)	-0.388	-0.928	0.345	13.184	15.503	-15.930	-76.87	23.90	-18.18	-40.474	-13.818	81.242	-0.77737	0.55765	-0.28738	0.04486	27.5	13111	100
2025-3-27 20:10:47.714	WT901BLE68-01(48591DE3C19B)	-0.450	-0.928	0.345	13.184	15.503	-15.930	-76.84	23.71	-18.42	-40.474	-13.818	81.242	-0.77737	0.55765	-0.28738	0.04486	27.5	13111	100
2025-3-27 20:10:47.714	WT901BLE68-01(48591DE3C19B)	-0.450	-0.617	0.267	19.897	-26.978	-23.743	-76.56	23.36	-18.23	-40.474	-13.818	81.242	-0.77737	0.55765	-0.28738	0.04486	27.5	13111	100
2025-3-27 20:10:47.714	WT901BLE68-01(48591DE3C19B)	-0.404	-0.617	0.267	19.897	-26.978	-23.743	-76.28	23.02	-18.04	-40.474	-13.818	81.242	-0.77737	0.55765	-0.28738	0.04486	27.5	13111	100
2025-3-27 20:10:47.742	WT901BLE68-01(48591DE3C19B)	-0.404	-0.325	0.173	16.968	-46.021	-24.292	-75.96	22.64	-17.66	-40.474	-13.818	81.242	-0.77737	0.55765	-0.28738	0.04486	27.5	13111	100
2025-3-27 20:10:47.742	WT901BLE68-01(48591DE3C19B)	-0.321	-0.325	0.173	16.968	-46.021	-24.292	-75.64	22.26	-17.27	-40.474	-13.818	81.242	-0.77737	0.55765	-0.28738	0.04486	27.5	13111	100
2025-3-27 20:10:47.742	WT901BLE68-01(48591DE3C19B)	-0.321	-0.227	0.148	15.259	-40.771	-12.756	-75.34	22.02	-16.90	-40.474	-13.818	81.242	-0.77737	0.55765	-0.28738	0.04486	27.5	13111	100
2025-3-27 20:10:47.742	WT901BLE68-01(48591DE3C19B)	-0.204	-0.227	0.148	15.259	-40.771	-12.756	-75.05	21.79	-16.53	-40.474	-13.818	81.242	-0.77737	0.55765	-0.28738	0.04486	27.5	13111	100
2025-3-27 20:10:47.774	WT901BLE68-01(48591DE3C19B)	-0.204	-0.188	0.176	22.217	-36.926	-0.854	-74.69	21.68	-16.18	-40.474	-13.818	81.242	-0.77737	0.55765	-0.28738	0.04486	27.5	13111	100
2025-3-27 20:10:47.774	WT901BLE68-01(48591DE3C19B)	-0.117	-0.188	0.176	22.217	-36.926	-0.854	-74.32	21.58	-15.82	-40.474	-13.818	81.242	-0.77737	0.55765	-0.28738	0.04486	27.5	13111	100
2025-3-27 20:10:47.774	WT901BLE68-01(48591DE3C19B)	-0.117	-0.153	0.204	23.804	-35.950	10.803	-73.93	21.59	-15.44	-40.474	-13.818	81.242	-0.77737	0.55765	-0.28738	0.04486	27.5	13111	100
2025-3-27 20:10:47.774	WT901BLE68-01(48591DE3C19B)	-0.059	-0.153	0.204	23.804	-35.950	10.803	-73.53	21.60	-15.05	-40.474	-13.818	81.242	-0.77737	0.55765	-0.28738	0.04486	27.5	13111	100
2025-3-27 20:10:47.833	WT901BLE68-01(48591DE3C19B)	-0.059	-0.151	0.197	23.010	-34.241	20.203	-73.13	21.70	-14.66	-40.474	-13.818	81.242	-0.77737	0.55765	-0.28738	0.04486	27.5	13111	100
2025-3-27 20:10:47.833	WT901BLE68-01(48591DE3C19B)	-0.001	-0.151	0.197	23.010	-34.241	20.203	-72.72	21.80	-14.27	-40.474	-13.818	81.242	-0.77737	0.55765	-0.28738	0.04486	27.5	13111	100
2025-3-27 20:10:47.833	WT901BLE68-01(48591DE3C19B)	-0.001	-0.229	0.235	21.057	-17.456	29.968	-72.37	22.03	-14.02	-40.474	-13.818	81.242	-0.77737	0.55765	-0.28738	0.04486	27.5	13111	100
2025-3-27 20:10:47.833	WT901BLE68-01(48591DE3C19B)	-0.009	-0.229	0.235	21.057	-17.456	29.968	-72.02	22.25	-13.77	-40.474	-13.818	81.242	-0.77737	0.55765	-0.28738	0.04486	27.5	13111	100
2025-3-27 20:10:47.863	WT901BLE68-01(48591DE3C19B)	-0.098	-0.459	0.241	14.343	9.644	26.123	-71.85	22.50	-13.82	-40.474	-13.818	81.242	-0.80219	0.55219	-0.22610	-0.01804	27.5	13111	100
2025-3-27 20:10:47.863	WT901BLE68-01(48591DE3C19B)	-0.098	-0.820	0.292	6.226	55.786	13.733	-71.81	22.76	-14.13	-40.474	-13.818	81.242	-0.80219	0.55219	-0.22610	-0.01804	27.5	13111	100
2025-3-27 20:10:47.863	WT901BLE68-01(48591DE3C19B)	-0.206	-0.820	0.292	6.226	55.786	13.733	-71.92	23.02	-14.71	-40.474	-13.818	81.242	-0.80219	0.55219	-0.22610	-0.01804	27.5	13111	100
2025-3-27 20:10:47.863	WT901BLE68-01(48591DE3C19B)	-0.206	-1.354	0.316	4.028	120.239	2.197	-72.19	23.31	-15.64	-40.474	-13.818	81.242	-0.80219	0.55219	-0.22610	-0.01804	27.5	13111	100
2025-3-27 20:10:47.894	WT901BLE68-01(48591DE3C19B)	-0.378	-1.354	0.316	4.028	120.239	2.197	-72.63	23.63	-16.93	-40.474	-13.818	81.242	-0.80219	0.55219	-0.22610	-0.01804	27.5	13111	100
2025-3-27 20:10:47.894	WT901BLE68-01(48591DE3C19B)	-0.378	-1.912	0.280	25.269	191.772	-19.165	-73.15	23.93	-18.63	-40.474	-13.818	81.242	-0.80219	0.55219	-0.22610	-0.01804	27.5	13111	100
2025-3-27 20:10:47.894	WT901BLE68-01(48591DE3C19B)	-0.786	-1.912	0.280	25.269	191.772	-19.165	-73.74	24.22	-20.74	-40.474	-13.818	81.242	-0.80219	0.55219	-0.22610	-0.01804	27.5	13111	100
2025-3-27 20:10:47.894	WT901BLE68-01(48591DE3C19B)	-0.786	-2.238	0.221	39.307	219.543	-22.522	-74.35	24.52	-22.99	-40.474	-13.818	81.242	-0.80219	0.55219	-0.22610	-0.01804	27.5	13111	100
2025-3-27 20:10:47.961	WT901BLE68-01(48591DE3C19B)	-1.211	-2.238	0.221	39.307	219.543	-22.522	-74.97	24.82	-25.39	-40.474	-13.818	81.242	-0.80219	0.55219	-0.22610	-0.01804	27.5	13111	100
2025-3-27 20:10:47.961	WT901BLE68-01(48591DE3C19B)	-1.211	-1.828	0.246	59.937	200.439	-50.903	-75.48	24.94	-27.73	-40.474	-13.818	81.242	-0.80219	0.55219	-0.22610	-0.01804	27.5	13111	100
2025-3-27 20:10:47.961	WT901BLE68-01(48591DE3C19B)	-1.182	-1.828	0.246	59.937	200.439	-50.903	-75.86	24.90	-29.99	-40.474	-13.818	81.242	-0.80219	0.55219	-0.22610	-0.01804	27.5	13111	100
2025-3-27 20:10:47.961	WT901BLE68-01(48591DE3C19B)	-1.182	-1.229	0.370	50.415	142.639	-43.030	-76.15	24.83	-31.91	-40.474	-13.818	81.242	-0.80219	0.55219	-0.22610	-0.01804	27.5	13111	100
2025-3-27 20:10:47.983	WT901BLE68-01(48591DE3C19B)	-0.966	-1.229	0.370	50.415	142.639	-43.030	-76.34	24.75	-33.50	-40.474	-13.818	81.242	-0.80219	0.55219	-0.22610	-0.01804	27.5	13111	100
2025-3-27 20:10:47.983	WT901BLE68-01(48591DE3C19B)	-0.966	-0.776	0.439	31.921	82.642	-31.433	-76.48	24.65	-34.74	-40.474	-13.818	81.242	-0.80219	0.55219	-0.22610	-0.01804	27.5	13111	100
2025-3-27 20:10:47.984	WT901BLE68-01(48591DE3C19B)	-0.789	-0.776	0.439	31.921	82.642	-31.433	-76.57	24.56	-35.63	-40.474	-13.818	81.242	-0.80219	0.55219	-0.22610	-0.01804	27.5	13111	100
2025-3-27 20:10:47.984	WT901BLE68-01(48591DE3C19B)	-0.789	-0.540	0.394	4.578	7.568	-18.860	-76.61	24.45	-36.10	-40.474	-13.818	81.242	-0.80219	0.55219	-0.22610	-0.01804	27.5	13111	100
2025-3-27 20:10:48.44	WT901BLE68-01(48591DE3C19B)	-0.648	-0.540	0.394	4.578	7.568	-18.860	-76.61	24.32	-36.15	-40.474	-13.818	81.242	-0.80219	0.55219	-0.22610	-0.01804	27.5	13111	100
2025-3-27 20:10:48.44	WT901BLE68-01(48591DE3C19B)	-0.648	-0.570	0.316	-27.100	-85.938	-13.611	-76.55	24.13	-35.69	-40.474	-13.818	81.242	-0.80219	0.55219	-0.22610	-0.01804	27.5	13111	100
2025-3-27 20:10:48.44	WT901BLE68-01(48591DE3C19B)	-0.485	-0.570	0.316	-27.100	-85.938	-13.611	-76.45	23.85	-34.73	-40.474	-13.818	81.242	-0.80219	0.55219	-0.22610	-0.01804	27.5	13111	100
2025-3-27 20:10:48.44	WT901BLE68-01(48591DE3C19B)	-0.485	-0.766	0.257	-42.847	-148.865	-11.658	-76.29	23.52	-33.44	-40.474	-13.818	81.242	-0.80219	0.55219	-0.22610	-0.01804	27.5	13111	100
2025-3-27 20:10:48.76	WT901BLE68-01(48591DE3C19B)	-0.384	-0.766	0.257	-42.847	-148.865	-11.658	-76.10	23.11	-31.82	-49.294	-4.410	76.538	-0.80219	0.55219	-0.22610	-0.01804	27.5	13111	100
2025-3-27 20:10:48.76	WT901BLE68-01(48591DE3C19B)	-0.384	-0.910	0.253	-30.151	-140.686	-10.559	-75.86	22.72	-30.27	-49.294	-4.410	76.538	-0.80219	0.55219	-0.22610	-0.01804	27.5	13111	100
2025-3-27 20:10:48.77	WT901BLE68-01(48591DE3C19B)	-0.394	-0.910	0.253	-30.151	-140.686	-10.559	-75.59	22.33	-28.77	-49.294	-4.410	76.538	-0.80219	0.55219	-0.22610	-0.01804	27.5	13111	100
2025-3-27 20:10:48.77	WT901BLE68-01(48591DE3C19B)	-0.394	-0.850	0.250	-12.451	-88.379	-9.155	-75.35	22.01	-27.56	-49.294	-4.410	76.538	-0.80219	0.55219	-0.22610	-0.01804	27.5	13111	100
2025-3-27 20:10:48.106	WT901BLE68-01(48591DE3C19B)	-0.373	-0.850	0.250	-12.451	-88.379	-9.155	-75.13	21.75	-26.63	-49.294	-4.410	76.538	-0.80219	0.55219	-0.22610	-0.01804	27.5	13111	100
2025-3-27 20:10:48.106	WT901BLE68-01(48591DE3C19B)	-0.373	-0.643	0.205	-1.160	-31.799	-4.700	-74.96	21.58	-26.00	-49.294	-4.410	76.538	-0.80219	0.55219	-0.22610	-0.01804	27.5	13111	100
2025-3-27 20:10:48.106	WT901BLE68-01(48591DE3C19B)	-0.285	-0.643	0.205	-1.160	-31.799	-4.700	-74.84	21.50	-25.65	-49.294	-4.410	76.538	-0.80219	0.55219	-0.22610	-0.01804	27.5	13111	100
2025-3-27 20:10:48.106	WT901BLE68-01(48591DE3C19B)	-0.285	-0.410	0.196	6.531	14.771	7.263	-74.77	21.54	-25.54	-49.294	-4.410	76.538	-0.80219	0.55219	-0.22610	-0.01804	27.5	13111	100
2025-3-27 20:10:48.164	WT901BLE68-01(48591DE3C19B)	-0.217	-0.410	0.196	6.531	14.771	7.263	-74.75	21.71	-25.64	-49.294	-4.410	76.538	-0.80219	0.55219	-0.22610	-0.01804	27.5	13111	100
2025-3-27 20:10:48.164	WT901BLE68-01(48591DE3C19B)	-0.217	-0.148	0.213	6.897	35.889	20.569	-74.74	21.96	-25.83	-49.294	-4.410	76.538	-0.80219	0.55219	-0.22610	-0.01804	27.5	13111	100
2025-3-27 20:10:48.164	WT901BLE68-01(48591DE3C19B)	-0.192	-0.148	0.213	6.897	35.889	20.569	-74.77	22.31	-26.11	-49.294	-4.410	76.538	-0.80219	0.55219	-0.22610	-0.01804	27.5	13111	100
2025-3-27 20:10:48.164	WT901BLE68-01(48591DE3C19B)	-0.192	0.027	0.233	-6.592	30.396	35.217	-74.84	22.72	-26.34	-49.294	-4.410	76.538	-0.80219	0.55219	-0.22610	-0.01804	27.5	13111	100
2025-3-27 20:10:48.196	WT901BLE68-01(48591DE3C19B)	-0.194	0.027	0.233	-6.592	30.396	35.217	-74.95	23.20	-26.50	-49.294	-4.410	76.538	-0.80219	0.55219	-0.22610	-0.01804	27.5	13111	100
2025-3-27 20:10:48.196	WT901BLE68-01(48591DE3C19B)	-0.194	0.045	0.217	-26.184	-0.916	45.166	-75.08	23.69	-26.49	-49.294	-4.410	76.538	-0.80219	0.55219	-0.22610	-0.01804	27.5	13111	100
2025-3-27 20:10:48.196	WT901BLE68-01(48591DE3C19B)	-0.200	0.045	0.217	-26.184	-0.916	45.166	-75.22	24.20	-26.29	-49.294	-4.410	76.538	-0.80219	0.55219	-0.22610	-0.01804	27.5	13111	100
2025-3-27 20:10:48.196	WT901BLE68-01(48591DE3C19B)	-0.200	-0.152	0.225	-41.199	-38.147	48.645	-75.34	24.68	-25.88	-49.294	-4.410	76.538	-0.80219	0.55219	-0.22610	-0.01804	27.5	13111	100
2025-3-27 20:10:48.226	WT901BLE68-01(48591DE3C19B)	-0.271	-0.152	0.225	-41.199	-38.147	48.645	-75.44	25.13	-25.27	-49.294	-4.410	76.538	-0.80219	0.55219	-0.22610	-0.01804	27.5	13111	100
2025-3-27 20:10:48.226	WT901BLE68-01(48591DE3C19B)	-0.271	-0.524	0.218	-45.166	-60.303	43.518	-75.50	25.52	-24.54	-49.294	-4.410	76.538	-0.80219	0.55219	-0.22610	-0.01804	27.5	13111	100
2025-3-27 20:10:48.226	WT901BLE68-01(48591DE3C19B)	-0.425	-0.524	0.218	-45.166	-60.303	43.518	-75.53	25.86	-23.71	-49.294	-4.410	76.538	-0.78210	0.54855	-0.29477	0.02042	27.5	13111	100
2025-3-27 20:10:48.226	WT901BLE68-01(48591DE3C19B)	-0.425	-1.050	0.172	-48.401	-74.158	33.081	-75.55	26.11	-22.82	-49.294	-4.410	76.538	-0.78210	0.54855	-0.29477	0.02042	27.5	13111	100
2025-3-27 20:10:48.284	WT901BLE68-01(48591DE3C19B)	-0.479	-1.050	0.172	-48.401	-74.158	33.081	-75.58	26.28	-21.90	-49.294	-4.410	76.538	-0.78210	0.54855	-0.29477	0.02042	27.5	13111	100
2025-3-27 20:10:48.284	WT901BLE68-01(48591DE3C19B)	-0.479	-1.927	0.029	-53.284	-79.773	3.296	-75.66	26.28	-20.99	-49.294	-4.410	76.538	-0.78210	0.54855	-0.29477	0.02042	27.5	13111	100
2025-3-27 20:10:48.284	WT901BLE68-01(48591DE3C19B)	-0.412	-1.927	0.029	-53.284	-79.773	3.296	-75.79	26.12	-20.13	-49.294	-4.410	76.538	-0.78210	0.54855	-0.29477	0.02042	27.5	13111	100
2025-3-27 20:10:48.284	WT901BLE68-01(48591DE3C19B)	-0.412	-2.739	-0.052	-18.066	-53.589	-14.343	-75.85	25.89	-19.45	-49.294	-4.410	76.538	-0.78210	0.54855	-0.29477	0.02042	27.5	13111	100
2025-3-27 20:10:48.314	WT901BLE68-01(48591DE3C19B)	-0.561	-2.739	-0.052	-18.066	-53.589	-14.343	-75.83	25.58	-18.94	-49.294	-4.410	76.538	-0.78210	0.54855	-0.29477	0.02042	27.5	13111	100
2025-3-27 20:10:48.314	WT901BLE68-01(48591DE3C19B)	-0.561	-2.259	0.135	41.443	-25.330	-18.860	-75.60	25.28	-18.61	-49.294	-4.410	76.538	-0.78210	0.54855	-0.29477	0.02042	27.5	13111	100
2025-3-27 20:10:48.314	WT901BLE68-01(48591DE3C19B)	-0.481	-2.259	0.135	41.443	-25.330	-18.860	-75.15	24.99	-18.44	-49.294	-4.410	76.538	-0.78210	0.54855	-0.29477	0.02042	27.5	13111	100
2025-3-27 20:10:48.315	WT901BLE68-01(48591DE3C19B)	-0.481	-1.739	0.207	24.292	-14.648	-25.208	-74.82	24.68	-18.34	-49.294	-4.410	76.538	-0.78210	0.54855	-0.29477	0.02042	27.5	13111	100
2025-3-27 20:10:48.374	WT901BLE68-01(48591DE3C19B)	-0.235	-1.739	0.207	24.292	-14.648	-25.208	-74.60	24.35	-18.31	-49.294	-4.410	76.538	-0.78210	0.54855	-0.29477	0.02042	27.5	13111	100
2025-3-27 20:10:48.374	WT901BLE68-01(48591DE3C19B)	-0.235	-1.515	0.286	25.513	17.639	-19.897	-74.51	24.16	-18.61	-49.294	-4.410	76.538	-0.78210	0.54855	-0.29477	0.02042	27.5	13111	100
2025-3-27 20:10:48.374	WT901BLE68-01(48591DE3C19B)	-0.133	-1.515	0.286	25.513	17.639	-19.897	-74.41	23.97	-18.90	-49.294	-4.410	76.538	-0.78210	0.54855	-0.29477	0.02042	27.5	13111	100
2025-3-27 20:10:48.374	WT901BLE68-01(48591DE3C19B)	-0.133	-1.150	0.329	24.597	54.260	-6.165	-74.45	24.00	-19.54	-49.294	-4.410	76.538	-0.78210	0.54855	-0.29477	0.02042	27.5	13111	100
2025-3-27 20:10:48.406	WT901BLE68-01(48591DE3C19B)	-0.194	-1.150	0.329	24.597	54.260	-6.165	-74.50	24.03	-20.18	-49.294	-4.410	76.538	-0.78210	0.54855	-0.29477	0.02042	27.5	13111	100
2025-3-27 20:10:48.406	WT901BLE68-01(48591DE3C19B)	-0.194	-0.850	0.303	12.207	57.617	-1.038	-74.67	24.11	-20.83	-49.294	-4.410	76.538	-0.78210	0.54855	-0.29477	0.02042	27.5	13111	100
2025-3-27 20:10:48.406	WT901BLE68-01(48591DE3C19B)	-0.227	-0.850	0.303	12.207	57.617	-1.038	-74.84	24.19	-21.48	-49.294	-4.410	76.538	-0.78210	0.54855	-0.29477	0.02042	27.5	13111	100
2025-3-27 20:10:48.406	WT901BLE68-01(48591DE3C19B)	-0.227	-0.716	0.247	-5.554	27.832	-9.888	-75.06	24.10	-21.84	-49.294	-4.410	76.538	-0.78210	0.54855	-0.29477	0.02042	27.5	13111	100
2025-3-27 20:10:48.494	WT901BLE68-01(48591DE3C19B)	-0.229	-0.716	0.247	-5.554	27.832	-9.888	-75.27	24.02	-22.19	-49.294	-4.410	76.538	-0.78210	0.54855	-0.29477	0.02042	27.5	13111	100
2025-3-27 20:10:48.495	WT901BLE68-01(48591DE3C19B)	-0.229	-0.648	0.220	-8.179	8.057	-14.526	-75.43	23.84	-22.35	-49.294	-4.410	76.538	-0.78210	0.54855	-0.29477	0.02042	27.5	13111	100
2025-3-27 20:10:48.495	WT901BLE68-01(48591DE3C19B)	-0.276	-0.648	0.220	-8.179	8.057	-14.526	-75.58	23.66	-22.51	-49.294	-4.410	76.538	-0.78210	0.54855	-0.29477	0.02042	27.5	13111	100
2025-3-27 20:10:48.495	WT901BLE68-01(48591DE3C19B)	-0.276	-0.538	0.219	-1.892	8.484	-17.090	-75.67	23.47	-22.66	-40.768	-2.842	70.854	-0.78210	0.54855	-0.29477	0.02042	27.5	13111	100
2025-3-27 20:10:48.496	WT901BLE68-01(48591DE3C19B)	-0.301	-0.538	0.219	-1.892	8.484	-17.090	-75.75	23.27	-22.82	-40.768	-2.842	70.854	-0.78210	0.54855	-0.29477	0.02042	27.5	13111	100
2025-3-27 20:10:48.496	WT901BLE68-01(48591DE3C19B)	-0.301	-0.382	0.205	6.165	15.198	-15.747	-75.77	23.12	-23.05	-40.768	-2.842	70.854	-0.78210	0.54855	-0.29477	0.02042	27.5	13111	100
2025-3-27 20:10:48.496	WT901BLE68-01(48591DE3C19B)	-0.279	-0.382	0.205	6.165	15.198	-15.747	-75.79	22.97	-23.27	-40.768	-2.842	70.854	-0.78210	0.54855	-0.29477	0.02042	27.5	13111	100
2025-3-27 20:10:48.496	WT901BLE68-01(48591DE3C19B)	-0.279	-0.246	0.177	14.771	24.414	-4.089	-75.75	22.96	-23.55	-40.768	-2.842	70.854	-0.78210	0.54855	-0.29477	0.02042	27.5	13111	100
2025-3-27 20:10:48.561	WT901BLE68-01(48591DE3C19B)	-0.246	-0.246	0.177	14.771	24.414	-4.089	-75.70	22.97	-23.83	-40.768	-2.842	70.854	-0.78210	0.54855	-0.29477	0.02042	27.5	13111	100
2025-3-27 20:10:48.561	WT901BLE68-01(48591DE3C19B)	-0.246	-0.173	0.144	21.118	25.635	10.803	-75.57	23.12	-24.07	-40.768	-2.842	70.854	-0.78210	0.54855	-0.29477	0.02042	27.5	13111	100
2025-3-27 20:10:48.561	WT901BLE68-01(48591DE3C19B)	-0.240	-0.173	0.144	21.118	25.635	10.803	-75.44	23.28	-24.31	-40.768	-2.842	70.854	-0.78210	0.54855	-0.29477	0.02042	27.5	13111	100
2025-3-27 20:10:48.561	WT901BLE68-01(48591DE3C19B)	-0.240	-0.126	0.126	25.513	15.869	22.949	-75.20	23.54	-24.41	-40.768	-2.842	70.854	-0.78210	0.54855	-0.29477	0.02042	27.5	13111	100
2025-3-27 20:10:48.562	WT901BLE68-01(48591DE3C19B)	-0.273	-0.126	0.126	25.513	15.869	22.949	-74.97	23.81	-24.51	-40.768	-2.842	70.854	-0.78210	0.54855	-0.29477	0.02042	27.5	13111	100
2025-3-27 20:10:48.562	WT901BLE68-01(48591DE3C19B)	-0.273	-0.144	0.143	23.865	-2.075	39.612	-74.65	24.20	-24.35	-40.768	-2.842	70.854	-0.78210	0.54855	-0.29477	0.02042	27.5	13111	100
2025-3-27 20:10:48.562	WT901BLE68-01(48591DE3C19B)	-0.295	-0.144	0.143	23.865	-2.075	39.612	-74.33	24.60	-24.19	-40.768	-2.842	70.854	-0.78210	0.54855	-0.29477	0.02042	27.5	13111	100
2025-3-27 20:10:48.562	WT901BLE68-01(48591DE3C19B)	-0.295	-0.313	0.190	15.991	-27.039	57.861	-73.94	25.10	-23.71	-40.768	-2.842	70.854	-0.78210	0.54855	-0.29477	0.02042	27.5	13111	100
2025-3-27 20:10:48.586	WT901BLE68-01(48591DE3C19B)	-0.325	-0.313	0.190	15.991	-27.039	57.861	-73.55	25.61	-23.21	-40.768	-2.842	70.854	-0.78210	0.54855	-0.29477	0.02042	27.5	13111	100
2025-3-27 20:10:48.586	WT901BLE68-01(48591DE3C19B)	-0.325	-0.644	0.374	16.052	-43.823	61.646	-73.06	26.10	-22.53	-40.768	-2.842	70.854	-0.78210	0.54855	-0.29477	0.02042	27.5	13111	100
2025-3-27 20:10:48.586	WT901BLE68-01(48591DE3C19B)	-0.512	-0.644	0.374	16.052	-43.823	61.646	-72.57	26.57	-21.84	-40.768	-2.842	70.854	-0.78210	0.54855	-0.29477	0.02042	27.5	13111	100
2025-3-27 20:10:48.586	WT901BLE68-01(48591DE3C19B)	-0.512	-1.112	0.542	20.264	-39.551	47.852	-72.06	26.91	-21.24	-40.768	-2.842	70.854	-0.78210	0.54855	-0.29477	0.02042	27.5	13111	100
2025-3-27 20:10:48.644	WT901BLE68-01(48591DE3C19B)	-0.558	-1.112	0.542	20.264	-39.551	47.852	-71.55	27.24	-20.64	-40.768	-2.842	70.854	-0.78210	0.54855	-0.29477	0.02042	27.5	13111	100
2025-3-27 20:10:48.644	WT901BLE68-01(48591DE3C19B)	-0.558	-1.530	0.490	31.128	-16.052	15.137	-71.11	27.32	-20.41	-40.768	-2.842	70.854	-0.78210	0.54855	-0.29477	0.02042	27.5	13111	100
2025-3-27 20:10:48.644	WT901BLE68-01(48591DE3C19B)	-0.519	-1.530	0.490	31.128	-16.052	15.137	-70.67	27.39	-20.19	-40.768	-2.842	70.854	-0.78210	0.54855	-0.29477	0.02042	27.5	13111	100
2025-3-27 20:10:48.644	WT901BLE68-01(48591DE3C19B)	-0.519	-1.742	0.479	37.659	23.071	-12.024	-70.42	27.32	-20.48	-40.768	-2.842	70.854	-0.78210	0.54855	-0.29477	0.02042	27.5	13111	100
2025-3-27 20:10:48.673	WT901BLE68-01(48591DE3C19B)	-0.846	-1.742	0.479	37.659	23.071	-12.024	-70.17	27.26	-20.79	-40.768	-2.842	70.854	-0.80673	0.51364	-0.29169	0.01318	27.5	13111	100
2025-3-27 20:10:48.674	WT901BLE68-01(48591DE3C19B)	-0.846	-1.878	0.520	39.856	58.350	-29.297	-70.11	27.15	-21.52	-40.768	-2.842	70.854	-0.80673	0.51364	-0.29169	0.01318	27.5	13111	100
2025-3-27 20:10:48.674	WT901BLE68-01(48591DE3C19B)	-1.028	-1.878	0.520	39.856	58.350	-29.297	-70.05	27.04	-22.26	-40.768	-2.842	70.854	-0.80673	0.51364	-0.29169	0.01318	27.5	13111	100
2025-3-27 20:10:48.674	WT901BLE68-01(48591DE3C19B)	-1.028	-1.561	0.671	45.288	88.745	-40.161	-70.10	26.94	-23.34	-40.768	-2.842	70.854	-0.80673	0.51364	-0.29169	0.01318	27.5	13111	100
2025-3-27 20:10:48.704	WT901BLE68-01(48591DE3C19B)	-0.896	-1.561	0.671	45.288	88.745	-40.161	-70.14	26.85	-24.42	-40.768	-2.842	70.854	-0.80673	0.51364	-0.29169	0.01318	27.5	13111	100
2025-3-27 20:10:48.704	WT901BLE68-01(48591DE3C19B)	-0.896	-1.198	0.750	34.790	93.384	-24.536	-70.27	26.92	-25.48	-40.768	-2.842	70.854	-0.80673	0.51364	-0.29169	0.01318	27.5	13111	100
2025-3-27 20:10:48.704	WT901BLE68-01(48591DE3C19B)	-0.746	-1.198	0.750	34.790	93.384	-24.536	-70.40	27.00	-26.53	-40.768	-2.842	70.854	-0.80673	0.51364	-0.29169	0.01318	27.5	13111	100
2025-3-27 20:10:48.704	WT901BLE68-01(48591DE3C19B)	-0.746	-0.888	0.702	23.315	72.693	-12.390	-70.52	27.13	-27.30	-40.768	-2.842	70.854	-0.80673	0.51364	-0.29169	0.01318	27.5	13111	100
2025-3-27 20:10:48.764	WT901BLE68-01(48591DE3C19B)	-0.720	-0.888	0.702	23.315	72.693	-12.390	-70.63	27.26	-28.08	-40.768	-2.842	70.854	-0.80673	0.51364	-0.29169	0.01318	27.5	13111	100
2025-3-27 20:10:48.764	WT901BLE68-01(48591DE3C19B)	-0.720	-0.773	0.538	-0.366	9.644	-2.258	-70.64	27.27	-28.14	-40.768	-2.842	70.854	-0.80673	0.51364	-0.29169	0.01318	27.5	13111	100
2025-3-27 20:10:48.764	WT901BLE68-01(48591DE3C19B)	-0.628	-0.773	0.538	-0.366	9.644	-2.258	-70.66	27.30	-28.20	-40.768	-2.842	70.854	-0.80673	0.51364	-0.29169	0.01318	27.5	13111	100
2025-3-27 20:10:48.764	WT901BLE68-01(48591DE3C19B)	-0.628	-0.865	0.344	-20.752	-58.655	2.930	-70.54	27.15	-27.52	-40.768	-2.842	70.854	-0.80673	0.51364	-0.29169	0.01318	27.5	13111	100
2025-3-27 20:10:48.796	WT901BLE68-01(48591DE3C19B)	-0.442	-0.865	0.344	-20.752	-58.655	2.930	-70.42	27.00	-26.84	-40.768	-2.842	70.854	-0.80673	0.51364	-0.29169	0.01318	27.5	13111	100
2025-3-27 20:10:48.796	WT901BLE68-01(48591DE3C19B)	-0.349	-0.927	0.199	-16.296	-81.360	11.597	-70.15	26.85	-25.89	-40.768	-2.842	70.854	-0.80673	0.51364	-0.29169	0.01318	27.5	13111	100
2025-3-27 20:10:48.796	WT901BLE68-01(48591DE3C19B)	-0.349	-0.827	0.167	0.610	-59.265	18.494	-69.85	26.77	-25.07	-40.768	-2.842	70.854	-0.80673	0.51364	-0.29169	0.01318	27.5	13111	100
2025-3-27 20:10:48.796	WT901BLE68-01(48591DE3C19B)	-0.230	-0.827	0.167	0.610	-59.265	18.494	-69.51	26.75	-24.35	-40.768	-2.842	70.854	-0.80673	0.51364	-0.29169	0.01318	27.5	13111	100
2025-3-27 20:10:48.826	WT901BLE68-01(48591DE3C19B)	-0.230	-0.648	0.167	7.874	-5.188	8.301	-69.29	26.77	-23.94	-40.768	-2.842	70.854	-0.80673	0.51364	-0.29169	0.01318	27.5	13111	100
2025-3-27 20:10:48.826	WT901BLE68-01(48591DE3C19B)	-0.255	-0.648	0.167	7.874	-5.188	8.301	-69.16	26.84	-23.83	-40.768	-2.842	70.854	-0.80673	0.51364	-0.29169	0.01318	27.5	13111	100
2025-3-27 20:10:48.826	WT901BLE68-01(48591DE3C19B)	-0.255	-0.552	0.163	15.381	67.261	1.831	-69.19	27.00	-24.13	-39.886	2.646	67.326	-0.80673	0.51364	-0.29169	0.01318	27.5	13111	100
2025-3-27 20:10:48.826	WT901BLE68-01(48591DE3C19B)	-0.413	-0.552	0.163	15.381	67.261	1.831	-69.35	27.25	-24.81	-39.886	2.646	67.326	-0.80673	0.51364	-0.29169	0.01318	27.5	13111	100
2025-3-27 20:10:48.884	WT901BLE68-01(48591DE3C19B)	-0.413	-0.516	0.157	23.804	111.328	0.671	-69.58	27.58	-25.73	-39.886	2.646	67.326	-0.80673	0.51364	-0.29169	0.01318	27.5	13111	100
2025-3-27 20:10:48.884	WT901BLE68-01(48591DE3C19B)	-0.494	-0.516	0.157	23.804	111.328	0.671	-69.90	27.97	-26.88	-39.886	2.646	67.326	-0.80673	0.51364	-0.29169	0.01318	27.5	13111	100
2025-3-27 20:10:48.885	WT901BLE68-01(48591DE3C19B)	-0.494	-0.391	0.169	23.987	105.164	1.770	-70.19	28.36	-27.99	-39.886	2.646	67.326	-0.80673	0.51364	-0.29169	0.01318	27.5	13111	100
2025-3-27 20:10:48.885	WT901BLE68-01(48591DE3C19B)	-0.436	-0.391	0.169	23.987	105.164	1.770	-70.49	28.73	-29.06	-39.886	2.646	67.326	-0.80673	0.51364	-0.29169	0.01318	27.5	13111	100
2025-3-27 20:10:48.914	WT901BLE68-01(48591DE3C19B)	-0.436	-0.273	0.161	13.855	71.960	6.653	-70.74	29.08	-29.95	-39.886	2.646	67.326	-0.80673	0.51364	-0.29169	0.01318	27.5	13111	100
2025-3-27 20:10:48.915	WT901BLE68-01(48591DE3C19B)	-0.345	-0.273	0.161	13.855	71.960	6.653	-70.97	29.40	-30.64	-39.886	2.646	67.326	-0.80673	0.51364	-0.29169	0.01318	27.5	13111	100
2025-3-27 20:10:48.915	WT901BLE68-01(48591DE3C19B)	-0.345	-0.208	0.131	5.920	45.166	13.000	-71.15	29.72	-31.17	-39.886	2.646	67.326	-0.80673	0.51364	-0.29169	0.01318	27.5	13111	100
2025-3-27 20:10:48.915	WT901BLE68-01(48591DE3C19B)	-0.317	-0.208	0.131	5.920	45.166	13.000	-71.30	30.02	-31.54	-39.886	2.646	67.326	-0.80673	0.51364	-0.29169	0.01318	27.5	13111	100
2025-3-27 20:10:48.943	WT901BLE68-01(48591DE3C19B)	-0.317	-0.155	0.117	-2.319	23.132	21.545	-71.42	30.33	-31.77	-39.886	2.646	67.326	-0.80673	0.51364	-0.29169	0.01318	27.5	13111	100
2025-3-27 20:10:48.943	WT901BLE68-01(48591DE3C19B)	-0.317	-0.155	0.117	-2.319	23.132	21.545	-71.51	30.65	-31.85	-39.886	2.646	67.326	-0.80673	0.51364	-0.29169	0.01318	27.5	13111	100
2025-3-27 20:10:48.943	WT901BLE68-01(48591DE3C19B)	-0.317	-0.120	0.135	-13.855	-2.014	32.776	-71.58	30.99	-31.78	-39.886	2.646	67.326	-0.80673	0.51364	-0.29169	0.01318	27.5	13111	100
2025-3-27 20:10:48.943	WT901BLE68-01(48591DE3C19B)	-0.337	-0.120	0.135	-13.855	-2.014	32.776	-71.62	31.35	-31.54	-39.886	2.646	67.326	-0.80673	0.51364	-0.29169	0.01318	27.5	13111	100
2025-3-27 20:10:49.6	WT901BLE68-01(48591DE3C19B)	-0.337	-0.158	0.170	-27.893	-24.902	46.509	-71.65	31.75	-31.15	-39.886	2.646	67.326	-0.80673	0.51364	-0.29169	0.01318	27.5	13111	100
2025-3-27 20:10:49.6	WT901BLE68-01(48591DE3C19B)	-0.343	-0.158	0.170	-27.893	-24.902	46.509	-71.65	32.18	-30.59	-39.886	2.646	67.326	-0.80673	0.51364	-0.29169	0.01318	27.5	13111	100
2025-3-27 20:10:49.6	WT901BLE68-01(48591DE3C19B)	-0.343	-0.352	0.194	-41.504	-36.804	55.115	-71.67	32.63	-29.94	-39.886	2.646	67.326	-0.80673	0.51364	-0.29169	0.01318	27.5	13111	100
2025-3-27 20:10:49.6	WT901BLE68-01(48591DE3C19B)	-0.369	-0.352	0.194	-41.504	-36.804	55.115	-71.71	33.11	-29.21	-39.886	2.646	67.326	-0.80673	0.51364	-0.29169	0.01318	27.5	13111	100
2025-3-27 20:10:49.36	WT901BLE68-01(48591DE3C19B)	-0.369	-0.668	0.212	-47.852	-36.194	50.415	-71.78	33.55	-28.50	-39.886	2.646	67.326	-0.80673	0.51364	-0.29169	0.01318	27.5	13111	100
2025-3-27 20:10:49.36	WT901BLE68-01(48591DE3C19B)	-0.514	-0.668	0.212	-47.852	-36.194	50.415	-71.89	33.96	-27.81	-39.886	2.646	67.326	-0.80673	0.51364	-0.29169	0.01318	27.5	13111	100
2025-3-27 20:10:49.36	WT901BLE68-01(48591DE3C19B)	-0.514	-1.185	0.241	-48.218	-40.588	31.433	-72.01	34.26	-27.13	-39.886	2.646	67.326	-0.80673	0.51364	-0.29169	0.01318	27.5	13111	100
2025-3-27 20:10:49.36	WT901BLE68-01(48591DE3C19B)	-0.604	-1.185	0.241	-48.218	-40.588	31.433	-72.14	34.44	-26.48	-39.886	2.646	67.326	-0.79141	0.49258	-0.36179	0.00714	27.5	13111	100
2025-3-27 20:10:49.65	WT901BLE68-01(48591DE3C19B)	-0.604	-1.886	0.157	-41.687	-47.668	-1.953	-72.26	34.44	-25.87	-39.886	2.646	67.326	-0.79141	0.49258	-0.36179	0.00714	27.5	13111	100
2025-3-27 20:10:49.66	WT901BLE68-01(48591DE3C19B)	-0.644	-1.886	0.157	-41.687	-47.668	-1.953	-72.39	34.25	-25.30	-39.886	2.646	67.326	-0.79141	0.49258	-0.36179	0.00714	27.5	13111	100
2025-3-27 20:10:49.66	WT901BLE68-01(48591DE3C19B)	-0.644	-2.295	0.166	-14.465	-47.058	-15.503	-72.41	33.98	-24.77	-39.886	2.646	67.326	-0.79141	0.49258	-0.36179	0.00714	27.5	13111	100
2025-3-27 20:10:49.66	WT901BLE68-01(48591DE3C19B)	-0.787	-2.295	0.166	-14.465	-47.058	-15.503	-72.32	33.63	-24.29	-39.886	2.646	67.326	-0.79141	0.49258	-0.36179	0.00714	27.5	13111	100
2025-3-27 20:10:49.124	WT901BLE68-01(48591DE3C19B)	-0.787	-1.779	0.279	13.367	-33.020	-30.701	-72.17	33.23	-23.92	-39.886	2.646	67.326	-0.79141	0.49258	-0.36179	0.00714	27.5	13111	100
2025-3-27 20:10:49.124	WT901BLE68-01(48591DE3C19B)	-0.681	-1.779	0.279	13.367	-33.020	-30.701	-71.95	32.78	-23.66	-39.886	2.646	67.326	-0.79141	0.49258	-0.36179	0.00714	27.5	13111	100
2025-3-27 20:10:49.124	WT901BLE68-01(48591DE3C19B)	-0.681	-1.486	0.325	4.883	-10.071	-38.513	-71.85	32.34	-23.55	-39.886	2.646	67.326	-0.79141	0.49258	-0.36179	0.00714	27.5	13111	100
2025-3-27 20:10:49.124	WT901BLE68-01(48591DE3C19B)	-0.575	-1.486	0.325	4.883	-10.071	-38.513	-71.87	31.89	-23.58	-39.886	2.646	67.326	-0.79141	0.49258	-0.36179	0.00714	27.5	13111	100
2025-3-27 20:10:49.184	WT901BLE68-01(48591DE3C19B)	-0.575	-1.438	0.426	8.972	20.020	-42.480	-71.95	31.47	-23.79	-39.886	2.646	67.326	-0.79141	0.49258	-0.36179	0.00714	27.5	13111	100
2025-3-27 20:10:49.184	WT901BLE68-01(48591DE3C19B)	-0.581	-1.438	0.426	8.972	20.020	-42.480	-72.10	31.08	-24.17	-39.886	2.646	67.326	-0.79141	0.49258	-0.36179	0.00714	27.5	13111	100
2025-3-27 20:10:49.185	WT901BLE68-01(48591DE3C19B)	-0.581	-1.306	0.431	10.742	28.198	-34.668	-72.25	30.74	-24.57	-39.886	2.646	67.326	-0.79141	0.49258	-0.36179	0.00714	27.5	13111	100
2025-3-27 20:10:49.185	WT901BLE68-01(48591DE3C19B)	-0.575	-1.306	0.431	10.742	28.198	-34.668	-72.39	30.45	-25.00	-39.886	2.646	67.326	-0.79141	0.49258	-0.36179	0.00714	27.5	13111	100
2025-3-27 20:10:49.186	WT901BLE68-01(48591DE3C19B)	-0.575	-1.076	0.365	5.127	2.747	-27.832	-72.48	30.16	-25.27	-39.886	2.646	67.326	-0.79141	0.49258	-0.36179	0.00714	27.5	13111	100
2025-3-27 20:10:49.186	WT901BLE68-01(48591DE3C19B)	-0.451	-1.076	0.365	5.127	2.747	-27.832	-72.52	29.86	-25.39	-39.886	2.646	67.326	-0.79141	0.49258	-0.36179	0.00714	27.5	13111	100
2025-3-27 20:10:49.186	WT901BLE68-01(48591DE3C19B)	-0.451	-0.879	0.299	-7.202	-18.555	-28.992	-72.56	29.53	-25.39	-39.886	2.646	67.326	-0.79141	0.49258	-0.36179	0.00714	27.5	13111	100
2025-3-27 20:10:49.186	WT901BLE68-01(48591DE3C19B)	-0.408	-0.879	0.299	-7.202	-18.555	-28.992	-72.60	29.17	-25.28	-39.886	2.646	67.326	-0.79141	0.49258	-0.36179	0.00714	27.5	13111	100
2025-3-27 20:10:49.244	WT901BLE68-01(48591DE3C19B)	-0.408	-0.768	0.297	-10.803	-10.254	-30.823	-72.68	28.81	-25.22	-39.886	2.646	67.326	-0.79141	0.49258	-0.36179	0.00714	27.5	13111	100
2025-3-27 20:10:49.244	WT901BLE68-01(48591DE3C19B)	-0.483	-0.768	0.297	-10.803	-10.254	-30.823	-72.80	28.46	-25.20	-39.886	2.646	67.326	-0.79141	0.49258	-0.36179	0.00714	27.5	13111	100
2025-3-27 20:10:49.244	WT901BLE68-01(48591DE3C19B)	-0.483	-0.653	0.324	-11.841	-1.404	-31.860	-72.94	28.12	-25.23	-39.886	2.646	67.326	-0.79141	0.49258	-0.36179	0.00714	27.5	13111	100
2025-3-27 20:10:49.245	WT901BLE68-01(48591DE3C19B)	-0.506	-0.653	0.324	-11.841	-1.404	-31.860	-73.10	27.80	-25.31	-39.886	2.646	67.326	-0.79141	0.49258	-0.36179	0.00714	27.5	13111	100
2025-3-27 20:10:49.276	WT901BLE68-01(48591DE3C19B)	-0.506	-0.549	0.346	-14.954	-5.188	-32.776	-73.27	27.45	-25.35	-39.984	1.078	68.502	-0.79141	0.49258	-0.36179	0.00714	27.5	13111	100
2025-3-27 20:10:49.276	WT901BLE68-01(48591DE3C19B)	-0.499	-0.549	0.346	-14.954	-5.188	-32.776	-73.44	27.13	-25.37	-39.984	1.078	68.502	-0.79141	0.49258	-0.36179	0.00714	27.5	13111	100
2025-3-27 20:10:49.276	WT901BLE68-01(48591DE3C19B)	-0.499	-0.503	0.333	-16.785	-7.507	-32.104	-73.60	26.80	-25.37	-39.984	1.078	68.502	-0.79141	0.49258	-0.36179	0.00714	27.5	13111	100
2025-3-27 20:10:49.276	WT901BLE68-01(48591DE3C19B)	-0.521	-0.503	0.333	-16.785	-7.507	-32.104	-73.76	26.49	-25.37	-39.984	1.078	68.502	-0.79141	0.49258	-0.36179	0.00714	27.5	13111	100
2025-3-27 20:10:49.306	WT901BLE68-01(48591DE3C19B)	-0.521	-0.502	0.287	-12.207	-10.254	-28.076	-73.84	26.21	-25.32	-39.984	1.078	68.502	-0.79141	0.49258	-0.36179	0.00714	27.5	13111	100
2025-3-27 20:10:49.306	WT901BLE68-01(48591DE3C19B)	-0.511	-0.502	0.287	-12.207	-10.254	-28.076	-73.93	25.94	-25.26	-39.984	1.078	68.502	-0.79141	0.49258	-0.36179	0.00714	27.5	13111	100
2025-3-27 20:10:49.306	WT901BLE68-01(48591DE3C19B)	-0.511	-0.460	0.224	-6.531	-22.827	-20.386	-73.88	25.72	-25.05	-39.984	1.078	68.502	-0.79141	0.49258	-0.36179	0.00714	27.5	13111	100
2025-3-27 20:10:49.306	WT901BLE68-01(48591DE3C19B)	-0.430	-0.460	0.224	-6.531	-22.827	-20.386	-73.84	25.50	-24.83	-39.984	1.078	68.502	-0.79141	0.49258	-0.36179	0.00714	27.5	13111	100
2025-3-27 20:10:49.364	WT901BLE68-01(48591DE3C19B)	-0.430	-0.413	0.166	-6.348	-43.701	-14.282	-73.69	25.30	-24.38	-39.984	1.078	68.502	-0.79141	0.49258	-0.36179	0.00714	27.5	13111	100
2025-3-27 20:10:49.364	WT901BLE68-01(48591DE3C19B)	-0.337	-0.413	0.166	-6.348	-43.701	-14.282	-73.55	25.09	-23.93	-39.984	1.078	68.502	-0.79141	0.49258	-0.36179	0.00714	27.5	13111	100
2025-3-27 20:10:49.364	WT901BLE68-01(48591DE3C19B)	-0.337	-0.418	0.117	-8.545	-56.213	-8.850	-73.37	24.90	-23.33	-39.984	1.078	68.502	-0.79141	0.49258	-0.36179	0.00714	27.5	13111	100
2025-3-27 20:10:49.364	WT901BLE68-01(48591DE3C19B)	-0.304	-0.418	0.117	-8.545	-56.213	-8.850	-73.20	24.72	-22.74	-39.984	1.078	68.502	-0.79141	0.49258	-0.36179	0.00714	27.5	13111	100
2025-3-27 20:10:49.393	WT901BLE68-01(48591DE3C19B)	-0.304	-0.486	0.132	-5.310	-53.833	-3.723	-73.00	24.59	-22.16	-39.984	1.078	68.502	-0.79141	0.49258	-0.36179	0.00714	27.5	13111	100
2025-3-27 20:10:49.393	WT901BLE68-01(48591DE3C19B)	-0.318	-0.486	0.132	-5.310	-53.833	-3.723	-72.81	24.45	-21.59	-39.984	1.078	68.502	-0.79141	0.49258	-0.36179	0.00714	27.5	13111	100
2025-3-27 20:10:49.394	WT901BLE68-01(48591DE3C19B)	-0.318	-0.507	0.157	0.183	-46.265	0.000	-72.59	24.37	-21.09	-39.984	1.078	68.502	-0.79141	0.49258	-0.36179	0.00714	27.5	13111	100
2025-3-27 20:10:49.394	WT901BLE68-01(48591DE3C19B)	-0.301	-0.507	0.157	0.183	-46.265	0.000	-72.37	24.29	-20.60	-39.984	1.078	68.502	-0.79141	0.49258	-0.36179	0.00714	27.5	13111	100
2025-3-27 20:10:49.460	WT901BLE68-01(48591DE3C19B)	-0.301	-0.510	0.192	4.028	-34.546	2.747	-72.17	24.26	-20.22	-39.984	1.078	68.502	-0.79141	0.49258	-0.36179	0.00714	27.5	13111	100
2025-3-27 20:10:49.460	WT901BLE68-01(48591DE3C19B)	-0.302	-0.510	0.192	4.028	-34.546	2.747	-71.97	24.24	-19.85	-39.984	1.078	68.502	-0.79141	0.49258	-0.36179	0.00714	27.5	13111	100
2025-3-27 20:10:49.460	WT901BLE68-01(48591DE3C19B)	-0.302	-0.562	0.248	10.254	-14.587	5.493	-71.78	24.30	-19.67	-39.984	1.078	68.502	-0.79141	0.49258	-0.36179	0.00714	27.5	13111	100
2025-3-27 20:10:49.461	WT901BLE68-01(48591DE3C19B)	-0.359	-0.562	0.248	10.254	-14.587	5.493	-71.60	24.35	-19.50	-39.984	1.078	68.502	-0.79141	0.49258	-0.36179	0.00714	27.5	13111	100
2025-3-27 20:10:49.483	WT901BLE68-01(48591DE3C19B)	-0.359	-0.637	0.320	17.273	0.793	9.949	-71.40	24.48	-19.47	-39.984	1.078	68.502	-0.80350	0.53207	-0.26657	0.01205	27.5	13111	100
2025-3-27 20:10:49.484	WT901BLE68-01(48591DE3C19B)	-0.353	-0.637	0.320	17.273	0.793	9.949	-71.20	24.62	-19.45	-39.984	1.078	68.502	-0.80350	0.53207	-0.26657	0.01205	27.5	13111	100
2025-3-27 20:10:49.484	WT901BLE68-01(48591DE3C19B)	-0.353	-0.719	0.303	17.273	10.803	12.146	-71.04	24.80	-19.52	-39.984	1.078	68.502	-0.80350	0.53207	-0.26657	0.01205	27.5	13111	100
2025-3-27 20:10:49.484	WT901BLE68-01(48591DE3C19B)	-0.350	-0.719	0.303	17.273	10.803	12.146	-70.87	24.98	-19.59	-39.984	1.078	68.502	-0.80350	0.53207	-0.26657	0.01205	27.5	13111	100
2025-3-27 20:10:49.514	WT901BLE68-01(48591DE3C19B)	-0.350	-0.930	0.236	13.000	24.841	4.761	-70.83	25.13	-19.84	-39.984	1.078	68.502	-0.80350	0.53207	-0.26657	0.01205	27.5	13111	100
2025-3-27 20:10:49.515	WT901BLE68-01(48591DE3C19B)	-0.396	-0.930	0.236	13.000	24.841	4.761	-70.80	25.27	-20.09	-39.984	1.078	68.502	-0.80350	0.53207	-0.26657	0.01205	27.5	13111	100
2025-3-27 20:10:49.515	WT901BLE68-01(48591DE3C19B)	-0.396	-1.130	0.183	13.062	41.504	-5.798	-70.86	25.36	-20.56	-39.984	1.078	68.502	-0.80350	0.53207	-0.26657	0.01205	27.5	13111	100
2025-3-27 20:10:49.515	WT901BLE68-01(48591DE3C19B)	-0.494	-1.130	0.183	13.062	41.504	-5.798	-70.94	25.44	-21.03	-39.984	1.078	68.502	-0.80350	0.53207	-0.26657	0.01205	27.5	13111	100
2025-3-27 20:10:49.574	WT901BLE68-01(48591DE3C19B)	-0.494	-1.265	0.173	3.967	41.626	-17.151	-71.13	25.41	-21.55	-39.984	1.078	68.502	-0.80350	0.53207	-0.26657	0.01205	27.5	13111	100
2025-3-27 20:10:49.574	WT901BLE68-01(48591DE3C19B)	-0.660	-1.265	0.173	3.967	41.626	-17.151	-71.32	25.37	-22.06	-39.984	1.078	68.502	-0.80350	0.53207	-0.26657	0.01205	27.5	13111	100
2025-3-27 20:10:49.574	WT901BLE68-01(48591DE3C19B)	-0.660	-1.582	0.308	-11.292	25.574	-25.146	-71.61	25.21	-22.44	-39.984	1.078	68.502	-0.80350	0.53207	-0.26657	0.01205	27.5	13111	100
2025-3-27 20:10:49.574	WT901BLE68-01(48591DE3C19B)	-0.772	-1.582	0.308	-11.292	25.574	-25.146	-71.91	25.04	-22.81	-39.984	1.078	68.502	-0.80350	0.53207	-0.26657	0.01205	27.5	13111	100
2025-3-27 20:10:49.634	WT901BLE68-01(48591DE3C19B)	-0.772	-1.895	0.452	-17.273	5.432	-32.166	-72.17	24.75	-22.99	-39.984	1.078	68.502	-0.80350	0.53207	-0.26657	0.01205	27.5	13111	100
2025-3-27 20:10:49.634	WT901BLE68-01(48591DE3C19B)	-0.698	-1.895	0.452	-17.273	5.432	-32.166	-72.44	24.44	-23.18	-39.984	1.078	68.502	-0.80350	0.53207	-0.26657	0.01205	27.5	13111	100
2025-3-27 20:10:49.634	WT901BLE68-01(48591DE3C19B)	-0.698	-1.616	0.577	-9.399	-11.414	-16.724	-72.53	24.25	-23.13	-39.984	1.078	68.502	-0.80350	0.53207	-0.26657	0.01205	27.5	13111	100
2025-3-27 20:10:49.634	WT901BLE68-01(48591DE3C19B)	-0.514	-1.616	0.577	-9.399	-11.414	-16.724	-72.61	24.04	-23.08	-39.984	1.078	68.502	-0.80350	0.53207	-0.26657	0.01205	27.5	13111	100
2025-3-27 20:10:49.635	WT901BLE68-01(48591DE3C19B)	-0.514	-1.300	0.561	-16.357	-10.742	2.686	-72.73	24.03	-22.98	-39.984	1.078	68.502	-0.80350	0.53207	-0.26657	0.01205	27.5	13111	100
2025-3-27 20:10:49.635	WT901BLE68-01(48591DE3C19B)	-0.423	-1.300	0.561	-16.357	-10.742	2.686	-72.86	24.02	-22.88	-39.984	1.078	68.502	-0.80350	0.53207	-0.26657	0.01205	27.5	13111	100
2025-3-27 20:10:49.635	WT901BLE68-01(48591DE3C19B)	-0.423	-1.263	0.494	-23.560	2.991	15.564	-73.09	24.16	-22.88	-39.984	1.078	68.502	-0.80350	0.53207	-0.26657	0.01205	27.5	13111	100
2025-3-27 20:10:49.635	WT901BLE68-01(48591DE3C19B)	-0.418	-1.263	0.494	-23.560	2.991	15.564	-73.31	24.30	-22.88	-39.984	1.078	68.502	-0.80350	0.53207	-0.26657	0.01205	27.5	13111	100
2025-3-27 20:10:49.694	WT901BLE68-01(48591DE3C19B)	-0.418	-1.267	0.402	-23.438	2.686	32.593	-73.50	24.60	-22.84	-39.984	1.078	68.502	-0.80350	0.53207	-0.26657	0.01205	27.5	13111	100
2025-3-27 20:10:49.695	WT901BLE68-01(48591DE3C19B)	-0.337	-1.267	0.402	-23.438	2.686	32.593	-73.70	24.90	-22.79	-43.904	-2.646	68.894	-0.80350	0.53207	-0.26657	0.01205	27.5	13111	100
2025-3-27 20:10:49.695	WT901BLE68-01(48591DE3C19B)	-0.337	-1.155	0.338	-20.447	-2.869	44.983	-73.83	25.29	-22.64	-43.904	-2.646	68.894	-0.80350	0.53207	-0.26657	0.01205	27.5	13111	100
2025-3-27 20:10:49.695	WT901BLE68-01(48591DE3C19B)	-0.239	-1.155	0.338	-20.447	-2.869	44.983	-73.95	25.68	-22.51	-43.904	-2.646	68.894	-0.80350	0.53207	-0.26657	0.01205	27.5	13111	100
