time	DeviceName	AccX(g)	AccY(g)	AccZ(g)	AsX(°/s)	AsY(°/s)	AsZ(°/s)	AngleX(°)	AngleY(°)	AngleZ(°)	HX(uT)	HY(uT)	HZ(uT)	Q0()	Q1()	Q2()	Q3()	Temperature(°C)	Version()	Battery level(%)
2025-3-27 20:22:15.292	WT901BLE68-01(48591DE3C19B)	-0.357	-0.899	0.250	-0.916	-1.648	1.953	-75.92	21.15	-38.55	-72.618	-26.754	109.564	-0.76959	0.52194	-0.33517	0.15106	29.8	13111	100
2025-3-27 20:22:15.292	WT901BLE68-01(48591DE3C19B)	-0.354	-0.899	0.250	-0.916	-1.648	1.953	-75.91	21.17	-38.52	-72.618	-26.754	109.564	-0.76959	0.52194	-0.33517	0.15106	29.8	13111	100
2025-3-27 20:22:15.292	WT901BLE68-01(48591DE3C19B)	-0.354	-0.898	0.250	-0.610	-1.465	1.770	-75.90	21.18	-38.50	-72.618	-26.754	109.564	-0.76959	0.52194	-0.33517	0.15106	29.8	13111	100
2025-3-27 20:22:15.292	WT901BLE68-01(48591DE3C19B)	-0.353	-0.898	0.250	-0.610	-1.465	1.770	-75.89	21.20	-38.48	-72.618	-26.754	109.564	-0.76959	0.52194	-0.33517	0.15106	29.8	13111	100
2025-3-27 20:22:15.292	WT901BLE68-01(48591DE3C19B)	-0.353	-0.901	0.249	-0.122	-0.732	1.709	-75.88	21.21	-38.47	-72.618	-26.754	109.564	-0.76959	0.52194	-0.33517	0.15106	29.8	13111	100
2025-3-27 20:22:15.293	WT901BLE68-01(48591DE3C19B)	-0.353	-0.901	0.249	-0.122	-0.732	1.709	-75.87	21.23	-38.45	-72.618	-26.754	109.564	-0.76959	0.52194	-0.33517	0.15106	29.8	13111	100
2025-3-27 20:22:15.293	WT901BLE68-01(48591DE3C19B)	-0.353	-0.900	0.246	0.305	-0.183	1.648	-75.86	21.24	-38.45	-72.618	-26.754	109.564	-0.76959	0.52194	-0.33517	0.15106	29.8	13111	100
2025-3-27 20:22:15.293	WT901BLE68-01(48591DE3C19B)	-0.352	-0.900	0.246	0.305	-0.183	1.648	-75.85	21.25	-38.44	-72.618	-26.754	109.564	-0.76959	0.52194	-0.33517	0.15106	29.8	13111	100
2025-3-27 20:22:15.293	WT901BLE68-01(48591DE3C19B)	-0.352	-0.906	0.244	0.488	0.122	1.465	-75.83	21.26	-38.44	-72.618	-26.754	109.564	-0.76959	0.52194	-0.33517	0.15106	29.8	13111	100
2025-3-27 20:22:15.293	WT901BLE68-01(48591DE3C19B)	-0.351	-0.906	0.244	0.488	0.122	1.465	-75.82	21.28	-38.44	-72.618	-26.754	109.564	-0.76959	0.52194	-0.33517	0.15106	29.8	13111	100
2025-3-27 20:22:15.293	WT901BLE68-01(48591DE3C19B)	-0.351	-0.902	0.240	0.916	0.732	1.160	-75.81	21.29	-38.44	-72.618	-26.754	109.564	-0.76959	0.52194	-0.33517	0.15106	29.8	13111	100
2025-3-27 20:22:15.293	WT901BLE68-01(48591DE3C19B)	-0.354	-0.902	0.240	0.916	0.732	1.160	-75.79	21.30	-38.44	-72.618	-26.754	109.564	-0.76959	0.52194	-0.33517	0.15106	29.8	13111	100
2025-3-27 20:22:15.294	WT901BLE68-01(48591DE3C19B)	-0.354	-0.897	0.238	0.671	0.671	0.549	-75.78	21.31	-38.45	-72.618	-26.754	109.564	-0.76959	0.52194	-0.33517	0.15106	29.8	13111	100
2025-3-27 20:22:15.294	WT901BLE68-01(48591DE3C19B)	-0.357	-0.897	0.238	0.671	0.671	0.549	-75.77	21.31	-38.45	-72.618	-26.754	109.564	-0.76959	0.52194	-0.33517	0.15106	29.8	13111	100
2025-3-27 20:22:15.294	WT901BLE68-01(48591DE3C19B)	-0.357	-0.896	0.238	0.244	-0.122	-0.122	-75.76	21.31	-38.45	-72.618	-26.754	109.564	-0.76959	0.52194	-0.33517	0.15106	29.8	13111	100
2025-3-27 20:22:15.294	WT901BLE68-01(48591DE3C19B)	-0.357	-0.896	0.238	0.244	-0.122	-0.122	-75.75	21.31	-38.45	-72.618	-26.754	109.564	-0.76959	0.52194	-0.33517	0.15106	29.8	13111	100
2025-3-27 20:22:15.351	WT901BLE68-01(48591DE3C19B)	-0.357	-0.896	0.236	-0.427	-1.343	-0.732	-75.75	21.30	-38.45	-72.618	-26.754	109.564	-0.76959	0.52194	-0.33517	0.15106	29.8	13111	100
2025-3-27 20:22:15.351	WT901BLE68-01(48591DE3C19B)	-0.356	-0.896	0.236	-0.427	-1.343	-0.732	-75.74	21.29	-38.44	-72.618	-26.754	109.564	-0.76987	0.52170	-0.33621	0.14825	29.8	13111	100
2025-3-27 20:22:15.352	WT901BLE68-01(48591DE3C19B)	-0.356	-0.893	0.235	-0.977	-2.380	-1.221	-75.74	21.27	-38.42	-72.618	-26.754	109.564	-0.76987	0.52170	-0.33621	0.14825	29.8	13111	100
2025-3-27 20:22:15.352	WT901BLE68-01(48591DE3C19B)	-0.355	-0.893	0.235	-0.977	-2.380	-1.221	-75.73	21.25	-38.40	-72.618	-26.754	109.564	-0.76987	0.52170	-0.33621	0.14825	29.8	13111	100
2025-3-27 20:22:15.380	WT901BLE68-01(48591DE3C19B)	-0.355	-0.883	0.235	-1.587	-3.235	-1.648	-75.73	21.23	-38.37	-72.618	-26.754	109.564	-0.76987	0.52170	-0.33621	0.14825	29.8	13111	100
2025-3-27 20:22:15.380	WT901BLE68-01(48591DE3C19B)	-0.354	-0.883	0.235	-1.587	-3.235	-1.648	-75.73	21.20	-38.34	-72.618	-26.754	109.564	-0.76987	0.52170	-0.33621	0.14825	29.8	13111	100
2025-3-27 20:22:15.380	WT901BLE68-01(48591DE3C19B)	-0.354	-0.879	0.234	-2.258	-3.967	-2.136	-75.74	21.18	-38.31	-72.618	-26.754	109.564	-0.76987	0.52170	-0.33621	0.14825	29.8	13111	100
2025-3-27 20:22:15.380	WT901BLE68-01(48591DE3C19B)	-0.357	-0.879	0.234	-2.258	-3.967	-2.136	-75.75	21.14	-38.28	-72.618	-26.754	109.564	-0.76987	0.52170	-0.33621	0.14825	29.8	13111	100
2025-3-27 20:22:15.411	WT901BLE68-01(48591DE3C19B)	-0.357	-0.885	0.232	-2.991	-4.700	-2.808	-75.75	21.11	-38.24	-72.618	-26.754	109.564	-0.76987	0.52170	-0.33621	0.14825	29.8	13111	100
2025-3-27 20:22:15.411	WT901BLE68-01(48591DE3C19B)	-0.363	-0.885	0.232	-2.991	-4.700	-2.808	-75.76	21.07	-38.19	-72.618	-26.754	109.564	-0.76987	0.52170	-0.33621	0.14825	29.8	13111	100
2025-3-27 20:22:15.411	WT901BLE68-01(48591DE3C19B)	-0.363	-0.891	0.232	-3.357	-5.981	-3.906	-75.77	21.02	-38.14	-72.618	-26.754	109.564	-0.76987	0.52170	-0.33621	0.14825	29.8	13111	100
2025-3-27 20:22:15.411	WT901BLE68-01(48591DE3C19B)	-0.370	-0.891	0.232	-3.357	-5.981	-3.906	-75.78	20.97	-38.09	-72.618	-26.754	109.564	-0.76987	0.52170	-0.33621	0.14825	29.8	13111	100
2025-3-27 20:22:15.472	WT901BLE68-01(48591DE3C19B)	-0.370	-0.891	0.233	-4.395	-8.057	-5.371	-75.80	20.90	-38.02	-72.618	-26.754	109.564	-0.76987	0.52170	-0.33621	0.14825	29.8	13111	100
2025-3-27 20:22:15.472	WT901BLE68-01(48591DE3C19B)	-0.370	-0.891	0.233	-4.395	-8.057	-5.371	-75.82	20.83	-37.95	-72.618	-26.754	109.564	-0.76987	0.52170	-0.33621	0.14825	29.8	13111	100
2025-3-27 20:22:15.472	WT901BLE68-01(48591DE3C19B)	-0.370	-0.895	0.233	-5.615	-10.071	-7.080	-75.84	20.74	-37.87	-72.618	-26.754	109.564	-0.76987	0.52170	-0.33621	0.14825	29.8	13111	100
2025-3-27 20:22:15.472	WT901BLE68-01(48591DE3C19B)	-0.379	-0.895	0.233	-5.615	-10.071	-7.080	-75.86	20.65	-37.78	-72.618	-26.754	109.564	-0.76987	0.52170	-0.33621	0.14825	29.8	13111	100
2025-3-27 20:22:15.501	WT901BLE68-01(48591DE3C19B)	-0.379	-0.891	0.230	-6.653	-12.512	-8.606	-75.88	20.54	-37.68	-72.618	-26.754	109.564	-0.76987	0.52170	-0.33621	0.14825	29.8	13111	100
2025-3-27 20:22:15.501	WT901BLE68-01(48591DE3C19B)	-0.386	-0.891	0.230	-6.653	-12.512	-8.606	-75.91	20.43	-37.57	-72.618	-26.754	109.564	-0.76987	0.52170	-0.33621	0.14825	29.8	13111	100
2025-3-27 20:22:15.501	WT901BLE68-01(48591DE3C19B)	-0.386	-0.889	0.229	-8.179	-16.052	-10.315	-75.94	20.30	-37.43	-72.618	-26.754	109.564	-0.76987	0.52170	-0.33621	0.14825	29.8	13111	100
2025-3-27 20:22:15.501	WT901BLE68-01(48591DE3C19B)	-0.392	-0.889	0.229	-8.179	-16.052	-10.315	-75.97	20.18	-37.29	-71.050	-27.244	109.760	-0.76987	0.52170	-0.33621	0.14825	29.8	13111	100
2025-3-27 20:22:15.533	WT901BLE68-01(48591DE3C19B)	-0.392	-0.879	0.230	-9.399	-19.653	-12.024	-76.00	20.02	-37.12	-71.050	-27.244	109.760	-0.76987	0.52170	-0.33621	0.14825	29.8	13111	100
2025-3-27 20:22:15.533	WT901BLE68-01(48591DE3C19B)	-0.397	-0.879	0.230	-9.399	-19.653	-12.024	-76.03	19.87	-36.95	-71.050	-27.244	109.760	-0.76987	0.52170	-0.33621	0.14825	29.8	13111	100
2025-3-27 20:22:15.534	WT901BLE68-01(48591DE3C19B)	-0.397	-0.882	0.232	-11.292	-24.292	-13.672	-76.06	19.69	-36.73	-71.050	-27.244	109.760	-0.76987	0.52170	-0.33621	0.14825	29.8	13111	100
2025-3-27 20:22:15.534	WT901BLE68-01(48591DE3C19B)	-0.395	-0.882	0.232	-11.292	-24.292	-13.672	-76.10	19.52	-36.52	-71.050	-27.244	109.760	-0.76987	0.52170	-0.33621	0.14825	29.8	13111	100
2025-3-27 20:22:15.591	WT901BLE68-01(48591DE3C19B)	-0.395	-0.909	0.234	-12.329	-27.405	-15.259	-76.14	19.32	-36.27	-71.050	-27.244	109.760	-0.76987	0.52170	-0.33621	0.14825	29.8	13111	100
2025-3-27 20:22:15.591	WT901BLE68-01(48591DE3C19B)	-0.392	-0.909	0.234	-12.329	-27.405	-15.259	-76.18	19.13	-36.03	-71.050	-27.244	109.760	-0.76987	0.52170	-0.33621	0.14825	29.8	13111	100
2025-3-27 20:22:15.591	WT901BLE68-01(48591DE3C19B)	-0.392	-0.919	0.242	-12.024	-28.015	-16.418	-76.21	18.92	-35.78	-71.050	-27.244	109.760	-0.76987	0.52170	-0.33621	0.14825	29.8	13111	100
2025-3-27 20:22:15.591	WT901BLE68-01(48591DE3C19B)	-0.389	-0.919	0.242	-12.024	-28.015	-16.418	-76.25	18.72	-35.54	-71.050	-27.244	109.760	-0.76987	0.52170	-0.33621	0.14825	29.8	13111	100
2025-3-27 20:22:15.621	WT901BLE68-01(48591DE3C19B)	-0.389	-0.917	0.245	-11.780	-27.527	-16.846	-76.28	18.51	-35.30	-71.050	-27.244	109.760	-0.76987	0.52170	-0.33621	0.14825	29.8	13111	100
2025-3-27 20:22:15.621	WT901BLE68-01(48591DE3C19B)	-0.390	-0.917	0.245	-11.780	-27.527	-16.846	-76.32	18.31	-35.06	-71.050	-27.244	109.760	-0.76987	0.52170	-0.33621	0.14825	29.8	13111	100
2025-3-27 20:22:15.621	WT901BLE68-01(48591DE3C19B)	-0.390	-0.908	0.244	-11.536	-26.733	-16.479	-76.35	18.11	-34.83	-71.050	-27.244	109.760	-0.76987	0.52170	-0.33621	0.14825	29.8	13111	100
2025-3-27 20:22:15.621	WT901BLE68-01(48591DE3C19B)	-0.393	-0.908	0.244	-11.536	-26.733	-16.479	-76.39	17.91	-34.60	-71.050	-27.244	109.760	-0.76987	0.52170	-0.33621	0.14825	29.8	13111	100
2025-3-27 20:22:15.651	WT901BLE68-01(48591DE3C19B)	-0.393	-0.899	0.243	-11.230	-26.794	-15.137	-76.43	17.73	-34.36	-71.050	-27.244	109.760	-0.76987	0.52170	-0.33621	0.14825	29.8	13111	100
2025-3-27 20:22:15.652	WT901BLE68-01(48591DE3C19B)	-0.396	-0.899	0.243	-11.230	-26.794	-15.137	-76.46	17.56	-34.12	-71.050	-27.244	109.760	-0.76987	0.52170	-0.33621	0.14825	29.8	13111	100
2025-3-27 20:22:15.652	WT901BLE68-01(48591DE3C19B)	-0.396	-0.882	0.243	-11.414	-28.076	-13.184	-76.49	17.39	-33.87	-71.050	-27.244	109.760	-0.76987	0.52170	-0.33621	0.14825	29.8	13111	100
2025-3-27 20:22:15.652	WT901BLE68-01(48591DE3C19B)	-0.398	-0.882	0.243	-11.414	-28.076	-13.184	-76.52	17.23	-33.62	-71.050	-27.244	109.760	-0.76987	0.52170	-0.33621	0.14825	29.8	13111	100
2025-3-27 20:22:15.711	WT901BLE68-01(48591DE3C19B)	-0.398	-0.872	0.241	-11.780	-30.457	-11.292	-76.54	17.08	-33.34	-71.050	-27.244	109.760	-0.76987	0.52170	-0.33621	0.14825	29.8	13111	100
2025-3-27 20:22:15.711	WT901BLE68-01(48591DE3C19B)	-0.398	-0.872	0.241	-11.780	-30.457	-11.292	-76.57	16.94	-33.05	-71.050	-27.244	109.760	-0.77020	0.55460	-0.28516	0.13336	29.8	13111	100
2025-3-27 20:22:15.711	WT901BLE68-01(48591DE3C19B)	-0.398	-0.878	0.242	-12.268	-33.020	-9.583	-76.59	16.80	-32.74	-71.050	-27.244	109.760	-0.77020	0.55460	-0.28516	0.13336	29.8	13111	100
2025-3-27 20:22:15.711	WT901BLE68-01(48591DE3C19B)	-0.395	-0.878	0.242	-12.268	-33.020	-9.583	-76.61	16.67	-32.43	-71.050	-27.244	109.760	-0.77020	0.55460	-0.28516	0.13336	29.8	13111	100
2025-3-27 20:22:15.741	WT901BLE68-01(48591DE3C19B)	-0.395	-0.898	0.246	-11.902	-34.790	-7.874	-76.63	16.56	-32.10	-71.050	-27.244	109.760	-0.77020	0.55460	-0.28516	0.13336	29.8	13111	100
2025-3-27 20:22:15.741	WT901BLE68-01(48591DE3C19B)	-0.385	-0.898	0.246	-11.902	-34.790	-7.874	-76.64	16.44	-31.76	-71.050	-27.244	109.760	-0.77020	0.55460	-0.28516	0.13336	29.8	13111	100
2025-3-27 20:22:15.742	WT901BLE68-01(48591DE3C19B)	-0.385	-0.909	0.248	-10.315	-34.424	-5.676	-76.64	16.34	-31.43	-71.050	-27.244	109.760	-0.77020	0.55460	-0.28516	0.13336	29.8	13111	100
2025-3-27 20:22:15.742	WT901BLE68-01(48591DE3C19B)	-0.370	-0.909	0.248	-10.315	-34.424	-5.676	-76.64	16.25	-31.09	-71.050	-27.244	109.760	-0.77020	0.55460	-0.28516	0.13336	29.8	13111	100
2025-3-27 20:22:15.773	WT901BLE68-01(48591DE3C19B)	-0.370	-0.905	0.245	-8.118	-31.189	-2.808	-76.62	16.19	-30.78	-71.050	-27.244	109.760	-0.77020	0.55460	-0.28516	0.13336	29.8	13111	100
2025-3-27 20:22:15.773	WT901BLE68-01(48591DE3C19B)	-0.357	-0.905	0.245	-8.118	-31.189	-2.808	-76.61	16.13	-30.48	-71.050	-27.244	109.760	-0.77020	0.55460	-0.28516	0.13336	29.8	13111	100
2025-3-27 20:22:15.773	WT901BLE68-01(48591DE3C19B)	-0.357	-0.902	0.234	-5.981	-26.184	0.671	-76.58	16.11	-30.21	-71.050	-27.244	109.760	-0.77020	0.55460	-0.28516	0.13336	29.8	13111	100
2025-3-27 20:22:15.773	WT901BLE68-01(48591DE3C19B)	-0.354	-0.902	0.234	-5.981	-26.184	0.671	-76.56	16.09	-29.94	-71.050	-27.244	109.760	-0.77020	0.55460	-0.28516	0.13336	29.8	13111	100
2025-3-27 20:22:15.833	WT901BLE68-01(48591DE3C19B)	-0.354	-0.901	0.232	-3.967	-21.301	4.028	-76.53	16.12	-29.72	-71.050	-27.244	109.760	-0.77020	0.55460	-0.28516	0.13336	29.8	13111	100
2025-3-27 20:22:15.833	WT901BLE68-01(48591DE3C19B)	-0.357	-0.901	0.232	-3.967	-21.301	4.028	-76.50	16.14	-29.49	-71.050	-27.244	109.760	-0.77020	0.55460	-0.28516	0.13336	29.8	13111	100
2025-3-27 20:22:15.833	WT901BLE68-01(48591DE3C19B)	-0.357	-0.898	0.234	-2.197	-17.456	7.385	-76.45	16.21	-29.30	-71.050	-27.244	109.760	-0.77020	0.55460	-0.28516	0.13336	29.8	13111	100
2025-3-27 20:22:15.834	WT901BLE68-01(48591DE3C19B)	-0.350	-0.898	0.234	-2.197	-17.456	7.385	-76.42	16.28	-29.10	-71.050	-27.244	109.760	-0.77020	0.55460	-0.28516	0.13336	29.8	13111	100
2025-3-27 20:22:15.863	WT901BLE68-01(48591DE3C19B)	-0.350	-0.891	0.227	-1.099	-15.076	10.498	-76.37	16.38	-28.92	-71.050	-27.244	109.760	-0.77020	0.55460	-0.28516	0.13336	29.8	13111	100
2025-3-27 20:22:15.863	WT901BLE68-01(48591DE3C19B)	-0.342	-0.891	0.227	-1.099	-15.076	10.498	-76.32	16.47	-28.74	-71.050	-27.244	109.760	-0.77020	0.55460	-0.28516	0.13336	29.8	13111	100
2025-3-27 20:22:15.863	WT901BLE68-01(48591DE3C19B)	-0.342	-0.886	0.216	-0.122	-12.573	13.000	-76.27	16.60	-28.58	-71.050	-27.244	109.760	-0.77020	0.55460	-0.28516	0.13336	29.8	13111	100
2025-3-27 20:22:15.863	WT901BLE68-01(48591DE3C19B)	-0.338	-0.886	0.216	-0.122	-12.573	13.000	-76.22	16.73	-28.42	-59.486	-30.968	110.152	-0.77020	0.55460	-0.28516	0.13336	29.8	13111	100
2025-3-27 20:22:15.893	WT901BLE68-01(48591DE3C19B)	-0.325	-0.890	0.209	0.244	-10.803	14.404	-76.17	16.86	-28.28	-59.486	-30.968	110.152	-0.77020	0.55460	-0.28516	0.13336	29.8	13111	100
2025-3-27 20:22:15.893	WT901BLE68-01(48591DE3C19B)	-0.325	-0.891	0.214	0.854	-8.789	14.954	-76.12	17.01	-28.14	-59.486	-30.968	110.152	-0.77020	0.55460	-0.28516	0.13336	29.8	13111	100
2025-3-27 20:22:15.893	WT901BLE68-01(48591DE3C19B)	-0.322	-0.891	0.214	0.854	-8.789	14.954	-76.08	17.16	-28.01	-59.486	-30.968	110.152	-0.77020	0.55460	-0.28516	0.13336	29.8	13111	100
2025-3-27 20:22:15.893	WT901BLE68-01(48591DE3C19B)	-0.322	-0.879	0.218	0.977	-7.507	15.808	-76.03	17.31	-27.89	-59.486	-30.968	110.152	-0.77020	0.55460	-0.28516	0.13336	29.8	13111	100
2025-3-27 20:22:15.981	WT901BLE68-01(48591DE3C19B)	-0.313	-0.879	0.218	0.977	-7.507	15.808	-75.99	17.47	-27.77	-59.486	-30.968	110.152	-0.77020	0.55460	-0.28516	0.13336	29.8	13111	100
2025-3-27 20:22:15.982	WT901BLE68-01(48591DE3C19B)	-0.313	-0.864	0.213	1.709	-7.385	17.090	-75.94	17.63	-27.65	-59.486	-30.968	110.152	-0.77020	0.55460	-0.28516	0.13336	29.8	13111	100
2025-3-27 20:22:15.982	WT901BLE68-01(48591DE3C19B)	-0.292	-0.864	0.213	1.709	-7.385	17.090	-75.88	17.79	-27.53	-59.486	-30.968	110.152	-0.77020	0.55460	-0.28516	0.13336	29.8	13111	100
2025-3-27 20:22:15.982	WT901BLE68-01(48591DE3C19B)	-0.292	-0.820	0.203	2.441	-6.958	19.043	-75.83	17.96	-27.41	-59.486	-30.968	110.152	-0.77020	0.55460	-0.28516	0.13336	29.8	13111	100
2025-3-27 20:22:15.983	WT901BLE68-01(48591DE3C19B)	-0.272	-0.820	0.203	2.441	-6.958	19.043	-75.77	18.14	-27.29	-59.486	-30.968	110.152	-0.77020	0.55460	-0.28516	0.13336	29.8	13111	100
2025-3-27 20:22:15.983	WT901BLE68-01(48591DE3C19B)	-0.272	-0.772	0.194	2.930	-6.042	20.813	-75.70	18.34	-27.17	-59.486	-30.968	110.152	-0.77020	0.55460	-0.28516	0.13336	29.8	13111	100
2025-3-27 20:22:15.983	WT901BLE68-01(48591DE3C19B)	-0.258	-0.772	0.194	2.930	-6.042	20.813	-75.64	18.53	-27.05	-59.486	-30.968	110.152	-0.77020	0.55460	-0.28516	0.13336	29.8	13111	100
2025-3-27 20:22:15.983	WT901BLE68-01(48591DE3C19B)	-0.258	-0.751	0.188	2.869	-4.883	22.278	-75.57	18.73	-26.94	-59.486	-30.968	110.152	-0.77020	0.55460	-0.28516	0.13336	29.8	13111	100
2025-3-27 20:22:16.13	WT901BLE68-01(48591DE3C19B)	-0.255	-0.751	0.188	2.869	-4.883	22.278	-75.51	18.94	-26.83	-59.486	-30.968	110.152	-0.77020	0.55460	-0.28516	0.13336	29.8	13111	100
2025-3-27 20:22:16.13	WT901BLE68-01(48591DE3C19B)	-0.255	-0.761	0.187	4.211	-2.563	23.315	-75.45	19.16	-26.74	-59.486	-30.968	110.152	-0.77020	0.55460	-0.28516	0.13336	29.8	13111	100
2025-3-27 20:22:16.13	WT901BLE68-01(48591DE3C19B)	-0.250	-0.761	0.187	4.211	-2.563	23.315	-75.38	19.38	-26.64	-59.486	-30.968	110.152	-0.77020	0.55460	-0.28516	0.13336	29.8	13111	100
2025-3-27 20:22:16.13	WT901BLE68-01(48591DE3C19B)	-0.250	-0.786	0.182	6.592	0.000	23.804	-75.31	19.60	-26.56	-59.486	-30.968	110.152	-0.77020	0.55460	-0.28516	0.13336	29.8	13111	100
2025-3-27 20:22:16.71	WT901BLE68-01(48591DE3C19B)	-0.242	-0.786	0.182	6.592	0.000	23.804	-75.22	19.83	-26.50	-59.486	-30.968	110.152	-0.77020	0.55460	-0.28516	0.13336	29.8	13111	100
2025-3-27 20:22:16.71	WT901BLE68-01(48591DE3C19B)	-0.242	-0.796	0.173	10.559	4.456	23.743	-75.13	20.06	-26.46	-59.486	-30.968	110.152	-0.77020	0.55460	-0.28516	0.13336	29.8	13111	100
2025-3-27 20:22:16.71	WT901BLE68-01(48591DE3C19B)	-0.233	-0.796	0.173	10.559	4.456	23.743	-75.03	20.29	-26.44	-59.486	-30.968	110.152	-0.77020	0.55460	-0.28516	0.13336	29.8	13111	100
2025-3-27 20:22:16.71	WT901BLE68-01(48591DE3C19B)	-0.233	-0.796	0.156	13.855	10.925	22.766	-74.92	20.52	-26.46	-59.486	-30.968	110.152	-0.77020	0.55460	-0.28516	0.13336	29.8	13111	100
2025-3-27 20:22:16.103	WT901BLE68-01(48591DE3C19B)	-0.232	-0.796	0.156	13.855	10.925	22.766	-74.81	20.76	-26.50	-59.486	-30.968	110.152	-0.78561	0.54877	-0.27628	0.07257	29.8	13111	100
2025-3-27 20:22:16.103	WT901BLE68-01(48591DE3C19B)	-0.232	-0.809	0.140	16.663	19.836	20.020	-74.71	20.99	-26.60	-59.486	-30.968	110.152	-0.78561	0.54877	-0.27628	0.07257	29.8	13111	100
2025-3-27 20:22:16.103	WT901BLE68-01(48591DE3C19B)	-0.250	-0.809	0.140	16.663	19.836	20.020	-74.61	21.21	-26.75	-59.486	-30.968	110.152	-0.78561	0.54877	-0.27628	0.07257	29.8	13111	100
2025-3-27 20:22:16.104	WT901BLE68-01(48591DE3C19B)	-0.250	-0.827	0.140	18.921	29.053	15.015	-74.52	21.42	-26.95	-59.486	-30.968	110.152	-0.78561	0.54877	-0.27628	0.07257	29.8	13111	100
2025-3-27 20:22:16.161	WT901BLE68-01(48591DE3C19B)	-0.279	-0.827	0.140	18.921	29.053	15.015	-74.45	21.62	-27.21	-59.486	-30.968	110.152	-0.78561	0.54877	-0.27628	0.07257	29.8	13111	100
2025-3-27 20:22:16.161	WT901BLE68-01(48591DE3C19B)	-0.279	-0.847	0.163	21.790	35.278	7.813	-74.38	21.80	-27.51	-59.486	-30.968	110.152	-0.78561	0.54877	-0.27628	0.07257	29.8	13111	100
2025-3-27 20:22:16.161	WT901BLE68-01(48591DE3C19B)	-0.303	-0.847	0.163	21.790	35.278	7.813	-74.31	21.94	-27.86	-59.486	-30.968	110.152	-0.78561	0.54877	-0.27628	0.07257	29.8	13111	100
2025-3-27 20:22:16.161	WT901BLE68-01(48591DE3C19B)	-0.303	-0.819	0.203	27.161	39.063	1.770	-74.23	22.06	-28.22	-59.486	-30.968	110.152	-0.78561	0.54877	-0.27628	0.07257	29.8	13111	100
2025-3-27 20:22:16.190	WT901BLE68-01(48591DE3C19B)	-0.320	-0.819	0.203	27.161	39.063	1.770	-74.13	22.16	-28.62	-59.486	-30.968	110.152	-0.78561	0.54877	-0.27628	0.07257	29.8	13111	100
2025-3-27 20:22:16.191	WT901BLE68-01(48591DE3C19B)	-0.320	-0.722	0.218	34.851	39.368	0.183	-74.00	22.25	-29.03	-59.486	-30.968	110.152	-0.78561	0.54877	-0.27628	0.07257	29.8	13111	100
2025-3-27 20:22:16.191	WT901BLE68-01(48591DE3C19B)	-0.307	-0.722	0.218	34.851	39.368	0.183	-73.82	22.34	-29.44	-59.486	-30.968	110.152	-0.78561	0.54877	-0.27628	0.07257	29.8	13111	100
2025-3-27 20:22:16.191	WT901BLE68-01(48591DE3C19B)	-0.307	-0.587	0.206	42.603	38.696	5.310	-73.61	22.46	-29.84	-59.486	-30.968	110.152	-0.78561	0.54877	-0.27628	0.07257	29.8	13111	100
2025-3-27 20:22:16.221	WT901BLE68-01(48591DE3C19B)	-0.307	-0.587	0.206	42.603	38.696	5.310	-73.35	22.60	-30.22	-59.486	-30.968	110.152	-0.78561	0.54877	-0.27628	0.07257	29.8	13111	100
2025-3-27 20:22:16.221	WT901BLE68-01(48591DE3C19B)	-0.307	-0.491	0.208	49.255	40.649	15.869	-73.05	22.80	-30.60	-59.486	-30.968	110.152	-0.78561	0.54877	-0.27628	0.07257	29.8	13111	100
2025-3-27 20:22:16.221	WT901BLE68-01(48591DE3C19B)	-0.328	-0.491	0.208	49.255	40.649	15.869	-72.72	23.05	-30.97	-59.486	-30.968	110.152	-0.78561	0.54877	-0.27628	0.07257	29.8	13111	100
2025-3-27 20:22:16.221	WT901BLE68-01(48591DE3C19B)	-0.328	-0.516	0.217	49.316	41.687	29.236	-72.38	23.38	-31.32	-59.486	-30.968	110.152	-0.78561	0.54877	-0.27628	0.07257	29.8	13111	100
2025-3-27 20:22:16.282	WT901BLE68-01(48591DE3C19B)	-0.312	-0.516	0.217	49.316	41.687	29.236	-72.03	23.79	-31.66	-59.486	-30.968	110.152	-0.78561	0.54877	-0.27628	0.07257	29.8	13111	100
2025-3-27 20:22:16.282	WT901BLE68-01(48591DE3C19B)	-0.312	-0.625	0.232	45.715	41.748	40.466	-71.70	24.24	-31.98	-59.486	-30.968	110.152	-0.78561	0.54877	-0.27628	0.07257	29.8	13111	100
2025-3-27 20:22:16.282	WT901BLE68-01(48591DE3C19B)	-0.268	-0.625	0.232	45.715	41.748	40.466	-71.37	24.75	-32.27	-59.486	-30.968	110.152	-0.78561	0.54877	-0.27628	0.07257	29.8	13111	100
2025-3-27 20:22:16.282	WT901BLE68-01(48591DE3C19B)	-0.268	-0.730	0.186	37.964	55.969	42.786	-71.12	25.29	-32.63	-59.486	-30.968	110.152	-0.78561	0.54877	-0.27628	0.07257	29.8	13111	100
2025-3-27 20:22:16.313	WT901BLE68-01(48591DE3C19B)	-0.298	-0.730	0.186	37.964	55.969	42.786	-70.94	25.86	-33.06	-66.150	-20.972	109.172	-0.78561	0.54877	-0.27628	0.07257	29.8	13111	100
2025-3-27 20:22:16.313	WT901BLE68-01(48591DE3C19B)	-0.298	-0.904	0.163	26.550	80.444	28.198	-70.89	26.39	-33.66	-66.150	-20.972	109.172	-0.78561	0.54877	-0.27628	0.07257	29.8	13111	100
2025-3-27 20:22:16.313	WT901BLE68-01(48591DE3C19B)	-0.566	-0.904	0.163	26.550	80.444	28.198	-70.99	26.89	-34.40	-66.150	-20.972	109.172	-0.78561	0.54877	-0.27628	0.07257	29.8	13111	100
2025-3-27 20:22:16.313	WT901BLE68-01(48591DE3C19B)	-0.566	-1.131	0.289	16.602	88.074	0.366	-71.18	27.27	-35.25	-66.150	-20.972	109.172	-0.78561	0.54877	-0.27628	0.07257	29.8	13111	100
2025-3-27 20:22:16.343	WT901BLE68-01(48591DE3C19B)	-0.727	-1.131	0.289	16.602	88.074	0.366	-71.47	27.52	-36.19	-66.150	-20.972	109.172	-0.78561	0.54877	-0.27628	0.07257	29.8	13111	100
2025-3-27 20:22:16.343	WT901BLE68-01(48591DE3C19B)	-2.908	-1.264	0.491	-2.991	72.876	-30.090	-71.85	27.60	-37.10	-66.150	-20.972	109.172	-0.78561	0.54877	-0.27628	0.07257	29.8	13111	100
2025-3-27 20:22:16.343	WT901BLE68-01(48591DE3C19B)	-0.753	-5.057	1.966	-2.991	72.876	-30.090	-72.29	27.53	-37.99	-66.150	-20.972	109.172	-0.78561	0.54877	-0.27628	0.07257	29.8	13111	100
2025-3-27 20:22:16.344	WT901BLE68-01(48591DE3C19B)	-0.753	-1.284	0.597	-19.348	59.631	-60.608	-72.87	27.11	-38.83	-66.150	-20.972	109.172	-0.78561	0.54877	-0.27628	0.07257	29.8	13111	100
2025-3-27 20:22:16.401	WT901BLE68-01(48591DE3C19B)	-0.962	-1.284	0.597	-19.348	59.631	-60.608	-73.43	26.70	-39.67	-66.150	-20.972	109.172	-0.78561	0.54877	-0.27628	0.07257	29.8	13111	100
2025-3-27 20:22:16.402	WT901BLE68-01(48591DE3C19B)	-0.962	-1.192	0.691	-21.484	51.697	-72.144	-73.97	26.15	-40.45	-66.150	-20.972	109.172	-0.78561	0.54877	-0.27628	0.07257	29.8	13111	100
2025-3-27 20:22:16.402	WT901BLE68-01(48591DE3C19B)	-1.035	-1.192	0.691	-21.484	51.697	-72.144	-74.49	25.61	-41.22	-66.150	-20.972	109.172	-0.78561	0.54877	-0.27628	0.07257	29.8	13111	100
2025-3-27 20:22:16.402	WT901BLE68-01(48591DE3C19B)	-1.035	-1.041	0.708	-28.564	4.272	-68.298	-74.83	24.98	-41.47	-66.150	-20.972	109.172	-0.78561	0.54877	-0.27628	0.07257	29.8	13111	100
2025-3-27 20:22:16.432	WT901BLE68-01(48591DE3C19B)	-0.875	-1.041	0.708	-28.564	4.272	-68.298	-75.17	24.37	-41.71	-66.150	-20.972	109.172	-0.78561	0.54877	-0.27628	0.07257	29.8	13111	100
2025-3-27 20:22:16.432	WT901BLE68-01(48591DE3C19B)	-0.875	-0.962	0.615	-40.955	-64.575	-56.519	-75.31	23.70	-41.19	-66.150	-20.972	109.172	-0.78561	0.54877	-0.27628	0.07257	29.8	13111	100
2025-3-27 20:22:16.432	WT901BLE68-01(48591DE3C19B)	-0.681	-0.962	0.615	-40.955	-64.575	-56.519	-75.45	23.04	-40.67	-66.150	-20.972	109.172	-0.78561	0.54877	-0.27628	0.07257	29.8	13111	100
2025-3-27 20:22:16.432	WT901BLE68-01(48591DE3C19B)	-0.681	-0.975	0.438	-47.791	-116.821	-39.429	-75.43	22.42	-39.56	-66.150	-20.972	109.172	-0.78561	0.54877	-0.27628	0.07257	29.8	13111	100
2025-3-27 20:22:16.461	WT901BLE68-01(48591DE3C19B)	-0.548	-0.975	0.438	-47.791	-116.821	-39.429	-75.43	21.80	-38.46	-66.150	-20.972	109.172	-0.78561	0.54877	-0.27628	0.07257	29.8	13111	100
2025-3-27 20:22:16.461	WT901BLE68-01(48591DE3C19B)	-0.548	-1.062	0.288	-44.861	-133.484	-22.705	-75.34	21.31	-37.14	-66.150	-20.972	109.172	-0.78561	0.54877	-0.27628	0.07257	29.8	13111	100
2025-3-27 20:22:16.461	WT901BLE68-01(48591DE3C19B)	-0.420	-1.062	0.288	-44.861	-133.484	-22.705	-75.26	20.81	-35.83	-66.150	-20.972	109.172	-0.78561	0.54877	-0.27628	0.07257	29.8	13111	100
2025-3-27 20:22:16.461	WT901BLE68-01(48591DE3C19B)	-0.420	-1.077	0.233	-29.053	-115.845	-11.963	-75.10	20.46	-34.67	-66.150	-20.972	109.172	-0.78561	0.54877	-0.27628	0.07257	29.8	13111	100
2025-3-27 20:22:16.551	WT901BLE68-01(48591DE3C19B)	-0.304	-1.077	0.233	-29.053	-115.845	-11.963	-74.94	20.10	-33.51	-66.150	-20.972	109.172	-0.78561	0.54877	-0.27628	0.07257	29.8	13111	100
2025-3-27 20:22:16.552	WT901BLE68-01(48591DE3C19B)	-0.304	-0.970	0.303	-11.780	-83.008	-5.249	-74.74	19.88	-32.68	-66.150	-20.972	109.172	-0.78146	0.53580	-0.29715	0.11771	29.8	13111	100
2025-3-27 20:22:16.552	WT901BLE68-01(48591DE3C19B)	-0.157	-0.970	0.303	-11.780	-83.008	-5.249	-74.54	19.66	-31.85	-66.150	-20.972	109.172	-0.78146	0.53580	-0.29715	0.11771	29.8	13111	100
2025-3-27 20:22:16.552	WT901BLE68-01(48591DE3C19B)	-0.157	-0.781	0.392	0.854	-35.828	2.747	-74.38	19.63	-31.48	-66.150	-20.972	109.172	-0.78146	0.53580	-0.29715	0.11771	29.8	13111	100
2025-3-27 20:22:16.553	WT901BLE68-01(48591DE3C19B)	-0.125	-0.781	0.392	0.854	-35.828	2.747	-74.21	19.59	-31.11	-66.150	-20.972	109.172	-0.78146	0.53580	-0.29715	0.11771	29.8	13111	100
2025-3-27 20:22:16.553	WT901BLE68-01(48591DE3C19B)	-0.125	-0.583	0.412	11.719	24.658	10.620	-74.13	19.79	-31.34	-66.150	-20.972	109.172	-0.78146	0.53580	-0.29715	0.11771	29.8	13111	100
2025-3-27 20:22:16.553	WT901BLE68-01(48591DE3C19B)	-0.218	-0.583	0.412	11.719	24.658	10.620	-74.04	19.98	-31.56	-66.150	-20.972	109.172	-0.78146	0.53580	-0.29715	0.11771	29.8	13111	100
2025-3-27 20:22:16.553	WT901BLE68-01(48591DE3C19B)	-0.218	-0.463	0.325	12.573	65.796	18.005	-74.09	20.36	-32.19	-66.150	-20.972	109.172	-0.78146	0.53580	-0.29715	0.11771	29.8	13111	100
2025-3-27 20:22:16.583	WT901BLE68-01(48591DE3C19B)	-0.302	-0.463	0.325	12.573	65.796	18.005	-74.12	20.73	-32.82	-66.150	-20.972	109.172	-0.78146	0.53580	-0.29715	0.11771	29.8	13111	100
2025-3-27 20:22:16.584	WT901BLE68-01(48591DE3C19B)	-0.302	-0.435	0.240	5.615	78.552	18.799	-74.28	21.13	-33.57	-66.150	-20.972	109.172	-0.78146	0.53580	-0.29715	0.11771	29.8	13111	100
2025-3-27 20:22:16.584	WT901BLE68-01(48591DE3C19B)	-0.343	-0.435	0.240	5.615	78.552	18.799	-74.45	21.54	-34.33	-66.150	-20.972	109.172	-0.78146	0.53580	-0.29715	0.11771	29.8	13111	100
2025-3-27 20:22:16.584	WT901BLE68-01(48591DE3C19B)	-0.343	-0.460	0.200	-2.563	71.350	13.855	-74.67	21.88	-35.04	-66.150	-20.972	109.172	-0.78146	0.53580	-0.29715	0.11771	29.8	13111	100
2025-3-27 20:22:16.643	WT901BLE68-01(48591DE3C19B)	-0.393	-0.460	0.200	-2.563	71.350	13.855	-74.90	22.22	-35.74	-66.150	-20.972	109.172	-0.78146	0.53580	-0.29715	0.11771	29.8	13111	100
2025-3-27 20:22:16.643	WT901BLE68-01(48591DE3C19B)	-0.393	-0.476	0.201	-7.935	45.654	10.742	-75.10	22.47	-36.19	-66.150	-20.972	109.172	-0.78146	0.53580	-0.29715	0.11771	29.8	13111	100
2025-3-27 20:22:16.643	WT901BLE68-01(48591DE3C19B)	-0.428	-0.476	0.201	-7.935	45.654	10.742	-75.29	22.71	-36.64	-66.150	-20.972	109.172	-0.78146	0.53580	-0.29715	0.11771	29.8	13111	100
2025-3-27 20:22:16.644	WT901BLE68-01(48591DE3C19B)	-0.428	-0.431	0.212	-11.780	9.705	10.498	-75.38	22.87	-36.72	-66.150	-20.972	109.172	-0.78146	0.53580	-0.29715	0.11771	29.8	13111	100
2025-3-27 20:22:16.673	WT901BLE68-01(48591DE3C19B)	-0.394	-0.431	0.212	-11.780	9.705	10.498	-75.47	23.03	-36.79	-66.150	-20.972	109.172	-0.78146	0.53580	-0.29715	0.11771	29.8	13111	100
2025-3-27 20:22:16.674	WT901BLE68-01(48591DE3C19B)	-0.394	-0.368	0.212	-15.503	-26.306	13.977	-75.43	23.14	-36.48	-66.150	-20.972	109.172	-0.78146	0.53580	-0.29715	0.11771	29.8	13111	100
2025-3-27 20:22:16.674	WT901BLE68-01(48591DE3C19B)	-0.303	-0.368	0.212	-15.503	-26.306	13.977	-75.40	23.26	-36.17	-66.150	-20.972	109.172	-0.78146	0.53580	-0.29715	0.11771	29.8	13111	100
2025-3-27 20:22:16.674	WT901BLE68-01(48591DE3C19B)	-0.303	-0.322	0.194	-18.982	-49.744	20.691	-75.29	23.38	-35.60	-67.914	-23.128	107.310	-0.78146	0.53580	-0.29715	0.11771	29.8	13111	100
2025-3-27 20:22:16.703	WT901BLE68-01(48591DE3C19B)	-0.234	-0.322	0.194	-18.982	-49.744	20.691	-75.19	23.51	-35.01	-67.914	-23.128	107.310	-0.78146	0.53580	-0.29715	0.11771	29.8	13111	100
2025-3-27 20:22:16.704	WT901BLE68-01(48591DE3C19B)	-0.234	-0.340	0.186	-23.071	-59.326	25.574	-75.08	23.65	-34.32	-67.914	-23.128	107.310	-0.78146	0.53580	-0.29715	0.11771	29.8	13111	100
2025-3-27 20:22:16.704	WT901BLE68-01(48591DE3C19B)	-0.228	-0.340	0.186	-23.071	-59.326	25.574	-74.96	23.80	-33.63	-67.914	-23.128	107.310	-0.78146	0.53580	-0.29715	0.11771	29.8	13111	100
2025-3-27 20:22:16.704	WT901BLE68-01(48591DE3C19B)	-0.228	-0.500	0.185	-28.381	-62.866	22.888	-74.88	23.90	-32.90	-67.914	-23.128	107.310	-0.78146	0.53580	-0.29715	0.11771	29.8	13111	100
2025-3-27 20:22:16.762	WT901BLE68-01(48591DE3C19B)	-0.262	-0.500	0.185	-28.381	-62.866	22.888	-74.81	24.00	-32.17	-67.914	-23.128	107.310	-0.78146	0.53580	-0.29715	0.11771	29.8	13111	100
2025-3-27 20:22:16.762	WT901BLE68-01(48591DE3C19B)	-0.262	-0.736	0.190	-32.227	-61.279	12.085	-74.81	23.99	-31.49	-67.914	-23.128	107.310	-0.78146	0.53580	-0.29715	0.11771	29.8	13111	100
2025-3-27 20:22:16.762	WT901BLE68-01(48591DE3C19B)	-0.347	-0.736	0.190	-32.227	-61.279	12.085	-74.81	23.97	-30.81	-67.914	-23.128	107.310	-0.78146	0.53580	-0.29715	0.11771	29.8	13111	100
2025-3-27 20:22:16.762	WT901BLE68-01(48591DE3C19B)	-0.347	-1.192	0.223	-36.438	-58.105	-5.188	-74.89	23.79	-30.21	-67.914	-23.128	107.310	-0.78146	0.53580	-0.29715	0.11771	29.8	13111	100
2025-3-27 20:22:16.790	WT901BLE68-01(48591DE3C19B)	-0.401	-1.192	0.223	-36.438	-58.105	-5.188	-74.99	23.59	-29.61	-67.914	-23.128	107.310	-0.78146	0.53580	-0.29715	0.11771	29.8	13111	100
2025-3-27 20:22:16.791	WT901BLE68-01(48591DE3C19B)	-0.401	-1.816	0.185	-29.907	-55.481	-23.621	-75.08	23.22	-29.09	-67.914	-23.128	107.310	-0.78146	0.53580	-0.29715	0.11771	29.8	13111	100
2025-3-27 20:22:16.791	WT901BLE68-01(48591DE3C19B)	-0.363	-1.816	0.185	-29.907	-55.481	-23.621	-75.17	22.84	-28.56	-67.914	-23.128	107.310	-0.78146	0.53580	-0.29715	0.11771	29.8	13111	100
2025-3-27 20:22:16.791	WT901BLE68-01(48591DE3C19B)	-0.361	-2.069	0.173	1.221	-37.354	-30.029	-75.05	22.43	-28.26	-67.914	-23.128	107.310	-0.78146	0.53580	-0.29715	0.11771	29.8	13111	100
2025-3-27 20:22:16.821	WT901BLE68-01(48591DE3C19B)	-0.361	-1.625	0.194	30.151	-12.390	-21.301	-74.85	22.09	-28.06	-67.914	-23.128	107.310	-0.78146	0.53580	-0.29715	0.11771	29.8	13111	100
2025-3-27 20:22:16.822	WT901BLE68-01(48591DE3C19B)	-0.243	-1.625	0.194	30.151	-12.390	-21.301	-74.55	21.82	-28.00	-67.914	-23.128	107.310	-0.78146	0.53580	-0.29715	0.11771	29.8	13111	100
2025-3-27 20:22:16.822	WT901BLE68-01(48591DE3C19B)	-0.243	-1.272	0.137	25.208	13.672	-9.521	-74.33	21.64	-28.05	-67.914	-23.128	107.310	-0.78146	0.53580	-0.29715	0.11771	29.8	13111	100
2025-3-27 20:22:16.822	WT901BLE68-01(48591DE3C19B)	-0.135	-1.272	0.137	25.208	13.672	-9.521	-74.17	21.54	-28.21	-67.914	-23.128	107.310	-0.78146	0.53580	-0.29715	0.11771	29.8	13111	100
2025-3-27 20:22:16.942	WT901BLE68-01(48591DE3C19B)	-0.135	-1.094	0.140	21.790	40.894	2.014	-74.09	21.54	-28.50	-67.914	-23.128	107.310	-0.78146	0.53580	-0.29715	0.11771	29.8	13111	100
2025-3-27 20:22:16.942	WT901BLE68-01(48591DE3C19B)	-0.144	-1.094	0.140	21.790	40.894	2.014	-74.06	21.63	-28.92	-67.914	-23.128	107.310	-0.78146	0.53580	-0.29715	0.11771	29.8	13111	100
2025-3-27 20:22:16.942	WT901BLE68-01(48591DE3C19B)	-0.144	-1.000	0.146	9.155	53.589	8.179	-74.12	21.76	-29.39	-67.914	-23.128	107.310	-0.78146	0.53580	-0.29715	0.11771	29.8	13111	100
2025-3-27 20:22:16.942	WT901BLE68-01(48591DE3C19B)	-0.192	-1.000	0.146	9.155	53.589	8.179	-74.27	21.93	-29.93	-67.914	-23.128	107.310	-0.78146	0.53580	-0.29715	0.11771	29.8	13111	100
2025-3-27 20:22:16.943	WT901BLE68-01(48591DE3C19B)	-0.192	-1.103	0.148	-2.258	55.969	-0.854	-74.49	22.07	-30.49	-67.914	-23.128	107.310	-0.78336	0.53314	-0.30490	0.09506	29.8	13111	100
2025-3-27 20:22:16.943	WT901BLE68-01(48591DE3C19B)	-0.295	-1.103	0.148	-2.258	55.969	-0.854	-74.77	22.15	-31.07	-67.914	-23.128	107.310	-0.78336	0.53314	-0.30490	0.09506	29.8	13111	100
2025-3-27 20:22:16.943	WT901BLE68-01(48591DE3C19B)	-0.295	-1.118	0.167	3.906	52.124	-9.644	-75.02	22.18	-31.65	-67.914	-23.128	107.310	-0.78336	0.53314	-0.30490	0.09506	29.8	13111	100
2025-3-27 20:22:16.943	WT901BLE68-01(48591DE3C19B)	-0.366	-1.118	0.167	3.906	52.124	-9.644	-75.23	22.16	-32.22	-67.914	-23.128	107.310	-0.78336	0.53314	-0.30490	0.09506	29.8	13111	100
2025-3-27 20:22:16.944	WT901BLE68-01(48591DE3C19B)	-0.366	-0.930	0.162	11.780	49.011	-22.217	-75.41	22.08	-32.79	-67.914	-23.128	107.310	-0.78336	0.53314	-0.30490	0.09506	29.8	13111	100
2025-3-27 20:22:16.944	WT901BLE68-01(48591DE3C19B)	-0.347	-0.930	0.162	11.780	49.011	-22.217	-75.54	21.94	-33.36	-67.914	-23.128	107.310	-0.78336	0.53314	-0.30490	0.09506	29.8	13111	100
2025-3-27 20:22:16.944	WT901BLE68-01(48591DE3C19B)	-0.347	-0.662	0.158	22.339	49.072	-27.161	-75.62	21.77	-33.94	-67.914	-23.128	107.310	-0.78336	0.53314	-0.30490	0.09506	29.8	13111	100
2025-3-27 20:22:16.944	WT901BLE68-01(48591DE3C19B)	-0.324	-0.662	0.158	22.339	49.072	-27.161	-75.65	21.59	-34.52	-67.914	-23.128	107.310	-0.78336	0.53314	-0.30490	0.09506	29.8	13111	100
2025-3-27 20:22:17.2	WT901BLE68-01(48591DE3C19B)	-0.324	-0.374	0.144	29.846	42.664	-19.165	-75.61	21.45	-35.05	-67.914	-23.128	107.310	-0.78336	0.53314	-0.30490	0.09506	29.8	13111	100
2025-3-27 20:22:17.2	WT901BLE68-01(48591DE3C19B)	-0.235	-0.374	0.144	29.846	42.664	-19.165	-75.52	21.35	-35.55	-67.914	-23.128	107.310	-0.78336	0.53314	-0.30490	0.09506	29.8	13111	100
2025-3-27 20:22:17.2	WT901BLE68-01(48591DE3C19B)	-0.235	-0.211	0.125	26.184	37.048	-8.301	-75.43	21.30	-35.99	-67.914	-23.128	107.310	-0.78336	0.53314	-0.30490	0.09506	29.8	13111	100
2025-3-27 20:22:17.2	WT901BLE68-01(48591DE3C19B)	-0.191	-0.211	0.125	26.184	37.048	-8.301	-75.33	21.30	-36.39	-67.914	-23.128	107.310	-0.78336	0.53314	-0.30490	0.09506	29.8	13111	100
2025-3-27 20:22:17.30	WT901BLE68-01(48591DE3C19B)	-0.191	-0.221	0.106	24.231	36.255	0.671	-75.25	21.35	-36.78	-67.914	-23.128	107.310	-0.78336	0.53314	-0.30490	0.09506	29.8	13111	100
2025-3-27 20:22:17.30	WT901BLE68-01(48591DE3C19B)	-0.240	-0.221	0.106	24.231	36.255	0.671	-75.16	21.45	-37.15	-67.914	-23.128	107.310	-0.78336	0.53314	-0.30490	0.09506	29.8	13111	100
2025-3-27 20:22:17.31	WT901BLE68-01(48591DE3C19B)	-0.240	-0.269	0.097	21.057	26.245	13.123	-75.05	21.59	-37.45	-67.914	-23.128	107.310	-0.78336	0.53314	-0.30490	0.09506	29.8	13111	100
2025-3-27 20:22:17.31	WT901BLE68-01(48591DE3C19B)	-0.262	-0.269	0.097	21.057	26.245	13.123	-74.94	21.79	-37.68	-67.914	-23.128	107.310	-0.78336	0.53314	-0.30490	0.09506	29.8	13111	100
2025-3-27 20:22:17.63	WT901BLE68-01(48591DE3C19B)	-0.262	-0.436	0.104	11.719	7.141	23.071	-74.84	22.02	-37.80	-67.914	-23.128	107.310	-0.78336	0.53314	-0.30490	0.09506	29.8	13111	100
2025-3-27 20:22:17.63	WT901BLE68-01(48591DE3C19B)	-0.260	-0.436	0.104	11.719	7.141	23.071	-74.74	22.27	-37.80	-67.914	-23.128	107.310	-0.78336	0.53314	-0.30490	0.09506	29.8	13111	100
2025-3-27 20:22:17.63	WT901BLE68-01(48591DE3C19B)	-0.260	-0.705	0.113	4.578	2.136	28.809	-74.66	22.55	-37.77	-67.914	-23.128	107.310	-0.78336	0.53314	-0.30490	0.09506	29.8	13111	100
2025-3-27 20:22:17.64	WT901BLE68-01(48591DE3C19B)	-0.352	-0.705	0.113	4.578	2.136	28.809	-74.61	22.84	-37.71	-67.914	-23.128	107.310	-0.78336	0.53314	-0.30490	0.09506	29.8	13111	100
2025-3-27 20:22:17.151	WT901BLE68-01(48591DE3C19B)	-0.352	-1.050	0.136	-1.465	10.925	20.020	-74.61	23.09	-37.70	-67.914	-23.128	107.310	-0.78336	0.53314	-0.30490	0.09506	29.8	13111	100
2025-3-27 20:22:17.152	WT901BLE68-01(48591DE3C19B)	-0.473	-1.050	0.136	-1.465	10.925	20.020	-74.67	23.31	-37.75	-67.620	-18.326	104.566	-0.78336	0.53314	-0.30490	0.09506	29.8	13111	100
2025-3-27 20:22:17.152	WT901BLE68-01(48591DE3C19B)	-0.473	-1.500	0.183	-3.845	10.925	-9.460	-74.77	23.38	-37.85	-67.620	-18.326	104.566	-0.78336	0.53314	-0.30490	0.09506	29.8	13111	100
2025-3-27 20:22:17.152	WT901BLE68-01(48591DE3C19B)	-0.567	-1.500	0.183	-3.845	10.925	-9.460	-74.89	23.30	-37.99	-67.620	-18.326	104.566	-0.78336	0.53314	-0.30490	0.09506	29.8	13111	100
2025-3-27 20:22:17.153	WT901BLE68-01(48591DE3C19B)	-0.567	-1.934	0.332	-1.831	14.343	-56.519	-75.04	23.00	-38.21	-67.620	-18.326	104.566	-0.78336	0.53314	-0.30490	0.09506	29.8	13111	100
2025-3-27 20:22:17.153	WT901BLE68-01(48591DE3C19B)	-0.791	-1.934	0.332	-1.831	14.343	-56.519	-75.21	22.47	-38.52	-67.620	-18.326	104.566	-0.78336	0.53314	-0.30490	0.09506	29.8	13111	100
2025-3-27 20:22:17.153	WT901BLE68-01(48591DE3C19B)	-0.791	-1.956	0.534	11.230	26.978	-72.083	-75.34	21.88	-38.90	-67.620	-18.326	104.566	-0.78336	0.53314	-0.30490	0.09506	29.8	13111	100
2025-3-27 20:22:17.153	WT901BLE68-01(48591DE3C19B)	-0.810	-1.956	0.534	11.230	26.978	-72.083	-75.43	21.24	-39.38	-67.620	-18.326	104.566	-0.78336	0.53314	-0.30490	0.09506	29.8	13111	100
2025-3-27 20:22:17.183	WT901BLE68-01(48591DE3C19B)	-0.810	-1.344	0.606	22.278	50.659	-80.688	-75.49	20.60	-39.98	-67.620	-18.326	104.566	-0.78336	0.53314	-0.30490	0.09506	29.8	13111	100
2025-3-27 20:22:17.183	WT901BLE68-01(48591DE3C19B)	-0.638	-1.344	0.606	22.278	50.659	-80.688	-75.54	19.95	-40.71	-67.620	-18.326	104.566	-0.78336	0.53314	-0.30490	0.09506	29.8	13111	100
2025-3-27 20:22:17.184	WT901BLE68-01(48591DE3C19B)	-0.638	-0.900	0.498	19.592	80.750	-61.035	-75.61	19.44	-41.57	-67.620	-18.326	104.566	-0.78336	0.53314	-0.30490	0.09506	29.8	13111	100
2025-3-27 20:22:17.184	WT901BLE68-01(48591DE3C19B)	-0.506	-0.900	0.498	19.592	80.750	-61.035	-75.74	19.07	-42.55	-67.620	-18.326	104.566	-0.78336	0.53314	-0.30490	0.09506	29.8	13111	100
2025-3-27 20:22:17.242	WT901BLE68-01(48591DE3C19B)	-0.506	-0.631	0.306	1.282	80.811	-44.678	-75.93	18.79	-43.51	-67.620	-18.326	104.566	-0.78336	0.53314	-0.30490	0.09506	29.8	13111	100
2025-3-27 20:22:17.242	WT901BLE68-01(48591DE3C19B)	-0.534	-0.631	0.306	1.282	80.811	-44.678	-76.20	18.58	-44.45	-67.620	-18.326	104.566	-0.78336	0.53314	-0.30490	0.09506	29.8	13111	100
2025-3-27 20:22:17.242	WT901BLE68-01(48591DE3C19B)	-0.534	-0.643	0.171	-30.701	20.447	-31.799	-76.52	18.37	-45.06	-67.620	-18.326	104.566	-0.78336	0.53314	-0.30490	0.09506	29.8	13111	100
2025-3-27 20:22:17.242	WT901BLE68-01(48591DE3C19B)	-0.518	-0.643	0.171	-30.701	20.447	-31.799	-76.89	18.17	-45.35	-67.620	-18.326	104.566	-0.78336	0.53314	-0.30490	0.09506	29.8	13111	100
2025-3-27 20:22:17.271	WT901BLE68-01(48591DE3C19B)	-0.518	-0.867	0.170	-52.246	-63.416	-25.085	-77.24	17.89	-45.19	-67.620	-18.326	104.566	-0.78336	0.53314	-0.30490	0.09506	29.8	13111	100
2025-3-27 20:22:17.271	WT901BLE68-01(48591DE3C19B)	-0.525	-0.867	0.170	-52.246	-63.416	-25.085	-77.56	17.57	-44.60	-67.620	-18.326	104.566	-0.78336	0.53314	-0.30490	0.09506	29.8	13111	100
2025-3-27 20:22:17.271	WT901BLE68-01(48591DE3C19B)	-0.525	-0.973	0.280	-45.959	-106.140	-4.028	-77.67	17.36	-43.52	-67.620	-18.326	104.566	-0.78336	0.53314	-0.30490	0.09506	29.8	13111	100
2025-3-27 20:22:17.271	WT901BLE68-01(48591DE3C19B)	-0.446	-0.973	0.280	-45.959	-106.140	-4.028	-77.79	17.16	-42.44	-67.620	-18.326	104.566	-0.78336	0.53314	-0.30490	0.09506	29.8	13111	100
2025-3-27 20:22:17.301	WT901BLE68-01(48591DE3C19B)	-0.446	-0.791	0.309	-33.508	-100.586	0.732	-77.79	17.02	-41.41	-67.620	-18.326	104.566	-0.78336	0.53314	-0.30490	0.09506	29.8	13111	100
2025-3-27 20:22:17.301	WT901BLE68-01(48591DE3C19B)	-0.211	-0.791	0.309	-33.508	-100.586	0.732	-77.80	16.88	-40.37	-67.620	-18.326	104.566	-0.78336	0.53314	-0.30490	0.09506	29.8	13111	100
2025-3-27 20:22:17.301	WT901BLE68-01(48591DE3C19B)	-0.211	-0.549	0.249	-20.325	-50.171	2.625	-77.82	16.86	-39.85	-67.620	-18.326	104.566	-0.75494	0.54523	-0.31900	0.17575	29.8	13111	100
2025-3-27 20:22:17.301	WT901BLE68-01(48591DE3C19B)	-0.181	-0.549	0.249	-20.325	-50.171	2.625	-77.84	16.84	-39.34	-67.620	-18.326	104.566	-0.75494	0.54523	-0.31900	0.17575	29.8	13111	100
2025-3-27 20:22:17.361	WT901BLE68-01(48591DE3C19B)	-0.181	-0.419	0.210	-7.629	12.268	12.085	-77.91	17.04	-39.43	-67.620	-18.326	104.566	-0.75494	0.54523	-0.31900	0.17575	29.8	13111	100
2025-3-27 20:22:17.361	WT901BLE68-01(48591DE3C19B)	-0.268	-0.419	0.210	-7.629	12.268	12.085	-77.98	17.24	-39.53	-67.620	-18.326	104.566	-0.75494	0.54523	-0.31900	0.17575	29.8	13111	100
2025-3-27 20:22:17.361	WT901BLE68-01(48591DE3C19B)	-0.134	-0.291	0.232	2.380	34.790	18.066	-78.00	17.54	-39.84	-67.620	-18.326	104.566	-0.75494	0.54523	-0.31900	0.17575	29.8	13111	100
2025-3-27 20:22:17.361	WT901BLE68-01(48591DE3C19B)	-0.279	-0.145	0.116	2.380	34.790	18.066	-78.03	17.84	-40.16	-67.620	-18.326	104.566	-0.75494	0.54523	-0.31900	0.17575	29.8	13111	100
2025-3-27 20:22:17.422	WT901BLE68-01(48591DE3C19B)	-0.279	-0.138	0.268	-2.625	23.987	31.921	-78.05	18.26	-40.34	-67.620	-18.326	104.566	-0.75494	0.54523	-0.31900	0.17575	29.8	13111	100
2025-3-27 20:22:17.422	WT901BLE68-01(48591DE3C19B)	-0.234	-0.138	0.268	-2.625	23.987	31.921	-78.07	18.69	-40.52	-67.620	-18.326	104.566	-0.75494	0.54523	-0.31900	0.17575	29.8	13111	100
2025-3-27 20:22:17.422	WT901BLE68-01(48591DE3C19B)	-0.234	-0.139	0.220	-15.930	5.005	43.518	-78.14	19.19	-40.47	-67.620	-18.326	104.566	-0.75494	0.54523	-0.31900	0.17575	29.8	13111	100
2025-3-27 20:22:17.422	WT901BLE68-01(48591DE3C19B)	-0.248	-0.139	0.220	-15.930	5.005	43.518	-78.20	19.69	-40.44	-67.620	-18.326	104.566	-0.75494	0.54523	-0.31900	0.17575	29.8	13111	100
2025-3-27 20:22:17.423	WT901BLE68-01(48591DE3C19B)	-0.248	-0.341	0.145	-31.250	-16.602	50.720	-78.33	20.22	-40.15	-67.620	-18.326	104.566	-0.75494	0.54523	-0.31900	0.17575	29.8	13111	100
2025-3-27 20:22:17.423	WT901BLE68-01(48591DE3C19B)	-0.359	-0.341	0.145	-31.250	-16.602	50.720	-78.46	20.75	-39.87	-67.620	-18.326	104.566	-0.75494	0.54523	-0.31900	0.17575	29.8	13111	100
2025-3-27 20:22:17.423	WT901BLE68-01(48591DE3C19B)	-0.359	-0.723	0.156	-42.847	-49.194	55.786	-78.59	21.25	-39.23	-67.620	-18.326	104.566	-0.75494	0.54523	-0.31900	0.17575	29.8	13111	100
2025-3-27 20:22:17.423	WT901BLE68-01(48591DE3C19B)	-0.400	-0.723	0.156	-42.847	-49.194	55.786	-78.72	21.76	-38.59	-67.620	-18.326	104.566	-0.75494	0.54523	-0.31900	0.17575	29.8	13111	100
2025-3-27 20:22:17.481	WT901BLE68-01(48591DE3C19B)	-0.400	-1.253	0.116	-55.176	-81.238	57.129	-78.85	22.20	-37.60	-67.620	-18.326	104.566	-0.75494	0.54523	-0.31900	0.17575	29.8	13111	100
2025-3-27 20:22:17.482	WT901BLE68-01(48591DE3C19B)	-0.328	-1.253	0.116	-55.176	-81.238	57.129	-78.99	22.63	-36.61	-67.620	-18.326	104.566	-0.75494	0.54523	-0.31900	0.17575	29.8	13111	100
2025-3-27 20:22:17.482	WT901BLE68-01(48591DE3C19B)	-0.328	-2.059	0.040	-39.734	-84.167	36.499	-79.00	22.83	-35.62	-67.620	-18.326	104.566	-0.75494	0.54523	-0.31900	0.17575	29.8	13111	100
2025-3-27 20:22:17.482	WT901BLE68-01(48591DE3C19B)	-0.292	-2.059	0.040	-39.734	-84.167	36.499	-79.01	23.02	-34.64	-67.620	-18.326	104.566	-0.75494	0.54523	-0.31900	0.17575	29.8	13111	100
2025-3-27 20:22:17.541	WT901BLE68-01(48591DE3C19B)	-0.292	-2.445	0.069	7.446	-54.321	21.667	-78.71	23.09	-34.00	-63.798	-21.952	102.802	-0.75494	0.54523	-0.31900	0.17575	29.8	13111	100
2025-3-27 20:22:17.541	WT901BLE68-01(48591DE3C19B)	-0.329	-2.445	0.069	7.446	-54.321	21.667	-78.41	23.15	-33.37	-63.798	-21.952	102.802	-0.75494	0.54523	-0.31900	0.17575	29.8	13111	100
2025-3-27 20:22:17.541	WT901BLE68-01(48591DE3C19B)	-0.329	-1.953	0.147	41.321	-15.076	11.169	-77.95	23.18	-33.17	-63.798	-21.952	102.802	-0.75494	0.54523	-0.31900	0.17575	29.8	13111	100
2025-3-27 20:22:17.541	WT901BLE68-01(48591DE3C19B)	-0.194	-1.953	0.147	41.321	-15.076	11.169	-77.50	23.20	-32.98	-63.798	-21.952	102.802	-0.75494	0.54523	-0.31900	0.17575	29.8	13111	100
2025-3-27 20:22:17.543	WT901BLE68-01(48591DE3C19B)	-0.194	-1.539	0.126	38.574	32.532	4.639	-77.29	23.25	-33.30	-63.798	-21.952	102.802	-0.75494	0.54523	-0.31900	0.17575	29.8	13111	100
2025-3-27 20:22:17.543	WT901BLE68-01(48591DE3C19B)	-0.128	-1.539	0.126	38.574	32.532	4.639	-77.07	23.30	-33.63	-63.798	-21.952	102.802	-0.75494	0.54523	-0.31900	0.17575	29.8	13111	100
2025-3-27 20:22:17.543	WT901BLE68-01(48591DE3C19B)	-0.128	-1.263	0.129	42.419	92.712	5.432	-77.08	23.49	-34.59	-63.798	-21.952	102.802	-0.75494	0.54523	-0.31900	0.17575	29.8	13111	100
2025-3-27 20:22:17.543	WT901BLE68-01(48591DE3C19B)	-0.226	-1.263	0.129	42.419	92.712	5.432	-77.09	23.68	-35.56	-63.798	-21.952	102.802	-0.75494	0.54523	-0.31900	0.17575	29.8	13111	100
2025-3-27 20:22:17.631	WT901BLE68-01(48591DE3C19B)	-0.226	-0.971	0.182	43.945	116.821	9.216	-77.18	23.96	-36.77	-63.798	-21.952	102.802	-0.75494	0.54523	-0.31900	0.17575	29.8	13111	100
2025-3-27 20:22:17.632	WT901BLE68-01(48591DE3C19B)	-0.278	-0.971	0.182	43.945	116.821	9.216	-77.28	24.22	-37.99	-63.798	-21.952	102.802	-0.75494	0.54523	-0.31900	0.17575	29.8	13111	100
2025-3-27 20:22:17.632	WT901BLE68-01(48591DE3C19B)	-0.278	-0.683	0.244	31.921	92.407	8.179	-77.39	24.43	-38.95	-63.798	-21.952	102.802	-0.75494	0.54523	-0.31900	0.17575	29.8	13111	100
2025-3-27 20:22:17.632	WT901BLE68-01(48591DE3C19B)	-0.270	-0.683	0.244	31.921	92.407	8.179	-77.50	24.64	-39.91	-63.798	-21.952	102.802	-0.75494	0.54523	-0.31900	0.17575	29.8	13111	100
2025-3-27 20:22:17.633	WT901BLE68-01(48591DE3C19B)	-0.270	-0.504	0.283	24.231	54.993	8.240	-77.53	24.77	-40.47	-63.798	-21.952	102.802	-0.75494	0.54523	-0.31900	0.17575	29.8	13111	100
2025-3-27 20:22:17.633	WT901BLE68-01(48591DE3C19B)	-0.226	-0.504	0.283	24.231	54.993	8.240	-77.54	24.90	-41.03	-63.798	-21.952	102.802	-0.75494	0.54523	-0.31900	0.17575	29.8	13111	100
2025-3-27 20:22:17.633	WT901BLE68-01(48591DE3C19B)	-0.226	-0.335	0.258	26.245	29.785	14.282	-77.40	25.04	-41.30	-63.798	-21.952	102.802	-0.75494	0.54523	-0.31900	0.17575	29.8	13111	100
2025-3-27 20:22:17.633	WT901BLE68-01(48591DE3C19B)	-0.187	-0.335	0.258	26.245	29.785	14.282	-77.26	25.19	-41.58	-63.798	-21.952	102.802	-0.75494	0.54523	-0.31900	0.17575	29.8	13111	100
2025-3-27 20:22:17.691	WT901BLE68-01(48591DE3C19B)	-0.187	-0.219	0.162	28.442	19.165	22.522	-77.04	25.39	-41.72	-63.798	-21.952	102.802	-0.75494	0.54523	-0.31900	0.17575	29.8	13111	100
2025-3-27 20:22:17.691	WT901BLE68-01(48591DE3C19B)	-0.152	-0.219	0.162	28.442	19.165	22.522	-76.82	25.60	-41.85	-63.798	-21.952	102.802	-0.75494	0.54523	-0.31900	0.17575	29.8	13111	100
2025-3-27 20:22:17.691	WT901BLE68-01(48591DE3C19B)	-0.152	-0.176	0.088	30.334	13.977	28.137	-76.54	25.86	-41.92	-63.798	-21.952	102.802	-0.75494	0.54523	-0.31900	0.17575	29.8	13111	100
2025-3-27 20:22:17.691	WT901BLE68-01(48591DE3C19B)	-0.208	-0.176	0.088	30.334	13.977	28.137	-76.27	26.12	-41.98	-63.798	-21.952	102.802	-0.75494	0.54523	-0.31900	0.17575	29.8	13111	100
2025-3-27 20:22:17.721	WT901BLE68-01(48591DE3C19B)	-0.208	-0.202	0.062	26.428	8.728	27.405	-76.01	26.36	-41.99	-63.798	-21.952	102.802	-0.76712	0.49399	-0.38309	0.14355	29.8	13111	100
2025-3-27 20:22:17.721	WT901BLE68-01(48591DE3C19B)	-0.416	-0.202	0.062	26.428	8.728	27.405	-75.75	26.61	-42.00	-63.798	-21.952	102.802	-0.76712	0.49399	-0.38309	0.14355	29.8	13111	100
2025-3-27 20:22:17.721	WT901BLE68-01(48591DE3C19B)	-0.618	-0.403	0.081	14.771	-5.676	24.414	-75.54	26.80	-41.85	-63.798	-21.952	102.802	-0.76712	0.49399	-0.38309	0.14355	29.8	13111	100
2025-3-27 20:22:17.721	WT901BLE68-01(48591DE3C19B)	-0.618	-0.692	0.114	-1.648	-34.790	20.569	-75.35	26.95	-41.56	-63.798	-21.952	102.802	-0.76712	0.49399	-0.38309	0.14355	29.8	13111	100
2025-3-27 20:22:17.781	WT901BLE68-01(48591DE3C19B)	-0.682	-0.692	0.114	-1.648	-34.790	20.569	-75.17	27.06	-41.11	-63.798	-21.952	102.802	-0.76712	0.49399	-0.38309	0.14355	29.8	13111	100
2025-3-27 20:22:17.781	WT901BLE68-01(48591DE3C19B)	-0.682	-1.117	0.131	-21.973	-70.557	1.770	-75.03	27.04	-40.49	-63.798	-21.952	102.802	-0.76712	0.49399	-0.38309	0.14355	29.8	13111	100
2025-3-27 20:22:17.781	WT901BLE68-01(48591DE3C19B)	-0.713	-1.117	0.131	-21.973	-70.557	1.770	-74.92	26.88	-39.71	-63.798	-21.952	102.802	-0.76712	0.49399	-0.38309	0.14355	29.8	13111	100
2025-3-27 20:22:17.782	WT901BLE68-01(48591DE3C19B)	-0.713	-1.799	0.233	-21.729	-91.858	-34.973	-74.79	26.52	-38.86	-63.798	-21.952	102.802	-0.76712	0.49399	-0.38309	0.14355	29.8	13111	100
2025-3-27 20:22:17.810	WT901BLE68-01(48591DE3C19B)	-0.797	-1.799	0.233	-21.729	-91.858	-34.973	-74.65	25.95	-37.97	-63.798	-21.952	102.802	-0.76712	0.49399	-0.38309	0.14355	29.8	13111	100
2025-3-27 20:22:17.810	WT901BLE68-01(48591DE3C19B)	-0.797	-2.150	0.394	-8.179	-83.618	-49.438	-74.48	25.31	-37.14	-63.798	-21.952	102.802	-0.76712	0.49399	-0.38309	0.14355	29.8	13111	100
2025-3-27 20:22:17.810	WT901BLE68-01(48591DE3C19B)	-0.714	-2.150	0.394	-8.179	-83.618	-49.438	-74.28	24.61	-36.39	-63.798	-21.952	102.802	-0.76712	0.49399	-0.38309	0.14355	29.8	13111	100
2025-3-27 20:22:17.810	WT901BLE68-01(48591DE3C19B)	-0.714	-1.616	0.473	7.751	-43.091	-48.096	-74.10	23.97	-35.85	-63.798	-21.952	102.802	-0.76712	0.49399	-0.38309	0.14355	29.8	13111	100
2025-3-27 20:22:17.873	WT901BLE68-01(48591DE3C19B)	-0.456	-1.616	0.473	7.751	-43.091	-48.096	-73.93	23.39	-35.52	-63.798	-21.952	102.802	-0.76712	0.49399	-0.38309	0.14355	29.8	13111	100
2025-3-27 20:22:17.874	WT901BLE68-01(48591DE3C19B)	-0.456	-1.145	0.473	3.418	20.569	-35.461	-73.90	22.96	-35.52	-63.798	-21.952	102.802	-0.76712	0.49399	-0.38309	0.14355	29.8	13111	100
2025-3-27 20:22:17.874	WT901BLE68-01(48591DE3C19B)	-0.335	-1.145	0.473	3.418	20.569	-35.461	-74.01	22.68	-35.83	-63.798	-21.952	102.802	-0.76712	0.49399	-0.38309	0.14355	29.8	13111	100
2025-3-27 20:22:17.874	WT901BLE68-01(48591DE3C19B)	-0.335	-0.962	0.375	-1.099	71.533	-21.912	-74.23	22.53	-36.38	-63.798	-21.952	102.802	-0.76712	0.49399	-0.38309	0.14355	29.8	13111	100
2025-3-27 20:22:17.874	WT901BLE68-01(48591DE3C19B)	-0.475	-0.962	0.375	-1.099	71.533	-21.912	-74.55	22.52	-37.17	-63.798	-21.952	102.802	-0.76712	0.49399	-0.38309	0.14355	29.8	13111	100
2025-3-27 20:22:17.874	WT901BLE68-01(48591DE3C19B)	-0.475	-0.775	0.283	-9.460	66.284	-11.169	-74.90	22.54	-37.92	-63.798	-21.952	102.802	-0.76712	0.49399	-0.38309	0.14355	29.8	13111	100
2025-3-27 20:22:17.875	WT901BLE68-01(48591DE3C19B)	-0.530	-0.775	0.283	-9.460	66.284	-11.169	-75.27	22.60	-38.63	-63.798	-21.952	102.802	-0.76712	0.49399	-0.38309	0.14355	29.8	13111	100
2025-3-27 20:22:17.875	WT901BLE68-01(48591DE3C19B)	-0.530	-0.761	0.219	-32.227	12.024	-13.916	-75.65	22.59	-39.06	-63.798	-21.952	102.802	-0.76712	0.49399	-0.38309	0.14355	29.8	13111	100
2025-3-27 20:22:17.992	WT901BLE68-01(48591DE3C19B)	-0.460	-0.761	0.219	-32.227	12.024	-13.916	-76.02	22.49	-39.22	-63.798	-21.952	102.802	-0.76712	0.49399	-0.38309	0.14355	29.8	13111	100
2025-3-27 20:22:17.992	WT901BLE68-01(48591DE3C19B)	-0.460	-0.766	0.193	-31.860	-19.592	-6.775	-76.33	22.41	-39.19	-62.426	-16.072	102.802	-0.76712	0.49399	-0.38309	0.14355	29.8	13111	100
2025-3-27 20:22:17.992	WT901BLE68-01(48591DE3C19B)	-0.416	-0.766	0.193	-31.860	-19.592	-6.775	-76.56	22.31	-38.98	-62.426	-16.072	102.802	-0.76712	0.49399	-0.38309	0.14355	29.8	13111	100
2025-3-27 20:22:17.992	WT901BLE68-01(48591DE3C19B)	-0.416	-0.647	0.205	-23.071	-28.198	-9.705	-76.74	22.20	-38.74	-62.426	-16.072	102.802	-0.76712	0.49399	-0.38309	0.14355	29.8	13111	100
2025-3-27 20:22:17.993	WT901BLE68-01(48591DE3C19B)	-0.314	-0.647	0.205	-23.071	-28.198	-9.705	-76.85	22.07	-38.46	-62.426	-16.072	102.802	-0.76712	0.49399	-0.38309	0.14355	29.8	13111	100
2025-3-27 20:22:17.993	WT901BLE68-01(48591DE3C19B)	-0.314	-0.452	0.190	-18.616	-23.438	-10.742	-76.95	21.94	-38.20	-62.426	-16.072	102.802	-0.76712	0.49399	-0.38309	0.14355	29.8	13111	100
2025-3-27 20:22:17.993	WT901BLE68-01(48591DE3C19B)	-0.217	-0.452	0.190	-18.616	-23.438	-10.742	-77.04	21.81	-37.96	-62.426	-16.072	102.802	-0.76712	0.49399	-0.38309	0.14355	29.8	13111	100
2025-3-27 20:22:17.993	WT901BLE68-01(48591DE3C19B)	-0.217	-0.293	0.210	-15.564	-7.935	-3.845	-77.14	21.74	-37.80	-62.426	-16.072	102.802	-0.76712	0.49399	-0.38309	0.14355	29.8	13111	100
2025-3-27 20:22:17.993	WT901BLE68-01(48591DE3C19B)	-0.168	-0.293	0.210	-15.564	-7.935	-3.845	-77.23	21.72	-37.72	-62.426	-16.072	102.802	-0.76712	0.49399	-0.38309	0.14355	29.8	13111	100
2025-3-27 20:22:17.993	WT901BLE68-01(48591DE3C19B)	-0.168	-0.178	0.244	-11.719	5.615	4.089	-77.33	21.76	-37.69	-62.426	-16.072	102.802	-0.76712	0.49399	-0.38309	0.14355	29.8	13111	100
2025-3-27 20:22:17.994	WT901BLE68-01(48591DE3C19B)	-0.159	-0.178	0.244	-11.719	5.615	4.089	-77.43	21.85	-37.74	-62.426	-16.072	102.802	-0.76712	0.49399	-0.38309	0.14355	29.8	13111	100
2025-3-27 20:22:17.994	WT901BLE68-01(48591DE3C19B)	-0.159	-0.104	0.234	-13.611	8.606	9.338	-77.53	21.97	-37.79	-62.426	-16.072	102.802	-0.76712	0.49399	-0.38309	0.14355	29.8	13111	100
2025-3-27 20:22:18.53	WT901BLE68-01(48591DE3C19B)	-0.179	-0.104	0.234	-13.611	8.606	9.338	-77.62	22.12	-37.85	-62.426	-16.072	102.802	-0.76712	0.49399	-0.38309	0.14355	29.8	13111	100
2025-3-27 20:22:18.53	WT901BLE68-01(48591DE3C19B)	-0.179	-0.162	0.192	-24.414	-4.944	12.024	-77.74	22.27	-37.83	-62.426	-16.072	102.802	-0.76712	0.49399	-0.38309	0.14355	29.8	13111	100
2025-3-27 20:22:18.53	WT901BLE68-01(48591DE3C19B)	-0.147	-0.162	0.192	-24.414	-4.944	12.024	-77.88	22.42	-37.74	-62.426	-16.072	102.802	-0.76712	0.49399	-0.38309	0.14355	29.8	13111	100
2025-3-27 20:22:18.53	WT901BLE68-01(48591DE3C19B)	-0.147	-0.417	0.121	-39.978	-25.452	11.353	-78.05	22.55	-37.55	-62.426	-16.072	102.802	-0.76712	0.49399	-0.38309	0.14355	29.8	13111	100
2025-3-27 20:22:18.111	WT901BLE68-01(48591DE3C19B)	-0.146	-0.417	0.121	-39.978	-25.452	11.353	-78.26	22.64	-37.24	-62.426	-16.072	102.802	-0.76712	0.49399	-0.38309	0.14355	29.8	13111	100
2025-3-27 20:22:18.112	WT901BLE68-01(48591DE3C19B)	-0.146	-0.827	0.073	-48.462	-37.415	8.118	-78.49	22.71	-36.88	-62.426	-16.072	102.802	-0.76712	0.49399	-0.38309	0.14355	29.8	13111	100
2025-3-27 20:22:18.112	WT901BLE68-01(48591DE3C19B)	-0.259	-0.827	0.073	-48.462	-37.415	8.118	-78.76	22.73	-36.45	-62.426	-16.072	102.802	-0.76712	0.49399	-0.38309	0.14355	29.8	13111	100
2025-3-27 20:22:18.112	WT901BLE68-01(48591DE3C19B)	-0.259	-1.494	0.037	-50.720	-36.621	0.854	-79.05	22.71	-36.04	-62.426	-16.072	102.802	-0.76712	0.49399	-0.38309	0.14355	29.8	13111	100
2025-3-27 20:22:18.113	WT901BLE68-01(48591DE3C19B)	-0.384	-1.494	0.037	-50.720	-36.621	0.854	-79.38	22.63	-35.63	-62.426	-16.072	102.802	-0.76712	0.49399	-0.38309	0.14355	29.8	13111	100
2025-3-27 20:22:18.113	WT901BLE68-01(48591DE3C19B)	-0.384	-2.254	0.006	-25.391	-33.691	-18.860	-79.62	22.46	-35.26	-62.426	-16.072	102.802	-0.76712	0.49399	-0.38309	0.14355	29.8	13111	100
2025-3-27 20:22:18.113	WT901BLE68-01(48591DE3C19B)	-0.367	-2.254	0.006	-25.391	-33.691	-18.860	-79.76	22.18	-34.93	-62.426	-16.072	102.802	-0.76712	0.49399	-0.38309	0.14355	29.8	13111	100
2025-3-27 20:22:18.113	WT901BLE68-01(48591DE3C19B)	-0.367	-2.218	0.115	20.020	-35.522	-7.019	-79.67	21.95	-34.57	-62.426	-16.072	102.802	-0.76712	0.49399	-0.38309	0.14355	29.8	13111	100
2025-3-27 20:22:18.171	WT901BLE68-01(48591DE3C19B)	-0.240	-2.218	0.115	20.020	-35.522	-7.019	-79.37	21.76	-34.19	-62.426	-16.072	102.802	-0.76712	0.49399	-0.38309	0.14355	29.8	13111	100
2025-3-27 20:22:18.171	WT901BLE68-01(48591DE3C19B)	-0.240	-1.711	0.192	25.696	-18.738	-5.737	-79.06	21.60	-33.91	-62.426	-16.072	102.802	-0.76019	0.55539	-0.31952	0.10703	29.8	13111	100
2025-3-27 20:22:18.171	WT901BLE68-01(48591DE3C19B)	-0.080	-1.711	0.192	25.696	-18.738	-5.737	-78.77	21.45	-33.72	-62.426	-16.072	102.802	-0.76019	0.55539	-0.31952	0.10703	29.8	13111	100
2025-3-27 20:22:18.172	WT901BLE68-01(48591DE3C19B)	-0.080	-1.713	0.113	22.888	23.376	-0.732	-78.57	21.37	-33.74	-62.426	-16.072	102.802	-0.76019	0.55539	-0.31952	0.10703	29.8	13111	100
2025-3-27 20:22:18.231	WT901BLE68-01(48591DE3C19B)	-0.063	-1.713	0.113	22.888	23.376	-0.732	-78.46	21.34	-33.98	-62.426	-16.072	102.802	-0.76019	0.55539	-0.31952	0.10703	29.8	13111	100
2025-3-27 20:22:18.231	WT901BLE68-01(48591DE3C19B)	-0.063	-1.432	0.092	31.128	63.660	6.226	-78.40	21.38	-34.41	-62.426	-16.072	102.802	-0.76019	0.55539	-0.31952	0.10703	29.8	13111	100
2025-3-27 20:22:18.231	WT901BLE68-01(48591DE3C19B)	-0.119	-1.432	0.092	31.128	63.660	6.226	-78.37	21.50	-35.06	-62.426	-16.072	102.802	-0.76019	0.55539	-0.31952	0.10703	29.8	13111	100
2025-3-27 20:22:18.231	WT901BLE68-01(48591DE3C19B)	-0.119	-1.025	0.140	24.353	71.899	4.089	-78.43	21.60	-35.80	-62.426	-16.072	102.802	-0.76019	0.55539	-0.31952	0.10703	29.8	13111	100
2025-3-27 20:22:18.233	WT901BLE68-01(48591DE3C19B)	-0.230	-1.025	0.140	24.353	71.899	4.089	-78.50	21.71	-36.55	-62.426	-16.072	102.802	-0.76019	0.55539	-0.31952	0.10703	29.8	13111	100
2025-3-27 20:22:18.233	WT901BLE68-01(48591DE3C19B)	-0.230	-0.780	0.245	16.418	63.782	-11.841	-78.63	21.64	-37.23	-62.426	-16.072	102.802	-0.76019	0.55539	-0.31952	0.10703	29.8	13111	100
2025-3-27 20:22:18.233	WT901BLE68-01(48591DE3C19B)	-0.358	-0.780	0.245	16.418	63.782	-11.841	-78.74	21.58	-37.92	-62.426	-16.072	102.802	-0.76019	0.55539	-0.31952	0.10703	29.8	13111	100
2025-3-27 20:22:18.233	WT901BLE68-01(48591DE3C19B)	-0.358	-0.665	0.310	15.442	42.969	-23.376	-78.79	21.37	-38.41	-62.426	-16.072	102.802	-0.76019	0.55539	-0.31952	0.10703	29.8	13111	100
2025-3-27 20:22:18.321	WT901BLE68-01(48591DE3C19B)	-0.425	-0.665	0.310	15.442	42.969	-23.376	-78.83	21.16	-38.90	-62.426	-16.072	102.802	-0.76019	0.55539	-0.31952	0.10703	29.8	13111	100
2025-3-27 20:22:18.322	WT901BLE68-01(48591DE3C19B)	-0.425	-0.549	0.300	22.705	16.846	-27.222	-78.70	20.88	-39.12	-62.426	-16.072	102.802	-0.76019	0.55539	-0.31952	0.10703	29.8	13111	100
2025-3-27 20:22:18.322	WT901BLE68-01(48591DE3C19B)	-0.364	-0.549	0.300	22.705	16.846	-27.222	-78.56	20.60	-39.34	-62.426	-16.072	102.802	-0.76019	0.55539	-0.31952	0.10703	29.8	13111	100
2025-3-27 20:22:18.322	WT901BLE68-01(48591DE3C19B)	-0.364	-0.410	0.222	28.320	-6.287	-23.438	-78.27	20.34	-39.31	-62.426	-16.072	102.802	-0.76019	0.55539	-0.31952	0.10703	29.8	13111	100
2025-3-27 20:22:18.323	WT901BLE68-01(48591DE3C19B)	-0.313	-0.410	0.222	28.320	-6.287	-23.438	-77.97	20.07	-39.28	-56.938	-22.442	102.704	-0.76019	0.55539	-0.31952	0.10703	29.8	13111	100
2025-3-27 20:22:18.323	WT901BLE68-01(48591DE3C19B)	-0.313	-0.354	0.152	35.645	-17.151	-19.409	-77.56	19.84	-39.13	-56.938	-22.442	102.704	-0.76019	0.55539	-0.31952	0.10703	29.8	13111	100
2025-3-27 20:22:18.323	WT901BLE68-01(48591DE3C19B)	-0.345	-0.354	0.152	35.645	-17.151	-19.409	-77.16	19.61	-38.98	-56.938	-22.442	102.704	-0.76019	0.55539	-0.31952	0.10703	29.8	13111	100
2025-3-27 20:22:18.323	WT901BLE68-01(48591DE3C19B)	-0.345	-0.264	0.133	45.593	-24.597	-13.245	-76.62	19.43	-38.75	-56.938	-22.442	102.704	-0.76019	0.55539	-0.31952	0.10703	29.8	13111	100
2025-3-27 20:22:18.411	WT901BLE68-01(48591DE3C19B)	-0.345	-0.264	0.133	45.593	-24.597	-13.245	-76.09	19.26	-38.52	-56.938	-22.442	102.704	-0.76019	0.55539	-0.31952	0.10703	29.8	13111	100
2025-3-27 20:22:18.411	WT901BLE68-01(48591DE3C19B)	-0.345	-0.207	0.114	39.978	-44.800	0.854	-75.53	19.19	-38.04	-56.938	-22.442	102.704	-0.76019	0.55539	-0.31952	0.10703	29.8	13111	100
2025-3-27 20:22:18.411	WT901BLE68-01(48591DE3C19B)	-0.208	-0.207	0.114	39.978	-44.800	0.854	-74.98	19.12	-37.57	-56.938	-22.442	102.704	-0.76019	0.55539	-0.31952	0.10703	29.8	13111	100
2025-3-27 20:22:18.411	WT901BLE68-01(48591DE3C19B)	-0.208	-0.372	0.131	24.719	-58.228	9.949	-74.53	19.11	-36.93	-56.938	-22.442	102.704	-0.76019	0.55539	-0.31952	0.10703	29.8	13111	100
2025-3-27 20:22:18.412	WT901BLE68-01(48591DE3C19B)	-0.189	-0.372	0.131	24.719	-58.228	9.949	-74.07	19.09	-36.30	-56.938	-22.442	102.704	-0.76019	0.55539	-0.31952	0.10703	29.8	13111	100
2025-3-27 20:22:18.412	WT901BLE68-01(48591DE3C19B)	-0.189	-0.745	0.163	14.648	-45.898	8.789	-73.77	19.08	-35.79	-56.938	-22.442	102.704	-0.76019	0.55539	-0.31952	0.10703	29.8	13111	100
2025-3-27 20:22:18.412	WT901BLE68-01(48591DE3C19B)	-0.420	-0.745	0.163	14.648	-45.898	8.789	-73.47	19.07	-35.29	-56.938	-22.442	102.704	-0.76019	0.55539	-0.31952	0.10703	29.8	13111	100
2025-3-27 20:22:18.412	WT901BLE68-01(48591DE3C19B)	-0.420	-1.182	0.224	8.728	-16.235	-1.587	-73.34	19.03	-35.11	-56.938	-22.442	102.704	-0.76019	0.55539	-0.31952	0.10703	29.8	13111	100
2025-3-27 20:22:18.440	WT901BLE68-01(48591DE3C19B)	-0.639	-1.182	0.224	8.728	-16.235	-1.587	-73.22	18.99	-34.94	-56.938	-22.442	102.704	-0.76019	0.55539	-0.31952	0.10703	29.8	13111	100
2025-3-27 20:22:18.440	WT901BLE68-01(48591DE3C19B)	-0.639	-1.464	0.337	11.414	-3.479	-3.418	-73.11	18.97	-34.90	-56.938	-22.442	102.704	-0.76019	0.55539	-0.31952	0.10703	29.8	13111	100
2025-3-27 20:22:18.440	WT901BLE68-01(48591DE3C19B)	-0.640	-1.464	0.337	11.414	-3.479	-3.418	-73.01	18.95	-34.86	-56.938	-22.442	102.704	-0.76019	0.55539	-0.31952	0.10703	29.8	13111	100
2025-3-27 20:22:18.441	WT901BLE68-01(48591DE3C19B)	-0.640	-1.417	0.464	6.836	-3.906	-6.592	-72.95	18.89	-34.83	-56.938	-22.442	102.704	-0.76019	0.55539	-0.31952	0.10703	29.8	13111	100
2025-3-27 20:22:18.531	WT901BLE68-01(48591DE3C19B)	-0.760	-1.417	0.464	6.836	-3.906	-6.592	-72.89	18.84	-34.80	-56.938	-22.442	102.704	-0.76019	0.55539	-0.31952	0.10703	29.8	13111	100
2025-3-27 20:22:18.532	WT901BLE68-01(48591DE3C19B)	-0.760	-1.681	0.538	-10.620	-1.404	-12.512	-73.02	18.74	-34.81	-56.938	-22.442	102.704	-0.76019	0.55539	-0.31952	0.10703	29.8	13111	100
2025-3-27 20:22:18.532	WT901BLE68-01(48591DE3C19B)	-0.811	-1.681	0.538	-10.620	-1.404	-12.512	-73.14	18.64	-34.82	-56.938	-22.442	102.704	-0.76019	0.55539	-0.31952	0.10703	29.8	13111	100
2025-3-27 20:22:18.532	WT901BLE68-01(48591DE3C19B)	-0.811	-1.811	0.568	-8.301	-8.057	-12.695	-73.22	18.52	-34.76	-56.938	-22.442	102.704	-0.76019	0.55539	-0.31952	0.10703	29.8	13111	100
2025-3-27 20:22:18.533	WT901BLE68-01(48591DE3C19B)	-0.696	-1.811	0.568	-8.301	-8.057	-12.695	-73.29	18.41	-34.71	-56.938	-22.442	102.704	-0.76019	0.55539	-0.31952	0.10703	29.8	13111	100
2025-3-27 20:22:18.533	WT901BLE68-01(48591DE3C19B)	-0.348	-1.355	0.546	-0.305	-29.724	-1.587	-73.20	18.34	-34.40	-56.938	-22.442	102.704	-0.78516	0.52444	-0.29626	0.14359	29.8	13111	100
2025-3-27 20:22:18.533	WT901BLE68-01(48591DE3C19B)	-0.478	-0.677	0.273	-0.305	-29.724	-1.587	-73.11	18.26	-34.09	-56.938	-22.442	102.704	-0.78516	0.52444	-0.29626	0.14359	29.8	13111	100
2025-3-27 20:22:18.533	WT901BLE68-01(48591DE3C19B)	-0.478	-0.950	0.414	-13.062	-52.185	11.536	-73.06	18.25	-33.52	-56.938	-22.442	102.704	-0.78516	0.52444	-0.29626	0.14359	29.8	13111	100
2025-3-27 20:22:18.563	WT901BLE68-01(48591DE3C19B)	-0.278	-0.950	0.414	-13.062	-52.185	11.536	-73.01	18.25	-32.94	-56.938	-22.442	102.704	-0.78516	0.52444	-0.29626	0.14359	29.8	13111	100
2025-3-27 20:22:18.563	WT901BLE68-01(48591DE3C19B)	-0.278	-0.783	0.265	-21.973	-48.462	20.386	-73.05	18.33	-32.38	-56.938	-22.442	102.704	-0.78516	0.52444	-0.29626	0.14359	29.8	13111	100
2025-3-27 20:22:18.563	WT901BLE68-01(48591DE3C19B)	-0.262	-0.783	0.265	-21.973	-48.462	20.386	-73.09	18.41	-31.82	-56.938	-22.442	102.704	-0.78516	0.52444	-0.29626	0.14359	29.8	13111	100
2025-3-27 20:22:18.563	WT901BLE68-01(48591DE3C19B)	-0.262	-0.728	0.193	-21.667	-31.616	21.667	-73.17	18.56	-31.42	-56.938	-22.442	102.704	-0.78516	0.52444	-0.29626	0.14359	29.8	13111	100
2025-3-27 20:22:18.620	WT901BLE68-01(48591DE3C19B)	-0.272	-0.728	0.193	-21.667	-31.616	21.667	-73.26	18.69	-31.02	-56.938	-22.442	102.704	-0.78516	0.52444	-0.29626	0.14359	29.8	13111	100
2025-3-27 20:22:18.621	WT901BLE68-01(48591DE3C19B)	-0.272	-0.725	0.188	-21.118	-20.691	18.982	-73.38	18.84	-30.74	-56.938	-22.442	102.704	-0.78516	0.52444	-0.29626	0.14359	29.8	13111	100
2025-3-27 20:22:18.621	WT901BLE68-01(48591DE3C19B)	-0.241	-0.725	0.188	-21.118	-20.691	18.982	-73.50	18.98	-30.46	-56.938	-22.442	102.704	-0.78516	0.52444	-0.29626	0.14359	29.8	13111	100
2025-3-27 20:22:18.621	WT901BLE68-01(48591DE3C19B)	-0.241	-0.678	0.183	-12.756	-4.089	13.916	-73.60	19.12	-30.37	-56.938	-22.442	102.704	-0.78516	0.52444	-0.29626	0.14359	29.8	13111	100
2025-3-27 20:22:18.650	WT901BLE68-01(48591DE3C19B)	-0.238	-0.678	0.183	-12.756	-4.089	13.916	-73.70	19.26	-30.27	-56.938	-22.442	102.704	-0.78516	0.52444	-0.29626	0.14359	29.8	13111	100
2025-3-27 20:22:18.650	WT901BLE68-01(48591DE3C19B)	-0.238	-0.508	0.162	-8.362	3.723	8.179	-73.78	19.36	-30.27	-56.938	-22.442	102.704	-0.78516	0.52444	-0.29626	0.14359	29.8	13111	100
2025-3-27 20:22:18.650	WT901BLE68-01(48591DE3C19B)	-0.192	-0.508	0.162	-8.362	3.723	8.179	-73.86	19.47	-30.19	-56.938	-22.442	102.704	-0.78516	0.52444	-0.29626	0.14359	29.8	13111	100
2025-3-27 20:22:18.650	WT901BLE68-01(48591DE3C19B)	-0.153	-0.293	0.155	-11.292	1.587	9.338	-73.97	19.58	-30.09	-56.938	-22.442	102.704	-0.78516	0.52444	-0.29626	0.14359	29.8	13111	100
2025-3-27 20:22:18.682	WT901BLE68-01(48591DE3C19B)	-0.153	-0.069	0.228	-18.555	-12.878	16.113	-74.07	19.71	-29.89	-56.938	-22.442	102.704	-0.78516	0.52444	-0.29626	0.14359	29.8	13111	100
2025-3-27 20:22:18.682	WT901BLE68-01(48591DE3C19B)	-0.120	-0.069	0.228	-18.555	-12.878	16.113	-74.18	19.85	-29.61	-56.938	-22.442	102.704	-0.78516	0.52444	-0.29626	0.14359	29.8	13111	100
2025-3-27 20:22:18.682	WT901BLE68-01(48591DE3C19B)	-0.120	0.011	0.305	-32.654	-41.504	21.423	-74.29	19.99	-29.18	-56.938	-22.442	102.704	-0.78516	0.52444	-0.29626	0.14359	29.8	13111	100
2025-3-27 20:22:18.682	WT901BLE68-01(48591DE3C19B)	-0.046	0.011	0.305	-32.654	-41.504	21.423	-74.40	20.12	-28.59	-56.938	-22.442	102.704	-0.78516	0.52444	-0.29626	0.14359	29.8	13111	100
2025-3-27 20:22:18.710	WT901BLE68-01(48591DE3C19B)	-0.046	-0.133	0.292	-44.861	-68.115	22.339	-74.51	20.21	-27.85	-56.938	-22.442	102.704	-0.78516	0.52444	-0.29626	0.14359	29.8	13111	100
2025-3-27 20:22:18.710	WT901BLE68-01(48591DE3C19B)	-0.088	-0.133	0.292	-44.861	-68.115	22.339	-74.62	20.29	-26.98	-56.938	-22.442	102.704	-0.78516	0.52444	-0.29626	0.14359	29.8	13111	100
2025-3-27 20:22:18.711	WT901BLE68-01(48591DE3C19B)	-0.088	-0.508	0.297	-46.631	-73.547	15.442	-74.73	20.31	-26.09	-42.532	-27.734	96.824	-0.78516	0.52444	-0.29626	0.14359	29.8	13111	100
2025-3-27 20:22:18.711	WT901BLE68-01(48591DE3C19B)	-0.270	-0.508	0.297	-46.631	-73.547	15.442	-74.83	20.29	-25.20	-42.532	-27.734	96.824	-0.78516	0.52444	-0.29626	0.14359	29.8	13111	100
2025-3-27 20:22:18.801	WT901BLE68-01(48591DE3C19B)	-0.270	-1.034	0.234	-48.584	-70.618	7.935	-74.95	20.23	-24.35	-42.532	-27.734	96.824	-0.78516	0.52444	-0.29626	0.14359	29.8	13111	100
2025-3-27 20:22:18.801	WT901BLE68-01(48591DE3C19B)	-0.298	-1.034	0.234	-48.584	-70.618	7.935	-75.11	20.12	-23.52	-42.532	-27.734	96.824	-0.78516	0.52444	-0.29626	0.14359	29.8	13111	100
2025-3-27 20:22:18.801	WT901BLE68-01(48591DE3C19B)	-0.298	-1.759	0.003	-57.068	-59.753	-6.714	-75.35	19.96	-22.79	-42.532	-27.734	96.824	-0.78516	0.52444	-0.29626	0.14359	29.8	13111	100
2025-3-27 20:22:18.801	WT901BLE68-01(48591DE3C19B)	-0.227	-1.759	0.003	-57.068	-59.753	-6.714	-75.70	19.73	-22.14	-42.532	-27.734	96.824	-0.78516	0.52444	-0.29626	0.14359	29.8	13111	100
2025-3-27 20:22:18.802	WT901BLE68-01(48591DE3C19B)	-0.227	-2.604	-0.216	-26.123	-29.907	-20.203	-75.96	19.46	-21.68	-42.532	-27.734	96.824	-0.78516	0.52444	-0.29626	0.14359	29.8	13111	100
2025-3-27 20:22:18.802	WT901BLE68-01(48591DE3C19B)	-0.285	-2.604	-0.216	-26.123	-29.907	-20.203	-76.17	19.15	-21.39	-42.532	-27.734	96.824	-0.78516	0.52444	-0.29626	0.14359	29.8	13111	100
2025-3-27 20:22:18.802	WT901BLE68-01(48591DE3C19B)	-0.285	-2.378	-0.060	44.861	-0.305	-5.798	-76.08	18.94	-21.25	-42.532	-27.734	96.824	-0.78516	0.52444	-0.29626	0.14359	29.8	13111	100
2025-3-27 20:22:18.802	WT901BLE68-01(48591DE3C19B)	-0.196	-2.378	-0.060	44.861	-0.305	-5.798	-75.69	18.83	-21.24	-42.532	-27.734	96.824	-0.78516	0.52444	-0.29626	0.14359	29.8	13111	100
2025-3-27 20:22:18.831	WT901BLE68-01(48591DE3C19B)	-0.196	-1.485	0.134	46.448	15.930	-2.502	-75.33	18.75	-21.32	-42.532	-27.734	96.824	-0.78516	0.52444	-0.29626	0.14359	29.8	13111	100
2025-3-27 20:22:18.831	WT901BLE68-01(48591DE3C19B)	0.060	-1.485	0.134	46.448	15.930	-2.502	-74.98	18.72	-21.47	-42.532	-27.734	96.824	-0.78516	0.52444	-0.29626	0.14359	29.8	13111	100
2025-3-27 20:22:18.831	WT901BLE68-01(48591DE3C19B)	0.060	-1.146	0.250	32.104	45.166	18.860	-74.75	18.82	-21.74	-42.532	-27.734	96.824	-0.78516	0.52444	-0.29626	0.14359	29.8	13111	100
2025-3-27 20:22:18.831	WT901BLE68-01(48591DE3C19B)	0.125	-1.146	0.250	32.104	45.166	18.860	-74.62	19.05	-22.14	-42.532	-27.734	96.824	-0.78516	0.52444	-0.29626	0.14359	29.8	13111	100
2025-3-27 20:22:18.921	WT901BLE68-01(48591DE3C19B)	0.125	-0.934	0.305	24.170	87.891	32.471	-74.59	19.40	-22.73	-42.532	-27.734	96.824	-0.78516	0.52444	-0.29626	0.14359	29.8	13111	100
2025-3-27 20:22:18.921	WT901BLE68-01(48591DE3C19B)	-0.000	-0.934	0.305	24.170	87.891	32.471	-74.67	19.87	-23.52	-42.532	-27.734	96.824	-0.78516	0.52444	-0.29626	0.14359	29.8	13111	100
2025-3-27 20:22:18.921	WT901BLE68-01(48591DE3C19B)	-0.000	-0.813	0.277	19.592	112.244	26.550	-74.82	20.32	-24.45	-42.532	-27.734	96.824	-0.78516	0.52444	-0.29626	0.14359	29.8	13111	100
2025-3-27 20:22:18.921	WT901BLE68-01(48591DE3C19B)	-0.130	-0.813	0.277	19.592	112.244	26.550	-75.05	20.78	-25.52	-42.532	-27.734	96.824	-0.78516	0.52444	-0.29626	0.14359	29.8	13111	100
2025-3-27 20:22:18.922	WT901BLE68-01(48591DE3C19B)	-0.130	-0.684	0.299	21.973	106.812	17.029	-75.26	21.17	-26.56	-42.532	-27.734	96.824	-0.78339	0.55063	-0.27948	0.06970	29.8	13111	100
2025-3-27 20:22:18.922	WT901BLE68-01(48591DE3C19B)	-0.191	-0.684	0.299	21.973	106.812	17.029	-75.45	21.51	-27.60	-42.532	-27.734	96.824	-0.78339	0.55063	-0.27948	0.06970	29.8	13111	100
2025-3-27 20:22:18.922	WT901BLE68-01(48591DE3C19B)	-0.191	-0.597	0.270	26.489	97.778	10.193	-75.60	21.80	-28.59	-42.532	-27.734	96.824	-0.78339	0.55063	-0.27948	0.06970	29.8	13111	100
2025-3-27 20:22:18.922	WT901BLE68-01(48591DE3C19B)	-0.257	-0.597	0.270	26.489	97.778	10.193	-75.72	22.04	-29.55	-42.532	-27.734	96.824	-0.78339	0.55063	-0.27948	0.06970	29.8	13111	100
2025-3-27 20:22:18.950	WT901BLE68-01(48591DE3C19B)	-0.257	-0.517	0.187	38.330	91.248	2.991	-75.77	22.25	-30.47	-42.532	-27.734	96.824	-0.78339	0.55063	-0.27948	0.06970	29.8	13111	100
2025-3-27 20:22:18.950	WT901BLE68-01(48591DE3C19B)	-0.218	-0.517	0.187	38.330	91.248	2.991	-75.75	22.41	-31.37	-42.532	-27.734	96.824	-0.78339	0.55063	-0.27948	0.06970	29.8	13111	100
2025-3-27 20:22:18.950	WT901BLE68-01(48591DE3C19B)	-0.218	-0.368	0.117	48.401	77.820	3.906	-75.65	22.58	-32.18	-42.532	-27.734	96.824	-0.78339	0.55063	-0.27948	0.06970	29.8	13111	100
2025-3-27 20:22:18.950	WT901BLE68-01(48591DE3C19B)	-0.190	-0.368	0.117	48.401	77.820	3.906	-75.47	22.73	-32.93	-42.532	-27.734	96.824	-0.78339	0.55063	-0.27948	0.06970	29.8	13111	100
2025-3-27 20:22:19.10	WT901BLE68-01(48591DE3C19B)	-0.190	-0.237	0.141	56.580	73.792	10.620	-75.25	22.92	-33.63	-42.532	-27.734	96.824	-0.78339	0.55063	-0.27948	0.06970	29.8	13111	100
2025-3-27 20:22:19.10	WT901BLE68-01(48591DE3C19B)	-0.283	-0.237	0.141	56.580	73.792	10.620	-74.97	23.15	-34.30	-42.532	-27.734	96.824	-0.78339	0.55063	-0.27948	0.06970	29.8	13111	100
2025-3-27 20:22:19.10	WT901BLE68-01(48591DE3C19B)	-0.283	-0.166	0.179	57.434	67.322	16.724	-74.67	23.41	-34.91	-42.532	-27.734	96.824	-0.78339	0.55063	-0.27948	0.06970	29.8	13111	100
2025-3-27 20:22:19.10	WT901BLE68-01(48591DE3C19B)	-0.365	-0.166	0.179	57.434	67.322	16.724	-74.35	23.69	-35.48	-42.532	-27.734	96.824	-0.78339	0.55063	-0.27948	0.06970	29.8	13111	100
2025-3-27 20:22:19.40	WT901BLE68-01(48591DE3C19B)	-0.365	-0.227	0.123	38.452	47.791	18.555	-74.08	23.98	-35.94	-42.532	-27.734	96.824	-0.78339	0.55063	-0.27948	0.06970	29.8	13111	100
2025-3-27 20:22:19.40	WT901BLE68-01(48591DE3C19B)	-0.449	-0.227	0.123	38.452	47.791	18.555	-73.87	24.27	-36.27	-42.532	-27.734	96.824	-0.78339	0.55063	-0.27948	0.06970	29.8	13111	100
2025-3-27 20:22:19.40	WT901BLE68-01(48591DE3C19B)	-0.449	-0.507	0.078	17.456	21.301	15.442	-73.70	24.51	-36.46	-42.532	-27.734	96.824	-0.78339	0.55063	-0.27948	0.06970	29.8	13111	100
2025-3-27 20:22:19.40	WT901BLE68-01(48591DE3C19B)	-0.639	-0.507	0.078	17.456	21.301	15.442	-73.60	24.72	-36.50	-42.532	-27.734	96.824	-0.78339	0.55063	-0.27948	0.06970	29.8	13111	100
2025-3-27 20:22:19.131	WT901BLE68-01(48591DE3C19B)	-0.639	-0.924	0.137	-4.517	-9.277	2.441	-73.55	24.83	-36.40	-42.532	-27.734	96.824	-0.78339	0.55063	-0.27948	0.06970	29.8	13111	100
2025-3-27 20:22:19.132	WT901BLE68-01(48591DE3C19B)	-0.765	-0.924	0.137	-4.517	-9.277	2.441	-73.56	24.83	-36.16	-42.532	-27.734	96.824	-0.78339	0.55063	-0.27948	0.06970	29.8	13111	100
2025-3-27 20:22:19.132	WT901BLE68-01(48591DE3C19B)	-0.765	-1.577	0.270	-18.677	-41.992	-25.330	-73.60	24.67	-35.79	-42.532	-27.734	96.824	-0.78339	0.55063	-0.27948	0.06970	29.8	13111	100
2025-3-27 20:22:19.132	WT901BLE68-01(48591DE3C19B)	-0.792	-1.577	0.270	-18.677	-41.992	-25.330	-73.66	24.32	-35.29	-42.532	-27.734	96.824	-0.78339	0.55063	-0.27948	0.06970	29.8	13111	100
2025-3-27 20:22:19.160	WT901BLE68-01(48591DE3C19B)	-0.792	-2.080	0.534	-11.719	-57.861	-64.758	-73.68	23.76	-34.78	-49.882	-30.674	97.020	-0.78339	0.55063	-0.27948	0.06970	29.8	13111	100
2025-3-27 20:22:19.161	WT901BLE68-01(48591DE3C19B)	-0.989	-2.080	0.534	-11.719	-57.861	-64.758	-73.66	22.99	-34.26	-49.882	-30.674	97.020	-0.78339	0.55063	-0.27948	0.06970	29.8	13111	100
2025-3-27 20:22:19.161	WT901BLE68-01(48591DE3C19B)	-0.989	-2.138	0.664	3.723	-23.132	-67.871	-73.62	22.29	-34.11	-49.882	-30.674	97.020	-0.78339	0.55063	-0.27948	0.06970	29.8	13111	100
2025-3-27 20:22:19.161	WT901BLE68-01(48591DE3C19B)	-0.903	-2.138	0.664	3.723	-23.132	-67.871	-73.59	21.59	-33.96	-49.882	-30.674	97.020	-0.78339	0.55063	-0.27948	0.06970	29.8	13111	100
2025-3-27 20:22:19.161	WT901BLE68-01(48591DE3C19B)	-0.903	-1.553	0.676	23.010	26.550	-62.256	-73.54	21.09	-34.30	-49.882	-30.674	97.020	-0.78339	0.55063	-0.27948	0.06970	29.8	13111	100
2025-3-27 20:22:19.162	WT901BLE68-01(48591DE3C19B)	-0.646	-1.553	0.676	23.010	26.550	-62.256	-73.48	20.59	-34.63	-49.882	-30.674	97.020	-0.78339	0.55063	-0.27948	0.06970	29.8	13111	100
2025-3-27 20:22:19.162	WT901BLE68-01(48591DE3C19B)	-0.646	-1.057	0.575	16.602	52.246	-40.283	-73.54	20.39	-35.16	-49.882	-30.674	97.020	-0.78339	0.55063	-0.27948	0.06970	29.8	13111	100
2025-3-27 20:22:19.162	WT901BLE68-01(48591DE3C19B)	-0.430	-1.057	0.575	16.602	52.246	-40.283	-73.60	20.19	-35.68	-49.882	-30.674	97.020	-0.78339	0.55063	-0.27948	0.06970	29.8	13111	100
2025-3-27 20:22:19.220	WT901BLE68-01(48591DE3C19B)	-0.430	-0.755	0.408	4.761	44.922	-15.869	-73.72	20.20	-36.05	-49.882	-30.674	97.020	-0.78339	0.55063	-0.27948	0.06970	29.8	13111	100
2025-3-27 20:22:19.221	WT901BLE68-01(48591DE3C19B)	-0.552	-0.755	0.408	4.761	44.922	-15.869	-73.83	20.21	-36.42	-49.882	-30.674	97.020	-0.78339	0.55063	-0.27948	0.06970	29.8	13111	100
2025-3-27 20:22:19.221	WT901BLE68-01(48591DE3C19B)	-0.552	-0.677	0.292	-16.541	-3.418	-1.587	-73.98	20.23	-36.25	-49.882	-30.674	97.020	-0.78339	0.55063	-0.27948	0.06970	29.8	13111	100
2025-3-27 20:22:19.221	WT901BLE68-01(48591DE3C19B)	-0.501	-0.677	0.292	-16.541	-3.418	-1.587	-74.11	20.25	-36.07	-49.882	-30.674	97.020	-0.78339	0.55063	-0.27948	0.06970	29.8	13111	100
2025-3-27 20:22:19.311	WT901BLE68-01(48591DE3C19B)	-0.501	-0.761	0.211	-36.072	-51.575	12.634	-74.27	20.29	-35.36	-49.882	-30.674	97.020	-0.78339	0.55063	-0.27948	0.06970	29.8	13111	100
2025-3-27 20:22:19.311	WT901BLE68-01(48591DE3C19B)	-0.429	-0.761	0.211	-36.072	-51.575	12.634	-74.42	20.32	-34.66	-49.882	-30.674	97.020	-0.78339	0.55063	-0.27948	0.06970	29.8	13111	100
2025-3-27 20:22:19.311	WT901BLE68-01(48591DE3C19B)	-0.429	-0.800	0.179	-31.128	-59.631	28.320	-74.48	20.48	-33.83	-49.882	-30.674	97.020	-0.78339	0.55063	-0.27948	0.06970	29.8	13111	100
2025-3-27 20:22:19.311	WT901BLE68-01(48591DE3C19B)	-0.412	-0.800	0.179	-31.128	-59.631	28.320	-74.53	20.64	-33.00	-49.882	-30.674	97.020	-0.78339	0.55063	-0.27948	0.06970	29.8	13111	100
2025-3-27 20:22:19.312	WT901BLE68-01(48591DE3C19B)	-0.412	-0.750	0.226	-18.860	-40.405	21.851	-74.54	20.80	-32.39	-49.882	-30.674	97.020	-0.78339	0.55063	-0.27948	0.06970	29.8	13111	100
2025-3-27 20:22:19.312	WT901BLE68-01(48591DE3C19B)	-0.365	-0.750	0.226	-18.860	-40.405	21.851	-74.55	20.95	-31.78	-49.882	-30.674	97.020	-0.78339	0.55063	-0.27948	0.06970	29.8	13111	100
2025-3-27 20:22:19.312	WT901BLE68-01(48591DE3C19B)	-0.365	-0.609	0.278	-10.437	-16.541	16.296	-74.57	21.10	-31.44	-49.882	-30.674	97.020	-0.78339	0.55063	-0.27948	0.06970	29.8	13111	100
2025-3-27 20:22:19.312	WT901BLE68-01(48591DE3C19B)	-0.325	-0.609	0.278	-10.437	-16.541	16.296	-74.59	21.26	-31.10	-49.882	-30.674	97.020	-0.78339	0.55063	-0.27948	0.06970	29.8	13111	100
2025-3-27 20:22:19.340	WT901BLE68-01(48591DE3C19B)	-0.325	-0.412	0.275	-2.930	5.676	17.761	-74.60	21.49	-30.98	-49.882	-30.674	97.020	-0.78339	0.55063	-0.27948	0.06970	29.8	13111	100
2025-3-27 20:22:19.340	WT901BLE68-01(48591DE3C19B)	-0.281	-0.412	0.275	-2.930	5.676	17.761	-74.61	21.73	-30.85	-49.882	-30.674	97.020	-0.78339	0.55063	-0.27948	0.06970	29.8	13111	100
2025-3-27 20:22:19.341	WT901BLE68-01(48591DE3C19B)	-0.281	-0.202	0.224	-0.793	17.639	24.841	-74.64	22.07	-30.83	-49.882	-30.674	97.020	-0.78339	0.55063	-0.27948	0.06970	29.8	13111	100
2025-3-27 20:22:19.341	WT901BLE68-01(48591DE3C19B)	-0.222	-0.202	0.224	-0.793	17.639	24.841	-74.66	22.41	-30.79	-49.882	-30.674	97.020	-0.78339	0.55063	-0.27948	0.06970	29.8	13111	100
2025-3-27 20:22:19.372	WT901BLE68-01(48591DE3C19B)	-0.222	-0.027	0.182	-5.737	19.531	34.729	-74.72	22.85	-30.75	-49.882	-30.674	97.020	-0.78293	0.53137	-0.31085	0.08914	29.8	13111	100
2025-3-27 20:22:19.372	WT901BLE68-01(48591DE3C19B)	-0.215	-0.027	0.182	-5.737	19.531	34.729	-74.78	23.31	-30.69	-49.882	-30.674	97.020	-0.78293	0.53137	-0.31085	0.08914	29.8	13111	100
2025-3-27 20:22:19.372	WT901BLE68-01(48591DE3C19B)	-0.215	0.089	0.158	-18.372	4.578	44.312	-74.88	23.82	-30.44	-49.882	-30.674	97.020	-0.78293	0.53137	-0.31085	0.08914	29.8	13111	100
2025-3-27 20:22:19.372	WT901BLE68-01(48591DE3C19B)	-0.242	0.089	0.158	-18.372	4.578	44.312	-74.98	24.34	-30.17	-49.882	-30.674	97.020	-0.78293	0.53137	-0.31085	0.08914	29.8	13111	100
2025-3-27 20:22:19.400	WT901BLE68-01(48591DE3C19B)	-0.242	0.005	0.150	-41.016	-36.743	51.147	-75.11	24.83	-29.44	-49.882	-30.674	97.020	-0.78293	0.53137	-0.31085	0.08914	29.8	13111	100
2025-3-27 20:22:19.400	WT901BLE68-01(48591DE3C19B)	-0.241	0.005	0.150	-41.016	-36.743	51.147	-75.23	25.34	-28.69	-49.882	-30.674	97.020	-0.78293	0.53137	-0.31085	0.08914	29.8	13111	100
2025-3-27 20:22:19.401	WT901BLE68-01(48591DE3C19B)	-0.241	-0.336	0.134	-59.143	-75.256	48.706	-75.36	25.72	-27.53	-49.882	-30.674	97.020	-0.78293	0.53137	-0.31085	0.08914	29.8	13111	100
2025-3-27 20:22:19.401	WT901BLE68-01(48591DE3C19B)	-0.339	-0.336	0.134	-59.143	-75.256	48.706	-75.47	26.10	-26.37	-49.882	-30.674	97.020	-0.78293	0.53137	-0.31085	0.08914	29.8	13111	100
2025-3-27 20:22:19.461	WT901BLE68-01(48591DE3C19B)	-0.339	-0.789	0.148	-60.303	-97.961	44.006	-75.50	26.36	-25.01	-49.882	-30.674	97.020	-0.78293	0.53137	-0.31085	0.08914	29.8	13111	100
2025-3-27 20:22:19.461	WT901BLE68-01(48591DE3C19B)	-0.438	-0.789	0.148	-60.303	-97.961	44.006	-75.53	26.60	-23.67	-49.882	-30.674	97.020	-0.78293	0.53137	-0.31085	0.08914	29.8	13111	100
2025-3-27 20:22:19.461	WT901BLE68-01(48591DE3C19B)	-0.438	-1.467	0.073	-67.627	-109.619	27.649	-75.61	26.63	-22.28	-49.882	-30.674	97.020	-0.78293	0.53137	-0.31085	0.08914	29.8	13111	100
2025-3-27 20:22:19.461	WT901BLE68-01(48591DE3C19B)	-0.399	-1.467	0.073	-67.627	-109.619	27.649	-75.71	26.64	-20.92	-49.882	-30.674	97.020	-0.78293	0.53137	-0.31085	0.08914	29.8	13111	100
2025-3-27 20:22:19.492	WT901BLE68-01(48591DE3C19B)	-0.399	-2.478	-0.026	-46.509	-106.262	-19.104	-75.70	26.18	-19.78	-49.882	-30.674	97.020	-0.78293	0.53137	-0.31085	0.08914	29.8	13111	100
2025-3-27 20:22:19.492	WT901BLE68-01(48591DE3C19B)	-0.410	-2.478	-0.026	-46.509	-106.262	-19.104	-75.71	25.70	-18.65	-49.882	-30.674	97.020	-0.78293	0.53137	-0.31085	0.08914	29.8	13111	100
2025-3-27 20:22:19.492	WT901BLE68-01(48591DE3C19B)	-0.410	-2.698	0.003	15.015	-72.327	-30.823	-75.32	25.18	-17.95	-49.882	-30.674	97.020	-0.78293	0.53137	-0.31085	0.08914	29.8	13111	100
2025-3-27 20:22:19.492	WT901BLE68-01(48591DE3C19B)	-0.524	-2.698	0.003	15.015	-72.327	-30.823	-74.94	24.64	-17.27	-49.882	-30.674	97.020	-0.78293	0.53137	-0.31085	0.08914	29.8	13111	100
2025-3-27 20:22:19.520	WT901BLE68-01(48591DE3C19B)	-0.524	-1.923	0.147	29.663	-34.790	-46.570	-74.61	24.05	-17.05	-49.882	-30.674	97.020	-0.78293	0.53137	-0.31085	0.08914	29.8	13111	100
2025-3-27 20:22:19.520	WT901BLE68-01(48591DE3C19B)	-0.385	-1.923	0.147	29.663	-34.790	-46.570	-74.28	23.46	-16.82	-49.882	-30.674	97.020	-0.78293	0.53137	-0.31085	0.08914	29.8	13111	100
2025-3-27 20:22:19.520	WT901BLE68-01(48591DE3C19B)	-0.385	-1.774	0.179	20.325	-0.122	-43.030	-74.20	23.00	-16.95	-40.278	-45.570	85.162	-0.78293	0.53137	-0.31085	0.08914	29.8	13111	100
2025-3-27 20:22:19.520	WT901BLE68-01(48591DE3C19B)	-0.226	-1.774	0.179	20.325	-0.122	-43.030	-74.11	22.54	-17.09	-40.278	-45.570	85.162	-0.78293	0.53137	-0.31085	0.08914	29.8	13111	100
2025-3-27 20:22:19.581	WT901BLE68-01(48591DE3C19B)	-0.226	-1.497	0.308	27.039	46.265	-35.889	-74.13	22.27	-17.68	-40.278	-45.570	85.162	-0.78293	0.53137	-0.31085	0.08914	29.8	13111	100
2025-3-27 20:22:19.581	WT901BLE68-01(48591DE3C19B)	-0.261	-1.497	0.308	27.039	46.265	-35.889	-74.14	22.01	-18.27	-40.278	-45.570	85.162	-0.78293	0.53137	-0.31085	0.08914	29.8	13111	100
2025-3-27 20:22:19.581	WT901BLE68-01(48591DE3C19B)	-0.337	-1.098	0.327	16.724	59.875	-19.592	-74.28	21.93	-18.95	-40.278	-45.570	85.162	-0.78293	0.53137	-0.31085	0.08914	29.8	13111	100
2025-3-27 20:22:19.581	WT901BLE68-01(48591DE3C19B)	-0.337	-0.846	0.266	-8.789	17.456	-18.250	-74.46	21.80	-19.41	-40.278	-45.570	85.162	-0.78293	0.53137	-0.31085	0.08914	29.8	13111	100
2025-3-27 20:22:19.610	WT901BLE68-01(48591DE3C19B)	-0.317	-0.846	0.266	-8.789	17.456	-18.250	-74.68	21.63	-19.64	-40.278	-45.570	85.162	-0.78293	0.53137	-0.31085	0.08914	29.8	13111	100
2025-3-27 20:22:19.610	WT901BLE68-01(48591DE3C19B)	-0.317	-0.687	0.229	-21.484	-26.855	-23.010	-74.87	21.37	-19.64	-40.278	-45.570	85.162	-0.78293	0.53137	-0.31085	0.08914	29.8	13111	100
2025-3-27 20:22:19.610	WT901BLE68-01(48591DE3C19B)	-0.359	-0.687	0.229	-21.484	-26.855	-23.010	-75.04	21.04	-19.42	-40.278	-45.570	85.162	-0.78293	0.53137	-0.31085	0.08914	29.8	13111	100
2025-3-27 20:22:19.610	WT901BLE68-01(48591DE3C19B)	-0.359	-0.543	0.246	-20.996	-36.621	-19.897	-75.19	20.73	-19.14	-40.278	-45.570	85.162	-0.78293	0.53137	-0.31085	0.08914	29.8	13111	100
2025-3-27 20:22:19.640	WT901BLE68-01(48591DE3C19B)	-0.423	-0.543	0.246	-20.996	-36.621	-19.897	-75.31	20.42	-18.80	-40.278	-45.570	85.162	-0.78293	0.53137	-0.31085	0.08914	29.8	13111	100
2025-3-27 20:22:19.640	WT901BLE68-01(48591DE3C19B)	-0.423	-0.406	0.237	-14.893	-28.748	-16.968	-75.41	20.14	-18.50	-40.278	-45.570	85.162	-0.78293	0.53137	-0.31085	0.08914	29.8	13111	100
2025-3-27 20:22:19.641	WT901BLE68-01(48591DE3C19B)	-0.399	-0.406	0.237	-14.893	-28.748	-16.968	-75.49	19.90	-18.22	-40.278	-45.570	85.162	-0.78293	0.53137	-0.31085	0.08914	29.8	13111	100
2025-3-27 20:22:19.641	WT901BLE68-01(48591DE3C19B)	-0.399	-0.299	0.204	-9.033	-20.508	-10.925	-75.54	19.71	-17.97	-40.278	-45.570	85.162	-0.78293	0.53137	-0.31085	0.08914	29.8	13111	100
2025-3-27 20:22:19.701	WT901BLE68-01(48591DE3C19B)	-0.340	-0.299	0.204	-9.033	-20.508	-10.925	-75.57	19.57	-17.75	-40.278	-45.570	85.162	-0.78293	0.53137	-0.31085	0.08914	29.8	13111	100
2025-3-27 20:22:19.701	WT901BLE68-01(48591DE3C19B)	-0.340	-0.237	0.173	-1.038	-15.991	-5.310	-75.57	19.46	-17.53	-40.278	-45.570	85.162	-0.78293	0.53137	-0.31085	0.08914	29.8	13111	100
2025-3-27 20:22:19.701	WT901BLE68-01(48591DE3C19B)	-0.338	-0.237	0.173	-1.038	-15.991	-5.310	-75.53	19.41	-17.33	-40.278	-45.570	85.162	-0.78293	0.53137	-0.31085	0.08914	29.8	13111	100
2025-3-27 20:22:19.701	WT901BLE68-01(48591DE3C19B)	-0.338	-0.210	0.154	6.775	-17.395	-0.854	-75.44	19.37	-17.10	-40.278	-45.570	85.162	-0.78293	0.53137	-0.31085	0.08914	29.8	13111	100
2025-3-27 20:22:19.731	WT901BLE68-01(48591DE3C19B)	-0.321	-0.210	0.154	6.775	-17.395	-0.854	-75.30	19.37	-16.85	-40.278	-45.570	85.162	-0.78293	0.53137	-0.31085	0.08914	29.8	13111	100
2025-3-27 20:22:19.731	WT901BLE68-01(48591DE3C19B)	-0.321	-0.207	0.133	13.977	-25.208	8.179	-75.11	19.41	-16.54	-40.278	-45.570	85.162	-0.78293	0.53137	-0.31085	0.08914	29.8	13111	100
2025-3-27 20:22:19.731	WT901BLE68-01(48591DE3C19B)	-0.270	-0.207	0.133	13.977	-25.208	8.179	-74.87	19.49	-16.17	-40.278	-45.570	85.162	-0.78293	0.53137	-0.31085	0.08914	29.8	13111	100
2025-3-27 20:22:19.731	WT901BLE68-01(48591DE3C19B)	-0.270	-0.177	0.125	19.348	-27.527	22.949	-74.59	19.64	-15.75	-40.278	-45.570	85.162	-0.79132	0.57193	-0.21588	0.00314	29.8	13111	100
2025-3-27 20:22:19.760	WT901BLE68-01(48591DE3C19B)	-0.212	-0.177	0.125	19.348	-27.527	22.949	-74.27	19.87	-15.30	-40.278	-45.570	85.162	-0.79132	0.57193	-0.21588	0.00314	29.8	13111	100
2025-3-27 20:22:19.761	WT901BLE68-01(48591DE3C19B)	-0.212	-0.232	0.139	20.081	-23.438	38.147	-73.95	20.18	-14.84	-40.278	-45.570	85.162	-0.79132	0.57193	-0.21588	0.00314	29.8	13111	100
2025-3-27 20:22:19.761	WT901BLE68-01(48591DE3C19B)	-0.167	-0.232	0.139	20.081	-23.438	38.147	-73.61	20.56	-14.36	-40.278	-45.570	85.162	-0.79132	0.57193	-0.21588	0.00314	29.8	13111	100
2025-3-27 20:22:19.761	WT901BLE68-01(48591DE3C19B)	-0.167	-0.354	0.141	16.541	-14.709	47.791	-73.31	20.99	-13.93	-40.278	-45.570	85.162	-0.79132	0.57193	-0.21588	0.00314	29.8	13111	100
2025-3-27 20:22:19.851	WT901BLE68-01(48591DE3C19B)	-0.172	-0.354	0.141	16.541	-14.709	47.791	-73.02	21.48	-13.52	-40.278	-45.570	85.162	-0.79132	0.57193	-0.21588	0.00314	29.8	13111	100
2025-3-27 20:22:19.851	WT901BLE68-01(48591DE3C19B)	-0.172	-0.571	0.111	2.441	-4.150	46.448	-72.82	21.97	-13.17	-40.278	-45.570	85.162	-0.79132	0.57193	-0.21588	0.00314	29.8	13111	100
2025-3-27 20:22:19.851	WT901BLE68-01(48591DE3C19B)	-0.251	-0.571	0.111	2.441	-4.150	46.448	-72.72	22.45	-12.90	-40.278	-45.570	85.162	-0.79132	0.57193	-0.21588	0.00314	29.8	13111	100
2025-3-27 20:22:19.851	WT901BLE68-01(48591DE3C19B)	-0.251	-0.994	0.194	-15.442	3.296	35.400	-72.72	22.87	-12.71	-40.278	-45.570	85.162	-0.79132	0.57193	-0.21588	0.00314	29.8	13111	100
2025-3-27 20:22:19.852	WT901BLE68-01(48591DE3C19B)	-0.431	-0.994	0.194	-15.442	3.296	35.400	-72.85	23.24	-12.59	-40.278	-45.570	85.162	-0.79132	0.57193	-0.21588	0.00314	29.8	13111	100
2025-3-27 20:22:19.852	WT901BLE68-01(48591DE3C19B)	-0.431	-1.826	0.314	-31.555	1.587	10.132	-73.08	23.47	-12.52	-40.278	-45.570	85.162	-0.79132	0.57193	-0.21588	0.00314	29.8	13111	100
2025-3-27 20:22:19.852	WT901BLE68-01(48591DE3C19B)	-0.560	-1.826	0.314	-31.555	1.587	10.132	-73.40	23.55	-12.51	-40.278	-45.570	85.162	-0.79132	0.57193	-0.21588	0.00314	29.8	13111	100
2025-3-27 20:22:19.852	WT901BLE68-01(48591DE3C19B)	-0.560	-2.682	0.369	-20.691	1.526	-19.104	-73.69	23.49	-12.57	-40.278	-45.570	85.162	-0.79132	0.57193	-0.21588	0.00314	29.8	13111	100
2025-3-27 20:22:19.881	WT901BLE68-01(48591DE3C19B)	-0.796	-2.682	0.369	-20.691	1.526	-19.104	-73.95	23.28	-12.67	-40.278	-45.570	85.162	-0.79132	0.57193	-0.21588	0.00314	29.8	13111	100
2025-3-27 20:22:19.882	WT901BLE68-01(48591DE3C19B)	-0.796	-2.551	0.562	19.287	1.465	-36.926	-74.03	22.98	-12.82	-40.278	-45.570	85.162	-0.79132	0.57193	-0.21588	0.00314	29.8	13111	100
2025-3-27 20:22:19.882	WT901BLE68-01(48591DE3C19B)	-0.707	-2.551	0.562	19.287	1.465	-36.926	-73.92	22.59	-12.98	-40.278	-45.570	85.162	-0.79132	0.57193	-0.21588	0.00314	29.8	13111	100
2025-3-27 20:22:19.882	WT901BLE68-01(48591DE3C19B)	-0.707	-1.747	0.646	18.616	1.648	-42.786	-73.81	22.18	-13.16	-40.278	-45.570	85.162	-0.79132	0.57193	-0.21588	0.00314	29.8	13111	100
2025-3-27 20:22:19.940	WT901BLE68-01(48591DE3C19B)	-0.513	-1.747	0.646	18.616	1.648	-42.786	-73.70	21.75	-13.34	-40.278	-45.570	85.162	-0.79132	0.57193	-0.21588	0.00314	29.8	13111	100
2025-3-27 20:22:19.940	WT901BLE68-01(48591DE3C19B)	-0.513	-1.206	0.677	20.813	13.062	-22.888	-73.59	21.43	-13.55	-43.218	-51.156	74.480	-0.79132	0.57193	-0.21588	0.00314	29.8	13111	100
2025-3-27 20:22:19.941	WT901BLE68-01(48591DE3C19B)	-0.300	-1.206	0.677	20.813	13.062	-22.888	-73.46	21.23	-13.78	-43.218	-51.156	74.480	-0.79132	0.57193	-0.21588	0.00314	29.8	13111	100
2025-3-27 20:22:19.941	WT901BLE68-01(48591DE3C19B)	-0.300	-0.769	0.607	13.977	19.653	1.465	-73.36	21.15	-14.02	-43.218	-51.156	74.480	-0.79132	0.57193	-0.21588	0.00314	29.8	13111	100
2025-3-27 20:22:19.970	WT901BLE68-01(48591DE3C19B)	-0.127	-0.769	0.607	13.977	19.653	1.465	-73.28	21.21	-14.24	-43.218	-51.156	74.480	-0.79132	0.57193	-0.21588	0.00314	29.8	13111	100
2025-3-27 20:22:19.971	WT901BLE68-01(48591DE3C19B)	-0.127	-0.690	0.453	-10.620	6.470	18.677	-73.29	21.32	-14.38	-43.218	-51.156	74.480	-0.79132	0.57193	-0.21588	0.00314	29.8	13111	100
2025-3-27 20:22:19.971	WT901BLE68-01(48591DE3C19B)	-0.136	-0.690	0.453	-10.620	6.470	18.677	-73.38	21.49	-14.43	-43.218	-51.156	74.480	-0.79132	0.57193	-0.21588	0.00314	29.8	13111	100
2025-3-27 20:22:19.971	WT901BLE68-01(48591DE3C19B)	-0.136	-0.868	0.321	-15.076	-12.939	26.306	-73.44	21.67	-14.38	-43.218	-51.156	74.480	-0.79132	0.57193	-0.21588	0.00314	29.8	13111	100
2025-3-27 20:22:20.0	WT901BLE68-01(48591DE3C19B)	-0.181	-0.868	0.321	-15.076	-12.939	26.306	-73.49	21.85	-14.22	-43.218	-51.156	74.480	-0.79132	0.57193	-0.21588	0.00314	29.8	13111	100
2025-3-27 20:22:20.0	WT901BLE68-01(48591DE3C19B)	-0.181	-0.919	0.168	-1.465	-10.193	29.358	-73.48	22.05	-14.08	-43.218	-51.156	74.480	-0.79132	0.57193	-0.21588	0.00314	29.8	13111	100
2025-3-27 20:22:20.0	WT901BLE68-01(48591DE3C19B)	-0.276	-0.919	0.168	-1.465	-10.193	29.358	-73.41	22.26	-13.95	-43.218	-51.156	74.480	-0.79132	0.57193	-0.21588	0.00314	29.8	13111	100
2025-3-27 20:22:20.0	WT901BLE68-01(48591DE3C19B)	-0.276	-0.843	0.092	16.663	13.611	26.733	-73.30	22.49	-13.95	-43.218	-51.156	74.480	-0.79132	0.57193	-0.21588	0.00314	29.8	13111	100
2025-3-27 20:22:20.61	WT901BLE68-01(48591DE3C19B)	-0.313	-0.843	0.092	16.663	13.611	26.733	-73.15	22.74	-14.07	-43.218	-51.156	74.480	-0.79132	0.57193	-0.21588	0.00314	29.8	13111	100
2025-3-27 20:22:20.61	WT901BLE68-01(48591DE3C19B)	-0.313	-0.720	0.115	27.466	49.561	13.733	-73.06	22.97	-14.61	-43.218	-51.156	74.480	-0.79132	0.57193	-0.21588	0.00314	29.8	13111	100
2025-3-27 20:22:20.61	WT901BLE68-01(48591DE3C19B)	-0.388	-0.720	0.115	27.466	49.561	13.733	-72.97	23.21	-15.14	-43.218	-51.156	74.480	-0.79132	0.57193	-0.21588	0.00314	29.8	13111	100
2025-3-27 20:22:20.61	WT901BLE68-01(48591DE3C19B)	-0.388	-0.601	0.183	35.950	76.172	6.897	-72.92	23.47	-15.96	-43.218	-51.156	74.480	-0.79132	0.57193	-0.21588	0.00314	29.8	13111	100
2025-3-27 20:22:20.91	WT901BLE68-01(48591DE3C19B)	-0.436	-0.601	0.183	35.950	76.172	6.897	-72.88	23.72	-16.77	-43.218	-51.156	74.480	-0.79132	0.57193	-0.21588	0.00314	29.8	13111	100
2025-3-27 20:22:20.91	WT901BLE68-01(48591DE3C19B)	-0.436	-0.479	0.250	39.246	77.820	5.859	-72.81	23.98	-17.59	-43.218	-51.156	74.480	-0.79132	0.57193	-0.21588	0.00314	29.8	13111	100
2025-3-27 20:22:20.92	WT901BLE68-01(48591DE3C19B)	-0.429	-0.479	0.250	39.246	77.820	5.859	-72.73	24.25	-18.40	-43.218	-51.156	74.480	-0.79132	0.57193	-0.21588	0.00314	29.8	13111	100
2025-3-27 20:22:20.92	WT901BLE68-01(48591DE3C19B)	-0.429	-0.346	0.291	36.011	61.401	5.371	-72.63	24.47	-19.02	-43.218	-51.156	74.480	-0.79132	0.57193	-0.21588	0.00314	29.8	13111	100
2025-3-27 20:22:20.120	WT901BLE68-01(48591DE3C19B)	-0.410	-0.346	0.291	36.011	61.401	5.371	-72.52	24.70	-19.64	-43.218	-51.156	74.480	-0.79132	0.57193	-0.21588	0.00314	29.8	13111	100
2025-3-27 20:22:20.121	WT901BLE68-01(48591DE3C19B)	-0.410	-0.242	0.240	26.855	34.119	5.859	-72.37	24.87	-19.95	-43.218	-51.156	74.480	-0.79132	0.57193	-0.21588	0.00314	29.8	13111	100
2025-3-27 20:22:20.121	WT901BLE68-01(48591DE3C19B)	-0.381	-0.242	0.240	26.855	34.119	5.859	-72.21	25.04	-20.24	-43.218	-51.156	74.480	-0.79883	0.53555	-0.27353	0.01276	29.8	13111	100
2025-3-27 20:22:20.121	WT901BLE68-01(48591DE3C19B)	-0.381	-0.207	0.169	17.151	17.029	3.235	-72.09	25.15	-20.35	-43.218	-51.156	74.480	-0.79883	0.53555	-0.27353	0.01276	29.8	13111	100
2025-3-27 20:22:20.180	WT901BLE68-01(48591DE3C19B)	-0.376	-0.207	0.169	17.151	17.029	3.235	-71.96	25.27	-20.43	-43.218	-51.156	74.480	-0.79883	0.53555	-0.27353	0.01276	29.8	13111	100
2025-3-27 20:22:20.181	WT901BLE68-01(48591DE3C19B)	-0.376	-0.240	0.159	7.751	12.817	0.000	-71.91	25.35	-20.48	-43.218	-51.156	74.480	-0.79883	0.53555	-0.27353	0.01276	29.8	13111	100
2025-3-27 20:22:20.181	WT901BLE68-01(48591DE3C19B)	-0.396	-0.240	0.159	7.751	12.817	0.000	-71.87	25.44	-20.51	-43.218	-51.156	74.480	-0.79883	0.53555	-0.27353	0.01276	29.8	13111	100
2025-3-27 20:22:20.181	WT901BLE68-01(48591DE3C19B)	-0.396	-0.318	0.202	1.526	14.221	1.099	-71.88	25.56	-20.53	-43.218	-51.156	74.480	-0.79883	0.53555	-0.27353	0.01276	29.8	13111	100
2025-3-27 20:22:20.210	WT901BLE68-01(48591DE3C19B)	-0.407	-0.318	0.202	1.526	14.221	1.099	-71.91	25.68	-20.54	-43.218	-51.156	74.480	-0.79883	0.53555	-0.27353	0.01276	29.8	13111	100
2025-3-27 20:22:20.210	WT901BLE68-01(48591DE3C19B)	-0.407	-0.350	0.195	-5.676	11.658	6.470	-71.98	25.85	-20.51	-43.218	-51.156	74.480	-0.79883	0.53555	-0.27353	0.01276	29.8	13111	100
2025-3-27 20:22:20.210	WT901BLE68-01(48591DE3C19B)	-0.437	-0.350	0.195	-5.676	11.658	6.470	-72.05	26.02	-20.46	-43.218	-51.156	74.480	-0.79883	0.53555	-0.27353	0.01276	29.8	13111	100
2025-3-27 20:22:20.210	WT901BLE68-01(48591DE3C19B)	-0.437	-0.523	0.178	-23.743	4.150	5.554	-72.27	26.16	-20.34	-43.218	-51.156	74.480	-0.79883	0.53555	-0.27353	0.01276	29.8	13111	100
2025-3-27 20:22:20.271	WT901BLE68-01(48591DE3C19B)	-0.575	-0.523	0.178	-23.743	4.150	5.554	-72.50	26.30	-20.21	-43.218	-51.156	74.480	-0.79883	0.53555	-0.27353	0.01276	29.8	13111	100
2025-3-27 20:22:20.271	WT901BLE68-01(48591DE3C19B)	-0.575	-0.986	0.198	-47.974	-13.489	-11.963	-72.92	26.21	-19.98	-43.218	-51.156	74.480	-0.79883	0.53555	-0.27353	0.01276	29.8	13111	100
2025-3-27 20:22:20.271	WT901BLE68-01(48591DE3C19B)	-0.904	-0.986	0.198	-47.974	-13.489	-11.963	-73.33	26.12	-19.77	-43.218	-51.156	74.480	-0.79883	0.53555	-0.27353	0.01276	29.8	13111	100
2025-3-27 20:22:20.271	WT901BLE68-01(48591DE3C19B)	-0.904	-1.916	0.382	-58.655	-52.612	-40.100	-73.72	25.63	-19.26	-43.218	-51.156	74.480	-0.79883	0.53555	-0.27353	0.01276	29.8	13111	100
2025-3-27 20:22:20.301	WT901BLE68-01(48591DE3C19B)	-2.035	-1.916	0.382	-58.655	-52.612	-40.100	-74.12	25.14	-18.77	-43.218	-51.156	74.480	-0.79883	0.53555	-0.27353	0.01276	29.8	13111	100
2025-3-27 20:22:20.301	WT901BLE68-01(48591DE3C19B)	-4.071	-5.875	0.770	-50.232	-95.398	-43.701	-74.26	24.48	-17.87	-43.218	-51.156	74.480	-0.79883	0.53555	-0.27353	0.01276	29.8	13111	100
2025-3-27 20:22:20.301	WT901BLE68-01(48591DE3C19B)	-0.759	-11.749	1.540	-50.232	-95.398	-43.701	-74.44	23.81	-17.02	-43.218	-51.156	74.480	-0.79883	0.53555	-0.27353	0.01276	29.8	13111	100
2025-3-27 20:22:20.302	WT901BLE68-01(48591DE3C19B)	-0.759	-2.219	0.394	17.944	-106.628	-27.893	-73.88	23.24	-16.03	-43.218	-51.156	74.480	-0.79883	0.53555	-0.27353	0.01276	29.8	13111	100
2025-3-27 20:22:20.331	WT901BLE68-01(48591DE3C19B)	-0.385	-2.219	0.394	17.944	-106.628	-27.893	-73.34	22.68	-15.06	-43.218	-51.156	74.480	-0.79883	0.53555	-0.27353	0.01276	29.8	13111	100
2025-3-27 20:22:20.331	WT901BLE68-01(48591DE3C19B)	-0.385	-1.452	0.309	-0.488	-72.449	-3.479	-73.10	22.43	-14.38	-43.218	-51.156	74.480	-0.79883	0.53555	-0.27353	0.01276	29.8	13111	100
2025-3-27 20:22:20.331	WT901BLE68-01(48591DE3C19B)	-0.173	-1.452	0.309	-0.488	-72.449	-3.479	-72.86	22.19	-13.71	-43.218	-51.156	74.480	-0.79883	0.53555	-0.27353	0.01276	29.8	13111	100
2025-3-27 20:22:20.331	WT901BLE68-01(48591DE3C19B)	-0.173	-1.390	0.329	-5.676	-26.917	24.048	-72.83	22.33	-13.43	-54.096	-56.840	65.366	-0.79883	0.53555	-0.27353	0.01276	29.8	13111	100
2025-3-27 20:22:20.361	WT901BLE68-01(48591DE3C19B)	-0.134	-1.390	0.329	-5.676	-26.917	24.048	-72.79	22.47	-13.16	-54.096	-56.840	65.366	-0.79883	0.53555	-0.27353	0.01276	29.8	13111	100
2025-3-27 20:22:20.361	WT901BLE68-01(48591DE3C19B)	-0.134	-1.278	0.375	-8.606	-7.019	48.218	-72.83	22.89	-13.04	-54.096	-56.840	65.366	-0.79883	0.53555	-0.27353	0.01276	29.8	13111	100
2025-3-27 20:22:20.361	WT901BLE68-01(48591DE3C19B)	-0.042	-1.278	0.375	-8.606	-7.019	48.218	-72.86	23.30	-12.92	-54.096	-56.840	65.366	-0.79883	0.53555	-0.27353	0.01276	29.8	13111	100
2025-3-27 20:22:20.361	WT901BLE68-01(48591DE3C19B)	-0.042	-1.249	0.361	-22.949	-8.240	61.340	-73.02	23.83	-12.76	-54.096	-56.840	65.366	-0.79883	0.53555	-0.27353	0.01276	29.8	13111	100
2025-3-27 20:22:20.421	WT901BLE68-01(48591DE3C19B)	-0.043	-1.249	0.361	-22.949	-8.240	61.340	-73.17	24.35	-12.61	-54.096	-56.840	65.366	-0.79883	0.53555	-0.27353	0.01276	29.8	13111	100
2025-3-27 20:22:20.421	WT901BLE68-01(48591DE3C19B)	-0.043	-1.190	0.305	-15.442	8.972	65.796	-73.32	24.95	-12.64	-54.096	-56.840	65.366	-0.79883	0.53555	-0.27353	0.01276	29.8	13111	100
2025-3-27 20:22:20.421	WT901BLE68-01(48591DE3C19B)	-0.147	-1.190	0.305	-15.442	8.972	65.796	-73.47	25.55	-12.68	-54.096	-56.840	65.366	-0.79883	0.53555	-0.27353	0.01276	29.8	13111	100
2025-3-27 20:22:20.421	WT901BLE68-01(48591DE3C19B)	-0.147	-1.001	0.265	-7.080	34.912	58.899	-73.66	26.14	-13.02	-54.096	-56.840	65.366	-0.79883	0.53555	-0.27353	0.01276	29.8	13111	100
2025-3-27 20:22:20.452	WT901BLE68-01(48591DE3C19B)	-0.233	-1.001	0.265	-7.080	34.912	58.899	-73.86	26.73	-13.38	-54.096	-56.840	65.366	-0.79883	0.53555	-0.27353	0.01276	29.8	13111	100
2025-3-27 20:22:20.452	WT901BLE68-01(48591DE3C19B)	-0.233	-0.836	0.235	-7.568	53.284	51.697	-74.16	27.30	-13.96	-54.096	-56.840	65.366	-0.79883	0.53555	-0.27353	0.01276	29.8	13111	100
2025-3-27 20:22:20.452	WT901BLE68-01(48591DE3C19B)	-0.284	-0.836	0.235	-7.568	53.284	51.697	-74.47	27.86	-14.55	-54.096	-56.840	65.366	-0.79883	0.53555	-0.27353	0.01276	29.8	13111	100
2025-3-27 20:22:20.452	WT901BLE68-01(48591DE3C19B)	-0.284	-0.724	0.241	-7.446	58.777	50.415	-74.81	28.42	-15.20	-54.096	-56.840	65.366	-0.79883	0.53555	-0.27353	0.01276	29.8	13111	100
2025-3-27 20:22:20.541	WT901BLE68-01(48591DE3C19B)	-0.309	-0.724	0.241	-7.446	58.777	50.415	-75.15	28.97	-15.86	-54.096	-56.840	65.366	-0.79883	0.53555	-0.27353	0.01276	29.8	13111	100
2025-3-27 20:22:20.541	WT901BLE68-01(48591DE3C19B)	-0.309	-0.629	0.269	-9.644	47.058	49.133	-75.46	29.48	-16.39	-54.096	-56.840	65.366	-0.79883	0.53555	-0.27353	0.01276	29.8	13111	100
2025-3-27 20:22:20.541	WT901BLE68-01(48591DE3C19B)	-0.296	-0.629	0.269	-9.644	47.058	49.133	-75.77	29.99	-16.93	-54.096	-56.840	65.366	-0.79883	0.53555	-0.27353	0.01276	29.8	13111	100
2025-3-27 20:22:20.542	WT901BLE68-01(48591DE3C19B)	-0.302	-0.600	0.266	-13.123	24.109	46.753	-75.98	30.42	-17.22	-54.096	-56.840	65.366	-0.79883	0.53555	-0.27353	0.01276	29.8	13111	100
2025-3-27 20:22:20.542	WT901BLE68-01(48591DE3C19B)	-0.302	-0.645	0.230	-15.442	-1.160	40.955	-76.14	30.78	-17.38	-54.096	-56.840	65.366	-0.79883	0.53555	-0.27353	0.01276	29.8	13111	100
2025-3-27 20:22:20.542	WT901BLE68-01(48591DE3C19B)	-0.310	-0.645	0.230	-15.442	-1.160	40.955	-76.23	31.09	-17.40	-54.096	-56.840	65.366	-0.79883	0.53555	-0.27353	0.01276	29.8	13111	100
2025-3-27 20:22:20.542	WT901BLE68-01(48591DE3C19B)	-0.310	-0.731	0.180	-15.320	-27.771	35.583	-76.26	31.34	-17.29	-54.096	-56.840	65.366	-0.79883	0.53555	-0.27353	0.01276	29.8	13111	100
2025-3-27 20:22:20.542	WT901BLE68-01(48591DE3C19B)	-0.275	-0.731	0.180	-15.320	-27.771	35.583	-76.20	31.54	-17.02	-54.096	-56.840	65.366	-0.77371	0.55551	-0.29938	-0.05505	29.8	13111	100
2025-3-27 20:22:20.570	WT901BLE68-01(48591DE3C19B)	-0.275	-0.794	0.140	-11.841	-48.889	28.748	-76.07	31.67	-16.65	-54.096	-56.840	65.366	-0.77371	0.55551	-0.29938	-0.05505	29.8	13111	100
2025-3-27 20:22:20.570	WT901BLE68-01(48591DE3C19B)	-0.220	-0.794	0.140	-11.841	-48.889	28.748	-75.87	31.76	-16.17	-54.096	-56.840	65.366	-0.77371	0.55551	-0.29938	-0.05505	29.8	13111	100
2025-3-27 20:22:20.570	WT901BLE68-01(48591DE3C19B)	-0.220	-0.837	0.127	-6.775	-48.950	21.851	-75.64	31.80	-15.69	-54.096	-56.840	65.366	-0.77371	0.55551	-0.29938	-0.05505	29.8	13111	100
2025-3-27 20:22:20.570	WT901BLE68-01(48591DE3C19B)	-0.198	-0.837	0.127	-6.775	-48.950	21.851	-75.41	31.81	-15.24	-54.096	-56.840	65.366	-0.77371	0.55551	-0.29938	-0.05505	29.8	13111	100
