time	DeviceName	AccX(g)	AccY(g)	AccZ(g)	AsX(°/s)	AsY(°/s)	AsZ(°/s)	AngleX(°)	AngleY(°)	AngleZ(°)	HX(uT)	HY(uT)	HZ(uT)	Q0()	Q1()	Q2()	Q3()	Temperature(°C)	Version()	Battery level(%)
2025-3-27 20:27:22.861	WT901BLE68-01(48591DE3C19B)	-0.388	-0.888	0.252	1.404	2.686	-0.977	-75.38	22.60	-68.84	-67.326	-54.586	24.794	-0.71286	0.41187	-0.46442	0.32620	30.2	13111	100
2025-3-27 20:27:22.861	WT901BLE68-01(48591DE3C19B)	-0.391	-0.888	0.252	1.404	2.686	-0.977	-75.37	22.60	-68.92	-67.326	-54.586	24.794	-0.71286	0.41187	-0.46442	0.32620	30.2	13111	100
2025-3-27 20:27:22.861	WT901BLE68-01(48591DE3C19B)	-0.391	-0.896	0.251	1.526	2.869	-0.732	-75.36	22.60	-69.01	-67.326	-54.586	24.794	-0.71286	0.41187	-0.46442	0.32620	30.2	13111	100
2025-3-27 20:27:22.861	WT901BLE68-01(48591DE3C19B)	-0.391	-0.898	0.253	1.770	2.319	-0.549	-75.34	22.60	-69.09	-67.326	-54.586	24.794	-0.71286	0.41187	-0.46442	0.32620	30.2	13111	100
2025-3-27 20:27:22.917	WT901BLE68-01(48591DE3C19B)	-0.388	-0.898	0.253	1.770	2.319	-0.549	-75.32	22.60	-69.16	-67.326	-54.586	24.794	-0.71286	0.41187	-0.46442	0.32620	30.2	13111	100
2025-3-27 20:27:22.917	WT901BLE68-01(48591DE3C19B)	-0.388	-0.892	0.254	1.770	1.343	-0.305	-75.31	22.60	-69.23	-67.326	-54.586	24.794	-0.71286	0.41187	-0.46442	0.32620	30.2	13111	100
2025-3-27 20:27:22.917	WT901BLE68-01(48591DE3C19B)	-0.383	-0.892	0.254	1.770	1.343	-0.305	-75.29	22.60	-69.29	-67.326	-54.586	24.794	-0.71286	0.41187	-0.46442	0.32620	30.2	13111	100
2025-3-27 20:27:22.917	WT901BLE68-01(48591DE3C19B)	-0.383	-0.888	0.252	1.953	1.221	0.000	-75.27	22.60	-69.35	-67.326	-54.586	24.794	-0.71286	0.41187	-0.46442	0.32620	30.2	13111	100
2025-3-27 20:27:22.918	WT901BLE68-01(48591DE3C19B)	-0.377	-0.888	0.252	1.953	1.221	0.000	-75.25	22.60	-69.41	-67.326	-54.586	24.794	-0.71286	0.41187	-0.46442	0.32620	30.2	13111	100
2025-3-27 20:27:22.918	WT901BLE68-01(48591DE3C19B)	-0.377	-0.885	0.253	2.380	1.282	0.610	-75.22	22.61	-69.47	-67.326	-54.586	24.794	-0.71286	0.41187	-0.46442	0.32620	30.2	13111	100
2025-3-27 20:27:22.918	WT901BLE68-01(48591DE3C19B)	-0.371	-0.885	0.253	2.380	1.282	0.610	-75.20	22.62	-69.53	-67.326	-54.586	24.794	-0.71286	0.41187	-0.46442	0.32620	30.2	13111	100
2025-3-27 20:27:22.918	WT901BLE68-01(48591DE3C19B)	-0.371	-0.885	0.255	2.625	2.075	1.709	-75.17	22.64	-69.59	-67.326	-54.586	24.794	-0.71286	0.41187	-0.46442	0.32620	30.2	13111	100
2025-3-27 20:27:22.974	WT901BLE68-01(48591DE3C19B)	-0.367	-0.885	0.255	2.625	2.075	1.709	-75.14	22.65	-69.65	-67.326	-54.586	24.794	-0.71286	0.41187	-0.46442	0.32620	30.2	13111	100
2025-3-27 20:27:22.974	WT901BLE68-01(48591DE3C19B)	-0.367	-0.880	0.253	3.296	3.113	2.991	-75.11	22.68	-69.72	-67.326	-54.586	24.794	-0.71286	0.41187	-0.46442	0.32620	30.2	13111	100
2025-3-27 20:27:22.974	WT901BLE68-01(48591DE3C19B)	-0.362	-0.880	0.253	3.296	3.113	2.991	-75.09	22.72	-69.79	-67.326	-54.586	24.794	-0.71286	0.41187	-0.46442	0.32620	30.2	13111	100
2025-3-27 20:27:22.974	WT901BLE68-01(48591DE3C19B)	-0.362	-0.865	0.249	3.662	3.479	4.700	-75.05	22.76	-69.86	-67.326	-54.586	24.794	-0.71286	0.41187	-0.46442	0.32620	30.2	13111	100
2025-3-27 20:27:23.6	WT901BLE68-01(48591DE3C19B)	-0.361	-0.865	0.249	3.662	3.479	4.700	-75.02	22.81	-69.93	-67.326	-54.586	24.794	-0.70621	0.39883	-0.47079	0.34705	30.2	13111	100
2025-3-27 20:27:23.7	WT901BLE68-01(48591DE3C19B)	-0.361	-0.861	0.245	2.991	2.319	6.104	-74.99	22.87	-69.99	-67.326	-54.586	24.794	-0.70621	0.39883	-0.47079	0.34705	30.2	13111	100
2025-3-27 20:27:23.7	WT901BLE68-01(48591DE3C19B)	-0.366	-0.861	0.245	2.991	2.319	6.104	-74.95	22.93	-70.04	-67.326	-54.586	24.794	-0.70621	0.39883	-0.47079	0.34705	30.2	13111	100
2025-3-27 20:27:23.7	WT901BLE68-01(48591DE3C19B)	-0.366	-0.868	0.245	2.197	-0.244	7.141	-74.92	22.99	-70.08	-67.326	-54.586	24.794	-0.70621	0.39883	-0.47079	0.34705	30.2	13111	100
2025-3-27 20:27:23.35	WT901BLE68-01(48591DE3C19B)	-0.365	-0.868	0.245	2.197	-0.244	7.141	-74.88	23.05	-70.10	-67.326	-54.586	24.794	-0.70621	0.39883	-0.47079	0.34705	30.2	13111	100
2025-3-27 20:27:23.35	WT901BLE68-01(48591DE3C19B)	-0.365	-0.891	0.245	0.732	-4.150	7.507	-74.84	23.11	-70.10	-67.326	-54.586	24.794	-0.70621	0.39883	-0.47079	0.34705	30.2	13111	100
2025-3-27 20:27:23.35	WT901BLE68-01(48591DE3C19B)	-0.356	-0.891	0.245	0.732	-4.150	7.507	-74.81	23.17	-70.08	-67.326	-54.586	24.794	-0.70621	0.39883	-0.47079	0.34705	30.2	13111	100
2025-3-27 20:27:23.36	WT901BLE68-01(48591DE3C19B)	-0.356	-0.915	0.240	-0.854	-7.202	7.690	-74.77	23.22	-70.04	-67.326	-54.586	24.794	-0.70621	0.39883	-0.47079	0.34705	30.2	13111	100
2025-3-27 20:27:23.94	WT901BLE68-01(48591DE3C19B)	-0.354	-0.915	0.240	-0.854	-7.202	7.690	-74.75	23.26	-69.98	-67.326	-54.586	24.794	-0.70621	0.39883	-0.47079	0.34705	30.2	13111	100
2025-3-27 20:27:23.94	WT901BLE68-01(48591DE3C19B)	-0.354	-0.921	0.236	-1.953	-8.789	7.629	-74.71	23.31	-69.92	-67.326	-54.586	24.794	-0.70621	0.39883	-0.47079	0.34705	30.2	13111	100
2025-3-27 20:27:23.94	WT901BLE68-01(48591DE3C19B)	-0.348	-0.921	0.236	-1.953	-8.789	7.629	-74.69	23.35	-69.85	-67.326	-54.586	24.794	-0.70621	0.39883	-0.47079	0.34705	30.2	13111	100
2025-3-27 20:27:23.94	WT901BLE68-01(48591DE3C19B)	-0.348	-0.913	0.233	-4.028	-10.742	7.080	-74.67	23.38	-69.76	-67.326	-54.586	24.794	-0.70621	0.39883	-0.47079	0.34705	30.2	13111	100
2025-3-27 20:27:23.124	WT901BLE68-01(48591DE3C19B)	-0.342	-0.913	0.233	-4.028	-10.742	7.080	-74.66	23.41	-69.68	-67.326	-54.586	24.794	-0.70621	0.39883	-0.47079	0.34705	30.2	13111	100
2025-3-27 20:27:23.124	WT901BLE68-01(48591DE3C19B)	-0.342	-0.899	0.231	-7.080	-12.329	5.371	-74.66	23.43	-69.58	-67.326	-54.586	24.794	-0.70621	0.39883	-0.47079	0.34705	30.2	13111	100
2025-3-27 20:27:23.124	WT901BLE68-01(48591DE3C19B)	-0.349	-0.899	0.231	-7.080	-12.329	5.371	-74.67	23.43	-69.47	-67.326	-54.586	24.794	-0.70621	0.39883	-0.47079	0.34705	30.2	13111	100
2025-3-27 20:27:23.124	WT901BLE68-01(48591DE3C19B)	-0.349	-0.907	0.232	-10.681	-14.587	1.831	-74.71	23.42	-69.37	-67.326	-54.586	24.794	-0.70621	0.39883	-0.47079	0.34705	30.2	13111	100
2025-3-27 20:27:23.165	WT901BLE68-01(48591DE3C19B)	-0.358	-0.907	0.232	-10.681	-14.587	1.831	-74.75	23.38	-69.25	-67.326	-54.586	24.794	-0.70621	0.39883	-0.47079	0.34705	30.2	13111	100
2025-3-27 20:27:23.166	WT901BLE68-01(48591DE3C19B)	-0.358	-0.913	0.241	-14.404	-18.982	-3.906	-74.81	23.32	-69.13	-67.326	-54.586	24.794	-0.70621	0.39883	-0.47079	0.34705	30.2	13111	100
2025-3-27 20:27:23.166	WT901BLE68-01(48591DE3C19B)	-0.366	-0.913	0.241	-14.404	-18.982	-3.906	-74.88	23.21	-68.98	-67.326	-54.586	24.794	-0.70621	0.39883	-0.47079	0.34705	30.2	13111	100
2025-3-27 20:27:23.166	WT901BLE68-01(48591DE3C19B)	-0.366	-0.916	0.257	-17.029	-24.902	-11.292	-74.96	23.07	-68.82	-67.326	-54.586	24.794	-0.70621	0.39883	-0.47079	0.34705	30.2	13111	100
2025-3-27 20:27:23.215	WT901BLE68-01(48591DE3C19B)	-0.364	-0.916	0.257	-17.029	-24.902	-11.292	-75.04	22.88	-68.64	-67.326	-54.586	24.794	-0.70621	0.39883	-0.47079	0.34705	30.2	13111	100
2025-3-27 20:27:23.216	WT901BLE68-01(48591DE3C19B)	-0.364	-0.888	0.265	-18.921	-31.067	-18.494	-75.12	22.66	-68.44	-67.816	-54.488	24.892	-0.70621	0.39883	-0.47079	0.34705	30.2	13111	100
2025-3-27 20:27:23.216	WT901BLE68-01(48591DE3C19B)	-0.352	-0.888	0.265	-18.921	-31.067	-18.494	-75.21	22.39	-68.21	-67.816	-54.488	24.892	-0.70621	0.39883	-0.47079	0.34705	30.2	13111	100
2025-3-27 20:27:23.216	WT901BLE68-01(48591DE3C19B)	-0.352	-0.875	0.262	-19.531	-32.776	-24.963	-75.29	22.09	-67.99	-67.816	-54.488	24.892	-0.70621	0.39883	-0.47079	0.34705	30.2	13111	100
2025-3-27 20:27:23.244	WT901BLE68-01(48591DE3C19B)	-0.326	-0.875	0.262	-19.531	-32.776	-24.963	-75.38	21.76	-67.78	-67.816	-54.488	24.892	-0.70621	0.39883	-0.47079	0.34705	30.2	13111	100
2025-3-27 20:27:23.244	WT901BLE68-01(48591DE3C19B)	-0.326	-0.854	0.264	-17.944	-29.663	-29.846	-75.47	21.42	-67.59	-67.816	-54.488	24.892	-0.70621	0.39883	-0.47079	0.34705	30.2	13111	100
2025-3-27 20:27:23.244	WT901BLE68-01(48591DE3C19B)	-0.313	-0.854	0.264	-17.944	-29.663	-29.846	-75.56	21.05	-67.42	-67.816	-54.488	24.892	-0.70621	0.39883	-0.47079	0.34705	30.2	13111	100
2025-3-27 20:27:23.244	WT901BLE68-01(48591DE3C19B)	-0.313	-0.841	0.266	-15.015	-21.484	-33.691	-75.65	20.68	-67.31	-67.816	-54.488	24.892	-0.70621	0.39883	-0.47079	0.34705	30.2	13111	100
2025-3-27 20:27:23.279	WT901BLE68-01(48591DE3C19B)	-0.315	-0.841	0.266	-15.015	-21.484	-33.691	-75.74	20.30	-67.24	-67.816	-54.488	24.892	-0.70621	0.39883	-0.47079	0.34705	30.2	13111	100
2025-3-27 20:27:23.280	WT901BLE68-01(48591DE3C19B)	-0.315	-0.846	0.263	-11.536	-11.353	-37.292	-75.84	19.92	-67.23	-67.816	-54.488	24.892	-0.70621	0.39883	-0.47079	0.34705	30.2	13111	100
2025-3-27 20:27:23.280	WT901BLE68-01(48591DE3C19B)	-0.325	-0.846	0.263	-11.536	-11.353	-37.292	-75.93	19.53	-67.28	-67.816	-54.488	24.892	-0.70621	0.39883	-0.47079	0.34705	30.2	13111	100
2025-3-27 20:27:23.280	WT901BLE68-01(48591DE3C19B)	-0.325	-0.856	0.266	-7.629	-0.610	-40.710	-76.03	19.15	-67.39	-67.816	-54.488	24.892	-0.70621	0.39883	-0.47079	0.34705	30.2	13111	100
2025-3-27 20:27:23.335	WT901BLE68-01(48591DE3C19B)	-0.352	-0.856	0.266	-7.629	-0.610	-40.710	-76.11	18.76	-67.56	-67.816	-54.488	24.892	-0.70621	0.39883	-0.47079	0.34705	30.2	13111	100
2025-3-27 20:27:23.336	WT901BLE68-01(48591DE3C19B)	-0.352	-0.855	0.273	-3.845	7.996	-43.091	-76.20	18.37	-67.82	-67.816	-54.488	24.892	-0.70621	0.39883	-0.47079	0.34705	30.2	13111	100
2025-3-27 20:27:23.336	WT901BLE68-01(48591DE3C19B)	-0.376	-0.855	0.273	-3.845	7.996	-43.091	-76.28	17.98	-68.08	-67.816	-54.488	24.892	-0.70621	0.39883	-0.47079	0.34705	30.2	13111	100
2025-3-27 20:27:23.336	WT901BLE68-01(48591DE3C19B)	-0.376	-0.837	0.285	-1.709	13.000	-44.312	-76.34	17.60	-68.39	-67.816	-54.488	24.892	-0.70621	0.39883	-0.47079	0.34705	30.2	13111	100
2025-3-27 20:27:23.367	WT901BLE68-01(48591DE3C19B)	-0.394	-0.837	0.285	-1.709	13.000	-44.312	-76.41	17.22	-68.70	-67.816	-54.488	24.892	-0.70621	0.39883	-0.47079	0.34705	30.2	13111	100
2025-3-27 20:27:23.367	WT901BLE68-01(48591DE3C19B)	-0.394	-0.819	0.295	-1.160	15.015	-44.006	-76.48	16.85	-69.03	-67.816	-54.488	24.892	-0.70621	0.39883	-0.47079	0.34705	30.2	13111	100
2025-3-27 20:27:23.367	WT901BLE68-01(48591DE3C19B)	-0.407	-0.819	0.295	-1.160	15.015	-44.006	-76.54	16.48	-69.36	-67.816	-54.488	24.892	-0.70621	0.39883	-0.47079	0.34705	30.2	13111	100
2025-3-27 20:27:23.367	WT901BLE68-01(48591DE3C19B)	-0.407	-0.807	0.292	-1.831	15.259	-42.603	-76.60	16.14	-69.68	-67.816	-54.488	24.892	-0.70621	0.39883	-0.47079	0.34705	30.2	13111	100
2025-3-27 20:27:23.397	WT901BLE68-01(48591DE3C19B)	-0.424	-0.807	0.292	-1.831	15.259	-42.603	-76.65	15.79	-70.00	-67.816	-54.488	24.892	-0.70621	0.39883	-0.47079	0.34705	30.2	13111	100
2025-3-27 20:27:23.397	WT901BLE68-01(48591DE3C19B)	-0.424	-0.807	0.291	-3.174	13.855	-40.283	-76.72	15.47	-70.31	-67.816	-54.488	24.892	-0.70621	0.39883	-0.47079	0.34705	30.2	13111	100
2025-3-27 20:27:23.397	WT901BLE68-01(48591DE3C19B)	-0.445	-0.807	0.291	-3.174	13.855	-40.283	-76.78	15.16	-70.61	-67.816	-54.488	24.892	-0.68137	0.44260	-0.44009	0.38214	30.2	13111	100
2025-3-27 20:27:23.397	WT901BLE68-01(48591DE3C19B)	-0.445	-0.807	0.299	-4.639	9.888	-37.476	-76.84	14.86	-70.86	-67.816	-54.488	24.892	-0.68137	0.44260	-0.44009	0.38214	30.2	13111	100
2025-3-27 20:27:23.454	WT901BLE68-01(48591DE3C19B)	-0.465	-0.807	0.299	-4.639	9.888	-37.476	-76.89	14.57	-71.11	-67.816	-54.488	24.892	-0.68137	0.44260	-0.44009	0.38214	30.2	13111	100
2025-3-27 20:27:23.454	WT901BLE68-01(48591DE3C19B)	-0.465	-0.815	0.307	-7.019	3.052	-33.997	-76.95	14.30	-71.28	-67.816	-54.488	24.892	-0.68137	0.44260	-0.44009	0.38214	30.2	13111	100
2025-3-27 20:27:23.455	WT901BLE68-01(48591DE3C19B)	-0.478	-0.815	0.307	-7.019	3.052	-33.997	-77.01	14.04	-71.46	-67.816	-54.488	24.892	-0.68137	0.44260	-0.44009	0.38214	30.2	13111	100
2025-3-27 20:27:23.455	WT901BLE68-01(48591DE3C19B)	-0.478	-0.840	0.311	-8.667	-4.150	-30.457	-77.06	13.79	-71.55	-67.816	-54.488	24.892	-0.68137	0.44260	-0.44009	0.38214	30.2	13111	100
2025-3-27 20:27:23.484	WT901BLE68-01(48591DE3C19B)	-0.476	-0.840	0.311	-8.667	-4.150	-30.457	-77.11	13.56	-71.65	-67.816	-54.488	24.892	-0.68137	0.44260	-0.44009	0.38214	30.2	13111	100
2025-3-27 20:27:23.485	WT901BLE68-01(48591DE3C19B)	-0.476	-0.845	0.316	-9.521	-10.315	-26.794	-77.15	13.34	-71.67	-67.816	-54.488	24.892	-0.68137	0.44260	-0.44009	0.38214	30.2	13111	100
2025-3-27 20:27:23.485	WT901BLE68-01(48591DE3C19B)	-0.468	-0.845	0.316	-9.521	-10.315	-26.794	-77.19	13.13	-71.70	-67.816	-54.488	24.892	-0.68137	0.44260	-0.44009	0.38214	30.2	13111	100
2025-3-27 20:27:23.485	WT901BLE68-01(48591DE3C19B)	-0.468	-0.843	0.323	-9.888	-14.343	-22.644	-77.22	12.95	-71.67	-67.816	-54.488	24.892	-0.68137	0.44260	-0.44009	0.38214	30.2	13111	100
2025-3-27 20:27:23.514	WT901BLE68-01(48591DE3C19B)	-0.448	-0.843	0.323	-9.888	-14.343	-22.644	-77.25	12.77	-71.65	-67.816	-54.488	24.892	-0.68137	0.44260	-0.44009	0.38214	30.2	13111	100
2025-3-27 20:27:23.514	WT901BLE68-01(48591DE3C19B)	-0.448	-0.811	0.324	-8.667	-14.587	-17.334	-77.26	12.65	-71.61	-67.816	-54.488	24.892	-0.68137	0.44260	-0.44009	0.38214	30.2	13111	100
2025-3-27 20:27:23.514	WT901BLE68-01(48591DE3C19B)	-0.419	-0.811	0.324	-8.667	-14.587	-17.334	-77.27	12.52	-71.58	-67.816	-54.488	24.892	-0.68137	0.44260	-0.44009	0.38214	30.2	13111	100
2025-3-27 20:27:23.515	WT901BLE68-01(48591DE3C19B)	-0.419	-0.766	0.319	-6.653	-11.841	-10.925	-77.27	12.47	-71.56	-67.816	-54.488	24.892	-0.68137	0.44260	-0.44009	0.38214	30.2	13111	100
2025-3-27 20:27:23.577	WT901BLE68-01(48591DE3C19B)	-0.396	-0.766	0.319	-6.653	-11.841	-10.925	-77.26	12.41	-71.55	-67.816	-54.488	24.892	-0.68137	0.44260	-0.44009	0.38214	30.2	13111	100
2025-3-27 20:27:23.577	WT901BLE68-01(48591DE3C19B)	-0.396	-0.731	0.295	-4.272	-5.737	-3.906	-77.23	12.44	-71.59	-67.816	-54.488	24.892	-0.68137	0.44260	-0.44009	0.38214	30.2	13111	100
2025-3-27 20:27:23.577	WT901BLE68-01(48591DE3C19B)	-0.388	-0.731	0.295	-4.272	-5.737	-3.906	-77.21	12.47	-71.62	-67.816	-54.488	24.892	-0.68137	0.44260	-0.44009	0.38214	30.2	13111	100
2025-3-27 20:27:23.578	WT901BLE68-01(48591DE3C19B)	-0.388	-0.709	0.264	-2.625	-0.366	1.526	-77.18	12.56	-71.69	-67.816	-54.488	24.892	-0.68137	0.44260	-0.44009	0.38214	30.2	13111	100
2025-3-27 20:27:23.604	WT901BLE68-01(48591DE3C19B)	-0.400	-0.709	0.264	-2.625	-0.366	1.526	-77.15	12.65	-71.77	-63.308	-55.076	23.912	-0.68137	0.44260	-0.44009	0.38214	30.2	13111	100
2025-3-27 20:27:23.604	WT901BLE68-01(48591DE3C19B)	-0.400	-0.725	0.253	-1.282	2.808	5.554	-77.11	12.79	-71.86	-63.308	-55.076	23.912	-0.68137	0.44260	-0.44009	0.38214	30.2	13111	100
2025-3-27 20:27:23.604	WT901BLE68-01(48591DE3C19B)	-0.412	-0.725	0.253	-1.282	2.808	5.554	-77.07	12.93	-71.95	-63.308	-55.076	23.912	-0.68137	0.44260	-0.44009	0.38214	30.2	13111	100
2025-3-27 20:27:23.604	WT901BLE68-01(48591DE3C19B)	-0.412	-0.726	0.248	0.977	2.869	8.972	-77.01	13.10	-72.03	-63.308	-55.076	23.912	-0.68137	0.44260	-0.44009	0.38214	30.2	13111	100
2025-3-27 20:27:23.634	WT901BLE68-01(48591DE3C19B)	-0.401	-0.726	0.248	0.977	2.869	8.972	-76.96	13.27	-72.11	-63.308	-55.076	23.912	-0.68137	0.44260	-0.44009	0.38214	30.2	13111	100
2025-3-27 20:27:23.634	WT901BLE68-01(48591DE3C19B)	-0.401	-0.708	0.233	2.014	2.258	12.268	-76.89	13.47	-72.17	-63.308	-55.076	23.912	-0.68137	0.44260	-0.44009	0.38214	30.2	13111	100
2025-3-27 20:27:23.634	WT901BLE68-01(48591DE3C19B)	-0.387	-0.708	0.233	2.014	2.258	12.268	-76.82	13.68	-72.24	-63.308	-55.076	23.912	-0.68137	0.44260	-0.44009	0.38214	30.2	13111	100
2025-3-27 20:27:23.634	WT901BLE68-01(48591DE3C19B)	-0.387	-0.709	0.216	2.502	4.089	15.137	-76.75	13.91	-72.31	-63.308	-55.076	23.912	-0.68137	0.44260	-0.44009	0.38214	30.2	13111	100
2025-3-27 20:27:23.694	WT901BLE68-01(48591DE3C19B)	-0.398	-0.709	0.216	2.502	4.089	15.137	-76.68	14.14	-72.37	-63.308	-55.076	23.912	-0.68137	0.44260	-0.44009	0.38214	30.2	13111	100
2025-3-27 20:27:23.695	WT901BLE68-01(48591DE3C19B)	-0.398	-0.730	0.208	2.808	7.019	17.151	-76.62	14.40	-72.45	-63.308	-55.076	23.912	-0.68137	0.44260	-0.44009	0.38214	30.2	13111	100
2025-3-27 20:27:23.695	WT901BLE68-01(48591DE3C19B)	-0.405	-0.730	0.208	2.808	7.019	17.151	-76.57	14.66	-72.54	-63.308	-55.076	23.912	-0.68137	0.44260	-0.44009	0.38214	30.2	13111	100
2025-3-27 20:27:23.695	WT901BLE68-01(48591DE3C19B)	-0.405	-0.765	0.218	2.869	10.071	18.616	-76.52	14.94	-72.64	-63.308	-55.076	23.912	-0.68137	0.44260	-0.44009	0.38214	30.2	13111	100
2025-3-27 20:27:23.723	WT901BLE68-01(48591DE3C19B)	-0.399	-0.765	0.218	2.869	10.071	18.616	-76.47	15.21	-72.74	-63.308	-55.076	23.912	-0.68137	0.44260	-0.44009	0.38214	30.2	13111	100
2025-3-27 20:27:23.724	WT901BLE68-01(48591DE3C19B)	-0.399	-0.792	0.216	3.967	15.381	20.874	-76.43	15.52	-72.88	-63.308	-55.076	23.912	-0.68137	0.44260	-0.44009	0.38214	30.2	13111	100
2025-3-27 20:27:23.724	WT901BLE68-01(48591DE3C19B)	-0.377	-0.792	0.216	3.967	15.381	20.874	-76.39	15.83	-73.02	-63.308	-55.076	23.912	-0.68137	0.44260	-0.44009	0.38214	30.2	13111	100
2025-3-27 20:27:23.724	WT901BLE68-01(48591DE3C19B)	-0.377	-0.761	0.206	6.714	25.391	25.269	-76.35	16.19	-73.25	-63.308	-55.076	23.912	-0.68137	0.44260	-0.44009	0.38214	30.2	13111	100
2025-3-27 20:27:23.785	WT901BLE68-01(48591DE3C19B)	-0.374	-0.761	0.206	6.714	25.391	25.269	-76.32	16.56	-73.47	-63.308	-55.076	23.912	-0.68137	0.44260	-0.44009	0.38214	30.2	13111	100
2025-3-27 20:27:23.785	WT901BLE68-01(48591DE3C19B)	-0.374	-0.682	0.216	8.423	34.302	33.020	-76.29	17.02	-73.77	-63.308	-55.076	23.912	-0.68137	0.44260	-0.44009	0.38214	30.2	13111	100
2025-3-27 20:27:23.785	WT901BLE68-01(48591DE3C19B)	-0.378	-0.682	0.216	8.423	34.302	33.020	-76.26	17.48	-74.06	-63.308	-55.076	23.912	-0.68137	0.44260	-0.44009	0.38214	30.2	13111	100
2025-3-27 20:27:23.785	WT901BLE68-01(48591DE3C19B)	-0.374	-0.589	0.243	8.789	37.537	44.678	-76.23	18.06	-74.36	-63.308	-55.076	23.912	-0.68137	0.44260	-0.44009	0.38214	30.2	13111	100
2025-3-27 20:27:23.845	WT901BLE68-01(48591DE3C19B)	-0.374	-0.500	0.253	6.287	32.471	59.631	-76.20	18.70	-74.62	-63.308	-55.076	23.912	-0.67883	0.40445	-0.47278	0.38986	30.2	13111	100
2025-3-27 20:27:23.845	WT901BLE68-01(48591DE3C19B)	-0.391	-0.500	0.253	6.287	32.471	59.631	-76.16	19.41	-74.84	-63.308	-55.076	23.912	-0.67883	0.40445	-0.47278	0.38986	30.2	13111	100
2025-3-27 20:27:23.845	WT901BLE68-01(48591DE3C19B)	-0.391	-0.514	0.212	-4.578	15.747	75.684	-76.15	20.17	-74.96	-63.308	-55.076	23.912	-0.67883	0.40445	-0.47278	0.38986	30.2	13111	100
2025-3-27 20:27:23.845	WT901BLE68-01(48591DE3C19B)	-0.391	-0.514	0.212	-4.578	15.747	75.684	-76.15	20.99	-74.98	-63.308	-55.076	23.912	-0.67883	0.40445	-0.47278	0.38986	30.2	13111	100
2025-3-27 20:27:23.846	WT901BLE68-01(48591DE3C19B)	-0.391	-0.713	0.113	-22.339	-6.592	83.496	-76.18	21.82	-74.86	-63.308	-55.076	23.912	-0.67883	0.40445	-0.47278	0.38986	30.2	13111	100
2025-3-27 20:27:23.846	WT901BLE68-01(48591DE3C19B)	-0.431	-0.713	0.113	-22.339	-6.592	83.496	-76.27	22.66	-74.61	-63.308	-55.076	23.912	-0.67883	0.40445	-0.47278	0.38986	30.2	13111	100
2025-3-27 20:27:23.846	WT901BLE68-01(48591DE3C19B)	-0.431	-1.095	0.104	-31.799	-28.870	76.782	-76.37	23.43	-74.23	-63.308	-55.076	23.912	-0.67883	0.40445	-0.47278	0.38986	30.2	13111	100
2025-3-27 20:27:23.846	WT901BLE68-01(48591DE3C19B)	-0.533	-1.095	0.104	-31.799	-28.870	76.782	-76.47	24.13	-73.75	-63.308	-55.076	23.912	-0.67883	0.40445	-0.47278	0.38986	30.2	13111	100
2025-3-27 20:27:23.905	WT901BLE68-01(48591DE3C19B)	-2.132	-1.464	0.200	-26.428	-53.528	63.599	-76.50	24.74	-73.13	-63.308	-55.076	23.912	-0.67883	0.40445	-0.47278	0.38986	30.2	13111	100
2025-3-27 20:27:23.905	WT901BLE68-01(48591DE3C19B)	-0.466	-5.859	0.802	-26.428	-53.528	63.599	-76.46	25.22	-72.39	-63.308	-55.076	23.912	-0.67883	0.40445	-0.47278	0.38986	30.2	13111	100
2025-3-27 20:27:23.905	WT901BLE68-01(48591DE3C19B)	-0.466	-1.711	0.218	-15.076	-72.876	46.936	-76.34	25.60	-71.56	-63.308	-55.076	23.912	-0.67883	0.40445	-0.47278	0.38986	30.2	13111	100
2025-3-27 20:27:23.905	WT901BLE68-01(48591DE3C19B)	-0.341	-1.711	0.218	-15.076	-72.876	46.936	-76.12	25.86	-70.66	-63.308	-55.076	23.912	-0.67883	0.40445	-0.47278	0.38986	30.2	13111	100
2025-3-27 20:27:23.966	WT901BLE68-01(48591DE3C19B)	-0.341	-1.674	0.202	3.113	-58.105	34.180	-75.85	26.06	-69.87	-63.308	-55.076	23.912	-0.67883	0.40445	-0.47278	0.38986	30.2	13111	100
2025-3-27 20:27:23.967	WT901BLE68-01(48591DE3C19B)	-0.378	-1.674	0.202	3.113	-58.105	34.180	-75.53	26.21	-69.17	-63.308	-55.076	23.912	-0.67883	0.40445	-0.47278	0.38986	30.2	13111	100
2025-3-27 20:27:23.967	WT901BLE68-01(48591DE3C19B)	-0.378	-1.514	0.178	13.062	-29.053	30.457	-75.24	26.38	-68.64	-63.308	-55.076	23.912	-0.67883	0.40445	-0.47278	0.38986	30.2	13111	100
2025-3-27 20:27:23.967	WT901BLE68-01(48591DE3C19B)	-0.360	-1.514	0.178	13.062	-29.053	30.457	-74.97	26.55	-68.27	-63.308	-55.076	23.912	-0.67883	0.40445	-0.47278	0.38986	30.2	13111	100
2025-3-27 20:27:23.967	WT901BLE68-01(48591DE3C19B)	-0.360	-1.392	0.152	15.320	-5.493	29.541	-74.75	26.75	-68.03	-63.308	-55.076	23.912	-0.67883	0.40445	-0.47278	0.38986	30.2	13111	100
2025-3-27 20:27:23.967	WT901BLE68-01(48591DE3C19B)	-0.247	-1.392	0.152	15.320	-5.493	29.541	-74.57	26.97	-67.92	-63.308	-55.076	23.912	-0.67883	0.40445	-0.47278	0.38986	30.2	13111	100
2025-3-27 20:27:23.967	WT901BLE68-01(48591DE3C19B)	-0.247	-1.263	0.145	11.902	15.198	30.029	-74.47	27.22	-67.92	-63.308	-55.076	23.912	-0.67883	0.40445	-0.47278	0.38986	30.2	13111	100
2025-3-27 20:27:23.967	WT901BLE68-01(48591DE3C19B)	-0.141	-1.263	0.145	11.902	15.198	30.029	-74.43	27.49	-68.03	-63.308	-55.076	23.912	-0.67883	0.40445	-0.47278	0.38986	30.2	13111	100
2025-3-27 20:27:24.62	WT901BLE68-01(48591DE3C19B)	-0.141	-1.131	0.144	6.104	33.447	33.081	-74.47	27.80	-68.24	-63.308	-55.076	23.912	-0.67883	0.40445	-0.47278	0.38986	30.2	13111	100
2025-3-27 20:27:24.62	WT901BLE68-01(48591DE3C19B)	-0.073	-1.131	0.144	6.104	33.447	33.081	-74.59	28.14	-68.55	-67.424	-54.194	21.658	-0.67883	0.40445	-0.47278	0.38986	30.2	13111	100
2025-3-27 20:27:24.62	WT901BLE68-01(48591DE3C19B)	-0.073	-1.004	0.114	-3.845	45.288	26.550	-74.79	28.45	-68.93	-67.424	-54.194	21.658	-0.67883	0.40445	-0.47278	0.38986	30.2	13111	100
2025-3-27 20:27:24.62	WT901BLE68-01(48591DE3C19B)	-0.066	-1.004	0.114	-3.845	45.288	26.550	-75.08	28.74	-69.39	-67.424	-54.194	21.658	-0.67883	0.40445	-0.47278	0.38986	30.2	13111	100
2025-3-27 20:27:24.63	WT901BLE68-01(48591DE3C19B)	-0.066	-0.843	0.092	-7.690	53.040	14.343	-75.42	28.98	-69.91	-67.424	-54.194	21.658	-0.67883	0.40445	-0.47278	0.38986	30.2	13111	100
2025-3-27 20:27:24.63	WT901BLE68-01(48591DE3C19B)	-0.115	-0.843	0.092	-7.690	53.040	14.343	-75.81	29.16	-70.49	-67.424	-54.194	21.658	-0.67883	0.40445	-0.47278	0.38986	30.2	13111	100
2025-3-27 20:27:24.63	WT901BLE68-01(48591DE3C19B)	-0.115	-0.715	0.067	-14.343	48.340	4.333	-76.22	29.27	-71.07	-67.424	-54.194	21.658	-0.67883	0.40445	-0.47278	0.38986	30.2	13111	100
2025-3-27 20:27:24.63	WT901BLE68-01(48591DE3C19B)	-0.184	-0.715	0.067	-14.343	48.340	4.333	-76.67	29.33	-71.63	-67.424	-54.194	21.658	-0.67883	0.40445	-0.47278	0.38986	30.2	13111	100
2025-3-27 20:27:24.87	WT901BLE68-01(48591DE3C19B)	-0.184	-0.688	0.065	-19.714	29.480	-3.723	-77.09	29.32	-72.09	-67.424	-54.194	21.658	-0.67883	0.40445	-0.47278	0.38986	30.2	13111	100
2025-3-27 20:27:24.87	WT901BLE68-01(48591DE3C19B)	-0.239	-0.688	0.065	-19.714	29.480	-3.723	-77.50	29.25	-72.45	-67.424	-54.194	21.658	-0.67883	0.40445	-0.47278	0.38986	30.2	13111	100
2025-3-27 20:27:24.87	WT901BLE68-01(48591DE3C19B)	-0.239	-0.671	0.100	-18.494	6.287	-10.864	-77.83	29.12	-72.69	-67.424	-54.194	21.658	-0.67883	0.40445	-0.47278	0.38986	30.2	13111	100
2025-3-27 20:27:24.87	WT901BLE68-01(48591DE3C19B)	-0.264	-0.671	0.100	-18.494	6.287	-10.864	-78.09	28.94	-72.81	-67.424	-54.194	21.658	-0.67883	0.40445	-0.47278	0.38986	30.2	13111	100
2025-3-27 20:27:24.144	WT901BLE68-01(48591DE3C19B)	-0.264	-0.639	0.139	-15.686	-17.883	-12.085	-78.28	28.72	-72.80	-67.424	-54.194	21.658	-0.67883	0.40445	-0.47278	0.38986	30.2	13111	100
2025-3-27 20:27:24.145	WT901BLE68-01(48591DE3C19B)	-0.219	-0.639	0.139	-15.686	-17.883	-12.085	-78.38	28.48	-72.65	-67.424	-54.194	21.658	-0.67883	0.40445	-0.47278	0.38986	30.2	13111	100
2025-3-27 20:27:24.145	WT901BLE68-01(48591DE3C19B)	-0.219	-0.603	0.159	-13.000	-45.105	-12.085	-78.39	28.22	-72.36	-67.424	-54.194	21.658	-0.67883	0.40445	-0.47278	0.38986	30.2	13111	100
2025-3-27 20:27:24.145	WT901BLE68-01(48591DE3C19B)	-0.157	-0.603	0.159	-13.000	-45.105	-12.085	-78.33	27.94	-71.91	-67.424	-54.194	21.658	-0.67883	0.40445	-0.47278	0.38986	30.2	13111	100
2025-3-27 20:27:24.176	WT901BLE68-01(48591DE3C19B)	-0.157	-0.530	0.182	-8.362	-64.026	-11.169	-78.18	27.64	-71.37	-67.424	-54.194	21.658	-0.67883	0.40445	-0.47278	0.38986	30.2	13111	100
2025-3-27 20:27:24.176	WT901BLE68-01(48591DE3C19B)	-0.123	-0.530	0.182	-8.362	-64.026	-11.169	-77.98	27.33	-70.74	-67.424	-54.194	21.658	-0.67883	0.40445	-0.47278	0.38986	30.2	13111	100
2025-3-27 20:27:24.177	WT901BLE68-01(48591DE3C19B)	-0.123	-0.437	0.217	-2.930	-72.144	-8.057	-77.72	27.02	-70.07	-67.424	-54.194	21.658	-0.67883	0.40445	-0.47278	0.38986	30.2	13111	100
2025-3-27 20:27:24.177	WT901BLE68-01(48591DE3C19B)	-0.147	-0.437	0.217	-2.930	-72.144	-8.057	-77.42	26.72	-69.37	-67.424	-54.194	21.658	-0.67883	0.40445	-0.47278	0.38986	30.2	13111	100
2025-3-27 20:27:24.207	WT901BLE68-01(48591DE3C19B)	-0.147	-0.396	0.235	-2.136	-70.374	-4.822	-77.11	26.43	-68.69	-67.424	-54.194	21.658	-0.67883	0.40445	-0.47278	0.38986	30.2	13111	100
2025-3-27 20:27:24.207	WT901BLE68-01(48591DE3C19B)	-0.194	-0.396	0.235	-2.136	-70.374	-4.822	-76.81	26.16	-68.02	-67.424	-54.194	21.658	-0.67883	0.40445	-0.47278	0.38986	30.2	13111	100
2025-3-27 20:27:24.207	WT901BLE68-01(48591DE3C19B)	-0.194	-0.526	0.206	-6.653	-61.218	-5.493	-76.54	25.90	-67.42	-67.424	-54.194	21.658	-0.71436	0.40555	-0.47949	0.30856	30.2	13111	100
2025-3-27 20:27:24.207	WT901BLE68-01(48591DE3C19B)	-0.239	-0.526	0.206	-6.653	-61.218	-5.493	-76.33	25.64	-66.88	-67.424	-54.194	21.658	-0.71436	0.40555	-0.47949	0.30856	30.2	13111	100
2025-3-27 20:27:24.265	WT901BLE68-01(48591DE3C19B)	-0.239	-0.725	0.162	-9.033	-42.725	-15.747	-76.18	25.36	-66.46	-67.424	-54.194	21.658	-0.71436	0.40555	-0.47949	0.30856	30.2	13111	100
2025-3-27 20:27:24.265	WT901BLE68-01(48591DE3C19B)	-0.353	-0.725	0.162	-9.033	-42.725	-15.747	-76.10	25.05	-66.16	-67.424	-54.194	21.658	-0.71436	0.40555	-0.47949	0.30856	30.2	13111	100
2025-3-27 20:27:24.265	WT901BLE68-01(48591DE3C19B)	-0.353	-0.977	0.179	-7.202	-16.357	-44.861	-76.15	24.53	-66.21	-67.424	-54.194	21.658	-0.71436	0.40555	-0.47949	0.30856	30.2	13111	100
2025-3-27 20:27:24.265	WT901BLE68-01(48591DE3C19B)	-0.553	-0.977	0.179	-7.202	-16.357	-44.861	-76.20	24.02	-66.26	-67.424	-54.194	21.658	-0.71436	0.40555	-0.47949	0.30856	30.2	13111	100
2025-3-27 20:27:24.294	WT901BLE68-01(48591DE3C19B)	-0.553	-1.154	0.258	-2.808	-4.944	-81.909	-76.30	23.18	-66.52	-67.424	-54.194	21.658	-0.71436	0.40555	-0.47949	0.30856	30.2	13111	100
2025-3-27 20:27:24.294	WT901BLE68-01(48591DE3C19B)	-0.747	-1.154	0.258	-2.808	-4.944	-81.909	-76.39	22.35	-66.77	-67.424	-54.194	21.658	-0.71436	0.40555	-0.47949	0.30856	30.2	13111	100
2025-3-27 20:27:24.294	WT901BLE68-01(48591DE3C19B)	-0.747	-1.322	0.347	-5.493	-8.179	-114.624	-76.53	21.21	-67.07	-67.424	-54.194	21.658	-0.71436	0.40555	-0.47949	0.30856	30.2	13111	100
2025-3-27 20:27:24.294	WT901BLE68-01(48591DE3C19B)	-0.917	-1.322	0.347	-5.493	-8.179	-114.624	-76.65	20.09	-67.36	-67.424	-54.194	21.658	-0.71436	0.40555	-0.47949	0.30856	30.2	13111	100
2025-3-27 20:27:24.325	WT901BLE68-01(48591DE3C19B)	-0.917	-1.487	0.404	-10.010	7.813	-124.756	-76.87	18.91	-67.84	-67.424	-54.194	21.658	-0.71436	0.40555	-0.47949	0.30856	30.2	13111	100
2025-3-27 20:27:24.325	WT901BLE68-01(48591DE3C19B)	-0.812	-1.487	0.404	-10.010	7.813	-124.756	-77.07	17.75	-68.30	-67.424	-54.194	21.658	-0.71436	0.40555	-0.47949	0.30856	30.2	13111	100
2025-3-27 20:27:24.325	WT901BLE68-01(48591DE3C19B)	-0.812	-1.391	0.327	2.380	55.298	-116.760	-77.28	16.78	-69.22	-67.424	-54.194	21.658	-0.71436	0.40555	-0.47949	0.30856	30.2	13111	100
2025-3-27 20:27:24.325	WT901BLE68-01(48591DE3C19B)	-0.717	-1.391	0.327	2.380	55.298	-116.760	-77.48	15.82	-70.13	-67.424	-54.194	21.658	-0.71436	0.40555	-0.47949	0.30856	30.2	13111	100
2025-3-27 20:27:24.385	WT901BLE68-01(48591DE3C19B)	-0.717	-1.184	0.243	1.709	98.206	-102.844	-77.77	15.09	-71.42	-67.424	-54.194	21.658	-0.71436	0.40555	-0.47949	0.30856	30.2	13111	100
2025-3-27 20:27:24.385	WT901BLE68-01(48591DE3C19B)	-0.734	-1.184	0.243	1.709	98.206	-102.844	-78.05	14.36	-72.69	-67.424	-54.194	21.658	-0.71436	0.40555	-0.47949	0.30856	30.2	13111	100
2025-3-27 20:27:24.385	WT901BLE68-01(48591DE3C19B)	-0.734	-1.046	0.222	5.615	88.745	-78.308	-78.23	13.86	-73.80	-67.424	-54.194	21.658	-0.71436	0.40555	-0.47949	0.30856	30.2	13111	100
2025-3-27 20:27:24.385	WT901BLE68-01(48591DE3C19B)	-0.765	-1.046	0.222	5.615	88.745	-78.308	-78.41	13.36	-74.89	-67.424	-54.194	21.658	-0.71436	0.40555	-0.47949	0.30856	30.2	13111	100
2025-3-27 20:27:24.417	WT901BLE68-01(48591DE3C19B)	-0.765	-0.948	0.216	-2.808	27.649	-53.223	-78.51	12.99	-75.31	-61.936	-52.626	16.954	-0.71436	0.40555	-0.47949	0.30856	30.2	13111	100
2025-3-27 20:27:24.417	WT901BLE68-01(48591DE3C19B)	-0.582	-0.948	0.216	-2.808	27.649	-53.223	-78.61	12.62	-75.73	-61.936	-52.626	16.954	-0.71436	0.40555	-0.47949	0.30856	30.2	13111	100
2025-3-27 20:27:24.417	WT901BLE68-01(48591DE3C19B)	-0.582	-0.862	0.188	-7.874	-13.123	-29.846	-78.66	12.41	-75.68	-61.936	-52.626	16.954	-0.71436	0.40555	-0.47949	0.30856	30.2	13111	100
2025-3-27 20:27:24.417	WT901BLE68-01(48591DE3C19B)	-0.526	-0.862	0.188	-7.874	-13.123	-29.846	-78.71	12.20	-75.64	-61.936	-52.626	16.954	-0.71436	0.40555	-0.47949	0.30856	30.2	13111	100
2025-3-27 20:27:24.446	WT901BLE68-01(48591DE3C19B)	-0.526	-0.729	0.161	-5.981	-7.690	0.244	-78.74	12.30	-75.59	-61.936	-52.626	16.954	-0.71436	0.40555	-0.47949	0.30856	30.2	13111	100
2025-3-27 20:27:24.446	WT901BLE68-01(48591DE3C19B)	-0.536	-0.729	0.161	-5.981	-7.690	0.244	-78.77	12.40	-75.53	-61.936	-52.626	16.954	-0.71436	0.40555	-0.47949	0.30856	30.2	13111	100
2025-3-27 20:27:24.446	WT901BLE68-01(48591DE3C19B)	-0.536	-0.545	0.182	-5.249	10.315	26.428	-78.82	12.79	-75.61	-61.936	-52.626	16.954	-0.71436	0.40555	-0.47949	0.30856	30.2	13111	100
2025-3-27 20:27:24.446	WT901BLE68-01(48591DE3C19B)	-0.465	-0.545	0.182	-5.249	10.315	26.428	-78.86	13.19	-75.70	-61.936	-52.626	16.954	-0.71436	0.40555	-0.47949	0.30856	30.2	13111	100
2025-3-27 20:27:24.505	WT901BLE68-01(48591DE3C19B)	-0.465	-0.329	0.201	-7.019	18.555	57.007	-78.93	13.90	-75.81	-61.936	-52.626	16.954	-0.71436	0.40555	-0.47949	0.30856	30.2	13111	100
2025-3-27 20:27:24.505	WT901BLE68-01(48591DE3C19B)	-0.385	-0.329	0.201	-7.019	18.555	57.007	-78.98	14.62	-75.94	-61.936	-52.626	16.954	-0.71436	0.40555	-0.47949	0.30856	30.2	13111	100
2025-3-27 20:27:24.505	WT901BLE68-01(48591DE3C19B)	-0.385	-0.181	0.202	-13.306	15.625	83.008	-79.07	15.58	-76.00	-61.936	-52.626	16.954	-0.71436	0.40555	-0.47949	0.30856	30.2	13111	100
2025-3-27 20:27:24.505	WT901BLE68-01(48591DE3C19B)	-0.387	-0.181	0.202	-13.306	15.625	83.008	-79.16	16.54	-76.09	-61.936	-52.626	16.954	-0.71436	0.40555	-0.47949	0.30856	30.2	13111	100
2025-3-27 20:27:24.534	WT901BLE68-01(48591DE3C19B)	-0.387	-0.180	0.169	-21.118	3.662	102.478	-79.26	17.67	-76.05	-61.936	-52.626	16.954	-0.71436	0.40555	-0.47949	0.30856	30.2	13111	100
2025-3-27 20:27:24.534	WT901BLE68-01(48591DE3C19B)	-0.403	-0.180	0.169	-21.118	3.662	102.478	-79.34	18.79	-76.03	-61.936	-52.626	16.954	-0.71436	0.40555	-0.47949	0.30856	30.2	13111	100
2025-3-27 20:27:24.534	WT901BLE68-01(48591DE3C19B)	-0.403	-0.313	0.137	-31.555	-16.724	113.403	-79.45	19.98	-75.79	-61.936	-52.626	16.954	-0.71436	0.40555	-0.47949	0.30856	30.2	13111	100
2025-3-27 20:27:24.534	WT901BLE68-01(48591DE3C19B)	-0.412	-0.313	0.137	-31.555	-16.724	113.403	-79.55	21.17	-75.57	-61.936	-52.626	16.954	-0.71436	0.40555	-0.47949	0.30856	30.2	13111	100
2025-3-27 20:27:24.566	WT901BLE68-01(48591DE3C19B)	-0.412	-0.597	0.132	-39.917	-40.955	114.868	-79.62	22.32	-75.08	-61.936	-52.626	16.954	-0.71436	0.40555	-0.47949	0.30856	30.2	13111	100
2025-3-27 20:27:24.566	WT901BLE68-01(48591DE3C19B)	-0.459	-0.597	0.132	-39.917	-40.955	114.868	-79.70	23.47	-74.57	-61.936	-52.626	16.954	-0.71436	0.40555	-0.47949	0.30856	30.2	13111	100
2025-3-27 20:27:24.566	WT901BLE68-01(48591DE3C19B)	-0.459	-1.010	0.150	-41.748	-62.988	107.849	-79.70	24.49	-73.81	-61.936	-52.626	16.954	-0.71436	0.40555	-0.47949	0.30856	30.2	13111	100
2025-3-27 20:27:24.566	WT901BLE68-01(48591DE3C19B)	-0.515	-1.010	0.150	-41.748	-62.988	107.849	-79.69	25.49	-73.02	-61.936	-52.626	16.954	-0.71436	0.40555	-0.47949	0.30856	30.2	13111	100
2025-3-27 20:27:24.625	WT901BLE68-01(48591DE3C19B)	-0.515	-1.800	0.112	-40.955	-82.336	83.801	-79.62	26.21	-72.04	-61.936	-52.626	16.954	-0.71436	0.40555	-0.47949	0.30856	30.2	13111	100
2025-3-27 20:27:24.625	WT901BLE68-01(48591DE3C19B)	-0.478	-1.800	0.112	-40.955	-82.336	83.801	-79.54	26.91	-71.05	-61.936	-52.626	16.954	-0.69482	0.40244	-0.50702	0.31320	30.2	13111	100
2025-3-27 20:27:24.625	WT901BLE68-01(48591DE3C19B)	-0.478	-2.457	0.063	-8.484	-94.910	49.805	-79.11	27.21	-69.98	-61.936	-52.626	16.954	-0.69482	0.40244	-0.50702	0.31320	30.2	13111	100
2025-3-27 20:27:24.625	WT901BLE68-01(48591DE3C19B)	-0.481	-2.457	0.063	-8.484	-94.910	49.805	-78.69	27.49	-68.90	-61.936	-52.626	16.954	-0.69482	0.40244	-0.50702	0.31320	30.2	13111	100
2025-3-27 20:27:24.684	WT901BLE68-01(48591DE3C19B)	-0.481	-2.195	0.151	30.945	-87.952	48.218	-77.92	27.75	-67.90	-61.936	-52.626	16.954	-0.69482	0.40244	-0.50702	0.31320	30.2	13111	100
2025-3-27 20:27:24.684	WT901BLE68-01(48591DE3C19B)	-0.255	-2.195	0.151	30.945	-87.952	48.218	-77.14	27.99	-66.90	-61.936	-52.626	16.954	-0.69482	0.40244	-0.50702	0.31320	30.2	13111	100
2025-3-27 20:27:24.685	WT901BLE68-01(48591DE3C19B)	-0.255	-1.620	0.120	33.447	-50.842	41.992	-76.55	28.23	-66.33	-61.936	-52.626	16.954	-0.69482	0.40244	-0.50702	0.31320	30.2	13111	100
2025-3-27 20:27:24.685	WT901BLE68-01(48591DE3C19B)	0.103	-1.620	0.120	33.447	-50.842	41.992	-75.95	28.46	-65.76	-61.936	-52.626	16.954	-0.69482	0.40244	-0.50702	0.31320	30.2	13111	100
2025-3-27 20:27:24.686	WT901BLE68-01(48591DE3C19B)	0.103	-1.322	0.099	36.194	10.681	43.091	-75.66	28.83	-65.87	-61.936	-52.626	16.954	-0.69482	0.40244	-0.50702	0.31320	30.2	13111	100
2025-3-27 20:27:24.686	WT901BLE68-01(48591DE3C19B)	0.203	-1.322	0.099	36.194	10.681	43.091	-75.36	29.20	-65.98	-61.936	-52.626	16.954	-0.69482	0.40244	-0.50702	0.31320	30.2	13111	100
2025-3-27 20:27:24.686	WT901BLE68-01(48591DE3C19B)	0.111	-0.927	0.107	36.621	69.519	48.340	-75.38	29.75	-66.73	-61.936	-52.626	16.954	-0.69482	0.40244	-0.50702	0.31320	30.2	13111	100
2025-3-27 20:27:24.686	WT901BLE68-01(48591DE3C19B)	0.111	-0.723	0.139	17.456	93.445	37.170	-75.58	30.26	-67.63	-61.936	-52.626	16.954	-0.69482	0.40244	-0.50702	0.31320	30.2	13111	100
2025-3-27 20:27:24.777	WT901BLE68-01(48591DE3C19B)	-0.018	-0.723	0.139	17.456	93.445	37.170	-75.96	30.73	-68.68	-61.936	-52.626	16.954	-0.69482	0.40244	-0.50702	0.31320	30.2	13111	100
2025-3-27 20:27:24.777	WT901BLE68-01(48591DE3C19B)	-0.018	-0.729	0.192	10.620	77.332	21.973	-76.34	31.10	-69.67	-61.936	-52.626	16.954	-0.69482	0.40244	-0.50702	0.31320	30.2	13111	100
2025-3-27 20:27:24.777	WT901BLE68-01(48591DE3C19B)	-0.102	-0.729	0.192	10.620	77.332	21.973	-76.72	31.36	-70.59	-61.936	-52.626	16.954	-0.69482	0.40244	-0.50702	0.31320	30.2	13111	100
2025-3-27 20:27:24.777	WT901BLE68-01(48591DE3C19B)	-0.102	-0.576	0.206	14.709	62.622	15.564	-77.05	31.57	-71.44	-61.936	-52.626	16.954	-0.69482	0.40244	-0.50702	0.31320	30.2	13111	100
2025-3-27 20:27:24.778	WT901BLE68-01(48591DE3C19B)	-0.155	-0.576	0.206	14.709	62.622	15.564	-77.31	31.72	-72.22	-61.936	-52.626	16.954	-0.69482	0.40244	-0.50702	0.31320	30.2	13111	100
2025-3-27 20:27:24.778	WT901BLE68-01(48591DE3C19B)	-0.155	-0.412	0.153	13.123	55.786	14.954	-77.55	31.87	-72.95	-61.936	-52.626	16.954	-0.69482	0.40244	-0.50702	0.31320	30.2	13111	100
2025-3-27 20:27:24.778	WT901BLE68-01(48591DE3C19B)	-0.193	-0.412	0.153	13.123	55.786	14.954	-77.78	31.99	-73.66	-61.936	-52.626	16.954	-0.69482	0.40244	-0.50702	0.31320	30.2	13111	100
2025-3-27 20:27:24.778	WT901BLE68-01(48591DE3C19B)	-0.193	-0.314	0.103	12.817	35.095	24.414	-77.93	32.15	-74.22	-61.936	-52.626	16.954	-0.69482	0.40244	-0.50702	0.31320	30.2	13111	100
2025-3-27 20:27:24.806	WT901BLE68-01(48591DE3C19B)	-0.178	-0.314	0.103	12.817	35.095	24.414	-78.02	32.33	-74.66	-61.936	-52.626	16.954	-0.69482	0.40244	-0.50702	0.31320	30.2	13111	100
2025-3-27 20:27:24.806	WT901BLE68-01(48591DE3C19B)	-0.178	-0.304	0.082	3.479	0.854	34.058	-78.04	32.53	-74.89	-61.936	-52.626	16.954	-0.69482	0.40244	-0.50702	0.31320	30.2	13111	100
2025-3-27 20:27:24.806	WT901BLE68-01(48591DE3C19B)	-0.147	-0.304	0.082	3.479	0.854	34.058	-77.99	32.74	-74.90	-67.620	-45.276	9.996	-0.69482	0.40244	-0.50702	0.31320	30.2	13111	100
2025-3-27 20:27:24.806	WT901BLE68-01(48591DE3C19B)	-0.147	-0.485	0.065	-8.484	-22.217	30.457	-77.93	32.92	-74.79	-67.620	-45.276	9.996	-0.69482	0.40244	-0.50702	0.31320	30.2	13111	100
2025-3-27 20:27:24.894	WT901BLE68-01(48591DE3C19B)	-0.219	-0.485	0.065	-8.484	-22.217	30.457	-77.86	33.05	-74.55	-67.620	-45.276	9.996	-0.69482	0.40244	-0.50702	0.31320	30.2	13111	100
2025-3-27 20:27:24.894	WT901BLE68-01(48591DE3C19B)	-0.219	-0.669	0.071	-8.301	-28.564	21.423	-77.78	33.13	-74.28	-67.620	-45.276	9.996	-0.69482	0.40244	-0.50702	0.31320	30.2	13111	100
2025-3-27 20:27:24.895	WT901BLE68-01(48591DE3C19B)	-0.345	-0.669	0.071	-8.301	-28.564	21.423	-77.68	33.17	-73.99	-67.620	-45.276	9.996	-0.69482	0.40244	-0.50702	0.31320	30.2	13111	100
2025-3-27 20:27:24.895	WT901BLE68-01(48591DE3C19B)	-0.345	-0.813	0.071	-7.568	-29.053	1.038	-77.60	33.11	-73.71	-67.620	-45.276	9.996	-0.69482	0.40244	-0.50702	0.31320	30.2	13111	100
2025-3-27 20:27:24.896	WT901BLE68-01(48591DE3C19B)	-0.447	-0.813	0.071	-7.568	-29.053	1.038	-77.53	32.95	-73.47	-67.620	-45.276	9.996	-0.69482	0.40244	-0.50702	0.31320	30.2	13111	100
2025-3-27 20:27:24.896	WT901BLE68-01(48591DE3C19B)	-0.447	-1.126	0.096	-4.456	-28.442	-34.668	-77.47	32.63	-73.27	-67.620	-45.276	9.996	-0.69482	0.40244	-0.50702	0.31320	30.2	13111	100
2025-3-27 20:27:24.896	WT901BLE68-01(48591DE3C19B)	-0.572	-1.126	0.096	-4.456	-28.442	-34.668	-77.43	32.15	-73.11	-67.620	-45.276	9.996	-0.69482	0.40244	-0.50702	0.31320	30.2	13111	100
2025-3-27 20:27:24.896	WT901BLE68-01(48591DE3C19B)	-0.572	-1.492	0.149	6.104	-22.522	-88.379	-77.39	31.41	-73.06	-67.620	-45.276	9.996	-0.69482	0.40244	-0.50702	0.31320	30.2	13111	100
2025-3-27 20:27:24.924	WT901BLE68-01(48591DE3C19B)	-0.818	-1.492	0.149	6.104	-22.522	-88.379	-77.36	30.43	-73.12	-67.620	-45.276	9.996	-0.69482	0.40244	-0.50702	0.31320	30.2	13111	100
2025-3-27 20:27:24.924	WT901BLE68-01(48591DE3C19B)	-0.818	-1.671	0.233	9.644	-9.521	-130.249	-77.37	29.27	-73.30	-67.620	-45.276	9.996	-0.69482	0.40244	-0.50702	0.31320	30.2	13111	100
2025-3-27 20:27:24.924	WT901BLE68-01(48591DE3C19B)	-1.029	-1.671	0.233	9.644	-9.521	-130.249	-77.42	27.93	-73.59	-67.620	-45.276	9.996	-0.69482	0.40244	-0.50702	0.31320	30.2	13111	100
2025-3-27 20:27:24.924	WT901BLE68-01(48591DE3C19B)	-1.029	-1.625	0.332	17.700	20.020	-137.329	-77.49	26.60	-74.05	-67.620	-45.276	9.996	-0.69482	0.40244	-0.50702	0.31320	30.2	13111	100
2025-3-27 20:27:24.985	WT901BLE68-01(48591DE3C19B)	-0.947	-1.625	0.332	17.700	20.020	-137.329	-77.58	25.29	-74.66	-67.620	-45.276	9.996	-0.69482	0.40244	-0.50702	0.31320	30.2	13111	100
2025-3-27 20:27:24.985	WT901BLE68-01(48591DE3C19B)	-0.947	-1.242	0.460	18.494	44.373	-128.784	-77.70	24.07	-75.39	-67.620	-45.276	9.996	-0.69482	0.40244	-0.50702	0.31320	30.2	13111	100
2025-3-27 20:27:24.985	WT901BLE68-01(48591DE3C19B)	-0.727	-1.242	0.460	18.494	44.373	-128.784	-77.83	22.92	-76.23	-67.620	-45.276	9.996	-0.69482	0.40244	-0.50702	0.31320	30.2	13111	100
2025-3-27 20:27:24.986	WT901BLE68-01(48591DE3C19B)	-0.727	-0.985	0.451	10.742	59.326	-112.427	-78.00	21.87	-77.12	-67.620	-45.276	9.996	-0.69482	0.40244	-0.50702	0.31320	30.2	13111	100
2025-3-27 20:27:25.15	WT901BLE68-01(48591DE3C19B)	-0.622	-0.985	0.451	10.742	59.326	-112.427	-78.20	20.93	-78.07	-67.620	-45.276	9.996	-0.69482	0.40244	-0.50702	0.31320	30.2	13111	100
2025-3-27 20:27:25.16	WT901BLE68-01(48591DE3C19B)	-0.622	-0.747	0.351	9.338	38.757	-82.275	-78.34	20.13	-78.87	-67.620	-45.276	9.996	-0.69482	0.40244	-0.50702	0.31320	30.2	13111	100
2025-3-27 20:27:25.16	WT901BLE68-01(48591DE3C19B)	-0.611	-0.747	0.351	9.338	38.757	-82.275	-78.41	19.45	-79.53	-67.620	-45.276	9.996	-0.69482	0.40244	-0.50702	0.31320	30.2	13111	100
2025-3-27 20:27:25.16	WT901BLE68-01(48591DE3C19B)	-0.611	-0.614	0.242	-9.949	-26.550	-57.983	-78.46	18.84	-79.83	-67.620	-45.276	9.996	-0.65250	0.39716	-0.49756	0.41086	30.2	13111	100
2025-3-27 20:27:25.79	WT901BLE68-01(48591DE3C19B)	-0.390	-0.614	0.242	-9.949	-26.550	-57.983	-78.48	18.29	-79.76	-67.620	-45.276	9.996	-0.65250	0.39716	-0.49756	0.41086	30.2	13111	100
2025-3-27 20:27:25.79	WT901BLE68-01(48591DE3C19B)	-0.390	-0.667	0.166	-27.405	-67.688	-39.795	-78.51	17.79	-79.48	-67.620	-45.276	9.996	-0.65250	0.39716	-0.49756	0.41086	30.2	13111	100
2025-3-27 20:27:25.79	WT901BLE68-01(48591DE3C19B)	-0.333	-0.667	0.166	-27.405	-67.688	-39.795	-78.57	17.35	-78.96	-67.620	-45.276	9.996	-0.65250	0.39716	-0.49756	0.41086	30.2	13111	100
2025-3-27 20:27:25.79	WT901BLE68-01(48591DE3C19B)	-0.333	-0.738	0.206	-19.287	-55.847	-17.090	-78.60	17.03	-78.48	-67.620	-45.276	9.996	-0.65250	0.39716	-0.49756	0.41086	30.2	13111	100
2025-3-27 20:27:25.165	WT901BLE68-01(48591DE3C19B)	-0.420	-0.738	0.206	-19.287	-55.847	-17.090	-78.60	16.83	-78.05	-67.620	-45.276	9.996	-0.65250	0.39716	-0.49756	0.41086	30.2	13111	100
2025-3-27 20:27:25.165	WT901BLE68-01(48591DE3C19B)	-0.420	-0.717	0.274	-7.629	-12.268	-10.376	-78.60	16.70	-77.83	-67.620	-45.276	9.996	-0.65250	0.39716	-0.49756	0.41086	30.2	13111	100
2025-3-27 20:27:25.165	WT901BLE68-01(48591DE3C19B)	-0.468	-0.717	0.274	-7.629	-12.268	-10.376	-78.61	16.65	-77.83	-67.620	-45.276	9.996	-0.65250	0.39716	-0.49756	0.41086	30.2	13111	100
2025-3-27 20:27:25.165	WT901BLE68-01(48591DE3C19B)	-0.468	-0.597	0.295	1.099	28.625	0.000	-78.62	16.69	-78.04	-67.620	-45.276	9.996	-0.65250	0.39716	-0.49756	0.41086	30.2	13111	100
2025-3-27 20:27:25.165	WT901BLE68-01(48591DE3C19B)	-0.417	-0.597	0.295	1.099	28.625	0.000	-78.65	16.82	-78.45	-67.620	-45.276	9.996	-0.65250	0.39716	-0.49756	0.41086	30.2	13111	100
2025-3-27 20:27:25.165	WT901BLE68-01(48591DE3C19B)	-0.417	-0.424	0.263	9.583	60.608	16.663	-78.67	17.06	-79.01	-67.620	-45.276	9.996	-0.65250	0.39716	-0.49756	0.41086	30.2	13111	100
2025-3-27 20:27:25.165	WT901BLE68-01(48591DE3C19B)	-0.370	-0.424	0.263	9.583	60.608	16.663	-78.69	17.42	-79.73	-67.620	-45.276	9.996	-0.65250	0.39716	-0.49756	0.41086	30.2	13111	100
2025-3-27 20:27:25.166	WT901BLE68-01(48591DE3C19B)	-0.370	-0.301	0.218	12.695	77.576	34.119	-78.71	17.88	-80.52	-67.620	-45.276	9.996	-0.65250	0.39716	-0.49756	0.41086	30.2	13111	100
2025-3-27 20:27:25.166	WT901BLE68-01(48591DE3C19B)	-0.372	-0.301	0.218	12.695	77.576	34.119	-78.74	18.44	-81.39	-67.620	-45.276	9.996	-0.65250	0.39716	-0.49756	0.41086	30.2	13111	100
2025-3-27 20:27:25.166	WT901BLE68-01(48591DE3C19B)	-0.372	-0.281	0.174	6.470	71.045	42.236	-78.81	19.07	-82.18	-67.620	-45.276	9.996	-0.65250	0.39716	-0.49756	0.41086	30.2	13111	100
2025-3-27 20:27:25.166	WT901BLE68-01(48591DE3C19B)	-0.438	-0.281	0.174	6.470	71.045	42.236	-78.89	19.70	-82.97	-67.620	-45.276	9.996	-0.65250	0.39716	-0.49756	0.41086	30.2	13111	100
2025-3-27 20:27:25.166	WT901BLE68-01(48591DE3C19B)	-0.438	-0.341	0.162	-4.578	41.748	49.316	-78.96	20.34	-83.46	-67.620	-45.276	9.996	-0.65250	0.39716	-0.49756	0.41086	30.2	13111	100
2025-3-27 20:27:25.224	WT901BLE68-01(48591DE3C19B)	-0.503	-0.341	0.162	-4.578	41.748	49.316	-79.05	20.98	-83.96	-67.620	-45.276	9.996	-0.65250	0.39716	-0.49756	0.41086	30.2	13111	100
2025-3-27 20:27:25.225	WT901BLE68-01(48591DE3C19B)	-0.503	-0.523	0.153	-21.423	-2.563	49.927	-79.13	21.55	-83.98	-62.132	-42.042	7.154	-0.65250	0.39716	-0.49756	0.41086	30.2	13111	100
2025-3-27 20:27:25.225	WT901BLE68-01(48591DE3C19B)	-0.563	-0.523	0.153	-21.423	-2.563	49.927	-79.22	22.12	-84.01	-62.132	-42.042	7.154	-0.65250	0.39716	-0.49756	0.41086	30.2	13111	100
2025-3-27 20:27:25.225	WT901BLE68-01(48591DE3C19B)	-0.563	-0.921	0.189	-34.058	-49.072	42.603	-79.26	22.52	-83.55	-62.132	-42.042	7.154	-0.65250	0.39716	-0.49756	0.41086	30.2	13111	100
2025-3-27 20:27:25.254	WT901BLE68-01(48591DE3C19B)	-0.720	-0.921	0.189	-34.058	-49.072	42.603	-79.30	22.92	-83.07	-62.132	-42.042	7.154	-0.65250	0.39716	-0.49756	0.41086	30.2	13111	100
2025-3-27 20:27:25.254	WT901BLE68-01(48591DE3C19B)	-0.720	-1.604	0.295	-28.625	-92.407	21.179	-79.13	23.02	-82.16	-62.132	-42.042	7.154	-0.65250	0.39716	-0.49756	0.41086	30.2	13111	100
2025-3-27 20:27:25.254	WT901BLE68-01(48591DE3C19B)	-0.697	-1.604	0.295	-28.625	-92.407	21.179	-78.98	23.10	-81.23	-62.132	-42.042	7.154	-0.65250	0.39716	-0.49756	0.41086	30.2	13111	100
2025-3-27 20:27:25.254	WT901BLE68-01(48591DE3C19B)	-0.697	-2.200	0.213	-13.977	-106.079	6.470	-78.65	23.00	-80.18	-62.132	-42.042	7.154	-0.65250	0.39716	-0.49756	0.41086	30.2	13111	100
2025-3-27 20:27:25.315	WT901BLE68-01(48591DE3C19B)	-0.574	-2.200	0.213	-13.977	-106.079	6.470	-78.34	22.88	-79.12	-62.132	-42.042	7.154	-0.65250	0.39716	-0.49756	0.41086	30.2	13111	100
2025-3-27 20:27:25.316	WT901BLE68-01(48591DE3C19B)	-0.574	-2.153	0.129	27.466	-81.970	16.663	-77.72	22.89	-78.29	-62.132	-42.042	7.154	-0.65250	0.39716	-0.49756	0.41086	30.2	13111	100
2025-3-27 20:27:25.316	WT901BLE68-01(48591DE3C19B)	-0.375	-2.153	0.129	27.466	-81.970	16.663	-77.11	22.88	-77.46	-62.132	-42.042	7.154	-0.65250	0.39716	-0.49756	0.41086	30.2	13111	100
2025-3-27 20:27:25.316	WT901BLE68-01(48591DE3C19B)	-0.375	-1.574	0.103	32.410	-32.104	20.203	-76.66	23.01	-77.15	-62.132	-42.042	7.154	-0.65250	0.39716	-0.49756	0.41086	30.2	13111	100
2025-3-27 20:27:25.344	WT901BLE68-01(48591DE3C19B)	-0.180	-1.574	0.103	32.410	-32.104	20.203	-76.22	23.13	-76.84	-62.132	-42.042	7.154	-0.65250	0.39716	-0.49756	0.41086	30.2	13111	100
2025-3-27 20:27:25.344	WT901BLE68-01(48591DE3C19B)	-0.180	-1.405	0.153	26.733	14.526	24.170	-76.02	23.38	-77.01	-62.132	-42.042	7.154	-0.65250	0.39716	-0.49756	0.41086	30.2	13111	100
2025-3-27 20:27:25.344	WT901BLE68-01(48591DE3C19B)	-0.090	-1.405	0.153	26.733	14.526	24.170	-75.83	23.63	-77.18	-62.132	-42.042	7.154	-0.65250	0.39716	-0.49756	0.41086	30.2	13111	100
2025-3-27 20:27:25.344	WT901BLE68-01(48591DE3C19B)	-0.090	-1.084	0.236	23.010	39.673	33.508	-75.78	24.02	-77.59	-62.132	-42.042	7.154	-0.65250	0.39716	-0.49756	0.41086	30.2	13111	100
2025-3-27 20:27:25.404	WT901BLE68-01(48591DE3C19B)	-0.118	-1.084	0.236	23.010	39.673	33.508	-75.73	24.40	-78.00	-62.132	-42.042	7.154	-0.65250	0.39716	-0.49756	0.41086	30.2	13111	100
2025-3-27 20:27:25.404	WT901BLE68-01(48591DE3C19B)	-0.118	-0.771	0.313	5.981	29.114	29.358	-75.80	24.71	-78.32	-62.132	-42.042	7.154	-0.65250	0.39716	-0.49756	0.41086	30.2	13111	100
2025-3-27 20:27:25.404	WT901BLE68-01(48591DE3C19B)	-0.154	-0.771	0.313	5.981	29.114	29.358	-75.87	25.02	-78.63	-62.132	-42.042	7.154	-0.65250	0.39716	-0.49756	0.41086	30.2	13111	100
2025-3-27 20:27:25.404	WT901BLE68-01(48591DE3C19B)	-0.154	-0.674	0.322	-7.874	8.667	18.250	-76.00	25.16	-78.77	-62.132	-42.042	7.154	-0.65250	0.39716	-0.49756	0.41086	30.2	13111	100
2025-3-27 20:27:25.434	WT901BLE68-01(48591DE3C19B)	-0.208	-0.674	0.322	-7.874	8.667	18.250	-76.12	25.30	-78.90	-62.132	-42.042	7.154	-0.65250	0.39716	-0.49756	0.41086	30.2	13111	100
2025-3-27 20:27:25.434	WT901BLE68-01(48591DE3C19B)	-0.208	-0.537	0.262	-7.385	12.695	18.188	-76.25	25.45	-79.09	-62.132	-42.042	7.154	-0.67792	0.35355	-0.51785	0.38358	30.2	13111	100
2025-3-27 20:27:25.434	WT901BLE68-01(48591DE3C19B)	-0.264	-0.537	0.262	-7.385	12.695	18.188	-76.37	25.60	-79.28	-62.132	-42.042	7.154	-0.67792	0.35355	-0.51785	0.38358	30.2	13111	100
2025-3-27 20:27:25.434	WT901BLE68-01(48591DE3C19B)	-0.264	-0.355	0.191	-3.479	28.076	22.339	-76.51	25.82	-79.62	-62.132	-42.042	7.154	-0.67792	0.35355	-0.51785	0.38358	30.2	13111	100
2025-3-27 20:27:25.464	WT901BLE68-01(48591DE3C19B)	-0.281	-0.355	0.191	-3.479	28.076	22.339	-76.66	26.05	-79.97	-62.132	-42.042	7.154	-0.67792	0.35355	-0.51785	0.38358	30.2	13111	100
2025-3-27 20:27:25.464	WT901BLE68-01(48591DE3C19B)	-0.281	-0.186	0.163	-1.343	19.592	29.602	-76.73	26.34	-80.22	-62.132	-42.042	7.154	-0.67792	0.35355	-0.51785	0.38358	30.2	13111	100
2025-3-27 20:27:25.464	WT901BLE68-01(48591DE3C19B)	-0.201	-0.186	0.163	-1.343	19.592	29.602	-76.79	26.63	-80.46	-62.132	-42.042	7.154	-0.67792	0.35355	-0.51785	0.38358	30.2	13111	100
2025-3-27 20:27:25.464	WT901BLE68-01(48591DE3C19B)	-0.201	-0.139	0.144	-6.287	-7.446	43.701	-76.76	27.00	-80.39	-62.132	-42.042	7.154	-0.67792	0.35355	-0.51785	0.38358	30.2	13111	100
2025-3-27 20:27:25.525	WT901BLE68-01(48591DE3C19B)	-0.169	-0.139	0.144	-6.287	-7.446	43.701	-76.71	27.37	-80.31	-62.132	-42.042	7.154	-0.67792	0.35355	-0.51785	0.38358	30.2	13111	100
2025-3-27 20:27:25.525	WT901BLE68-01(48591DE3C19B)	-0.169	-0.216	0.116	-9.827	-19.836	52.185	-76.62	27.80	-80.08	-62.132	-42.042	7.154	-0.67792	0.35355	-0.51785	0.38358	30.2	13111	100
2025-3-27 20:27:25.525	WT901BLE68-01(48591DE3C19B)	-0.255	-0.216	0.116	-9.827	-19.836	52.185	-76.53	28.22	-79.85	-62.132	-42.042	7.154	-0.67792	0.35355	-0.51785	0.38358	30.2	13111	100
2025-3-27 20:27:25.525	WT901BLE68-01(48591DE3C19B)	-0.255	-0.368	0.071	-13.306	-32.104	59.631	-76.39	28.69	-79.48	-62.132	-42.042	7.154	-0.67792	0.35355	-0.51785	0.38358	30.2	13111	100
2025-3-27 20:27:25.554	WT901BLE68-01(48591DE3C19B)	-0.326	-0.368	0.071	-13.306	-32.104	59.631	-76.26	29.16	-79.09	-62.132	-42.042	7.154	-0.67792	0.35355	-0.51785	0.38358	30.2	13111	100
2025-3-27 20:27:25.554	WT901BLE68-01(48591DE3C19B)	-0.326	-0.564	0.035	-22.461	-49.255	59.875	-76.12	29.60	-78.50	-62.132	-42.042	7.154	-0.67792	0.35355	-0.51785	0.38358	30.2	13111	100
2025-3-27 20:27:25.554	WT901BLE68-01(48591DE3C19B)	-0.264	-0.564	0.035	-22.461	-49.255	59.875	-75.99	30.04	-77.91	-62.132	-42.042	7.154	-0.67792	0.35355	-0.51785	0.38358	30.2	13111	100
2025-3-27 20:27:25.554	WT901BLE68-01(48591DE3C19B)	-0.264	-0.865	0.001	-33.386	-57.129	47.913	-75.94	30.33	-77.26	-62.132	-42.042	7.154	-0.67792	0.35355	-0.51785	0.38358	30.2	13111	100
2025-3-27 20:27:25.587	WT901BLE68-01(48591DE3C19B)	-0.334	-0.865	0.001	-33.386	-57.129	47.913	-75.90	30.62	-76.59	-62.132	-42.042	7.154	-0.67792	0.35355	-0.51785	0.38358	30.2	13111	100
2025-3-27 20:27:25.587	WT901BLE68-01(48591DE3C19B)	-0.334	-1.357	0.043	-27.588	-46.570	15.259	-75.93	30.61	-76.14	-62.132	-42.042	7.154	-0.67792	0.35355	-0.51785	0.38358	30.2	13111	100
2025-3-27 20:27:25.587	WT901BLE68-01(48591DE3C19B)	-0.460	-1.357	0.043	-27.588	-46.570	15.259	-75.96	30.59	-75.67	-62.132	-42.042	7.154	-0.67792	0.35355	-0.51785	0.38358	30.2	13111	100
2025-3-27 20:27:25.587	WT901BLE68-01(48591DE3C19B)	-0.460	-1.722	0.106	-3.479	-33.875	-37.292	-75.91	30.09	-75.50	-62.132	-42.042	7.154	-0.67792	0.35355	-0.51785	0.38358	30.2	13111	100
2025-3-27 20:27:25.617	WT901BLE68-01(48591DE3C19B)	-0.669	-1.722	0.106	-3.479	-33.875	-37.292	-75.87	29.58	-75.33	-62.132	-42.042	7.154	-0.67792	0.35355	-0.51785	0.38358	30.2	13111	100
2025-3-27 20:27:25.618	WT901BLE68-01(48591DE3C19B)	-0.824	-1.761	0.242	1.404	-31.433	-74.463	-75.84	28.73	-75.29	-62.132	-42.042	7.154	-0.67792	0.35355	-0.51785	0.38358	30.2	13111	100
2025-3-27 20:27:25.618	WT901BLE68-01(48591DE3C19B)	-0.824	-1.556	0.317	11.719	27.466	-91.980	-75.92	27.87	-75.60	-68.698	-36.162	3.332	-0.67792	0.35355	-0.51785	0.38358	30.2	13111	100
2025-3-27 20:27:25.618	WT901BLE68-01(48591DE3C19B)	-0.765	-1.556	0.317	11.719	27.466	-91.980	-76.10	27.01	-76.25	-68.698	-36.162	3.332	-0.67792	0.35355	-0.51785	0.38358	30.2	13111	100
2025-3-27 20:27:25.707	WT901BLE68-01(48591DE3C19B)	-0.765	-1.140	0.424	26.978	86.121	-79.773	-76.33	26.29	-77.19	-68.698	-36.162	3.332	-0.67792	0.35355	-0.51785	0.38358	30.2	13111	100
2025-3-27 20:27:25.707	WT901BLE68-01(48591DE3C19B)	-0.570	-1.140	0.424	26.978	86.121	-79.773	-76.58	25.70	-78.42	-68.698	-36.162	3.332	-0.67792	0.35355	-0.51785	0.38358	30.2	13111	100
2025-3-27 20:27:25.707	WT901BLE68-01(48591DE3C19B)	-0.570	-0.820	0.413	25.879	111.145	-62.500	-76.87	25.23	-79.76	-68.698	-36.162	3.332	-0.67792	0.35355	-0.51785	0.38358	30.2	13111	100
2025-3-27 20:27:25.707	WT901BLE68-01(48591DE3C19B)	-0.401	-0.820	0.413	25.879	111.145	-62.500	-77.19	24.87	-81.19	-68.698	-36.162	3.332	-0.67792	0.35355	-0.51785	0.38358	30.2	13111	100
2025-3-27 20:27:25.708	WT901BLE68-01(48591DE3C19B)	-0.401	-0.496	0.278	20.691	91.309	-35.400	-77.45	24.61	-82.49	-68.698	-36.162	3.332	-0.67792	0.35355	-0.51785	0.38358	30.2	13111	100
2025-3-27 20:27:25.708	WT901BLE68-01(48591DE3C19B)	-0.389	-0.496	0.278	20.691	91.309	-35.400	-77.68	24.47	-83.64	-68.698	-36.162	3.332	-0.67792	0.35355	-0.51785	0.38358	30.2	13111	100
2025-3-27 20:27:25.708	WT901BLE68-01(48591DE3C19B)	-0.389	-0.298	0.167	-3.784	22.949	-25.146	-77.86	24.31	-84.41	-68.698	-36.162	3.332	-0.67792	0.35355	-0.51785	0.38358	30.2	13111	100
2025-3-27 20:27:25.708	WT901BLE68-01(48591DE3C19B)	-0.266	-0.298	0.167	-3.784	22.949	-25.146	-78.00	24.13	-84.80	-68.698	-36.162	3.332	-0.67792	0.35355	-0.51785	0.38358	30.2	13111	100
2025-3-27 20:27:25.736	WT901BLE68-01(48591DE3C19B)	-0.266	-0.325	0.137	-28.259	-33.081	-11.597	-78.13	23.97	-84.89	-68.698	-36.162	3.332	-0.67792	0.35355	-0.51785	0.38358	30.2	13111	100
2025-3-27 20:27:25.736	WT901BLE68-01(48591DE3C19B)	-0.209	-0.325	0.137	-28.259	-33.081	-11.597	-78.25	23.81	-84.66	-68.698	-36.162	3.332	-0.67792	0.35355	-0.51785	0.38358	30.2	13111	100
2025-3-27 20:27:25.736	WT901BLE68-01(48591DE3C19B)	-0.209	-0.323	0.186	-27.405	-30.151	5.188	-78.36	23.75	-84.42	-68.698	-36.162	3.332	-0.67792	0.35355	-0.51785	0.38358	30.2	13111	100
2025-3-27 20:27:25.736	WT901BLE68-01(48591DE3C19B)	-0.249	-0.323	0.186	-27.405	-30.151	5.188	-78.46	23.76	-84.20	-68.698	-36.162	3.332	-0.67792	0.35355	-0.51785	0.38358	30.2	13111	100
2025-3-27 20:27:25.794	WT901BLE68-01(48591DE3C19B)	-0.249	-0.269	0.212	-21.301	-0.916	18.127	-78.59	23.88	-84.12	-68.698	-36.162	3.332	-0.67792	0.35355	-0.51785	0.38358	30.2	13111	100
2025-3-27 20:27:25.795	WT901BLE68-01(48591DE3C19B)	-0.317	-0.269	0.212	-21.301	-0.916	18.127	-78.73	24.08	-84.19	-68.698	-36.162	3.332	-0.67792	0.35355	-0.51785	0.38358	30.2	13111	100
2025-3-27 20:27:25.795	WT901BLE68-01(48591DE3C19B)	-0.317	-0.316	0.192	-22.949	11.108	23.560	-78.90	24.32	-84.32	-68.698	-36.162	3.332	-0.67792	0.35355	-0.51785	0.38358	30.2	13111	100
2025-3-27 20:27:25.795	WT901BLE68-01(48591DE3C19B)	-0.359	-0.316	0.192	-22.949	11.108	23.560	-79.10	24.60	-84.52	-68.698	-36.162	3.332	-0.67792	0.35355	-0.51785	0.38358	30.2	13111	100
2025-3-27 20:27:25.824	WT901BLE68-01(48591DE3C19B)	-0.359	-0.570	0.160	-26.123	7.751	21.301	-79.29	24.87	-84.70	-68.698	-36.162	3.332	-0.67792	0.35355	-0.51785	0.38358	30.2	13111	100
2025-3-27 20:27:25.824	WT901BLE68-01(48591DE3C19B)	-0.469	-0.570	0.160	-26.123	7.751	21.301	-79.51	25.13	-84.86	-68.698	-36.162	3.332	-0.67792	0.35355	-0.51785	0.38358	30.2	13111	100
2025-3-27 20:27:25.824	WT901BLE68-01(48591DE3C19B)	-0.469	-0.991	0.162	-28.381	-3.662	10.071	-79.72	25.31	-84.97	-68.698	-36.162	3.332	-0.67792	0.35355	-0.51785	0.38358	30.2	13111	100
2025-3-27 20:27:25.824	WT901BLE68-01(48591DE3C19B)	-0.604	-0.991	0.162	-28.381	-3.662	10.071	-79.93	25.43	-85.02	-68.698	-36.162	3.332	-0.64639	0.34805	-0.54837	0.40027	30.2	13111	100
2025-3-27 20:27:25.854	WT901BLE68-01(48591DE3C19B)	-0.604	-1.609	0.162	-21.484	-20.996	-16.907	-80.08	25.39	-84.98	-68.698	-36.162	3.332	-0.64639	0.34805	-0.54837	0.40027	30.2	13111	100
2025-3-27 20:27:25.854	WT901BLE68-01(48591DE3C19B)	-0.644	-1.609	0.162	-21.484	-20.996	-16.907	-80.18	25.20	-84.87	-68.698	-36.162	3.332	-0.64639	0.34805	-0.54837	0.40027	30.2	13111	100
2025-3-27 20:27:25.854	WT901BLE68-01(48591DE3C19B)	-0.644	-2.282	0.069	-10.071	-36.133	-39.612	-80.22	24.88	-84.68	-68.698	-36.162	3.332	-0.64639	0.34805	-0.54837	0.40027	30.2	13111	100
2025-3-27 20:27:25.854	WT901BLE68-01(48591DE3C19B)	-0.629	-2.282	0.069	-10.071	-36.133	-39.612	-80.18	24.43	-84.43	-68.698	-36.162	3.332	-0.64639	0.34805	-0.54837	0.40027	30.2	13111	100
2025-3-27 20:27:25.915	WT901BLE68-01(48591DE3C19B)	-0.629	-2.206	0.063	33.081	-42.114	-40.588	-79.94	23.96	-84.13	-68.698	-36.162	3.332	-0.64639	0.34805	-0.54837	0.40027	30.2	13111	100
2025-3-27 20:27:25.915	WT901BLE68-01(48591DE3C19B)	-0.494	-2.206	0.063	33.081	-42.114	-40.588	-79.48	23.47	-83.81	-68.698	-36.162	3.332	-0.64639	0.34805	-0.54837	0.40027	30.2	13111	100
2025-3-27 20:27:25.915	WT901BLE68-01(48591DE3C19B)	-0.247	-1.591	0.087	29.968	-29.358	-38.635	-79.07	23.00	-83.56	-68.698	-36.162	3.332	-0.64639	0.34805	-0.54837	0.40027	30.2	13111	100
2025-3-27 20:27:25.916	WT901BLE68-01(48591DE3C19B)	-0.289	-0.795	0.043	29.968	-29.358	-38.635	-78.71	22.55	-83.38	-68.698	-36.162	3.332	-0.64639	0.34805	-0.54837	0.40027	30.2	13111	100
2025-3-27 20:27:25.977	WT901BLE68-01(48591DE3C19B)	-0.289	-1.362	0.142	24.475	4.150	-24.292	-78.45	22.21	-83.36	-68.698	-36.162	3.332	-0.64639	0.34805	-0.54837	0.40027	30.2	13111	100
2025-3-27 20:27:25.978	WT901BLE68-01(48591DE3C19B)	-0.203	-1.362	0.142	24.475	4.150	-24.292	-78.28	21.96	-83.50	-68.698	-36.162	3.332	-0.64639	0.34805	-0.54837	0.40027	30.2	13111	100
2025-3-27 20:27:25.978	WT901BLE68-01(48591DE3C19B)	-0.203	-1.037	0.248	26.245	42.419	-6.409	-78.17	21.84	-83.83	-68.698	-36.162	3.332	-0.64639	0.34805	-0.54837	0.40027	30.2	13111	100
2025-3-27 20:27:25.978	WT901BLE68-01(48591DE3C19B)	-0.240	-1.037	0.248	26.245	42.419	-6.409	-78.11	21.85	-84.34	-68.698	-36.162	3.332	-0.64639	0.34805	-0.54837	0.40027	30.2	13111	100
2025-3-27 20:27:26.7	WT901BLE68-01(48591DE3C19B)	-0.240	-0.635	0.353	25.879	52.185	10.010	-78.06	21.93	-84.89	-68.698	-36.162	3.332	-0.64639	0.34805	-0.54837	0.40027	30.2	13111	100
2025-3-27 20:27:26.7	WT901BLE68-01(48591DE3C19B)	-0.282	-0.635	0.353	25.879	52.185	10.010	-78.02	22.12	-85.46	-68.698	-36.162	3.332	-0.64639	0.34805	-0.54837	0.40027	30.2	13111	100
2025-3-27 20:27:26.7	WT901BLE68-01(48591DE3C19B)	-0.282	-0.371	0.366	14.099	32.104	18.127	-77.99	22.31	-85.93	-68.698	-36.162	3.332	-0.64639	0.34805	-0.54837	0.40027	30.2	13111	100
2025-3-27 20:27:26.7	WT901BLE68-01(48591DE3C19B)	-0.226	-0.371	0.366	14.099	32.104	18.127	-77.97	22.54	-86.29	-68.698	-36.162	3.332	-0.64639	0.34805	-0.54837	0.40027	30.2	13111	100
2025-3-27 20:27:26.36	WT901BLE68-01(48591DE3C19B)	-0.226	-0.278	0.263	5.798	19.531	32.043	-77.95	22.81	-86.57	-68.698	-36.162	3.332	-0.64639	0.34805	-0.54837	0.40027	30.2	13111	100
2025-3-27 20:27:26.36	WT901BLE68-01(48591DE3C19B)	-0.142	-0.278	0.263	5.798	19.531	32.043	-77.94	23.15	-86.77	-65.562	-35.868	1.960	-0.64639	0.34805	-0.54837	0.40027	30.2	13111	100
2025-3-27 20:27:26.36	WT901BLE68-01(48591DE3C19B)	-0.142	-0.210	0.114	9.827	28.870	47.913	-77.91	23.57	-87.01	-65.562	-35.868	1.960	-0.64639	0.34805	-0.54837	0.40027	30.2	13111	100
2025-3-27 20:27:26.37	WT901BLE68-01(48591DE3C19B)	-0.208	-0.210	0.114	9.827	28.870	47.913	-77.87	24.08	-87.28	-65.562	-35.868	1.960	-0.64639	0.34805	-0.54837	0.40027	30.2	13111	100
2025-3-27 20:27:26.66	WT901BLE68-01(48591DE3C19B)	-0.208	-0.122	0.027	14.832	33.569	65.735	-77.81	24.68	-87.56	-65.562	-35.868	1.960	-0.64639	0.34805	-0.54837	0.40027	30.2	13111	100
2025-3-27 20:27:26.66	WT901BLE68-01(48591DE3C19B)	-0.381	-0.122	0.027	14.832	33.569	65.735	-77.73	25.37	-87.83	-65.562	-35.868	1.960	-0.64639	0.34805	-0.54837	0.40027	30.2	13111	100
2025-3-27 20:27:26.66	WT901BLE68-01(48591DE3C19B)	-0.381	-0.187	0.130	16.174	28.198	83.435	-77.62	26.15	-88.07	-65.562	-35.868	1.960	-0.64639	0.34805	-0.54837	0.40027	30.2	13111	100
2025-3-27 20:27:26.66	WT901BLE68-01(48591DE3C19B)	-0.532	-0.187	0.130	16.174	28.198	83.435	-77.49	27.02	-88.25	-65.562	-35.868	1.960	-0.64639	0.34805	-0.54837	0.40027	30.2	13111	100
2025-3-27 20:27:26.97	WT901BLE68-01(48591DE3C19B)	-0.532	-0.422	0.241	15.198	11.902	93.567	-77.31	27.92	-88.34	-65.562	-35.868	1.960	-0.64639	0.34805	-0.54837	0.40027	30.2	13111	100
2025-3-27 20:27:26.97	WT901BLE68-01(48591DE3C19B)	-0.549	-0.422	0.241	15.198	11.902	93.567	-77.07	28.87	-88.32	-65.562	-35.868	1.960	-0.64639	0.34805	-0.54837	0.40027	30.2	13111	100
2025-3-27 20:27:26.97	WT901BLE68-01(48591DE3C19B)	-0.549	-0.688	0.139	8.728	-4.517	85.327	-76.82	29.70	-88.14	-65.562	-35.868	1.960	-0.64639	0.34805	-0.54837	0.40027	30.2	13111	100
2025-3-27 20:27:26.97	WT901BLE68-01(48591DE3C19B)	-0.543	-0.688	0.139	8.728	-4.517	85.327	-76.56	30.53	-87.96	-65.562	-35.868	1.960	-0.64639	0.34805	-0.54837	0.40027	30.2	13111	100
2025-3-27 20:27:26.186	WT901BLE68-01(48591DE3C19B)	-0.543	-0.953	0.016	2.808	-11.475	52.795	-76.39	31.02	-87.77	-65.562	-35.868	1.960	-0.64639	0.34805	-0.54837	0.40027	30.2	13111	100
2025-3-27 20:27:26.186	WT901BLE68-01(48591DE3C19B)	-0.724	-0.953	0.016	2.808	-11.475	52.795	-76.22	31.51	-87.56	-65.562	-35.868	1.960	-0.64639	0.34805	-0.54837	0.40027	30.2	13111	100
2025-3-27 20:27:26.186	WT901BLE68-01(48591DE3C19B)	-0.724	-1.445	0.113	0.732	-16.541	0.916	-76.12	31.48	-87.43	-65.562	-35.868	1.960	-0.64639	0.34805	-0.54837	0.40027	30.2	13111	100
2025-3-27 20:27:26.186	WT901BLE68-01(48591DE3C19B)	-0.894	-1.445	0.113	0.732	-16.541	0.916	-76.04	31.44	-87.29	-65.562	-35.868	1.960	-0.64639	0.34805	-0.54837	0.40027	30.2	13111	100
2025-3-27 20:27:26.187	WT901BLE68-01(48591DE3C19B)	-0.894	-1.726	0.327	-2.930	-41.138	-58.472	-75.94	30.77	-87.04	-65.562	-35.868	1.960	-0.64639	0.34805	-0.54837	0.40027	30.2	13111	100
2025-3-27 20:27:26.187	WT901BLE68-01(48591DE3C19B)	-1.088	-1.726	0.327	-2.930	-41.138	-58.472	-75.84	30.10	-86.80	-65.562	-35.868	1.960	-0.64639	0.34805	-0.54837	0.40027	30.2	13111	100
2025-3-27 20:27:26.187	WT901BLE68-01(48591DE3C19B)	-1.088	-1.787	0.531	-3.662	-32.959	-75.012	-75.82	29.29	-86.70	-65.562	-35.868	1.960	-0.64639	0.34805	-0.54837	0.40027	30.2	13111	100
2025-3-27 20:27:26.187	WT901BLE68-01(48591DE3C19B)	-0.767	-1.787	0.531	-3.662	-32.959	-75.012	-75.79	28.49	-86.61	-65.562	-35.868	1.960	-0.64639	0.34805	-0.54837	0.40027	30.2	13111	100
2025-3-27 20:27:26.217	WT901BLE68-01(48591DE3C19B)	-0.767	-1.264	0.578	11.475	21.240	-68.970	-75.89	27.88	-87.10	-65.562	-35.868	1.960	-0.64639	0.34805	-0.54837	0.40027	30.2	13111	100
2025-3-27 20:27:26.217	WT901BLE68-01(48591DE3C19B)	-0.429	-1.264	0.578	11.475	21.240	-68.970	-75.96	27.27	-87.59	-65.562	-35.868	1.960	-0.64639	0.34805	-0.54837	0.40027	30.2	13111	100
2025-3-27 20:27:26.217	WT901BLE68-01(48591DE3C19B)	-0.429	-0.938	0.477	2.258	54.443	-50.354	-76.26	26.93	-88.40	-65.562	-35.868	1.960	-0.64862	0.30280	-0.54993	0.43021	30.2	13111	100
2025-3-27 20:27:26.217	WT901BLE68-01(48591DE3C19B)	-0.245	-0.938	0.477	2.258	54.443	-50.354	-76.54	26.58	-89.19	-65.562	-35.868	1.960	-0.64862	0.30280	-0.54993	0.43021	30.2	13111	100
2025-3-27 20:27:26.278	WT901BLE68-01(48591DE3C19B)	-0.245	-0.684	0.293	4.456	48.767	-24.780	-76.74	26.46	-89.86	-65.562	-35.868	1.960	-0.64862	0.30280	-0.54993	0.43021	30.2	13111	100
2025-3-27 20:27:26.278	WT901BLE68-01(48591DE3C19B)	-0.412	-0.684	0.293	4.456	48.767	-24.780	-76.93	26.33	-90.52	-65.562	-35.868	1.960	-0.64862	0.30280	-0.54993	0.43021	30.2	13111	100
2025-3-27 20:27:26.278	WT901BLE68-01(48591DE3C19B)	-0.412	-0.517	0.148	-12.329	8.301	-21.973	-77.09	26.14	-90.74	-65.562	-35.868	1.960	-0.64862	0.30280	-0.54993	0.43021	30.2	13111	100
2025-3-27 20:27:26.278	WT901BLE68-01(48591DE3C19B)	-0.474	-0.517	0.148	-12.329	8.301	-21.973	-77.24	25.96	-90.95	-65.562	-35.868	1.960	-0.64862	0.30280	-0.54993	0.43021	30.2	13111	100
2025-3-27 20:27:26.304	WT901BLE68-01(48591DE3C19B)	-0.474	-0.684	0.055	-34.546	-45.654	-14.893	-77.37	25.72	-90.56	-65.562	-35.868	1.960	-0.64862	0.30280	-0.54993	0.43021	30.2	13111	100
2025-3-27 20:27:26.304	WT901BLE68-01(48591DE3C19B)	-0.512	-0.684	0.055	-34.546	-45.654	-14.893	-77.49	25.50	-90.17	-65.562	-35.868	1.960	-0.64862	0.30280	-0.54993	0.43021	30.2	13111	100
2025-3-27 20:27:26.304	WT901BLE68-01(48591DE3C19B)	-0.512	-0.833	0.130	-26.611	-53.589	-11.353	-77.50	25.30	-89.68	-65.562	-35.868	1.960	-0.64862	0.30280	-0.54993	0.43021	30.2	13111	100
2025-3-27 20:27:26.304	WT901BLE68-01(48591DE3C19B)	-0.543	-0.833	0.130	-26.611	-53.589	-11.353	-77.52	25.09	-89.20	-65.562	-35.868	1.960	-0.64862	0.30280	-0.54993	0.43021	30.2	13111	100
2025-3-27 20:27:26.365	WT901BLE68-01(48591DE3C19B)	-0.543	-0.833	0.229	-13.123	-44.373	-16.968	-77.45	24.86	-88.82	-65.562	-35.868	1.960	-0.64862	0.30280	-0.54993	0.43021	30.2	13111	100
2025-3-27 20:27:26.365	WT901BLE68-01(48591DE3C19B)	-0.458	-0.833	0.229	-13.123	-44.373	-16.968	-77.38	24.63	-88.46	-65.562	-35.868	1.960	-0.64862	0.30280	-0.54993	0.43021	30.2	13111	100
2025-3-27 20:27:26.365	WT901BLE68-01(48591DE3C19B)	-0.458	-0.542	0.255	-0.305	-34.241	-10.803	-77.22	24.48	-88.19	-65.562	-35.868	1.960	-0.64862	0.30280	-0.54993	0.43021	30.2	13111	100
2025-3-27 20:27:26.365	WT901BLE68-01(48591DE3C19B)	-0.338	-0.542	0.255	-0.305	-34.241	-10.803	-77.06	24.34	-87.93	-65.562	-35.868	1.960	-0.64862	0.30280	-0.54993	0.43021	30.2	13111	100
2025-3-27 20:27:26.397	WT901BLE68-01(48591DE3C19B)	-0.338	-0.258	0.240	5.920	-14.038	10.742	-76.90	24.46	-87.84	-65.562	-35.868	1.960	-0.64862	0.30280	-0.54993	0.43021	30.2	13111	100
2025-3-27 20:27:26.397	WT901BLE68-01(48591DE3C19B)	-0.279	-0.258	0.240	5.920	-14.038	10.742	-76.73	24.57	-87.75	-65.562	-35.868	1.960	-0.64862	0.30280	-0.54993	0.43021	30.2	13111	100
2025-3-27 20:27:26.397	WT901BLE68-01(48591DE3C19B)	-0.279	-0.126	0.233	5.615	4.028	25.330	-76.62	24.87	-87.83	-65.562	-35.868	1.960	-0.64862	0.30280	-0.54993	0.43021	30.2	13111	100
2025-3-27 20:27:26.397	WT901BLE68-01(48591DE3C19B)	-0.289	-0.126	0.233	5.615	4.028	25.330	-76.51	25.18	-87.92	-65.562	-35.868	1.960	-0.64862	0.30280	-0.54993	0.43021	30.2	13111	100
2025-3-27 20:27:26.454	WT901BLE68-01(48591DE3C19B)	-0.289	-0.170	0.208	-6.226	3.174	37.354	-76.48	25.60	-87.98	-65.562	-35.868	1.960	-0.64862	0.30280	-0.54993	0.43021	30.2	13111	100
2025-3-27 20:27:26.455	WT901BLE68-01(48591DE3C19B)	-0.367	-0.170	0.208	-6.226	3.174	37.354	-76.45	26.02	-88.04	-65.562	-35.868	1.960	-0.64862	0.30280	-0.54993	0.43021	30.2	13111	100
2025-3-27 20:27:26.455	WT901BLE68-01(48591DE3C19B)	-0.367	-0.393	0.168	-25.391	-32.715	46.692	-76.42	26.44	-87.69	-65.562	-35.868	1.960	-0.64862	0.30280	-0.54993	0.43021	30.2	13111	100
2025-3-27 20:27:26.455	WT901BLE68-01(48591DE3C19B)	-0.278	-0.393	0.168	-25.391	-32.715	46.692	-76.39	26.87	-87.34	-68.110	-34.692	2.058	-0.64862	0.30280	-0.54993	0.43021	30.2	13111	100
2025-3-27 20:27:26.456	WT901BLE68-01(48591DE3C19B)	-0.278	-0.628	0.103	-41.748	-67.078	50.049	-76.35	27.24	-86.60	-68.110	-34.692	2.058	-0.64862	0.30280	-0.54993	0.43021	30.2	13111	100
2025-3-27 20:27:26.456	WT901BLE68-01(48591DE3C19B)	-0.258	-0.628	0.103	-41.748	-67.078	50.049	-76.32	27.60	-85.84	-68.110	-34.692	2.058	-0.64862	0.30280	-0.54993	0.43021	30.2	13111	100
2025-3-27 20:27:26.456	WT901BLE68-01(48591DE3C19B)	-0.258	-1.079	0.155	-54.016	-72.266	43.640	-76.40	27.88	-85.03	-68.110	-34.692	2.058	-0.64862	0.30280	-0.54993	0.43021	30.2	13111	100
2025-3-27 20:27:26.456	WT901BLE68-01(48591DE3C19B)	-0.477	-1.079	0.155	-54.016	-72.266	43.640	-76.49	28.14	-84.21	-68.110	-34.692	2.058	-0.64862	0.30280	-0.54993	0.43021	30.2	13111	100
2025-3-27 20:27:26.515	WT901BLE68-01(48591DE3C19B)	-0.477	-2.147	0.234	-53.345	-80.200	3.174	-76.60	27.97	-83.40	-68.110	-34.692	2.058	-0.64862	0.30280	-0.54993	0.43021	30.2	13111	100
2025-3-27 20:27:26.515	WT901BLE68-01(48591DE3C19B)	-1.174	-2.147	0.234	-53.345	-80.200	3.174	-76.73	27.79	-82.58	-68.110	-34.692	2.058	-0.64862	0.30280	-0.54993	0.43021	30.2	13111	100
2025-3-27 20:27:26.516	WT901BLE68-01(48591DE3C19B)	-2.348	-5.587	0.527	-8.789	-77.881	-28.259	-76.48	27.29	-81.87	-68.110	-34.692	2.058	-0.64862	0.30280	-0.54993	0.43021	30.2	13111	100
2025-3-27 20:27:26.516	WT901BLE68-01(48591DE3C19B)	-0.670	-11.174	1.054	-8.789	-77.881	-28.259	-76.25	26.77	-81.16	-68.110	-34.692	2.058	-0.64862	0.30280	-0.54993	0.43021	30.2	13111	100
2025-3-27 20:27:26.544	WT901BLE68-01(48591DE3C19B)	-0.670	-2.026	0.308	36.560	-52.002	-40.222	-75.73	26.19	-80.78	-68.110	-34.692	2.058	-0.64862	0.30280	-0.54993	0.43021	30.2	13111	100
2025-3-27 20:27:26.544	WT901BLE68-01(48591DE3C19B)	-0.475	-2.026	0.308	36.560	-52.002	-40.222	-75.22	25.61	-80.40	-68.110	-34.692	2.058	-0.64862	0.30280	-0.54993	0.43021	30.2	13111	100
2025-3-27 20:27:26.544	WT901BLE68-01(48591DE3C19B)	-0.295	-1.581	0.158	32.227	0.732	-39.429	-75.00	25.19	-80.59	-68.110	-34.692	2.058	-0.64862	0.30280	-0.54993	0.43021	30.2	13111	100
2025-3-27 20:27:26.544	WT901BLE68-01(48591DE3C19B)	-0.295	-1.328	0.160	43.030	64.270	-38.391	-74.87	24.85	-81.11	-68.110	-34.692	2.058	-0.64862	0.30280	-0.54993	0.43021	30.2	13111	100
2025-3-27 20:27:26.577	WT901BLE68-01(48591DE3C19B)	-0.205	-1.328	0.160	43.030	64.270	-38.391	-74.82	24.59	-81.96	-68.110	-34.692	2.058	-0.64862	0.30280	-0.54993	0.43021	30.2	13111	100
2025-3-27 20:27:26.578	WT901BLE68-01(48591DE3C19B)	-0.205	-0.903	0.202	47.668	102.295	-21.362	-74.82	24.47	-82.99	-68.110	-34.692	2.058	-0.64862	0.30280	-0.54993	0.43021	30.2	13111	100
2025-3-27 20:27:26.578	WT901BLE68-01(48591DE3C19B)	-0.250	-0.903	0.202	47.668	102.295	-21.362	-74.87	24.48	-84.19	-68.110	-34.692	2.058	-0.64862	0.30280	-0.54993	0.43021	30.2	13111	100
2025-3-27 20:27:26.578	WT901BLE68-01(48591DE3C19B)	-0.250	-0.597	0.274	26.550	78.857	-12.634	-74.96	24.51	-85.24	-68.110	-34.692	2.058	-0.64862	0.30280	-0.54993	0.43021	30.2	13111	100
2025-3-27 20:27:26.635	WT901BLE68-01(48591DE3C19B)	-0.256	-0.597	0.274	26.550	78.857	-12.634	-75.10	24.53	-86.15	-68.110	-34.692	2.058	-0.64862	0.30280	-0.54993	0.43021	30.2	13111	100
2025-3-27 20:27:26.635	WT901BLE68-01(48591DE3C19B)	-0.256	-0.564	0.285	2.869	18.616	-15.137	-75.22	24.47	-86.75	-68.110	-34.692	2.058	-0.65152	0.31815	-0.53165	0.43765	30.2	13111	100
2025-3-27 20:27:26.635	WT901BLE68-01(48591DE3C19B)	-0.226	-0.564	0.285	2.869	18.616	-15.137	-75.32	24.33	-87.03	-68.110	-34.692	2.058	-0.65152	0.31815	-0.53165	0.43765	30.2	13111	100
2025-3-27 20:27:26.635	WT901BLE68-01(48591DE3C19B)	-0.226	-0.488	0.267	6.836	-1.343	-3.784	-75.34	24.21	-87.19	-68.110	-34.692	2.058	-0.65152	0.31815	-0.53165	0.43765	30.2	13111	100
2025-3-27 20:27:26.664	WT901BLE68-01(48591DE3C19B)	-0.255	-0.488	0.267	6.836	-1.343	-3.784	-75.29	24.13	-87.24	-68.110	-34.692	2.058	-0.65152	0.31815	-0.53165	0.43765	30.2	13111	100
2025-3-27 20:27:26.664	WT901BLE68-01(48591DE3C19B)	-0.255	-0.271	0.243	15.869	9.033	8.240	-75.21	24.12	-87.32	-68.110	-34.692	2.058	-0.65152	0.31815	-0.53165	0.43765	30.2	13111	100
2025-3-27 20:27:26.664	WT901BLE68-01(48591DE3C19B)	-0.296	-0.271	0.243	15.869	9.033	8.240	-75.10	24.19	-87.45	-68.110	-34.692	2.058	-0.65152	0.31815	-0.53165	0.43765	30.2	13111	100
2025-3-27 20:27:26.664	WT901BLE68-01(48591DE3C19B)	-0.296	-0.131	0.197	18.311	17.639	26.489	-74.97	24.35	-87.59	-68.110	-34.692	2.058	-0.65152	0.31815	-0.53165	0.43765	30.2	13111	100
2025-3-27 20:27:26.725	WT901BLE68-01(48591DE3C19B)	-0.287	-0.131	0.197	18.311	17.639	26.489	-74.83	24.63	-87.76	-68.110	-34.692	2.058	-0.65152	0.31815	-0.53165	0.43765	30.2	13111	100
2025-3-27 20:27:26.725	WT901BLE68-01(48591DE3C19B)	-0.287	-0.149	0.158	15.747	15.198	43.457	-74.69	24.98	-87.90	-68.110	-34.692	2.058	-0.65152	0.31815	-0.53165	0.43765	30.2	13111	100
2025-3-27 20:27:26.725	WT901BLE68-01(48591DE3C19B)	-0.274	-0.149	0.158	15.747	15.198	43.457	-74.54	25.43	-87.99	-68.110	-34.692	2.058	-0.65152	0.31815	-0.53165	0.43765	30.2	13111	100
2025-3-27 20:27:26.725	WT901BLE68-01(48591DE3C19B)	-0.274	-0.233	0.160	16.174	7.935	53.467	-74.36	25.91	-88.04	-68.110	-34.692	2.058	-0.65152	0.31815	-0.53165	0.43765	30.2	13111	100
2025-3-27 20:27:26.754	WT901BLE68-01(48591DE3C19B)	-0.364	-0.233	0.160	16.174	7.935	53.467	-74.15	26.44	-88.04	-68.110	-34.692	2.058	-0.65152	0.31815	-0.53165	0.43765	30.2	13111	100
2025-3-27 20:27:26.754	WT901BLE68-01(48591DE3C19B)	-0.364	-0.348	0.164	12.817	-6.714	57.190	-73.92	26.96	-87.96	-68.110	-34.692	2.058	-0.65152	0.31815	-0.53165	0.43765	30.2	13111	100
2025-3-27 20:27:26.754	WT901BLE68-01(48591DE3C19B)	-0.444	-0.348	0.164	12.817	-6.714	57.190	-73.66	27.49	-87.79	-68.110	-34.692	2.058	-0.65152	0.31815	-0.53165	0.43765	30.2	13111	100
2025-3-27 20:27:26.754	WT901BLE68-01(48591DE3C19B)	-0.444	-0.508	0.187	6.042	-26.062	59.021	-73.37	28.00	-87.51	-68.110	-34.692	2.058	-0.65152	0.31815	-0.53165	0.43765	30.2	13111	100
2025-3-27 20:27:26.786	WT901BLE68-01(48591DE3C19B)	-0.475	-0.508	0.187	6.042	-26.062	59.021	-73.07	28.49	-87.12	-68.110	-34.692	2.058	-0.65152	0.31815	-0.53165	0.43765	30.2	13111	100
2025-3-27 20:27:26.787	WT901BLE68-01(48591DE3C19B)	-0.475	-0.835	0.186	-7.385	-41.016	52.490	-72.80	28.93	-86.65	-68.110	-34.692	2.058	-0.65152	0.31815	-0.53165	0.43765	30.2	13111	100
2025-3-27 20:27:26.787	WT901BLE68-01(48591DE3C19B)	-0.521	-0.835	0.186	-7.385	-41.016	52.490	-72.56	29.32	-86.12	-68.110	-34.692	2.058	-0.65152	0.31815	-0.53165	0.43765	30.2	13111	100
2025-3-27 20:27:26.787	WT901BLE68-01(48591DE3C19B)	-0.521	-1.309	0.214	-8.118	-40.710	22.278	-72.35	29.55	-85.63	-68.110	-34.692	2.058	-0.65152	0.31815	-0.53165	0.43765	30.2	13111	100
2025-3-27 20:27:26.844	WT901BLE68-01(48591DE3C19B)	-0.526	-1.309	0.214	-8.118	-40.710	22.278	-72.19	29.63	-85.18	-68.110	-34.692	2.058	-0.65152	0.31815	-0.53165	0.43765	30.2	13111	100
2025-3-27 20:27:26.844	WT901BLE68-01(48591DE3C19B)	-0.526	-1.732	0.263	7.202	-25.146	-33.630	-72.04	29.46	-84.92	-71.246	-35.280	3.038	-0.65152	0.31815	-0.53165	0.43765	30.2	13111	100
2025-3-27 20:27:26.845	WT901BLE68-01(48591DE3C19B)	-0.699	-1.732	0.263	7.202	-25.146	-33.630	-71.92	29.04	-84.84	-71.246	-35.280	3.038	-0.65152	0.31815	-0.53165	0.43765	30.2	13111	100
2025-3-27 20:27:26.845	WT901BLE68-01(48591DE3C19B)	-0.699	-1.889	0.342	18.677	-1.709	-63.232	-71.85	28.52	-84.93	-71.246	-35.280	3.038	-0.65152	0.31815	-0.53165	0.43765	30.2	13111	100
2025-3-27 20:27:26.877	WT901BLE68-01(48591DE3C19B)	-0.877	-1.889	0.342	18.677	-1.709	-63.232	-71.79	27.88	-85.19	-71.246	-35.280	3.038	-0.65152	0.31815	-0.53165	0.43765	30.2	13111	100
2025-3-27 20:27:26.877	WT901BLE68-01(48591DE3C19B)	-0.877	-1.513	0.370	32.898	60.974	-88.135	-71.85	27.23	-85.84	-71.246	-35.280	3.038	-0.65152	0.31815	-0.53165	0.43765	30.2	13111	100
2025-3-27 20:27:26.877	WT901BLE68-01(48591DE3C19B)	-0.778	-1.513	0.370	32.898	60.974	-88.135	-71.98	26.57	-86.85	-71.246	-35.280	3.038	-0.65152	0.31815	-0.53165	0.43765	30.2	13111	100
2025-3-27 20:27:26.877	WT901BLE68-01(48591DE3C19B)	-0.778	-1.036	0.427	42.542	116.577	-83.069	-72.19	26.02	-88.13	-71.246	-35.280	3.038	-0.65152	0.31815	-0.53165	0.43765	30.2	13111	100
2025-3-27 20:27:26.904	WT901BLE68-01(48591DE3C19B)	-0.636	-1.036	0.427	42.542	116.577	-83.069	-72.44	25.58	-89.69	-71.246	-35.280	3.038	-0.65152	0.31815	-0.53165	0.43765	30.2	13111	100
2025-3-27 20:27:26.904	WT901BLE68-01(48591DE3C19B)	-0.636	-0.746	0.405	33.936	138.123	-78.491	-72.77	25.20	-91.35	-71.246	-35.280	3.038	-0.65152	0.31815	-0.53165	0.43765	30.2	13111	100
2025-3-27 20:27:26.904	WT901BLE68-01(48591DE3C19B)	-0.558	-0.746	0.405	33.936	138.123	-78.491	-73.16	24.87	-93.10	-71.246	-35.280	3.038	-0.65152	0.31815	-0.53165	0.43765	30.2	13111	100
2025-3-27 20:27:26.904	WT901BLE68-01(48591DE3C19B)	-0.558	-0.544	0.259	25.208	112.793	-63.232	-73.51	24.58	-94.68	-71.246	-35.280	3.038	-0.65152	0.31815	-0.53165	0.43765	30.2	13111	100
2025-3-27 20:27:26.964	WT901BLE68-01(48591DE3C19B)	-0.579	-0.544	0.259	25.208	112.793	-63.232	-73.83	24.32	-96.10	-71.246	-35.280	3.038	-0.65152	0.31815	-0.53165	0.43765	30.2	13111	100
2025-3-27 20:27:26.965	WT901BLE68-01(48591DE3C19B)	-0.579	-0.411	0.202	4.089	39.856	-53.955	-74.07	24.00	-97.12	-71.246	-35.280	3.038	-0.65152	0.31815	-0.53165	0.43765	30.2	13111	100
2025-3-27 20:27:26.965	WT901BLE68-01(48591DE3C19B)	-0.473	-0.411	0.202	4.089	39.856	-53.955	-74.25	23.64	-97.74	-71.246	-35.280	3.038	-0.65152	0.31815	-0.53165	0.43765	30.2	13111	100
2025-3-27 20:27:26.965	WT901BLE68-01(48591DE3C19B)	-0.473	-0.446	0.188	-17.761	-20.020	-38.574	-74.40	23.27	-98.03	-71.246	-35.280	3.038	-0.65152	0.31815	-0.53165	0.43765	30.2	13111	100
2025-3-27 20:27:26.997	WT901BLE68-01(48591DE3C19B)	-0.457	-0.446	0.188	-17.761	-20.020	-38.574	-74.51	22.91	-97.98	-71.246	-35.280	3.038	-0.65152	0.31815	-0.53165	0.43765	30.2	13111	100
2025-3-27 20:27:26.997	WT901BLE68-01(48591DE3C19B)	-0.457	-0.422	0.242	-14.832	-30.212	-20.813	-74.59	22.63	-97.86	-71.246	-35.280	3.038	-0.65152	0.31815	-0.53165	0.43765	30.2	13111	100
2025-3-27 20:27:26.997	WT901BLE68-01(48591DE3C19B)	-0.456	-0.422	0.242	-14.832	-30.212	-20.813	-74.60	22.42	-97.67	-71.246	-35.280	3.038	-0.65152	0.31815	-0.53165	0.43765	30.2	13111	100
2025-3-27 20:27:26.997	WT901BLE68-01(48591DE3C19B)	-0.456	-0.270	0.282	-13.733	-18.982	-5.981	-74.63	22.30	-97.53	-71.246	-35.280	3.038	-0.65152	0.31815	-0.53165	0.43765	30.2	13111	100
2025-3-27 20:27:27.26	WT901BLE68-01(48591DE3C19B)	-0.444	-0.270	0.282	-13.733	-18.982	-5.981	-74.65	22.27	-97.44	-71.246	-35.280	3.038	-0.65152	0.31815	-0.53165	0.43765	30.2	13111	100
2025-3-27 20:27:27.27	WT901BLE68-01(48591DE3C19B)	-0.444	-0.151	0.292	-15.015	-13.794	14.832	-74.67	22.47	-97.36	-71.246	-35.280	3.038	-0.65152	0.31815	-0.53165	0.43765	30.2	13111	100
2025-3-27 20:27:27.27	WT901BLE68-01(48591DE3C19B)	-0.458	-0.151	0.292	-15.015	-13.794	14.832	-74.67	22.66	-97.30	-71.246	-35.280	3.038	-0.60538	0.27493	-0.55002	0.50525	30.2	13111	100
2025-3-27 20:27:27.27	WT901BLE68-01(48591DE3C19B)	-0.458	-0.129	0.251	-18.311	-21.179	32.898	-74.65	23.01	-97.13	-71.246	-35.280	3.038	-0.60538	0.27493	-0.55002	0.50525	30.2	13111	100
2025-3-27 20:27:27.85	WT901BLE68-01(48591DE3C19B)	-0.461	-0.129	0.251	-18.311	-21.179	32.898	-74.61	23.37	-96.97	-71.246	-35.280	3.038	-0.60538	0.27493	-0.55002	0.50525	30.2	13111	100
2025-3-27 20:27:27.85	WT901BLE68-01(48591DE3C19B)	-0.461	-0.182	0.160	-27.527	-43.396	41.626	-74.55	23.75	-96.57	-71.246	-35.280	3.038	-0.60538	0.27493	-0.55002	0.50525	30.2	13111	100
2025-3-27 20:27:27.85	WT901BLE68-01(48591DE3C19B)	-0.491	-0.182	0.160	-27.527	-43.396	41.626	-74.48	24.14	-96.19	-71.246	-35.280	3.038	-0.60538	0.27493	-0.55002	0.50525	30.2	13111	100
2025-3-27 20:27:27.85	WT901BLE68-01(48591DE3C19B)	-0.491	-0.369	0.116	-40.527	-67.383	43.030	-74.43	24.47	-95.54	-71.246	-35.280	3.038	-0.60538	0.27493	-0.55002	0.50525	30.2	13111	100
2025-3-27 20:27:27.114	WT901BLE68-01(48591DE3C19B)	-0.638	-0.369	0.116	-40.527	-67.383	43.030	-74.38	24.81	-94.89	-71.246	-35.280	3.038	-0.60538	0.27493	-0.55002	0.50525	30.2	13111	100
2025-3-27 20:27:27.114	WT901BLE68-01(48591DE3C19B)	-0.638	-0.757	0.193	-54.688	-96.252	38.879	-74.35	25.03	-93.93	-71.246	-35.280	3.038	-0.60538	0.27493	-0.55002	0.50525	30.2	13111	100
2025-3-27 20:27:27.115	WT901BLE68-01(48591DE3C19B)	-0.796	-0.757	0.193	-54.688	-96.252	38.879	-74.33	25.25	-92.97	-71.246	-35.280	3.038	-0.60538	0.27493	-0.55002	0.50525	30.2	13111	100
2025-3-27 20:27:27.115	WT901BLE68-01(48591DE3C19B)	-0.796	-1.498	0.250	-70.679	-133.667	25.208	-74.34	25.22	-91.60	-71.246	-35.280	3.038	-0.60538	0.27493	-0.55002	0.50525	30.2	13111	100
2025-3-27 20:27:27.145	WT901BLE68-01(48591DE3C19B)	-0.785	-1.498	0.250	-70.679	-133.667	25.208	-74.38	25.19	-90.21	-71.246	-35.280	3.038	-0.60538	0.27493	-0.55002	0.50525	30.2	13111	100
2025-3-27 20:27:27.145	WT901BLE68-01(48591DE3C19B)	-0.785	-2.417	0.230	-58.594	-153.870	-0.916	-74.27	24.82	-88.67	-71.246	-35.280	3.038	-0.60538	0.27493	-0.55002	0.50525	30.2	13111	100
2025-3-27 20:27:27.145	WT901BLE68-01(48591DE3C19B)	-0.840	-2.417	0.230	-58.594	-153.870	-0.916	-74.19	24.44	-87.11	-71.246	-35.280	3.038	-0.60538	0.27493	-0.55002	0.50525	30.2	13111	100
2025-3-27 20:27:27.145	WT901BLE68-01(48591DE3C19B)	-0.840	-2.482	0.295	1.770	-140.930	-0.122	-73.58	24.08	-85.69	-71.246	-35.280	3.038	-0.60538	0.27493	-0.55002	0.50525	30.2	13111	100
2025-3-27 20:27:27.207	WT901BLE68-01(48591DE3C19B)	-0.766	-2.482	0.295	1.770	-140.930	-0.122	-73.00	23.70	-84.29	-71.246	-35.280	3.038	-0.60538	0.27493	-0.55002	0.50525	30.2	13111	100
2025-3-27 20:27:27.207	WT901BLE68-01(48591DE3C19B)	-0.766	-1.759	0.336	11.963	-99.365	-3.479	-72.51	23.40	-83.34	-71.246	-35.280	3.038	-0.60538	0.27493	-0.55002	0.50525	30.2	13111	100
2025-3-27 20:27:27.207	WT901BLE68-01(48591DE3C19B)	-0.476	-1.759	0.336	11.963	-99.365	-3.479	-72.03	23.08	-82.39	-71.246	-35.280	3.038	-0.60538	0.27493	-0.55002	0.50525	30.2	13111	100
2025-3-27 20:27:27.207	WT901BLE68-01(48591DE3C19B)	-0.476	-1.581	0.291	20.203	-40.771	6.836	-71.70	23.04	-82.02	-71.246	-35.280	3.038	-0.60538	0.27493	-0.55002	0.50525	30.2	13111	100
2025-3-27 20:27:27.236	WT901BLE68-01(48591DE3C19B)	-0.250	-1.581	0.291	20.203	-40.771	6.836	-71.37	22.98	-81.66	-71.246	-35.280	3.038	-0.60538	0.27493	-0.55002	0.50525	30.2	13111	100
2025-3-27 20:27:27.236	WT901BLE68-01(48591DE3C19B)	-0.250	-1.233	0.232	39.368	32.776	24.475	-71.12	23.33	-81.99	-71.246	-35.280	3.038	-0.60538	0.27493	-0.55002	0.50525	30.2	13111	100
2025-3-27 20:27:27.236	WT901BLE68-01(48591DE3C19B)	-0.272	-1.233	0.232	39.368	32.776	24.475	-70.88	23.66	-82.32	-71.246	-35.280	3.038	-0.60538	0.27493	-0.55002	0.50525	30.2	13111	100
2025-3-27 20:27:27.237	WT901BLE68-01(48591DE3C19B)	-0.272	-0.880	0.146	42.053	78.369	39.001	-70.78	24.28	-83.06	-77.616	-36.652	1.470	-0.60538	0.27493	-0.55002	0.50525	30.2	13111	100
2025-3-27 20:27:27.266	WT901BLE68-01(48591DE3C19B)	-0.345	-0.880	0.146	42.053	78.369	39.001	-70.70	24.90	-83.80	-77.616	-36.652	1.470	-0.60538	0.27493	-0.55002	0.50525	30.2	13111	100
2025-3-27 20:27:27.266	WT901BLE68-01(48591DE3C19B)	-0.345	-0.750	0.104	25.513	89.172	38.635	-70.83	25.54	-84.67	-77.616	-36.652	1.470	-0.60538	0.27493	-0.55002	0.50525	30.2	13111	100
2025-3-27 20:27:27.266	WT901BLE68-01(48591DE3C19B)	-0.362	-0.750	0.104	25.513	89.172	38.635	-70.98	26.17	-85.52	-77.616	-36.652	1.470	-0.60538	0.27493	-0.55002	0.50525	30.2	13111	100
2025-3-27 20:27:27.266	WT901BLE68-01(48591DE3C19B)	-0.362	-0.719	0.089	17.151	98.694	41.870	-71.27	26.86	-86.47	-77.616	-36.652	1.470	-0.60538	0.27493	-0.55002	0.50525	30.2	13111	100
2025-3-27 20:27:27.324	WT901BLE68-01(48591DE3C19B)	-0.461	-0.719	0.089	17.151	98.694	41.870	-71.56	27.55	-87.43	-77.616	-36.652	1.470	-0.60538	0.27493	-0.55002	0.50525	30.2	13111	100
2025-3-27 20:27:27.324	WT901BLE68-01(48591DE3C19B)	-0.461	-0.652	0.137	12.573	104.980	42.175	-71.95	28.25	-88.46	-77.616	-36.652	1.470	-0.60538	0.27493	-0.55002	0.50525	30.2	13111	100
2025-3-27 20:27:27.324	WT901BLE68-01(48591DE3C19B)	-0.555	-0.652	0.137	12.573	104.980	42.175	-72.34	28.95	-89.50	-77.616	-36.652	1.470	-0.60538	0.27493	-0.55002	0.50525	30.2	13111	100
2025-3-27 20:27:27.324	WT901BLE68-01(48591DE3C19B)	-0.555	-0.581	0.194	2.747	88.318	35.645	-72.78	29.53	-90.39	-77.616	-36.652	1.470	-0.60538	0.27493	-0.55002	0.50525	30.2	13111	100
2025-3-27 20:27:27.353	WT901BLE68-01(48591DE3C19B)	-0.580	-0.581	0.194	2.747	88.318	35.645	-73.21	30.11	-91.29	-77.616	-36.652	1.470	-0.60538	0.27493	-0.55002	0.50525	30.2	13111	100
2025-3-27 20:27:27.354	WT901BLE68-01(48591DE3C19B)	-0.580	-0.502	0.213	-1.953	60.181	32.837	-73.54	30.58	-91.90	-77.616	-36.652	1.470	-0.60538	0.27493	-0.55002	0.50525	30.2	13111	100
2025-3-27 20:27:27.354	WT901BLE68-01(48591DE3C19B)	-0.552	-0.502	0.213	-1.953	60.181	32.837	-73.88	31.06	-92.52	-77.616	-36.652	1.470	-0.60538	0.27493	-0.55002	0.50525	30.2	13111	100
2025-3-27 20:27:27.354	WT901BLE68-01(48591DE3C19B)	-0.552	-0.408	0.198	-4.456	30.823	32.959	-74.06	31.45	-92.81	-77.616	-36.652	1.470	-0.60538	0.27493	-0.55002	0.50525	30.2	13111	100
2025-3-27 20:27:27.385	WT901BLE68-01(48591DE3C19B)	-0.515	-0.408	0.198	-4.456	30.823	32.959	-74.25	31.86	-93.11	-77.616	-36.652	1.470	-0.60538	0.27493	-0.55002	0.50525	30.2	13111	100
2025-3-27 20:27:27.385	WT901BLE68-01(48591DE3C19B)	-0.515	-0.365	0.178	-8.179	-1.648	36.072	-74.27	32.21	-93.04	-77.616	-36.652	1.470	-0.60538	0.27493	-0.55002	0.50525	30.2	13111	100
2025-3-27 20:27:27.385	WT901BLE68-01(48591DE3C19B)	-0.418	-0.365	0.178	-8.179	-1.648	36.072	-74.28	32.57	-92.98	-77.616	-36.652	1.470	-0.60538	0.27493	-0.55002	0.50525	30.2	13111	100
2025-3-27 20:27:27.385	WT901BLE68-01(48591DE3C19B)	-0.418	-0.393	0.129	-14.282	-30.518	38.025	-74.17	32.87	-92.58	-77.616	-36.652	1.470	-0.60538	0.27493	-0.55002	0.50525	30.2	13111	100
2025-3-27 20:27:27.445	WT901BLE68-01(48591DE3C19B)	-0.331	-0.393	0.129	-14.282	-30.518	38.025	-74.05	33.17	-92.18	-77.616	-36.652	1.470	-0.60538	0.27493	-0.55002	0.50525	30.2	13111	100
2025-3-27 20:27:27.445	WT901BLE68-01(48591DE3C19B)	-0.331	-0.472	0.110	-15.808	-49.255	39.673	-73.83	33.44	-91.57	-77.616	-36.652	1.470	-0.60538	0.27493	-0.55002	0.50525	30.2	13111	100
2025-3-27 20:27:27.445	WT901BLE68-01(48591DE3C19B)	-0.311	-0.472	0.110	-15.808	-49.255	39.673	-73.61	33.70	-90.94	-77.616	-36.652	1.470	-0.60538	0.27493	-0.55002	0.50525	30.2	13111	100
2025-3-27 20:27:27.445	WT901BLE68-01(48591DE3C19B)	-0.311	-0.570	0.133	-13.733	-56.458	42.603	-73.31	33.95	-90.23	-77.616	-36.652	1.470	-0.60538	0.27493	-0.55002	0.50525	30.2	13111	100
2025-3-27 20:27:27.477	WT901BLE68-01(48591DE3C19B)	-0.316	-0.570	0.133	-13.733	-56.458	42.603	-73.01	34.21	-89.51	-77.616	-36.652	1.470	-0.66870	0.23730	-0.56818	0.41663	30.2	13111	100
2025-3-27 20:27:27.477	WT901BLE68-01(48591DE3C19B)	-0.275	-0.685	0.217	-8.545	-54.810	46.814	-72.66	34.49	-88.79	-77.616	-36.652	1.470	-0.66870	0.23730	-0.56818	0.41663	30.2	13111	100
2025-3-27 20:27:27.477	WT901BLE68-01(48591DE3C19B)	-0.275	-0.742	0.293	0.122	-45.593	52.856	-72.28	34.80	-88.11	-77.616	-36.652	1.470	-0.66870	0.23730	-0.56818	0.41663	30.2	13111	100
2025-3-27 20:27:27.477	WT901BLE68-01(48591DE3C19B)	-0.208	-0.742	0.293	0.122	-45.593	52.856	-71.87	35.15	-87.47	-77.616	-36.652	1.470	-0.66870	0.23730	-0.56818	0.41663	30.2	13111	100
2025-3-27 20:27:27.505	WT901BLE68-01(48591DE3C19B)	-0.208	-0.898	0.314	3.479	-22.827	53.162	-71.52	35.51	-86.96	-77.616	-36.652	1.470	-0.66870	0.23730	-0.56818	0.41663	30.2	13111	100
2025-3-27 20:27:27.505	WT901BLE68-01(48591DE3C19B)	-0.231	-0.898	0.314	3.479	-22.827	53.162	-71.23	35.90	-86.57	-77.616	-36.652	1.470	-0.66870	0.23730	-0.56818	0.41663	30.2	13111	100
2025-3-27 20:27:27.505	WT901BLE68-01(48591DE3C19B)	-0.231	-1.165	0.272	9.521	8.728	43.884	-71.02	36.27	-86.38	-77.616	-36.652	1.470	-0.66870	0.23730	-0.56818	0.41663	30.2	13111	100
2025-3-27 20:27:27.505	WT901BLE68-01(48591DE3C19B)	-0.305	-1.165	0.272	9.521	8.728	43.884	-70.91	36.64	-86.39	-77.616	-36.652	1.470	-0.66870	0.23730	-0.56818	0.41663	30.2	13111	100
2025-3-27 20:27:27.564	WT901BLE68-01(48591DE3C19B)	-0.305	-1.438	0.177	13.550	36.011	20.630	-70.91	36.93	-86.61	-77.616	-36.652	1.470	-0.66870	0.23730	-0.56818	0.41663	30.2	13111	100
2025-3-27 20:27:27.565	WT901BLE68-01(48591DE3C19B)	-0.487	-1.438	0.177	13.550	36.011	20.630	-71.02	37.15	-87.03	-77.616	-36.652	1.470	-0.66870	0.23730	-0.56818	0.41663	30.2	13111	100
2025-3-27 20:27:27.565	WT901BLE68-01(48591DE3C19B)	-0.487	-1.830	0.279	15.259	45.593	-16.052	-71.21	37.20	-87.57	-77.616	-36.652	1.470	-0.66870	0.23730	-0.56818	0.41663	30.2	13111	100
2025-3-27 20:27:27.565	WT901BLE68-01(48591DE3C19B)	-0.751	-1.830	0.279	15.259	45.593	-16.052	-71.48	37.08	-88.24	-77.616	-36.652	1.470	-0.66870	0.23730	-0.56818	0.41663	30.2	13111	100
2025-3-27 20:27:27.596	WT901BLE68-01(48591DE3C19B)	-0.751	-2.129	0.376	20.996	34.668	-43.091	-71.70	36.82	-88.89	-77.616	-36.652	1.470	-0.66870	0.23730	-0.56818	0.41663	30.2	13111	100
2025-3-27 20:27:27.596	WT901BLE68-01(48591DE3C19B)	-0.780	-2.129	0.376	20.996	34.668	-43.091	-71.89	36.41	-89.52	-77.616	-36.652	1.470	-0.66870	0.23730	-0.56818	0.41663	30.2	13111	100
2025-3-27 20:27:27.596	WT901BLE68-01(48591DE3C19B)	-0.780	-1.745	0.482	24.353	13.916	-56.763	-72.00	35.91	-90.05	-77.616	-36.652	1.470	-0.66870	0.23730	-0.56818	0.41663	30.2	13111	100
2025-3-27 20:27:27.596	WT901BLE68-01(48591DE3C19B)	-0.564	-1.745	0.482	24.353	13.916	-56.763	-72.02	35.32	-90.47	-77.616	-36.652	1.470	-0.66870	0.23730	-0.56818	0.41663	30.2	13111	100
2025-3-27 20:27:27.654	WT901BLE68-01(48591DE3C19B)	-0.564	-1.417	0.508	7.935	13.489	-54.260	-72.11	34.74	-90.88	-77.616	-36.652	1.470	-0.66870	0.23730	-0.56818	0.41663	30.2	13111	100
2025-3-27 20:27:27.654	WT901BLE68-01(48591DE3C19B)	-0.456	-1.417	0.508	7.935	13.489	-54.260	-72.27	34.18	-91.29	-77.616	-36.652	1.470	-0.66870	0.23730	-0.56818	0.41663	30.2	13111	100
2025-3-27 20:27:27.655	WT901BLE68-01(48591DE3C19B)	-0.456	-1.267	0.500	-0.977	29.968	-54.016	-72.51	33.65	-91.77	-81.438	-32.634	-0.882	-0.66870	0.23730	-0.56818	0.41663	30.2	13111	100
2025-3-27 20:27:27.655	WT901BLE68-01(48591DE3C19B)	-0.434	-1.267	0.500	-0.977	29.968	-54.016	-72.83	33.14	-92.35	-81.438	-32.634	-0.882	-0.66870	0.23730	-0.56818	0.41663	30.2	13111	100
2025-3-27 20:27:27.685	WT901BLE68-01(48591DE3C19B)	-0.434	-1.056	0.449	-6.165	19.592	-46.814	-73.14	32.65	-92.85	-81.438	-32.634	-0.882	-0.66870	0.23730	-0.56818	0.41663	30.2	13111	100
2025-3-27 20:27:27.685	WT901BLE68-01(48591DE3C19B)	-0.374	-1.056	0.449	-6.165	19.592	-46.814	-73.41	32.18	-93.26	-81.438	-32.634	-0.882	-0.66870	0.23730	-0.56818	0.41663	30.2	13111	100
2025-3-27 20:27:27.685	WT901BLE68-01(48591DE3C19B)	-0.374	-0.880	0.404	-23.193	-22.583	-40.100	-73.63	31.70	-93.43	-81.438	-32.634	-0.882	-0.66870	0.23730	-0.56818	0.41663	30.2	13111	100
2025-3-27 20:27:27.685	WT901BLE68-01(48591DE3C19B)	-0.325	-0.880	0.404	-23.193	-22.583	-40.100	-73.80	31.18	-93.34	-81.438	-32.634	-0.882	-0.66870	0.23730	-0.56818	0.41663	30.2	13111	100
2025-3-27 20:27:27.745	WT901BLE68-01(48591DE3C19B)	-0.325	-0.869	0.405	-31.250	-49.072	-41.504	-73.92	30.62	-93.11	-81.438	-32.634	-0.882	-0.66870	0.23730	-0.56818	0.41663	30.2	13111	100
2025-3-27 20:27:27.745	WT901BLE68-01(48591DE3C19B)	-0.358	-0.869	0.405	-31.250	-49.072	-41.504	-74.01	30.03	-92.74	-81.438	-32.634	-0.882	-0.66870	0.23730	-0.56818	0.41663	30.2	13111	100
2025-3-27 20:27:27.745	WT901BLE68-01(48591DE3C19B)	-0.358	-0.837	0.384	-23.254	-44.128	-41.992	-74.09	29.44	-92.40	-81.438	-32.634	-0.882	-0.66870	0.23730	-0.56818	0.41663	30.2	13111	100
2025-3-27 20:27:27.745	WT901BLE68-01(48591DE3C19B)	-0.363	-0.837	0.384	-23.254	-44.128	-41.992	-74.13	28.86	-92.09	-81.438	-32.634	-0.882	-0.66870	0.23730	-0.56818	0.41663	30.2	13111	100
2025-3-27 20:27:27.746	WT901BLE68-01(48591DE3C19B)	-0.363	-0.758	0.313	-13.672	-22.034	-46.265	-74.19	28.29	-91.92	-81.438	-32.634	-0.882	-0.66870	0.23730	-0.56818	0.41663	30.2	13111	100
2025-3-27 20:27:27.746	WT901BLE68-01(48591DE3C19B)	-0.352	-0.758	0.313	-13.672	-22.034	-46.265	-74.26	27.74	-91.87	-81.438	-32.634	-0.882	-0.66870	0.23730	-0.56818	0.41663	30.2	13111	100
2025-3-27 20:27:27.746	WT901BLE68-01(48591DE3C19B)	-0.352	-0.678	0.267	-3.357	7.568	-50.476	-74.35	27.21	-91.99	-81.438	-32.634	-0.882	-0.66870	0.23730	-0.56818	0.41663	30.2	13111	100
2025-3-27 20:27:27.747	WT901BLE68-01(48591DE3C19B)	-0.383	-0.678	0.267	-3.357	7.568	-50.476	-74.47	26.71	-92.27	-81.438	-32.634	-0.882	-0.66870	0.23730	-0.56818	0.41663	30.2	13111	100
2025-3-27 20:27:27.835	WT901BLE68-01(48591DE3C19B)	-0.383	-0.625	0.248	5.371	25.208	-55.664	-74.58	26.21	-92.66	-81.438	-32.634	-0.882	-0.66870	0.23730	-0.56818	0.41663	30.2	13111	100
2025-3-27 20:27:27.835	WT901BLE68-01(48591DE3C19B)	-0.414	-0.625	0.248	5.371	25.208	-55.664	-74.69	25.72	-93.14	-81.438	-32.634	-0.882	-0.66870	0.23730	-0.56818	0.41663	30.2	13111	100
2025-3-27 20:27:27.835	WT901BLE68-01(48591DE3C19B)	-0.414	-0.607	0.258	10.620	25.879	-61.646	-74.76	25.20	-93.63	-81.438	-32.634	-0.882	-0.66870	0.23730	-0.56818	0.41663	30.2	13111	100
2025-3-27 20:27:27.835	WT901BLE68-01(48591DE3C19B)	-0.444	-0.607	0.258	10.620	25.879	-61.646	-74.82	24.66	-94.13	-81.438	-32.634	-0.882	-0.66870	0.23730	-0.56818	0.41663	30.2	13111	100
2025-3-27 20:27:27.836	WT901BLE68-01(48591DE3C19B)	-0.444	-0.610	0.285	13.550	20.142	-66.040	-74.84	24.10	-94.60	-81.438	-32.634	-0.882	-0.66870	0.23730	-0.56818	0.41663	30.2	13111	100
2025-3-27 20:27:27.836	WT901BLE68-01(48591DE3C19B)	-0.501	-0.610	0.285	13.550	20.142	-66.040	-74.83	23.52	-95.05	-81.438	-32.634	-0.882	-0.66870	0.23730	-0.56818	0.41663	30.2	13111	100
2025-3-27 20:27:27.836	WT901BLE68-01(48591DE3C19B)	-0.501	-0.618	0.317	13.672	7.385	-68.054	-74.79	22.92	-95.43	-81.438	-32.634	-0.882	-0.66870	0.23730	-0.56818	0.41663	30.2	13111	100
2025-3-27 20:27:27.836	WT901BLE68-01(48591DE3C19B)	-0.521	-0.618	0.317	13.672	7.385	-68.054	-74.71	22.31	-95.75	-81.438	-32.634	-0.882	-0.61011	0.28522	-0.54468	0.49960	30.2	13111	100
2025-3-27 20:27:27.866	WT901BLE68-01(48591DE3C19B)	-0.521	-0.634	0.348	10.132	-12.390	-68.848	-74.61	21.67	-95.97	-81.438	-32.634	-0.882	-0.61011	0.28522	-0.54468	0.49960	30.2	13111	100
2025-3-27 20:27:27.866	WT901BLE68-01(48591DE3C19B)	-0.491	-0.634	0.348	10.132	-12.390	-68.848	-74.49	21.02	-96.09	-81.438	-32.634	-0.882	-0.61011	0.28522	-0.54468	0.49960	30.2	13111	100
2025-3-27 20:27:27.866	WT901BLE68-01(48591DE3C19B)	-0.491	-0.667	0.359	7.568	-29.785	-67.078	-74.34	20.35	-96.12	-81.438	-32.634	-0.882	-0.61011	0.28522	-0.54468	0.49960	30.2	13111	100
2025-3-27 20:27:27.866	WT901BLE68-01(48591DE3C19B)	-0.463	-0.667	0.359	7.568	-29.785	-67.078	-74.18	19.68	-96.07	-81.438	-32.634	-0.882	-0.61011	0.28522	-0.54468	0.49960	30.2	13111	100
