time	DeviceName	AccX(g)	AccY(g)	AccZ(g)	AsX(°/s)	AsY(°/s)	AsZ(°/s)	AngleX(°)	AngleY(°)	AngleZ(°)	HX(uT)	HY(uT)	HZ(uT)	Q0()	Q1()	Q2()	Q3()	Temperature(°C)	Version()	Battery level(%)
2025-3-27 20:11:14.265	WT901BLE68-01(48591DE3C19B)	-0.366	-0.893	0.290	-0.122	3.906	0.427	-74.05	21.96	-110.29	-44.884	-11.074	-11.172	-0.54279	0.21426	-0.57101	0.57733	27.5	13111	100
2025-3-27 20:11:14.265	WT901BLE68-01(48591DE3C19B)	-0.366	-0.890	0.290	-0.061	3.723	0.305	-74.05	21.97	-110.32	-44.884	-11.074	-11.172	-0.54279	0.21426	-0.57101	0.57733	27.5	13111	100
2025-3-27 20:11:14.265	WT901BLE68-01(48591DE3C19B)	-0.368	-0.890	0.290	-0.061	3.723	0.305	-74.05	21.97	-110.35	-44.884	-11.074	-11.172	-0.54279	0.21426	-0.57101	0.57733	27.5	13111	100
2025-3-27 20:11:14.265	WT901BLE68-01(48591DE3C19B)	-0.368	-0.894	0.287	-0.061	2.380	-0.183	-74.05	21.97	-110.37	-44.884	-11.074	-11.172	-0.54279	0.21426	-0.57101	0.57733	27.5	13111	100
2025-3-27 20:11:14.325	WT901BLE68-01(48591DE3C19B)	-0.368	-0.894	0.287	-0.061	2.380	-0.183	-74.05	21.98	-110.39	-44.884	-11.074	-11.172	-0.54279	0.21426	-0.57101	0.57733	27.5	13111	100
2025-3-27 20:11:14.326	WT901BLE68-01(48591DE3C19B)	-0.368	-0.898	0.289	0.122	1.160	-0.977	-74.04	21.97	-110.40	-44.884	-11.074	-11.172	-0.54279	0.21426	-0.57101	0.57733	27.5	13111	100
2025-3-27 20:11:14.326	WT901BLE68-01(48591DE3C19B)	-0.367	-0.898	0.289	0.122	1.160	-0.977	-74.04	21.96	-110.41	-44.884	-11.074	-11.172	-0.54279	0.21426	-0.57101	0.57733	27.5	13111	100
2025-3-27 20:11:14.326	WT901BLE68-01(48591DE3C19B)	-0.367	-0.902	0.291	0.488	-0.122	-2.075	-74.02	21.93	-110.41	-44.884	-11.074	-11.172	-0.54279	0.21426	-0.57101	0.57733	27.5	13111	100
2025-3-27 20:11:14.326	WT901BLE68-01(48591DE3C19B)	-0.365	-0.902	0.291	0.488	-0.122	-2.075	-74.00	21.91	-110.40	-44.884	-11.074	-11.172	-0.54279	0.21426	-0.57101	0.57733	27.5	13111	100
2025-3-27 20:11:14.326	WT901BLE68-01(48591DE3C19B)	-0.365	-0.907	0.290	1.099	-0.671	-3.235	-73.99	21.87	-110.40	-44.884	-11.074	-11.172	-0.54279	0.21426	-0.57101	0.57733	27.5	13111	100
2025-3-27 20:11:14.326	WT901BLE68-01(48591DE3C19B)	-0.367	-0.907	0.290	1.099	-0.671	-3.235	-73.97	21.84	-110.40	-44.296	-10.878	-10.682	-0.54279	0.21426	-0.57101	0.57733	27.5	13111	100
2025-3-27 20:11:14.326	WT901BLE68-01(48591DE3C19B)	-0.367	-0.906	0.288	1.892	-0.854	-4.333	-73.94	21.79	-110.39	-44.296	-10.878	-10.682	-0.54279	0.21426	-0.57101	0.57733	27.5	13111	100
2025-3-27 20:11:14.384	WT901BLE68-01(48591DE3C19B)	-0.369	-0.906	0.288	1.892	-0.854	-4.333	-73.91	21.74	-110.39	-44.296	-10.878	-10.682	-0.54279	0.21426	-0.57101	0.57733	27.5	13111	100
2025-3-27 20:11:14.385	WT901BLE68-01(48591DE3C19B)	-0.369	-0.906	0.287	2.136	-1.282	-5.249	-73.88	21.68	-110.39	-44.296	-10.878	-10.682	-0.54279	0.21426	-0.57101	0.57733	27.5	13111	100
2025-3-27 20:11:14.385	WT901BLE68-01(48591DE3C19B)	-0.373	-0.906	0.287	2.136	-1.282	-5.249	-73.84	21.63	-110.38	-44.296	-10.878	-10.682	-0.54279	0.21426	-0.57101	0.57733	27.5	13111	100
2025-3-27 20:11:14.385	WT901BLE68-01(48591DE3C19B)	-0.373	-0.911	0.285	2.319	-1.404	-5.737	-73.81	21.57	-110.38	-44.296	-10.878	-10.682	-0.54279	0.21426	-0.57101	0.57733	27.5	13111	100
2025-3-27 20:11:14.413	WT901BLE68-01(48591DE3C19B)	-0.373	-0.911	0.285	2.319	-1.404	-5.737	-73.78	21.51	-110.37	-44.296	-10.878	-10.682	-0.54279	0.21426	-0.57101	0.57733	27.5	13111	100
2025-3-27 20:11:14.414	WT901BLE68-01(48591DE3C19B)	-0.373	-0.920	0.282	2.625	-2.258	-5.981	-73.75	21.44	-110.36	-44.296	-10.878	-10.682	-0.54279	0.21426	-0.57101	0.57733	27.5	13111	100
2025-3-27 20:11:14.414	WT901BLE68-01(48591DE3C19B)	-0.365	-0.920	0.282	2.625	-2.258	-5.981	-73.71	21.37	-110.35	-44.296	-10.878	-10.682	-0.54279	0.21426	-0.57101	0.57733	27.5	13111	100
2025-3-27 20:11:14.414	WT901BLE68-01(48591DE3C19B)	-0.365	-0.923	0.280	3.235	-2.563	-5.920	-73.67	21.31	-110.34	-44.296	-10.878	-10.682	-0.54279	0.21426	-0.57101	0.57733	27.5	13111	100
2025-3-27 20:11:14.444	WT901BLE68-01(48591DE3C19B)	-0.360	-0.923	0.280	3.235	-2.563	-5.920	-73.62	21.24	-110.32	-44.296	-10.878	-10.682	-0.54279	0.21426	-0.57101	0.57733	27.5	13111	100
2025-3-27 20:11:14.444	WT901BLE68-01(48591DE3C19B)	-0.360	-0.922	0.283	3.784	-2.502	-5.554	-73.58	21.18	-110.31	-44.296	-10.878	-10.682	-0.54279	0.21426	-0.57101	0.57733	27.5	13111	100
2025-3-27 20:11:14.444	WT901BLE68-01(48591DE3C19B)	-0.359	-0.922	0.283	3.784	-2.502	-5.554	-73.53	21.12	-110.29	-44.296	-10.878	-10.682	-0.54279	0.21426	-0.57101	0.57733	27.5	13111	100
2025-3-27 20:11:14.444	WT901BLE68-01(48591DE3C19B)	-0.359	-0.917	0.282	4.395	-2.502	-4.333	-73.48	21.07	-110.27	-44.296	-10.878	-10.682	-0.54279	0.21426	-0.57101	0.57733	27.5	13111	100
2025-3-27 20:11:14.507	WT901BLE68-01(48591DE3C19B)	-0.347	-0.917	0.282	4.395	-2.502	-4.333	-73.43	21.02	-110.25	-44.296	-10.878	-10.682	-0.54279	0.21426	-0.57101	0.57733	27.5	13111	100
2025-3-27 20:11:14.507	WT901BLE68-01(48591DE3C19B)	-0.347	-0.895	0.271	4.761	-2.625	-2.014	-73.37	20.99	-110.23	-44.296	-10.878	-10.682	-0.54279	0.21426	-0.57101	0.57733	27.5	13111	100
2025-3-27 20:11:14.507	WT901BLE68-01(48591DE3C19B)	-0.330	-0.895	0.271	4.761	-2.625	-2.014	-73.31	20.97	-110.20	-44.296	-10.878	-10.682	-0.54279	0.21426	-0.57101	0.57733	27.5	13111	100
2025-3-27 20:11:14.507	WT901BLE68-01(48591DE3C19B)	-0.330	-0.871	0.260	4.944	-2.136	1.160	-73.25	20.97	-110.17	-44.296	-10.878	-10.682	-0.54279	0.21426	-0.57101	0.57733	27.5	13111	100
2025-3-27 20:11:14.537	WT901BLE68-01(48591DE3C19B)	-0.323	-0.871	0.260	4.944	-2.136	1.160	-73.19	20.97	-110.14	-44.296	-10.878	-10.682	-0.54279	0.21426	-0.57101	0.57733	27.5	13111	100
2025-3-27 20:11:14.537	WT901BLE68-01(48591DE3C19B)	-0.315	-0.843	0.251	4.700	-1.282	4.272	-73.13	21.01	-110.12	-44.296	-10.878	-10.682	-0.54279	0.21426	-0.57101	0.57733	27.5	13111	100
2025-3-27 20:11:14.537	WT901BLE68-01(48591DE3C19B)	-0.315	-0.820	0.246	3.540	-1.526	6.958	-73.08	21.06	-110.08	-44.296	-10.878	-10.682	-0.54279	0.21426	-0.57101	0.57733	27.5	13111	100
2025-3-27 20:11:14.537	WT901BLE68-01(48591DE3C19B)	-0.307	-0.820	0.246	3.540	-1.526	6.958	-73.03	21.12	-110.04	-44.296	-10.878	-10.682	-0.54251	0.21445	-0.56360	0.58475	27.5	13111	100
2025-3-27 20:11:14.566	WT901BLE68-01(48591DE3C19B)	-0.307	-0.810	0.243	1.770	-1.953	8.484	-72.98	21.18	-110.00	-44.296	-10.878	-10.682	-0.54251	0.21445	-0.56360	0.58475	27.5	13111	100
2025-3-27 20:11:14.566	WT901BLE68-01(48591DE3C19B)	-0.307	-0.810	0.243	1.770	-1.953	8.484	-72.95	21.25	-109.95	-44.296	-10.878	-10.682	-0.54251	0.21445	-0.56360	0.58475	27.5	13111	100
2025-3-27 20:11:14.566	WT901BLE68-01(48591DE3C19B)	-0.307	-0.834	0.242	-0.427	-3.296	8.301	-72.92	21.32	-109.89	-44.296	-10.878	-10.682	-0.54251	0.21445	-0.56360	0.58475	27.5	13111	100
2025-3-27 20:11:14.566	WT901BLE68-01(48591DE3C19B)	-0.302	-0.834	0.242	-0.427	-3.296	8.301	-72.91	21.38	-109.83	-44.296	-10.878	-10.682	-0.54251	0.21445	-0.56360	0.58475	27.5	13111	100
2025-3-27 20:11:14.655	WT901BLE68-01(48591DE3C19B)	-0.302	-0.864	0.238	-1.892	-4.395	5.981	-72.90	21.43	-109.76	-44.296	-10.878	-10.682	-0.54251	0.21445	-0.56360	0.58475	27.5	13111	100
2025-3-27 20:11:14.655	WT901BLE68-01(48591DE3C19B)	-0.292	-0.864	0.238	-1.892	-4.395	5.981	-72.89	21.47	-109.70	-44.296	-10.878	-10.682	-0.54251	0.21445	-0.56360	0.58475	27.5	13111	100
2025-3-27 20:11:14.655	WT901BLE68-01(48591DE3C19B)	-0.292	-0.901	0.235	-3.174	-3.662	1.587	-72.91	21.48	-109.64	-44.296	-10.878	-10.682	-0.54251	0.21445	-0.56360	0.58475	27.5	13111	100
2025-3-27 20:11:14.655	WT901BLE68-01(48591DE3C19B)	-0.290	-0.901	0.235	-3.174	-3.662	1.587	-72.93	21.48	-109.60	-44.296	-10.878	-10.682	-0.54251	0.21445	-0.56360	0.58475	27.5	13111	100
2025-3-27 20:11:14.668	WT901BLE68-01(48591DE3C19B)	-0.290	-0.940	0.243	-3.662	0.061	-3.967	-72.96	21.45	-109.59	-44.296	-10.878	-10.682	-0.54251	0.21445	-0.56360	0.58475	27.5	13111	100
2025-3-27 20:11:14.669	WT901BLE68-01(48591DE3C19B)	-0.296	-0.940	0.243	-3.662	0.061	-3.967	-73.01	21.40	-109.60	-44.296	-10.878	-10.682	-0.54251	0.21445	-0.56360	0.58475	27.5	13111	100
2025-3-27 20:11:14.669	WT901BLE68-01(48591DE3C19B)	-0.296	-0.969	0.257	-3.540	4.822	-9.766	-73.07	21.32	-109.64	-44.296	-10.878	-10.682	-0.54251	0.21445	-0.56360	0.58475	27.5	13111	100
2025-3-27 20:11:14.669	WT901BLE68-01(48591DE3C19B)	-0.309	-0.969	0.257	-3.540	4.822	-9.766	-73.14	21.23	-109.72	-44.296	-10.878	-10.682	-0.54251	0.21445	-0.56360	0.58475	27.5	13111	100
2025-3-27 20:11:14.686	WT901BLE68-01(48591DE3C19B)	-0.309	-0.983	0.268	-3.479	9.766	-15.320	-73.22	21.11	-109.82	-44.296	-10.878	-10.682	-0.54251	0.21445	-0.56360	0.58475	27.5	13111	100
2025-3-27 20:11:14.686	WT901BLE68-01(48591DE3C19B)	-0.332	-0.983	0.268	-3.479	9.766	-15.320	-73.32	20.97	-109.97	-44.296	-10.878	-10.682	-0.54251	0.21445	-0.56360	0.58475	27.5	13111	100
2025-3-27 20:11:14.686	WT901BLE68-01(48591DE3C19B)	-0.332	-0.970	0.271	-3.113	12.451	-20.325	-73.42	20.82	-110.13	-44.296	-10.878	-10.682	-0.54251	0.21445	-0.56360	0.58475	27.5	13111	100
2025-3-27 20:11:14.686	WT901BLE68-01(48591DE3C19B)	-0.336	-0.970	0.271	-3.113	12.451	-20.325	-73.52	20.64	-110.31	-44.296	-10.878	-10.682	-0.54251	0.21445	-0.56360	0.58475	27.5	13111	100
2025-3-27 20:11:14.745	WT901BLE68-01(48591DE3C19B)	-0.336	-0.908	0.264	-3.845	10.864	-24.048	-73.62	20.45	-110.48	-44.296	-10.878	-10.682	-0.54251	0.21445	-0.56360	0.58475	27.5	13111	100
2025-3-27 20:11:14.745	WT901BLE68-01(48591DE3C19B)	-0.332	-0.908	0.264	-3.845	10.864	-24.048	-73.73	20.24	-110.65	-44.296	-10.878	-10.682	-0.54251	0.21445	-0.56360	0.58475	27.5	13111	100
2025-3-27 20:11:14.745	WT901BLE68-01(48591DE3C19B)	-0.332	-0.840	0.254	-5.615	8.179	-26.672	-73.84	20.01	-110.81	-44.296	-10.878	-10.682	-0.54251	0.21445	-0.56360	0.58475	27.5	13111	100
2025-3-27 20:11:14.745	WT901BLE68-01(48591DE3C19B)	-0.337	-0.840	0.254	-5.615	8.179	-26.672	-73.95	19.77	-110.96	-44.296	-10.878	-10.682	-0.54251	0.21445	-0.56360	0.58475	27.5	13111	100
2025-3-27 20:11:14.776	WT901BLE68-01(48591DE3C19B)	-0.337	-0.807	0.248	-8.118	4.578	-29.114	-74.07	19.52	-111.09	-45.080	-11.368	-10.682	-0.54251	0.21445	-0.56360	0.58475	27.5	13111	100
2025-3-27 20:11:14.777	WT901BLE68-01(48591DE3C19B)	-0.329	-0.807	0.248	-8.118	4.578	-29.114	-74.20	19.25	-111.21	-45.080	-11.368	-10.682	-0.54251	0.21445	-0.56360	0.58475	27.5	13111	100
2025-3-27 20:11:14.777	WT901BLE68-01(48591DE3C19B)	-0.329	-0.793	0.247	-10.132	1.587	-31.555	-74.32	18.97	-111.31	-45.080	-11.368	-10.682	-0.54251	0.21445	-0.56360	0.58475	27.5	13111	100
2025-3-27 20:11:14.777	WT901BLE68-01(48591DE3C19B)	-0.325	-0.793	0.247	-10.132	1.587	-31.555	-74.45	18.67	-111.40	-45.080	-11.368	-10.682	-0.54251	0.21445	-0.56360	0.58475	27.5	13111	100
2025-3-27 20:11:14.806	WT901BLE68-01(48591DE3C19B)	-0.325	-0.794	0.245	-11.414	1.160	-34.424	-74.59	18.36	-111.48	-45.080	-11.368	-10.682	-0.54251	0.21445	-0.56360	0.58475	27.5	13111	100
2025-3-27 20:11:14.806	WT901BLE68-01(48591DE3C19B)	-0.331	-0.794	0.245	-11.414	1.160	-34.424	-74.73	18.05	-111.57	-45.080	-11.368	-10.682	-0.54251	0.21445	-0.56360	0.58475	27.5	13111	100
2025-3-27 20:11:14.806	WT901BLE68-01(48591DE3C19B)	-0.331	-0.808	0.245	-12.268	2.014	-38.208	-74.88	17.72	-111.66	-45.080	-11.368	-10.682	-0.54251	0.21445	-0.56360	0.58475	27.5	13111	100
2025-3-27 20:11:14.807	WT901BLE68-01(48591DE3C19B)	-0.342	-0.808	0.245	-12.268	2.014	-38.208	-75.03	17.37	-111.76	-45.080	-11.368	-10.682	-0.54251	0.21445	-0.56360	0.58475	27.5	13111	100
2025-3-27 20:11:14.864	WT901BLE68-01(48591DE3C19B)	-0.342	-0.820	0.250	-12.878	2.625	-42.175	-75.18	17.01	-111.87	-45.080	-11.368	-10.682	-0.54251	0.21445	-0.56360	0.58475	27.5	13111	100
2025-3-27 20:11:14.864	WT901BLE68-01(48591DE3C19B)	-0.354	-0.820	0.250	-12.878	2.625	-42.175	-75.34	16.63	-111.98	-45.080	-11.368	-10.682	-0.54251	0.21445	-0.56360	0.58475	27.5	13111	100
2025-3-27 20:11:14.864	WT901BLE68-01(48591DE3C19B)	-0.354	-0.826	0.253	-13.672	2.258	-45.959	-75.50	16.23	-112.09	-45.080	-11.368	-10.682	-0.54251	0.21445	-0.56360	0.58475	27.5	13111	100
2025-3-27 20:11:14.864	WT901BLE68-01(48591DE3C19B)	-0.360	-0.826	0.253	-13.672	2.258	-45.959	-75.67	15.82	-112.21	-45.080	-11.368	-10.682	-0.54251	0.21445	-0.56360	0.58475	27.5	13111	100
2025-3-27 20:11:14.893	WT901BLE68-01(48591DE3C19B)	-0.360	-0.824	0.252	-14.893	1.343	-49.255	-75.84	15.40	-112.31	-45.080	-11.368	-10.682	-0.54251	0.21445	-0.56360	0.58475	27.5	13111	100
2025-3-27 20:11:14.893	WT901BLE68-01(48591DE3C19B)	-0.370	-0.824	0.252	-14.893	1.343	-49.255	-76.01	14.96	-112.42	-45.080	-11.368	-10.682	-0.54251	0.21445	-0.56360	0.58475	27.5	13111	100
2025-3-27 20:11:14.893	WT901BLE68-01(48591DE3C19B)	-0.370	-0.817	0.256	-16.113	-0.610	-51.880	-76.18	14.51	-112.52	-45.080	-11.368	-10.682	-0.54251	0.21445	-0.56360	0.58475	27.5	13111	100
2025-3-27 20:11:14.894	WT901BLE68-01(48591DE3C19B)	-0.384	-0.817	0.256	-16.113	-0.610	-51.880	-76.35	14.05	-112.60	-45.080	-11.368	-10.682	-0.54251	0.21445	-0.56360	0.58475	27.5	13111	100
2025-3-27 20:11:14.926	WT901BLE68-01(48591DE3C19B)	-0.384	-0.813	0.264	-17.639	-4.211	-53.650	-76.53	13.58	-112.66	-45.080	-11.368	-10.682	-0.54251	0.21445	-0.56360	0.58475	27.5	13111	100
2025-3-27 20:11:14.926	WT901BLE68-01(48591DE3C19B)	-0.398	-0.813	0.264	-17.639	-4.211	-53.650	-76.71	13.10	-112.71	-45.080	-11.368	-10.682	-0.54251	0.21445	-0.56360	0.58475	27.5	13111	100
2025-3-27 20:11:14.926	WT901BLE68-01(48591DE3C19B)	-0.398	-0.818	0.276	-19.043	-9.155	-54.321	-76.89	12.62	-112.73	-45.080	-11.368	-10.682	-0.54251	0.21445	-0.56360	0.58475	27.5	13111	100
2025-3-27 20:11:14.927	WT901BLE68-01(48591DE3C19B)	-0.411	-0.818	0.276	-19.043	-9.155	-54.321	-77.06	12.13	-112.73	-45.080	-11.368	-10.682	-0.54251	0.21445	-0.56360	0.58475	27.5	13111	100
2025-3-27 20:11:14.985	WT901BLE68-01(48591DE3C19B)	-0.411	-0.833	0.287	-20.203	-14.465	-53.650	-77.24	11.65	-112.69	-45.080	-11.368	-10.682	-0.54251	0.21445	-0.56360	0.58475	27.5	13111	100
2025-3-27 20:11:14.985	WT901BLE68-01(48591DE3C19B)	-0.415	-0.833	0.287	-20.203	-14.465	-53.650	-77.41	11.16	-112.62	-45.080	-11.368	-10.682	-0.48138	0.28204	-0.55991	0.61246	27.5	13111	100
2025-3-27 20:11:14.985	WT901BLE68-01(48591DE3C19B)	-0.415	-0.835	0.294	-20.325	-19.043	-50.842	-77.58	10.69	-112.52	-45.080	-11.368	-10.682	-0.48138	0.28204	-0.55991	0.61246	27.5	13111	100
2025-3-27 20:11:14.985	WT901BLE68-01(48591DE3C19B)	-0.412	-0.835	0.294	-20.325	-19.043	-50.842	-77.74	10.23	-112.40	-45.080	-11.368	-10.682	-0.48138	0.28204	-0.55991	0.61246	27.5	13111	100
2025-3-27 20:11:15.13	WT901BLE68-01(48591DE3C19B)	-0.412	-0.821	0.301	-19.958	-21.790	-46.021	-77.89	9.82	-112.23	-45.080	-11.368	-10.682	-0.48138	0.28204	-0.55991	0.61246	27.5	13111	100
2025-3-27 20:11:15.14	WT901BLE68-01(48591DE3C19B)	-0.416	-0.821	0.301	-19.958	-21.790	-46.021	-78.04	9.42	-112.07	-45.080	-11.368	-10.682	-0.48138	0.28204	-0.55991	0.61246	27.5	13111	100
2025-3-27 20:11:15.14	WT901BLE68-01(48591DE3C19B)	-0.416	-0.800	0.306	-19.592	-23.804	-39.734	-78.18	9.06	-111.87	-45.080	-11.368	-10.682	-0.48138	0.28204	-0.55991	0.61246	27.5	13111	100
2025-3-27 20:11:15.14	WT901BLE68-01(48591DE3C19B)	-0.419	-0.800	0.306	-19.592	-23.804	-39.734	-78.32	8.72	-111.67	-45.080	-11.368	-10.682	-0.48138	0.28204	-0.55991	0.61246	27.5	13111	100
2025-3-27 20:11:15.44	WT901BLE68-01(48591DE3C19B)	-0.419	-0.780	0.309	-19.775	-26.306	-32.166	-78.45	8.45	-111.42	-45.080	-11.368	-10.682	-0.48138	0.28204	-0.55991	0.61246	27.5	13111	100
2025-3-27 20:11:15.44	WT901BLE68-01(48591DE3C19B)	-0.420	-0.780	0.309	-19.775	-26.306	-32.166	-78.59	8.18	-111.18	-45.080	-11.368	-10.682	-0.48138	0.28204	-0.55991	0.61246	27.5	13111	100
2025-3-27 20:11:15.44	WT901BLE68-01(48591DE3C19B)	-0.420	-0.763	0.313	-19.592	-28.503	-23.804	-78.71	8.00	-110.90	-45.080	-11.368	-10.682	-0.48138	0.28204	-0.55991	0.61246	27.5	13111	100
2025-3-27 20:11:15.45	WT901BLE68-01(48591DE3C19B)	-0.426	-0.763	0.313	-19.592	-28.503	-23.804	-78.83	7.82	-110.62	-45.080	-11.368	-10.682	-0.48138	0.28204	-0.55991	0.61246	27.5	13111	100
2025-3-27 20:11:15.106	WT901BLE68-01(48591DE3C19B)	-0.426	-0.758	0.319	-19.043	-31.128	-15.869	-78.94	7.71	-110.30	-45.080	-11.368	-10.682	-0.48138	0.28204	-0.55991	0.61246	27.5	13111	100
2025-3-27 20:11:15.106	WT901BLE68-01(48591DE3C19B)	-0.425	-0.758	0.319	-19.043	-31.128	-15.869	-79.05	7.60	-109.98	-45.080	-11.368	-10.682	-0.48138	0.28204	-0.55991	0.61246	27.5	13111	100
2025-3-27 20:11:15.106	WT901BLE68-01(48591DE3C19B)	-0.425	-0.768	0.327	-17.578	-33.569	-8.789	-79.13	7.56	-109.63	-45.080	-11.368	-10.682	-0.48138	0.28204	-0.55991	0.61246	27.5	13111	100
2025-3-27 20:11:15.107	WT901BLE68-01(48591DE3C19B)	-0.418	-0.768	0.327	-17.578	-33.569	-8.789	-79.22	7.53	-109.27	-45.080	-11.368	-10.682	-0.48138	0.28204	-0.55991	0.61246	27.5	13111	100
2025-3-27 20:11:15.136	WT901BLE68-01(48591DE3C19B)	-0.418	-0.780	0.327	-14.343	-33.325	-2.258	-79.27	7.56	-108.90	-45.080	-11.368	-10.682	-0.48138	0.28204	-0.55991	0.61246	27.5	13111	100
2025-3-27 20:11:15.136	WT901BLE68-01(48591DE3C19B)	-0.403	-0.780	0.327	-14.343	-33.325	-2.258	-79.32	7.59	-108.53	-45.080	-11.368	-10.682	-0.48138	0.28204	-0.55991	0.61246	27.5	13111	100
2025-3-27 20:11:15.136	WT901BLE68-01(48591DE3C19B)	-0.403	-0.814	0.325	-10.864	-30.396	3.357	-79.33	7.67	-108.19	-45.080	-11.368	-10.682	-0.48138	0.28204	-0.55991	0.61246	27.5	13111	100
2025-3-27 20:11:15.136	WT901BLE68-01(48591DE3C19B)	-0.408	-0.814	0.325	-10.864	-30.396	3.357	-79.34	7.76	-107.85	-51.450	-2.450	-7.448	-0.48138	0.28204	-0.55991	0.61246	27.5	13111	100
2025-3-27 20:11:15.166	WT901BLE68-01(48591DE3C19B)	-0.408	-0.904	0.324	-6.714	-24.231	8.179	-79.32	7.90	-107.55	-51.450	-2.450	-7.448	-0.48138	0.28204	-0.55991	0.61246	27.5	13111	100
2025-3-27 20:11:15.166	WT901BLE68-01(48591DE3C19B)	-0.400	-0.904	0.324	-6.714	-24.231	8.179	-79.30	8.05	-107.26	-51.450	-2.450	-7.448	-0.48138	0.28204	-0.55991	0.61246	27.5	13111	100
2025-3-27 20:11:15.166	WT901BLE68-01(48591DE3C19B)	-0.400	-0.978	0.327	-0.610	-15.198	12.085	-79.23	8.24	-107.05	-51.450	-2.450	-7.448	-0.48138	0.28204	-0.55991	0.61246	27.5	13111	100
2025-3-27 20:11:15.166	WT901BLE68-01(48591DE3C19B)	-0.395	-0.978	0.327	-0.610	-15.198	12.085	-79.16	8.43	-106.84	-51.450	-2.450	-7.448	-0.48138	0.28204	-0.55991	0.61246	27.5	13111	100
2025-3-27 20:11:15.224	WT901BLE68-01(48591DE3C19B)	-0.395	-1.035	0.323	4.944	-2.075	16.602	-79.06	8.68	-106.75	-51.450	-2.450	-7.448	-0.48138	0.28204	-0.55991	0.61246	27.5	13111	100
2025-3-27 20:11:15.225	WT901BLE68-01(48591DE3C19B)	-0.391	-1.035	0.323	4.944	-2.075	16.602	-78.95	8.94	-106.66	-51.450	-2.450	-7.448	-0.48138	0.28204	-0.55991	0.61246	27.5	13111	100
2025-3-27 20:11:15.225	WT901BLE68-01(48591DE3C19B)	-0.391	-1.036	0.303	10.864	12.878	22.400	-78.82	9.27	-106.70	-51.450	-2.450	-7.448	-0.48138	0.28204	-0.55991	0.61246	27.5	13111	100
2025-3-27 20:11:15.225	WT901BLE68-01(48591DE3C19B)	-0.382	-1.036	0.303	10.864	12.878	22.400	-78.68	9.60	-106.74	-51.450	-2.450	-7.448	-0.48138	0.28204	-0.55991	0.61246	27.5	13111	100
2025-3-27 20:11:15.253	WT901BLE68-01(48591DE3C19B)	-0.382	-0.907	0.272	14.709	24.597	31.189	-78.52	10.03	-106.89	-51.450	-2.450	-7.448	-0.48138	0.28204	-0.55991	0.61246	27.5	13111	100
2025-3-27 20:11:15.254	WT901BLE68-01(48591DE3C19B)	-0.377	-0.907	0.272	14.709	24.597	31.189	-78.38	10.46	-107.03	-51.450	-2.450	-7.448	-0.48138	0.28204	-0.55991	0.61246	27.5	13111	100
2025-3-27 20:11:15.254	WT901BLE68-01(48591DE3C19B)	-0.377	-0.716	0.261	14.343	29.541	42.786	-78.23	11.01	-107.19	-51.450	-2.450	-7.448	-0.48138	0.28204	-0.55991	0.61246	27.5	13111	100
2025-3-27 20:11:15.254	WT901BLE68-01(48591DE3C19B)	-0.375	-0.716	0.261	14.343	29.541	42.786	-78.10	11.56	-107.35	-51.450	-2.450	-7.448	-0.48138	0.28204	-0.55991	0.61246	27.5	13111	100
2025-3-27 20:11:15.316	WT901BLE68-01(48591DE3C19B)	-0.375	-0.522	0.260	11.353	22.583	57.800	-77.96	12.25	-107.42	-51.450	-2.450	-7.448	-0.48138	0.28204	-0.55991	0.61246	27.5	13111	100
2025-3-27 20:11:15.316	WT901BLE68-01(48591DE3C19B)	-0.348	-0.522	0.260	11.353	22.583	57.800	-77.84	12.93	-107.48	-51.450	-2.450	-7.448	-0.48138	0.28204	-0.55991	0.61246	27.5	13111	100
2025-3-27 20:11:15.316	WT901BLE68-01(48591DE3C19B)	-0.348	-0.356	0.236	6.287	8.240	75.806	-77.71	13.76	-107.36	-51.450	-2.450	-7.448	-0.48138	0.28204	-0.55991	0.61246	27.5	13111	100
2025-3-27 20:11:15.316	WT901BLE68-01(48591DE3C19B)	-0.315	-0.356	0.236	6.287	8.240	75.806	-77.58	14.60	-107.24	-51.450	-2.450	-7.448	-0.48138	0.28204	-0.55991	0.61246	27.5	13111	100
2025-3-27 20:11:15.344	WT901BLE68-01(48591DE3C19B)	-0.315	-0.277	0.185	-3.357	-11.414	92.041	-77.48	15.54	-106.90	-51.450	-2.450	-7.448	-0.48138	0.28204	-0.55991	0.61246	27.5	13111	100
2025-3-27 20:11:15.344	WT901BLE68-01(48591DE3C19B)	-0.312	-0.277	0.185	-3.357	-11.414	92.041	-77.38	16.48	-106.55	-51.450	-2.450	-7.448	-0.48138	0.28204	-0.55991	0.61246	27.5	13111	100
2025-3-27 20:11:15.344	WT901BLE68-01(48591DE3C19B)	-0.312	-0.340	0.110	-20.996	-35.828	101.318	-77.36	17.47	-105.93	-51.450	-2.450	-7.448	-0.48138	0.28204	-0.55991	0.61246	27.5	13111	100
2025-3-27 20:11:15.344	WT901BLE68-01(48591DE3C19B)	-0.340	-0.340	0.110	-20.996	-35.828	101.318	-77.33	18.45	-105.31	-51.450	-2.450	-7.448	-0.55075	0.27438	-0.56668	0.54785	27.5	13111	100
2025-3-27 20:11:15.376	WT901BLE68-01(48591DE3C19B)	-0.340	-0.563	0.109	-38.147	-65.918	96.008	-77.38	19.30	-104.40	-51.450	-2.450	-7.448	-0.55075	0.27438	-0.56668	0.54785	27.5	13111	100
2025-3-27 20:11:15.376	WT901BLE68-01(48591DE3C19B)	-0.485	-0.563	0.109	-38.147	-65.918	96.008	-77.41	20.16	-103.49	-51.450	-2.450	-7.448	-0.55075	0.27438	-0.56668	0.54785	27.5	13111	100
2025-3-27 20:11:15.376	WT901BLE68-01(48591DE3C19B)	-0.485	-1.024	0.298	-52.124	-110.168	78.064	-77.43	20.73	-102.16	-51.450	-2.450	-7.448	-0.55075	0.27438	-0.56668	0.54785	27.5	13111	100
2025-3-27 20:11:15.376	WT901BLE68-01(48591DE3C19B)	-1.123	-1.024	0.298	-52.124	-110.168	78.064	-77.43	21.30	-100.83	-51.450	-2.450	-7.448	-0.55075	0.27438	-0.56668	0.54785	27.5	13111	100
2025-3-27 20:11:15.435	WT901BLE68-01(48591DE3C19B)	-4.492	-3.725	0.678	-42.297	-149.109	50.171	-77.21	21.49	-99.16	-51.450	-2.450	-7.448	-0.55075	0.27438	-0.56668	0.54785	27.5	13111	100
2025-3-27 20:11:15.435	WT901BLE68-01(48591DE3C19B)	-0.300	-14.900	2.714	-42.297	-149.109	50.171	-77.01	21.64	-97.50	-51.450	-2.450	-7.448	-0.55075	0.27438	-0.56668	0.54785	27.5	13111	100
2025-3-27 20:11:15.435	WT901BLE68-01(48591DE3C19B)	-0.300	-2.419	0.237	-2.197	-131.653	25.085	-76.51	21.57	-96.08	-51.450	-2.450	-7.448	-0.55075	0.27438	-0.56668	0.54785	27.5	13111	100
2025-3-27 20:11:15.435	WT901BLE68-01(48591DE3C19B)	-0.190	-2.419	0.237	-2.197	-131.653	25.085	-76.02	21.48	-94.67	-51.450	-2.450	-7.448	-0.55075	0.27438	-0.56668	0.54785	27.5	13111	100
2025-3-27 20:11:15.463	WT901BLE68-01(48591DE3C19B)	-0.186	-2.338	0.095	45.593	-61.157	31.189	-75.33	21.60	-94.00	-51.450	-2.450	-7.448	-0.55075	0.27438	-0.56668	0.54785	27.5	13111	100
2025-3-27 20:11:15.464	WT901BLE68-01(48591DE3C19B)	-0.186	-1.813	-0.027	66.467	12.878	27.527	-74.68	21.79	-93.71	-51.450	-2.450	-7.448	-0.55075	0.27438	-0.56668	0.54785	27.5	13111	100
2025-3-27 20:11:15.464	WT901BLE68-01(48591DE3C19B)	-0.074	-1.813	-0.027	66.467	12.878	27.527	-74.08	22.05	-93.81	-51.450	-2.450	-7.448	-0.55075	0.27438	-0.56668	0.54785	27.5	13111	100
2025-3-27 20:11:15.464	WT901BLE68-01(48591DE3C19B)	-0.074	-1.549	0.004	71.411	71.960	31.189	-73.58	22.40	-94.21	-51.450	-2.450	-7.448	-0.55075	0.27438	-0.56668	0.54785	27.5	13111	100
2025-3-27 20:11:15.494	WT901BLE68-01(48591DE3C19B)	0.078	-1.549	0.004	71.411	71.960	31.189	-73.18	22.85	-94.91	-51.450	-2.450	-7.448	-0.55075	0.27438	-0.56668	0.54785	27.5	13111	100
2025-3-27 20:11:15.495	WT901BLE68-01(48591DE3C19B)	0.078	-1.222	0.072	65.918	124.023	42.236	-72.92	23.42	-95.86	-51.450	-2.450	-7.448	-0.55075	0.27438	-0.56668	0.54785	27.5	13111	100
2025-3-27 20:11:15.495	WT901BLE68-01(48591DE3C19B)	0.060	-1.222	0.072	65.918	124.023	42.236	-72.80	24.12	-97.05	-51.450	-2.450	-7.448	-0.55075	0.27438	-0.56668	0.54785	27.5	13111	100
2025-3-27 20:11:15.495	WT901BLE68-01(48591DE3C19B)	0.060	-0.958	0.112	47.791	150.818	42.664	-72.84	24.85	-98.39	-51.450	-2.450	-7.448	-0.55075	0.27438	-0.56668	0.54785	27.5	13111	100
2025-3-27 20:11:15.555	WT901BLE68-01(48591DE3C19B)	-0.113	-0.958	0.112	47.791	150.818	42.664	-73.05	25.61	-99.88	-51.450	-2.450	-7.448	-0.55075	0.27438	-0.56668	0.54785	27.5	13111	100
2025-3-27 20:11:15.555	WT901BLE68-01(48591DE3C19B)	-0.113	-0.829	0.099	33.325	134.827	34.607	-73.33	26.29	-101.30	-51.450	-2.450	-7.448	-0.55075	0.27438	-0.56668	0.54785	27.5	13111	100
2025-3-27 20:11:15.555	WT901BLE68-01(48591DE3C19B)	-0.202	-0.829	0.099	33.325	134.827	34.607	-73.66	26.89	-102.65	-51.450	-2.450	-7.448	-0.55075	0.27438	-0.56668	0.54785	27.5	13111	100
2025-3-27 20:11:15.555	WT901BLE68-01(48591DE3C19B)	-0.202	-0.685	0.060	18.799	94.971	23.010	-73.98	27.38	-103.81	-51.450	-2.450	-7.448	-0.55075	0.27438	-0.56668	0.54785	27.5	13111	100
2025-3-27 20:11:15.645	WT901BLE68-01(48591DE3C19B)	-0.226	-0.685	0.060	18.799	94.971	23.010	-74.30	27.76	-104.78	-51.450	-2.450	-7.448	-0.55075	0.27438	-0.56668	0.54785	27.5	13111	100
2025-3-27 20:11:15.645	WT901BLE68-01(48591DE3C19B)	-0.226	-0.600	0.005	5.676	67.810	13.489	-74.62	28.04	-105.61	-51.450	-2.450	-7.448	-0.55075	0.27438	-0.56668	0.54785	27.5	13111	100
2025-3-27 20:11:15.645	WT901BLE68-01(48591DE3C19B)	-0.290	-0.600	0.005	5.676	67.810	13.489	-74.95	28.24	-106.30	-51.450	-2.450	-7.448	-0.55075	0.27438	-0.56668	0.54785	27.5	13111	100
2025-3-27 20:11:15.645	WT901BLE68-01(48591DE3C19B)	-0.290	-0.567	0.008	-2.869	43.274	8.362	-75.27	28.38	-106.87	-37.730	-14.406	-6.860	-0.55075	0.27438	-0.56668	0.54785	27.5	13111	100
2025-3-27 20:11:15.646	WT901BLE68-01(48591DE3C19B)	-0.303	-0.567	0.008	-2.869	43.274	8.362	-75.57	28.47	-107.30	-37.730	-14.406	-6.860	-0.55075	0.27438	-0.56668	0.54785	27.5	13111	100
2025-3-27 20:11:15.646	WT901BLE68-01(48591DE3C19B)	-0.303	-0.531	0.061	-9.094	-0.732	6.287	-75.78	28.49	-107.50	-37.730	-14.406	-6.860	-0.55075	0.27438	-0.56668	0.54785	27.5	13111	100
2025-3-27 20:11:15.646	WT901BLE68-01(48591DE3C19B)	-0.185	-0.531	0.061	-9.094	-0.732	6.287	-75.92	28.47	-107.46	-37.730	-14.406	-6.860	-0.55075	0.27438	-0.56668	0.54785	27.5	13111	100
2025-3-27 20:11:15.646	WT901BLE68-01(48591DE3C19B)	-0.185	-0.481	0.129	-11.719	-39.429	8.972	-75.95	28.41	-107.20	-37.730	-14.406	-6.860	-0.55075	0.27438	-0.56668	0.54785	27.5	13111	100
2025-3-27 20:11:15.676	WT901BLE68-01(48591DE3C19B)	-0.134	-0.481	0.129	-11.719	-39.429	8.972	-75.90	28.31	-106.73	-37.730	-14.406	-6.860	-0.55075	0.27438	-0.56668	0.54785	27.5	13111	100
2025-3-27 20:11:15.677	WT901BLE68-01(48591DE3C19B)	-0.134	-0.465	0.149	-8.728	-51.941	12.390	-75.79	28.22	-106.19	-37.730	-14.406	-6.860	-0.55075	0.27438	-0.56668	0.54785	27.5	13111	100
2025-3-27 20:11:15.677	WT901BLE68-01(48591DE3C19B)	-0.128	-0.465	0.149	-8.728	-51.941	12.390	-75.64	28.14	-105.58	-37.730	-14.406	-6.860	-0.55075	0.27438	-0.56668	0.54785	27.5	13111	100
2025-3-27 20:11:15.677	WT901BLE68-01(48591DE3C19B)	-0.128	-0.468	0.105	-1.953	-49.683	13.367	-75.46	28.05	-104.99	-37.730	-14.406	-6.860	-0.55075	0.27438	-0.56668	0.54785	27.5	13111	100
2025-3-27 20:11:15.707	WT901BLE68-01(48591DE3C19B)	-0.073	-0.468	0.105	-1.953	-49.683	13.367	-75.25	27.98	-104.41	-37.730	-14.406	-6.860	-0.55075	0.27438	-0.56668	0.54785	27.5	13111	100
2025-3-27 20:11:15.707	WT901BLE68-01(48591DE3C19B)	-0.073	-0.415	0.064	7.385	-36.072	15.808	-75.02	27.93	-103.91	-37.730	-14.406	-6.860	-0.55075	0.27438	-0.56668	0.54785	27.5	13111	100
2025-3-27 20:11:15.707	WT901BLE68-01(48591DE3C19B)	-0.037	-0.415	0.064	7.385	-36.072	15.808	-74.78	27.91	-103.49	-37.730	-14.406	-6.860	-0.55075	0.27438	-0.56668	0.54785	27.5	13111	100
2025-3-27 20:11:15.707	WT901BLE68-01(48591DE3C19B)	-0.037	-0.333	0.083	16.296	-13.245	21.790	-74.56	27.95	-103.18	-37.730	-14.406	-6.860	-0.55075	0.27438	-0.56668	0.54785	27.5	13111	100
2025-3-27 20:11:15.736	WT901BLE68-01(48591DE3C19B)	-0.117	-0.333	0.083	16.296	-13.245	21.790	-74.34	28.04	-102.99	-37.730	-14.406	-6.860	-0.55075	0.27438	-0.56668	0.54785	27.5	13111	100
2025-3-27 20:11:15.737	WT901BLE68-01(48591DE3C19B)	-0.117	-0.368	0.137	20.203	9.949	26.794	-74.16	28.18	-102.91	-37.730	-14.406	-6.860	-0.55075	0.27438	-0.56668	0.54785	27.5	13111	100
2025-3-27 20:11:15.737	WT901BLE68-01(48591DE3C19B)	-0.281	-0.368	0.137	20.203	9.949	26.794	-74.01	28.38	-102.96	-37.730	-14.406	-6.860	-0.55075	0.27438	-0.56668	0.54785	27.5	13111	100
2025-3-27 20:11:15.737	WT901BLE68-01(48591DE3C19B)	-0.281	-0.510	0.200	19.836	28.809	28.503	-73.91	28.61	-103.12	-37.730	-14.406	-6.860	-0.55075	0.27438	-0.56668	0.54785	27.5	13111	100
2025-3-27 20:11:15.795	WT901BLE68-01(48591DE3C19B)	-0.440	-0.510	0.200	19.836	28.809	28.503	-73.86	28.89	-103.37	-37.730	-14.406	-6.860	-0.55075	0.27438	-0.56668	0.54785	27.5	13111	100
2025-3-27 20:11:15.795	WT901BLE68-01(48591DE3C19B)	-0.440	-0.792	0.235	8.057	45.593	14.160	-73.91	29.13	-103.74	-37.730	-14.406	-6.860	-0.59546	0.19971	-0.58286	0.51544	27.5	13111	100
2025-3-27 20:11:15.795	WT901BLE68-01(48591DE3C19B)	-0.608	-0.792	0.235	8.057	45.593	14.160	-74.07	29.33	-104.23	-37.730	-14.406	-6.860	-0.59546	0.19971	-0.58286	0.51544	27.5	13111	100
2025-3-27 20:11:15.795	WT901BLE68-01(48591DE3C19B)	-0.608	-1.252	0.244	1.160	57.312	-20.691	-74.33	29.38	-104.84	-37.730	-14.406	-6.860	-0.59546	0.19971	-0.58286	0.51544	27.5	13111	100
2025-3-27 20:11:15.854	WT901BLE68-01(48591DE3C19B)	-0.759	-1.252	0.244	1.160	57.312	-20.691	-74.67	29.28	-105.57	-37.730	-14.406	-6.860	-0.59546	0.19971	-0.58286	0.51544	27.5	13111	100
2025-3-27 20:11:15.854	WT901BLE68-01(48591DE3C19B)	-0.759	-1.521	0.320	11.169	69.458	-66.040	-75.04	28.99	-106.42	-37.730	-14.406	-6.860	-0.59546	0.19971	-0.58286	0.51544	27.5	13111	100
2025-3-27 20:11:15.855	WT901BLE68-01(48591DE3C19B)	-1.003	-1.521	0.320	11.169	69.458	-66.040	-75.40	28.49	-107.39	-37.730	-14.406	-6.860	-0.59546	0.19971	-0.58286	0.51544	27.5	13111	100
2025-3-27 20:11:15.855	WT901BLE68-01(48591DE3C19B)	-1.003	-1.474	0.490	14.099	68.848	-80.505	-75.74	27.92	-108.37	-37.730	-14.406	-6.860	-0.59546	0.19971	-0.58286	0.51544	27.5	13111	100
2025-3-27 20:11:15.863	WT901BLE68-01(48591DE3C19B)	-1.195	-1.474	0.490	14.099	68.848	-80.505	-76.06	27.30	-109.35	-37.730	-14.406	-6.860	-0.59546	0.19971	-0.58286	0.51544	27.5	13111	100
2025-3-27 20:11:15.863	WT901BLE68-01(48591DE3C19B)	-1.195	-1.220	0.582	15.808	86.731	-86.060	-76.39	26.67	-110.43	-37.730	-14.406	-6.860	-0.59546	0.19971	-0.58286	0.51544	27.5	13111	100
2025-3-27 20:11:15.864	WT901BLE68-01(48591DE3C19B)	-1.083	-1.220	0.582	15.808	86.731	-86.060	-76.73	26.05	-111.60	-37.730	-14.406	-6.860	-0.59546	0.19971	-0.58286	0.51544	27.5	13111	100
2025-3-27 20:11:15.864	WT901BLE68-01(48591DE3C19B)	-1.083	-1.020	0.620	10.010	88.318	-66.101	-77.07	25.54	-112.76	-37.730	-14.406	-6.860	-0.59546	0.19971	-0.58286	0.51544	27.5	13111	100
2025-3-27 20:11:15.916	WT901BLE68-01(48591DE3C19B)	-0.938	-1.020	0.620	10.010	88.318	-66.101	-77.42	25.13	-113.89	-37.730	-14.406	-6.860	-0.59546	0.19971	-0.58286	0.51544	27.5	13111	100
2025-3-27 20:11:15.916	WT901BLE68-01(48591DE3C19B)	-0.938	-0.917	0.530	2.808	59.631	-44.983	-77.70	24.80	-114.85	-37.730	-14.406	-6.860	-0.59546	0.19971	-0.58286	0.51544	27.5	13111	100
2025-3-27 20:11:15.917	WT901BLE68-01(48591DE3C19B)	-0.894	-0.917	0.530	2.808	59.631	-44.983	-77.93	24.54	-115.61	-37.730	-14.406	-6.860	-0.59546	0.19971	-0.58286	0.51544	27.5	13111	100
2025-3-27 20:11:15.917	WT901BLE68-01(48591DE3C19B)	-0.894	-0.768	0.379	-4.944	4.333	-22.217	-77.96	24.39	-115.74	-37.730	-14.406	-6.860	-0.59546	0.19971	-0.58286	0.51544	27.5	13111	100
2025-3-27 20:11:15.946	WT901BLE68-01(48591DE3C19B)	-0.801	-0.768	0.379	-4.944	4.333	-22.217	-77.99	24.25	-115.87	-37.730	-14.406	-6.860	-0.59546	0.19971	-0.58286	0.51544	27.5	13111	100
2025-3-27 20:11:15.946	WT901BLE68-01(48591DE3C19B)	-0.801	-0.755	0.290	-23.193	-52.490	-5.798	-77.94	24.16	-115.37	-37.730	-14.406	-6.860	-0.59546	0.19971	-0.58286	0.51544	27.5	13111	100
2025-3-27 20:11:15.946	WT901BLE68-01(48591DE3C19B)	-0.569	-0.755	0.290	-23.193	-52.490	-5.798	-77.88	24.07	-114.87	-37.730	-14.406	-6.860	-0.59546	0.19971	-0.58286	0.51544	27.5	13111	100
2025-3-27 20:11:15.946	WT901BLE68-01(48591DE3C19B)	-0.569	-0.796	0.275	-24.170	-65.369	6.592	-77.78	24.08	-114.20	-37.730	-14.406	-6.860	-0.59546	0.19971	-0.58286	0.51544	27.5	13111	100
2025-3-27 20:11:15.977	WT901BLE68-01(48591DE3C19B)	-0.403	-0.796	0.275	-24.170	-65.369	6.592	-77.67	24.08	-113.54	-37.730	-14.406	-6.860	-0.59546	0.19971	-0.58286	0.51544	27.5	13111	100
2025-3-27 20:11:15.977	WT901BLE68-01(48591DE3C19B)	-0.403	-0.700	0.314	-11.108	-41.748	14.954	-77.53	24.21	-113.10	-37.730	-14.406	-6.860	-0.59546	0.19971	-0.58286	0.51544	27.5	13111	100
2025-3-27 20:11:15.977	WT901BLE68-01(48591DE3C19B)	-0.281	-0.700	0.314	-11.108	-41.748	14.954	-77.38	24.33	-112.66	-37.730	-14.406	-6.860	-0.59546	0.19971	-0.58286	0.51544	27.5	13111	100
2025-3-27 20:11:15.977	WT901BLE68-01(48591DE3C19B)	-0.281	-0.521	0.315	-2.563	-5.554	18.372	-77.31	24.56	-112.61	-37.730	-14.406	-6.860	-0.59546	0.19971	-0.58286	0.51544	27.5	13111	100
2025-3-27 20:11:16.33	WT901BLE68-01(48591DE3C19B)	-0.242	-0.521	0.315	-2.563	-5.554	18.372	-77.23	24.79	-112.55	-37.730	-14.406	-6.860	-0.59546	0.19971	-0.58286	0.51544	27.5	13111	100
2025-3-27 20:11:16.34	WT901BLE68-01(48591DE3C19B)	-0.242	-0.360	0.285	5.249	33.142	23.560	-77.23	25.14	-112.90	-37.730	-14.406	-6.860	-0.59546	0.19971	-0.58286	0.51544	27.5	13111	100
2025-3-27 20:11:16.34	WT901BLE68-01(48591DE3C19B)	-0.278	-0.360	0.285	5.249	33.142	23.560	-77.24	25.49	-113.25	-37.730	-14.406	-6.860	-0.59546	0.19971	-0.58286	0.51544	27.5	13111	100
2025-3-27 20:11:16.34	WT901BLE68-01(48591DE3C19B)	-0.278	-0.212	0.228	10.254	55.725	30.396	-77.29	25.96	-113.84	-37.730	-14.406	-6.860	-0.59546	0.19971	-0.58286	0.51544	27.5	13111	100
2025-3-27 20:11:16.63	WT901BLE68-01(48591DE3C19B)	-0.308	-0.212	0.228	10.254	55.725	30.396	-77.34	26.42	-114.43	-37.730	-14.406	-6.860	-0.59546	0.19971	-0.58286	0.51544	27.5	13111	100
2025-3-27 20:11:16.63	WT901BLE68-01(48591DE3C19B)	-0.308	-0.060	0.197	5.493	47.607	39.307	-77.38	26.95	-114.93	-37.730	-14.406	-6.860	-0.59546	0.19971	-0.58286	0.51544	27.5	13111	100
2025-3-27 20:11:16.63	WT901BLE68-01(48591DE3C19B)	-0.360	-0.060	0.197	5.493	47.607	39.307	-77.42	27.49	-115.45	-37.730	-14.406	-6.860	-0.59546	0.19971	-0.58286	0.51544	27.5	13111	100
2025-3-27 20:11:16.63	WT901BLE68-01(48591DE3C19B)	-0.360	-0.116	0.145	-14.771	14.038	42.786	-77.49	27.99	-115.60	-37.730	-14.406	-6.860	-0.59546	0.19971	-0.58286	0.51544	27.5	13111	100
2025-3-27 20:11:16.94	WT901BLE68-01(48591DE3C19B)	-0.390	-0.116	0.145	-14.771	14.038	42.786	-77.55	28.48	-115.78	-37.730	-14.406	-6.860	-0.59546	0.19971	-0.58286	0.51544	27.5	13111	100
2025-3-27 20:11:16.94	WT901BLE68-01(48591DE3C19B)	-0.390	-0.414	0.072	-34.668	-27.283	40.771	-77.59	28.88	-115.50	-37.730	-14.406	-6.860	-0.59546	0.19971	-0.58286	0.51544	27.5	13111	100
2025-3-27 20:11:16.94	WT901BLE68-01(48591DE3C19B)	-0.417	-0.414	0.072	-34.668	-27.283	40.771	-77.64	29.27	-115.24	-37.730	-14.406	-6.860	-0.59546	0.19971	-0.58286	0.51544	27.5	13111	100
2025-3-27 20:11:16.94	WT901BLE68-01(48591DE3C19B)	-0.417	-0.823	0.027	-48.157	-68.115	34.363	-77.63	29.51	-114.51	-37.730	-14.406	-6.860	-0.59546	0.19971	-0.58286	0.51544	27.5	13111	100
2025-3-27 20:11:16.153	WT901BLE68-01(48591DE3C19B)	-0.403	-0.823	0.027	-48.157	-68.115	34.363	-77.63	29.75	-113.75	-37.730	-14.406	-6.860	-0.59546	0.19971	-0.58286	0.51544	27.5	13111	100
2025-3-27 20:11:16.153	WT901BLE68-01(48591DE3C19B)	-0.403	-1.457	0.011	-55.359	-96.741	8.911	-77.60	29.66	-112.70	-37.730	-14.406	-6.860	-0.59546	0.19971	-0.58286	0.51544	27.5	13111	100
2025-3-27 20:11:16.153	WT901BLE68-01(48591DE3C19B)	-0.328	-1.457	0.011	-55.359	-96.741	8.911	-77.60	29.55	-111.60	-37.730	-14.406	-6.860	-0.59546	0.19971	-0.58286	0.51544	27.5	13111	100
2025-3-27 20:11:16.154	WT901BLE68-01(48591DE3C19B)	-0.328	-2.240	0.042	-31.555	-94.849	-16.296	-77.43	29.17	-110.57	-37.730	-14.406	-6.860	-0.59546	0.19971	-0.58286	0.51544	27.5	13111	100
2025-3-27 20:11:16.185	WT901BLE68-01(48591DE3C19B)	-0.300	-2.240	0.042	-31.555	-94.849	-16.296	-77.28	28.77	-109.53	-37.730	-14.406	-6.860	-0.59546	0.19971	-0.58286	0.51544	27.5	13111	100
2025-3-27 20:11:16.185	WT901BLE68-01(48591DE3C19B)	-0.300	-2.382	0.092	10.681	-64.331	-23.865	-76.89	28.34	-108.84	-37.730	-14.406	-6.860	-0.59546	0.19971	-0.58286	0.51544	27.5	13111	100
2025-3-27 20:11:16.186	WT901BLE68-01(48591DE3C19B)	-0.310	-2.382	0.092	10.681	-64.331	-23.865	-76.52	27.89	-108.16	-37.730	-14.406	-6.860	-0.59546	0.19971	-0.58286	0.51544	27.5	13111	100
2025-3-27 20:11:16.186	WT901BLE68-01(48591DE3C19B)	-0.310	-1.765	0.151	28.076	-18.494	-34.973	-76.23	27.44	-108.02	-37.730	-14.406	-6.860	-0.59546	0.19971	-0.58286	0.51544	27.5	13111	100
2025-3-27 20:11:16.214	WT901BLE68-01(48591DE3C19B)	-0.219	-1.765	0.151	28.076	-18.494	-34.973	-75.95	26.99	-107.87	-37.730	-14.406	-6.860	-0.59546	0.19971	-0.58286	0.51544	27.5	13111	100
2025-3-27 20:11:16.214	WT901BLE68-01(48591DE3C19B)	-0.219	-1.559	0.143	23.682	22.888	-39.978	-75.93	26.58	-108.20	-37.730	-14.406	-6.860	-0.59546	0.19971	-0.58286	0.51544	27.5	13111	100
2025-3-27 20:11:16.214	WT901BLE68-01(48591DE3C19B)	-0.240	-1.559	0.143	23.682	22.888	-39.978	-75.90	26.17	-108.52	-37.730	-14.406	-6.860	-0.59546	0.19971	-0.58286	0.51544	27.8	13111	100
2025-3-27 20:11:16.214	WT901BLE68-01(48591DE3C19B)	-0.240	-1.306	0.185	19.409	49.072	-36.438	-76.03	25.87	-109.12	-37.730	-14.406	-6.860	-0.59546	0.19971	-0.58286	0.51544	27.8	13111	100
2025-3-27 20:11:16.274	WT901BLE68-01(48591DE3C19B)	-0.283	-1.306	0.185	19.409	49.072	-36.438	-76.15	25.55	-109.70	-37.730	-14.406	-6.860	-0.59546	0.19971	-0.58286	0.51544	27.8	13111	100
2025-3-27 20:11:16.274	WT901BLE68-01(48591DE3C19B)	-0.283	-1.001	0.244	8.118	36.743	-34.851	-76.32	25.23	-110.14	-37.730	-14.406	-6.860	-0.59546	0.19971	-0.58286	0.51544	27.8	13111	100
2025-3-27 20:11:16.275	WT901BLE68-01(48591DE3C19B)	-0.305	-1.001	0.244	8.118	36.743	-34.851	-76.48	24.91	-110.59	-37.730	-14.406	-6.860	-0.59546	0.19971	-0.58286	0.51544	27.8	13111	100
2025-3-27 20:11:16.275	WT901BLE68-01(48591DE3C19B)	-0.305	-0.728	0.291	0.183	11.902	-36.804	-76.60	24.51	-110.76	-37.730	-14.406	-6.860	-0.59546	0.19971	-0.58286	0.51544	27.8	13111	100
2025-3-27 20:11:16.304	WT901BLE68-01(48591DE3C19B)	-0.319	-0.728	0.291	0.183	11.902	-36.804	-76.71	24.12	-110.95	-37.730	-14.406	-6.860	-0.59546	0.19971	-0.58286	0.51544	27.8	13111	100
2025-3-27 20:11:16.304	WT901BLE68-01(48591DE3C19B)	-0.319	-0.493	0.251	-1.343	-6.042	-34.607	-76.76	23.71	-110.93	-37.730	-14.406	-6.860	-0.59546	0.19971	-0.58286	0.51544	27.8	13111	100
2025-3-27 20:11:16.304	WT901BLE68-01(48591DE3C19B)	-0.273	-0.493	0.251	-1.343	-6.042	-34.607	-76.79	23.32	-110.93	-37.730	-14.406	-6.860	-0.59546	0.19971	-0.58286	0.51544	27.8	13111	100
2025-3-27 20:11:16.304	WT901BLE68-01(48591DE3C19B)	-0.273	-0.294	0.179	-2.380	-14.465	-24.231	-76.79	23.02	-110.81	-37.730	-14.406	-6.860	-0.59546	0.19971	-0.58286	0.51544	27.8	13111	100
2025-3-27 20:11:16.333	WT901BLE68-01(48591DE3C19B)	-0.194	-0.294	0.179	-2.380	-14.465	-24.231	-76.79	22.71	-110.70	-37.730	-14.406	-6.860	-0.59546	0.19971	-0.58286	0.51544	27.8	13111	100
2025-3-27 20:11:16.334	WT901BLE68-01(48591DE3C19B)	-0.194	-0.188	0.133	-0.427	-16.907	-8.606	-76.73	22.57	-110.53	-37.730	-14.406	-6.860	-0.59546	0.19971	-0.58286	0.51544	27.8	13111	100
2025-3-27 20:11:16.334	WT901BLE68-01(48591DE3C19B)	-0.167	-0.188	0.133	-0.427	-16.907	-8.606	-76.68	22.43	-110.36	-37.730	-14.406	-6.860	-0.59546	0.19971	-0.58286	0.51544	27.8	13111	100
2025-3-27 20:11:16.334	WT901BLE68-01(48591DE3C19B)	-0.195	-0.169	0.120	3.052	-17.151	7.324	-76.57	22.45	-110.16	-37.730	-14.406	-6.860	-0.59546	0.19971	-0.58286	0.51544	27.8	13111	100
2025-3-27 20:11:16.395	WT901BLE68-01(48591DE3C19B)	-0.195	-0.188	0.131	5.615	-15.625	21.790	-76.45	22.54	-109.95	-37.730	-14.406	-6.860	-0.59546	0.19971	-0.58286	0.51544	27.8	13111	100
2025-3-27 20:11:16.395	WT901BLE68-01(48591DE3C19B)	-0.265	-0.188	0.131	5.615	-15.625	21.790	-76.30	22.71	-109.74	-37.730	-14.406	-6.860	-0.59546	0.19971	-0.58286	0.51544	27.8	13111	100
2025-3-27 20:11:16.395	WT901BLE68-01(48591DE3C19B)	-0.265	-0.319	0.129	3.174	-9.949	32.166	-76.16	22.93	-109.55	-37.730	-14.406	-6.860	-0.59546	0.19971	-0.58286	0.51544	27.8	13111	100
2025-3-27 20:11:16.395	WT901BLE68-01(48591DE3C19B)	-0.345	-0.319	0.129	3.174	-9.949	32.166	-76.05	23.23	-109.39	-37.730	-14.406	-6.860	-0.59546	0.19971	-0.58286	0.51544	27.8	13111	100
2025-3-27 20:11:16.425	WT901BLE68-01(48591DE3C19B)	-0.345	-0.553	0.147	-1.038	-2.686	34.912	-75.96	23.54	-109.26	-37.730	-14.406	-6.860	-0.59546	0.19971	-0.58286	0.51544	27.8	13111	100
2025-3-27 20:11:16.425	WT901BLE68-01(48591DE3C19B)	-0.439	-0.553	0.147	-1.038	-2.686	34.912	-75.91	23.88	-109.17	-37.730	-14.406	-6.860	-0.59546	0.19971	-0.58286	0.51544	27.8	13111	100
2025-3-27 20:11:16.425	WT901BLE68-01(48591DE3C19B)	-0.439	-0.854	0.187	-6.531	3.418	28.503	-75.90	24.20	-109.12	-37.730	-14.406	-6.860	-0.59546	0.19971	-0.58286	0.51544	27.8	13111	100
2025-3-27 20:11:16.425	WT901BLE68-01(48591DE3C19B)	-0.517	-0.854	0.187	-6.531	3.418	28.503	-75.95	24.49	-109.11	-37.730	-14.406	-6.860	-0.59546	0.19971	-0.58286	0.51544	27.8	13111	100
2025-3-27 20:11:16.453	WT901BLE68-01(48591DE3C19B)	-0.517	-1.233	0.246	-9.399	2.441	0.610	-76.02	24.65	-109.13	-37.730	-14.406	-6.860	-0.59546	0.19971	-0.58286	0.51544	27.8	13111	100
2025-3-27 20:11:16.454	WT901BLE68-01(48591DE3C19B)	-0.613	-1.233	0.246	-9.399	2.441	0.610	-76.12	24.66	-109.19	-37.730	-14.406	-6.860	-0.59546	0.19971	-0.58286	0.51544	27.8	13111	100
2025-3-27 20:11:16.454	WT901BLE68-01(48591DE3C19B)	-0.613	-1.667	0.410	0.122	4.700	-48.035	-76.21	24.44	-109.31	-37.436	-24.402	-4.998	-0.59546	0.19971	-0.58286	0.51544	27.8	13111	100
2025-3-27 20:11:16.454	WT901BLE68-01(48591DE3C19B)	-0.859	-1.667	0.410	0.122	4.700	-48.035	-76.28	23.98	-109.51	-37.436	-24.402	-4.998	-0.59546	0.19971	-0.58286	0.51544	27.8	13111	100
2025-3-27 20:11:16.514	WT901BLE68-01(48591DE3C19B)	-0.859	-1.944	0.550	7.141	14.893	-61.279	-76.34	23.47	-109.77	-37.436	-24.402	-4.998	-0.59546	0.19971	-0.58286	0.51544	27.8	13111	100
2025-3-27 20:11:16.514	WT901BLE68-01(48591DE3C19B)	-1.016	-1.944	0.550	7.141	14.893	-61.279	-76.39	22.91	-110.10	-37.436	-24.402	-4.998	-0.59546	0.19971	-0.58286	0.51544	27.8	13111	100
2025-3-27 20:11:16.514	WT901BLE68-01(48591DE3C19B)	-1.016	-1.647	0.597	27.771	48.401	-74.768	-76.40	22.32	-110.63	-37.436	-24.402	-4.998	-0.59546	0.19971	-0.58286	0.51544	27.8	13111	100
2025-3-27 20:11:16.514	WT901BLE68-01(48591DE3C19B)	-0.808	-1.647	0.597	27.771	48.401	-74.768	-76.37	21.73	-111.35	-37.436	-24.402	-4.998	-0.59546	0.19971	-0.58286	0.51544	27.8	13111	100
2025-3-27 20:11:16.543	WT901BLE68-01(48591DE3C19B)	-0.808	-1.163	0.543	29.541	71.533	-61.707	-76.36	21.23	-112.16	-37.436	-24.402	-4.998	-0.59546	0.19971	-0.58286	0.51544	27.8	13111	100
2025-3-27 20:11:16.544	WT901BLE68-01(48591DE3C19B)	-0.528	-1.163	0.543	29.541	71.533	-61.707	-76.37	20.83	-113.09	-37.436	-24.402	-4.998	-0.59546	0.19971	-0.58286	0.51544	27.8	13111	100
2025-3-27 20:11:16.544	WT901BLE68-01(48591DE3C19B)	-0.528	-0.863	0.389	19.836	76.599	-44.983	-76.42	20.52	-114.02	-37.436	-24.402	-4.998	-0.59546	0.19971	-0.58286	0.51544	27.8	13111	100
2025-3-27 20:11:16.544	WT901BLE68-01(48591DE3C19B)	-0.531	-0.863	0.389	19.836	76.599	-44.983	-76.50	20.30	-114.95	-37.436	-24.402	-4.998	-0.59546	0.19971	-0.58286	0.51544	27.8	13111	100
2025-3-27 20:11:16.574	WT901BLE68-01(48591DE3C19B)	-0.531	-0.641	0.276	4.395	29.358	-17.700	-76.56	20.15	-115.60	-37.436	-24.402	-4.998	-0.59546	0.19971	-0.58286	0.51544	27.8	13111	100
2025-3-27 20:11:16.574	WT901BLE68-01(48591DE3C19B)	-0.543	-0.641	0.276	4.395	29.358	-17.700	-76.61	20.10	-115.97	-37.436	-24.402	-4.998	-0.59546	0.19971	-0.58286	0.51544	27.8	13111	100
2025-3-27 20:11:16.574	WT901BLE68-01(48591DE3C19B)	-0.543	-0.598	0.202	-30.396	-57.678	-2.991	-76.66	20.01	-115.88	-37.436	-24.402	-4.998	-0.59546	0.19971	-0.58286	0.51544	27.8	13111	100
2025-3-27 20:11:16.574	WT901BLE68-01(48591DE3C19B)	-0.328	-0.598	0.202	-30.396	-57.678	-2.991	-76.72	19.91	-115.32	-37.436	-24.402	-4.998	-0.59546	0.19971	-0.58286	0.51544	27.8	13111	100
2025-3-27 20:11:16.636	WT901BLE68-01(48591DE3C19B)	-0.328	-0.640	0.198	-41.626	-101.685	14.038	-76.76	19.84	-114.52	-37.436	-24.402	-4.998	-0.59546	0.19971	-0.58286	0.51544	27.8	13111	100
2025-3-27 20:11:16.636	WT901BLE68-01(48591DE3C19B)	-0.201	-0.640	0.198	-41.626	-101.685	14.038	-76.77	19.80	-113.48	-37.436	-24.402	-4.998	-0.59546	0.19971	-0.58286	0.51544	27.8	13111	100
2025-3-27 20:11:16.636	WT901BLE68-01(48591DE3C19B)	-0.201	-0.525	0.215	-28.870	-83.923	27.527	-76.75	19.84	-112.51	-37.436	-24.402	-4.998	-0.59546	0.19971	-0.58286	0.51544	27.8	13111	100
2025-3-27 20:11:16.636	WT901BLE68-01(48591DE3C19B)	-0.092	-0.525	0.215	-28.870	-83.923	27.527	-76.68	19.97	-111.63	-37.436	-24.402	-4.998	-0.59546	0.19971	-0.58286	0.51544	27.8	13111	100
2025-3-27 20:11:16.667	WT901BLE68-01(48591DE3C19B)	-0.092	-0.260	0.241	-17.395	-44.128	25.146	-76.62	20.12	-110.95	-37.436	-24.402	-4.998	-0.59546	0.19971	-0.58286	0.51544	27.8	13111	100
2025-3-27 20:11:16.667	WT901BLE68-01(48591DE3C19B)	-0.028	-0.260	0.241	-17.395	-44.128	25.146	-76.57	20.31	-110.48	-37.436	-24.402	-4.998	-0.59546	0.19971	-0.58286	0.51544	27.8	13111	100
2025-3-27 20:11:16.667	WT901BLE68-01(48591DE3C19B)	-0.028	-0.084	0.267	-13.428	-0.061	31.860	-76.57	20.57	-110.24	-37.436	-24.402	-4.998	-0.59546	0.19971	-0.58286	0.51544	27.8	13111	100
2025-3-27 20:11:16.667	WT901BLE68-01(48591DE3C19B)	-0.113	-0.084	0.267	-13.428	-0.061	31.860	-76.62	20.91	-110.22	-37.436	-24.402	-4.998	-0.53363	0.23184	-0.58148	0.56857	27.8	13111	100
2025-3-27 20:11:16.725	WT901BLE68-01(48591DE3C19B)	-0.113	-0.101	0.255	-11.047	30.762	33.752	-76.70	21.29	-110.36	-37.436	-24.402	-4.998	-0.53363	0.23184	-0.58148	0.56857	27.8	13111	100
2025-3-27 20:11:16.725	WT901BLE68-01(48591DE3C19B)	-0.321	-0.101	0.255	-11.047	30.762	33.752	-76.81	21.71	-110.67	-37.436	-24.402	-4.998	-0.53363	0.23184	-0.58148	0.56857	27.8	13111	100
2025-3-27 20:11:16.725	WT901BLE68-01(48591DE3C19B)	-0.321	-0.310	0.226	-13.733	27.527	29.785	-76.93	22.11	-110.97	-37.436	-24.402	-4.998	-0.53363	0.23184	-0.58148	0.56857	27.8	13111	100
2025-3-27 20:11:16.725	WT901BLE68-01(48591DE3C19B)	-0.442	-0.310	0.226	-13.733	27.527	29.785	-77.05	22.49	-111.26	-37.436	-24.402	-4.998	-0.53363	0.23184	-0.58148	0.56857	27.8	13111	100
2025-3-27 20:11:16.753	WT901BLE68-01(48591DE3C19B)	-0.442	-0.634	0.086	-25.146	-1.892	21.240	-77.18	22.79	-111.41	-37.436	-24.402	-4.998	-0.53363	0.23184	-0.58148	0.56857	27.8	13111	100
2025-3-27 20:11:16.754	WT901BLE68-01(48591DE3C19B)	-0.469	-0.634	0.086	-25.146	-1.892	21.240	-77.32	23.03	-111.42	-37.436	-24.402	-4.998	-0.53363	0.23184	-0.58148	0.56857	27.8	13111	100
2025-3-27 20:11:16.754	WT901BLE68-01(48591DE3C19B)	-0.469	-1.186	-0.006	-47.485	-42.786	2.136	-77.51	23.13	-111.22	-37.436	-24.402	-4.998	-0.53363	0.23184	-0.58148	0.56857	27.8	13111	100
2025-3-27 20:11:16.754	WT901BLE68-01(48591DE3C19B)	-0.497	-1.186	-0.006	-47.485	-42.786	2.136	-77.76	23.09	-110.81	-37.436	-24.402	-4.998	-0.53363	0.23184	-0.58148	0.56857	27.8	13111	100
2025-3-27 20:11:16.785	WT901BLE68-01(48591DE3C19B)	-0.497	-2.123	-0.129	-46.570	-70.068	-16.541	-77.98	22.93	-110.27	-37.436	-24.402	-4.998	-0.53363	0.23184	-0.58148	0.56857	27.8	13111	100
2025-3-27 20:11:16.785	WT901BLE68-01(48591DE3C19B)	-0.425	-2.123	-0.129	-46.570	-70.068	-16.541	-78.18	22.63	-109.57	-37.436	-24.402	-4.998	-0.53363	0.23184	-0.58148	0.56857	27.8	13111	100
2025-3-27 20:11:16.785	WT901BLE68-01(48591DE3C19B)	-0.425	-2.626	-0.094	-0.427	-82.031	-9.094	-78.15	22.35	-108.80	-37.436	-24.402	-4.998	-0.53363	0.23184	-0.58148	0.56857	27.8	13111	100
2025-3-27 20:11:16.785	WT901BLE68-01(48591DE3C19B)	-0.411	-2.626	-0.094	-0.427	-82.031	-9.094	-77.87	22.07	-107.94	-37.436	-24.402	-4.998	-0.53363	0.23184	-0.58148	0.56857	27.8	13111	100
2025-3-27 20:11:16.844	WT901BLE68-01(48591DE3C19B)	-0.411	-1.879	0.147	36.072	-82.764	-6.714	-77.43	21.79	-107.08	-37.436	-24.402	-4.998	-0.53363	0.23184	-0.58148	0.56857	27.8	13111	100
2025-3-27 20:11:16.844	WT901BLE68-01(48591DE3C19B)	-0.101	-1.879	0.147	36.072	-82.764	-6.714	-76.81	21.50	-106.23	-37.436	-24.402	-4.998	-0.53363	0.23184	-0.58148	0.56857	27.8	13111	100
2025-3-27 20:11:16.844	WT901BLE68-01(48591DE3C19B)	-0.101	-1.467	0.193	20.386	-51.514	1.709	-76.33	21.29	-105.53	-37.436	-24.402	-4.998	-0.53363	0.23184	-0.58148	0.56857	27.8	13111	100
2025-3-27 20:11:16.844	WT901BLE68-01(48591DE3C19B)	-0.018	-1.467	0.193	20.386	-51.514	1.709	-75.98	21.14	-105.00	-37.436	-24.402	-4.998	-0.53363	0.23184	-0.58148	0.56857	27.8	13111	100
2025-3-27 20:11:16.875	WT901BLE68-01(48591DE3C19B)	-0.018	-1.178	0.243	23.010	3.418	18.677	-75.81	21.29	-104.99	-37.436	-24.402	-4.998	-0.53363	0.23184	-0.58148	0.56857	27.8	13111	100
2025-3-27 20:11:16.875	WT901BLE68-01(48591DE3C19B)	-0.073	-1.178	0.243	23.010	3.418	18.677	-75.62	21.42	-104.99	-37.436	-24.402	-4.998	-0.53363	0.23184	-0.58148	0.56857	27.8	13111	100
2025-3-27 20:11:16.875	WT901BLE68-01(48591DE3C19B)	-0.073	-0.899	0.261	10.925	31.921	28.870	-75.66	21.73	-105.25	-37.436	-24.402	-4.998	-0.53363	0.23184	-0.58148	0.56857	27.8	13111	100
2025-3-27 20:11:16.875	WT901BLE68-01(48591DE3C19B)	-0.095	-0.899	0.261	10.925	31.921	28.870	-75.69	22.02	-105.52	-46.550	-24.598	-9.016	-0.53363	0.23184	-0.58148	0.56857	27.8	13111	100
2025-3-27 20:11:16.906	WT901BLE68-01(48591DE3C19B)	-0.095	-0.720	0.292	4.333	39.429	21.423	-75.82	22.26	-105.88	-46.550	-24.598	-9.016	-0.53363	0.23184	-0.58148	0.56857	27.8	13111	100
2025-3-27 20:11:16.906	WT901BLE68-01(48591DE3C19B)	-0.165	-0.720	0.292	4.333	39.429	21.423	-75.94	22.49	-106.25	-46.550	-24.598	-9.016	-0.53363	0.23184	-0.58148	0.56857	27.8	13111	100
2025-3-27 20:11:16.906	WT901BLE68-01(48591DE3C19B)	-0.165	-0.542	0.268	4.517	43.152	13.855	-76.09	22.66	-106.68	-46.550	-24.598	-9.016	-0.53363	0.23184	-0.58148	0.56857	27.8	13111	100
2025-3-27 20:11:16.906	WT901BLE68-01(48591DE3C19B)	-0.213	-0.542	0.268	4.517	43.152	13.855	-76.22	22.82	-107.11	-46.550	-24.598	-9.016	-0.53363	0.23184	-0.58148	0.56857	27.8	13111	100
2025-3-27 20:11:16.964	WT901BLE68-01(48591DE3C19B)	-0.213	-0.370	0.164	6.287	47.119	14.832	-76.35	23.02	-107.57	-46.550	-24.598	-9.016	-0.53363	0.23184	-0.58148	0.56857	27.8	13111	100
2025-3-27 20:11:16.964	WT901BLE68-01(48591DE3C19B)	-0.194	-0.370	0.164	6.287	47.119	14.832	-76.49	23.21	-108.05	-46.550	-24.598	-9.016	-0.53363	0.23184	-0.58148	0.56857	27.8	13111	100
2025-3-27 20:11:16.964	WT901BLE68-01(48591DE3C19B)	-0.194	-0.252	0.089	8.789	52.429	16.785	-76.61	23.43	-108.57	-46.550	-24.598	-9.016	-0.53363	0.23184	-0.58148	0.56857	27.8	13111	100
2025-3-27 20:11:16.964	WT901BLE68-01(48591DE3C19B)	-0.186	-0.252	0.089	8.789	52.429	16.785	-76.73	23.66	-109.09	-46.550	-24.598	-9.016	-0.53363	0.23184	-0.58148	0.56857	27.8	13111	100
2025-3-27 20:11:16.994	WT901BLE68-01(48591DE3C19B)	-0.186	-0.187	0.071	13.306	50.110	22.827	-76.80	23.94	-109.58	-46.550	-24.598	-9.016	-0.53363	0.23184	-0.58148	0.56857	27.8	13111	100
2025-3-27 20:11:16.994	WT901BLE68-01(48591DE3C19B)	-0.252	-0.187	0.071	13.306	50.110	22.827	-76.87	24.23	-110.07	-46.550	-24.598	-9.016	-0.53363	0.23184	-0.58148	0.56857	27.8	13111	100
2025-3-27 20:11:16.994	WT901BLE68-01(48591DE3C19B)	-0.252	-0.206	0.077	13.855	29.785	30.090	-76.83	24.55	-110.32	-46.550	-24.598	-9.016	-0.53363	0.23184	-0.58148	0.56857	27.8	13111	100
2025-3-27 20:11:16.994	WT901BLE68-01(48591DE3C19B)	-0.314	-0.206	0.077	13.855	29.785	30.090	-76.79	24.87	-110.58	-46.550	-24.598	-9.016	-0.53363	0.23184	-0.58148	0.56857	27.8	13111	100
2025-3-27 20:11:17.26	WT901BLE68-01(48591DE3C19B)	-0.314	-0.329	0.038	7.019	8.301	32.104	-76.73	25.18	-110.60	-46.550	-24.598	-9.016	-0.53363	0.23184	-0.58148	0.56857	27.8	13111	100
2025-3-27 20:11:17.26	WT901BLE68-01(48591DE3C19B)	-0.337	-0.329	0.038	7.019	8.301	32.104	-76.66	25.49	-110.64	-46.550	-24.598	-9.016	-0.53363	0.23184	-0.58148	0.56857	27.8	13111	100
2025-3-27 20:11:17.26	WT901BLE68-01(48591DE3C19B)	-0.337	-0.586	-0.026	-0.305	2.808	29.053	-76.66	25.76	-110.62	-46.550	-24.598	-9.016	-0.53363	0.23184	-0.58148	0.56857	27.8	13111	100
2025-3-27 20:11:17.26	WT901BLE68-01(48591DE3C19B)	-0.376	-0.586	-0.026	-0.305	2.808	29.053	-76.66	26.04	-110.59	-46.550	-24.598	-9.016	-0.53363	0.23184	-0.58148	0.56857	27.8	13111	100
2025-3-27 20:11:17.85	WT901BLE68-01(48591DE3C19B)	-0.376	-0.927	-0.048	-7.996	10.620	18.005	-76.81	26.23	-110.68	-46.550	-24.598	-9.016	-0.53363	0.23184	-0.58148	0.56857	27.8	13111	100
2025-3-27 20:11:17.85	WT901BLE68-01(48591DE3C19B)	-0.386	-0.927	-0.048	-7.996	10.620	18.005	-76.96	26.41	-110.75	-46.550	-24.598	-9.016	-0.54877	0.19678	-0.60098	0.54666	27.8	13111	100
2025-3-27 20:11:17.85	WT901BLE68-01(48591DE3C19B)	-0.386	-1.394	-0.026	-5.127	32.654	-10.498	-77.22	26.36	-111.13	-46.550	-24.598	-9.016	-0.54877	0.19678	-0.60098	0.54666	27.8	13111	100
2025-3-27 20:11:17.85	WT901BLE68-01(48591DE3C19B)	-0.479	-1.394	-0.026	-5.127	32.654	-10.498	-77.50	26.30	-111.49	-46.550	-24.598	-9.016	-0.54877	0.19678	-0.60098	0.54666	27.8	13111	100
2025-3-27 20:11:17.113	WT901BLE68-01(48591DE3C19B)	-0.479	-1.916	0.164	10.864	67.993	-52.979	-77.82	25.89	-112.34	-46.550	-24.598	-9.016	-0.54877	0.19678	-0.60098	0.54666	27.8	13111	100
2025-3-27 20:11:17.114	WT901BLE68-01(48591DE3C19B)	-0.909	-1.916	0.164	10.864	67.993	-52.979	-78.13	25.47	-113.18	-46.550	-24.598	-9.016	-0.54877	0.19678	-0.60098	0.54666	27.8	13111	100
2025-3-27 20:11:17.114	WT901BLE68-01(48591DE3C19B)	-0.909	-2.145	0.440	24.719	102.173	-64.453	-78.45	25.01	-114.40	-46.550	-24.598	-9.016	-0.54877	0.19678	-0.60098	0.54666	27.8	13111	100
2025-3-27 20:11:17.114	WT901BLE68-01(48591DE3C19B)	-1.135	-2.145	0.440	24.719	102.173	-64.453	-78.76	24.55	-115.61	-46.550	-24.598	-9.016	-0.54877	0.19678	-0.60098	0.54666	27.8	13111	100
2025-3-27 20:11:17.144	WT901BLE68-01(48591DE3C19B)	-1.135	-1.623	0.604	42.786	145.020	-75.928	-79.05	24.07	-117.31	-46.550	-24.598	-9.016	-0.54877	0.19678	-0.60098	0.54666	27.8	13111	100
2025-3-27 20:11:17.144	WT901BLE68-01(48591DE3C19B)	-0.984	-1.623	0.604	42.786	145.020	-75.928	-79.33	23.59	-119.00	-46.550	-24.598	-9.016	-0.54877	0.19678	-0.60098	0.54666	27.8	13111	100
2025-3-27 20:11:17.144	WT901BLE68-01(48591DE3C19B)	-0.984	-1.161	0.559	42.053	179.199	-50.598	-79.71	23.43	-121.00	-46.550	-24.598	-9.016	-0.54877	0.19678	-0.60098	0.54666	27.8	13111	100
2025-3-27 20:11:17.145	WT901BLE68-01(48591DE3C19B)	-0.748	-1.161	0.559	42.053	179.199	-50.598	-80.07	23.26	-123.00	-46.550	-24.598	-9.016	-0.54877	0.19678	-0.60098	0.54666	27.8	13111	100
2025-3-27 20:11:17.204	WT901BLE68-01(48591DE3C19B)	-0.748	-0.892	0.344	29.724	178.040	-27.222	-80.52	23.32	-124.95	-46.550	-24.598	-9.016	-0.54877	0.19678	-0.60098	0.54666	27.8	13111	100
2025-3-27 20:11:17.205	WT901BLE68-01(48591DE3C19B)	-0.606	-0.892	0.344	29.724	178.040	-27.222	-80.98	23.36	-126.89	-46.550	-24.598	-9.016	-0.54877	0.19678	-0.60098	0.54666	27.8	13111	100
2025-3-27 20:11:17.205	WT901BLE68-01(48591DE3C19B)	-0.606	-0.668	0.199	6.348	102.295	-3.723	-81.33	23.52	-127.98	-46.550	-24.598	-9.016	-0.54877	0.19678	-0.60098	0.54666	27.8	13111	100
2025-3-27 20:11:17.205	WT901BLE68-01(48591DE3C19B)	-0.623	-0.668	0.199	6.348	102.295	-3.723	-81.67	23.67	-129.07	-46.550	-24.598	-9.016	-0.54877	0.19678	-0.60098	0.54666	27.8	13111	100
2025-3-27 20:11:17.236	WT901BLE68-01(48591DE3C19B)	-0.623	-0.595	0.195	-24.719	-13.672	9.216	-81.82	23.79	-128.91	-46.550	-24.598	-9.016	-0.54877	0.19678	-0.60098	0.54666	27.8	13111	100
2025-3-27 20:11:17.236	WT901BLE68-01(48591DE3C19B)	-0.546	-0.595	0.195	-24.719	-13.672	9.216	-81.96	23.91	-128.75	-46.550	-24.598	-9.016	-0.54877	0.19678	-0.60098	0.54666	27.8	13111	100
2025-3-27 20:11:17.236	WT901BLE68-01(48591DE3C19B)	-0.546	-0.634	0.247	-46.143	-88.013	29.175	-81.97	24.12	-127.77	-46.550	-24.598	-9.016	-0.54877	0.19678	-0.60098	0.54666	27.8	13111	100
2025-3-27 20:11:17.236	WT901BLE68-01(48591DE3C19B)	-0.497	-0.634	0.247	-46.143	-88.013	29.175	-81.98	24.34	-126.80	-46.550	-24.598	-9.016	-0.54877	0.19678	-0.60098	0.54666	27.8	13111	100
2025-3-27 20:11:17.266	WT901BLE68-01(48591DE3C19B)	-0.497	-0.683	0.282	-44.983	-108.154	46.326	-81.86	24.69	-125.59	-46.550	-24.598	-9.016	-0.54877	0.19678	-0.60098	0.54666	27.8	13111	100
2025-3-27 20:11:17.267	WT901BLE68-01(48591DE3C19B)	-0.377	-0.683	0.282	-44.983	-108.154	46.326	-81.73	25.04	-124.38	-46.550	-24.598	-9.016	-0.54877	0.19678	-0.60098	0.54666	27.8	13111	100
2025-3-27 20:11:17.267	WT901BLE68-01(48591DE3C19B)	-0.377	-0.673	0.228	-35.217	-94.238	45.166	-81.56	25.39	-123.33	-34.692	-28.714	-4.802	-0.54877	0.19678	-0.60098	0.54666	27.8	13111	100
2025-3-27 20:11:17.267	WT901BLE68-01(48591DE3C19B)	-0.341	-0.673	0.228	-35.217	-94.238	45.166	-81.39	25.74	-122.27	-34.692	-28.714	-4.802	-0.54877	0.19678	-0.60098	0.54666	27.8	13111	100
2025-3-27 20:11:17.325	WT901BLE68-01(48591DE3C19B)	-0.381	-0.676	0.216	-22.705	-55.908	43.945	-81.26	26.13	-121.62	-34.692	-28.714	-4.802	-0.54877	0.19678	-0.60098	0.54666	27.8	13111	100
2025-3-27 20:11:17.325	WT901BLE68-01(48591DE3C19B)	-0.381	-0.582	0.218	-10.620	-20.386	34.302	-81.16	26.48	-121.18	-34.692	-28.714	-4.802	-0.54877	0.19678	-0.60098	0.54666	27.8	13111	100
2025-3-27 20:11:17.325	WT901BLE68-01(48591DE3C19B)	-0.264	-0.582	0.218	-10.620	-20.386	34.302	-81.09	26.82	-120.94	-34.692	-28.714	-4.802	-0.54877	0.19678	-0.60098	0.54666	27.8	13111	100
2025-3-27 20:11:17.325	WT901BLE68-01(48591DE3C19B)	-0.264	-0.395	0.217	-7.507	-24.780	28.503	-80.99	27.11	-120.68	-34.692	-28.714	-4.802	-0.54877	0.19678	-0.60098	0.54666	27.8	13111	100
2025-3-27 20:11:17.353	WT901BLE68-01(48591DE3C19B)	-0.174	-0.395	0.217	-7.507	-24.780	28.503	-80.85	27.38	-120.41	-34.692	-28.714	-4.802	-0.54877	0.19678	-0.60098	0.54666	27.8	13111	100
2025-3-27 20:11:17.353	WT901BLE68-01(48591DE3C19B)	-0.174	-0.271	0.233	-9.521	-27.832	32.593	-80.72	27.66	-120.11	-34.692	-28.714	-4.802	-0.54877	0.19678	-0.60098	0.54666	27.8	13111	100
2025-3-27 20:11:17.354	WT901BLE68-01(48591DE3C19B)	-0.261	-0.271	0.233	-9.521	-27.832	32.593	-80.58	27.95	-119.79	-34.692	-28.714	-4.802	-0.54877	0.19678	-0.60098	0.54666	27.8	13111	100
2025-3-27 20:11:17.354	WT901BLE68-01(48591DE3C19B)	-0.261	-0.304	0.241	-18.311	-39.368	37.109	-80.44	28.26	-119.41	-34.692	-28.714	-4.802	-0.54877	0.19678	-0.60098	0.54666	27.8	13111	100
2025-3-27 20:11:17.385	WT901BLE68-01(48591DE3C19B)	-0.300	-0.304	0.241	-18.311	-39.368	37.109	-80.30	28.57	-118.96	-34.692	-28.714	-4.802	-0.54877	0.19678	-0.60098	0.54666	27.8	13111	100
2025-3-27 20:11:17.385	WT901BLE68-01(48591DE3C19B)	-0.300	-0.527	0.199	-32.776	-68.726	39.856	-80.15	28.87	-118.35	-34.692	-28.714	-4.802	-0.54877	0.19678	-0.60098	0.54666	27.8	13111	100
2025-3-27 20:11:17.385	WT901BLE68-01(48591DE3C19B)	-0.250	-0.527	0.199	-32.776	-68.726	39.856	-79.99	29.15	-117.56	-34.692	-28.714	-4.802	-0.54877	0.19678	-0.60098	0.54666	27.8	13111	100
2025-3-27 20:11:17.386	WT901BLE68-01(48591DE3C19B)	-0.250	-0.850	0.112	-41.077	-84.045	36.621	-79.83	29.39	-116.69	-34.692	-28.714	-4.802	-0.54877	0.19678	-0.60098	0.54666	27.8	13111	100
2025-3-27 20:11:17.505	WT901BLE68-01(48591DE3C19B)	-0.255	-0.850	0.112	-41.077	-84.045	36.621	-79.67	29.60	-115.71	-34.692	-28.714	-4.802	-0.54877	0.19678	-0.60098	0.54666	27.8	13111	100
2025-3-27 20:11:17.505	WT901BLE68-01(48591DE3C19B)	-0.255	-1.503	0.051	-48.584	-74.646	19.348	-79.61	29.71	-114.79	-34.692	-28.714	-4.802	-0.54877	0.19678	-0.60098	0.54666	27.8	13111	100
2025-3-27 20:11:17.505	WT901BLE68-01(48591DE3C19B)	-0.346	-1.503	0.051	-48.584	-74.646	19.348	-79.62	29.73	-113.92	-34.692	-28.714	-4.802	-0.54877	0.19678	-0.60098	0.54666	27.8	13111	100
2025-3-27 20:11:17.505	WT901BLE68-01(48591DE3C19B)	-0.346	-2.476	-0.030	-27.466	-59.570	-9.155	-79.61	29.61	-113.14	-34.692	-28.714	-4.802	-0.54877	0.19678	-0.60098	0.54666	27.8	13111	100
2025-3-27 20:11:17.506	WT901BLE68-01(48591DE3C19B)	-0.450	-2.476	-0.030	-27.466	-59.570	-9.155	-79.57	29.34	-112.47	-34.692	-28.714	-4.802	-0.54877	0.19678	-0.60098	0.54666	27.8	13111	100
2025-3-27 20:11:17.506	WT901BLE68-01(48591DE3C19B)	-0.450	-2.218	0.058	32.043	-51.392	-3.601	-79.27	29.11	-111.83	-34.692	-28.714	-4.802	-0.54877	0.19678	-0.60098	0.54666	27.8	13111	100
2025-3-27 20:11:17.506	WT901BLE68-01(48591DE3C19B)	-0.424	-2.218	0.058	32.043	-51.392	-3.601	-78.70	28.89	-111.23	-34.692	-28.714	-4.802	-0.54877	0.19678	-0.60098	0.54666	27.8	13111	100
2025-3-27 20:11:17.506	WT901BLE68-01(48591DE3C19B)	-0.424	-1.360	0.153	31.555	-29.541	-12.329	-78.21	28.65	-110.76	-34.692	-28.714	-4.802	-0.55554	0.18912	-0.61197	0.53009	27.8	13111	100
2025-3-27 20:11:17.507	WT901BLE68-01(48591DE3C19B)	-0.251	-1.360	0.153	31.555	-29.541	-12.329	-77.78	28.39	-110.43	-34.692	-28.714	-4.802	-0.55554	0.18912	-0.61197	0.53009	27.8	13111	100
2025-3-27 20:11:17.507	WT901BLE68-01(48591DE3C19B)	-0.251	-1.181	0.127	25.574	21.973	-5.737	-77.53	28.21	-110.39	-34.692	-28.714	-4.802	-0.55554	0.18912	-0.61197	0.53009	27.8	13111	100
2025-3-27 20:11:17.507	WT901BLE68-01(48591DE3C19B)	-0.243	-1.181	0.127	25.574	21.973	-5.737	-77.43	28.13	-110.62	-34.692	-28.714	-4.802	-0.55554	0.18912	-0.61197	0.53009	27.8	13111	100
2025-3-27 20:11:17.507	WT901BLE68-01(48591DE3C19B)	-0.243	-1.117	0.151	30.518	68.237	-6.165	-77.43	28.09	-111.10	-34.692	-28.714	-4.802	-0.55554	0.18912	-0.61197	0.53009	27.8	13111	100
2025-3-27 20:11:17.685	WT901BLE68-01(48591DE3C19B)	-0.278	-1.117	0.151	30.518	68.237	-6.165	-77.53	28.09	-111.84	-34.692	-28.714	-4.802	-0.55554	0.18912	-0.61197	0.53009	27.8	13111	100
2025-3-27 20:11:17.685	WT901BLE68-01(48591DE3C19B)	-0.278	-0.902	0.173	28.809	67.871	-8.118	-77.63	28.08	-112.57	-34.692	-28.714	-4.802	-0.55554	0.18912	-0.61197	0.53009	27.8	13111	100
2025-3-27 20:11:17.685	WT901BLE68-01(48591DE3C19B)	-0.243	-0.902	0.173	28.809	67.871	-8.118	-77.73	28.06	-113.30	-34.692	-28.714	-4.802	-0.55554	0.18912	-0.61197	0.53009	27.8	13111	100
2025-3-27 20:11:17.685	WT901BLE68-01(48591DE3C19B)	-0.243	-0.748	0.211	21.790	49.866	-18.372	-77.83	27.98	-113.94	-34.692	-28.714	-4.802	-0.55554	0.18912	-0.61197	0.53009	27.8	13111	100
2025-3-27 20:11:17.686	WT901BLE68-01(48591DE3C19B)	-0.328	-0.748	0.211	21.790	49.866	-18.372	-77.92	27.83	-114.49	-34.692	-28.714	-4.802	-0.55554	0.18912	-0.61197	0.53009	27.8	13111	100
2025-3-27 20:11:17.686	WT901BLE68-01(48591DE3C19B)	-0.328	-0.598	0.208	25.391	38.391	-29.358	-77.95	27.61	-114.99	-34.692	-28.714	-4.802	-0.55554	0.18912	-0.61197	0.53009	27.8	13111	100
2025-3-27 20:11:17.686	WT901BLE68-01(48591DE3C19B)	-0.409	-0.598	0.208	25.391	38.391	-29.358	-77.94	27.33	-115.44	-34.692	-28.714	-4.802	-0.55554	0.18912	-0.61197	0.53009	27.8	13111	100
2025-3-27 20:11:17.686	WT901BLE68-01(48591DE3C19B)	-0.409	-0.441	0.145	28.015	29.541	-35.095	-77.89	27.03	-115.85	-34.692	-28.714	-4.802	-0.55554	0.18912	-0.61197	0.53009	27.8	13111	100
2025-3-27 20:11:17.687	WT901BLE68-01(48591DE3C19B)	-0.429	-0.441	0.145	28.015	29.541	-35.095	-77.81	26.70	-116.21	-34.692	-28.714	-4.802	-0.55554	0.18912	-0.61197	0.53009	27.8	13111	100
2025-3-27 20:11:17.687	WT901BLE68-01(48591DE3C19B)	-0.429	-0.355	0.097	27.405	22.461	-30.701	-77.70	26.39	-116.54	-34.692	-28.714	-4.802	-0.55554	0.18912	-0.61197	0.53009	27.8	13111	100
2025-3-27 20:11:17.687	WT901BLE68-01(48591DE3C19B)	-0.391	-0.355	0.097	27.405	22.461	-30.701	-77.58	26.11	-116.82	-34.692	-28.714	-4.802	-0.55554	0.18912	-0.61197	0.53009	27.8	13111	100
2025-3-27 20:11:17.687	WT901BLE68-01(48591DE3C19B)	-0.391	-0.306	0.091	27.283	9.338	-22.522	-77.42	25.87	-117.03	-34.692	-28.714	-4.802	-0.55554	0.18912	-0.61197	0.53009	27.8	13111	100
2025-3-27 20:11:17.688	WT901BLE68-01(48591DE3C19B)	-0.317	-0.306	0.091	27.283	9.338	-22.522	-77.23	25.66	-117.17	-34.692	-28.714	-4.802	-0.55554	0.18912	-0.61197	0.53009	27.8	13111	100
2025-3-27 20:11:17.688	WT901BLE68-01(48591DE3C19B)	-0.317	-0.259	0.143	27.588	-0.732	-9.888	-77.00	25.52	-117.24	-34.692	-28.714	-4.802	-0.55554	0.18912	-0.61197	0.53009	27.8	13111	100
2025-3-27 20:11:17.688	WT901BLE68-01(48591DE3C19B)	-0.348	-0.259	0.143	27.588	-0.732	-9.888	-76.74	25.43	-117.26	-34.692	-28.714	-4.802	-0.55554	0.18912	-0.61197	0.53009	27.8	13111	100
2025-3-27 20:11:17.688	WT901BLE68-01(48591DE3C19B)	-0.348	-0.261	0.181	28.809	-6.409	1.465	-76.45	25.41	-117.24	-34.692	-28.714	-4.802	-0.55554	0.18912	-0.61197	0.53009	27.8	13111	100
2025-3-27 20:11:17.716	WT901BLE68-01(48591DE3C19B)	-0.421	-0.261	0.181	28.809	-6.409	1.465	-76.13	25.43	-117.19	-34.692	-28.714	-4.802	-0.55554	0.18912	-0.61197	0.53009	27.8	13111	100
2025-3-27 20:11:17.716	WT901BLE68-01(48591DE3C19B)	-0.421	-0.363	0.157	26.794	-10.193	7.324	-75.80	25.49	-117.12	-34.692	-28.714	-4.802	-0.55554	0.18912	-0.61197	0.53009	27.8	13111	100
2025-3-27 20:11:17.716	WT901BLE68-01(48591DE3C19B)	-0.424	-0.363	0.157	26.794	-10.193	7.324	-75.47	25.58	-117.04	-34.692	-28.714	-4.802	-0.55554	0.18912	-0.61197	0.53009	27.8	13111	100
2025-3-27 20:11:17.716	WT901BLE68-01(48591DE3C19B)	-0.424	-0.575	0.100	23.682	-13.245	10.315	-75.14	25.68	-116.95	-42.630	-33.516	-4.998	-0.55554	0.18912	-0.61197	0.53009	27.8	13111	100
2025-3-27 20:11:17.746	WT901BLE68-01(48591DE3C19B)	-0.427	-0.575	0.100	23.682	-13.245	10.315	-74.83	25.80	-116.83	-42.630	-33.516	-4.998	-0.55554	0.18912	-0.61197	0.53009	27.8	13111	100
2025-3-27 20:11:17.746	WT901BLE68-01(48591DE3C19B)	-0.427	-0.858	-0.017	10.376	-7.568	3.113	-74.60	25.88	-116.76	-42.630	-33.516	-4.998	-0.55554	0.18912	-0.61197	0.53009	27.8	13111	100
2025-3-27 20:11:17.746	WT901BLE68-01(48591DE3C19B)	-0.428	-0.858	-0.017	10.376	-7.568	3.113	-74.48	25.93	-116.70	-42.630	-33.516	-4.998	-0.55554	0.18912	-0.61197	0.53009	27.8	13111	100
2025-3-27 20:11:17.746	WT901BLE68-01(48591DE3C19B)	-0.428	-1.427	-0.112	-11.230	-0.977	-25.940	-74.66	25.71	-116.76	-42.630	-33.516	-4.998	-0.55554	0.18912	-0.61197	0.53009	27.8	13111	100
2025-3-27 20:11:17.805	WT901BLE68-01(48591DE3C19B)	-0.675	-1.427	-0.112	-11.230	-0.977	-25.940	-74.85	25.47	-116.80	-42.630	-33.516	-4.998	-0.55554	0.18912	-0.61197	0.53009	27.8	13111	100
2025-3-27 20:11:17.805	WT901BLE68-01(48591DE3C19B)	-0.675	-2.122	0.146	2.502	11.963	-62.561	-75.01	24.90	-117.05	-42.630	-33.516	-4.998	-0.55554	0.18912	-0.61197	0.53009	27.8	13111	100
2025-3-27 20:11:17.805	WT901BLE68-01(48591DE3C19B)	-1.167	-2.122	0.146	2.502	11.963	-62.561	-75.17	24.32	-117.29	-42.630	-33.516	-4.998	-0.55554	0.18912	-0.61197	0.53009	27.8	13111	100
2025-3-27 20:11:17.805	WT901BLE68-01(48591DE3C19B)	-1.167	-2.028	0.595	21.179	1.404	-62.378	-75.09	23.72	-117.43	-42.630	-33.516	-4.998	-0.55554	0.18912	-0.61197	0.53009	27.8	13111	100
2025-3-27 20:11:17.864	WT901BLE68-01(48591DE3C19B)	-1.037	-2.028	0.595	21.179	1.404	-62.378	-74.99	23.13	-117.58	-42.630	-33.516	-4.998	-0.55554	0.18912	-0.61197	0.53009	27.8	13111	100
2025-3-27 20:11:17.864	WT901BLE68-01(48591DE3C19B)	-1.037	-1.276	0.766	16.846	10.620	-58.411	-74.96	22.62	-117.84	-42.630	-33.516	-4.998	-0.55554	0.18912	-0.61197	0.53009	27.8	13111	100
2025-3-27 20:11:17.865	WT901BLE68-01(48591DE3C19B)	-0.718	-1.276	0.766	16.846	10.620	-58.411	-74.90	22.12	-118.11	-42.630	-33.516	-4.998	-0.55554	0.18912	-0.61197	0.53009	27.8	13111	100
2025-3-27 20:11:17.865	WT901BLE68-01(48591DE3C19B)	-0.718	-0.917	0.722	8.484	54.382	-27.588	-75.06	22.03	-118.77	-42.630	-33.516	-4.998	-0.55554	0.18912	-0.61197	0.53009	27.8	13111	100
2025-3-27 20:11:17.866	WT901BLE68-01(48591DE3C19B)	-0.541	-0.917	0.722	8.484	54.382	-27.588	-75.20	21.95	-119.44	-42.630	-33.516	-4.998	-0.55554	0.18912	-0.61197	0.53009	27.8	13111	100
2025-3-27 20:11:17.867	WT901BLE68-01(48591DE3C19B)	-0.541	-0.756	0.527	0.610	65.552	-5.554	-75.43	22.10	-120.18	-42.630	-33.516	-4.998	-0.55554	0.18912	-0.61197	0.53009	27.8	13111	100
2025-3-27 20:11:17.867	WT901BLE68-01(48591DE3C19B)	-0.555	-0.756	0.527	0.610	65.552	-5.554	-75.65	22.25	-120.92	-42.630	-33.516	-4.998	-0.48505	0.16406	-0.59863	0.61591	27.8	13111	100
2025-3-27 20:11:17.867	WT901BLE68-01(48591DE3C19B)	-0.555	-0.570	0.368	-12.329	7.690	11.841	-75.75	22.43	-121.01	-42.630	-33.516	-4.998	-0.48505	0.16406	-0.59863	0.61591	27.8	13111	100
2025-3-27 20:11:17.955	WT901BLE68-01(48591DE3C19B)	-0.504	-0.570	0.368	-12.329	7.690	11.841	-75.84	22.60	-121.11	-42.630	-33.516	-4.998	-0.48505	0.16406	-0.59863	0.61591	27.8	13111	100
2025-3-27 20:11:17.955	WT901BLE68-01(48591DE3C19B)	-0.504	-0.576	0.264	-42.175	-74.890	16.724	-75.90	22.63	-120.34	-42.630	-33.516	-4.998	-0.48505	0.16406	-0.59863	0.61591	27.8	13111	100
2025-3-27 20:11:17.955	WT901BLE68-01(48591DE3C19B)	-0.375	-0.576	0.264	-42.175	-74.890	16.724	-75.95	22.66	-119.57	-42.630	-33.516	-4.998	-0.48505	0.16406	-0.59863	0.61591	27.8	13111	100
2025-3-27 20:11:17.955	WT901BLE68-01(48591DE3C19B)	-0.375	-0.736	0.217	-45.532	-96.802	26.978	-75.93	22.74	-118.55	-42.630	-33.516	-4.998	-0.48505	0.16406	-0.59863	0.61591	27.8	13111	100
2025-3-27 20:11:17.963	WT901BLE68-01(48591DE3C19B)	-0.444	-0.736	0.217	-45.532	-96.802	26.978	-75.92	22.81	-117.52	-42.630	-33.516	-4.998	-0.48505	0.16406	-0.59863	0.61591	27.8	13111	100
2025-3-27 20:11:17.963	WT901BLE68-01(48591DE3C19B)	-0.444	-0.834	0.181	-29.663	-63.538	29.175	-75.88	22.98	-116.83	-42.630	-33.516	-4.998	-0.48505	0.16406	-0.59863	0.61591	27.8	13111	100
2025-3-27 20:11:17.963	WT901BLE68-01(48591DE3C19B)	-0.488	-0.834	0.181	-29.663	-63.538	29.175	-75.85	23.15	-116.13	-42.630	-33.516	-4.998	-0.48505	0.16406	-0.59863	0.61591	27.8	13111	100
2025-3-27 20:11:17.963	WT901BLE68-01(48591DE3C19B)	-0.488	-0.788	0.171	-14.709	-26.306	19.409	-75.84	23.32	-115.85	-42.630	-33.516	-4.998	-0.48505	0.16406	-0.59863	0.61591	27.8	13111	100
2025-3-27 20:11:18.14	WT901BLE68-01(48591DE3C19B)	-0.426	-0.788	0.171	-14.709	-26.306	19.409	-75.82	23.48	-115.56	-42.630	-33.516	-4.998	-0.48505	0.16406	-0.59863	0.61591	27.8	13111	100
2025-3-27 20:11:18.15	WT901BLE68-01(48591DE3C19B)	-0.426	-0.706	0.194	-5.554	3.113	14.160	-75.85	23.67	-115.59	-42.630	-33.516	-4.998	-0.48505	0.16406	-0.59863	0.61591	27.8	13111	100
2025-3-27 20:11:18.15	WT901BLE68-01(48591DE3C19B)	-0.399	-0.706	0.194	-5.554	3.113	14.160	-75.88	23.85	-115.63	-42.630	-33.516	-4.998	-0.48505	0.16406	-0.59863	0.61591	27.8	13111	100
2025-3-27 20:11:18.15	WT901BLE68-01(48591DE3C19B)	-0.399	-0.563	0.205	5.188	19.592	14.038	-75.87	24.08	-115.83	-42.630	-33.516	-4.998	-0.48505	0.16406	-0.59863	0.61591	27.8	13111	100
2025-3-27 20:11:18.46	WT901BLE68-01(48591DE3C19B)	-0.331	-0.563	0.205	5.188	19.592	14.038	-75.86	24.30	-116.03	-42.630	-33.516	-4.998	-0.48505	0.16406	-0.59863	0.61591	27.8	13111	100
2025-3-27 20:11:18.46	WT901BLE68-01(48591DE3C19B)	-0.331	-0.404	0.218	7.507	20.386	19.104	-75.83	24.58	-116.23	-42.630	-33.516	-4.998	-0.48505	0.16406	-0.59863	0.61591	27.8	13111	100
2025-3-27 20:11:18.46	WT901BLE68-01(48591DE3C19B)	-0.256	-0.404	0.218	7.507	20.386	19.104	-75.79	24.85	-116.43	-42.630	-33.516	-4.998	-0.48505	0.16406	-0.59863	0.61591	27.8	13111	100
2025-3-27 20:11:18.46	WT901BLE68-01(48591DE3C19B)	-0.256	-0.295	0.219	5.188	20.935	32.043	-75.76	25.25	-116.61	-42.630	-33.516	-4.998	-0.48505	0.16406	-0.59863	0.61591	27.8	13111	100
2025-3-27 20:11:18.77	WT901BLE68-01(48591DE3C19B)	-0.230	-0.295	0.219	5.188	20.935	32.043	-75.72	25.65	-116.80	-42.630	-33.516	-4.998	-0.48505	0.16406	-0.59863	0.61591	27.8	13111	100
2025-3-27 20:11:18.77	WT901BLE68-01(48591DE3C19B)	-0.230	-0.218	0.190	-4.578	8.423	45.471	-75.71	26.14	-116.81	-42.630	-33.516	-4.998	-0.48505	0.16406	-0.59863	0.61591	27.8	13111	100
2025-3-27 20:11:18.77	WT901BLE68-01(48591DE3C19B)	-0.201	-0.218	0.190	-4.578	8.423	45.471	-75.69	26.64	-116.83	-42.630	-33.516	-4.998	-0.48505	0.16406	-0.59863	0.61591	27.8	13111	100
2025-3-27 20:11:18.77	WT901BLE68-01(48591DE3C19B)	-0.201	-0.311	0.150	-23.926	-18.188	52.490	-75.72	27.13	-116.55	-46.256	-35.280	-2.352	-0.48505	0.16406	-0.59863	0.61591	27.8	13111	100
2025-3-27 20:11:18.164	WT901BLE68-01(48591DE3C19B)	-0.185	-0.311	0.150	-23.926	-18.188	52.490	-75.75	27.62	-116.26	-46.256	-35.280	-2.352	-0.48505	0.16406	-0.59863	0.61591	27.8	13111	100
2025-3-27 20:11:18.164	WT901BLE68-01(48591DE3C19B)	-0.185	-0.584	0.101	-39.307	-34.058	49.438	-75.85	28.04	-115.80	-46.256	-35.280	-2.352	-0.48505	0.16406	-0.59863	0.61591	27.8	13111	100
2025-3-27 20:11:18.164	WT901BLE68-01(48591DE3C19B)	-0.207	-0.584	0.101	-39.307	-34.058	49.438	-75.96	28.44	-115.32	-46.256	-35.280	-2.352	-0.48505	0.16406	-0.59863	0.61591	27.8	13111	100
2025-3-27 20:11:18.164	WT901BLE68-01(48591DE3C19B)	-0.207	-0.925	0.077	-45.410	-37.781	37.231	-76.14	28.71	-114.81	-46.256	-35.280	-2.352	-0.48505	0.16406	-0.59863	0.61591	27.8	13111	100
2025-3-27 20:11:18.166	WT901BLE68-01(48591DE3C19B)	-0.367	-0.925	0.077	-45.410	-37.781	37.231	-76.32	28.97	-114.29	-46.256	-35.280	-2.352	-0.48505	0.16406	-0.59863	0.61591	27.8	13111	100
2025-3-27 20:11:18.166	WT901BLE68-01(48591DE3C19B)	-0.367	-1.635	0.110	-43.152	-44.312	5.005	-76.50	28.88	-113.75	-46.256	-35.280	-2.352	-0.48505	0.16406	-0.59863	0.61591	27.8	13111	100
2025-3-27 20:11:18.166	WT901BLE68-01(48591DE3C19B)	-0.545	-1.635	0.110	-43.152	-44.312	5.005	-76.70	28.78	-113.19	-46.256	-35.280	-2.352	-0.48505	0.16406	-0.59863	0.61591	27.8	13111	100
2025-3-27 20:11:18.166	WT901BLE68-01(48591DE3C19B)	-0.545	-2.324	0.162	-19.165	-42.175	-32.410	-76.72	28.32	-112.75	-46.256	-35.280	-2.352	-0.48505	0.16406	-0.59863	0.61591	27.8	13111	100
2025-3-27 20:11:18.258	WT901BLE68-01(48591DE3C19B)	-0.651	-2.324	0.162	-19.165	-42.175	-32.410	-76.75	27.84	-112.30	-46.256	-35.280	-2.352	-0.48505	0.16406	-0.59863	0.61591	27.8	13111	100
2025-3-27 20:11:18.258	WT901BLE68-01(48591DE3C19B)	-0.651	-2.134	0.277	21.118	-30.823	-37.231	-76.45	27.35	-111.99	-46.256	-35.280	-2.352	-0.48505	0.16406	-0.59863	0.61591	27.8	13111	100
2025-3-27 20:11:18.258	WT901BLE68-01(48591DE3C19B)	-0.513	-2.134	0.277	21.118	-30.823	-37.231	-76.16	26.86	-111.68	-46.256	-35.280	-2.352	-0.48505	0.16406	-0.59863	0.61591	27.8	13111	100
2025-3-27 20:11:18.258	WT901BLE68-01(48591DE3C19B)	-0.235	-1.634	0.229	21.118	-0.793	-49.377	-76.04	26.32	-111.73	-46.256	-35.280	-2.352	-0.48505	0.16406	-0.59863	0.61591	27.8	13111	100
2025-3-27 20:11:18.259	WT901BLE68-01(48591DE3C19B)	-0.235	-1.500	0.138	24.231	51.147	-54.138	-76.02	25.82	-112.07	-46.256	-35.280	-2.352	-0.48505	0.16406	-0.59863	0.61591	27.8	13111	100
2025-3-27 20:11:18.259	WT901BLE68-01(48591DE3C19B)	-0.131	-1.500	0.138	24.231	51.147	-54.138	-76.11	25.37	-112.68	-46.256	-35.280	-2.352	-0.48505	0.16406	-0.59863	0.61591	27.8	13111	100
2025-3-27 20:11:18.259	WT901BLE68-01(48591DE3C19B)	-0.131	-1.128	0.157	32.227	92.957	-42.053	-76.24	25.01	-113.49	-46.256	-35.280	-2.352	-0.48505	0.16406	-0.59863	0.61591	27.8	13111	100
2025-3-27 20:11:18.259	WT901BLE68-01(48591DE3C19B)	-0.163	-1.128	0.157	32.227	92.957	-42.053	-76.41	24.76	-114.50	-46.256	-35.280	-2.352	-0.48505	0.16406	-0.59863	0.61591	27.8	13111	100
2025-3-27 20:11:18.286	WT901BLE68-01(48591DE3C19B)	-0.163	-0.734	0.205	16.052	77.148	-33.691	-76.61	24.52	-115.40	-46.256	-35.280	-2.352	-0.48505	0.16406	-0.59863	0.61591	27.8	13111	100
2025-3-27 20:11:18.286	WT901BLE68-01(48591DE3C19B)	-0.174	-0.734	0.205	16.052	77.148	-33.691	-76.85	24.31	-116.20	-46.256	-35.280	-2.352	-0.48505	0.16406	-0.59863	0.61591	27.8	13111	100
2025-3-27 20:11:18.286	WT901BLE68-01(48591DE3C19B)	-0.174	-0.626	0.249	-15.930	22.400	-46.448	-77.12	23.97	-116.72	-46.256	-35.280	-2.352	-0.48505	0.16406	-0.59863	0.61591	27.8	13111	100
2025-3-27 20:11:18.286	WT901BLE68-01(48591DE3C19B)	-0.204	-0.626	0.249	-15.930	22.400	-46.448	-77.43	23.51	-116.97	-46.256	-35.280	-2.352	-0.50616	0.18607	-0.60550	0.58521	27.8	13111	100
2025-3-27 20:11:18.344	WT901BLE68-01(48591DE3C19B)	-0.204	-0.676	0.250	-24.414	-9.766	-49.255	-77.71	23.00	-117.04	-46.256	-35.280	-2.352	-0.50616	0.18607	-0.60550	0.58521	27.8	13111	100
2025-3-27 20:11:18.344	WT901BLE68-01(48591DE3C19B)	-0.300	-0.676	0.250	-24.414	-9.766	-49.255	-77.96	22.45	-116.94	-46.256	-35.280	-2.352	-0.50616	0.18607	-0.60550	0.58521	27.8	13111	100
2025-3-27 20:11:18.344	WT901BLE68-01(48591DE3C19B)	-0.300	-0.611	0.228	-21.240	-19.592	-46.936	-78.16	21.90	-116.80	-46.256	-35.280	-2.352	-0.50616	0.18607	-0.60550	0.58521	27.8	13111	100
2025-3-27 20:11:18.344	WT901BLE68-01(48591DE3C19B)	-0.343	-0.611	0.228	-21.240	-19.592	-46.936	-78.33	21.37	-116.60	-46.256	-35.280	-2.352	-0.50616	0.18607	-0.60550	0.58521	27.8	13111	100
2025-3-27 20:11:18.374	WT901BLE68-01(48591DE3C19B)	-0.343	-0.491	0.231	-17.456	-27.710	-42.053	-78.46	20.86	-116.36	-46.256	-35.280	-2.352	-0.50616	0.18607	-0.60550	0.58521	27.8	13111	100
2025-3-27 20:11:18.375	WT901BLE68-01(48591DE3C19B)	-0.287	-0.491	0.231	-17.456	-27.710	-42.053	-78.55	20.37	-116.08	-46.256	-35.280	-2.352	-0.50616	0.18607	-0.60550	0.58521	27.8	13111	100
2025-3-27 20:11:18.375	WT901BLE68-01(48591DE3C19B)	-0.287	-0.437	0.231	-12.634	-27.161	-29.602	-78.61	19.96	-115.80	-46.256	-35.280	-2.352	-0.50616	0.18607	-0.60550	0.58521	27.8	13111	100
2025-3-27 20:11:18.375	WT901BLE68-01(48591DE3C19B)	-0.191	-0.437	0.231	-12.634	-27.161	-29.602	-78.64	19.61	-115.51	-46.256	-35.280	-2.352	-0.50616	0.18607	-0.60550	0.58521	27.8	13111	100
2025-3-27 20:11:18.404	WT901BLE68-01(48591DE3C19B)	-0.191	-0.407	0.204	-1.343	-13.977	-19.226	-78.63	19.33	-115.29	-46.256	-35.280	-2.352	-0.50616	0.18607	-0.60550	0.58521	27.8	13111	100
2025-3-27 20:11:18.404	WT901BLE68-01(48591DE3C19B)	-0.167	-0.407	0.204	-1.343	-13.977	-19.226	-78.58	19.12	-115.13	-46.256	-35.280	-2.352	-0.50616	0.18607	-0.60550	0.58521	27.8	13111	100
2025-3-27 20:11:18.404	WT901BLE68-01(48591DE3C19B)	-0.167	-0.341	0.142	8.240	-0.610	-13.245	-78.50	18.96	-115.03	-46.256	-35.280	-2.352	-0.50616	0.18607	-0.60550	0.58521	27.8	13111	100
2025-3-27 20:11:18.404	WT901BLE68-01(48591DE3C19B)	-0.165	-0.341	0.142	8.240	-0.610	-13.245	-78.39	18.84	-115.00	-46.256	-35.280	-2.352	-0.50616	0.18607	-0.60550	0.58521	27.8	13111	100
2025-3-27 20:11:18.464	WT901BLE68-01(48591DE3C19B)	-0.165	-0.288	0.098	11.780	2.747	-2.319	-78.27	18.78	-114.99	-46.256	-35.280	-2.352	-0.50616	0.18607	-0.60550	0.58521	27.8	13111	100
2025-3-27 20:11:18.464	WT901BLE68-01(48591DE3C19B)	-0.191	-0.288	0.098	11.780	2.747	-2.319	-78.13	18.77	-114.97	-46.256	-35.280	-2.352	-0.50616	0.18607	-0.60550	0.58521	27.8	13111	100
2025-3-27 20:11:18.464	WT901BLE68-01(48591DE3C19B)	-0.191	-0.354	0.097	6.165	-0.427	8.667	-78.01	18.82	-114.93	-46.256	-35.280	-2.352	-0.50616	0.18607	-0.60550	0.58521	27.8	13111	100
2025-3-27 20:11:18.465	WT901BLE68-01(48591DE3C19B)	-0.208	-0.354	0.097	6.165	-0.427	8.667	-77.91	18.92	-114.87	-46.256	-35.280	-2.352	-0.50616	0.18607	-0.60550	0.58521	27.8	13111	100
2025-3-27 20:11:18.525	WT901BLE68-01(48591DE3C19B)	-0.208	-0.548	0.112	-0.610	2.319	16.357	-77.85	19.07	-114.80	-46.256	-35.280	-2.352	-0.50616	0.18607	-0.60550	0.58521	27.8	13111	100
2025-3-27 20:11:18.525	WT901BLE68-01(48591DE3C19B)	-0.274	-0.548	0.112	-0.610	2.319	16.357	-77.83	19.25	-114.74	-46.256	-35.280	-2.352	-0.50616	0.18607	-0.60550	0.58521	27.8	13111	100
2025-3-27 20:11:18.525	WT901BLE68-01(48591DE3C19B)	-0.274	-0.768	0.132	-5.249	17.883	19.104	-77.85	19.46	-114.75	-46.256	-35.280	-2.352	-0.50616	0.18607	-0.60550	0.58521	27.8	13111	100
2025-3-27 20:11:18.525	WT901BLE68-01(48591DE3C19B)	-0.340	-0.768	0.132	-5.249	17.883	19.104	-77.94	19.69	-114.83	-46.256	-35.280	-2.352	-0.50616	0.18607	-0.60550	0.58521	27.8	13111	100
2025-3-27 20:11:18.526	WT901BLE68-01(48591DE3C19B)	-0.340	-1.104	0.112	-18.127	31.738	2.869	-78.12	19.86	-115.00	-48.412	-37.142	1.372	-0.50616	0.18607	-0.60550	0.58521	27.8	13111	100
2025-3-27 20:11:18.526	WT901BLE68-01(48591DE3C19B)	-0.496	-1.104	0.112	-18.127	31.738	2.869	-78.41	19.96	-115.25	-48.412	-37.142	1.372	-0.50616	0.18607	-0.60550	0.58521	27.8	13111	100
2025-3-27 20:11:18.526	WT901BLE68-01(48591DE3C19B)	-0.496	-1.778	0.198	-14.648	40.527	-45.044	-78.71	19.82	-115.58	-48.412	-37.142	1.372	-0.50616	0.18607	-0.60550	0.58521	27.8	13111	100
2025-3-27 20:11:18.526	WT901BLE68-01(48591DE3C19B)	-0.987	-1.778	0.198	-14.648	40.527	-45.044	-79.04	19.46	-115.99	-48.412	-37.142	1.372	-0.50616	0.18607	-0.60550	0.58521	27.8	13111	100
2025-3-27 20:11:18.563	WT901BLE68-01(48591DE3C19B)	-0.987	-2.666	0.426	-6.897	23.132	-70.923	-79.29	18.94	-116.33	-48.412	-37.142	1.372	-0.50616	0.18607	-0.60550	0.58521	27.8	13111	100
2025-3-27 20:11:18.563	WT901BLE68-01(48591DE3C19B)	-1.332	-2.666	0.426	-6.897	23.132	-70.923	-79.49	18.29	-116.59	-48.412	-37.142	1.372	-0.50616	0.18607	-0.60550	0.58521	27.8	13111	100
2025-3-27 20:11:18.563	WT901BLE68-01(48591DE3C19B)	-1.332	-2.284	0.623	44.128	15.808	-83.496	-79.41	17.57	-116.83	-48.412	-37.142	1.372	-0.50616	0.18607	-0.60550	0.58521	27.8	13111	100
2025-3-27 20:11:18.563	WT901BLE68-01(48591DE3C19B)	-0.944	-2.284	0.623	44.128	15.808	-83.496	-79.07	16.81	-117.05	-48.412	-37.142	1.372	-0.50616	0.18607	-0.60550	0.58521	27.8	13111	100
2025-3-27 20:11:18.615	WT901BLE68-01(48591DE3C19B)	-0.944	-1.262	0.575	49.011	56.091	-64.331	-78.76	16.19	-117.47	-48.412	-37.142	1.372	-0.50616	0.18607	-0.60550	0.58521	27.8	13111	100
2025-3-27 20:11:18.615	WT901BLE68-01(48591DE3C19B)	-0.648	-1.262	0.575	49.011	56.091	-64.331	-78.46	15.72	-118.09	-48.412	-37.142	1.372	-0.50616	0.18607	-0.60550	0.58521	27.8	13111	100
2025-3-27 20:11:18.615	WT901BLE68-01(48591DE3C19B)	-0.648	-0.838	0.474	32.410	97.473	-37.231	-78.28	15.44	-118.89	-48.412	-37.142	1.372	-0.50616	0.18607	-0.60550	0.58521	27.8	13111	100
2025-3-27 20:11:18.615	WT901BLE68-01(48591DE3C19B)	-0.437	-0.838	0.474	32.410	97.473	-37.231	-78.23	15.34	-119.89	-48.412	-37.142	1.372	-0.50616	0.18607	-0.60550	0.58521	27.8	13111	100
2025-3-27 20:11:18.646	WT901BLE68-01(48591DE3C19B)	-0.437	-0.602	0.400	16.113	73.364	-6.592	-78.22	15.36	-120.73	-48.412	-37.142	1.372	-0.50616	0.18607	-0.60550	0.58521	27.8	13111	100
2025-3-27 20:11:18.646	WT901BLE68-01(48591DE3C19B)	-0.478	-0.602	0.400	16.113	73.364	-6.592	-78.23	15.52	-121.42	-48.412	-37.142	1.372	-0.50616	0.18607	-0.60550	0.58521	27.8	13111	100
2025-3-27 20:11:18.646	WT901BLE68-01(48591DE3C19B)	-0.478	-0.545	0.409	-19.165	-31.921	8.728	-78.27	15.64	-121.57	-48.412	-37.142	1.372	-0.50616	0.18607	-0.60550	0.58521	27.8	13111	100
2025-3-27 20:11:18.646	WT901BLE68-01(48591DE3C19B)	-0.280	-0.545	0.409	-19.165	-31.921	8.728	-78.34	15.74	-121.18	-48.412	-37.142	1.372	-0.50616	0.18607	-0.60550	0.58521	27.8	13111	100
2025-3-27 20:11:18.705	WT901BLE68-01(48591DE3C19B)	-0.280	-0.787	0.345	-50.415	-126.526	19.043	-78.41	15.79	-120.32	-48.412	-37.142	1.372	-0.50616	0.18607	-0.60550	0.58521	27.8	13111	100
2025-3-27 20:11:18.705	WT901BLE68-01(48591DE3C19B)	-0.127	-0.787	0.345	-50.415	-126.526	19.043	-78.51	15.79	-118.97	-48.412	-37.142	1.372	-0.50616	0.18607	-0.60550	0.58521	27.8	13111	100
2025-3-27 20:11:18.705	WT901BLE68-01(48591DE3C19B)	-0.127	-0.880	0.272	-28.259	-114.319	39.856	-78.40	16.02	-117.69	-48.412	-37.142	1.372	-0.47632	0.23383	-0.59018	0.60831	27.8	13111	100
2025-3-27 20:11:18.705	WT901BLE68-01(48591DE3C19B)	-0.209	-0.880	0.272	-28.259	-114.319	39.856	-78.29	16.23	-116.40	-48.412	-37.142	1.372	-0.47632	0.23383	-0.59018	0.60831	27.8	13111	100
2025-3-27 20:11:18.734	WT901BLE68-01(48591DE3C19B)	-0.209	-0.703	0.174	-4.761	-42.847	45.044	-78.15	16.63	-115.83	-48.412	-37.142	1.372	-0.47632	0.23383	-0.59018	0.60831	27.8	13111	100
2025-3-27 20:11:18.734	WT901BLE68-01(48591DE3C19B)	-0.236	-0.703	0.174	-4.761	-42.847	45.044	-78.00	17.02	-115.26	-48.412	-37.142	1.372	-0.47632	0.23383	-0.59018	0.60831	27.8	13111	100
2025-3-27 20:11:18.734	WT901BLE68-01(48591DE3C19B)	-0.236	-0.579	0.134	4.639	15.869	41.260	-77.94	17.50	-115.29	-48.412	-37.142	1.372	-0.47632	0.23383	-0.59018	0.60831	27.8	13111	100
2025-3-27 20:11:18.734	WT901BLE68-01(48591DE3C19B)	-0.233	-0.579	0.134	4.639	15.869	41.260	-77.88	17.96	-115.31	-48.412	-37.142	1.372	-0.47632	0.23383	-0.59018	0.60831	27.8	13111	100
2025-3-27 20:11:18.764	WT901BLE68-01(48591DE3C19B)	-0.233	-0.503	0.135	9.399	58.350	39.673	-77.92	18.51	-115.76	-48.412	-37.142	1.372	-0.47632	0.23383	-0.59018	0.60831	27.8	13111	100
2025-3-27 20:11:18.764	WT901BLE68-01(48591DE3C19B)	-0.319	-0.503	0.135	9.399	58.350	39.673	-77.95	19.04	-116.22	-48.412	-37.142	1.372	-0.47632	0.23383	-0.59018	0.60831	27.8	13111	100
2025-3-27 20:11:18.764	WT901BLE68-01(48591DE3C19B)	-0.319	-0.443	0.159	12.756	70.496	37.537	-78.01	19.58	-116.81	-48.412	-37.142	1.372	-0.47632	0.23383	-0.59018	0.60831	27.8	13111	100
2025-3-27 20:11:18.764	WT901BLE68-01(48591DE3C19B)	-0.337	-0.443	0.159	12.756	70.496	37.537	-78.07	20.13	-117.39	-48.412	-37.142	1.372	-0.47632	0.23383	-0.59018	0.60831	27.8	13111	100
2025-3-27 20:11:18.794	WT901BLE68-01(48591DE3C19B)	-0.337	-0.339	0.194	13.489	55.176	39.978	-78.07	20.67	-117.82	-48.412	-37.142	1.372	-0.47632	0.23383	-0.59018	0.60831	27.8	13111	100
2025-3-27 20:11:18.794	WT901BLE68-01(48591DE3C19B)	-0.364	-0.339	0.194	13.489	55.176	39.978	-78.07	21.20	-118.25	-48.412	-37.142	1.372	-0.47632	0.23383	-0.59018	0.60831	27.8	13111	100
2025-3-27 20:11:18.794	WT901BLE68-01(48591DE3C19B)	-0.364	-0.235	0.227	6.470	23.499	48.401	-78.01	21.76	-118.34	-48.412	-37.142	1.372	-0.47632	0.23383	-0.59018	0.60831	27.8	13111	100
2025-3-27 20:11:18.794	WT901BLE68-01(48591DE3C19B)	-0.391	-0.235	0.227	6.470	23.499	48.401	-77.94	22.33	-118.45	-48.412	-37.142	1.372	-0.47632	0.23383	-0.59018	0.60831	27.8	13111	100
2025-3-27 20:11:18.863	WT901BLE68-01(48591DE3C19B)	-0.391	-0.229	0.221	-7.019	-22.339	58.655	-77.81	22.91	-118.08	-48.412	-37.142	1.372	-0.47632	0.23383	-0.59018	0.60831	27.8	13111	100
2025-3-27 20:11:18.863	WT901BLE68-01(48591DE3C19B)	-0.315	-0.229	0.221	-7.019	-22.339	58.655	-77.67	23.48	-117.72	-48.412	-37.142	1.372	-0.47632	0.23383	-0.59018	0.60831	27.8	13111	100
2025-3-27 20:11:18.863	WT901BLE68-01(48591DE3C19B)	-0.315	-0.393	0.171	-21.118	-55.359	65.735	-77.51	24.05	-116.99	-48.412	-37.142	1.372	-0.47632	0.23383	-0.59018	0.60831	27.8	13111	100
2025-3-27 20:11:18.863	WT901BLE68-01(48591DE3C19B)	-0.317	-0.393	0.171	-21.118	-55.359	65.735	-77.35	24.63	-116.27	-48.412	-37.142	1.372	-0.47632	0.23383	-0.59018	0.60831	27.8	13111	100
2025-3-27 20:11:18.887	WT901BLE68-01(48591DE3C19B)	-0.317	-0.658	0.134	-25.085	-64.514	64.392	-77.18	25.16	-115.43	-48.412	-37.142	1.372	-0.47632	0.23383	-0.59018	0.60831	27.8	13111	100
2025-3-27 20:11:18.887	WT901BLE68-01(48591DE3C19B)	-0.443	-0.658	0.134	-25.085	-64.514	64.392	-77.01	25.68	-114.58	-48.412	-37.142	1.372	-0.47632	0.23383	-0.59018	0.60831	27.8	13111	100
2025-3-27 20:11:18.887	WT901BLE68-01(48591DE3C19B)	-0.443	-1.115	0.199	-32.471	-68.054	52.246	-76.93	26.06	-113.68	-48.412	-37.142	1.372	-0.47632	0.23383	-0.59018	0.60831	27.8	13111	100
2025-3-27 20:11:18.887	WT901BLE68-01(48591DE3C19B)	-0.559	-1.115	0.199	-32.471	-68.054	52.246	-76.84	26.43	-112.76	-51.058	-42.336	7.056	-0.47632	0.23383	-0.59018	0.60831	27.8	13111	100
2025-3-27 20:11:18.916	WT901BLE68-01(48591DE3C19B)	-0.559	-1.933	0.240	-26.794	-68.970	23.804	-76.73	26.51	-111.88	-51.058	-42.336	7.056	-0.47632	0.23383	-0.59018	0.60831	27.8	13111	100
2025-3-27 20:11:18.916	WT901BLE68-01(48591DE3C19B)	-0.600	-1.933	0.240	-26.794	-68.970	23.804	-76.63	26.57	-110.97	-51.058	-42.336	7.056	-0.47632	0.23383	-0.59018	0.60831	27.8	13111	100
2025-3-27 20:11:18.916	WT901BLE68-01(48591DE3C19B)	-0.600	-2.592	0.245	-3.479	-57.495	6.165	-76.38	26.47	-110.23	-51.058	-42.336	7.056	-0.47632	0.23383	-0.59018	0.60831	27.8	13111	100
2025-3-27 20:11:18.916	WT901BLE68-01(48591DE3C19B)	-0.746	-2.592	0.245	-3.479	-57.495	6.165	-76.15	26.35	-109.47	-51.058	-42.336	7.056	-0.47632	0.23383	-0.59018	0.60831	27.8	13111	100
2025-3-27 20:11:18.974	WT901BLE68-01(48591DE3C19B)	-0.746	-2.231	0.304	41.016	-35.522	-5.676	-75.59	26.16	-108.99	-51.058	-42.336	7.056	-0.47632	0.23383	-0.59018	0.60831	27.8	13111	100
2025-3-27 20:11:18.975	WT901BLE68-01(48591DE3C19B)	-0.643	-2.231	0.304	41.016	-35.522	-5.676	-75.04	25.98	-108.51	-51.058	-42.336	7.056	-0.47632	0.23383	-0.59018	0.60831	27.8	13111	100
2025-3-27 20:11:18.975	WT901BLE68-01(48591DE3C19B)	-0.643	-1.838	0.259	35.156	-2.136	-10.620	-74.72	25.82	-108.40	-51.058	-42.336	7.056	-0.47632	0.23383	-0.59018	0.60831	27.8	13111	100
2025-3-27 20:11:18.975	WT901BLE68-01(48591DE3C19B)	-0.490	-1.838	0.259	35.156	-2.136	-10.620	-74.40	25.67	-108.28	-51.058	-42.336	7.056	-0.47632	0.23383	-0.59018	0.60831	27.8	13111	100
2025-3-27 20:11:19.4	WT901BLE68-01(48591DE3C19B)	-0.490	-1.671	0.229	41.443	43.701	-3.113	-74.23	25.71	-108.64	-51.058	-42.336	7.056	-0.47632	0.23383	-0.59018	0.60831	27.8	13111	100
2025-3-27 20:11:19.4	WT901BLE68-01(48591DE3C19B)	-0.392	-1.671	0.229	41.443	43.701	-3.113	-74.06	25.76	-108.98	-51.058	-42.336	7.056	-0.47632	0.23383	-0.59018	0.60831	27.8	13111	100
2025-3-27 20:11:19.4	WT901BLE68-01(48591DE3C19B)	-0.392	-1.294	0.248	46.692	71.594	12.329	-73.94	26.02	-109.58	-51.058	-42.336	7.056	-0.47632	0.23383	-0.59018	0.60831	27.8	13111	100
2025-3-27 20:11:19.4	WT901BLE68-01(48591DE3C19B)	-0.344	-1.294	0.248	46.692	71.594	12.329	-73.83	26.28	-110.18	-51.058	-42.336	7.056	-0.47632	0.23383	-0.59018	0.60831	27.8	13111	100
2025-3-27 20:11:19.34	WT901BLE68-01(48591DE3C19B)	-0.344	-0.934	0.261	33.936	65.063	23.804	-73.80	26.64	-110.66	-51.058	-42.336	7.056	-0.47632	0.23383	-0.59018	0.60831	27.8	13111	100
2025-3-27 20:11:19.34	WT901BLE68-01(48591DE3C19B)	-0.336	-0.934	0.261	33.936	65.063	23.804	-73.77	26.99	-111.15	-51.058	-42.336	7.056	-0.47632	0.23383	-0.59018	0.60831	27.8	13111	100
2025-3-27 20:11:19.34	WT901BLE68-01(48591DE3C19B)	-0.336	-0.785	0.249	14.709	41.138	22.339	-73.81	27.26	-111.38	-51.058	-42.336	7.056	-0.47632	0.23383	-0.59018	0.60831	27.8	13111	100
2025-3-27 20:11:19.35	WT901BLE68-01(48591DE3C19B)	-0.354	-0.785	0.249	14.709	41.138	22.339	-73.86	27.54	-111.62	-51.058	-42.336	7.056	-0.47632	0.23383	-0.59018	0.60831	27.8	13111	100
2025-3-27 20:11:19.95	WT901BLE68-01(48591DE3C19B)	-0.354	-0.756	0.229	6.287	29.785	20.935	-73.94	27.77	-111.74	-51.058	-42.336	7.056	-0.47632	0.23383	-0.59018	0.60831	27.8	13111	100
2025-3-27 20:11:19.95	WT901BLE68-01(48591DE3C19B)	-0.429	-0.756	0.229	6.287	29.785	20.935	-74.01	27.99	-111.86	-51.058	-42.336	7.056	-0.47632	0.23383	-0.59018	0.60831	27.8	13111	100
2025-3-27 20:11:19.95	WT901BLE68-01(48591DE3C19B)	-0.429	-0.686	0.218	3.296	27.771	20.020	-74.10	28.21	-111.97	-51.058	-42.336	7.056	-0.47632	0.23383	-0.59018	0.60831	27.8	13111	100
2025-3-27 20:11:19.95	WT901BLE68-01(48591DE3C19B)	-0.463	-0.686	0.218	3.296	27.771	20.020	-74.20	28.43	-112.08	-51.058	-42.336	7.056	-0.47632	0.23383	-0.59018	0.60831	27.8	13111	100
2025-3-27 20:11:19.124	WT901BLE68-01(48591DE3C19B)	-0.463	-0.589	0.213	0.977	23.132	14.282	-74.30	28.59	-112.15	-51.058	-42.336	7.056	-0.55475	0.16324	-0.59540	0.55765	27.8	13111	100
2025-3-27 20:11:19.124	WT901BLE68-01(48591DE3C19B)	-0.464	-0.589	0.213	0.977	23.132	14.282	-74.39	28.76	-112.24	-51.058	-42.336	7.056	-0.55475	0.16324	-0.59540	0.55765	27.8	13111	100
2025-3-27 20:11:19.124	WT901BLE68-01(48591DE3C19B)	-0.473	-0.483	0.208	-0.122	16.174	9.521	-74.48	28.86	-112.26	-51.058	-42.336	7.056	-0.55475	0.16324	-0.59540	0.55765	27.8	13111	100
2025-3-27 20:11:19.124	WT901BLE68-01(48591DE3C19B)	-0.473	-0.447	0.193	-1.770	3.784	3.845	-74.53	28.93	-112.23	-51.058	-42.336	7.056	-0.55475	0.16324	-0.59540	0.55765	27.8	13111	100
2025-3-27 20:11:19.154	WT901BLE68-01(48591DE3C19B)	-0.473	-0.447	0.193	-1.770	3.784	3.845	-74.56	28.96	-112.15	-51.058	-42.336	7.056	-0.55475	0.16324	-0.59540	0.55765	27.8	13111	100
2025-3-27 20:11:19.154	WT901BLE68-01(48591DE3C19B)	-0.473	-0.466	0.160	-2.502	-16.907	-0.488	-74.55	28.95	-111.97	-51.058	-42.336	7.056	-0.55475	0.16324	-0.59540	0.55765	27.8	13111	100
2025-3-27 20:11:19.154	WT901BLE68-01(48591DE3C19B)	-0.437	-0.466	0.160	-2.502	-16.907	-0.488	-74.49	28.90	-111.69	-51.058	-42.336	7.056	-0.55475	0.16324	-0.59540	0.55765	27.8	13111	100
2025-3-27 20:11:19.155	WT901BLE68-01(48591DE3C19B)	-0.437	-0.478	0.124	-2.258	-38.269	-3.967	-74.37	28.81	-111.30	-51.058	-42.336	7.056	-0.55475	0.16324	-0.59540	0.55765	27.8	13111	100
2025-3-27 20:11:19.215	WT901BLE68-01(48591DE3C19B)	-0.378	-0.478	0.124	-2.258	-38.269	-3.967	-74.20	28.68	-110.80	-51.058	-42.336	7.056	-0.55475	0.16324	-0.59540	0.55765	27.8	13111	100
2025-3-27 20:11:19.215	WT901BLE68-01(48591DE3C19B)	-0.378	-0.494	0.100	-2.563	-51.331	-7.202	-74.00	28.52	-110.24	-51.058	-42.336	7.056	-0.55475	0.16324	-0.59540	0.55765	27.8	13111	100
2025-3-27 20:11:19.215	WT901BLE68-01(48591DE3C19B)	-0.340	-0.494	0.100	-2.563	-51.331	-7.202	-73.78	28.33	-109.62	-51.058	-42.336	7.056	-0.55475	0.16324	-0.59540	0.55765	27.8	13111	100
2025-3-27 20:11:19.215	WT901BLE68-01(48591DE3C19B)	-0.340	-0.518	0.092	-1.038	-55.725	-9.583	-73.55	28.12	-108.97	-51.058	-42.336	7.056	-0.55475	0.16324	-0.59540	0.55765	27.8	13111	100
2025-3-27 20:11:19.244	WT901BLE68-01(48591DE3C19B)	-0.311	-0.518	0.092	-1.038	-55.725	-9.583	-73.31	27.89	-108.31	-51.058	-42.336	7.056	-0.55475	0.16324	-0.59540	0.55765	27.8	13111	100
2025-3-27 20:11:19.244	WT901BLE68-01(48591DE3C19B)	-0.311	-0.542	0.099	0.366	-53.711	-10.620	-73.07	27.66	-107.66	-51.058	-42.336	7.056	-0.55475	0.16324	-0.59540	0.55765	27.8	13111	100
2025-3-27 20:11:19.244	WT901BLE68-01(48591DE3C19B)	-0.281	-0.542	0.099	0.366	-53.711	-10.620	-72.84	27.43	-107.03	-51.058	-42.336	7.056	-0.55475	0.16324	-0.59540	0.55765	27.8	13111	100
2025-3-27 20:11:19.244	WT901BLE68-01(48591DE3C19B)	-0.281	-0.550	0.125	3.723	-42.786	-10.315	-72.63	27.21	-106.46	-51.058	-42.336	7.056	-0.55475	0.16324	-0.59540	0.55765	27.8	13111	100
2025-3-27 20:11:19.274	WT901BLE68-01(48591DE3C19B)	-0.284	-0.550	0.125	3.723	-42.786	-10.315	-72.42	27.00	-105.95	-51.058	-42.336	7.056	-0.55475	0.16324	-0.59540	0.55765	27.8	13111	100
2025-3-27 20:11:19.275	WT901BLE68-01(48591DE3C19B)	-0.284	-0.562	0.150	6.958	-24.841	-7.813	-72.25	26.83	-105.53	-51.058	-42.336	7.056	-0.55475	0.16324	-0.59540	0.55765	27.8	13111	100
2025-3-27 20:11:19.275	WT901BLE68-01(48591DE3C19B)	-0.321	-0.562	0.150	6.958	-24.841	-7.813	-72.10	26.70	-105.21	-51.058	-42.336	7.056	-0.55475	0.16324	-0.59540	0.55765	27.8	13111	100
2025-3-27 20:11:19.275	WT901BLE68-01(48591DE3C19B)	-0.321	-0.583	0.163	10.864	-9.338	-2.502	-71.97	26.62	-104.97	-51.058	-42.336	7.056	-0.55475	0.16324	-0.59540	0.55765	27.8	13111	100
2025-3-27 20:11:19.334	WT901BLE68-01(48591DE3C19B)	-0.358	-0.583	0.163	10.864	-9.338	-2.502	-71.85	26.59	-104.80	-51.058	-42.336	7.056	-0.55475	0.16324	-0.59540	0.55765	27.8	13111	100
2025-3-27 20:11:19.335	WT901BLE68-01(48591DE3C19B)	-0.358	-0.575	0.171	12.695	-1.709	6.531	-71.72	26.60	-104.67	-53.214	-46.942	10.584	-0.55475	0.16324	-0.59540	0.55765	27.8	13111	100
2025-3-27 20:11:19.335	WT901BLE68-01(48591DE3C19B)	-0.355	-0.575	0.171	12.695	-1.709	6.531	-71.60	26.67	-104.56	-53.214	-46.942	10.584	-0.55475	0.16324	-0.59540	0.55765	27.8	13111	100
2025-3-27 20:11:19.335	WT901BLE68-01(48591DE3C19B)	-0.355	-0.595	0.188	11.353	1.709	19.470	-71.49	26.82	-104.45	-53.214	-46.942	10.584	-0.55475	0.16324	-0.59540	0.55765	27.8	13111	100
2025-3-27 20:11:19.363	WT901BLE68-01(48591DE3C19B)	-0.347	-0.595	0.188	11.353	1.709	19.470	-71.37	27.02	-104.34	-53.214	-46.942	10.584	-0.55475	0.16324	-0.59540	0.55765	27.8	13111	100
2025-3-27 20:11:19.364	WT901BLE68-01(48591DE3C19B)	-0.347	-0.646	0.207	10.254	5.554	34.790	-71.26	27.31	-104.23	-53.214	-46.942	10.584	-0.55475	0.16324	-0.59540	0.55765	27.8	13111	100
2025-3-27 20:11:19.364	WT901BLE68-01(48591DE3C19B)	-0.361	-0.646	0.207	10.254	5.554	34.790	-71.15	27.66	-104.11	-53.214	-46.942	10.584	-0.55475	0.16324	-0.59540	0.55765	27.8	13111	100
2025-3-27 20:11:19.364	WT901BLE68-01(48591DE3C19B)	-0.361	-0.640	0.239	13.611	5.859	50.659	-71.00	28.09	-103.97	-53.214	-46.942	10.584	-0.55475	0.16324	-0.59540	0.55765	27.8	13111	100
2025-3-27 20:11:19.394	WT901BLE68-01(48591DE3C19B)	-0.340	-0.640	0.239	13.611	5.859	50.659	-70.83	28.60	-103.81	-53.214	-46.942	10.584	-0.55475	0.16324	-0.59540	0.55765	27.8	13111	100
2025-3-27 20:11:19.394	WT901BLE68-01(48591DE3C19B)	-0.340	-0.663	0.251	7.996	4.761	62.988	-70.66	29.15	-103.63	-53.214	-46.942	10.584	-0.55475	0.16324	-0.59540	0.55765	27.8	13111	100
2025-3-27 20:11:19.394	WT901BLE68-01(48591DE3C19B)	-0.321	-0.663	0.251	7.996	4.761	62.988	-70.50	29.75	-103.41	-53.214	-46.942	10.584	-0.55475	0.16324	-0.59540	0.55765	27.8	13111	100
2025-3-27 20:11:19.394	WT901BLE68-01(48591DE3C19B)	-0.321	-0.926	0.292	4.639	8.240	62.561	-70.36	30.35	-103.22	-53.214	-46.942	10.584	-0.55475	0.16324	-0.59540	0.55765	27.8	13111	100
