time	DeviceName	AccX(g)	AccY(g)	AccZ(g)	AsX(°/s)	AsY(°/s)	AsZ(°/s)	AngleX(°)	AngleY(°)	AngleZ(°)	HX(uT)	HY(uT)	HZ(uT)	Q0()	Q1()	Q2()	Q3()	Temperature(°C)	Version()	Battery level(%)
2025-3-27 17:35:22.597	WT901BLE68-01(48591DE3C19B)	-0.278	-0.907	0.346	0.610	7.935	2.686	-69.25	15.05	-120.64	-65.170	-47.138	-4.116	0.46854	-0.18546	0.54260	-0.67197	28.5	13111	100
2025-3-27 17:35:22.598	WT901BLE68-01(48591DE3C19B)	-0.278	-0.911	0.350	1.099	8.606	2.563	-69.26	15.12	-120.66	-65.170	-47.138	-4.116	0.46854	-0.18546	0.54260	-0.67197	28.5	13111	100
2025-3-27 17:35:22.598	WT901BLE68-01(48591DE3C19B)	-0.274	-0.911	0.350	1.099	8.606	2.563	-69.27	15.18	-120.68	-65.170	-47.138	-4.116	0.46854	-0.18546	0.54260	-0.67197	28.5	13111	100
2025-3-27 17:35:22.598	WT901BLE68-01(48591DE3C19B)	-0.274	-0.916	0.355	1.770	9.521	2.625	-69.27	15.24	-120.72	-65.170	-47.138	-4.116	0.46854	-0.18546	0.54260	-0.67197	28.5	13111	100
2025-3-27 17:35:22.720	WT901BLE68-01(48591DE3C19B)	-0.265	-0.916	0.355	1.770	9.521	2.625	-69.28	15.30	-120.75	-65.170	-47.138	-4.116	0.46854	-0.18546	0.54260	-0.67197	28.5	13111	100
2025-3-27 17:35:22.720	WT901BLE68-01(48591DE3C19B)	-0.265	-0.914	0.361	3.235	11.658	2.808	-69.28	15.37	-120.79	-65.170	-47.138	-4.116	0.46854	-0.18546	0.54260	-0.67197	28.5	13111	100
2025-3-27 17:35:22.721	WT901BLE68-01(48591DE3C19B)	-0.258	-0.914	0.361	3.235	11.658	2.808	-69.27	15.44	-120.85	-65.170	-47.138	-4.116	0.46854	-0.18546	0.54260	-0.67197	28.5	13111	100
2025-3-27 17:35:22.721	WT901BLE68-01(48591DE3C19B)	-0.258	-0.913	0.359	4.517	15.198	3.479	-69.26	15.52	-120.92	-65.170	-47.138	-4.116	0.46854	-0.18546	0.54260	-0.67197	28.5	13111	100
2025-3-27 17:35:22.721	WT901BLE68-01(48591DE3C19B)	-0.253	-0.913	0.359	4.517	15.198	3.479	-69.25	15.61	-121.01	-65.170	-47.138	-4.116	0.46854	-0.18546	0.54260	-0.67197	28.5	13111	100
2025-3-27 17:35:22.721	WT901BLE68-01(48591DE3C19B)	-0.253	-0.899	0.356	5.798	19.287	4.822	-69.24	15.71	-121.11	-65.170	-47.138	-4.116	0.46854	-0.18546	0.54260	-0.67197	28.5	13111	100
2025-3-27 17:35:22.721	WT901BLE68-01(48591DE3C19B)	-0.264	-0.899	0.356	5.798	19.287	4.822	-69.22	15.82	-121.23	-65.170	-47.138	-4.116	0.46854	-0.18546	0.54260	-0.67197	28.5	13111	100
2025-3-27 17:35:22.721	WT901BLE68-01(48591DE3C19B)	-0.264	-0.890	0.355	5.981	21.545	6.226	-69.21	15.95	-121.36	-65.170	-47.138	-4.116	0.46854	-0.18546	0.54260	-0.67197	28.5	13111	100
2025-3-27 17:35:22.722	WT901BLE68-01(48591DE3C19B)	-0.277	-0.890	0.355	5.981	21.545	6.226	-69.20	16.08	-121.50	-65.170	-47.138	-4.116	0.46854	-0.18546	0.54260	-0.67197	28.5	13111	100
2025-3-27 17:35:22.722	WT901BLE68-01(48591DE3C19B)	-0.277	-0.894	0.356	5.310	20.203	7.446	-69.19	16.22	-121.61	-65.170	-47.138	-4.116	0.46854	-0.18546	0.54260	-0.67197	28.5	13111	100
2025-3-27 17:35:22.722	WT901BLE68-01(48591DE3C19B)	-0.283	-0.894	0.356	5.310	20.203	7.446	-69.19	16.35	-121.73	-65.170	-47.138	-4.116	0.46854	-0.18546	0.54260	-0.67197	28.5	13111	100
2025-3-27 17:35:22.722	WT901BLE68-01(48591DE3C19B)	-0.283	-0.896	0.357	4.761	15.991	8.667	-69.17	16.48	-121.81	-65.170	-47.138	-4.116	0.46854	-0.18546	0.54260	-0.67197	28.5	13111	100
2025-3-27 17:35:22.750	WT901BLE68-01(48591DE3C19B)	-0.280	-0.896	0.357	4.761	15.991	8.667	-69.15	16.62	-121.88	-65.170	-47.138	-4.116	0.46854	-0.18546	0.54260	-0.67197	28.5	13111	100
2025-3-27 17:35:22.750	WT901BLE68-01(48591DE3C19B)	-0.280	-0.898	0.357	3.784	11.047	9.216	-69.13	16.74	-121.90	-65.170	-47.138	-4.116	0.46854	-0.18546	0.54260	-0.67197	28.5	13111	100
2025-3-27 17:35:22.750	WT901BLE68-01(48591DE3C19B)	-0.270	-0.898	0.357	3.784	11.047	9.216	-69.11	16.86	-121.93	-65.170	-47.138	-4.116	0.46854	-0.18546	0.54260	-0.67197	28.5	13111	100
2025-3-27 17:35:22.750	WT901BLE68-01(48591DE3C19B)	-0.270	-0.895	0.355	3.174	7.202	8.911	-69.09	16.96	-121.92	-65.170	-47.138	-4.116	0.46854	-0.18546	0.54260	-0.67197	28.5	13111	100
2025-3-27 17:35:22.778	WT901BLE68-01(48591DE3C19B)	-0.257	-0.895	0.355	3.174	7.202	8.911	-69.07	17.06	-121.90	-62.426	-47.726	-4.214	0.46854	-0.18546	0.54260	-0.67197	28.5	13111	100
2025-3-27 17:35:22.778	WT901BLE68-01(48591DE3C19B)	-0.257	-0.879	0.352	2.563	5.371	7.751	-69.04	17.14	-121.88	-62.426	-47.726	-4.214	0.46854	-0.18546	0.54260	-0.67197	28.5	13111	100
2025-3-27 17:35:22.778	WT901BLE68-01(48591DE3C19B)	-0.252	-0.879	0.352	2.563	5.371	7.751	-69.02	17.23	-121.85	-62.426	-47.726	-4.214	0.46854	-0.18546	0.54260	-0.67197	28.5	13111	100
2025-3-27 17:35:22.778	WT901BLE68-01(48591DE3C19B)	-0.252	-0.867	0.348	1.526	4.944	5.371	-69.01	17.29	-121.84	-62.426	-47.726	-4.214	0.46854	-0.18546	0.54260	-0.67197	28.5	13111	100
2025-3-27 17:35:22.807	WT901BLE68-01(48591DE3C19B)	-0.251	-0.867	0.348	1.526	4.944	5.371	-68.99	17.35	-121.82	-62.426	-47.726	-4.214	0.46854	-0.18546	0.54260	-0.67197	28.5	13111	100
2025-3-27 17:35:22.807	WT901BLE68-01(48591DE3C19B)	-0.251	-0.866	0.352	0.488	5.188	1.892	-69.00	17.37	-121.81	-62.426	-47.726	-4.214	0.46854	-0.18546	0.54260	-0.67197	28.5	13111	100
2025-3-27 17:35:22.807	WT901BLE68-01(48591DE3C19B)	-0.248	-0.866	0.352	0.488	5.188	1.892	-69.00	17.40	-121.81	-62.426	-47.726	-4.214	0.46854	-0.18546	0.54260	-0.67197	28.5	13111	100
2025-3-27 17:35:22.807	WT901BLE68-01(48591DE3C19B)	-0.248	-0.868	0.354	0.061	6.348	-2.136	-69.02	17.39	-121.83	-62.426	-47.726	-4.214	0.46854	-0.18546	0.54260	-0.67197	28.5	13111	100
2025-3-27 17:35:22.876	WT901BLE68-01(48591DE3C19B)	-0.247	-0.868	0.354	0.061	6.348	-2.136	-69.03	17.38	-121.85	-62.426	-47.726	-4.214	0.46854	-0.18546	0.54260	-0.67197	28.5	13111	100
2025-3-27 17:35:22.876	WT901BLE68-01(48591DE3C19B)	-0.247	-0.864	0.350	0.061	8.240	-6.531	-69.05	17.34	-121.91	-62.426	-47.726	-4.214	0.46854	-0.18546	0.54260	-0.67197	28.5	13111	100
2025-3-27 17:35:22.876	WT901BLE68-01(48591DE3C19B)	-0.247	-0.864	0.350	0.061	8.240	-6.531	-69.08	17.29	-121.97	-62.426	-47.726	-4.214	0.46854	-0.18546	0.54260	-0.67197	28.5	13111	100
2025-3-27 17:35:22.876	WT901BLE68-01(48591DE3C19B)	-0.247	-0.855	0.347	0.122	10.254	-10.864	-69.11	17.22	-122.06	-62.426	-47.726	-4.214	0.46854	-0.18546	0.54260	-0.67197	28.5	13111	100
2025-3-27 17:35:22.898	WT901BLE68-01(48591DE3C19B)	-0.254	-0.855	0.347	0.122	10.254	-10.864	-69.15	17.14	-122.15	-62.426	-47.726	-4.214	0.46854	-0.18546	0.54260	-0.67197	28.5	13111	100
2025-3-27 17:35:22.898	WT901BLE68-01(48591DE3C19B)	-0.254	-0.848	0.341	-0.183	12.024	-14.282	-69.19	17.04	-122.27	-62.426	-47.726	-4.214	0.46854	-0.18546	0.54260	-0.67197	28.5	13111	100
2025-3-27 17:35:22.898	WT901BLE68-01(48591DE3C19B)	-0.259	-0.848	0.341	-0.183	12.024	-14.282	-69.24	16.94	-122.39	-62.426	-47.726	-4.214	0.46854	-0.18546	0.54260	-0.67197	28.5	13111	100
2025-3-27 17:35:22.898	WT901BLE68-01(48591DE3C19B)	-0.259	-0.849	0.334	-1.038	12.573	-16.785	-69.29	16.81	-122.53	-62.426	-47.726	-4.214	0.46854	-0.18546	0.54260	-0.67197	28.5	13111	100
2025-3-27 17:35:22.959	WT901BLE68-01(48591DE3C19B)	-0.266	-0.849	0.334	-1.038	12.573	-16.785	-69.35	16.69	-122.66	-62.426	-47.726	-4.214	0.46854	-0.18546	0.54260	-0.67197	28.5	13111	100
2025-3-27 17:35:22.959	WT901BLE68-01(48591DE3C19B)	-0.266	-0.850	0.331	-2.014	12.634	-18.494	-69.42	16.56	-122.81	-62.426	-47.726	-4.214	0.46854	-0.18546	0.54260	-0.67197	28.5	13111	100
2025-3-27 17:35:22.959	WT901BLE68-01(48591DE3C19B)	-0.277	-0.850	0.331	-2.014	12.634	-18.494	-69.48	16.43	-122.94	-62.426	-47.726	-4.214	0.46854	-0.18546	0.54260	-0.67197	28.5	13111	100
2025-3-27 17:35:22.959	WT901BLE68-01(48591DE3C19B)	-0.277	-0.848	0.328	-3.174	11.597	-19.287	-69.56	16.28	-123.07	-62.426	-47.726	-4.214	0.46854	-0.18546	0.54260	-0.67197	28.5	13111	100
2025-3-27 17:35:22.987	WT901BLE68-01(48591DE3C19B)	-0.279	-0.848	0.328	-3.174	11.597	-19.287	-69.63	16.14	-123.21	-62.426	-47.726	-4.214	0.46854	-0.18546	0.54260	-0.67197	28.5	13111	100
2025-3-27 17:35:22.987	WT901BLE68-01(48591DE3C19B)	-0.279	-0.843	0.317	-4.822	10.010	-19.470	-69.72	16.00	-123.32	-62.426	-47.726	-4.214	0.45496	-0.16855	0.55252	-0.67764	28.5	13111	100
2025-3-27 17:35:22.988	WT901BLE68-01(48591DE3C19B)	-0.282	-0.843	0.317	-4.822	10.010	-19.470	-69.81	15.85	-123.44	-62.426	-47.726	-4.214	0.45496	-0.16855	0.55252	-0.67764	28.5	13111	100
2025-3-27 17:35:22.988	WT901BLE68-01(48591DE3C19B)	-0.282	-0.840	0.304	-6.653	8.545	-19.226	-69.91	15.70	-123.54	-62.426	-47.726	-4.214	0.45496	-0.16855	0.55252	-0.67764	28.5	13111	100
2025-3-27 17:35:23.17	WT901BLE68-01(48591DE3C19B)	-0.294	-0.840	0.304	-6.653	8.545	-19.226	-70.01	15.55	-123.64	-62.426	-47.726	-4.214	0.45496	-0.16855	0.55252	-0.67764	28.5	13111	100
2025-3-27 17:35:23.17	WT901BLE68-01(48591DE3C19B)	-0.294	-0.836	0.297	-8.850	5.920	-18.738	-70.13	15.40	-123.71	-62.426	-47.726	-4.214	0.45496	-0.16855	0.55252	-0.67764	28.5	13111	100
2025-3-27 17:35:23.17	WT901BLE68-01(48591DE3C19B)	-0.308	-0.836	0.297	-8.850	5.920	-18.738	-70.24	15.25	-123.78	-62.426	-47.726	-4.214	0.45496	-0.16855	0.55252	-0.67764	28.5	13111	100
2025-3-27 17:35:23.17	WT901BLE68-01(48591DE3C19B)	-0.308	-0.823	0.294	-11.169	1.099	-17.761	-70.36	15.10	-123.80	-62.426	-47.726	-4.214	0.45496	-0.16855	0.55252	-0.67764	28.5	13111	100
2025-3-27 17:35:23.52	WT901BLE68-01(48591DE3C19B)	-0.315	-0.823	0.294	-11.169	1.099	-17.761	-70.49	14.95	-123.82	-62.426	-47.726	-4.214	0.45496	-0.16855	0.55252	-0.67764	28.5	13111	100
2025-3-27 17:35:23.52	WT901BLE68-01(48591DE3C19B)	-0.315	-0.789	0.291	-13.184	-5.798	-15.686	-70.61	14.80	-123.77	-62.426	-47.726	-4.214	0.45496	-0.16855	0.55252	-0.67764	28.5	13111	100
2025-3-27 17:35:23.52	WT901BLE68-01(48591DE3C19B)	-0.313	-0.789	0.291	-13.184	-5.798	-15.686	-70.74	14.66	-123.72	-62.426	-47.726	-4.214	0.45496	-0.16855	0.55252	-0.67764	28.5	13111	100
2025-3-27 17:35:23.52	WT901BLE68-01(48591DE3C19B)	-0.313	-0.733	0.280	-15.015	-14.038	-12.329	-70.86	14.51	-123.57	-62.426	-47.726	-4.214	0.45496	-0.16855	0.55252	-0.67764	28.5	13111	100
2025-3-27 17:35:23.108	WT901BLE68-01(48591DE3C19B)	-0.299	-0.733	0.280	-15.015	-14.038	-12.329	-70.98	14.38	-123.43	-62.426	-47.726	-4.214	0.45496	-0.16855	0.55252	-0.67764	28.5	13111	100
2025-3-27 17:35:23.108	WT901BLE68-01(48591DE3C19B)	-0.299	-0.672	0.255	-17.456	-21.790	-8.850	-71.10	14.25	-123.21	-62.426	-47.726	-4.214	0.45496	-0.16855	0.55252	-0.67764	28.5	13111	100
2025-3-27 17:35:23.108	WT901BLE68-01(48591DE3C19B)	-0.294	-0.672	0.255	-17.456	-21.790	-8.850	-71.22	14.12	-122.98	-62.426	-47.726	-4.214	0.45496	-0.16855	0.55252	-0.67764	28.5	13111	100
2025-3-27 17:35:23.108	WT901BLE68-01(48591DE3C19B)	-0.294	-0.676	0.217	-23.926	-28.992	-8.423	-71.39	13.99	-122.68	-62.426	-47.726	-4.214	0.45496	-0.16855	0.55252	-0.67764	28.5	13111	100
2025-3-27 17:35:23.138	WT901BLE68-01(48591DE3C19B)	-0.328	-0.676	0.217	-23.926	-28.992	-8.423	-71.55	13.85	-122.39	-62.426	-47.726	-4.214	0.45496	-0.16855	0.55252	-0.67764	28.5	13111	100
2025-3-27 17:35:23.138	WT901BLE68-01(48591DE3C19B)	-0.380	-0.808	0.212	-29.846	-37.109	-12.512	-71.77	13.65	-122.03	-62.426	-47.726	-4.214	0.45496	-0.16855	0.55252	-0.67764	28.5	13111	100
2025-3-27 17:35:23.138	WT901BLE68-01(48591DE3C19B)	-0.380	-0.943	0.250	-30.762	-48.950	-19.531	-71.98	13.40	-121.62	-62.426	-47.726	-4.214	0.45496	-0.16855	0.55252	-0.67764	28.5	13111	100
2025-3-27 17:35:23.138	WT901BLE68-01(48591DE3C19B)	-0.404	-0.943	0.250	-30.762	-48.950	-19.531	-72.19	13.11	-121.16	-60.466	-45.962	-4.606	0.45496	-0.16855	0.55252	-0.67764	28.5	13111	100
2025-3-27 17:35:23.197	WT901BLE68-01(48591DE3C19B)	-0.404	-1.062	0.295	-32.043	-61.829	-29.297	-72.40	12.75	-120.66	-60.466	-45.962	-4.606	0.45496	-0.16855	0.55252	-0.67764	28.5	13111	100
2025-3-27 17:35:23.197	WT901BLE68-01(48591DE3C19B)	-0.409	-1.062	0.295	-32.043	-61.829	-29.297	-72.61	12.33	-120.10	-60.466	-45.962	-4.606	0.45496	-0.16855	0.55252	-0.67764	28.5	13111	100
2025-3-27 17:35:23.198	WT901BLE68-01(48591DE3C19B)	-0.409	-1.188	0.312	-31.738	-61.890	-38.330	-72.82	11.88	-119.56	-60.466	-45.962	-4.606	0.45496	-0.16855	0.55252	-0.67764	28.5	13111	100
2025-3-27 17:35:23.198	WT901BLE68-01(48591DE3C19B)	-0.387	-1.188	0.312	-31.738	-61.890	-38.330	-73.04	11.38	-119.04	-60.466	-45.962	-4.606	0.45496	-0.16855	0.55252	-0.67764	28.5	13111	100
2025-3-27 17:35:23.226	WT901BLE68-01(48591DE3C19B)	-0.387	-1.308	0.306	-26.855	-38.818	-44.922	-73.27	10.89	-118.63	-60.466	-45.962	-4.606	0.45496	-0.16855	0.55252	-0.67764	28.5	13111	100
2025-3-27 17:35:23.226	WT901BLE68-01(48591DE3C19B)	-0.339	-1.308	0.306	-26.855	-38.818	-44.922	-73.49	10.40	-118.34	-60.466	-45.962	-4.606	0.45496	-0.16855	0.55252	-0.67764	28.5	13111	100
2025-3-27 17:35:23.226	WT901BLE68-01(48591DE3C19B)	-0.339	-1.325	0.275	-14.343	1.648	-43.762	-73.70	9.97	-118.25	-60.466	-45.962	-4.606	0.45496	-0.16855	0.55252	-0.67764	28.5	13111	100
2025-3-27 17:35:23.226	WT901BLE68-01(48591DE3C19B)	-0.326	-1.325	0.275	-14.343	1.648	-43.762	-73.87	9.61	-118.33	-60.466	-45.962	-4.606	0.45496	-0.16855	0.55252	-0.67764	28.5	13111	100
2025-3-27 17:35:23.257	WT901BLE68-01(48591DE3C19B)	-0.326	-1.191	0.229	-0.244	47.852	-36.926	-74.01	9.33	-118.64	-60.466	-45.962	-4.606	0.45496	-0.16855	0.55252	-0.67764	28.5	13111	100
2025-3-27 17:35:23.257	WT901BLE68-01(48591DE3C19B)	-0.339	-1.191	0.229	-0.244	47.852	-36.926	-74.12	9.16	-119.15	-60.466	-45.962	-4.606	0.45496	-0.16855	0.55252	-0.67764	28.5	13111	100
2025-3-27 17:35:23.257	WT901BLE68-01(48591DE3C19B)	-0.339	-1.037	0.182	9.460	91.553	-23.010	-74.21	9.11	-119.84	-60.466	-45.962	-4.606	0.45496	-0.16855	0.55252	-0.67764	28.5	13111	100
2025-3-27 17:35:23.257	WT901BLE68-01(48591DE3C19B)	-0.365	-1.037	0.182	9.460	91.553	-23.010	-74.28	9.18	-120.73	-60.466	-45.962	-4.606	0.45496	-0.16855	0.55252	-0.67764	28.5	13111	100
2025-3-27 17:35:23.318	WT901BLE68-01(48591DE3C19B)	-0.365	-0.857	0.152	13.855	116.211	-4.272	-74.35	9.38	-121.71	-60.466	-45.962	-4.606	0.45496	-0.16855	0.55252	-0.67764	28.5	13111	100
2025-3-27 17:35:23.319	WT901BLE68-01(48591DE3C19B)	-0.372	-0.857	0.152	13.855	116.211	-4.272	-74.42	9.70	-122.77	-60.466	-45.962	-4.606	0.45496	-0.16855	0.55252	-0.67764	28.5	13111	100
2025-3-27 17:35:23.319	WT901BLE68-01(48591DE3C19B)	-0.372	-0.724	0.154	8.789	118.225	10.559	-74.53	10.10	-123.82	-60.466	-45.962	-4.606	0.45496	-0.16855	0.55252	-0.67764	28.5	13111	100
2025-3-27 17:35:23.319	WT901BLE68-01(48591DE3C19B)	-0.384	-0.724	0.154	8.789	118.225	10.559	-74.66	10.56	-124.87	-60.466	-45.962	-4.606	0.45496	-0.16855	0.55252	-0.67764	28.5	13111	100
2025-3-27 17:35:23.347	WT901BLE68-01(48591DE3C19B)	-0.384	-0.711	0.146	-0.610	108.582	21.545	-74.84	11.06	-125.84	-60.466	-45.962	-4.606	0.45496	-0.16855	0.55252	-0.67764	28.5	13111	100
2025-3-27 17:35:23.347	WT901BLE68-01(48591DE3C19B)	-0.445	-0.711	0.146	-0.610	108.582	21.545	-75.07	11.60	-126.77	-60.466	-45.962	-4.606	0.45496	-0.16855	0.55252	-0.67764	28.5	13111	100
2025-3-27 17:35:23.347	WT901BLE68-01(48591DE3C19B)	-0.445	-0.767	0.138	-4.944	92.896	29.663	-75.31	12.16	-127.60	-60.466	-45.962	-4.606	0.45496	-0.16855	0.55252	-0.67764	28.5	13111	100
2025-3-27 17:35:23.347	WT901BLE68-01(48591DE3C19B)	-0.536	-0.767	0.138	-4.944	92.896	29.663	-75.56	12.73	-128.34	-60.466	-45.962	-4.606	0.45496	-0.16855	0.55252	-0.67764	28.5	13111	100
2025-3-27 17:35:23.407	WT901BLE68-01(48591DE3C19B)	-0.536	-0.786	0.136	-3.723	68.665	30.884	-75.78	13.28	-128.97	-60.466	-45.962	-4.606	0.40167	-0.18036	0.58987	-0.67679	28.5	13111	100
2025-3-27 17:35:23.408	WT901BLE68-01(48591DE3C19B)	-0.542	-0.786	0.136	-3.723	68.665	30.884	-75.99	13.80	-129.48	-60.466	-45.962	-4.606	0.40167	-0.18036	0.58987	-0.67679	28.5	13111	100
2025-3-27 17:35:23.408	WT901BLE68-01(48591DE3C19B)	-0.542	-0.777	0.122	-2.747	41.443	27.588	-76.15	14.28	-129.87	-60.466	-45.962	-4.606	0.40167	-0.18036	0.58987	-0.67679	28.5	13111	100
2025-3-27 17:35:23.408	WT901BLE68-01(48591DE3C19B)	-0.507	-0.777	0.122	-2.747	41.443	27.588	-76.29	14.71	-130.13	-60.466	-45.962	-4.606	0.40167	-0.18036	0.58987	-0.67679	28.5	13111	100
2025-3-27 17:35:23.408	WT901BLE68-01(48591DE3C19B)	-0.507	-0.744	0.114	0.061	18.433	22.705	-76.39	15.10	-130.28	-60.466	-45.962	-4.606	0.40167	-0.18036	0.58987	-0.67679	28.5	13111	100
2025-3-27 17:35:23.408	WT901BLE68-01(48591DE3C19B)	-0.502	-0.744	0.114	0.061	18.433	22.705	-76.44	15.42	-130.33	-60.466	-45.962	-4.606	0.40167	-0.18036	0.58987	-0.67679	28.5	13111	100
2025-3-27 17:35:23.409	WT901BLE68-01(48591DE3C19B)	-0.502	-0.686	0.101	2.319	-3.418	18.555	-76.46	15.72	-130.27	-60.466	-45.962	-4.606	0.40167	-0.18036	0.58987	-0.67679	28.5	13111	100
2025-3-27 17:35:23.409	WT901BLE68-01(48591DE3C19B)	-0.474	-0.686	0.101	2.319	-3.418	18.555	-76.44	15.96	-130.12	-60.466	-45.962	-4.606	0.40167	-0.18036	0.58987	-0.67679	28.5	13111	100
2025-3-27 17:35:23.468	WT901BLE68-01(48591DE3C19B)	-0.474	-0.606	0.111	2.319	-29.541	16.907	-76.39	16.17	-129.83	-60.466	-45.962	-4.606	0.40167	-0.18036	0.58987	-0.67679	28.5	13111	100
2025-3-27 17:35:23.468	WT901BLE68-01(48591DE3C19B)	-0.429	-0.606	0.111	2.319	-29.541	16.907	-76.30	16.34	-129.42	-60.466	-45.962	-4.606	0.40167	-0.18036	0.58987	-0.67679	28.5	13111	100
2025-3-27 17:35:23.468	WT901BLE68-01(48591DE3C19B)	-0.429	-0.598	0.158	0.183	-52.002	18.738	-76.18	16.50	-128.90	-60.466	-45.962	-4.606	0.40167	-0.18036	0.58987	-0.67679	28.5	13111	100
2025-3-27 17:35:23.468	WT901BLE68-01(48591DE3C19B)	-0.419	-0.598	0.158	0.183	-52.002	18.738	-76.04	16.64	-128.28	-60.466	-45.962	-4.606	0.40167	-0.18036	0.58987	-0.67679	28.5	13111	100
2025-3-27 17:35:23.528	WT901BLE68-01(48591DE3C19B)	-0.419	-0.630	0.185	-4.150	-74.463	22.583	-75.88	16.77	-127.54	-60.466	-45.962	-4.606	0.40167	-0.18036	0.58987	-0.67679	28.5	13111	100
2025-3-27 17:35:23.528	WT901BLE68-01(48591DE3C19B)	-0.361	-0.630	0.185	-4.150	-74.463	22.583	-75.71	16.90	-126.69	-60.466	-45.962	-4.606	0.40167	-0.18036	0.58987	-0.67679	28.5	13111	100
2025-3-27 17:35:23.528	WT901BLE68-01(48591DE3C19B)	-0.361	-0.763	0.173	-12.817	-91.553	20.264	-75.55	16.98	-125.76	-60.466	-45.962	-4.606	0.40167	-0.18036	0.58987	-0.67679	28.5	13111	100
2025-3-27 17:35:23.528	WT901BLE68-01(48591DE3C19B)	-0.343	-0.763	0.173	-12.817	-91.553	20.264	-75.41	17.03	-124.75	-60.466	-45.962	-4.606	0.40167	-0.18036	0.58987	-0.67679	28.5	13111	100
2025-3-27 17:35:23.529	WT901BLE68-01(48591DE3C19B)	-0.343	-1.038	0.218	-15.747	-96.191	8.911	-75.28	17.01	-123.73	-60.466	-45.962	-4.606	0.40167	-0.18036	0.58987	-0.67679	28.5	13111	100
2025-3-27 17:35:23.529	WT901BLE68-01(48591DE3C19B)	-0.371	-1.038	0.218	-15.747	-96.191	8.911	-75.17	16.91	-122.69	-60.466	-45.962	-4.606	0.40167	-0.18036	0.58987	-0.67679	28.5	13111	100
2025-3-27 17:35:23.529	WT901BLE68-01(48591DE3C19B)	-1.483	-1.380	0.277	-13.611	-99.426	-9.766	-75.05	16.72	-121.66	-60.466	-45.962	-4.606	0.40167	-0.18036	0.58987	-0.67679	28.5	13111	100
2025-3-27 17:35:23.529	WT901BLE68-01(48591DE3C19B)	-0.345	-5.522	1.110	-13.611	-99.426	-9.766	-74.93	16.41	-120.64	-60.466	-45.962	-4.606	0.40167	-0.18036	0.58987	-0.67679	28.5	13111	100
2025-3-27 17:35:23.587	WT901BLE68-01(48591DE3C19B)	-0.345	-1.662	0.315	0.122	-88.623	-25.757	-74.77	16.01	-119.67	-60.466	-45.962	-4.606	0.40167	-0.18036	0.58987	-0.67679	28.5	13111	100
2025-3-27 17:35:23.587	WT901BLE68-01(48591DE3C19B)	-0.327	-1.662	0.315	0.122	-88.623	-25.757	-74.57	15.55	-118.80	-58.800	-44.786	-5.390	0.40167	-0.18036	0.58987	-0.67679	28.5	13111	100
2025-3-27 17:35:23.588	WT901BLE68-01(48591DE3C19B)	-0.327	-1.656	0.346	19.653	-55.847	-40.100	-74.33	15.05	-118.11	-58.800	-44.786	-5.390	0.40167	-0.18036	0.58987	-0.67679	28.5	13111	100
2025-3-27 17:35:23.588	WT901BLE68-01(48591DE3C19B)	-0.401	-1.656	0.346	19.653	-55.847	-40.100	-74.05	14.53	-117.61	-58.800	-44.786	-5.390	0.40167	-0.18036	0.58987	-0.67679	28.5	13111	100
2025-3-27 17:35:23.617	WT901BLE68-01(48591DE3C19B)	-0.401	-1.550	0.360	29.358	-23.987	-52.124	-73.76	13.97	-117.46	-58.800	-44.786	-5.390	0.40167	-0.18036	0.58987	-0.67679	28.5	13111	100
2025-3-27 17:35:23.617	WT901BLE68-01(48591DE3C19B)	-0.422	-1.550	0.360	29.358	-23.987	-52.124	-73.48	13.43	-117.32	-58.800	-44.786	-5.390	0.40167	-0.18036	0.58987	-0.67679	28.5	13111	100
2025-3-27 17:35:23.617	WT901BLE68-01(48591DE3C19B)	-0.422	-1.485	0.379	37.720	-13.611	-59.937	-73.14	12.83	-117.30	-58.800	-44.786	-5.390	0.40167	-0.18036	0.58987	-0.67679	28.5	13111	100
2025-3-27 17:35:23.617	WT901BLE68-01(48591DE3C19B)	-0.330	-1.485	0.379	37.720	-13.611	-59.937	-72.81	12.24	-117.29	-58.800	-44.786	-5.390	0.40167	-0.18036	0.58987	-0.67679	28.5	13111	100
2025-3-27 17:35:23.651	WT901BLE68-01(48591DE3C19B)	-0.330	-1.370	0.364	42.236	-8.179	-59.143	-72.44	11.68	-117.33	-58.800	-44.786	-5.390	0.40167	-0.18036	0.58987	-0.67679	28.5	13111	100
2025-3-27 17:35:23.652	WT901BLE68-01(48591DE3C19B)	-0.232	-1.370	0.364	42.236	-8.179	-59.143	-72.07	11.12	-117.38	-58.800	-44.786	-5.390	0.40167	-0.18036	0.58987	-0.67679	28.5	13111	100
2025-3-27 17:35:23.652	WT901BLE68-01(48591DE3C19B)	-0.232	-1.532	0.229	24.109	11.169	-60.547	-71.92	10.60	-117.63	-58.800	-44.786	-5.390	0.40167	-0.18036	0.58987	-0.67679	28.5	13111	100
2025-3-27 17:35:23.652	WT901BLE68-01(48591DE3C19B)	-0.258	-1.532	0.229	24.109	11.169	-60.547	-71.77	10.09	-117.86	-58.800	-44.786	-5.390	0.40167	-0.18036	0.58987	-0.67679	28.5	13111	100
2025-3-27 17:35:23.707	WT901BLE68-01(48591DE3C19B)	-0.258	-1.886	0.137	24.353	38.940	-64.270	-71.67	9.62	-118.37	-58.800	-44.786	-5.390	0.40167	-0.18036	0.58987	-0.67679	28.5	13111	100
2025-3-27 17:35:23.707	WT901BLE68-01(48591DE3C19B)	-0.404	-1.886	0.137	24.353	38.940	-64.270	-71.58	9.15	-118.87	-58.800	-44.786	-5.390	0.40167	-0.18036	0.58987	-0.67679	28.5	13111	100
2025-3-27 17:35:23.707	WT901BLE68-01(48591DE3C19B)	-0.404	-1.525	0.273	56.702	45.166	-58.044	-71.16	8.77	-119.41	-58.800	-44.786	-5.390	0.40167	-0.18036	0.58987	-0.67679	28.5	13111	100
2025-3-27 17:35:23.707	WT901BLE68-01(48591DE3C19B)	-0.338	-1.525	0.273	56.702	45.166	-58.044	-70.74	8.39	-119.95	-58.800	-44.786	-5.390	0.40167	-0.18036	0.58987	-0.67679	28.5	13111	100
2025-3-27 17:35:23.738	WT901BLE68-01(48591DE3C19B)	-0.338	-0.800	0.398	53.955	34.241	-49.194	-70.32	8.07	-120.36	-58.800	-44.786	-5.390	0.40167	-0.18036	0.58987	-0.67679	28.5	13111	100
2025-3-27 17:35:23.738	WT901BLE68-01(48591DE3C19B)	-0.122	-0.800	0.398	53.955	34.241	-49.194	-69.91	7.76	-120.77	-58.800	-44.786	-5.390	0.40167	-0.18036	0.58987	-0.67679	28.5	13111	100
2025-3-27 17:35:23.739	WT901BLE68-01(48591DE3C19B)	-0.122	-0.230	0.465	39.917	30.762	-17.456	-69.60	7.73	-121.06	-58.800	-44.786	-5.390	0.40167	-0.18036	0.58987	-0.67679	28.5	13111	100
2025-3-27 17:35:23.739	WT901BLE68-01(48591DE3C19B)	-0.061	-0.230	0.465	39.917	30.762	-17.456	-69.29	7.72	-121.35	-58.800	-44.786	-5.390	0.40167	-0.18036	0.58987	-0.67679	28.5	13111	100
2025-3-27 17:35:23.798	WT901BLE68-01(48591DE3C19B)	-0.061	-0.022	0.468	6.897	28.809	12.085	-69.27	7.97	-121.53	-58.800	-44.786	-5.390	0.40167	-0.18036	0.58987	-0.67679	28.5	13111	100
2025-3-27 17:35:23.798	WT901BLE68-01(48591DE3C19B)	-0.031	-0.022	0.468	6.897	28.809	12.085	-69.25	8.22	-121.72	-58.800	-44.786	-5.390	0.40167	-0.18036	0.58987	-0.67679	28.5	13111	100
2025-3-27 17:35:23.798	WT901BLE68-01(48591DE3C19B)	-0.031	-0.294	0.394	-23.010	11.536	23.804	-69.48	8.53	-121.72	-58.800	-44.786	-5.390	0.43600	-0.22333	0.52609	-0.69510	28.5	13111	100
2025-3-27 17:35:23.798	WT901BLE68-01(48591DE3C19B)	0.162	-0.294	0.394	-23.010	11.536	23.804	-69.70	8.82	-121.72	-58.800	-44.786	-5.390	0.43600	-0.22333	0.52609	-0.69510	28.5	13111	100
2025-3-27 17:35:23.888	WT901BLE68-01(48591DE3C19B)	0.162	-0.641	0.279	-28.442	-7.202	30.823	-69.94	9.11	-121.53	-58.800	-44.786	-5.390	0.43600	-0.22333	0.52609	-0.69510	28.5	13111	100
2025-3-27 17:35:23.889	WT901BLE68-01(48591DE3C19B)	0.272	-0.641	0.279	-28.442	-7.202	30.823	-70.18	9.38	-121.32	-58.800	-44.786	-5.390	0.43600	-0.22333	0.52609	-0.69510	28.5	13111	100
2025-3-27 17:35:23.889	WT901BLE68-01(48591DE3C19B)	0.272	-0.796	0.182	-18.799	-2.014	37.292	-70.33	9.72	-121.14	-58.800	-44.786	-5.390	0.43600	-0.22333	0.52609	-0.69510	28.5	13111	100
2025-3-27 17:35:23.889	WT901BLE68-01(48591DE3C19B)	0.219	-0.796	0.182	-18.799	-2.014	37.292	-70.48	10.04	-120.95	-58.800	-44.786	-5.390	0.43600	-0.22333	0.52609	-0.69510	28.5	13111	100
2025-3-27 17:35:23.919	WT901BLE68-01(48591DE3C19B)	0.219	-0.869	0.089	-5.615	21.423	32.593	-70.54	10.38	-121.00	-58.800	-44.786	-5.390	0.43600	-0.22333	0.52609	-0.69510	28.5	13111	100
2025-3-27 17:35:23.919	WT901BLE68-01(48591DE3C19B)	0.061	-0.869	0.089	-5.615	21.423	32.593	-70.61	10.71	-121.03	-58.800	-44.786	-5.390	0.43600	-0.22333	0.52609	-0.69510	28.5	13111	100
2025-3-27 17:35:23.919	WT901BLE68-01(48591DE3C19B)	0.061	-0.951	0.067	2.869	40.039	26.489	-70.65	11.03	-121.26	-58.800	-44.786	-5.390	0.43600	-0.22333	0.52609	-0.69510	28.5	13111	100
2025-3-27 17:35:23.919	WT901BLE68-01(48591DE3C19B)	-0.081	-0.951	0.067	2.869	40.039	26.489	-70.69	11.35	-121.48	-58.800	-44.786	-5.390	0.43600	-0.22333	0.52609	-0.69510	28.5	13111	100
2025-3-27 17:35:23.920	WT901BLE68-01(48591DE3C19B)	-0.081	-1.006	0.146	10.681	36.682	23.926	-70.66	11.63	-121.67	-58.800	-44.786	-5.390	0.43600	-0.22333	0.52609	-0.69510	28.5	13111	100
2025-3-27 17:35:23.920	WT901BLE68-01(48591DE3C19B)	-0.053	-1.006	0.146	10.681	36.682	23.926	-70.63	11.91	-121.87	-58.800	-44.786	-5.390	0.43600	-0.22333	0.52609	-0.69510	28.5	13111	100
2025-3-27 17:35:23.920	WT901BLE68-01(48591DE3C19B)	-0.053	-0.960	0.312	14.587	24.231	21.057	-70.54	12.12	-121.94	-58.800	-44.786	-5.390	0.43600	-0.22333	0.52609	-0.69510	28.5	13111	100
2025-3-27 17:35:23.920	WT901BLE68-01(48591DE3C19B)	-0.022	-0.960	0.312	14.587	24.231	21.057	-70.45	12.33	-122.03	-58.800	-44.786	-5.390	0.43600	-0.22333	0.52609	-0.69510	28.5	13111	100
2025-3-27 17:35:24.9	WT901BLE68-01(48591DE3C19B)	-0.022	-0.896	0.432	11.658	13.916	18.921	-70.36	12.49	-122.02	-58.800	-44.786	-5.390	0.43600	-0.22333	0.52609	-0.69510	28.5	13111	100
2025-3-27 17:35:24.9	WT901BLE68-01(48591DE3C19B)	-0.100	-0.896	0.432	11.658	13.916	18.921	-70.27	12.65	-122.01	-58.800	-44.786	-5.390	0.43600	-0.22333	0.52609	-0.69510	28.5	13111	100
2025-3-27 17:35:24.9	WT901BLE68-01(48591DE3C19B)	-0.100	-0.849	0.467	6.226	-5.554	25.452	-70.19	12.80	-121.81	-58.800	-44.786	-5.390	0.43600	-0.22333	0.52609	-0.69510	28.5	13111	100
2025-3-27 17:35:24.9	WT901BLE68-01(48591DE3C19B)	-0.126	-0.849	0.467	6.226	-5.554	25.452	-70.09	12.96	-121.61	-58.800	-44.786	-5.390	0.43600	-0.22333	0.52609	-0.69510	28.5	13111	100
2025-3-27 17:35:24.10	WT901BLE68-01(48591DE3C19B)	-0.126	-0.795	0.425	-0.427	-36.560	27.527	-69.99	13.04	-121.10	-56.644	-51.548	-5.390	0.43600	-0.22333	0.52609	-0.69510	28.5	13111	100
2025-3-27 17:35:24.10	WT901BLE68-01(48591DE3C19B)	-0.008	-0.795	0.425	-0.427	-36.560	27.527	-69.88	13.11	-120.61	-56.644	-51.548	-5.390	0.43600	-0.22333	0.52609	-0.69510	28.5	13111	100
2025-3-27 17:35:24.10	WT901BLE68-01(48591DE3C19B)	-0.008	-0.819	0.385	-9.033	-59.570	28.992	-69.81	13.12	-119.89	-56.644	-51.548	-5.390	0.43600	-0.22333	0.52609	-0.69510	28.5	13111	100
2025-3-27 17:35:24.10	WT901BLE68-01(48591DE3C19B)	0.071	-0.819	0.385	-9.033	-59.570	28.992	-69.74	13.12	-119.17	-56.644	-51.548	-5.390	0.43600	-0.22333	0.52609	-0.69510	28.5	13111	100
2025-3-27 17:35:24.12	WT901BLE68-01(48591DE3C19B)	0.071	-0.882	0.401	-7.568	-57.312	29.480	-69.65	13.14	-118.49	-56.644	-51.548	-5.390	0.43600	-0.22333	0.52609	-0.69510	28.5	13111	100
2025-3-27 17:35:24.12	WT901BLE68-01(48591DE3C19B)	0.051	-0.882	0.401	-7.568	-57.312	29.480	-69.57	13.15	-117.80	-56.644	-51.548	-5.390	0.43600	-0.22333	0.52609	-0.69510	28.5	13111	100
2025-3-27 17:35:24.12	WT901BLE68-01(48591DE3C19B)	0.051	-0.930	0.439	0.305	-51.575	29.785	-69.41	13.17	-117.17	-56.644	-51.548	-5.390	0.43600	-0.22333	0.52609	-0.69510	28.5	13111	100
2025-3-27 17:35:24.12	WT901BLE68-01(48591DE3C19B)	0.078	-0.930	0.439	0.305	-51.575	29.785	-69.25	13.19	-116.54	-56.644	-51.548	-5.390	0.43600	-0.22333	0.52609	-0.69510	28.5	13111	100
2025-3-27 17:35:24.130	WT901BLE68-01(48591DE3C19B)	0.077	-0.913	0.450	6.531	-39.612	29.541	-69.06	13.26	-116.03	-56.644	-51.548	-5.390	0.43600	-0.22333	0.52609	-0.69510	28.5	13111	100
2025-3-27 17:35:24.130	WT901BLE68-01(48591DE3C19B)	0.077	-0.884	0.428	10.681	-11.658	31.067	-68.87	13.36	-115.66	-56.644	-51.548	-5.390	0.43600	-0.22333	0.52609	-0.69510	28.5	13111	100
2025-3-27 17:35:24.130	WT901BLE68-01(48591DE3C19B)	0.007	-0.884	0.428	10.681	-11.658	31.067	-68.70	13.52	-115.41	-56.644	-51.548	-5.390	0.43600	-0.22333	0.52609	-0.69510	28.5	13111	100
2025-3-27 17:35:24.130	WT901BLE68-01(48591DE3C19B)	0.007	-0.881	0.379	14.038	15.808	29.297	-68.54	13.73	-115.30	-56.644	-51.548	-5.390	0.43600	-0.22333	0.52609	-0.69510	28.5	13111	100
2025-3-27 17:35:24.131	WT901BLE68-01(48591DE3C19B)	-0.057	-0.881	0.379	14.038	15.808	29.297	-68.39	13.97	-115.33	-56.644	-51.548	-5.390	0.43600	-0.22333	0.52609	-0.69510	28.5	13111	100
2025-3-27 17:35:24.131	WT901BLE68-01(48591DE3C19B)	-0.057	-0.827	0.338	15.564	27.710	27.771	-68.25	14.23	-115.41	-56.644	-51.548	-5.390	0.43600	-0.22333	0.52609	-0.69510	28.5	13111	100
2025-3-27 17:35:24.131	WT901BLE68-01(48591DE3C19B)	-0.092	-0.827	0.338	15.564	27.710	27.771	-68.13	14.50	-115.55	-56.644	-51.548	-5.390	0.43600	-0.22333	0.52609	-0.69510	28.5	13111	100
2025-3-27 17:35:24.131	WT901BLE68-01(48591DE3C19B)	-0.092	-0.754	0.328	11.169	26.489	25.696	-68.02	14.76	-115.69	-56.644	-51.548	-5.390	0.43600	-0.22333	0.52609	-0.69510	28.5	13111	100
2025-3-27 17:35:24.160	WT901BLE68-01(48591DE3C19B)	-0.107	-0.754	0.328	11.169	26.489	25.696	-67.94	15.01	-115.82	-56.644	-51.548	-5.390	0.43600	-0.22333	0.52609	-0.69510	28.5	13111	100
2025-3-27 17:35:24.160	WT901BLE68-01(48591DE3C19B)	-0.107	-0.728	0.338	6.042	20.752	20.020	-67.87	15.23	-115.94	-56.644	-51.548	-5.390	0.43600	-0.22333	0.52609	-0.69510	28.5	13111	100
2025-3-27 17:35:24.160	WT901BLE68-01(48591DE3C19B)	-0.148	-0.728	0.338	6.042	20.752	20.020	-67.84	15.41	-116.04	-56.644	-51.548	-5.390	0.43600	-0.22333	0.52609	-0.69510	28.5	13111	100
2025-3-27 17:35:24.160	WT901BLE68-01(48591DE3C19B)	-0.148	-0.713	0.370	3.174	19.287	12.939	-67.81	15.56	-116.15	-56.644	-51.548	-5.390	0.43600	-0.22333	0.52609	-0.69510	28.5	13111	100
2025-3-27 17:35:24.251	WT901BLE68-01(48591DE3C19B)	-0.219	-0.713	0.370	3.174	19.287	12.939	-67.80	15.68	-116.27	-56.644	-51.548	-5.390	0.49850	-0.19482	0.52933	-0.65820	28.5	13111	100
2025-3-27 17:35:24.251	WT901BLE68-01(48591DE3C19B)	-0.219	-0.728	0.406	-0.854	18.616	2.686	-67.82	15.75	-116.41	-56.644	-51.548	-5.390	0.49850	-0.19482	0.52933	-0.65820	28.5	13111	100
2025-3-27 17:35:24.251	WT901BLE68-01(48591DE3C19B)	-0.267	-0.728	0.406	-0.854	18.616	2.686	-67.86	15.78	-116.57	-56.644	-51.548	-5.390	0.49850	-0.19482	0.52933	-0.65820	28.5	13111	100
2025-3-27 17:35:24.251	WT901BLE68-01(48591DE3C19B)	-0.267	-0.739	0.431	-2.014	16.479	-7.263	-67.90	15.77	-116.74	-56.644	-51.548	-5.390	0.49850	-0.19482	0.52933	-0.65820	28.5	13111	100
2025-3-27 17:35:24.252	WT901BLE68-01(48591DE3C19B)	-0.291	-0.739	0.431	-2.014	16.479	-7.263	-67.94	15.70	-116.93	-56.644	-51.548	-5.390	0.49850	-0.19482	0.52933	-0.65820	28.5	13111	100
2025-3-27 17:35:24.252	WT901BLE68-01(48591DE3C19B)	-0.291	-0.709	0.419	-3.967	16.968	-14.099	-68.01	15.62	-117.13	-56.644	-51.548	-5.390	0.49850	-0.19482	0.52933	-0.65820	28.5	13111	100
2025-3-27 17:35:24.252	WT901BLE68-01(48591DE3C19B)	-0.301	-0.709	0.419	-3.967	16.968	-14.099	-68.08	15.52	-117.35	-56.644	-51.548	-5.390	0.49850	-0.19482	0.52933	-0.65820	28.5	13111	100
2025-3-27 17:35:24.252	WT901BLE68-01(48591DE3C19B)	-0.301	-0.669	0.388	-6.897	20.264	-16.602	-68.16	15.41	-117.59	-56.644	-51.548	-5.390	0.49850	-0.19482	0.52933	-0.65820	28.5	13111	100
2025-3-27 17:35:24.308	WT901BLE68-01(48591DE3C19B)	-0.317	-0.669	0.388	-6.897	20.264	-16.602	-68.27	15.31	-117.86	-56.644	-51.548	-5.390	0.49850	-0.19482	0.52933	-0.65820	28.5	13111	100
2025-3-27 17:35:24.308	WT901BLE68-01(48591DE3C19B)	-0.317	-0.627	0.348	-10.986	21.912	-17.273	-68.39	15.21	-118.14	-56.644	-51.548	-5.390	0.49850	-0.19482	0.52933	-0.65820	28.5	13111	100
2025-3-27 17:35:24.308	WT901BLE68-01(48591DE3C19B)	-0.343	-0.627	0.348	-10.986	21.912	-17.273	-68.54	15.12	-118.43	-56.644	-51.548	-5.390	0.49850	-0.19482	0.52933	-0.65820	28.5	13111	100
2025-3-27 17:35:24.308	WT901BLE68-01(48591DE3C19B)	-0.343	-0.609	0.315	-19.836	20.508	-17.273	-68.72	15.03	-118.72	-56.644	-51.548	-5.390	0.49850	-0.19482	0.52933	-0.65820	28.5	13111	100
2025-3-27 17:35:24.309	WT901BLE68-01(48591DE3C19B)	-0.365	-0.609	0.315	-19.836	20.508	-17.273	-68.95	14.94	-119.00	-56.644	-51.548	-5.390	0.49850	-0.19482	0.52933	-0.65820	28.5	13111	100
2025-3-27 17:35:24.309	WT901BLE68-01(48591DE3C19B)	-0.365	-0.637	0.292	-30.090	14.832	-16.479	-69.22	14.86	-119.26	-56.644	-51.548	-5.390	0.49850	-0.19482	0.52933	-0.65820	28.5	13111	100
2025-3-27 17:35:24.309	WT901BLE68-01(48591DE3C19B)	-0.388	-0.637	0.292	-30.090	14.832	-16.479	-69.53	14.77	-119.49	-56.644	-51.548	-5.390	0.49850	-0.19482	0.52933	-0.65820	28.5	13111	100
2025-3-27 17:35:24.309	WT901BLE68-01(48591DE3C19B)	-0.388	-0.688	0.279	-39.185	6.836	-17.151	-69.88	14.67	-119.68	-56.644	-51.548	-5.390	0.49850	-0.19482	0.52933	-0.65820	28.5	13111	100
2025-3-27 17:35:24.339	WT901BLE68-01(48591DE3C19B)	-0.429	-0.688	0.279	-39.185	6.836	-17.151	-70.26	14.56	-119.84	-56.644	-51.548	-5.390	0.49850	-0.19482	0.52933	-0.65820	28.5	13111	100
2025-3-27 17:35:24.339	WT901BLE68-01(48591DE3C19B)	-0.429	-0.764	0.296	-45.776	-3.479	-19.043	-70.66	14.43	-119.94	-56.644	-51.548	-5.390	0.49850	-0.19482	0.52933	-0.65820	28.5	13111	100
2025-3-27 17:35:24.340	WT901BLE68-01(48591DE3C19B)	-0.521	-0.764	0.296	-45.776	-3.479	-19.043	-71.09	14.27	-120.01	-56.644	-51.548	-5.390	0.49850	-0.19482	0.52933	-0.65820	28.5	13111	100
2025-3-27 17:35:24.340	WT901BLE68-01(48591DE3C19B)	-0.521	-0.887	0.365	-48.584	-25.696	-20.203	-71.50	14.08	-119.97	-56.644	-51.548	-5.390	0.49850	-0.19482	0.52933	-0.65820	28.5	13111	100
2025-3-27 17:35:24.429	WT901BLE68-01(48591DE3C19B)	-0.562	-0.887	0.365	-48.584	-25.696	-20.203	-71.90	13.86	-119.81	-56.644	-51.548	-5.390	0.49850	-0.19482	0.52933	-0.65820	28.5	13111	100
2025-3-27 17:35:24.429	WT901BLE68-01(48591DE3C19B)	-0.562	-0.970	0.415	-45.349	-56.824	-19.226	-72.25	13.60	-119.51	-58.604	-50.176	-6.076	0.49850	-0.19482	0.52933	-0.65820	28.5	13111	100
2025-3-27 17:35:24.429	WT901BLE68-01(48591DE3C19B)	-0.518	-0.970	0.415	-45.349	-56.824	-19.226	-72.54	13.31	-119.06	-58.604	-50.176	-6.076	0.49850	-0.19482	0.52933	-0.65820	28.5	13111	100
2025-3-27 17:35:24.429	WT901BLE68-01(48591DE3C19B)	-0.518	-0.964	0.406	-39.795	-77.087	-14.709	-72.78	13.01	-118.50	-58.604	-50.176	-6.076	0.49850	-0.19482	0.52933	-0.65820	28.5	13111	100
2025-3-27 17:35:24.430	WT901BLE68-01(48591DE3C19B)	-0.466	-0.964	0.406	-39.795	-77.087	-14.709	-72.98	12.71	-117.84	-58.604	-50.176	-6.076	0.49850	-0.19482	0.52933	-0.65820	28.5	13111	100
2025-3-27 17:35:24.430	WT901BLE68-01(48591DE3C19B)	-0.466	-1.001	0.342	-37.781	-85.815	-11.780	-73.15	12.42	-117.13	-58.604	-50.176	-6.076	0.49850	-0.19482	0.52933	-0.65820	28.5	13111	100
2025-3-27 17:35:24.430	WT901BLE68-01(48591DE3C19B)	-0.436	-1.001	0.342	-37.781	-85.815	-11.780	-73.32	12.13	-116.37	-58.604	-50.176	-6.076	0.49850	-0.19482	0.52933	-0.65820	28.5	13111	100
2025-3-27 17:35:24.430	WT901BLE68-01(48591DE3C19B)	-0.436	-1.114	0.277	-32.715	-86.365	-13.306	-73.46	11.84	-115.61	-58.604	-50.176	-6.076	0.49850	-0.19482	0.52933	-0.65820	28.5	13111	100
2025-3-27 17:35:24.488	WT901BLE68-01(48591DE3C19B)	-0.418	-1.114	0.277	-32.715	-86.365	-13.306	-73.59	11.54	-114.85	-58.604	-50.176	-6.076	0.49850	-0.19482	0.52933	-0.65820	28.5	13111	100
2025-3-27 17:35:24.488	WT901BLE68-01(48591DE3C19B)	-0.418	-1.175	0.254	-24.841	-87.158	-12.512	-73.69	11.24	-114.07	-58.604	-50.176	-6.076	0.49850	-0.19482	0.52933	-0.65820	28.5	13111	100
2025-3-27 17:35:24.488	WT901BLE68-01(48591DE3C19B)	-0.399	-1.175	0.254	-24.841	-87.158	-12.512	-73.76	10.95	-113.29	-58.604	-50.176	-6.076	0.49850	-0.19482	0.52933	-0.65820	28.5	13111	100
2025-3-27 17:35:24.488	WT901BLE68-01(48591DE3C19B)	-0.399	-1.167	0.270	-16.785	-85.388	-9.949	-73.80	10.67	-112.51	-58.604	-50.176	-6.076	0.49850	-0.19482	0.52933	-0.65820	28.5	13111	100
2025-3-27 17:35:24.518	WT901BLE68-01(48591DE3C19B)	-0.380	-1.167	0.270	-16.785	-85.388	-9.949	-73.80	10.41	-111.73	-58.604	-50.176	-6.076	0.49850	-0.19482	0.52933	-0.65820	28.5	13111	100
2025-3-27 17:35:24.518	WT901BLE68-01(48591DE3C19B)	-0.380	-1.104	0.294	-9.583	-76.721	-4.944	-73.78	10.18	-110.99	-58.604	-50.176	-6.076	0.49850	-0.19482	0.52933	-0.65820	28.5	13111	100
2025-3-27 17:35:24.518	WT901BLE68-01(48591DE3C19B)	-0.363	-1.104	0.294	-9.583	-76.721	-4.944	-73.75	9.99	-110.28	-58.604	-50.176	-6.076	0.49850	-0.19482	0.52933	-0.65820	28.5	13111	100
2025-3-27 17:35:24.518	WT901BLE68-01(48591DE3C19B)	-0.363	-1.015	0.294	-2.686	-62.134	2.380	-73.66	9.90	-109.69	-58.604	-50.176	-6.076	0.49850	-0.19482	0.52933	-0.65820	28.5	13111	100
2025-3-27 17:35:24.549	WT901BLE68-01(48591DE3C19B)	-0.338	-1.015	0.294	-2.686	-62.134	2.380	-73.57	9.82	-109.11	-58.604	-50.176	-6.076	0.49850	-0.19482	0.52933	-0.65820	28.5	13111	100
2025-3-27 17:35:24.550	WT901BLE68-01(48591DE3C19B)	-0.338	-0.913	0.268	2.747	-46.448	12.085	-73.45	9.87	-108.64	-58.604	-50.176	-6.076	0.49850	-0.19482	0.52933	-0.65820	28.5	13111	100
2025-3-27 17:35:24.550	WT901BLE68-01(48591DE3C19B)	-0.298	-0.913	0.268	2.747	-46.448	12.085	-73.34	9.92	-108.18	-58.604	-50.176	-6.076	0.49850	-0.19482	0.52933	-0.65820	28.5	13111	100
2025-3-27 17:35:24.550	WT901BLE68-01(48591DE3C19B)	-0.298	-0.808	0.227	5.798	-32.532	21.301	-73.21	10.09	-107.83	-58.604	-50.176	-6.076	0.49850	-0.19482	0.52933	-0.65820	28.5	13111	100
2025-3-27 17:35:24.698	WT901BLE68-01(48591DE3C19B)	-0.269	-0.808	0.227	5.798	-32.532	21.301	-73.09	10.26	-107.48	-58.604	-50.176	-6.076	0.49850	-0.19482	0.52933	-0.65820	28.5	13111	100
2025-3-27 17:35:24.699	WT901BLE68-01(48591DE3C19B)	-0.269	-0.731	0.189	5.798	-19.592	28.442	-72.98	10.54	-107.23	-58.604	-50.176	-6.076	0.49850	-0.19482	0.52933	-0.65820	28.5	13111	100
2025-3-27 17:35:24.699	WT901BLE68-01(48591DE3C19B)	-0.274	-0.731	0.189	5.798	-19.592	28.442	-72.87	10.81	-106.97	-58.604	-50.176	-6.076	0.52277	-0.29022	0.52039	-0.60956	28.5	13111	100
2025-3-27 17:35:24.699	WT901BLE68-01(48591DE3C19B)	-0.274	-0.690	0.162	5.188	-15.259	31.555	-72.78	11.12	-106.75	-58.604	-50.176	-6.076	0.52277	-0.29022	0.52039	-0.60956	28.5	13111	100
2025-3-27 17:35:24.699	WT901BLE68-01(48591DE3C19B)	-0.287	-0.690	0.162	5.188	-15.259	31.555	-72.69	11.44	-106.53	-58.604	-50.176	-6.076	0.52277	-0.29022	0.52039	-0.60956	28.5	13111	100
2025-3-27 17:35:24.700	WT901BLE68-01(48591DE3C19B)	-0.287	-0.708	0.161	2.075	-16.357	32.227	-72.62	11.74	-106.30	-58.604	-50.176	-6.076	0.52277	-0.29022	0.52039	-0.60956	28.5	13111	100
2025-3-27 17:35:24.700	WT901BLE68-01(48591DE3C19B)	-0.314	-0.708	0.161	2.075	-16.357	32.227	-72.55	12.06	-106.06	-58.604	-50.176	-6.076	0.52277	-0.29022	0.52039	-0.60956	28.5	13111	100
2025-3-27 17:35:24.700	WT901BLE68-01(48591DE3C19B)	-0.314	-0.805	0.193	1.343	-23.254	29.724	-72.49	12.32	-105.76	-58.604	-50.176	-6.076	0.52277	-0.29022	0.52039	-0.60956	28.5	13111	100
2025-3-27 17:35:24.700	WT901BLE68-01(48591DE3C19B)	-0.344	-0.805	0.193	1.343	-23.254	29.724	-72.42	12.58	-105.46	-58.604	-50.176	-6.076	0.52277	-0.29022	0.52039	-0.60956	28.5	13111	100
2025-3-27 17:35:24.700	WT901BLE68-01(48591DE3C19B)	-0.344	-0.946	0.230	2.197	-33.997	25.330	-72.32	12.77	-105.07	-58.604	-50.176	-6.076	0.52277	-0.29022	0.52039	-0.60956	28.5	13111	100
2025-3-27 17:35:24.700	WT901BLE68-01(48591DE3C19B)	-0.361	-0.946	0.230	2.197	-33.997	25.330	-72.22	12.95	-104.68	-58.604	-50.176	-6.076	0.52277	-0.29022	0.52039	-0.60956	28.5	13111	100
2025-3-27 17:35:24.701	WT901BLE68-01(48591DE3C19B)	-0.361	-1.069	0.260	7.996	-42.664	15.747	-72.05	13.02	-104.23	-58.604	-50.176	-6.076	0.52277	-0.29022	0.52039	-0.60956	28.5	13111	100
2025-3-27 17:35:24.701	WT901BLE68-01(48591DE3C19B)	-0.319	-1.069	0.260	7.996	-42.664	15.747	-71.89	13.08	-103.78	-58.604	-50.176	-6.076	0.52277	-0.29022	0.52039	-0.60956	28.5	13111	100
2025-3-27 17:35:24.701	WT901BLE68-01(48591DE3C19B)	-0.319	-1.219	0.287	12.878	-42.480	4.761	-71.68	13.03	-103.38	-58.604	-50.176	-6.076	0.52277	-0.29022	0.52039	-0.60956	28.5	13111	100
2025-3-27 17:35:24.701	WT901BLE68-01(48591DE3C19B)	-0.316	-1.219	0.287	12.878	-42.480	4.761	-71.48	12.97	-102.96	-58.604	-50.176	-6.076	0.52277	-0.29022	0.52039	-0.60956	28.5	13111	100
2025-3-27 17:35:24.701	WT901BLE68-01(48591DE3C19B)	-0.316	-1.365	0.331	22.949	-35.645	-6.897	-71.21	12.83	-102.66	-58.604	-50.176	-6.076	0.52277	-0.29022	0.52039	-0.60956	28.5	13111	100
2025-3-27 17:35:24.758	WT901BLE68-01(48591DE3C19B)	-0.311	-1.365	0.331	22.949	-35.645	-6.897	-70.93	12.68	-102.35	-58.604	-50.176	-6.076	0.52277	-0.29022	0.52039	-0.60956	28.5	13111	100
2025-3-27 17:35:24.758	WT901BLE68-01(48591DE3C19B)	-0.311	-1.458	0.331	28.931	-22.583	-11.292	-70.64	12.52	-102.18	-58.604	-50.176	-6.076	0.52277	-0.29022	0.52039	-0.60956	28.5	13111	100
2025-3-27 17:35:24.758	WT901BLE68-01(48591DE3C19B)	-0.256	-1.458	0.331	28.931	-22.583	-11.292	-70.34	12.36	-102.01	-58.604	-50.176	-6.076	0.52277	-0.29022	0.52039	-0.60956	28.5	13111	100
2025-3-27 17:35:24.758	WT901BLE68-01(48591DE3C19B)	-0.256	-1.498	0.291	36.865	-2.563	-14.404	-70.02	12.24	-102.05	-58.604	-50.176	-6.076	0.52277	-0.29022	0.52039	-0.60956	28.5	13111	100
2025-3-27 17:35:24.818	WT901BLE68-01(48591DE3C19B)	-0.199	-1.498	0.291	36.865	-2.563	-14.404	-69.70	12.11	-102.08	-71.736	-45.864	-3.234	0.52277	-0.29022	0.52039	-0.60956	28.5	13111	100
2025-3-27 17:35:24.818	WT901BLE68-01(48591DE3C19B)	-0.199	-1.436	0.284	44.922	16.174	-13.794	-69.33	12.05	-102.29	-71.736	-45.864	-3.234	0.52277	-0.29022	0.52039	-0.60956	28.5	13111	100
2025-3-27 17:35:24.818	WT901BLE68-01(48591DE3C19B)	-0.114	-1.436	0.284	44.922	16.174	-13.794	-68.98	11.98	-102.49	-71.736	-45.864	-3.234	0.52277	-0.29022	0.52039	-0.60956	28.5	13111	100
2025-3-27 17:35:24.818	WT901BLE68-01(48591DE3C19B)	-0.114	-1.472	0.307	34.058	41.565	-17.578	-68.78	11.97	-102.95	-71.736	-45.864	-3.234	0.52277	-0.29022	0.52039	-0.60956	28.5	13111	100
2025-3-27 17:35:24.819	WT901BLE68-01(48591DE3C19B)	-0.071	-1.472	0.307	34.058	41.565	-17.578	-68.59	11.95	-103.40	-71.736	-45.864	-3.234	0.52277	-0.29022	0.52039	-0.60956	28.5	13111	100
2025-3-27 17:35:24.819	WT901BLE68-01(48591DE3C19B)	-0.071	-1.764	0.233	13.428	80.444	-31.921	-68.70	11.94	-104.27	-71.736	-45.864	-3.234	0.52277	-0.29022	0.52039	-0.60956	28.5	13111	100
2025-3-27 17:35:24.820	WT901BLE68-01(48591DE3C19B)	-0.246	-1.764	0.233	13.428	80.444	-31.921	-68.80	11.91	-105.13	-71.736	-45.864	-3.234	0.52277	-0.29022	0.52039	-0.60956	28.5	13111	100
2025-3-27 17:35:24.820	WT901BLE68-01(48591DE3C19B)	-0.246	-1.766	0.257	28.870	118.958	-24.414	-68.83	12.10	-106.33	-71.736	-45.864	-3.234	0.52277	-0.29022	0.52039	-0.60956	28.5	13111	100
2025-3-27 17:35:24.878	WT901BLE68-01(48591DE3C19B)	-0.558	-1.766	0.257	28.870	118.958	-24.414	-68.86	12.28	-107.52	-71.736	-45.864	-3.234	0.52277	-0.29022	0.52039	-0.60956	28.5	13111	100
2025-3-27 17:35:24.878	WT901BLE68-01(48591DE3C19B)	-0.558	-1.125	0.569	45.776	98.877	-13.000	-68.68	12.50	-108.47	-71.736	-45.864	-3.234	0.52277	-0.29022	0.52039	-0.60956	28.5	13111	100
2025-3-27 17:35:24.878	WT901BLE68-01(48591DE3C19B)	-0.546	-1.125	0.569	45.776	98.877	-13.000	-68.48	12.72	-109.43	-71.736	-45.864	-3.234	0.52277	-0.29022	0.52039	-0.60956	28.5	13111	100
2025-3-27 17:35:24.878	WT901BLE68-01(48591DE3C19B)	-0.546	-0.483	0.802	29.785	42.603	19.348	-68.30	13.06	-109.74	-71.736	-45.864	-3.234	0.52277	-0.29022	0.52039	-0.60956	28.5	13111	100
2025-3-27 17:35:24.907	WT901BLE68-01(48591DE3C19B)	-0.477	-0.483	0.802	29.785	42.603	19.348	-68.10	13.40	-110.06	-71.736	-45.864	-3.234	0.52277	-0.29022	0.52039	-0.60956	28.5	13111	100
2025-3-27 17:35:24.907	WT901BLE68-01(48591DE3C19B)	-0.477	-0.308	0.707	-9.338	-8.484	70.923	-68.12	14.04	-109.71	-71.736	-45.864	-3.234	0.52277	-0.29022	0.52039	-0.60956	28.5	13111	100
2025-3-27 17:35:24.907	WT901BLE68-01(48591DE3C19B)	-0.246	-0.308	0.707	-9.338	-8.484	70.923	-68.11	14.68	-109.37	-71.736	-45.864	-3.234	0.52277	-0.29022	0.52039	-0.60956	28.5	13111	100
2025-3-27 17:35:24.907	WT901BLE68-01(48591DE3C19B)	-0.246	-0.574	0.580	-37.109	-56.763	86.731	-68.23	15.29	-108.53	-71.736	-45.864	-3.234	0.52277	-0.29022	0.52039	-0.60956	28.5	13111	100
2025-3-27 17:35:24.970	WT901BLE68-01(48591DE3C19B)	0.075	-0.574	0.580	-37.109	-56.763	86.731	-68.33	15.90	-107.69	-71.736	-45.864	-3.234	0.52277	-0.29022	0.52039	-0.60956	28.5	13111	100
2025-3-27 17:35:24.970	WT901BLE68-01(48591DE3C19B)	0.075	-0.876	0.311	-45.349	-62.073	92.712	-68.49	16.53	-106.77	-71.736	-45.864	-3.234	0.52277	-0.29022	0.52039	-0.60956	28.5	13111	100
2025-3-27 17:35:24.970	WT901BLE68-01(48591DE3C19B)	0.364	-0.876	0.311	-45.349	-62.073	92.712	-68.64	17.14	-105.85	-71.736	-45.864	-3.234	0.52277	-0.29022	0.52039	-0.60956	28.5	13111	100
2025-3-27 17:35:24.970	WT901BLE68-01(48591DE3C19B)	0.423	-0.971	0.104	-25.208	-25.574	84.656	-68.70	17.81	-105.30	-71.736	-45.864	-3.234	0.52277	-0.29022	0.52039	-0.60956	28.5	13111	100
2025-3-27 17:35:24.999	WT901BLE68-01(48591DE3C19B)	0.423	-0.907	0.004	9.155	25.452	78.735	-68.68	18.51	-105.01	-71.736	-45.864	-3.234	0.52277	-0.29022	0.52039	-0.60956	28.5	13111	100
2025-3-27 17:35:25.0	WT901BLE68-01(48591DE3C19B)	0.210	-0.907	0.004	9.155	25.452	78.735	-68.58	19.26	-104.97	-71.736	-45.864	-3.234	0.57074	-0.22858	0.52472	-0.58868	28.5	13111	100
2025-3-27 17:35:25.0	WT901BLE68-01(48591DE3C19B)	0.210	-0.719	0.015	24.475	43.335	75.195	-68.44	20.00	-105.01	-71.736	-45.864	-3.234	0.57074	-0.22858	0.52472	-0.58868	28.5	13111	100
2025-3-27 17:35:25.0	WT901BLE68-01(48591DE3C19B)	-0.000	-0.719	0.015	24.475	43.335	75.195	-68.26	20.75	-105.14	-71.736	-45.864	-3.234	0.57074	-0.22858	0.52472	-0.58868	28.5	13111	100
2025-3-27 17:35:25.29	WT901BLE68-01(48591DE3C19B)	-0.000	-0.722	0.134	21.912	33.447	70.496	-68.09	21.44	-105.22	-71.736	-45.864	-3.234	0.57074	-0.22858	0.52472	-0.58868	28.5	13111	100
2025-3-27 17:35:25.29	WT901BLE68-01(48591DE3C19B)	-0.047	-0.722	0.134	21.912	33.447	70.496	-67.92	22.09	-105.26	-71.736	-45.864	-3.234	0.57074	-0.22858	0.52472	-0.58868	28.5	13111	100
2025-3-27 17:35:25.30	WT901BLE68-01(48591DE3C19B)	-0.047	-0.832	0.255	23.804	28.992	69.946	-67.74	22.73	-105.28	-71.736	-45.864	-3.234	0.57074	-0.22858	0.52472	-0.58868	28.5	13111	100
2025-3-27 17:35:25.30	WT901BLE68-01(48591DE3C19B)	-0.125	-0.832	0.255	23.804	28.992	69.946	-67.54	23.35	-105.27	-71.736	-45.864	-3.234	0.57074	-0.22858	0.52472	-0.58868	28.5	13111	100
2025-3-27 17:35:25.57	WT901BLE68-01(48591DE3C19B)	-0.125	-0.833	0.365	30.151	36.255	71.411	-67.32	23.99	-105.29	-71.736	-45.864	-3.234	0.57074	-0.22858	0.52472	-0.58868	28.5	13111	100
2025-3-27 17:35:25.57	WT901BLE68-01(48591DE3C19B)	-0.272	-0.833	0.365	30.151	36.255	71.411	-67.08	24.66	-105.34	-71.736	-45.864	-3.234	0.57074	-0.22858	0.52472	-0.58868	28.5	13111	100
2025-3-27 17:35:25.57	WT901BLE68-01(48591DE3C19B)	-0.272	-0.859	0.368	20.081	28.320	70.068	-66.87	25.30	-105.36	-71.736	-45.864	-3.234	0.57074	-0.22858	0.52472	-0.58868	28.5	13111	100
2025-3-27 17:35:25.57	WT901BLE68-01(48591DE3C19B)	-0.268	-0.859	0.368	20.081	28.320	70.068	-66.69	25.93	-105.34	-71.736	-45.864	-3.234	0.57074	-0.22858	0.52472	-0.58868	28.5	13111	100
2025-3-27 17:35:25.117	WT901BLE68-01(48591DE3C19B)	-0.268	-0.946	0.367	13.550	-6.531	62.561	-66.47	26.46	-105.16	-71.736	-45.864	-3.234	0.57074	-0.22858	0.52472	-0.58868	28.5	13111	100
2025-3-27 17:35:25.117	WT901BLE68-01(48591DE3C19B)	-0.168	-0.946	0.367	13.550	-6.531	62.561	-66.21	26.88	-104.81	-71.736	-45.864	-3.234	0.57074	-0.22858	0.52472	-0.58868	28.5	13111	100
2025-3-27 17:35:25.118	WT901BLE68-01(48591DE3C19B)	-0.168	-0.941	0.378	13.367	-33.875	52.612	-65.90	27.20	-104.34	-71.736	-45.864	-3.234	0.57074	-0.22858	0.52472	-0.58868	28.5	13111	100
2025-3-27 17:35:25.118	WT901BLE68-01(48591DE3C19B)	-0.097	-0.941	0.378	13.367	-33.875	52.612	-65.52	27.43	-103.77	-71.736	-45.864	-3.234	0.57074	-0.22858	0.52472	-0.58868	28.5	13111	100
2025-3-27 17:35:25.147	WT901BLE68-01(48591DE3C19B)	-0.097	-0.900	0.404	10.071	-43.335	42.969	-65.15	27.58	-103.16	-71.736	-45.864	-3.234	0.57074	-0.22858	0.52472	-0.58868	28.5	13111	100
2025-3-27 17:35:25.147	WT901BLE68-01(48591DE3C19B)	-0.064	-0.900	0.404	10.071	-43.335	42.969	-64.78	27.66	-102.53	-71.736	-45.864	-3.234	0.57074	-0.22858	0.52472	-0.58868	28.5	13111	100
2025-3-27 17:35:25.147	WT901BLE68-01(48591DE3C19B)	-0.064	-0.867	0.428	8.606	-36.560	34.363	-64.45	27.72	-101.96	-71.736	-45.864	-3.234	0.57074	-0.22858	0.52472	-0.58868	28.5	13111	100
2025-3-27 17:35:25.147	WT901BLE68-01(48591DE3C19B)	-0.072	-0.867	0.428	8.606	-36.560	34.363	-64.14	27.75	-101.44	-71.736	-45.864	-3.234	0.57074	-0.22858	0.52472	-0.58868	28.5	13111	100
2025-3-27 17:35:25.208	WT901BLE68-01(48591DE3C19B)	-0.072	-0.789	0.435	5.981	-22.461	22.034	-63.90	27.75	-101.03	-71.736	-45.864	-3.234	0.57074	-0.22858	0.52472	-0.58868	28.5	13111	100
2025-3-27 17:35:25.208	WT901BLE68-01(48591DE3C19B)	-0.087	-0.789	0.435	5.981	-22.461	22.034	-63.71	27.72	-100.73	-71.736	-45.864	-3.234	0.57074	-0.22858	0.52472	-0.58868	28.5	13111	100
2025-3-27 17:35:25.208	WT901BLE68-01(48591DE3C19B)	-0.087	-0.728	0.414	-0.305	-10.254	9.277	-63.59	27.66	-100.52	-73.500	-42.434	-2.156	0.57074	-0.22858	0.52472	-0.58868	28.5	13111	100
2025-3-27 17:35:25.208	WT901BLE68-01(48591DE3C19B)	-0.110	-0.728	0.414	-0.305	-10.254	9.277	-63.55	27.56	-100.40	-73.500	-42.434	-2.156	0.57074	-0.22858	0.52472	-0.58868	28.5	13111	100
2025-3-27 17:35:25.237	WT901BLE68-01(48591DE3C19B)	-0.110	-0.716	0.381	-9.399	-3.540	-2.991	-63.58	27.44	-100.35	-73.500	-42.434	-2.156	0.57074	-0.22858	0.52472	-0.58868	28.5	13111	100
2025-3-27 17:35:25.237	WT901BLE68-01(48591DE3C19B)	-0.096	-0.716	0.381	-9.399	-3.540	-2.991	-63.68	27.27	-100.37	-73.500	-42.434	-2.156	0.57074	-0.22858	0.52472	-0.58868	28.5	13111	100
2025-3-27 17:35:25.237	WT901BLE68-01(48591DE3C19B)	-0.096	-0.750	0.353	-16.052	0.671	-15.991	-63.84	27.05	-100.44	-73.500	-42.434	-2.156	0.57074	-0.22858	0.52472	-0.58868	28.5	13111	100
2025-3-27 17:35:25.237	WT901BLE68-01(48591DE3C19B)	-0.096	-0.750	0.353	-16.052	0.671	-15.991	-64.06	26.80	-100.56	-73.500	-42.434	-2.156	0.57074	-0.22858	0.52472	-0.58868	28.5	13111	100
2025-3-27 17:35:25.268	WT901BLE68-01(48591DE3C19B)	-0.096	-0.770	0.314	-17.395	2.930	-25.940	-64.29	26.49	-100.71	-73.500	-42.434	-2.156	0.57074	-0.22858	0.52472	-0.58868	28.5	13111	100
2025-3-27 17:35:25.268	WT901BLE68-01(48591DE3C19B)	-0.109	-0.770	0.314	-17.395	2.930	-25.940	-64.54	26.15	-100.89	-73.500	-42.434	-2.156	0.57074	-0.22858	0.52472	-0.58868	28.5	13111	100
2025-3-27 17:35:25.268	WT901BLE68-01(48591DE3C19B)	-0.109	-0.756	0.298	-18.494	3.235	-36.194	-64.81	25.77	-101.10	-73.500	-42.434	-2.156	0.57074	-0.22858	0.52472	-0.58868	28.5	13111	100
2025-3-27 17:35:25.268	WT901BLE68-01(48591DE3C19B)	-0.127	-0.756	0.298	-18.494	3.235	-36.194	-65.09	25.35	-101.33	-73.500	-42.434	-2.156	0.57074	-0.22858	0.52472	-0.58868	28.5	13111	100
2025-3-27 17:35:25.296	WT901BLE68-01(48591DE3C19B)	-0.127	-0.765	0.303	-19.836	2.502	-46.387	-65.39	24.87	-101.57	-73.500	-42.434	-2.156	0.57074	-0.22858	0.52472	-0.58868	28.5	13111	100
2025-3-27 17:35:25.296	WT901BLE68-01(48591DE3C19B)	-0.165	-0.765	0.303	-19.836	2.502	-46.387	-65.69	24.36	-101.83	-73.500	-42.434	-2.156	0.57074	-0.22858	0.52472	-0.58868	28.5	13111	100
2025-3-27 17:35:25.296	WT901BLE68-01(48591DE3C19B)	-0.165	-0.814	0.340	-20.569	-1.160	-57.007	-66.00	23.79	-102.08	-73.500	-42.434	-2.156	0.57074	-0.22858	0.52472	-0.58868	28.5	13111	100
2025-3-27 17:35:25.296	WT901BLE68-01(48591DE3C19B)	-0.185	-0.814	0.340	-20.569	-1.160	-57.007	-66.31	23.16	-102.34	-73.500	-42.434	-2.156	0.57074	-0.22858	0.52472	-0.58868	28.5	13111	100
2025-3-27 17:35:25.388	WT901BLE68-01(48591DE3C19B)	-0.185	-0.858	0.393	-18.799	-3.723	-68.359	-66.60	22.49	-102.61	-73.500	-42.434	-2.156	0.57074	-0.22858	0.52472	-0.58868	28.5	13111	100
2025-3-27 17:35:25.388	WT901BLE68-01(48591DE3C19B)	-0.192	-0.858	0.393	-18.799	-3.723	-68.359	-66.88	21.76	-102.88	-73.500	-42.434	-2.156	0.57074	-0.22858	0.52472	-0.58868	28.5	13111	100
2025-3-27 17:35:25.388	WT901BLE68-01(48591DE3C19B)	-0.192	-0.858	0.417	-15.686	-0.793	-79.712	-67.16	21.00	-103.18	-73.500	-42.434	-2.156	0.57074	-0.22858	0.52472	-0.58868	28.5	13111	100
2025-3-27 17:35:25.388	WT901BLE68-01(48591DE3C19B)	-0.192	-0.858	0.417	-15.686	-0.793	-79.712	-67.42	20.19	-103.52	-73.500	-42.434	-2.156	0.57074	-0.22858	0.52472	-0.58868	28.5	13111	100
2025-3-27 17:35:25.389	WT901BLE68-01(48591DE3C19B)	-0.192	-0.845	0.412	-15.381	4.883	-89.600	-67.69	19.35	-103.89	-73.500	-42.434	-2.156	0.57074	-0.22858	0.52472	-0.58868	28.5	13111	100
2025-3-27 17:35:25.389	WT901BLE68-01(48591DE3C19B)	-0.184	-0.845	0.412	-15.381	4.883	-89.600	-67.97	18.48	-104.31	-73.500	-42.434	-2.156	0.57074	-0.22858	0.52472	-0.58868	28.5	13111	100
2025-3-27 17:35:25.389	WT901BLE68-01(48591DE3C19B)	-0.184	-0.856	0.399	-16.235	13.123	-98.572	-68.25	17.59	-104.78	-73.500	-42.434	-2.156	0.57074	-0.22858	0.52472	-0.58868	28.5	13111	100
2025-3-27 17:35:25.389	WT901BLE68-01(48591DE3C19B)	-0.195	-0.856	0.399	-16.235	13.123	-98.572	-68.55	16.68	-105.29	-73.500	-42.434	-2.156	0.56097	-0.24271	0.51566	-0.60034	28.5	13111	100
2025-3-27 17:35:25.451	WT901BLE68-01(48591DE3C19B)	-0.195	-0.879	0.389	-16.663	22.217	-105.713	-68.85	15.76	-105.86	-73.500	-42.434	-2.156	0.56097	-0.24271	0.51566	-0.60034	28.5	13111	100
2025-3-27 17:35:25.451	WT901BLE68-01(48591DE3C19B)	-0.210	-0.879	0.389	-16.663	22.217	-105.713	-69.15	14.82	-106.47	-73.500	-42.434	-2.156	0.56097	-0.24271	0.51566	-0.60034	28.5	13111	100
2025-3-27 17:35:25.452	WT901BLE68-01(48591DE3C19B)	-0.210	-0.895	0.384	-17.456	29.724	-110.535	-69.48	13.87	-107.16	-73.500	-42.434	-2.156	0.56097	-0.24271	0.51566	-0.60034	28.5	13111	100
2025-3-27 17:35:25.452	WT901BLE68-01(48591DE3C19B)	-0.222	-0.895	0.384	-17.456	29.724	-110.535	-69.79	12.92	-107.84	-73.500	-42.434	-2.156	0.56097	-0.24271	0.51566	-0.60034	28.5	13111	100
2025-3-27 17:35:25.477	WT901BLE68-01(48591DE3C19B)	-0.222	-0.910	0.380	-18.738	36.438	-113.892	-70.11	11.96	-108.59	-73.500	-42.434	-2.156	0.56097	-0.24271	0.51566	-0.60034	28.5	13111	100
2025-3-27 17:35:25.477	WT901BLE68-01(48591DE3C19B)	-0.239	-0.910	0.380	-18.738	36.438	-113.892	-70.42	11.01	-109.32	-73.500	-42.434	-2.156	0.56097	-0.24271	0.51566	-0.60034	28.5	13111	100
2025-3-27 17:35:25.477	WT901BLE68-01(48591DE3C19B)	-0.239	-0.937	0.376	-20.447	42.969	-116.028	-70.75	10.07	-110.12	-73.500	-42.434	-2.156	0.56097	-0.24271	0.51566	-0.60034	28.5	13111	100
2025-3-27 17:35:25.477	WT901BLE68-01(48591DE3C19B)	-0.274	-0.937	0.376	-20.447	42.969	-116.028	-71.05	9.12	-110.91	-73.500	-42.434	-2.156	0.56097	-0.24271	0.51566	-0.60034	28.5	13111	100
2025-3-27 17:35:25.507	WT901BLE68-01(48591DE3C19B)	-0.274	-0.983	0.375	-22.278	46.204	-117.065	-71.37	8.18	-111.71	-73.500	-42.434	-2.156	0.56097	-0.24271	0.51566	-0.60034	28.5	13111	100
2025-3-27 17:35:25.508	WT901BLE68-01(48591DE3C19B)	-0.309	-0.983	0.375	-22.278	46.204	-117.065	-71.68	7.25	-112.51	-73.500	-42.434	-2.156	0.56097	-0.24271	0.51566	-0.60034	28.5	13111	100
2025-3-27 17:35:25.508	WT901BLE68-01(48591DE3C19B)	-0.309	-1.045	0.375	-22.583	43.823	-116.028	-71.97	6.32	-113.27	-73.500	-42.434	-2.156	0.56097	-0.24271	0.51566	-0.60034	28.5	13111	100
2025-3-27 17:35:25.508	WT901BLE68-01(48591DE3C19B)	-0.336	-1.045	0.375	-22.583	43.823	-116.028	-72.25	5.39	-114.03	-73.500	-42.434	-2.156	0.56097	-0.24271	0.51566	-0.60034	28.5	13111	100
2025-3-27 17:35:25.567	WT901BLE68-01(48591DE3C19B)	-0.336	-1.071	0.376	-19.409	38.269	-111.938	-72.48	4.49	-114.70	-73.500	-42.434	-2.156	0.56097	-0.24271	0.51566	-0.60034	28.5	13111	100
2025-3-27 17:35:25.567	WT901BLE68-01(48591DE3C19B)	-0.346	-1.071	0.376	-19.409	38.269	-111.938	-72.70	3.60	-115.38	-73.500	-42.434	-2.156	0.56097	-0.24271	0.51566	-0.60034	28.5	13111	100
2025-3-27 17:35:25.567	WT901BLE68-01(48591DE3C19B)	-0.346	-1.032	0.365	-15.808	33.386	-103.821	-72.87	2.77	-115.97	-73.500	-42.434	-2.156	0.56097	-0.24271	0.51566	-0.60034	28.5	13111	100
2025-3-27 17:35:25.568	WT901BLE68-01(48591DE3C19B)	-0.347	-1.032	0.365	-15.808	33.386	-103.821	-73.03	1.95	-116.56	-73.500	-42.434	-2.156	0.56097	-0.24271	0.51566	-0.60034	28.5	13111	100
2025-3-27 17:35:25.597	WT901BLE68-01(48591DE3C19B)	-0.173	-0.970	0.338	-13.184	32.166	-92.102	-73.16	1.24	-117.10	-73.500	-42.434	-2.156	0.56097	-0.24271	0.51566	-0.60034	28.5	13111	100
2025-3-27 17:35:25.598	WT901BLE68-01(48591DE3C19B)	-0.352	-0.485	0.169	-13.184	32.166	-92.102	-73.28	0.54	-117.64	-73.500	-42.434	-2.156	0.56097	-0.24271	0.51566	-0.60034	28.5	13111	100
2025-3-27 17:35:25.598	WT901BLE68-01(48591DE3C19B)	-0.352	-0.900	0.307	-11.658	30.945	-78.247	-73.38	-0.02	-118.13	-73.500	-42.434	-2.156	0.56097	-0.24271	0.51566	-0.60034	28.5	13111	100
2025-3-27 17:35:25.598	WT901BLE68-01(48591DE3C19B)	-0.360	-0.900	0.307	-11.658	30.945	-78.247	-73.48	-0.58	-118.61	-62.916	-44.002	-4.900	0.56097	-0.24271	0.51566	-0.60034	28.5	13111	100
2025-3-27 17:35:25.658	WT901BLE68-01(48591DE3C19B)	-0.360	-0.848	0.288	-13.672	25.513	-62.317	-73.59	-1.01	-119.00	-62.916	-44.002	-4.900	0.56097	-0.24271	0.51566	-0.60034	28.5	13111	100
2025-3-27 17:35:25.658	WT901BLE68-01(48591DE3C19B)	-0.359	-0.848	0.288	-13.672	25.513	-62.317	-73.70	-1.42	-119.38	-62.916	-44.002	-4.900	0.56097	-0.24271	0.51566	-0.60034	28.5	13111	100
2025-3-27 17:35:25.658	WT901BLE68-01(48591DE3C19B)	-0.359	-0.839	0.284	-17.639	13.733	-46.021	-73.85	-1.71	-119.60	-62.916	-44.002	-4.900	0.56097	-0.24271	0.51566	-0.60034	28.5	13111	100
2025-3-27 17:35:25.658	WT901BLE68-01(48591DE3C19B)	-0.361	-0.839	0.284	-17.639	13.733	-46.021	-74.00	-1.99	-119.83	-62.916	-44.002	-4.900	0.56097	-0.24271	0.51566	-0.60034	28.5	13111	100
2025-3-27 17:35:25.687	WT901BLE68-01(48591DE3C19B)	-0.361	-0.879	0.294	-21.301	-1.709	-29.602	-74.20	-2.16	-119.86	-62.916	-44.002	-4.900	0.56097	-0.24271	0.51566	-0.60034	28.5	13111	100
2025-3-27 17:35:25.687	WT901BLE68-01(48591DE3C19B)	-0.376	-0.879	0.294	-21.301	-1.709	-29.602	-74.39	-2.32	-119.88	-62.916	-44.002	-4.900	0.56097	-0.24271	0.51566	-0.60034	28.5	13111	100
2025-3-27 17:35:25.687	WT901BLE68-01(48591DE3C19B)	-0.376	-0.917	0.306	-20.874	-17.517	-13.550	-74.59	-2.37	-119.72	-62.916	-44.002	-4.900	0.56097	-0.24271	0.51566	-0.60034	28.5	13111	100
2025-3-27 17:35:25.687	WT901BLE68-01(48591DE3C19B)	-0.399	-0.917	0.306	-20.874	-17.517	-13.550	-74.78	-2.42	-119.55	-62.916	-44.002	-4.900	0.56097	-0.24271	0.51566	-0.60034	28.5	13111	100
2025-3-27 17:35:25.750	WT901BLE68-01(48591DE3C19B)	-0.399	-0.924	0.311	-19.165	-33.142	1.221	-74.97	-2.36	-119.20	-62.916	-44.002	-4.900	0.56097	-0.24271	0.51566	-0.60034	28.5	13111	100
2025-3-27 17:35:25.751	WT901BLE68-01(48591DE3C19B)	-0.399	-0.924	0.311	-19.165	-33.142	1.221	-75.15	-2.31	-118.84	-62.916	-44.002	-4.900	0.56097	-0.24271	0.51566	-0.60034	28.5	13111	100
2025-3-27 17:35:25.751	WT901BLE68-01(48591DE3C19B)	-0.399	-0.949	0.296	-17.578	-48.096	13.733	-75.33	-2.16	-118.32	-62.916	-44.002	-4.900	0.56097	-0.24271	0.51566	-0.60034	28.5	13111	100
2025-3-27 17:35:25.751	WT901BLE68-01(48591DE3C19B)	-0.393	-0.949	0.296	-17.578	-48.096	13.733	-75.50	-2.02	-117.80	-62.916	-44.002	-4.900	0.56097	-0.24271	0.51566	-0.60034	28.5	13111	100
2025-3-27 17:35:25.751	WT901BLE68-01(48591DE3C19B)	-0.393	-1.010	0.282	-14.771	-61.340	23.376	-75.65	-1.81	-117.12	-62.916	-44.002	-4.900	0.56097	-0.24271	0.51566	-0.60034	28.5	13111	100
2025-3-27 17:35:25.751	WT901BLE68-01(48591DE3C19B)	-0.396	-1.010	0.282	-14.771	-61.340	23.376	-75.80	-1.60	-116.44	-62.916	-44.002	-4.900	0.56097	-0.24271	0.51566	-0.60034	28.5	13111	100
2025-3-27 17:35:25.751	WT901BLE68-01(48591DE3C19B)	-0.396	-1.107	0.273	-12.329	-75.500	30.212	-75.93	-1.37	-115.62	-62.916	-44.002	-4.900	0.56097	-0.24271	0.51566	-0.60034	28.5	13111	100
2025-3-27 17:35:25.751	WT901BLE68-01(48591DE3C19B)	-0.373	-1.107	0.273	-12.329	-75.500	30.212	-76.05	-1.13	-114.79	-62.916	-44.002	-4.900	0.56097	-0.24271	0.51566	-0.60034	28.5	13111	100
2025-3-27 17:35:25.808	WT901BLE68-01(48591DE3C19B)	-0.373	-1.239	0.251	-9.949	-87.463	33.875	-76.16	-0.88	-113.84	-62.916	-44.002	-4.900	0.56097	-0.24271	0.51566	-0.60034	28.5	13111	100
2025-3-27 17:35:25.808	WT901BLE68-01(48591DE3C19B)	-0.313	-1.239	0.251	-9.949	-87.463	33.875	-76.26	-0.64	-112.89	-62.916	-44.002	-4.900	0.43512	-0.34641	0.51117	-0.65518	28.5	13111	100
2025-3-27 17:35:25.808	WT901BLE68-01(48591DE3C19B)	-0.313	-1.335	0.232	-2.441	-87.952	35.645	-76.28	-0.39	-111.93	-62.916	-44.002	-4.900	0.43512	-0.34641	0.51117	-0.65518	28.5	13111	100
2025-3-27 17:35:25.808	WT901BLE68-01(48591DE3C19B)	-0.261	-1.335	0.232	-2.441	-87.952	35.645	-76.31	-0.14	-110.97	-62.916	-44.002	-4.900	0.43512	-0.34641	0.51117	-0.65518	28.5	13111	100
2025-3-27 17:35:25.836	WT901BLE68-01(48591DE3C19B)	-0.261	-1.293	0.228	9.644	-77.148	37.476	-76.21	0.13	-110.10	-62.916	-44.002	-4.900	0.43512	-0.34641	0.51117	-0.65518	28.5	13111	100
2025-3-27 17:35:25.837	WT901BLE68-01(48591DE3C19B)	-0.214	-1.293	0.228	9.644	-77.148	37.476	-76.12	0.41	-109.24	-62.916	-44.002	-4.900	0.43512	-0.34641	0.51117	-0.65518	28.5	13111	100
2025-3-27 17:35:25.837	WT901BLE68-01(48591DE3C19B)	-0.214	-1.140	0.232	16.296	-58.777	38.818	-75.95	0.74	-108.56	-62.916	-44.002	-4.900	0.43512	-0.34641	0.51117	-0.65518	28.5	13111	100
2025-3-27 17:35:25.837	WT901BLE68-01(48591DE3C19B)	-0.168	-1.140	0.232	16.296	-58.777	38.818	-75.79	1.06	-107.87	-62.916	-44.002	-4.900	0.43512	-0.34641	0.51117	-0.65518	28.5	13111	100
2025-3-27 17:35:25.898	WT901BLE68-01(48591DE3C19B)	-0.168	-0.996	0.242	18.066	-31.616	40.833	-75.61	1.46	-107.44	-62.916	-44.002	-4.900	0.43512	-0.34641	0.51117	-0.65518	28.5	13111	100
2025-3-27 17:35:25.898	WT901BLE68-01(48591DE3C19B)	-0.160	-0.996	0.242	18.066	-31.616	40.833	-75.43	1.85	-107.01	-62.916	-44.002	-4.900	0.43512	-0.34641	0.51117	-0.65518	28.5	13111	100
2025-3-27 17:35:25.898	WT901BLE68-01(48591DE3C19B)	-0.187	-0.879	0.250	20.264	-0.488	43.640	-75.23	2.34	-106.88	-62.916	-44.002	-4.900	0.43512	-0.34641	0.51117	-0.65518	28.5	13111	100
2025-3-27 17:35:25.898	WT901BLE68-01(48591DE3C19B)	-0.187	-0.787	0.251	19.714	23.254	45.715	-75.04	2.87	-106.85	-62.916	-44.002	-4.900	0.43512	-0.34641	0.51117	-0.65518	28.5	13111	100
2025-3-27 17:35:25.927	WT901BLE68-01(48591DE3C19B)	-0.206	-0.787	0.251	19.714	23.254	45.715	-74.86	3.43	-106.94	-62.916	-44.002	-4.900	0.43512	-0.34641	0.51117	-0.65518	28.5	13111	100
2025-3-27 17:35:25.927	WT901BLE68-01(48591DE3C19B)	-0.206	-0.726	0.227	17.822	40.344	46.143	-74.69	4.02	-107.11	-62.916	-44.002	-4.900	0.43512	-0.34641	0.51117	-0.65518	28.5	13111	100
2025-3-27 17:35:25.927	WT901BLE68-01(48591DE3C19B)	-0.231	-0.726	0.227	17.822	40.344	46.143	-74.54	4.63	-107.35	-62.916	-44.002	-4.900	0.43512	-0.34641	0.51117	-0.65518	28.5	13111	100
2025-3-27 17:35:25.927	WT901BLE68-01(48591DE3C19B)	-0.231	-0.695	0.182	15.808	50.598	45.044	-74.40	5.25	-107.65	-62.916	-44.002	-4.900	0.43512	-0.34641	0.51117	-0.65518	28.5	13111	100
2025-3-27 17:35:26.18	WT901BLE68-01(48591DE3C19B)	-0.270	-0.695	0.182	15.808	50.598	45.044	-74.29	5.87	-107.99	-62.916	-44.002	-4.900	0.43512	-0.34641	0.51117	-0.65518	28.5	13111	100
2025-3-27 17:35:26.18	WT901BLE68-01(48591DE3C19B)	-0.270	-0.714	0.135	12.512	47.913	42.053	-74.19	6.47	-108.33	-62.916	-44.002	-4.900	0.43512	-0.34641	0.51117	-0.65518	28.5	13111	100
2025-3-27 17:35:26.18	WT901BLE68-01(48591DE3C19B)	-0.321	-0.714	0.135	12.512	47.913	42.053	-74.12	7.05	-108.65	-62.916	-44.002	-4.900	0.43512	-0.34641	0.51117	-0.65518	28.5	13111	100
2025-3-27 17:35:26.18	WT901BLE68-01(48591DE3C19B)	-0.321	-0.793	0.123	9.338	30.701	37.170	-74.06	7.59	-108.89	-62.916	-44.002	-4.900	0.43512	-0.34641	0.51117	-0.65518	28.5	13111	100
2025-3-27 17:35:26.19	WT901BLE68-01(48591DE3C19B)	-0.372	-0.793	0.123	9.338	30.701	37.170	-74.01	8.08	-109.06	-62.916	-44.002	-4.900	0.43512	-0.34641	0.51117	-0.65518	28.5	13111	100
2025-3-27 17:35:26.19	WT901BLE68-01(48591DE3C19B)	-0.372	-0.895	0.132	9.888	2.625	29.358	-73.94	8.49	-109.10	-62.916	-44.002	-4.900	0.43512	-0.34641	0.51117	-0.65518	28.5	13111	100
2025-3-27 17:35:26.20	WT901BLE68-01(48591DE3C19B)	-0.372	-0.895	0.132	9.888	2.625	29.358	-73.86	8.83	-109.01	-70.364	-40.180	-5.390	0.43512	-0.34641	0.51117	-0.65518	28.5	13111	100
2025-3-27 17:35:26.20	WT901BLE68-01(48591DE3C19B)	-0.372	-0.975	0.146	12.024	-26.794	21.362	-73.75	9.09	-108.79	-70.364	-40.180	-5.390	0.43512	-0.34641	0.51117	-0.65518	28.5	13111	100
2025-3-27 17:35:26.49	WT901BLE68-01(48591DE3C19B)	-0.334	-0.975	0.146	12.024	-26.794	21.362	-73.60	9.27	-108.44	-70.364	-40.180	-5.390	0.43512	-0.34641	0.51117	-0.65518	28.5	13111	100
2025-3-27 17:35:26.49	WT901BLE68-01(48591DE3C19B)	-0.334	-1.076	0.174	11.536	-45.959	12.695	-73.45	9.39	-108.01	-70.364	-40.180	-5.390	0.43512	-0.34641	0.51117	-0.65518	28.5	13111	100
2025-3-27 17:35:26.49	WT901BLE68-01(48591DE3C19B)	-0.328	-1.076	0.174	11.536	-45.959	12.695	-73.29	9.43	-107.50	-70.364	-40.180	-5.390	0.43512	-0.34641	0.51117	-0.65518	28.5	13111	100
2025-3-27 17:35:26.50	WT901BLE68-01(48591DE3C19B)	-0.328	-1.243	0.236	14.648	-61.035	5.127	-73.11	9.41	-106.92	-70.364	-40.180	-5.390	0.43512	-0.34641	0.51117	-0.65518	28.5	13111	100
2025-3-27 17:35:26.79	WT901BLE68-01(48591DE3C19B)	-0.290	-1.243	0.236	14.648	-61.035	5.127	-72.90	9.33	-106.29	-70.364	-40.180	-5.390	0.43512	-0.34641	0.51117	-0.65518	28.5	13111	100
2025-3-27 17:35:26.79	WT901BLE68-01(48591DE3C19B)	-0.290	-1.363	0.258	19.897	-69.885	-0.183	-72.66	9.20	-105.63	-70.364	-40.180	-5.390	0.43512	-0.34641	0.51117	-0.65518	28.5	13111	100
2025-3-27 17:35:26.79	WT901BLE68-01(48591DE3C19B)	-0.194	-1.363	0.258	19.897	-69.885	-0.183	-72.39	9.03	-104.93	-70.364	-40.180	-5.390	0.43512	-0.34641	0.51117	-0.65518	28.5	13111	100
2025-3-27 17:35:26.80	WT901BLE68-01(48591DE3C19B)	-0.194	-1.397	0.284	25.269	-65.002	0.244	-72.11	8.87	-104.27	-70.364	-40.180	-5.390	0.43512	-0.34641	0.51117	-0.65518	28.5	13111	100
2025-3-27 17:35:26.109	WT901BLE68-01(48591DE3C19B)	-0.121	-1.397	0.284	25.269	-65.002	0.244	-71.81	8.70	-103.62	-70.364	-40.180	-5.390	0.43512	-0.34641	0.51117	-0.65518	28.5	13111	100
2025-3-27 17:35:26.109	WT901BLE68-01(48591DE3C19B)	-0.121	-1.380	0.308	25.757	-40.039	0.427	-71.52	8.57	-103.10	-70.364	-40.180	-5.390	0.43512	-0.34641	0.51117	-0.65518	28.5	13111	100
2025-3-27 17:35:26.110	WT901BLE68-01(48591DE3C19B)	-0.059	-1.380	0.308	25.757	-40.039	0.427	-71.25	8.48	-102.71	-70.364	-40.180	-5.390	0.43512	-0.34641	0.51117	-0.65518	28.5	13111	100
2025-3-27 17:35:26.110	WT901BLE68-01(48591DE3C19B)	-0.059	-1.583	0.161	0.305	1.221	-11.963	-71.14	8.38	-102.52	-70.364	-40.180	-5.390	0.43512	-0.34641	0.51117	-0.65518	28.5	13111	100
2025-3-27 17:35:26.169	WT901BLE68-01(48591DE3C19B)	-0.130	-1.583	0.161	0.305	1.221	-11.963	-71.20	8.28	-102.56	-70.364	-40.180	-5.390	0.43512	-0.34641	0.51117	-0.65518	28.5	13111	100
2025-3-27 17:35:26.170	WT901BLE68-01(48591DE3C19B)	-0.130	-1.947	0.149	-12.207	36.133	-22.522	-71.34	8.18	-102.78	-70.364	-40.180	-5.390	0.43512	-0.34641	0.51117	-0.65518	28.5	13111	100
2025-3-27 17:35:26.170	WT901BLE68-01(48591DE3C19B)	-0.402	-1.947	0.149	-12.207	36.133	-22.522	-71.58	8.09	-103.18	-70.364	-40.180	-5.390	0.43512	-0.34641	0.51117	-0.65518	28.5	13111	100
2025-3-27 17:35:26.170	WT901BLE68-01(48591DE3C19B)	-0.402	-1.725	0.435	16.418	27.710	-14.282	-71.67	8.01	-103.51	-70.364	-40.180	-5.390	0.43512	-0.34641	0.51117	-0.65518	28.5	13111	100
2025-3-27 17:35:26.200	WT901BLE68-01(48591DE3C19B)	-0.433	-1.725	0.435	16.418	27.710	-14.282	-71.60	7.97	-103.80	-70.364	-40.180	-5.390	0.43512	-0.34641	0.51117	-0.65518	28.5	13111	100
2025-3-27 17:35:26.200	WT901BLE68-01(48591DE3C19B)	-0.433	-1.009	0.730	23.315	-19.531	7.935	-71.46	7.96	-103.83	-70.364	-40.180	-5.390	0.43512	-0.34641	0.51117	-0.65518	28.5	13111	100
2025-3-27 17:35:26.200	WT901BLE68-01(48591DE3C19B)	-0.213	-1.009	0.730	23.315	-19.531	7.935	-71.23	7.99	-103.60	-70.364	-40.180	-5.390	0.43512	-0.34641	0.51117	-0.65518	28.5	13111	100
2025-3-27 17:35:26.200	WT901BLE68-01(48591DE3C19B)	-0.213	-0.425	0.840	14.587	-56.580	58.655	-71.00	8.20	-103.12	-70.364	-40.180	-5.390	0.53729	-0.31448	0.48987	-0.61020	28.5	13111	100
2025-3-27 17:35:26.229	WT901BLE68-01(48591DE3C19B)	-0.004	-0.425	0.840	14.587	-56.580	58.655	-70.76	8.59	-102.40	-70.364	-40.180	-5.390	0.53729	-0.31448	0.48987	-0.61020	28.5	13111	100
2025-3-27 17:35:26.229	WT901BLE68-01(48591DE3C19B)	-0.004	-0.326	0.653	-17.944	-65.857	97.717	-70.64	9.14	-101.57	-70.364	-40.180	-5.390	0.53729	-0.31448	0.48987	-0.61020	28.5	13111	100
2025-3-27 17:35:26.230	WT901BLE68-01(48591DE3C19B)	0.240	-0.326	0.653	-17.944	-65.857	97.717	-70.64	9.84	-100.65	-70.364	-40.180	-5.390	0.53729	-0.31448	0.48987	-0.61020	28.5	13111	100
2025-3-27 17:35:26.230	WT901BLE68-01(48591DE3C19B)	0.240	-0.741	0.387	-33.997	-56.458	105.469	-70.70	10.60	-99.77	-70.364	-40.180	-5.390	0.53729	-0.31448	0.48987	-0.61020	28.5	13111	100
2025-3-27 17:35:26.288	WT901BLE68-01(48591DE3C19B)	0.559	-0.741	0.387	-33.997	-56.458	105.469	-70.83	11.39	-98.91	-70.364	-40.180	-5.390	0.53729	-0.31448	0.48987	-0.61020	28.5	13111	100
2025-3-27 17:35:26.288	WT901BLE68-01(48591DE3C19B)	0.559	-0.984	0.153	-20.508	-23.193	108.582	-70.92	12.23	-98.21	-70.364	-40.180	-5.390	0.53729	-0.31448	0.48987	-0.61020	28.5	13111	100
2025-3-27 17:35:26.288	WT901BLE68-01(48591DE3C19B)	0.745	-0.984	0.153	-20.508	-23.193	108.582	-70.97	13.12	-97.66	-70.364	-40.180	-5.390	0.53729	-0.31448	0.48987	-0.61020	28.5	13111	100
2025-3-27 17:35:26.288	WT901BLE68-01(48591DE3C19B)	0.745	-1.017	0.091	13.916	51.270	98.572	-70.94	14.06	-97.48	-70.364	-40.180	-5.390	0.53729	-0.31448	0.48987	-0.61020	28.5	13111	100
2025-3-27 17:35:26.317	WT901BLE68-01(48591DE3C19B)	0.587	-1.017	0.091	13.916	51.270	98.572	-70.85	15.04	-97.68	-70.364	-40.180	-5.390	0.53729	-0.31448	0.48987	-0.61020	28.5	13111	100
2025-3-27 17:35:26.317	WT901BLE68-01(48591DE3C19B)	0.587	-0.870	0.105	42.603	144.958	91.736	-70.74	16.12	-98.34	-70.364	-40.180	-5.390	0.53729	-0.31448	0.48987	-0.61020	28.5	13111	100
2025-3-27 17:35:26.317	WT901BLE68-01(48591DE3C19B)	0.266	-0.870	0.105	42.603	144.958	91.736	-70.65	17.30	-99.46	-70.364	-40.180	-5.390	0.53729	-0.31448	0.48987	-0.61020	28.5	13111	100
2025-3-27 17:35:26.317	WT901BLE68-01(48591DE3C19B)	0.266	-0.814	0.109	51.025	192.932	78.796	-70.62	18.48	-100.85	-70.364	-40.180	-5.390	0.53729	-0.31448	0.48987	-0.61020	28.5	13111	100
2025-3-27 17:35:26.378	WT901BLE68-01(48591DE3C19B)	0.064	-0.814	0.109	51.025	192.932	78.796	-70.67	19.67	-102.49	-70.364	-40.180	-5.390	0.53729	-0.31448	0.48987	-0.61020	28.5	13111	100
2025-3-27 17:35:26.378	WT901BLE68-01(48591DE3C19B)	0.064	-0.872	0.108	54.810	204.895	66.528	-70.76	20.82	-104.23	-70.364	-40.180	-5.390	0.53729	-0.31448	0.48987	-0.61020	28.5	13111	100
2025-3-27 17:35:26.378	WT901BLE68-01(48591DE3C19B)	-0.142	-0.872	0.108	54.810	204.895	66.528	-70.91	21.92	-106.05	-70.364	-40.180	-5.390	0.53729	-0.31448	0.48987	-0.61020	28.5	13111	100
2025-3-27 17:35:26.378	WT901BLE68-01(48591DE3C19B)	-0.142	-0.917	0.158	55.969	190.186	63.416	-71.03	22.94	-107.74	-70.364	-40.180	-5.390	0.53729	-0.31448	0.48987	-0.61020	28.5	13111	100
2025-3-27 17:35:26.408	WT901BLE68-01(48591DE3C19B)	-0.335	-0.917	0.158	55.969	190.186	63.416	-71.17	23.96	-109.43	-70.364	-40.180	-5.390	0.53729	-0.31448	0.48987	-0.61020	28.5	13111	100
2025-3-27 17:35:26.408	WT901BLE68-01(48591DE3C19B)	-0.335	-0.925	0.237	53.955	143.860	58.105	-71.19	24.79	-110.67	-69.678	-37.926	-6.272	0.53729	-0.31448	0.48987	-0.61020	28.5	13111	100
2025-3-27 17:35:26.408	WT901BLE68-01(48591DE3C19B)	-0.433	-0.925	0.237	53.955	143.860	58.105	-71.22	25.63	-111.92	-69.678	-37.926	-6.272	0.53729	-0.31448	0.48987	-0.61020	28.5	13111	100
2025-3-27 17:35:26.408	WT901BLE68-01(48591DE3C19B)	-0.433	-0.926	0.310	44.678	70.251	57.678	-71.02	26.24	-112.40	-69.678	-37.926	-6.272	0.53729	-0.31448	0.48987	-0.61020	28.5	13111	100
2025-3-27 17:35:26.468	WT901BLE68-01(48591DE3C19B)	-0.383	-0.926	0.310	44.678	70.251	57.678	-70.83	26.86	-112.87	-69.678	-37.926	-6.272	0.53729	-0.31448	0.48987	-0.61020	28.5	13111	100
2025-3-27 17:35:26.468	WT901BLE68-01(48591DE3C19B)	-0.383	-0.928	0.396	35.645	-12.207	53.406	-70.33	27.18	-112.49	-69.678	-37.926	-6.272	0.53729	-0.31448	0.48987	-0.61020	28.5	13111	100
2025-3-27 17:35:26.468	WT901BLE68-01(48591DE3C19B)	-0.240	-0.928	0.396	35.645	-12.207	53.406	-69.84	27.51	-112.12	-69.678	-37.926	-6.272	0.53729	-0.31448	0.48987	-0.61020	28.5	13111	100
2025-3-27 17:35:26.468	WT901BLE68-01(48591DE3C19B)	-0.240	-0.894	0.452	26.123	-76.416	42.725	-69.15	27.52	-111.12	-69.678	-37.926	-6.272	0.53729	-0.31448	0.48987	-0.61020	28.5	13111	100
2025-3-27 17:35:26.469	WT901BLE68-01(48591DE3C19B)	-0.079	-0.894	0.452	26.123	-76.416	42.725	-68.45	27.52	-110.12	-69.678	-37.926	-6.272	0.53729	-0.31448	0.48987	-0.61020	28.5	13111	100
2025-3-27 17:35:26.469	WT901BLE68-01(48591DE3C19B)	-0.079	-0.872	0.488	16.357	-98.267	32.898	-67.76	27.33	-108.93	-69.678	-37.926	-6.272	0.53729	-0.31448	0.48987	-0.61020	28.5	13111	100
2025-3-27 17:35:26.469	WT901BLE68-01(48591DE3C19B)	0.031	-0.872	0.488	16.357	-98.267	32.898	-67.08	27.14	-107.77	-69.678	-37.926	-6.272	0.53729	-0.31448	0.48987	-0.61020	28.5	13111	100
2025-3-27 17:35:26.469	WT901BLE68-01(48591DE3C19B)	0.031	-0.852	0.488	13.062	-76.172	20.752	-66.57	26.91	-106.90	-69.678	-37.926	-6.272	0.53729	-0.31448	0.48987	-0.61020	28.5	13111	100
2025-3-27 17:35:26.528	WT901BLE68-01(48591DE3C19B)	0.051	-0.852	0.488	13.062	-76.172	20.752	-66.06	26.67	-106.03	-69.678	-37.926	-6.272	0.53729	-0.31448	0.48987	-0.61020	28.5	13111	100
2025-3-27 17:35:26.528	WT901BLE68-01(48591DE3C19B)	0.051	-0.776	0.447	11.475	-33.386	6.165	-65.79	26.46	-105.68	-69.678	-37.926	-6.272	0.53729	-0.31448	0.48987	-0.61020	28.5	13111	100
2025-3-27 17:35:26.528	WT901BLE68-01(48591DE3C19B)	0.011	-0.776	0.447	11.475	-33.386	6.165	-65.52	26.24	-105.33	-69.678	-37.926	-6.272	0.53729	-0.31448	0.48987	-0.61020	28.5	13111	100
2025-3-27 17:35:26.528	WT901BLE68-01(48591DE3C19B)	0.011	-0.714	0.378	9.644	11.841	-7.263	-65.49	26.09	-105.49	-69.678	-37.926	-6.272	0.53729	-0.31448	0.48987	-0.61020	28.5	13111	100
2025-3-27 17:35:26.559	WT901BLE68-01(48591DE3C19B)	-0.030	-0.714	0.378	9.644	11.841	-7.263	-65.47	25.94	-105.66	-69.678	-37.926	-6.272	0.53729	-0.31448	0.48987	-0.61020	28.5	13111	100
2025-3-27 17:35:26.559	WT901BLE68-01(48591DE3C19B)	-0.030	-0.668	0.300	11.169	50.964	-22.339	-65.63	25.81	-106.29	-69.678	-37.926	-6.272	0.53729	-0.31448	0.48987	-0.61020	28.5	13111	100
2025-3-27 17:35:26.559	WT901BLE68-01(48591DE3C19B)	-0.112	-0.668	0.300	11.169	50.964	-22.339	-65.79	25.68	-106.91	-69.678	-37.926	-6.272	0.53729	-0.31448	0.48987	-0.61020	28.5	13111	100
2025-3-27 17:35:26.560	WT901BLE68-01(48591DE3C19B)	-0.112	-0.616	0.229	12.817	71.960	-33.691	-66.04	25.53	-107.80	-69.678	-37.926	-6.272	0.53729	-0.31448	0.48987	-0.61020	28.5	13111	100
2025-3-27 17:35:26.649	WT901BLE68-01(48591DE3C19B)	-0.205	-0.616	0.229	12.817	71.960	-33.691	-66.30	25.38	-108.68	-69.678	-37.926	-6.272	0.53729	-0.31448	0.48987	-0.61020	28.5	13111	100
2025-3-27 17:35:26.649	WT901BLE68-01(48591DE3C19B)	-0.205	-0.596	0.171	9.033	75.439	-44.556	-66.62	25.16	-109.63	-69.678	-37.926	-6.272	0.53729	-0.31448	0.48987	-0.61020	28.5	13111	100
2025-3-27 17:35:26.649	WT901BLE68-01(48591DE3C19B)	-0.246	-0.596	0.171	9.033	75.439	-44.556	-66.93	24.93	-110.58	-69.678	-37.926	-6.272	0.53729	-0.31448	0.48987	-0.61020	28.5	13111	100
2025-3-27 17:35:26.649	WT901BLE68-01(48591DE3C19B)	-0.246	-0.592	0.150	6.287	65.979	-53.833	-67.25	24.59	-111.46	-69.678	-37.926	-6.272	0.53729	-0.31448	0.48987	-0.61020	28.5	13111	100
2025-3-27 17:35:26.650	WT901BLE68-01(48591DE3C19B)	-0.319	-0.592	0.150	6.287	65.979	-53.833	-67.56	24.25	-112.34	-69.678	-37.926	-6.272	0.53729	-0.31448	0.48987	-0.61020	28.5	13111	100
2025-3-27 17:35:26.650	WT901BLE68-01(48591DE3C19B)	-0.319	-0.585	0.167	3.723	48.767	-61.157	-67.84	23.78	-113.06	-69.678	-37.926	-6.272	0.54367	-0.15845	0.54977	-0.61395	28.5	13111	100
2025-3-27 17:35:26.650	WT901BLE68-01(48591DE3C19B)	-0.424	-0.585	0.167	3.723	48.767	-61.157	-68.10	23.32	-113.78	-69.678	-37.926	-6.272	0.54367	-0.15845	0.54977	-0.61395	28.5	13111	100
2025-3-27 17:35:26.650	WT901BLE68-01(48591DE3C19B)	-0.424	-0.598	0.203	0.427	24.841	-65.613	-68.30	22.75	-114.27	-69.678	-37.926	-6.272	0.54367	-0.15845	0.54977	-0.61395	28.5	13111	100
2025-3-27 17:35:26.679	WT901BLE68-01(48591DE3C19B)	-0.470	-0.598	0.203	0.427	24.841	-65.613	-68.50	22.19	-114.76	-69.678	-37.926	-6.272	0.54367	-0.15845	0.54977	-0.61395	28.5	13111	100
2025-3-27 17:35:26.679	WT901BLE68-01(48591DE3C19B)	-0.470	-0.601	0.251	-2.686	3.479	-68.054	-68.65	21.54	-115.05	-69.678	-37.926	-6.272	0.54367	-0.15845	0.54977	-0.61395	28.5	13111	100
2025-3-27 17:35:26.679	WT901BLE68-01(48591DE3C19B)	-0.475	-0.601	0.251	-2.686	3.479	-68.054	-68.79	20.91	-115.33	-69.678	-37.926	-6.272	0.54367	-0.15845	0.54977	-0.61395	28.5	13111	100
2025-3-27 17:35:26.679	WT901BLE68-01(48591DE3C19B)	-0.475	-0.618	0.271	-9.827	-10.498	-67.749	-68.94	20.24	-115.48	-69.678	-37.926	-6.272	0.54367	-0.15845	0.54977	-0.61395	28.5	13111	100
2025-3-27 17:35:26.768	WT901BLE68-01(48591DE3C19B)	-0.466	-0.618	0.271	-9.827	-10.498	-67.749	-69.09	19.59	-115.63	-69.678	-37.926	-6.272	0.54367	-0.15845	0.54977	-0.61395	28.5	13111	100
2025-3-27 17:35:26.769	WT901BLE68-01(48591DE3C19B)	-0.466	-0.679	0.288	-17.395	-17.639	-69.153	-69.29	18.91	-115.71	-69.678	-37.926	-6.272	0.54367	-0.15845	0.54977	-0.61395	28.5	13111	100
2025-3-27 17:35:26.769	WT901BLE68-01(48591DE3C19B)	-0.489	-0.679	0.288	-17.395	-17.639	-69.153	-69.48	18.23	-115.80	-69.678	-37.926	-6.272	0.54367	-0.15845	0.54977	-0.61395	28.5	13111	100
2025-3-27 17:35:26.769	WT901BLE68-01(48591DE3C19B)	-0.489	-0.772	0.299	-26.611	-27.100	-71.716	-69.74	17.51	-115.80	-69.678	-37.926	-6.272	0.54367	-0.15845	0.54977	-0.61395	28.5	13111	100
2025-3-27 17:35:26.769	WT901BLE68-01(48591DE3C19B)	-0.563	-0.772	0.299	-26.611	-27.100	-71.716	-69.99	16.80	-115.80	-69.678	-37.926	-6.272	0.54367	-0.15845	0.54977	-0.61395	28.5	13111	100
2025-3-27 17:35:26.769	WT901BLE68-01(48591DE3C19B)	-0.563	-0.922	0.333	-36.987	-44.373	-74.707	-70.31	16.01	-115.64	-69.678	-37.926	-6.272	0.54367	-0.15845	0.54977	-0.61395	28.5	13111	100
2025-3-27 17:35:26.769	WT901BLE68-01(48591DE3C19B)	-0.669	-0.922	0.333	-36.987	-44.373	-74.707	-70.62	15.22	-115.48	-69.678	-37.926	-6.272	0.54367	-0.15845	0.54977	-0.61395	28.5	13111	100
2025-3-27 17:35:26.769	WT901BLE68-01(48591DE3C19B)	-0.669	-1.095	0.377	-44.128	-67.383	-79.407	-70.95	14.33	-115.11	-69.678	-37.926	-6.272	0.54367	-0.15845	0.54977	-0.61395	28.5	13111	100
2025-3-27 17:35:26.797	WT901BLE68-01(48591DE3C19B)	-0.709	-1.095	0.377	-44.128	-67.383	-79.407	-71.28	13.44	-114.73	-69.678	-37.926	-6.272	0.54367	-0.15845	0.54977	-0.61395	28.5	13111	100
2025-3-27 17:35:26.797	WT901BLE68-01(48591DE3C19B)	-0.709	-1.214	0.426	-46.204	-86.670	-84.045	-71.60	12.46	-114.18	-69.678	-37.926	-6.272	0.54367	-0.15845	0.54977	-0.61395	28.5	13111	100
2025-3-27 17:35:26.797	WT901BLE68-01(48591DE3C19B)	-0.680	-1.214	0.426	-46.204	-86.670	-84.045	-71.93	11.49	-113.63	-69.678	-37.926	-6.272	0.54367	-0.15845	0.54977	-0.61395	28.5	13111	100
2025-3-27 17:35:26.797	WT901BLE68-01(48591DE3C19B)	-0.620	-1.269	0.432	-44.189	-97.290	-82.581	-72.23	10.51	-112.96	-64.288	-40.572	-5.978	0.54367	-0.15845	0.54977	-0.61395	28.5	13111	100
2025-3-27 17:35:26.919	WT901BLE68-01(48591DE3C19B)	-0.620	-1.268	0.398	-37.170	-93.506	-77.332	-72.50	9.56	-112.31	-64.288	-40.572	-5.978	0.54367	-0.15845	0.54977	-0.61395	28.5	13111	100
2025-3-27 17:35:26.919	WT901BLE68-01(48591DE3C19B)	-0.540	-1.268	0.398	-37.170	-93.506	-77.332	-72.75	8.66	-111.65	-64.288	-40.572	-5.978	0.54367	-0.15845	0.54977	-0.61395	28.5	13111	100
2025-3-27 17:35:26.919	WT901BLE68-01(48591DE3C19B)	-0.540	-1.232	0.338	-27.222	-78.064	-66.650	-72.97	7.83	-111.06	-64.288	-40.572	-5.978	0.54367	-0.15845	0.54977	-0.61395	28.5	13111	100
2025-3-27 17:35:26.919	WT901BLE68-01(48591DE3C19B)	-0.457	-1.232	0.338	-27.222	-78.064	-66.650	-73.16	7.08	-110.52	-64.288	-40.572	-5.978	0.54367	-0.15845	0.54977	-0.61395	28.5	13111	100
2025-3-27 17:35:26.920	WT901BLE68-01(48591DE3C19B)	-0.457	-1.104	0.298	-15.198	-57.312	-51.453	-73.30	6.44	-110.06	-64.288	-40.572	-5.978	0.54367	-0.15845	0.54977	-0.61395	28.5	13111	100
2025-3-27 17:35:26.920	WT901BLE68-01(48591DE3C19B)	-0.370	-1.104	0.298	-15.198	-57.312	-51.453	-73.40	5.89	-109.67	-64.288	-40.572	-5.978	0.54367	-0.15845	0.54977	-0.61395	28.5	13111	100
2025-3-27 17:35:26.920	WT901BLE68-01(48591DE3C19B)	-0.370	-0.944	0.276	-8.911	-33.569	-32.288	-73.48	5.48	-109.36	-64.288	-40.572	-5.978	0.54367	-0.15845	0.54977	-0.61395	28.5	13111	100
2025-3-27 17:35:26.920	WT901BLE68-01(48591DE3C19B)	-0.320	-0.944	0.276	-8.911	-33.569	-32.288	-73.54	5.20	-109.14	-64.288	-40.572	-5.978	0.54367	-0.15845	0.54977	-0.61395	28.5	13111	100
2025-3-27 17:35:26.920	WT901BLE68-01(48591DE3C19B)	-0.320	-0.809	0.257	-8.484	-9.949	-13.428	-73.60	5.03	-109.01	-64.288	-40.572	-5.978	0.54367	-0.15845	0.54977	-0.61395	28.5	13111	100
2025-3-27 17:35:26.920	WT901BLE68-01(48591DE3C19B)	-0.313	-0.809	0.257	-8.484	-9.949	-13.428	-73.67	4.99	-108.96	-64.288	-40.572	-5.978	0.54367	-0.15845	0.54977	-0.61395	28.5	13111	100
2025-3-27 17:35:26.920	WT901BLE68-01(48591DE3C19B)	-0.313	-0.726	0.235	-13.000	5.615	2.441	-73.77	5.05	-108.96	-64.288	-40.572	-5.978	0.54367	-0.15845	0.54977	-0.61395	28.5	13111	100
2025-3-27 17:35:26.920	WT901BLE68-01(48591DE3C19B)	-0.317	-0.726	0.235	-13.000	5.615	2.441	-73.89	5.20	-109.01	-64.288	-40.572	-5.978	0.54367	-0.15845	0.54977	-0.61395	28.5	13111	100
2025-3-27 17:35:26.980	WT901BLE68-01(48591DE3C19B)	-0.317	-0.698	0.212	-18.799	14.099	13.184	-74.05	5.41	-109.09	-64.288	-40.572	-5.978	0.54367	-0.15845	0.54977	-0.61395	28.5	13111	100
2025-3-27 17:35:26.980	WT901BLE68-01(48591DE3C19B)	-0.339	-0.698	0.212	-18.799	14.099	13.184	-74.24	5.69	-109.19	-64.288	-40.572	-5.978	0.54367	-0.15845	0.54977	-0.61395	28.5	13111	100
2025-3-27 17:35:26.980	WT901BLE68-01(48591DE3C19B)	-0.339	-0.682	0.195	-21.851	14.099	22.400	-74.44	6.00	-109.28	-64.288	-40.572	-5.978	0.54367	-0.15845	0.54977	-0.61395	28.5	13111	100
2025-3-27 17:35:26.980	WT901BLE68-01(48591DE3C19B)	-0.385	-0.682	0.195	-21.851	14.099	22.400	-74.66	6.36	-109.36	-64.288	-40.572	-5.978	0.54367	-0.15845	0.54977	-0.61395	28.5	13111	100
2025-3-27 17:35:27.9	WT901BLE68-01(48591DE3C19B)	-0.385	-0.659	0.206	-23.987	5.981	27.039	-74.88	6.73	-109.40	-64.288	-40.572	-5.978	0.54367	-0.15845	0.54977	-0.61395	28.5	13111	100
2025-3-27 17:35:27.9	WT901BLE68-01(48591DE3C19B)	-0.431	-0.659	0.206	-23.987	5.981	27.039	-75.10	7.11	-109.39	-64.288	-40.572	-5.978	0.54367	-0.15845	0.54977	-0.61395	28.5	13111	100
2025-3-27 17:35:27.9	WT901BLE68-01(48591DE3C19B)	-0.431	-0.671	0.232	-25.391	-9.888	27.710	-75.32	7.48	-109.30	-64.288	-40.572	-5.978	0.54367	-0.15845	0.54977	-0.61395	28.5	13111	100
2025-3-27 17:35:27.9	WT901BLE68-01(48591DE3C19B)	-0.499	-0.671	0.232	-25.391	-9.888	27.710	-75.54	7.83	-109.13	-64.288	-40.572	-5.978	0.49210	-0.31006	0.53015	-0.61688	28.5	13111	100
2025-3-27 17:35:27.38	WT901BLE68-01(48591DE3C19B)	-0.499	-0.748	0.280	-26.428	-33.752	25.024	-75.73	8.14	-108.86	-64.288	-40.572	-5.978	0.49210	-0.31006	0.53015	-0.61688	28.5	13111	100
2025-3-27 17:35:27.38	WT901BLE68-01(48591DE3C19B)	-0.539	-0.748	0.280	-26.428	-33.752	25.024	-75.92	8.40	-108.48	-64.288	-40.572	-5.978	0.49210	-0.31006	0.53015	-0.61688	28.5	13111	100
2025-3-27 17:35:27.38	WT901BLE68-01(48591DE3C19B)	-0.539	-0.903	0.329	-23.438	-63.904	19.165	-76.06	8.61	-107.96	-64.288	-40.572	-5.978	0.49210	-0.31006	0.53015	-0.61688	28.5	13111	100
2025-3-27 17:35:27.38	WT901BLE68-01(48591DE3C19B)	-0.492	-0.903	0.329	-23.438	-63.904	19.165	-76.17	8.76	-107.30	-64.288	-40.572	-5.978	0.49210	-0.31006	0.53015	-0.61688	28.5	13111	100
2025-3-27 17:35:27.128	WT901BLE68-01(48591DE3C19B)	-0.492	-1.062	0.318	-16.602	-84.534	10.071	-76.22	8.83	-106.56	-64.288	-40.572	-5.978	0.49210	-0.31006	0.53015	-0.61688	28.5	13111	100
2025-3-27 17:35:27.128	WT901BLE68-01(48591DE3C19B)	-0.381	-1.062	0.318	-16.602	-84.534	10.071	-76.23	8.84	-105.73	-64.288	-40.572	-5.978	0.49210	-0.31006	0.53015	-0.61688	28.5	13111	100
2025-3-27 17:35:27.128	WT901BLE68-01(48591DE3C19B)	-0.381	-1.167	0.260	-2.625	-85.815	2.075	-76.17	8.80	-104.89	-64.288	-40.572	-5.978	0.49210	-0.31006	0.53015	-0.61688	28.5	13111	100
2025-3-27 17:35:27.128	WT901BLE68-01(48591DE3C19B)	-0.307	-1.167	0.260	-2.625	-85.815	2.075	-76.04	8.71	-104.06	-64.288	-40.572	-5.978	0.49210	-0.31006	0.53015	-0.61688	28.5	13111	100
2025-3-27 17:35:27.129	WT901BLE68-01(48591DE3C19B)	-0.307	-1.232	0.192	8.423	-75.378	-6.287	-75.88	8.59	-103.29	-64.288	-40.572	-5.978	0.49210	-0.31006	0.53015	-0.61688	28.5	13111	100
2025-3-27 17:35:27.129	WT901BLE68-01(48591DE3C19B)	-0.262	-1.232	0.192	8.423	-75.378	-6.287	-75.68	8.43	-102.58	-64.288	-40.572	-5.978	0.49210	-0.31006	0.53015	-0.61688	28.5	13111	100
2025-3-27 17:35:27.129	WT901BLE68-01(48591DE3C19B)	-0.262	-1.297	0.178	19.714	-62.561	-10.864	-75.44	8.26	-101.93	-64.288	-40.572	-5.978	0.49210	-0.31006	0.53015	-0.61688	28.5	13111	100
2025-3-27 17:35:27.129	WT901BLE68-01(48591DE3C19B)	-0.226	-1.297	0.178	19.714	-62.561	-10.864	-75.17	8.07	-101.35	-64.288	-40.572	-5.978	0.49210	-0.31006	0.53015	-0.61688	28.5	13111	100
2025-3-27 17:35:27.188	WT901BLE68-01(48591DE3C19B)	-0.226	-1.268	0.228	31.860	-46.265	-7.202	-74.85	7.92	-100.84	-64.288	-40.572	-5.978	0.49210	-0.31006	0.53015	-0.61688	28.5	13111	100
2025-3-27 17:35:27.188	WT901BLE68-01(48591DE3C19B)	-0.198	-1.268	0.228	31.860	-46.265	-7.202	-74.49	7.79	-100.41	-64.288	-40.572	-5.978	0.49210	-0.31006	0.53015	-0.61688	28.5	13111	100
2025-3-27 17:35:27.188	WT901BLE68-01(48591DE3C19B)	-0.198	-1.153	0.296	41.199	-30.518	1.404	-74.09	7.72	-100.05	-64.288	-40.572	-5.978	0.49210	-0.31006	0.53015	-0.61688	28.5	13111	100
2025-3-27 17:35:27.188	WT901BLE68-01(48591DE3C19B)	-0.160	-1.153	0.296	41.199	-30.518	1.404	-73.66	7.70	-99.74	-64.288	-40.572	-5.978	0.49210	-0.31006	0.53015	-0.61688	28.5	13111	100
2025-3-27 17:35:27.278	WT901BLE68-01(48591DE3C19B)	-0.160	-1.036	0.356	43.335	-16.785	13.428	-73.22	7.76	-99.49	-64.288	-40.572	-5.978	0.49210	-0.31006	0.53015	-0.61688	28.5	13111	100
2025-3-27 17:35:27.278	WT901BLE68-01(48591DE3C19B)	-0.103	-1.036	0.356	43.335	-16.785	13.428	-72.78	7.88	-99.29	-64.288	-40.572	-5.978	0.49210	-0.31006	0.53015	-0.61688	28.5	13111	100
2025-3-27 17:35:27.278	WT901BLE68-01(48591DE3C19B)	-0.103	-1.040	0.375	36.682	0.000	23.499	-72.38	8.07	-99.15	-64.288	-40.572	-5.978	0.49210	-0.31006	0.53015	-0.61688	28.5	13111	100
2025-3-27 17:35:27.278	WT901BLE68-01(48591DE3C19B)	-0.048	-1.040	0.375	36.682	0.000	23.499	-72.02	8.33	-99.09	-64.288	-40.572	-5.978	0.49210	-0.31006	0.53015	-0.61688	28.5	13111	100
2025-3-27 17:35:27.279	WT901BLE68-01(48591DE3C19B)	-0.048	-1.193	0.289	23.682	28.381	23.926	-71.75	8.62	-99.15	-74.578	-37.436	-1.372	0.49210	-0.31006	0.53015	-0.61688	28.5	13111	100
2025-3-27 17:35:27.280	WT901BLE68-01(48591DE3C19B)	-0.057	-1.193	0.289	23.682	28.381	23.926	-71.56	8.96	-99.34	-74.578	-37.436	-1.372	0.49210	-0.31006	0.53015	-0.61688	28.5	13111	100
2025-3-27 17:35:27.280	WT901BLE68-01(48591DE3C19B)	-0.057	-1.518	0.175	0.122	57.190	4.639	-71.53	9.24	-99.71	-74.578	-37.436	-1.372	0.49210	-0.31006	0.53015	-0.61688	28.5	13111	100
2025-3-27 17:35:27.280	WT901BLE68-01(48591DE3C19B)	-0.202	-1.518	0.175	0.122	57.190	4.639	-71.64	9.46	-100.23	-74.578	-37.436	-1.372	0.49210	-0.31006	0.53015	-0.61688	28.5	13111	100
2025-3-27 17:35:27.309	WT901BLE68-01(48591DE3C19B)	-0.202	-1.876	0.267	-7.568	75.806	-7.324	-71.82	9.66	-100.86	-74.578	-37.436	-1.372	0.49210	-0.31006	0.53015	-0.61688	28.5	13111	100
2025-3-27 17:35:27.310	WT901BLE68-01(48591DE3C19B)	-0.542	-1.876	0.267	-7.568	75.806	-7.324	-72.06	9.81	-101.59	-74.578	-37.436	-1.372	0.49210	-0.31006	0.53015	-0.61688	28.5	13111	100
2025-3-27 17:35:27.310	WT901BLE68-01(48591DE3C19B)	-0.542	-1.628	0.593	27.832	71.350	6.104	-71.93	10.09	-102.24	-74.578	-37.436	-1.372	0.49210	-0.31006	0.53015	-0.61688	28.5	13111	100
2025-3-27 17:35:27.310	WT901BLE68-01(48591DE3C19B)	-0.601	-1.628	0.593	27.832	71.350	6.104	-71.80	10.37	-102.89	-74.578	-37.436	-1.372	0.49210	-0.31006	0.53015	-0.61688	28.5	13111	100
2025-3-27 17:35:27.338	WT901BLE68-01(48591DE3C19B)	-0.601	-0.862	0.882	41.565	29.358	18.555	-71.44	10.64	-103.10	-74.578	-37.436	-1.372	0.49210	-0.31006	0.53015	-0.61688	28.5	13111	100
2025-3-27 17:35:27.339	WT901BLE68-01(48591DE3C19B)	-0.389	-0.862	0.882	41.565	29.358	18.555	-71.07	10.93	-103.31	-74.578	-37.436	-1.372	0.49210	-0.31006	0.53015	-0.61688	28.5	13111	100
2025-3-27 17:35:27.339	WT901BLE68-01(48591DE3C19B)	-0.389	-0.451	0.842	26.428	5.066	68.115	-70.75	11.60	-103.13	-74.578	-37.436	-1.372	0.49210	-0.31006	0.53015	-0.61688	28.5	13111	100
2025-3-27 17:35:27.339	WT901BLE68-01(48591DE3C19B)	-0.269	-0.451	0.842	26.428	5.066	68.115	-70.42	12.28	-102.97	-74.578	-37.436	-1.372	0.49210	-0.31006	0.53015	-0.61688	28.5	13111	100
2025-3-27 17:35:27.398	WT901BLE68-01(48591DE3C19B)	-0.269	-0.706	0.546	2.502	4.700	102.234	-70.30	13.27	-102.68	-74.578	-37.436	-1.372	0.49210	-0.31006	0.53015	-0.61688	28.5	13111	100
2025-3-27 17:35:27.398	WT901BLE68-01(48591DE3C19B)	-0.181	-0.706	0.546	2.502	4.700	102.234	-70.16	14.26	-102.40	-74.578	-37.436	-1.372	0.49210	-0.31006	0.53015	-0.61688	28.5	13111	100
2025-3-27 17:35:27.398	WT901BLE68-01(48591DE3C19B)	-0.181	-1.178	0.257	-1.038	-11.414	137.146	-69.98	15.51	-101.83	-74.578	-37.436	-1.372	0.49210	-0.31006	0.53015	-0.61688	28.5	13111	100
2025-3-27 17:35:27.398	WT901BLE68-01(48591DE3C19B)	-0.033	-1.178	0.257	-1.038	-11.414	137.146	-69.80	16.74	-101.24	-74.578	-37.436	-1.372	0.49210	-0.31006	0.53015	-0.61688	28.5	13111	100
2025-3-27 17:35:27.399	WT901BLE68-01(48591DE3C19B)	-0.033	-1.362	0.081	10.376	-39.307	155.090	-69.41	18.03	-100.31	-74.578	-37.436	-1.372	0.49210	-0.31006	0.53015	-0.61688	28.5	13111	100
2025-3-27 17:35:27.399	WT901BLE68-01(48591DE3C19B)	0.133	-1.362	0.081	10.376	-39.307	155.090	-68.99	19.30	-99.36	-74.578	-37.436	-1.372	0.49210	-0.31006	0.53015	-0.61688	28.5	13111	100
2025-3-27 17:35:27.400	WT901BLE68-01(48591DE3C19B)	0.133	-1.205	-0.002	34.668	-30.396	166.077	-68.35	20.68	-98.43	-74.578	-37.436	-1.372	0.61282	-0.24481	0.51550	-0.54648	28.5	13111	100
2025-3-27 17:35:27.400	WT901BLE68-01(48591DE3C19B)	0.124	-1.205	-0.002	34.668	-30.396	166.077	-67.69	22.03	-97.47	-74.578	-37.436	-1.372	0.61282	-0.24481	0.51550	-0.54648	28.5	13111	100
2025-3-27 17:35:27.457	WT901BLE68-01(48591DE3C19B)	0.124	-0.977	-0.037	44.128	0.732	166.931	-67.03	23.48	-96.80	-74.578	-37.436	-1.372	0.61282	-0.24481	0.51550	-0.54648	28.5	13111	100
2025-3-27 17:35:27.457	WT901BLE68-01(48591DE3C19B)	0.018	-0.977	-0.037	44.128	0.732	166.931	-66.36	24.91	-96.10	-74.578	-37.436	-1.372	0.61282	-0.24481	0.51550	-0.54648	28.5	13111	100
2025-3-27 17:35:27.458	WT901BLE68-01(48591DE3C19B)	0.018	-0.928	-0.019	39.429	18.311	152.039	-65.82	26.25	-95.62	-74.578	-37.436	-1.372	0.61282	-0.24481	0.51550	-0.54648	28.5	13111	100
2025-3-27 17:35:27.458	WT901BLE68-01(48591DE3C19B)	-0.024	-0.928	-0.019	39.429	18.311	152.039	-65.29	27.58	-95.13	-74.578	-37.436	-1.372	0.61282	-0.24481	0.51550	-0.54648	28.5	13111	100
2025-3-27 17:35:27.488	WT901BLE68-01(48591DE3C19B)	-0.024	-0.966	0.094	40.833	18.738	134.583	-64.76	28.74	-94.70	-74.578	-37.436	-1.372	0.61282	-0.24481	0.51550	-0.54648	28.5	13111	100
2025-3-27 17:35:27.488	WT901BLE68-01(48591DE3C19B)	-0.094	-0.966	0.094	40.833	18.738	134.583	-64.23	29.89	-94.26	-74.578	-37.436	-1.372	0.61282	-0.24481	0.51550	-0.54648	28.5	13111	100
2025-3-27 17:35:27.488	WT901BLE68-01(48591DE3C19B)	-0.094	-0.913	0.293	53.345	14.282	120.361	-63.56	30.88	-93.83	-74.578	-37.436	-1.372	0.61282	-0.24481	0.51550	-0.54648	28.5	13111	100
2025-3-27 17:35:27.488	WT901BLE68-01(48591DE3C19B)	-0.176	-0.913	0.293	53.345	14.282	120.361	-62.89	31.86	-93.38	-74.578	-37.436	-1.372	0.61282	-0.24481	0.51550	-0.54648	28.5	13111	100
2025-3-27 17:35:27.516	WT901BLE68-01(48591DE3C19B)	-0.176	-0.835	0.460	51.697	16.724	104.980	-62.27	32.71	-93.04	-74.578	-37.436	-1.372	0.61282	-0.24481	0.51550	-0.54648	28.5	13111	100
2025-3-27 17:35:27.517	WT901BLE68-01(48591DE3C19B)	-0.293	-0.835	0.460	51.697	16.724	104.980	-61.63	33.55	-92.68	-74.578	-37.436	-1.372	0.61282	-0.24481	0.51550	-0.54648	28.5	13111	100
2025-3-27 17:35:27.517	WT901BLE68-01(48591DE3C19B)	-0.293	-0.830	0.511	46.021	14.771	93.628	-61.05	34.29	-92.35	-74.578	-37.436	-1.372	0.61282	-0.24481	0.51550	-0.54648	28.5	13111	100
2025-3-27 17:35:27.517	WT901BLE68-01(48591DE3C19B)	-0.321	-0.830	0.511	46.021	14.771	93.628	-60.46	35.02	-92.02	-74.578	-37.436	-1.372	0.61282	-0.24481	0.51550	-0.54648	28.5	13111	100
2025-3-27 17:35:27.580	WT901BLE68-01(48591DE3C19B)	-0.321	-0.843	0.504	41.870	1.831	78.308	-59.86	35.55	-91.63	-74.578	-37.436	-1.372	0.61282	-0.24481	0.51550	-0.54648	28.5	13111	100
2025-3-27 17:35:27.580	WT901BLE68-01(48591DE3C19B)	-0.254	-0.843	0.504	41.870	1.831	78.308	-59.26	36.08	-91.24	-74.578	-37.436	-1.372	0.61282	-0.24481	0.51550	-0.54648	28.5	13111	100
2025-3-27 17:35:27.580	WT901BLE68-01(48591DE3C19B)	-0.254	-0.798	0.445	36.255	-12.634	66.101	-58.66	36.44	-90.76	-74.578	-37.436	-1.372	0.61282	-0.24481	0.51550	-0.54648	28.5	13111	100
2025-3-27 17:35:27.580	WT901BLE68-01(48591DE3C19B)	-0.147	-0.798	0.445	36.255	-12.634	66.101	-58.05	36.78	-90.28	-74.578	-37.436	-1.372	0.61282	-0.24481	0.51550	-0.54648	28.5	13111	100
2025-3-27 17:35:27.609	WT901BLE68-01(48591DE3C19B)	-0.147	-0.735	0.362	26.978	-19.470	55.054	-57.52	36.99	-89.80	-74.578	-37.436	-1.372	0.61282	-0.24481	0.51550	-0.54648	28.5	13111	100
2025-3-27 17:35:27.609	WT901BLE68-01(48591DE3C19B)	-0.048	-0.735	0.362	26.978	-19.470	55.054	-57.00	37.20	-89.32	-74.578	-37.436	-1.372	0.61282	-0.24481	0.51550	-0.54648	28.5	13111	100
2025-3-27 17:35:27.610	WT901BLE68-01(48591DE3C19B)	-0.048	-0.682	0.299	20.752	-16.907	43.152	-56.60	37.32	-88.94	-74.578	-37.436	-1.372	0.61282	-0.24481	0.51550	-0.54648	28.5	13111	100
2025-3-27 17:35:27.610	WT901BLE68-01(48591DE3C19B)	0.015	-0.682	0.299	20.752	-16.907	43.152	-56.20	37.42	-88.57	-77.028	-33.026	-0.882	0.61282	-0.24481	0.51550	-0.54648	28.5	13111	100
2025-3-27 17:35:27.639	WT901BLE68-01(48591DE3C19B)	0.015	-0.605	0.267	16.846	-2.441	29.846	-55.99	37.50	-88.44	-77.028	-33.026	-0.882	0.61282	-0.24481	0.51550	-0.54648	28.5	13111	100
2025-3-27 17:35:27.639	WT901BLE68-01(48591DE3C19B)	0.016	-0.605	0.267	16.846	-2.441	29.846	-55.78	37.57	-88.31	-77.028	-33.026	-0.882	0.61282	-0.24481	0.51550	-0.54648	28.5	13111	100
2025-3-27 17:35:27.639	WT901BLE68-01(48591DE3C19B)	0.016	-0.539	0.242	10.620	18.860	13.672	-55.84	37.62	-88.52	-77.028	-33.026	-0.882	0.61282	-0.24481	0.51550	-0.54648	28.5	13111	100
2025-3-27 17:35:27.639	WT901BLE68-01(48591DE3C19B)	-0.034	-0.539	0.242	10.620	18.860	13.672	-55.90	37.66	-88.72	-77.028	-33.026	-0.882	0.61282	-0.24481	0.51550	-0.54648	28.5	13111	100
2025-3-27 17:35:27.698	WT901BLE68-01(48591DE3C19B)	-0.034	-0.521	0.234	3.113	36.377	-5.127	-56.22	37.64	-89.24	-77.028	-33.026	-0.882	0.61282	-0.24481	0.51550	-0.54648	28.5	13111	100
2025-3-27 17:35:27.698	WT901BLE68-01(48591DE3C19B)	-0.116	-0.521	0.234	3.113	36.377	-5.127	-56.55	37.62	-89.76	-77.028	-33.026	-0.882	0.61282	-0.24481	0.51550	-0.54648	28.5	13111	100
2025-3-27 17:35:27.698	WT901BLE68-01(48591DE3C19B)	-0.116	-0.544	0.245	-5.310	45.654	-26.001	-57.09	37.48	-90.51	-77.028	-33.026	-0.882	0.61282	-0.24481	0.51550	-0.54648	28.5	13111	100
2025-3-27 17:35:27.698	WT901BLE68-01(48591DE3C19B)	-0.194	-0.544	0.245	-5.310	45.654	-26.001	-57.63	37.33	-91.26	-77.028	-33.026	-0.882	0.61282	-0.24481	0.51550	-0.54648	28.5	13111	100
2025-3-27 17:35:27.757	WT901BLE68-01(48591DE3C19B)	-0.194	-0.578	0.278	-9.399	48.218	-47.424	-58.30	37.02	-92.17	-77.028	-33.026	-0.882	0.61282	-0.24481	0.51550	-0.54648	28.5	13111	100
2025-3-27 17:35:27.757	WT901BLE68-01(48591DE3C19B)	-0.305	-0.578	0.278	-9.399	48.218	-47.424	-58.96	36.70	-93.07	-77.028	-33.026	-0.882	0.61282	-0.24481	0.51550	-0.54648	28.5	13111	100
2025-3-27 17:35:27.757	WT901BLE68-01(48591DE3C19B)	-0.417	-0.598	0.299	-11.963	41.504	-66.711	-59.66	36.18	-94.00	-77.028	-33.026	-0.882	0.61282	-0.24481	0.51550	-0.54648	28.5	13111	100
2025-3-27 17:35:27.757	WT901BLE68-01(48591DE3C19B)	-0.417	-0.627	0.308	-14.465	22.766	-83.069	-60.31	35.55	-94.87	-77.028	-33.026	-0.882	0.61282	-0.24481	0.51550	-0.54648	28.5	13111	100
2025-3-27 17:35:27.758	WT901BLE68-01(48591DE3C19B)	-0.459	-0.627	0.308	-14.465	22.766	-83.069	-60.93	34.82	-95.67	-77.028	-33.026	-0.882	0.61282	-0.24481	0.51550	-0.54648	28.5	13111	100
2025-3-27 17:35:27.758	WT901BLE68-01(48591DE3C19B)	-0.459	-0.640	0.309	-17.944	0.549	-96.191	-61.50	33.98	-96.37	-77.028	-33.026	-0.882	0.61282	-0.24481	0.51550	-0.54648	28.5	13111	100
2025-3-27 17:35:27.759	WT901BLE68-01(48591DE3C19B)	-0.430	-0.640	0.309	-17.944	0.549	-96.191	-62.01	33.04	-96.98	-77.028	-33.026	-0.882	0.61282	-0.24481	0.51550	-0.54648	28.5	13111	100
2025-3-27 17:35:27.759	WT901BLE68-01(48591DE3C19B)	-0.430	-0.643	0.319	-24.048	-12.512	-105.164	-62.51	32.04	-97.52	-77.028	-33.026	-0.882	0.61282	-0.24481	0.51550	-0.54648	28.5	13111	100
2025-3-27 17:35:27.818	WT901BLE68-01(48591DE3C19B)	-0.382	-0.643	0.319	-24.048	-12.512	-105.164	-63.00	30.98	-98.00	-77.028	-33.026	-0.882	0.61282	-0.24481	0.51550	-0.54648	28.5	13111	100
2025-3-27 17:35:27.818	WT901BLE68-01(48591DE3C19B)	-0.382	-0.654	0.322	-29.785	-12.390	-111.694	-63.50	29.90	-98.48	-77.028	-33.026	-0.882	0.61282	-0.24481	0.51550	-0.54648	28.5	13111	100
2025-3-27 17:35:27.818	WT901BLE68-01(48591DE3C19B)	-0.343	-0.654	0.322	-29.785	-12.390	-111.694	-64.02	28.81	-98.96	-77.028	-33.026	-0.882	0.61282	-0.24481	0.51550	-0.54648	28.5	13111	100
2025-3-27 17:35:27.818	WT901BLE68-01(48591DE3C19B)	-0.343	-0.644	0.313	-34.302	-5.432	-118.103	-64.57	27.70	-99.48	-77.028	-33.026	-0.882	0.61282	-0.24481	0.51550	-0.54648	28.5	13111	100
2025-3-27 17:35:27.850	WT901BLE68-01(48591DE3C19B)	-0.299	-0.644	0.313	-34.302	-5.432	-118.103	-65.15	26.58	-100.03	-77.028	-33.026	-0.882	0.62180	-0.18820	0.52597	-0.54883	28.5	13111	100
2025-3-27 17:35:27.850	WT901BLE68-01(48591DE3C19B)	-0.299	-0.654	0.298	-41.199	3.601	-122.192	-65.76	25.47	-100.61	-77.028	-33.026	-0.882	0.62180	-0.18820	0.52597	-0.54883	28.5	13111	100
2025-3-27 17:35:27.850	WT901BLE68-01(48591DE3C19B)	-0.340	-0.654	0.298	-41.199	3.601	-122.192	-66.41	24.36	-101.23	-77.028	-33.026	-0.882	0.62180	-0.18820	0.52597	-0.54883	28.5	13111	100
2025-3-27 17:35:27.850	WT901BLE68-01(48591DE3C19B)	-0.340	-0.724	0.294	-47.546	12.024	-123.230	-67.09	23.26	-101.87	-77.028	-33.026	-0.882	0.62180	-0.18820	0.52597	-0.54883	28.5	13111	100
2025-3-27 17:35:27.879	WT901BLE68-01(48591DE3C19B)	-0.430	-0.724	0.294	-47.546	12.024	-123.230	-67.79	22.17	-102.53	-77.028	-33.026	-0.882	0.62180	-0.18820	0.52597	-0.54883	28.5	13111	100
2025-3-27 17:35:27.879	WT901BLE68-01(48591DE3C19B)	-0.430	-0.829	0.314	-51.880	15.869	-124.878	-68.51	21.08	-103.19	-77.028	-33.026	-0.882	0.62180	-0.18820	0.52597	-0.54883	28.5	13111	100
2025-3-27 17:35:27.879	WT901BLE68-01(48591DE3C19B)	-0.560	-0.829	0.314	-51.880	15.869	-124.878	-69.23	19.99	-103.85	-77.028	-33.026	-0.882	0.62180	-0.18820	0.52597	-0.54883	28.5	13111	100
2025-3-27 17:35:27.879	WT901BLE68-01(48591DE3C19B)	-0.560	-0.952	0.356	-55.298	12.207	-125.916	-69.94	18.89	-104.47	-77.028	-33.026	-0.882	0.62180	-0.18820	0.52597	-0.54883	28.5	13111	100
2025-3-27 17:35:27.937	WT901BLE68-01(48591DE3C19B)	-0.667	-0.952	0.356	-55.298	12.207	-125.916	-70.65	17.79	-105.05	-77.028	-33.026	-0.882	0.62180	-0.18820	0.52597	-0.54883	28.5	13111	100
2025-3-27 17:35:27.937	WT901BLE68-01(48591DE3C19B)	-0.667	-1.075	0.396	-57.861	1.648	-124.695	-71.34	16.67	-105.56	-77.028	-33.026	-0.882	0.62180	-0.18820	0.52597	-0.54883	28.5	13111	100
2025-3-27 17:35:27.938	WT901BLE68-01(48591DE3C19B)	-0.735	-1.075	0.396	-57.861	1.648	-124.695	-72.01	15.55	-106.00	-77.028	-33.026	-0.882	0.62180	-0.18820	0.52597	-0.54883	28.5	13111	100
2025-3-27 17:35:27.938	WT901BLE68-01(48591DE3C19B)	-0.735	-1.159	0.432	-56.274	-21.118	-118.286	-72.63	14.44	-106.29	-77.028	-33.026	-0.882	0.62180	-0.18820	0.52597	-0.54883	28.5	13111	100
2025-3-27 17:35:27.967	WT901BLE68-01(48591DE3C19B)	-0.718	-1.159	0.432	-56.274	-21.118	-118.286	-73.20	13.33	-106.45	-77.028	-33.026	-0.882	0.62180	-0.18820	0.52597	-0.54883	28.5	13111	100
2025-3-27 17:35:27.967	WT901BLE68-01(48591DE3C19B)	-0.718	-1.159	0.417	-52.551	-43.457	-107.483	-73.71	12.24	-106.48	-77.028	-33.026	-0.882	0.62180	-0.18820	0.52597	-0.54883	28.5	13111	100
2025-3-27 17:35:27.968	WT901BLE68-01(48591DE3C19B)	-0.631	-1.159	0.417	-52.551	-43.457	-107.483	-74.18	11.18	-106.37	-77.028	-33.026	-0.882	0.62180	-0.18820	0.52597	-0.54883	28.5	13111	100
2025-3-27 17:35:27.968	WT901BLE68-01(48591DE3C19B)	-0.631	-1.090	0.380	-46.326	-57.190	-91.370	-74.60	10.20	-106.16	-77.028	-33.026	-0.882	0.62180	-0.18820	0.52597	-0.54883	28.5	13111	100
2025-3-27 17:35:28.0	WT901BLE68-01(48591DE3C19B)	-0.543	-1.090	0.380	-46.326	-57.190	-91.370	-74.97	9.28	-105.86	-77.028	-33.026	-0.882	0.62180	-0.18820	0.52597	-0.54883	28.5	13111	100
2025-3-27 17:35:28.0	WT901BLE68-01(48591DE3C19B)	-0.543	-1.020	0.345	-39.368	-60.608	-70.984	-75.31	8.46	-105.51	-77.028	-33.026	-0.882	0.62180	-0.18820	0.52597	-0.54883	28.5	13111	100
2025-3-27 17:35:28.0	WT901BLE68-01(48591DE3C19B)	-0.491	-1.020	0.345	-39.368	-60.608	-70.984	-75.60	7.74	-105.11	-77.028	-33.026	-0.882	0.62180	-0.18820	0.52597	-0.54883	28.5	13111	100
2025-3-27 17:35:28.0	WT901BLE68-01(48591DE3C19B)	-0.491	-0.992	0.332	-35.461	-55.786	-52.551	-75.89	7.12	-104.72	-77.028	-33.026	-0.882	0.62180	-0.18820	0.52597	-0.54883	28.5	13111	100
2025-3-27 17:35:28.57	WT901BLE68-01(48591DE3C19B)	-0.457	-0.992	0.332	-35.461	-55.786	-52.551	-76.15	6.60	-104.32	-77.028	-33.026	-0.882	0.62180	-0.18820	0.52597	-0.54883	28.5	13111	100
2025-3-27 17:35:28.57	WT901BLE68-01(48591DE3C19B)	-0.457	-1.040	0.338	-32.898	-43.884	-36.865	-76.42	6.17	-103.95	-72.912	-34.692	-2.548	0.62180	-0.18820	0.52597	-0.54883	28.5	13111	100
2025-3-27 17:35:28.57	WT901BLE68-01(48591DE3C19B)	-0.459	-1.040	0.338	-32.898	-43.884	-36.865	-76.67	5.83	-103.63	-72.912	-34.692	-2.548	0.62180	-0.18820	0.52597	-0.54883	28.5	13111	100
2025-3-27 17:35:28.57	WT901BLE68-01(48591DE3C19B)	-0.459	-1.102	0.355	-25.757	-28.625	-26.123	-76.89	5.57	-103.36	-72.912	-34.692	-2.548	0.62180	-0.18820	0.52597	-0.54883	28.5	13111	100
2025-3-27 17:35:28.87	WT901BLE68-01(48591DE3C19B)	-0.460	-1.102	0.355	-25.757	-28.625	-26.123	-77.09	5.37	-103.16	-72.912	-34.692	-2.548	0.62180	-0.18820	0.52597	-0.54883	28.5	13111	100
2025-3-27 17:35:28.87	WT901BLE68-01(48591DE3C19B)	-0.460	-1.095	0.357	-17.395	-14.038	-17.639	-77.25	5.23	-103.01	-72.912	-34.692	-2.548	0.62180	-0.18820	0.52597	-0.54883	28.5	13111	100
2025-3-27 17:35:28.87	WT901BLE68-01(48591DE3C19B)	-0.456	-1.095	0.357	-17.395	-14.038	-17.639	-77.38	5.15	-102.93	-72.912	-34.692	-2.548	0.62180	-0.18820	0.52597	-0.54883	28.5	13111	100
2025-3-27 17:35:28.87	WT901BLE68-01(48591DE3C19B)	-0.456	-1.034	0.333	-10.742	-0.488	-11.414	-77.48	5.11	-102.90	-72.912	-34.692	-2.548	0.62180	-0.18820	0.52597	-0.54883	28.5	13111	100
2025-3-27 17:35:28.147	WT901BLE68-01(48591DE3C19B)	-0.443	-1.034	0.333	-10.742	-0.488	-11.414	-77.55	5.11	-102.94	-72.912	-34.692	-2.548	0.62180	-0.18820	0.52597	-0.54883	28.5	13111	100
2025-3-27 17:35:28.147	WT901BLE68-01(48591DE3C19B)	-0.443	-0.965	0.296	-6.592	8.545	-7.690	-77.60	5.14	-103.00	-72.912	-34.692	-2.548	0.62180	-0.18820	0.52597	-0.54883	28.5	13111	100
2025-3-27 17:35:28.147	WT901BLE68-01(48591DE3C19B)	-0.435	-0.965	0.296	-6.592	8.545	-7.690	-77.63	5.20	-103.11	-72.912	-34.692	-2.548	0.62180	-0.18820	0.52597	-0.54883	28.5	13111	100
2025-3-27 17:35:28.147	WT901BLE68-01(48591DE3C19B)	-0.435	-0.887	0.273	-2.441	12.268	-4.272	-77.66	5.28	-103.24	-72.912	-34.692	-2.548	0.62180	-0.18820	0.52597	-0.54883	28.5	13111	100
2025-3-27 17:35:28.178	WT901BLE68-01(48591DE3C19B)	-0.422	-0.887	0.273	-2.441	12.268	-4.272	-77.66	5.38	-103.37	-72.912	-34.692	-2.548	0.62180	-0.18820	0.52597	-0.54883	28.5	13111	100
2025-3-27 17:35:28.178	WT901BLE68-01(48591DE3C19B)	-0.422	-0.801	0.259	0.122	10.315	-1.465	-77.65	5.49	-103.50	-72.912	-34.692	-2.548	0.62180	-0.18820	0.52597	-0.54883	28.5	13111	100
2025-3-27 17:35:28.178	WT901BLE68-01(48591DE3C19B)	-0.403	-0.801	0.259	0.122	10.315	-1.465	-77.62	5.61	-103.61	-72.912	-34.692	-2.548	0.62180	-0.18820	0.52597	-0.54883	28.5	13111	100
2025-3-27 17:35:28.178	WT901BLE68-01(48591DE3C19B)	-0.403	-0.721	0.241	0.854	4.761	1.465	-77.59	5.74	-103.68	-72.912	-34.692	-2.548	0.62180	-0.18820	0.52597	-0.54883	28.5	13111	100
2025-3-27 17:35:28.207	WT901BLE68-01(48591DE3C19B)	-0.391	-0.721	0.241	0.854	4.761	1.465	-77.55	5.88	-103.73	-72.912	-34.692	-2.548	0.62180	-0.18820	0.52597	-0.54883	28.5	13111	100
2025-3-27 17:35:28.207	WT901BLE68-01(48591DE3C19B)	-0.391	-0.669	0.222	0.732	-2.319	4.211	-77.51	6.03	-103.71	-72.912	-34.692	-2.548	0.62180	-0.18820	0.52597	-0.54883	28.5	13111	100
2025-3-27 17:35:28.207	WT901BLE68-01(48591DE3C19B)	-0.392	-0.669	0.222	0.732	-2.319	4.211	-77.46	6.19	-103.68	-72.912	-34.692	-2.548	0.62180	-0.18820	0.52597	-0.54883	28.5	13111	100
2025-3-27 17:35:28.207	WT901BLE68-01(48591DE3C19B)	-0.392	-0.660	0.205	-0.183	-12.085	6.042	-77.42	6.33	-103.56	-72.912	-34.692	-2.548	0.50919	-0.35242	0.51721	-0.59070	28.5	13111	100
2025-3-27 17:35:28.267	WT901BLE68-01(48591DE3C19B)	-0.408	-0.660	0.205	-0.183	-12.085	6.042	-77.37	6.49	-103.43	-72.912	-34.692	-2.548	0.50919	-0.35242	0.51721	-0.59070	28.5	13111	100
2025-3-27 17:35:28.267	WT901BLE68-01(48591DE3C19B)	-0.408	-0.700	0.204	-0.488	-26.245	5.493	-77.31	6.60	-103.17	-72.912	-34.692	-2.548	0.50919	-0.35242	0.51721	-0.59070	28.5	13111	100
2025-3-27 17:35:28.267	WT901BLE68-01(48591DE3C19B)	-0.411	-0.700	0.204	-0.488	-26.245	5.493	-77.26	6.72	-102.91	-72.912	-34.692	-2.548	0.50919	-0.35242	0.51721	-0.59070	28.5	13111	100
2025-3-27 17:35:28.267	WT901BLE68-01(48591DE3C19B)	-0.411	-0.800	0.212	-0.549	-43.335	2.930	-77.18	6.77	-102.49	-72.912	-34.692	-2.548	0.50919	-0.35242	0.51721	-0.59070	28.5	13111	100
2025-3-27 17:35:28.297	WT901BLE68-01(48591DE3C19B)	-0.396	-0.800	0.212	-0.549	-43.335	2.930	-77.11	6.82	-102.07	-72.912	-34.692	-2.548	0.50919	-0.35242	0.51721	-0.59070	28.5	13111	100
2025-3-27 17:35:28.297	WT901BLE68-01(48591DE3C19B)	-0.396	-0.937	0.239	1.953	-56.335	-3.479	-77.00	6.77	-101.54	-72.912	-34.692	-2.548	0.50919	-0.35242	0.51721	-0.59070	28.5	13111	100
2025-3-27 17:35:28.297	WT901BLE68-01(48591DE3C19B)	-0.369	-0.937	0.239	1.953	-56.335	-3.479	-76.89	6.73	-101.00	-72.912	-34.692	-2.548	0.50919	-0.35242	0.51721	-0.59070	28.5	13111	100
2025-3-27 17:35:28.298	WT901BLE68-01(48591DE3C19B)	-0.369	-1.127	0.261	7.263	-62.256	-11.780	-76.73	6.58	-100.43	-72.912	-34.692	-2.548	0.50919	-0.35242	0.51721	-0.59070	28.5	13111	100
2025-3-27 17:35:28.389	WT901BLE68-01(48591DE3C19B)	-0.352	-1.127	0.261	7.263	-62.256	-11.780	-76.58	6.43	-99.85	-72.912	-34.692	-2.548	0.50919	-0.35242	0.51721	-0.59070	28.5	13111	100
2025-3-27 17:35:28.390	WT901BLE68-01(48591DE3C19B)	-0.352	-1.305	0.274	17.639	-62.195	-18.188	-76.33	6.21	-99.30	-72.912	-34.692	-2.548	0.50919	-0.35242	0.51721	-0.59070	28.5	13111	100
2025-3-27 17:35:28.390	WT901BLE68-01(48591DE3C19B)	-0.269	-1.305	0.274	17.639	-62.195	-18.188	-76.09	5.98	-98.75	-72.912	-34.692	-2.548	0.50919	-0.35242	0.51721	-0.59070	28.5	13111	100
2025-3-27 17:35:28.390	WT901BLE68-01(48591DE3C19B)	-0.269	-1.439	0.260	30.212	-57.983	-21.729	-75.73	5.72	-98.24	-72.912	-34.692	-2.548	0.50919	-0.35242	0.51721	-0.59070	28.5	13111	100
2025-3-27 17:35:28.390	WT901BLE68-01(48591DE3C19B)	-0.145	-1.439	0.260	30.212	-57.983	-21.729	-75.38	5.45	-97.73	-72.912	-34.692	-2.548	0.50919	-0.35242	0.51721	-0.59070	28.5	13111	100
2025-3-27 17:35:28.390	WT901BLE68-01(48591DE3C19B)	-0.145	-1.504	0.234	41.992	-48.401	-20.081	-74.93	5.20	-97.32	-72.912	-34.692	-2.548	0.50919	-0.35242	0.51721	-0.59070	28.5	13111	100
2025-3-27 17:35:28.390	WT901BLE68-01(48591DE3C19B)	-0.086	-1.504	0.234	41.992	-48.401	-20.081	-74.49	4.95	-96.90	-72.912	-34.692	-2.548	0.50919	-0.35242	0.51721	-0.59070	28.5	13111	100
2025-3-27 17:35:28.390	WT901BLE68-01(48591DE3C19B)	-0.086	-1.512	0.181	34.912	-24.231	-15.869	-74.15	4.80	-96.71	-72.912	-34.692	-2.548	0.50919	-0.35242	0.51721	-0.59070	28.5	13111	100
2025-3-27 17:35:28.448	WT901BLE68-01(48591DE3C19B)	-0.076	-1.512	0.181	34.912	-24.231	-15.869	-73.81	4.63	-96.51	-72.912	-34.692	-2.548	0.50919	-0.35242	0.51721	-0.59070	28.5	13111	100
2025-3-27 17:35:28.448	WT901BLE68-01(48591DE3C19B)	-0.076	-1.891	0.080	-6.409	27.954	-23.926	-73.94	4.52	-96.84	-72.912	-34.692	-2.548	0.50919	-0.35242	0.51721	-0.59070	28.5	13111	100
2025-3-27 17:35:28.448	WT901BLE68-01(48591DE3C19B)	-0.290	-1.891	0.080	-6.409	27.954	-23.926	-74.07	4.40	-97.16	-72.912	-34.692	-2.548	0.50919	-0.35242	0.51721	-0.59070	28.5	13111	100
2025-3-27 17:35:28.448	WT901BLE68-01(48591DE3C19B)	-0.290	-2.260	0.201	6.653	96.008	-13.000	-74.12	4.57	-98.10	-76.930	-35.672	-0.686	0.50919	-0.35242	0.51721	-0.59070	28.5	13111	100
2025-3-27 17:35:28.449	WT901BLE68-01(48591DE3C19B)	-0.599	-2.260	0.201	6.653	96.008	-13.000	-74.19	4.74	-99.04	-76.930	-35.672	-0.686	0.50919	-0.35242	0.51721	-0.59070	28.5	13111	100
2025-3-27 17:35:28.449	WT901BLE68-01(48591DE3C19B)	-0.599	-1.325	0.606	55.725	100.647	6.042	-73.75	5.10	-99.96	-76.930	-35.672	-0.686	0.50919	-0.35242	0.51721	-0.59070	28.5	13111	100
2025-3-27 17:35:28.449	WT901BLE68-01(48591DE3C19B)	-0.518	-1.325	0.606	55.725	100.647	6.042	-73.32	5.49	-100.89	-76.930	-35.672	-0.686	0.50919	-0.35242	0.51721	-0.59070	28.5	13111	100
2025-3-27 17:35:28.450	WT901BLE68-01(48591DE3C19B)	-0.518	-0.351	0.802	34.180	49.194	47.791	-73.04	6.13	-101.21	-76.930	-35.672	-0.686	0.50919	-0.35242	0.51721	-0.59070	28.5	13111	100
2025-3-27 17:35:28.508	WT901BLE68-01(48591DE3C19B)	-0.351	-0.351	0.802	34.180	49.194	47.791	-72.74	6.78	-101.52	-76.930	-35.672	-0.686	0.50919	-0.35242	0.51721	-0.59070	28.5	13111	100
2025-3-27 17:35:28.508	WT901BLE68-01(48591DE3C19B)	-0.351	-0.181	0.601	-18.677	2.991	101.868	-72.88	7.81	-101.26	-76.930	-35.672	-0.686	0.50919	-0.35242	0.51721	-0.59070	28.5	13111	100
2025-3-27 17:35:28.508	WT901BLE68-01(48591DE3C19B)	-0.266	-0.181	0.601	-18.677	2.991	101.868	-73.01	8.84	-100.99	-76.930	-35.672	-0.686	0.50919	-0.35242	0.51721	-0.59070	28.5	13111	100
2025-3-27 17:35:28.508	WT901BLE68-01(48591DE3C19B)	-0.266	-0.656	0.298	-50.598	-37.537	119.019	-73.37	9.92	-100.30	-76.930	-35.672	-0.686	0.50919	-0.35242	0.51721	-0.59070	28.5	13111	100
2025-3-27 17:35:28.536	WT901BLE68-01(48591DE3C19B)	-0.074	-0.656	0.298	-50.598	-37.537	119.019	-73.71	11.00	-99.61	-76.930	-35.672	-0.686	0.50919	-0.35242	0.51721	-0.59070	28.5	13111	100
2025-3-27 17:35:28.537	WT901BLE68-01(48591DE3C19B)	-0.074	-1.052	0.085	-57.312	-85.571	138.855	-74.01	12.12	-98.40	-76.930	-35.672	-0.686	0.50919	-0.35242	0.51721	-0.59070	28.5	13111	100
2025-3-27 17:35:28.537	WT901BLE68-01(48591DE3C19B)	0.211	-1.052	0.085	-57.312	-85.571	138.855	-74.29	13.24	-97.19	-76.930	-35.672	-0.686	0.50919	-0.35242	0.51721	-0.59070	28.5	13111	100
2025-3-27 17:35:28.537	WT901BLE68-01(48591DE3C19B)	0.211	-1.328	-0.051	-36.255	-88.257	133.301	-74.35	14.28	-95.97	-76.930	-35.672	-0.686	0.50919	-0.35242	0.51721	-0.59070	28.5	13111	100
2025-3-27 17:35:28.568	WT901BLE68-01(48591DE3C19B)	0.348	-1.328	-0.051	-36.255	-88.257	133.301	-74.40	15.30	-94.73	-76.930	-35.672	-0.686	0.50919	-0.35242	0.51721	-0.59070	28.5	13111	100
2025-3-27 17:35:28.568	WT901BLE68-01(48591DE3C19B)	0.348	-1.357	-0.041	16.968	-32.959	125.122	-74.06	16.36	-94.06	-76.930	-35.672	-0.686	0.50919	-0.35242	0.51721	-0.59070	28.5	13111	100
2025-3-27 17:35:28.568	WT901BLE68-01(48591DE3C19B)	0.187	-1.357	-0.041	16.968	-32.959	125.122	-73.72	17.41	-93.38	-76.930	-35.672	-0.686	0.50919	-0.35242	0.51721	-0.59070	28.5	13111	100
2025-3-27 17:35:28.568	WT901BLE68-01(48591DE3C19B)	0.187	-1.104	0.066	52.063	15.076	113.953	-73.19	18.46	-93.21	-76.930	-35.672	-0.686	0.50919	-0.35242	0.51721	-0.59070	28.5	13111	100
2025-3-27 17:35:28.628	WT901BLE68-01(48591DE3C19B)	0.054	-1.104	0.066	52.063	15.076	113.953	-72.65	19.49	-93.03	-76.930	-35.672	-0.686	0.50919	-0.35242	0.51721	-0.59070	28.5	13111	100
2025-3-27 17:35:28.628	WT901BLE68-01(48591DE3C19B)	0.054	-0.976	0.164	52.979	32.227	97.839	-72.18	20.41	-93.05	-76.930	-35.672	-0.686	0.50919	-0.35242	0.51721	-0.59070	28.5	13111	100
2025-3-27 17:35:28.628	WT901BLE68-01(48591DE3C19B)	0.127	-0.976	0.164	52.979	32.227	97.839	-71.71	21.32	-93.08	-76.930	-35.672	-0.686	0.50919	-0.35242	0.51721	-0.59070	28.5	13111	100
2025-3-27 17:35:28.628	WT901BLE68-01(48591DE3C19B)	0.127	-0.955	0.280	57.129	54.688	90.210	-71.28	22.23	-93.34	-76.930	-35.672	-0.686	0.50919	-0.35242	0.51721	-0.59070	28.5	13111	100
2025-3-27 17:35:28.656	WT901BLE68-01(48591DE3C19B)	0.084	-0.955	0.280	57.129	54.688	90.210	-70.87	23.12	-93.60	-76.930	-35.672	-0.686	0.63156	-0.26483	0.52768	-0.50241	28.5	13111	100
2025-3-27 17:35:28.657	WT901BLE68-01(48591DE3C19B)	-0.081	-0.874	0.355	57.922	80.200	89.050	-70.54	24.08	-94.13	-76.930	-35.672	-0.686	0.63156	-0.26483	0.52768	-0.50241	28.5	13111	100
2025-3-27 17:35:28.657	WT901BLE68-01(48591DE3C19B)	-0.081	-0.864	0.348	45.776	82.031	87.280	-70.29	25.03	-94.66	-76.930	-35.672	-0.686	0.63156	-0.26483	0.52768	-0.50241	28.5	13111	100
2025-3-27 17:35:28.657	WT901BLE68-01(48591DE3C19B)	-0.163	-0.864	0.348	45.776	82.031	87.280	-70.10	25.98	-95.21	-76.930	-35.672	-0.686	0.63156	-0.26483	0.52768	-0.50241	28.5	13111	100
2025-3-27 17:35:28.688	WT901BLE68-01(48591DE3C19B)	-0.163	-0.942	0.291	31.311	62.073	83.801	-69.95	26.87	-95.66	-76.930	-35.672	-0.686	0.63156	-0.26483	0.52768	-0.50241	28.5	13111	100
2025-3-27 17:35:28.688	WT901BLE68-01(48591DE3C19B)	-0.151	-0.942	0.291	31.311	62.073	83.801	-69.83	27.72	-96.00	-76.930	-35.672	-0.686	0.63156	-0.26483	0.52768	-0.50241	28.5	13111	100
2025-3-27 17:35:28.688	WT901BLE68-01(48591DE3C19B)	-0.151	-1.015	0.214	22.949	35.706	77.698	-69.70	28.49	-96.22	-76.930	-35.672	-0.686	0.63156	-0.26483	0.52768	-0.50241	28.5	13111	100
2025-3-27 17:35:28.688	WT901BLE68-01(48591DE3C19B)	-0.180	-1.015	0.214	22.949	35.706	77.698	-69.55	29.19	-96.31	-76.930	-35.672	-0.686	0.63156	-0.26483	0.52768	-0.50241	28.5	13111	100
2025-3-27 17:35:28.867	WT901BLE68-01(48591DE3C19B)	-0.180	-1.030	0.187	20.691	11.108	71.594	-69.35	29.81	-96.28	-76.930	-35.672	-0.686	0.63156	-0.26483	0.52768	-0.50241	28.5	13111	100
2025-3-27 17:35:28.868	WT901BLE68-01(48591DE3C19B)	-0.193	-1.030	0.187	20.691	11.108	71.594	-69.11	30.36	-96.12	-76.930	-35.672	-0.686	0.63156	-0.26483	0.52768	-0.50241	28.5	13111	100
2025-3-27 17:35:28.868	WT901BLE68-01(48591DE3C19B)	-0.193	-0.995	0.202	16.968	-14.160	61.768	-68.82	30.82	-95.86	-76.930	-35.672	-0.686	0.63156	-0.26483	0.52768	-0.50241	28.5	13111	100
2025-3-27 17:35:28.868	WT901BLE68-01(48591DE3C19B)	-0.124	-0.995	0.202	16.968	-14.160	61.768	-68.50	31.19	-95.46	-76.930	-35.672	-0.686	0.63156	-0.26483	0.52768	-0.50241	28.5	13111	100
2025-3-27 17:35:28.869	WT901BLE68-01(48591DE3C19B)	-0.124	-0.941	0.254	14.282	-33.813	50.354	-68.14	31.47	-94.98	-76.930	-35.672	-0.686	0.63156	-0.26483	0.52768	-0.50241	28.5	13111	100
2025-3-27 17:35:28.869	WT901BLE68-01(48591DE3C19B)	-0.079	-0.941	0.254	14.282	-33.813	50.354	-67.76	31.66	-94.43	-76.930	-35.672	-0.686	0.63156	-0.26483	0.52768	-0.50241	28.5	13111	100
2025-3-27 17:35:28.869	WT901BLE68-01(48591DE3C19B)	-0.079	-0.863	0.303	12.573	-39.673	35.889	-67.37	31.76	-93.87	-76.930	-35.672	-0.686	0.63156	-0.26483	0.52768	-0.50241	28.5	13111	100
2025-3-27 17:35:28.869	WT901BLE68-01(48591DE3C19B)	-0.056	-0.863	0.303	12.573	-39.673	35.889	-67.01	31.79	-93.32	-76.930	-35.672	-0.686	0.63156	-0.26483	0.52768	-0.50241	28.5	13111	100
2025-3-27 17:35:28.869	WT901BLE68-01(48591DE3C19B)	-0.056	-0.785	0.311	9.888	-29.602	18.372	-66.69	31.74	-92.86	-76.930	-35.672	-0.686	0.63156	-0.26483	0.52768	-0.50241	28.5	13111	100
2025-3-27 17:35:28.869	WT901BLE68-01(48591DE3C19B)	-0.065	-0.785	0.311	9.888	-29.602	18.372	-66.45	31.65	-92.50	-76.930	-35.672	-0.686	0.63156	-0.26483	0.52768	-0.50241	28.5	13111	100
2025-3-27 17:35:28.869	WT901BLE68-01(48591DE3C19B)	-0.065	-0.713	0.291	6.042	-10.132	0.488	-66.29	31.50	-92.30	-76.930	-35.672	-0.686	0.63156	-0.26483	0.52768	-0.50241	28.5	13111	100
2025-3-27 17:35:28.870	WT901BLE68-01(48591DE3C19B)	-0.113	-0.713	0.291	6.042	-10.132	0.488	-66.24	31.31	-92.24	-76.930	-35.672	-0.686	0.63156	-0.26483	0.52768	-0.50241	28.5	13111	100
2025-3-27 17:35:28.870	WT901BLE68-01(48591DE3C19B)	-0.113	-0.657	0.268	3.906	5.066	-15.015	-66.25	31.08	-92.29	-76.930	-35.672	-0.686	0.63156	-0.26483	0.52768	-0.50241	28.5	13111	100
2025-3-27 17:35:28.870	WT901BLE68-01(48591DE3C19B)	-0.186	-0.657	0.268	3.906	5.066	-15.015	-66.32	30.82	-92.47	-76.930	-35.672	-0.686	0.63156	-0.26483	0.52768	-0.50241	28.5	13111	100
2025-3-27 17:35:28.870	WT901BLE68-01(48591DE3C19B)	-0.186	-0.615	0.270	3.662	7.996	-29.419	-66.42	30.49	-92.69	-76.930	-35.672	-0.686	0.63156	-0.26483	0.52768	-0.50241	28.5	13111	100
2025-3-27 17:35:28.870	WT901BLE68-01(48591DE3C19B)	-0.268	-0.615	0.270	3.662	7.996	-29.419	-66.54	30.12	-92.96	-76.930	-35.672	-0.686	0.63156	-0.26483	0.52768	-0.50241	28.5	13111	100
2025-3-27 17:35:28.899	WT901BLE68-01(48591DE3C19B)	-0.268	-0.589	0.284	3.967	-5.493	-41.321	-66.63	29.67	-93.18	-76.930	-35.672	-0.686	0.63156	-0.26483	0.52768	-0.50241	28.5	13111	100
2025-3-27 17:35:28.900	WT901BLE68-01(48591DE3C19B)	-0.331	-0.589	0.284	3.967	-5.493	-41.321	-66.69	29.15	-93.35	-76.930	-35.672	-0.686	0.63156	-0.26483	0.52768	-0.50241	28.5	13111	100
2025-3-27 17:35:28.900	WT901BLE68-01(48591DE3C19B)	-0.331	-0.607	0.296	1.465	-25.208	-51.270	-66.72	28.55	-93.44	-76.930	-35.672	-0.686	0.63156	-0.26483	0.52768	-0.50241	28.5	13111	100
2025-3-27 17:35:28.900	WT901BLE68-01(48591DE3C19B)	-0.403	-0.607	0.296	1.465	-25.208	-51.270	-66.72	27.88	-93.46	-76.636	-31.164	-1.666	0.63156	-0.26483	0.52768	-0.50241	28.5	13111	100
2025-3-27 17:35:28.929	WT901BLE68-01(48591DE3C19B)	-0.403	-0.662	0.323	1.526	-41.016	-59.326	-66.68	27.15	-93.41	-76.636	-31.164	-1.666	0.63156	-0.26483	0.52768	-0.50241	28.5	13111	100
2025-3-27 17:35:28.929	WT901BLE68-01(48591DE3C19B)	-0.450	-0.662	0.323	1.526	-41.016	-59.326	-66.62	26.38	-93.30	-76.636	-31.164	-1.666	0.63156	-0.26483	0.52768	-0.50241	28.5	13111	100
2025-3-27 17:35:28.930	WT901BLE68-01(48591DE3C19B)	-0.450	-0.713	0.336	2.686	-52.856	-67.932	-66.52	25.55	-93.15	-76.636	-31.164	-1.666	0.63156	-0.26483	0.52768	-0.50241	28.5	13111	100
2025-3-27 17:35:28.930	WT901BLE68-01(48591DE3C19B)	-0.447	-0.713	0.336	2.686	-52.856	-67.932	-66.41	24.67	-92.97	-76.636	-31.164	-1.666	0.63156	-0.26483	0.52768	-0.50241	28.5	13111	100
2025-3-27 17:35:28.989	WT901BLE68-01(48591DE3C19B)	-0.447	-0.707	0.340	3.662	-55.725	-74.646	-66.30	23.77	-92.79	-76.636	-31.164	-1.666	0.63156	-0.26483	0.52768	-0.50241	28.5	13111	100
2025-3-27 17:35:28.989	WT901BLE68-01(48591DE3C19B)	-0.413	-0.707	0.340	3.662	-55.725	-74.646	-66.18	22.84	-92.61	-76.636	-31.164	-1.666	0.63156	-0.26483	0.52768	-0.50241	28.5	13111	100
2025-3-27 17:35:28.989	WT901BLE68-01(48591DE3C19B)	-0.413	-0.685	0.335	1.709	-49.255	-78.491	-66.09	21.92	-92.49	-76.636	-31.164	-1.666	0.63156	-0.26483	0.52768	-0.50241	28.5	13111	100
2025-3-27 17:35:28.990	WT901BLE68-01(48591DE3C19B)	-0.375	-0.685	0.335	1.709	-49.255	-78.491	-66.02	21.01	-92.41	-76.636	-31.164	-1.666	0.63156	-0.26483	0.52768	-0.50241	28.5	13111	100
2025-3-27 17:35:29.49	WT901BLE68-01(48591DE3C19B)	-0.375	-0.675	0.340	-0.061	-40.710	-80.200	-65.98	20.12	-92.37	-76.636	-31.164	-1.666	0.63156	-0.26483	0.52768	-0.50241	28.5	13111	100
2025-3-27 17:35:29.50	WT901BLE68-01(48591DE3C19B)	-0.325	-0.675	0.340	-0.061	-40.710	-80.200	-65.97	19.24	-92.39	-76.636	-31.164	-1.666	0.63156	-0.26483	0.52768	-0.50241	28.5	13111	100
2025-3-27 17:35:29.50	WT901BLE68-01(48591DE3C19B)	-0.325	-0.639	0.368	-3.662	-26.428	-78.125	-65.99	18.40	-92.47	-76.636	-31.164	-1.666	0.63156	-0.26483	0.52768	-0.50241	28.5	13111	100
