time	DeviceName	AccX(g)	AccY(g)	AccZ(g)	AsX(°/s)	AsY(°/s)	AsZ(°/s)	AngleX(°)	AngleY(°)	AngleZ(°)	HX(uT)	HY(uT)	HZ(uT)	Q0()	Q1()	Q2()	Q3()	Temperature(°C)	Version()	Battery level(%)
2025-3-27 17:48:25.642	WT901BLE68-01(48591DE3C19B)	-0.297	-0.926	0.231	-0.977	-0.244	-5.005	-76.49	16.81	14.95	-2.156	-36.260	59.192	-0.75851	0.62210	-0.03412	-0.19083	30.4	13111	100
2025-3-27 17:48:25.642	WT901BLE68-01(48591DE3C19B)	-0.299	-0.926	0.231	-0.977	-0.244	-5.005	-76.50	16.77	14.94	-2.156	-36.260	59.192	-0.75851	0.62210	-0.03412	-0.19083	30.4	13111	100
2025-3-27 17:48:25.642	WT901BLE68-01(48591DE3C19B)	-0.299	-0.927	0.230	-0.366	0.244	-4.883	-76.50	16.72	14.92	-2.156	-36.260	59.192	-0.75851	0.62210	-0.03412	-0.19083	30.4	13111	100
2025-3-27 17:48:25.642	WT901BLE68-01(48591DE3C19B)	-0.299	-0.927	0.230	-0.366	0.244	-4.883	-76.51	16.68	14.90	-2.156	-36.260	59.192	-0.75851	0.62210	-0.03412	-0.19083	30.4	13111	100
2025-3-27 17:48:25.643	WT901BLE68-01(48591DE3C19B)	-0.299	-0.929	0.227	0.122	0.549	-4.761	-76.51	16.63	14.88	-2.156	-36.260	59.192	-0.75851	0.62210	-0.03412	-0.19083	30.4	13111	100
2025-3-27 17:48:25.643	WT901BLE68-01(48591DE3C19B)	-0.297	-0.929	0.227	0.122	0.549	-4.761	-76.51	16.59	14.86	-2.156	-36.260	59.192	-0.75851	0.62210	-0.03412	-0.19083	30.4	13111	100
2025-3-27 17:48:25.643	WT901BLE68-01(48591DE3C19B)	-0.297	-0.932	0.225	0.427	1.099	-4.517	-76.51	16.56	14.84	-2.156	-36.260	59.192	-0.75851	0.62210	-0.03412	-0.19083	30.4	13111	100
2025-3-27 17:48:25.643	WT901BLE68-01(48591DE3C19B)	-0.298	-0.932	0.225	0.427	1.099	-4.517	-76.51	16.52	14.81	-2.156	-36.260	59.192	-0.75851	0.62210	-0.03412	-0.19083	30.4	13111	100
2025-3-27 17:48:25.703	WT901BLE68-01(48591DE3C19B)	-0.298	-0.940	0.224	0.671	1.953	-4.150	-76.51	16.49	14.78	-2.156	-36.260	59.192	-0.75851	0.62210	-0.03412	-0.19083	30.4	13111	100
2025-3-27 17:48:25.703	WT901BLE68-01(48591DE3C19B)	-0.296	-0.940	0.224	0.671	1.953	-4.150	-76.51	16.46	14.74	-2.156	-36.260	59.192	-0.75851	0.62210	-0.03412	-0.19083	30.4	13111	100
2025-3-27 17:48:25.704	WT901BLE68-01(48591DE3C19B)	-0.296	-0.940	0.223	0.916	2.808	-3.784	-76.51	16.44	14.71	-2.156	-36.260	59.192	-0.75851	0.62210	-0.03412	-0.19083	30.4	13111	100
2025-3-27 17:48:25.704	WT901BLE68-01(48591DE3C19B)	-0.292	-0.940	0.223	0.916	2.808	-3.784	-76.51	16.41	14.66	-2.156	-36.260	59.192	-0.75851	0.62210	-0.03412	-0.19083	30.4	13111	100
2025-3-27 17:48:25.733	WT901BLE68-01(48591DE3C19B)	-0.292	-0.933	0.219	0.977	3.784	-3.296	-76.51	16.39	14.61	-2.156	-36.260	59.192	-0.75851	0.62210	-0.03412	-0.19083	30.4	13111	100
2025-3-27 17:48:25.733	WT901BLE68-01(48591DE3C19B)	-0.291	-0.933	0.219	0.977	3.784	-3.296	-76.52	16.37	14.56	-2.156	-36.260	59.192	-0.75851	0.62210	-0.03412	-0.19083	30.4	13111	100
2025-3-27 17:48:25.733	WT901BLE68-01(48591DE3C19B)	-0.288	-0.932	0.216	0.916	4.700	-2.930	-76.53	16.36	14.50	-2.156	-36.260	59.192	-0.75851	0.62210	-0.03412	-0.19083	30.4	13111	100
2025-3-27 17:48:25.733	WT901BLE68-01(48591DE3C19B)	-0.288	-0.934	0.214	1.404	5.371	-2.686	-76.53	16.35	14.44	-2.156	-36.260	59.192	-0.75851	0.62210	-0.03412	-0.19083	30.4	13111	100
2025-3-27 17:48:25.793	WT901BLE68-01(48591DE3C19B)	-0.285	-0.934	0.214	1.404	5.371	-2.686	-76.53	16.34	14.38	-2.156	-36.260	59.192	-0.75851	0.62210	-0.03412	-0.19083	30.4	13111	100
2025-3-27 17:48:25.793	WT901BLE68-01(48591DE3C19B)	-0.285	-0.924	0.212	1.953	6.104	-2.625	-76.54	16.33	14.30	-2.156	-36.260	59.192	-0.75851	0.62210	-0.03412	-0.19083	30.4	13111	100
2025-3-27 17:48:25.793	WT901BLE68-01(48591DE3C19B)	-0.280	-0.924	0.212	1.953	6.104	-2.625	-76.54	16.33	14.23	-2.156	-36.260	59.192	-0.75851	0.62210	-0.03412	-0.19083	30.4	13111	100
2025-3-27 17:48:25.793	WT901BLE68-01(48591DE3C19B)	-0.280	-0.924	0.209	2.014	7.080	-2.808	-76.54	16.31	14.16	-2.156	-36.260	59.192	-0.75851	0.62210	-0.03412	-0.19083	30.4	13111	100
2025-3-27 17:48:25.828	WT901BLE68-01(48591DE3C19B)	-0.279	-0.924	0.209	2.014	7.080	-2.808	-76.54	16.31	14.07	-2.156	-36.260	59.192	-0.75851	0.62210	-0.03412	-0.19083	30.4	13111	100
2025-3-27 17:48:25.828	WT901BLE68-01(48591DE3C19B)	-0.279	-0.924	0.208	2.441	8.179	-3.052	-76.54	16.30	13.98	-2.156	-36.260	59.192	-0.75851	0.62210	-0.03412	-0.19083	30.4	13111	100
2025-3-27 17:48:25.828	WT901BLE68-01(48591DE3C19B)	-0.281	-0.924	0.208	2.441	8.179	-3.052	-76.55	16.29	13.89	-2.156	-36.260	59.192	-0.75851	0.62210	-0.03412	-0.19083	30.4	13111	100
2025-3-27 17:48:25.828	WT901BLE68-01(48591DE3C19B)	-0.281	-0.926	0.208	2.625	9.094	-3.662	-76.55	16.29	13.78	-2.352	-34.790	59.878	-0.75851	0.62210	-0.03412	-0.19083	30.4	13111	100
2025-3-27 17:48:25.854	WT901BLE68-01(48591DE3C19B)	-0.282	-0.926	0.208	2.625	9.094	-3.662	-76.55	16.28	13.68	-2.352	-34.790	59.878	-0.75851	0.62210	-0.03412	-0.19083	30.4	13111	100
2025-3-27 17:48:25.854	WT901BLE68-01(48591DE3C19B)	-0.282	-0.936	0.207	2.747	9.399	-4.456	-76.56	16.26	13.57	-2.352	-34.790	59.878	-0.75851	0.62210	-0.03412	-0.19083	30.4	13111	100
2025-3-27 17:48:25.854	WT901BLE68-01(48591DE3C19B)	-0.285	-0.936	0.207	2.747	9.399	-4.456	-76.56	16.24	13.46	-2.352	-34.790	59.878	-0.75851	0.62210	-0.03412	-0.19083	30.4	13111	100
2025-3-27 17:48:25.854	WT901BLE68-01(48591DE3C19B)	-0.285	-0.943	0.208	3.052	9.521	-5.310	-76.57	16.22	13.34	-2.352	-34.790	59.878	-0.75851	0.62210	-0.03412	-0.19083	30.4	13111	100
2025-3-27 17:48:25.974	WT901BLE68-01(48591DE3C19B)	-0.287	-0.943	0.208	3.052	9.521	-5.310	-76.57	16.19	13.23	-2.352	-34.790	59.878	-0.75851	0.62210	-0.03412	-0.19083	30.4	13111	100
2025-3-27 17:48:25.974	WT901BLE68-01(48591DE3C19B)	-0.287	-0.945	0.207	3.296	9.277	-6.042	-76.57	16.16	13.11	-2.352	-34.790	59.878	-0.75851	0.62210	-0.03412	-0.19083	30.4	13111	100
2025-3-27 17:48:25.974	WT901BLE68-01(48591DE3C19B)	-0.288	-0.945	0.207	3.296	9.277	-6.042	-76.57	16.13	13.00	-2.352	-34.790	59.878	-0.75851	0.62210	-0.03412	-0.19083	30.4	13111	100
2025-3-27 17:48:25.975	WT901BLE68-01(48591DE3C19B)	-0.288	-0.935	0.206	3.296	8.972	-6.653	-76.57	16.09	12.89	-2.352	-34.790	59.878	-0.75851	0.62210	-0.03412	-0.19083	30.4	13111	100
2025-3-27 17:48:25.975	WT901BLE68-01(48591DE3C19B)	-0.291	-0.935	0.206	3.296	8.972	-6.653	-76.57	16.05	12.78	-2.352	-34.790	59.878	-0.75851	0.62210	-0.03412	-0.19083	30.4	13111	100
2025-3-27 17:48:25.975	WT901BLE68-01(48591DE3C19B)	-0.291	-0.932	0.208	2.625	8.240	-7.019	-76.58	16.01	12.67	-2.352	-34.790	59.878	-0.75851	0.62210	-0.03412	-0.19083	30.4	13111	100
2025-3-27 17:48:25.975	WT901BLE68-01(48591DE3C19B)	-0.293	-0.932	0.208	2.625	8.240	-7.019	-76.59	15.96	12.56	-2.352	-34.790	59.878	-0.75851	0.62210	-0.03412	-0.19083	30.4	13111	100
2025-3-27 17:48:25.975	WT901BLE68-01(48591DE3C19B)	-0.293	-0.930	0.208	2.075	7.263	-7.202	-76.59	15.91	12.46	-2.352	-34.790	59.878	-0.75851	0.62210	-0.03412	-0.19083	30.4	13111	100
2025-3-27 17:48:26.33	WT901BLE68-01(48591DE3C19B)	-0.295	-0.930	0.208	2.075	7.263	-7.202	-76.60	15.86	12.37	-2.352	-34.790	59.878	-0.75851	0.62210	-0.03412	-0.19083	30.4	13111	100
2025-3-27 17:48:26.33	WT901BLE68-01(48591DE3C19B)	-0.295	-0.933	0.207	1.709	6.287	-7.629	-76.61	15.81	12.28	-2.352	-34.790	59.878	-0.75851	0.62210	-0.03412	-0.19083	30.4	13111	100
2025-3-27 17:48:26.34	WT901BLE68-01(48591DE3C19B)	-0.297	-0.933	0.207	1.709	6.287	-7.629	-76.62	15.76	12.19	-2.352	-34.790	59.878	-0.75851	0.62210	-0.03412	-0.19083	30.4	13111	100
2025-3-27 17:48:26.34	WT901BLE68-01(48591DE3C19B)	-0.297	-0.930	0.208	1.160	4.883	-8.301	-76.63	15.70	12.11	-2.352	-34.790	59.878	-0.75851	0.62210	-0.03412	-0.19083	30.4	13111	100
2025-3-27 17:48:26.34	WT901BLE68-01(48591DE3C19B)	-0.300	-0.930	0.208	1.160	4.883	-8.301	-76.64	15.64	12.04	-2.352	-34.790	59.878	-0.75851	0.62210	-0.03412	-0.19083	30.4	13111	100
2025-3-27 17:48:26.35	WT901BLE68-01(48591DE3C19B)	-0.300	-0.930	0.208	0.610	3.235	-8.850	-76.65	15.58	11.98	-2.352	-34.790	59.878	-0.76425	0.62216	-0.04153	-0.16431	30.4	13111	100
2025-3-27 17:48:26.35	WT901BLE68-01(48591DE3C19B)	-0.307	-0.930	0.208	0.610	3.235	-8.850	-76.66	15.51	11.92	-2.352	-34.790	59.878	-0.76425	0.62216	-0.04153	-0.16431	30.4	13111	100
2025-3-27 17:48:26.35	WT901BLE68-01(48591DE3C19B)	-0.307	-0.922	0.205	0.000	0.793	-9.521	-76.68	15.43	11.88	-2.352	-34.790	59.878	-0.76425	0.62216	-0.04153	-0.16431	30.4	13111	100
2025-3-27 17:48:26.65	WT901BLE68-01(48591DE3C19B)	-0.312	-0.922	0.205	0.000	0.793	-9.521	-76.69	15.35	11.84	-2.352	-34.790	59.878	-0.76425	0.62216	-0.04153	-0.16431	30.4	13111	100
2025-3-27 17:48:26.65	WT901BLE68-01(48591DE3C19B)	-0.312	-0.917	0.197	-1.526	-3.052	-10.376	-76.71	15.27	11.83	-2.352	-34.790	59.878	-0.76425	0.62216	-0.04153	-0.16431	30.4	13111	100
2025-3-27 17:48:26.66	WT901BLE68-01(48591DE3C19B)	-0.321	-0.917	0.197	-1.526	-3.052	-10.376	-76.72	15.17	11.83	-2.352	-34.790	59.878	-0.76425	0.62216	-0.04153	-0.16431	30.4	13111	100
2025-3-27 17:48:26.66	WT901BLE68-01(48591DE3C19B)	-0.321	-0.920	0.189	-4.028	-8.240	-11.841	-76.74	15.06	11.86	-2.352	-34.790	59.878	-0.76425	0.62216	-0.04153	-0.16431	30.4	13111	100
2025-3-27 17:48:26.130	WT901BLE68-01(48591DE3C19B)	-0.335	-0.920	0.189	-4.028	-8.240	-11.841	-76.78	14.94	11.91	-2.352	-34.790	59.878	-0.76425	0.62216	-0.04153	-0.16431	30.4	13111	100
2025-3-27 17:48:26.130	WT901BLE68-01(48591DE3C19B)	-0.335	-0.916	0.188	-7.507	-15.503	-14.160	-76.82	14.81	12.00	-2.352	-34.790	59.878	-0.76425	0.62216	-0.04153	-0.16431	30.4	13111	100
2025-3-27 17:48:26.130	WT901BLE68-01(48591DE3C19B)	-0.343	-0.916	0.188	-7.507	-15.503	-14.160	-76.87	14.66	12.12	-2.352	-34.790	59.878	-0.76425	0.62216	-0.04153	-0.16431	30.4	13111	100
2025-3-27 17:48:26.130	WT901BLE68-01(48591DE3C19B)	-0.343	-0.895	0.203	-10.620	-24.170	-16.907	-76.92	14.48	12.29	-2.352	-34.790	59.878	-0.76425	0.62216	-0.04153	-0.16431	30.4	13111	100
2025-3-27 17:48:26.153	WT901BLE68-01(48591DE3C19B)	-0.372	-0.895	0.203	-10.620	-24.170	-16.907	-76.98	14.28	12.49	-2.352	-34.790	59.878	-0.76425	0.62216	-0.04153	-0.16431	30.4	13111	100
2025-3-27 17:48:26.153	WT901BLE68-01(48591DE3C19B)	-0.372	-0.865	0.207	-14.404	-37.292	-18.372	-77.05	14.07	12.76	-2.352	-34.790	59.878	-0.76425	0.62216	-0.04153	-0.16431	30.4	13111	100
2025-3-27 17:48:26.153	WT901BLE68-01(48591DE3C19B)	-0.357	-0.865	0.207	-14.404	-37.292	-18.372	-77.11	13.84	13.10	-2.352	-34.790	59.878	-0.76425	0.62216	-0.04153	-0.16431	30.4	13111	100
2025-3-27 17:48:26.153	WT901BLE68-01(48591DE3C19B)	-0.357	-0.874	0.213	-16.846	-49.744	-19.592	-77.18	13.59	13.49	-2.352	-34.790	59.878	-0.76425	0.62216	-0.04153	-0.16431	30.4	13111	100
2025-3-27 17:48:26.214	WT901BLE68-01(48591DE3C19B)	-0.320	-0.874	0.213	-16.846	-49.744	-19.592	-77.24	13.33	13.95	-2.352	-34.790	59.878	-0.76425	0.62216	-0.04153	-0.16431	30.4	13111	100
2025-3-27 17:48:26.214	WT901BLE68-01(48591DE3C19B)	-0.320	-0.909	0.218	-15.564	-55.847	-18.982	-77.29	13.06	14.44	-2.352	-34.790	59.878	-0.76425	0.62216	-0.04153	-0.16431	30.4	13111	100
2025-3-27 17:48:26.214	WT901BLE68-01(48591DE3C19B)	-0.276	-0.909	0.218	-15.564	-55.847	-18.982	-77.33	12.79	14.95	-2.352	-34.790	59.878	-0.76425	0.62216	-0.04153	-0.16431	30.4	13111	100
2025-3-27 17:48:26.214	WT901BLE68-01(48591DE3C19B)	-0.276	-0.920	0.222	-11.292	-54.871	-18.188	-77.35	12.54	15.46	-2.352	-34.790	59.878	-0.76425	0.62216	-0.04153	-0.16431	30.4	13111	100
2025-3-27 17:48:26.215	WT901BLE68-01(48591DE3C19B)	-0.248	-0.920	0.222	-11.292	-54.871	-18.188	-77.35	12.28	15.96	-2.352	-34.790	59.878	-0.76425	0.62216	-0.04153	-0.16431	30.4	13111	100
2025-3-27 17:48:26.215	WT901BLE68-01(48591DE3C19B)	-0.248	-0.916	0.231	-8.606	-39.978	-15.747	-77.36	12.07	16.32	-2.352	-34.790	59.878	-0.76425	0.62216	-0.04153	-0.16431	30.4	13111	100
2025-3-27 17:48:26.215	WT901BLE68-01(48591DE3C19B)	-0.265	-0.916	0.231	-8.606	-39.978	-15.747	-77.37	11.87	16.67	-0.784	-31.654	57.232	-0.76425	0.62216	-0.04153	-0.16431	30.4	13111	100
2025-3-27 17:48:26.215	WT901BLE68-01(48591DE3C19B)	-0.265	-0.934	0.218	-5.615	-23.621	-12.146	-77.38	11.74	16.87	-0.784	-31.654	57.232	-0.76425	0.62216	-0.04153	-0.16431	30.4	13111	100
2025-3-27 17:48:26.303	WT901BLE68-01(48591DE3C19B)	-0.296	-0.934	0.218	-5.615	-23.621	-12.146	-77.39	11.61	17.07	-0.784	-31.654	57.232	-0.76425	0.62216	-0.04153	-0.16431	30.4	13111	100
2025-3-27 17:48:26.303	WT901BLE68-01(48591DE3C19B)	-0.296	-0.939	0.204	-3.418	-13.184	-9.155	-77.39	11.52	17.16	-0.784	-31.654	57.232	-0.76425	0.62216	-0.04153	-0.16431	30.4	13111	100
2025-3-27 17:48:26.303	WT901BLE68-01(48591DE3C19B)	-0.308	-0.939	0.204	-3.418	-13.184	-9.155	-77.40	11.45	17.26	-0.784	-31.654	57.232	-0.76425	0.62216	-0.04153	-0.16431	30.4	13111	100
2025-3-27 17:48:26.303	WT901BLE68-01(48591DE3C19B)	-0.308	-0.944	0.202	-1.831	-5.981	-6.836	-77.41	11.40	17.29	-0.784	-31.654	57.232	-0.76425	0.62216	-0.04153	-0.16431	30.4	13111	100
2025-3-27 17:48:26.304	WT901BLE68-01(48591DE3C19B)	-0.323	-0.944	0.202	-1.831	-5.981	-6.836	-77.42	11.36	17.32	-0.784	-31.654	57.232	-0.76425	0.62216	-0.04153	-0.16431	30.4	13111	100
2025-3-27 17:48:26.304	WT901BLE68-01(48591DE3C19B)	-0.323	-0.950	0.204	-0.977	-3.784	-5.676	-77.42	11.34	17.34	-0.784	-31.654	57.232	-0.76425	0.62216	-0.04153	-0.16431	30.4	13111	100
2025-3-27 17:48:26.304	WT901BLE68-01(48591DE3C19B)	-0.334	-0.950	0.204	-0.977	-3.784	-5.676	-77.42	11.31	17.35	-0.784	-31.654	57.232	-0.76425	0.62216	-0.04153	-0.16431	30.4	13111	100
2025-3-27 17:48:26.304	WT901BLE68-01(48591DE3C19B)	-0.334	-0.959	0.202	-0.244	-6.348	-4.700	-77.42	11.29	17.39	-0.784	-31.654	57.232	-0.76425	0.62216	-0.04153	-0.16431	30.4	13111	100
2025-3-27 17:48:26.364	WT901BLE68-01(48591DE3C19B)	-0.327	-0.959	0.202	-0.244	-6.348	-4.700	-77.40	11.27	17.43	-0.784	-31.654	57.232	-0.76425	0.62216	-0.04153	-0.16431	30.4	13111	100
2025-3-27 17:48:26.364	WT901BLE68-01(48591DE3C19B)	-0.327	-0.945	0.194	0.305	-11.169	-4.517	-77.38	11.24	17.52	-0.784	-31.654	57.232	-0.76425	0.62216	-0.04153	-0.16431	30.4	13111	100
2025-3-27 17:48:26.364	WT901BLE68-01(48591DE3C19B)	-0.317	-0.945	0.194	0.305	-11.169	-4.517	-77.36	11.22	17.61	-0.784	-31.654	57.232	-0.76425	0.62216	-0.04153	-0.16431	30.4	13111	100
2025-3-27 17:48:26.364	WT901BLE68-01(48591DE3C19B)	-0.317	-0.931	0.188	0.122	-14.160	-4.333	-77.33	11.18	17.73	-0.784	-31.654	57.232	-0.76425	0.62216	-0.04153	-0.16431	30.4	13111	100
2025-3-27 17:48:26.392	WT901BLE68-01(48591DE3C19B)	-0.323	-0.931	0.188	0.122	-14.160	-4.333	-77.31	11.16	17.85	-0.784	-31.654	57.232	-0.76425	0.62216	-0.04153	-0.16431	30.4	13111	100
2025-3-27 17:48:26.392	WT901BLE68-01(48591DE3C19B)	-0.323	-0.939	0.182	-0.183	-18.433	-4.639	-77.28	11.11	18.01	-0.784	-31.654	57.232	-0.76425	0.62216	-0.04153	-0.16431	30.4	13111	100
2025-3-27 17:48:26.393	WT901BLE68-01(48591DE3C19B)	-0.321	-0.939	0.182	-0.183	-18.433	-4.639	-77.26	11.07	18.18	-0.784	-31.654	57.232	-0.76425	0.62216	-0.04153	-0.16431	30.4	13111	100
2025-3-27 17:48:26.393	WT901BLE68-01(48591DE3C19B)	-0.321	-0.953	0.177	0.000	-23.254	-5.554	-77.22	11.01	18.38	-0.784	-31.654	57.232	-0.76425	0.62216	-0.04153	-0.16431	30.4	13111	100
2025-3-27 17:48:26.428	WT901BLE68-01(48591DE3C19B)	-0.322	-0.953	0.177	0.000	-23.254	-5.554	-77.18	10.95	18.59	-0.784	-31.654	57.232	-0.75818	0.62457	0.02762	-0.18494	30.4	13111	100
2025-3-27 17:48:26.428	WT901BLE68-01(48591DE3C19B)	-0.322	-0.954	0.168	0.305	-27.405	-7.690	-77.14	10.85	18.83	-0.784	-31.654	57.232	-0.75818	0.62457	0.02762	-0.18494	30.4	13111	100
2025-3-27 17:48:26.428	WT901BLE68-01(48591DE3C19B)	-0.327	-0.954	0.168	0.305	-27.405	-7.690	-77.09	10.77	19.07	-0.784	-31.654	57.232	-0.75818	0.62457	0.02762	-0.18494	30.4	13111	100
2025-3-27 17:48:26.428	WT901BLE68-01(48591DE3C19B)	-0.327	-0.934	0.153	-0.122	-31.921	-10.803	-77.05	10.63	19.35	-0.784	-31.654	57.232	-0.75818	0.62457	0.02762	-0.18494	30.4	13111	100
2025-3-27 17:48:26.543	WT901BLE68-01(48591DE3C19B)	-0.325	-0.934	0.153	-0.122	-31.921	-10.803	-77.01	10.50	19.62	-0.784	-31.654	57.232	-0.75818	0.62457	0.02762	-0.18494	30.4	13111	100
2025-3-27 17:48:26.543	WT901BLE68-01(48591DE3C19B)	-0.325	-0.908	0.145	-1.648	-36.499	-15.076	-76.98	10.33	19.93	-0.784	-31.654	57.232	-0.75818	0.62457	0.02762	-0.18494	30.4	13111	100
2025-3-27 17:48:26.543	WT901BLE68-01(48591DE3C19B)	-0.340	-0.908	0.145	-1.648	-36.499	-15.076	-76.95	10.15	20.24	-0.784	-31.654	57.232	-0.75818	0.62457	0.02762	-0.18494	30.4	13111	100
2025-3-27 17:48:26.543	WT901BLE68-01(48591DE3C19B)	-0.340	-0.884	0.139	-3.784	-42.725	-19.226	-76.93	9.92	20.60	-0.784	-31.654	57.232	-0.75818	0.62457	0.02762	-0.18494	30.4	13111	100
2025-3-27 17:48:26.544	WT901BLE68-01(48591DE3C19B)	-0.340	-0.884	0.139	-3.784	-42.725	-19.226	-76.92	9.69	20.97	-0.784	-31.654	57.232	-0.75818	0.62457	0.02762	-0.18494	30.4	13111	100
2025-3-27 17:48:26.544	WT901BLE68-01(48591DE3C19B)	-0.340	-0.871	0.140	-5.615	-49.438	-23.621	-76.92	9.40	21.38	-0.784	-31.654	57.232	-0.75818	0.62457	0.02762	-0.18494	30.4	13111	100
2025-3-27 17:48:26.544	WT901BLE68-01(48591DE3C19B)	-0.322	-0.871	0.140	-5.615	-49.438	-23.621	-76.92	9.12	21.80	-0.784	-31.654	57.232	-0.75818	0.62457	0.02762	-0.18494	30.4	13111	100
2025-3-27 17:48:26.544	WT901BLE68-01(48591DE3C19B)	-0.322	-0.860	0.144	-5.920	-52.673	-27.405	-76.93	8.80	22.24	-0.784	-31.654	57.232	-0.75818	0.62457	0.02762	-0.18494	30.4	13111	100
2025-3-27 17:48:26.545	WT901BLE68-01(48591DE3C19B)	-0.309	-0.860	0.144	-5.920	-52.673	-27.405	-76.93	8.48	22.67	-0.784	-31.654	57.232	-0.75818	0.62457	0.02762	-0.18494	30.4	13111	100
2025-3-27 17:48:26.545	WT901BLE68-01(48591DE3C19B)	-0.309	-0.844	0.144	-4.822	-50.964	-30.518	-76.93	8.14	23.08	-0.784	-31.654	57.232	-0.75818	0.62457	0.02762	-0.18494	30.4	13111	100
2025-3-27 17:48:26.545	WT901BLE68-01(48591DE3C19B)	-0.313	-0.844	0.144	-4.822	-50.964	-30.518	-76.94	7.79	23.49	-0.784	-31.654	57.232	-0.75818	0.62457	0.02762	-0.18494	30.4	13111	100
2025-3-27 17:48:26.545	WT901BLE68-01(48591DE3C19B)	-0.313	-0.832	0.136	-3.723	-48.035	-32.654	-76.94	7.44	23.87	-0.784	-31.654	57.232	-0.75818	0.62457	0.02762	-0.18494	30.4	13111	100
2025-3-27 17:48:26.603	WT901BLE68-01(48591DE3C19B)	-0.335	-0.832	0.136	-3.723	-48.035	-32.654	-76.94	7.09	24.25	-0.784	-31.654	57.232	-0.75818	0.62457	0.02762	-0.18494	30.4	13111	100
2025-3-27 17:48:26.603	WT901BLE68-01(48591DE3C19B)	-0.335	-0.843	0.131	-2.808	-48.401	-33.997	-76.94	6.73	24.63	-0.784	-31.654	57.232	-0.75818	0.62457	0.02762	-0.18494	30.4	13111	100
2025-3-27 17:48:26.603	WT901BLE68-01(48591DE3C19B)	-0.352	-0.843	0.131	-2.808	-48.401	-33.997	-76.94	6.37	25.00	-0.784	-31.654	57.232	-0.75818	0.62457	0.02762	-0.18494	30.4	13111	100
2025-3-27 17:48:26.603	WT901BLE68-01(48591DE3C19B)	-0.352	-0.851	0.136	-2.075	-52.856	-33.752	-76.93	6.01	25.42	-0.784	-31.654	57.232	-0.75818	0.62457	0.02762	-0.18494	30.4	13111	100
2025-3-27 17:48:26.632	WT901BLE68-01(48591DE3C19B)	-0.355	-0.851	0.136	-2.075	-52.856	-33.752	-76.92	5.65	25.84	-0.784	-31.654	57.232	-0.75818	0.62457	0.02762	-0.18494	30.4	13111	100
2025-3-27 17:48:26.632	WT901BLE68-01(48591DE3C19B)	-0.355	-0.859	0.144	-3.113	-59.875	-31.921	-76.92	5.30	26.33	4.214	-28.126	45.374	-0.75818	0.62457	0.02762	-0.18494	30.4	13111	100
2025-3-27 17:48:26.632	WT901BLE68-01(48591DE3C19B)	-0.356	-0.859	0.144	-3.113	-59.875	-31.921	-76.93	4.94	26.82	4.214	-28.126	45.374	-0.75818	0.62457	0.02762	-0.18494	30.4	13111	100
2025-3-27 17:48:26.632	WT901BLE68-01(48591DE3C19B)	-0.356	-0.895	0.141	-4.944	-67.017	-30.273	-76.94	4.59	27.38	4.214	-28.126	45.374	-0.75818	0.62457	0.02762	-0.18494	30.4	13111	100
2025-3-27 17:48:26.693	WT901BLE68-01(48591DE3C19B)	-0.354	-0.895	0.141	-4.944	-67.017	-30.273	-76.96	4.25	27.95	4.214	-28.126	45.374	-0.75818	0.62457	0.02762	-0.18494	30.4	13111	100
2025-3-27 17:48:26.693	WT901BLE68-01(48591DE3C19B)	-0.354	-0.924	0.139	-6.104	-74.585	-30.029	-77.00	3.89	28.58	4.214	-28.126	45.374	-0.75818	0.62457	0.02762	-0.18494	30.4	13111	100
2025-3-27 17:48:26.693	WT901BLE68-01(48591DE3C19B)	-0.353	-0.924	0.139	-6.104	-74.585	-30.029	-77.03	3.53	29.22	4.214	-28.126	45.374	-0.75818	0.62457	0.02762	-0.18494	30.4	13111	100
2025-3-27 17:48:26.693	WT901BLE68-01(48591DE3C19B)	-0.348	-0.952	0.150	-7.080	-81.360	-31.433	-77.07	3.15	29.92	4.214	-28.126	45.374	-0.75818	0.62457	0.02762	-0.18494	30.4	13111	100
2025-3-27 17:48:26.694	WT901BLE68-01(48591DE3C19B)	-0.348	-0.998	0.162	-7.629	-86.182	-34.119	-77.13	2.75	30.63	4.214	-28.126	45.374	-0.75818	0.62457	0.02762	-0.18494	30.4	13111	100
2025-3-27 17:48:26.694	WT901BLE68-01(48591DE3C19B)	-0.349	-0.998	0.162	-7.629	-86.182	-34.119	-77.19	2.34	31.36	4.214	-28.126	45.374	-0.75818	0.62457	0.02762	-0.18494	30.4	13111	100
2025-3-27 17:48:26.694	WT901BLE68-01(48591DE3C19B)	-0.349	-1.063	0.198	-5.554	-88.013	-37.048	-77.24	1.91	32.10	4.214	-28.126	45.374	-0.75818	0.62457	0.02762	-0.18494	30.4	13111	100
2025-3-27 17:48:26.694	WT901BLE68-01(48591DE3C19B)	-0.345	-1.063	0.198	-5.554	-88.013	-37.048	-77.28	1.47	32.84	4.214	-28.126	45.374	-0.75818	0.62457	0.02762	-0.18494	30.4	13111	100
2025-3-27 17:48:26.753	WT901BLE68-01(48591DE3C19B)	-0.345	-1.108	0.225	-1.343	-86.060	-38.879	-77.32	1.02	33.57	4.214	-28.126	45.374	-0.75818	0.62457	0.02762	-0.18494	30.4	13111	100
2025-3-27 17:48:26.753	WT901BLE68-01(48591DE3C19B)	-0.333	-1.108	0.225	-1.343	-86.060	-38.879	-77.33	0.56	34.29	4.214	-28.126	45.374	-0.75818	0.62457	0.02762	-0.18494	30.4	13111	100
2025-3-27 17:48:26.753	WT901BLE68-01(48591DE3C19B)	-0.333	-1.196	0.189	-0.610	-78.735	-40.161	-77.34	0.11	34.96	4.214	-28.126	45.374	-0.75818	0.62457	0.02762	-0.18494	30.4	13111	100
2025-3-27 17:48:26.753	WT901BLE68-01(48591DE3C19B)	-0.339	-1.196	0.189	-0.610	-78.735	-40.161	-77.36	-0.34	35.60	4.214	-28.126	45.374	-0.75818	0.62457	0.02762	-0.18494	30.4	13111	100
2025-3-27 17:48:26.784	WT901BLE68-01(48591DE3C19B)	-1.358	-1.448	0.130	-4.456	-64.941	-41.992	-77.40	-0.78	36.17	4.214	-28.126	45.374	-0.75818	0.62457	0.02762	-0.18494	30.4	13111	100
2025-3-27 17:48:26.784	WT901BLE68-01(48591DE3C19B)	-0.421	-5.794	0.520	-4.456	-64.941	-41.992	-77.47	-1.22	36.66	4.214	-28.126	45.374	-0.75818	0.62457	0.02762	-0.18494	30.4	13111	100
2025-3-27 17:48:26.784	WT901BLE68-01(48591DE3C19B)	-0.421	-1.665	0.118	-1.648	-55.908	-39.551	-77.54	-1.64	37.10	4.214	-28.126	45.374	-0.75818	0.62457	0.02762	-0.18494	30.4	13111	100
2025-3-27 17:48:26.784	WT901BLE68-01(48591DE3C19B)	-0.432	-1.665	0.118	-1.648	-55.908	-39.551	-77.59	-2.04	37.49	4.214	-28.126	45.374	-0.75818	0.62457	0.02762	-0.18494	30.4	13111	100
2025-3-27 17:48:26.813	WT901BLE68-01(48591DE3C19B)	-0.432	-1.275	0.156	7.629	-59.143	-26.794	-77.60	-2.38	37.91	4.214	-28.126	45.374	-0.75818	0.62457	0.02762	-0.18494	30.4	13111	100
2025-3-27 17:48:26.813	WT901BLE68-01(48591DE3C19B)	-0.489	-1.275	0.156	7.629	-59.143	-26.794	-77.57	-2.66	38.38	4.214	-28.126	45.374	-0.75818	0.62457	0.02762	-0.18494	30.4	13111	100
2025-3-27 17:48:26.813	WT901BLE68-01(48591DE3C19B)	-0.489	-0.881	0.252	-0.488	-77.881	4.028	-77.59	-2.80	38.96	4.214	-28.126	45.374	-0.73959	0.58414	0.22684	-0.24533	30.4	13111	100
2025-3-27 17:48:26.813	WT901BLE68-01(48591DE3C19B)	-0.531	-0.881	0.252	-0.488	-77.881	4.028	-77.66	-2.81	39.67	4.214	-28.126	45.374	-0.73959	0.58414	0.22684	-0.24533	30.4	13111	100
2025-3-27 17:48:26.874	WT901BLE68-01(48591DE3C19B)	-0.531	-0.773	0.282	-7.751	-108.948	37.781	-77.76	-2.68	40.57	4.214	-28.126	45.374	-0.73959	0.58414	0.22684	-0.24533	30.4	13111	100
2025-3-27 17:48:26.874	WT901BLE68-01(48591DE3C19B)	-0.427	-0.773	0.282	-7.751	-108.948	37.781	-77.90	-2.42	41.67	4.214	-28.126	45.374	-0.73959	0.58414	0.22684	-0.24533	30.4	13111	100
2025-3-27 17:48:26.874	WT901BLE68-01(48591DE3C19B)	-0.427	-1.000	0.219	-11.292	-131.042	75.562	-78.05	-1.98	42.92	4.214	-28.126	45.374	-0.73959	0.58414	0.22684	-0.24533	30.4	13111	100
2025-3-27 17:48:26.874	WT901BLE68-01(48591DE3C19B)	-0.190	-1.000	0.219	-11.292	-131.042	75.562	-78.22	-1.39	44.31	4.214	-28.126	45.374	-0.73959	0.58414	0.22684	-0.24533	30.4	13111	100
2025-3-27 17:48:26.902	WT901BLE68-01(48591DE3C19B)	-0.190	-1.279	0.043	0.854	-117.676	111.755	-78.31	-0.60	45.68	4.214	-28.126	45.374	-0.73959	0.58414	0.22684	-0.24533	30.4	13111	100
2025-3-27 17:48:26.902	WT901BLE68-01(48591DE3C19B)	0.014	-1.279	0.043	0.854	-117.676	111.755	-78.31	0.36	47.01	4.214	-28.126	45.374	-0.73959	0.58414	0.22684	-0.24533	30.4	13111	100
2025-3-27 17:48:26.903	WT901BLE68-01(48591DE3C19B)	0.014	-1.416	-0.036	18.677	-82.886	145.447	-78.21	1.51	48.19	4.214	-28.126	45.374	-0.73959	0.58414	0.22684	-0.24533	30.4	13111	100
2025-3-27 17:48:26.903	WT901BLE68-01(48591DE3C19B)	0.051	-1.416	-0.036	18.677	-82.886	145.447	-78.00	2.85	49.22	4.214	-28.126	45.374	-0.73959	0.58414	0.22684	-0.24533	30.4	13111	100
2025-3-27 17:48:26.933	WT901BLE68-01(48591DE3C19B)	0.051	-1.476	-0.031	27.893	-43.396	169.983	-77.73	4.32	50.08	4.214	-28.126	45.374	-0.73959	0.58414	0.22684	-0.24533	30.4	13111	100
2025-3-27 17:48:26.933	WT901BLE68-01(48591DE3C19B)	0.023	-1.476	-0.031	27.893	-43.396	169.983	-77.42	5.93	50.76	4.214	-28.126	45.374	-0.73959	0.58414	0.22684	-0.24533	30.4	13111	100
2025-3-27 17:48:26.933	WT901BLE68-01(48591DE3C19B)	0.023	-1.530	0.042	31.616	-19.226	191.406	-77.08	7.66	51.32	4.214	-28.126	45.374	-0.73959	0.58414	0.22684	-0.24533	30.4	13111	100
2025-3-27 17:48:26.933	WT901BLE68-01(48591DE3C19B)	-0.009	-1.530	0.042	31.616	-19.226	191.406	-76.72	9.50	51.79	4.214	-28.126	45.374	-0.73959	0.58414	0.22684	-0.24533	30.4	13111	100
2025-3-27 17:48:26.993	WT901BLE68-01(48591DE3C19B)	-0.009	-1.534	0.142	35.217	-1.831	208.740	-76.34	11.42	52.17	4.214	-28.126	45.374	-0.73959	0.58414	0.22684	-0.24533	30.4	13111	100
2025-3-27 17:48:26.994	WT901BLE68-01(48591DE3C19B)	-0.120	-1.534	0.142	35.217	-1.831	208.740	-75.94	13.43	52.49	4.214	-28.126	45.374	-0.73959	0.58414	0.22684	-0.24533	30.4	13111	100
2025-3-27 17:48:26.994	WT901BLE68-01(48591DE3C19B)	-0.120	-1.488	0.253	33.752	18.738	229.736	-75.55	15.55	52.72	4.214	-28.126	45.374	-0.73959	0.58414	0.22684	-0.24533	30.4	13111	100
2025-3-27 17:48:26.994	WT901BLE68-01(48591DE3C19B)	-0.196	-1.488	0.253	33.752	18.738	229.736	-75.17	17.79	52.86	4.214	-28.126	45.374	-0.73959	0.58414	0.22684	-0.24533	30.4	13111	100
2025-3-27 17:48:27.84	WT901BLE68-01(48591DE3C19B)	-0.196	-1.469	0.298	28.259	35.889	244.995	-74.83	20.10	52.94	4.214	-28.126	45.374	-0.73959	0.58414	0.22684	-0.24533	30.4	13111	100
2025-3-27 17:48:27.84	WT901BLE68-01(48591DE3C19B)	-0.233	-1.469	0.298	28.259	35.889	244.995	-74.53	22.51	52.94	4.214	-28.126	45.374	-0.73959	0.58414	0.22684	-0.24533	30.4	13111	100
2025-3-27 17:48:27.84	WT901BLE68-01(48591DE3C19B)	-0.233	-1.453	0.287	22.278	38.818	254.272	-74.24	24.94	52.93	4.214	-28.126	45.374	-0.73959	0.58414	0.22684	-0.24533	30.4	13111	100
2025-3-27 17:48:27.84	WT901BLE68-01(48591DE3C19B)	-0.242	-1.453	0.287	22.278	38.818	254.272	-73.98	27.42	52.91	-9.506	-55.762	21.266	-0.73959	0.58414	0.22684	-0.24533	30.4	13111	100
2025-3-27 17:48:27.85	WT901BLE68-01(48591DE3C19B)	-0.242	-1.403	0.230	15.442	26.001	256.897	-73.70	29.88	52.95	-9.506	-55.762	21.266	-0.73959	0.58414	0.22684	-0.24533	30.4	13111	100
2025-3-27 17:48:27.85	WT901BLE68-01(48591DE3C19B)	-0.260	-1.403	0.230	15.442	26.001	256.897	-73.39	32.33	53.07	-9.506	-55.762	21.266	-0.73959	0.58414	0.22684	-0.24533	30.4	13111	100
2025-3-27 17:48:27.85	WT901BLE68-01(48591DE3C19B)	-0.260	-1.409	0.196	7.202	4.150	253.845	-73.05	34.72	53.30	-9.506	-55.762	21.266	-0.73959	0.58414	0.22684	-0.24533	30.4	13111	100
2025-3-27 17:48:27.85	WT901BLE68-01(48591DE3C19B)	-0.222	-1.409	0.196	7.202	4.150	253.845	-72.65	37.06	53.66	-9.506	-55.762	21.266	-0.73959	0.58414	0.22684	-0.24533	30.4	13111	100
2025-3-27 17:48:27.115	WT901BLE68-01(48591DE3C19B)	-0.222	-1.439	0.142	6.897	-14.343	246.155	-72.15	39.33	54.12	-9.506	-55.762	21.266	-0.73959	0.58414	0.22684	-0.24533	30.4	13111	100
2025-3-27 17:48:27.115	WT901BLE68-01(48591DE3C19B)	-0.167	-1.439	0.142	6.897	-14.343	246.155	-71.55	41.53	54.72	-9.506	-55.762	21.266	-0.73959	0.58414	0.22684	-0.24533	30.4	13111	100
2025-3-27 17:48:27.115	WT901BLE68-01(48591DE3C19B)	-0.167	-1.332	0.121	10.864	-23.621	236.877	-70.84	43.66	55.38	-9.506	-55.762	21.266	-0.73959	0.58414	0.22684	-0.24533	30.4	13111	100
2025-3-27 17:48:27.115	WT901BLE68-01(48591DE3C19B)	-0.154	-1.332	0.121	10.864	-23.621	236.877	-70.02	45.72	56.13	-9.506	-55.762	21.266	-0.73959	0.58414	0.22684	-0.24533	30.4	13111	100
2025-3-27 17:48:27.145	WT901BLE68-01(48591DE3C19B)	-0.154	-1.206	0.119	11.414	-30.884	223.816	-69.11	47.70	56.96	-9.506	-55.762	21.266	-0.73959	0.58414	0.22684	-0.24533	30.4	13111	100
2025-3-27 17:48:27.145	WT901BLE68-01(48591DE3C19B)	-0.121	-1.206	0.119	11.414	-30.884	223.816	-68.10	49.59	57.87	-9.506	-55.762	21.266	-0.73959	0.58414	0.22684	-0.24533	30.4	13111	100
2025-3-27 17:48:27.145	WT901BLE68-01(48591DE3C19B)	-0.121	-1.079	0.135	12.390	-35.522	205.444	-67.03	51.27	58.82	-9.506	-55.762	21.266	-0.73959	0.58414	0.22684	-0.24533	30.4	13111	100
2025-3-27 17:48:27.145	WT901BLE68-01(48591DE3C19B)	-0.075	-1.079	0.135	12.390	-35.522	205.444	-65.86	52.95	59.84	-9.506	-55.762	21.266	-0.73959	0.58414	0.22684	-0.24533	30.4	13111	100
2025-3-27 17:48:27.203	WT901BLE68-01(48591DE3C19B)	-0.075	-0.933	0.165	12.451	-32.227	185.059	-64.76	54.44	60.75	-9.506	-55.762	21.266	-0.73959	0.58414	0.22684	-0.24533	30.4	13111	100
2025-3-27 17:48:27.203	WT901BLE68-01(48591DE3C19B)	-0.064	-0.933	0.165	12.451	-32.227	185.059	-63.57	55.91	61.74	-9.506	-55.762	21.266	-0.73959	0.58414	0.22684	-0.24533	30.4	13111	100
2025-3-27 17:48:27.204	WT901BLE68-01(48591DE3C19B)	-0.064	-0.811	0.202	9.949	-22.400	164.429	-62.58	57.23	62.48	-9.506	-55.762	21.266	-0.73959	0.58414	0.22684	-0.24533	30.4	13111	100
2025-3-27 17:48:27.204	WT901BLE68-01(48591DE3C19B)	-0.066	-0.811	0.202	9.949	-22.400	164.429	-61.52	58.55	63.28	-9.506	-55.762	21.266	-0.73959	0.58414	0.22684	-0.24533	30.4	13111	100
2025-3-27 17:48:27.263	WT901BLE68-01(48591DE3C19B)	-0.066	-0.733	0.219	5.920	-10.986	142.334	-60.77	59.71	63.75	-9.506	-55.762	21.266	-0.73959	0.58414	0.22684	-0.24533	30.4	13111	100
2025-3-27 17:48:27.264	WT901BLE68-01(48591DE3C19B)	-0.077	-0.733	0.219	5.920	-10.986	142.334	-59.96	60.87	64.26	-9.506	-55.762	21.266	-0.49774	0.59821	-0.14240	-0.61157	30.4	13111	100
2025-3-27 17:48:27.264	WT901BLE68-01(48591DE3C19B)	-0.077	-0.680	0.220	2.075	-2.441	119.934	-59.47	61.88	64.43	-9.506	-55.762	21.266	-0.49774	0.59821	-0.14240	-0.61157	30.4	13111	100
2025-3-27 17:48:27.264	WT901BLE68-01(48591DE3C19B)	-0.083	-0.680	0.220	2.075	-2.441	119.934	-58.96	62.87	64.63	-9.506	-55.762	21.266	-0.49774	0.59821	-0.14240	-0.61157	30.4	13111	100
2025-3-27 17:48:27.265	WT901BLE68-01(48591DE3C19B)	-0.083	-0.625	0.216	-0.977	2.258	97.473	-58.76	63.71	64.50	-9.506	-55.762	21.266	-0.49774	0.59821	-0.14240	-0.61157	30.4	13111	100
2025-3-27 17:48:27.265	WT901BLE68-01(48591DE3C19B)	-0.088	-0.625	0.216	-0.977	2.258	97.473	-58.55	64.54	64.37	-9.506	-55.762	21.266	-0.49774	0.59821	-0.14240	-0.61157	30.4	13111	100
2025-3-27 17:48:27.265	WT901BLE68-01(48591DE3C19B)	-0.088	-0.566	0.223	-3.662	3.174	75.256	-58.62	65.19	63.95	-9.506	-55.762	21.266	-0.49774	0.59821	-0.14240	-0.61157	30.4	13111	100
2025-3-27 17:48:27.265	WT901BLE68-01(48591DE3C19B)	-0.088	-0.566	0.223	-3.662	3.174	75.256	-58.69	65.84	63.52	-9.506	-55.762	21.266	-0.49774	0.59821	-0.14240	-0.61157	30.4	13111	100
2025-3-27 17:48:27.353	WT901BLE68-01(48591DE3C19B)	-0.088	-0.513	0.240	-5.859	2.014	54.077	-59.01	66.30	62.84	-9.506	-55.762	21.266	-0.49774	0.59821	-0.14240	-0.61157	30.4	13111	100
2025-3-27 17:48:27.353	WT901BLE68-01(48591DE3C19B)	-0.086	-0.513	0.240	-5.859	2.014	54.077	-59.34	66.75	62.14	-9.506	-55.762	21.266	-0.49774	0.59821	-0.14240	-0.61157	30.4	13111	100
2025-3-27 17:48:27.353	WT901BLE68-01(48591DE3C19B)	-0.086	-0.464	0.236	-7.813	1.221	32.959	-59.94	67.02	61.17	-9.506	-55.762	21.266	-0.49774	0.59821	-0.14240	-0.61157	30.4	13111	100
2025-3-27 17:48:27.353	WT901BLE68-01(48591DE3C19B)	-0.094	-0.464	0.236	-7.813	1.221	32.959	-60.55	67.29	60.18	-9.506	-55.762	21.266	-0.49774	0.59821	-0.14240	-0.61157	30.4	13111	100
2025-3-27 17:48:27.353	WT901BLE68-01(48591DE3C19B)	-0.094	-0.437	0.251	-9.277	0.305	11.169	-61.41	67.36	58.93	-9.506	-55.762	21.266	-0.49774	0.59821	-0.14240	-0.61157	30.4	13111	100
2025-3-27 17:48:27.353	WT901BLE68-01(48591DE3C19B)	-0.102	-0.437	0.251	-9.277	0.305	11.169	-62.28	67.42	57.67	-9.506	-55.762	21.266	-0.49774	0.59821	-0.14240	-0.61157	30.4	13111	100
2025-3-27 17:48:27.353	WT901BLE68-01(48591DE3C19B)	-0.102	-0.458	0.291	-8.850	0.244	-12.146	-63.39	67.27	56.13	-9.506	-55.762	21.266	-0.49774	0.59821	-0.14240	-0.61157	30.4	13111	100
2025-3-27 17:48:27.354	WT901BLE68-01(48591DE3C19B)	-0.114	-0.458	0.291	-8.850	0.244	-12.146	-64.47	67.12	54.61	-9.506	-55.762	21.266	-0.49774	0.59821	-0.14240	-0.61157	30.4	13111	100
2025-3-27 17:48:27.384	WT901BLE68-01(48591DE3C19B)	-0.114	-0.490	0.300	-4.700	2.136	-36.804	-65.78	66.73	52.81	-9.506	-55.762	21.266	-0.49774	0.59821	-0.14240	-0.61157	30.4	13111	100
2025-3-27 17:48:27.384	WT901BLE68-01(48591DE3C19B)	-0.117	-0.490	0.300	-4.700	2.136	-36.804	-67.02	66.34	51.05	-9.506	-55.762	21.266	-0.49774	0.59821	-0.14240	-0.61157	30.4	13111	100
2025-3-27 17:48:27.384	WT901BLE68-01(48591DE3C19B)	-0.117	-0.550	0.279	-1.648	7.751	-64.392	-68.53	65.70	48.97	-9.506	-55.762	21.266	-0.49774	0.59821	-0.14240	-0.61157	30.4	13111	100
2025-3-27 17:48:27.384	WT901BLE68-01(48591DE3C19B)	-0.150	-0.550	0.279	-1.648	7.751	-64.392	-69.96	65.03	46.97	-9.506	-55.762	21.266	-0.49774	0.59821	-0.14240	-0.61157	30.4	13111	100
2025-3-27 17:48:27.443	WT901BLE68-01(48591DE3C19B)	-0.150	-0.662	0.248	0.916	16.968	-97.656	-71.66	64.07	44.63	-9.506	-55.762	21.266	-0.49774	0.59821	-0.14240	-0.61157	30.4	13111	100
2025-3-27 17:48:27.443	WT901BLE68-01(48591DE3C19B)	-0.208	-0.662	0.248	0.916	16.968	-97.656	-73.23	63.08	42.42	-48.510	-76.930	22.050	-0.49774	0.59821	-0.14240	-0.61157	30.4	13111	100
2025-3-27 17:48:27.443	WT901BLE68-01(48591DE3C19B)	-0.208	-0.756	0.242	4.883	24.902	-134.216	-74.94	61.74	39.97	-48.510	-76.930	22.050	-0.49774	0.59821	-0.14240	-0.61157	30.4	13111	100
2025-3-27 17:48:27.443	WT901BLE68-01(48591DE3C19B)	-0.318	-0.756	0.242	4.883	24.902	-134.216	-76.48	60.37	37.72	-48.510	-76.930	22.050	-0.49774	0.59821	-0.14240	-0.61157	30.4	13111	100
2025-3-27 17:48:27.472	WT901BLE68-01(48591DE3C19B)	-0.318	-0.839	0.260	6.470	23.804	-169.250	-77.93	58.64	35.51	-48.510	-76.930	22.050	-0.49774	0.59821	-0.14240	-0.61157	30.4	13111	100
2025-3-27 17:48:27.473	WT901BLE68-01(48591DE3C19B)	-0.374	-0.839	0.260	6.470	23.804	-169.250	-79.18	56.89	33.48	-48.510	-76.930	22.050	-0.49774	0.59821	-0.14240	-0.61157	30.4	13111	100
2025-3-27 17:48:27.473	WT901BLE68-01(48591DE3C19B)	-0.374	-0.957	0.260	5.432	18.311	-203.796	-80.30	54.78	31.61	-48.510	-76.930	22.050	-0.49774	0.59821	-0.14240	-0.61157	30.4	13111	100
2025-3-27 17:48:27.473	WT901BLE68-01(48591DE3C19B)	-0.398	-0.957	0.260	5.432	18.311	-203.796	-81.25	52.65	29.90	-48.510	-76.930	22.050	-0.49774	0.59821	-0.14240	-0.61157	30.4	13111	100
2025-3-27 17:48:27.502	WT901BLE68-01(48591DE3C19B)	-0.398	-1.083	0.251	5.554	15.747	-237.732	-82.08	50.19	28.29	-48.510	-76.930	22.050	-0.49774	0.59821	-0.14240	-0.61157	30.4	13111	100
2025-3-27 17:48:27.502	WT901BLE68-01(48591DE3C19B)	-0.396	-1.083	0.251	5.554	15.747	-237.732	-82.78	47.71	26.82	-48.510	-76.930	22.050	-0.49774	0.59821	-0.14240	-0.61157	30.4	13111	100
2025-3-27 17:48:27.502	WT901BLE68-01(48591DE3C19B)	-0.396	-1.207	0.233	7.813	20.569	-271.667	-83.43	44.90	25.36	-48.510	-76.930	22.050	-0.49774	0.59821	-0.14240	-0.61157	30.4	13111	100
2025-3-27 17:48:27.502	WT901BLE68-01(48591DE3C19B)	-0.384	-1.207	0.233	7.813	20.569	-271.667	-83.96	42.09	24.02	-48.510	-76.930	22.050	-0.49774	0.59821	-0.14240	-0.61157	30.4	13111	100
2025-3-27 17:48:27.563	WT901BLE68-01(48591DE3C19B)	-0.384	-1.313	0.185	11.169	35.583	-300.842	-84.51	39.00	22.57	-48.510	-76.930	22.050	-0.49774	0.59821	-0.14240	-0.61157	30.4	13111	100
2025-3-27 17:48:27.563	WT901BLE68-01(48591DE3C19B)	-0.375	-1.313	0.185	11.169	35.583	-300.842	-84.94	35.92	21.26	-48.510	-76.930	22.050	-0.49774	0.59821	-0.14240	-0.61157	30.4	13111	100
2025-3-27 17:48:27.563	WT901BLE68-01(48591DE3C19B)	-0.375	-1.417	0.114	14.099	59.509	-323.486	-85.41	32.63	19.78	-48.510	-76.930	22.050	-0.49774	0.59821	-0.14240	-0.61157	30.4	13111	100
2025-3-27 17:48:27.563	WT901BLE68-01(48591DE3C19B)	-0.417	-1.417	0.114	14.099	59.509	-323.486	-85.79	29.36	18.44	-48.510	-76.930	22.050	-0.49774	0.59821	-0.14240	-0.61157	30.4	13111	100
2025-3-27 17:48:27.592	WT901BLE68-01(48591DE3C19B)	-0.417	-1.563	0.057	17.944	89.783	-337.891	-86.19	25.98	16.88	-48.510	-76.930	22.050	-0.49774	0.59821	-0.14240	-0.61157	30.4	13111	100
2025-3-27 17:48:27.592	WT901BLE68-01(48591DE3C19B)	-0.545	-1.563	0.057	17.944	89.783	-337.891	-86.50	22.61	15.44	-48.510	-76.930	22.050	-0.49774	0.59821	-0.14240	-0.61157	30.4	13111	100
2025-3-27 17:48:27.592	WT901BLE68-01(48591DE3C19B)	-0.636	-1.728	0.051	25.940	110.107	-338.562	-86.71	19.26	13.89	-48.510	-76.930	22.050	-0.49774	0.59821	-0.14240	-0.61157	30.4	13111	100
2025-3-27 17:48:27.593	WT901BLE68-01(48591DE3C19B)	-0.636	-1.747	0.048	35.950	116.455	-325.012	-86.79	16.01	12.40	-48.510	-76.930	22.050	-0.49774	0.59821	-0.14240	-0.61157	30.4	13111	100
2025-3-27 17:48:27.627	WT901BLE68-01(48591DE3C19B)	-0.645	-1.747	0.048	35.950	116.455	-325.012	-86.75	12.85	10.95	-48.510	-76.930	22.050	-0.49774	0.59821	-0.14240	-0.61157	30.4	13111	100
2025-3-27 17:48:27.627	WT901BLE68-01(48591DE3C19B)	-0.645	-1.645	0.001	39.490	127.136	-297.485	-86.64	9.85	9.49	-48.510	-76.930	22.050	-0.49774	0.59821	-0.14240	-0.61157	30.4	13111	100
2025-3-27 17:48:27.627	WT901BLE68-01(48591DE3C19B)	-0.734	-1.645	0.001	39.490	127.136	-297.485	-86.45	7.02	8.03	-48.510	-76.930	22.050	-0.72485	0.68414	0.00784	-0.07980	30.4	13111	100
2025-3-27 17:48:27.627	WT901BLE68-01(48591DE3C19B)	-0.734	-1.509	-0.043	36.255	132.202	-255.127	-86.21	4.42	6.56	-48.510	-76.930	22.050	-0.72485	0.68414	0.00784	-0.07980	30.4	13111	100
2025-3-27 17:48:27.683	WT901BLE68-01(48591DE3C19B)	-0.823	-1.509	-0.043	36.255	132.202	-255.127	-85.94	2.07	5.11	-48.510	-76.930	22.050	-0.72485	0.68414	0.00784	-0.07980	30.4	13111	100
2025-3-27 17:48:27.683	WT901BLE68-01(48591DE3C19B)	-0.823	-1.334	0.005	32.715	126.953	-204.102	-85.63	-0.01	3.71	-48.510	-76.930	22.050	-0.72485	0.68414	0.00784	-0.07980	30.4	13111	100
2025-3-27 17:48:27.683	WT901BLE68-01(48591DE3C19B)	-0.692	-1.334	0.005	32.715	126.953	-204.102	-85.30	-1.81	2.36	-48.510	-76.930	22.050	-0.72485	0.68414	0.00784	-0.07980	30.4	13111	100
2025-3-27 17:48:27.684	WT901BLE68-01(48591DE3C19B)	-0.692	-1.178	0.042	21.973	102.478	-156.372	-85.01	-3.36	1.16	-48.510	-76.930	22.050	-0.72485	0.68414	0.00784	-0.07980	30.4	13111	100
2025-3-27 17:48:27.712	WT901BLE68-01(48591DE3C19B)	-0.415	-1.178	0.042	21.973	102.478	-156.372	-84.74	-4.66	0.10	-48.510	-76.930	22.050	-0.72485	0.68414	0.00784	-0.07980	30.4	13111	100
2025-3-27 17:48:27.712	WT901BLE68-01(48591DE3C19B)	-0.415	-1.111	0.059	12.207	64.514	-114.014	-84.52	-5.76	-0.74	-48.510	-76.930	22.050	-0.72485	0.68414	0.00784	-0.07980	30.4	13111	100
2025-3-27 17:48:27.712	WT901BLE68-01(48591DE3C19B)	-0.322	-1.111	0.059	12.207	64.514	-114.014	-84.36	-6.66	-1.38	-48.510	-76.930	22.050	-0.72485	0.68414	0.00784	-0.07980	30.4	13111	100
2025-3-27 17:48:27.712	WT901BLE68-01(48591DE3C19B)	-0.322	-1.078	0.086	5.066	42.603	-74.158	-84.24	-7.37	-1.91	-48.510	-76.930	22.050	-0.72485	0.68414	0.00784	-0.07980	30.4	13111	100
2025-3-27 17:48:27.743	WT901BLE68-01(48591DE3C19B)	-0.379	-1.078	0.086	5.066	42.603	-74.158	-84.17	-7.89	-2.30	-48.510	-76.930	22.050	-0.72485	0.68414	0.00784	-0.07980	30.4	13111	100
2025-3-27 17:48:27.743	WT901BLE68-01(48591DE3C19B)	-0.379	-1.133	0.118	2.319	30.457	-47.058	-84.12	-8.28	-2.63	-48.510	-76.930	22.050	-0.72485	0.68414	0.00784	-0.07980	30.4	13111	100
2025-3-27 17:48:27.743	WT901BLE68-01(48591DE3C19B)	-0.342	-1.133	0.118	2.319	30.457	-47.058	-84.08	-8.54	-2.87	-48.510	-76.930	22.050	-0.72485	0.68414	0.00784	-0.07980	30.4	13111	100
2025-3-27 17:48:27.743	WT901BLE68-01(48591DE3C19B)	-0.342	-1.188	0.072	3.540	27.832	-29.419	-84.04	-8.72	-3.10	-48.510	-76.930	22.050	-0.72485	0.68414	0.00784	-0.07980	30.4	13111	100
2025-3-27 17:48:27.802	WT901BLE68-01(48591DE3C19B)	-0.447	-1.188	0.072	3.540	27.832	-29.419	-84.00	-8.81	-3.32	-48.510	-76.930	22.050	-0.72485	0.68414	0.00784	-0.07980	30.4	13111	100
2025-3-27 17:48:27.802	WT901BLE68-01(48591DE3C19B)	-0.447	-1.184	0.042	5.249	43.579	-15.442	-83.94	-8.83	-3.60	-48.510	-76.930	22.050	-0.72485	0.68414	0.00784	-0.07980	30.4	13111	100
2025-3-27 17:48:27.802	WT901BLE68-01(48591DE3C19B)	-0.592	-1.184	0.042	5.249	43.579	-15.442	-83.85	-8.76	-3.96	-48.510	-76.930	22.050	-0.72485	0.68414	0.00784	-0.07980	30.4	13111	100
2025-3-27 17:48:27.802	WT901BLE68-01(48591DE3C19B)	-0.592	-1.190	-0.037	5.127	51.453	-20.020	-83.77	-8.72	-4.36	-48.510	-76.930	22.050	-0.72485	0.68414	0.00784	-0.07980	30.4	13111	100
2025-3-27 17:48:27.833	WT901BLE68-01(48591DE3C19B)	-0.532	-1.190	-0.037	5.127	51.453	-20.020	-83.68	-8.68	-4.80	-4.802	-32.928	42.434	-0.72485	0.68414	0.00784	-0.07980	30.4	13111	100
2025-3-27 17:48:27.833	WT901BLE68-01(48591DE3C19B)	-0.532	-1.141	-0.072	8.728	44.312	-28.687	-83.58	-8.70	-5.20	-4.802	-32.928	42.434	-0.72485	0.68414	0.00784	-0.07980	30.4	13111	100
2025-3-27 17:48:27.833	WT901BLE68-01(48591DE3C19B)	-0.542	-1.141	-0.072	8.728	44.312	-28.687	-83.48	-8.76	-5.57	-4.802	-32.928	42.434	-0.72485	0.68414	0.00784	-0.07980	30.4	13111	100
2025-3-27 17:48:27.834	WT901BLE68-01(48591DE3C19B)	-0.542	-1.077	-0.051	8.606	26.123	-37.720	-83.39	-8.87	-5.86	-4.802	-32.928	42.434	-0.72485	0.68414	0.00784	-0.07980	30.4	13111	100
2025-3-27 17:48:27.862	WT901BLE68-01(48591DE3C19B)	-0.541	-1.077	-0.051	8.606	26.123	-37.720	-83.32	-9.03	-6.05	-4.802	-32.928	42.434	-0.72485	0.68414	0.00784	-0.07980	30.4	13111	100
2025-3-27 17:48:27.862	WT901BLE68-01(48591DE3C19B)	-0.541	-1.036	0.016	8.911	-7.996	-49.927	-83.28	-9.27	-6.09	-4.802	-32.928	42.434	-0.72485	0.68414	0.00784	-0.07980	30.4	13111	100
2025-3-27 17:48:27.863	WT901BLE68-01(48591DE3C19B)	-0.500	-1.036	0.016	8.911	-7.996	-49.927	-83.25	-9.59	-5.95	-4.802	-32.928	42.434	-0.72485	0.68414	0.00784	-0.07980	30.4	13111	100
2025-3-27 17:48:27.863	WT901BLE68-01(48591DE3C19B)	-0.500	-0.977	0.088	10.925	-46.875	-60.791	-83.25	-9.98	-5.64	-4.802	-32.928	42.434	-0.72485	0.68414	0.00784	-0.07980	30.4	13111	100
2025-3-27 17:48:27.928	WT901BLE68-01(48591DE3C19B)	-0.438	-0.977	0.088	10.925	-46.875	-60.791	-83.28	-10.44	-5.13	-4.802	-32.928	42.434	-0.72485	0.68414	0.00784	-0.07980	30.4	13111	100
2025-3-27 17:48:27.929	WT901BLE68-01(48591DE3C19B)	-0.438	-0.918	0.163	11.230	-70.374	-72.021	-83.33	-10.96	-4.52	-4.802	-32.928	42.434	-0.72485	0.68414	0.00784	-0.07980	30.4	13111	100
2025-3-27 17:48:27.929	WT901BLE68-01(48591DE3C19B)	-0.463	-0.918	0.163	11.230	-70.374	-72.021	-83.39	-11.55	-3.79	-4.802	-32.928	42.434	-0.72485	0.68414	0.00784	-0.07980	30.4	13111	100
2025-3-27 17:48:27.929	WT901BLE68-01(48591DE3C19B)	-0.463	-0.919	0.213	10.376	-85.510	-81.116	-83.47	-12.19	-2.99	-4.802	-32.928	42.434	-0.72485	0.68414	0.00784	-0.07980	30.4	13111	100
2025-3-27 17:48:27.983	WT901BLE68-01(48591DE3C19B)	-0.451	-0.919	0.213	10.376	-85.510	-81.116	-83.58	-12.88	-2.13	-4.802	-32.928	42.434	-0.72485	0.68414	0.00784	-0.07980	30.4	13111	100
2025-3-27 17:48:27.983	WT901BLE68-01(48591DE3C19B)	-0.451	-0.950	0.257	11.597	-92.041	-86.731	-83.69	-13.58	-1.24	-4.802	-32.928	42.434	-0.72485	0.68414	0.00784	-0.07980	30.4	13111	100
2025-3-27 17:48:27.984	WT901BLE68-01(48591DE3C19B)	-0.410	-0.950	0.257	11.597	-92.041	-86.731	-83.81	-14.32	-0.32	-4.802	-32.928	42.434	-0.72485	0.68414	0.00784	-0.07980	30.4	13111	100
2025-3-27 17:48:27.984	WT901BLE68-01(48591DE3C19B)	-0.410	-0.969	0.279	18.372	-82.153	-86.609	-83.89	-15.04	0.54	-4.802	-32.928	42.434	-0.72485	0.68414	0.00784	-0.07980	30.4	13111	100
2025-3-27 17:48:28.12	WT901BLE68-01(48591DE3C19B)	-0.358	-0.969	0.279	18.372	-82.153	-86.609	-83.91	-15.75	1.35	-4.802	-32.928	42.434	-0.72485	0.68414	0.00784	-0.07980	30.4	13111	100
2025-3-27 17:48:28.12	WT901BLE68-01(48591DE3C19B)	-0.358	-0.897	0.198	25.452	-55.237	-80.383	-83.87	-16.41	2.02	-4.802	-32.928	42.434	-0.72485	0.68414	0.00784	-0.07980	30.4	13111	100
2025-3-27 17:48:28.12	WT901BLE68-01(48591DE3C19B)	-0.297	-0.897	0.198	25.452	-55.237	-80.383	-83.76	-17.03	2.54	-4.802	-32.928	42.434	-0.72485	0.68414	0.00784	-0.07980	30.4	13111	100
2025-3-27 17:48:28.12	WT901BLE68-01(48591DE3C19B)	-0.297	-0.949	0.059	15.442	-12.634	-66.711	-83.63	-17.56	2.85	-4.802	-32.928	42.434	-0.72485	0.68414	0.00784	-0.07980	30.4	13111	100
2025-3-27 17:48:28.43	WT901BLE68-01(48591DE3C19B)	-0.285	-0.949	0.059	15.442	-12.634	-66.711	-83.49	-17.99	2.92	-4.802	-32.928	42.434	-0.72485	0.68414	0.00784	-0.07980	30.4	13111	100
2025-3-27 17:48:28.43	WT901BLE68-01(48591DE3C19B)	-0.285	-1.493	-0.156	-4.822	27.832	-42.053	-83.39	-18.28	2.79	-4.802	-32.928	42.434	-0.73944	0.65356	0.13416	0.08914	30.4	13111	100
2025-3-27 17:48:28.43	WT901BLE68-01(48591DE3C19B)	-0.379	-1.493	-0.156	-4.822	27.832	-42.053	-83.34	-18.44	2.46	-4.802	-32.928	42.434	-0.73944	0.65356	0.13416	0.08914	30.4	13111	100
2025-3-27 17:48:28.43	WT901BLE68-01(48591DE3C19B)	-0.379	-1.513	-0.083	9.644	46.021	-8.057	-83.20	-18.41	2.03	-4.802	-32.928	42.434	-0.73944	0.65356	0.13416	0.08914	30.4	13111	100
2025-3-27 17:48:28.73	WT901BLE68-01(48591DE3C19B)	-0.429	-1.513	-0.083	9.644	46.021	-8.057	-82.97	-18.22	1.53	-4.802	-32.928	42.434	-0.73944	0.65356	0.13416	0.08914	30.4	13111	100
2025-3-27 17:48:28.74	WT901BLE68-01(48591DE3C19B)	-0.429	-0.892	0.252	-3.540	15.137	50.232	-82.99	-17.48	1.43	-4.802	-32.928	42.434	-0.73944	0.65356	0.13416	0.08914	30.4	13111	100
2025-3-27 17:48:28.74	WT901BLE68-01(48591DE3C19B)	-0.271	-0.892	0.252	-3.540	15.137	50.232	-83.01	-16.75	1.33	-4.802	-32.928	42.434	-0.73944	0.65356	0.13416	0.08914	30.4	13111	100
2025-3-27 17:48:28.74	WT901BLE68-01(48591DE3C19B)	-0.271	-0.750	0.488	-38.391	-58.777	98.206	-83.59	-15.63	2.05	-4.802	-32.928	42.434	-0.73944	0.65356	0.13416	0.08914	30.4	13111	100
2025-3-27 17:48:28.102	WT901BLE68-01(48591DE3C19B)	-0.064	-0.750	0.488	-38.391	-58.777	98.206	-84.14	-14.51	2.74	-4.802	-32.928	42.434	-0.73944	0.65356	0.13416	0.08914	30.4	13111	100
2025-3-27 17:48:28.102	WT901BLE68-01(48591DE3C19B)	-0.064	-0.957	0.552	-51.636	-114.197	139.526	-84.93	-13.04	4.02	-4.802	-32.928	42.434	-0.73944	0.65356	0.13416	0.08914	30.4	13111	100
2025-3-27 17:48:28.102	WT901BLE68-01(48591DE3C19B)	0.094	-0.957	0.552	-51.636	-114.197	139.526	-85.66	-11.57	5.25	-4.802	-32.928	42.434	-0.73944	0.65356	0.13416	0.08914	30.4	13111	100
2025-3-27 17:48:28.102	WT901BLE68-01(48591DE3C19B)	0.094	-0.978	0.470	-43.945	-132.446	170.410	-86.30	-9.82	6.65	-4.802	-32.928	42.434	-0.73944	0.65356	0.13416	0.08914	30.4	13111	100
2025-3-27 17:48:28.163	WT901BLE68-01(48591DE3C19B)	-0.053	-0.978	0.470	-43.945	-132.446	170.410	-86.87	-8.07	8.00	-4.802	-32.928	42.434	-0.73944	0.65356	0.13416	0.08914	30.4	13111	100
2025-3-27 17:48:28.163	WT901BLE68-01(48591DE3C19B)	-0.053	-0.891	0.333	-32.410	-126.770	196.228	-87.28	-6.08	9.27	-4.802	-32.928	42.434	-0.73944	0.65356	0.13416	0.08914	30.4	13111	100
2025-3-27 17:48:28.163	WT901BLE68-01(48591DE3C19B)	-0.301	-0.891	0.333	-32.410	-126.770	196.228	-87.62	-4.09	10.50	-4.802	-32.928	42.434	-0.73944	0.65356	0.13416	0.08914	30.4	13111	100
2025-3-27 17:48:28.163	WT901BLE68-01(48591DE3C19B)	-0.301	-0.933	0.178	-21.729	-105.469	198.425	-87.80	-2.08	11.51	-4.802	-32.928	42.434	-0.73944	0.65356	0.13416	0.08914	30.4	13111	100
2025-3-27 17:48:28.227	WT901BLE68-01(48591DE3C19B)	-0.450	-0.933	0.178	-21.729	-105.469	198.425	-87.95	-0.08	12.51	-4.802	-32.928	42.434	-0.73944	0.65356	0.13416	0.08914	30.4	13111	100
2025-3-27 17:48:28.228	WT901BLE68-01(48591DE3C19B)	-0.450	-1.145	0.169	-13.672	-89.722	190.674	-87.98	1.85	13.34	-4.802	-32.928	42.434	-0.73944	0.65356	0.13416	0.08914	30.4	13111	100
2025-3-27 17:48:28.228	WT901BLE68-01(48591DE3C19B)	-0.334	-1.145	0.169	-13.672	-89.722	190.674	-87.99	3.77	14.17	-4.802	-32.928	42.434	-0.73944	0.65356	0.13416	0.08914	30.4	13111	100
2025-3-27 17:48:28.228	WT901BLE68-01(48591DE3C19B)	-0.334	-1.234	0.173	0.000	-109.985	178.711	-87.82	5.56	15.21	-4.802	-32.928	42.434	-0.73944	0.65356	0.13416	0.08914	30.4	13111	100
2025-3-27 17:48:28.252	WT901BLE68-01(48591DE3C19B)	-0.178	-1.234	0.173	0.000	-109.985	178.711	-87.62	7.33	16.24	-4.802	-32.928	42.434	-0.73944	0.65356	0.13416	0.08914	30.4	13111	100
2025-3-27 17:48:28.253	WT901BLE68-01(48591DE3C19B)	-0.178	-1.249	0.212	13.245	-124.817	175.171	-87.23	9.05	17.41	-4.802	-32.928	42.434	-0.73944	0.65356	0.13416	0.08914	30.4	13111	100
2025-3-27 17:48:28.253	WT901BLE68-01(48591DE3C19B)	-0.201	-1.249	0.212	13.245	-124.817	175.171	-86.80	10.73	18.58	-13.916	-34.300	26.754	-0.73944	0.65356	0.13416	0.08914	30.4	13111	100
2025-3-27 17:48:28.253	WT901BLE68-01(48591DE3C19B)	-0.201	-1.262	0.239	25.269	-128.479	174.011	-86.22	12.38	19.79	-13.916	-34.300	26.754	-0.73944	0.65356	0.13416	0.08914	30.4	13111	100
2025-3-27 17:48:28.282	WT901BLE68-01(48591DE3C19B)	-0.303	-1.262	0.239	25.269	-128.479	174.011	-85.59	14.01	21.01	-13.916	-34.300	26.754	-0.73944	0.65356	0.13416	0.08914	30.4	13111	100
2025-3-27 17:48:28.282	WT901BLE68-01(48591DE3C19B)	-0.303	-1.337	0.223	35.095	-146.118	177.246	-84.79	15.62	22.41	-13.916	-34.300	26.754	-0.73944	0.65356	0.13416	0.08914	30.4	13111	100
2025-3-27 17:48:28.282	WT901BLE68-01(48591DE3C19B)	-0.268	-1.337	0.223	35.095	-146.118	177.246	-83.94	17.20	23.83	-13.916	-34.300	26.754	-0.73944	0.65356	0.13416	0.08914	30.4	13111	100
2025-3-27 17:48:28.282	WT901BLE68-01(48591DE3C19B)	-0.268	-1.484	0.185	45.654	-167.114	178.040	-82.88	18.74	25.48	-13.916	-34.300	26.754	-0.73944	0.65356	0.13416	0.08914	30.4	13111	100
2025-3-27 17:48:28.404	WT901BLE68-01(48591DE3C19B)	-0.054	-1.484	0.185	45.654	-167.114	178.040	-81.75	20.23	27.16	-13.916	-34.300	26.754	-0.73944	0.65356	0.13416	0.08914	30.4	13111	100
2025-3-27 17:48:28.404	WT901BLE68-01(48591DE3C19B)	-0.054	-1.549	0.118	62.317	-152.588	182.190	-80.48	21.74	28.70	-13.916	-34.300	26.754	-0.73944	0.65356	0.13416	0.08914	30.4	13111	100
2025-3-27 17:48:28.404	WT901BLE68-01(48591DE3C19B)	0.041	-1.549	0.118	62.317	-152.588	182.190	-79.16	23.20	30.25	-13.916	-34.300	26.754	-0.73944	0.65356	0.13416	0.08914	30.4	13111	100
2025-3-27 17:48:28.404	WT901BLE68-01(48591DE3C19B)	0.041	-1.436	0.105	74.341	-104.126	187.439	-77.87	24.77	31.32	-13.916	-34.300	26.754	-0.73944	0.65356	0.13416	0.08914	30.4	13111	100
2025-3-27 17:48:28.405	WT901BLE68-01(48591DE3C19B)	-0.005	-1.436	0.105	74.341	-104.126	187.439	-76.55	26.31	32.42	-13.916	-34.300	26.754	-0.73944	0.65356	0.13416	0.08914	30.4	13111	100
2025-3-27 17:48:28.405	WT901BLE68-01(48591DE3C19B)	-0.005	-1.344	0.131	70.496	-53.589	190.063	-75.47	27.95	33.01	-13.916	-34.300	26.754	-0.73944	0.65356	0.13416	0.08914	30.4	13111	100
2025-3-27 17:48:28.405	WT901BLE68-01(48591DE3C19B)	-0.108	-1.344	0.131	70.496	-53.589	190.063	-74.35	29.59	33.62	-13.916	-34.300	26.754	-0.73944	0.65356	0.13416	0.08914	30.4	13111	100
2025-3-27 17:48:28.405	WT901BLE68-01(48591DE3C19B)	-0.108	-1.370	0.212	63.721	-21.057	189.453	-73.45	31.28	33.91	-13.916	-34.300	26.754	-0.73944	0.65356	0.13416	0.08914	30.4	13111	100
2025-3-27 17:48:28.405	WT901BLE68-01(48591DE3C19B)	-0.200	-1.370	0.212	63.721	-21.057	189.453	-72.52	32.96	34.22	-13.916	-34.300	26.754	-0.73944	0.65356	0.13416	0.08914	30.4	13111	100
2025-3-27 17:48:28.405	WT901BLE68-01(48591DE3C19B)	-0.200	-1.414	0.287	59.570	-5.432	187.439	-71.70	34.66	34.38	-13.916	-34.300	26.754	-0.73944	0.65356	0.13416	0.08914	30.4	13111	100
2025-3-27 17:48:28.405	WT901BLE68-01(48591DE3C19B)	-0.207	-1.414	0.287	59.570	-5.432	187.439	-70.85	36.35	34.56	-13.916	-34.300	26.754	-0.73944	0.65356	0.13416	0.08914	30.4	13111	100
2025-3-27 17:48:28.405	WT901BLE68-01(48591DE3C19B)	-0.207	-1.409	0.277	58.044	6.104	184.998	-70.08	38.05	34.62	-13.916	-34.300	26.754	-0.73944	0.65356	0.13416	0.08914	30.4	13111	100
2025-3-27 17:48:28.493	WT901BLE68-01(48591DE3C19B)	-0.182	-1.409	0.277	58.044	6.104	184.998	-69.27	39.74	34.72	-13.916	-34.300	26.754	-0.73944	0.65356	0.13416	0.08914	30.4	13111	100
2025-3-27 17:48:28.493	WT901BLE68-01(48591DE3C19B)	-0.182	-1.305	0.192	57.861	20.935	182.434	-68.56	41.44	34.66	-13.916	-34.300	26.754	-0.73944	0.65356	0.13416	0.08914	30.4	13111	100
2025-3-27 17:48:28.493	WT901BLE68-01(48591DE3C19B)	-0.175	-1.305	0.192	57.861	20.935	182.434	-67.82	43.14	34.62	-13.916	-34.300	26.754	-0.73944	0.65356	0.13416	0.08914	30.4	13111	100
2025-3-27 17:48:28.493	WT901BLE68-01(48591DE3C19B)	-0.175	-1.194	0.100	52.795	34.790	178.162	-67.26	44.85	34.42	-13.916	-34.300	26.754	-0.67267	0.58298	-0.15189	-0.42950	30.4	13111	100
2025-3-27 17:48:28.494	WT901BLE68-01(48591DE3C19B)	-0.184	-1.194	0.100	52.795	34.790	178.162	-66.67	46.54	34.24	-13.916	-34.300	26.754	-0.67267	0.58298	-0.15189	-0.42950	30.4	13111	100
2025-3-27 17:48:28.494	WT901BLE68-01(48591DE3C19B)	-0.184	-1.128	0.051	45.471	38.208	171.570	-66.20	48.19	34.01	-13.916	-34.300	26.754	-0.67267	0.58298	-0.15189	-0.42950	30.4	13111	100
2025-3-27 17:48:28.494	WT901BLE68-01(48591DE3C19B)	-0.177	-1.128	0.051	45.471	38.208	171.570	-65.72	49.82	33.79	-13.916	-34.300	26.754	-0.67267	0.58298	-0.15189	-0.42950	30.4	13111	100
2025-3-27 17:48:28.494	WT901BLE68-01(48591DE3C19B)	-0.177	-1.078	0.052	37.415	33.020	163.269	-65.29	51.36	33.62	-13.916	-34.300	26.754	-0.67267	0.58298	-0.15189	-0.42950	30.4	13111	100
2025-3-27 17:48:28.529	WT901BLE68-01(48591DE3C19B)	-0.168	-1.078	0.052	37.415	33.020	163.269	-64.84	52.88	33.48	-13.916	-34.300	26.754	-0.67267	0.58298	-0.15189	-0.42950	30.4	13111	100
2025-3-27 17:48:28.529	WT901BLE68-01(48591DE3C19B)	-0.168	-1.039	0.077	29.358	25.574	153.015	-64.41	54.28	33.39	-13.916	-34.300	26.754	-0.67267	0.58298	-0.15189	-0.42950	30.4	13111	100
2025-3-27 17:48:28.529	WT901BLE68-01(48591DE3C19B)	-0.169	-1.039	0.077	29.358	25.574	153.015	-63.97	55.67	33.33	-13.916	-34.300	26.754	-0.67267	0.58298	-0.15189	-0.42950	30.4	13111	100
2025-3-27 17:48:28.529	WT901BLE68-01(48591DE3C19B)	-0.164	-0.991	0.106	21.484	18.372	140.991	-63.57	56.91	33.31	-13.916	-34.300	26.754	-0.67267	0.58298	-0.15189	-0.42950	30.4	13111	100
2025-3-27 17:48:28.552	WT901BLE68-01(48591DE3C19B)	-0.164	-0.917	0.143	14.221	13.977	126.892	-63.21	58.07	33.28	-13.916	-34.300	26.754	-0.67267	0.58298	-0.15189	-0.42950	30.4	13111	100
2025-3-27 17:48:28.553	WT901BLE68-01(48591DE3C19B)	-0.168	-0.917	0.143	14.221	13.977	126.892	-62.88	59.16	33.24	-13.916	-34.300	26.754	-0.67267	0.58298	-0.15189	-0.42950	30.4	13111	100
2025-3-27 17:48:28.553	WT901BLE68-01(48591DE3C19B)	-0.168	-0.840	0.166	6.287	9.949	110.596	-62.61	60.16	33.18	-13.916	-34.300	26.754	-0.67267	0.58298	-0.15189	-0.42950	30.4	13111	100
2025-3-27 17:48:28.553	WT901BLE68-01(48591DE3C19B)	-0.161	-0.840	0.166	6.287	9.949	110.596	-62.40	61.08	33.09	-13.916	-34.300	26.754	-0.67267	0.58298	-0.15189	-0.42950	30.4	13111	100
2025-3-27 17:48:28.583	WT901BLE68-01(48591DE3C19B)	-0.161	-0.754	0.197	-0.061	6.348	93.628	-62.25	61.91	32.96	-13.916	-34.300	26.754	-0.67267	0.58298	-0.15189	-0.42950	30.4	13111	100
2025-3-27 17:48:28.583	WT901BLE68-01(48591DE3C19B)	-0.157	-0.754	0.197	-0.061	6.348	93.628	-62.17	62.66	32.77	-13.916	-34.300	26.754	-0.67267	0.58298	-0.15189	-0.42950	30.4	13111	100
2025-3-27 17:48:28.583	WT901BLE68-01(48591DE3C19B)	-0.157	-0.687	0.217	-6.897	2.502	76.904	-62.16	63.31	32.54	-13.916	-34.300	26.754	-0.67267	0.58298	-0.15189	-0.42950	30.4	13111	100
2025-3-27 17:48:28.583	WT901BLE68-01(48591DE3C19B)	-0.132	-0.687	0.217	-6.897	2.502	76.904	-62.23	63.89	32.24	-13.916	-34.300	26.754	-0.67267	0.58298	-0.15189	-0.42950	30.4	13111	100
2025-3-27 17:48:28.643	WT901BLE68-01(48591DE3C19B)	-0.132	-0.655	0.214	-13.611	2.197	58.838	-62.42	64.39	31.84	-13.916	-34.300	26.754	-0.67267	0.58298	-0.15189	-0.42950	30.4	13111	100
2025-3-27 17:48:28.643	WT901BLE68-01(48591DE3C19B)	-0.118	-0.655	0.214	-13.611	2.197	58.838	-62.73	64.80	31.34	-44.688	-69.286	20.188	-0.67267	0.58298	-0.15189	-0.42950	30.4	13111	100
2025-3-27 17:48:28.643	WT901BLE68-01(48591DE3C19B)	-0.118	-0.643	0.190	-20.142	5.798	40.222	-63.21	65.14	30.68	-44.688	-69.286	20.188	-0.67267	0.58298	-0.15189	-0.42950	30.4	13111	100
2025-3-27 17:48:28.643	WT901BLE68-01(48591DE3C19B)	-0.105	-0.643	0.190	-20.142	5.798	40.222	-63.85	65.40	29.87	-44.688	-69.286	20.188	-0.67267	0.58298	-0.15189	-0.42950	30.4	13111	100
2025-3-27 17:48:28.672	WT901BLE68-01(48591DE3C19B)	-0.105	-0.630	0.197	-24.963	10.071	19.592	-64.67	65.58	28.89	-44.688	-69.286	20.188	-0.67267	0.58298	-0.15189	-0.42950	30.4	13111	100
2025-3-27 17:48:28.673	WT901BLE68-01(48591DE3C19B)	-0.099	-0.630	0.197	-24.963	10.071	19.592	-65.67	65.67	27.74	-44.688	-69.286	20.188	-0.67267	0.58298	-0.15189	-0.42950	30.4	13111	100
2025-3-27 17:48:28.673	WT901BLE68-01(48591DE3C19B)	-0.099	-0.603	0.201	-28.503	15.381	-2.991	-66.82	65.65	26.42	-44.688	-69.286	20.188	-0.67267	0.58298	-0.15189	-0.42950	30.4	13111	100
2025-3-27 17:48:28.673	WT901BLE68-01(48591DE3C19B)	-0.106	-0.603	0.201	-28.503	15.381	-2.991	-68.15	65.53	24.93	-44.688	-69.286	20.188	-0.67267	0.58298	-0.15189	-0.42950	30.4	13111	100
2025-3-27 17:48:28.732	WT901BLE68-01(48591DE3C19B)	-0.106	-0.554	0.193	-31.860	21.118	-27.344	-69.63	65.30	23.29	-44.688	-69.286	20.188	-0.67267	0.58298	-0.15189	-0.42950	30.4	13111	100
2025-3-27 17:48:28.732	WT901BLE68-01(48591DE3C19B)	-0.124	-0.554	0.193	-31.860	21.118	-27.344	-71.22	64.95	21.52	-44.688	-69.286	20.188	-0.67267	0.58298	-0.15189	-0.42950	30.4	13111	100
2025-3-27 17:48:28.732	WT901BLE68-01(48591DE3C19B)	-0.124	-0.557	0.180	-37.842	23.621	-55.420	-72.92	64.45	19.68	-44.688	-69.286	20.188	-0.67267	0.58298	-0.15189	-0.42950	30.4	13111	100
2025-3-27 17:48:28.732	WT901BLE68-01(48591DE3C19B)	-0.151	-0.557	0.180	-37.842	23.621	-55.420	-74.67	63.80	17.78	-44.688	-69.286	20.188	-0.67267	0.58298	-0.15189	-0.42950	30.4	13111	100
2025-3-27 17:48:28.762	WT901BLE68-01(48591DE3C19B)	-0.151	-0.638	0.204	-42.114	22.766	-88.806	-76.42	62.98	15.90	-44.688	-69.286	20.188	-0.67267	0.58298	-0.15189	-0.42950	30.4	13111	100
2025-3-27 17:48:28.762	WT901BLE68-01(48591DE3C19B)	-0.197	-0.638	0.204	-42.114	22.766	-88.806	-78.15	61.97	14.06	-44.688	-69.286	20.188	-0.67267	0.58298	-0.15189	-0.42950	30.4	13111	100
2025-3-27 17:48:28.763	WT901BLE68-01(48591DE3C19B)	-0.197	-0.744	0.250	-41.809	15.991	-125.549	-79.74	60.75	12.33	-44.688	-69.286	20.188	-0.67267	0.58298	-0.15189	-0.42950	30.4	13111	100
2025-3-27 17:48:28.763	WT901BLE68-01(48591DE3C19B)	-0.220	-0.744	0.250	-41.809	15.991	-125.549	-81.21	59.34	10.74	-44.688	-69.286	20.188	-0.67267	0.58298	-0.15189	-0.42950	30.4	13111	100
2025-3-27 17:48:28.828	WT901BLE68-01(48591DE3C19B)	-0.220	-0.815	0.278	-37.415	9.277	-163.879	-82.51	57.73	9.29	-44.688	-69.286	20.188	-0.67267	0.58298	-0.15189	-0.42950	30.4	13111	100
2025-3-27 17:48:28.828	WT901BLE68-01(48591DE3C19B)	-0.189	-0.815	0.278	-37.415	9.277	-163.879	-83.64	55.91	7.98	-44.688	-69.286	20.188	-0.67267	0.58298	-0.15189	-0.42950	30.4	13111	100
2025-3-27 17:48:28.828	WT901BLE68-01(48591DE3C19B)	-0.095	-0.876	0.267	-33.813	12.878	-201.599	-84.69	53.90	6.71	-44.688	-69.286	20.188	-0.67267	0.58298	-0.15189	-0.42950	30.4	13111	100
2025-3-27 17:48:28.828	WT901BLE68-01(48591DE3C19B)	-0.187	-0.438	0.133	-33.813	12.878	-201.599	-85.67	51.71	5.51	-44.688	-69.286	20.188	-0.67267	0.58298	-0.15189	-0.42950	30.4	13111	100
2025-3-27 17:48:28.853	WT901BLE68-01(48591DE3C19B)	-0.187	-0.981	0.230	-29.846	26.733	-237.244	-86.61	49.34	4.28	-44.688	-69.286	20.188	-0.67267	0.58298	-0.15189	-0.42950	30.4	13111	100
2025-3-27 17:48:28.853	WT901BLE68-01(48591DE3C19B)	-0.209	-0.981	0.230	-29.846	26.733	-237.244	-87.51	46.80	3.07	-44.688	-69.286	20.188	-0.65771	0.64597	-0.26447	-0.28296	30.4	13111	100
2025-3-27 17:48:28.853	WT901BLE68-01(48591DE3C19B)	-0.209	-1.129	0.198	-24.841	43.701	-270.691	-88.37	44.08	1.82	-44.688	-69.286	20.188	-0.65771	0.64597	-0.26447	-0.28296	30.4	13111	100
2025-3-27 17:48:28.853	WT901BLE68-01(48591DE3C19B)	-0.225	-1.129	0.198	-24.841	43.701	-270.691	-89.18	41.21	0.59	-44.688	-69.286	20.188	-0.65771	0.64597	-0.26447	-0.28296	30.4	13111	100
2025-3-27 17:48:28.882	WT901BLE68-01(48591DE3C19B)	-0.225	-1.319	0.192	-19.165	62.073	-300.110	-89.93	38.19	-0.65	-44.688	-69.286	20.188	-0.65771	0.64597	-0.26447	-0.28296	30.4	13111	100
2025-3-27 17:48:28.882	WT901BLE68-01(48591DE3C19B)	-0.238	-1.319	0.192	-19.165	62.073	-300.110	-90.62	35.02	-1.90	-44.688	-69.286	20.188	-0.65771	0.64597	-0.26447	-0.28296	30.4	13111	100
2025-3-27 17:48:28.882	WT901BLE68-01(48591DE3C19B)	-0.238	-1.535	0.221	-11.475	83.313	-322.937	-91.24	31.74	-3.16	-44.688	-69.286	20.188	-0.65771	0.64597	-0.26447	-0.28296	30.4	13111	100
2025-3-27 17:48:28.882	WT901BLE68-01(48591DE3C19B)	-0.245	-1.535	0.221	-11.475	83.313	-322.937	-91.80	28.36	-4.44	-44.688	-69.286	20.188	-0.65771	0.64597	-0.26447	-0.28296	30.4	13111	100
2025-3-27 17:48:28.942	WT901BLE68-01(48591DE3C19B)	-0.245	-1.723	0.195	-1.221	111.816	-339.783	-92.27	24.90	-5.77	-44.688	-69.286	20.188	-0.65771	0.64597	-0.26447	-0.28296	30.4	13111	100
2025-3-27 17:48:28.942	WT901BLE68-01(48591DE3C19B)	-0.297	-1.723	0.195	-1.221	111.816	-339.783	-92.66	21.35	-7.17	-44.688	-69.286	20.188	-0.65771	0.64597	-0.26447	-0.28296	30.4	13111	100
2025-3-27 17:48:28.942	WT901BLE68-01(48591DE3C19B)	-0.297	-1.853	0.161	10.376	144.714	-350.098	-92.97	17.76	-8.64	-44.688	-69.286	20.188	-0.65771	0.64597	-0.26447	-0.28296	30.4	13111	100
2025-3-27 17:48:28.942	WT901BLE68-01(48591DE3C19B)	-0.371	-1.853	0.161	10.376	144.714	-350.098	-93.16	14.13	-10.20	-44.688	-69.286	20.188	-0.65771	0.64597	-0.26447	-0.28296	30.4	13111	100
2025-3-27 17:48:29.3	WT901BLE68-01(48591DE3C19B)	-0.371	-1.974	0.122	20.447	179.077	-355.103	-93.25	10.49	-11.87	-44.688	-69.286	20.188	-0.65771	0.64597	-0.26447	-0.28296	30.4	13111	100
2025-3-27 17:48:29.3	WT901BLE68-01(48591DE3C19B)	-0.479	-1.974	0.122	20.447	179.077	-355.103	-93.22	6.84	-13.63	-44.688	-69.286	20.188	-0.65771	0.64597	-0.26447	-0.28296	30.4	13111	100
2025-3-27 17:48:29.4	WT901BLE68-01(48591DE3C19B)	-0.479	-2.048	0.122	34.180	206.665	-350.891	-93.03	3.23	-15.49	-44.688	-69.286	20.188	-0.65771	0.64597	-0.26447	-0.28296	30.4	13111	100
2025-3-27 17:48:29.4	WT901BLE68-01(48591DE3C19B)	-0.603	-2.048	0.122	34.180	206.665	-350.891	-92.68	-0.32	-17.46	-44.688	-69.286	20.188	-0.65771	0.64597	-0.26447	-0.28296	30.4	13111	100
2025-3-27 17:48:29.4	WT901BLE68-01(48591DE3C19B)	-0.603	-2.016	0.158	49.927	216.553	-336.121	-92.13	-3.76	-19.48	-44.688	-69.286	20.188	-0.65771	0.64597	-0.26447	-0.28296	30.4	13111	100
2025-3-27 17:48:29.4	WT901BLE68-01(48591DE3C19B)	-0.725	-2.016	0.158	49.927	216.553	-336.121	-91.38	-7.09	-21.57	-44.688	-69.286	20.188	-0.65771	0.64597	-0.26447	-0.28296	30.4	13111	100
2025-3-27 17:48:29.4	WT901BLE68-01(48591DE3C19B)	-0.725	-1.896	0.162	64.514	205.933	-308.716	-90.40	-10.07	-23.58	-44.688	-69.286	20.188	-0.65771	0.64597	-0.26447	-0.28296	30.4	13111	100
2025-3-27 17:48:29.4	WT901BLE68-01(48591DE3C19B)	-0.779	-1.896	0.162	64.514	205.933	-308.716	-89.30	-13.00	-25.64	-44.688	-69.286	20.188	-0.65771	0.64597	-0.26447	-0.28296	30.4	13111	100
2025-3-27 17:48:29.63	WT901BLE68-01(48591DE3C19B)	-0.779	-1.719	0.118	74.402	180.176	-273.071	-88.08	-15.51	-27.49	-44.688	-69.286	20.188	-0.65771	0.64597	-0.26447	-0.28296	30.4	13111	100
2025-3-27 17:48:29.63	WT901BLE68-01(48591DE3C19B)	-0.735	-1.719	0.118	74.402	180.176	-273.071	-86.76	-17.96	-29.40	-44.688	-69.286	20.188	-0.65771	0.64597	-0.26447	-0.28296	30.4	13111	100
2025-3-27 17:48:29.63	WT901BLE68-01(48591DE3C19B)	-0.735	-1.520	0.048	76.294	155.273	-229.187	-85.45	-19.93	-31.10	-15.974	-25.872	34.104	-0.65771	0.64597	-0.26447	-0.28296	30.4	13111	100
2025-3-27 17:48:29.63	WT901BLE68-01(48591DE3C19B)	-0.710	-1.520	0.048	76.294	155.273	-229.187	-84.06	-21.85	-32.84	-15.974	-25.872	34.104	-0.65771	0.64597	-0.26447	-0.28296	30.4	13111	100
2025-3-27 17:48:29.92	WT901BLE68-01(48591DE3C19B)	-0.710	-1.343	0.060	73.303	120.911	-184.875	-82.80	-23.31	-34.22	-15.974	-25.872	34.104	-0.65771	0.64597	-0.26447	-0.28296	30.4	13111	100
2025-3-27 17:48:29.92	WT901BLE68-01(48591DE3C19B)	-0.674	-1.343	0.060	73.303	120.911	-184.875	-81.50	-24.73	-35.65	-15.974	-25.872	34.104	-0.65771	0.64597	-0.26447	-0.28296	30.4	13111	100
2025-3-27 17:48:29.92	WT901BLE68-01(48591DE3C19B)	-0.674	-1.275	0.082	64.148	61.829	-145.691	-80.56	-25.82	-36.41	-15.974	-25.872	34.104	-0.65771	0.64597	-0.26447	-0.28296	30.4	13111	100
2025-3-27 17:48:29.92	WT901BLE68-01(48591DE3C19B)	-0.587	-1.275	0.082	64.148	61.829	-145.691	-79.59	-26.88	-37.19	-15.974	-25.872	34.104	-0.65771	0.64597	-0.26447	-0.28296	30.4	13111	100
2025-3-27 17:48:29.129	WT901BLE68-01(48591DE3C19B)	-0.587	-1.333	0.107	55.115	8.911	-106.873	-79.00	-27.65	-37.33	-15.974	-25.872	34.104	-0.65771	0.64597	-0.26447	-0.28296	30.4	13111	100
2025-3-27 17:48:29.129	WT901BLE68-01(48591DE3C19B)	-0.517	-1.333	0.107	55.115	8.911	-106.873	-78.40	-28.41	-37.49	-15.974	-25.872	34.104	-0.65771	0.64597	-0.26447	-0.28296	30.4	13111	100
2025-3-27 17:48:29.129	WT901BLE68-01(48591DE3C19B)	-0.517	-1.443	0.088	48.767	-21.057	-73.547	-78.07	-28.89	-37.24	-15.974	-25.872	34.104	-0.65771	0.64597	-0.26447	-0.28296	30.4	13111	100
2025-3-27 17:48:29.129	WT901BLE68-01(48591DE3C19B)	-0.495	-1.443	0.088	48.767	-21.057	-73.547	-77.72	-29.38	-37.01	-15.974	-25.872	34.104	-0.65771	0.64597	-0.26447	-0.28296	30.4	13111	100
2025-3-27 17:48:29.152	WT901BLE68-01(48591DE3C19B)	-0.495	-1.470	0.003	47.363	-27.344	-49.988	-77.46	-29.65	-36.66	-15.974	-25.872	34.104	-0.65771	0.64597	-0.26447	-0.28296	30.4	13111	100
2025-3-27 17:48:29.152	WT901BLE68-01(48591DE3C19B)	-0.454	-1.470	0.003	47.363	-27.344	-49.988	-77.20	-29.92	-36.32	-15.974	-25.872	34.104	-0.65771	0.64597	-0.26447	-0.28296	30.4	13111	100
2025-3-27 17:48:29.153	WT901BLE68-01(48591DE3C19B)	-0.454	-1.355	-0.043	49.072	-16.174	-36.926	-76.87	-30.04	-36.07	-15.974	-25.872	34.104	-0.65771	0.64597	-0.26447	-0.28296	30.4	13111	100
2025-3-27 17:48:29.153	WT901BLE68-01(48591DE3C19B)	-0.469	-1.355	-0.043	49.072	-16.174	-36.926	-76.55	-30.15	-35.83	-15.974	-25.872	34.104	-0.65771	0.64597	-0.26447	-0.28296	30.4	13111	100
2025-3-27 17:48:29.213	WT901BLE68-01(48591DE3C19B)	-0.469	-1.170	-0.037	45.105	-3.906	-27.466	-76.21	-30.15	-35.71	-15.974	-25.872	34.104	-0.65771	0.64597	-0.26447	-0.28296	30.4	13111	100
2025-3-27 17:48:29.213	WT901BLE68-01(48591DE3C19B)	-0.465	-1.170	-0.037	45.105	-3.906	-27.466	-75.88	-30.15	-35.60	-15.974	-25.872	34.104	-0.65771	0.64597	-0.26447	-0.28296	30.4	13111	100
2025-3-27 17:48:29.213	WT901BLE68-01(48591DE3C19B)	-0.465	-0.944	0.005	40.039	0.366	-22.156	-75.58	-30.08	-35.51	-15.974	-25.872	34.104	-0.65771	0.64597	-0.26447	-0.28296	30.4	13111	100
2025-3-27 17:48:29.214	WT901BLE68-01(48591DE3C19B)	-0.421	-0.944	0.005	40.039	0.366	-22.156	-75.28	-30.01	-35.43	-15.974	-25.872	34.104	-0.65771	0.64597	-0.26447	-0.28296	30.4	13111	100
2025-3-27 17:48:29.274	WT901BLE68-01(48591DE3C19B)	-0.421	-0.868	0.036	24.292	4.150	-14.465	-75.13	-29.86	-35.38	-15.974	-25.872	34.104	-0.65771	0.64597	-0.26447	-0.28296	30.4	13111	100
2025-3-27 17:48:29.274	WT901BLE68-01(48591DE3C19B)	-0.355	-0.868	0.036	24.292	4.150	-14.465	-74.98	-29.70	-35.32	-15.974	-25.872	34.104	-0.65771	0.64597	-0.26447	-0.28296	30.4	13111	100
2025-3-27 17:48:29.275	WT901BLE68-01(48591DE3C19B)	-0.355	-1.055	0.007	11.414	12.268	-10.498	-74.92	-29.49	-35.34	-15.974	-25.872	34.104	-0.65771	0.64597	-0.26447	-0.28296	30.4	13111	100
2025-3-27 17:48:29.275	WT901BLE68-01(48591DE3C19B)	-0.316	-1.055	0.007	11.414	12.268	-10.498	-74.86	-29.28	-35.37	-15.974	-25.872	34.104	-0.68579	0.62082	0.01160	0.37949	30.4	13111	100
2025-3-27 17:48:29.275	WT901BLE68-01(48591DE3C19B)	-0.316	-0.935	-0.010	11.719	19.409	-8.240	-74.76	-29.03	-35.47	-15.974	-25.872	34.104	-0.68579	0.62082	0.01160	0.37949	30.4	13111	100
2025-3-27 17:48:29.275	WT901BLE68-01(48591DE3C19B)	-0.324	-0.935	-0.010	11.719	19.409	-8.240	-74.66	-28.78	-35.57	-15.974	-25.872	34.104	-0.68579	0.62082	0.01160	0.37949	30.4	13111	100
2025-3-27 17:48:29.275	WT901BLE68-01(48591DE3C19B)	-0.324	-0.445	0.070	-4.211	15.015	0.793	-74.76	-28.45	-35.60	-15.974	-25.872	34.104	-0.68579	0.62082	0.01160	0.37949	30.4	13111	100
2025-3-27 17:48:29.276	WT901BLE68-01(48591DE3C19B)	-0.430	-0.445	0.070	-4.211	15.015	0.793	-74.86	-28.13	-35.62	-15.974	-25.872	34.104	-0.68579	0.62082	0.01160	0.37949	30.4	13111	100
2025-3-27 17:48:29.332	WT901BLE68-01(48591DE3C19B)	-0.430	-0.188	0.180	-29.663	-15.320	22.522	-75.39	-27.67	-35.24	-15.974	-25.872	34.104	-0.68579	0.62082	0.01160	0.37949	30.4	13111	100
2025-3-27 17:48:29.332	WT901BLE68-01(48591DE3C19B)	-0.502	-0.188	0.180	-29.663	-15.320	22.522	-75.92	-27.19	-34.88	-15.974	-25.872	34.104	-0.68579	0.62082	0.01160	0.37949	30.4	13111	100
2025-3-27 17:48:29.332	WT901BLE68-01(48591DE3C19B)	-0.502	-0.367	0.145	-52.246	-60.425	51.819	-76.91	-26.53	-33.94	-15.974	-25.872	34.104	-0.68579	0.62082	0.01160	0.37949	30.4	13111	100
2025-3-27 17:48:29.332	WT901BLE68-01(48591DE3C19B)	-0.375	-0.367	0.145	-52.246	-60.425	51.819	-77.88	-25.85	-33.02	-15.974	-25.872	34.104	-0.68579	0.62082	0.01160	0.37949	30.4	13111	100
2025-3-27 17:48:29.362	WT901BLE68-01(48591DE3C19B)	-0.375	-0.632	0.032	-67.139	-104.919	92.712	-79.21	-24.84	-31.56	-15.974	-25.872	34.104	-0.68579	0.62082	0.01160	0.37949	30.4	13111	100
2025-3-27 17:48:29.363	WT901BLE68-01(48591DE3C19B)	-0.195	-0.632	0.032	-67.139	-104.919	92.712	-80.50	-23.81	-30.14	-15.974	-25.872	34.104	-0.68579	0.62082	0.01160	0.37949	30.4	13111	100
2025-3-27 17:48:29.363	WT901BLE68-01(48591DE3C19B)	-0.195	-1.030	0.017	-84.778	-147.949	136.841	-82.12	-22.39	-28.23	-15.974	-25.872	34.104	-0.68579	0.62082	0.01160	0.37949	30.4	13111	100
2025-3-27 17:48:29.363	WT901BLE68-01(48591DE3C19B)	-0.068	-1.030	0.017	-84.778	-147.949	136.841	-83.66	-20.94	-26.39	-15.974	-25.872	34.104	-0.68579	0.62082	0.01160	0.37949	30.4	13111	100
2025-3-27 17:48:29.393	WT901BLE68-01(48591DE3C19B)	-0.068	-1.297	-0.043	-75.806	-183.960	173.096	-85.18	-19.15	-24.22	-15.974	-25.872	34.104	-0.68579	0.62082	0.01160	0.37949	30.4	13111	100
2025-3-27 17:48:29.393	WT901BLE68-01(48591DE3C19B)	-0.063	-1.297	-0.043	-75.806	-183.960	173.096	-86.60	-17.33	-22.13	-15.974	-25.872	34.104	-0.68579	0.62082	0.01160	0.37949	30.4	13111	100
2025-3-27 17:48:29.393	WT901BLE68-01(48591DE3C19B)	-0.063	-1.266	0.022	-62.378	-194.336	199.951	-87.82	-15.22	-20.00	-15.974	-25.872	34.104	-0.68579	0.62082	0.01160	0.37949	30.4	13111	100
2025-3-27 17:48:29.393	WT901BLE68-01(48591DE3C19B)	-0.058	-1.266	0.022	-62.378	-194.336	199.951	-88.95	-13.10	-17.94	-15.974	-25.872	34.104	-0.68579	0.62082	0.01160	0.37949	30.4	13111	100
2025-3-27 17:48:29.452	WT901BLE68-01(48591DE3C19B)	-0.058	-1.213	0.157	-51.758	-194.092	212.219	-89.86	-10.84	-15.96	-15.974	-25.872	34.104	-0.68579	0.62082	0.01160	0.37949	30.4	13111	100
2025-3-27 17:48:29.453	WT901BLE68-01(48591DE3C19B)	-0.033	-1.213	0.157	-51.758	-194.092	212.219	-90.68	-8.57	-14.04	-15.484	-15.680	30.674	-0.68579	0.62082	0.01160	0.37949	30.4	13111	100
2025-3-27 17:48:29.453	WT901BLE68-01(48591DE3C19B)	0.002	-1.273	0.347	-37.048	-191.711	215.027	-91.26	-6.28	-12.20	-15.484	-15.680	30.674	-0.68579	0.62082	0.01160	0.37949	30.4	13111	100
2025-3-27 17:48:29.453	WT901BLE68-01(48591DE3C19B)	0.002	-1.389	0.452	-22.156	-166.260	213.318	-91.66	-4.01	-10.54	-15.484	-15.680	30.674	-0.68579	0.62082	0.01160	0.37949	30.4	13111	100
2025-3-27 17:48:29.512	WT901BLE68-01(48591DE3C19B)	0.073	-1.389	0.452	-22.156	-166.260	213.318	-91.90	-1.76	-9.03	-15.484	-15.680	30.674	-0.68579	0.62082	0.01160	0.37949	30.4	13111	100
2025-3-27 17:48:29.512	WT901BLE68-01(48591DE3C19B)	0.073	-1.427	0.374	-3.418	-110.229	210.815	-91.97	0.44	-7.83	-15.484	-15.680	30.674	-0.68579	0.62082	0.01160	0.37949	30.4	13111	100
2025-3-27 17:48:29.512	WT901BLE68-01(48591DE3C19B)	-0.083	-1.427	0.374	-3.418	-110.229	210.815	-91.91	2.60	-6.93	-15.484	-15.680	30.674	-0.68579	0.62082	0.01160	0.37949	30.4	13111	100
2025-3-27 17:48:29.513	WT901BLE68-01(48591DE3C19B)	-0.083	-1.404	0.324	1.648	-70.068	214.966	-91.79	4.75	-6.25	-15.484	-15.680	30.674	-0.68579	0.62082	0.01160	0.37949	30.4	13111	100
2025-3-27 17:48:29.573	WT901BLE68-01(48591DE3C19B)	-0.323	-1.404	0.324	1.648	-70.068	214.966	-91.64	6.90	-5.76	-15.484	-15.680	30.674	-0.68579	0.62082	0.01160	0.37949	30.4	13111	100
2025-3-27 17:48:29.573	WT901BLE68-01(48591DE3C19B)	-0.323	-1.570	0.241	1.648	-86.975	217.529	-91.46	9.05	-5.20	-15.484	-15.680	30.674	-0.68579	0.62082	0.01160	0.37949	30.4	13111	100
2025-3-27 17:48:29.573	WT901BLE68-01(48591DE3C19B)	-0.390	-1.570	0.241	1.648	-86.975	217.529	-91.23	11.20	-4.54	-15.484	-15.680	30.674	-0.68579	0.62082	0.01160	0.37949	30.4	13111	100
2025-3-27 17:48:29.574	WT901BLE68-01(48591DE3C19B)	-0.390	-1.476	0.184	3.174	-158.020	204.956	-90.89	13.28	-3.52	-15.484	-15.680	30.674	-0.68579	0.62082	0.01160	0.37949	30.4	13111	100
2025-3-27 17:48:29.574	WT901BLE68-01(48591DE3C19B)	-0.173	-1.476	0.184	3.174	-158.020	204.956	-90.42	15.29	-2.10	-15.484	-15.680	30.674	-0.68579	0.62082	0.01160	0.37949	30.4	13111	100
2025-3-27 17:48:29.574	WT901BLE68-01(48591DE3C19B)	-0.173	-2.000	0.160	13.184	-202.454	214.417	-89.77	17.33	-0.45	-15.484	-15.680	30.674	-0.68579	0.62082	0.01160	0.37949	30.4	13111	100
2025-3-27 17:48:29.574	WT901BLE68-01(48591DE3C19B)	0.094	-2.000	0.160	13.184	-202.454	214.417	-88.93	19.37	1.45	-15.484	-15.680	30.674	-0.68579	0.62082	0.01160	0.37949	30.4	13111	100
2025-3-27 17:48:29.574	WT901BLE68-01(48591DE3C19B)	0.094	-2.131	0.117	52.917	-181.396	218.933	-87.87	21.40	3.27	-15.484	-15.680	30.674	-0.68579	0.62082	0.01160	0.37949	30.4	13111	100
2025-3-27 17:48:29.603	WT901BLE68-01(48591DE3C19B)	0.166	-2.131	0.117	52.917	-181.396	218.933	-86.58	23.40	5.00	-15.484	-15.680	30.674	-0.68579	0.62082	0.01160	0.37949	30.4	13111	100
2025-3-27 17:48:29.603	WT901BLE68-01(48591DE3C19B)	0.166	-1.883	0.104	67.322	-119.568	218.018	-85.29	25.36	6.44	-15.484	-15.680	30.674	-0.68579	0.62082	0.01160	0.37949	30.4	13111	100
2025-3-27 17:48:29.603	WT901BLE68-01(48591DE3C19B)	0.015	-1.883	0.104	67.322	-119.568	218.018	-84.00	27.30	7.59	-15.484	-15.680	30.674	-0.68579	0.62082	0.01160	0.37949	30.4	13111	100
2025-3-27 17:48:29.603	WT901BLE68-01(48591DE3C19B)	0.015	-1.739	0.069	71.106	-88.135	219.971	-82.73	29.23	8.60	-15.484	-15.680	30.674	-0.68579	0.62082	0.01160	0.37949	30.4	13111	100
2025-3-27 17:48:29.632	WT901BLE68-01(48591DE3C19B)	0.150	-1.739	0.069	71.106	-88.135	219.971	-81.46	31.17	9.49	-15.484	-15.680	30.674	-0.68579	0.62082	0.01160	0.37949	30.4	13111	100
2025-3-27 17:48:29.632	WT901BLE68-01(48591DE3C19B)	0.150	-1.601	0.117	79.407	-66.956	214.600	-80.17	33.06	10.31	-15.484	-15.680	30.674	-0.68579	0.62082	0.01160	0.37949	30.4	13111	100
2025-3-27 17:48:29.632	WT901BLE68-01(48591DE3C19B)	0.149	-1.601	0.117	79.407	-66.956	214.600	-78.85	34.92	11.06	-15.484	-15.680	30.674	-0.71503	0.62531	-0.17230	-0.26065	30.4	13111	100
2025-3-27 17:48:29.632	WT901BLE68-01(48591DE3C19B)	0.149	-1.427	0.206	79.468	-29.175	209.351	-77.61	36.77	11.62	-15.484	-15.680	30.674	-0.71503	0.62531	-0.17230	-0.26065	30.4	13111	100
2025-3-27 17:48:29.726	WT901BLE68-01(48591DE3C19B)	0.008	-1.427	0.206	79.468	-29.175	209.351	-76.46	38.61	12.00	-15.484	-15.680	30.674	-0.71503	0.62531	-0.17230	-0.26065	30.4	13111	100
2025-3-27 17:48:29.727	WT901BLE68-01(48591DE3C19B)	0.008	-1.361	0.225	73.242	7.751	206.787	-75.46	40.46	12.20	-15.484	-15.680	30.674	-0.71503	0.62531	-0.17230	-0.26065	30.4	13111	100
2025-3-27 17:48:29.727	WT901BLE68-01(48591DE3C19B)	-0.043	-1.361	0.225	73.242	7.751	206.787	-74.60	42.34	12.19	-15.484	-15.680	30.674	-0.71503	0.62531	-0.17230	-0.26065	30.4	13111	100
2025-3-27 17:48:29.727	WT901BLE68-01(48591DE3C19B)	-0.043	-1.313	0.172	67.871	34.424	201.294	-73.87	44.21	12.04	-15.484	-15.680	30.674	-0.71503	0.62531	-0.17230	-0.26065	30.4	13111	100
2025-3-27 17:48:29.727	WT901BLE68-01(48591DE3C19B)	-0.025	-1.313	0.172	67.871	34.424	201.294	-73.27	46.09	11.73	-15.484	-15.680	30.674	-0.71503	0.62531	-0.17230	-0.26065	30.4	13111	100
2025-3-27 17:48:29.727	WT901BLE68-01(48591DE3C19B)	-0.025	-1.216	0.123	63.416	55.054	191.833	-72.80	47.94	11.27	-15.484	-15.680	30.674	-0.71503	0.62531	-0.17230	-0.26065	30.4	13111	100
2025-3-27 17:48:29.727	WT901BLE68-01(48591DE3C19B)	-0.074	-1.216	0.123	63.416	55.054	191.833	-72.48	49.77	10.66	-15.484	-15.680	30.674	-0.71503	0.62531	-0.17230	-0.26065	30.4	13111	100
2025-3-27 17:48:29.727	WT901BLE68-01(48591DE3C19B)	-0.074	-1.095	0.102	54.077	62.195	180.542	-72.27	51.55	9.96	-15.484	-15.680	30.674	-0.71503	0.62531	-0.17230	-0.26065	30.4	13111	100
2025-3-27 17:48:29.752	WT901BLE68-01(48591DE3C19B)	-0.128	-1.095	0.102	54.077	62.195	180.542	-72.20	53.28	9.17	-15.484	-15.680	30.674	-0.71503	0.62531	-0.17230	-0.26065	30.4	13111	100
2025-3-27 17:48:29.752	WT901BLE68-01(48591DE3C19B)	-0.128	-1.007	0.109	43.213	52.673	167.236	-72.16	54.93	8.40	-15.484	-15.680	30.674	-0.71503	0.62531	-0.17230	-0.26065	30.4	13111	100
2025-3-27 17:48:29.753	WT901BLE68-01(48591DE3C19B)	-0.159	-1.007	0.109	43.213	52.673	167.236	-72.17	56.49	7.67	-15.484	-15.680	30.674	-0.71503	0.62531	-0.17230	-0.26065	30.4	13111	100
2025-3-27 17:48:29.753	WT901BLE68-01(48591DE3C19B)	-0.159	-0.955	0.133	32.532	32.593	151.978	-72.14	57.94	7.05	-15.484	-15.680	30.674	-0.71503	0.62531	-0.17230	-0.26065	30.4	13111	100
2025-3-27 17:48:29.813	WT901BLE68-01(48591DE3C19B)	-0.147	-0.955	0.133	32.532	32.593	151.978	-72.05	59.28	6.55	-15.484	-15.680	30.674	-0.71503	0.62531	-0.17230	-0.26065	30.4	13111	100
2025-3-27 17:48:29.813	WT901BLE68-01(48591DE3C19B)	-0.147	-0.905	0.145	26.367	11.719	135.010	-71.88	60.50	6.20	-15.484	-15.680	30.674	-0.71503	0.62531	-0.17230	-0.26065	30.4	13111	100
2025-3-27 17:48:29.813	WT901BLE68-01(48591DE3C19B)	-0.125	-0.905	0.145	26.367	11.719	135.010	-71.59	61.61	6.01	-15.484	-15.680	30.674	-0.71503	0.62531	-0.17230	-0.26065	30.4	13111	100
2025-3-27 17:48:29.813	WT901BLE68-01(48591DE3C19B)	-0.125	-0.837	0.150	21.729	-4.028	117.004	-71.22	62.60	5.93	-15.484	-15.680	30.674	-0.71503	0.62531	-0.17230	-0.26065	30.4	13111	100
2025-3-27 17:48:29.842	WT901BLE68-01(48591DE3C19B)	-0.125	-0.837	0.150	21.729	-4.028	117.004	-70.77	63.47	5.97	-15.484	-15.680	30.674	-0.71503	0.62531	-0.17230	-0.26065	30.4	13111	100
2025-3-27 17:48:29.843	WT901BLE68-01(48591DE3C19B)	-0.125	-0.768	0.178	17.761	-20.325	97.412	-70.22	64.23	6.12	-15.484	-15.680	30.674	-0.71503	0.62531	-0.17230	-0.26065	30.4	13111	100
2025-3-27 17:48:29.843	WT901BLE68-01(48591DE3C19B)	-0.125	-0.768	0.178	17.761	-20.325	97.412	-69.58	64.86	6.41	-15.484	-15.680	30.674	-0.71503	0.62531	-0.17230	-0.26065	30.4	13111	100
2025-3-27 17:48:29.843	WT901BLE68-01(48591DE3C19B)	-0.125	-0.698	0.204	14.832	-34.363	77.820	-68.85	65.37	6.80	-47.628	-67.032	18.914	-0.71503	0.62531	-0.17230	-0.26065	30.4	13111	100
2025-3-27 17:48:29.873	WT901BLE68-01(48591DE3C19B)	-0.105	-0.698	0.204	14.832	-34.363	77.820	-68.04	65.75	7.28	-47.628	-67.032	18.914	-0.71503	0.62531	-0.17230	-0.26065	30.4	13111	100
2025-3-27 17:48:29.873	WT901BLE68-01(48591DE3C19B)	-0.105	-0.628	0.202	11.230	-37.415	60.547	-67.28	66.05	7.73	-47.628	-67.032	18.914	-0.71503	0.62531	-0.17230	-0.26065	30.4	13111	100
2025-3-27 17:48:29.873	WT901BLE68-01(48591DE3C19B)	-0.062	-0.628	0.202	11.230	-37.415	60.547	-66.56	66.26	8.14	-47.628	-67.032	18.914	-0.71503	0.62531	-0.17230	-0.26065	30.4	13111	100
2025-3-27 17:48:29.873	WT901BLE68-01(48591DE3C19B)	-0.062	-0.592	0.169	6.104	-27.893	44.556	-66.02	66.41	8.38	-47.628	-67.032	18.914	-0.71503	0.62531	-0.17230	-0.26065	30.4	13111	100
2025-3-27 17:48:29.933	WT901BLE68-01(48591DE3C19B)	-0.030	-0.592	0.169	6.104	-27.893	44.556	-65.68	66.51	8.42	-47.628	-67.032	18.914	-0.71503	0.62531	-0.17230	-0.26065	30.4	13111	100
2025-3-27 17:48:29.933	WT901BLE68-01(48591DE3C19B)	-0.030	-0.648	0.167	-1.831	-11.902	24.109	-65.95	66.48	7.88	-47.628	-67.032	18.914	-0.71503	0.62531	-0.17230	-0.26065	30.4	13111	100
2025-3-27 17:48:29.933	WT901BLE68-01(48591DE3C19B)	-0.063	-0.648	0.167	-1.831	-11.902	24.109	-66.22	66.45	7.35	-47.628	-67.032	18.914	-0.71503	0.62531	-0.17230	-0.26065	30.4	13111	100
2025-3-27 17:48:29.933	WT901BLE68-01(48591DE3C19B)	-0.063	-0.727	0.195	-6.897	-0.122	-2.319	-67.02	66.22	6.29	-47.628	-67.032	18.914	-0.71503	0.62531	-0.17230	-0.26065	30.4	13111	100
2025-3-27 17:48:29.962	WT901BLE68-01(48591DE3C19B)	-0.108	-0.727	0.195	-6.897	-0.122	-2.319	-67.80	65.99	5.25	-47.628	-67.032	18.914	-0.71503	0.62531	-0.17230	-0.26065	30.4	13111	100
2025-3-27 17:48:29.962	WT901BLE68-01(48591DE3C19B)	-0.108	-0.722	0.242	-8.362	6.104	-31.799	-68.93	65.51	3.82	-47.628	-67.032	18.914	-0.71503	0.62531	-0.17230	-0.26065	30.4	13111	100
2025-3-27 17:48:29.963	WT901BLE68-01(48591DE3C19B)	-0.103	-0.722	0.242	-8.362	6.104	-31.799	-70.02	65.01	2.45	-47.628	-67.032	18.914	-0.71503	0.62531	-0.17230	-0.26065	30.4	13111	100
2025-3-27 17:48:29.963	WT901BLE68-01(48591DE3C19B)	-0.103	-0.679	0.272	-10.132	13.550	-61.035	-71.40	64.26	0.74	-47.628	-67.032	18.914	-0.71503	0.62531	-0.17230	-0.26065	30.4	13111	100
2025-3-27 17:48:30.28	WT901BLE68-01(48591DE3C19B)	-0.094	-0.679	0.272	-10.132	13.550	-61.035	-72.70	63.49	-0.87	-47.628	-67.032	18.914	-0.71503	0.62531	-0.17230	-0.26065	30.4	13111	100
2025-3-27 17:48:30.28	WT901BLE68-01(48591DE3C19B)	-0.094	-0.667	0.295	-10.864	27.405	-90.759	-74.33	62.47	-2.88	-47.628	-67.032	18.914	-0.71503	0.62531	-0.17230	-0.26065	30.4	13111	100
2025-3-27 17:48:30.28	WT901BLE68-01(48591DE3C19B)	-0.141	-0.667	0.295	-10.864	27.405	-90.759	-75.83	61.42	-4.77	-47.628	-67.032	18.914	-0.71503	0.62531	-0.17230	-0.26065	30.4	13111	100
2025-3-27 17:48:30.28	WT901BLE68-01(48591DE3C19B)	-0.141	-0.676	0.310	-6.714	43.823	-120.728	-77.56	60.11	-6.99	-47.628	-67.032	18.914	-0.71503	0.62531	-0.17230	-0.26065	30.4	13111	100
2025-3-27 17:48:30.53	WT901BLE68-01(48591DE3C19B)	-0.229	-0.676	0.310	-6.714	43.823	-120.728	-79.13	58.77	-9.05	-47.628	-67.032	18.914	-0.71503	0.62531	-0.17230	-0.26065	30.4	13111	100
2025-3-27 17:48:30.53	WT901BLE68-01(48591DE3C19B)	-0.229	-0.719	0.323	2.441	53.223	-145.874	-80.66	57.18	-11.22	-47.628	-67.032	18.914	-0.71503	0.62531	-0.17230	-0.26065	30.4	13111	100
2025-3-27 17:48:30.53	WT901BLE68-01(48591DE3C19B)	-0.331	-0.719	0.323	2.441	53.223	-145.874	-82.01	55.59	-13.22	-47.628	-67.032	18.914	-0.71503	0.62531	-0.17230	-0.26065	30.4	13111	100
2025-3-27 17:48:30.53	WT901BLE68-01(48591DE3C19B)	-0.331	-0.796	0.337	15.808	55.420	-166.382	-83.15	53.77	-15.17	-47.628	-67.032	18.914	-0.71503	0.62531	-0.17230	-0.26065	30.4	13111	100
2025-3-27 17:48:30.83	WT901BLE68-01(48591DE3C19B)	-0.398	-0.796	0.337	15.808	55.420	-166.382	-84.14	51.95	-16.97	-47.628	-67.032	18.914	-0.70331	0.54773	-0.41046	-0.19174	30.4	13111	100
2025-3-27 17:48:30.83	WT901BLE68-01(48591DE3C19B)	-0.398	-0.908	0.286	24.597	58.472	-189.148	-84.97	49.91	-18.73	-47.628	-67.032	18.914	-0.70331	0.54773	-0.41046	-0.19174	30.4	13111	100
2025-3-27 17:48:30.83	WT901BLE68-01(48591DE3C19B)	-0.431	-0.908	0.286	24.597	58.472	-189.148	-85.67	47.86	-20.37	-47.628	-67.032	18.914	-0.70331	0.54773	-0.41046	-0.19174	30.4	13111	100
2025-3-27 17:48:30.83	WT901BLE68-01(48591DE3C19B)	-0.431	-1.018	0.175	30.457	59.570	-219.177	-86.23	45.53	-21.95	-47.628	-67.032	18.914	-0.70331	0.54773	-0.41046	-0.19174	30.4	13111	100
2025-3-27 17:48:30.175	WT901BLE68-01(48591DE3C19B)	-0.463	-1.018	0.175	30.457	59.570	-219.177	-86.69	43.20	-23.40	-47.628	-67.032	18.914	-0.70331	0.54773	-0.41046	-0.19174	30.4	13111	100
2025-3-27 17:48:30.175	WT901BLE68-01(48591DE3C19B)	-0.463	-1.142	0.121	31.860	60.547	-247.559	-87.05	40.60	-24.77	-47.628	-67.032	18.914	-0.70331	0.54773	-0.41046	-0.19174	30.4	13111	100
2025-3-27 17:48:30.175	WT901BLE68-01(48591DE3C19B)	-0.599	-1.142	0.121	31.860	60.547	-247.559	-87.32	38.01	-26.03	-47.628	-67.032	18.914	-0.70331	0.54773	-0.41046	-0.19174	30.4	13111	100
2025-3-27 17:48:30.175	WT901BLE68-01(48591DE3C19B)	-0.599	-1.279	0.152	30.579	55.359	-272.400	-87.50	35.19	-27.12	-47.628	-67.032	18.914	-0.70331	0.54773	-0.41046	-0.19174	30.4	13111	100
2025-3-27 17:48:30.176	WT901BLE68-01(48591DE3C19B)	-0.680	-1.279	0.152	30.579	55.359	-272.400	-87.60	32.40	-28.11	-47.628	-67.032	18.914	-0.70331	0.54773	-0.41046	-0.19174	30.4	13111	100
2025-3-27 17:48:30.176	WT901BLE68-01(48591DE3C19B)	-0.680	-1.394	0.222	22.766	51.514	-292.847	-87.70	29.43	-28.96	-47.628	-67.032	18.914	-0.70331	0.54773	-0.41046	-0.19174	30.4	13111	100
2025-3-27 17:48:30.176	WT901BLE68-01(48591DE3C19B)	-0.656	-1.394	0.222	22.766	51.514	-292.847	-87.75	26.48	-29.71	-47.628	-67.032	18.914	-0.70331	0.54773	-0.41046	-0.19174	30.4	13111	100
2025-3-27 17:48:30.176	WT901BLE68-01(48591DE3C19B)	-0.656	-1.464	0.309	13.306	63.904	-306.885	-87.91	23.42	-30.53	-47.628	-67.032	18.914	-0.70331	0.54773	-0.41046	-0.19174	30.4	13111	100
2025-3-27 17:48:30.205	WT901BLE68-01(48591DE3C19B)	-0.643	-1.464	0.309	13.306	63.904	-306.885	-88.02	20.39	-31.27	-47.628	-67.032	18.914	-0.70331	0.54773	-0.41046	-0.19174	30.4	13111	100
2025-3-27 17:48:30.205	WT901BLE68-01(48591DE3C19B)	-0.643	-1.517	0.375	7.263	89.600	-313.049	-88.23	17.32	-32.21	-47.628	-67.032	18.914	-0.70331	0.54773	-0.41046	-0.19174	30.4	13111	100
2025-3-27 17:48:30.205	WT901BLE68-01(48591DE3C19B)	-0.622	-1.517	0.375	7.263	89.600	-313.049	-88.39	14.27	-33.10	-47.628	-67.032	18.914	-0.70331	0.54773	-0.41046	-0.19174	30.4	13111	100
2025-3-27 17:48:30.205	WT901BLE68-01(48591DE3C19B)	-0.622	-1.538	0.397	5.188	110.718	-309.875	-88.56	11.28	-34.15	-47.628	-67.032	18.914	-0.70331	0.54773	-0.41046	-0.19174	30.4	13111	100
2025-3-27 17:48:30.263	WT901BLE68-01(48591DE3C19B)	-0.579	-1.538	0.397	5.188	110.718	-309.875	-88.67	8.29	-35.16	-47.628	-67.032	18.914	-0.70331	0.54773	-0.41046	-0.19174	30.4	13111	100
2025-3-27 17:48:30.263	WT901BLE68-01(48591DE3C19B)	-0.579	-1.546	0.390	5.920	127.197	-303.467	-88.73	5.40	-36.30	-20.776	-49.392	26.656	-0.70331	0.54773	-0.41046	-0.19174	30.4	13111	100
2025-3-27 17:48:30.264	WT901BLE68-01(48591DE3C19B)	-0.579	-1.546	0.390	5.920	127.197	-303.467	-88.74	2.52	-37.43	-20.776	-49.392	26.656	-0.70331	0.54773	-0.41046	-0.19174	30.4	13111	100
2025-3-27 17:48:30.264	WT901BLE68-01(48591DE3C19B)	-0.579	-1.559	0.357	10.986	140.930	-290.039	-88.63	-0.20	-38.68	-20.776	-49.392	26.656	-0.70331	0.54773	-0.41046	-0.19174	30.4	13111	100
2025-3-27 17:48:30.292	WT901BLE68-01(48591DE3C19B)	-0.644	-1.559	0.357	10.986	140.930	-290.039	-88.47	-2.91	-39.93	-20.776	-49.392	26.656	-0.70331	0.54773	-0.41046	-0.19174	30.4	13111	100
2025-3-27 17:48:30.292	WT901BLE68-01(48591DE3C19B)	-0.644	-1.561	0.294	21.851	139.771	-272.400	-88.14	-5.43	-41.17	-20.776	-49.392	26.656	-0.70331	0.54773	-0.41046	-0.19174	30.4	13111	100
2025-3-27 17:48:30.292	WT901BLE68-01(48591DE3C19B)	-0.671	-1.561	0.294	21.851	139.771	-272.400	-87.75	-7.92	-42.42	-20.776	-49.392	26.656	-0.70331	0.54773	-0.41046	-0.19174	30.4	13111	100
2025-3-27 17:48:30.293	WT901BLE68-01(48591DE3C19B)	-0.671	-1.534	0.225	33.630	124.634	-252.014	-87.21	-10.19	-43.54	-20.776	-49.392	26.656	-0.70331	0.54773	-0.41046	-0.19174	30.4	13111	100
2025-3-27 17:48:30.329	WT901BLE68-01(48591DE3C19B)	-0.684	-1.534	0.225	33.630	124.634	-252.014	-86.64	-12.44	-44.68	-20.776	-49.392	26.656	-0.70331	0.54773	-0.41046	-0.19174	30.4	13111	100
2025-3-27 17:48:30.329	WT901BLE68-01(48591DE3C19B)	-0.684	-1.502	0.160	43.640	101.990	-226.807	-85.97	-14.42	-45.60	-20.776	-49.392	26.656	-0.70331	0.54773	-0.41046	-0.19174	30.4	13111	100
2025-3-27 17:48:30.329	WT901BLE68-01(48591DE3C19B)	-0.694	-1.502	0.160	43.640	101.990	-226.807	-85.26	-16.39	-46.57	-20.776	-49.392	26.656	-0.70331	0.54773	-0.41046	-0.19174	30.4	13111	100
2025-3-27 17:48:30.329	WT901BLE68-01(48591DE3C19B)	-0.694	-1.456	0.102	51.086	78.308	-200.500	-84.52	-18.08	-47.29	-20.776	-49.392	26.656	-0.70331	0.54773	-0.41046	-0.19174	30.4	13111	100
2025-3-27 17:48:30.383	WT901BLE68-01(48591DE3C19B)	-0.692	-1.456	0.102	51.086	78.308	-200.500	-83.76	-19.76	-48.04	-20.776	-49.392	26.656	-0.70331	0.54773	-0.41046	-0.19174	30.4	13111	100
2025-3-27 17:48:30.383	WT901BLE68-01(48591DE3C19B)	-0.664	-1.379	0.071	56.091	54.199	-173.584	-83.02	-21.18	-48.54	-20.776	-49.392	26.656	-0.70331	0.54773	-0.41046	-0.19174	30.4	13111	100
2025-3-27 17:48:30.384	WT901BLE68-01(48591DE3C19B)	-0.664	-1.284	0.057	56.702	33.203	-147.156	-82.31	-22.47	-48.93	-20.776	-49.392	26.656	-0.70331	0.54773	-0.41046	-0.19174	30.4	13111	100
2025-3-27 17:48:30.384	WT901BLE68-01(48591DE3C19B)	-0.610	-1.284	0.057	56.702	33.203	-147.156	-81.63	-23.63	-49.22	-20.776	-49.392	26.656	-0.70331	0.54773	-0.41046	-0.19174	30.4	13111	100
2025-3-27 17:48:30.413	WT901BLE68-01(48591DE3C19B)	-0.610	-1.211	0.058	54.871	20.447	-122.864	-80.99	-24.66	-49.44	-20.776	-49.392	26.656	-0.70331	0.54773	-0.41046	-0.19174	30.4	13111	100
2025-3-27 17:48:30.413	WT901BLE68-01(48591DE3C19B)	-0.555	-1.211	0.058	54.871	20.447	-122.864	-80.39	-25.58	-49.58	-20.776	-49.392	26.656	-0.70331	0.54773	-0.41046	-0.19174	30.4	13111	100
2025-3-27 17:48:30.413	WT901BLE68-01(48591DE3C19B)	-0.555	-1.133	0.073	51.147	18.799	-101.135	-79.82	-26.38	-49.72	-20.776	-49.392	26.656	-0.70331	0.54773	-0.41046	-0.19174	30.4	13111	100
2025-3-27 17:48:30.413	WT901BLE68-01(48591DE3C19B)	-0.506	-1.133	0.073	51.147	18.799	-101.135	-79.27	-27.08	-49.83	-20.776	-49.392	26.656	-0.70331	0.54773	-0.41046	-0.19174	30.4	13111	100
2025-3-27 17:48:30.533	WT901BLE68-01(48591DE3C19B)	-0.506	-1.091	0.099	44.983	24.231	-81.299	-78.74	-27.65	-49.98	-20.776	-49.392	26.656	-0.70331	0.54773	-0.41046	-0.19174	30.4	13111	100
2025-3-27 17:48:30.533	WT901BLE68-01(48591DE3C19B)	-0.482	-1.091	0.099	44.983	24.231	-81.299	-78.24	-28.13	-50.14	-20.776	-49.392	26.656	-0.70331	0.54773	-0.41046	-0.19174	30.4	13111	100
2025-3-27 17:48:30.533	WT901BLE68-01(48591DE3C19B)	-0.482	-1.034	0.126	40.161	35.034	-63.171	-77.73	-28.49	-50.35	-20.776	-49.392	26.656	-0.61755	0.63071	-0.08414	0.46219	30.4	13111	100
2025-3-27 17:48:30.533	WT901BLE68-01(48591DE3C19B)	-0.474	-1.034	0.126	40.161	35.034	-63.171	-77.23	-28.76	-50.61	-20.776	-49.392	26.656	-0.61755	0.63071	-0.08414	0.46219	30.4	13111	100
2025-3-27 17:48:30.534	WT901BLE68-01(48591DE3C19B)	-0.474	-0.963	0.144	34.546	49.438	-46.936	-76.73	-28.92	-50.93	-20.776	-49.392	26.656	-0.61755	0.63071	-0.08414	0.46219	30.4	13111	100
2025-3-27 17:48:30.534	WT901BLE68-01(48591DE3C19B)	-0.488	-0.963	0.144	34.546	49.438	-46.936	-76.23	-28.98	-51.32	-20.776	-49.392	26.656	-0.61755	0.63071	-0.08414	0.46219	30.4	13111	100
2025-3-27 17:48:30.534	WT901BLE68-01(48591DE3C19B)	-0.488	-0.868	0.147	28.625	63.599	-31.311	-75.72	-28.95	-51.76	-20.776	-49.392	26.656	-0.61755	0.63071	-0.08414	0.46219	30.4	13111	100
2025-3-27 17:48:30.534	WT901BLE68-01(48591DE3C19B)	-0.503	-0.868	0.147	28.625	63.599	-31.311	-75.23	-28.81	-52.27	-20.776	-49.392	26.656	-0.61755	0.63071	-0.08414	0.46219	30.4	13111	100
2025-3-27 17:48:30.535	WT901BLE68-01(48591DE3C19B)	-0.503	-0.799	0.111	19.348	73.486	-15.808	-74.77	-28.59	-52.79	-20.776	-49.392	26.656	-0.61755	0.63071	-0.08414	0.46219	30.4	13111	100
2025-3-27 17:48:30.535	WT901BLE68-01(48591DE3C19B)	-0.532	-0.799	0.111	19.348	73.486	-15.808	-74.34	-28.26	-53.35	-20.776	-49.392	26.656	-0.61755	0.63071	-0.08414	0.46219	30.4	13111	100
2025-3-27 17:48:30.535	WT901BLE68-01(48591DE3C19B)	-0.532	-0.877	0.045	4.395	74.463	-0.061	-74.02	-27.86	-53.88	-20.776	-49.392	26.656	-0.61755	0.63071	-0.08414	0.46219	30.4	13111	100
2025-3-27 17:48:30.535	WT901BLE68-01(48591DE3C19B)	-0.594	-0.877	0.045	4.395	74.463	-0.061	-73.78	-27.38	-54.38	-20.776	-49.392	26.656	-0.61755	0.63071	-0.08414	0.46219	30.4	13111	100
2025-3-27 17:48:30.563	WT901BLE68-01(48591DE3C19B)	-0.594	-1.112	-0.020	-10.559	61.523	13.306	-73.68	-26.86	-54.79	-20.776	-49.392	26.656	-0.61755	0.63071	-0.08414	0.46219	30.4	13111	100
2025-3-27 17:48:30.563	WT901BLE68-01(48591DE3C19B)	-0.614	-1.112	-0.020	-10.559	61.523	13.306	-73.70	-26.29	-55.10	-20.776	-49.392	26.656	-0.61755	0.63071	-0.08414	0.46219	30.4	13111	100
2025-3-27 17:48:30.563	WT901BLE68-01(48591DE3C19B)	-0.614	-1.104	-0.029	-15.137	42.175	30.212	-73.81	-25.67	-55.28	-20.776	-49.392	26.656	-0.61755	0.63071	-0.08414	0.46219	30.4	13111	100
2025-3-27 17:48:30.563	WT901BLE68-01(48591DE3C19B)	-0.500	-1.104	-0.029	-15.137	42.175	30.212	-74.01	-25.00	-55.32	-20.776	-49.392	26.656	-0.61755	0.63071	-0.08414	0.46219	30.4	13111	100
2025-3-27 17:48:30.653	WT901BLE68-01(48591DE3C19B)	-0.500	-0.738	-0.031	-33.325	25.452	58.411	-74.35	-24.23	-55.24	-20.776	-49.392	26.656	-0.61755	0.63071	-0.08414	0.46219	30.4	13111	100
2025-3-27 17:48:30.653	WT901BLE68-01(48591DE3C19B)	-0.360	-0.738	-0.031	-33.325	25.452	58.411	-74.84	-23.35	-55.04	-20.776	-49.392	26.656	-0.61755	0.63071	-0.08414	0.46219	30.4	13111	100
2025-3-27 17:48:30.653	WT901BLE68-01(48591DE3C19B)	-0.360	-0.606	0.054	-67.200	9.033	92.651	-75.54	-22.32	-54.71	-20.776	-49.392	26.656	-0.61755	0.63071	-0.08414	0.46219	30.4	13111	100
2025-3-27 17:48:30.653	WT901BLE68-01(48591DE3C19B)	-0.304	-0.606	0.054	-67.200	9.033	92.651	-76.45	-21.15	-54.26	-20.776	-49.392	26.656	-0.61755	0.63071	-0.08414	0.46219	30.4	13111	100
2025-3-27 17:48:30.654	WT901BLE68-01(48591DE3C19B)	-0.304	-0.666	0.222	-88.806	-29.663	123.413	-77.52	-19.88	-53.60	-20.776	-49.392	26.656	-0.61755	0.63071	-0.08414	0.46219	30.4	13111	100
2025-3-27 17:48:30.654	WT901BLE68-01(48591DE3C19B)	-0.294	-0.666	0.222	-88.806	-29.663	123.413	-78.75	-18.49	-52.75	-20.776	-49.392	26.656	-0.61755	0.63071	-0.08414	0.46219	30.4	13111	100
2025-3-27 17:48:30.654	WT901BLE68-01(48591DE3C19B)	-0.294	-0.681	0.344	-106.873	-90.210	150.635	-80.12	-17.01	-51.59	-20.776	-49.392	26.656	-0.61755	0.63071	-0.08414	0.46219	30.4	13111	100
2025-3-27 17:48:30.654	WT901BLE68-01(48591DE3C19B)	-0.275	-0.681	0.344	-106.873	-90.210	150.635	-81.63	-15.43	-50.15	-17.934	-17.248	44.198	-0.61755	0.63071	-0.08414	0.46219	30.4	13111	100
2025-3-27 17:48:30.713	WT901BLE68-01(48591DE3C19B)	-0.275	-0.767	0.363	-115.479	-150.574	166.992	-83.18	-13.78	-48.44	-17.934	-17.248	44.198	-0.61755	0.63071	-0.08414	0.46219	30.4	13111	100
2025-3-27 17:48:30.713	WT901BLE68-01(48591DE3C19B)	-0.302	-0.767	0.363	-115.479	-150.574	166.992	-84.78	-12.06	-46.49	-17.934	-17.248	44.198	-0.61755	0.63071	-0.08414	0.46219	30.4	13111	100
2025-3-27 17:48:30.713	WT901BLE68-01(48591DE3C19B)	-0.302	-0.914	0.355	-110.046	-199.768	184.448	-86.30	-10.22	-44.35	-17.934	-17.248	44.198	-0.61755	0.63071	-0.08414	0.46219	30.4	13111	100
2025-3-27 17:48:30.713	WT901BLE68-01(48591DE3C19B)	-0.457	-0.914	0.355	-110.046	-199.768	184.448	-87.75	-8.27	-42.03	-17.934	-17.248	44.198	-0.61755	0.63071	-0.08414	0.46219	30.4	13111	100
2025-3-27 17:48:30.775	WT901BLE68-01(48591DE3C19B)	-0.457	-1.184	0.294	-101.074	-233.032	199.341	-89.08	-6.22	-39.60	-17.934	-17.248	44.198	-0.61755	0.63071	-0.08414	0.46219	30.4	13111	100
2025-3-27 17:48:30.775	WT901BLE68-01(48591DE3C19B)	-0.363	-1.184	0.294	-101.074	-233.032	199.341	-90.27	-4.05	-37.07	-17.934	-17.248	44.198	-0.61755	0.63071	-0.08414	0.46219	30.4	13111	100
2025-3-27 17:48:30.775	WT901BLE68-01(48591DE3C19B)	-0.363	-1.491	0.133	-79.346	-237.915	206.055	-91.25	-1.83	-34.58	-17.934	-17.248	44.198	-0.61755	0.63071	-0.08414	0.46219	30.4	13111	100
2025-3-27 17:48:30.776	WT901BLE68-01(48591DE3C19B)	-0.198	-1.491	0.133	-79.346	-237.915	206.055	-92.02	0.44	-32.12	-17.934	-17.248	44.198	-0.61755	0.63071	-0.08414	0.46219	30.4	13111	100
2025-3-27 17:48:30.804	WT901BLE68-01(48591DE3C19B)	-0.198	-1.519	0.101	-50.293	-219.482	205.933	-92.55	2.71	-29.80	-17.934	-17.248	44.198	-0.61755	0.63071	-0.08414	0.46219	30.4	13111	100
2025-3-27 17:48:30.804	WT901BLE68-01(48591DE3C19B)	-0.028	-1.519	0.101	-50.293	-219.482	205.933	-92.86	4.98	-27.60	-17.934	-17.248	44.198	-0.61755	0.63071	-0.08414	0.46219	30.4	13111	100
2025-3-27 17:48:30.804	WT901BLE68-01(48591DE3C19B)	-0.028	-1.487	0.126	-34.119	-194.458	201.477	-93.00	7.19	-25.55	-17.934	-17.248	44.198	-0.61755	0.63071	-0.08414	0.46219	30.4	13111	100
2025-3-27 17:48:30.804	WT901BLE68-01(48591DE3C19B)	-0.033	-1.487	0.126	-34.119	-194.458	201.477	-93.02	9.35	-23.64	-17.934	-17.248	44.198	-0.61755	0.63071	-0.08414	0.46219	30.4	13111	100
2025-3-27 17:48:30.805	WT901BLE68-01(48591DE3C19B)	-0.033	-1.614	0.318	-18.250	-173.340	201.660	-92.89	11.48	-21.86	-17.934	-17.248	44.198	-0.61755	0.63071	-0.08414	0.46219	30.4	13111	100
2025-3-27 17:48:30.805	WT901BLE68-01(48591DE3C19B)	-0.037	-1.614	0.318	-18.250	-173.340	201.660	-92.64	13.57	-20.20	-17.934	-17.248	44.198	-0.61755	0.63071	-0.08414	0.46219	30.4	13111	100
2025-3-27 17:48:30.805	WT901BLE68-01(48591DE3C19B)	-0.037	-1.852	0.306	-1.038	-151.306	202.698	-92.27	15.63	-18.65	-17.934	-17.248	44.198	-0.61755	0.63071	-0.08414	0.46219	30.4	13111	100
2025-3-27 17:48:30.805	WT901BLE68-01(48591DE3C19B)	0.066	-1.852	0.306	-1.038	-151.306	202.698	-91.79	17.65	-17.22	-17.934	-17.248	44.198	-0.61755	0.63071	-0.08414	0.46219	30.4	13111	100
2025-3-27 17:48:30.924	WT901BLE68-01(48591DE3C19B)	0.066	-1.723	0.274	25.635	-129.333	207.092	-91.15	19.67	-15.90	-17.934	-17.248	44.198	-0.61755	0.63071	-0.08414	0.46219	30.4	13111	100
2025-3-27 17:48:30.925	WT901BLE68-01(48591DE3C19B)	0.091	-1.723	0.274	25.635	-129.333	207.092	-90.38	21.66	-14.68	-17.934	-17.248	44.198	-0.61755	0.63071	-0.08414	0.46219	30.4	13111	100
2025-3-27 17:48:30.925	WT901BLE68-01(48591DE3C19B)	0.091	-1.537	0.254	31.738	-96.802	207.397	-89.63	23.62	-13.80	-17.934	-17.248	44.198	-0.61755	0.63071	-0.08414	0.46219	30.4	13111	100
2025-3-27 17:48:30.925	WT901BLE68-01(48591DE3C19B)	-0.001	-1.537	0.254	31.738	-96.802	207.397	-88.84	25.55	-12.90	-17.934	-17.248	44.198	-0.61755	0.63071	-0.08414	0.46219	30.4	13111	100
2025-3-27 17:48:30.925	WT901BLE68-01(48591DE3C19B)	-0.001	-1.551	0.305	34.912	-66.711	201.233	-88.13	27.41	-12.32	-17.934	-17.248	44.198	-0.71167	0.65353	-0.24170	-0.08890	30.4	13111	100
2025-3-27 17:48:30.925	WT901BLE68-01(48591DE3C19B)	-0.058	-1.551	0.305	34.912	-66.711	201.233	-87.40	29.23	-11.72	-17.934	-17.248	44.198	-0.71167	0.65353	-0.24170	-0.08890	30.4	13111	100
2025-3-27 17:48:30.925	WT901BLE68-01(48591DE3C19B)	-0.058	-1.630	0.401	38.940	-45.166	200.500	-86.71	31.05	-11.35	-17.934	-17.248	44.198	-0.71167	0.65353	-0.24170	-0.08890	30.4	13111	100
2025-3-27 17:48:30.926	WT901BLE68-01(48591DE3C19B)	-0.053	-1.630	0.401	38.940	-45.166	200.500	-86.00	32.85	-10.96	-17.934	-17.248	44.198	-0.71167	0.65353	-0.24170	-0.08890	30.4	13111	100
2025-3-27 17:48:30.926	WT901BLE68-01(48591DE3C19B)	-0.053	-1.643	0.392	48.096	-15.381	201.355	-85.37	34.67	-10.91	-17.934	-17.248	44.198	-0.71167	0.65353	-0.24170	-0.08890	30.4	13111	100
2025-3-27 17:48:30.926	WT901BLE68-01(48591DE3C19B)	-0.066	-1.643	0.392	48.096	-15.381	201.355	-84.72	36.47	-10.84	-17.934	-17.248	44.198	-0.71167	0.65353	-0.24170	-0.08890	30.4	13111	100
2025-3-27 17:48:30.926	WT901BLE68-01(48591DE3C19B)	-0.066	-1.474	0.335	53.528	16.602	203.186	-84.24	38.31	-11.15	-17.934	-17.248	44.198	-0.71167	0.65353	-0.24170	-0.08890	30.4	13111	100
2025-3-27 17:48:30.926	WT901BLE68-01(48591DE3C19B)	-0.082	-1.474	0.335	53.528	16.602	203.186	-83.76	40.14	-11.45	-17.934	-17.248	44.198	-0.71167	0.65353	-0.24170	-0.08890	30.4	13111	100
2025-3-27 17:48:31.73	WT901BLE68-01(48591DE3C19B)	-0.082	-1.344	0.241	49.377	38.879	200.256	-83.51	41.96	-12.04	-17.934	-17.248	44.198	-0.71167	0.65353	-0.24170	-0.08890	30.4	13111	100
2025-3-27 17:48:31.74	WT901BLE68-01(48591DE3C19B)	-0.055	-1.344	0.241	49.377	38.879	200.256	-83.28	43.77	-12.63	-17.934	-17.248	44.198	-0.71167	0.65353	-0.24170	-0.08890	30.4	13111	100
2025-3-27 17:48:31.74	WT901BLE68-01(48591DE3C19B)	-0.055	-1.205	0.184	42.236	49.744	192.932	-83.25	45.51	-13.40	-17.934	-17.248	44.198	-0.71167	0.65353	-0.24170	-0.08890	30.4	13111	100
2025-3-27 17:48:31.74	WT901BLE68-01(48591DE3C19B)	-0.051	-1.205	0.184	42.236	49.744	192.932	-83.24	47.25	-14.18	-17.934	-17.248	44.198	-0.71167	0.65353	-0.24170	-0.08890	30.4	13111	100
2025-3-27 17:48:31.74	WT901BLE68-01(48591DE3C19B)	-0.051	-1.083	0.160	31.860	52.368	181.274	-83.42	48.86	-15.04	-17.934	-17.248	44.198	-0.71167	0.65353	-0.24170	-0.08890	30.4	13111	100
2025-3-27 17:48:31.74	WT901BLE68-01(48591DE3C19B)	-0.070	-1.083	0.160	31.860	52.368	181.274	-83.63	50.47	-15.93	-17.934	-17.248	44.198	-0.71167	0.65353	-0.24170	-0.08890	30.4	13111	100
2025-3-27 17:48:31.75	WT901BLE68-01(48591DE3C19B)	-0.070	-1.022	0.158	21.790	47.668	168.030	-83.94	51.92	-16.80	-17.934	-17.248	44.198	-0.71167	0.65353	-0.24170	-0.08890	30.4	13111	100
2025-3-27 17:48:31.75	WT901BLE68-01(48591DE3C19B)	-0.158	-1.022	0.158	21.790	47.668	168.030	-84.28	53.37	-17.71	-17.934	-17.248	44.198	-0.71167	0.65353	-0.24170	-0.08890	30.4	13111	100
2025-3-27 17:48:31.102	WT901BLE68-01(48591DE3C19B)	-0.158	-0.984	0.192	13.550	34.302	153.809	-84.58	54.65	-18.45	-17.934	-17.248	44.198	-0.71167	0.65353	-0.24170	-0.08890	30.4	13111	100
2025-3-27 17:48:31.102	WT901BLE68-01(48591DE3C19B)	-0.232	-0.984	0.192	13.550	34.302	153.809	-84.92	55.93	-19.22	-17.934	-17.248	44.198	-0.71167	0.65353	-0.24170	-0.08890	30.4	13111	100
2025-3-27 17:48:31.102	WT901BLE68-01(48591DE3C19B)	-0.232	-0.966	0.215	6.714	13.550	136.963	-85.06	57.02	-19.67	-17.934	-17.248	44.198	-0.71167	0.65353	-0.24170	-0.08890	30.4	13111	100
2025-3-27 17:48:31.102	WT901BLE68-01(48591DE3C19B)	-0.237	-0.966	0.215	6.714	13.550	136.963	-85.20	58.11	-20.13	-17.934	-17.248	44.198	-0.71167	0.65353	-0.24170	-0.08890	30.4	13111	100
2025-3-27 17:48:31.103	WT901BLE68-01(48591DE3C19B)	-0.237	-0.902	0.222	4.028	-5.798	120.300	-85.09	59.01	-20.26	-17.934	-17.248	44.198	-0.71167	0.65353	-0.24170	-0.08890	30.4	13111	100
2025-3-27 17:48:31.103	WT901BLE68-01(48591DE3C19B)	-0.209	-0.902	0.222	4.028	-5.798	120.300	-84.97	59.91	-20.38	-17.934	-17.248	44.198	-0.71167	0.65353	-0.24170	-0.08890	30.4	13111	100
2025-3-27 17:48:31.103	WT901BLE68-01(48591DE3C19B)	-0.209	-0.832	0.195	0.488	-20.874	104.248	-84.64	60.63	-20.23	-17.934	-17.248	44.198	-0.71167	0.65353	-0.24170	-0.08890	30.4	13111	100
2025-3-27 17:48:31.103	WT901BLE68-01(48591DE3C19B)	-0.146	-0.832	0.195	0.488	-20.874	104.248	-84.29	61.36	-20.06	-17.934	-17.248	44.198	-0.71167	0.65353	-0.24170	-0.08890	30.4	13111	100
2025-3-27 17:48:31.132	WT901BLE68-01(48591DE3C19B)	-0.146	-0.779	0.158	-3.418	-30.029	87.341	-83.84	61.90	-19.71	-43.414	-63.406	25.088	-0.71167	0.65353	-0.24170	-0.08890	30.4	13111	100
2025-3-27 17:48:31.132	WT901BLE68-01(48591DE3C19B)	-0.074	-0.779	0.158	-3.418	-30.029	87.341	-83.36	62.44	-19.36	-43.414	-63.406	25.088	-0.71167	0.65353	-0.24170	-0.08890	30.4	13111	100
2025-3-27 17:48:31.132	WT901BLE68-01(48591DE3C19B)	-0.074	-0.733	0.132	-7.507	-32.166	68.237	-82.92	62.79	-19.00	-43.414	-63.406	25.088	-0.71167	0.65353	-0.24170	-0.08890	30.4	13111	100
2025-3-27 17:48:31.132	WT901BLE68-01(48591DE3C19B)	-0.057	-0.733	0.132	-7.507	-32.166	68.237	-82.47	63.13	-18.63	-43.414	-63.406	25.088	-0.71167	0.65353	-0.24170	-0.08890	30.4	13111	100
2025-3-27 17:48:31.162	WT901BLE68-01(48591DE3C19B)	-0.057	-0.682	0.130	-11.597	-25.330	48.401	-82.25	63.28	-18.47	-43.414	-63.406	25.088	-0.71167	0.65353	-0.24170	-0.08890	30.4	13111	100
2025-3-27 17:48:31.162	WT901BLE68-01(48591DE3C19B)	-0.063	-0.682	0.130	-11.597	-25.330	48.401	-82.03	63.43	-18.31	-43.414	-63.406	25.088	-0.71167	0.65353	-0.24170	-0.08890	30.4	13111	100
2025-3-27 17:48:31.162	WT901BLE68-01(48591DE3C19B)	-0.063	-0.643	0.145	-15.747	-13.306	28.198	-82.14	63.39	-18.48	-43.414	-63.406	25.088	-0.71167	0.65353	-0.24170	-0.08890	30.4	13111	100
2025-3-27 17:48:31.162	WT901BLE68-01(48591DE3C19B)	-0.064	-0.643	0.145	-15.747	-13.306	28.198	-82.26	63.36	-18.67	-43.414	-63.406	25.088	-0.71167	0.65353	-0.24170	-0.08890	30.4	13111	100
2025-3-27 17:48:31.229	WT901BLE68-01(48591DE3C19B)	-0.064	-0.610	0.166	-18.860	1.709	8.728	-82.75	63.15	-19.23	-43.414	-63.406	25.088	-0.71167	0.65353	-0.24170	-0.08890	30.4	13111	100
2025-3-27 17:48:31.229	WT901BLE68-01(48591DE3C19B)	-0.072	-0.610	0.166	-18.860	1.709	8.728	-83.24	62.94	-19.80	-43.414	-63.406	25.088	-0.71167	0.65353	-0.24170	-0.08890	30.4	13111	100
2025-3-27 17:48:31.229	WT901BLE68-01(48591DE3C19B)	-0.072	-0.597	0.186	-20.569	17.700	-10.742	-84.08	62.56	-20.74	-43.414	-63.406	25.088	-0.71167	0.65353	-0.24170	-0.08890	30.4	13111	100
2025-3-27 17:48:31.229	WT901BLE68-01(48591DE3C19B)	-0.089	-0.597	0.186	-20.569	17.700	-10.742	-84.89	62.17	-21.67	-43.414	-63.406	25.088	-0.71167	0.65353	-0.24170	-0.08890	30.4	13111	100
2025-3-27 17:48:31.253	WT901BLE68-01(48591DE3C19B)	-0.089	-0.625	0.182	-21.179	32.410	-33.386	-85.98	61.56	-22.92	-43.414	-63.406	25.088	-0.71167	0.65353	-0.24170	-0.08890	30.4	13111	100
2025-3-27 17:48:31.254	WT901BLE68-01(48591DE3C19B)	-0.110	-0.625	0.182	-21.179	32.410	-33.386	-87.02	60.94	-24.11	-43.414	-63.406	25.088	-0.71167	0.65353	-0.24170	-0.08890	30.4	13111	100
2025-3-27 17:48:31.254	WT901BLE68-01(48591DE3C19B)	-0.110	-0.689	0.152	-20.935	43.762	-61.584	-88.23	60.05	-25.52	-43.414	-63.406	25.088	-0.71167	0.65353	-0.24170	-0.08890	30.4	13111	100
2025-3-27 17:48:31.254	WT901BLE68-01(48591DE3C19B)	-0.135	-0.689	0.152	-20.935	43.762	-61.584	-89.35	59.14	-26.83	-43.414	-63.406	25.088	-0.68204	0.51340	-0.48322	-0.19400	30.4	13111	100
2025-3-27 17:48:31.282	WT901BLE68-01(48591DE3C19B)	-0.135	-0.755	0.137	-18.921	51.453	-95.581	-90.50	57.89	-28.21	-43.414	-63.406	25.088	-0.68204	0.51340	-0.48322	-0.19400	30.4	13111	100
2025-3-27 17:48:31.282	WT901BLE68-01(48591DE3C19B)	-0.169	-0.755	0.137	-18.921	51.453	-95.581	-91.55	56.64	-29.49	-43.414	-63.406	25.088	-0.68204	0.51340	-0.48322	-0.19400	30.4	13111	100
2025-3-27 17:48:31.282	WT901BLE68-01(48591DE3C19B)	-0.241	-0.802	0.133	-17.456	57.007	-131.958	-92.56	55.01	-30.75	-43.414	-63.406	25.088	-0.68204	0.51340	-0.48322	-0.19400	30.4	13111	100
2025-3-27 17:48:31.282	WT901BLE68-01(48591DE3C19B)	-0.241	-0.863	0.156	-14.648	56.946	-167.297	-93.44	53.22	-31.89	-43.414	-63.406	25.088	-0.68204	0.51340	-0.48322	-0.19400	30.4	13111	100
2025-3-27 17:48:31.342	WT901BLE68-01(48591DE3C19B)	-0.283	-0.863	0.156	-14.648	56.946	-167.297	-94.19	51.25	-32.90	-43.414	-63.406	25.088	-0.68204	0.51340	-0.48322	-0.19400	30.4	13111	100
2025-3-27 17:48:31.343	WT901BLE68-01(48591DE3C19B)	-0.283	-0.937	0.162	-13.855	54.993	-203.064	-94.81	49.11	-33.79	-43.414	-63.406	25.088	-0.68204	0.51340	-0.48322	-0.19400	30.4	13111	100
2025-3-27 17:48:31.343	WT901BLE68-01(48591DE3C19B)	-0.336	-0.937	0.162	-13.855	54.993	-203.064	-95.33	46.81	-34.56	-43.414	-63.406	25.088	-0.68204	0.51340	-0.48322	-0.19400	30.4	13111	100
2025-3-27 17:48:31.343	WT901BLE68-01(48591DE3C19B)	-0.336	-1.062	0.167	-12.329	50.476	-237.305	-95.73	44.36	-35.20	-43.414	-63.406	25.088	-0.68204	0.51340	-0.48322	-0.19400	30.4	13111	100
2025-3-27 17:48:31.372	WT901BLE68-01(48591DE3C19B)	-0.399	-1.062	0.167	-12.329	50.476	-237.305	-96.04	41.75	-35.72	-43.414	-63.406	25.088	-0.68204	0.51340	-0.48322	-0.19400	30.4	13111	100
2025-3-27 17:48:31.372	WT901BLE68-01(48591DE3C19B)	-0.399	-1.221	0.175	-11.230	42.297	-268.127	-96.25	39.02	-36.12	-43.414	-63.406	25.088	-0.68204	0.51340	-0.48322	-0.19400	30.4	13111	100
2025-3-27 17:48:31.373	WT901BLE68-01(48591DE3C19B)	-0.453	-1.221	0.175	-11.230	42.297	-268.127	-96.38	36.16	-36.39	-43.414	-63.406	25.088	-0.68204	0.51340	-0.48322	-0.19400	30.4	13111	100
2025-3-27 17:48:31.373	WT901BLE68-01(48591DE3C19B)	-0.453	-1.403	0.201	-11.169	33.142	-293.701	-96.45	33.19	-36.57	-43.414	-63.406	25.088	-0.68204	0.51340	-0.48322	-0.19400	30.4	13111	100
2025-3-27 17:48:31.402	WT901BLE68-01(48591DE3C19B)	-0.479	-1.403	0.201	-11.169	33.142	-293.701	-96.47	30.13	-36.64	-43.414	-63.406	25.088	-0.68204	0.51340	-0.48322	-0.19400	30.4	13111	100
2025-3-27 17:48:31.402	WT901BLE68-01(48591DE3C19B)	-0.479	-1.562	0.217	-10.437	29.114	-313.660	-96.47	26.99	-36.66	-43.414	-63.406	25.088	-0.68204	0.51340	-0.48322	-0.19400	30.4	13111	100
2025-3-27 17:48:31.402	WT901BLE68-01(48591DE3C19B)	-0.494	-1.562	0.217	-10.437	29.114	-313.660	-96.45	23.78	-36.63	-43.414	-63.406	25.088	-0.68204	0.51340	-0.48322	-0.19400	30.4	13111	100
2025-3-27 17:48:31.403	WT901BLE68-01(48591DE3C19B)	-0.494	-1.697	0.220	-9.766	30.029	-327.637	-96.43	20.52	-36.58	-43.414	-63.406	25.088	-0.68204	0.51340	-0.48322	-0.19400	30.4	13111	100
2025-3-27 17:48:31.494	WT901BLE68-01(48591DE3C19B)	-0.491	-1.697	0.220	-9.766	30.029	-327.637	-96.41	17.22	-36.52	-43.414	-63.406	25.088	-0.68204	0.51340	-0.48322	-0.19400	30.4	13111	100
2025-3-27 17:48:31.494	WT901BLE68-01(48591DE3C19B)	-0.491	-1.783	0.219	-5.676	34.668	-332.520	-96.38	13.91	-36.46	-43.414	-63.406	25.088	-0.68204	0.51340	-0.48322	-0.19400	30.4	13111	100
2025-3-27 17:48:31.494	WT901BLE68-01(48591DE3C19B)	-0.456	-1.783	0.219	-5.676	34.668	-332.520	-96.35	10.59	-36.43	-43.414	-63.406	25.088	-0.68204	0.51340	-0.48322	-0.19400	30.4	13111	100
2025-3-27 17:48:31.494	WT901BLE68-01(48591DE3C19B)	-0.456	-1.832	0.221	-2.197	48.157	-329.895	-96.31	7.30	-36.45	-43.414	-63.406	25.088	-0.68204	0.51340	-0.48322	-0.19400	30.4	13111	100
2025-3-27 17:48:31.495	WT901BLE68-01(48591DE3C19B)	-0.423	-1.832	0.221	-2.197	48.157	-329.895	-96.26	4.04	-36.54	-25.284	-46.354	26.264	-0.68204	0.51340	-0.48322	-0.19400	30.4	13111	100
2025-3-27 17:48:31.495	WT901BLE68-01(48591DE3C19B)	-0.423	-1.866	0.223	3.113	70.618	-320.496	-96.19	0.82	-36.74	-25.284	-46.354	26.264	-0.68204	0.51340	-0.48322	-0.19400	30.4	13111	100
2025-3-27 17:48:31.495	WT901BLE68-01(48591DE3C19B)	-0.422	-1.866	0.223	3.113	70.618	-320.496	-96.08	-2.33	-37.06	-25.284	-46.354	26.264	-0.68204	0.51340	-0.48322	-0.19400	30.4	13111	100
2025-3-27 17:48:31.495	WT901BLE68-01(48591DE3C19B)	-0.422	-1.858	0.195	10.742	100.281	-303.650	-95.90	-5.40	-37.53	-25.284	-46.354	26.264	-0.68204	0.51340	-0.48322	-0.19400	30.4	13111	100
2025-3-27 17:48:31.553	WT901BLE68-01(48591DE3C19B)	-0.458	-1.858	0.195	10.742	100.281	-303.650	-95.64	-8.38	-38.18	-25.284	-46.354	26.264	-0.68204	0.51340	-0.48322	-0.19400	30.4	13111	100
2025-3-27 17:48:31.553	WT901BLE68-01(48591DE3C19B)	-0.458	-1.819	0.184	21.057	127.686	-283.386	-95.27	-11.26	-38.98	-25.284	-46.354	26.264	-0.68204	0.51340	-0.48322	-0.19400	30.4	13111	100
2025-3-27 17:48:31.554	WT901BLE68-01(48591DE3C19B)	-0.501	-1.819	0.184	21.057	127.686	-283.386	-94.78	-14.02	-39.95	-25.284	-46.354	26.264	-0.68204	0.51340	-0.48322	-0.19400	30.4	13111	100
2025-3-27 17:48:31.554	WT901BLE68-01(48591DE3C19B)	-0.501	-1.772	0.167	31.128	147.278	-259.033	-94.15	-16.64	-41.07	-25.284	-46.354	26.264	-0.68204	0.51340	-0.48322	-0.19400	30.4	13111	100
2025-3-27 17:48:31.582	WT901BLE68-01(48591DE3C19B)	-0.539	-1.772	0.167	31.128	147.278	-259.033	-93.39	-19.13	-42.34	-25.284	-46.354	26.264	-0.68204	0.51340	-0.48322	-0.19400	30.4	13111	100
2025-3-27 17:48:31.582	WT901BLE68-01(48591DE3C19B)	-0.539	-1.714	0.161	42.603	160.339	-231.995	-92.48	-21.44	-43.72	-25.284	-46.354	26.264	-0.68204	0.51340	-0.48322	-0.19400	30.4	13111	100
2025-3-27 17:48:31.582	WT901BLE68-01(48591DE3C19B)	-0.589	-1.714	0.161	42.603	160.339	-231.995	-91.42	-23.59	-45.24	-25.284	-46.354	26.264	-0.68204	0.51340	-0.48322	-0.19400	30.4	13111	100
2025-3-27 17:48:31.583	WT901BLE68-01(48591DE3C19B)	-0.589	-1.631	0.140	52.429	161.926	-201.477	-90.23	-25.54	-46.83	-25.284	-46.354	26.264	-0.68204	0.51340	-0.48322	-0.19400	30.4	13111	100
2025-3-27 17:48:31.612	WT901BLE68-01(48591DE3C19B)	-0.638	-1.631	0.140	52.429	161.926	-201.477	-88.92	-27.29	-48.49	-25.284	-46.354	26.264	-0.68204	0.51340	-0.48322	-0.19400	30.4	13111	100
2025-3-27 17:48:31.612	WT901BLE68-01(48591DE3C19B)	-0.638	-1.537	0.100	60.425	150.452	-171.082	-87.53	-28.84	-50.14	-25.284	-46.354	26.264	-0.68204	0.51340	-0.48322	-0.19400	30.4	13111	100
2025-3-27 17:48:31.612	WT901BLE68-01(48591DE3C19B)	-0.661	-1.537	0.100	60.425	150.452	-171.082	-86.09	-30.20	-51.78	-25.284	-46.354	26.264	-0.68204	0.51340	-0.48322	-0.19400	30.4	13111	100
2025-3-27 17:48:31.612	WT901BLE68-01(48591DE3C19B)	-0.661	-1.424	0.058	65.308	127.930	-143.188	-84.64	-31.38	-53.32	-25.284	-46.354	26.264	-0.68204	0.51340	-0.48322	-0.19400	30.4	13111	100
2025-3-27 17:48:31.674	WT901BLE68-01(48591DE3C19B)	-0.666	-1.424	0.058	65.308	127.930	-143.188	-83.21	-32.39	-54.76	-25.284	-46.354	26.264	-0.68204	0.51340	-0.48322	-0.19400	30.4	13111	100
2025-3-27 17:48:31.674	WT901BLE68-01(48591DE3C19B)	-0.666	-1.294	0.029	68.115	99.854	-117.554	-81.83	-33.26	-56.06	-25.284	-46.354	26.264	-0.68204	0.51340	-0.48322	-0.19400	30.4	13111	100
2025-3-27 17:48:31.674	WT901BLE68-01(48591DE3C19B)	-0.671	-1.294	0.029	68.115	99.854	-117.554	-80.52	-33.98	-57.19	-25.284	-46.354	26.264	-0.68204	0.51340	-0.48322	-0.19400	30.4	13111	100
2025-3-27 17:48:31.674	WT901BLE68-01(48591DE3C19B)	-0.671	-1.207	0.060	66.284	67.688	-93.506	-79.32	-34.58	-58.13	-25.284	-46.354	26.264	-0.68204	0.51340	-0.48322	-0.19400	30.4	13111	100
2025-3-27 17:48:31.763	WT901BLE68-01(48591DE3C19B)	-0.633	-1.207	0.060	66.284	67.688	-93.506	-78.24	-35.07	-58.87	-25.284	-46.354	26.264	-0.68204	0.51340	-0.48322	-0.19400	30.4	13111	100
2025-3-27 17:48:31.763	WT901BLE68-01(48591DE3C19B)	-0.633	-1.121	0.093	66.772	42.114	-70.740	-77.26	-35.47	-59.44	-25.284	-46.354	26.264	-0.68204	0.51340	-0.48322	-0.19400	30.4	13111	100
2025-3-27 17:48:31.764	WT901BLE68-01(48591DE3C19B)	-0.516	-1.121	0.093	66.772	42.114	-70.740	-76.38	-35.77	-59.84	-25.284	-46.354	26.264	-0.68204	0.51340	-0.48322	-0.19400	30.4	13111	100
2025-3-27 17:48:31.764	WT901BLE68-01(48591DE3C19B)	-0.516	-0.969	0.030	63.904	37.109	-49.561	-75.55	-35.95	-60.18	-25.284	-46.354	26.264	-0.55695	0.62451	-0.07968	0.54163	30.4	13111	100
2025-3-27 17:48:31.764	WT901BLE68-01(48591DE3C19B)	-0.438	-0.969	0.030	63.904	37.109	-49.561	-74.77	-36.04	-60.46	-25.284	-46.354	26.264	-0.55695	0.62451	-0.07968	0.54163	30.4	13111	100
2025-3-27 17:48:31.764	WT901BLE68-01(48591DE3C19B)	-0.438	-0.930	-0.051	51.392	46.204	-29.114	-74.05	-36.01	-60.77	-25.284	-46.354	26.264	-0.55695	0.62451	-0.07968	0.54163	30.4	13111	100
2025-3-27 17:48:31.764	WT901BLE68-01(48591DE3C19B)	-0.420	-0.930	-0.051	51.392	46.204	-29.114	-73.38	-35.86	-61.10	-25.284	-46.354	26.264	-0.55695	0.62451	-0.07968	0.54163	30.4	13111	100
2025-3-27 17:48:31.764	WT901BLE68-01(48591DE3C19B)	-0.420	-1.081	-0.125	35.461	59.937	-12.878	-72.82	-35.52	-61.53	-25.284	-46.354	26.264	-0.55695	0.62451	-0.07968	0.54163	30.4	13111	100
2025-3-27 17:48:31.828	WT901BLE68-01(48591DE3C19B)	-0.378	-1.081	-0.125	35.461	59.937	-12.878	-72.27	-35.18	-61.95	-25.284	-46.354	26.264	-0.55695	0.62451	-0.07968	0.54163	30.4	13111	100
2025-3-27 17:48:31.828	WT901BLE68-01(48591DE3C19B)	-0.378	-0.966	-0.140	26.978	77.332	3.296	-71.75	-34.63	-62.51	-25.284	-46.354	26.264	-0.55695	0.62451	-0.07968	0.54163	30.4	13111	100
2025-3-27 17:48:31.828	WT901BLE68-01(48591DE3C19B)	-0.357	-0.966	-0.140	26.978	77.332	3.296	-71.24	-34.08	-63.06	-25.284	-46.354	26.264	-0.55695	0.62451	-0.07968	0.54163	30.4	13111	100
2025-3-27 17:48:31.828	WT901BLE68-01(48591DE3C19B)	-0.357	-0.512	-0.069	6.775	88.867	29.297	-70.93	-33.24	-63.62	-25.284	-46.354	26.264	-0.55695	0.62451	-0.07968	0.54163	30.4	13111	100
2025-3-27 17:48:31.829	WT901BLE68-01(48591DE3C19B)	-0.437	-0.512	-0.069	6.775	88.867	29.297	-70.64	-32.41	-64.17	-25.284	-46.354	26.264	-0.55695	0.62451	-0.07968	0.54163	30.4	13111	100
2025-3-27 17:48:31.829	WT901BLE68-01(48591DE3C19B)	-0.437	-0.180	0.072	-30.579	74.402	54.626	-70.88	-31.39	-64.45	-25.284	-46.354	26.264	-0.55695	0.62451	-0.07968	0.54163	30.4	13111	100
2025-3-27 17:48:31.829	WT901BLE68-01(48591DE3C19B)	-0.563	-0.180	0.072	-30.579	74.402	54.626	-71.13	-30.36	-64.72	-25.284	-46.354	26.264	-0.55695	0.62451	-0.07968	0.54163	30.4	13111	100
2025-3-27 17:48:31.829	WT901BLE68-01(48591DE3C19B)	-0.563	-0.194	0.237	-61.401	30.029	86.426	-71.99	-29.17	-64.39	-25.284	-46.354	26.264	-0.55695	0.62451	-0.07968	0.54163	30.4	13111	100
2025-3-27 17:48:31.855	WT901BLE68-01(48591DE3C19B)	-0.538	-0.194	0.237	-61.401	30.029	86.426	-72.83	-27.98	-64.07	-25.284	-46.354	26.264	-0.55695	0.62451	-0.07968	0.54163	30.4	13111	100
2025-3-27 17:48:31.855	WT901BLE68-01(48591DE3C19B)	-0.538	-0.403	0.262	-81.787	-20.081	114.929	-74.14	-26.64	-63.15	-25.284	-46.354	26.264	-0.55695	0.62451	-0.07968	0.54163	30.4	13111	100
2025-3-27 17:48:31.855	WT901BLE68-01(48591DE3C19B)	-0.403	-0.403	0.262	-81.787	-20.081	114.929	-75.41	-25.29	-62.26	-24.598	-11.368	44.296	-0.55695	0.62451	-0.07968	0.54163	30.4	13111	100
2025-3-27 17:48:31.855	WT901BLE68-01(48591DE3C19B)	-0.403	-0.588	0.198	-93.384	-70.129	138.733	-76.99	-23.81	-60.83	-24.598	-11.368	44.296	-0.55695	0.62451	-0.07968	0.54163	30.4	13111	100
2025-3-27 17:48:31.913	WT901BLE68-01(48591DE3C19B)	-0.414	-0.588	0.198	-93.384	-70.129	138.733	-78.51	-22.31	-59.45	-24.598	-11.368	44.296	-0.55695	0.62451	-0.07968	0.54163	30.4	13111	100
2025-3-27 17:48:31.913	WT901BLE68-01(48591DE3C19B)	-0.414	-0.791	0.160	-100.098	-130.859	164.429	-80.28	-20.64	-57.45	-24.598	-11.368	44.296	-0.55695	0.62451	-0.07968	0.54163	30.4	13111	100
2025-3-27 17:48:31.913	WT901BLE68-01(48591DE3C19B)	-0.380	-0.791	0.160	-100.098	-130.859	164.429	-81.96	-18.93	-55.52	-24.598	-11.368	44.296	-0.55695	0.62451	-0.07968	0.54163	30.4	13111	100
2025-3-27 17:48:31.913	WT901BLE68-01(48591DE3C19B)	-0.380	-1.014	0.093	-100.891	-186.646	179.810	-83.74	-17.11	-53.09	-24.598	-11.368	44.296	-0.55695	0.62451	-0.07968	0.54163	30.4	13111	100
2025-3-27 17:48:31.942	WT901BLE68-01(48591DE3C19B)	-0.229	-1.014	0.093	-100.891	-186.646	179.810	-85.42	-15.23	-50.74	-24.598	-11.368	44.296	-0.55695	0.62451	-0.07968	0.54163	30.4	13111	100
2025-3-27 17:48:31.943	WT901BLE68-01(48591DE3C19B)	-0.229	-1.171	0.024	-87.769	-208.008	194.336	-86.91	-13.19	-48.25	-24.598	-11.368	44.296	-0.55695	0.62451	-0.07968	0.54163	30.4	13111	100
2025-3-27 17:48:31.943	WT901BLE68-01(48591DE3C19B)	-0.238	-1.171	0.024	-87.769	-208.008	194.336	-88.30	-11.11	-45.85	-24.598	-11.368	44.296	-0.55695	0.62451	-0.07968	0.54163	30.4	13111	100
2025-3-27 17:48:31.943	WT901BLE68-01(48591DE3C19B)	-0.238	-1.247	0.101	-71.289	-204.346	203.003	-89.40	-8.92	-43.57	-24.598	-11.368	44.296	-0.55695	0.62451	-0.07968	0.54163	30.4	13111	100
2025-3-27 17:48:31.972	WT901BLE68-01(48591DE3C19B)	-0.226	-1.247	0.101	-71.289	-204.346	203.003	-90.40	-6.71	-41.35	-24.598	-11.368	44.296	-0.55695	0.62451	-0.07968	0.54163	30.4	13111	100
2025-3-27 17:48:31.972	WT901BLE68-01(48591DE3C19B)	-0.226	-1.508	0.192	-65.125	-199.219	207.764	-91.24	-4.44	-39.24	-24.598	-11.368	44.296	-0.55695	0.62451	-0.07968	0.54163	30.4	13111	100
2025-3-27 17:48:31.972	WT901BLE68-01(48591DE3C19B)	0.059	-1.508	0.192	-65.125	-199.219	207.764	-91.97	-2.18	-37.19	-24.598	-11.368	44.296	-0.55695	0.62451	-0.07968	0.54163	30.4	13111	100
2025-3-27 17:48:31.973	WT901BLE68-01(48591DE3C19B)	0.059	-1.717	0.237	-38.818	-176.636	200.562	-92.36	0.00	-35.41	-24.598	-11.368	44.296	-0.55695	0.62451	-0.07968	0.54163	30.4	13111	100
2025-3-27 17:48:32.33	WT901BLE68-01(48591DE3C19B)	0.269	-1.717	0.237	-38.818	-176.636	200.562	-92.67	2.16	-33.66	-24.598	-11.368	44.296	-0.55695	0.62451	-0.07968	0.54163	30.4	13111	100
2025-3-27 17:48:32.33	WT901BLE68-01(48591DE3C19B)	0.269	-1.671	0.226	-10.071	-115.845	204.224	-92.65	4.30	-32.55	-24.598	-11.368	44.296	-0.55695	0.62451	-0.07968	0.54163	30.4	13111	100
2025-3-27 17:48:32.33	WT901BLE68-01(48591DE3C19B)	0.189	-1.671	0.226	-10.071	-115.845	204.224	-92.60	6.42	-31.45	-24.598	-11.368	44.296	-0.55695	0.62451	-0.07968	0.54163	30.4	13111	100
2025-3-27 17:48:32.33	WT901BLE68-01(48591DE3C19B)	0.189	-1.411	0.221	-0.122	-50.293	204.834	-92.49	8.48	-31.03	-24.598	-11.368	44.296	-0.55695	0.62451	-0.07968	0.54163	30.4	13111	100
2025-3-27 17:48:32.93	WT901BLE68-01(48591DE3C19B)	-0.055	-1.411	0.221	-0.122	-50.293	204.834	-92.36	10.51	-30.60	-24.598	-11.368	44.296	-0.55695	0.62451	-0.07968	0.54163	30.4	13111	100
2025-3-27 17:48:32.93	WT901BLE68-01(48591DE3C19B)	-0.055	-1.394	0.221	-7.813	-21.973	201.599	-92.35	12.49	-30.47	-24.598	-11.368	44.296	-0.55695	0.62451	-0.07968	0.54163	30.4	13111	100
2025-3-27 17:48:32.93	WT901BLE68-01(48591DE3C19B)	-0.241	-1.394	0.221	-7.813	-21.973	201.599	-92.34	14.45	-30.34	-24.598	-11.368	44.296	-0.55695	0.62451	-0.07968	0.54163	30.4	13111	100
2025-3-27 17:48:32.93	WT901BLE68-01(48591DE3C19B)	-0.241	-1.538	0.257	-11.292	-32.776	198.364	-92.32	16.38	-30.10	-24.598	-11.368	44.296	-0.68958	0.66168	-0.28528	0.07205	30.4	13111	100
