time	DeviceName	AccX(g)	AccY(g)	AccZ(g)	AsX(°/s)	AsY(°/s)	AsZ(°/s)	AngleX(°)	AngleY(°)	AngleZ(°)	HX(uT)	HY(uT)	HZ(uT)	Q0()	Q1()	Q2()	Q3()	Temperature(°C)	Version()	Battery level(%)
2025-3-27 17:38:56.968	WT901BLE68-01(48591DE3C19B)	-0.290	-0.922	0.235	0.977	2.441	5.310	-75.58	17.70	-109.69	-56.350	-46.060	-4.116	0.52658	-0.24936	0.56494	-0.58414	29.4	13111	100
2025-3-27 17:38:56.968	WT901BLE68-01(48591DE3C19B)	-0.290	-0.924	0.235	0.854	2.625	4.578	-75.57	17.75	-109.71	-56.350	-46.060	-4.116	0.52658	-0.24936	0.56494	-0.58414	29.4	13111	100
2025-3-27 17:38:56.969	WT901BLE68-01(48591DE3C19B)	-0.289	-0.924	0.235	0.854	2.625	4.578	-75.57	17.80	-109.73	-56.350	-46.060	-4.116	0.52658	-0.24936	0.56494	-0.58414	29.4	13111	100
2025-3-27 17:38:56.969	WT901BLE68-01(48591DE3C19B)	-0.289	-0.922	0.233	0.977	3.235	3.723	-75.57	17.84	-109.76	-56.350	-46.060	-4.116	0.52658	-0.24936	0.56494	-0.58414	29.4	13111	100
2025-3-27 17:38:57.28	WT901BLE68-01(48591DE3C19B)	-0.289	-0.922	0.233	0.977	3.235	3.723	-75.56	17.88	-109.79	-56.350	-46.060	-4.116	0.52658	-0.24936	0.56494	-0.58414	29.4	13111	100
2025-3-27 17:38:57.29	WT901BLE68-01(48591DE3C19B)	-0.289	-0.921	0.231	0.916	3.723	2.869	-75.57	17.91	-109.82	-56.350	-46.060	-4.116	0.52658	-0.24936	0.56494	-0.58414	29.4	13111	100
2025-3-27 17:38:57.29	WT901BLE68-01(48591DE3C19B)	-0.289	-0.921	0.231	0.916	3.723	2.869	-75.57	17.95	-109.86	-56.350	-46.060	-4.116	0.52658	-0.24936	0.56494	-0.58414	29.4	13111	100
2025-3-27 17:38:57.29	WT901BLE68-01(48591DE3C19B)	-0.289	-0.918	0.230	0.793	3.845	2.014	-75.57	17.97	-109.90	-56.350	-46.060	-4.116	0.52658	-0.24936	0.56494	-0.58414	29.4	13111	100
2025-3-27 17:38:57.59	WT901BLE68-01(48591DE3C19B)	-0.291	-0.918	0.230	0.793	3.845	2.014	-75.57	18.00	-109.93	-56.350	-46.060	-4.116	0.52658	-0.24936	0.56494	-0.58414	29.4	13111	100
2025-3-27 17:38:57.59	WT901BLE68-01(48591DE3C19B)	-0.291	-0.917	0.230	0.488	3.784	1.282	-75.58	18.01	-109.97	-56.350	-46.060	-4.116	0.52658	-0.24936	0.56494	-0.58414	29.4	13111	100
2025-3-27 17:38:57.60	WT901BLE68-01(48591DE3C19B)	-0.290	-0.917	0.230	0.488	3.784	1.282	-75.59	18.03	-110.01	-56.350	-46.060	-4.116	0.52658	-0.24936	0.56494	-0.58414	29.4	13111	100
2025-3-27 17:38:57.60	WT901BLE68-01(48591DE3C19B)	-0.290	-0.923	0.229	0.366	3.845	0.793	-75.60	18.04	-110.05	-56.350	-46.060	-4.116	0.52658	-0.24936	0.56494	-0.58414	29.4	13111	100
2025-3-27 17:38:57.91	WT901BLE68-01(48591DE3C19B)	-0.289	-0.923	0.229	0.366	3.845	0.793	-75.61	18.05	-110.09	-56.350	-46.060	-4.116	0.52658	-0.24936	0.56494	-0.58414	29.4	13111	100
2025-3-27 17:38:57.91	WT901BLE68-01(48591DE3C19B)	-0.289	-0.922	0.225	0.366	3.906	0.366	-75.62	18.06	-110.13	-56.350	-46.060	-4.116	0.52658	-0.24936	0.56494	-0.58414	29.4	13111	100
2025-3-27 17:38:57.92	WT901BLE68-01(48591DE3C19B)	-0.289	-0.919	0.224	0.061	4.028	-0.061	-75.63	18.06	-110.17	-56.350	-46.060	-4.116	0.52658	-0.24936	0.56494	-0.58414	29.4	13111	100
2025-3-27 17:38:57.92	WT901BLE68-01(48591DE3C19B)	-0.291	-0.919	0.224	0.061	4.028	-0.061	-75.64	18.07	-110.21	-56.350	-46.060	-4.116	0.52658	-0.24936	0.56494	-0.58414	29.4	13111	100
2025-3-27 17:38:57.242	WT901BLE68-01(48591DE3C19B)	-0.291	-0.920	0.222	-0.122	3.967	-0.610	-75.66	18.07	-110.25	-56.350	-46.060	-4.116	0.52658	-0.24936	0.56494	-0.58414	29.4	13111	100
2025-3-27 17:38:57.242	WT901BLE68-01(48591DE3C19B)	-0.289	-0.920	0.222	-0.122	3.967	-0.610	-75.67	18.06	-110.30	-55.762	-46.256	-3.920	0.52658	-0.24936	0.56494	-0.58414	29.4	13111	100
2025-3-27 17:38:57.242	WT901BLE68-01(48591DE3C19B)	-0.289	-0.923	0.222	-0.488	4.028	-1.404	-75.69	18.06	-110.34	-55.762	-46.256	-3.920	0.52658	-0.24936	0.56494	-0.58414	29.4	13111	100
2025-3-27 17:38:57.242	WT901BLE68-01(48591DE3C19B)	-0.288	-0.923	0.222	-0.488	4.028	-1.404	-75.71	18.05	-110.38	-55.762	-46.256	-3.920	0.52658	-0.24936	0.56494	-0.58414	29.4	13111	100
2025-3-27 17:38:57.242	WT901BLE68-01(48591DE3C19B)	-0.288	-0.930	0.222	-0.793	4.456	-2.075	-75.73	18.03	-110.43	-55.762	-46.256	-3.920	0.52658	-0.24936	0.56494	-0.58414	29.4	13111	100
2025-3-27 17:38:57.243	WT901BLE68-01(48591DE3C19B)	-0.288	-0.930	0.222	-0.793	4.456	-2.075	-75.76	18.02	-110.48	-55.762	-46.256	-3.920	0.52658	-0.24936	0.56494	-0.58414	29.4	13111	100
2025-3-27 17:38:57.243	WT901BLE68-01(48591DE3C19B)	-0.288	-0.930	0.220	-1.038	5.127	-2.869	-75.79	18.00	-110.53	-55.762	-46.256	-3.920	0.52658	-0.24936	0.56494	-0.58414	29.4	13111	100
2025-3-27 17:38:57.243	WT901BLE68-01(48591DE3C19B)	-0.288	-0.930	0.220	-1.038	5.127	-2.869	-75.82	17.98	-110.59	-55.762	-46.256	-3.920	0.52658	-0.24936	0.56494	-0.58414	29.4	13111	100
2025-3-27 17:38:57.270	WT901BLE68-01(48591DE3C19B)	-0.288	-0.923	0.220	-1.465	5.920	-3.784	-75.86	17.96	-110.65	-55.762	-46.256	-3.920	0.52658	-0.24936	0.56494	-0.58414	29.4	13111	100
2025-3-27 17:38:57.270	WT901BLE68-01(48591DE3C19B)	-0.298	-0.923	0.220	-1.465	5.920	-3.784	-75.90	17.93	-110.72	-55.762	-46.256	-3.920	0.52658	-0.24936	0.56494	-0.58414	29.4	13111	100
2025-3-27 17:38:57.270	WT901BLE68-01(48591DE3C19B)	-0.298	-0.923	0.219	-2.380	5.310	-4.517	-75.94	17.90	-110.78	-55.762	-46.256	-3.920	0.52658	-0.24936	0.56494	-0.58414	29.4	13111	100
2025-3-27 17:38:57.270	WT901BLE68-01(48591DE3C19B)	-0.298	-0.923	0.219	-2.380	5.310	-4.517	-75.99	17.86	-110.84	-55.762	-46.256	-3.920	0.52658	-0.24936	0.56494	-0.58414	29.4	13111	100
2025-3-27 17:38:57.390	WT901BLE68-01(48591DE3C19B)	-0.298	-0.931	0.221	-2.808	4.456	-5.432	-76.04	17.82	-110.90	-55.762	-46.256	-3.920	0.52658	-0.24936	0.56494	-0.58414	29.4	13111	100
2025-3-27 17:38:57.391	WT901BLE68-01(48591DE3C19B)	-0.298	-0.931	0.221	-2.808	4.456	-5.432	-76.08	17.77	-110.96	-55.762	-46.256	-3.920	0.52658	-0.24936	0.56494	-0.58414	29.4	13111	100
2025-3-27 17:38:57.391	WT901BLE68-01(48591DE3C19B)	-0.298	-0.928	0.221	-2.808	4.211	-6.104	-76.13	17.72	-111.01	-55.762	-46.256	-3.920	0.52658	-0.24936	0.56494	-0.58414	29.4	13111	100
2025-3-27 17:38:57.391	WT901BLE68-01(48591DE3C19B)	-0.295	-0.928	0.221	-2.808	4.211	-6.104	-76.18	17.67	-111.06	-55.762	-46.256	-3.920	0.52658	-0.24936	0.56494	-0.58414	29.4	13111	100
2025-3-27 17:38:57.392	WT901BLE68-01(48591DE3C19B)	-0.295	-0.930	0.222	-2.869	4.639	-6.836	-76.23	17.62	-111.12	-55.762	-46.256	-3.920	0.52658	-0.24936	0.56494	-0.58414	29.4	13111	100
2025-3-27 17:38:57.392	WT901BLE68-01(48591DE3C19B)	-0.298	-0.930	0.222	-2.869	4.639	-6.836	-76.27	17.56	-111.18	-55.762	-46.256	-3.920	0.52658	-0.24936	0.56494	-0.58414	29.4	13111	100
2025-3-27 17:38:57.392	WT901BLE68-01(48591DE3C19B)	-0.298	-0.931	0.223	-2.136	5.371	-7.507	-76.32	17.50	-111.24	-55.762	-46.256	-3.920	0.52658	-0.24936	0.56494	-0.58414	29.4	13111	100
2025-3-27 17:38:57.392	WT901BLE68-01(48591DE3C19B)	-0.302	-0.931	0.223	-2.136	5.371	-7.507	-76.37	17.44	-111.30	-55.762	-46.256	-3.920	0.52658	-0.24936	0.56494	-0.58414	29.4	13111	100
2025-3-27 17:38:57.392	WT901BLE68-01(48591DE3C19B)	-0.302	-0.923	0.222	-1.587	5.981	-8.057	-76.41	17.37	-111.37	-55.762	-46.256	-3.920	0.52658	-0.24936	0.56494	-0.58414	29.4	13111	100
2025-3-27 17:38:57.392	WT901BLE68-01(48591DE3C19B)	-0.303	-0.923	0.222	-1.587	5.981	-8.057	-76.45	17.30	-111.45	-55.762	-46.256	-3.920	0.52658	-0.24936	0.56494	-0.58414	29.4	13111	100
2025-3-27 17:38:57.392	WT901BLE68-01(48591DE3C19B)	-0.303	-0.920	0.216	-1.099	6.165	-8.423	-76.49	17.24	-111.52	-55.762	-46.256	-3.920	0.52658	-0.24936	0.56494	-0.58414	29.4	13111	100
2025-3-27 17:38:57.392	WT901BLE68-01(48591DE3C19B)	-0.304	-0.920	0.216	-1.099	6.165	-8.423	-76.52	17.17	-111.60	-55.762	-46.256	-3.920	0.52658	-0.24936	0.56494	-0.58414	29.4	13111	100
2025-3-27 17:38:57.393	WT901BLE68-01(48591DE3C19B)	-0.304	-0.911	0.212	-0.732	6.348	-8.789	-76.56	17.11	-111.68	-55.762	-46.256	-3.920	0.52658	-0.24936	0.56494	-0.58414	29.4	13111	100
2025-3-27 17:38:57.393	WT901BLE68-01(48591DE3C19B)	-0.307	-0.911	0.212	-0.732	6.348	-8.789	-76.59	17.04	-111.75	-55.762	-46.256	-3.920	0.52658	-0.24936	0.56494	-0.58414	29.4	13111	100
2025-3-27 17:38:57.393	WT901BLE68-01(48591DE3C19B)	-0.307	-0.910	0.208	-1.038	6.226	-9.216	-76.62	16.97	-111.83	-55.762	-46.256	-3.920	0.52658	-0.24936	0.56494	-0.58414	29.4	13111	100
2025-3-27 17:38:57.393	WT901BLE68-01(48591DE3C19B)	-0.308	-0.910	0.208	-1.038	6.226	-9.216	-76.66	16.90	-111.91	-55.762	-46.256	-3.920	0.52658	-0.24936	0.56494	-0.58414	29.4	13111	100
2025-3-27 17:38:57.449	WT901BLE68-01(48591DE3C19B)	-0.308	-0.915	0.206	-0.977	6.104	-9.644	-76.70	16.83	-111.98	-55.762	-46.256	-3.920	0.52658	-0.24936	0.56494	-0.58414	29.4	13111	100
2025-3-27 17:38:57.450	WT901BLE68-01(48591DE3C19B)	-0.312	-0.915	0.206	-0.977	6.104	-9.644	-76.73	16.75	-112.06	-55.762	-46.256	-3.920	0.52658	-0.24936	0.56494	-0.58414	29.4	13111	100
2025-3-27 17:38:57.450	WT901BLE68-01(48591DE3C19B)	-0.312	-0.920	0.201	-1.282	5.920	-10.071	-76.76	16.67	-112.13	-55.762	-46.256	-3.920	0.52658	-0.24936	0.56494	-0.58414	29.4	13111	100
2025-3-27 17:38:57.450	WT901BLE68-01(48591DE3C19B)	-0.313	-0.920	0.201	-1.282	5.920	-10.071	-76.80	16.59	-112.20	-55.762	-46.256	-3.920	0.50650	-0.24902	0.57330	-0.59384	29.4	13111	100
2025-3-27 17:38:57.479	WT901BLE68-01(48591DE3C19B)	-0.313	-0.935	0.198	-1.282	5.676	-10.437	-76.84	16.52	-112.27	-55.762	-46.256	-3.920	0.50650	-0.24902	0.57330	-0.59384	29.4	13111	100
2025-3-27 17:38:57.479	WT901BLE68-01(48591DE3C19B)	-0.314	-0.935	0.198	-1.282	5.676	-10.437	-76.88	16.44	-112.35	-55.762	-46.256	-3.920	0.50650	-0.24902	0.57330	-0.59384	29.4	13111	100
2025-3-27 17:38:57.479	WT901BLE68-01(48591DE3C19B)	-0.314	-0.951	0.194	-1.160	5.859	-10.559	-76.92	16.36	-112.42	-55.762	-46.256	-3.920	0.50650	-0.24902	0.57330	-0.59384	29.4	13111	100
2025-3-27 17:38:57.479	WT901BLE68-01(48591DE3C19B)	-0.315	-0.951	0.194	-1.160	5.859	-10.559	-76.95	16.28	-112.48	-55.762	-46.256	-3.920	0.50650	-0.24902	0.57330	-0.59384	29.4	13111	100
2025-3-27 17:38:57.544	WT901BLE68-01(48591DE3C19B)	-0.315	-0.954	0.191	-0.549	6.531	-10.315	-76.99	16.20	-112.55	-55.762	-46.256	-3.920	0.50650	-0.24902	0.57330	-0.59384	29.4	13111	100
2025-3-27 17:38:57.544	WT901BLE68-01(48591DE3C19B)	-0.313	-0.954	0.191	-0.549	6.531	-10.315	-77.03	16.12	-112.63	-55.762	-46.256	-3.920	0.50650	-0.24902	0.57330	-0.59384	29.4	13111	100
2025-3-27 17:38:57.544	WT901BLE68-01(48591DE3C19B)	-0.313	-0.941	0.189	-0.732	7.568	-9.705	-77.06	16.05	-112.71	-55.762	-46.256	-3.920	0.50650	-0.24902	0.57330	-0.59384	29.4	13111	100
2025-3-27 17:38:57.544	WT901BLE68-01(48591DE3C19B)	-0.312	-0.941	0.189	-0.732	7.568	-9.705	-77.10	15.99	-112.79	-55.762	-46.256	-3.920	0.50650	-0.24902	0.57330	-0.59384	29.4	13111	100
2025-3-27 17:38:57.544	WT901BLE68-01(48591DE3C19B)	-0.312	-0.928	0.189	-0.671	8.850	-8.484	-77.14	15.93	-112.87	-55.762	-46.256	-3.920	0.50650	-0.24902	0.57330	-0.59384	29.4	13111	100
2025-3-27 17:38:57.544	WT901BLE68-01(48591DE3C19B)	-0.310	-0.928	0.189	-0.671	8.850	-8.484	-77.18	15.88	-112.97	-55.762	-46.256	-3.920	0.50650	-0.24902	0.57330	-0.59384	29.4	13111	100
2025-3-27 17:38:57.544	WT901BLE68-01(48591DE3C19B)	-0.310	-0.912	0.187	-1.038	10.742	-7.263	-77.23	15.84	-113.06	-55.762	-46.256	-3.920	0.50650	-0.24902	0.57330	-0.59384	29.4	13111	100
2025-3-27 17:38:57.544	WT901BLE68-01(48591DE3C19B)	-0.316	-0.912	0.187	-1.038	10.742	-7.263	-77.28	15.80	-113.16	-53.410	-45.864	-3.822	0.50650	-0.24902	0.57330	-0.59384	29.4	13111	100
2025-3-27 17:38:57.571	WT901BLE68-01(48591DE3C19B)	-0.316	-0.917	0.190	-0.793	12.268	-6.348	-77.33	15.78	-113.29	-53.410	-45.864	-3.822	0.50650	-0.24902	0.57330	-0.59384	29.4	13111	100
2025-3-27 17:38:57.571	WT901BLE68-01(48591DE3C19B)	-0.332	-0.917	0.190	-0.793	12.268	-6.348	-77.38	15.76	-113.40	-53.410	-45.864	-3.822	0.50650	-0.24902	0.57330	-0.59384	29.4	13111	100
2025-3-27 17:38:57.571	WT901BLE68-01(48591DE3C19B)	-0.332	-0.919	0.197	0.000	11.597	-5.493	-77.42	15.75	-113.51	-53.410	-45.864	-3.822	0.50650	-0.24902	0.57330	-0.59384	29.4	13111	100
2025-3-27 17:38:57.572	WT901BLE68-01(48591DE3C19B)	-0.342	-0.919	0.197	0.000	11.597	-5.493	-77.45	15.73	-113.62	-53.410	-45.864	-3.822	0.50650	-0.24902	0.57330	-0.59384	29.4	13111	100
2025-3-27 17:38:57.628	WT901BLE68-01(48591DE3C19B)	-0.342	-0.919	0.199	1.221	7.996	-4.089	-77.47	15.73	-113.69	-53.410	-45.864	-3.822	0.50650	-0.24902	0.57330	-0.59384	29.4	13111	100
2025-3-27 17:38:57.629	WT901BLE68-01(48591DE3C19B)	-0.337	-0.919	0.199	1.221	7.996	-4.089	-77.49	15.72	-113.76	-53.410	-45.864	-3.822	0.50650	-0.24902	0.57330	-0.59384	29.4	13111	100
2025-3-27 17:38:57.629	WT901BLE68-01(48591DE3C19B)	-0.337	-0.914	0.188	2.686	4.028	-1.953	-77.48	15.73	-113.79	-53.410	-45.864	-3.822	0.50650	-0.24902	0.57330	-0.59384	29.4	13111	100
2025-3-27 17:38:57.629	WT901BLE68-01(48591DE3C19B)	-0.311	-0.914	0.188	2.686	4.028	-1.953	-77.46	15.74	-113.81	-53.410	-45.864	-3.822	0.50650	-0.24902	0.57330	-0.59384	29.4	13111	100
2025-3-27 17:38:57.659	WT901BLE68-01(48591DE3C19B)	-0.311	-0.914	0.170	3.906	3.296	0.305	-77.44	15.77	-113.82	-53.410	-45.864	-3.822	0.50650	-0.24902	0.57330	-0.59384	29.4	13111	100
2025-3-27 17:38:57.659	WT901BLE68-01(48591DE3C19B)	-0.289	-0.914	0.170	3.906	3.296	0.305	-77.42	15.80	-113.83	-53.410	-45.864	-3.822	0.50650	-0.24902	0.57330	-0.59384	29.4	13111	100
2025-3-27 17:38:57.659	WT901BLE68-01(48591DE3C19B)	-0.289	-0.927	0.166	4.822	6.775	1.892	-77.39	15.85	-113.87	-53.410	-45.864	-3.822	0.50650	-0.24902	0.57330	-0.59384	29.4	13111	100
2025-3-27 17:38:57.659	WT901BLE68-01(48591DE3C19B)	-0.296	-0.927	0.166	4.822	6.775	1.892	-77.37	15.90	-113.91	-53.410	-45.864	-3.822	0.50650	-0.24902	0.57330	-0.59384	29.4	13111	100
2025-3-27 17:38:57.718	WT901BLE68-01(48591DE3C19B)	-0.296	-0.932	0.172	5.310	12.146	1.892	-77.36	15.96	-114.01	-53.410	-45.864	-3.822	0.50650	-0.24902	0.57330	-0.59384	29.4	13111	100
2025-3-27 17:38:57.718	WT901BLE68-01(48591DE3C19B)	-0.298	-0.932	0.172	5.310	12.146	1.892	-77.35	16.01	-114.10	-53.410	-45.864	-3.822	0.50650	-0.24902	0.57330	-0.59384	29.4	13111	100
2025-3-27 17:38:57.719	WT901BLE68-01(48591DE3C19B)	-0.298	-0.928	0.169	4.395	16.663	-0.122	-77.36	16.06	-114.24	-53.410	-45.864	-3.822	0.50650	-0.24902	0.57330	-0.59384	29.4	13111	100
2025-3-27 17:38:57.719	WT901BLE68-01(48591DE3C19B)	-0.316	-0.928	0.169	4.395	16.663	-0.122	-77.37	16.11	-114.38	-53.410	-45.864	-3.822	0.50650	-0.24902	0.57330	-0.59384	29.4	13111	100
2025-3-27 17:38:57.900	WT901BLE68-01(48591DE3C19B)	-0.316	-0.931	0.159	3.174	19.714	-4.028	-77.41	16.12	-114.55	-53.410	-45.864	-3.822	0.50650	-0.24902	0.57330	-0.59384	29.4	13111	100
2025-3-27 17:38:57.901	WT901BLE68-01(48591DE3C19B)	-0.354	-0.931	0.159	3.174	19.714	-4.028	-77.45	16.14	-114.73	-53.410	-45.864	-3.822	0.50650	-0.24902	0.57330	-0.59384	29.4	13111	100
2025-3-27 17:38:57.901	WT901BLE68-01(48591DE3C19B)	-0.354	-0.940	0.155	1.587	16.602	-9.277	-77.49	16.10	-114.88	-53.410	-45.864	-3.822	0.50650	-0.24902	0.57330	-0.59384	29.4	13111	100
2025-3-27 17:38:57.901	WT901BLE68-01(48591DE3C19B)	-0.368	-0.940	0.155	1.587	16.602	-9.277	-77.54	16.06	-115.04	-53.410	-45.864	-3.822	0.50650	-0.24902	0.57330	-0.59384	29.4	13111	100
2025-3-27 17:38:57.901	WT901BLE68-01(48591DE3C19B)	-0.368	-0.945	0.154	0.977	9.155	-14.526	-77.58	15.95	-115.13	-53.410	-45.864	-3.822	0.48734	-0.24142	0.58163	-0.60480	29.4	13111	100
2025-3-27 17:38:57.901	WT901BLE68-01(48591DE3C19B)	-0.380	-0.945	0.154	0.977	9.155	-14.526	-77.62	15.85	-115.22	-53.410	-45.864	-3.822	0.48734	-0.24142	0.58163	-0.60480	29.4	13111	100
2025-3-27 17:38:57.902	WT901BLE68-01(48591DE3C19B)	-0.380	-0.932	0.152	0.427	0.549	-18.921	-77.64	15.69	-115.23	-53.410	-45.864	-3.822	0.48734	-0.24142	0.58163	-0.60480	29.4	13111	100
2025-3-27 17:38:57.902	WT901BLE68-01(48591DE3C19B)	-0.388	-0.932	0.152	0.427	0.549	-18.921	-77.66	15.52	-115.24	-53.410	-45.864	-3.822	0.48734	-0.24142	0.58163	-0.60480	29.4	13111	100
2025-3-27 17:38:57.929	WT901BLE68-01(48591DE3C19B)	-0.388	-0.919	0.162	0.061	-10.437	-21.912	-77.66	15.31	-115.15	-53.410	-45.864	-3.822	0.48734	-0.24142	0.58163	-0.60480	29.4	13111	100
2025-3-27 17:38:57.929	WT901BLE68-01(48591DE3C19B)	-0.377	-0.919	0.162	0.061	-10.437	-21.912	-77.66	15.11	-115.06	-53.410	-45.864	-3.822	0.48734	-0.24142	0.58163	-0.60480	29.4	13111	100
2025-3-27 17:38:57.929	WT901BLE68-01(48591DE3C19B)	-0.377	-0.917	0.166	0.427	-19.592	-22.766	-77.63	14.88	-114.88	-53.410	-45.864	-3.822	0.48734	-0.24142	0.58163	-0.60480	29.4	13111	100
2025-3-27 17:38:57.929	WT901BLE68-01(48591DE3C19B)	-0.353	-0.917	0.166	0.427	-19.592	-22.766	-77.61	14.64	-114.70	-53.410	-45.864	-3.822	0.48734	-0.24142	0.58163	-0.60480	29.4	13111	100
2025-3-27 17:38:57.930	WT901BLE68-01(48591DE3C19B)	-0.353	-0.922	0.170	1.770	-22.644	-22.156	-77.56	14.41	-114.49	-53.410	-45.864	-3.822	0.48734	-0.24142	0.58163	-0.60480	29.4	13111	100
2025-3-27 17:38:57.930	WT901BLE68-01(48591DE3C19B)	-0.340	-0.922	0.170	1.770	-22.644	-22.156	-77.51	14.19	-114.29	-53.410	-45.864	-3.822	0.48734	-0.24142	0.58163	-0.60480	29.4	13111	100
2025-3-27 17:38:57.930	WT901BLE68-01(48591DE3C19B)	-0.340	-0.940	0.164	3.296	-21.423	-20.630	-77.45	13.98	-114.09	-53.410	-45.864	-3.822	0.48734	-0.24142	0.58163	-0.60480	29.4	13111	100
2025-3-27 17:38:57.931	WT901BLE68-01(48591DE3C19B)	-0.326	-0.940	0.164	3.296	-21.423	-20.630	-77.40	13.77	-113.90	-53.410	-45.864	-3.822	0.48734	-0.24142	0.58163	-0.60480	29.4	13111	100
2025-3-27 17:38:57.931	WT901BLE68-01(48591DE3C19B)	-0.326	-0.949	0.163	5.859	-16.663	-18.311	-77.33	13.60	-113.75	-53.410	-45.864	-3.822	0.48734	-0.24142	0.58163	-0.60480	29.4	13111	100
2025-3-27 17:38:57.931	WT901BLE68-01(48591DE3C19B)	-0.319	-0.949	0.163	5.859	-16.663	-18.311	-77.26	13.42	-113.59	-53.410	-45.864	-3.822	0.48734	-0.24142	0.58163	-0.60480	29.4	13111	100
2025-3-27 17:38:57.931	WT901BLE68-01(48591DE3C19B)	-0.319	-0.936	0.162	7.629	-10.315	-15.564	-77.18	13.28	-113.50	-53.410	-45.864	-3.822	0.48734	-0.24142	0.58163	-0.60480	29.4	13111	100
2025-3-27 17:38:57.931	WT901BLE68-01(48591DE3C19B)	-0.320	-0.936	0.162	7.629	-10.315	-15.564	-77.11	13.15	-113.41	-53.410	-45.864	-3.822	0.48734	-0.24142	0.58163	-0.60480	29.4	13111	100
2025-3-27 17:38:57.932	WT901BLE68-01(48591DE3C19B)	-0.320	-0.914	0.163	8.606	-5.249	-12.756	-77.04	13.05	-113.36	-53.410	-45.864	-3.822	0.48734	-0.24142	0.58163	-0.60480	29.4	13111	100
2025-3-27 17:38:57.932	WT901BLE68-01(48591DE3C19B)	-0.329	-0.914	0.163	8.606	-5.249	-12.756	-76.96	12.95	-113.31	-53.410	-45.864	-3.822	0.48734	-0.24142	0.58163	-0.60480	29.4	13111	100
2025-3-27 17:38:57.932	WT901BLE68-01(48591DE3C19B)	-0.329	-0.879	0.163	9.033	-2.380	-10.376	-76.89	12.89	-113.29	-51.646	-46.648	-3.626	0.48734	-0.24142	0.58163	-0.60480	29.4	13111	100
2025-3-27 17:38:57.932	WT901BLE68-01(48591DE3C19B)	-0.325	-0.879	0.163	9.033	-2.380	-10.376	-76.82	12.82	-113.26	-51.646	-46.648	-3.626	0.48734	-0.24142	0.58163	-0.60480	29.4	13111	100
2025-3-27 17:38:57.990	WT901BLE68-01(48591DE3C19B)	-0.325	-0.847	0.151	8.972	-1.526	-8.972	-76.76	12.77	-113.25	-51.646	-46.648	-3.626	0.48734	-0.24142	0.58163	-0.60480	29.4	13111	100
2025-3-27 17:38:57.990	WT901BLE68-01(48591DE3C19B)	-0.326	-0.847	0.151	8.972	-1.526	-8.972	-76.68	12.72	-113.23	-51.646	-46.648	-3.626	0.48734	-0.24142	0.58163	-0.60480	29.4	13111	100
2025-3-27 17:38:57.990	WT901BLE68-01(48591DE3C19B)	-0.326	-0.805	0.142	8.911	-4.028	-6.958	-76.61	12.69	-113.18	-51.646	-46.648	-3.626	0.48734	-0.24142	0.58163	-0.60480	29.4	13111	100
2025-3-27 17:38:57.990	WT901BLE68-01(48591DE3C19B)	-0.320	-0.805	0.142	8.911	-4.028	-6.958	-76.54	12.66	-113.14	-51.646	-46.648	-3.626	0.48734	-0.24142	0.58163	-0.60480	29.4	13111	100
2025-3-27 17:38:58.49	WT901BLE68-01(48591DE3C19B)	-0.320	-0.805	0.122	6.470	-9.949	-4.944	-76.48	12.63	-113.03	-51.646	-46.648	-3.626	0.48734	-0.24142	0.58163	-0.60480	29.4	13111	100
2025-3-27 17:38:58.50	WT901BLE68-01(48591DE3C19B)	-0.310	-0.805	0.122	6.470	-9.949	-4.944	-76.42	12.61	-112.92	-51.646	-46.648	-3.626	0.48734	-0.24142	0.58163	-0.60480	29.4	13111	100
2025-3-27 17:38:58.50	WT901BLE68-01(48591DE3C19B)	-0.306	-0.880	0.106	3.967	-15.137	-4.333	-76.37	12.57	-112.75	-51.646	-46.648	-3.626	0.48734	-0.24142	0.58163	-0.60480	29.4	13111	100
2025-3-27 17:38:58.50	WT901BLE68-01(48591DE3C19B)	-0.306	-0.924	0.111	3.357	-19.775	-7.385	-76.33	12.52	-112.57	-51.646	-46.648	-3.626	0.48734	-0.24142	0.58163	-0.60480	29.4	13111	100
2025-3-27 17:38:58.51	WT901BLE68-01(48591DE3C19B)	-0.304	-0.924	0.111	3.357	-19.775	-7.385	-76.28	12.45	-112.36	-51.646	-46.648	-3.626	0.48734	-0.24142	0.58163	-0.60480	29.4	13111	100
2025-3-27 17:38:58.51	WT901BLE68-01(48591DE3C19B)	-0.304	-0.979	0.158	2.075	-25.818	-13.977	-76.25	12.33	-112.14	-51.646	-46.648	-3.626	0.48734	-0.24142	0.58163	-0.60480	29.4	13111	100
2025-3-27 17:38:58.51	WT901BLE68-01(48591DE3C19B)	-0.326	-0.979	0.158	2.075	-25.818	-13.977	-76.21	12.18	-111.88	-51.646	-46.648	-3.626	0.48734	-0.24142	0.58163	-0.60480	29.4	13111	100
2025-3-27 17:38:58.51	WT901BLE68-01(48591DE3C19B)	-0.326	-1.040	0.226	3.479	-31.799	-23.254	-76.16	11.97	-111.62	-51.646	-46.648	-3.626	0.48734	-0.24142	0.58163	-0.60480	29.4	13111	100
2025-3-27 17:38:58.111	WT901BLE68-01(48591DE3C19B)	-0.341	-1.040	0.226	3.479	-31.799	-23.254	-76.10	11.71	-111.34	-51.646	-46.648	-3.626	0.48734	-0.24142	0.58163	-0.60480	29.4	13111	100
2025-3-27 17:38:58.111	WT901BLE68-01(48591DE3C19B)	-0.341	-1.067	0.245	8.057	-33.447	-33.875	-76.01	11.40	-111.07	-51.646	-46.648	-3.626	0.48734	-0.24142	0.58163	-0.60480	29.4	13111	100
2025-3-27 17:38:58.112	WT901BLE68-01(48591DE3C19B)	-0.313	-1.067	0.245	8.057	-33.447	-33.875	-75.91	11.04	-110.81	-51.646	-46.648	-3.626	0.48734	-0.24142	0.58163	-0.60480	29.4	13111	100
2025-3-27 17:38:58.112	WT901BLE68-01(48591DE3C19B)	-0.313	-1.084	0.212	11.658	-32.471	-45.715	-75.79	10.61	-110.57	-51.646	-46.648	-3.626	0.48734	-0.24142	0.58163	-0.60480	29.4	13111	100
2025-3-27 17:38:58.170	WT901BLE68-01(48591DE3C19B)	-0.283	-1.084	0.212	11.658	-32.471	-45.715	-75.66	10.14	-110.35	-51.646	-46.648	-3.626	0.48734	-0.24142	0.58163	-0.60480	29.4	13111	100
2025-3-27 17:38:58.170	WT901BLE68-01(48591DE3C19B)	-0.283	-1.197	0.154	9.094	-24.353	-59.143	-75.56	9.61	-110.19	-51.646	-46.648	-3.626	0.48734	-0.24142	0.58163	-0.60480	29.4	13111	100
2025-3-27 17:38:58.170	WT901BLE68-01(48591DE3C19B)	-0.310	-1.197	0.154	9.094	-24.353	-59.143	-75.48	9.03	-110.09	-51.646	-46.648	-3.626	0.49030	-0.30038	0.53433	-0.61945	29.4	13111	100
2025-3-27 17:38:58.170	WT901BLE68-01(48591DE3C19B)	-1.242	-1.522	0.149	2.136	-12.573	-76.477	-75.45	8.37	-110.06	-51.646	-46.648	-3.626	0.49030	-0.30038	0.53433	-0.61945	29.4	13111	100
2025-3-27 17:38:58.200	WT901BLE68-01(48591DE3C19B)	-0.384	-6.088	0.598	2.136	-12.573	-76.477	-75.48	7.64	-110.10	-51.646	-46.648	-3.626	0.49030	-0.30038	0.53433	-0.61945	29.4	13111	100
2025-3-27 17:38:58.200	WT901BLE68-01(48591DE3C19B)	-0.384	-1.770	0.239	9.399	-2.686	-88.928	-75.48	6.86	-110.19	-51.646	-46.648	-3.626	0.49030	-0.30038	0.53433	-0.61945	29.4	13111	100
2025-3-27 17:38:58.200	WT901BLE68-01(48591DE3C19B)	-0.413	-1.770	0.239	9.399	-2.686	-88.928	-75.45	6.04	-110.35	-51.646	-46.648	-3.626	0.49030	-0.30038	0.53433	-0.61945	29.4	13111	100
2025-3-27 17:38:58.200	WT901BLE68-01(48591DE3C19B)	-0.413	-1.326	0.343	24.475	1.221	-84.229	-75.35	5.24	-110.52	-51.646	-46.648	-3.626	0.49030	-0.30038	0.53433	-0.61945	29.4	13111	100
2025-3-27 17:38:58.228	WT901BLE68-01(48591DE3C19B)	-0.404	-1.326	0.343	24.475	1.221	-84.229	-75.17	4.48	-110.70	-51.646	-46.648	-3.626	0.49030	-0.30038	0.53433	-0.61945	29.4	13111	100
2025-3-27 17:38:58.229	WT901BLE68-01(48591DE3C19B)	-0.404	-0.826	0.355	15.503	1.099	-64.087	-75.03	3.83	-110.87	-51.646	-46.648	-3.626	0.49030	-0.30038	0.53433	-0.61945	29.4	13111	100
2025-3-27 17:38:58.229	WT901BLE68-01(48591DE3C19B)	-0.403	-0.826	0.355	15.503	1.099	-64.087	-74.92	3.28	-111.02	-51.646	-46.648	-3.626	0.49030	-0.30038	0.53433	-0.61945	29.4	13111	100
2025-3-27 17:38:58.229	WT901BLE68-01(48591DE3C19B)	-0.403	-0.523	0.338	2.136	-8.545	-37.659	-74.87	2.85	-111.09	-51.646	-46.648	-3.626	0.49030	-0.30038	0.53433	-0.61945	29.4	13111	100
2025-3-27 17:38:58.259	WT901BLE68-01(48591DE3C19B)	-0.422	-0.523	0.338	2.136	-8.545	-37.659	-74.87	2.55	-111.09	-51.646	-46.648	-3.626	0.49030	-0.30038	0.53433	-0.61945	29.4	13111	100
2025-3-27 17:38:58.260	WT901BLE68-01(48591DE3C19B)	-0.422	-0.476	0.311	-15.076	-32.532	-11.047	-74.95	2.35	-110.96	-51.646	-46.648	-3.626	0.49030	-0.30038	0.53433	-0.61945	29.4	13111	100
2025-3-27 17:38:58.260	WT901BLE68-01(48591DE3C19B)	-0.378	-0.476	0.311	-15.076	-32.532	-11.047	-75.10	2.25	-110.68	-51.646	-46.648	-3.626	0.49030	-0.30038	0.53433	-0.61945	29.4	13111	100
2025-3-27 17:38:58.260	WT901BLE68-01(48591DE3C19B)	-0.378	-0.575	0.253	-25.391	-62.988	16.113	-75.28	2.25	-110.23	-51.646	-46.648	-3.626	0.49030	-0.30038	0.53433	-0.61945	29.4	13111	100
2025-3-27 17:38:58.321	WT901BLE68-01(48591DE3C19B)	-0.307	-0.575	0.253	-25.391	-62.988	16.113	-75.51	2.36	-109.61	-51.646	-46.648	-3.626	0.49030	-0.30038	0.53433	-0.61945	29.4	13111	100
2025-3-27 17:38:58.322	WT901BLE68-01(48591DE3C19B)	-0.307	-0.710	0.155	-28.992	-80.139	35.095	-75.75	2.53	-108.89	-51.646	-46.648	-3.626	0.49030	-0.30038	0.53433	-0.61945	29.4	13111	100
2025-3-27 17:38:58.322	WT901BLE68-01(48591DE3C19B)	-0.288	-0.710	0.155	-28.992	-80.139	35.095	-75.99	2.79	-108.06	-51.646	-46.648	-3.626	0.49030	-0.30038	0.53433	-0.61945	29.4	13111	100
2025-3-27 17:38:58.322	WT901BLE68-01(48591DE3C19B)	-0.288	-0.885	0.104	-29.419	-90.393	49.927	-76.22	3.10	-107.18	-51.646	-46.648	-3.626	0.49030	-0.30038	0.53433	-0.61945	29.4	13111	100
2025-3-27 17:38:58.380	WT901BLE68-01(48591DE3C19B)	-0.288	-0.885	0.104	-29.419	-90.393	49.927	-76.45	3.47	-106.23	-51.646	-46.648	-3.626	0.49030	-0.30038	0.53433	-0.61945	29.4	13111	100
2025-3-27 17:38:58.380	WT901BLE68-01(48591DE3C19B)	-0.288	-1.085	0.142	-25.452	-103.088	60.852	-76.66	3.88	-105.19	-51.646	-46.648	-3.626	0.49030	-0.30038	0.53433	-0.61945	29.4	13111	100
2025-3-27 17:38:58.380	WT901BLE68-01(48591DE3C19B)	-0.237	-1.085	0.142	-25.452	-103.088	60.852	-76.83	4.33	-104.10	-51.646	-46.648	-3.626	0.49030	-0.30038	0.53433	-0.61945	29.4	13111	100
2025-3-27 17:38:58.380	WT901BLE68-01(48591DE3C19B)	-0.237	-1.159	0.200	-12.512	-107.300	67.383	-76.93	4.80	-102.96	-55.566	-47.138	-4.606	0.49030	-0.30038	0.53433	-0.61945	29.4	13111	100
2025-3-27 17:38:58.381	WT901BLE68-01(48591DE3C19B)	-0.168	-1.159	0.200	-12.512	-107.300	67.383	-76.95	5.29	-101.81	-55.566	-47.138	-4.606	0.49030	-0.30038	0.53433	-0.61945	29.4	13111	100
2025-3-27 17:38:58.381	WT901BLE68-01(48591DE3C19B)	-0.168	-1.066	0.247	-3.601	-99.243	73.059	-76.92	5.81	-100.68	-55.566	-47.138	-4.606	0.49030	-0.30038	0.53433	-0.61945	29.4	13111	100
2025-3-27 17:38:58.381	WT901BLE68-01(48591DE3C19B)	-0.115	-1.066	0.247	-3.601	-99.243	73.059	-76.84	6.36	-99.60	-55.566	-47.138	-4.606	0.49030	-0.30038	0.53433	-0.61945	29.4	13111	100
2025-3-27 17:38:58.381	WT901BLE68-01(48591DE3C19B)	-0.115	-0.984	0.286	-1.892	-77.148	79.834	-76.75	6.96	-98.61	-55.566	-47.138	-4.606	0.49030	-0.30038	0.53433	-0.61945	29.4	13111	100
2025-3-27 17:38:58.445	WT901BLE68-01(48591DE3C19B)	-0.120	-0.984	0.286	-1.892	-77.148	79.834	-76.65	7.60	-97.72	-55.566	-47.138	-4.606	0.49030	-0.30038	0.53433	-0.61945	29.4	13111	100
2025-3-27 17:38:58.445	WT901BLE68-01(48591DE3C19B)	-0.120	-0.962	0.331	-2.380	-47.424	87.524	-76.56	8.31	-96.98	-55.566	-47.138	-4.606	0.49030	-0.30038	0.53433	-0.61945	29.4	13111	100
2025-3-27 17:38:58.445	WT901BLE68-01(48591DE3C19B)	-0.146	-0.962	0.331	-2.380	-47.424	87.524	-76.49	9.08	-96.37	-55.566	-47.138	-4.606	0.49030	-0.30038	0.53433	-0.61945	29.4	13111	100
2025-3-27 17:38:58.446	WT901BLE68-01(48591DE3C19B)	-0.146	-1.044	0.358	-5.981	-20.386	95.947	-76.43	9.91	-95.89	-55.566	-47.138	-4.606	0.49030	-0.30038	0.53433	-0.61945	29.4	13111	100
2025-3-27 17:38:58.469	WT901BLE68-01(48591DE3C19B)	-0.211	-1.044	0.358	-5.981	-20.386	95.947	-76.41	10.81	-95.53	-55.566	-47.138	-4.606	0.49030	-0.30038	0.53433	-0.61945	29.4	13111	100
2025-3-27 17:38:58.469	WT901BLE68-01(48591DE3C19B)	-0.211	-1.092	0.333	-5.188	-8.179	107.727	-76.38	11.77	-95.22	-55.566	-47.138	-4.606	0.49030	-0.30038	0.53433	-0.61945	29.4	13111	100
2025-3-27 17:38:58.469	WT901BLE68-01(48591DE3C19B)	-0.222	-1.092	0.333	-5.188	-8.179	107.727	-76.35	12.79	-94.95	-55.566	-47.138	-4.606	0.49030	-0.30038	0.53433	-0.61945	29.4	13111	100
2025-3-27 17:38:58.469	WT901BLE68-01(48591DE3C19B)	-0.222	-1.106	0.265	-5.615	-8.240	118.530	-76.32	13.85	-94.67	-55.566	-47.138	-4.606	0.49030	-0.30038	0.53433	-0.61945	29.4	13111	100
2025-3-27 17:38:58.500	WT901BLE68-01(48591DE3C19B)	-0.191	-1.106	0.265	-5.615	-8.240	118.530	-76.28	14.97	-94.37	-55.566	-47.138	-4.606	0.49030	-0.30038	0.53433	-0.61945	29.4	13111	100
2025-3-27 17:38:58.500	WT901BLE68-01(48591DE3C19B)	-0.191	-1.118	0.192	-3.601	-12.146	129.333	-76.20	16.17	-94.00	-55.566	-47.138	-4.606	0.49030	-0.30038	0.53433	-0.61945	29.4	13111	100
2025-3-27 17:38:58.500	WT901BLE68-01(48591DE3C19B)	-0.172	-1.118	0.192	-3.601	-12.146	129.333	-76.10	17.36	-93.63	-55.566	-47.138	-4.606	0.49030	-0.30038	0.53433	-0.61945	29.4	13111	100
2025-3-27 17:38:58.500	WT901BLE68-01(48591DE3C19B)	-0.172	-1.101	0.173	-2.014	-19.226	137.695	-75.96	18.61	-93.16	-55.566	-47.138	-4.606	0.49030	-0.30038	0.53433	-0.61945	29.4	13111	100
2025-3-27 17:38:58.559	WT901BLE68-01(48591DE3C19B)	-0.169	-1.101	0.173	-2.014	-19.226	137.695	-75.81	19.84	-92.68	-55.566	-47.138	-4.606	0.49030	-0.30038	0.53433	-0.61945	29.4	13111	100
2025-3-27 17:38:58.559	WT901BLE68-01(48591DE3C19B)	-0.169	-1.102	0.201	-1.770	-27.161	140.686	-75.62	21.08	-92.10	-55.566	-47.138	-4.606	0.49030	-0.30038	0.53433	-0.61945	29.4	13111	100
2025-3-27 17:38:58.559	WT901BLE68-01(48591DE3C19B)	-0.185	-1.102	0.201	-1.770	-27.161	140.686	-75.41	22.31	-91.52	-55.566	-47.138	-4.606	0.49030	-0.30038	0.53433	-0.61945	29.4	13111	100
2025-3-27 17:38:58.560	WT901BLE68-01(48591DE3C19B)	-0.185	-1.132	0.267	-2.014	-35.889	138.916	-75.16	23.48	-90.83	-55.566	-47.138	-4.606	0.49030	-0.30038	0.53433	-0.61945	29.4	13111	100
2025-3-27 17:38:58.588	WT901BLE68-01(48591DE3C19B)	-0.200	-1.132	0.267	-2.014	-35.889	138.916	-74.89	24.65	-90.14	-55.566	-47.138	-4.606	0.64294	-0.29727	0.54077	-0.45352	29.4	13111	100
2025-3-27 17:38:58.588	WT901BLE68-01(48591DE3C19B)	-0.200	-1.160	0.321	-0.488	-42.297	134.888	-74.56	25.75	-89.39	-55.566	-47.138	-4.606	0.64294	-0.29727	0.54077	-0.45352	29.4	13111	100
2025-3-27 17:38:58.588	WT901BLE68-01(48591DE3C19B)	-0.179	-1.160	0.321	-0.488	-42.297	134.888	-74.22	26.83	-88.62	-55.566	-47.138	-4.606	0.64294	-0.29727	0.54077	-0.45352	29.4	13111	100
2025-3-27 17:38:58.588	WT901BLE68-01(48591DE3C19B)	-0.179	-1.106	0.350	2.808	-44.983	130.676	-73.81	27.87	-87.82	-55.566	-47.138	-4.606	0.64294	-0.29727	0.54077	-0.45352	29.4	13111	100
2025-3-27 17:38:58.619	WT901BLE68-01(48591DE3C19B)	-0.148	-1.106	0.350	2.808	-44.983	130.676	-73.38	28.88	-87.02	-55.566	-47.138	-4.606	0.64294	-0.29727	0.54077	-0.45352	29.4	13111	100
2025-3-27 17:38:58.619	WT901BLE68-01(48591DE3C19B)	-0.148	-1.027	0.332	3.357	-41.016	125.488	-72.96	29.85	-86.26	-55.566	-47.138	-4.606	0.64294	-0.29727	0.54077	-0.45352	29.4	13111	100
2025-3-27 17:38:58.619	WT901BLE68-01(48591DE3C19B)	-0.130	-1.027	0.332	3.357	-41.016	125.488	-72.52	30.80	-85.48	-55.566	-47.138	-4.606	0.64294	-0.29727	0.54077	-0.45352	29.4	13111	100
2025-3-27 17:38:58.619	WT901BLE68-01(48591DE3C19B)	-0.130	-0.953	0.310	3.906	-33.752	118.591	-72.10	31.70	-84.80	-55.566	-47.138	-4.606	0.64294	-0.29727	0.54077	-0.45352	29.4	13111	100
2025-3-27 17:38:58.711	WT901BLE68-01(48591DE3C19B)	-0.106	-0.953	0.310	3.906	-33.752	118.591	-71.68	32.59	-84.11	-55.566	-47.138	-4.606	0.64294	-0.29727	0.54077	-0.45352	29.4	13111	100
2025-3-27 17:38:58.711	WT901BLE68-01(48591DE3C19B)	-0.106	-0.888	0.299	4.028	-25.818	110.779	-71.30	33.41	-83.53	-55.566	-47.138	-4.606	0.64294	-0.29727	0.54077	-0.45352	29.4	13111	100
2025-3-27 17:38:58.711	WT901BLE68-01(48591DE3C19B)	-0.084	-0.888	0.299	4.028	-25.818	110.779	-70.91	34.23	-82.94	-55.566	-47.138	-4.606	0.64294	-0.29727	0.54077	-0.45352	29.4	13111	100
2025-3-27 17:38:58.711	WT901BLE68-01(48591DE3C19B)	-0.084	-0.827	0.294	4.211	-16.479	102.356	-70.58	34.99	-82.47	-55.566	-47.138	-4.606	0.64294	-0.29727	0.54077	-0.45352	29.4	13111	100
2025-3-27 17:38:58.712	WT901BLE68-01(48591DE3C19B)	-0.081	-0.827	0.294	4.211	-16.479	102.356	-70.24	35.74	-82.00	-55.566	-47.138	-4.606	0.64294	-0.29727	0.54077	-0.45352	29.4	13111	100
2025-3-27 17:38:58.712	WT901BLE68-01(48591DE3C19B)	-0.081	-0.782	0.294	3.174	-7.019	93.689	-69.98	36.44	-81.66	-55.566	-47.138	-4.606	0.64294	-0.29727	0.54077	-0.45352	29.4	13111	100
2025-3-27 17:38:58.712	WT901BLE68-01(48591DE3C19B)	-0.085	-0.782	0.294	3.174	-7.019	93.689	-69.72	37.13	-81.33	-55.566	-47.138	-4.606	0.64294	-0.29727	0.54077	-0.45352	29.4	13111	100
2025-3-27 17:38:58.712	WT901BLE68-01(48591DE3C19B)	-0.085	-0.767	0.282	2.808	-0.671	83.618	-69.52	37.74	-81.10	-55.566	-47.138	-4.606	0.64294	-0.29727	0.54077	-0.45352	29.4	13111	100
2025-3-27 17:38:58.744	WT901BLE68-01(48591DE3C19B)	-0.089	-0.767	0.282	2.808	-0.671	83.618	-69.32	38.34	-80.86	-55.566	-47.138	-4.606	0.64294	-0.29727	0.54077	-0.45352	29.4	13111	100
2025-3-27 17:38:58.744	WT901BLE68-01(48591DE3C19B)	-0.089	-0.733	0.276	2.502	3.418	72.388	-69.18	38.85	-80.73	-55.566	-47.138	-4.606	0.64294	-0.29727	0.54077	-0.45352	29.4	13111	100
2025-3-27 17:38:58.744	WT901BLE68-01(48591DE3C19B)	-0.089	-0.733	0.276	2.502	3.418	72.388	-69.04	39.35	-80.59	-75.754	-37.436	-2.646	0.64294	-0.29727	0.54077	-0.45352	29.4	13111	100
2025-3-27 17:38:58.744	WT901BLE68-01(48591DE3C19B)	-0.089	-0.695	0.269	1.404	6.287	59.143	-68.96	39.74	-80.55	-75.754	-37.436	-2.646	0.64294	-0.29727	0.54077	-0.45352	29.4	13111	100
2025-3-27 17:38:58.800	WT901BLE68-01(48591DE3C19B)	-0.100	-0.695	0.269	1.404	6.287	59.143	-68.88	40.13	-80.50	-75.754	-37.436	-2.646	0.64294	-0.29727	0.54077	-0.45352	29.4	13111	100
2025-3-27 17:38:58.800	WT901BLE68-01(48591DE3C19B)	-0.100	-0.658	0.267	-0.061	9.033	45.044	-68.88	40.39	-80.55	-75.754	-37.436	-2.646	0.64294	-0.29727	0.54077	-0.45352	29.4	13111	100
2025-3-27 17:38:58.800	WT901BLE68-01(48591DE3C19B)	-0.113	-0.658	0.267	-0.061	9.033	45.044	-68.88	40.65	-80.61	-75.754	-37.436	-2.646	0.64294	-0.29727	0.54077	-0.45352	29.4	13111	100
2025-3-27 17:38:58.800	WT901BLE68-01(48591DE3C19B)	-0.113	-0.650	0.259	-1.648	11.841	30.701	-68.96	40.79	-80.76	-75.754	-37.436	-2.646	0.64294	-0.29727	0.54077	-0.45352	29.4	13111	100
2025-3-27 17:38:58.829	WT901BLE68-01(48591DE3C19B)	-0.124	-0.650	0.259	-1.648	11.841	30.701	-69.03	40.92	-80.91	-75.754	-37.436	-2.646	0.64294	-0.29727	0.54077	-0.45352	29.4	13111	100
2025-3-27 17:38:58.829	WT901BLE68-01(48591DE3C19B)	-0.124	-0.666	0.236	-2.014	15.991	16.541	-69.19	40.95	-81.18	-75.754	-37.436	-2.646	0.64294	-0.29727	0.54077	-0.45352	29.4	13111	100
2025-3-27 17:38:58.829	WT901BLE68-01(48591DE3C19B)	-0.133	-0.666	0.236	-2.014	15.991	16.541	-69.34	40.96	-81.45	-75.754	-37.436	-2.646	0.64294	-0.29727	0.54077	-0.45352	29.4	13111	100
2025-3-27 17:38:58.829	WT901BLE68-01(48591DE3C19B)	-0.133	-0.728	0.204	-3.357	20.508	0.732	-69.59	40.85	-81.84	-75.754	-37.436	-2.646	0.64294	-0.29727	0.54077	-0.45352	29.4	13111	100
2025-3-27 17:38:58.889	WT901BLE68-01(48591DE3C19B)	-0.168	-0.728	0.204	-3.357	20.508	0.732	-69.84	40.74	-82.24	-75.754	-37.436	-2.646	0.64294	-0.29727	0.54077	-0.45352	29.4	13111	100
2025-3-27 17:38:58.889	WT901BLE68-01(48591DE3C19B)	-0.168	-0.827	0.183	-3.906	24.719	-18.433	-70.18	40.47	-82.76	-75.754	-37.436	-2.646	0.64294	-0.29727	0.54077	-0.45352	29.4	13111	100
2025-3-27 17:38:58.889	WT901BLE68-01(48591DE3C19B)	-0.215	-0.827	0.183	-3.906	24.719	-18.433	-70.52	40.19	-83.28	-75.754	-37.436	-2.646	0.64294	-0.29727	0.54077	-0.45352	29.4	13111	100
2025-3-27 17:38:58.889	WT901BLE68-01(48591DE3C19B)	-0.215	-0.925	0.170	-4.944	24.048	-41.443	-70.93	39.70	-83.88	-75.754	-37.436	-2.646	0.64294	-0.29727	0.54077	-0.45352	29.4	13111	100
2025-3-27 17:38:58.949	WT901BLE68-01(48591DE3C19B)	-0.231	-0.925	0.170	-4.944	24.048	-41.443	-71.32	39.22	-84.47	-75.754	-37.436	-2.646	0.64294	-0.29727	0.54077	-0.45352	29.4	13111	100
2025-3-27 17:38:58.949	WT901BLE68-01(48591DE3C19B)	-0.231	-1.044	0.166	-5.615	20.752	-68.909	-71.77	38.46	-85.11	-75.754	-37.436	-2.646	0.64294	-0.29727	0.54077	-0.45352	29.4	13111	100
2025-3-27 17:38:58.949	WT901BLE68-01(48591DE3C19B)	-0.265	-1.044	0.166	-5.615	20.752	-68.909	-72.19	37.71	-85.74	-75.754	-37.436	-2.646	0.64294	-0.29727	0.54077	-0.45352	29.4	13111	100
2025-3-27 17:38:58.949	WT901BLE68-01(48591DE3C19B)	-0.265	-1.182	0.181	-4.272	17.090	-100.647	-72.64	36.65	-86.42	-75.754	-37.436	-2.646	0.64294	-0.29727	0.54077	-0.45352	29.4	13111	100
2025-3-27 17:38:58.951	WT901BLE68-01(48591DE3C19B)	-0.307	-1.182	0.181	-4.272	17.090	-100.647	-73.06	35.60	-87.09	-75.754	-37.436	-2.646	0.64294	-0.29727	0.54077	-0.45352	29.4	13111	100
2025-3-27 17:38:58.951	WT901BLE68-01(48591DE3C19B)	-0.346	-1.309	0.195	1.221	13.794	-130.920	-73.45	34.24	-87.80	-75.754	-37.436	-2.646	0.64294	-0.29727	0.54077	-0.45352	29.4	13111	100
2025-3-27 17:38:58.951	WT901BLE68-01(48591DE3C19B)	-0.346	-1.311	0.204	13.184	14.465	-156.616	-73.78	32.78	-88.52	-75.754	-37.436	-2.646	0.64294	-0.29727	0.54077	-0.45352	29.4	13111	100
2025-3-27 17:38:58.951	WT901BLE68-01(48591DE3C19B)	-0.312	-1.311	0.204	13.184	14.465	-156.616	-74.05	31.20	-89.27	-75.754	-37.436	-2.646	0.66092	-0.26184	0.56024	-0.42502	29.4	13111	100
2025-3-27 17:38:58.981	WT901BLE68-01(48591DE3C19B)	-0.312	-1.218	0.182	21.484	22.705	-174.805	-74.28	29.55	-90.07	-75.754	-37.436	-2.646	0.66092	-0.26184	0.56024	-0.42502	29.4	13111	100
2025-3-27 17:38:58.981	WT901BLE68-01(48591DE3C19B)	-0.255	-1.218	0.182	21.484	22.705	-174.805	-74.48	27.83	-90.91	-75.754	-37.436	-2.646	0.66092	-0.26184	0.56024	-0.42502	29.4	13111	100
2025-3-27 17:38:58.981	WT901BLE68-01(48591DE3C19B)	-0.255	-1.155	0.135	27.039	44.312	-182.983	-74.69	26.11	-91.86	-75.754	-37.436	-2.646	0.66092	-0.26184	0.56024	-0.42502	29.4	13111	100
2025-3-27 17:38:58.981	WT901BLE68-01(48591DE3C19B)	-0.216	-1.155	0.135	27.039	44.312	-182.983	-74.88	24.40	-92.91	-75.754	-37.436	-2.646	0.66092	-0.26184	0.56024	-0.42502	29.4	13111	100
2025-3-27 17:38:59.100	WT901BLE68-01(48591DE3C19B)	-0.216	-1.103	0.086	31.860	74.463	-184.021	-75.08	22.71	-94.10	-75.754	-37.436	-2.646	0.66092	-0.26184	0.56024	-0.42502	29.4	13111	100
2025-3-27 17:38:59.100	WT901BLE68-01(48591DE3C19B)	-0.180	-1.103	0.086	31.860	74.463	-184.021	-75.27	21.07	-95.41	-75.754	-37.436	-2.646	0.66092	-0.26184	0.56024	-0.42502	29.4	13111	100
2025-3-27 17:38:59.100	WT901BLE68-01(48591DE3C19B)	-0.180	-1.050	0.067	32.043	104.675	-178.223	-75.48	19.50	-96.84	-75.754	-37.436	-2.646	0.66092	-0.26184	0.56024	-0.42502	29.4	13111	100
2025-3-27 17:38:59.100	WT901BLE68-01(48591DE3C19B)	-0.185	-1.050	0.067	32.043	104.675	-178.223	-75.68	18.00	-98.39	-75.754	-37.436	-2.646	0.66092	-0.26184	0.56024	-0.42502	29.4	13111	100
2025-3-27 17:38:59.101	WT901BLE68-01(48591DE3C19B)	-0.185	-1.025	0.078	28.687	129.333	-167.542	-75.90	16.58	-100.03	-75.754	-37.436	-2.646	0.66092	-0.26184	0.56024	-0.42502	29.4	13111	100
2025-3-27 17:38:59.101	WT901BLE68-01(48591DE3C19B)	-0.265	-1.025	0.078	28.687	129.333	-167.542	-76.13	15.24	-101.74	-75.754	-37.436	-2.646	0.66092	-0.26184	0.56024	-0.42502	29.4	13111	100
2025-3-27 17:38:59.101	WT901BLE68-01(48591DE3C19B)	-0.265	-1.043	0.107	23.560	143.005	-156.006	-76.35	13.97	-103.49	-75.754	-37.436	-2.646	0.66092	-0.26184	0.56024	-0.42502	29.4	13111	100
2025-3-27 17:38:59.101	WT901BLE68-01(48591DE3C19B)	-0.371	-1.043	0.107	23.560	143.005	-156.006	-76.57	12.78	-105.26	-75.754	-37.436	-2.646	0.66092	-0.26184	0.56024	-0.42502	29.4	13111	100
2025-3-27 17:38:59.101	WT901BLE68-01(48591DE3C19B)	-0.371	-1.097	0.138	19.470	139.648	-146.179	-76.77	11.64	-106.98	-75.754	-37.436	-2.646	0.66092	-0.26184	0.56024	-0.42502	29.4	13111	100
2025-3-27 17:38:59.102	WT901BLE68-01(48591DE3C19B)	-0.480	-1.097	0.138	19.470	139.648	-146.179	-76.94	10.54	-108.67	-75.754	-37.436	-2.646	0.66092	-0.26184	0.56024	-0.42502	29.4	13111	100
2025-3-27 17:38:59.102	WT901BLE68-01(48591DE3C19B)	-0.480	-1.178	0.151	16.235	114.929	-137.268	-77.07	9.47	-110.20	-75.754	-37.436	-2.646	0.66092	-0.26184	0.56024	-0.42502	29.4	13111	100
2025-3-27 17:38:59.102	WT901BLE68-01(48591DE3C19B)	-0.580	-1.178	0.151	16.235	114.929	-137.268	-77.17	8.42	-111.58	-75.754	-37.436	-2.646	0.66092	-0.26184	0.56024	-0.42502	29.4	13111	100
2025-3-27 17:38:59.220	WT901BLE68-01(48591DE3C19B)	-0.580	-1.238	0.162	15.808	70.740	-131.348	-77.22	7.36	-112.74	-75.754	-37.436	-2.646	0.66092	-0.26184	0.56024	-0.42502	29.4	13111	100
2025-3-27 17:38:59.220	WT901BLE68-01(48591DE3C19B)	-0.624	-1.238	0.162	15.808	70.740	-131.348	-77.22	6.29	-113.66	-75.754	-37.436	-2.646	0.66092	-0.26184	0.56024	-0.42502	29.4	13111	100
2025-3-27 17:38:59.220	WT901BLE68-01(48591DE3C19B)	-0.624	-1.247	0.151	16.602	15.686	-128.296	-77.17	5.19	-114.30	-75.754	-37.436	-2.646	0.66092	-0.26184	0.56024	-0.42502	29.4	13111	100
2025-3-27 17:38:59.220	WT901BLE68-01(48591DE3C19B)	-0.625	-1.247	0.151	16.602	15.686	-128.296	-77.07	4.05	-114.68	-75.754	-37.436	-2.646	0.66092	-0.26184	0.56024	-0.42502	29.4	13111	100
2025-3-27 17:38:59.221	WT901BLE68-01(48591DE3C19B)	-0.625	-1.206	0.122	17.822	-38.879	-125.854	-76.96	2.88	-114.79	-55.762	-44.786	-4.410	0.66092	-0.26184	0.56024	-0.42502	29.4	13111	100
2025-3-27 17:38:59.221	WT901BLE68-01(48591DE3C19B)	-0.562	-1.206	0.122	17.822	-38.879	-125.854	-76.82	1.68	-114.63	-55.762	-44.786	-4.410	0.66092	-0.26184	0.56024	-0.42502	29.4	13111	100
2025-3-27 17:38:59.221	WT901BLE68-01(48591DE3C19B)	-0.562	-1.147	0.104	17.273	-81.421	-123.108	-76.69	0.44	-114.27	-55.762	-44.786	-4.410	0.66092	-0.26184	0.56024	-0.42502	29.4	13111	100
2025-3-27 17:38:59.221	WT901BLE68-01(48591DE3C19B)	-0.484	-1.147	0.104	17.273	-81.421	-123.108	-76.57	-0.81	-113.70	-55.762	-44.786	-4.410	0.66092	-0.26184	0.56024	-0.42502	29.4	13111	100
2025-3-27 17:38:59.221	WT901BLE68-01(48591DE3C19B)	-0.484	-1.102	0.116	14.343	-107.300	-118.774	-76.48	-2.07	-113.01	-55.762	-44.786	-4.410	0.66092	-0.26184	0.56024	-0.42502	29.4	13111	100
2025-3-27 17:38:59.222	WT901BLE68-01(48591DE3C19B)	-0.407	-1.102	0.116	14.343	-107.300	-118.774	-76.42	-3.33	-112.20	-55.762	-44.786	-4.410	0.66092	-0.26184	0.56024	-0.42502	29.4	13111	100
2025-3-27 17:38:59.222	WT901BLE68-01(48591DE3C19B)	-0.407	-1.067	0.149	11.353	-115.906	-112.732	-76.40	-4.56	-111.34	-55.762	-44.786	-4.410	0.66092	-0.26184	0.56024	-0.42502	29.4	13111	100
2025-3-27 17:38:59.222	WT901BLE68-01(48591DE3C19B)	-0.331	-1.067	0.149	11.353	-115.906	-112.732	-76.42	-5.77	-110.43	-55.762	-44.786	-4.410	0.66092	-0.26184	0.56024	-0.42502	29.4	13111	100
2025-3-27 17:38:59.279	WT901BLE68-01(48591DE3C19B)	-0.331	-1.054	0.188	8.301	-107.727	-104.797	-76.46	-6.93	-109.56	-55.762	-44.786	-4.410	0.66092	-0.26184	0.56024	-0.42502	29.4	13111	100
2025-3-27 17:38:59.279	WT901BLE68-01(48591DE3C19B)	-0.272	-1.054	0.188	8.301	-107.727	-104.797	-76.53	-8.03	-108.72	-55.762	-44.786	-4.410	0.66092	-0.26184	0.56024	-0.42502	29.4	13111	100
2025-3-27 17:38:59.279	WT901BLE68-01(48591DE3C19B)	-0.272	-1.104	0.209	5.554	-85.388	-96.313	-76.60	-9.05	-107.98	-55.762	-44.786	-4.410	0.66092	-0.26184	0.56024	-0.42502	29.4	13111	100
2025-3-27 17:38:59.279	WT901BLE68-01(48591DE3C19B)	-0.261	-1.104	0.209	5.554	-85.388	-96.313	-76.68	-10.01	-107.34	-55.762	-44.786	-4.410	0.66092	-0.26184	0.56024	-0.42502	29.4	13111	100
2025-3-27 17:38:59.344	WT901BLE68-01(48591DE3C19B)	-0.261	-1.201	0.242	7.202	-55.420	-88.562	-76.74	-10.89	-106.85	-55.762	-44.786	-4.410	0.66092	-0.26184	0.56024	-0.42502	29.4	13111	100
2025-3-27 17:38:59.344	WT901BLE68-01(48591DE3C19B)	-0.278	-1.201	0.242	7.202	-55.420	-88.562	-76.77	-11.70	-106.49	-55.762	-44.786	-4.410	0.66092	-0.26184	0.56024	-0.42502	29.4	13111	100
2025-3-27 17:38:59.344	WT901BLE68-01(48591DE3C19B)	-0.278	-1.281	0.267	12.146	-24.841	-82.031	-76.74	-12.44	-106.28	-55.762	-44.786	-4.410	0.66092	-0.26184	0.56024	-0.42502	29.4	13111	100
2025-3-27 17:38:59.344	WT901BLE68-01(48591DE3C19B)	-0.318	-1.281	0.267	12.146	-24.841	-82.031	-76.66	-13.12	-106.22	-55.762	-44.786	-4.410	0.66092	-0.26184	0.56024	-0.42502	29.4	13111	100
2025-3-27 17:38:59.429	WT901BLE68-01(48591DE3C19B)	-0.318	-1.319	0.315	20.874	0.793	-76.050	-76.50	-13.73	-106.28	-55.762	-44.786	-4.410	0.66092	-0.26184	0.56024	-0.42502	29.4	13111	100
2025-3-27 17:38:59.429	WT901BLE68-01(48591DE3C19B)	-0.321	-1.319	0.315	20.874	0.793	-76.050	-76.27	-14.29	-106.46	-55.762	-44.786	-4.410	0.66092	-0.26184	0.56024	-0.42502	29.4	13111	100
2025-3-27 17:38:59.429	WT901BLE68-01(48591DE3C19B)	-0.321	-1.260	0.325	32.288	25.024	-69.092	-75.95	-14.78	-106.77	-55.762	-44.786	-4.410	0.66092	-0.26184	0.56024	-0.42502	29.4	13111	100
2025-3-27 17:38:59.429	WT901BLE68-01(48591DE3C19B)	-0.297	-1.260	0.325	32.288	25.024	-69.092	-75.54	-15.21	-107.18	-55.762	-44.786	-4.410	0.66092	-0.26184	0.56024	-0.42502	29.4	13111	100
2025-3-27 17:38:59.430	WT901BLE68-01(48591DE3C19B)	-0.297	-1.122	0.276	43.640	48.889	-58.044	-75.04	-15.54	-107.72	-55.762	-44.786	-4.410	0.66092	-0.26184	0.56024	-0.42502	29.4	13111	100
2025-3-27 17:38:59.430	WT901BLE68-01(48591DE3C19B)	-0.212	-1.122	0.276	43.640	48.889	-58.044	-74.45	-15.79	-108.35	-55.762	-44.786	-4.410	0.39420	-0.43936	0.42188	-0.68808	29.4	13111	100
2025-3-27 17:38:59.430	WT901BLE68-01(48591DE3C19B)	-0.212	-0.948	0.202	50.476	75.073	-46.753	-73.80	-15.94	-109.11	-55.762	-44.786	-4.410	0.39420	-0.43936	0.42188	-0.68808	29.4	13111	100
2025-3-27 17:38:59.430	WT901BLE68-01(48591DE3C19B)	-0.114	-0.948	0.202	50.476	75.073	-46.753	-73.09	-15.99	-109.97	-55.762	-44.786	-4.410	0.39420	-0.43936	0.42188	-0.68808	29.4	13111	100
2025-3-27 17:38:59.431	WT901BLE68-01(48591DE3C19B)	-0.114	-0.836	0.133	49.866	98.145	-33.936	-72.33	-15.84	-111.02	-55.762	-44.786	-4.410	0.39420	-0.43936	0.42188	-0.68808	29.4	13111	100
2025-3-27 17:38:59.431	WT901BLE68-01(48591DE3C19B)	-0.083	-0.836	0.133	49.866	98.145	-33.936	-71.59	-15.68	-112.06	-55.762	-44.786	-4.410	0.39420	-0.43936	0.42188	-0.68808	29.4	13111	100
2025-3-27 17:38:59.431	WT901BLE68-01(48591DE3C19B)	-0.083	-0.822	0.078	40.833	111.694	-22.888	-70.93	-15.36	-113.18	-55.762	-44.786	-4.410	0.39420	-0.43936	0.42188	-0.68808	29.4	13111	100
2025-3-27 17:38:59.431	WT901BLE68-01(48591DE3C19B)	-0.081	-0.822	0.078	40.833	111.694	-22.888	-70.29	-15.05	-114.29	-55.762	-44.786	-4.410	0.39420	-0.43936	0.42188	-0.68808	29.4	13111	100
2025-3-27 17:38:59.488	WT901BLE68-01(48591DE3C19B)	-0.081	-1.085	0.007	16.296	117.676	-15.686	-69.89	-14.64	-115.41	-55.762	-44.786	-4.410	0.39420	-0.43936	0.42188	-0.68808	29.4	13111	100
2025-3-27 17:38:59.489	WT901BLE68-01(48591DE3C19B)	-0.293	-1.085	0.007	16.296	117.676	-15.686	-69.52	-14.23	-116.52	-55.762	-44.786	-4.410	0.39420	-0.43936	0.42188	-0.68808	29.4	13111	100
2025-3-27 17:38:59.489	WT901BLE68-01(48591DE3C19B)	-0.293	-1.409	0.111	6.897	99.487	-2.258	-69.31	-13.77	-117.38	-55.762	-44.786	-4.410	0.39420	-0.43936	0.42188	-0.68808	29.4	13111	100
2025-3-27 17:38:59.489	WT901BLE68-01(48591DE3C19B)	-0.632	-1.409	0.111	6.897	99.487	-2.258	-69.11	-13.30	-118.23	-55.762	-44.786	-4.410	0.39420	-0.43936	0.42188	-0.68808	29.4	13111	100
2025-3-27 17:38:59.548	WT901BLE68-01(48591DE3C19B)	-0.632	-1.121	0.403	12.695	14.648	12.390	-69.07	-12.99	-118.22	-55.762	-44.786	-4.410	0.39420	-0.43936	0.42188	-0.68808	29.4	13111	100
2025-3-27 17:38:59.548	WT901BLE68-01(48591DE3C19B)	-0.608	-1.121	0.403	12.695	14.648	12.390	-69.01	-12.66	-118.22	-55.762	-44.786	-4.410	0.39420	-0.43936	0.42188	-0.68808	29.4	13111	100
2025-3-27 17:38:59.548	WT901BLE68-01(48591DE3C19B)	-0.608	-0.611	0.511	0.793	-120.117	35.278	-69.35	-12.60	-116.87	-55.762	-44.786	-4.410	0.39420	-0.43936	0.42188	-0.68808	29.4	13111	100
2025-3-27 17:38:59.549	WT901BLE68-01(48591DE3C19B)	-0.274	-0.611	0.511	0.793	-120.117	35.278	-69.67	-12.50	-115.55	-55.762	-44.786	-4.410	0.39420	-0.43936	0.42188	-0.68808	29.4	13111	100
2025-3-27 17:38:59.549	WT901BLE68-01(48591DE3C19B)	-0.274	-0.271	0.494	-19.714	-233.765	76.904	-70.43	-12.39	-113.03	-55.762	-44.786	-4.410	0.39420	-0.43936	0.42188	-0.68808	29.4	13111	100
2025-3-27 17:38:59.549	WT901BLE68-01(48591DE3C19B)	0.165	-0.271	0.494	-19.714	-233.765	76.904	-71.16	-12.24	-110.55	-55.762	-44.786	-4.410	0.39420	-0.43936	0.42188	-0.68808	29.4	13111	100
2025-3-27 17:38:59.549	WT901BLE68-01(48591DE3C19B)	0.165	-0.351	0.402	-41.016	-281.677	96.924	-72.19	-12.02	-107.56	-53.214	-47.824	-1.666	0.39420	-0.43936	0.42188	-0.68808	29.4	13111	100
2025-3-27 17:38:59.549	WT901BLE68-01(48591DE3C19B)	0.615	-0.351	0.402	-41.016	-281.677	96.924	-73.19	-11.77	-104.59	-53.214	-47.824	-1.666	0.39420	-0.43936	0.42188	-0.68808	29.4	13111	100
2025-3-27 17:38:59.608	WT901BLE68-01(48591DE3C19B)	0.615	-0.738	0.262	-38.025	-253.174	103.149	-74.08	-11.35	-101.89	-53.214	-47.824	-1.666	0.39420	-0.43936	0.42188	-0.68808	29.4	13111	100
2025-3-27 17:38:59.608	WT901BLE68-01(48591DE3C19B)	0.971	-0.738	0.262	-38.025	-253.174	103.149	-74.94	-10.93	-99.19	-53.214	-47.824	-1.666	0.39420	-0.43936	0.42188	-0.68808	29.4	13111	100
2025-3-27 17:38:59.609	WT901BLE68-01(48591DE3C19B)	0.971	-0.900	0.147	-7.446	-151.367	96.863	-75.30	-10.31	-97.51	-53.214	-47.824	-1.666	0.39420	-0.43936	0.42188	-0.68808	29.4	13111	100
2025-3-27 17:38:59.609	WT901BLE68-01(48591DE3C19B)	0.986	-0.900	0.147	-7.446	-151.367	96.863	-75.64	-9.73	-95.83	-53.214	-47.824	-1.666	0.39420	-0.43936	0.42188	-0.68808	29.4	13111	100
2025-3-27 17:38:59.700	WT901BLE68-01(48591DE3C19B)	0.986	-0.859	0.145	15.991	-18.555	84.412	-75.53	-8.98	-95.48	-53.214	-47.824	-1.666	0.39420	-0.43936	0.42188	-0.68808	29.4	13111	100
2025-3-27 17:38:59.700	WT901BLE68-01(48591DE3C19B)	0.541	-0.859	0.145	15.991	-18.555	84.412	-75.41	-8.26	-95.13	-53.214	-47.824	-1.666	0.39420	-0.43936	0.42188	-0.68808	29.4	13111	100
2025-3-27 17:38:59.700	WT901BLE68-01(48591DE3C19B)	0.541	-0.822	0.177	23.254	87.219	78.125	-75.08	-7.34	-95.81	-53.214	-47.824	-1.666	0.39420	-0.43936	0.42188	-0.68808	29.4	13111	100
2025-3-27 17:38:59.700	WT901BLE68-01(48591DE3C19B)	0.141	-0.822	0.177	23.254	87.219	78.125	-74.77	-6.45	-96.48	-53.214	-47.824	-1.666	0.39420	-0.43936	0.42188	-0.68808	29.4	13111	100
2025-3-27 17:38:59.701	WT901BLE68-01(48591DE3C19B)	0.141	-0.760	0.270	23.010	128.479	71.655	-74.42	-5.50	-97.56	-53.214	-47.824	-1.666	0.39420	-0.43936	0.42188	-0.68808	29.4	13111	100
2025-3-27 17:38:59.701	WT901BLE68-01(48591DE3C19B)	-0.184	-0.760	0.270	23.010	128.479	71.655	-74.10	-4.55	-98.62	-53.214	-47.824	-1.666	0.39420	-0.43936	0.42188	-0.68808	29.4	13111	100
2025-3-27 17:38:59.701	WT901BLE68-01(48591DE3C19B)	-0.184	-0.690	0.359	11.536	115.845	71.655	-73.91	-3.62	-99.56	-53.214	-47.824	-1.666	0.39420	-0.43936	0.42188	-0.68808	29.4	13111	100
2025-3-27 17:38:59.701	WT901BLE68-01(48591DE3C19B)	-0.411	-0.690	0.359	11.536	115.845	71.655	-73.73	-2.68	-100.49	-53.214	-47.824	-1.666	0.39420	-0.43936	0.42188	-0.68808	29.4	13111	100
2025-3-27 17:38:59.731	WT901BLE68-01(48591DE3C19B)	-0.411	-0.752	0.372	-4.211	46.814	74.097	-73.75	-1.88	-100.74	-53.214	-47.824	-1.666	0.39420	-0.43936	0.42188	-0.68808	29.4	13111	100
2025-3-27 17:38:59.731	WT901BLE68-01(48591DE3C19B)	-0.374	-0.752	0.372	-4.211	46.814	74.097	-73.76	-1.08	-101.00	-53.214	-47.824	-1.666	0.39420	-0.43936	0.42188	-0.68808	29.4	13111	100
2025-3-27 17:38:59.731	WT901BLE68-01(48591DE3C19B)	-0.374	-0.897	0.384	-9.644	-52.124	75.745	-73.84	-0.52	-100.32	-53.214	-47.824	-1.666	0.39420	-0.43936	0.42188	-0.68808	29.4	13111	100
2025-3-27 17:38:59.731	WT901BLE68-01(48591DE3C19B)	-0.336	-0.897	0.384	-9.644	-52.124	75.745	-73.91	0.05	-99.64	-53.214	-47.824	-1.666	0.39420	-0.43936	0.42188	-0.68808	29.4	13111	100
2025-3-27 17:38:59.761	WT901BLE68-01(48591DE3C19B)	-0.336	-0.975	0.339	-6.287	-133.545	83.801	-73.94	0.50	-98.16	-53.214	-47.824	-1.666	0.39420	-0.43936	0.42188	-0.68808	29.4	13111	100
2025-3-27 17:38:59.761	WT901BLE68-01(48591DE3C19B)	-0.338	-0.975	0.339	-6.287	-133.545	83.801	-73.95	0.95	-96.70	-53.214	-47.824	-1.666	0.39420	-0.43936	0.42188	-0.68808	29.4	13111	100
2025-3-27 17:38:59.761	WT901BLE68-01(48591DE3C19B)	-0.338	-1.014	0.298	-2.808	-182.861	90.210	-73.92	1.33	-94.75	-53.214	-47.824	-1.666	0.39420	-0.43936	0.42188	-0.68808	29.4	13111	100
2025-3-27 17:38:59.761	WT901BLE68-01(48591DE3C19B)	-0.337	-1.014	0.298	-2.808	-182.861	90.210	-73.87	1.72	-92.81	-53.214	-47.824	-1.666	0.56384	-0.40863	0.44022	-0.56671	29.4	13111	100
2025-3-27 17:38:59.791	WT901BLE68-01(48591DE3C19B)	-0.337	-1.102	0.241	-0.977	-206.604	94.604	-73.78	2.09	-90.63	-53.214	-47.824	-1.666	0.56384	-0.40863	0.44022	-0.56671	29.4	13111	100
2025-3-27 17:38:59.791	WT901BLE68-01(48591DE3C19B)	-0.252	-1.102	0.241	-0.977	-206.604	94.604	-73.69	2.46	-88.47	-53.214	-47.824	-1.666	0.56384	-0.40863	0.44022	-0.56671	29.4	13111	100
2025-3-27 17:38:59.791	WT901BLE68-01(48591DE3C19B)	-0.252	-1.188	0.188	7.507	-210.022	99.243	-73.50	2.85	-86.25	-53.214	-47.824	-1.666	0.56384	-0.40863	0.44022	-0.56671	29.4	13111	100
2025-3-27 17:38:59.791	WT901BLE68-01(48591DE3C19B)	-0.130	-1.188	0.188	7.507	-210.022	99.243	-73.30	3.24	-84.05	-53.214	-47.824	-1.666	0.56384	-0.40863	0.44022	-0.56671	29.4	13111	100
2025-3-27 17:38:59.848	WT901BLE68-01(48591DE3C19B)	-0.130	-1.236	0.175	17.883	-196.838	106.323	-72.99	3.72	-81.95	-53.214	-47.824	-1.666	0.56384	-0.40863	0.44022	-0.56671	29.4	13111	100
2025-3-27 17:38:59.849	WT901BLE68-01(48591DE3C19B)	-0.019	-1.236	0.175	17.883	-196.838	106.323	-72.67	4.19	-79.85	-53.214	-47.824	-1.666	0.56384	-0.40863	0.44022	-0.56671	29.4	13111	100
2025-3-27 17:38:59.849	WT901BLE68-01(48591DE3C19B)	-0.019	-1.302	0.183	28.809	-169.800	116.333	-72.25	4.82	-77.98	-53.214	-47.824	-1.666	0.56384	-0.40863	0.44022	-0.56671	29.4	13111	100
2025-3-27 17:38:59.849	WT901BLE68-01(48591DE3C19B)	0.083	-1.302	0.183	28.809	-169.800	116.333	-71.81	5.42	-76.11	-53.214	-47.824	-1.666	0.56384	-0.40863	0.44022	-0.56671	29.4	13111	100
2025-3-27 17:38:59.909	WT901BLE68-01(48591DE3C19B)	0.171	-1.323	0.166	40.649	-125.793	127.625	-71.28	6.23	-74.62	-53.214	-47.824	-1.666	0.56384	-0.40863	0.44022	-0.56671	29.4	13111	100
2025-3-27 17:38:59.909	WT901BLE68-01(48591DE3C19B)	0.171	-1.261	0.154	50.476	-63.416	139.282	-70.71	7.19	-73.40	-53.214	-47.824	-1.666	0.56384	-0.40863	0.44022	-0.56671	29.4	13111	100
2025-3-27 17:38:59.909	WT901BLE68-01(48591DE3C19B)	0.159	-1.261	0.154	50.476	-63.416	139.282	-70.12	8.27	-72.44	-53.214	-47.824	-1.666	0.56384	-0.40863	0.44022	-0.56671	29.4	13111	100
2025-3-27 17:38:59.910	WT901BLE68-01(48591DE3C19B)	0.159	-1.198	0.161	53.711	3.418	147.888	-69.54	9.49	-71.78	-53.214	-47.824	-1.666	0.56384	-0.40863	0.44022	-0.56671	29.4	13111	100
2025-3-27 17:38:59.911	WT901BLE68-01(48591DE3C19B)	0.110	-1.198	0.161	53.711	3.418	147.888	-68.99	10.84	-71.41	-53.214	-47.824	-1.666	0.56384	-0.40863	0.44022	-0.56671	29.4	13111	100
2025-3-27 17:38:59.911	WT901BLE68-01(48591DE3C19B)	0.110	-1.164	0.179	50.720	53.101	156.067	-68.49	12.30	-71.24	-53.214	-47.824	-1.666	0.56384	-0.40863	0.44022	-0.56671	29.4	13111	100
2025-3-27 17:38:59.911	WT901BLE68-01(48591DE3C19B)	0.039	-1.164	0.179	50.720	53.101	156.067	-68.05	13.88	-71.28	-53.214	-47.824	-1.666	0.56384	-0.40863	0.44022	-0.56671	29.4	13111	100
2025-3-27 17:38:59.911	WT901BLE68-01(48591DE3C19B)	0.039	-1.153	0.212	44.617	88.562	165.283	-67.68	15.56	-71.46	-53.214	-47.824	-1.666	0.56384	-0.40863	0.44022	-0.56671	29.4	13111	100
2025-3-27 17:38:59.969	WT901BLE68-01(48591DE3C19B)	-0.059	-1.153	0.212	44.617	88.562	165.283	-67.38	17.33	-71.78	-53.214	-47.824	-1.666	0.56384	-0.40863	0.44022	-0.56671	29.4	13111	100
2025-3-27 17:38:59.969	WT901BLE68-01(48591DE3C19B)	-0.059	-1.163	0.222	37.415	109.985	173.401	-67.15	19.18	-72.19	-53.214	-47.824	-1.666	0.56384	-0.40863	0.44022	-0.56671	29.4	13111	100
2025-3-27 17:38:59.969	WT901BLE68-01(48591DE3C19B)	-0.125	-1.163	0.222	37.415	109.985	173.401	-67.01	21.09	-72.67	-53.214	-47.824	-1.666	0.56384	-0.40863	0.44022	-0.56671	29.4	13111	100
2025-3-27 17:38:59.969	WT901BLE68-01(48591DE3C19B)	-0.125	-1.134	0.216	28.809	113.525	176.514	-66.92	23.02	-73.17	-53.214	-47.824	-1.666	0.56384	-0.40863	0.44022	-0.56671	29.4	13111	100
2025-3-27 17:38:59.999	WT901BLE68-01(48591DE3C19B)	-0.158	-1.134	0.216	28.809	113.525	176.514	-66.89	24.96	-73.69	-85.358	-32.928	3.626	0.56384	-0.40863	0.44022	-0.56671	29.4	13111	100
2025-3-27 17:38:59.999	WT901BLE68-01(48591DE3C19B)	-0.158	-1.113	0.204	16.907	99.121	174.500	-66.91	26.86	-74.15	-85.358	-32.928	3.626	0.56384	-0.40863	0.44022	-0.56671	29.4	13111	100
2025-3-27 17:38:59.999	WT901BLE68-01(48591DE3C19B)	-0.215	-1.113	0.204	16.907	99.121	174.500	-66.97	28.71	-74.54	-85.358	-32.928	3.626	0.56384	-0.40863	0.44022	-0.56671	29.4	13111	100
2025-3-27 17:38:59.999	WT901BLE68-01(48591DE3C19B)	-0.215	-1.127	0.200	4.883	72.144	168.213	-67.04	30.47	-74.81	-85.358	-32.928	3.626	0.56384	-0.40863	0.44022	-0.56671	29.4	13111	100
2025-3-27 17:39:0.180	WT901BLE68-01(48591DE3C19B)	-0.283	-1.127	0.200	4.883	72.144	168.213	-67.11	32.15	-74.95	-85.358	-32.928	3.626	0.56384	-0.40863	0.44022	-0.56671	29.4	13111	100
2025-3-27 17:39:0.180	WT901BLE68-01(48591DE3C19B)	-0.283	-1.163	0.198	-4.211	37.048	157.898	-67.13	33.70	-74.93	-85.358	-32.928	3.626	0.56384	-0.40863	0.44022	-0.56671	29.4	13111	100
2025-3-27 17:39:0.180	WT901BLE68-01(48591DE3C19B)	-0.279	-1.163	0.198	-4.211	37.048	157.898	-67.10	35.13	-74.75	-85.358	-32.928	3.626	0.56384	-0.40863	0.44022	-0.56671	29.4	13111	100
2025-3-27 17:39:0.180	WT901BLE68-01(48591DE3C19B)	-0.279	-1.176	0.206	-10.315	0.061	144.653	-67.00	36.44	-74.37	-85.358	-32.928	3.626	0.56384	-0.40863	0.44022	-0.56671	29.4	13111	100
2025-3-27 17:39:0.181	WT901BLE68-01(48591DE3C19B)	-0.152	-1.176	0.206	-10.315	0.061	144.653	-66.80	37.60	-73.82	-85.358	-32.928	3.626	0.56384	-0.40863	0.44022	-0.56671	29.4	13111	100
2025-3-27 17:39:0.181	WT901BLE68-01(48591DE3C19B)	-0.152	-1.114	0.220	-9.888	-29.419	127.380	-66.50	38.62	-73.12	-85.358	-32.928	3.626	0.56384	-0.40863	0.44022	-0.56671	29.4	13111	100
2025-3-27 17:39:0.181	WT901BLE68-01(48591DE3C19B)	-0.082	-1.114	0.220	-9.888	-29.419	127.380	-66.10	39.50	-72.28	-85.358	-32.928	3.626	0.56384	-0.40863	0.44022	-0.56671	29.4	13111	100
2025-3-27 17:39:0.181	WT901BLE68-01(48591DE3C19B)	-0.082	-0.978	0.244	-10.254	-42.603	110.291	-65.67	40.25	-71.40	-85.358	-32.928	3.626	0.56384	-0.40863	0.44022	-0.56671	29.4	13111	100
2025-3-27 17:39:0.208	WT901BLE68-01(48591DE3C19B)	-0.085	-0.978	0.244	-10.254	-42.603	110.291	-65.19	40.90	-70.47	-85.358	-32.928	3.626	0.56384	-0.40863	0.44022	-0.56671	29.4	13111	100
2025-3-27 17:39:0.208	WT901BLE68-01(48591DE3C19B)	-0.085	-0.898	0.261	-12.817	-44.006	89.966	-64.74	41.44	-69.58	-85.358	-32.928	3.626	0.56384	-0.40863	0.44022	-0.56671	29.4	13111	100
2025-3-27 17:39:0.209	WT901BLE68-01(48591DE3C19B)	-0.093	-0.898	0.261	-12.817	-44.006	89.966	-64.33	41.87	-68.73	-85.358	-32.928	3.626	0.56384	-0.40863	0.44022	-0.56671	29.4	13111	100
2025-3-27 17:39:0.209	WT901BLE68-01(48591DE3C19B)	-0.093	-0.826	0.281	-13.062	-38.269	69.092	-63.97	42.22	-67.98	-85.358	-32.928	3.626	0.56384	-0.40863	0.44022	-0.56671	29.4	13111	100
2025-3-27 17:39:0.209	WT901BLE68-01(48591DE3C19B)	-0.095	-0.826	0.281	-13.062	-38.269	69.092	-63.67	42.48	-67.31	-85.358	-32.928	3.626	0.56384	-0.40863	0.44022	-0.56671	29.4	13111	100
2025-3-27 17:39:0.209	WT901BLE68-01(48591DE3C19B)	-0.095	-0.741	0.294	-13.245	-26.733	50.293	-63.45	42.68	-66.77	-85.358	-32.928	3.626	0.56384	-0.40863	0.44022	-0.56671	29.4	13111	100
2025-3-27 17:39:0.210	WT901BLE68-01(48591DE3C19B)	-0.098	-0.741	0.294	-13.245	-26.733	50.293	-63.31	42.82	-66.36	-85.358	-32.928	3.626	0.56384	-0.40863	0.44022	-0.56671	29.4	13111	100
2025-3-27 17:39:0.210	WT901BLE68-01(48591DE3C19B)	-0.098	-0.688	0.287	-13.977	-14.587	32.532	-63.26	42.90	-66.08	-85.358	-32.928	3.626	0.56384	-0.40863	0.44022	-0.56671	29.4	13111	100
2025-3-27 17:39:0.210	WT901BLE68-01(48591DE3C19B)	-0.087	-0.688	0.287	-13.977	-14.587	32.532	-63.30	42.93	-65.93	-85.358	-32.928	3.626	0.56384	-0.40863	0.44022	-0.56671	29.4	13111	100
2025-3-27 17:39:0.210	WT901BLE68-01(48591DE3C19B)	-0.043	-0.669	0.266	-15.137	-4.211	14.282	-63.41	42.91	-65.89	-85.358	-32.928	3.626	0.56384	-0.40863	0.44022	-0.56671	29.4	13111	100
2025-3-27 17:39:0.210	WT901BLE68-01(48591DE3C19B)	-0.113	-0.334	0.133	-15.137	-4.211	14.282	-63.61	42.82	-65.97	-85.358	-32.928	3.626	0.56384	-0.40863	0.44022	-0.56671	29.4	13111	100
2025-3-27 17:39:0.211	WT901BLE68-01(48591DE3C19B)	-0.113	-0.715	0.269	-16.235	2.991	-4.822	-63.89	42.67	-66.15	-85.358	-32.928	3.626	0.56384	-0.40863	0.44022	-0.56671	29.4	13111	100
2025-3-27 17:39:0.244	WT901BLE68-01(48591DE3C19B)	-0.180	-0.715	0.269	-16.235	2.991	-4.822	-64.22	42.45	-66.43	-85.358	-32.928	3.626	0.76523	-0.24759	0.52811	-0.27225	29.4	13111	100
2025-3-27 17:39:0.244	WT901BLE68-01(48591DE3C19B)	-0.180	-0.805	0.276	-14.648	5.798	-22.644	-64.59	42.15	-66.77	-85.358	-32.928	3.626	0.76523	-0.24759	0.52811	-0.27225	29.4	13111	100
2025-3-27 17:39:0.244	WT901BLE68-01(48591DE3C19B)	-0.225	-0.805	0.276	-14.648	5.798	-22.644	-64.99	41.78	-67.18	-85.358	-32.928	3.626	0.76523	-0.24759	0.52811	-0.27225	29.4	13111	100
2025-3-27 17:39:0.244	WT901BLE68-01(48591DE3C19B)	-0.225	-0.831	0.280	-10.193	8.362	-37.659	-65.39	41.35	-67.63	-85.358	-32.928	3.626	0.76523	-0.24759	0.52811	-0.27225	29.4	13111	100
2025-3-27 17:39:0.271	WT901BLE68-01(48591DE3C19B)	-0.208	-0.831	0.280	-10.193	8.362	-37.659	-65.80	40.86	-68.13	-85.358	-32.928	3.626	0.76523	-0.24759	0.52811	-0.27225	29.4	13111	100
2025-3-27 17:39:0.271	WT901BLE68-01(48591DE3C19B)	-0.208	-0.788	0.281	-5.859	15.442	-51.331	-66.23	40.34	-68.70	-85.358	-32.928	3.626	0.76523	-0.24759	0.52811	-0.27225	29.4	13111	100
2025-3-27 17:39:0.271	WT901BLE68-01(48591DE3C19B)	-0.192	-0.788	0.281	-5.859	15.442	-51.331	-66.67	39.76	-69.33	-85.358	-32.928	3.626	0.76523	-0.24759	0.52811	-0.27225	29.4	13111	100
2025-3-27 17:39:0.271	WT901BLE68-01(48591DE3C19B)	-0.192	-0.728	0.276	-4.639	27.710	-65.063	-67.15	39.14	-70.05	-85.358	-32.928	3.626	0.76523	-0.24759	0.52811	-0.27225	29.4	13111	100
2025-3-27 17:39:0.331	WT901BLE68-01(48591DE3C19B)	-0.196	-0.728	0.276	-4.639	27.710	-65.063	-67.67	38.49	-70.86	-85.358	-32.928	3.626	0.76523	-0.24759	0.52811	-0.27225	29.4	13111	100
2025-3-27 17:39:0.331	WT901BLE68-01(48591DE3C19B)	-0.196	-0.715	0.258	-7.324	40.405	-78.552	-68.25	37.79	-71.76	-85.358	-32.928	3.626	0.76523	-0.24759	0.52811	-0.27225	29.4	13111	100
2025-3-27 17:39:0.331	WT901BLE68-01(48591DE3C19B)	-0.241	-0.715	0.258	-7.324	40.405	-78.552	-68.89	37.06	-72.75	-85.358	-32.928	3.626	0.76523	-0.24759	0.52811	-0.27225	29.4	13111	100
2025-3-27 17:39:0.331	WT901BLE68-01(48591DE3C19B)	-0.241	-0.764	0.243	-11.597	48.035	-96.069	-69.64	36.19	-73.87	-85.358	-32.928	3.626	0.76523	-0.24759	0.52811	-0.27225	29.4	13111	100
2025-3-27 17:39:0.359	WT901BLE68-01(48591DE3C19B)	-0.314	-0.764	0.243	-11.597	48.035	-96.069	-70.36	35.32	-74.96	-85.358	-32.928	3.626	0.76523	-0.24759	0.52811	-0.27225	29.4	13111	100
2025-3-27 17:39:0.360	WT901BLE68-01(48591DE3C19B)	-0.314	-0.840	0.238	-16.602	48.523	-118.774	-71.14	34.23	-76.11	-85.358	-32.928	3.626	0.76523	-0.24759	0.52811	-0.27225	29.4	13111	100
2025-3-27 17:39:0.360	WT901BLE68-01(48591DE3C19B)	-0.383	-0.840	0.238	-16.602	48.523	-118.774	-71.89	33.13	-77.23	-85.358	-32.928	3.626	0.76523	-0.24759	0.52811	-0.27225	29.4	13111	100
2025-3-27 17:39:0.360	WT901BLE68-01(48591DE3C19B)	-0.383	-0.929	0.260	-19.714	47.363	-146.545	-72.67	31.78	-78.40	-83.104	-21.560	1.176	0.76523	-0.24759	0.52811	-0.27225	29.4	13111	100
2025-3-27 17:39:0.388	WT901BLE68-01(48591DE3C19B)	-0.525	-0.929	0.260	-19.714	47.363	-146.545	-73.41	30.42	-79.52	-83.104	-21.560	1.176	0.76523	-0.24759	0.52811	-0.27225	29.4	13111	100
2025-3-27 17:39:0.388	WT901BLE68-01(48591DE3C19B)	-0.525	-1.040	0.302	-18.677	38.391	-173.279	-74.09	28.79	-80.60	-83.104	-21.560	1.176	0.76523	-0.24759	0.52811	-0.27225	29.4	13111	100
2025-3-27 17:39:0.388	WT901BLE68-01(48591DE3C19B)	-0.617	-1.040	0.302	-18.677	38.391	-173.279	-74.71	27.16	-81.63	-83.104	-21.560	1.176	0.76523	-0.24759	0.52811	-0.27225	29.4	13111	100
2025-3-27 17:39:0.388	WT901BLE68-01(48591DE3C19B)	-0.617	-1.126	0.310	-15.381	21.973	-198.059	-75.22	25.26	-82.51	-83.104	-21.560	1.176	0.76523	-0.24759	0.52811	-0.27225	29.4	13111	100
2025-3-27 17:39:0.479	WT901BLE68-01(48591DE3C19B)	-0.569	-1.126	0.310	-15.381	21.973	-198.059	-75.68	23.38	-83.37	-83.104	-21.560	1.176	0.76523	-0.24759	0.52811	-0.27225	29.4	13111	100
2025-3-27 17:39:0.480	WT901BLE68-01(48591DE3C19B)	-0.569	-1.128	0.277	-10.986	11.597	-214.905	-76.04	21.32	-84.13	-83.104	-21.560	1.176	0.76523	-0.24759	0.52811	-0.27225	29.4	13111	100
2025-3-27 17:39:0.480	WT901BLE68-01(48591DE3C19B)	-0.517	-1.128	0.277	-10.986	11.597	-214.905	-76.37	19.26	-84.86	-83.104	-21.560	1.176	0.76523	-0.24759	0.52811	-0.27225	29.4	13111	100
2025-3-27 17:39:0.480	WT901BLE68-01(48591DE3C19B)	-0.517	-1.127	0.238	-7.568	18.921	-225.220	-76.66	17.14	-85.67	-83.104	-21.560	1.176	0.76523	-0.24759	0.52811	-0.27225	29.4	13111	100
2025-3-27 17:39:0.481	WT901BLE68-01(48591DE3C19B)	-0.447	-1.127	0.238	-7.568	18.921	-225.220	-76.92	15.03	-86.46	-83.104	-21.560	1.176	0.76523	-0.24759	0.52811	-0.27225	29.4	13111	100
2025-3-27 17:39:0.481	WT901BLE68-01(48591DE3C19B)	-0.447	-1.150	0.209	-2.136	34.058	-230.591	-77.14	12.91	-87.39	-83.104	-21.560	1.176	0.76523	-0.24759	0.52811	-0.27225	29.4	13111	100
2025-3-27 17:39:0.481	WT901BLE68-01(48591DE3C19B)	-0.354	-1.150	0.209	-2.136	34.058	-230.591	-77.32	10.80	-88.30	-83.104	-21.560	1.176	0.76523	-0.24759	0.52811	-0.27225	29.4	13111	100
2025-3-27 17:39:0.481	WT901BLE68-01(48591DE3C19B)	-0.354	-1.127	0.194	2.319	55.969	-229.309	-77.46	8.76	-89.41	-83.104	-21.560	1.176	0.76523	-0.24759	0.52811	-0.27225	29.4	13111	100
2025-3-27 17:39:0.543	WT901BLE68-01(48591DE3C19B)	-0.285	-1.127	0.194	2.319	55.969	-229.309	-77.57	6.72	-90.50	-83.104	-21.560	1.176	0.76523	-0.24759	0.52811	-0.27225	29.4	13111	100
2025-3-27 17:39:0.543	WT901BLE68-01(48591DE3C19B)	-0.285	-1.125	0.178	4.456	91.309	-223.877	-77.66	4.82	-91.91	-83.104	-21.560	1.176	0.76523	-0.24759	0.52811	-0.27225	29.4	13111	100
2025-3-27 17:39:0.544	WT901BLE68-01(48591DE3C19B)	-0.309	-1.125	0.178	4.456	91.309	-223.877	-77.70	2.93	-93.31	-83.104	-21.560	1.176	0.76523	-0.24759	0.52811	-0.27225	29.4	13111	100
2025-3-27 17:39:0.544	WT901BLE68-01(48591DE3C19B)	-0.309	-1.152	0.152	8.972	130.798	-216.187	-77.67	1.20	-95.07	-83.104	-21.560	1.176	0.76523	-0.24759	0.52811	-0.27225	29.4	13111	100
2025-3-27 17:39:0.570	WT901BLE68-01(48591DE3C19B)	-0.364	-1.152	0.152	8.972	130.798	-216.187	-77.59	-0.51	-96.82	-83.104	-21.560	1.176	0.76523	-0.24759	0.52811	-0.27225	29.4	13111	100
2025-3-27 17:39:0.570	WT901BLE68-01(48591DE3C19B)	-0.364	-1.194	0.136	13.550	162.354	-206.543	-77.42	-2.05	-98.84	-83.104	-21.560	1.176	0.76523	-0.24759	0.52811	-0.27225	29.4	13111	100
2025-3-27 17:39:0.570	WT901BLE68-01(48591DE3C19B)	-0.420	-1.194	0.136	13.550	162.354	-206.543	-77.20	-3.58	-100.88	-83.104	-21.560	1.176	0.76523	-0.24759	0.52811	-0.27225	29.4	13111	100
2025-3-27 17:39:0.570	WT901BLE68-01(48591DE3C19B)	-0.420	-1.281	0.147	18.738	182.190	-193.420	-76.87	-4.92	-103.06	-83.104	-21.560	1.176	0.76523	-0.24759	0.52811	-0.27225	29.4	13111	100
2025-3-27 17:39:0.598	WT901BLE68-01(48591DE3C19B)	-0.517	-1.281	0.147	18.738	182.190	-193.420	-76.49	-6.24	-105.26	-83.104	-21.560	1.176	0.44916	-0.40912	0.46524	-0.64365	29.4	13111	100
2025-3-27 17:39:0.598	WT901BLE68-01(48591DE3C19B)	-0.517	-1.416	0.181	26.428	184.082	-175.232	-75.99	-7.36	-107.43	-83.104	-21.560	1.176	0.44916	-0.40912	0.46524	-0.64365	29.4	13111	100
2025-3-27 17:39:0.599	WT901BLE68-01(48591DE3C19B)	-0.624	-1.416	0.181	26.428	184.082	-175.232	-75.47	-8.44	-109.61	-83.104	-21.560	1.176	0.44916	-0.40912	0.46524	-0.64365	29.4	13111	100
2025-3-27 17:39:0.599	WT901BLE68-01(48591DE3C19B)	-0.624	-1.518	0.195	38.513	167.908	-155.396	-74.81	-9.35	-111.59	-83.104	-21.560	1.176	0.44916	-0.40912	0.46524	-0.64365	29.4	13111	100
2025-3-27 17:39:0.659	WT901BLE68-01(48591DE3C19B)	-0.645	-1.518	0.195	38.513	167.908	-155.396	-74.14	-10.23	-113.57	-83.104	-21.560	1.176	0.44916	-0.40912	0.46524	-0.64365	29.4	13111	100
2025-3-27 17:39:0.659	WT901BLE68-01(48591DE3C19B)	-0.645	-1.516	0.208	50.903	141.785	-135.986	-73.37	-10.96	-115.25	-83.104	-21.560	1.176	0.44916	-0.40912	0.46524	-0.64365	29.4	13111	100
2025-3-27 17:39:0.659	WT901BLE68-01(48591DE3C19B)	-0.597	-1.516	0.208	50.903	141.785	-135.986	-72.58	-11.66	-116.94	-83.104	-21.560	1.176	0.44916	-0.40912	0.46524	-0.64365	29.4	13111	100
2025-3-27 17:39:0.659	WT901BLE68-01(48591DE3C19B)	-0.597	-1.476	0.211	58.899	114.563	-111.938	-71.77	-12.19	-118.31	-83.104	-21.560	1.176	0.44916	-0.40912	0.46524	-0.64365	29.4	13111	100
2025-3-27 17:39:0.688	WT901BLE68-01(48591DE3C19B)	-0.551	-1.476	0.211	58.899	114.563	-111.938	-70.95	-12.70	-119.67	-83.104	-21.560	1.176	0.44916	-0.40912	0.46524	-0.64365	29.4	13111	100
2025-3-27 17:39:0.688	WT901BLE68-01(48591DE3C19B)	-0.551	-1.424	0.213	62.805	88.928	-88.989	-70.16	-13.06	-120.72	-83.104	-21.560	1.176	0.44916	-0.40912	0.46524	-0.64365	29.4	13111	100
2025-3-27 17:39:0.688	WT901BLE68-01(48591DE3C19B)	-0.469	-1.424	0.213	62.805	88.928	-88.989	-69.36	-13.40	-121.77	-83.104	-21.560	1.176	0.44916	-0.40912	0.46524	-0.64365	29.4	13111	100
2025-3-27 17:39:0.688	WT901BLE68-01(48591DE3C19B)	-0.469	-1.332	0.184	64.819	73.181	-66.895	-68.60	-13.57	-122.59	-83.104	-21.560	1.176	0.44916	-0.40912	0.46524	-0.64365	29.4	13111	100
2025-3-27 17:39:0.719	WT901BLE68-01(48591DE3C19B)	-0.396	-1.332	0.184	64.819	73.181	-66.895	-67.84	-13.74	-123.41	-83.104	-21.560	1.176	0.44916	-0.40912	0.46524	-0.64365	29.4	13111	100
2025-3-27 17:39:0.719	WT901BLE68-01(48591DE3C19B)	-0.396	-1.248	0.130	56.641	68.726	-47.363	-67.20	-13.73	-124.11	-83.104	-21.560	1.176	0.44916	-0.40912	0.46524	-0.64365	29.4	13111	100
2025-3-27 17:39:0.719	WT901BLE68-01(48591DE3C19B)	-0.360	-1.248	0.130	56.641	68.726	-47.363	-66.56	-13.71	-124.81	-83.104	-21.560	1.176	0.44916	-0.40912	0.46524	-0.64365	29.4	13111	100
2025-3-27 17:39:0.719	WT901BLE68-01(48591DE3C19B)	-0.360	-1.508	0.020	34.790	71.777	-32.288	-66.15	-13.55	-125.47	-83.104	-21.560	1.176	0.44916	-0.40912	0.46524	-0.64365	29.4	13111	100
2025-3-27 17:39:0.751	WT901BLE68-01(48591DE3C19B)	-0.357	-1.508	0.020	34.790	71.777	-32.288	-65.76	-13.39	-126.11	-83.104	-21.560	1.176	0.44916	-0.40912	0.46524	-0.64365	29.4	13111	100
2025-3-27 17:39:0.751	WT901BLE68-01(48591DE3C19B)	-0.357	-1.642	-0.008	30.945	83.862	-19.653	-65.40	-13.06	-126.80	-83.104	-21.560	1.176	0.44916	-0.40912	0.46524	-0.64365	29.4	13111	100
2025-3-27 17:39:0.751	WT901BLE68-01(48591DE3C19B)	-0.408	-1.642	-0.008	30.945	83.862	-19.653	-65.06	-12.74	-127.49	-83.104	-21.560	1.176	0.44916	-0.40912	0.46524	-0.64365	29.4	13111	100
2025-3-27 17:39:0.751	WT901BLE68-01(48591DE3C19B)	-0.408	-1.107	0.116	30.396	89.966	-4.272	-64.73	-12.26	-128.15	-83.104	-21.560	1.176	0.44916	-0.40912	0.46524	-0.64365	29.4	13111	100
2025-3-27 17:39:0.808	WT901BLE68-01(48591DE3C19B)	-0.462	-1.107	0.116	30.396	89.966	-4.272	-64.41	-11.77	-128.81	-83.104	-21.560	1.176	0.44916	-0.40912	0.46524	-0.64365	29.4	13111	100
2025-3-27 17:39:0.808	WT901BLE68-01(48591DE3C19B)	-0.451	-0.451	0.295	9.094	69.885	17.395	-64.36	-11.16	-129.19	-51.548	-47.334	-3.038	0.44916	-0.40912	0.46524	-0.64365	29.4	13111	100
2025-3-27 17:39:0.809	WT901BLE68-01(48591DE3C19B)	-0.451	-0.071	0.419	-20.935	28.748	40.405	-64.51	-10.53	-129.34	-51.548	-47.334	-3.038	0.44916	-0.40912	0.46524	-0.64365	29.4	13111	100
2025-3-27 17:39:0.809	WT901BLE68-01(48591DE3C19B)	-0.367	-0.071	0.419	-20.935	28.748	40.405	-64.82	-9.88	-129.29	-51.548	-47.334	-3.038	0.44916	-0.40912	0.46524	-0.64365	29.4	13111	100
2025-3-27 17:39:0.845	WT901BLE68-01(48591DE3C19B)	-0.367	-0.107	0.421	-46.326	-9.094	71.167	-65.29	-9.15	-129.03	-51.548	-47.334	-3.038	0.44916	-0.40912	0.46524	-0.64365	29.4	13111	100
2025-3-27 17:39:0.845	WT901BLE68-01(48591DE3C19B)	-0.219	-0.107	0.421	-46.326	-9.094	71.167	-65.89	-8.34	-128.57	-51.548	-47.334	-3.038	0.44916	-0.40912	0.46524	-0.64365	29.4	13111	100
2025-3-27 17:39:0.845	WT901BLE68-01(48591DE3C19B)	-0.219	-0.257	0.273	-60.669	-36.499	97.900	-66.56	-7.47	-127.96	-51.548	-47.334	-3.038	0.44916	-0.40912	0.46524	-0.64365	29.4	13111	100
2025-3-27 17:39:0.845	WT901BLE68-01(48591DE3C19B)	-0.148	-0.257	0.273	-60.669	-36.499	97.900	-67.29	-6.51	-127.21	-51.548	-47.334	-3.038	0.44916	-0.40912	0.46524	-0.64365	29.4	13111	100
2025-3-27 17:39:0.868	WT901BLE68-01(48591DE3C19B)	-0.148	-0.380	0.155	-65.674	-64.453	113.281	-68.04	-5.54	-126.32	-51.548	-47.334	-3.038	0.44916	-0.40912	0.46524	-0.64365	29.4	13111	100
2025-3-27 17:39:0.869	WT901BLE68-01(48591DE3C19B)	-0.178	-0.380	0.155	-65.674	-64.453	113.281	-68.81	-4.53	-125.29	-51.548	-47.334	-3.038	0.44916	-0.40912	0.46524	-0.64365	29.4	13111	100
2025-3-27 17:39:0.869	WT901BLE68-01(48591DE3C19B)	-0.178	-0.588	0.042	-74.646	-87.646	121.704	-69.60	-3.53	-124.15	-51.548	-47.334	-3.038	0.44916	-0.40912	0.46524	-0.64365	29.4	13111	100
2025-3-27 17:39:0.869	WT901BLE68-01(48591DE3C19B)	-0.228	-0.588	0.042	-74.646	-87.646	121.704	-70.43	-2.52	-122.89	-51.548	-47.334	-3.038	0.44916	-0.40912	0.46524	-0.64365	29.4	13111	100
2025-3-27 17:39:0.931	WT901BLE68-01(48591DE3C19B)	-0.228	-0.866	-0.054	-76.721	-94.666	124.390	-71.26	-1.50	-121.60	-51.548	-47.334	-3.038	0.44916	-0.40912	0.46524	-0.64365	29.4	13111	100
2025-3-27 17:39:0.931	WT901BLE68-01(48591DE3C19B)	-0.274	-0.866	-0.054	-76.721	-94.666	124.390	-72.08	-0.47	-120.27	-51.548	-47.334	-3.038	0.44916	-0.40912	0.46524	-0.64365	29.4	13111	100
2025-3-27 17:39:0.931	WT901BLE68-01(48591DE3C19B)	-0.274	-1.060	-0.069	-68.359	-93.750	120.972	-72.85	0.54	-118.95	-51.548	-47.334	-3.038	0.44916	-0.40912	0.46524	-0.64365	29.4	13111	100
2025-3-27 17:39:0.931	WT901BLE68-01(48591DE3C19B)	-0.393	-1.060	-0.069	-68.359	-93.750	120.972	-73.56	1.54	-117.65	-51.548	-47.334	-3.038	0.44916	-0.40912	0.46524	-0.64365	29.4	13111	100
2025-3-27 17:39:0.961	WT901BLE68-01(48591DE3C19B)	-0.393	-1.234	0.018	-63.110	-99.426	116.577	-74.23	2.52	-116.32	-51.548	-47.334	-3.038	0.44916	-0.40912	0.46524	-0.64365	29.4	13111	100
2025-3-27 17:39:0.961	WT901BLE68-01(48591DE3C19B)	-0.391	-1.234	0.018	-63.110	-99.426	116.577	-74.86	3.48	-114.99	-51.548	-47.334	-3.038	0.44916	-0.40912	0.46524	-0.64365	29.4	13111	100
2025-3-27 17:39:0.961	WT901BLE68-01(48591DE3C19B)	-0.391	-1.333	0.122	-53.894	-127.075	114.136	-75.40	4.39	-113.53	-51.548	-47.334	-3.038	0.44916	-0.40912	0.46524	-0.64365	29.4	13111	100
2025-3-27 17:39:0.961	WT901BLE68-01(48591DE3C19B)	-0.289	-1.333	0.122	-53.894	-127.075	114.136	-75.87	5.26	-111.95	-51.548	-47.334	-3.038	0.46420	-0.31357	0.52924	-0.63715	29.4	13111	100
2025-3-27 17:39:1.19	WT901BLE68-01(48591DE3C19B)	-0.289	-1.252	0.212	-52.612	-149.353	121.033	-76.29	6.15	-110.27	-51.548	-47.334	-3.038	0.46420	-0.31357	0.52924	-0.63715	29.4	13111	100
2025-3-27 17:39:1.19	WT901BLE68-01(48591DE3C19B)	-0.305	-1.252	0.212	-52.612	-149.353	121.033	-76.66	7.04	-108.48	-51.548	-47.334	-3.038	0.46420	-0.31357	0.52924	-0.63715	29.4	13111	100
2025-3-27 17:39:1.19	WT901BLE68-01(48591DE3C19B)	-0.305	-1.192	0.274	-54.382	-163.330	137.024	-77.00	8.00	-106.63	-51.548	-47.334	-3.038	0.46420	-0.31357	0.52924	-0.63715	29.4	13111	100
2025-3-27 17:39:1.19	WT901BLE68-01(48591DE3C19B)	-0.392	-1.192	0.274	-54.382	-163.330	137.024	-77.29	9.02	-104.69	-51.548	-47.334	-3.038	0.46420	-0.31357	0.52924	-0.63715	29.4	13111	100
2025-3-27 17:39:1.48	WT901BLE68-01(48591DE3C19B)	-0.392	-1.178	0.323	-56.946	-193.665	152.283	-77.53	10.09	-102.60	-51.548	-47.334	-3.038	0.46420	-0.31357	0.52924	-0.63715	29.4	13111	100
2025-3-27 17:39:1.48	WT901BLE68-01(48591DE3C19B)	-0.357	-1.178	0.323	-56.946	-193.665	152.283	-77.70	11.19	-100.35	-51.548	-47.334	-3.038	0.46420	-0.31357	0.52924	-0.63715	29.4	13111	100
2025-3-27 17:39:1.48	WT901BLE68-01(48591DE3C19B)	-0.357	-1.302	0.312	-61.829	-232.300	172.913	-77.80	12.36	-97.90	-51.548	-47.334	-3.038	0.46420	-0.31357	0.52924	-0.63715	29.4	13111	100
2025-3-27 17:39:1.48	WT901BLE68-01(48591DE3C19B)	-0.237	-1.302	0.312	-61.829	-232.300	172.913	-77.82	13.58	-95.23	-51.548	-47.334	-3.038	0.46420	-0.31357	0.52924	-0.63715	29.4	13111	100
2025-3-27 17:39:1.79	WT901BLE68-01(48591DE3C19B)	-0.237	-1.454	0.232	-51.392	-251.709	197.571	-77.70	14.89	-92.43	-51.548	-47.334	-3.038	0.46420	-0.31357	0.52924	-0.63715	29.4	13111	100
2025-3-27 17:39:1.79	WT901BLE68-01(48591DE3C19B)	-0.179	-1.454	0.232	-51.392	-251.709	197.571	-77.42	16.28	-89.50	-51.548	-47.334	-3.038	0.46420	-0.31357	0.52924	-0.63715	29.4	13111	100
2025-3-27 17:39:1.79	WT901BLE68-01(48591DE3C19B)	-0.179	-1.471	0.145	-34.241	-253.357	217.590	-76.98	17.73	-86.51	-51.548	-47.334	-3.038	0.46420	-0.31357	0.52924	-0.63715	29.4	13111	100
2025-3-27 17:39:1.79	WT901BLE68-01(48591DE3C19B)	-0.033	-1.471	0.145	-34.241	-253.357	217.590	-76.35	19.23	-83.46	-51.548	-47.334	-3.038	0.46420	-0.31357	0.52924	-0.63715	29.4	13111	100
2025-3-27 17:39:1.144	WT901BLE68-01(48591DE3C19B)	-0.033	-1.543	0.086	-15.442	-227.966	223.877	-75.60	20.75	-80.50	-51.548	-47.334	-3.038	0.46420	-0.31357	0.52924	-0.63715	29.4	13111	100
2025-3-27 17:39:1.144	WT901BLE68-01(48591DE3C19B)	0.015	-1.543	0.086	-15.442	-227.966	223.877	-74.70	22.27	-77.62	-51.548	-47.334	-3.038	0.46420	-0.31357	0.52924	-0.63715	29.4	13111	100
2025-3-27 17:39:1.144	WT901BLE68-01(48591DE3C19B)	0.015	-1.500	0.135	4.395	-175.903	220.032	-73.74	23.80	-74.97	-51.548	-47.334	-3.038	0.46420	-0.31357	0.52924	-0.63715	29.4	13111	100
2025-3-27 17:39:1.144	WT901BLE68-01(48591DE3C19B)	-0.080	-1.500	0.135	4.395	-175.903	220.032	-72.71	25.31	-72.55	-51.548	-47.334	-3.038	0.46420	-0.31357	0.52924	-0.63715	29.4	13111	100
2025-3-27 17:39:1.171	WT901BLE68-01(48591DE3C19B)	-0.080	-1.431	0.223	14.465	-136.597	209.961	-71.66	26.78	-70.31	-51.548	-47.334	-3.038	0.46420	-0.31357	0.52924	-0.63715	29.4	13111	100
2025-3-27 17:39:1.171	WT901BLE68-01(48591DE3C19B)	-0.069	-1.431	0.223	14.465	-136.597	209.961	-70.59	28.22	-68.24	-51.548	-47.334	-3.038	0.46420	-0.31357	0.52924	-0.63715	29.4	13111	100
2025-3-27 17:39:1.171	WT901BLE68-01(48591DE3C19B)	-0.069	-1.386	0.297	25.818	-116.028	194.946	-69.46	29.58	-66.26	-51.548	-47.334	-3.038	0.46420	-0.31357	0.52924	-0.63715	29.4	13111	100
2025-3-27 17:39:1.171	WT901BLE68-01(48591DE3C19B)	-0.014	-1.386	0.297	25.818	-116.028	194.946	-68.28	30.86	-64.38	-84.672	-26.166	4.410	0.46420	-0.31357	0.52924	-0.63715	29.4	13111	100
2025-3-27 17:39:1.200	WT901BLE68-01(48591DE3C19B)	-0.014	-1.292	0.332	36.682	-83.313	180.786	-67.10	32.09	-62.66	-84.672	-26.166	4.410	0.46420	-0.31357	0.52924	-0.63715	29.4	13111	100
2025-3-27 17:39:1.200	WT901BLE68-01(48591DE3C19B)	-0.014	-1.292	0.332	36.682	-83.313	180.786	-65.92	33.28	-61.10	-84.672	-26.166	4.410	0.46420	-0.31357	0.52924	-0.63715	29.4	13111	100
2025-3-27 17:39:1.200	WT901BLE68-01(48591DE3C19B)	-0.014	-1.193	0.331	44.983	-42.236	165.405	-64.80	34.45	-59.77	-84.672	-26.166	4.410	0.46420	-0.31357	0.52924	-0.63715	29.4	13111	100
2025-3-27 17:39:1.200	WT901BLE68-01(48591DE3C19B)	-0.053	-1.193	0.331	44.983	-42.236	165.405	-63.74	35.60	-58.65	-84.672	-26.166	4.410	0.46420	-0.31357	0.52924	-0.63715	29.4	13111	100
2025-3-27 17:39:1.259	WT901BLE68-01(48591DE3C19B)	-0.053	-1.119	0.284	50.476	-6.348	148.682	-62.75	36.74	-57.75	-84.672	-26.166	4.410	0.46420	-0.31357	0.52924	-0.63715	29.4	13111	100
2025-3-27 17:39:1.259	WT901BLE68-01(48591DE3C19B)	-0.076	-1.119	0.284	50.476	-6.348	148.682	-61.86	37.86	-57.06	-84.672	-26.166	4.410	0.46420	-0.31357	0.52924	-0.63715	29.4	13111	100
2025-3-27 17:39:1.259	WT901BLE68-01(48591DE3C19B)	-0.076	-1.029	0.238	53.955	18.005	130.432	-61.14	38.92	-56.72	-84.672	-26.166	4.410	0.46420	-0.31357	0.52924	-0.63715	29.4	13111	100
2025-3-27 17:39:1.259	WT901BLE68-01(48591DE3C19B)	-0.080	-1.029	0.238	53.955	18.005	130.432	-60.41	39.98	-56.37	-84.672	-26.166	4.410	0.46420	-0.31357	0.52924	-0.63715	29.4	13111	100
2025-3-27 17:39:1.288	WT901BLE68-01(48591DE3C19B)	-0.080	-0.946	0.203	53.772	34.851	113.647	-59.85	40.96	-56.28	-84.672	-26.166	4.410	0.46420	-0.31357	0.52924	-0.63715	29.4	13111	100
2025-3-27 17:39:1.288	WT901BLE68-01(48591DE3C19B)	-0.102	-0.946	0.203	53.772	34.851	113.647	-59.28	41.94	-56.19	-84.672	-26.166	4.410	0.46420	-0.31357	0.52924	-0.63715	29.4	13111	100
2025-3-27 17:39:1.288	WT901BLE68-01(48591DE3C19B)	-0.102	-0.873	0.194	51.819	44.250	98.877	-58.87	42.83	-56.29	-84.672	-26.166	4.410	0.46420	-0.31357	0.52924	-0.63715	29.4	13111	100
2025-3-27 17:39:1.288	WT901BLE68-01(48591DE3C19B)	-0.121	-0.873	0.194	51.819	44.250	98.877	-58.45	43.71	-56.39	-84.672	-26.166	4.410	0.46420	-0.31357	0.52924	-0.63715	29.4	13111	100
2025-3-27 17:39:1.319	WT901BLE68-01(48591DE3C19B)	-0.121	-0.816	0.209	47.852	42.542	86.121	-58.12	44.48	-56.55	-84.672	-26.166	4.410	0.46420	-0.31357	0.52924	-0.63715	29.4	13111	100
2025-3-27 17:39:1.319	WT901BLE68-01(48591DE3C19B)	-0.118	-0.816	0.209	47.852	42.542	86.121	-57.78	45.24	-56.70	-84.672	-26.166	4.410	0.46420	-0.31357	0.52924	-0.63715	29.4	13111	100
2025-3-27 17:39:1.319	WT901BLE68-01(48591DE3C19B)	-0.118	-0.764	0.220	42.664	35.767	74.158	-57.50	45.86	-56.86	-84.672	-26.166	4.410	0.46420	-0.31357	0.52924	-0.63715	29.4	13111	100
2025-3-27 17:39:1.319	WT901BLE68-01(48591DE3C19B)	-0.111	-0.764	0.220	42.664	35.767	74.158	-57.21	46.48	-57.01	-84.672	-26.166	4.410	0.46420	-0.31357	0.52924	-0.63715	29.4	13111	100
2025-3-27 17:39:1.379	WT901BLE68-01(48591DE3C19B)	-0.111	-0.713	0.226	36.255	29.785	61.584	-57.00	46.96	-57.18	-84.672	-26.166	4.410	0.46420	-0.31357	0.52924	-0.63715	29.4	13111	100
2025-3-27 17:39:1.380	WT901BLE68-01(48591DE3C19B)	-0.103	-0.713	0.226	36.255	29.785	61.584	-56.79	47.44	-57.35	-84.672	-26.166	4.410	0.46420	-0.31357	0.52924	-0.63715	29.4	13111	100
2025-3-27 17:39:1.380	WT901BLE68-01(48591DE3C19B)	-0.103	-0.667	0.229	29.724	26.733	46.814	-56.70	47.77	-57.60	-84.672	-26.166	4.410	0.46420	-0.31357	0.52924	-0.63715	29.4	13111	100
2025-3-27 17:39:1.380	WT901BLE68-01(48591DE3C19B)	-0.091	-0.667	0.229	29.724	26.733	46.814	-56.61	48.10	-57.85	-84.672	-26.166	4.410	0.46420	-0.31357	0.52924	-0.63715	29.4	13111	100
2025-3-27 17:39:1.409	WT901BLE68-01(48591DE3C19B)	-0.091	-0.631	0.226	21.973	28.137	29.602	-56.72	48.30	-58.26	-84.672	-26.166	4.410	0.79538	-0.20224	0.52643	-0.22183	29.4	13111	100
2025-3-27 17:39:1.409	WT901BLE68-01(48591DE3C19B)	-0.098	-0.631	0.226	21.973	28.137	29.602	-56.82	48.49	-58.67	-84.672	-26.166	4.410	0.79538	-0.20224	0.52643	-0.22183	29.4	13111	100
2025-3-27 17:39:1.409	WT901BLE68-01(48591DE3C19B)	-0.098	-0.629	0.221	13.672	32.227	9.094	-57.16	48.53	-59.29	-84.672	-26.166	4.410	0.79538	-0.20224	0.52643	-0.22183	29.4	13111	100
2025-3-27 17:39:1.409	WT901BLE68-01(48591DE3C19B)	-0.108	-0.629	0.221	13.672	32.227	9.094	-57.51	48.57	-59.91	-84.672	-26.166	4.410	0.79538	-0.20224	0.52643	-0.22183	29.4	13111	100
2025-3-27 17:39:1.445	WT901BLE68-01(48591DE3C19B)	-0.108	-0.690	0.252	7.751	37.415	-14.648	-58.09	48.44	-60.79	-84.672	-26.166	4.410	0.79538	-0.20224	0.52643	-0.22183	29.4	13111	100
2025-3-27 17:39:1.445	WT901BLE68-01(48591DE3C19B)	-0.109	-0.690	0.252	7.751	37.415	-14.648	-58.67	48.30	-61.66	-84.672	-26.166	4.410	0.79538	-0.20224	0.52643	-0.22183	29.4	13111	100
2025-3-27 17:39:1.445	WT901BLE68-01(48591DE3C19B)	-0.109	-0.793	0.262	7.690	47.119	-41.016	-59.47	47.97	-62.83	-84.672	-26.166	4.410	0.79538	-0.20224	0.52643	-0.22183	29.4	13111	100
2025-3-27 17:39:1.445	WT901BLE68-01(48591DE3C19B)	-0.110	-0.793	0.262	7.690	47.119	-41.016	-60.26	47.64	-64.00	-84.672	-26.166	4.410	0.79538	-0.20224	0.52643	-0.22183	29.4	13111	100
2025-3-27 17:39:1.498	WT901BLE68-01(48591DE3C19B)	-0.110	-0.838	0.222	12.268	62.805	-69.519	-61.27	47.13	-65.54	-84.672	-26.166	4.410	0.79538	-0.20224	0.52643	-0.22183	29.4	13111	100
2025-3-27 17:39:1.498	WT901BLE68-01(48591DE3C19B)	-0.111	-0.838	0.222	12.268	62.805	-69.519	-62.25	46.59	-67.04	-84.672	-26.166	4.410	0.79538	-0.20224	0.52643	-0.22183	29.4	13111	100
2025-3-27 17:39:1.499	WT901BLE68-01(48591DE3C19B)	-0.111	-0.842	0.162	16.113	82.153	-99.121	-63.47	45.87	-68.96	-84.672	-26.166	4.410	0.79538	-0.20224	0.52643	-0.22183	29.4	13111	100
2025-3-27 17:39:1.499	WT901BLE68-01(48591DE3C19B)	-0.145	-0.842	0.162	16.113	82.153	-99.121	-64.64	45.13	-70.81	-84.672	-26.166	4.410	0.79538	-0.20224	0.52643	-0.22183	29.4	13111	100
2025-3-27 17:39:1.529	WT901BLE68-01(48591DE3C19B)	-0.145	-0.864	0.136	17.517	100.037	-129.700	-66.02	44.17	-73.02	-84.672	-26.166	4.410	0.79538	-0.20224	0.52643	-0.22183	29.4	13111	100
2025-3-27 17:39:1.529	WT901BLE68-01(48591DE3C19B)	-0.219	-0.864	0.136	17.517	100.037	-129.700	-67.32	43.17	-75.15	-84.672	-26.166	4.410	0.79538	-0.20224	0.52643	-0.22183	29.4	13111	100
2025-3-27 17:39:1.529	WT901BLE68-01(48591DE3C19B)	-0.219	-0.892	0.150	19.714	108.826	-157.898	-68.69	41.92	-77.44	-84.672	-26.166	4.410	0.79538	-0.20224	0.52643	-0.22183	29.4	13111	100
2025-3-27 17:39:1.529	WT901BLE68-01(48591DE3C19B)	-0.275	-0.892	0.150	19.714	108.826	-157.898	-69.96	40.64	-79.65	-84.672	-26.166	4.410	0.79538	-0.20224	0.52643	-0.22183	29.4	13111	100
2025-3-27 17:39:1.561	WT901BLE68-01(48591DE3C19B)	-0.275	-0.900	0.167	20.935	107.422	-181.763	-71.17	39.11	-81.84	-84.672	-26.166	4.410	0.79538	-0.20224	0.52643	-0.22183	29.4	13111	100
2025-3-27 17:39:1.561	WT901BLE68-01(48591DE3C19B)	-0.282	-0.900	0.167	20.935	107.422	-181.763	-72.27	37.56	-83.94	-84.672	-26.166	4.410	0.79538	-0.20224	0.52643	-0.22183	29.4	13111	100
2025-3-27 17:39:1.561	WT901BLE68-01(48591DE3C19B)	-0.282	-0.937	0.158	19.775	101.013	-201.294	-73.28	35.78	-85.95	-84.672	-26.166	4.410	0.79538	-0.20224	0.52643	-0.22183	29.4	13111	100
2025-3-27 17:39:1.561	WT901BLE68-01(48591DE3C19B)	-0.284	-0.937	0.158	19.775	101.013	-201.294	-74.19	34.00	-87.86	-84.672	-26.166	4.410	0.79538	-0.20224	0.52643	-0.22183	29.4	13111	100
2025-3-27 17:39:1.649	WT901BLE68-01(48591DE3C19B)	-0.284	-1.032	0.137	17.883	95.276	-219.604	-75.01	32.01	-89.68	-84.672	-26.166	4.410	0.79538	-0.20224	0.52643	-0.22183	29.4	13111	100
2025-3-27 17:39:1.649	WT901BLE68-01(48591DE3C19B)	-0.309	-1.032	0.137	17.883	95.276	-219.604	-75.75	30.02	-91.43	-76.636	-24.108	0.000	0.79538	-0.20224	0.52643	-0.22183	29.4	13111	100
2025-3-27 17:39:1.649	WT901BLE68-01(48591DE3C19B)	-0.309	-1.172	0.113	15.198	90.149	-238.098	-76.42	27.83	-93.09	-76.636	-24.108	0.000	0.79538	-0.20224	0.52643	-0.22183	29.4	13111	100
2025-3-27 17:39:1.649	WT901BLE68-01(48591DE3C19B)	-0.348	-1.172	0.113	15.198	90.149	-238.098	-77.00	25.64	-94.69	-76.636	-24.108	0.000	0.79538	-0.20224	0.52643	-0.22183	29.4	13111	100
2025-3-27 17:39:1.650	WT901BLE68-01(48591DE3C19B)	-0.348	-1.348	0.110	12.878	81.726	-256.287	-77.51	23.26	-96.17	-76.636	-24.108	0.000	0.79538	-0.20224	0.52643	-0.22183	29.4	13111	100
2025-3-27 17:39:1.651	WT901BLE68-01(48591DE3C19B)	-0.391	-1.348	0.110	12.878	81.726	-256.287	-77.95	20.88	-97.61	-76.636	-24.108	0.000	0.79538	-0.20224	0.52643	-0.22183	29.4	13111	100
2025-3-27 17:39:1.651	WT901BLE68-01(48591DE3C19B)	-0.391	-1.524	0.137	11.658	70.740	-272.339	-78.31	18.33	-98.92	-76.636	-24.108	0.000	0.79538	-0.20224	0.52643	-0.22183	29.4	13111	100
2025-3-27 17:39:1.651	WT901BLE68-01(48591DE3C19B)	-0.460	-1.524	0.137	11.658	70.740	-272.339	-78.59	15.78	-100.18	-76.636	-24.108	0.000	0.79538	-0.20224	0.52643	-0.22183	29.4	13111	100
2025-3-27 17:39:1.681	WT901BLE68-01(48591DE3C19B)	-0.460	-1.667	0.171	12.878	57.190	-285.095	-78.77	13.10	-101.31	-76.636	-24.108	0.000	0.79538	-0.20224	0.52643	-0.22183	29.4	13111	100
2025-3-27 17:39:1.681	WT901BLE68-01(48591DE3C19B)	-0.547	-1.667	0.171	12.878	57.190	-285.095	-78.90	10.43	-102.41	-76.636	-24.108	0.000	0.79538	-0.20224	0.52643	-0.22183	29.4	13111	100
2025-3-27 17:39:1.681	WT901BLE68-01(48591DE3C19B)	-0.547	-1.733	0.200	15.503	35.828	-291.443	-78.91	7.67	-103.29	-76.636	-24.108	0.000	0.79538	-0.20224	0.52643	-0.22183	29.4	13111	100
2025-3-27 17:39:1.681	WT901BLE68-01(48591DE3C19B)	-0.586	-1.733	0.200	15.503	35.828	-291.443	-78.89	4.93	-104.16	-76.636	-24.108	0.000	0.79538	-0.20224	0.52643	-0.22183	29.4	13111	100
2025-3-27 17:39:1.744	WT901BLE68-01(48591DE3C19B)	-0.554	-1.740	0.208	17.395	8.667	-291.077	-78.78	2.16	-104.76	-76.636	-24.108	0.000	0.79538	-0.20224	0.52643	-0.22183	29.4	13111	100
2025-3-27 17:39:1.745	WT901BLE68-01(48591DE3C19B)	-0.554	-1.695	0.214	17.334	-11.292	-282.715	-78.65	-0.55	-105.26	-76.636	-24.108	0.000	0.79538	-0.20224	0.52643	-0.22183	29.4	13111	100
2025-3-27 17:39:1.745	WT901BLE68-01(48591DE3C19B)	-0.496	-1.695	0.214	17.334	-11.292	-282.715	-78.49	-3.24	-105.66	-76.636	-24.108	0.000	0.79538	-0.20224	0.52643	-0.22183	29.4	13111	100
2025-3-27 17:39:1.745	WT901BLE68-01(48591DE3C19B)	-0.496	-1.617	0.203	16.418	-18.127	-266.296	-78.33	-5.83	-106.01	-76.636	-24.108	0.000	0.79538	-0.20224	0.52643	-0.22183	29.4	13111	100
2025-3-27 17:39:1.769	WT901BLE68-01(48591DE3C19B)	-0.447	-1.617	0.203	16.418	-18.127	-266.296	-78.16	-8.33	-106.32	-76.636	-24.108	0.000	0.79538	-0.20224	0.52643	-0.22183	29.4	13111	100
2025-3-27 17:39:1.769	WT901BLE68-01(48591DE3C19B)	-0.447	-1.520	0.193	15.381	-15.747	-246.216	-77.98	-10.72	-106.63	-76.636	-24.108	0.000	0.79538	-0.20224	0.52643	-0.22183	29.4	13111	100
2025-3-27 17:39:1.769	WT901BLE68-01(48591DE3C19B)	-0.412	-1.520	0.193	15.381	-15.747	-246.216	-77.79	-13.00	-106.94	-76.636	-24.108	0.000	0.79538	-0.20224	0.52643	-0.22183	29.4	13111	100
2025-3-27 17:39:1.769	WT901BLE68-01(48591DE3C19B)	-0.412	-1.438	0.207	14.282	-7.080	-220.947	-77.60	-15.12	-107.28	-76.636	-24.108	0.000	0.39160	-0.45084	0.43936	-0.67099	29.4	13111	100
2025-3-27 17:39:1.799	WT901BLE68-01(48591DE3C19B)	-0.396	-1.438	0.207	14.282	-7.080	-220.947	-77.38	-17.10	-107.63	-76.636	-24.108	0.000	0.39160	-0.45084	0.43936	-0.67099	29.4	13111	100
2025-3-27 17:39:1.799	WT901BLE68-01(48591DE3C19B)	-0.396	-1.387	0.230	15.015	7.080	-193.726	-77.14	-18.92	-108.05	-76.636	-24.108	0.000	0.39160	-0.45084	0.43936	-0.67099	29.4	13111	100
2025-3-27 17:39:1.799	WT901BLE68-01(48591DE3C19B)	-0.413	-1.387	0.230	15.015	7.080	-193.726	-76.86	-20.58	-108.51	-76.636	-24.108	0.000	0.39160	-0.45084	0.43936	-0.67099	29.4	13111	100
2025-3-27 17:39:1.799	WT901BLE68-01(48591DE3C19B)	-0.413	-1.365	0.229	18.188	19.104	-165.710	-76.54	-22.08	-109.02	-76.636	-24.108	0.000	0.39160	-0.45084	0.43936	-0.67099	29.4	13111	100
2025-3-27 17:39:1.859	WT901BLE68-01(48591DE3C19B)	-0.446	-1.365	0.229	18.188	19.104	-165.710	-76.17	-23.42	-109.57	-76.636	-24.108	0.000	0.39160	-0.45084	0.43936	-0.67099	29.4	13111	100
2025-3-27 17:39:1.859	WT901BLE68-01(48591DE3C19B)	-0.446	-1.313	0.195	22.583	23.132	-140.137	-75.78	-24.61	-110.12	-76.636	-24.108	0.000	0.39160	-0.45084	0.43936	-0.67099	29.4	13111	100
2025-3-27 17:39:1.859	WT901BLE68-01(48591DE3C19B)	-0.422	-1.313	0.195	22.583	23.132	-140.137	-75.35	-25.68	-110.67	-76.636	-24.108	0.000	0.39160	-0.45084	0.43936	-0.67099	29.4	13111	100
2025-3-27 17:39:1.860	WT901BLE68-01(48591DE3C19B)	-0.422	-1.223	0.159	28.015	30.762	-116.516	-74.88	-26.60	-111.24	-76.636	-24.108	0.000	0.39160	-0.45084	0.43936	-0.67099	29.4	13111	100
2025-3-27 17:39:1.889	WT901BLE68-01(48591DE3C19B)	-0.427	-1.223	0.159	28.015	30.762	-116.516	-74.37	-27.39	-111.82	-76.636	-24.108	0.000	0.39160	-0.45084	0.43936	-0.67099	29.4	13111	100
2025-3-27 17:39:1.889	WT901BLE68-01(48591DE3C19B)	-0.427	-1.136	0.131	32.837	41.260	-93.506	-73.81	-28.04	-112.44	-76.636	-24.108	0.000	0.39160	-0.45084	0.43936	-0.67099	29.4	13111	100
2025-3-27 17:39:1.889	WT901BLE68-01(48591DE3C19B)	-0.452	-1.136	0.131	32.837	41.260	-93.506	-73.22	-28.56	-113.08	-76.636	-24.108	0.000	0.39160	-0.45084	0.43936	-0.67099	29.4	13111	100
2025-3-27 17:39:1.889	WT901BLE68-01(48591DE3C19B)	-0.452	-1.092	0.122	36.316	49.255	-72.754	-72.60	-28.96	-113.74	-76.636	-24.108	0.000	0.39160	-0.45084	0.43936	-0.67099	29.4	13111	100
2025-3-27 17:39:1.919	WT901BLE68-01(48591DE3C19B)	-0.436	-1.092	0.122	36.316	49.255	-72.754	-71.95	-29.23	-114.42	-76.636	-24.108	0.000	0.39160	-0.45084	0.43936	-0.67099	29.4	13111	100
2025-3-27 17:39:1.919	WT901BLE68-01(48591DE3C19B)	-0.436	-1.011	0.086	39.612	57.312	-53.101	-71.30	-29.39	-115.10	-76.636	-24.108	0.000	0.39160	-0.45084	0.43936	-0.67099	29.4	13111	100
2025-3-27 17:39:1.919	WT901BLE68-01(48591DE3C19B)	-0.388	-1.011	0.086	39.612	57.312	-53.101	-70.61	-29.44	-115.78	-76.636	-24.108	0.000	0.39160	-0.45084	0.43936	-0.67099	29.4	13111	100
2025-3-27 17:39:1.919	WT901BLE68-01(48591DE3C19B)	-0.388	-0.930	0.040	37.842	70.129	-32.776	-69.94	-29.36	-116.50	-76.636	-24.108	0.000	0.39160	-0.45084	0.43936	-0.67099	29.4	13111	100
2025-3-27 17:39:1.980	WT901BLE68-01(48591DE3C19B)	-0.364	-0.930	0.040	37.842	70.129	-32.776	-69.27	-29.16	-117.24	-76.636	-24.108	0.000	0.39160	-0.45084	0.43936	-0.67099	29.4	13111	100
2025-3-27 17:39:1.980	WT901BLE68-01(48591DE3C19B)	-0.364	-0.876	0.008	33.020	82.275	-11.536	-68.62	-28.82	-117.98	-76.636	-24.108	0.000	0.39160	-0.45084	0.43936	-0.67099	29.4	13111	100
2025-3-27 17:39:1.980	WT901BLE68-01(48591DE3C19B)	-0.344	-0.876	0.008	33.020	82.275	-11.536	-68.01	-28.37	-118.73	-76.636	-24.108	0.000	0.39160	-0.45084	0.43936	-0.67099	29.4	13111	100
2025-3-27 17:39:1.980	WT901BLE68-01(48591DE3C19B)	-0.344	-0.849	-0.016	21.423	92.163	4.883	-67.47	-27.81	-119.48	-76.636	-24.108	0.000	0.39160	-0.45084	0.43936	-0.67099	29.4	13111	100
2025-3-27 17:39:2.44	WT901BLE68-01(48591DE3C19B)	-0.329	-0.849	-0.016	21.423	92.163	4.883	-66.99	-27.16	-120.23	-57.428	-45.472	-2.254	0.39160	-0.45084	0.43936	-0.67099	29.4	13111	100
2025-3-27 17:39:2.44	WT901BLE68-01(48591DE3C19B)	-0.329	-1.043	-0.068	0.305	98.877	16.296	-66.64	-26.44	-120.97	-57.428	-45.472	-2.254	0.39160	-0.45084	0.43936	-0.67099	29.4	13111	100
2025-3-27 17:39:2.44	WT901BLE68-01(48591DE3C19B)	-0.460	-1.043	-0.068	0.305	98.877	16.296	-66.42	-25.66	-121.70	-57.428	-45.472	-2.254	0.39160	-0.45084	0.43936	-0.67099	29.4	13111	100
2025-3-27 17:39:2.44	WT901BLE68-01(48591DE3C19B)	-0.460	-1.268	0.098	-5.920	95.459	23.438	-66.26	-24.86	-122.38	-57.428	-45.472	-2.254	0.39160	-0.45084	0.43936	-0.67099	29.4	13111	100
2025-3-27 17:39:2.45	WT901BLE68-01(48591DE3C19B)	-0.647	-1.268	0.098	-5.920	95.459	23.438	-66.16	-24.04	-123.02	-57.428	-45.472	-2.254	0.39160	-0.45084	0.43936	-0.67099	29.4	13111	100
2025-3-27 17:39:2.45	WT901BLE68-01(48591DE3C19B)	-0.647	-0.854	0.342	0.183	71.594	31.799	-66.09	-23.23	-123.52	-57.428	-45.472	-2.254	0.39160	-0.45084	0.43936	-0.67099	29.4	13111	100
2025-3-27 17:39:2.45	WT901BLE68-01(48591DE3C19B)	-0.584	-0.854	0.342	0.183	71.594	31.799	-66.04	-22.42	-123.89	-57.428	-45.472	-2.254	0.39160	-0.45084	0.43936	-0.67099	29.4	13111	100
2025-3-27 17:39:2.45	WT901BLE68-01(48591DE3C19B)	-0.584	-0.296	0.436	-17.822	45.776	60.364	-66.15	-21.52	-124.09	-57.428	-45.472	-2.254	0.39160	-0.45084	0.43936	-0.67099	29.4	13111	100
2025-3-27 17:39:2.99	WT901BLE68-01(48591DE3C19B)	-0.506	-0.296	0.436	-17.822	45.776	60.364	-66.40	-20.53	-124.13	-57.428	-45.472	-2.254	0.39160	-0.45084	0.43936	-0.67099	29.4	13111	100
2025-3-27 17:39:2.100	WT901BLE68-01(48591DE3C19B)	-0.506	-0.178	0.376	-46.631	19.775	109.253	-66.84	-19.36	-123.98	-57.428	-45.472	-2.254	0.39160	-0.45084	0.43936	-0.67099	29.4	13111	100
2025-3-27 17:39:2.100	WT901BLE68-01(48591DE3C19B)	-0.374	-0.178	0.376	-46.631	19.775	109.253	-67.47	-18.01	-123.65	-57.428	-45.472	-2.254	0.39160	-0.45084	0.43936	-0.67099	29.4	13111	100
2025-3-27 17:39:2.100	WT901BLE68-01(48591DE3C19B)	-0.374	-0.431	0.298	-77.026	-28.992	139.099	-68.29	-16.59	-123.07	-57.428	-45.472	-2.254	0.39160	-0.45084	0.43936	-0.67099	29.4	13111	100
2025-3-27 17:39:2.128	WT901BLE68-01(48591DE3C19B)	-0.282	-0.431	0.298	-77.026	-28.992	139.099	-69.31	-15.13	-122.25	-57.428	-45.472	-2.254	0.39160	-0.45084	0.43936	-0.67099	29.4	13111	100
2025-3-27 17:39:2.128	WT901BLE68-01(48591DE3C19B)	-0.282	-0.849	0.268	-89.600	-94.910	174.988	-70.44	-13.61	-121.09	-57.428	-45.472	-2.254	0.39160	-0.45084	0.43936	-0.67099	29.4	13111	100
2025-3-27 17:39:2.128	WT901BLE68-01(48591DE3C19B)	-0.242	-0.849	0.268	-89.600	-94.910	174.988	-71.69	-12.01	-119.58	-57.428	-45.472	-2.254	0.39160	-0.45084	0.43936	-0.67099	29.4	13111	100
2025-3-27 17:39:2.129	WT901BLE68-01(48591DE3C19B)	-0.242	-1.188	0.201	-83.496	-153.137	203.186	-72.90	-10.35	-117.77	-57.428	-45.472	-2.254	0.39160	-0.45084	0.43936	-0.67099	29.4	13111	100
2025-3-27 17:39:2.190	WT901BLE68-01(48591DE3C19B)	-0.104	-1.188	0.201	-83.496	-153.137	203.186	-74.09	-8.64	-115.68	-57.428	-45.472	-2.254	0.39160	-0.45084	0.43936	-0.67099	29.4	13111	100
2025-3-27 17:39:2.190	WT901BLE68-01(48591DE3C19B)	-0.104	-1.371	0.060	-60.425	-163.452	219.177	-75.10	-6.83	-113.54	-57.428	-45.472	-2.254	0.39160	-0.45084	0.43936	-0.67099	29.4	13111	100
2025-3-27 17:39:2.190	WT901BLE68-01(48591DE3C19B)	0.019	-1.371	0.060	-60.425	-163.452	219.177	-75.94	-4.96	-111.37	-57.428	-45.472	-2.254	0.39160	-0.45084	0.43936	-0.67099	29.4	13111	100
2025-3-27 17:39:2.190	WT901BLE68-01(48591DE3C19B)	0.019	-1.354	0.022	-35.522	-131.042	222.839	-76.44	-2.98	-109.51	-57.428	-45.472	-2.254	0.39160	-0.45084	0.43936	-0.67099	29.4	13111	100
2025-3-27 17:39:2.219	WT901BLE68-01(48591DE3C19B)	-0.031	-1.354	0.022	-35.522	-131.042	222.839	-76.88	-1.01	-107.68	-57.428	-45.472	-2.254	0.39160	-0.45084	0.43936	-0.67099	29.4	13111	100
2025-3-27 17:39:2.219	WT901BLE68-01(48591DE3C19B)	-0.031	-1.296	0.095	-25.391	-96.924	217.529	-77.16	0.97	-106.19	-57.428	-45.472	-2.254	0.47357	-0.36908	0.50269	-0.62186	29.4	13111	100
2025-3-27 17:39:2.219	WT901BLE68-01(48591DE3C19B)	-0.219	-1.296	0.095	-25.391	-96.924	217.529	-77.40	2.94	-104.73	-57.428	-45.472	-2.254	0.47357	-0.36908	0.50269	-0.62186	29.4	13111	100
2025-3-27 17:39:2.219	WT901BLE68-01(48591DE3C19B)	-0.219	-1.388	0.296	-24.963	-96.375	210.815	-77.57	4.84	-103.29	-57.428	-45.472	-2.254	0.47357	-0.36908	0.50269	-0.62186	29.4	13111	100
2025-3-27 17:39:2.279	WT901BLE68-01(48591DE3C19B)	-0.302	-1.388	0.296	-24.963	-96.375	210.815	-77.71	6.72	-101.86	-57.428	-45.472	-2.254	0.47357	-0.36908	0.50269	-0.62186	29.4	13111	100
2025-3-27 17:39:2.280	WT901BLE68-01(48591DE3C19B)	-0.302	-1.608	0.362	-22.156	-110.168	208.252	-77.74	8.55	-100.31	-57.428	-45.472	-2.254	0.47357	-0.36908	0.50269	-0.62186	29.4	13111	100
2025-3-27 17:39:2.280	WT901BLE68-01(48591DE3C19B)	-0.267	-1.608	0.362	-22.156	-110.168	208.252	-77.72	10.35	-98.76	-57.428	-45.472	-2.254	0.47357	-0.36908	0.50269	-0.62186	29.4	13111	100
2025-3-27 17:39:2.280	WT901BLE68-01(48591DE3C19B)	-0.267	-1.667	0.371	-9.949	-124.268	212.158	-77.50	12.16	-97.05	-57.428	-45.472	-2.254	0.47357	-0.36908	0.50269	-0.62186	29.4	13111	100
2025-3-27 17:39:2.281	WT901BLE68-01(48591DE3C19B)	-0.251	-1.667	0.371	-9.949	-124.268	212.158	-77.22	13.94	-95.34	-57.428	-45.472	-2.254	0.47357	-0.36908	0.50269	-0.62186	29.4	13111	100
2025-3-27 17:39:2.281	WT901BLE68-01(48591DE3C19B)	-0.251	-1.646	0.350	-3.662	-139.038	214.783	-76.78	15.69	-93.45	-57.428	-45.472	-2.254	0.47357	-0.36908	0.50269	-0.62186	29.4	13111	100
2025-3-27 17:39:2.281	WT901BLE68-01(48591DE3C19B)	-0.284	-1.646	0.350	-3.662	-139.038	214.783	-76.29	17.42	-91.54	-57.428	-45.472	-2.254	0.47357	-0.36908	0.50269	-0.62186	29.4	13111	100
2025-3-27 17:39:2.281	WT901BLE68-01(48591DE3C19B)	-0.284	-1.688	0.301	1.587	-163.086	215.088	-75.60	19.06	-89.36	-57.428	-45.472	-2.254	0.47357	-0.36908	0.50269	-0.62186	29.4	13111	100
2025-3-27 17:39:2.343	WT901BLE68-01(48591DE3C19B)	-0.217	-1.688	0.301	1.587	-163.086	215.088	-74.84	20.67	-87.14	-57.428	-45.472	-2.254	0.47357	-0.36908	0.50269	-0.62186	29.4	13111	100
2025-3-27 17:39:2.344	WT901BLE68-01(48591DE3C19B)	-0.217	-1.748	0.260	9.949	-179.138	214.905	-73.88	22.18	-84.72	-57.428	-45.472	-2.254	0.47357	-0.36908	0.50269	-0.62186	29.4	13111	100
2025-3-27 17:39:2.344	WT901BLE68-01(48591DE3C19B)	-0.150	-1.748	0.260	9.949	-179.138	214.905	-72.84	23.65	-82.25	-57.428	-45.472	-2.254	0.47357	-0.36908	0.50269	-0.62186	29.4	13111	100
2025-3-27 17:39:2.344	WT901BLE68-01(48591DE3C19B)	-0.150	-1.759	0.216	22.705	-166.260	214.294	-71.66	25.09	-79.88	-57.428	-45.472	-2.254	0.47357	-0.36908	0.50269	-0.62186	29.4	13111	100
2025-3-27 17:39:2.370	WT901BLE68-01(48591DE3C19B)	-0.117	-1.759	0.216	22.705	-166.260	214.294	-70.41	26.48	-77.45	-57.428	-45.472	-2.254	0.47357	-0.36908	0.50269	-0.62186	29.4	13111	100
2025-3-27 17:39:2.371	WT901BLE68-01(48591DE3C19B)	-0.117	-1.680	0.204	36.072	-135.132	212.830	-69.10	27.90	-75.30	-57.428	-45.472	-2.254	0.47357	-0.36908	0.50269	-0.62186	29.4	13111	100
2025-3-27 17:39:2.371	WT901BLE68-01(48591DE3C19B)	-0.074	-1.680	0.204	36.072	-135.132	212.830	-67.73	29.27	-73.10	-57.428	-45.472	-2.254	0.47357	-0.36908	0.50269	-0.62186	29.4	13111	100
2025-3-27 17:39:2.371	WT901BLE68-01(48591DE3C19B)	-0.074	-1.587	0.201	45.044	-97.778	208.984	-66.41	30.68	-71.25	-57.428	-45.472	-2.254	0.47357	-0.36908	0.50269	-0.62186	29.4	13111	100
2025-3-27 17:39:2.429	WT901BLE68-01(48591DE3C19B)	-0.018	-1.587	0.201	45.044	-97.778	208.984	-65.02	32.06	-69.35	-57.428	-45.472	-2.254	0.47357	-0.36908	0.50269	-0.62186	29.4	13111	100
2025-3-27 17:39:2.429	WT901BLE68-01(48591DE3C19B)	-0.018	-1.500	0.207	51.636	-59.448	205.200	-63.74	33.51	-67.82	-57.428	-45.472	-2.254	0.47357	-0.36908	0.50269	-0.62186	29.4	13111	100
2025-3-27 17:39:2.429	WT901BLE68-01(48591DE3C19B)	0.006	-1.500	0.207	51.636	-59.448	205.200	-62.39	34.93	-66.23	-85.162	-25.774	6.664	0.47357	-0.36908	0.50269	-0.62186	29.4	13111	100
2025-3-27 17:39:2.429	WT901BLE68-01(48591DE3C19B)	0.006	-1.410	0.213	55.969	-22.217	202.026	-61.18	36.44	-65.00	-85.162	-25.774	6.664	0.47357	-0.36908	0.50269	-0.62186	29.4	13111	100
2025-3-27 17:39:2.458	WT901BLE68-01(48591DE3C19B)	0.011	-1.410	0.213	55.969	-22.217	202.026	-59.91	37.93	-63.72	-85.162	-25.774	6.664	0.47357	-0.36908	0.50269	-0.62186	29.4	13111	100
2025-3-27 17:39:2.458	WT901BLE68-01(48591DE3C19B)	0.011	-1.317	0.199	57.434	9.460	196.106	-58.81	39.49	-62.76	-85.162	-25.774	6.664	0.47357	-0.36908	0.50269	-0.62186	29.4	13111	100
2025-3-27 17:39:2.458	WT901BLE68-01(48591DE3C19B)	0.015	-1.317	0.199	57.434	9.460	196.106	-57.66	41.03	-61.75	-85.162	-25.774	6.664	0.47357	-0.36908	0.50269	-0.62186	29.4	13111	100
2025-3-27 17:39:2.458	WT901BLE68-01(48591DE3C19B)	0.015	-1.205	0.166	56.030	36.194	188.293	-56.70	42.62	-61.04	-85.162	-25.774	6.664	0.47357	-0.36908	0.50269	-0.62186	29.4	13111	100
2025-3-27 17:39:2.488	WT901BLE68-01(48591DE3C19B)	0.021	-1.205	0.166	56.030	36.194	188.293	-55.70	44.19	-60.28	-85.162	-25.774	6.664	0.47357	-0.36908	0.50269	-0.62186	29.4	13111	100
2025-3-27 17:39:2.488	WT901BLE68-01(48591DE3C19B)	0.021	-1.070	0.157	51.147	60.547	178.772	-54.94	45.80	-59.83	-85.162	-25.774	6.664	0.47357	-0.36908	0.50269	-0.62186	29.4	13111	100
2025-3-27 17:39:2.488	WT901BLE68-01(48591DE3C19B)	-0.015	-1.070	0.157	51.147	60.547	178.772	-54.15	47.40	-59.34	-85.162	-25.774	6.664	0.47357	-0.36908	0.50269	-0.62186	29.4	13111	100
2025-3-27 17:39:2.488	WT901BLE68-01(48591DE3C19B)	-0.015	-0.951	0.161	42.358	76.965	167.847	-53.63	48.99	-59.10	-85.162	-25.774	6.664	0.47357	-0.36908	0.50269	-0.62186	29.4	13111	100
2025-3-27 17:39:2.579	WT901BLE68-01(48591DE3C19B)	-0.071	-0.951	0.161	42.358	76.965	167.847	-53.08	50.57	-58.84	-85.162	-25.774	6.664	0.47357	-0.36908	0.50269	-0.62186	29.4	13111	100
2025-3-27 17:39:2.579	WT901BLE68-01(48591DE3C19B)	-0.071	-0.857	0.179	30.823	80.750	155.762	-52.75	52.07	-58.72	-85.162	-25.774	6.664	0.47357	-0.36908	0.50269	-0.62186	29.4	13111	100
2025-3-27 17:39:2.579	WT901BLE68-01(48591DE3C19B)	-0.096	-0.857	0.179	30.823	80.750	155.762	-52.40	53.56	-58.57	-85.162	-25.774	6.664	0.47357	-0.36908	0.50269	-0.62186	29.4	13111	100
2025-3-27 17:39:2.579	WT901BLE68-01(48591DE3C19B)	-0.096	-0.803	0.195	18.005	75.012	138.672	-52.25	54.87	-58.52	-85.162	-25.774	6.664	0.47357	-0.36908	0.50269	-0.62186	29.4	13111	100
2025-3-27 17:39:2.580	WT901BLE68-01(48591DE3C19B)	-0.109	-0.803	0.195	18.005	75.012	138.672	-52.08	56.17	-58.46	-85.162	-25.774	6.664	0.47357	-0.36908	0.50269	-0.62186	29.4	13111	100
2025-3-27 17:39:2.580	WT901BLE68-01(48591DE3C19B)	-0.109	-0.750	0.208	8.606	62.256	118.896	-52.02	57.24	-58.43	-85.162	-25.774	6.664	0.47357	-0.36908	0.50269	-0.62186	29.4	13111	100
2025-3-27 17:39:2.580	WT901BLE68-01(48591DE3C19B)	-0.116	-0.750	0.208	8.606	62.256	118.896	-51.95	58.30	-58.39	-85.162	-25.774	6.664	0.47357	-0.36908	0.50269	-0.62186	29.4	13111	100
2025-3-27 17:39:2.580	WT901BLE68-01(48591DE3C19B)	-0.116	-0.694	0.215	1.404	45.654	94.910	-51.99	59.07	-58.39	-85.162	-25.774	6.664	0.78732	-0.11490	0.57474	-0.19092	29.4	13111	100
2025-3-27 17:39:2.608	WT901BLE68-01(48591DE3C19B)	-0.105	-0.694	0.215	1.404	45.654	94.910	-52.01	59.84	-58.39	-85.162	-25.774	6.664	0.78732	-0.11490	0.57474	-0.19092	29.4	13111	100
2025-3-27 17:39:2.608	WT901BLE68-01(48591DE3C19B)	-0.105	-0.640	0.211	-4.578	25.940	67.444	-52.11	60.27	-58.41	-85.162	-25.774	6.664	0.78732	-0.11490	0.57474	-0.19092	29.4	13111	100
2025-3-27 17:39:2.608	WT901BLE68-01(48591DE3C19B)	-0.063	-0.640	0.211	-4.578	25.940	67.444	-52.22	60.69	-58.44	-85.162	-25.774	6.664	0.78732	-0.11490	0.57474	-0.19092	29.4	13111	100
2025-3-27 17:39:2.608	WT901BLE68-01(48591DE3C19B)	-0.033	-0.609	0.195	-10.498	13.062	37.415	-52.52	60.79	-58.63	-85.162	-25.774	6.664	0.78732	-0.11490	0.57474	-0.19092	29.4	13111	100
2025-3-27 17:39:2.669	WT901BLE68-01(48591DE3C19B)	-0.033	-0.607	0.218	-13.733	8.423	4.761	-52.98	60.75	-58.99	-85.162	-25.774	6.664	0.78732	-0.11490	0.57474	-0.19092	29.4	13111	100
2025-3-27 17:39:2.669	WT901BLE68-01(48591DE3C19B)	-0.029	-0.607	0.218	-13.733	8.423	4.761	-53.59	60.57	-59.50	-85.162	-25.774	6.664	0.78732	-0.11490	0.57474	-0.19092	29.4	13111	100
2025-3-27 17:39:2.669	WT901BLE68-01(48591DE3C19B)	-0.029	-0.605	0.274	-14.038	4.700	-28.625	-54.32	60.24	-60.17	-85.162	-25.774	6.664	0.78732	-0.11490	0.57474	-0.19092	29.4	13111	100
2025-3-27 17:39:2.669	WT901BLE68-01(48591DE3C19B)	-0.058	-0.605	0.274	-14.038	4.700	-28.625	-55.18	59.75	-60.98	-85.162	-25.774	6.664	0.78732	-0.11490	0.57474	-0.19092	29.4	13111	100
2025-3-27 17:39:2.759	WT901BLE68-01(48591DE3C19B)	-0.058	-0.605	0.297	-15.015	1.709	-60.974	-56.13	59.12	-61.91	-85.162	-25.774	6.664	0.78732	-0.11490	0.57474	-0.19092	29.4	13111	100
2025-3-27 17:39:2.759	WT901BLE68-01(48591DE3C19B)	-0.091	-0.605	0.297	-15.015	1.709	-60.974	-57.16	58.34	-62.94	-85.162	-25.774	6.664	0.78732	-0.11490	0.57474	-0.19092	29.4	13111	100
2025-3-27 17:39:2.759	WT901BLE68-01(48591DE3C19B)	-0.091	-0.628	0.306	-14.038	2.808	-90.698	-58.26	57.44	-64.07	-85.162	-25.774	6.664	0.78732	-0.11490	0.57474	-0.19092	29.4	13111	100
2025-3-27 17:39:2.759	WT901BLE68-01(48591DE3C19B)	-0.115	-0.628	0.306	-14.038	2.808	-90.698	-59.40	56.40	-65.28	-85.162	-25.774	6.664	0.78732	-0.11490	0.57474	-0.19092	29.4	13111	100
2025-3-27 17:39:2.760	WT901BLE68-01(48591DE3C19B)	-0.115	-0.625	0.292	-11.597	7.568	-116.821	-60.57	55.25	-66.56	-85.162	-25.774	6.664	0.78732	-0.11490	0.57474	-0.19092	29.4	13111	100
2025-3-27 17:39:2.760	WT901BLE68-01(48591DE3C19B)	-0.115	-0.625	0.292	-11.597	7.568	-116.821	-61.76	54.00	-67.90	-85.162	-25.774	6.664	0.78732	-0.11490	0.57474	-0.19092	29.4	13111	100
2025-3-27 17:39:2.760	WT901BLE68-01(48591DE3C19B)	-0.115	-0.633	0.252	-12.512	15.442	-140.625	-62.97	52.65	-69.29	-85.162	-25.774	6.664	0.78732	-0.11490	0.57474	-0.19092	29.4	13111	100
2025-3-27 17:39:2.760	WT901BLE68-01(48591DE3C19B)	-0.122	-0.633	0.252	-12.512	15.442	-140.625	-64.21	51.20	-70.73	-85.162	-25.774	6.664	0.78732	-0.11490	0.57474	-0.19092	29.4	13111	100
2025-3-27 17:39:2.818	WT901BLE68-01(48591DE3C19B)	-0.122	-0.707	0.208	-15.137	25.208	-164.856	-65.46	49.66	-72.22	-85.162	-25.774	6.664	0.78732	-0.11490	0.57474	-0.19092	29.4	13111	100
2025-3-27 17:39:2.819	WT901BLE68-01(48591DE3C19B)	-0.149	-0.707	0.208	-15.137	25.208	-164.856	-66.74	48.02	-73.75	-85.162	-25.774	6.664	0.78732	-0.11490	0.57474	-0.19092	29.4	13111	100
2025-3-27 17:39:2.819	WT901BLE68-01(48591DE3C19B)	-0.149	-0.848	0.178	-18.799	31.738	-190.125	-68.00	46.26	-75.27	-85.162	-25.774	6.664	0.78732	-0.11490	0.57474	-0.19092	29.4	13111	100
2025-3-27 17:39:2.819	WT901BLE68-01(48591DE3C19B)	-0.198	-0.848	0.178	-18.799	31.738	-190.125	-69.25	44.39	-76.81	-85.162	-25.774	6.664	0.78732	-0.11490	0.57474	-0.19092	29.4	13111	100
2025-3-27 17:39:2.819	WT901BLE68-01(48591DE3C19B)	-0.198	-1.018	0.189	-19.958	35.522	-213.257	-70.46	42.41	-78.30	-79.380	-15.484	2.842	0.78732	-0.11490	0.57474	-0.19092	29.4	13111	100
2025-3-27 17:39:2.819	WT901BLE68-01(48591DE3C19B)	-0.253	-1.018	0.189	-19.958	35.522	-213.257	-71.60	40.31	-79.77	-79.380	-15.484	2.842	0.78732	-0.11490	0.57474	-0.19092	29.4	13111	100
2025-3-27 17:39:2.820	WT901BLE68-01(48591DE3C19B)	-0.253	-1.165	0.228	-18.738	40.161	-235.962	-72.69	38.11	-81.19	-79.380	-15.484	2.842	0.78732	-0.11490	0.57474	-0.19092	29.4	13111	100
2025-3-27 17:39:2.820	WT901BLE68-01(48591DE3C19B)	-0.309	-1.165	0.228	-18.738	40.161	-235.962	-73.71	35.81	-82.60	-79.380	-15.484	2.842	0.78732	-0.11490	0.57474	-0.19092	29.4	13111	100
2025-3-27 17:39:2.848	WT901BLE68-01(48591DE3C19B)	-0.309	-1.279	0.264	-16.174	47.119	-256.104	-74.65	33.41	-83.98	-79.380	-15.484	2.842	0.78732	-0.11490	0.57474	-0.19092	29.4	13111	100
2025-3-27 17:39:2.848	WT901BLE68-01(48591DE3C19B)	-0.362	-1.279	0.264	-16.174	47.119	-256.104	-75.53	30.93	-85.34	-79.380	-15.484	2.842	0.78732	-0.11490	0.57474	-0.19092	29.4	13111	100
2025-3-27 17:39:2.848	WT901BLE68-01(48591DE3C19B)	-0.362	-1.395	0.271	-14.709	56.030	-275.330	-76.34	28.37	-86.69	-79.380	-15.484	2.842	0.78732	-0.11490	0.57474	-0.19092	29.4	13111	100
2025-3-27 17:39:2.849	WT901BLE68-01(48591DE3C19B)	-0.407	-1.395	0.271	-14.709	56.030	-275.330	-77.09	25.72	-88.04	-79.380	-15.484	2.842	0.78732	-0.11490	0.57474	-0.19092	29.4	13111	100
2025-3-27 17:39:2.943	WT901BLE68-01(48591DE3C19B)	-0.407	-1.572	0.261	-14.587	64.026	-293.213	-77.78	23.01	-89.38	-79.380	-15.484	2.842	0.78732	-0.11490	0.57474	-0.19092	29.4	13111	100
2025-3-27 17:39:2.943	WT901BLE68-01(48591DE3C19B)	-0.470	-1.572	0.261	-14.587	64.026	-293.213	-78.41	20.21	-90.72	-79.380	-15.484	2.842	0.78732	-0.11490	0.57474	-0.19092	29.4	13111	100
2025-3-27 17:39:2.943	WT901BLE68-01(48591DE3C19B)	-0.470	-1.834	0.255	-10.315	66.040	-306.824	-78.95	17.36	-92.02	-79.380	-15.484	2.842	0.78732	-0.11490	0.57474	-0.19092	29.4	13111	100
2025-3-27 17:39:2.944	WT901BLE68-01(48591DE3C19B)	-0.526	-1.834	0.255	-10.315	66.040	-306.824	-79.39	14.46	-93.29	-79.380	-15.484	2.842	0.78732	-0.11490	0.57474	-0.19092	29.4	13111	100
2025-3-27 17:39:2.944	WT901BLE68-01(48591DE3C19B)	-0.526	-2.029	0.244	0.427	64.148	-312.988	-79.72	11.54	-94.52	-79.380	-15.484	2.842	0.78732	-0.11490	0.57474	-0.19092	29.4	13111	100
2025-3-27 17:39:2.944	WT901BLE68-01(48591DE3C19B)	-0.543	-2.029	0.244	0.427	64.148	-312.988	-79.92	8.59	-95.70	-79.380	-15.484	2.842	0.78732	-0.11490	0.57474	-0.19092	29.4	13111	100
2025-3-27 17:39:2.944	WT901BLE68-01(48591DE3C19B)	-0.543	-2.102	0.173	14.099	71.350	-310.913	-80.00	5.67	-96.90	-79.380	-15.484	2.842	0.78732	-0.11490	0.57474	-0.19092	29.4	13111	100
2025-3-27 17:39:2.944	WT901BLE68-01(48591DE3C19B)	-0.540	-2.102	0.173	14.099	71.350	-310.913	-79.96	2.80	-98.12	-79.380	-15.484	2.842	0.78732	-0.11490	0.57474	-0.19092	29.4	13111	100
2025-3-27 17:39:2.971	WT901BLE68-01(48591DE3C19B)	-0.540	-2.020	0.076	26.978	91.309	-294.250	-79.80	0.04	-99.42	-79.380	-15.484	2.842	0.78732	-0.11490	0.57474	-0.19092	29.4	13111	100
2025-3-27 17:39:2.971	WT901BLE68-01(48591DE3C19B)	-0.535	-2.020	0.076	26.978	91.309	-294.250	-79.52	-2.59	-100.80	-79.380	-15.484	2.842	0.78732	-0.11490	0.57474	-0.19092	29.4	13111	100
2025-3-27 17:39:2.971	WT901BLE68-01(48591DE3C19B)	-0.535	-1.824	0.007	37.903	118.774	-269.287	-79.12	-5.06	-102.30	-79.380	-15.484	2.842	0.78732	-0.11490	0.57474	-0.19092	29.4	13111	100
2025-3-27 17:39:2.971	WT901BLE68-01(48591DE3C19B)	-0.476	-1.824	0.007	37.903	118.774	-269.287	-78.60	-7.35	-103.93	-79.380	-15.484	2.842	0.78732	-0.11490	0.57474	-0.19092	29.4	13111	100
2025-3-27 17:39:3.29	WT901BLE68-01(48591DE3C19B)	-0.476	-1.564	0.009	40.283	150.696	-237.549	-77.99	-9.42	-105.71	-79.380	-15.484	2.842	0.78732	-0.11490	0.57474	-0.19092	29.4	13111	100
2025-3-27 17:39:3.29	WT901BLE68-01(48591DE3C19B)	-0.423	-1.564	0.009	40.283	150.696	-237.549	-77.28	-11.28	-107.63	-79.380	-15.484	2.842	0.40070	-0.42834	0.45364	-0.67084	29.4	13111	100
2025-3-27 17:39:3.29	WT901BLE68-01(48591DE3C19B)	-0.423	-1.398	0.075	36.011	173.157	-198.792	-76.53	-12.88	-109.64	-79.380	-15.484	2.842	0.40070	-0.42834	0.45364	-0.67084	29.4	13111	100
2025-3-27 17:39:3.29	WT901BLE68-01(48591DE3C19B)	-0.378	-1.398	0.075	36.011	173.157	-198.792	-75.73	-14.23	-111.75	-79.380	-15.484	2.842	0.40070	-0.42834	0.45364	-0.67084	29.4	13111	100
2025-3-27 17:39:3.89	WT901BLE68-01(48591DE3C19B)	-0.378	-1.361	0.140	36.011	183.044	-164.978	-74.88	-15.37	-113.87	-79.380	-15.484	2.842	0.40070	-0.42834	0.45364	-0.67084	29.4	13111	100
2025-3-27 17:39:3.89	WT901BLE68-01(48591DE3C19B)	-0.357	-1.361	0.140	36.011	183.044	-164.978	-74.00	-16.30	-116.02	-79.380	-15.484	2.842	0.40070	-0.42834	0.45364	-0.67084	29.4	13111	100
2025-3-27 17:39:3.90	WT901BLE68-01(48591DE3C19B)	-0.357	-1.308	0.142	41.138	188.477	-134.338	-73.06	-17.03	-118.16	-79.380	-15.484	2.842	0.40070	-0.42834	0.45364	-0.67084	29.4	13111	100
2025-3-27 17:39:3.90	WT901BLE68-01(48591DE3C19B)	-0.382	-1.308	0.142	41.138	188.477	-134.338	-72.08	-17.58	-120.30	-79.380	-15.484	2.842	0.40070	-0.42834	0.45364	-0.67084	29.4	13111	100
2025-3-27 17:39:3.91	WT901BLE68-01(48591DE3C19B)	-0.382	-1.254	0.093	46.326	190.613	-108.643	-71.07	-17.96	-122.41	-79.380	-15.484	2.842	0.40070	-0.42834	0.45364	-0.67084	29.4	13111	100
2025-3-27 17:39:3.91	WT901BLE68-01(48591DE3C19B)	-0.466	-1.254	0.093	46.326	190.613	-108.643	-70.04	-18.18	-124.49	-79.380	-15.484	2.842	0.40070	-0.42834	0.45364	-0.67084	29.4	13111	100
2025-3-27 17:39:3.91	WT901BLE68-01(48591DE3C19B)	-0.466	-1.230	0.039	50.781	180.786	-86.548	-69.03	-18.18	-126.38	-79.380	-15.484	2.842	0.40070	-0.42834	0.45364	-0.67084	29.4	13111	100
2025-3-27 17:39:3.91	WT901BLE68-01(48591DE3C19B)	-0.619	-1.230	0.039	50.781	180.786	-86.548	-68.02	-18.16	-128.26	-79.380	-15.484	2.842	0.40070	-0.42834	0.45364	-0.67084	29.4	13111	100
2025-3-27 17:39:3.181	WT901BLE68-01(48591DE3C19B)	-0.619	-1.208	-0.073	55.847	156.372	-75.439	-67.07	-18.09	-129.85	-79.380	-15.484	2.842	0.40070	-0.42834	0.45364	-0.67084	29.4	13111	100
2025-3-27 17:39:3.181	WT901BLE68-01(48591DE3C19B)	-0.635	-1.208	-0.073	55.847	156.372	-75.439	-66.13	-18.00	-131.42	-79.380	-15.484	2.842	0.40070	-0.42834	0.45364	-0.67084	29.4	13111	100
2025-3-27 17:39:3.181	WT901BLE68-01(48591DE3C19B)	-0.635	-1.105	-0.209	66.345	126.526	-73.364	-65.20	-17.98	-132.68	-79.380	-15.484	2.842	0.40070	-0.42834	0.45364	-0.67084	29.4	13111	100
2025-3-27 17:39:3.181	WT901BLE68-01(48591DE3C19B)	-0.601	-1.105	-0.209	66.345	126.526	-73.364	-64.29	-17.95	-133.93	-79.380	-15.484	2.842	0.40070	-0.42834	0.45364	-0.67084	29.4	13111	100
2025-3-27 17:39:3.182	WT901BLE68-01(48591DE3C19B)	-0.601	-0.925	-0.294	74.768	94.971	-72.754	-63.40	-18.03	-134.86	-79.380	-15.484	2.842	0.40070	-0.42834	0.45364	-0.67084	29.4	13111	100
2025-3-27 17:39:3.182	WT901BLE68-01(48591DE3C19B)	-0.586	-0.925	-0.294	74.768	94.971	-72.754	-62.52	-18.10	-135.77	-79.380	-15.484	2.842	0.40070	-0.42834	0.45364	-0.67084	29.4	13111	100
2025-3-27 17:39:3.182	WT901BLE68-01(48591DE3C19B)	-0.586	-0.794	-0.307	71.350	61.401	-73.181	-61.79	-18.33	-136.36	-79.380	-15.484	2.842	0.40070	-0.42834	0.45364	-0.67084	29.4	13111	100
2025-3-27 17:39:3.182	WT901BLE68-01(48591DE3C19B)	-0.585	-0.794	-0.307	71.350	61.401	-73.181	-61.07	-18.54	-136.93	-79.380	-15.484	2.842	0.40070	-0.42834	0.45364	-0.67084	29.4	13111	100
2025-3-27 17:39:3.300	WT901BLE68-01(48591DE3C19B)	-0.585	-0.790	-0.220	60.486	24.902	-71.228	-60.58	-18.91	-137.14	-79.380	-15.484	2.842	0.40070	-0.42834	0.45364	-0.67084	29.4	13111	100
2025-3-27 17:39:3.300	WT901BLE68-01(48591DE3C19B)	-0.599	-0.790	-0.220	60.486	24.902	-71.228	-60.10	-19.29	-137.33	-79.380	-15.484	2.842	0.40070	-0.42834	0.45364	-0.67084	29.4	13111	100
2025-3-27 17:39:3.300	WT901BLE68-01(48591DE3C19B)	-0.599	-0.883	-0.065	50.415	-3.052	-64.819	-59.82	-19.74	-137.24	-48.020	-45.178	0.000	0.40070	-0.42834	0.45364	-0.67084	29.4	13111	100
2025-3-27 17:39:3.300	WT901BLE68-01(48591DE3C19B)	-0.597	-0.883	-0.065	50.415	-3.052	-64.819	-59.54	-20.19	-137.14	-48.020	-45.178	0.000	0.40070	-0.42834	0.45364	-0.67084	29.4	13111	100
2025-3-27 17:39:3.301	WT901BLE68-01(48591DE3C19B)	-0.597	-1.032	0.055	40.161	-22.888	-53.284	-59.44	-20.63	-136.81	-48.020	-45.178	0.000	0.40070	-0.42834	0.45364	-0.67084	29.4	13111	100
2025-3-27 17:39:3.301	WT901BLE68-01(48591DE3C19B)	-0.543	-1.032	0.055	40.161	-22.888	-53.284	-59.34	-21.07	-136.48	-48.020	-45.178	0.000	0.40070	-0.42834	0.45364	-0.67084	29.4	13111	100
2025-3-27 17:39:3.301	WT901BLE68-01(48591DE3C19B)	-0.543	-1.156	0.123	29.297	-29.846	-38.879	-59.40	-21.40	-136.01	-48.020	-45.178	0.000	0.40070	-0.42834	0.45364	-0.67084	29.4	13111	100
2025-3-27 17:39:3.301	WT901BLE68-01(48591DE3C19B)	-0.405	-1.156	0.123	29.297	-29.846	-38.879	-59.45	-21.73	-135.56	-48.020	-45.178	0.000	0.40070	-0.42834	0.45364	-0.67084	29.4	13111	100
2025-3-27 17:39:3.301	WT901BLE68-01(48591DE3C19B)	-0.405	-1.145	0.137	20.630	-19.653	-20.386	-59.57	-21.84	-135.12	-48.020	-45.178	0.000	0.40070	-0.42834	0.45364	-0.67084	29.4	13111	100
2025-3-27 17:39:3.301	WT901BLE68-01(48591DE3C19B)	-0.256	-1.145	0.137	20.630	-19.653	-20.386	-59.69	-21.93	-134.68	-48.020	-45.178	0.000	0.40070	-0.42834	0.45364	-0.67084	29.4	13111	100
2025-3-27 17:39:3.301	WT901BLE68-01(48591DE3C19B)	-0.256	-1.091	0.151	5.432	-4.272	0.671	-59.94	-21.77	-134.29	-48.020	-45.178	0.000	0.40070	-0.42834	0.45364	-0.67084	29.4	13111	100
2025-3-27 17:39:3.301	WT901BLE68-01(48591DE3C19B)	-0.140	-1.091	0.151	5.432	-4.272	0.671	-60.18	-21.62	-133.92	-48.020	-45.178	0.000	0.40070	-0.42834	0.45364	-0.67084	29.4	13111	100
2025-3-27 17:39:3.328	WT901BLE68-01(48591DE3C19B)	-0.140	-1.220	0.135	-19.592	12.878	21.545	-60.63	-21.19	-133.60	-48.020	-45.178	0.000	0.40070	-0.42834	0.45364	-0.67084	29.4	13111	100
2025-3-27 17:39:3.328	WT901BLE68-01(48591DE3C19B)	-0.140	-1.220	0.135	-19.592	12.878	21.545	-61.07	-20.78	-133.30	-48.020	-45.178	0.000	0.40070	-0.42834	0.45364	-0.67084	29.4	13111	100
2025-3-27 17:39:3.328	WT901BLE68-01(48591DE3C19B)	-0.140	-1.444	0.117	-35.767	34.973	38.208	-61.63	-20.11	-133.13	-48.020	-45.178	0.000	0.40070	-0.42834	0.45364	-0.67084	29.4	13111	100
2025-3-27 17:39:3.328	WT901BLE68-01(48591DE3C19B)	-0.317	-1.444	0.117	-35.767	34.973	38.208	-62.17	-19.46	-132.98	-48.020	-45.178	0.000	0.40070	-0.42834	0.45364	-0.67084	29.4	13111	100
2025-3-27 17:39:3.390	WT901BLE68-01(48591DE3C19B)	-0.317	-1.189	0.257	-37.415	41.626	54.993	-62.72	-18.63	-132.82	-48.020	-45.178	0.000	0.40070	-0.42834	0.45364	-0.67084	29.4	13111	100
2025-3-27 17:39:3.390	WT901BLE68-01(48591DE3C19B)	-0.448	-1.189	0.257	-37.415	41.626	54.993	-63.25	-17.80	-132.68	-48.020	-45.178	0.000	0.40070	-0.42834	0.45364	-0.67084	29.4	13111	100
2025-3-27 17:39:3.390	WT901BLE68-01(48591DE3C19B)	-0.448	-0.610	0.375	-52.124	8.484	68.359	-64.03	-17.00	-132.19	-48.020	-45.178	0.000	0.40070	-0.42834	0.45364	-0.67084	29.4	13111	100
2025-3-27 17:39:3.390	WT901BLE68-01(48591DE3C19B)	-0.426	-0.610	0.375	-52.124	8.484	68.359	-64.78	-16.17	-131.75	-48.020	-45.178	0.000	0.40070	-0.42834	0.45364	-0.67084	29.4	13111	100
2025-3-27 17:39:3.418	WT901BLE68-01(48591DE3C19B)	-0.426	-0.312	0.341	-82.397	-32.898	87.280	-65.93	-15.34	-130.86	-48.020	-45.178	0.000	0.27960	-0.32602	0.44391	-0.78635	29.4	13111	100
2025-3-27 17:39:3.419	WT901BLE68-01(48591DE3C19B)	-0.431	-0.312	0.341	-82.397	-32.898	87.280	-67.05	-14.47	-130.03	-48.020	-45.178	0.000	0.27960	-0.32602	0.44391	-0.78635	29.4	13111	100
2025-3-27 17:39:3.419	WT901BLE68-01(48591DE3C19B)	-0.431	-0.381	0.272	-106.384	-84.290	108.276	-68.51	-13.58	-128.67	-48.020	-45.178	0.000	0.27960	-0.32602	0.44391	-0.78635	29.4	13111	100
2025-3-27 17:39:3.419	WT901BLE68-01(48591DE3C19B)	-0.432	-0.381	0.272	-106.384	-84.290	108.276	-69.92	-12.66	-127.36	-48.020	-45.178	0.000	0.27960	-0.32602	0.44391	-0.78635	29.4	13111	100
