time	DeviceName	AccX(g)	AccY(g)	AccZ(g)	AsX(°/s)	AsY(°/s)	AsZ(°/s)	AngleX(°)	AngleY(°)	AngleZ(°)	HX(uT)	HY(uT)	HZ(uT)	Q0()	Q1()	Q2()	Q3()	Temperature(°C)	Version()	Battery level(%)
2025-3-27 17:37:5.764	WT901BLE68-01(48591DE3C19B)	-0.291	-0.917	0.259	1.404	3.357	-7.080	-74.70	16.84	-29.09	-55.860	-19.012	85.456	0.78311	-0.54965	0.27368	-0.09805	28.8	13111	100
2025-3-27 17:37:5.764	WT901BLE68-01(48591DE3C19B)	-0.291	-0.924	0.258	1.465	3.235	-6.897	-74.70	16.78	-29.14	-55.860	-19.012	85.456	0.78311	-0.54965	0.27368	-0.09805	28.8	13111	100
2025-3-27 17:37:5.764	WT901BLE68-01(48591DE3C19B)	-0.287	-0.924	0.258	1.465	3.235	-6.897	-74.70	16.72	-29.19	-55.860	-19.012	85.456	0.78311	-0.54965	0.27368	-0.09805	28.8	13111	100
2025-3-27 17:37:5.764	WT901BLE68-01(48591DE3C19B)	-0.287	-0.924	0.256	1.709	3.418	-6.531	-74.70	16.67	-29.23	-55.860	-19.012	85.456	0.78311	-0.54965	0.27368	-0.09805	28.8	13111	100
2025-3-27 17:37:5.793	WT901BLE68-01(48591DE3C19B)	-0.290	-0.924	0.256	1.709	3.418	-6.531	-74.70	16.61	-29.28	-55.860	-19.012	85.456	0.78311	-0.54965	0.27368	-0.09805	28.8	13111	100
2025-3-27 17:37:5.794	WT901BLE68-01(48591DE3C19B)	-0.290	-0.921	0.257	1.770	3.967	-5.981	-74.69	16.56	-29.33	-55.860	-19.012	85.456	0.78311	-0.54965	0.27368	-0.09805	28.8	13111	100
2025-3-27 17:37:5.794	WT901BLE68-01(48591DE3C19B)	-0.292	-0.921	0.257	1.770	3.967	-5.981	-74.69	16.51	-29.38	-55.860	-19.012	85.456	0.78311	-0.54965	0.27368	-0.09805	28.8	13111	100
2025-3-27 17:37:5.794	WT901BLE68-01(48591DE3C19B)	-0.292	-0.925	0.258	1.282	4.089	-5.493	-74.69	16.47	-29.44	-55.860	-19.012	85.456	0.78311	-0.54965	0.27368	-0.09805	28.8	13111	100
2025-3-27 17:37:5.972	WT901BLE68-01(48591DE3C19B)	-0.294	-0.925	0.258	1.282	4.089	-5.493	-74.69	16.43	-29.49	-55.860	-19.012	85.456	0.78311	-0.54965	0.27368	-0.09805	28.8	13111	100
2025-3-27 17:37:5.973	WT901BLE68-01(48591DE3C19B)	-0.294	-0.931	0.258	1.160	3.906	-4.639	-74.69	16.39	-29.54	-55.860	-19.012	85.456	0.78311	-0.54965	0.27368	-0.09805	28.8	13111	100
2025-3-27 17:37:5.973	WT901BLE68-01(48591DE3C19B)	-0.292	-0.931	0.258	1.160	3.906	-4.639	-74.69	16.36	-29.59	-55.860	-19.012	85.456	0.78311	-0.54965	0.27368	-0.09805	28.8	13111	100
2025-3-27 17:37:5.973	WT901BLE68-01(48591DE3C19B)	-0.292	-0.931	0.253	1.160	3.601	-3.723	-74.69	16.33	-29.63	-55.860	-19.012	85.456	0.78311	-0.54965	0.27368	-0.09805	28.8	13111	100
2025-3-27 17:37:5.974	WT901BLE68-01(48591DE3C19B)	-0.286	-0.931	0.253	1.160	3.601	-3.723	-74.69	16.31	-29.67	-55.860	-19.012	85.456	0.78268	-0.55157	0.26276	-0.11829	28.8	13111	100
2025-3-27 17:37:5.974	WT901BLE68-01(48591DE3C19B)	-0.286	-0.922	0.250	1.099	3.601	-2.930	-74.69	16.29	-29.71	-55.860	-19.012	85.456	0.78268	-0.55157	0.26276	-0.11829	28.8	13111	100
2025-3-27 17:37:5.974	WT901BLE68-01(48591DE3C19B)	-0.285	-0.922	0.250	1.099	3.601	-2.930	-74.69	16.27	-29.75	-55.860	-19.012	85.456	0.78268	-0.55157	0.26276	-0.11829	28.8	13111	100
2025-3-27 17:37:5.974	WT901BLE68-01(48591DE3C19B)	-0.285	-0.920	0.250	0.488	4.089	-2.319	-74.70	16.26	-29.79	-55.860	-19.012	85.456	0.78268	-0.55157	0.26276	-0.11829	28.8	13111	100
2025-3-27 17:37:6.3	WT901BLE68-01(48591DE3C19B)	-0.285	-0.920	0.250	0.488	4.089	-2.319	-74.71	16.25	-29.83	-55.860	-19.012	85.456	0.78268	-0.55157	0.26276	-0.11829	28.8	13111	100
2025-3-27 17:37:6.3	WT901BLE68-01(48591DE3C19B)	-0.285	-0.930	0.250	0.061	4.700	-1.770	-74.72	16.25	-29.88	-55.860	-19.012	85.456	0.78268	-0.55157	0.26276	-0.11829	28.8	13111	100
2025-3-27 17:37:6.3	WT901BLE68-01(48591DE3C19B)	-0.277	-0.930	0.250	0.061	4.700	-1.770	-74.73	16.25	-29.92	-55.860	-19.012	85.456	0.78268	-0.55157	0.26276	-0.11829	28.8	13111	100
2025-3-27 17:37:6.3	WT901BLE68-01(48591DE3C19B)	-0.277	-0.928	0.247	0.183	5.798	-1.099	-74.75	16.25	-29.98	-55.860	-19.012	85.456	0.78268	-0.55157	0.26276	-0.11829	28.8	13111	100
2025-3-27 17:37:6.4	WT901BLE68-01(48591DE3C19B)	-0.278	-0.928	0.247	0.183	5.798	-1.099	-74.76	16.26	-30.03	-55.860	-19.012	85.456	0.78268	-0.55157	0.26276	-0.11829	28.8	13111	100
2025-3-27 17:37:6.4	WT901BLE68-01(48591DE3C19B)	-0.278	-0.919	0.243	0.061	6.897	-0.488	-74.78	16.28	-30.10	-55.860	-19.012	85.456	0.78268	-0.55157	0.26276	-0.11829	28.8	13111	100
2025-3-27 17:37:6.4	WT901BLE68-01(48591DE3C19B)	-0.277	-0.919	0.243	0.061	6.897	-0.488	-74.80	16.29	-30.16	-55.860	-19.012	85.456	0.78268	-0.55157	0.26276	-0.11829	28.8	13111	100
2025-3-27 17:37:6.4	WT901BLE68-01(48591DE3C19B)	-0.277	-0.919	0.243	-0.549	7.385	-0.244	-74.83	16.31	-30.23	-55.860	-19.012	85.456	0.78268	-0.55157	0.26276	-0.11829	28.8	13111	100
2025-3-27 17:37:6.32	WT901BLE68-01(48591DE3C19B)	-0.279	-0.919	0.243	-0.549	7.385	-0.244	-74.86	16.33	-30.30	-55.860	-19.012	85.456	0.78268	-0.55157	0.26276	-0.11829	28.8	13111	100
2025-3-27 17:37:6.32	WT901BLE68-01(48591DE3C19B)	-0.279	-0.914	0.242	-0.793	7.813	-0.122	-74.88	16.35	-30.37	-55.860	-19.012	85.456	0.78268	-0.55157	0.26276	-0.11829	28.8	13111	100
2025-3-27 17:37:6.32	WT901BLE68-01(48591DE3C19B)	-0.283	-0.914	0.242	-0.793	7.813	-0.122	-74.92	16.36	-30.44	-55.860	-19.012	85.456	0.78268	-0.55157	0.26276	-0.11829	28.8	13111	100
2025-3-27 17:37:6.32	WT901BLE68-01(48591DE3C19B)	-0.283	-0.915	0.242	-1.526	7.202	-0.549	-74.95	16.38	-30.51	-55.860	-19.012	85.456	0.78268	-0.55157	0.26276	-0.11829	28.8	13111	100
2025-3-27 17:37:6.62	WT901BLE68-01(48591DE3C19B)	-0.282	-0.915	0.242	-1.526	7.202	-0.549	-74.99	16.39	-30.58	-55.860	-19.012	85.456	0.78268	-0.55157	0.26276	-0.11829	28.8	13111	100
2025-3-27 17:37:6.62	WT901BLE68-01(48591DE3C19B)	-0.282	-0.913	0.245	-2.136	5.981	-1.282	-75.03	16.40	-30.64	-55.860	-19.012	85.456	0.78268	-0.55157	0.26276	-0.11829	28.8	13111	100
2025-3-27 17:37:6.62	WT901BLE68-01(48591DE3C19B)	-0.282	-0.913	0.245	-2.136	5.981	-1.282	-75.06	16.40	-30.69	-55.860	-19.012	85.456	0.78268	-0.55157	0.26276	-0.11829	28.8	13111	100
2025-3-27 17:37:6.62	WT901BLE68-01(48591DE3C19B)	-0.282	-0.918	0.249	-2.747	5.066	-2.258	-75.11	16.39	-30.74	-55.860	-19.012	85.456	0.78268	-0.55157	0.26276	-0.11829	28.8	13111	100
2025-3-27 17:37:6.92	WT901BLE68-01(48591DE3C19B)	-0.280	-0.918	0.249	-2.747	5.066	-2.258	-75.15	16.39	-30.79	-57.722	-18.816	85.456	0.78268	-0.55157	0.26276	-0.11829	28.8	13111	100
2025-3-27 17:37:6.92	WT901BLE68-01(48591DE3C19B)	-0.280	-0.923	0.252	-3.296	4.456	-3.418	-75.20	16.36	-30.83	-57.722	-18.816	85.456	0.78268	-0.55157	0.26276	-0.11829	28.8	13111	100
2025-3-27 17:37:6.92	WT901BLE68-01(48591DE3C19B)	-0.278	-0.923	0.252	-3.296	4.456	-3.418	-75.25	16.34	-30.88	-57.722	-18.816	85.456	0.78268	-0.55157	0.26276	-0.11829	28.8	13111	100
2025-3-27 17:37:6.92	WT901BLE68-01(48591DE3C19B)	-0.278	-0.922	0.253	-3.113	4.211	-4.150	-75.28	16.31	-30.93	-57.722	-18.816	85.456	0.78268	-0.55157	0.26276	-0.11829	28.8	13111	100
2025-3-27 17:37:6.152	WT901BLE68-01(48591DE3C19B)	-0.279	-0.922	0.253	-3.113	4.211	-4.150	-75.33	16.29	-30.97	-57.722	-18.816	85.456	0.78268	-0.55157	0.26276	-0.11829	28.8	13111	100
2025-3-27 17:37:6.152	WT901BLE68-01(48591DE3C19B)	-0.279	-0.910	0.249	-3.418	4.089	-4.700	-75.38	16.25	-31.01	-57.722	-18.816	85.456	0.78268	-0.55157	0.26276	-0.11829	28.8	13111	100
2025-3-27 17:37:6.152	WT901BLE68-01(48591DE3C19B)	-0.284	-0.910	0.249	-3.418	4.089	-4.700	-75.42	16.22	-31.06	-57.722	-18.816	85.456	0.78268	-0.55157	0.26276	-0.11829	28.8	13111	100
2025-3-27 17:37:6.152	WT901BLE68-01(48591DE3C19B)	-0.284	-0.905	0.249	-4.028	3.174	-5.188	-75.47	16.18	-31.10	-57.722	-18.816	85.456	0.78268	-0.55157	0.26276	-0.11829	28.8	13111	100
2025-3-27 17:37:6.243	WT901BLE68-01(48591DE3C19B)	-0.289	-0.905	0.249	-4.028	3.174	-5.188	-75.52	16.14	-31.14	-57.722	-18.816	85.456	0.78268	-0.55157	0.26276	-0.11829	28.8	13111	100
2025-3-27 17:37:6.243	WT901BLE68-01(48591DE3C19B)	-0.289	-0.908	0.251	-4.517	1.770	-5.554	-75.57	16.09	-31.16	-57.722	-18.816	85.456	0.78268	-0.55157	0.26276	-0.11829	28.8	13111	100
2025-3-27 17:37:6.243	WT901BLE68-01(48591DE3C19B)	-0.290	-0.908	0.251	-4.517	1.770	-5.554	-75.62	16.05	-31.18	-57.722	-18.816	85.456	0.78268	-0.55157	0.26276	-0.11829	28.8	13111	100
2025-3-27 17:37:6.243	WT901BLE68-01(48591DE3C19B)	-0.290	-0.914	0.255	-4.761	0.061	-5.676	-75.66	16.00	-31.18	-57.722	-18.816	85.456	0.78268	-0.55157	0.26276	-0.11829	28.8	13111	100
2025-3-27 17:37:6.245	WT901BLE68-01(48591DE3C19B)	-0.286	-0.914	0.255	-4.761	0.061	-5.676	-75.71	15.94	-31.19	-57.722	-18.816	85.456	0.78268	-0.55157	0.26276	-0.11829	28.8	13111	100
2025-3-27 17:37:6.245	WT901BLE68-01(48591DE3C19B)	-0.286	-0.915	0.259	-4.700	-0.549	-5.676	-75.75	15.89	-31.19	-57.722	-18.816	85.456	0.78268	-0.55157	0.26276	-0.11829	28.8	13111	100
2025-3-27 17:37:6.245	WT901BLE68-01(48591DE3C19B)	-0.285	-0.915	0.259	-4.700	-0.549	-5.676	-75.79	15.84	-31.19	-57.722	-18.816	85.456	0.78268	-0.55157	0.26276	-0.11829	28.8	13111	100
2025-3-27 17:37:6.245	WT901BLE68-01(48591DE3C19B)	-0.285	-0.918	0.259	-4.333	-0.122	-5.554	-75.83	15.79	-31.20	-57.722	-18.816	85.456	0.78268	-0.55157	0.26276	-0.11829	28.8	13111	100
2025-3-27 17:37:6.273	WT901BLE68-01(48591DE3C19B)	-0.286	-0.918	0.259	-4.333	-0.122	-5.554	-75.87	15.74	-31.20	-57.722	-18.816	85.456	0.78268	-0.55157	0.26276	-0.11829	28.8	13111	100
2025-3-27 17:37:6.273	WT901BLE68-01(48591DE3C19B)	-0.286	-0.918	0.259	-3.845	0.732	-5.554	-75.91	15.70	-31.21	-57.722	-18.816	85.456	0.78268	-0.55157	0.26276	-0.11829	28.8	13111	100
2025-3-27 17:37:6.273	WT901BLE68-01(48591DE3C19B)	-0.285	-0.918	0.259	-3.845	0.732	-5.554	-75.94	15.65	-31.22	-57.722	-18.816	85.456	0.78268	-0.55157	0.26276	-0.11829	28.8	13111	100
2025-3-27 17:37:6.273	WT901BLE68-01(48591DE3C19B)	-0.285	-0.917	0.258	-3.113	1.892	-5.432	-75.98	15.61	-31.25	-57.722	-18.816	85.456	0.78268	-0.55157	0.26276	-0.11829	28.8	13111	100
2025-3-27 17:37:6.302	WT901BLE68-01(48591DE3C19B)	-0.290	-0.917	0.258	-3.113	1.892	-5.432	-76.00	15.57	-31.27	-57.722	-18.816	85.456	0.78268	-0.55157	0.26276	-0.11829	28.8	13111	100
2025-3-27 17:37:6.302	WT901BLE68-01(48591DE3C19B)	-0.290	-0.903	0.254	-2.380	2.808	-5.005	-76.03	15.53	-31.30	-57.722	-18.816	85.456	0.77399	-0.55893	0.26715	-0.13058	28.8	13111	100
2025-3-27 17:37:6.302	WT901BLE68-01(48591DE3C19B)	-0.296	-0.903	0.254	-2.380	2.808	-5.005	-76.06	15.50	-31.33	-57.722	-18.816	85.456	0.77399	-0.55893	0.26715	-0.13058	28.8	13111	100
2025-3-27 17:37:6.302	WT901BLE68-01(48591DE3C19B)	-0.296	-0.896	0.251	-2.686	2.686	-4.883	-76.09	15.47	-31.36	-57.722	-18.816	85.456	0.77399	-0.55893	0.26715	-0.13058	28.8	13111	100
2025-3-27 17:37:6.332	WT901BLE68-01(48591DE3C19B)	-0.300	-0.896	0.251	-2.686	2.686	-4.883	-76.11	15.44	-31.39	-57.722	-18.816	85.456	0.77399	-0.55893	0.26715	-0.13058	28.8	13111	100
2025-3-27 17:37:6.332	WT901BLE68-01(48591DE3C19B)	-0.300	-0.891	0.246	-2.808	2.014	-4.883	-76.14	15.40	-31.41	-57.722	-18.816	85.456	0.77399	-0.55893	0.26715	-0.13058	28.8	13111	100
2025-3-27 17:37:6.332	WT901BLE68-01(48591DE3C19B)	-0.303	-0.891	0.246	-2.808	2.014	-4.883	-76.16	15.37	-31.43	-57.722	-18.816	85.456	0.77399	-0.55893	0.26715	-0.13058	28.8	13111	100
2025-3-27 17:37:6.332	WT901BLE68-01(48591DE3C19B)	-0.303	-0.874	0.239	-3.601	0.549	-4.822	-76.20	15.34	-31.44	-57.722	-18.816	85.456	0.77399	-0.55893	0.26715	-0.13058	28.8	13111	100
2025-3-27 17:37:6.362	WT901BLE68-01(48591DE3C19B)	-0.308	-0.874	0.239	-3.601	0.549	-4.822	-76.22	15.30	-31.44	-57.722	-18.816	85.456	0.77399	-0.55893	0.26715	-0.13058	28.8	13111	100
2025-3-27 17:37:6.362	WT901BLE68-01(48591DE3C19B)	-0.317	-0.854	0.227	-5.310	-1.648	-5.188	-76.27	15.26	-31.43	-57.722	-18.816	85.456	0.77399	-0.55893	0.26715	-0.13058	28.8	13111	100
2025-3-27 17:37:6.362	WT901BLE68-01(48591DE3C19B)	-0.317	-0.831	0.212	-7.935	-4.944	-6.287	-76.32	15.22	-31.39	-57.722	-18.816	85.456	0.77399	-0.55893	0.26715	-0.13058	28.8	13111	100
2025-3-27 17:37:6.362	WT901BLE68-01(48591DE3C19B)	-0.323	-0.831	0.212	-7.935	-4.944	-6.287	-76.38	15.16	-31.34	-57.722	-18.816	85.456	0.77399	-0.55893	0.26715	-0.13058	28.8	13111	100
2025-3-27 17:37:6.423	WT901BLE68-01(48591DE3C19B)	-0.323	-0.804	0.208	-12.024	-10.132	-7.996	-76.45	15.09	-31.27	-57.722	-18.816	85.456	0.77399	-0.55893	0.26715	-0.13058	28.8	13111	100
2025-3-27 17:37:6.423	WT901BLE68-01(48591DE3C19B)	-0.340	-0.804	0.208	-12.024	-10.132	-7.996	-76.54	15.01	-31.18	-57.722	-18.816	85.456	0.77399	-0.55893	0.26715	-0.13058	28.8	13111	100
2025-3-27 17:37:6.423	WT901BLE68-01(48591DE3C19B)	-0.340	-0.798	0.216	-17.700	-17.822	-9.949	-76.65	14.91	-31.04	-57.722	-18.816	85.456	0.77399	-0.55893	0.26715	-0.13058	28.8	13111	100
2025-3-27 17:37:6.423	WT901BLE68-01(48591DE3C19B)	-0.366	-0.798	0.216	-17.700	-17.822	-9.949	-76.78	14.80	-30.87	-57.722	-18.816	85.456	0.77399	-0.55893	0.26715	-0.13058	28.8	13111	100
2025-3-27 17:37:6.452	WT901BLE68-01(48591DE3C19B)	-0.366	-0.825	0.228	-22.888	-28.259	-12.390	-76.92	14.67	-30.65	-57.722	-18.816	85.456	0.77399	-0.55893	0.26715	-0.13058	28.8	13111	100
2025-3-27 17:37:6.452	WT901BLE68-01(48591DE3C19B)	-0.394	-0.825	0.228	-22.888	-28.259	-12.390	-77.07	14.51	-30.38	-57.722	-18.816	85.456	0.77399	-0.55893	0.26715	-0.13058	28.8	13111	100
2025-3-27 17:37:6.452	WT901BLE68-01(48591DE3C19B)	-0.394	-0.842	0.245	-25.940	-42.969	-14.282	-77.22	14.34	-30.04	-57.722	-18.816	85.456	0.77399	-0.55893	0.26715	-0.13058	28.8	13111	100
2025-3-27 17:37:6.452	WT901BLE68-01(48591DE3C19B)	-0.412	-0.842	0.245	-25.940	-42.969	-14.282	-77.36	14.14	-29.62	-57.526	-20.972	85.652	0.77399	-0.55893	0.26715	-0.13058	28.8	13111	100
2025-3-27 17:37:6.482	WT901BLE68-01(48591DE3C19B)	-0.412	-0.851	0.261	-27.283	-61.462	-13.794	-77.49	13.94	-29.11	-57.526	-20.972	85.652	0.77399	-0.55893	0.26715	-0.13058	28.8	13111	100
2025-3-27 17:37:6.482	WT901BLE68-01(48591DE3C19B)	-0.406	-0.851	0.261	-27.283	-61.462	-13.794	-77.61	13.72	-28.51	-57.526	-20.972	85.652	0.77399	-0.55893	0.26715	-0.13058	28.8	13111	100
2025-3-27 17:37:6.482	WT901BLE68-01(48591DE3C19B)	-0.406	-0.865	0.265	-26.917	-78.979	-11.108	-77.70	13.49	-27.82	-57.526	-20.972	85.652	0.77399	-0.55893	0.26715	-0.13058	28.8	13111	100
2025-3-27 17:37:6.482	WT901BLE68-01(48591DE3C19B)	-0.397	-0.865	0.265	-26.917	-78.979	-11.108	-77.77	13.27	-27.04	-57.526	-20.972	85.652	0.77399	-0.55893	0.26715	-0.13058	28.8	13111	100
2025-3-27 17:37:6.544	WT901BLE68-01(48591DE3C19B)	-0.397	-0.906	0.252	-24.353	-92.285	-7.263	-77.82	13.05	-26.19	-57.526	-20.972	85.652	0.77399	-0.55893	0.26715	-0.13058	28.8	13111	100
2025-3-27 17:37:6.544	WT901BLE68-01(48591DE3C19B)	-0.370	-0.906	0.252	-24.353	-92.285	-7.263	-77.83	12.84	-25.27	-57.526	-20.972	85.652	0.77399	-0.55893	0.26715	-0.13058	28.8	13111	100
2025-3-27 17:37:6.544	WT901BLE68-01(48591DE3C19B)	-0.370	-0.977	0.226	-20.691	-100.098	-3.540	-77.83	12.65	-24.31	-57.526	-20.972	85.652	0.77399	-0.55893	0.26715	-0.13058	28.8	13111	100
2025-3-27 17:37:6.544	WT901BLE68-01(48591DE3C19B)	-0.329	-0.977	0.226	-20.691	-100.098	-3.540	-77.80	12.46	-23.32	-57.526	-20.972	85.652	0.77399	-0.55893	0.26715	-0.13058	28.8	13111	100
2025-3-27 17:37:6.572	WT901BLE68-01(48591DE3C19B)	-0.329	-1.063	0.207	-15.137	-100.220	0.122	-77.75	12.28	-22.33	-57.526	-20.972	85.652	0.77399	-0.55893	0.26715	-0.13058	28.8	13111	100
2025-3-27 17:37:6.572	WT901BLE68-01(48591DE3C19B)	-0.281	-1.063	0.207	-15.137	-100.220	0.122	-77.67	12.12	-21.34	-57.526	-20.972	85.652	0.77399	-0.55893	0.26715	-0.13058	28.8	13111	100
2025-3-27 17:37:6.572	WT901BLE68-01(48591DE3C19B)	-0.281	-1.121	0.207	-6.897	-90.088	4.028	-77.57	11.99	-20.40	-57.526	-20.972	85.652	0.77399	-0.55893	0.26715	-0.13058	28.8	13111	100
2025-3-27 17:37:6.572	WT901BLE68-01(48591DE3C19B)	-0.250	-1.121	0.207	-6.897	-90.088	4.028	-77.44	11.89	-19.51	-57.526	-20.972	85.652	0.77399	-0.55893	0.26715	-0.13058	28.8	13111	100
2025-3-27 17:37:6.603	WT901BLE68-01(48591DE3C19B)	-0.250	-1.118	0.223	0.977	-69.580	7.629	-77.30	11.81	-18.73	-57.526	-20.972	85.652	0.77399	-0.55893	0.26715	-0.13058	28.8	13111	100
2025-3-27 17:37:6.603	WT901BLE68-01(48591DE3C19B)	-0.231	-1.118	0.223	0.977	-69.580	7.629	-77.14	11.77	-18.05	-57.526	-20.972	85.652	0.77399	-0.55893	0.26715	-0.13058	28.8	13111	100
2025-3-27 17:37:6.603	WT901BLE68-01(48591DE3C19B)	-0.231	-1.086	0.236	6.348	-40.894	9.827	-76.99	11.77	-17.51	-57.526	-20.972	85.652	0.77399	-0.55893	0.26715	-0.13058	28.8	13111	100
2025-3-27 17:37:6.603	WT901BLE68-01(48591DE3C19B)	-0.230	-1.086	0.236	6.348	-40.894	9.827	-76.83	11.80	-17.12	-57.526	-20.972	85.652	0.77399	-0.55893	0.26715	-0.13058	28.8	13111	100
2025-3-27 17:37:6.692	WT901BLE68-01(48591DE3C19B)	-0.230	-1.040	0.241	10.193	-9.460	11.597	-76.70	11.88	-16.88	-57.526	-20.972	85.652	0.77399	-0.55893	0.26715	-0.13058	28.8	13111	100
2025-3-27 17:37:6.692	WT901BLE68-01(48591DE3C19B)	-0.260	-1.040	0.241	10.193	-9.460	11.597	-76.57	12.00	-16.79	-57.526	-20.972	85.652	0.78201	-0.59711	0.17130	-0.04944	28.8	13111	100
2025-3-27 17:37:6.692	WT901BLE68-01(48591DE3C19B)	-0.260	-0.987	0.233	12.024	17.029	13.367	-76.46	12.15	-16.84	-57.526	-20.972	85.652	0.78201	-0.59711	0.17130	-0.04944	28.8	13111	100
2025-3-27 17:37:6.692	WT901BLE68-01(48591DE3C19B)	-0.287	-0.987	0.233	12.024	17.029	13.367	-76.38	12.34	-17.02	-57.526	-20.972	85.652	0.78201	-0.59711	0.17130	-0.04944	28.8	13111	100
2025-3-27 17:37:6.693	WT901BLE68-01(48591DE3C19B)	-0.287	-0.947	0.215	12.512	37.659	14.587	-76.31	12.56	-17.30	-57.526	-20.972	85.652	0.78201	-0.59711	0.17130	-0.04944	28.8	13111	100
2025-3-27 17:37:6.693	WT901BLE68-01(48591DE3C19B)	-0.330	-0.947	0.215	12.512	37.659	14.587	-76.26	12.81	-17.67	-57.526	-20.972	85.652	0.78201	-0.59711	0.17130	-0.04944	28.8	13111	100
2025-3-27 17:37:6.693	WT901BLE68-01(48591DE3C19B)	-0.330	-0.925	0.190	12.390	47.913	15.991	-76.22	13.08	-18.09	-57.526	-20.972	85.652	0.78201	-0.59711	0.17130	-0.04944	28.8	13111	100
2025-3-27 17:37:6.693	WT901BLE68-01(48591DE3C19B)	-0.362	-0.925	0.190	12.390	47.913	15.991	-76.21	13.36	-18.56	-57.526	-20.972	85.652	0.78201	-0.59711	0.17130	-0.04944	28.8	13111	100
2025-3-27 17:37:6.722	WT901BLE68-01(48591DE3C19B)	-0.362	-0.911	0.163	11.719	47.180	17.090	-76.20	13.66	-19.02	-57.526	-20.972	85.652	0.78201	-0.59711	0.17130	-0.04944	28.8	13111	100
2025-3-27 17:37:6.722	WT901BLE68-01(48591DE3C19B)	-0.371	-0.911	0.163	11.719	47.180	17.090	-76.18	13.95	-19.47	-57.526	-20.972	85.652	0.78201	-0.59711	0.17130	-0.04944	28.8	13111	100
2025-3-27 17:37:6.722	WT901BLE68-01(48591DE3C19B)	-0.371	-0.905	0.143	10.620	39.917	18.066	-76.18	14.25	-19.89	-57.526	-20.972	85.652	0.78201	-0.59711	0.17130	-0.04944	28.8	13111	100
2025-3-27 17:37:6.722	WT901BLE68-01(48591DE3C19B)	-0.378	-0.905	0.143	10.620	39.917	18.066	-76.17	14.54	-20.26	-57.526	-20.972	85.652	0.78201	-0.59711	0.17130	-0.04944	28.8	13111	100
2025-3-27 17:37:6.783	WT901BLE68-01(48591DE3C19B)	-0.378	-0.906	0.133	9.033	28.381	19.043	-76.16	14.82	-20.57	-57.526	-20.972	85.652	0.78201	-0.59711	0.17130	-0.04944	28.8	13111	100
2025-3-27 17:37:6.783	WT901BLE68-01(48591DE3C19B)	-0.375	-0.906	0.133	9.033	28.381	19.043	-76.15	15.10	-20.82	-57.526	-20.972	85.652	0.78201	-0.59711	0.17130	-0.04944	28.8	13111	100
2025-3-27 17:37:6.783	WT901BLE68-01(48591DE3C19B)	-0.375	-0.904	0.133	7.141	15.015	19.043	-76.13	15.36	-21.01	-57.526	-20.972	85.652	0.78201	-0.59711	0.17130	-0.04944	28.8	13111	100
2025-3-27 17:37:6.783	WT901BLE68-01(48591DE3C19B)	-0.354	-0.904	0.133	7.141	15.015	19.043	-76.10	15.60	-21.12	-57.526	-20.972	85.652	0.78201	-0.59711	0.17130	-0.04944	28.8	13111	100
2025-3-27 17:37:6.814	WT901BLE68-01(48591DE3C19B)	-0.354	-0.888	0.137	4.944	3.540	18.372	-76.07	15.83	-21.17	-57.526	-20.972	85.652	0.78201	-0.59711	0.17130	-0.04944	28.8	13111	100
2025-3-27 17:37:6.815	WT901BLE68-01(48591DE3C19B)	-0.333	-0.888	0.137	4.944	3.540	18.372	-76.04	16.04	-21.17	-57.526	-20.972	85.652	0.78201	-0.59711	0.17130	-0.04944	28.8	13111	100
2025-3-27 17:37:6.815	WT901BLE68-01(48591DE3C19B)	-0.333	-0.875	0.137	2.319	-3.967	16.968	-76.01	16.23	-21.13	-57.526	-20.972	85.652	0.78201	-0.59711	0.17130	-0.04944	28.8	13111	100
2025-3-27 17:37:6.815	WT901BLE68-01(48591DE3C19B)	-0.320	-0.875	0.137	2.319	-3.967	16.968	-75.99	16.41	-21.06	-57.526	-20.972	85.652	0.78201	-0.59711	0.17130	-0.04944	28.8	13111	100
2025-3-27 17:37:6.902	WT901BLE68-01(48591DE3C19B)	-0.320	-0.866	0.134	-0.427	-8.545	14.465	-75.98	16.55	-20.95	-57.526	-20.972	85.652	0.78201	-0.59711	0.17130	-0.04944	28.8	13111	100
2025-3-27 17:37:6.902	WT901BLE68-01(48591DE3C19B)	-0.317	-0.866	0.134	-0.427	-8.545	14.465	-75.98	16.69	-20.84	-57.526	-20.972	85.652	0.78201	-0.59711	0.17130	-0.04944	28.8	13111	100
2025-3-27 17:37:6.902	WT901BLE68-01(48591DE3C19B)	-0.317	-0.851	0.133	-3.113	-13.306	11.047	-75.99	16.78	-20.69	-49.000	-22.736	84.672	0.78201	-0.59711	0.17130	-0.04944	28.8	13111	100
2025-3-27 17:37:6.902	WT901BLE68-01(48591DE3C19B)	-0.312	-0.851	0.133	-3.113	-13.306	11.047	-75.99	16.88	-20.53	-49.000	-22.736	84.672	0.78201	-0.59711	0.17130	-0.04944	28.8	13111	100
2025-3-27 17:37:6.903	WT901BLE68-01(48591DE3C19B)	-0.312	-0.829	0.133	-6.104	-18.799	6.531	-76.02	16.91	-20.34	-49.000	-22.736	84.672	0.78201	-0.59711	0.17130	-0.04944	28.8	13111	100
2025-3-27 17:37:6.903	WT901BLE68-01(48591DE3C19B)	-0.315	-0.829	0.133	-6.104	-18.799	6.531	-76.05	16.95	-20.15	-49.000	-22.736	84.672	0.78201	-0.59711	0.17130	-0.04944	28.8	13111	100
2025-3-27 17:37:6.903	WT901BLE68-01(48591DE3C19B)	-0.315	-0.805	0.137	-8.667	-25.513	1.465	-76.08	16.92	-19.90	-49.000	-22.736	84.672	0.78201	-0.59711	0.17130	-0.04944	28.8	13111	100
2025-3-27 17:37:6.903	WT901BLE68-01(48591DE3C19B)	-0.316	-0.805	0.137	-8.667	-25.513	1.465	-76.12	16.90	-19.65	-49.000	-22.736	84.672	0.78201	-0.59711	0.17130	-0.04944	28.8	13111	100
2025-3-27 17:37:6.932	WT901BLE68-01(48591DE3C19B)	-0.316	-0.797	0.145	-10.132	-36.438	-3.662	-76.14	16.80	-19.31	-49.000	-22.736	84.672	0.78201	-0.59711	0.17130	-0.04944	28.8	13111	100
2025-3-27 17:37:6.932	WT901BLE68-01(48591DE3C19B)	-0.272	-0.797	0.145	-10.132	-36.438	-3.662	-76.16	16.70	-18.97	-49.000	-22.736	84.672	0.78201	-0.59711	0.17130	-0.04944	28.8	13111	100
2025-3-27 17:37:6.932	WT901BLE68-01(48591DE3C19B)	-0.272	-0.784	0.146	-9.460	-51.208	-9.888	-76.14	16.50	-18.49	-49.000	-22.736	84.672	0.78201	-0.59711	0.17130	-0.04944	28.8	13111	100
2025-3-27 17:37:6.932	WT901BLE68-01(48591DE3C19B)	-0.219	-0.784	0.146	-9.460	-51.208	-9.888	-76.11	16.31	-18.02	-49.000	-22.736	84.672	0.78201	-0.59711	0.17130	-0.04944	28.8	13111	100
2025-3-27 17:37:6.962	WT901BLE68-01(48591DE3C19B)	-0.219	-0.750	0.132	-12.207	-52.368	-12.390	-76.12	16.08	-17.55	-49.000	-22.736	84.672	0.78201	-0.59711	0.17130	-0.04944	28.8	13111	100
2025-3-27 17:37:6.962	WT901BLE68-01(48591DE3C19B)	-0.215	-0.750	0.132	-12.207	-52.368	-12.390	-76.13	15.86	-17.07	-49.000	-22.736	84.672	0.78201	-0.59711	0.17130	-0.04944	28.8	13111	100
2025-3-27 17:37:6.962	WT901BLE68-01(48591DE3C19B)	-0.215	-0.806	0.093	-17.944	-31.067	-23.438	-76.26	15.58	-16.85	-49.000	-22.736	84.672	0.78201	-0.59711	0.17130	-0.04944	28.8	13111	100
2025-3-27 17:37:6.962	WT901BLE68-01(48591DE3C19B)	-0.232	-0.806	0.093	-17.944	-31.067	-23.438	-76.40	15.30	-16.62	-49.000	-22.736	84.672	0.78201	-0.59711	0.17130	-0.04944	28.8	13111	100
2025-3-27 17:37:7.25	WT901BLE68-01(48591DE3C19B)	-0.232	-0.913	0.090	-19.104	-9.155	-39.063	-76.61	14.92	-16.66	-49.000	-22.736	84.672	0.78201	-0.59711	0.17130	-0.04944	28.8	13111	100
2025-3-27 17:37:7.25	WT901BLE68-01(48591DE3C19B)	-0.260	-0.913	0.090	-19.104	-9.155	-39.063	-76.83	14.55	-16.69	-49.000	-22.736	84.672	0.78201	-0.59711	0.17130	-0.04944	28.8	13111	100
2025-3-27 17:37:7.25	WT901BLE68-01(48591DE3C19B)	-0.260	-0.981	0.126	-17.883	8.423	-56.458	-77.09	14.04	-16.94	-49.000	-22.736	84.672	0.78201	-0.59711	0.17130	-0.04944	28.8	13111	100
2025-3-27 17:37:7.25	WT901BLE68-01(48591DE3C19B)	-0.345	-0.981	0.126	-17.883	8.423	-56.458	-77.34	13.52	-17.19	-49.000	-22.736	84.672	0.78201	-0.59711	0.17130	-0.04944	28.8	13111	100
2025-3-27 17:37:7.114	WT901BLE68-01(48591DE3C19B)	-0.345	-1.036	0.194	-16.052	15.503	-73.608	-77.60	12.86	-17.53	-49.000	-22.736	84.672	0.78201	-0.59711	0.17130	-0.04944	28.8	13111	100
2025-3-27 17:37:7.114	WT901BLE68-01(48591DE3C19B)	-0.458	-1.036	0.194	-16.052	15.503	-73.608	-77.85	12.21	-17.88	-49.000	-22.736	84.672	0.78201	-0.59711	0.17130	-0.04944	28.8	13111	100
2025-3-27 17:37:7.114	WT901BLE68-01(48591DE3C19B)	-0.458	-1.068	0.235	-12.146	9.094	-91.187	-78.04	11.38	-18.19	-49.000	-22.736	84.672	0.78201	-0.59711	0.17130	-0.04944	28.8	13111	100
2025-3-27 17:37:7.114	WT901BLE68-01(48591DE3C19B)	-0.487	-1.068	0.235	-12.146	9.094	-91.187	-78.23	10.55	-18.50	-49.000	-22.736	84.672	0.77182	-0.60855	0.17136	-0.06689	28.8	13111	100
2025-3-27 17:37:7.148	WT901BLE68-01(48591DE3C19B)	-0.487	-1.064	0.229	-8.972	-11.292	-104.431	-78.35	9.56	-18.62	-49.000	-22.736	84.672	0.77182	-0.60855	0.17136	-0.06689	28.8	13111	100
2025-3-27 17:37:7.148	WT901BLE68-01(48591DE3C19B)	-0.441	-1.064	0.229	-8.972	-11.292	-104.431	-78.46	8.58	-18.73	-49.000	-22.736	84.672	0.77182	-0.60855	0.17136	-0.06689	28.8	13111	100
2025-3-27 17:37:7.148	WT901BLE68-01(48591DE3C19B)	-0.441	-1.056	0.220	-7.141	-27.954	-110.962	-78.53	7.51	-18.69	-49.000	-22.736	84.672	0.77182	-0.60855	0.17136	-0.06689	28.8	13111	100
2025-3-27 17:37:7.148	WT901BLE68-01(48591DE3C19B)	-0.436	-1.056	0.220	-7.141	-27.954	-110.962	-78.60	6.45	-18.65	-49.000	-22.736	84.672	0.77182	-0.60855	0.17136	-0.06689	28.8	13111	100
2025-3-27 17:37:7.149	WT901BLE68-01(48591DE3C19B)	-0.436	-1.035	0.240	-4.822	-42.297	-110.901	-78.63	5.37	-18.47	-49.000	-22.736	84.672	0.77182	-0.60855	0.17136	-0.06689	28.8	13111	100
2025-3-27 17:37:7.149	WT901BLE68-01(48591DE3C19B)	-0.411	-1.035	0.240	-4.822	-42.297	-110.901	-78.66	4.29	-18.29	-49.000	-22.736	84.672	0.77182	-0.60855	0.17136	-0.06689	28.8	13111	100
2025-3-27 17:37:7.149	WT901BLE68-01(48591DE3C19B)	-0.411	-0.980	0.276	-4.089	-53.101	-105.774	-78.68	3.25	-17.99	-49.000	-22.736	84.672	0.77182	-0.60855	0.17136	-0.06689	28.8	13111	100
2025-3-27 17:37:7.149	WT901BLE68-01(48591DE3C19B)	-0.335	-0.980	0.276	-4.089	-53.101	-105.774	-78.70	2.22	-17.69	-49.000	-22.736	84.672	0.77182	-0.60855	0.17136	-0.06689	28.8	13111	100
2025-3-27 17:37:7.173	WT901BLE68-01(48591DE3C19B)	-0.335	-0.972	0.297	-6.165	-50.842	-95.886	-78.74	1.30	-17.40	-49.000	-22.736	84.672	0.77182	-0.60855	0.17136	-0.06689	28.8	13111	100
2025-3-27 17:37:7.173	WT901BLE68-01(48591DE3C19B)	-0.297	-0.972	0.297	-6.165	-50.842	-95.886	-78.79	0.38	-17.11	-49.000	-22.736	84.672	0.77182	-0.60855	0.17136	-0.06689	28.8	13111	100
2025-3-27 17:37:7.173	WT901BLE68-01(48591DE3C19B)	-0.297	-1.096	0.283	-8.118	-39.185	-85.510	-78.85	-0.41	-16.91	-49.000	-22.736	84.672	0.77182	-0.60855	0.17136	-0.06689	28.8	13111	100
2025-3-27 17:37:7.173	WT901BLE68-01(48591DE3C19B)	-0.291	-1.096	0.283	-8.118	-39.185	-85.510	-78.93	-1.20	-16.72	-49.000	-22.736	84.672	0.77182	-0.60855	0.17136	-0.06689	28.8	13111	100
2025-3-27 17:37:7.234	WT901BLE68-01(48591DE3C19B)	-0.291	-1.237	0.246	-7.019	-25.391	-74.707	-78.98	-1.86	-16.64	-49.000	-22.736	84.672	0.77182	-0.60855	0.17136	-0.06689	28.8	13111	100
2025-3-27 17:37:7.234	WT901BLE68-01(48591DE3C19B)	-0.561	-1.237	0.246	-7.019	-25.391	-74.707	-79.04	-2.52	-16.57	-49.000	-22.736	84.672	0.77182	-0.60855	0.17136	-0.06689	28.8	13111	100
2025-3-27 17:37:7.235	WT901BLE68-01(48591DE3C19B)	-2.244	-2.864	0.315	-14.709	-9.033	-67.078	-79.17	-3.08	-16.64	-49.000	-22.736	84.672	0.77182	-0.60855	0.17136	-0.06689	28.8	13111	100
2025-3-27 17:37:7.235	WT901BLE68-01(48591DE3C19B)	-0.381	-11.456	1.260	-14.709	-9.033	-67.078	-79.32	-3.65	-16.72	-49.000	-22.736	84.672	0.77182	-0.60855	0.17136	-0.06689	28.8	13111	100
2025-3-27 17:37:7.263	WT901BLE68-01(48591DE3C19B)	-0.381	-1.670	0.174	-15.442	-1.953	-58.716	-79.46	-4.11	-16.85	-49.000	-22.736	84.672	0.77182	-0.60855	0.17136	-0.06689	28.8	13111	100
2025-3-27 17:37:7.263	WT901BLE68-01(48591DE3C19B)	-0.550	-1.670	0.174	-15.442	-1.953	-58.716	-79.62	-4.59	-16.98	-49.000	-22.736	84.672	0.77182	-0.60855	0.17136	-0.06689	28.8	13111	100
2025-3-27 17:37:7.263	WT901BLE68-01(48591DE3C19B)	-0.550	-1.439	0.389	5.066	-15.381	-37.903	-79.57	-4.87	-16.94	-49.000	-22.736	84.672	0.77182	-0.60855	0.17136	-0.06689	28.8	13111	100
2025-3-27 17:37:7.263	WT901BLE68-01(48591DE3C19B)	-0.579	-1.439	0.389	5.066	-15.381	-37.903	-79.53	-5.15	-16.90	-49.000	-22.736	84.672	0.77182	-0.60855	0.17136	-0.06689	28.8	13111	100
2025-3-27 17:37:7.293	WT901BLE68-01(48591DE3C19B)	-0.510	-0.892	0.574	8.606	-47.302	0.183	-79.48	-5.11	-16.47	-44.100	-20.972	82.124	0.77182	-0.60855	0.17136	-0.06689	28.8	13111	100
2025-3-27 17:37:7.293	WT901BLE68-01(48591DE3C19B)	-0.510	-0.561	0.506	-0.610	-75.317	49.438	-79.48	-4.85	-15.86	-44.100	-20.972	82.124	0.77182	-0.60855	0.17136	-0.06689	28.8	13111	100
2025-3-27 17:37:7.293	WT901BLE68-01(48591DE3C19B)	-0.417	-0.561	0.506	-0.610	-75.317	49.438	-79.52	-4.37	-15.06	-44.100	-20.972	82.124	0.77182	-0.60855	0.17136	-0.06689	28.8	13111	100
2025-3-27 17:37:7.293	WT901BLE68-01(48591DE3C19B)	-0.417	-0.671	0.301	-19.714	-99.182	89.355	-79.67	-3.71	-14.12	-44.100	-20.972	82.124	0.77182	-0.60855	0.17136	-0.06689	28.8	13111	100
2025-3-27 17:37:7.323	WT901BLE68-01(48591DE3C19B)	-0.294	-0.671	0.301	-19.714	-99.182	89.355	-79.89	-2.88	-13.03	-44.100	-20.972	82.124	0.77182	-0.60855	0.17136	-0.06689	28.8	13111	100
2025-3-27 17:37:7.323	WT901BLE68-01(48591DE3C19B)	-0.294	-1.060	0.195	-15.381	-118.713	124.146	-80.08	-1.88	-11.82	-44.100	-20.972	82.124	0.77182	-0.60855	0.17136	-0.06689	28.8	13111	100
2025-3-27 17:37:7.323	WT901BLE68-01(48591DE3C19B)	-0.204	-1.060	0.195	-15.381	-118.713	124.146	-80.23	-0.75	-10.49	-44.100	-20.972	82.124	0.77182	-0.60855	0.17136	-0.06689	28.8	13111	100
2025-3-27 17:37:7.323	WT901BLE68-01(48591DE3C19B)	-0.204	-1.390	0.062	-2.869	-126.770	151.855	-80.29	0.51	-9.11	-44.100	-20.972	82.124	0.77182	-0.60855	0.17136	-0.06689	28.8	13111	100
2025-3-27 17:37:7.383	WT901BLE68-01(48591DE3C19B)	-0.090	-1.390	0.062	-2.869	-126.770	151.855	-80.26	1.89	-7.67	-44.100	-20.972	82.124	0.77182	-0.60855	0.17136	-0.06689	28.8	13111	100
2025-3-27 17:37:7.384	WT901BLE68-01(48591DE3C19B)	-0.090	-1.512	-0.013	21.484	-122.131	173.828	-80.07	3.36	-6.24	-44.100	-20.972	82.124	0.77182	-0.60855	0.17136	-0.06689	28.8	13111	100
2025-3-27 17:37:7.384	WT901BLE68-01(48591DE3C19B)	-0.021	-1.512	-0.013	21.484	-122.131	173.828	-79.74	4.92	-4.82	-44.100	-20.972	82.124	0.77182	-0.60855	0.17136	-0.06689	28.8	13111	100
2025-3-27 17:37:7.384	WT901BLE68-01(48591DE3C19B)	-0.021	-1.415	0.008	42.786	-104.858	187.439	-79.28	6.54	-3.46	-44.100	-20.972	82.124	0.77182	-0.60855	0.17136	-0.06689	28.8	13111	100
2025-3-27 17:37:7.413	WT901BLE68-01(48591DE3C19B)	-0.030	-1.415	0.008	42.786	-104.858	187.439	-78.68	8.21	-2.16	-44.100	-20.972	82.124	0.77182	-0.60855	0.17136	-0.06689	28.8	13111	100
2025-3-27 17:37:7.413	WT901BLE68-01(48591DE3C19B)	-0.030	-1.333	0.106	51.392	-89.050	195.190	-78.02	9.91	-0.92	-44.100	-20.972	82.124	0.77182	-0.60855	0.17136	-0.06689	28.8	13111	100
2025-3-27 17:37:7.413	WT901BLE68-01(48591DE3C19B)	-0.022	-1.333	0.106	51.392	-89.050	195.190	-77.29	11.62	0.26	-44.100	-20.972	82.124	0.77182	-0.60855	0.17136	-0.06689	28.8	13111	100
2025-3-27 17:37:7.413	WT901BLE68-01(48591DE3C19B)	-0.022	-1.345	0.249	54.382	-68.665	200.256	-76.53	13.36	1.38	-44.100	-20.972	82.124	0.77182	-0.60855	0.17136	-0.06689	28.8	13111	100
2025-3-27 17:37:7.503	WT901BLE68-01(48591DE3C19B)	-0.049	-1.345	0.249	54.382	-68.665	200.256	-75.74	15.11	2.43	-44.100	-20.972	82.124	0.77182	-0.60855	0.17136	-0.06689	28.8	13111	100
2025-3-27 17:37:7.503	WT901BLE68-01(48591DE3C19B)	-0.049	-1.415	0.384	59.998	-44.678	206.848	-74.92	16.90	3.39	-44.100	-20.972	82.124	0.77182	-0.60855	0.17136	-0.06689	28.8	13111	100
2025-3-27 17:37:7.504	WT901BLE68-01(48591DE3C19B)	-0.062	-1.415	0.384	59.998	-44.678	206.848	-74.06	18.72	4.27	-44.100	-20.972	82.124	0.77182	-0.60855	0.17136	-0.06689	28.8	13111	100
2025-3-27 17:37:7.504	WT901BLE68-01(48591DE3C19B)	-0.062	-1.457	0.444	67.993	-18.738	208.618	-73.16	20.56	5.06	-44.100	-20.972	82.124	0.77182	-0.60855	0.17136	-0.06689	28.8	13111	100
2025-3-27 17:37:7.504	WT901BLE68-01(48591DE3C19B)	-0.058	-1.457	0.444	67.993	-18.738	208.618	-72.24	22.41	5.75	-44.100	-20.972	82.124	0.77182	-0.60855	0.17136	-0.06689	28.8	13111	100
2025-3-27 17:37:7.504	WT901BLE68-01(48591DE3C19B)	-0.058	-1.417	0.385	74.951	13.550	205.811	-71.30	24.27	6.31	-44.100	-20.972	82.124	0.77182	-0.60855	0.17136	-0.06689	28.8	13111	100
2025-3-27 17:37:7.504	WT901BLE68-01(48591DE3C19B)	-0.063	-1.417	0.385	74.951	13.550	205.811	-70.37	26.16	6.73	-44.100	-20.972	82.124	0.77182	-0.60855	0.17136	-0.06689	28.8	13111	100
2025-3-27 17:37:7.505	WT901BLE68-01(48591DE3C19B)	-0.063	-1.295	0.267	76.294	44.312	199.829	-69.49	28.05	7.02	-44.100	-20.972	82.124	0.78714	-0.56061	0.17188	0.19098	28.8	13111	100
2025-3-27 17:37:7.533	WT901BLE68-01(48591DE3C19B)	-0.069	-1.295	0.267	76.294	44.312	199.829	-68.66	29.94	7.17	-44.100	-20.972	82.124	0.78714	-0.56061	0.17188	0.19098	28.8	13111	100
2025-3-27 17:37:7.533	WT901BLE68-01(48591DE3C19B)	-0.069	-1.218	0.184	68.542	65.186	191.284	-67.92	31.82	7.21	-44.100	-20.972	82.124	0.78714	-0.56061	0.17188	0.19098	28.8	13111	100
2025-3-27 17:37:7.533	WT901BLE68-01(48591DE3C19B)	-0.082	-1.218	0.184	68.542	65.186	191.284	-67.28	33.70	7.16	-44.100	-20.972	82.124	0.78714	-0.56061	0.17188	0.19098	28.8	13111	100
2025-3-27 17:37:7.533	WT901BLE68-01(48591DE3C19B)	-0.082	-1.173	0.157	59.448	69.214	182.983	-66.70	35.52	7.08	-44.100	-20.972	82.124	0.78714	-0.56061	0.17188	0.19098	28.8	13111	100
2025-3-27 17:37:7.593	WT901BLE68-01(48591DE3C19B)	-0.097	-1.173	0.157	59.448	69.214	182.983	-66.18	37.31	6.98	-44.100	-20.972	82.124	0.78714	-0.56061	0.17188	0.19098	28.8	13111	100
2025-3-27 17:37:7.593	WT901BLE68-01(48591DE3C19B)	-0.097	-1.124	0.207	51.636	52.795	174.255	-65.64	39.01	6.97	-44.100	-20.972	82.124	0.78714	-0.56061	0.17188	0.19098	28.8	13111	100
2025-3-27 17:37:7.593	WT901BLE68-01(48591DE3C19B)	-0.081	-1.124	0.207	51.636	52.795	174.255	-65.09	40.63	7.04	-44.100	-20.972	82.124	0.78714	-0.56061	0.17188	0.19098	28.8	13111	100
2025-3-27 17:37:7.593	WT901BLE68-01(48591DE3C19B)	-0.081	-1.099	0.232	44.800	26.001	164.612	-64.46	42.14	7.28	-44.100	-20.972	82.124	0.78714	-0.56061	0.17188	0.19098	28.8	13111	100
2025-3-27 17:37:7.624	WT901BLE68-01(48591DE3C19B)	-0.017	-1.099	0.232	44.800	26.001	164.612	-63.75	43.54	7.68	-44.100	-20.972	82.124	0.78714	-0.56061	0.17188	0.19098	28.8	13111	100
2025-3-27 17:37:7.624	WT901BLE68-01(48591DE3C19B)	-0.017	-1.021	0.224	45.288	6.409	152.710	-62.96	44.83	8.20	-44.100	-20.972	82.124	0.78714	-0.56061	0.17188	0.19098	28.8	13111	100
2025-3-27 17:37:7.624	WT901BLE68-01(48591DE3C19B)	0.037	-1.021	0.224	45.288	6.409	152.710	-62.07	46.01	8.83	-44.100	-20.972	82.124	0.78714	-0.56061	0.17188	0.19098	28.8	13111	100
2025-3-27 17:37:7.624	WT901BLE68-01(48591DE3C19B)	0.037	-0.928	0.202	43.884	2.747	137.329	-61.17	47.09	9.47	-44.100	-20.972	82.124	0.78714	-0.56061	0.17188	0.19098	28.8	13111	100
2025-3-27 17:37:7.653	WT901BLE68-01(48591DE3C19B)	0.069	-0.928	0.202	43.884	2.747	137.329	-60.27	48.08	10.11	-44.100	-20.972	82.124	0.78714	-0.56061	0.17188	0.19098	28.8	13111	100
2025-3-27 17:37:7.653	WT901BLE68-01(48591DE3C19B)	0.069	-0.867	0.177	40.344	11.902	117.859	-59.47	49.00	10.63	-44.100	-20.972	82.124	0.78714	-0.56061	0.17188	0.19098	28.8	13111	100
2025-3-27 17:37:7.653	WT901BLE68-01(48591DE3C19B)	0.075	-0.867	0.177	40.344	11.902	117.859	-58.76	49.84	11.05	-34.496	-34.496	78.008	0.78714	-0.56061	0.17188	0.19098	28.8	13111	100
2025-3-27 17:37:7.653	WT901BLE68-01(48591DE3C19B)	0.075	-0.841	0.176	35.156	23.254	95.581	-58.19	50.61	11.32	-34.496	-34.496	78.008	0.78714	-0.56061	0.17188	0.19098	28.8	13111	100
2025-3-27 17:37:7.713	WT901BLE68-01(48591DE3C19B)	0.055	-0.841	0.176	35.156	23.254	95.581	-57.77	51.31	11.42	-34.496	-34.496	78.008	0.78714	-0.56061	0.17188	0.19098	28.8	13111	100
2025-3-27 17:37:7.713	WT901BLE68-01(48591DE3C19B)	0.055	-0.869	0.193	29.724	33.142	71.716	-57.51	51.93	11.36	-34.496	-34.496	78.008	0.78714	-0.56061	0.17188	0.19098	28.8	13111	100
2025-3-27 17:37:7.713	WT901BLE68-01(48591DE3C19B)	0.019	-0.869	0.193	29.724	33.142	71.716	-57.40	52.47	11.12	-34.496	-34.496	78.008	0.78714	-0.56061	0.17188	0.19098	28.8	13111	100
2025-3-27 17:37:7.713	WT901BLE68-01(48591DE3C19B)	0.019	-0.857	0.221	29.663	37.354	48.523	-57.41	52.92	10.76	-34.496	-34.496	78.008	0.78714	-0.56061	0.17188	0.19098	28.8	13111	100
2025-3-27 17:37:7.748	WT901BLE68-01(48591DE3C19B)	0.009	-0.857	0.221	29.663	37.354	48.523	-57.52	53.28	10.25	-34.496	-34.496	78.008	0.78714	-0.56061	0.17188	0.19098	28.8	13111	100
2025-3-27 17:37:7.748	WT901BLE68-01(48591DE3C19B)	0.009	-0.787	0.230	27.954	36.743	25.757	-57.73	53.54	9.65	-34.496	-34.496	78.008	0.78714	-0.56061	0.17188	0.19098	28.8	13111	100
2025-3-27 17:37:7.748	WT901BLE68-01(48591DE3C19B)	0.019	-0.787	0.230	27.954	36.743	25.757	-58.02	53.69	8.94	-34.496	-34.496	78.008	0.78714	-0.56061	0.17188	0.19098	28.8	13111	100
2025-3-27 17:37:7.748	WT901BLE68-01(48591DE3C19B)	0.019	-0.718	0.211	23.804	35.889	2.441	-58.51	53.64	8.04	-34.496	-34.496	78.008	0.78714	-0.56061	0.17188	0.19098	28.8	13111	100
2025-3-27 17:37:7.774	WT901BLE68-01(48591DE3C19B)	0.002	-0.718	0.211	23.804	35.889	2.441	-58.99	53.59	7.15	-34.496	-34.496	78.008	0.78714	-0.56061	0.17188	0.19098	28.8	13111	100
2025-3-27 17:37:7.774	WT901BLE68-01(48591DE3C19B)	0.002	-0.682	0.183	18.555	37.537	-20.142	-59.68	53.34	6.05	-34.496	-34.496	78.008	0.78714	-0.56061	0.17188	0.19098	28.8	13111	100
2025-3-27 17:37:7.774	WT901BLE68-01(48591DE3C19B)	-0.028	-0.682	0.183	18.555	37.537	-20.142	-60.36	53.09	4.97	-34.496	-34.496	78.008	0.78714	-0.56061	0.17188	0.19098	28.8	13111	100
2025-3-27 17:37:7.774	WT901BLE68-01(48591DE3C19B)	-0.028	-0.687	0.159	13.000	38.391	-42.603	-61.23	52.64	3.71	-34.496	-34.496	78.008	0.78714	-0.56061	0.17188	0.19098	28.8	13111	100
2025-3-27 17:37:7.834	WT901BLE68-01(48591DE3C19B)	-0.043	-0.687	0.159	13.000	38.391	-42.603	-62.06	52.17	2.48	-34.496	-34.496	78.008	0.78714	-0.56061	0.17188	0.19098	28.8	13111	100
2025-3-27 17:37:7.834	WT901BLE68-01(48591DE3C19B)	-0.043	-0.721	0.148	8.301	39.978	-64.148	-63.05	51.53	1.11	-34.496	-34.496	78.008	0.78714	-0.56061	0.17188	0.19098	28.8	13111	100
2025-3-27 17:37:7.834	WT901BLE68-01(48591DE3C19B)	-0.068	-0.721	0.148	8.301	39.978	-64.148	-64.00	50.87	-0.21	-34.496	-34.496	78.008	0.78714	-0.56061	0.17188	0.19098	28.8	13111	100
2025-3-27 17:37:7.834	WT901BLE68-01(48591DE3C19B)	-0.068	-0.788	0.135	3.845	44.800	-85.083	-65.10	50.03	-1.70	-34.496	-34.496	78.008	0.78714	-0.56061	0.17188	0.19098	28.8	13111	100
2025-3-27 17:37:7.863	WT901BLE68-01(48591DE3C19B)	-0.104	-0.788	0.135	3.845	44.800	-85.083	-66.15	49.18	-3.13	-34.496	-34.496	78.008	0.78714	-0.56061	0.17188	0.19098	28.8	13111	100
2025-3-27 17:37:7.863	WT901BLE68-01(48591DE3C19B)	-0.104	-0.881	0.126	0.610	50.171	-107.422	-67.33	48.14	-4.71	-34.496	-34.496	78.008	0.78714	-0.56061	0.17188	0.19098	28.8	13111	100
2025-3-27 17:37:7.863	WT901BLE68-01(48591DE3C19B)	-0.149	-0.881	0.126	0.610	50.171	-107.422	-68.43	47.09	-6.21	-34.496	-34.496	78.008	0.78714	-0.56061	0.17188	0.19098	28.8	13111	100
2025-3-27 17:37:7.863	WT901BLE68-01(48591DE3C19B)	-0.149	-0.962	0.125	-1.099	53.406	-131.775	-69.60	45.81	-7.82	-34.496	-34.496	78.008	0.76996	-0.50562	0.35309	0.16351	28.8	13111	100
2025-3-27 17:37:7.892	WT901BLE68-01(48591DE3C19B)	-0.203	-0.962	0.125	-1.099	53.406	-131.775	-70.70	44.52	-9.33	-34.496	-34.496	78.008	0.76996	-0.50562	0.35309	0.16351	28.8	13111	100
2025-3-27 17:37:7.892	WT901BLE68-01(48591DE3C19B)	-0.203	-1.060	0.133	-3.418	51.941	-158.813	-71.80	42.96	-10.88	-34.496	-34.496	78.008	0.76996	-0.50562	0.35309	0.16351	28.8	13111	100
2025-3-27 17:37:7.893	WT901BLE68-01(48591DE3C19B)	-0.255	-1.060	0.133	-3.418	51.941	-158.813	-72.82	41.40	-12.33	-34.496	-34.496	78.008	0.76996	-0.50562	0.35309	0.16351	28.8	13111	100
2025-3-27 17:37:7.893	WT901BLE68-01(48591DE3C19B)	-0.255	-1.096	0.160	-1.404	46.570	-186.462	-73.75	39.55	-13.73	-34.496	-34.496	78.008	0.76996	-0.50562	0.35309	0.16351	28.8	13111	100
2025-3-27 17:37:7.953	WT901BLE68-01(48591DE3C19B)	-0.277	-1.096	0.160	-1.404	46.570	-186.462	-74.60	37.71	-15.05	-34.496	-34.496	78.008	0.76996	-0.50562	0.35309	0.16351	28.8	13111	100
2025-3-27 17:37:7.953	WT901BLE68-01(48591DE3C19B)	-0.277	-1.097	0.161	-1.343	43.030	-213.623	-75.39	35.58	-16.34	-34.496	-34.496	78.008	0.76996	-0.50562	0.35309	0.16351	28.8	13111	100
2025-3-27 17:37:7.953	WT901BLE68-01(48591DE3C19B)	-0.267	-1.097	0.161	-1.343	43.030	-213.623	-76.10	33.47	-17.56	-34.496	-34.496	78.008	0.76996	-0.50562	0.35309	0.16351	28.8	13111	100
2025-3-27 17:37:7.953	WT901BLE68-01(48591DE3C19B)	-0.267	-1.185	0.105	-3.967	47.607	-240.173	-76.83	31.11	-18.83	-34.496	-34.496	78.008	0.76996	-0.50562	0.35309	0.16351	28.8	13111	100
2025-3-27 17:37:7.983	WT901BLE68-01(48591DE3C19B)	-0.259	-1.185	0.105	-3.967	47.607	-240.173	-77.48	28.76	-20.02	-34.496	-34.496	78.008	0.76996	-0.50562	0.35309	0.16351	28.8	13111	100
2025-3-27 17:37:7.983	WT901BLE68-01(48591DE3C19B)	-0.259	-1.313	0.026	-3.479	63.049	-265.930	-78.16	26.19	-21.39	-34.496	-34.496	78.008	0.76996	-0.50562	0.35309	0.16351	28.8	13111	100
2025-3-27 17:37:7.983	WT901BLE68-01(48591DE3C19B)	-0.290	-1.313	0.026	-3.479	63.049	-265.930	-78.76	23.63	-22.69	-34.496	-34.496	78.008	0.76996	-0.50562	0.35309	0.16351	28.8	13111	100
2025-3-27 17:37:7.983	WT901BLE68-01(48591DE3C19B)	-0.290	-1.455	-0.044	-0.183	82.703	-289.734	-79.35	20.87	-24.18	-34.496	-34.496	78.008	0.76996	-0.50562	0.35309	0.16351	28.8	13111	100
2025-3-27 17:37:8.17	WT901BLE68-01(48591DE3C19B)	-0.351	-1.455	-0.044	-0.183	82.703	-289.734	-79.86	18.12	-25.60	-34.496	-34.496	78.008	0.76996	-0.50562	0.35309	0.16351	28.8	13111	100
2025-3-27 17:37:8.17	WT901BLE68-01(48591DE3C19B)	-0.351	-1.587	-0.040	5.249	93.323	-308.716	-80.28	15.21	-27.13	-34.496	-34.496	78.008	0.76996	-0.50562	0.35309	0.16351	28.8	13111	100
2025-3-27 17:37:8.18	WT901BLE68-01(48591DE3C19B)	-0.445	-1.587	-0.040	5.249	93.323	-308.716	-80.61	12.30	-28.59	-34.496	-34.496	78.008	0.76996	-0.50562	0.35309	0.16351	28.8	13111	100
2025-3-27 17:37:8.18	WT901BLE68-01(48591DE3C19B)	-0.445	-1.718	0.018	11.475	84.717	-321.228	-80.79	9.27	-29.96	-34.496	-34.496	78.008	0.76996	-0.50562	0.35309	0.16351	28.8	13111	100
2025-3-27 17:37:8.78	WT901BLE68-01(48591DE3C19B)	-0.539	-1.718	0.018	11.475	84.717	-321.228	-80.90	6.26	-31.30	-34.496	-34.496	78.008	0.76996	-0.50562	0.35309	0.16351	28.8	13111	100
2025-3-27 17:37:8.78	WT901BLE68-01(48591DE3C19B)	-0.539	-1.831	0.094	18.311	59.875	-326.660	-80.85	3.18	-32.38	-34.496	-34.496	78.008	0.76996	-0.50562	0.35309	0.16351	28.8	13111	100
2025-3-27 17:37:8.78	WT901BLE68-01(48591DE3C19B)	-0.573	-1.831	0.094	18.311	59.875	-326.660	-80.74	0.12	-33.46	-34.496	-34.496	78.008	0.76996	-0.50562	0.35309	0.16351	28.8	13111	100
2025-3-27 17:37:8.78	WT901BLE68-01(48591DE3C19B)	-0.573	-1.915	0.132	22.705	47.729	-322.937	-80.53	-2.89	-34.42	-34.496	-34.496	78.008	0.76996	-0.50562	0.35309	0.16351	28.8	13111	100
2025-3-27 17:37:8.103	WT901BLE68-01(48591DE3C19B)	-0.540	-1.915	0.132	22.705	47.729	-322.937	-80.27	-5.88	-35.39	-53.018	-24.794	82.418	0.76996	-0.50562	0.35309	0.16351	28.8	13111	100
2025-3-27 17:37:8.103	WT901BLE68-01(48591DE3C19B)	-0.540	-1.897	0.072	26.428	59.753	-305.786	-79.92	-8.67	-36.46	-53.018	-24.794	82.418	0.76996	-0.50562	0.35309	0.16351	28.8	13111	100
2025-3-27 17:37:8.103	WT901BLE68-01(48591DE3C19B)	-0.527	-1.897	0.072	26.428	59.753	-305.786	-79.51	-11.43	-37.55	-53.018	-24.794	82.418	0.76996	-0.50562	0.35309	0.16351	28.8	13111	100
2025-3-27 17:37:8.104	WT901BLE68-01(48591DE3C19B)	-0.527	-1.792	-0.016	26.855	86.731	-276.855	-79.00	-13.82	-38.89	-53.018	-24.794	82.418	0.76996	-0.50562	0.35309	0.16351	28.8	13111	100
2025-3-27 17:37:8.132	WT901BLE68-01(48591DE3C19B)	-0.563	-1.792	-0.016	26.855	86.731	-276.855	-78.43	-16.19	-40.25	-53.018	-24.794	82.418	0.76996	-0.50562	0.35309	0.16351	28.8	13111	100
2025-3-27 17:37:8.133	WT901BLE68-01(48591DE3C19B)	-0.563	-1.606	-0.062	30.640	121.338	-241.333	-77.68	-18.12	-41.93	-53.018	-24.794	82.418	0.76996	-0.50562	0.35309	0.16351	28.8	13111	100
2025-3-27 17:37:8.133	WT901BLE68-01(48591DE3C19B)	-0.596	-1.606	-0.062	30.640	121.338	-241.333	-76.88	-20.01	-43.65	-53.018	-24.794	82.418	0.76996	-0.50562	0.35309	0.16351	28.8	13111	100
2025-3-27 17:37:8.133	WT901BLE68-01(48591DE3C19B)	-0.596	-1.397	-0.038	30.762	164.185	-199.707	-75.90	-21.35	-45.74	-53.018	-24.794	82.418	0.76996	-0.50562	0.35309	0.16351	28.8	13111	100
2025-3-27 17:37:8.192	WT901BLE68-01(48591DE3C19B)	-0.658	-1.397	-0.038	30.762	164.185	-199.707	-74.86	-22.65	-47.87	-53.018	-24.794	82.418	0.76996	-0.50562	0.35309	0.16351	28.8	13111	100
2025-3-27 17:37:8.193	WT901BLE68-01(48591DE3C19B)	-0.658	-1.191	0.026	36.316	189.575	-158.936	-73.67	-23.44	-50.18	-53.018	-24.794	82.418	0.76996	-0.50562	0.35309	0.16351	28.8	13111	100
2025-3-27 17:37:8.193	WT901BLE68-01(48591DE3C19B)	-0.720	-1.191	0.026	36.316	189.575	-158.936	-72.45	-24.19	-52.51	-53.018	-24.794	82.418	0.76996	-0.50562	0.35309	0.16351	28.8	13111	100
2025-3-27 17:37:8.193	WT901BLE68-01(48591DE3C19B)	-0.685	-1.035	0.063	37.415	177.917	-123.962	-71.30	-24.58	-54.61	-53.018	-24.794	82.418	0.76996	-0.50562	0.35309	0.16351	28.8	13111	100
2025-3-27 17:37:8.223	WT901BLE68-01(48591DE3C19B)	-0.685	-0.983	0.005	36.499	153.687	-94.604	-70.22	-24.82	-56.54	-53.018	-24.794	82.418	0.76996	-0.50562	0.35309	0.16351	28.8	13111	100
2025-3-27 17:37:8.224	WT901BLE68-01(48591DE3C19B)	-0.696	-0.983	0.005	36.499	153.687	-94.604	-69.22	-24.93	-58.28	-53.018	-24.794	82.418	0.76996	-0.50562	0.35309	0.16351	28.8	13111	100
2025-3-27 17:37:8.224	WT901BLE68-01(48591DE3C19B)	-0.696	-0.945	-0.104	37.720	134.583	-66.467	-68.28	-24.92	-59.87	-53.018	-24.794	82.418	0.76996	-0.50562	0.35309	0.16351	28.8	13111	100
2025-3-27 17:37:8.224	WT901BLE68-01(48591DE3C19B)	-0.765	-0.945	-0.104	37.720	134.583	-66.467	-67.42	-24.79	-61.29	-53.018	-24.794	82.418	0.76996	-0.50562	0.35309	0.16351	28.8	13111	100
2025-3-27 17:37:8.252	WT901BLE68-01(48591DE3C19B)	-0.765	-0.893	-0.179	38.635	112.610	-46.265	-66.64	-24.58	-62.55	-53.018	-24.794	82.418	0.76996	-0.50562	0.35309	0.16351	28.8	13111	100
2025-3-27 17:37:8.252	WT901BLE68-01(48591DE3C19B)	-0.784	-0.893	-0.179	38.635	112.610	-46.265	-65.93	-24.30	-63.64	-53.018	-24.794	82.418	0.76996	-0.50562	0.35309	0.16351	28.8	13111	100
2025-3-27 17:37:8.252	WT901BLE68-01(48591DE3C19B)	-0.784	-0.823	-0.185	35.767	79.346	-30.029	-65.34	-24.01	-64.51	-53.018	-24.794	82.418	0.63632	-0.53995	0.13373	-0.53436	28.8	13111	100
2025-3-27 17:37:8.253	WT901BLE68-01(48591DE3C19B)	-0.761	-0.823	-0.185	35.767	79.346	-30.029	-64.86	-23.70	-65.17	-53.018	-24.794	82.418	0.63632	-0.53995	0.13373	-0.53436	28.8	13111	100
2025-3-27 17:37:8.313	WT901BLE68-01(48591DE3C19B)	-0.761	-0.784	-0.136	27.039	39.795	-14.038	-64.54	-23.40	-65.59	-53.018	-24.794	82.418	0.63632	-0.53995	0.13373	-0.53436	28.8	13111	100
2025-3-27 17:37:8.313	WT901BLE68-01(48591DE3C19B)	-0.720	-0.784	-0.136	27.039	39.795	-14.038	-64.36	-23.10	-65.78	-53.018	-24.794	82.418	0.63632	-0.53995	0.13373	-0.53436	28.8	13111	100
2025-3-27 17:37:8.313	WT901BLE68-01(48591DE3C19B)	-0.720	-0.829	-0.083	13.855	-0.366	2.625	-64.34	-22.81	-65.73	-53.018	-24.794	82.418	0.63632	-0.53995	0.13373	-0.53436	28.8	13111	100
2025-3-27 17:37:8.313	WT901BLE68-01(48591DE3C19B)	-0.630	-0.829	-0.083	13.855	-0.366	2.625	-64.48	-22.54	-65.44	-53.018	-24.794	82.418	0.63632	-0.53995	0.13373	-0.53436	28.8	13111	100
2025-3-27 17:37:8.347	WT901BLE68-01(48591DE3C19B)	-0.630	-0.958	-0.015	2.319	-29.480	22.095	-64.74	-22.23	-64.97	-53.018	-24.794	82.418	0.63632	-0.53995	0.13373	-0.53436	28.8	13111	100
2025-3-27 17:37:8.347	WT901BLE68-01(48591DE3C19B)	-0.521	-0.958	-0.015	2.319	-29.480	22.095	-65.13	-21.90	-64.31	-53.018	-24.794	82.418	0.63632	-0.53995	0.13373	-0.53436	28.8	13111	100
2025-3-27 17:37:8.347	WT901BLE68-01(48591DE3C19B)	-0.521	-1.053	-0.005	-5.188	-47.363	42.969	-65.59	-21.51	-63.54	-53.018	-24.794	82.418	0.63632	-0.53995	0.13373	-0.53436	28.8	13111	100
2025-3-27 17:37:8.347	WT901BLE68-01(48591DE3C19B)	-0.413	-1.053	-0.005	-5.188	-47.363	42.969	-66.13	-21.05	-62.64	-53.018	-24.794	82.418	0.63632	-0.53995	0.13373	-0.53436	28.8	13111	100
2025-3-27 17:37:8.373	WT901BLE68-01(48591DE3C19B)	-0.413	-1.070	0.029	-11.353	-47.974	64.819	-66.69	-20.49	-61.72	-53.018	-24.794	82.418	0.63632	-0.53995	0.13373	-0.53436	28.8	13111	100
2025-3-27 17:37:8.373	WT901BLE68-01(48591DE3C19B)	-0.346	-1.070	0.029	-11.353	-47.974	64.819	-67.28	-19.83	-60.75	-53.018	-24.794	82.418	0.63632	-0.53995	0.13373	-0.53436	28.8	13111	100
2025-3-27 17:37:8.373	WT901BLE68-01(48591DE3C19B)	-0.346	-1.155	0.105	-20.264	-36.133	87.219	-67.89	-19.04	-59.83	-53.018	-24.794	82.418	0.63632	-0.53995	0.13373	-0.53436	28.8	13111	100
2025-3-27 17:37:8.373	WT901BLE68-01(48591DE3C19B)	-0.268	-1.155	0.105	-20.264	-36.133	87.219	-68.51	-18.13	-58.94	-53.018	-24.794	82.418	0.63632	-0.53995	0.13373	-0.53436	28.8	13111	100
2025-3-27 17:37:8.464	WT901BLE68-01(48591DE3C19B)	-0.268	-1.208	0.193	-19.714	-20.508	105.774	-69.09	-17.11	-58.12	-53.018	-24.794	82.418	0.63632	-0.53995	0.13373	-0.53436	28.8	13111	100
2025-3-27 17:37:8.464	WT901BLE68-01(48591DE3C19B)	-0.073	-1.208	0.193	-19.714	-20.508	105.774	-69.61	-15.97	-57.37	-53.018	-24.794	82.418	0.63632	-0.53995	0.13373	-0.53436	28.8	13111	100
2025-3-27 17:37:8.464	WT901BLE68-01(48591DE3C19B)	-0.073	-1.177	0.258	-16.479	-6.287	116.211	-70.09	-14.76	-56.68	-53.018	-24.794	82.418	0.63632	-0.53995	0.13373	-0.53436	28.8	13111	100
2025-3-27 17:37:8.464	WT901BLE68-01(48591DE3C19B)	0.245	-1.177	0.258	-16.479	-6.287	116.211	-70.50	-13.50	-56.09	-53.018	-24.794	82.418	0.63632	-0.53995	0.13373	-0.53436	28.8	13111	100
2025-3-27 17:37:8.465	WT901BLE68-01(48591DE3C19B)	0.245	-1.105	0.211	-12.878	17.029	115.356	-70.85	-12.21	-55.62	-53.018	-24.794	82.418	0.63632	-0.53995	0.13373	-0.53436	28.8	13111	100
2025-3-27 17:37:8.465	WT901BLE68-01(48591DE3C19B)	0.260	-1.105	0.211	-12.878	17.029	115.356	-71.13	-10.90	-55.29	-53.018	-24.794	82.418	0.63632	-0.53995	0.13373	-0.53436	28.8	13111	100
2025-3-27 17:37:8.465	WT901BLE68-01(48591DE3C19B)	0.260	-0.849	0.203	-7.202	50.842	107.788	-71.34	-9.61	-55.15	-53.018	-24.794	82.418	0.63632	-0.53995	0.13373	-0.53436	28.8	13111	100
2025-3-27 17:37:8.465	WT901BLE68-01(48591DE3C19B)	0.076	-0.849	0.203	-7.202	50.842	107.788	-71.48	-8.31	-55.20	-53.018	-24.794	82.418	0.63632	-0.53995	0.13373	-0.53436	28.8	13111	100
2025-3-27 17:37:8.523	WT901BLE68-01(48591DE3C19B)	0.076	-0.805	0.154	-22.888	78.735	95.215	-71.67	-7.05	-55.41	-53.018	-24.794	82.418	0.63632	-0.53995	0.13373	-0.53436	28.8	13111	100
2025-3-27 17:37:8.523	WT901BLE68-01(48591DE3C19B)	-0.292	-0.805	0.154	-22.888	78.735	95.215	-71.93	-5.81	-55.78	-53.018	-24.794	82.418	0.63632	-0.53995	0.13373	-0.53436	28.8	13111	100
2025-3-27 17:37:8.523	WT901BLE68-01(48591DE3C19B)	-0.292	-1.108	-0.032	-51.514	94.055	78.247	-72.33	-4.65	-56.26	-76.146	-18.130	76.538	0.63632	-0.53995	0.13373	-0.53436	28.8	13111	100
2025-3-27 17:37:8.523	WT901BLE68-01(48591DE3C19B)	-0.800	-1.108	-0.032	-51.514	94.055	78.247	-72.87	-3.55	-56.84	-76.146	-18.130	76.538	0.63632	-0.53995	0.13373	-0.53436	28.8	13111	100
2025-3-27 17:37:8.552	WT901BLE68-01(48591DE3C19B)	-0.800	-1.681	-0.004	-78.552	50.964	59.082	-73.58	-2.61	-57.24	-76.146	-18.130	76.538	0.63632	-0.53995	0.13373	-0.53436	28.8	13111	100
2025-3-27 17:37:8.552	WT901BLE68-01(48591DE3C19B)	-1.079	-1.681	-0.004	-78.552	50.964	59.082	-74.43	-1.83	-57.48	-76.146	-18.130	76.538	0.63632	-0.53995	0.13373	-0.53436	28.8	13111	100
2025-3-27 17:37:8.552	WT901BLE68-01(48591DE3C19B)	-1.079	-1.742	0.191	-62.439	-81.421	46.570	-75.21	-1.27	-57.10	-76.146	-18.130	76.538	0.63632	-0.53995	0.13373	-0.53436	28.8	13111	100
2025-3-27 17:37:8.553	WT901BLE68-01(48591DE3C19B)	-0.656	-1.742	0.191	-62.439	-81.421	46.570	-75.93	-0.92	-56.10	-76.146	-18.130	76.538	0.63632	-0.53995	0.13373	-0.53436	28.8	13111	100
2025-3-27 17:37:8.583	WT901BLE68-01(48591DE3C19B)	-0.656	-0.984	0.371	-62.195	-223.816	63.354	-76.64	-0.64	-54.39	-76.146	-18.130	76.538	0.63632	-0.53995	0.13373	-0.53436	28.8	13111	100
2025-3-27 17:37:8.583	WT901BLE68-01(48591DE3C19B)	-0.256	-0.984	0.371	-62.195	-223.816	63.354	-77.34	-0.41	-51.98	-76.146	-18.130	76.538	0.63632	-0.53995	0.13373	-0.53436	28.8	13111	100
2025-3-27 17:37:8.583	WT901BLE68-01(48591DE3C19B)	-0.256	-0.730	0.370	-89.294	-299.866	109.619	-78.15	0.01	-49.16	-76.146	-18.130	76.538	0.63632	-0.53995	0.13373	-0.53436	28.8	13111	100
2025-3-27 17:37:8.583	WT901BLE68-01(48591DE3C19B)	-0.012	-0.730	0.370	-89.294	-299.866	109.619	-79.05	0.61	-45.95	-76.146	-18.130	76.538	0.63632	-0.53995	0.13373	-0.53436	28.8	13111	100
2025-3-27 17:37:8.612	WT901BLE68-01(48591DE3C19B)	-0.012	-1.042	0.119	-107.422	-315.674	148.315	-79.99	1.43	-42.65	-76.146	-18.130	76.538	0.63632	-0.53995	0.13373	-0.53436	28.8	13111	100
2025-3-27 17:37:8.612	WT901BLE68-01(48591DE3C19B)	0.154	-1.042	0.119	-107.422	-315.674	148.315	-80.96	2.47	-39.27	-76.146	-18.130	76.538	0.63632	-0.53995	0.13373	-0.53436	28.8	13111	100
2025-3-27 17:37:8.613	WT901BLE68-01(48591DE3C19B)	0.154	-1.468	-0.116	-85.571	-314.880	175.354	-81.74	3.68	-35.91	-76.146	-18.130	76.538	0.63632	-0.53995	0.13373	-0.53436	28.8	13111	100
2025-3-27 17:37:8.613	WT901BLE68-01(48591DE3C19B)	0.375	-1.468	-0.116	-85.571	-314.880	175.354	-82.35	5.04	-32.55	-76.146	-18.130	76.538	0.63632	-0.53995	0.13373	-0.53436	28.8	13111	100
2025-3-27 17:37:8.673	WT901BLE68-01(48591DE3C19B)	0.375	-1.584	-0.199	-48.035	-276.855	187.744	-82.71	6.49	-29.40	-76.146	-18.130	76.538	0.63632	-0.53995	0.13373	-0.53436	28.8	13111	100
2025-3-27 17:37:8.673	WT901BLE68-01(48591DE3C19B)	0.371	-1.584	-0.199	-48.035	-276.855	187.744	-82.83	8.01	-26.46	-76.146	-18.130	76.538	0.63632	-0.53995	0.13373	-0.53436	28.8	13111	100
2025-3-27 17:37:8.673	WT901BLE68-01(48591DE3C19B)	0.371	-1.476	-0.079	-19.348	-194.763	193.359	-82.71	9.67	-24.32	-76.146	-18.130	76.538	0.63632	-0.53995	0.13373	-0.53436	28.8	13111	100
2025-3-27 17:37:8.673	WT901BLE68-01(48591DE3C19B)	0.174	-1.476	-0.079	-19.348	-194.763	193.359	-82.53	11.30	-22.18	-76.146	-18.130	76.538	0.63632	-0.53995	0.13373	-0.53436	28.8	13111	100
2025-3-27 17:37:8.702	WT901BLE68-01(48591DE3C19B)	0.174	-1.608	0.130	-12.085	-124.573	192.688	-82.38	12.99	-20.75	-76.146	-18.130	76.538	0.74887	-0.62823	0.20157	-0.06140	28.8	13111	100
2025-3-27 17:37:8.703	WT901BLE68-01(48591DE3C19B)	0.096	-1.608	0.130	-12.085	-124.573	192.688	-82.17	14.66	-19.31	-76.146	-18.130	76.538	0.74887	-0.62823	0.20157	-0.06140	28.8	13111	100
2025-3-27 17:37:8.703	WT901BLE68-01(48591DE3C19B)	0.096	-1.718	0.167	13.794	-67.322	188.416	-81.82	16.34	-18.45	-76.146	-18.130	76.538	0.74887	-0.62823	0.20157	-0.06140	28.8	13111	100
2025-3-27 17:37:8.703	WT901BLE68-01(48591DE3C19B)	0.231	-1.718	0.167	13.794	-67.322	188.416	-81.44	18.01	-17.57	-76.146	-18.130	76.538	0.74887	-0.62823	0.20157	-0.06140	28.8	13111	100
2025-3-27 17:37:8.763	WT901BLE68-01(48591DE3C19B)	0.231	-1.525	0.150	28.381	10.010	189.026	-81.14	19.78	-17.48	-76.146	-18.130	76.538	0.74887	-0.62823	0.20157	-0.06140	28.8	13111	100
2025-3-27 17:37:8.763	WT901BLE68-01(48591DE3C19B)	0.102	-1.525	0.150	28.381	10.010	189.026	-80.83	21.53	-17.38	-76.146	-18.130	76.538	0.74887	-0.62823	0.20157	-0.06140	28.8	13111	100
2025-3-27 17:37:8.763	WT901BLE68-01(48591DE3C19B)	0.102	-1.430	0.120	21.240	74.768	192.322	-80.86	23.41	-17.96	-76.146	-18.130	76.538	0.74887	-0.62823	0.20157	-0.06140	28.8	13111	100
2025-3-27 17:37:8.764	WT901BLE68-01(48591DE3C19B)	-0.189	-1.430	0.120	21.240	74.768	192.322	-80.90	25.27	-18.54	-76.146	-18.130	76.538	0.74887	-0.62823	0.20157	-0.06140	28.8	13111	100
2025-3-27 17:37:8.823	WT901BLE68-01(48591DE3C19B)	-0.189	-1.486	0.176	8.728	74.829	190.491	-81.08	27.11	-19.14	-76.146	-18.130	76.538	0.74887	-0.62823	0.20157	-0.06140	28.8	13111	100
2025-3-27 17:37:8.823	WT901BLE68-01(48591DE3C19B)	-0.318	-1.486	0.176	8.728	74.829	190.491	-81.29	28.94	-19.75	-76.146	-18.130	76.538	0.74887	-0.62823	0.20157	-0.06140	28.8	13111	100
2025-3-27 17:37:8.823	WT901BLE68-01(48591DE3C19B)	-0.318	-1.592	0.253	2.808	31.189	186.401	-81.32	30.66	-19.87	-76.146	-18.130	76.538	0.74887	-0.62823	0.20157	-0.06140	28.8	13111	100
2025-3-27 17:37:8.823	WT901BLE68-01(48591DE3C19B)	-0.271	-1.592	0.253	2.808	31.189	186.401	-81.36	32.37	-20.01	-76.146	-18.130	76.538	0.74887	-0.62823	0.20157	-0.06140	28.8	13111	100
2025-3-27 17:37:8.824	WT901BLE68-01(48591DE3C19B)	-0.271	-1.663	0.265	0.549	-6.470	187.622	-81.17	34.03	-19.68	-76.146	-18.130	76.538	0.74887	-0.62823	0.20157	-0.06140	28.8	13111	100
2025-3-27 17:37:8.824	WT901BLE68-01(48591DE3C19B)	-0.141	-1.663	0.265	0.549	-6.470	187.622	-80.96	35.69	-19.35	-76.146	-18.130	76.538	0.74887	-0.62823	0.20157	-0.06140	28.8	13111	100
2025-3-27 17:37:8.824	WT901BLE68-01(48591DE3C19B)	-0.141	-1.633	0.180	7.935	-22.705	192.871	-80.54	37.36	-18.79	-76.146	-18.130	76.538	0.74887	-0.62823	0.20157	-0.06140	28.8	13111	100
2025-3-27 17:37:8.825	WT901BLE68-01(48591DE3C19B)	0.076	-1.633	0.180	7.935	-22.705	192.871	-80.08	39.02	-18.20	-76.146	-18.130	76.538	0.74887	-0.62823	0.20157	-0.06140	28.8	13111	100
2025-3-27 17:37:8.883	WT901BLE68-01(48591DE3C19B)	0.076	-1.406	0.131	13.794	-22.156	193.542	-79.55	40.68	-17.59	-76.146	-18.130	76.538	0.74887	-0.62823	0.20157	-0.06140	28.8	13111	100
2025-3-27 17:37:8.883	WT901BLE68-01(48591DE3C19B)	0.097	-1.406	0.131	13.794	-22.156	193.542	-78.98	42.31	-16.95	-76.146	-18.130	76.538	0.74887	-0.62823	0.20157	-0.06140	28.8	13111	100
2025-3-27 17:37:8.883	WT901BLE68-01(48591DE3C19B)	0.097	-1.205	0.168	12.268	-8.972	189.758	-78.51	43.92	-16.46	-76.146	-18.130	76.538	0.74887	-0.62823	0.20157	-0.06140	28.8	13111	100
2025-3-27 17:37:8.883	WT901BLE68-01(48591DE3C19B)	-0.019	-1.205	0.168	12.268	-8.972	189.758	-78.01	45.51	-15.94	-76.146	-18.130	76.538	0.74887	-0.62823	0.20157	-0.06140	28.8	13111	100
2025-3-27 17:37:8.912	WT901BLE68-01(48591DE3C19B)	-0.019	-1.091	0.250	7.690	-5.371	177.490	-77.59	46.98	-15.47	-49.392	-28.518	77.812	0.74887	-0.62823	0.20157	-0.06140	28.8	13111	100
2025-3-27 17:37:8.913	WT901BLE68-01(48591DE3C19B)	-0.075	-1.091	0.250	7.690	-5.371	177.490	-77.14	48.43	-14.99	-49.392	-28.518	77.812	0.74887	-0.62823	0.20157	-0.06140	28.8	13111	100
2025-3-27 17:37:8.913	WT901BLE68-01(48591DE3C19B)	-0.075	-1.097	0.284	1.892	-6.348	164.307	-76.73	49.75	-14.50	-49.392	-28.518	77.812	0.74887	-0.62823	0.20157	-0.06140	28.8	13111	100
2025-3-27 17:37:8.913	WT901BLE68-01(48591DE3C19B)	0.005	-1.097	0.284	1.892	-6.348	164.307	-76.29	51.05	-13.99	-49.392	-28.518	77.812	0.74887	-0.62823	0.20157	-0.06140	28.8	13111	100
2025-3-27 17:37:8.948	WT901BLE68-01(48591DE3C19B)	0.005	-1.074	0.254	4.150	2.380	150.269	-75.95	52.23	-13.63	-49.392	-28.518	77.812	0.74887	-0.62823	0.20157	-0.06140	28.8	13111	100
2025-3-27 17:37:8.948	WT901BLE68-01(48591DE3C19B)	0.078	-1.074	0.254	4.150	2.380	150.269	-75.59	53.40	-13.26	-49.392	-28.518	77.812	0.74887	-0.62823	0.20157	-0.06140	28.8	13111	100
2025-3-27 17:37:8.948	WT901BLE68-01(48591DE3C19B)	0.078	-0.937	0.188	7.813	16.846	135.498	-75.40	54.46	-13.17	-49.392	-28.518	77.812	0.74887	-0.62823	0.20157	-0.06140	28.8	13111	100
2025-3-27 17:37:8.949	WT901BLE68-01(48591DE3C19B)	0.129	-0.937	0.188	7.813	16.846	135.498	-75.22	55.51	-13.07	-49.392	-28.518	77.812	0.74887	-0.62823	0.20157	-0.06140	28.8	13111	100
2025-3-27 17:37:9.4	WT901BLE68-01(48591DE3C19B)	0.129	-0.798	0.165	7.080	24.048	116.028	-75.21	56.38	-13.19	-49.392	-28.518	77.812	0.74887	-0.62823	0.20157	-0.06140	28.8	13111	100
2025-3-27 17:37:9.4	WT901BLE68-01(48591DE3C19B)	0.105	-0.798	0.165	7.080	24.048	116.028	-75.20	57.24	-13.30	-49.392	-28.518	77.812	0.74887	-0.62823	0.20157	-0.06140	28.8	13111	100
2025-3-27 17:37:9.4	WT901BLE68-01(48591DE3C19B)	0.105	-0.685	0.226	3.723	23.132	94.788	-75.30	57.89	-13.51	-49.392	-28.518	77.812	0.74887	-0.62823	0.20157	-0.06140	28.8	13111	100
2025-3-27 17:37:9.4	WT901BLE68-01(48591DE3C19B)	0.055	-0.685	0.226	3.723	23.132	94.788	-75.40	58.54	-13.72	-49.392	-28.518	77.812	0.74887	-0.62823	0.20157	-0.06140	28.8	13111	100
2025-3-27 17:37:9.64	WT901BLE68-01(48591DE3C19B)	0.055	-0.652	0.269	-0.183	21.179	69.763	-75.61	58.93	-14.02	-49.392	-28.518	77.812	0.74887	-0.62823	0.20157	-0.06140	28.8	13111	100
2025-3-27 17:37:9.64	WT901BLE68-01(48591DE3C19B)	-0.023	-0.652	0.269	-0.183	21.179	69.763	-75.82	59.31	-14.33	-49.392	-28.518	77.812	0.74887	-0.62823	0.20157	-0.06140	28.8	13111	100
2025-3-27 17:37:9.64	WT901BLE68-01(48591DE3C19B)	-0.023	-0.637	0.289	-0.427	20.630	44.006	-76.12	59.44	-14.74	-49.392	-28.518	77.812	0.74887	-0.62823	0.20157	-0.06140	28.8	13111	100
2025-3-27 17:37:9.64	WT901BLE68-01(48591DE3C19B)	-0.104	-0.637	0.289	-0.427	20.630	44.006	-76.43	59.57	-15.16	-49.392	-28.518	77.812	0.74887	-0.62823	0.20157	-0.06140	28.8	13111	100
2025-3-27 17:37:9.65	WT901BLE68-01(48591DE3C19B)	-0.104	-0.599	0.271	0.610	14.954	18.250	-76.71	59.45	-15.58	-49.392	-28.518	77.812	0.74887	-0.62823	0.20157	-0.06140	28.8	13111	100
2025-3-27 17:37:9.65	WT901BLE68-01(48591DE3C19B)	-0.130	-0.599	0.271	0.610	14.954	18.250	-76.98	59.32	-15.99	-49.392	-28.518	77.812	0.74887	-0.62823	0.20157	-0.06140	28.8	13111	100
2025-3-27 17:37:9.65	WT901BLE68-01(48591DE3C19B)	-0.130	-0.547	0.243	1.587	0.000	-3.723	-77.07	58.95	-16.20	-49.392	-28.518	77.812	0.71783	-0.48318	0.45679	0.20612	28.8	13111	100
2025-3-27 17:37:9.65	WT901BLE68-01(48591DE3C19B)	-0.103	-0.547	0.243	1.587	0.000	-3.723	-77.15	58.58	-16.40	-49.392	-28.518	77.812	0.71783	-0.48318	0.45679	0.20612	28.8	13111	100
2025-3-27 17:37:9.123	WT901BLE68-01(48591DE3C19B)	-0.103	-0.498	0.230	1.831	-14.160	-21.240	-77.05	58.02	-16.41	-49.392	-28.518	77.812	0.71783	-0.48318	0.45679	0.20612	28.8	13111	100
2025-3-27 17:37:9.123	WT901BLE68-01(48591DE3C19B)	-0.068	-0.498	0.230	1.831	-14.160	-21.240	-76.95	57.47	-16.41	-49.392	-28.518	77.812	0.71783	-0.48318	0.45679	0.20612	28.8	13111	100
2025-3-27 17:37:9.123	WT901BLE68-01(48591DE3C19B)	-0.068	-0.488	0.211	-0.854	-18.738	-39.307	-76.87	56.73	-16.41	-49.392	-28.518	77.812	0.71783	-0.48318	0.45679	0.20612	28.8	13111	100
2025-3-27 17:37:9.123	WT901BLE68-01(48591DE3C19B)	-0.068	-0.488	0.211	-0.854	-18.738	-39.307	-76.79	56.00	-16.40	-49.392	-28.518	77.812	0.71783	-0.48318	0.45679	0.20612	28.8	13111	100
2025-3-27 17:37:9.152	WT901BLE68-01(48591DE3C19B)	-0.205	-0.639	0.180	-9.705	-14.038	-65.613	-76.95	55.03	-16.58	-49.392	-28.518	77.812	0.71783	-0.48318	0.45679	0.20612	28.8	13111	100
2025-3-27 17:37:9.152	WT901BLE68-01(48591DE3C19B)	-0.205	-0.940	0.157	-15.137	-5.554	-97.717	-77.24	53.92	-16.89	-49.392	-28.518	77.812	0.71783	-0.48318	0.45679	0.20612	28.8	13111	100
2025-3-27 17:37:9.152	WT901BLE68-01(48591DE3C19B)	-0.372	-0.940	0.157	-15.137	-5.554	-97.717	-77.64	52.67	-17.29	-49.392	-28.518	77.812	0.71783	-0.48318	0.45679	0.20612	28.8	13111	100
2025-3-27 17:37:9.153	WT901BLE68-01(48591DE3C19B)	-0.372	-1.165	0.154	-6.409	-4.517	-136.353	-78.03	51.25	-17.74	-49.392	-28.518	77.812	0.71783	-0.48318	0.45679	0.20612	28.8	13111	100
2025-3-27 17:37:9.183	WT901BLE68-01(48591DE3C19B)	-0.445	-1.165	0.154	-6.409	-4.517	-136.353	-78.40	49.66	-18.22	-49.392	-28.518	77.812	0.71783	-0.48318	0.45679	0.20612	28.8	13111	100
2025-3-27 17:37:9.183	WT901BLE68-01(48591DE3C19B)	-0.445	-1.195	0.227	3.967	-17.578	-175.659	-78.67	47.88	-18.63	-49.392	-28.518	77.812	0.71783	-0.48318	0.45679	0.20612	28.8	13111	100
2025-3-27 17:37:9.183	WT901BLE68-01(48591DE3C19B)	-0.509	-1.195	0.227	3.967	-17.578	-175.659	-78.83	45.91	-18.96	-49.392	-28.518	77.812	0.71783	-0.48318	0.45679	0.20612	28.8	13111	100
2025-3-27 17:37:9.183	WT901BLE68-01(48591DE3C19B)	-0.509	-1.146	0.309	5.920	-25.757	-210.815	-78.95	43.78	-19.26	-49.392	-28.518	77.812	0.71783	-0.48318	0.45679	0.20612	28.8	13111	100
2025-3-27 17:37:9.247	WT901BLE68-01(48591DE3C19B)	-0.599	-1.146	0.309	5.920	-25.757	-210.815	-79.03	41.49	-19.53	-49.392	-28.518	77.812	0.71783	-0.48318	0.45679	0.20612	28.8	13111	100
2025-3-27 17:37:9.247	WT901BLE68-01(48591DE3C19B)	-0.599	-1.191	0.287	6.775	-23.621	-236.267	-79.12	39.10	-19.82	-49.392	-28.518	77.812	0.71783	-0.48318	0.45679	0.20612	28.8	13111	100
2025-3-27 17:37:9.247	WT901BLE68-01(48591DE3C19B)	-0.627	-1.191	0.287	6.775	-23.621	-236.267	-79.21	36.61	-20.14	-49.392	-28.518	77.812	0.71783	-0.48318	0.45679	0.20612	28.8	13111	100
2025-3-27 17:37:9.247	WT901BLE68-01(48591DE3C19B)	-0.627	-1.195	0.206	16.968	-20.203	-256.409	-79.25	34.05	-20.48	-49.392	-28.518	77.812	0.71783	-0.48318	0.45679	0.20612	28.8	13111	100
2025-3-27 17:37:9.273	WT901BLE68-01(48591DE3C19B)	-0.519	-1.195	0.206	16.968	-20.203	-256.409	-79.25	31.41	-20.84	-49.392	-28.518	77.812	0.71783	-0.48318	0.45679	0.20612	28.8	13111	100
2025-3-27 17:37:9.273	WT901BLE68-01(48591DE3C19B)	-0.519	-1.180	0.089	20.325	-14.832	-269.470	-79.24	28.73	-21.24	-49.392	-28.518	77.812	0.71783	-0.48318	0.45679	0.20612	28.8	13111	100
2025-3-27 17:37:9.273	WT901BLE68-01(48591DE3C19B)	-0.354	-1.180	0.089	20.325	-14.832	-269.470	-79.22	26.02	-21.66	-49.392	-28.518	77.812	0.71783	-0.48318	0.45679	0.20612	28.8	13111	100
2025-3-27 17:37:9.273	WT901BLE68-01(48591DE3C19B)	-0.354	-1.251	0.007	18.311	3.235	-279.114	-79.23	23.29	-22.18	-50.176	-28.616	76.440	0.71783	-0.48318	0.45679	0.20612	28.8	13111	100
2025-3-27 17:37:9.302	WT901BLE68-01(48591DE3C19B)	-0.295	-1.251	0.007	18.311	3.235	-279.114	-79.28	20.54	-22.79	-50.176	-28.616	76.440	0.71783	-0.48318	0.45679	0.20612	28.8	13111	100
2025-3-27 17:37:9.302	WT901BLE68-01(48591DE3C19B)	-0.295	-1.377	-0.003	17.700	34.241	-284.119	-79.35	17.81	-23.55	-50.176	-28.616	76.440	0.71783	-0.48318	0.45679	0.20612	28.8	13111	100
2025-3-27 17:37:9.303	WT901BLE68-01(48591DE3C19B)	-0.340	-1.377	-0.003	17.700	34.241	-284.119	-79.45	15.10	-24.46	-50.176	-28.616	76.440	0.71783	-0.48318	0.45679	0.20612	28.8	13111	100
2025-3-27 17:37:9.303	WT901BLE68-01(48591DE3C19B)	-0.340	-1.447	0.035	19.470	74.036	-282.166	-79.54	12.45	-25.55	-50.176	-28.616	76.440	0.71783	-0.48318	0.45679	0.20612	28.8	13111	100
2025-3-27 17:37:9.423	WT901BLE68-01(48591DE3C19B)	-0.389	-1.447	0.035	19.470	74.036	-282.166	-79.62	9.84	-26.82	-50.176	-28.616	76.440	0.71783	-0.48318	0.45679	0.20612	28.8	13111	100
2025-3-27 17:37:9.423	WT901BLE68-01(48591DE3C19B)	-0.389	-1.508	0.087	16.968	119.202	-276.062	-79.68	7.33	-28.29	-50.176	-28.616	76.440	0.71783	-0.48318	0.45679	0.20612	28.8	13111	100
2025-3-27 17:37:9.423	WT901BLE68-01(48591DE3C19B)	-0.462	-1.508	0.087	16.968	119.202	-276.062	-79.72	4.89	-29.96	-50.176	-28.616	76.440	0.71783	-0.48318	0.45679	0.20612	28.8	13111	100
2025-3-27 17:37:9.423	WT901BLE68-01(48591DE3C19B)	-0.462	-1.616	0.124	20.142	169.495	-261.658	-79.68	2.58	-31.85	-50.176	-28.616	76.440	0.71783	-0.48318	0.45679	0.20612	28.8	13111	100
2025-3-27 17:37:9.424	WT901BLE68-01(48591DE3C19B)	-0.593	-1.616	0.124	20.142	169.495	-261.658	-79.57	0.40	-33.97	-50.176	-28.616	76.440	0.71783	-0.48318	0.45679	0.20612	28.8	13111	100
2025-3-27 17:37:9.424	WT901BLE68-01(48591DE3C19B)	-0.593	-1.652	0.130	33.020	208.618	-243.591	-79.32	-1.63	-36.25	-50.176	-28.616	76.440	0.71783	-0.48318	0.45679	0.20612	28.8	13111	100
2025-3-27 17:37:9.424	WT901BLE68-01(48591DE3C19B)	-0.667	-1.652	0.130	33.020	208.618	-243.591	-78.91	-3.51	-38.72	-50.176	-28.616	76.440	0.71783	-0.48318	0.45679	0.20612	28.8	13111	100
2025-3-27 17:37:9.424	WT901BLE68-01(48591DE3C19B)	-0.667	-1.572	0.083	45.471	222.900	-224.548	-78.37	-5.25	-41.24	-50.176	-28.616	76.440	0.71783	-0.48318	0.45679	0.20612	28.8	13111	100
2025-3-27 17:37:9.425	WT901BLE68-01(48591DE3C19B)	-0.702	-1.572	0.083	45.471	222.900	-224.548	-77.70	-6.84	-43.83	-50.176	-28.616	76.440	0.71783	-0.48318	0.45679	0.20612	28.8	13111	100
2025-3-27 17:37:9.425	WT901BLE68-01(48591DE3C19B)	-0.702	-1.479	0.012	55.237	214.233	-202.026	-76.92	-8.29	-46.36	-50.176	-28.616	76.440	0.71783	-0.48318	0.45679	0.20612	28.8	13111	100
2025-3-27 17:37:9.425	WT901BLE68-01(48591DE3C19B)	-0.733	-1.479	0.012	55.237	214.233	-202.026	-76.04	-9.60	-48.85	-50.176	-28.616	76.440	0.71783	-0.48318	0.45679	0.20612	28.8	13111	100
2025-3-27 17:37:9.425	WT901BLE68-01(48591DE3C19B)	-0.733	-1.375	-0.047	61.218	186.035	-176.208	-75.11	-10.76	-51.17	-50.176	-28.616	76.440	0.71783	-0.48318	0.45679	0.20612	28.8	13111	100
2025-3-27 17:37:9.483	WT901BLE68-01(48591DE3C19B)	-0.755	-1.375	-0.047	61.218	186.035	-176.208	-74.16	-11.79	-53.35	-50.176	-28.616	76.440	0.71783	-0.48318	0.45679	0.20612	28.8	13111	100
2025-3-27 17:37:9.483	WT901BLE68-01(48591DE3C19B)	-0.755	-1.267	-0.069	60.303	142.578	-147.705	-73.22	-12.70	-55.28	-50.176	-28.616	76.440	0.71783	-0.48318	0.45679	0.20612	28.8	13111	100
2025-3-27 17:37:9.483	WT901BLE68-01(48591DE3C19B)	-0.773	-1.267	-0.069	60.303	142.578	-147.705	-72.33	-13.50	-56.97	-50.176	-28.616	76.440	0.71783	-0.48318	0.45679	0.20612	28.8	13111	100
2025-3-27 17:37:9.483	WT901BLE68-01(48591DE3C19B)	-0.773	-1.174	-0.063	55.359	90.515	-119.995	-71.53	-14.22	-58.37	-50.176	-28.616	76.440	0.71783	-0.48318	0.45679	0.20612	28.8	13111	100
2025-3-27 17:37:9.546	WT901BLE68-01(48591DE3C19B)	-0.748	-1.174	-0.063	55.359	90.515	-119.995	-70.80	-14.86	-59.48	-50.176	-28.616	76.440	0.66302	-0.54892	0.19260	-0.47104	28.8	13111	100
2025-3-27 17:37:9.546	WT901BLE68-01(48591DE3C19B)	-0.748	-1.089	-0.049	48.706	41.077	-94.055	-70.18	-15.44	-60.30	-50.176	-28.616	76.440	0.66302	-0.54892	0.19260	-0.47104	28.8	13111	100
2025-3-27 17:37:9.546	WT901BLE68-01(48591DE3C19B)	-0.689	-1.089	-0.049	48.706	41.077	-94.055	-69.67	-15.97	-60.85	-50.176	-28.616	76.440	0.66302	-0.54892	0.19260	-0.47104	28.8	13111	100
2025-3-27 17:37:9.547	WT901BLE68-01(48591DE3C19B)	-0.689	-1.033	-0.063	42.358	5.554	-72.266	-69.25	-16.45	-61.18	-50.176	-28.616	76.440	0.66302	-0.54892	0.19260	-0.47104	28.8	13111	100
2025-3-27 17:37:9.547	WT901BLE68-01(48591DE3C19B)	-0.606	-1.033	-0.063	42.358	5.554	-72.266	-68.91	-16.89	-61.30	-50.176	-28.616	76.440	0.66302	-0.54892	0.19260	-0.47104	28.8	13111	100
2025-3-27 17:37:9.547	WT901BLE68-01(48591DE3C19B)	-0.606	-0.986	-0.105	38.025	-13.611	-56.519	-68.64	-17.28	-61.30	-50.176	-28.616	76.440	0.66302	-0.54892	0.19260	-0.47104	28.8	13111	100
2025-3-27 17:37:9.547	WT901BLE68-01(48591DE3C19B)	-0.557	-0.986	-0.105	38.025	-13.611	-56.519	-68.43	-17.63	-61.18	-50.176	-28.616	76.440	0.66302	-0.54892	0.19260	-0.47104	28.8	13111	100
2025-3-27 17:37:9.547	WT901BLE68-01(48591DE3C19B)	-0.557	-0.942	-0.107	34.790	-21.484	-45.776	-68.26	-17.94	-61.01	-50.176	-28.616	76.440	0.66302	-0.54892	0.19260	-0.47104	28.8	13111	100
2025-3-27 17:37:9.603	WT901BLE68-01(48591DE3C19B)	-0.561	-0.942	-0.107	34.790	-21.484	-45.776	-68.13	-18.21	-60.77	-50.176	-28.616	76.440	0.66302	-0.54892	0.19260	-0.47104	28.8	13111	100
2025-3-27 17:37:9.603	WT901BLE68-01(48591DE3C19B)	-0.561	-0.875	-0.074	31.921	-25.757	-37.964	-68.02	-18.45	-60.50	-50.176	-28.616	76.440	0.66302	-0.54892	0.19260	-0.47104	28.8	13111	100
2025-3-27 17:37:9.603	WT901BLE68-01(48591DE3C19B)	-0.547	-0.875	-0.074	31.921	-25.757	-37.964	-67.94	-18.67	-60.19	-50.176	-28.616	76.440	0.66302	-0.54892	0.19260	-0.47104	28.8	13111	100
2025-3-27 17:37:9.603	WT901BLE68-01(48591DE3C19B)	-0.547	-0.813	0.004	26.855	-26.123	-29.297	-67.92	-18.80	-59.84	-50.176	-28.616	76.440	0.66302	-0.54892	0.19260	-0.47104	28.8	13111	100
2025-3-27 17:37:9.632	WT901BLE68-01(48591DE3C19B)	-0.511	-0.813	0.004	26.855	-26.123	-29.297	-67.91	-18.92	-59.50	-50.176	-28.616	76.440	0.66302	-0.54892	0.19260	-0.47104	28.8	13111	100
2025-3-27 17:37:9.632	WT901BLE68-01(48591DE3C19B)	-0.511	-0.813	0.052	19.470	-16.968	-17.273	-67.95	-18.90	-59.20	-50.176	-28.616	76.440	0.66302	-0.54892	0.19260	-0.47104	28.8	13111	100
2025-3-27 17:37:9.632	WT901BLE68-01(48591DE3C19B)	-0.488	-0.813	0.052	19.470	-16.968	-17.273	-67.99	-18.88	-58.90	-50.176	-28.616	76.440	0.66302	-0.54892	0.19260	-0.47104	28.8	13111	100
2025-3-27 17:37:9.632	WT901BLE68-01(48591DE3C19B)	-0.488	-0.845	0.059	13.306	-9.888	-2.441	-68.08	-18.69	-58.61	-50.176	-28.616	76.440	0.66302	-0.54892	0.19260	-0.47104	28.8	13111	100
2025-3-27 17:37:9.662	WT901BLE68-01(48591DE3C19B)	-0.447	-0.845	0.059	13.306	-9.888	-2.441	-68.18	-18.51	-58.33	-50.176	-28.616	76.440	0.66302	-0.54892	0.19260	-0.47104	28.8	13111	100
2025-3-27 17:37:9.662	WT901BLE68-01(48591DE3C19B)	-0.447	-0.902	0.070	6.348	-7.080	14.282	-68.34	-18.15	-58.01	-50.176	-28.616	76.440	0.66302	-0.54892	0.19260	-0.47104	28.8	13111	100
2025-3-27 17:37:9.662	WT901BLE68-01(48591DE3C19B)	-0.424	-0.902	0.070	6.348	-7.080	14.282	-68.50	-17.80	-57.70	-50.176	-28.616	76.440	0.66302	-0.54892	0.19260	-0.47104	28.8	13111	100
2025-3-27 17:37:9.662	WT901BLE68-01(48591DE3C19B)	-0.424	-0.977	0.088	-0.061	-5.554	30.823	-68.73	-17.29	-57.34	-50.176	-28.616	76.440	0.66302	-0.54892	0.19260	-0.47104	28.8	13111	100
2025-3-27 17:37:9.723	WT901BLE68-01(48591DE3C19B)	-0.341	-0.977	0.088	-0.061	-5.554	30.823	-68.95	-16.79	-57.00	-50.176	-28.616	76.440	0.66302	-0.54892	0.19260	-0.47104	28.8	13111	100
2025-3-27 17:37:9.723	WT901BLE68-01(48591DE3C19B)	-0.341	-1.034	0.101	-2.380	-5.005	43.945	-69.20	-16.17	-56.62	-73.696	-22.638	73.010	0.66302	-0.54892	0.19260	-0.47104	28.8	13111	100
2025-3-27 17:37:9.723	WT901BLE68-01(48591DE3C19B)	-0.266	-1.034	0.101	-2.380	-5.005	43.945	-69.43	-15.55	-56.25	-73.696	-22.638	73.010	0.66302	-0.54892	0.19260	-0.47104	28.8	13111	100
2025-3-27 17:37:9.723	WT901BLE68-01(48591DE3C19B)	-0.266	-0.985	0.130	-3.845	-4.639	54.749	-69.69	-14.84	-55.85	-73.696	-22.638	73.010	0.66302	-0.54892	0.19260	-0.47104	28.8	13111	100
2025-3-27 17:37:9.752	WT901BLE68-01(48591DE3C19B)	-0.260	-0.985	0.130	-3.845	-4.639	54.749	-69.92	-14.13	-55.47	-73.696	-22.638	73.010	0.66302	-0.54892	0.19260	-0.47104	28.8	13111	100
2025-3-27 17:37:9.752	WT901BLE68-01(48591DE3C19B)	-0.260	-0.927	0.153	-8.423	-13.245	57.434	-70.22	-13.43	-55.01	-73.696	-22.638	73.010	0.66302	-0.54892	0.19260	-0.47104	28.8	13111	100
2025-3-27 17:37:9.752	WT901BLE68-01(48591DE3C19B)	-0.216	-0.927	0.153	-8.423	-13.245	57.434	-70.50	-12.74	-54.55	-73.696	-22.638	73.010	0.66302	-0.54892	0.19260	-0.47104	28.8	13111	100
2025-3-27 17:37:9.752	WT901BLE68-01(48591DE3C19B)	-0.216	-0.823	0.144	-9.521	-27.222	57.495	-70.81	-12.10	-53.98	-73.696	-22.638	73.010	0.66302	-0.54892	0.19260	-0.47104	28.8	13111	100
2025-3-27 17:37:9.853	WT901BLE68-01(48591DE3C19B)	-0.098	-0.823	0.144	-9.521	-27.222	57.495	-71.11	-11.45	-53.41	-73.696	-22.638	73.010	0.66302	-0.54892	0.19260	-0.47104	28.8	13111	100
2025-3-27 17:37:9.854	WT901BLE68-01(48591DE3C19B)	-0.098	-0.794	0.173	-16.052	-31.860	54.626	-71.47	-10.86	-52.82	-73.696	-22.638	73.010	0.66302	-0.54892	0.19260	-0.47104	28.8	13111	100
2025-3-27 17:37:9.854	WT901BLE68-01(48591DE3C19B)	-0.123	-0.794	0.173	-16.052	-31.860	54.626	-71.81	-10.28	-52.24	-73.696	-22.638	73.010	0.66302	-0.54892	0.19260	-0.47104	28.8	13111	100
2025-3-27 17:37:9.855	WT901BLE68-01(48591DE3C19B)	-0.123	-1.165	0.134	-35.034	-20.447	53.467	-72.31	-9.67	-51.79	-73.696	-22.638	73.010	0.66302	-0.54892	0.19260	-0.47104	28.8	13111	100
2025-3-27 17:37:9.876	WT901BLE68-01(48591DE3C19B)	-0.204	-1.165	0.134	-35.034	-20.447	53.467	-72.80	-9.07	-51.36	-73.696	-22.638	73.010	0.66302	-0.54892	0.19260	-0.47104	28.8	13111	100
2025-3-27 17:37:9.876	WT901BLE68-01(48591DE3C19B)	-0.204	-1.733	-0.049	-40.527	-5.371	48.279	-73.31	-8.49	-51.09	-73.696	-22.638	73.010	0.66302	-0.54892	0.19260	-0.47104	28.8	13111	100
2025-3-27 17:37:9.877	WT901BLE68-01(48591DE3C19B)	-0.392	-1.733	-0.049	-40.527	-5.371	48.279	-73.83	-7.92	-50.83	-73.696	-22.638	73.010	0.66302	-0.54892	0.19260	-0.47104	28.8	13111	100
2025-3-27 17:37:9.877	WT901BLE68-01(48591DE3C19B)	-0.392	-1.918	-0.081	-30.884	-9.338	46.570	-74.25	-7.38	-50.55	-73.696	-22.638	73.010	0.66302	-0.54892	0.19260	-0.47104	28.8	13111	100
2025-3-27 17:37:9.877	WT901BLE68-01(48591DE3C19B)	-0.508	-1.918	-0.081	-30.884	-9.338	46.570	-74.67	-6.84	-50.27	-73.696	-22.638	73.010	0.66302	-0.54892	0.19260	-0.47104	28.8	13111	100
2025-3-27 17:37:9.877	WT901BLE68-01(48591DE3C19B)	-0.508	-1.343	0.161	-25.513	-38.635	57.434	-75.08	-6.27	-49.68	-73.696	-22.638	73.010	0.66302	-0.54892	0.19260	-0.47104	28.8	13111	100
2025-3-27 17:37:9.877	WT901BLE68-01(48591DE3C19B)	-0.447	-1.343	0.161	-25.513	-38.635	57.434	-75.46	-5.70	-49.10	-73.696	-22.638	73.010	0.66302	-0.54892	0.19260	-0.47104	28.8	13111	100
2025-3-27 17:37:9.877	WT901BLE68-01(48591DE3C19B)	-0.447	-0.753	0.372	-47.119	-71.838	81.848	-76.08	-4.96	-48.14	-73.696	-22.638	73.010	0.66302	-0.54892	0.19260	-0.47104	28.8	13111	100
2025-3-27 17:37:9.933	WT901BLE68-01(48591DE3C19B)	-0.262	-0.753	0.372	-47.119	-71.838	81.848	-76.68	-4.21	-47.20	-73.696	-22.638	73.010	0.66302	-0.54892	0.19260	-0.47104	28.8	13111	100
2025-3-27 17:37:9.933	WT901BLE68-01(48591DE3C19B)	-0.262	-0.628	0.336	-73.792	-114.990	123.596	-77.55	-3.14	-45.76	-73.696	-22.638	73.010	0.66302	-0.54892	0.19260	-0.47104	28.8	13111	100
2025-3-27 17:37:9.933	WT901BLE68-01(48591DE3C19B)	-0.068	-0.628	0.336	-73.792	-114.990	123.596	-78.38	-2.06	-44.34	-73.696	-22.638	73.010	0.71332	-0.59030	0.22546	-0.30295	28.8	13111	100
2025-3-27 17:37:9.933	WT901BLE68-01(48591DE3C19B)	-0.068	-0.873	0.216	-94.360	-154.358	157.410	-79.38	-0.71	-42.50	-73.696	-22.638	73.010	0.71332	-0.59030	0.22546	-0.30295	28.8	13111	100
2025-3-27 17:37:9.963	WT901BLE68-01(48591DE3C19B)	0.021	-0.873	0.216	-94.360	-154.358	157.410	-80.33	0.65	-40.69	-73.696	-22.638	73.010	0.71332	-0.59030	0.22546	-0.30295	28.8	13111	100
2025-3-27 17:37:9.963	WT901BLE68-01(48591DE3C19B)	0.021	-1.260	0.065	-91.248	-178.711	191.467	-81.18	2.33	-38.62	-73.696	-22.638	73.010	0.71332	-0.59030	0.22546	-0.30295	28.8	13111	100
2025-3-27 17:37:9.963	WT901BLE68-01(48591DE3C19B)	-0.056	-1.260	0.065	-91.248	-178.711	191.467	-81.99	4.02	-36.58	-73.696	-22.638	73.010	0.71332	-0.59030	0.22546	-0.30295	28.8	13111	100
2025-3-27 17:37:9.964	WT901BLE68-01(48591DE3C19B)	-0.056	-1.563	0.007	-76.782	-185.120	220.093	-82.56	5.98	-34.48	-73.696	-22.638	73.010	0.71332	-0.59030	0.22546	-0.30295	28.8	13111	100
2025-3-27 17:37:10.23	WT901BLE68-01(48591DE3C19B)	-0.069	-1.563	0.007	-76.782	-185.120	220.093	-83.08	7.95	-32.38	-73.696	-22.638	73.010	0.71332	-0.59030	0.22546	-0.30295	28.8	13111	100
2025-3-27 17:37:10.23	WT901BLE68-01(48591DE3C19B)	-0.069	-1.928	-0.102	-62.500	-171.509	239.685	-83.40	10.12	-30.42	-73.696	-22.638	73.010	0.71332	-0.59030	0.22546	-0.30295	28.8	13111	100
2025-3-27 17:37:10.23	WT901BLE68-01(48591DE3C19B)	0.128	-1.928	-0.102	-62.500	-171.509	239.685	-83.64	12.29	-28.46	-73.696	-22.638	73.010	0.71332	-0.59030	0.22546	-0.30295	28.8	13111	100
2025-3-27 17:37:10.23	WT901BLE68-01(48591DE3C19B)	0.128	-1.916	-0.068	-31.616	-126.953	248.718	-83.62	14.57	-26.94	-73.696	-22.638	73.010	0.71332	-0.59030	0.22546	-0.30295	28.8	13111	100
2025-3-27 17:37:10.24	WT901BLE68-01(48591DE3C19B)	0.199	-1.916	-0.068	-31.616	-126.953	248.718	-83.53	16.84	-25.41	-73.696	-22.638	73.010	0.71332	-0.59030	0.22546	-0.30295	28.8	13111	100
2025-3-27 17:37:10.24	WT901BLE68-01(48591DE3C19B)	0.199	-1.594	0.148	-17.578	-80.933	255.432	-83.39	19.20	-24.34	-73.696	-22.638	73.010	0.71332	-0.59030	0.22546	-0.30295	28.8	13111	100
2025-3-27 17:37:10.24	WT901BLE68-01(48591DE3C19B)	0.009	-1.594	0.148	-17.578	-80.933	255.432	-83.19	21.53	-23.25	-73.696	-22.638	73.010	0.71332	-0.59030	0.22546	-0.30295	28.8	13111	100
2025-3-27 17:37:10.24	WT901BLE68-01(48591DE3C19B)	-0.066	-1.676	0.356	-25.513	-53.833	259.949	-83.13	23.93	-22.43	-73.696	-22.638	73.010	0.71332	-0.59030	0.22546	-0.30295	28.8	13111	100
2025-3-27 17:37:10.83	WT901BLE68-01(48591DE3C19B)	-0.066	-1.845	0.354	-16.418	-41.870	261.536	-83.01	26.32	-21.65	-73.696	-22.638	73.010	0.71332	-0.59030	0.22546	-0.30295	28.8	13111	100
2025-3-27 17:37:10.83	WT901BLE68-01(48591DE3C19B)	0.117	-1.845	0.354	-16.418	-41.870	261.536	-82.82	28.71	-20.92	-73.696	-22.638	73.010	0.71332	-0.59030	0.22546	-0.30295	28.8	13111	100
2025-3-27 17:37:10.83	WT901BLE68-01(48591DE3C19B)	0.117	-1.772	0.299	-5.676	-15.869	258.484	-82.61	31.08	-20.32	-73.696	-22.638	73.010	0.71332	-0.59030	0.22546	-0.30295	28.8	13111	100
2025-3-27 17:37:10.84	WT901BLE68-01(48591DE3C19B)	-0.022	-1.772	0.299	-5.676	-15.869	258.484	-82.40	33.44	-19.85	-73.696	-22.638	73.010	0.71332	-0.59030	0.22546	-0.30295	28.8	13111	100
2025-3-27 17:37:10.112	WT901BLE68-01(48591DE3C19B)	-0.022	-1.714	0.243	-10.681	10.437	256.287	-82.27	35.78	-19.51	-54.684	-28.322	78.694	0.71332	-0.59030	0.22546	-0.30295	28.8	13111	100
2025-3-27 17:37:10.113	WT901BLE68-01(48591DE3C19B)	-0.092	-1.714	0.243	-10.681	10.437	256.287	-82.23	38.12	-19.33	-54.684	-28.322	78.694	0.71332	-0.59030	0.22546	-0.30295	28.8	13111	100
2025-3-27 17:37:10.113	WT901BLE68-01(48591DE3C19B)	-0.092	-1.710	0.235	-10.315	1.404	246.277	-82.16	40.39	-19.08	-54.684	-28.322	78.694	0.71332	-0.59030	0.22546	-0.30295	28.8	13111	100
2025-3-27 17:37:10.113	WT901BLE68-01(48591DE3C19B)	-0.044	-1.710	0.235	-10.315	1.404	246.277	-82.02	42.59	-18.78	-54.684	-28.322	78.694	0.71332	-0.59030	0.22546	-0.30295	28.8	13111	100
2025-3-27 17:37:10.173	WT901BLE68-01(48591DE3C19B)	-0.044	-1.613	0.283	-5.981	-19.348	236.389	-81.75	44.73	-18.31	-54.684	-28.322	78.694	0.71332	-0.59030	0.22546	-0.30295	28.8	13111	100
2025-3-27 17:37:10.173	WT901BLE68-01(48591DE3C19B)	-0.019	-1.613	0.283	-5.981	-19.348	236.389	-81.33	46.77	-17.68	-54.684	-28.322	78.694	0.71332	-0.59030	0.22546	-0.30295	28.8	13111	100
2025-3-27 17:37:10.173	WT901BLE68-01(48591DE3C19B)	-0.019	-1.462	0.302	1.221	-32.227	225.281	-80.74	48.74	-16.92	-54.684	-28.322	78.694	0.71332	-0.59030	0.22546	-0.30295	28.8	13111	100
2025-3-27 17:37:10.173	WT901BLE68-01(48591DE3C19B)	-0.010	-1.462	0.302	1.221	-32.227	225.281	-80.00	50.63	-16.01	-54.684	-28.322	78.694	0.71332	-0.59030	0.22546	-0.30295	28.8	13111	100
2025-3-27 17:37:10.202	WT901BLE68-01(48591DE3C19B)	-0.010	-1.292	0.306	8.423	-37.537	211.182	-79.12	52.42	-15.00	-54.684	-28.322	78.694	0.71332	-0.59030	0.22546	-0.30295	28.8	13111	100
2025-3-27 17:37:10.202	WT901BLE68-01(48591DE3C19B)	0.017	-1.292	0.306	8.423	-37.537	211.182	-78.10	54.12	-13.88	-54.684	-28.322	78.694	0.71332	-0.59030	0.22546	-0.30295	28.8	13111	100
2025-3-27 17:37:10.202	WT901BLE68-01(48591DE3C19B)	0.017	-1.097	0.300	17.090	-35.339	192.505	-76.98	55.71	-12.72	-54.684	-28.322	78.694	0.71332	-0.59030	0.22546	-0.30295	28.8	13111	100
2025-3-27 17:37:10.203	WT901BLE68-01(48591DE3C19B)	0.063	-1.097	0.300	17.090	-35.339	192.505	-75.76	57.18	-11.51	-54.684	-28.322	78.694	0.71332	-0.59030	0.22546	-0.30295	28.8	13111	100
2025-3-27 17:37:10.232	WT901BLE68-01(48591DE3C19B)	0.063	-0.886	0.272	19.958	-23.743	169.250	-74.56	58.54	-10.37	-54.684	-28.322	78.694	0.71332	-0.59030	0.22546	-0.30295	28.8	13111	100
2025-3-27 17:37:10.232	WT901BLE68-01(48591DE3C19B)	0.102	-0.886	0.272	19.958	-23.743	169.250	-73.39	59.77	-9.30	-54.684	-28.322	78.694	0.71332	-0.59030	0.22546	-0.30295	28.8	13111	100
2025-3-27 17:37:10.233	WT901BLE68-01(48591DE3C19B)	0.102	-0.710	0.240	18.066	-3.723	140.991	-72.39	60.89	-8.42	-54.684	-28.322	78.694	0.71332	-0.59030	0.22546	-0.30295	28.8	13111	100
2025-3-27 17:37:10.233	WT901BLE68-01(48591DE3C19B)	0.061	-0.710	0.240	18.066	-3.723	140.991	-71.60	61.88	-7.77	-54.684	-28.322	78.694	0.71332	-0.59030	0.22546	-0.30295	28.8	13111	100
2025-3-27 17:37:10.323	WT901BLE68-01(48591DE3C19B)	0.061	-0.584	0.217	13.855	16.479	110.229	-71.05	62.75	-7.39	-54.684	-28.322	78.694	0.71332	-0.59030	0.22546	-0.30295	28.8	13111	100
2025-3-27 17:37:10.323	WT901BLE68-01(48591DE3C19B)	-0.004	-0.584	0.217	13.855	16.479	110.229	-70.78	63.50	-7.31	-54.684	-28.322	78.694	0.71332	-0.59030	0.22546	-0.30295	28.8	13111	100
2025-3-27 17:37:10.323	WT901BLE68-01(48591DE3C19B)	-0.004	-0.526	0.214	8.545	28.198	77.637	-70.75	64.11	-7.46	-54.684	-28.322	78.694	0.71332	-0.59030	0.22546	-0.30295	28.8	13111	100
2025-3-27 17:37:10.323	WT901BLE68-01(48591DE3C19B)	-0.053	-0.526	0.214	8.545	28.198	77.637	-70.97	64.58	-7.86	-54.684	-28.322	78.694	0.71332	-0.59030	0.22546	-0.30295	28.8	13111	100
2025-3-27 17:37:10.324	WT901BLE68-01(48591DE3C19B)	-0.053	-0.492	0.218	7.568	28.748	44.983	-71.31	64.89	-8.40	-54.684	-28.322	78.694	0.71332	-0.59030	0.22546	-0.30295	28.8	13111	100
2025-3-27 17:37:10.324	WT901BLE68-01(48591DE3C19B)	-0.071	-0.492	0.218	7.568	28.748	44.983	-71.77	65.05	-9.06	-54.684	-28.322	78.694	0.70581	-0.45822	0.47330	0.26019	28.8	13111	100
2025-3-27 17:37:10.324	WT901BLE68-01(48591DE3C19B)	-0.071	-0.437	0.214	8.850	24.475	13.855	-72.28	65.06	-9.79	-54.684	-28.322	78.694	0.70581	-0.45822	0.47330	0.26019	28.8	13111	100
2025-3-27 17:37:10.324	WT901BLE68-01(48591DE3C19B)	-0.096	-0.437	0.214	8.850	24.475	13.855	-72.83	64.91	-10.58	-54.684	-28.322	78.694	0.70581	-0.45822	0.47330	0.26019	28.8	13111	100
2025-3-27 17:37:10.353	WT901BLE68-01(48591DE3C19B)	-0.096	-0.405	0.230	9.949	17.029	-17.761	-73.37	64.59	-11.37	-54.684	-28.322	78.694	0.70581	-0.45822	0.47330	0.26019	28.8	13111	100
2025-3-27 17:37:10.353	WT901BLE68-01(48591DE3C19B)	-0.145	-0.405	0.230	9.949	17.029	-17.761	-73.89	64.12	-12.14	-54.684	-28.322	78.694	0.70581	-0.45822	0.47330	0.26019	28.8	13111	100
2025-3-27 17:37:10.353	WT901BLE68-01(48591DE3C19B)	-0.145	-0.434	0.285	13.062	3.723	-48.279	-74.31	63.48	-12.83	-54.684	-28.322	78.694	0.70581	-0.45822	0.47330	0.26019	28.8	13111	100
2025-3-27 17:37:10.353	WT901BLE68-01(48591DE3C19B)	-0.153	-0.434	0.285	13.062	3.723	-48.279	-74.62	62.69	-13.43	-54.684	-28.322	78.694	0.70581	-0.45822	0.47330	0.26019	28.8	13111	100
2025-3-27 17:37:10.413	WT901BLE68-01(48591DE3C19B)	-0.153	-0.461	0.278	20.508	-4.883	-76.294	-74.84	61.75	-13.99	-54.684	-28.322	78.694	0.70581	-0.45822	0.47330	0.26019	28.8	13111	100
2025-3-27 17:37:10.413	WT901BLE68-01(48591DE3C19B)	-0.154	-0.461	0.278	20.508	-4.883	-76.294	-74.99	60.68	-14.49	-54.684	-28.322	78.694	0.70581	-0.45822	0.47330	0.26019	28.8	13111	100
2025-3-27 17:37:10.413	WT901BLE68-01(48591DE3C19B)	-0.154	-0.454	0.246	28.503	-8.118	-101.501	-75.08	59.49	-15.00	-54.684	-28.322	78.694	0.70581	-0.45822	0.47330	0.26019	28.8	13111	100
2025-3-27 17:37:10.413	WT901BLE68-01(48591DE3C19B)	-0.146	-0.454	0.246	28.503	-8.118	-101.501	-75.14	58.18	-15.52	-54.684	-28.322	78.694	0.70581	-0.45822	0.47330	0.26019	28.8	13111	100
2025-3-27 17:37:10.447	WT901BLE68-01(48591DE3C19B)	-0.146	-0.481	0.215	33.203	-5.005	-124.512	-75.20	56.78	-16.08	-54.684	-28.322	78.694	0.70581	-0.45822	0.47330	0.26019	28.8	13111	100
2025-3-27 17:37:10.447	WT901BLE68-01(48591DE3C19B)	-0.113	-0.481	0.215	33.203	-5.005	-124.512	-75.28	55.29	-16.69	-54.684	-28.322	78.694	0.70581	-0.45822	0.47330	0.26019	28.8	13111	100
2025-3-27 17:37:10.447	WT901BLE68-01(48591DE3C19B)	-0.113	-0.562	0.193	39.429	5.981	-144.043	-75.40	53.72	-17.41	-54.684	-28.322	78.694	0.70581	-0.45822	0.47330	0.26019	28.8	13111	100
2025-3-27 17:37:10.447	WT901BLE68-01(48591DE3C19B)	-0.044	-0.562	0.193	39.429	5.981	-144.043	-75.56	52.08	-18.21	-54.684	-28.322	78.694	0.70581	-0.45822	0.47330	0.26019	28.8	13111	100
2025-3-27 17:37:10.474	WT901BLE68-01(48591DE3C19B)	-0.044	-0.621	0.139	48.340	26.489	-160.583	-75.77	50.39	-19.17	-54.684	-28.322	78.694	0.70581	-0.45822	0.47330	0.26019	28.8	13111	100
2025-3-27 17:37:10.474	WT901BLE68-01(48591DE3C19B)	0.021	-0.621	0.139	48.340	26.489	-160.583	-76.04	48.66	-20.26	-54.684	-28.322	78.694	0.70581	-0.45822	0.47330	0.26019	28.8	13111	100
2025-3-27 17:37:10.474	WT901BLE68-01(48591DE3C19B)	0.021	-0.677	0.049	51.453	57.922	-177.490	-76.43	46.88	-21.55	-54.684	-28.322	78.694	0.70581	-0.45822	0.47330	0.26019	28.8	13111	100
2025-3-27 17:37:10.474	WT901BLE68-01(48591DE3C19B)	-0.012	-0.677	0.049	51.453	57.922	-177.490	-76.93	45.06	-23.03	-54.684	-28.322	78.694	0.70581	-0.45822	0.47330	0.26019	28.8	13111	100
2025-3-27 17:37:10.532	WT901BLE68-01(48591DE3C19B)	-0.012	-0.851	-0.018	51.208	91.125	-204.590	-77.53	43.14	-24.71	-54.684	-28.322	78.694	0.70581	-0.45822	0.47330	0.26019	28.8	13111	100
2025-3-27 17:37:10.533	WT901BLE68-01(48591DE3C19B)	-0.190	-0.851	-0.018	51.208	91.125	-204.590	-78.22	41.12	-26.55	-56.056	-26.558	81.046	0.70581	-0.45822	0.47330	0.26019	28.8	13111	100
2025-3-27 17:37:10.533	WT901BLE68-01(48591DE3C19B)	-0.190	-1.121	0.006	49.866	113.342	-236.694	-79.05	38.82	-28.66	-56.056	-26.558	81.046	0.70581	-0.45822	0.47330	0.26019	28.8	13111	100
2025-3-27 17:37:10.533	WT901BLE68-01(48591DE3C19B)	-0.603	-1.121	0.006	49.866	113.342	-236.694	-79.76	36.52	-30.65	-56.056	-26.558	81.046	0.70581	-0.45822	0.47330	0.26019	28.8	13111	100
2025-3-27 17:37:10.563	WT901BLE68-01(48591DE3C19B)	-0.603	-1.586	0.129	49.683	102.600	-269.775	-80.32	33.88	-32.48	-56.056	-26.558	81.046	0.70581	-0.45822	0.47330	0.26019	28.8	13111	100
2025-3-27 17:37:10.563	WT901BLE68-01(48591DE3C19B)	-1.022	-1.586	0.129	49.683	102.600	-269.775	-80.76	31.27	-34.20	-56.056	-26.558	81.046	0.70581	-0.45822	0.47330	0.26019	28.8	13111	100
2025-3-27 17:37:10.563	WT901BLE68-01(48591DE3C19B)	-1.022	-2.094	0.248	59.204	69.641	-314.270	-80.85	28.19	-35.56	-56.056	-26.558	81.046	0.70581	-0.45822	0.47330	0.26019	28.8	13111	100
2025-3-27 17:37:10.563	WT901BLE68-01(48591DE3C19B)	-1.031	-2.094	0.248	59.204	69.641	-314.270	-80.86	25.13	-36.86	-56.056	-26.558	81.046	0.70581	-0.45822	0.47330	0.26019	28.8	13111	100
2025-3-27 17:37:10.622	WT901BLE68-01(48591DE3C19B)	-1.031	-2.231	0.267	77.515	57.312	-348.145	-80.58	21.76	-38.06	-56.056	-26.558	81.046	0.70581	-0.45822	0.47330	0.26019	28.8	13111	100
2025-3-27 17:37:10.623	WT901BLE68-01(48591DE3C19B)	-0.899	-2.231	0.267	77.515	57.312	-348.145	-80.24	18.42	-39.24	-56.056	-26.558	81.046	0.70581	-0.45822	0.47330	0.26019	28.8	13111	100
2025-3-27 17:37:10.623	WT901BLE68-01(48591DE3C19B)	-0.899	-2.083	0.165	86.121	68.726	-359.131	-79.79	15.02	-40.55	-56.056	-26.558	81.046	0.70581	-0.45822	0.47330	0.26019	28.8	13111	100
2025-3-27 17:37:10.623	WT901BLE68-01(48591DE3C19B)	-0.738	-2.083	0.165	86.121	68.726	-359.131	-79.27	11.66	-41.86	-56.056	-26.558	81.046	0.70581	-0.45822	0.47330	0.26019	28.8	13111	100
2025-3-27 17:37:10.652	WT901BLE68-01(48591DE3C19B)	-0.738	-2.070	0.018	94.177	90.698	-344.666	-78.64	8.52	-43.37	-56.056	-26.558	81.046	0.70581	-0.45822	0.47330	0.26019	28.8	13111	100
2025-3-27 17:37:10.652	WT901BLE68-01(48591DE3C19B)	-0.599	-2.070	0.018	94.177	90.698	-344.666	-77.94	5.41	-44.91	-56.056	-26.558	81.046	0.70581	-0.45822	0.47330	0.26019	28.8	13111	100
2025-3-27 17:37:10.652	WT901BLE68-01(48591DE3C19B)	-0.599	-1.805	-0.057	107.117	110.107	-312.927	-77.05	2.69	-46.59	-56.056	-26.558	81.046	0.70581	-0.45822	0.47330	0.26019	28.8	13111	100
2025-3-27 17:37:10.653	WT901BLE68-01(48591DE3C19B)	-0.494	-1.805	-0.057	107.117	110.107	-312.927	-76.09	0.01	-48.31	-56.056	-26.558	81.046	0.70581	-0.45822	0.47330	0.26019	28.8	13111	100
2025-3-27 17:37:10.713	WT901BLE68-01(48591DE3C19B)	-0.494	-1.455	-0.130	94.910	136.414	-276.917	-75.18	-2.21	-50.23	-56.056	-26.558	81.046	0.70581	-0.45822	0.47330	0.26019	28.8	13111	100
2025-3-27 17:37:10.713	WT901BLE68-01(48591DE3C19B)	-0.458	-1.455	-0.130	94.910	136.414	-276.917	-74.21	-4.39	-52.18	-56.056	-26.558	81.046	0.70581	-0.45822	0.47330	0.26019	28.8	13111	100
2025-3-27 17:37:10.713	WT901BLE68-01(48591DE3C19B)	-0.458	-1.258	-0.133	74.951	174.683	-237.549	-73.35	-6.05	-54.42	-56.056	-26.558	81.046	0.70581	-0.45822	0.47330	0.26019	28.8	13111	100
2025-3-27 17:37:10.713	WT901BLE68-01(48591DE3C19B)	-0.511	-1.258	-0.133	74.951	174.683	-237.549	-72.43	-7.66	-56.68	-56.056	-26.558	81.046	0.70581	-0.45822	0.47330	0.26019	28.8	13111	100
2025-3-27 17:37:10.714	WT901BLE68-01(48591DE3C19B)	-0.511	-1.227	0.037	67.200	200.439	-195.984	-71.53	-8.76	-59.08	-56.056	-26.558	81.046	0.70581	-0.45822	0.47330	0.26019	28.8	13111	100
2025-3-27 17:37:10.714	WT901BLE68-01(48591DE3C19B)	-0.597	-1.227	0.037	67.200	200.439	-195.984	-70.58	-9.81	-61.49	-56.056	-26.558	81.046	0.70581	-0.45822	0.47330	0.26019	28.8	13111	100
2025-3-27 17:37:10.714	WT901BLE68-01(48591DE3C19B)	-0.597	-1.265	0.133	62.866	196.655	-152.100	-69.68	-10.41	-63.73	-56.056	-26.558	81.046	0.66324	-0.51843	0.23846	-0.48413	28.8	13111	100
2025-3-27 17:37:10.714	WT901BLE68-01(48591DE3C19B)	-0.653	-1.265	0.133	62.866	196.655	-152.100	-68.75	-10.98	-65.98	-56.056	-26.558	81.046	0.66324	-0.51843	0.23846	-0.48413	28.8	13111	100
2025-3-27 17:37:10.773	WT901BLE68-01(48591DE3C19B)	-0.653	-1.262	0.017	62.683	182.434	-113.037	-67.87	-11.19	-67.95	-56.056	-26.558	81.046	0.66324	-0.51843	0.23846	-0.48413	28.8	13111	100
2025-3-27 17:37:10.773	WT901BLE68-01(48591DE3C19B)	-0.720	-1.262	0.017	62.683	182.434	-113.037	-66.98	-11.37	-69.92	-56.056	-26.558	81.046	0.66324	-0.51843	0.23846	-0.48413	28.8	13111	100
2025-3-27 17:37:10.773	WT901BLE68-01(48591DE3C19B)	-0.720	-1.241	-0.178	62.500	159.668	-85.693	-66.18	-11.36	-71.55	-56.056	-26.558	81.046	0.66324	-0.51843	0.23846	-0.48413	28.8	13111	100
2025-3-27 17:37:10.773	WT901BLE68-01(48591DE3C19B)	-0.757	-1.241	-0.178	62.500	159.668	-85.693	-65.39	-11.33	-73.19	-56.056	-26.558	81.046	0.66324	-0.51843	0.23846	-0.48413	28.8	13111	100
2025-3-27 17:37:10.802	WT901BLE68-01(48591DE3C19B)	-0.757	-1.130	-0.332	59.814	125.549	-67.078	-64.70	-11.25	-74.41	-56.056	-26.558	81.046	0.66324	-0.51843	0.23846	-0.48413	28.8	13111	100
2025-3-27 17:37:10.802	WT901BLE68-01(48591DE3C19B)	-0.862	-1.130	-0.332	59.814	125.549	-67.078	-64.04	-11.15	-75.63	-56.056	-26.558	81.046	0.66324	-0.51843	0.23846	-0.48413	28.8	13111	100
2025-3-27 17:37:10.802	WT901BLE68-01(48591DE3C19B)	-0.862	-1.029	-0.372	53.894	83.374	-48.706	-63.55	-11.06	-76.37	-56.056	-26.558	81.046	0.66324	-0.51843	0.23846	-0.48413	28.8	13111	100
2025-3-27 17:37:10.803	WT901BLE68-01(48591DE3C19B)	-0.934	-1.029	-0.372	53.894	83.374	-48.706	-63.07	-10.96	-77.11	-56.056	-26.558	81.046	0.66324	-0.51843	0.23846	-0.48413	28.8	13111	100
2025-3-27 17:37:10.832	WT901BLE68-01(48591DE3C19B)	-0.934	-0.969	-0.362	44.800	27.100	-35.950	-62.80	-11.00	-77.27	-56.056	-26.558	81.046	0.66324	-0.51843	0.23846	-0.48413	28.8	13111	100
2025-3-27 17:37:10.833	WT901BLE68-01(48591DE3C19B)	-0.862	-0.969	-0.362	44.800	27.100	-35.950	-62.53	-11.03	-77.43	-56.056	-26.558	81.046	0.66324	-0.51843	0.23846	-0.48413	28.8	13111	100
2025-3-27 17:37:10.833	WT901BLE68-01(48591DE3C19B)	-0.862	-0.919	-0.302	32.654	-29.724	-23.926	-62.51	-11.21	-77.01	-56.056	-26.558	81.046	0.66324	-0.51843	0.23846	-0.48413	28.8	13111	100
2025-3-27 17:37:10.833	WT901BLE68-01(48591DE3C19B)	-0.748	-0.919	-0.302	32.654	-29.724	-23.926	-62.49	-11.39	-76.60	-56.056	-26.558	81.046	0.66324	-0.51843	0.23846	-0.48413	28.8	13111	100
2025-3-27 17:37:10.893	WT901BLE68-01(48591DE3C19B)	-0.748	-0.914	-0.174	18.677	-69.641	-9.460	-62.70	-11.61	-75.75	-56.056	-26.558	81.046	0.66324	-0.51843	0.23846	-0.48413	28.8	13111	100
2025-3-27 17:37:10.893	WT901BLE68-01(48591DE3C19B)	-0.717	-0.914	-0.174	18.677	-69.641	-9.460	-62.91	-11.83	-74.90	-56.056	-26.558	81.046	0.66324	-0.51843	0.23846	-0.48413	28.8	13111	100
2025-3-27 17:37:10.893	WT901BLE68-01(48591DE3C19B)	-0.717	-0.977	-0.014	6.165	-101.501	8.911	-63.33	-12.02	-73.69	-56.056	-26.558	81.046	0.66324	-0.51843	0.23846	-0.48413	28.8	13111	100
2025-3-27 17:37:10.894	WT901BLE68-01(48591DE3C19B)	-0.595	-0.977	-0.014	6.165	-101.501	8.911	-63.73	-12.19	-72.47	-56.056	-26.558	81.046	0.66324	-0.51843	0.23846	-0.48413	28.8	13111	100
2025-3-27 17:37:10.925	WT901BLE68-01(48591DE3C19B)	-0.595	-0.951	0.043	0.000	-123.230	25.513	-64.26	-12.30	-70.98	-88.200	-24.598	67.130	0.66324	-0.51843	0.23846	-0.48413	28.8	13111	100
2025-3-27 17:37:10.926	WT901BLE68-01(48591DE3C19B)	-0.358	-0.951	0.043	0.000	-123.230	25.513	-64.78	-12.40	-69.49	-88.200	-24.598	67.130	0.66324	-0.51843	0.23846	-0.48413	28.8	13111	100
2025-3-27 17:37:10.926	WT901BLE68-01(48591DE3C19B)	-0.358	-0.873	0.030	-9.583	-118.591	44.434	-65.39	-12.29	-67.98	-88.200	-24.598	67.130	0.66324	-0.51843	0.23846	-0.48413	28.8	13111	100
2025-3-27 17:37:10.926	WT901BLE68-01(48591DE3C19B)	-0.258	-0.873	0.030	-9.583	-118.591	44.434	-65.98	-12.16	-66.48	-88.200	-24.598	67.130	0.66324	-0.51843	0.23846	-0.48413	28.8	13111	100
2025-3-27 17:37:10.955	WT901BLE68-01(48591DE3C19B)	-0.258	-0.906	0.049	-18.188	-95.398	65.979	-66.62	-11.73	-65.12	-88.200	-24.598	67.130	0.66324	-0.51843	0.23846	-0.48413	28.8	13111	100
2025-3-27 17:37:10.955	WT901BLE68-01(48591DE3C19B)	-0.289	-0.906	0.049	-18.188	-95.398	65.979	-67.24	-11.30	-63.78	-88.200	-24.598	67.130	0.66324	-0.51843	0.23846	-0.48413	28.8	13111	100
2025-3-27 17:37:10.955	WT901BLE68-01(48591DE3C19B)	-0.294	-0.961	0.075	-21.179	-71.411	80.444	-67.83	-10.63	-62.62	-88.200	-24.598	67.130	0.66324	-0.51843	0.23846	-0.48413	28.8	13111	100
2025-3-27 17:37:10.955	WT901BLE68-01(48591DE3C19B)	-0.294	-0.993	0.105	-22.461	-56.702	88.867	-68.40	-9.89	-61.53	-88.200	-24.598	67.130	0.66324	-0.51843	0.23846	-0.48413	28.8	13111	100
2025-3-27 17:37:11.13	WT901BLE68-01(48591DE3C19B)	-0.292	-0.993	0.105	-22.461	-56.702	88.867	-68.93	-9.09	-60.52	-88.200	-24.598	67.130	0.66324	-0.51843	0.23846	-0.48413	28.8	13111	100
2025-3-27 17:37:11.14	WT901BLE68-01(48591DE3C19B)	-0.292	-1.023	0.101	-21.973	-41.077	92.102	-69.43	-8.23	-59.59	-88.200	-24.598	67.130	0.66324	-0.51843	0.23846	-0.48413	28.8	13111	100
2025-3-27 17:37:11.14	WT901BLE68-01(48591DE3C19B)	-0.343	-1.023	0.101	-21.973	-41.077	92.102	-69.90	-7.34	-58.75	-88.200	-24.598	67.130	0.66324	-0.51843	0.23846	-0.48413	28.8	13111	100
2025-3-27 17:37:11.14	WT901BLE68-01(48591DE3C19B)	-0.343	-1.019	0.099	-21.118	-26.550	92.163	-70.32	-6.43	-57.99	-88.200	-24.598	67.130	0.66324	-0.51843	0.23846	-0.48413	28.8	13111	100
2025-3-27 17:37:11.47	WT901BLE68-01(48591DE3C19B)	-0.396	-1.019	0.099	-21.118	-26.550	92.163	-70.72	-5.49	-57.32	-88.200	-24.598	67.130	0.66324	-0.51843	0.23846	-0.48413	28.8	13111	100
2025-3-27 17:37:11.47	WT901BLE68-01(48591DE3C19B)	-0.396	-0.958	0.065	-20.630	-21.301	89.294	-71.11	-4.56	-56.68	-88.200	-24.598	67.130	0.66324	-0.51843	0.23846	-0.48413	28.8	13111	100
2025-3-27 17:37:11.47	WT901BLE68-01(48591DE3C19B)	-0.410	-0.958	0.065	-20.630	-21.301	89.294	-71.47	-3.64	-56.09	-88.200	-24.598	67.130	0.66324	-0.51843	0.23846	-0.48413	28.8	13111	100
2025-3-27 17:37:11.47	WT901BLE68-01(48591DE3C19B)	-0.410	-0.866	0.008	-25.024	-23.560	84.351	-71.84	-2.74	-55.50	-88.200	-24.598	67.130	0.66324	-0.51843	0.23846	-0.48413	28.8	13111	100
2025-3-27 17:37:11.133	WT901BLE68-01(48591DE3C19B)	-0.394	-0.866	0.008	-25.024	-23.560	84.351	-72.22	-1.87	-54.92	-88.200	-24.598	67.130	0.66324	-0.51843	0.23846	-0.48413	28.8	13111	100
2025-3-27 17:37:11.133	WT901BLE68-01(48591DE3C19B)	-0.394	-0.805	-0.028	-32.837	-32.532	78.796	-72.64	-1.05	-54.31	-88.200	-24.598	67.130	0.66324	-0.51843	0.23846	-0.48413	28.8	13111	100
2025-3-27 17:37:11.133	WT901BLE68-01(48591DE3C19B)	-0.380	-0.805	-0.028	-32.837	-32.532	78.796	-73.08	-0.26	-53.67	-88.200	-24.598	67.130	0.66324	-0.51843	0.23846	-0.48413	28.8	13111	100
2025-3-27 17:37:11.134	WT901BLE68-01(48591DE3C19B)	-0.380	-0.894	-0.095	-48.889	-51.025	67.749	-73.59	0.45	-52.97	-88.200	-24.598	67.130	0.66324	-0.51843	0.23846	-0.48413	28.8	13111	100
2025-3-27 17:37:11.135	WT901BLE68-01(48591DE3C19B)	-0.320	-0.894	-0.095	-48.889	-51.025	67.749	-74.18	1.08	-52.21	-88.200	-24.598	67.130	0.66324	-0.51843	0.23846	-0.48413	28.8	13111	100
2025-3-27 17:37:11.135	WT901BLE68-01(48591DE3C19B)	-0.320	-1.277	-0.180	-67.993	-73.242	44.922	-74.85	1.58	-51.37	-88.200	-24.598	67.130	0.66324	-0.51843	0.23846	-0.48413	28.8	13111	100
2025-3-27 17:37:11.135	WT901BLE68-01(48591DE3C19B)	-0.401	-1.277	-0.180	-67.993	-73.242	44.922	-75.61	1.94	-50.48	-88.200	-24.598	67.130	0.66324	-0.51843	0.23846	-0.48413	28.8	13111	100
2025-3-27 17:37:11.135	WT901BLE68-01(48591DE3C19B)	-0.401	-1.625	-0.157	-66.956	-99.243	20.691	-76.35	2.15	-49.49	-88.200	-24.598	67.130	0.66324	-0.51843	0.23846	-0.48413	28.8	13111	100
2025-3-27 17:37:11.166	WT901BLE68-01(48591DE3C19B)	-0.606	-1.625	-0.157	-66.956	-99.243	20.691	-77.09	2.23	-48.42	-88.200	-24.598	67.130	0.66324	-0.51843	0.23846	-0.48413	28.8	13111	100
2025-3-27 17:37:11.166	WT901BLE68-01(48591DE3C19B)	-0.606	-1.377	0.007	-60.608	-135.925	15.991	-77.77	2.25	-47.18	-88.200	-24.598	67.130	0.66324	-0.51843	0.23846	-0.48413	28.8	13111	100
2025-3-27 17:37:11.166	WT901BLE68-01(48591DE3C19B)	-0.559	-1.377	0.007	-60.608	-135.925	15.991	-78.41	2.22	-45.76	-88.200	-24.598	67.130	0.66324	-0.51843	0.23846	-0.48413	28.8	13111	100
2025-3-27 17:37:11.166	WT901BLE68-01(48591DE3C19B)	-0.559	-0.812	0.178	-70.618	-169.128	30.457	-79.10	2.26	-44.17	-88.200	-24.598	67.130	0.71906	-0.58414	0.25348	-0.27820	28.8	13111	100
2025-3-27 17:37:11.223	WT901BLE68-01(48591DE3C19B)	-0.529	-0.812	0.178	-70.618	-169.128	30.457	-79.80	2.37	-42.41	-88.200	-24.598	67.130	0.71906	-0.58414	0.25348	-0.27820	28.8	13111	100
2025-3-27 17:37:11.223	WT901BLE68-01(48591DE3C19B)	-0.529	-0.589	0.196	-87.708	-165.100	74.890	-80.58	2.72	-40.64	-88.200	-24.598	67.130	0.71906	-0.58414	0.25348	-0.27820	28.8	13111	100
2025-3-27 17:37:11.223	WT901BLE68-01(48591DE3C19B)	-0.531	-0.589	0.196	-87.708	-165.100	74.890	-81.42	3.32	-38.85	-88.200	-24.598	67.130	0.71906	-0.58414	0.25348	-0.27820	28.8	13111	100
2025-3-27 17:37:11.223	WT901BLE68-01(48591DE3C19B)	-0.531	-0.999	0.063	-117.249	-167.786	123.840	-82.37	4.20	-37.03	-88.200	-24.598	67.130	0.71906	-0.58414	0.25348	-0.27820	28.8	13111	100
2025-3-27 17:37:11.252	WT901BLE68-01(48591DE3C19B)	-0.128	-0.999	0.063	-117.249	-167.786	123.840	-83.42	5.34	-35.19	-88.200	-24.598	67.130	0.71906	-0.58414	0.25348	-0.27820	28.8	13111	100
2025-3-27 17:37:11.253	WT901BLE68-01(48591DE3C19B)	-0.128	-1.660	-0.226	-104.980	-184.448	164.368	-84.36	6.70	-33.26	-88.200	-24.598	67.130	0.71906	-0.58414	0.25348	-0.27820	28.8	13111	100
2025-3-27 17:37:11.253	WT901BLE68-01(48591DE3C19B)	0.207	-1.660	-0.226	-104.980	-184.448	164.368	-85.18	8.25	-31.26	-88.200	-24.598	67.130	0.71906	-0.58414	0.25348	-0.27820	28.8	13111	100
2025-3-27 17:37:11.253	WT901BLE68-01(48591DE3C19B)	0.207	-1.650	-0.275	-78.369	-206.177	215.271	-85.79	10.05	-29.16	-88.200	-24.598	67.130	0.71906	-0.58414	0.25348	-0.27820	28.8	13111	100
2025-3-27 17:37:11.285	WT901BLE68-01(48591DE3C19B)	0.312	-1.650	-0.275	-78.369	-206.177	215.271	-86.17	12.08	-26.94	-88.200	-24.598	67.130	0.71906	-0.58414	0.25348	-0.27820	28.8	13111	100
2025-3-27 17:37:11.286	WT901BLE68-01(48591DE3C19B)	0.312	-1.463	-0.263	-70.801	-180.481	242.432	-86.47	14.24	-24.86	-88.200	-24.598	67.130	0.71906	-0.58414	0.25348	-0.27820	28.8	13111	100
2025-3-27 17:37:11.286	WT901BLE68-01(48591DE3C19B)	0.068	-1.463	-0.263	-70.801	-180.481	242.432	-86.69	16.52	-22.91	-88.200	-24.598	67.130	0.71906	-0.58414	0.25348	-0.27820	28.8	13111	100
2025-3-27 17:37:11.286	WT901BLE68-01(48591DE3C19B)	0.068	-1.390	-0.140	-68.298	-154.480	253.845	-86.86	18.85	-21.08	-88.200	-24.598	67.130	0.71906	-0.58414	0.25348	-0.27820	28.8	13111	100
2025-3-27 17:37:11.374	WT901BLE68-01(48591DE3C19B)	-0.268	-1.390	-0.140	-68.298	-154.480	253.845	-87.00	21.23	-19.39	-88.200	-24.598	67.130	0.71906	-0.58414	0.25348	-0.27820	28.8	13111	100
2025-3-27 17:37:11.374	WT901BLE68-01(48591DE3C19B)	-0.268	-1.526	0.157	-59.265	-161.072	254.944	-86.98	23.59	-17.63	-88.200	-24.598	67.130	0.71906	-0.58414	0.25348	-0.27820	28.8	13111	100
2025-3-27 17:37:11.374	WT901BLE68-01(48591DE3C19B)	-0.438	-1.526	0.157	-59.265	-161.072	254.944	-86.82	25.94	-15.81	-53.116	-29.988	78.792	0.71906	-0.58414	0.25348	-0.27820	28.8	13111	100
2025-3-27 17:37:11.374	WT901BLE68-01(48591DE3C19B)	-0.438	-1.997	0.315	-52.246	-162.659	238.281	-86.54	28.20	-13.96	-53.116	-29.988	78.792	0.71906	-0.58414	0.25348	-0.27820	28.8	13111	100
2025-3-27 17:37:11.375	WT901BLE68-01(48591DE3C19B)	-0.298	-1.997	0.315	-52.246	-162.659	238.281	-86.12	30.34	-12.04	-53.116	-29.988	78.792	0.71906	-0.58414	0.25348	-0.27820	28.8	13111	100
2025-3-27 17:37:11.375	WT901BLE68-01(48591DE3C19B)	-0.298	-2.108	0.333	-4.761	-127.380	222.839	-85.47	32.40	-10.28	-53.116	-29.988	78.792	0.71906	-0.58414	0.25348	-0.27820	28.8	13111	100
2025-3-27 17:37:11.375	WT901BLE68-01(48591DE3C19B)	-0.136	-2.108	0.333	-4.761	-127.380	222.839	-84.61	34.37	-8.67	-53.116	-29.988	78.792	0.71906	-0.58414	0.25348	-0.27820	28.8	13111	100
2025-3-27 17:37:11.375	WT901BLE68-01(48591DE3C19B)	-0.136	-1.719	0.285	17.822	-69.275	217.346	-83.75	36.30	-7.36	-53.116	-29.988	78.792	0.71906	-0.58414	0.25348	-0.27820	28.8	13111	100
2025-3-27 17:37:11.405	WT901BLE68-01(48591DE3C19B)	-0.159	-1.719	0.285	17.822	-69.275	217.346	-82.92	38.20	-6.33	-53.116	-29.988	78.792	0.71906	-0.58414	0.25348	-0.27820	28.8	13111	100
2025-3-27 17:37:11.405	WT901BLE68-01(48591DE3C19B)	-0.159	-1.567	0.215	15.869	-23.621	203.674	-82.23	40.05	-5.56	-53.116	-29.988	78.792	0.71906	-0.58414	0.25348	-0.27820	28.8	13111	100
2025-3-27 17:37:11.405	WT901BLE68-01(48591DE3C19B)	-0.228	-1.567	0.215	15.869	-23.621	203.674	-81.71	41.84	-5.05	-53.116	-29.988	78.792	0.71906	-0.58414	0.25348	-0.27820	28.8	13111	100
2025-3-27 17:37:11.405	WT901BLE68-01(48591DE3C19B)	-0.228	-1.660	0.160	15.442	-13.916	191.650	-81.19	43.56	-4.59	-53.116	-29.988	78.792	0.71906	-0.58414	0.25348	-0.27820	28.8	13111	100
2025-3-27 17:37:11.463	WT901BLE68-01(48591DE3C19B)	-0.204	-1.660	0.160	15.442	-13.916	191.650	-80.71	45.22	-4.16	-53.116	-29.988	78.792	0.71906	-0.58414	0.25348	-0.27820	28.8	13111	100
2025-3-27 17:37:11.463	WT901BLE68-01(48591DE3C19B)	-0.204	-1.649	0.162	25.085	-28.687	187.622	-79.94	46.80	-3.50	-53.116	-29.988	78.792	0.71906	-0.58414	0.25348	-0.27820	28.8	13111	100
2025-3-27 17:37:11.463	WT901BLE68-01(48591DE3C19B)	-0.079	-1.649	0.162	25.085	-28.687	187.622	-79.13	48.37	-2.80	-53.116	-29.988	78.792	0.71906	-0.58414	0.25348	-0.27820	28.8	13111	100
2025-3-27 17:37:11.463	WT901BLE68-01(48591DE3C19B)	-0.079	-1.514	0.178	32.837	-39.612	186.890	-78.06	49.88	-1.87	-53.116	-29.988	78.792	0.71906	-0.58414	0.25348	-0.27820	28.8	13111	100
2025-3-27 17:37:11.492	WT901BLE68-01(48591DE3C19B)	-0.024	-1.514	0.178	32.837	-39.612	186.890	-76.93	51.38	-0.87	-53.116	-29.988	78.792	0.71906	-0.58414	0.25348	-0.27820	28.8	13111	100
2025-3-27 17:37:11.493	WT901BLE68-01(48591DE3C19B)	-0.024	-1.350	0.206	37.781	-40.771	185.730	-75.65	52.84	0.21	-53.116	-29.988	78.792	0.71906	-0.58414	0.25348	-0.27820	28.8	13111	100
2025-3-27 17:37:11.493	WT901BLE68-01(48591DE3C19B)	-0.025	-1.350	0.206	37.781	-40.771	185.730	-74.29	54.27	1.39	-53.116	-29.988	78.792	0.71906	-0.58414	0.25348	-0.27820	28.8	13111	100
2025-3-27 17:37:11.493	WT901BLE68-01(48591DE3C19B)	-0.025	-1.189	0.240	41.992	-39.490	178.284	-72.84	55.60	2.60	-53.116	-29.988	78.792	0.71906	-0.58414	0.25348	-0.27820	28.8	13111	100
2025-3-27 17:37:11.523	WT901BLE68-01(48591DE3C19B)	0.043	-1.189	0.240	41.992	-39.490	178.284	-71.29	56.90	3.92	-53.116	-29.988	78.792	0.71906	-0.58414	0.25348	-0.27820	28.8	13111	100
2025-3-27 17:37:11.523	WT901BLE68-01(48591DE3C19B)	0.043	-0.998	0.271	44.800	-36.743	163.879	-69.72	58.05	5.20	-53.116	-29.988	78.792	0.71906	-0.58414	0.25348	-0.27820	28.8	13111	100
2025-3-27 17:37:11.523	WT901BLE68-01(48591DE3C19B)	0.114	-0.998	0.271	44.800	-36.743	163.879	-68.06	59.17	6.57	-53.116	-29.988	78.792	0.71906	-0.58414	0.25348	-0.27820	28.8	13111	100
2025-3-27 17:37:11.523	WT901BLE68-01(48591DE3C19B)	0.114	-0.792	0.272	42.175	-21.912	143.677	-66.69	60.13	7.62	-53.116	-29.988	78.792	0.70303	-0.50247	0.38596	0.32281	28.8	13111	100
2025-3-27 17:37:11.552	WT901BLE68-01(48591DE3C19B)	0.103	-0.792	0.272	42.175	-21.912	143.677	-65.25	61.07	8.73	-53.116	-29.988	78.792	0.70303	-0.50247	0.38596	0.32281	28.8	13111	100
2025-3-27 17:37:11.553	WT901BLE68-01(48591DE3C19B)	0.103	-0.639	0.246	34.912	6.165	120.178	-64.47	61.89	9.17	-53.116	-29.988	78.792	0.70303	-0.50247	0.38596	0.32281	28.8	13111	100
2025-3-27 17:37:11.553	WT901BLE68-01(48591DE3C19B)	0.036	-0.639	0.246	34.912	6.165	120.178	-63.65	62.70	9.65	-53.116	-29.988	78.792	0.70303	-0.50247	0.38596	0.32281	28.8	13111	100
2025-3-27 17:37:11.553	WT901BLE68-01(48591DE3C19B)	0.036	-0.560	0.209	25.391	34.668	92.468	-63.64	63.39	9.31	-53.116	-29.988	78.792	0.70303	-0.50247	0.38596	0.32281	28.8	13111	100
2025-3-27 17:37:11.613	WT901BLE68-01(48591DE3C19B)	-0.025	-0.560	0.209	25.391	34.668	92.468	-63.64	64.06	8.96	-53.116	-29.988	78.792	0.70303	-0.50247	0.38596	0.32281	28.8	13111	100
2025-3-27 17:37:11.613	WT901BLE68-01(48591DE3C19B)	-0.025	-0.513	0.184	16.968	59.631	61.829	-64.47	64.57	7.78	-53.116	-29.988	78.792	0.70303	-0.50247	0.38596	0.32281	28.8	13111	100
2025-3-27 17:37:11.614	WT901BLE68-01(48591DE3C19B)	-0.087	-0.513	0.184	16.968	59.631	61.829	-65.33	65.06	6.56	-53.116	-29.988	78.792	0.70303	-0.50247	0.38596	0.32281	28.8	13111	100
2025-3-27 17:37:11.614	WT901BLE68-01(48591DE3C19B)	-0.087	-0.461	0.185	11.536	71.106	29.114	-66.79	65.30	4.76	-53.116	-29.988	78.792	0.70303	-0.50247	0.38596	0.32281	28.8	13111	100
2025-3-27 17:37:11.646	WT901BLE68-01(48591DE3C19B)	-0.139	-0.461	0.185	11.536	71.106	29.114	-68.25	65.51	2.94	-53.116	-29.988	78.792	0.70303	-0.50247	0.38596	0.32281	28.8	13111	100
2025-3-27 17:37:11.646	WT901BLE68-01(48591DE3C19B)	-0.139	-0.418	0.225	8.728	62.805	-3.845	-69.82	65.37	1.02	-53.116	-29.988	78.792	0.70303	-0.50247	0.38596	0.32281	28.8	13111	100
2025-3-27 17:37:11.646	WT901BLE68-01(48591DE3C19B)	-0.172	-0.418	0.225	8.728	62.805	-3.845	-71.35	65.21	-0.85	-53.116	-29.988	78.792	0.70303	-0.50247	0.38596	0.32281	28.8	13111	100
2025-3-27 17:37:11.646	WT901BLE68-01(48591DE3C19B)	-0.172	-0.420	0.248	5.981	43.152	-37.415	-72.66	64.65	-2.48	-53.116	-29.988	78.792	0.70303	-0.50247	0.38596	0.32281	28.8	13111	100
2025-3-27 17:37:11.675	WT901BLE68-01(48591DE3C19B)	-0.186	-0.420	0.248	5.981	43.152	-37.415	-73.90	64.09	-4.02	-53.116	-29.988	78.792	0.70303	-0.50247	0.38596	0.32281	28.8	13111	100
2025-3-27 17:37:11.675	WT901BLE68-01(48591DE3C19B)	-0.186	-0.458	0.236	7.629	22.644	-70.313	-74.81	63.15	-5.25	-53.116	-29.988	78.792	0.70303	-0.50247	0.38596	0.32281	28.8	13111	100
2025-3-27 17:37:11.675	WT901BLE68-01(48591DE3C19B)	-0.208	-0.458	0.236	7.629	22.644	-70.313	-75.63	62.22	-6.38	-53.116	-29.988	78.792	0.70303	-0.50247	0.38596	0.32281	28.8	13111	100
2025-3-27 17:37:11.675	WT901BLE68-01(48591DE3C19B)	-0.208	-0.475	0.213	11.475	4.456	-101.929	-76.15	60.94	-7.23	-53.116	-29.988	78.792	0.70303	-0.50247	0.38596	0.32281	28.8	13111	100
2025-3-27 17:37:11.733	WT901BLE68-01(48591DE3C19B)	-0.194	-0.475	0.213	11.475	4.456	-101.929	-76.61	59.67	-8.01	-53.116	-29.988	78.792	0.70303	-0.50247	0.38596	0.32281	28.8	13111	100
2025-3-27 17:37:11.733	WT901BLE68-01(48591DE3C19B)	-0.194	-0.530	0.190	12.512	-6.165	-134.033	-76.94	58.07	-8.67	-47.138	-37.632	75.656	0.70303	-0.50247	0.38596	0.32281	28.8	13111	100
2025-3-27 17:37:11.733	WT901BLE68-01(48591DE3C19B)	-0.156	-0.530	0.190	12.512	-6.165	-134.033	-77.22	56.48	-9.28	-47.138	-37.632	75.656	0.70303	-0.50247	0.38596	0.32281	28.8	13111	100
2025-3-27 17:37:11.733	WT901BLE68-01(48591DE3C19B)	-0.156	-0.605	0.171	16.479	-5.737	-165.100	-77.53	54.60	-9.97	-47.138	-37.632	75.656	0.70303	-0.50247	0.38596	0.32281	28.8	13111	100
2025-3-27 17:37:11.763	WT901BLE68-01(48591DE3C19B)	-0.129	-0.605	0.171	16.479	-5.737	-165.100	-77.78	52.73	-10.61	-47.138	-37.632	75.656	0.70303	-0.50247	0.38596	0.32281	28.8	13111	100
2025-3-27 17:37:11.763	WT901BLE68-01(48591DE3C19B)	-0.129	-0.671	0.139	20.203	6.897	-194.702	-78.18	50.60	-11.50	-47.138	-37.632	75.656	0.70303	-0.50247	0.38596	0.32281	28.8	13111	100
2025-3-27 17:37:11.763	WT901BLE68-01(48591DE3C19B)	-0.124	-0.671	0.139	20.203	6.897	-194.702	-78.53	48.49	-12.33	-47.138	-37.632	75.656	0.70303	-0.50247	0.38596	0.32281	28.8	13111	100
2025-3-27 17:37:11.763	WT901BLE68-01(48591DE3C19B)	-0.124	-0.771	0.106	23.560	26.062	-221.863	-79.04	46.15	-13.45	-47.138	-37.632	75.656	0.70303	-0.50247	0.38596	0.32281	28.8	13111	100
2025-3-27 17:37:11.823	WT901BLE68-01(48591DE3C19B)	-0.154	-0.771	0.106	23.560	26.062	-221.863	-79.48	43.82	-14.50	-47.138	-37.632	75.656	0.70303	-0.50247	0.38596	0.32281	28.8	13111	100
2025-3-27 17:37:11.824	WT901BLE68-01(48591DE3C19B)	-0.154	-0.912	0.095	27.283	47.729	-245.789	-80.04	41.30	-15.83	-47.138	-37.632	75.656	0.70303	-0.50247	0.38596	0.32281	28.8	13111	100
2025-3-27 17:37:11.824	WT901BLE68-01(48591DE3C19B)	-0.230	-0.912	0.095	27.283	47.729	-245.789	-80.51	38.79	-17.06	-47.138	-37.632	75.656	0.70303	-0.50247	0.38596	0.32281	28.8	13111	100
2025-3-27 17:37:11.824	WT901BLE68-01(48591DE3C19B)	-0.230	-1.126	0.147	33.264	66.956	-265.747	-81.01	36.12	-18.50	-47.138	-37.632	75.656	0.70303	-0.50247	0.38596	0.32281	28.8	13111	100
2025-3-27 17:37:11.852	WT901BLE68-01(48591DE3C19B)	-0.314	-1.126	0.147	33.264	66.956	-265.747	-81.41	33.45	-19.86	-47.138	-37.632	75.656	0.70303	-0.50247	0.38596	0.32281	28.8	13111	100
2025-3-27 17:37:11.853	WT901BLE68-01(48591DE3C19B)	-0.314	-1.437	0.288	49.133	68.604	-286.865	-81.60	30.60	-21.21	-47.138	-37.632	75.656	0.70303	-0.50247	0.38596	0.32281	28.8	13111	100
2025-3-27 17:37:11.853	WT901BLE68-01(48591DE3C19B)	-0.368	-1.437	0.288	49.133	68.604	-286.865	-81.71	27.75	-22.51	-47.138	-37.632	75.656	0.70303	-0.50247	0.38596	0.32281	28.8	13111	100
2025-3-27 17:37:11.853	WT901BLE68-01(48591DE3C19B)	-0.368	-1.702	0.264	60.608	78.430	-301.331	-81.68	24.80	-23.89	-47.138	-37.632	75.656	0.70303	-0.50247	0.38596	0.32281	28.8	13111	100
2025-3-27 17:37:11.946	WT901BLE68-01(48591DE3C19B)	-0.409	-1.702	0.264	60.608	78.430	-301.331	-81.59	21.86	-25.24	-47.138	-37.632	75.656	0.70303	-0.50247	0.38596	0.32281	28.8	13111	100
2025-3-27 17:37:11.947	WT901BLE68-01(48591DE3C19B)	-0.462	-1.848	0.098	69.641	119.934	-306.091	-81.50	18.96	-27.00	-47.138	-37.632	75.656	0.70303	-0.50247	0.38596	0.32281	28.8	13111	100
2025-3-27 17:37:11.947	WT901BLE68-01(48591DE3C19B)	-0.462	-1.883	-0.052	79.163	168.640	-311.890	-81.35	16.09	-28.99	-47.138	-37.632	75.656	0.70303	-0.50247	0.38596	0.32281	28.8	13111	100
2025-3-27 17:37:11.947	WT901BLE68-01(48591DE3C19B)	-0.547	-1.883	-0.052	79.163	168.640	-311.890	-81.13	13.26	-31.21	-47.138	-37.632	75.656	0.70303	-0.50247	0.38596	0.32281	28.8	13111	100
2025-3-27 17:37:11.947	WT901BLE68-01(48591DE3C19B)	-0.547	-1.854	-0.090	82.458	210.999	-309.265	-80.83	10.50	-33.61	-47.138	-37.632	75.656	0.70303	-0.50247	0.38596	0.32281	28.8	13111	100
2025-3-27 17:37:11.947	WT901BLE68-01(48591DE3C19B)	-0.584	-1.854	-0.090	82.458	210.999	-309.265	-80.45	7.81	-36.19	-47.138	-37.632	75.656	0.73474	-0.59518	0.24768	-0.21082	28.8	13111	100
2025-3-27 17:37:11.947	WT901BLE68-01(48591DE3C19B)	-0.584	-1.845	-0.087	83.496	242.676	-292.725	-79.97	5.28	-38.92	-47.138	-37.632	75.656	0.73474	-0.59518	0.24768	-0.21082	28.8	13111	100
2025-3-27 17:37:11.948	WT901BLE68-01(48591DE3C19B)	-0.677	-1.845	-0.087	83.496	242.676	-292.725	-79.39	2.89	-41.79	-47.138	-37.632	75.656	0.73474	-0.59518	0.24768	-0.21082	28.8	13111	100
2025-3-27 17:37:11.974	WT901BLE68-01(48591DE3C19B)	-0.677	-1.840	-0.013	87.769	253.601	-270.264	-78.69	0.68	-44.69	-47.138	-37.632	75.656	0.73474	-0.59518	0.24768	-0.21082	28.8	13111	100
2025-3-27 17:37:11.974	WT901BLE68-01(48591DE3C19B)	-0.827	-1.840	-0.013	87.769	253.601	-270.264	-77.86	-1.36	-47.64	-47.138	-37.632	75.656	0.73474	-0.59518	0.24768	-0.21082	28.8	13111	100
2025-3-27 17:37:11.974	WT901BLE68-01(48591DE3C19B)	-0.827	-1.818	0.032	93.567	243.164	-248.352	-76.91	-3.25	-50.53	-47.138	-37.632	75.656	0.73474	-0.59518	0.24768	-0.21082	28.8	13111	100
2025-3-27 17:37:11.974	WT901BLE68-01(48591DE3C19B)	-0.888	-1.818	0.032	93.567	243.164	-248.352	-75.86	-4.97	-53.37	-47.138	-37.632	75.656	0.73474	-0.59518	0.24768	-0.21082	28.8	13111	100
2025-3-27 17:37:12.2	WT901BLE68-01(48591DE3C19B)	-0.888	-1.779	-0.012	100.647	220.764	-231.323	-74.70	-6.58	-56.11	-47.138	-37.632	75.656	0.73474	-0.59518	0.24768	-0.21082	28.8	13111	100
2025-3-27 17:37:12.2	WT901BLE68-01(48591DE3C19B)	-0.878	-1.779	-0.012	100.647	220.764	-231.323	-73.45	-8.05	-58.74	-47.138	-37.632	75.656	0.73474	-0.59518	0.24768	-0.21082	28.8	13111	100
2025-3-27 17:37:12.3	WT901BLE68-01(48591DE3C19B)	-0.878	-1.681	-0.121	108.032	184.570	-205.688	-72.14	-9.39	-61.19	-47.138	-37.632	75.656	0.73474	-0.59518	0.24768	-0.21082	28.8	13111	100
2025-3-27 17:37:12.3	WT901BLE68-01(48591DE3C19B)	-0.848	-1.681	-0.121	108.032	184.570	-205.688	-70.78	-10.60	-63.46	-47.138	-37.632	75.656	0.73474	-0.59518	0.24768	-0.21082	28.8	13111	100
2025-3-27 17:37:12.88	WT901BLE68-01(48591DE3C19B)	-0.848	-1.439	-0.215	113.464	133.362	-178.589	-69.41	-11.71	-65.46	-47.138	-37.632	75.656	0.73474	-0.59518	0.24768	-0.21082	28.8	13111	100
2025-3-27 17:37:12.90	WT901BLE68-01(48591DE3C19B)	-0.802	-1.439	-0.215	113.464	133.362	-178.589	-68.05	-12.72	-67.19	-47.138	-37.632	75.656	0.73474	-0.59518	0.24768	-0.21082	28.8	13111	100
2025-3-27 17:37:12.90	WT901BLE68-01(48591DE3C19B)	-0.802	-1.174	-0.252	104.431	70.374	-151.428	-66.79	-13.68	-68.60	-47.138	-37.632	75.656	0.73474	-0.59518	0.24768	-0.21082	28.8	13111	100
2025-3-27 17:37:12.90	WT901BLE68-01(48591DE3C19B)	-0.751	-1.174	-0.252	104.431	70.374	-151.428	-65.64	-14.61	-69.67	-47.138	-37.632	75.656	0.73474	-0.59518	0.24768	-0.21082	28.8	13111	100
2025-3-27 17:37:12.94	WT901BLE68-01(48591DE3C19B)	-0.751	-1.006	-0.241	85.938	2.319	-123.047	-64.67	-15.52	-70.38	-47.138	-37.632	75.656	0.73474	-0.59518	0.24768	-0.21082	28.8	13111	100
2025-3-27 17:37:12.94	WT901BLE68-01(48591DE3C19B)	-0.653	-1.006	-0.241	85.938	2.319	-123.047	-63.89	-16.44	-70.71	-47.138	-37.632	75.656	0.73474	-0.59518	0.24768	-0.21082	28.8	13111	100
2025-3-27 17:37:12.95	WT901BLE68-01(48591DE3C19B)	-0.653	-0.945	-0.190	66.345	-53.528	-97.717	-63.30	-17.35	-70.74	-47.138	-37.632	75.656	0.73474	-0.59518	0.24768	-0.21082	28.8	13111	100
2025-3-27 17:37:12.95	WT901BLE68-01(48591DE3C19B)	-0.528	-0.945	-0.190	66.345	-53.528	-97.717	-62.91	-18.26	-70.46	-47.138	-37.632	75.656	0.73474	-0.59518	0.24768	-0.21082	28.8	13111	100
2025-3-27 17:37:12.124	WT901BLE68-01(48591DE3C19B)	-0.528	-0.922	-0.143	51.270	-80.872	-73.364	-62.66	-19.13	-69.99	-47.138	-37.632	75.656	0.73474	-0.59518	0.24768	-0.21082	28.8	13111	100
2025-3-27 17:37:12.124	WT901BLE68-01(48591DE3C19B)	-0.500	-0.922	-0.143	51.270	-80.872	-73.364	-62.56	-19.95	-69.33	-47.138	-37.632	75.656	0.73474	-0.59518	0.24768	-0.21082	28.8	13111	100
2025-3-27 17:37:12.124	WT901BLE68-01(48591DE3C19B)	-0.500	-0.905	-0.113	38.696	-86.731	-51.331	-62.55	-20.67	-68.59	-80.948	-22.344	72.422	0.73474	-0.59518	0.24768	-0.21082	28.8	13111	100
2025-3-27 17:37:12.124	WT901BLE68-01(48591DE3C19B)	-0.489	-0.905	-0.113	38.696	-86.731	-51.331	-62.64	-21.31	-67.77	-80.948	-22.344	72.422	0.73474	-0.59518	0.24768	-0.21082	28.8	13111	100
2025-3-27 17:37:12.185	WT901BLE68-01(48591DE3C19B)	-0.489	-0.919	-0.073	29.358	-83.252	-33.203	-62.79	-21.85	-66.92	-80.948	-22.344	72.422	0.73474	-0.59518	0.24768	-0.21082	28.8	13111	100
2025-3-27 17:37:12.186	WT901BLE68-01(48591DE3C19B)	-0.451	-0.919	-0.073	29.358	-83.252	-33.203	-63.01	-22.29	-66.04	-80.948	-22.344	72.422	0.73474	-0.59518	0.24768	-0.21082	28.8	13111	100
2025-3-27 17:37:12.187	WT901BLE68-01(48591DE3C19B)	-0.451	-0.900	-0.018	24.231	-73.975	-17.700	-63.26	-22.64	-65.17	-80.948	-22.344	72.422	0.73474	-0.59518	0.24768	-0.21082	28.8	13111	100
2025-3-27 17:37:12.187	WT901BLE68-01(48591DE3C19B)	-0.398	-0.900	-0.018	24.231	-73.975	-17.700	-63.52	-22.90	-64.29	-80.948	-22.344	72.422	0.73474	-0.59518	0.24768	-0.21082	28.8	13111	100
2025-3-27 17:37:12.215	WT901BLE68-01(48591DE3C19B)	-0.398	-0.877	0.019	19.836	-56.519	-4.028	-63.79	-23.04	-63.48	-80.948	-22.344	72.422	0.73474	-0.59518	0.24768	-0.21082	28.8	13111	100
2025-3-27 17:37:12.215	WT901BLE68-01(48591DE3C19B)	-0.379	-0.877	0.019	19.836	-56.519	-4.028	-64.06	-23.09	-62.72	-80.948	-22.344	72.422	0.73474	-0.59518	0.24768	-0.21082	28.8	13111	100
2025-3-27 17:37:12.215	WT901BLE68-01(48591DE3C19B)	-0.379	-0.856	0.039	17.151	-34.241	7.813	-64.30	-23.03	-62.05	-80.948	-22.344	72.422	0.73474	-0.59518	0.24768	-0.21082	28.8	13111	100
2025-3-27 17:37:12.215	WT901BLE68-01(48591DE3C19B)	-0.400	-0.856	0.039	17.151	-34.241	7.813	-64.52	-22.86	-61.46	-80.948	-22.344	72.422	0.73474	-0.59518	0.24768	-0.21082	28.8	13111	100
2025-3-27 17:37:12.272	WT901BLE68-01(48591DE3C19B)	-0.400	-0.886	0.060	12.756	-16.479	18.311	-64.72	-22.61	-60.94	-80.948	-22.344	72.422	0.73474	-0.59518	0.24768	-0.21082	28.8	13111	100
2025-3-27 17:37:12.273	WT901BLE68-01(48591DE3C19B)	-0.429	-0.886	0.060	12.756	-16.479	18.311	-64.92	-22.27	-60.49	-80.948	-22.344	72.422	0.73474	-0.59518	0.24768	-0.21082	28.8	13111	100
