time	DeviceName	AccX(g)	AccY(g)	AccZ(g)	AsX(°/s)	AsY(°/s)	AsZ(°/s)	AngleX(°)	AngleY(°)	AngleZ(°)	HX(uT)	HY(uT)	HZ(uT)	Q0()	Q1()	Q2()	Q3()	Temperature(°C)	Version()	Battery level(%)
2025-3-27 17:51:0.18	WT901BLE68-01(48591DE3C19B)	-0.285	-0.903	0.253	-1.587	-8.179	12.329	-75.39	16.66	-173.63	-37.338	-50.862	-7.350	0.08643	0.10803	0.60706	-0.78247	30.5	13111	100
2025-3-27 17:51:0.18	WT901BLE68-01(48591DE3C19B)	-0.285	-0.907	0.253	-1.892	-8.423	12.817	-75.37	16.77	-173.28	-37.338	-50.862	-7.350	0.08643	0.10803	0.60706	-0.78247	30.5	13111	100
2025-3-27 17:51:0.18	WT901BLE68-01(48591DE3C19B)	-0.280	-0.907	0.253	-1.892	-8.423	12.817	-75.35	16.88	-172.93	-37.338	-50.862	-7.350	0.08643	0.10803	0.60706	-0.78247	30.5	13111	100
2025-3-27 17:51:0.18	WT901BLE68-01(48591DE3C19B)	-0.280	-0.925	0.257	-2.197	-8.179	13.245	-75.33	16.98	-172.58	-37.338	-50.862	-7.350	0.08643	0.10803	0.60706	-0.78247	30.5	13111	100
2025-3-27 17:51:0.48	WT901BLE68-01(48591DE3C19B)	-0.274	-0.925	0.257	-2.197	-8.179	13.245	-75.32	17.09	-172.24	-37.338	-50.862	-7.350	0.08643	0.10803	0.60706	-0.78247	30.5	13111	100
2025-3-27 17:51:0.48	WT901BLE68-01(48591DE3C19B)	-0.274	-0.939	0.261	-2.075	-7.141	13.550	-75.30	17.21	-171.90	-37.338	-50.862	-7.350	0.08643	0.10803	0.60706	-0.78247	30.5	13111	100
2025-3-27 17:51:0.48	WT901BLE68-01(48591DE3C19B)	-0.271	-0.939	0.261	-2.075	-7.141	13.550	-75.28	17.32	-171.56	-37.338	-50.862	-7.350	0.08643	0.10803	0.60706	-0.78247	30.5	13111	100
2025-3-27 17:51:0.48	WT901BLE68-01(48591DE3C19B)	-0.271	-0.939	0.259	-1.892	-5.371	13.672	-75.27	17.44	-171.24	-37.338	-50.862	-7.350	0.08643	0.10803	0.60706	-0.78247	30.5	13111	100
2025-3-27 17:51:0.79	WT901BLE68-01(48591DE3C19B)	-0.265	-0.939	0.259	-1.892	-5.371	13.672	-75.25	17.56	-170.93	-37.338	-50.862	-7.350	0.08643	0.10803	0.60706	-0.78247	30.5	13111	100
2025-3-27 17:51:0.79	WT901BLE68-01(48591DE3C19B)	-0.265	-0.938	0.257	-1.831	-3.723	13.611	-75.24	17.67	-170.62	-37.338	-50.862	-7.350	0.08643	0.10803	0.60706	-0.78247	30.5	13111	100
2025-3-27 17:51:0.79	WT901BLE68-01(48591DE3C19B)	-0.259	-0.938	0.257	-1.831	-3.723	13.611	-75.23	17.79	-170.33	-37.338	-50.862	-7.350	0.08643	0.10803	0.60706	-0.78247	30.5	13111	100
2025-3-27 17:51:0.79	WT901BLE68-01(48591DE3C19B)	-0.259	-0.946	0.260	-2.258	-2.136	13.184	-75.23	17.90	-170.04	-37.338	-50.862	-7.350	0.08643	0.10803	0.60706	-0.78247	30.5	13111	100
2025-3-27 17:51:0.169	WT901BLE68-01(48591DE3C19B)	-0.257	-0.946	0.260	-2.258	-2.136	13.184	-75.22	18.01	-169.76	-37.338	-50.862	-7.350	0.08643	0.10803	0.60706	-0.78247	30.5	13111	100
2025-3-27 17:51:0.169	WT901BLE68-01(48591DE3C19B)	-0.257	-0.945	0.265	-1.526	-0.610	12.512	-75.22	18.12	-169.49	-37.338	-50.862	-7.350	0.08643	0.10803	0.60706	-0.78247	30.5	13111	100
2025-3-27 17:51:0.169	WT901BLE68-01(48591DE3C19B)	-0.255	-0.945	0.265	-1.526	-0.610	12.512	-75.21	18.23	-169.22	-37.338	-50.862	-7.350	0.08643	0.10803	0.60706	-0.78247	30.5	13111	100
2025-3-27 17:51:0.169	WT901BLE68-01(48591DE3C19B)	-0.255	-0.923	0.265	-1.221	0.061	11.780	-75.21	18.33	-168.96	-37.338	-50.862	-7.350	0.08643	0.10803	0.60706	-0.78247	30.5	13111	100
2025-3-27 17:51:0.170	WT901BLE68-01(48591DE3C19B)	-0.242	-0.923	0.265	-1.221	0.061	11.780	-75.20	18.43	-168.71	-37.338	-50.862	-7.350	0.17520	0.06668	0.61185	-0.76837	30.5	13111	100
2025-3-27 17:51:0.170	WT901BLE68-01(48591DE3C19B)	-0.242	-0.908	0.260	-1.465	0.916	10.498	-75.20	18.52	-168.46	-37.338	-50.862	-7.350	0.17520	0.06668	0.61185	-0.76837	30.5	13111	100
2025-3-27 17:51:0.170	WT901BLE68-01(48591DE3C19B)	-0.239	-0.908	0.260	-1.465	0.916	10.498	-75.19	18.61	-168.22	-37.338	-50.862	-7.350	0.17520	0.06668	0.61185	-0.76837	30.5	13111	100
2025-3-27 17:51:0.170	WT901BLE68-01(48591DE3C19B)	-0.239	-0.904	0.255	-1.526	2.380	8.484	-75.20	18.68	-168.00	-37.338	-50.862	-7.350	0.17520	0.06668	0.61185	-0.76837	30.5	13111	100
2025-3-27 17:51:0.198	WT901BLE68-01(48591DE3C19B)	-0.240	-0.904	0.255	-1.526	2.380	8.484	-75.20	18.75	-167.78	-37.338	-50.862	-7.350	0.17520	0.06668	0.61185	-0.76837	30.5	13111	100
2025-3-27 17:51:0.199	WT901BLE68-01(48591DE3C19B)	-0.240	-0.904	0.254	-1.038	2.991	5.737	-75.20	18.79	-167.57	-37.338	-50.862	-7.350	0.17520	0.06668	0.61185	-0.76837	30.5	13111	100
2025-3-27 17:51:0.199	WT901BLE68-01(48591DE3C19B)	-0.236	-0.904	0.254	-1.038	2.991	5.737	-75.21	18.84	-167.37	-37.338	-50.862	-7.350	0.17520	0.06668	0.61185	-0.76837	30.5	13111	100
2025-3-27 17:51:0.199	WT901BLE68-01(48591DE3C19B)	-0.236	-0.898	0.256	-0.793	2.686	2.747	-75.21	18.85	-167.17	-37.338	-50.862	-7.350	0.17520	0.06668	0.61185	-0.76837	30.5	13111	100
2025-3-27 17:51:0.258	WT901BLE68-01(48591DE3C19B)	-0.236	-0.898	0.256	-0.793	2.686	2.747	-75.21	18.86	-166.96	-37.338	-50.862	-7.350	0.17520	0.06668	0.61185	-0.76837	30.5	13111	100
2025-3-27 17:51:0.258	WT901BLE68-01(48591DE3C19B)	-0.236	-0.899	0.254	-0.244	2.502	-0.244	-75.20	18.85	-166.77	-37.338	-50.862	-7.350	0.17520	0.06668	0.61185	-0.76837	30.5	13111	100
2025-3-27 17:51:0.258	WT901BLE68-01(48591DE3C19B)	-0.239	-0.899	0.254	-0.244	2.502	-0.244	-75.20	18.83	-166.58	-37.338	-50.862	-7.350	0.17520	0.06668	0.61185	-0.76837	30.5	13111	100
2025-3-27 17:51:0.258	WT901BLE68-01(48591DE3C19B)	-0.233	-0.887	0.249	0.183	2.258	-3.296	-75.20	18.78	-166.40	-37.338	-50.862	-7.350	0.17520	0.06668	0.61185	-0.76837	30.5	13111	100
2025-3-27 17:51:0.288	WT901BLE68-01(48591DE3C19B)	-0.233	-0.879	0.243	0.122	1.587	-6.714	-75.19	18.72	-166.21	-37.338	-50.862	-7.350	0.17520	0.06668	0.61185	-0.76837	30.5	13111	100
2025-3-27 17:51:0.288	WT901BLE68-01(48591DE3C19B)	-0.235	-0.879	0.243	0.122	1.587	-6.714	-75.19	18.63	-166.03	-37.338	-50.862	-7.350	0.17520	0.06668	0.61185	-0.76837	30.5	13111	100
2025-3-27 17:51:0.288	WT901BLE68-01(48591DE3C19B)	-0.235	-0.879	0.243	0.061	0.916	-9.949	-75.18	18.53	-165.85	-37.338	-50.862	-7.350	0.17520	0.06668	0.61185	-0.76837	30.5	13111	100
2025-3-27 17:51:0.289	WT901BLE68-01(48591DE3C19B)	-0.248	-0.879	0.243	0.061	0.916	-9.949	-75.18	18.42	-165.67	-37.338	-50.862	-7.350	0.17520	0.06668	0.61185	-0.76837	30.5	13111	100
2025-3-27 17:51:0.350	WT901BLE68-01(48591DE3C19B)	-0.248	-0.881	0.250	0.366	-0.671	-13.000	-75.18	18.29	-165.49	-37.338	-50.862	-7.350	0.17520	0.06668	0.61185	-0.76837	30.5	13111	100
2025-3-27 17:51:0.350	WT901BLE68-01(48591DE3C19B)	-0.253	-0.881	0.250	0.366	-0.671	-13.000	-75.17	18.14	-165.31	-37.338	-50.862	-7.350	0.17520	0.06668	0.61185	-0.76837	30.5	13111	100
2025-3-27 17:51:0.350	WT901BLE68-01(48591DE3C19B)	-0.126	-0.875	0.252	0.793	-3.296	-15.320	-75.16	17.98	-165.12	-37.338	-50.862	-7.350	0.17520	0.06668	0.61185	-0.76837	30.5	13111	100
2025-3-27 17:51:0.350	WT901BLE68-01(48591DE3C19B)	-0.249	-0.438	0.126	0.793	-3.296	-15.320	-75.15	17.81	-164.92	-37.338	-50.862	-7.350	0.17520	0.06668	0.61185	-0.76837	30.5	13111	100
2025-3-27 17:51:0.380	WT901BLE68-01(48591DE3C19B)	-0.249	-0.882	0.248	1.038	-4.517	-17.273	-75.13	17.63	-164.72	-37.338	-50.862	-7.350	0.17520	0.06668	0.61185	-0.76837	30.5	13111	100
2025-3-27 17:51:0.380	WT901BLE68-01(48591DE3C19B)	-0.251	-0.882	0.248	1.038	-4.517	-17.273	-75.11	17.44	-164.51	-38.808	-51.254	-8.036	0.17520	0.06668	0.61185	-0.76837	30.5	13111	100
2025-3-27 17:51:0.380	WT901BLE68-01(48591DE3C19B)	-0.251	-0.895	0.243	1.648	-4.395	-18.982	-75.09	17.24	-164.32	-38.808	-51.254	-8.036	0.17520	0.06668	0.61185	-0.76837	30.5	13111	100
2025-3-27 17:51:0.380	WT901BLE68-01(48591DE3C19B)	-0.257	-0.895	0.243	1.648	-4.395	-18.982	-75.06	17.03	-164.12	-38.808	-51.254	-8.036	0.17520	0.06668	0.61185	-0.76837	30.5	13111	100
2025-3-27 17:51:0.439	WT901BLE68-01(48591DE3C19B)	-0.257	-0.908	0.244	2.197	-3.601	-21.057	-75.04	16.82	-163.93	-38.808	-51.254	-8.036	0.17520	0.06668	0.61185	-0.76837	30.5	13111	100
2025-3-27 17:51:0.439	WT901BLE68-01(48591DE3C19B)	-0.267	-0.908	0.244	2.197	-3.601	-21.057	-75.02	16.60	-163.76	-38.808	-51.254	-8.036	0.17520	0.06668	0.61185	-0.76837	30.5	13111	100
2025-3-27 17:51:0.439	WT901BLE68-01(48591DE3C19B)	-0.267	-0.917	0.245	2.380	-2.258	-23.376	-75.00	16.37	-163.59	-38.808	-51.254	-8.036	0.17520	0.06668	0.61185	-0.76837	30.5	13111	100
2025-3-27 17:51:0.439	WT901BLE68-01(48591DE3C19B)	-0.274	-0.917	0.245	2.380	-2.258	-23.376	-74.98	16.13	-163.43	-38.808	-51.254	-8.036	0.17520	0.06668	0.61185	-0.76837	30.5	13111	100
2025-3-27 17:51:0.439	WT901BLE68-01(48591DE3C19B)	-0.274	-0.924	0.249	2.258	-1.221	-25.635	-74.97	15.89	-163.28	-38.808	-51.254	-8.036	0.17520	0.06668	0.61185	-0.76837	30.5	13111	100
2025-3-27 17:51:0.439	WT901BLE68-01(48591DE3C19B)	-0.281	-0.924	0.249	2.258	-1.221	-25.635	-74.96	15.63	-163.15	-38.808	-51.254	-8.036	0.17520	0.06668	0.61185	-0.76837	30.5	13111	100
2025-3-27 17:51:0.439	WT901BLE68-01(48591DE3C19B)	-0.281	-0.940	0.256	1.404	0.427	-28.015	-74.96	15.38	-163.03	-38.808	-51.254	-8.036	0.17520	0.06668	0.61185	-0.76837	30.5	13111	100
2025-3-27 17:51:0.439	WT901BLE68-01(48591DE3C19B)	-0.283	-0.940	0.256	1.404	0.427	-28.015	-74.97	15.11	-162.91	-38.808	-51.254	-8.036	0.17520	0.06668	0.61185	-0.76837	30.5	13111	100
2025-3-27 17:51:0.499	WT901BLE68-01(48591DE3C19B)	-0.283	-0.976	0.253	1.099	3.357	-30.457	-74.98	14.83	-162.82	-38.808	-51.254	-8.036	0.17520	0.06668	0.61185	-0.76837	30.5	13111	100
2025-3-27 17:51:0.499	WT901BLE68-01(48591DE3C19B)	-0.276	-0.976	0.253	1.099	3.357	-30.457	-74.99	14.55	-162.75	-38.808	-51.254	-8.036	0.17520	0.06668	0.61185	-0.76837	30.5	13111	100
2025-3-27 17:51:0.499	WT901BLE68-01(48591DE3C19B)	-0.276	-1.013	0.247	1.343	8.789	-33.142	-75.02	14.27	-162.71	-38.808	-51.254	-8.036	0.17520	0.06668	0.61185	-0.76837	30.5	13111	100
2025-3-27 17:51:0.500	WT901BLE68-01(48591DE3C19B)	-0.280	-1.013	0.247	1.343	8.789	-33.142	-75.05	13.98	-162.69	-38.808	-51.254	-8.036	0.17520	0.06668	0.61185	-0.76837	30.5	13111	100
2025-3-27 17:51:0.529	WT901BLE68-01(48591DE3C19B)	-0.280	-1.040	0.250	2.930	14.648	-34.973	-75.08	13.69	-162.71	-38.808	-51.254	-8.036	0.17520	0.06668	0.61185	-0.76837	30.5	13111	100
2025-3-27 17:51:0.529	WT901BLE68-01(48591DE3C19B)	-0.289	-1.040	0.250	2.930	14.648	-34.973	-75.11	13.40	-162.76	-38.808	-51.254	-8.036	0.17520	0.06668	0.61185	-0.76837	30.5	13111	100
2025-3-27 17:51:0.529	WT901BLE68-01(48591DE3C19B)	-0.289	-1.043	0.263	3.601	19.653	-35.522	-75.15	13.11	-162.83	-38.808	-51.254	-8.036	0.17520	0.06668	0.61185	-0.76837	30.5	13111	100
2025-3-27 17:51:0.529	WT901BLE68-01(48591DE3C19B)	-0.288	-1.043	0.263	3.601	19.653	-35.522	-75.18	12.83	-162.93	-38.808	-51.254	-8.036	0.17520	0.06668	0.61185	-0.76837	30.5	13111	100
2025-3-27 17:51:0.589	WT901BLE68-01(48591DE3C19B)	-0.288	-1.076	0.262	4.150	24.658	-35.217	-75.22	12.56	-163.05	-38.808	-51.254	-8.036	0.17520	0.06668	0.61185	-0.76837	30.5	13111	100
2025-3-27 17:51:0.589	WT901BLE68-01(48591DE3C19B)	-0.280	-1.076	0.262	4.150	24.658	-35.217	-75.25	12.30	-163.19	-38.808	-51.254	-8.036	0.17520	0.06668	0.61185	-0.76837	30.5	13111	100
2025-3-27 17:51:0.589	WT901BLE68-01(48591DE3C19B)	-0.280	-1.035	0.245	7.629	30.090	-34.180	-75.28	12.05	-163.36	-38.808	-51.254	-8.036	0.17737	-0.00562	0.61292	-0.76987	30.5	13111	100
2025-3-27 17:51:0.589	WT901BLE68-01(48591DE3C19B)	-0.275	-1.035	0.245	7.629	30.090	-34.180	-75.29	11.82	-163.55	-38.808	-51.254	-8.036	0.17737	-0.00562	0.61292	-0.76987	30.5	13111	100
2025-3-27 17:51:0.618	WT901BLE68-01(48591DE3C19B)	-0.275	-0.961	0.220	7.385	33.081	-32.532	-75.31	11.59	-163.75	-38.808	-51.254	-8.036	0.17737	-0.00562	0.61292	-0.76987	30.5	13111	100
2025-3-27 17:51:0.618	WT901BLE68-01(48591DE3C19B)	-0.297	-0.961	0.220	7.385	33.081	-32.532	-75.32	11.38	-163.97	-38.808	-51.254	-8.036	0.17737	-0.00562	0.61292	-0.76987	30.5	13111	100
2025-3-27 17:51:0.618	WT901BLE68-01(48591DE3C19B)	-0.297	-0.935	0.210	5.798	32.532	-31.250	-75.35	11.17	-164.17	-38.808	-51.254	-8.036	0.17737	-0.00562	0.61292	-0.76987	30.5	13111	100
2025-3-27 17:51:0.618	WT901BLE68-01(48591DE3C19B)	-0.328	-0.935	0.210	5.798	32.532	-31.250	-75.38	10.98	-164.38	-38.808	-51.254	-8.036	0.17737	-0.00562	0.61292	-0.76987	30.5	13111	100
2025-3-27 17:51:0.648	WT901BLE68-01(48591DE3C19B)	-0.328	-0.908	0.204	4.150	26.367	-30.945	-75.41	10.78	-164.55	-38.808	-51.254	-8.036	0.17737	-0.00562	0.61292	-0.76987	30.5	13111	100
2025-3-27 17:51:0.648	WT901BLE68-01(48591DE3C19B)	-0.345	-0.908	0.204	4.150	26.367	-30.945	-75.45	10.57	-164.70	-38.808	-51.254	-8.036	0.17737	-0.00562	0.61292	-0.76987	30.5	13111	100
2025-3-27 17:51:0.648	WT901BLE68-01(48591DE3C19B)	-0.345	-0.888	0.192	1.038	13.855	-31.738	-75.49	10.35	-164.79	-38.808	-51.254	-8.036	0.17737	-0.00562	0.61292	-0.76987	30.5	13111	100
2025-3-27 17:51:0.649	WT901BLE68-01(48591DE3C19B)	-0.354	-0.888	0.192	1.038	13.855	-31.738	-75.54	10.11	-164.82	-38.808	-51.254	-8.036	0.17737	-0.00562	0.61292	-0.76987	30.5	13111	100
2025-3-27 17:51:0.679	WT901BLE68-01(48591DE3C19B)	-0.354	-0.891	0.180	-2.136	-1.099	-33.875	-75.59	9.85	-164.78	-38.808	-51.254	-8.036	0.17737	-0.00562	0.61292	-0.76987	30.5	13111	100
2025-3-27 17:51:0.679	WT901BLE68-01(48591DE3C19B)	-0.373	-0.891	0.180	-2.136	-1.099	-33.875	-75.64	9.56	-164.67	-38.808	-51.254	-8.036	0.17737	-0.00562	0.61292	-0.76987	30.5	13111	100
2025-3-27 17:51:0.679	WT901BLE68-01(48591DE3C19B)	-0.373	-0.916	0.173	-4.028	-18.005	-36.560	-75.69	9.25	-164.49	-38.808	-51.254	-8.036	0.17737	-0.00562	0.61292	-0.76987	30.5	13111	100
2025-3-27 17:51:0.679	WT901BLE68-01(48591DE3C19B)	-0.398	-0.916	0.173	-4.028	-18.005	-36.560	-75.74	8.90	-164.23	-38.808	-51.254	-8.036	0.17737	-0.00562	0.61292	-0.76987	30.5	13111	100
2025-3-27 17:51:0.769	WT901BLE68-01(48591DE3C19B)	-0.398	-0.926	0.163	-4.333	-37.231	-39.978	-75.78	8.52	-163.89	-38.808	-51.254	-8.036	0.17737	-0.00562	0.61292	-0.76987	30.5	13111	100
2025-3-27 17:51:0.769	WT901BLE68-01(48591DE3C19B)	-0.391	-0.926	0.163	-4.333	-37.231	-39.978	-75.81	8.10	-163.47	-38.808	-51.254	-8.036	0.17737	-0.00562	0.61292	-0.76987	30.5	13111	100
2025-3-27 17:51:0.770	WT901BLE68-01(48591DE3C19B)	-0.391	-0.906	0.159	-4.883	-55.664	-42.725	-75.83	7.61	-162.87	-38.808	-51.254	-8.036	0.17737	-0.00562	0.61292	-0.76987	30.5	13111	100
2025-3-27 17:51:0.770	WT901BLE68-01(48591DE3C19B)	-0.377	-0.906	0.159	-4.883	-55.664	-42.725	-75.86	7.14	-162.27	-38.808	-51.254	-8.036	0.17737	-0.00562	0.61292	-0.76987	30.5	13111	100
2025-3-27 17:51:0.770	WT901BLE68-01(48591DE3C19B)	-0.377	-0.905	0.158	-5.859	-69.397	-44.556	-75.88	6.61	-161.55	-38.808	-51.254	-8.036	0.17737	-0.00562	0.61292	-0.76987	30.5	13111	100
2025-3-27 17:51:0.771	WT901BLE68-01(48591DE3C19B)	-0.352	-0.905	0.158	-5.859	-69.397	-44.556	-75.90	6.09	-160.83	-38.808	-51.254	-8.036	0.17737	-0.00562	0.61292	-0.76987	30.5	13111	100
2025-3-27 17:51:0.771	WT901BLE68-01(48591DE3C19B)	-0.352	-0.886	0.160	-5.005	-75.745	-45.227	-75.93	5.54	-160.06	-38.808	-51.254	-8.036	0.17737	-0.00562	0.61292	-0.76987	30.5	13111	100
2025-3-27 17:51:0.771	WT901BLE68-01(48591DE3C19B)	-0.323	-0.886	0.160	-5.005	-75.745	-45.227	-75.95	5.01	-159.29	-33.908	-46.648	-7.448	0.17737	-0.00562	0.61292	-0.76987	30.5	13111	100
2025-3-27 17:51:0.800	WT901BLE68-01(48591DE3C19B)	-0.323	-0.838	0.149	-3.662	-76.111	-45.166	-75.98	4.48	-158.52	-33.908	-46.648	-7.448	0.17737	-0.00562	0.61292	-0.76987	30.5	13111	100
2025-3-27 17:51:0.800	WT901BLE68-01(48591DE3C19B)	-0.305	-0.838	0.149	-3.662	-76.111	-45.166	-76.00	3.94	-157.75	-33.908	-46.648	-7.448	0.17737	-0.00562	0.61292	-0.76987	30.5	13111	100
2025-3-27 17:51:0.801	WT901BLE68-01(48591DE3C19B)	-0.305	-0.799	0.131	-2.930	-72.998	-44.861	-76.03	3.43	-157.01	-33.908	-46.648	-7.448	0.17737	-0.00562	0.61292	-0.76987	30.5	13111	100
2025-3-27 17:51:0.801	WT901BLE68-01(48591DE3C19B)	-0.294	-0.799	0.131	-2.930	-72.998	-44.861	-76.06	2.92	-156.28	-33.908	-46.648	-7.448	0.17737	-0.00562	0.61292	-0.76987	30.5	13111	100
2025-3-27 17:51:0.859	WT901BLE68-01(48591DE3C19B)	-0.294	-0.804	0.126	-2.563	-68.909	-45.105	-76.11	2.42	-155.58	-33.908	-46.648	-7.448	0.17737	-0.00562	0.61292	-0.76987	30.5	13111	100
2025-3-27 17:51:0.860	WT901BLE68-01(48591DE3C19B)	-0.306	-0.804	0.126	-2.563	-68.909	-45.105	-76.15	1.92	-154.89	-33.908	-46.648	-7.448	0.17737	-0.00562	0.61292	-0.76987	30.5	13111	100
2025-3-27 17:51:0.860	WT901BLE68-01(48591DE3C19B)	-0.306	-0.864	0.145	-0.916	-66.101	-45.288	-76.19	1.43	-154.22	-33.908	-46.648	-7.448	0.17737	-0.00562	0.61292	-0.76987	30.5	13111	100
2025-3-27 17:51:0.860	WT901BLE68-01(48591DE3C19B)	-0.326	-0.864	0.145	-0.916	-66.101	-45.288	-76.23	0.94	-153.54	-33.908	-46.648	-7.448	0.17737	-0.00562	0.61292	-0.76987	30.5	13111	100
2025-3-27 17:51:0.888	WT901BLE68-01(48591DE3C19B)	-0.326	-0.889	0.160	3.113	-66.406	-45.410	-76.23	0.45	-152.88	-33.908	-46.648	-7.448	0.17737	-0.00562	0.61292	-0.76987	30.5	13111	100
2025-3-27 17:51:0.888	WT901BLE68-01(48591DE3C19B)	-0.307	-0.889	0.160	3.113	-66.406	-45.410	-76.25	-0.03	-152.21	-33.908	-46.648	-7.448	0.17737	-0.00562	0.61292	-0.76987	30.5	13111	100
2025-3-27 17:51:0.888	WT901BLE68-01(48591DE3C19B)	-0.307	-0.903	0.169	6.165	-67.261	-44.983	-76.23	-0.51	-151.53	-33.908	-46.648	-7.448	0.17737	-0.00562	0.61292	-0.76987	30.5	13111	100
2025-3-27 17:51:0.888	WT901BLE68-01(48591DE3C19B)	-0.272	-0.903	0.169	6.165	-67.261	-44.983	-76.22	-0.99	-150.86	-33.908	-46.648	-7.448	0.17737	-0.00562	0.61292	-0.76987	30.5	13111	100
2025-3-27 17:51:0.979	WT901BLE68-01(48591DE3C19B)	-0.272	-0.927	0.172	7.690	-63.721	-44.128	-76.20	-1.45	-150.22	-33.908	-46.648	-7.448	0.17737	-0.00562	0.61292	-0.76987	30.5	13111	100
2025-3-27 17:51:0.979	WT901BLE68-01(48591DE3C19B)	-0.247	-0.927	0.172	7.690	-63.721	-44.128	-76.17	-1.91	-149.57	-33.908	-46.648	-7.448	0.17737	-0.00562	0.61292	-0.76987	30.5	13111	100
2025-3-27 17:51:0.979	WT901BLE68-01(48591DE3C19B)	-0.247	-1.052	0.186	8.301	-54.626	-43.762	-76.15	-2.35	-149.02	-33.908	-46.648	-7.448	0.17737	-0.00562	0.61292	-0.76987	30.5	13111	100
2025-3-27 17:51:0.979	WT901BLE68-01(48591DE3C19B)	-0.255	-1.052	0.186	8.301	-54.626	-43.762	-76.14	-2.79	-148.46	-33.908	-46.648	-7.448	0.17737	-0.00562	0.61292	-0.76987	30.5	13111	100
2025-3-27 17:51:0.980	WT901BLE68-01(48591DE3C19B)	-0.255	-1.250	0.226	11.902	-42.053	-43.640	-76.07	-3.20	-148.02	-33.908	-46.648	-7.448	0.17737	-0.00562	0.61292	-0.76987	30.5	13111	100
2025-3-27 17:51:0.980	WT901BLE68-01(48591DE3C19B)	-0.513	-1.250	0.226	11.902	-42.053	-43.640	-76.02	-3.61	-147.58	-33.908	-46.648	-7.448	0.20120	-0.19565	0.58408	-0.76157	30.5	13111	100
2025-3-27 17:51:0.980	WT901BLE68-01(48591DE3C19B)	-2.051	-2.730	0.523	19.836	-29.846	-40.894	-75.88	-3.97	-147.24	-33.908	-46.648	-7.448	0.20120	-0.19565	0.58408	-0.76157	30.5	13111	100
2025-3-27 17:51:0.980	WT901BLE68-01(48591DE3C19B)	-0.218	-10.921	2.094	19.836	-29.846	-40.894	-75.74	-4.33	-146.91	-33.908	-46.648	-7.448	0.20120	-0.19565	0.58408	-0.76157	30.5	13111	100
2025-3-27 17:51:1.9	WT901BLE68-01(48591DE3C19B)	-0.218	-1.318	0.252	24.902	-12.817	-34.729	-75.54	-4.61	-146.72	-33.908	-46.648	-7.448	0.20120	-0.19565	0.58408	-0.76157	30.5	13111	100
2025-3-27 17:51:1.9	WT901BLE68-01(48591DE3C19B)	-0.171	-1.318	0.252	24.902	-12.817	-34.729	-75.34	-4.88	-146.54	-33.908	-46.648	-7.448	0.20120	-0.19565	0.58408	-0.76157	30.5	13111	100
2025-3-27 17:51:1.9	WT901BLE68-01(48591DE3C19B)	-0.171	-1.234	0.226	26.245	7.324	-24.292	-75.11	-5.00	-146.51	-33.908	-46.648	-7.448	0.20120	-0.19565	0.58408	-0.76157	30.5	13111	100
2025-3-27 17:51:1.9	WT901BLE68-01(48591DE3C19B)	-0.209	-1.234	0.226	26.245	7.324	-24.292	-74.89	-5.12	-146.50	-33.908	-46.648	-7.448	0.20120	-0.19565	0.58408	-0.76157	30.5	13111	100
2025-3-27 17:51:1.69	WT901BLE68-01(48591DE3C19B)	-0.209	-1.186	0.224	20.691	18.433	-11.108	-74.71	-5.09	-146.55	-33.908	-46.648	-7.448	0.20120	-0.19565	0.58408	-0.76157	30.5	13111	100
2025-3-27 17:51:1.70	WT901BLE68-01(48591DE3C19B)	-0.237	-1.186	0.224	20.691	18.433	-11.108	-74.54	-5.05	-146.60	-33.908	-46.648	-7.448	0.20120	-0.19565	0.58408	-0.76157	30.5	13111	100
2025-3-27 17:51:1.70	WT901BLE68-01(48591DE3C19B)	-0.237	-1.153	0.224	13.550	16.113	2.869	-74.44	-4.89	-146.60	-33.908	-46.648	-7.448	0.20120	-0.19565	0.58408	-0.76157	30.5	13111	100
2025-3-27 17:51:1.70	WT901BLE68-01(48591DE3C19B)	-0.217	-1.153	0.224	13.550	16.113	2.869	-74.34	-4.73	-146.59	-33.908	-46.648	-7.448	0.20120	-0.19565	0.58408	-0.76157	30.5	13111	100
2025-3-27 17:51:1.130	WT901BLE68-01(48591DE3C19B)	-0.217	-1.210	0.176	1.343	4.944	15.320	-74.38	-4.48	-146.44	-33.908	-46.648	-7.448	0.20120	-0.19565	0.58408	-0.76157	30.5	13111	100
2025-3-27 17:51:1.130	WT901BLE68-01(48591DE3C19B)	-0.235	-1.210	0.176	1.343	4.944	15.320	-74.42	-4.24	-146.29	-33.908	-46.648	-7.448	0.20120	-0.19565	0.58408	-0.76157	30.5	13111	100
2025-3-27 17:51:1.130	WT901BLE68-01(48591DE3C19B)	-0.235	-1.283	0.134	-6.775	-11.292	27.283	-74.55	-3.92	-145.95	-33.908	-46.648	-7.448	0.20120	-0.19565	0.58408	-0.76157	30.5	13111	100
2025-3-27 17:51:1.130	WT901BLE68-01(48591DE3C19B)	-0.280	-1.283	0.134	-6.775	-11.292	27.283	-74.68	-3.61	-145.62	-33.908	-46.648	-7.448	0.20120	-0.19565	0.58408	-0.76157	30.5	13111	100
2025-3-27 17:51:1.130	WT901BLE68-01(48591DE3C19B)	-0.280	-1.143	0.166	-9.216	-41.443	37.170	-74.86	-3.28	-144.96	-33.908	-46.648	-7.448	0.20120	-0.19565	0.58408	-0.76157	30.5	13111	100
2025-3-27 17:51:1.130	WT901BLE68-01(48591DE3C19B)	-0.316	-1.143	0.166	-9.216	-41.443	37.170	-75.03	-2.96	-144.32	-33.908	-46.648	-7.448	0.20120	-0.19565	0.58408	-0.76157	30.5	13111	100
2025-3-27 17:51:1.130	WT901BLE68-01(48591DE3C19B)	-0.316	-0.901	0.216	-14.648	-87.280	45.959	-75.27	-2.65	-143.21	-33.908	-46.648	-7.448	0.20120	-0.19565	0.58408	-0.76157	30.5	13111	100
2025-3-27 17:51:1.130	WT901BLE68-01(48591DE3C19B)	-0.296	-0.901	0.216	-14.648	-87.280	45.959	-75.50	-2.35	-142.11	-33.908	-46.648	-7.448	0.20120	-0.19565	0.58408	-0.76157	30.5	13111	100
2025-3-27 17:51:1.188	WT901BLE68-01(48591DE3C19B)	-0.296	-0.727	0.222	-21.118	-133.850	59.448	-75.81	-2.02	-140.54	-33.908	-46.648	-7.448	0.20120	-0.19565	0.58408	-0.76157	30.5	13111	100
2025-3-27 17:51:1.188	WT901BLE68-01(48591DE3C19B)	-0.190	-0.727	0.222	-21.118	-133.850	59.448	-76.10	-1.68	-138.99	-44.982	-45.374	-11.760	0.20120	-0.19565	0.58408	-0.76157	30.5	13111	100
2025-3-27 17:51:1.188	WT901BLE68-01(48591DE3C19B)	-0.190	-0.721	0.158	-21.484	-163.696	74.402	-76.39	-1.26	-137.12	-44.982	-45.374	-11.760	0.20120	-0.19565	0.58408	-0.76157	30.5	13111	100
2025-3-27 17:51:1.188	WT901BLE68-01(48591DE3C19B)	-0.060	-0.721	0.158	-21.484	-163.696	74.402	-76.67	-0.83	-135.26	-44.982	-45.374	-11.760	0.20120	-0.19565	0.58408	-0.76157	30.5	13111	100
2025-3-27 17:51:1.248	WT901BLE68-01(48591DE3C19B)	0.018	-0.750	0.084	-16.663	-168.518	88.623	-76.88	-0.27	-133.33	-44.982	-45.374	-11.760	0.20120	-0.19565	0.58408	-0.76157	30.5	13111	100
2025-3-27 17:51:1.248	WT901BLE68-01(48591DE3C19B)	0.018	-0.872	0.041	-12.512	-152.649	97.046	-77.05	0.34	-131.47	-44.982	-45.374	-11.760	0.20120	-0.19565	0.58408	-0.76157	30.5	13111	100
2025-3-27 17:51:1.248	WT901BLE68-01(48591DE3C19B)	0.027	-0.872	0.041	-12.512	-152.649	97.046	-77.18	1.00	-129.68	-44.982	-45.374	-11.760	0.20120	-0.19565	0.58408	-0.76157	30.5	13111	100
2025-3-27 17:51:1.248	WT901BLE68-01(48591DE3C19B)	0.027	-1.074	0.024	-4.089	-124.512	104.980	-77.26	1.73	-128.02	-44.982	-45.374	-11.760	0.20120	-0.19565	0.58408	-0.76157	30.5	13111	100
2025-3-27 17:51:1.248	WT901BLE68-01(48591DE3C19B)	0.001	-1.074	0.024	-4.089	-124.512	104.980	-77.28	2.52	-126.49	-44.982	-45.374	-11.760	0.20120	-0.19565	0.58408	-0.76157	30.5	13111	100
2025-3-27 17:51:1.248	WT901BLE68-01(48591DE3C19B)	0.001	-1.214	0.048	5.371	-94.299	113.953	-77.24	3.37	-125.10	-44.982	-45.374	-11.760	0.20120	-0.19565	0.58408	-0.76157	30.5	13111	100
2025-3-27 17:51:1.248	WT901BLE68-01(48591DE3C19B)	-0.066	-1.214	0.048	5.371	-94.299	113.953	-77.14	4.28	-123.84	-44.982	-45.374	-11.760	0.20120	-0.19565	0.58408	-0.76157	30.5	13111	100
2025-3-27 17:51:1.248	WT901BLE68-01(48591DE3C19B)	-0.066	-1.252	0.120	12.024	-69.214	126.343	-77.01	5.28	-122.68	-44.982	-45.374	-11.760	0.20120	-0.19565	0.58408	-0.76157	30.5	13111	100
2025-3-27 17:51:1.308	WT901BLE68-01(48591DE3C19B)	-0.088	-1.252	0.120	12.024	-69.214	126.343	-76.83	6.35	-121.64	-44.982	-45.374	-11.760	0.20120	-0.19565	0.58408	-0.76157	30.5	13111	100
2025-3-27 17:51:1.308	WT901BLE68-01(48591DE3C19B)	-0.088	-1.220	0.197	13.855	-50.781	139.038	-76.64	7.49	-120.67	-44.982	-45.374	-11.760	0.20120	-0.19565	0.58408	-0.76157	30.5	13111	100
2025-3-27 17:51:1.308	WT901BLE68-01(48591DE3C19B)	-0.103	-1.220	0.197	13.855	-50.781	139.038	-76.42	8.70	-119.77	-44.982	-45.374	-11.760	0.20120	-0.19565	0.58408	-0.76157	30.5	13111	100
2025-3-27 17:51:1.308	WT901BLE68-01(48591DE3C19B)	-0.103	-1.235	0.250	9.644	-36.987	152.527	-76.21	9.99	-118.92	-44.982	-45.374	-11.760	0.20120	-0.19565	0.58408	-0.76157	30.5	13111	100
2025-3-27 17:51:1.340	WT901BLE68-01(48591DE3C19B)	-0.116	-1.235	0.250	9.644	-36.987	152.527	-76.01	11.34	-118.12	-44.982	-45.374	-11.760	0.20120	-0.19565	0.58408	-0.76157	30.5	13111	100
2025-3-27 17:51:1.340	WT901BLE68-01(48591DE3C19B)	-0.116	-1.259	0.237	9.399	-25.269	162.292	-75.81	12.74	-117.36	-44.982	-45.374	-11.760	0.20120	-0.19565	0.58408	-0.76157	30.5	13111	100
2025-3-27 17:51:1.340	WT901BLE68-01(48591DE3C19B)	-0.095	-1.259	0.237	9.399	-25.269	162.292	-75.59	14.20	-116.64	-44.982	-45.374	-11.760	0.20120	-0.19565	0.58408	-0.76157	30.5	13111	100
2025-3-27 17:51:1.340	WT901BLE68-01(48591DE3C19B)	-0.095	-1.211	0.217	8.789	-13.550	166.382	-75.37	15.68	-115.97	-44.982	-45.374	-11.760	0.20120	-0.19565	0.58408	-0.76157	30.5	13111	100
2025-3-27 17:51:1.370	WT901BLE68-01(48591DE3C19B)	-0.157	-1.211	0.217	8.789	-13.550	166.382	-75.15	17.18	-115.35	-44.982	-45.374	-11.760	0.20120	-0.19565	0.58408	-0.76157	30.5	13111	100
2025-3-27 17:51:1.370	WT901BLE68-01(48591DE3C19B)	-0.157	-1.201	0.230	6.226	-4.944	167.603	-74.94	18.69	-114.75	-44.982	-45.374	-11.760	0.20120	-0.19565	0.58408	-0.76157	30.5	13111	100
2025-3-27 17:51:1.370	WT901BLE68-01(48591DE3C19B)	-0.241	-1.201	0.230	6.226	-4.944	167.603	-74.74	20.21	-114.19	-44.982	-45.374	-11.760	0.51883	-0.20374	0.57858	-0.59537	30.5	13111	100
2025-3-27 17:51:1.371	WT901BLE68-01(48591DE3C19B)	-0.241	-1.228	0.277	6.042	-13.489	168.823	-74.51	21.71	-113.58	-44.982	-45.374	-11.760	0.51883	-0.20374	0.57858	-0.59537	30.5	13111	100
2025-3-27 17:51:1.428	WT901BLE68-01(48591DE3C19B)	-0.261	-1.228	0.277	6.042	-13.489	168.823	-74.23	23.20	-112.91	-44.982	-45.374	-11.760	0.51883	-0.20374	0.57858	-0.59537	30.5	13111	100
2025-3-27 17:51:1.429	WT901BLE68-01(48591DE3C19B)	-0.261	-1.253	0.278	7.202	-30.884	170.166	-73.90	24.66	-112.14	-44.982	-45.374	-11.760	0.51883	-0.20374	0.57858	-0.59537	30.5	13111	100
2025-3-27 17:51:1.429	WT901BLE68-01(48591DE3C19B)	-0.225	-1.253	0.278	7.202	-30.884	170.166	-73.49	26.09	-111.26	-44.982	-45.374	-11.760	0.51883	-0.20374	0.57858	-0.59537	30.5	13111	100
2025-3-27 17:51:1.429	WT901BLE68-01(48591DE3C19B)	-0.225	-1.270	0.240	10.681	-45.532	171.448	-73.01	27.50	-110.28	-44.982	-45.374	-11.760	0.51883	-0.20374	0.57858	-0.59537	30.5	13111	100
2025-3-27 17:51:1.489	WT901BLE68-01(48591DE3C19B)	-0.162	-1.270	0.240	10.681	-45.532	171.448	-72.44	28.88	-109.19	-44.982	-45.374	-11.760	0.51883	-0.20374	0.57858	-0.59537	30.5	13111	100
2025-3-27 17:51:1.489	WT901BLE68-01(48591DE3C19B)	-0.162	-1.250	0.205	14.343	-52.185	170.410	-71.80	30.22	-108.05	-44.982	-45.374	-11.760	0.51883	-0.20374	0.57858	-0.59537	30.5	13111	100
2025-3-27 17:51:1.489	WT901BLE68-01(48591DE3C19B)	-0.107	-1.250	0.205	14.343	-52.185	170.410	-71.08	31.53	-106.83	-44.982	-45.374	-11.760	0.51883	-0.20374	0.57858	-0.59537	30.5	13111	100
2025-3-27 17:51:1.489	WT901BLE68-01(48591DE3C19B)	-0.107	-1.230	0.221	17.029	-49.866	169.067	-70.33	32.82	-105.61	-44.982	-45.374	-11.760	0.51883	-0.20374	0.57858	-0.59537	30.5	13111	100
2025-3-27 17:51:1.490	WT901BLE68-01(48591DE3C19B)	-0.024	-1.230	0.221	17.029	-49.866	169.067	-69.53	34.08	-104.36	-44.982	-45.374	-11.760	0.51883	-0.20374	0.57858	-0.59537	30.5	13111	100
2025-3-27 17:51:1.491	WT901BLE68-01(48591DE3C19B)	-0.024	-1.208	0.247	19.287	-39.185	164.490	-68.72	35.31	-103.15	-44.982	-45.374	-11.760	0.51883	-0.20374	0.57858	-0.59537	30.5	13111	100
2025-3-27 17:51:1.491	WT901BLE68-01(48591DE3C19B)	0.025	-1.208	0.247	19.287	-39.185	164.490	-67.91	36.52	-101.98	-44.982	-45.374	-11.760	0.51883	-0.20374	0.57858	-0.59537	30.5	13111	100
2025-3-27 17:51:1.491	WT901BLE68-01(48591DE3C19B)	0.025	-1.120	0.263	20.142	-16.479	158.630	-67.14	37.72	-100.92	-44.982	-45.374	-11.760	0.51883	-0.20374	0.57858	-0.59537	30.5	13111	100
2025-3-27 17:51:1.550	WT901BLE68-01(48591DE3C19B)	0.036	-1.120	0.263	20.142	-16.479	158.630	-66.42	38.92	-99.98	-44.982	-45.374	-11.760	0.51883	-0.20374	0.57858	-0.59537	30.5	13111	100
2025-3-27 17:51:1.550	WT901BLE68-01(48591DE3C19B)	0.036	-1.052	0.252	17.029	9.949	150.146	-65.79	40.12	-99.17	-44.982	-45.374	-11.760	0.51883	-0.20374	0.57858	-0.59537	30.5	13111	100
2025-3-27 17:51:1.550	WT901BLE68-01(48591DE3C19B)	0.052	-1.052	0.252	17.029	9.949	150.146	-65.27	41.31	-98.53	-44.982	-45.374	-11.760	0.51883	-0.20374	0.57858	-0.59537	30.5	13111	100
2025-3-27 17:51:1.550	WT901BLE68-01(48591DE3C19B)	0.052	-1.004	0.235	13.123	30.029	138.306	-64.85	42.48	-98.03	-44.982	-45.374	-11.760	0.51883	-0.20374	0.57858	-0.59537	30.5	13111	100
2025-3-27 17:51:1.579	WT901BLE68-01(48591DE3C19B)	0.086	-1.004	0.235	13.123	30.029	138.306	-64.53	43.62	-97.66	-44.982	-45.374	-11.760	0.51883	-0.20374	0.57858	-0.59537	30.5	13111	100
2025-3-27 17:51:1.579	WT901BLE68-01(48591DE3C19B)	0.086	-0.949	0.224	8.362	45.227	124.817	-64.32	44.73	-97.41	-44.982	-45.374	-11.760	0.51883	-0.20374	0.57858	-0.59537	30.5	13111	100
2025-3-27 17:51:1.579	WT901BLE68-01(48591DE3C19B)	0.048	-0.949	0.224	8.362	45.227	124.817	-64.23	45.80	-97.30	-44.982	-45.374	-11.760	0.51883	-0.20374	0.57858	-0.59537	30.5	13111	100
2025-3-27 17:51:1.579	WT901BLE68-01(48591DE3C19B)	0.048	-0.868	0.227	3.784	53.040	109.619	-64.22	46.81	-97.28	-81.242	-38.710	-8.722	0.51883	-0.20374	0.57858	-0.59537	30.5	13111	100
2025-3-27 17:51:1.610	WT901BLE68-01(48591DE3C19B)	0.033	-0.868	0.227	3.784	53.040	109.619	-64.31	47.76	-97.37	-81.242	-38.710	-8.722	0.51883	-0.20374	0.57858	-0.59537	30.5	13111	100
2025-3-27 17:51:1.610	WT901BLE68-01(48591DE3C19B)	0.033	-0.813	0.231	-2.380	49.072	90.454	-64.46	48.61	-97.49	-81.242	-38.710	-8.722	0.51883	-0.20374	0.57858	-0.59537	30.5	13111	100
2025-3-27 17:51:1.611	WT901BLE68-01(48591DE3C19B)	0.008	-0.813	0.231	-2.380	49.072	90.454	-64.67	49.36	-97.66	-81.242	-38.710	-8.722	0.51883	-0.20374	0.57858	-0.59537	30.5	13111	100
2025-3-27 17:51:1.611	WT901BLE68-01(48591DE3C19B)	0.008	-0.776	0.253	-6.348	39.185	71.289	-64.90	49.99	-97.83	-81.242	-38.710	-8.722	0.51883	-0.20374	0.57858	-0.59537	30.5	13111	100
2025-3-27 17:51:1.728	WT901BLE68-01(48591DE3C19B)	-0.017	-0.776	0.253	-6.348	39.185	71.289	-65.14	50.52	-98.00	-81.242	-38.710	-8.722	0.51883	-0.20374	0.57858	-0.59537	30.5	13111	100
2025-3-27 17:51:1.728	WT901BLE68-01(48591DE3C19B)	-0.017	-0.753	0.267	-7.751	25.330	49.683	-65.37	50.91	-98.14	-81.242	-38.710	-8.722	0.51883	-0.20374	0.57858	-0.59537	30.5	13111	100
2025-3-27 17:51:1.728	WT901BLE68-01(48591DE3C19B)	-0.053	-0.753	0.267	-7.751	25.330	49.683	-65.58	51.17	-98.26	-81.242	-38.710	-8.722	0.51883	-0.20374	0.57858	-0.59537	30.5	13111	100
2025-3-27 17:51:1.728	WT901BLE68-01(48591DE3C19B)	-0.053	-0.711	0.280	-6.287	10.071	29.297	-65.71	51.19	-98.29	-81.242	-38.710	-8.722	0.51883	-0.20374	0.57858	-0.59537	30.5	13111	100
2025-3-27 17:51:1.729	WT901BLE68-01(48591DE3C19B)	-0.066	-0.711	0.280	-6.287	10.071	29.297	-65.84	51.21	-98.32	-81.242	-38.710	-8.722	0.51883	-0.20374	0.57858	-0.59537	30.5	13111	100
2025-3-27 17:51:1.729	WT901BLE68-01(48591DE3C19B)	-0.066	-0.680	0.276	-2.747	-2.502	9.766	-65.87	50.99	-98.30	-81.242	-38.710	-8.722	0.51883	-0.20374	0.57858	-0.59537	30.5	13111	100
2025-3-27 17:51:1.729	WT901BLE68-01(48591DE3C19B)	-0.026	-0.680	0.276	-2.747	-2.502	9.766	-65.91	50.79	-98.28	-81.242	-38.710	-8.722	0.51883	-0.20374	0.57858	-0.59537	30.5	13111	100
2025-3-27 17:51:1.729	WT901BLE68-01(48591DE3C19B)	-0.026	-0.742	0.237	-3.174	-4.761	-10.559	-66.03	50.39	-98.35	-81.242	-38.710	-8.722	0.51883	-0.20374	0.57858	-0.59537	30.5	13111	100
2025-3-27 17:51:1.759	WT901BLE68-01(48591DE3C19B)	-0.048	-0.742	0.237	-3.174	-4.761	-10.559	-66.14	49.99	-98.42	-81.242	-38.710	-8.722	0.51883	-0.20374	0.57858	-0.59537	30.5	13111	100
2025-3-27 17:51:1.759	WT901BLE68-01(48591DE3C19B)	-0.048	-1.029	0.195	-5.737	-2.258	-38.513	-66.44	49.36	-98.70	-81.242	-38.710	-8.722	0.51883	-0.20374	0.57858	-0.59537	30.5	13111	100
2025-3-27 17:51:1.760	WT901BLE68-01(48591DE3C19B)	-0.070	-1.029	0.195	-5.737	-2.258	-38.513	-66.73	48.72	-98.97	-81.242	-38.710	-8.722	0.51883	-0.20374	0.57858	-0.59537	30.5	13111	100
2025-3-27 17:51:1.760	WT901BLE68-01(48591DE3C19B)	-0.070	-1.230	0.172	7.629	1.526	-68.970	-67.06	47.82	-99.46	-81.242	-38.710	-8.722	0.51883	-0.20374	0.57858	-0.59537	30.5	13111	100
2025-3-27 17:51:1.788	WT901BLE68-01(48591DE3C19B)	-0.083	-1.230	0.172	7.629	1.526	-68.970	-67.37	46.93	-99.93	-81.242	-38.710	-8.722	0.51883	-0.20374	0.57858	-0.59537	30.5	13111	100
2025-3-27 17:51:1.788	WT901BLE68-01(48591DE3C19B)	-0.083	-1.061	0.208	24.231	9.460	-96.008	-67.68	45.82	-100.63	-81.242	-38.710	-8.722	0.51883	-0.20374	0.57858	-0.59537	30.5	13111	100
2025-3-27 17:51:1.788	WT901BLE68-01(48591DE3C19B)	-0.076	-1.061	0.208	24.231	9.460	-96.008	-67.97	44.73	-101.32	-81.242	-38.710	-8.722	0.51883	-0.20374	0.57858	-0.59537	30.5	13111	100
2025-3-27 17:51:1.788	WT901BLE68-01(48591DE3C19B)	-0.076	-0.942	0.225	22.156	26.306	-124.634	-68.50	43.42	-102.33	-81.242	-38.710	-8.722	0.51883	-0.20374	0.57858	-0.59537	30.5	13111	100
2025-3-27 17:51:1.818	WT901BLE68-01(48591DE3C19B)	-0.125	-0.942	0.225	22.156	26.306	-124.634	-68.99	42.13	-103.30	-81.242	-38.710	-8.722	0.63199	-0.09860	0.59836	-0.48242	30.5	13111	100
2025-3-27 17:51:1.818	WT901BLE68-01(48591DE3C19B)	-0.125	-0.977	0.246	24.475	53.589	-153.503	-69.71	40.65	-104.71	-81.242	-38.710	-8.722	0.63199	-0.09860	0.59836	-0.48242	30.5	13111	100
2025-3-27 17:51:1.818	WT901BLE68-01(48591DE3C19B)	-0.236	-0.977	0.246	24.475	53.589	-153.503	-70.37	39.18	-106.05	-81.242	-38.710	-8.722	0.63199	-0.09860	0.59836	-0.48242	30.5	13111	100
2025-3-27 17:51:1.818	WT901BLE68-01(48591DE3C19B)	-0.236	-1.019	0.224	32.898	75.317	-179.932	-71.11	37.53	-107.70	-81.242	-38.710	-8.722	0.63199	-0.09860	0.59836	-0.48242	30.5	13111	100
2025-3-27 17:51:1.879	WT901BLE68-01(48591DE3C19B)	-0.289	-1.019	0.224	32.898	75.317	-179.932	-71.77	35.88	-109.29	-81.242	-38.710	-8.722	0.63199	-0.09860	0.59836	-0.48242	30.5	13111	100
2025-3-27 17:51:1.879	WT901BLE68-01(48591DE3C19B)	-0.289	-1.012	0.166	42.969	88.257	-202.942	-72.39	34.05	-111.05	-81.242	-38.710	-8.722	0.63199	-0.09860	0.59836	-0.48242	30.5	13111	100
2025-3-27 17:51:1.879	WT901BLE68-01(48591DE3C19B)	-0.270	-1.012	0.166	42.969	88.257	-202.942	-72.93	32.23	-112.74	-81.242	-38.710	-8.722	0.63199	-0.09860	0.59836	-0.48242	30.5	13111	100
2025-3-27 17:51:1.879	WT901BLE68-01(48591DE3C19B)	-0.270	-1.026	0.088	49.255	106.384	-223.877	-73.47	30.25	-114.64	-81.242	-38.710	-8.722	0.63199	-0.09860	0.59836	-0.48242	30.5	13111	100
2025-3-27 17:51:1.909	WT901BLE68-01(48591DE3C19B)	-0.315	-1.026	0.088	49.255	106.384	-223.877	-73.92	28.28	-116.48	-81.242	-38.710	-8.722	0.63199	-0.09860	0.59836	-0.48242	30.5	13111	100
2025-3-27 17:51:1.909	WT901BLE68-01(48591DE3C19B)	-0.315	-1.124	0.009	54.871	131.653	-244.080	-74.39	26.19	-118.58	-81.242	-38.710	-8.722	0.63199	-0.09860	0.59836	-0.48242	30.5	13111	100
2025-3-27 17:51:1.909	WT901BLE68-01(48591DE3C19B)	-0.428	-1.124	0.009	54.871	131.653	-244.080	-74.77	24.09	-120.62	-81.242	-38.710	-8.722	0.63199	-0.09860	0.59836	-0.48242	30.5	13111	100
2025-3-27 17:51:1.909	WT901BLE68-01(48591DE3C19B)	-0.428	-1.275	-0.042	59.021	145.325	-259.460	-75.10	21.89	-122.78	-81.242	-38.710	-8.722	0.63199	-0.09860	0.59836	-0.48242	30.5	13111	100
2025-3-27 17:51:1.939	WT901BLE68-01(48591DE3C19B)	-0.500	-1.275	-0.042	59.021	145.325	-259.460	-75.34	19.70	-124.89	-81.242	-38.710	-8.722	0.63199	-0.09860	0.59836	-0.48242	30.5	13111	100
2025-3-27 17:51:1.939	WT901BLE68-01(48591DE3C19B)	-0.500	-1.490	-0.038	60.913	144.287	-272.339	-75.48	17.39	-126.97	-81.242	-38.710	-8.722	0.63199	-0.09860	0.59836	-0.48242	30.5	13111	100
2025-3-27 17:51:1.939	WT901BLE68-01(48591DE3C19B)	-0.592	-1.490	-0.038	60.913	144.287	-272.339	-75.53	15.09	-129.02	-81.242	-38.710	-8.722	0.63199	-0.09860	0.59836	-0.48242	30.5	13111	100
2025-3-27 17:51:1.939	WT901BLE68-01(48591DE3C19B)	-0.592	-1.730	0.032	61.218	131.470	-279.236	-75.47	12.71	-130.91	-81.242	-38.710	-8.722	0.63199	-0.09860	0.59836	-0.48242	30.5	13111	100
2025-3-27 17:51:1.968	WT901BLE68-01(48591DE3C19B)	-0.722	-1.730	0.032	61.218	131.470	-279.236	-75.32	10.35	-132.79	-81.242	-38.710	-8.722	0.63199	-0.09860	0.59836	-0.48242	30.5	13111	100
2025-3-27 17:51:1.968	WT901BLE68-01(48591DE3C19B)	-0.722	-1.963	0.107	63.171	111.450	-276.001	-75.05	8.00	-134.44	-81.242	-38.710	-8.722	0.63199	-0.09860	0.59836	-0.48242	30.5	13111	100
2025-3-27 17:51:1.968	WT901BLE68-01(48591DE3C19B)	-0.820	-1.963	0.107	63.171	111.450	-276.001	-74.72	5.66	-136.09	-54.292	-48.412	-10.878	0.63199	-0.09860	0.59836	-0.48242	30.5	13111	100
2025-3-27 17:51:1.968	WT901BLE68-01(48591DE3C19B)	-0.410	-1.927	0.120	75.378	84.290	-269.653	-74.17	3.36	-137.47	-54.292	-48.412	-10.878	0.63199	-0.09860	0.59836	-0.48242	30.5	13111	100
2025-3-27 17:51:2.27	WT901BLE68-01(48591DE3C19B)	-0.778	-0.963	0.060	75.378	84.290	-269.653	-73.58	1.08	-138.86	-54.292	-48.412	-10.878	0.63199	-0.09860	0.59836	-0.48242	30.5	13111	100
2025-3-27 17:51:2.28	WT901BLE68-01(48591DE3C19B)	-0.778	-1.720	0.055	74.768	62.317	-251.770	-72.93	-1.06	-140.01	-54.292	-48.412	-10.878	0.63199	-0.09860	0.59836	-0.48242	30.5	13111	100
2025-3-27 17:51:2.28	WT901BLE68-01(48591DE3C19B)	-0.689	-1.720	0.055	74.768	62.317	-251.770	-72.25	-3.17	-141.18	-54.292	-48.412	-10.878	0.63199	-0.09860	0.59836	-0.48242	30.5	13111	100
2025-3-27 17:51:2.28	WT901BLE68-01(48591DE3C19B)	-0.689	-1.482	-0.026	68.726	52.490	-224.915	-71.60	-5.03	-142.20	-54.292	-48.412	-10.878	0.63199	-0.09860	0.59836	-0.48242	30.5	13111	100
2025-3-27 17:51:2.88	WT901BLE68-01(48591DE3C19B)	-0.605	-1.482	-0.026	68.726	52.490	-224.915	-70.92	-6.86	-143.23	-54.292	-48.412	-10.878	0.63199	-0.09860	0.59836	-0.48242	30.5	13111	100
2025-3-27 17:51:2.89	WT901BLE68-01(48591DE3C19B)	-0.605	-1.211	-0.010	55.908	53.894	-191.956	-70.35	-8.36	-144.18	-54.292	-48.412	-10.878	0.63199	-0.09860	0.59836	-0.48242	30.5	13111	100
2025-3-27 17:51:2.89	WT901BLE68-01(48591DE3C19B)	-0.609	-1.211	-0.010	55.908	53.894	-191.956	-69.76	-9.83	-145.16	-54.292	-48.412	-10.878	0.63199	-0.09860	0.59836	-0.48242	30.5	13111	100
2025-3-27 17:51:2.89	WT901BLE68-01(48591DE3C19B)	-0.609	-1.140	0.043	39.795	47.607	-156.982	-69.33	-10.98	-145.96	-54.292	-48.412	-10.878	0.63199	-0.09860	0.59836	-0.48242	30.5	13111	100
2025-3-27 17:51:2.89	WT901BLE68-01(48591DE3C19B)	-0.562	-1.140	0.043	39.795	47.607	-156.982	-68.90	-12.11	-146.78	-54.292	-48.412	-10.878	0.63199	-0.09860	0.59836	-0.48242	30.5	13111	100
2025-3-27 17:51:2.89	WT901BLE68-01(48591DE3C19B)	-0.562	-1.131	0.084	33.630	32.349	-123.718	-68.55	-12.97	-147.34	-54.292	-48.412	-10.878	0.63199	-0.09860	0.59836	-0.48242	30.5	13111	100
2025-3-27 17:51:2.90	WT901BLE68-01(48591DE3C19B)	-0.494	-1.131	0.084	33.630	32.349	-123.718	-68.21	-13.82	-147.91	-54.292	-48.412	-10.878	0.63199	-0.09860	0.59836	-0.48242	30.5	13111	100
2025-3-27 17:51:2.90	WT901BLE68-01(48591DE3C19B)	-0.469	-1.068	0.085	30.945	22.217	-95.764	-67.93	-14.44	-148.29	-54.292	-48.412	-10.878	0.63199	-0.09860	0.59836	-0.48242	30.5	13111	100
2025-3-27 17:51:2.149	WT901BLE68-01(48591DE3C19B)	-0.469	-1.042	0.042	29.053	24.963	-73.486	-67.66	-14.95	-148.65	-54.292	-48.412	-10.878	0.63199	-0.09860	0.59836	-0.48242	30.5	13111	100
2025-3-27 17:51:2.149	WT901BLE68-01(48591DE3C19B)	-0.508	-1.042	0.042	29.053	24.963	-73.486	-67.40	-15.34	-148.97	-54.292	-48.412	-10.878	0.63199	-0.09860	0.59836	-0.48242	30.5	13111	100
2025-3-27 17:51:2.149	WT901BLE68-01(48591DE3C19B)	-0.508	-1.021	0.022	31.921	34.485	-57.983	-67.13	-15.64	-149.32	-54.292	-48.412	-10.878	0.63199	-0.09860	0.59836	-0.48242	30.5	13111	100
2025-3-27 17:51:2.150	WT901BLE68-01(48591DE3C19B)	-0.561	-1.021	0.022	31.921	34.485	-57.983	-66.84	-15.84	-149.68	-54.292	-48.412	-10.878	0.63199	-0.09860	0.59836	-0.48242	30.5	13111	100
2025-3-27 17:51:2.238	WT901BLE68-01(48591DE3C19B)	-0.561	-0.964	0.013	33.386	37.842	-48.767	-66.53	-15.99	-150.04	-54.292	-48.412	-10.878	0.63199	-0.09860	0.59836	-0.48242	30.5	13111	100
2025-3-27 17:51:2.238	WT901BLE68-01(48591DE3C19B)	-0.567	-0.964	0.013	33.386	37.842	-48.767	-66.23	-16.08	-150.40	-54.292	-48.412	-10.878	0.63199	-0.09860	0.59836	-0.48242	30.5	13111	100
2025-3-27 17:51:2.238	WT901BLE68-01(48591DE3C19B)	-0.567	-0.909	0.011	33.203	38.513	-42.114	-65.92	-16.14	-150.77	-54.292	-48.412	-10.878	0.63199	-0.09860	0.59836	-0.48242	30.5	13111	100
2025-3-27 17:51:2.238	WT901BLE68-01(48591DE3C19B)	-0.581	-0.909	0.011	33.203	38.513	-42.114	-65.63	-16.16	-151.12	-54.292	-48.412	-10.878	0.13370	-0.24814	0.49014	-0.82474	30.5	13111	100
2025-3-27 17:51:2.239	WT901BLE68-01(48591DE3C19B)	-0.581	-0.887	0.018	30.334	35.645	-34.912	-65.35	-16.14	-151.46	-54.292	-48.412	-10.878	0.13370	-0.24814	0.49014	-0.82474	30.5	13111	100
2025-3-27 17:51:2.239	WT901BLE68-01(48591DE3C19B)	-0.603	-0.887	0.018	30.334	35.645	-34.912	-65.10	-16.08	-151.77	-54.292	-48.412	-10.878	0.13370	-0.24814	0.49014	-0.82474	30.5	13111	100
2025-3-27 17:51:2.239	WT901BLE68-01(48591DE3C19B)	-0.603	-0.914	0.033	27.161	21.362	-26.794	-64.88	-16.02	-152.02	-54.292	-48.412	-10.878	0.13370	-0.24814	0.49014	-0.82474	30.5	13111	100
2025-3-27 17:51:2.239	WT901BLE68-01(48591DE3C19B)	-0.590	-0.914	0.033	27.161	21.362	-26.794	-64.69	-15.94	-152.20	-54.292	-48.412	-10.878	0.13370	-0.24814	0.49014	-0.82474	30.5	13111	100
2025-3-27 17:51:2.328	WT901BLE68-01(48591DE3C19B)	-0.590	-0.958	0.078	22.034	0.305	-16.968	-64.56	-15.84	-152.29	-54.292	-48.412	-10.878	0.13370	-0.24814	0.49014	-0.82474	30.5	13111	100
2025-3-27 17:51:2.328	WT901BLE68-01(48591DE3C19B)	-0.514	-0.958	0.078	22.034	0.305	-16.968	-64.48	-15.75	-152.28	-54.292	-48.412	-10.878	0.13370	-0.24814	0.49014	-0.82474	30.5	13111	100
2025-3-27 17:51:2.328	WT901BLE68-01(48591DE3C19B)	-0.514	-0.979	0.116	17.944	-12.573	-4.578	-64.42	-15.62	-152.20	-54.292	-48.412	-10.878	0.13370	-0.24814	0.49014	-0.82474	30.5	13111	100
2025-3-27 17:51:2.328	WT901BLE68-01(48591DE3C19B)	-0.461	-0.979	0.116	17.944	-12.573	-4.578	-64.42	-15.46	-152.04	-54.292	-48.412	-10.878	0.13370	-0.24814	0.49014	-0.82474	30.5	13111	100
2025-3-27 17:51:2.329	WT901BLE68-01(48591DE3C19B)	-0.461	-0.961	0.128	12.146	-18.433	9.827	-64.45	-15.25	-151.83	-54.292	-48.412	-10.878	0.13370	-0.24814	0.49014	-0.82474	30.5	13111	100
2025-3-27 17:51:2.329	WT901BLE68-01(48591DE3C19B)	-0.446	-0.961	0.128	12.146	-18.433	9.827	-64.52	-15.00	-151.56	-54.292	-48.412	-10.878	0.13370	-0.24814	0.49014	-0.82474	30.5	13111	100
2025-3-27 17:51:2.329	WT901BLE68-01(48591DE3C19B)	-0.446	-0.978	0.141	3.357	-23.438	23.865	-64.64	-14.69	-151.23	-54.292	-48.412	-10.878	0.13370	-0.24814	0.49014	-0.82474	30.5	13111	100
2025-3-27 17:51:2.329	WT901BLE68-01(48591DE3C19B)	-0.433	-0.978	0.141	3.357	-23.438	23.865	-64.82	-14.33	-150.85	-54.292	-48.412	-10.878	0.13370	-0.24814	0.49014	-0.82474	30.5	13111	100
2025-3-27 17:51:2.330	WT901BLE68-01(48591DE3C19B)	-0.433	-1.009	0.108	-6.165	-28.198	36.377	-65.06	-13.93	-150.41	-54.292	-48.412	-10.878	0.13370	-0.24814	0.49014	-0.82474	30.5	13111	100
2025-3-27 17:51:2.330	WT901BLE68-01(48591DE3C19B)	-0.427	-1.009	0.108	-6.165	-28.198	36.377	-65.35	-13.49	-149.92	-54.292	-48.412	-10.878	0.13370	-0.24814	0.49014	-0.82474	30.5	13111	100
2025-3-27 17:51:2.330	WT901BLE68-01(48591DE3C19B)	-0.427	-1.108	0.067	-16.296	-37.109	45.044	-65.71	-13.03	-149.36	-54.292	-48.412	-10.878	0.13370	-0.24814	0.49014	-0.82474	30.5	13111	100
2025-3-27 17:51:2.330	WT901BLE68-01(48591DE3C19B)	-0.409	-1.108	0.067	-16.296	-37.109	45.044	-66.13	-12.56	-148.72	-54.292	-48.412	-10.878	0.13370	-0.24814	0.49014	-0.82474	30.5	13111	100
2025-3-27 17:51:2.388	WT901BLE68-01(48591DE3C19B)	-0.409	-1.010	0.081	-18.433	-55.054	50.659	-66.58	-12.10	-147.98	-54.292	-48.412	-10.878	0.13370	-0.24814	0.49014	-0.82474	30.5	13111	100
2025-3-27 17:51:2.388	WT901BLE68-01(48591DE3C19B)	-0.396	-1.010	0.081	-18.433	-55.054	50.659	-67.05	-11.65	-147.14	-54.292	-48.412	-10.878	0.13370	-0.24814	0.49014	-0.82474	30.5	13111	100
2025-3-27 17:51:2.388	WT901BLE68-01(48591DE3C19B)	-0.396	-0.722	0.153	-26.917	-81.482	60.852	-67.58	-11.20	-146.16	-54.292	-48.412	-10.878	0.13370	-0.24814	0.49014	-0.82474	30.5	13111	100
2025-3-27 17:51:2.388	WT901BLE68-01(48591DE3C19B)	-0.377	-0.722	0.153	-26.917	-81.482	60.852	-68.16	-10.74	-145.06	-54.292	-48.412	-10.878	0.13370	-0.24814	0.49014	-0.82474	30.5	13111	100
2025-3-27 17:51:2.448	WT901BLE68-01(48591DE3C19B)	-0.377	-0.636	0.201	-43.518	-112.976	73.181	-68.84	-10.27	-143.81	-33.320	-50.274	-3.626	0.13370	-0.24814	0.49014	-0.82474	30.5	13111	100
2025-3-27 17:51:2.448	WT901BLE68-01(48591DE3C19B)	-0.359	-0.636	0.201	-43.518	-112.976	73.181	-69.60	-9.78	-142.41	-33.320	-50.274	-3.626	0.13370	-0.24814	0.49014	-0.82474	30.5	13111	100
2025-3-27 17:51:2.448	WT901BLE68-01(48591DE3C19B)	-0.359	-0.754	0.187	-55.115	-146.423	87.891	-70.43	-9.27	-140.86	-33.320	-50.274	-3.626	0.13370	-0.24814	0.49014	-0.82474	30.5	13111	100
2025-3-27 17:51:2.448	WT901BLE68-01(48591DE3C19B)	-0.378	-0.754	0.187	-55.115	-146.423	87.891	-71.31	-8.71	-139.13	-33.320	-50.274	-3.626	0.13370	-0.24814	0.49014	-0.82474	30.5	13111	100
2025-3-27 17:51:2.478	WT901BLE68-01(48591DE3C19B)	-0.378	-0.917	0.184	-56.335	-179.382	103.333	-72.20	-8.11	-137.24	-33.320	-50.274	-3.626	0.13370	-0.24814	0.49014	-0.82474	30.5	13111	100
2025-3-27 17:51:2.478	WT901BLE68-01(48591DE3C19B)	-0.341	-0.917	0.184	-56.335	-179.382	103.333	-73.10	-7.47	-135.18	-33.320	-50.274	-3.626	0.13370	-0.24814	0.49014	-0.82474	30.5	13111	100
2025-3-27 17:51:2.478	WT901BLE68-01(48591DE3C19B)	-0.341	-1.223	0.190	-54.565	-203.491	120.911	-73.97	-6.75	-132.99	-33.320	-50.274	-3.626	0.13370	-0.24814	0.49014	-0.82474	30.5	13111	100
2025-3-27 17:51:2.478	WT901BLE68-01(48591DE3C19B)	-0.153	-1.223	0.190	-54.565	-203.491	120.911	-74.81	-5.95	-130.66	-33.320	-50.274	-3.626	0.13370	-0.24814	0.49014	-0.82474	30.5	13111	100
2025-3-27 17:51:2.507	WT901BLE68-01(48591DE3C19B)	-0.153	-1.494	0.001	-34.546	-204.590	138.245	-75.53	-5.06	-128.31	-33.320	-50.274	-3.626	0.13370	-0.24814	0.49014	-0.82474	30.5	13111	100
2025-3-27 17:51:2.508	WT901BLE68-01(48591DE3C19B)	0.073	-1.494	0.001	-34.546	-204.590	138.245	-76.11	-4.08	-125.93	-33.320	-50.274	-3.626	0.13370	-0.24814	0.49014	-0.82474	30.5	13111	100
2025-3-27 17:51:2.508	WT901BLE68-01(48591DE3C19B)	0.073	-1.479	-0.075	-15.625	-175.171	153.931	-76.55	-2.98	-123.67	-33.320	-50.274	-3.626	0.13370	-0.24814	0.49014	-0.82474	30.5	13111	100
2025-3-27 17:51:2.508	WT901BLE68-01(48591DE3C19B)	0.113	-1.479	-0.075	-15.625	-175.171	153.931	-76.85	-1.79	-121.54	-33.320	-50.274	-3.626	0.13370	-0.24814	0.49014	-0.82474	30.5	13111	100
2025-3-27 17:51:2.537	WT901BLE68-01(48591DE3C19B)	0.113	-1.462	-0.022	-5.493	-125.305	169.861	-77.06	-0.47	-119.62	-33.320	-50.274	-3.626	0.13370	-0.24814	0.49014	-0.82474	30.5	13111	100
2025-3-27 17:51:2.538	WT901BLE68-01(48591DE3C19B)	0.034	-1.462	-0.022	-5.493	-125.305	169.861	-77.17	0.96	-117.94	-33.320	-50.274	-3.626	0.13370	-0.24814	0.49014	-0.82474	30.5	13111	100
2025-3-27 17:51:2.538	WT901BLE68-01(48591DE3C19B)	0.034	-1.571	0.166	-3.845	-88.196	180.786	-77.24	2.47	-116.43	-33.320	-50.274	-3.626	0.13370	-0.24814	0.49014	-0.82474	30.5	13111	100
2025-3-27 17:51:2.538	WT901BLE68-01(48591DE3C19B)	-0.012	-1.571	0.166	-3.845	-88.196	180.786	-77.26	4.06	-115.10	-33.320	-50.274	-3.626	0.13370	-0.24814	0.49014	-0.82474	30.5	13111	100
2025-3-27 17:51:2.598	WT901BLE68-01(48591DE3C19B)	-0.012	-1.717	0.294	1.831	-61.218	196.899	-77.23	5.74	-113.89	-33.320	-50.274	-3.626	0.13370	-0.24814	0.49014	-0.82474	30.5	13111	100
2025-3-27 17:51:2.598	WT901BLE68-01(48591DE3C19B)	-0.023	-1.717	0.294	1.831	-61.218	196.899	-77.14	7.51	-112.79	-33.320	-50.274	-3.626	0.13370	-0.24814	0.49014	-0.82474	30.5	13111	100
2025-3-27 17:51:2.598	WT901BLE68-01(48591DE3C19B)	-0.023	-1.632	0.347	8.484	-21.179	213.684	-76.99	9.53	-112.05	-33.320	-50.274	-3.626	0.13370	-0.24814	0.49014	-0.82474	30.5	13111	100
2025-3-27 17:51:2.598	WT901BLE68-01(48591DE3C19B)	0.002	-1.632	0.347	8.484	-21.179	213.684	-76.82	11.52	-111.30	-33.320	-50.274	-3.626	0.13370	-0.24814	0.49014	-0.82474	30.5	13111	100
2025-3-27 17:51:2.628	WT901BLE68-01(48591DE3C19B)	0.002	-1.648	0.307	3.906	15.442	232.849	-76.73	13.77	-110.87	-33.320	-50.274	-3.626	0.50851	-0.26636	0.56363	-0.59387	30.5	13111	100
2025-3-27 17:51:2.628	WT901BLE68-01(48591DE3C19B)	0.145	-1.648	0.307	3.906	15.442	232.849	-76.62	16.00	-110.43	-33.320	-50.274	-3.626	0.50851	-0.26636	0.56363	-0.59387	30.5	13111	100
2025-3-27 17:51:2.628	WT901BLE68-01(48591DE3C19B)	0.145	-1.640	0.264	3.113	39.063	250.793	-76.56	18.44	-110.18	-33.320	-50.274	-3.626	0.50851	-0.26636	0.56363	-0.59387	30.5	13111	100
2025-3-27 17:51:2.628	WT901BLE68-01(48591DE3C19B)	0.198	-1.640	0.264	3.113	39.063	250.793	-76.48	20.86	-109.92	-33.320	-50.274	-3.626	0.50851	-0.26636	0.56363	-0.59387	30.5	13111	100
2025-3-27 17:51:2.657	WT901BLE68-01(48591DE3C19B)	0.198	-1.559	0.229	-1.038	58.899	265.991	-76.50	23.45	-109.84	-33.320	-50.274	-3.626	0.50851	-0.26636	0.56363	-0.59387	30.5	13111	100
2025-3-27 17:51:2.658	WT901BLE68-01(48591DE3C19B)	0.038	-1.559	0.229	-1.038	58.899	265.991	-76.51	26.02	-109.74	-33.320	-50.274	-3.626	0.50851	-0.26636	0.56363	-0.59387	30.5	13111	100
2025-3-27 17:51:2.658	WT901BLE68-01(48591DE3C19B)	0.038	-1.531	0.223	-10.803	65.063	272.644	-76.65	28.66	-109.70	-33.320	-50.274	-3.626	0.50851	-0.26636	0.56363	-0.59387	30.5	13111	100
2025-3-27 17:51:2.658	WT901BLE68-01(48591DE3C19B)	-0.184	-1.531	0.223	-10.803	65.063	272.644	-76.78	31.28	-109.67	-33.320	-50.274	-3.626	0.50851	-0.26636	0.56363	-0.59387	30.5	13111	100
2025-3-27 17:51:2.717	WT901BLE68-01(48591DE3C19B)	-0.184	-1.616	0.260	-21.423	49.133	272.034	-76.93	33.84	-109.46	-33.320	-50.274	-3.626	0.50851	-0.26636	0.56363	-0.59387	30.5	13111	100
2025-3-27 17:51:2.717	WT901BLE68-01(48591DE3C19B)	-0.124	-1.616	0.260	-21.423	49.133	272.034	-77.06	36.39	-109.26	-33.320	-50.274	-3.626	0.50851	-0.26636	0.56363	-0.59387	30.5	13111	100
2025-3-27 17:51:2.717	WT901BLE68-01(48591DE3C19B)	-0.124	-1.688	0.303	-22.583	13.489	252.625	-76.97	38.67	-108.67	-33.320	-50.274	-3.626	0.50851	-0.26636	0.56363	-0.59387	30.5	13111	100
2025-3-27 17:51:2.717	WT901BLE68-01(48591DE3C19B)	-0.070	-1.688	0.303	-22.583	13.489	252.625	-76.85	40.93	-108.06	-33.320	-50.274	-3.626	0.50851	-0.26636	0.56363	-0.59387	30.5	13111	100
2025-3-27 17:51:2.748	WT901BLE68-01(48591DE3C19B)	-0.070	-1.551	0.391	-11.780	-21.301	243.530	-76.29	43.01	-107.00	-33.320	-50.274	-3.626	0.50851	-0.26636	0.56363	-0.59387	30.5	13111	100
2025-3-27 17:51:2.748	WT901BLE68-01(48591DE3C19B)	-0.176	-1.551	0.391	-11.780	-21.301	243.530	-75.66	45.07	-105.88	-33.320	-50.274	-3.626	0.50851	-0.26636	0.56363	-0.59387	30.5	13111	100
2025-3-27 17:51:2.748	WT901BLE68-01(48591DE3C19B)	-0.176	-1.427	0.408	-8.057	-46.021	231.201	-74.70	46.93	-104.38	-33.320	-50.274	-3.626	0.50851	-0.26636	0.56363	-0.59387	30.5	13111	100
2025-3-27 17:51:2.748	WT901BLE68-01(48591DE3C19B)	-0.214	-1.427	0.408	-8.057	-46.021	231.201	-73.62	48.76	-102.79	-33.320	-50.274	-3.626	0.50851	-0.26636	0.56363	-0.59387	30.5	13111	100
2025-3-27 17:51:2.777	WT901BLE68-01(48591DE3C19B)	-0.214	-1.360	0.365	-3.723	-67.993	215.637	-72.21	50.34	-100.84	-33.320	-50.274	-3.626	0.50851	-0.26636	0.56363	-0.59387	30.5	13111	100
2025-3-27 17:51:2.777	WT901BLE68-01(48591DE3C19B)	-0.098	-1.360	0.365	-3.723	-67.993	215.637	-70.67	51.89	-98.77	-33.320	-50.274	-3.626	0.50851	-0.26636	0.56363	-0.59387	30.5	13111	100
2025-3-27 17:51:2.777	WT901BLE68-01(48591DE3C19B)	-0.098	-1.243	0.311	4.456	-76.050	197.937	-68.90	53.21	-96.54	-80.262	-40.278	-7.644	0.50851	-0.26636	0.56363	-0.59387	30.5	13111	100
2025-3-27 17:51:2.777	WT901BLE68-01(48591DE3C19B)	0.002	-1.243	0.311	4.456	-76.050	197.937	-66.98	54.47	-94.19	-80.262	-40.278	-7.644	0.50851	-0.26636	0.56363	-0.59387	30.5	13111	100
2025-3-27 17:51:2.837	WT901BLE68-01(48591DE3C19B)	0.002	-1.054	0.264	9.827	-67.017	181.885	-65.10	55.56	-91.96	-80.262	-40.278	-7.644	0.50851	-0.26636	0.56363	-0.59387	30.5	13111	100
2025-3-27 17:51:2.837	WT901BLE68-01(48591DE3C19B)	0.029	-1.054	0.264	9.827	-67.017	181.885	-63.11	56.61	-89.62	-80.262	-40.278	-7.644	0.50851	-0.26636	0.56363	-0.59387	30.5	13111	100
2025-3-27 17:51:2.837	WT901BLE68-01(48591DE3C19B)	0.029	-0.870	0.244	9.094	-53.467	168.762	-61.27	57.55	-87.49	-80.262	-40.278	-7.644	0.50851	-0.26636	0.56363	-0.59387	30.5	13111	100
2025-3-27 17:51:2.837	WT901BLE68-01(48591DE3C19B)	0.018	-0.870	0.244	9.094	-53.467	168.762	-59.34	58.45	-85.26	-80.262	-40.278	-7.644	0.50851	-0.26636	0.56363	-0.59387	30.5	13111	100
2025-3-27 17:51:2.897	WT901BLE68-01(48591DE3C19B)	0.018	-0.730	0.236	3.784	-43.762	154.236	-57.62	59.23	-83.24	-80.262	-40.278	-7.644	0.50851	-0.26636	0.56363	-0.59387	30.5	13111	100
2025-3-27 17:51:2.898	WT901BLE68-01(48591DE3C19B)	0.025	-0.730	0.236	3.784	-43.762	154.236	-55.82	59.97	-81.13	-80.262	-40.278	-7.644	0.50851	-0.26636	0.56363	-0.59387	30.5	13111	100
2025-3-27 17:51:2.898	WT901BLE68-01(48591DE3C19B)	0.025	-0.617	0.276	-0.122	-37.292	138.794	-54.22	60.58	-79.23	-80.262	-40.278	-7.644	0.50851	-0.26636	0.56363	-0.59387	30.5	13111	100
2025-3-27 17:51:2.898	WT901BLE68-01(48591DE3C19B)	0.009	-0.617	0.276	-0.122	-37.292	138.794	-52.55	61.17	-77.27	-80.262	-40.278	-7.644	0.50851	-0.26636	0.56363	-0.59387	30.5	13111	100
2025-3-27 17:51:2.898	WT901BLE68-01(48591DE3C19B)	0.009	-0.517	0.291	-4.883	-28.442	122.925	-51.18	61.66	-75.60	-80.262	-40.278	-7.644	0.50851	-0.26636	0.56363	-0.59387	30.5	13111	100
2025-3-27 17:51:2.898	WT901BLE68-01(48591DE3C19B)	-0.024	-0.517	0.291	-4.883	-28.442	122.925	-49.76	62.11	-73.88	-80.262	-40.278	-7.644	0.50851	-0.26636	0.56363	-0.59387	30.5	13111	100
2025-3-27 17:51:2.898	WT901BLE68-01(48591DE3C19B)	-0.024	-0.453	0.273	-9.033	-15.564	104.492	-48.75	62.50	-72.59	-80.262	-40.278	-7.644	0.50851	-0.26636	0.56363	-0.59387	30.5	13111	100
2025-3-27 17:51:2.898	WT901BLE68-01(48591DE3C19B)	-0.051	-0.453	0.273	-9.033	-15.564	104.492	-47.70	62.87	-71.27	-80.262	-40.278	-7.644	0.50851	-0.26636	0.56363	-0.59387	30.5	13111	100
2025-3-27 17:51:2.958	WT901BLE68-01(48591DE3C19B)	-0.051	-0.447	0.246	-14.038	-2.747	81.665	-47.16	63.15	-70.47	-80.262	-40.278	-7.644	0.50851	-0.26636	0.56363	-0.59387	30.5	13111	100
2025-3-27 17:51:2.958	WT901BLE68-01(48591DE3C19B)	-0.055	-0.447	0.246	-14.038	-2.747	81.665	-46.61	63.42	-69.66	-80.262	-40.278	-7.644	0.50851	-0.26636	0.56363	-0.59387	30.5	13111	100
2025-3-27 17:51:2.958	WT901BLE68-01(48591DE3C19B)	-0.055	-0.563	0.215	-21.057	8.728	46.143	-46.77	63.52	-69.58	-80.262	-40.278	-7.644	0.50851	-0.26636	0.56363	-0.59387	30.5	13111	100
2025-3-27 17:51:2.958	WT901BLE68-01(48591DE3C19B)	-0.101	-0.563	0.215	-21.057	8.728	46.143	-46.93	63.61	-69.49	-80.262	-40.278	-7.644	0.50851	-0.26636	0.56363	-0.59387	30.5	13111	100
2025-3-27 17:51:2.987	WT901BLE68-01(48591DE3C19B)	-0.101	-0.724	0.222	-21.362	15.442	-2.869	-47.86	63.40	-70.26	-80.262	-40.278	-7.644	0.50851	-0.26636	0.56363	-0.59387	30.5	13111	100
2025-3-27 17:51:2.987	WT901BLE68-01(48591DE3C19B)	-0.204	-0.724	0.222	-21.362	15.442	-2.869	-48.77	63.18	-71.01	-80.262	-40.278	-7.644	0.50851	-0.26636	0.56363	-0.59387	30.5	13111	100
2025-3-27 17:51:2.987	WT901BLE68-01(48591DE3C19B)	-0.204	-0.737	0.263	-14.465	15.686	-55.420	-50.25	62.56	-72.48	-80.262	-40.278	-7.644	0.50851	-0.26636	0.56363	-0.59387	30.5	13111	100
2025-3-27 17:51:2.987	WT901BLE68-01(48591DE3C19B)	-0.250	-0.737	0.263	-14.465	15.686	-55.420	-51.65	61.94	-73.88	-80.262	-40.278	-7.644	0.74957	-0.02405	0.59497	-0.28888	30.5	13111	100
2025-3-27 17:51:3.17	WT901BLE68-01(48591DE3C19B)	-0.125	-0.708	0.261	-11.963	13.306	-104.858	-53.45	60.90	-75.78	-80.262	-40.278	-7.644	0.74957	-0.02405	0.59497	-0.28888	30.5	13111	100
2025-3-27 17:51:3.17	WT901BLE68-01(48591DE3C19B)	-0.230	-0.354	0.130	-11.963	13.306	-104.858	-55.12	59.84	-77.55	-80.262	-40.278	-7.644	0.74957	-0.02405	0.59497	-0.28888	30.5	13111	100
2025-3-27 17:51:3.17	WT901BLE68-01(48591DE3C19B)	-0.271	-0.687	0.246	-8.972	19.653	-151.672	-57.13	58.41	-79.78	-80.262	-40.278	-7.644	0.74957	-0.02405	0.59497	-0.28888	30.5	13111	100
2025-3-27 17:51:3.17	WT901BLE68-01(48591DE3C19B)	-0.271	-0.683	0.232	-1.587	36.072	-191.895	-59.19	56.84	-82.14	-80.262	-40.278	-7.644	0.74957	-0.02405	0.59497	-0.28888	30.5	13111	100
2025-3-27 17:51:3.77	WT901BLE68-01(48591DE3C19B)	-0.387	-0.683	0.232	-1.587	36.072	-191.895	-61.24	55.10	-84.59	-80.262	-40.278	-7.644	0.74957	-0.02405	0.59497	-0.28888	30.5	13111	100
2025-3-27 17:51:3.78	WT901BLE68-01(48591DE3C19B)	-0.387	-0.738	0.191	4.944	42.542	-224.243	-63.17	53.20	-86.99	-80.262	-40.278	-7.644	0.74957	-0.02405	0.59497	-0.28888	30.5	13111	100
2025-3-27 17:51:3.78	WT901BLE68-01(48591DE3C19B)	-0.444	-0.738	0.191	4.944	42.542	-224.243	-64.98	51.15	-89.34	-80.262	-40.278	-7.644	0.74957	-0.02405	0.59497	-0.28888	30.5	13111	100
2025-3-27 17:51:3.78	WT901BLE68-01(48591DE3C19B)	-0.444	-0.795	0.141	13.489	39.734	-247.986	-66.57	48.96	-91.52	-80.262	-40.278	-7.644	0.74957	-0.02405	0.59497	-0.28888	30.5	13111	100
2025-3-27 17:51:3.107	WT901BLE68-01(48591DE3C19B)	-0.465	-0.795	0.141	13.489	39.734	-247.986	-67.96	46.64	-93.57	-80.262	-40.278	-7.644	0.74957	-0.02405	0.59497	-0.28888	30.5	13111	100
2025-3-27 17:51:3.107	WT901BLE68-01(48591DE3C19B)	-0.465	-0.844	0.108	17.639	36.438	-266.357	-69.16	44.23	-95.47	-80.262	-40.278	-7.644	0.74957	-0.02405	0.59497	-0.28888	30.5	13111	100
2025-3-27 17:51:3.107	WT901BLE68-01(48591DE3C19B)	-0.482	-0.844	0.108	17.639	36.438	-266.357	-70.21	41.72	-97.25	-80.262	-40.278	-7.644	0.74957	-0.02405	0.59497	-0.28888	30.5	13111	100
2025-3-27 17:51:3.107	WT901BLE68-01(48591DE3C19B)	-0.482	-0.960	0.058	18.799	34.607	-280.457	-71.12	39.14	-98.90	-80.262	-40.278	-7.644	0.74957	-0.02405	0.59497	-0.28888	30.5	13111	100
2025-3-27 17:51:3.137	WT901BLE68-01(48591DE3C19B)	-0.528	-0.960	0.058	18.799	34.607	-280.457	-71.92	36.49	-100.46	-80.262	-40.278	-7.644	0.74957	-0.02405	0.59497	-0.28888	30.5	13111	100
2025-3-27 17:51:3.137	WT901BLE68-01(48591DE3C19B)	-0.528	-1.108	0.004	20.020	32.715	-292.480	-72.60	33.79	-101.93	-80.262	-40.278	-7.644	0.74957	-0.02405	0.59497	-0.28888	30.5	13111	100
2025-3-27 17:51:3.137	WT901BLE68-01(48591DE3C19B)	-0.543	-1.108	0.004	20.020	32.715	-292.480	-73.19	31.04	-103.32	-80.262	-40.278	-7.644	0.74957	-0.02405	0.59497	-0.28888	30.5	13111	100
2025-3-27 17:51:3.137	WT901BLE68-01(48591DE3C19B)	-0.543	-1.263	-0.015	16.602	29.541	-300.903	-73.70	28.24	-104.62	-80.262	-40.278	-7.644	0.74957	-0.02405	0.59497	-0.28888	30.5	13111	100
2025-3-27 17:51:3.197	WT901BLE68-01(48591DE3C19B)	-0.518	-1.263	-0.015	16.602	29.541	-300.903	-74.15	25.41	-105.85	-80.262	-40.278	-7.644	0.74957	-0.02405	0.59497	-0.28888	30.5	13111	100
2025-3-27 17:51:3.197	WT901BLE68-01(48591DE3C19B)	-0.518	-1.459	-0.001	8.423	39.612	-307.190	-74.59	22.57	-107.08	-80.262	-40.278	-7.644	0.74957	-0.02405	0.59497	-0.28888	30.5	13111	100
2025-3-27 17:51:3.197	WT901BLE68-01(48591DE3C19B)	-0.529	-1.459	-0.001	8.423	39.612	-307.190	-75.02	19.71	-108.31	-80.262	-40.278	-7.644	0.74957	-0.02405	0.59497	-0.28888	30.5	13111	100
2025-3-27 17:51:3.197	WT901BLE68-01(48591DE3C19B)	-0.529	-1.681	0.057	2.319	63.477	-304.688	-75.45	16.91	-109.61	-80.262	-40.278	-7.644	0.74957	-0.02405	0.59497	-0.28888	30.5	13111	100
2025-3-27 17:51:3.227	WT901BLE68-01(48591DE3C19B)	-0.640	-1.681	0.057	2.319	63.477	-304.688	-75.87	14.15	-110.97	-74.676	-46.648	-7.154	0.74957	-0.02405	0.59497	-0.28888	30.5	13111	100
2025-3-27 17:51:3.227	WT901BLE68-01(48591DE3C19B)	-0.640	-1.794	0.179	5.798	86.548	-291.748	-76.22	11.49	-112.39	-74.676	-46.648	-7.154	0.74957	-0.02405	0.59497	-0.28888	30.5	13111	100
2025-3-27 17:51:3.227	WT901BLE68-01(48591DE3C19B)	-0.819	-1.794	0.179	5.798	86.548	-291.748	-76.49	8.92	-113.87	-74.676	-46.648	-7.154	0.74957	-0.02405	0.59497	-0.28888	30.5	13111	100
2025-3-27 17:51:3.227	WT901BLE68-01(48591DE3C19B)	-0.819	-1.775	0.317	13.977	85.083	-269.775	-76.65	6.46	-115.30	-74.676	-46.648	-7.154	0.74957	-0.02405	0.59497	-0.28888	30.5	13111	100
2025-3-27 17:51:3.257	WT901BLE68-01(48591DE3C19B)	-0.754	-1.775	0.317	13.977	85.083	-269.775	-76.70	4.12	-116.67	-74.676	-46.648	-7.154	0.74957	-0.02405	0.59497	-0.28888	30.5	13111	100
2025-3-27 17:51:3.257	WT901BLE68-01(48591DE3C19B)	-0.754	-1.635	0.284	22.766	75.439	-244.446	-76.65	1.91	-117.98	-74.676	-46.648	-7.154	0.74957	-0.02405	0.59497	-0.28888	30.5	13111	100
2025-3-27 17:51:3.257	WT901BLE68-01(48591DE3C19B)	-0.623	-1.635	0.284	22.766	75.439	-244.446	-76.49	-0.16	-119.20	-74.676	-46.648	-7.154	0.74957	-0.02405	0.59497	-0.28888	30.5	13111	100
2025-3-27 17:51:3.257	WT901BLE68-01(48591DE3C19B)	-0.623	-1.440	0.161	26.855	73.975	-211.243	-76.27	-2.06	-120.39	-74.676	-46.648	-7.154	0.74957	-0.02405	0.59497	-0.28888	30.5	13111	100
2025-3-27 17:51:3.317	WT901BLE68-01(48591DE3C19B)	-0.574	-1.440	0.161	26.855	73.975	-211.243	-76.00	-3.78	-121.53	-74.676	-46.648	-7.154	0.74957	-0.02405	0.59497	-0.28888	30.5	13111	100
2025-3-27 17:51:3.317	WT901BLE68-01(48591DE3C19B)	-0.574	-1.288	0.066	26.550	66.528	-179.749	-75.70	-5.35	-122.61	-74.676	-46.648	-7.154	0.74957	-0.02405	0.59497	-0.28888	30.5	13111	100
2025-3-27 17:51:3.317	WT901BLE68-01(48591DE3C19B)	-0.546	-1.288	0.066	26.550	66.528	-179.749	-75.39	-6.76	-123.62	-74.676	-46.648	-7.154	0.74957	-0.02405	0.59497	-0.28888	30.5	13111	100
2025-3-27 17:51:3.317	WT901BLE68-01(48591DE3C19B)	-0.546	-1.184	0.055	23.438	53.040	-151.917	-75.08	-8.04	-124.53	-74.676	-46.648	-7.154	0.74957	-0.02405	0.59497	-0.28888	30.5	13111	100
2025-3-27 17:51:3.347	WT901BLE68-01(48591DE3C19B)	-0.511	-1.184	0.055	23.438	53.040	-151.917	-74.79	-9.19	-125.35	-74.676	-46.648	-7.154	0.74957	-0.02405	0.59497	-0.28888	30.5	13111	100
2025-3-27 17:51:3.347	WT901BLE68-01(48591DE3C19B)	-0.511	-1.156	0.084	19.592	41.138	-125.977	-74.51	-10.22	-126.08	-74.676	-46.648	-7.154	0.74957	-0.02405	0.59497	-0.28888	30.5	13111	100
2025-3-27 17:51:3.347	WT901BLE68-01(48591DE3C19B)	-0.521	-1.156	0.084	19.592	41.138	-125.977	-74.27	-11.13	-126.72	-74.676	-46.648	-7.154	0.74957	-0.02405	0.59497	-0.28888	30.5	13111	100
2025-3-27 17:51:3.347	WT901BLE68-01(48591DE3C19B)	-0.521	-1.119	0.106	21.301	34.119	-103.699	-74.01	-11.94	-127.30	-74.676	-46.648	-7.154	0.74957	-0.02405	0.59497	-0.28888	30.5	13111	100
2025-3-27 17:51:3.378	WT901BLE68-01(48591DE3C19B)	-0.543	-1.119	0.106	21.301	34.119	-103.699	-73.76	-12.63	-127.82	-74.676	-46.648	-7.154	0.74957	-0.02405	0.59497	-0.28888	30.5	13111	100
2025-3-27 17:51:3.378	WT901BLE68-01(48591DE3C19B)	-0.543	-1.023	0.126	25.391	27.954	-85.815	-73.49	-13.25	-128.29	-74.676	-46.648	-7.154	0.74957	-0.02405	0.59497	-0.28888	30.5	13111	100
2025-3-27 17:51:3.378	WT901BLE68-01(48591DE3C19B)	-0.542	-1.023	0.126	25.391	27.954	-85.815	-73.21	-13.78	-128.71	-74.676	-46.648	-7.154	0.74957	-0.02405	0.59497	-0.28888	30.5	13111	100
2025-3-27 17:51:3.379	WT901BLE68-01(48591DE3C19B)	-0.542	-0.902	0.125	28.442	25.879	-73.669	-72.92	-14.25	-129.11	-74.676	-46.648	-7.154	0.74957	-0.02405	0.59497	-0.28888	30.5	13111	100
2025-3-27 17:51:3.437	WT901BLE68-01(48591DE3C19B)	-0.526	-0.902	0.125	28.442	25.879	-73.669	-72.61	-14.66	-129.49	-74.676	-46.648	-7.154	0.74957	-0.02405	0.59497	-0.28888	30.5	13111	100
2025-3-27 17:51:3.438	WT901BLE68-01(48591DE3C19B)	-0.526	-0.782	0.100	29.175	27.954	-63.721	-72.30	-15.00	-129.87	-74.676	-46.648	-7.154	0.26932	-0.34320	0.48508	-0.75778	30.5	13111	100
2025-3-27 17:51:3.438	WT901BLE68-01(48591DE3C19B)	-0.542	-0.782	0.100	29.175	27.954	-63.721	-71.98	-15.29	-130.26	-74.676	-46.648	-7.154	0.26932	-0.34320	0.48508	-0.75778	30.5	13111	100
2025-3-27 17:51:3.438	WT901BLE68-01(48591DE3C19B)	-0.542	-0.702	0.047	25.208	24.231	-52.368	-71.68	-15.52	-130.62	-74.676	-46.648	-7.154	0.26932	-0.34320	0.48508	-0.75778	30.5	13111	100
2025-3-27 17:51:3.467	WT901BLE68-01(48591DE3C19B)	-0.571	-0.702	0.047	25.208	24.231	-52.368	-71.42	-15.69	-130.95	-74.676	-46.648	-7.154	0.26932	-0.34320	0.48508	-0.75778	30.5	13111	100
2025-3-27 17:51:3.467	WT901BLE68-01(48591DE3C19B)	-0.571	-0.774	-0.029	14.832	9.094	-42.480	-71.23	-15.84	-131.19	-74.676	-46.648	-7.154	0.26932	-0.34320	0.48508	-0.75778	30.5	13111	100
2025-3-27 17:51:3.467	WT901BLE68-01(48591DE3C19B)	-0.597	-0.774	-0.029	14.832	9.094	-42.480	-71.12	-15.96	-131.35	-74.676	-46.648	-7.154	0.26932	-0.34320	0.48508	-0.75778	30.5	13111	100
2025-3-27 17:51:3.467	WT901BLE68-01(48591DE3C19B)	-0.597	-1.082	-0.048	1.770	-21.606	-32.410	-71.13	-16.08	-131.33	-74.676	-46.648	-7.154	0.26932	-0.34320	0.48508	-0.75778	30.5	13111	100
2025-3-27 17:51:3.498	WT901BLE68-01(48591DE3C19B)	-0.625	-1.082	-0.048	1.770	-21.606	-32.410	-71.25	-16.20	-131.14	-74.676	-46.648	-7.154	0.26932	-0.34320	0.48508	-0.75778	30.5	13111	100
2025-3-27 17:51:3.498	WT901BLE68-01(48591DE3C19B)	-0.625	-1.452	0.018	-0.122	-59.937	-25.635	-71.45	-16.35	-130.73	-74.676	-46.648	-7.154	0.26932	-0.34320	0.48508	-0.75778	30.5	13111	100
2025-3-27 17:51:3.498	WT901BLE68-01(48591DE3C19B)	-0.539	-1.452	0.018	-0.122	-59.937	-25.635	-71.72	-16.53	-130.11	-74.676	-46.648	-7.154	0.26932	-0.34320	0.48508	-0.75778	30.5	13111	100
2025-3-27 17:51:3.498	WT901BLE68-01(48591DE3C19B)	-0.539	-1.558	0.087	12.085	-83.923	-14.832	-71.95	-16.69	-129.20	-74.676	-46.648	-7.154	0.26932	-0.34320	0.48508	-0.75778	30.5	13111	100
2025-3-27 17:51:3.621	WT901BLE68-01(48591DE3C19B)	-0.371	-1.558	0.087	12.085	-83.923	-14.832	-72.19	-16.86	-128.29	-74.676	-46.648	-7.154	0.26932	-0.34320	0.48508	-0.75778	30.5	13111	100
2025-3-27 17:51:3.622	WT901BLE68-01(48591DE3C19B)	-0.371	-1.248	0.159	22.217	-82.336	-4.272	-72.32	-16.91	-127.36	-74.676	-46.648	-7.154	0.26932	-0.34320	0.48508	-0.75778	30.5	13111	100
2025-3-27 17:51:3.622	WT901BLE68-01(48591DE3C19B)	-0.195	-1.248	0.159	22.217	-82.336	-4.272	-72.45	-16.97	-126.44	-74.676	-46.648	-7.154	0.26932	-0.34320	0.48508	-0.75778	30.5	13111	100
2025-3-27 17:51:3.622	WT901BLE68-01(48591DE3C19B)	-0.195	-1.045	0.200	11.475	-54.871	5.981	-72.61	-16.86	-125.77	-74.676	-46.648	-7.154	0.26932	-0.34320	0.48508	-0.75778	30.5	13111	100
2025-3-27 17:51:3.648	WT901BLE68-01(48591DE3C19B)	-0.126	-1.045	0.200	11.475	-54.871	5.981	-72.76	-16.74	-125.10	-74.676	-46.648	-7.154	0.26932	-0.34320	0.48508	-0.75778	30.5	13111	100
2025-3-27 17:51:3.648	WT901BLE68-01(48591DE3C19B)	-0.126	-1.110	0.228	1.709	-9.583	12.268	-72.88	-16.44	-124.87	-74.676	-46.648	-7.154	0.26932	-0.34320	0.48508	-0.75778	30.5	13111	100
2025-3-27 17:51:3.648	WT901BLE68-01(48591DE3C19B)	-0.164	-1.110	0.228	1.709	-9.583	12.268	-72.99	-16.15	-124.64	-74.676	-46.648	-7.154	0.26932	-0.34320	0.48508	-0.75778	30.5	13111	100
2025-3-27 17:51:3.649	WT901BLE68-01(48591DE3C19B)	-0.164	-1.167	0.295	-1.099	38.269	15.320	-73.00	-15.70	-124.88	-48.314	-55.272	-5.390	0.26932	-0.34320	0.48508	-0.75778	30.5	13111	100
2025-3-27 17:51:3.649	WT901BLE68-01(48591DE3C19B)	-0.218	-1.167	0.295	-1.099	38.269	15.320	-73.00	-15.25	-125.12	-48.314	-55.272	-5.390	0.26932	-0.34320	0.48508	-0.75778	30.5	13111	100
2025-3-27 17:51:3.649	WT901BLE68-01(48591DE3C19B)	-0.218	-1.186	0.280	-11.841	73.914	16.174	-73.02	-14.70	-125.71	-48.314	-55.272	-5.390	0.26932	-0.34320	0.48508	-0.75778	30.5	13111	100
2025-3-27 17:51:3.650	WT901BLE68-01(48591DE3C19B)	-0.362	-1.186	0.280	-11.841	73.914	16.174	-73.04	-14.16	-126.30	-48.314	-55.272	-5.390	0.26932	-0.34320	0.48508	-0.75778	30.5	13111	100
2025-3-27 17:51:3.650	WT901BLE68-01(48591DE3C19B)	-0.362	-1.274	0.268	-22.827	82.153	16.479	-73.15	-13.59	-126.96	-48.314	-55.272	-5.390	0.26932	-0.34320	0.48508	-0.75778	30.5	13111	100
2025-3-27 17:51:3.679	WT901BLE68-01(48591DE3C19B)	-0.584	-1.274	0.268	-22.827	82.153	16.479	-73.27	-13.03	-127.63	-48.314	-55.272	-5.390	0.26932	-0.34320	0.48508	-0.75778	30.5	13111	100
2025-3-27 17:51:3.680	WT901BLE68-01(48591DE3C19B)	-0.584	-1.000	0.352	-21.790	43.213	20.142	-73.47	-12.54	-127.91	-48.314	-55.272	-5.390	0.26932	-0.34320	0.48508	-0.75778	30.5	13111	100
2025-3-27 17:51:3.680	WT901BLE68-01(48591DE3C19B)	-0.742	-1.000	0.352	-21.790	43.213	20.142	-73.66	-12.05	-128.21	-48.314	-55.272	-5.390	0.26932	-0.34320	0.48508	-0.75778	30.5	13111	100
2025-3-27 17:51:3.680	WT901BLE68-01(48591DE3C19B)	-0.742	-0.546	0.433	-28.748	-43.396	38.330	-74.09	-11.62	-127.64	-48.314	-55.272	-5.390	0.26932	-0.34320	0.48508	-0.75778	30.5	13111	100
2025-3-27 17:51:3.707	WT901BLE68-01(48591DE3C19B)	-0.721	-0.546	0.433	-28.748	-43.396	38.330	-74.49	-11.17	-127.10	-48.314	-55.272	-5.390	0.26932	-0.34320	0.48508	-0.75778	30.5	13111	100
2025-3-27 17:51:3.708	WT901BLE68-01(48591DE3C19B)	-0.721	-0.285	0.372	-47.974	-148.254	76.904	-75.27	-10.60	-125.48	-48.314	-55.272	-5.390	0.26932	-0.34320	0.48508	-0.75778	30.5	13111	100
2025-3-27 17:51:3.708	WT901BLE68-01(48591DE3C19B)	-0.557	-0.285	0.372	-47.974	-148.254	76.904	-76.00	-10.00	-123.90	-48.314	-55.272	-5.390	0.26932	-0.34320	0.48508	-0.75778	30.5	13111	100
2025-3-27 17:51:3.708	WT901BLE68-01(48591DE3C19B)	-0.557	-0.420	0.142	-68.542	-234.741	110.840	-77.06	-9.25	-121.44	-48.314	-55.272	-5.390	0.26932	-0.34320	0.48508	-0.75778	30.5	13111	100
2025-3-27 17:51:3.738	WT901BLE68-01(48591DE3C19B)	-0.412	-0.420	0.142	-68.542	-234.741	110.840	-78.07	-8.45	-119.00	-48.314	-55.272	-5.390	0.26932	-0.34320	0.48508	-0.75778	30.5	13111	100
2025-3-27 17:51:3.738	WT901BLE68-01(48591DE3C19B)	-0.412	-0.772	-0.100	-72.754	-307.068	141.113	-79.19	-7.45	-115.81	-48.314	-55.272	-5.390	0.26932	-0.34320	0.48508	-0.75778	30.5	13111	100
2025-3-27 17:51:3.738	WT901BLE68-01(48591DE3C19B)	-0.344	-0.772	-0.100	-72.754	-307.068	141.113	-80.27	-6.39	-112.62	-48.314	-55.272	-5.390	0.26932	-0.34320	0.48508	-0.75778	30.5	13111	100
2025-3-27 17:51:3.738	WT901BLE68-01(48591DE3C19B)	-0.344	-1.133	-0.300	-60.364	-360.352	160.828	-81.23	-5.17	-108.87	-48.314	-55.272	-5.390	0.26932	-0.34320	0.48508	-0.75778	30.5	13111	100
2025-3-27 17:51:3.798	WT901BLE68-01(48591DE3C19B)	-0.224	-1.133	-0.300	-60.364	-360.352	160.828	-82.13	-3.91	-105.10	-48.314	-55.272	-5.390	0.26932	-0.34320	0.48508	-0.75778	30.5	13111	100
2025-3-27 17:51:3.798	WT901BLE68-01(48591DE3C19B)	-0.224	-1.459	-0.363	-30.212	-390.381	167.114	-82.68	-2.59	-101.02	-48.314	-55.272	-5.390	0.26932	-0.34320	0.48508	-0.75778	30.5	13111	100
2025-3-27 17:51:3.798	WT901BLE68-01(48591DE3C19B)	-0.120	-1.459	-0.363	-30.212	-390.381	167.114	-83.16	-1.26	-96.94	-48.314	-55.272	-5.390	0.26932	-0.34320	0.48508	-0.75778	30.5	13111	100
2025-3-27 17:51:3.798	WT901BLE68-01(48591DE3C19B)	-0.120	-1.761	-0.224	10.376	-406.067	166.077	-83.14	0.02	-92.71	-48.314	-55.272	-5.390	0.26932	-0.34320	0.48508	-0.75778	30.5	13111	100
2025-3-27 17:51:3.828	WT901BLE68-01(48591DE3C19B)	0.057	-1.761	-0.224	10.376	-406.067	166.077	-83.03	1.29	-88.48	-48.314	-55.272	-5.390	0.54153	-0.46893	0.46848	-0.51700	30.5	13111	100
2025-3-27 17:51:3.828	WT901BLE68-01(48591DE3C19B)	0.057	-1.849	-0.079	58.228	-393.433	159.546	-82.37	2.46	-84.40	-48.314	-55.272	-5.390	0.54153	-0.46893	0.46848	-0.51700	30.5	13111	100
2025-3-27 17:51:3.828	WT901BLE68-01(48591DE3C19B)	0.251	-1.849	-0.079	58.228	-393.433	159.546	-81.63	3.55	-80.32	-48.314	-55.272	-5.390	0.54153	-0.46893	0.46848	-0.51700	30.5	13111	100
2025-3-27 17:51:3.828	WT901BLE68-01(48591DE3C19B)	0.251	-1.738	0.076	98.267	-336.060	152.344	-80.45	4.58	-76.81	-48.314	-55.272	-5.390	0.54153	-0.46893	0.46848	-0.51700	30.5	13111	100
2025-3-27 17:51:3.858	WT901BLE68-01(48591DE3C19B)	0.363	-1.738	0.076	98.267	-336.060	152.344	-79.22	5.51	-73.29	-48.314	-55.272	-5.390	0.54153	-0.46893	0.46848	-0.51700	30.5	13111	100
2025-3-27 17:51:3.858	WT901BLE68-01(48591DE3C19B)	0.363	-1.696	0.250	120.605	-233.032	143.982	-77.81	6.46	-70.78	-48.314	-55.272	-5.390	0.54153	-0.46893	0.46848	-0.51700	30.5	13111	100
2025-3-27 17:51:3.858	WT901BLE68-01(48591DE3C19B)	0.376	-1.696	0.250	120.605	-233.032	143.982	-76.37	7.33	-68.25	-48.314	-55.272	-5.390	0.54153	-0.46893	0.46848	-0.51700	30.5	13111	100
2025-3-27 17:51:3.858	WT901BLE68-01(48591DE3C19B)	0.376	-1.698	0.337	144.836	-98.022	140.503	-74.82	8.42	-67.02	-48.314	-55.272	-5.390	0.54153	-0.46893	0.46848	-0.51700	30.5	13111	100
2025-3-27 17:51:3.926	WT901BLE68-01(48591DE3C19B)	0.360	-1.698	0.337	144.836	-98.022	140.503	-73.25	9.46	-65.76	-48.314	-55.272	-5.390	0.54153	-0.46893	0.46848	-0.51700	30.5	13111	100
2025-3-27 17:51:3.926	WT901BLE68-01(48591DE3C19B)	0.360	-1.589	0.384	165.894	43.152	148.499	-71.67	10.95	-65.81	-48.314	-55.272	-5.390	0.54153	-0.46893	0.46848	-0.51700	30.5	13111	100
2025-3-27 17:51:3.926	WT901BLE68-01(48591DE3C19B)	0.309	-1.589	0.384	165.894	43.152	148.499	-70.09	12.41	-65.82	-48.314	-55.272	-5.390	0.54153	-0.46893	0.46848	-0.51700	30.5	13111	100
2025-3-27 17:51:3.926	WT901BLE68-01(48591DE3C19B)	0.309	-1.539	0.355	170.105	170.410	165.344	-68.74	14.47	-66.96	-48.314	-55.272	-5.390	0.54153	-0.46893	0.46848	-0.51700	30.5	13111	100
2025-3-27 17:51:3.948	WT901BLE68-01(48591DE3C19B)	0.205	-1.539	0.355	170.105	170.410	165.344	-67.42	16.53	-68.07	-48.314	-55.272	-5.390	0.54153	-0.46893	0.46848	-0.51700	30.5	13111	100
2025-3-27 17:51:3.948	WT901BLE68-01(48591DE3C19B)	0.205	-1.489	0.198	166.931	277.161	188.171	-66.45	19.23	-70.08	-48.314	-55.272	-5.390	0.54153	-0.46893	0.46848	-0.51700	30.5	13111	100
2025-3-27 17:51:3.948	WT901BLE68-01(48591DE3C19B)	0.065	-1.489	0.198	166.931	277.161	188.171	-65.58	21.94	-72.09	-48.314	-55.272	-5.390	0.54153	-0.46893	0.46848	-0.51700	30.5	13111	100
2025-3-27 17:51:3.948	WT901BLE68-01(48591DE3C19B)	-0.043	-1.348	0.082	148.010	339.783	213.501	-65.19	25.14	-74.60	-48.314	-55.272	-5.390	0.54153	-0.46893	0.46848	-0.51700	30.5	13111	100
2025-3-27 17:51:4.8	WT901BLE68-01(48591DE3C19B)	-0.043	-1.274	0.020	112.793	354.187	232.544	-65.15	28.44	-77.18	-48.314	-55.272	-5.390	0.54153	-0.46893	0.46848	-0.51700	30.5	13111	100
2025-3-27 17:51:4.8	WT901BLE68-01(48591DE3C19B)	-0.074	-1.274	0.020	112.793	354.187	232.544	-65.47	31.84	-79.88	-48.314	-55.272	-5.390	0.54153	-0.46893	0.46848	-0.51700	30.5	13111	100
2025-3-27 17:51:4.8	WT901BLE68-01(48591DE3C19B)	-0.074	-1.191	0.018	77.148	326.294	244.995	-66.07	35.21	-82.51	-48.314	-55.272	-5.390	0.54153	-0.46893	0.46848	-0.51700	30.5	13111	100
2025-3-27 17:51:4.8	WT901BLE68-01(48591DE3C19B)	-0.117	-1.191	0.018	77.148	326.294	244.995	-66.96	38.52	-85.12	-48.314	-55.272	-5.390	0.54153	-0.46893	0.46848	-0.51700	30.5	13111	100
2025-3-27 17:51:4.38	WT901BLE68-01(48591DE3C19B)	-0.117	-1.051	0.034	50.598	269.897	249.634	-67.98	41.70	-87.55	-92.806	-37.730	1.764	0.54153	-0.46893	0.46848	-0.51700	30.5	13111	100
2025-3-27 17:51:4.38	WT901BLE68-01(48591DE3C19B)	-0.271	-1.051	0.034	50.598	269.897	249.634	-69.11	44.75	-89.81	-92.806	-37.730	1.764	0.54153	-0.46893	0.46848	-0.51700	30.5	13111	100
2025-3-27 17:51:4.38	WT901BLE68-01(48591DE3C19B)	-0.271	-0.958	0.063	26.367	194.397	240.234	-70.24	47.58	-91.78	-92.806	-37.730	1.764	0.54153	-0.46893	0.46848	-0.51700	30.5	13111	100
2025-3-27 17:51:4.38	WT901BLE68-01(48591DE3C19B)	-0.382	-0.958	0.063	26.367	194.397	240.234	-71.29	50.21	-93.42	-92.806	-37.730	1.764	0.54153	-0.46893	0.46848	-0.51700	30.5	13111	100
2025-3-27 17:51:4.68	WT901BLE68-01(48591DE3C19B)	-0.382	-0.925	0.108	11.353	115.173	215.881	-72.15	52.56	-94.67	-92.806	-37.730	1.764	0.54153	-0.46893	0.46848	-0.51700	30.5	13111	100
2025-3-27 17:51:4.68	WT901BLE68-01(48591DE3C19B)	-0.392	-0.925	0.108	11.353	115.173	215.881	-72.76	54.67	-95.47	-92.806	-37.730	1.764	0.54153	-0.46893	0.46848	-0.51700	30.5	13111	100
2025-3-27 17:51:4.68	WT901BLE68-01(48591DE3C19B)	-0.392	-0.917	0.142	4.089	51.636	184.875	-73.09	56.54	-95.88	-92.806	-37.730	1.764	0.54153	-0.46893	0.46848	-0.51700	30.5	13111	100
2025-3-27 17:51:4.68	WT901BLE68-01(48591DE3C19B)	-0.349	-0.917	0.142	4.089	51.636	184.875	-73.09	58.16	-95.86	-92.806	-37.730	1.764	0.54153	-0.46893	0.46848	-0.51700	30.5	13111	100
2025-3-27 17:51:4.127	WT901BLE68-01(48591DE3C19B)	-0.349	-0.830	0.167	2.197	2.686	154.480	-72.77	59.56	-95.45	-92.806	-37.730	1.764	0.54153	-0.46893	0.46848	-0.51700	30.5	13111	100
2025-3-27 17:51:4.127	WT901BLE68-01(48591DE3C19B)	-0.266	-0.830	0.167	2.197	2.686	154.480	-72.11	60.74	-94.64	-92.806	-37.730	1.764	0.54153	-0.46893	0.46848	-0.51700	30.5	13111	100
2025-3-27 17:51:4.127	WT901BLE68-01(48591DE3C19B)	-0.266	-0.750	0.178	0.366	-32.715	125.244	-71.17	61.73	-93.52	-92.806	-37.730	1.764	0.54153	-0.46893	0.46848	-0.51700	30.5	13111	100
2025-3-27 17:51:4.127	WT901BLE68-01(48591DE3C19B)	-0.164	-0.750	0.178	0.366	-32.715	125.244	-69.95	62.50	-92.08	-92.806	-37.730	1.764	0.54153	-0.46893	0.46848	-0.51700	30.5	13111	100
2025-3-27 17:51:4.159	WT901BLE68-01(48591DE3C19B)	-0.164	-0.677	0.157	1.099	-61.279	96.313	-68.49	63.08	-90.40	-92.806	-37.730	1.764	0.54153	-0.46893	0.46848	-0.51700	30.5	13111	100
2025-3-27 17:51:4.159	WT901BLE68-01(48591DE3C19B)	-0.057	-0.677	0.157	1.099	-61.279	96.313	-66.84	63.44	-88.49	-92.806	-37.730	1.764	0.54153	-0.46893	0.46848	-0.51700	30.5	13111	100
2025-3-27 17:51:4.159	WT901BLE68-01(48591DE3C19B)	-0.057	-0.594	0.160	2.930	-76.904	69.885	-65.09	63.62	-86.52	-92.806	-37.730	1.764	0.54153	-0.46893	0.46848	-0.51700	30.5	13111	100
2025-3-27 17:51:4.159	WT901BLE68-01(48591DE3C19B)	-0.001	-0.594	0.160	2.930	-76.904	69.885	-63.31	63.62	-84.51	-92.806	-37.730	1.764	0.54153	-0.46893	0.46848	-0.51700	30.5	13111	100
2025-3-27 17:51:4.188	WT901BLE68-01(48591DE3C19B)	-0.001	-0.538	0.162	2.502	-77.515	44.983	-61.66	63.48	-82.63	-92.806	-37.730	1.764	0.54153	-0.46893	0.46848	-0.51700	30.5	13111	100
2025-3-27 17:51:4.188	WT901BLE68-01(48591DE3C19B)	0.033	-0.538	0.162	2.502	-77.515	44.983	-60.14	63.21	-80.91	-92.806	-37.730	1.764	0.54153	-0.46893	0.46848	-0.51700	30.5	13111	100
2025-3-27 17:51:4.188	WT901BLE68-01(48591DE3C19B)	0.033	-0.515	0.152	2.014	-64.819	20.020	-58.91	62.84	-79.49	-92.806	-37.730	1.764	0.54153	-0.46893	0.46848	-0.51700	30.5	13111	100
2025-3-27 17:51:4.188	WT901BLE68-01(48591DE3C19B)	0.052	-0.515	0.152	2.014	-64.819	20.020	-57.95	62.38	-78.38	-92.806	-37.730	1.764	0.54153	-0.46893	0.46848	-0.51700	30.5	13111	100
2025-3-27 17:51:4.248	WT901BLE68-01(48591DE3C19B)	0.052	-0.495	0.135	1.465	-40.527	-8.606	-57.36	61.86	-77.67	-92.806	-37.730	1.764	0.54153	-0.46893	0.46848	-0.51700	30.5	13111	100
2025-3-27 17:51:4.248	WT901BLE68-01(48591DE3C19B)	0.047	-0.495	0.135	1.465	-40.527	-8.606	-57.13	61.28	-77.38	-92.806	-37.730	1.764	0.74277	-0.04309	0.60507	-0.28326	30.5	13111	100
2025-3-27 17:51:4.248	WT901BLE68-01(48591DE3C19B)	0.047	-0.521	0.125	-1.160	-7.019	-41.443	-57.34	60.64	-77.55	-92.806	-37.730	1.764	0.74277	-0.04309	0.60507	-0.28326	30.5	13111	100
2025-3-27 17:51:4.248	WT901BLE68-01(48591DE3C19B)	-0.007	-0.521	0.125	-1.160	-7.019	-41.443	-57.94	59.96	-78.18	-92.806	-37.730	1.764	0.74277	-0.04309	0.60507	-0.28326	30.5	13111	100
2025-3-27 17:51:4.278	WT901BLE68-01(48591DE3C19B)	-0.007	-0.610	0.113	-2.808	27.344	-82.153	-58.95	59.20	-79.27	-92.806	-37.730	1.764	0.74277	-0.04309	0.60507	-0.28326	30.5	13111	100
2025-3-27 17:51:4.278	WT901BLE68-01(48591DE3C19B)	-0.108	-0.610	0.113	-2.808	27.344	-82.153	-60.32	58.33	-80.78	-92.806	-37.730	1.764	0.74277	-0.04309	0.60507	-0.28326	30.5	13111	100
2025-3-27 17:51:4.278	WT901BLE68-01(48591DE3C19B)	-0.108	-0.742	0.112	-3.235	51.025	-129.333	-61.95	57.30	-82.61	-92.806	-37.730	1.764	0.74277	-0.04309	0.60507	-0.28326	30.5	13111	100
2025-3-27 17:51:4.278	WT901BLE68-01(48591DE3C19B)	-0.245	-0.742	0.112	-3.235	51.025	-129.333	-63.78	56.10	-84.70	-92.806	-37.730	1.764	0.74277	-0.04309	0.60507	-0.28326	30.5	13111	100
2025-3-27 17:51:4.308	WT901BLE68-01(48591DE3C19B)	-0.245	-0.897	0.122	-1.587	58.350	-179.810	-65.65	54.65	-86.89	-92.806	-37.730	1.764	0.74277	-0.04309	0.60507	-0.28326	30.5	13111	100
2025-3-27 17:51:4.308	WT901BLE68-01(48591DE3C19B)	-0.408	-0.897	0.122	-1.587	58.350	-179.810	-67.52	52.96	-89.13	-92.806	-37.730	1.764	0.74277	-0.04309	0.60507	-0.28326	30.5	13111	100
2025-3-27 17:51:4.308	WT901BLE68-01(48591DE3C19B)	-0.408	-1.016	0.153	3.174	53.345	-225.220	-69.25	51.03	-91.28	-92.806	-37.730	1.764	0.74277	-0.04309	0.60507	-0.28326	30.5	13111	100
2025-3-27 17:51:4.308	WT901BLE68-01(48591DE3C19B)	-0.508	-1.016	0.153	3.174	53.345	-225.220	-70.83	48.87	-93.32	-92.806	-37.730	1.764	0.74277	-0.04309	0.60507	-0.28326	30.5	13111	100
2025-3-27 17:51:4.369	WT901BLE68-01(48591DE3C19B)	-0.508	-1.068	0.186	7.813	36.743	-261.963	-72.17	46.49	-95.14	-92.806	-37.730	1.764	0.74277	-0.04309	0.60507	-0.28326	30.5	13111	100
2025-3-27 17:51:4.369	WT901BLE68-01(48591DE3C19B)	-0.503	-1.068	0.186	7.813	36.743	-261.963	-73.28	43.91	-96.77	-92.806	-37.730	1.764	0.74277	-0.04309	0.60507	-0.28326	30.5	13111	100
2025-3-27 17:51:4.369	WT901BLE68-01(48591DE3C19B)	-0.503	-1.091	0.208	9.888	18.982	-286.804	-74.20	41.19	-98.19	-92.806	-37.730	1.764	0.74277	-0.04309	0.60507	-0.28326	30.5	13111	100
2025-3-27 17:51:4.369	WT901BLE68-01(48591DE3C19B)	-0.491	-1.091	0.208	9.888	18.982	-286.804	-74.92	38.34	-99.43	-92.806	-37.730	1.764	0.74277	-0.04309	0.60507	-0.28326	30.5	13111	100
2025-3-27 17:51:4.398	WT901BLE68-01(48591DE3C19B)	-0.491	-1.162	0.209	8.972	5.127	-306.763	-75.51	35.39	-100.52	-92.806	-37.730	1.764	0.74277	-0.04309	0.60507	-0.28326	30.5	13111	100
2025-3-27 17:51:4.398	WT901BLE68-01(48591DE3C19B)	-0.456	-1.162	0.209	8.972	5.127	-306.763	-75.99	32.33	-101.48	-92.806	-37.730	1.764	0.74277	-0.04309	0.60507	-0.28326	30.5	13111	100
2025-3-27 17:51:4.398	WT901BLE68-01(48591DE3C19B)	-0.456	-1.318	0.166	6.531	-10.132	-321.045	-76.37	29.21	-102.31	-92.806	-37.730	1.764	0.74277	-0.04309	0.60507	-0.28326	30.5	13111	100
2025-3-27 17:51:4.398	WT901BLE68-01(48591DE3C19B)	-0.394	-1.318	0.166	6.531	-10.132	-321.045	-76.66	26.01	-103.03	-83.104	-35.966	-5.978	0.74277	-0.04309	0.60507	-0.28326	30.5	13111	100
2025-3-27 17:51:4.428	WT901BLE68-01(48591DE3C19B)	-0.394	-1.489	0.115	3.052	-23.071	-331.238	-76.90	22.76	-103.65	-83.104	-35.966	-5.978	0.74277	-0.04309	0.60507	-0.28326	30.5	13111	100
2025-3-27 17:51:4.429	WT901BLE68-01(48591DE3C19B)	-0.351	-1.489	0.115	3.052	-23.071	-331.238	-77.10	19.47	-104.18	-83.104	-35.966	-5.978	0.74277	-0.04309	0.60507	-0.28326	30.5	13111	100
2025-3-27 17:51:4.429	WT901BLE68-01(48591DE3C19B)	-0.351	-1.661	0.113	-2.258	-24.780	-338.135	-77.32	16.12	-104.68	-83.104	-35.966	-5.978	0.74277	-0.04309	0.60507	-0.28326	30.5	13111	100
2025-3-27 17:51:4.429	WT901BLE68-01(48591DE3C19B)	-0.404	-1.661	0.113	-2.258	-24.780	-338.135	-77.50	12.78	-105.16	-83.104	-35.966	-5.978	0.74277	-0.04309	0.60507	-0.28326	30.5	13111	100
2025-3-27 17:51:4.488	WT901BLE68-01(48591DE3C19B)	-0.404	-1.786	0.158	-4.944	-13.123	-338.013	-77.70	9.48	-105.73	-83.104	-35.966	-5.978	0.74277	-0.04309	0.60507	-0.28326	30.5	13111	100
2025-3-27 17:51:4.488	WT901BLE68-01(48591DE3C19B)	-0.514	-1.786	0.158	-4.944	-13.123	-338.013	-77.87	6.20	-106.29	-83.104	-35.966	-5.978	0.74277	-0.04309	0.60507	-0.28326	30.5	13111	100
2025-3-27 17:51:4.488	WT901BLE68-01(48591DE3C19B)	-0.514	-1.810	0.216	-2.563	3.540	-330.444	-77.98	3.04	-106.97	-83.104	-35.966	-5.978	0.74277	-0.04309	0.60507	-0.28326	30.5	13111	100
2025-3-27 17:51:4.488	WT901BLE68-01(48591DE3C19B)	-0.576	-1.810	0.216	-2.563	3.540	-330.444	-78.06	-0.09	-107.64	-83.104	-35.966	-5.978	0.74277	-0.04309	0.60507	-0.28326	30.5	13111	100
2025-3-27 17:51:4.517	WT901BLE68-01(48591DE3C19B)	-0.576	-1.775	0.238	0.610	19.714	-313.477	-78.07	-3.01	-108.44	-83.104	-35.966	-5.978	0.74277	-0.04309	0.60507	-0.28326	30.5	13111	100
2025-3-27 17:51:4.517	WT901BLE68-01(48591DE3C19B)	-0.623	-1.775	0.238	0.610	19.714	-313.477	-78.04	-5.91	-109.23	-83.104	-35.966	-5.978	0.74277	-0.04309	0.60507	-0.28326	30.5	13111	100
2025-3-27 17:51:4.518	WT901BLE68-01(48591DE3C19B)	-0.623	-1.697	0.210	7.385	31.494	-291.565	-77.89	-8.56	-110.09	-83.104	-35.966	-5.978	0.74277	-0.04309	0.60507	-0.28326	30.5	13111	100
2025-3-27 17:51:4.518	WT901BLE68-01(48591DE3C19B)	-0.658	-1.697	0.210	7.385	31.494	-291.565	-77.70	-11.18	-110.97	-83.104	-35.966	-5.978	0.74277	-0.04309	0.60507	-0.28326	30.5	13111	100
2025-3-27 17:51:4.548	WT901BLE68-01(48591DE3C19B)	-0.658	-1.529	0.161	14.526	37.109	-264.221	-77.40	-13.50	-111.87	-83.104	-35.966	-5.978	0.74277	-0.04309	0.60507	-0.28326	30.5	13111	100
2025-3-27 17:51:4.548	WT901BLE68-01(48591DE3C19B)	-0.705	-1.529	0.161	14.526	37.109	-264.221	-77.06	-15.80	-112.78	-83.104	-35.966	-5.978	0.74277	-0.04309	0.60507	-0.28326	30.5	13111	100
2025-3-27 17:51:4.548	WT901BLE68-01(48591DE3C19B)	-0.705	-1.341	0.119	15.259	37.109	-230.835	-76.70	-17.76	-113.63	-83.104	-35.966	-5.978	0.74277	-0.04309	0.60507	-0.28326	30.5	13111	100
2025-3-27 17:51:4.548	WT901BLE68-01(48591DE3C19B)	-0.760	-1.341	0.119	15.259	37.109	-230.835	-76.30	-19.69	-114.51	-83.104	-35.966	-5.978	0.74277	-0.04309	0.60507	-0.28326	30.5	13111	100
2025-3-27 17:51:4.607	WT901BLE68-01(48591DE3C19B)	-0.760	-1.218	0.127	12.085	21.301	-195.007	-76.00	-21.30	-115.15	-83.104	-35.966	-5.978	0.74277	-0.04309	0.60507	-0.28326	30.5	13111	100
2025-3-27 17:51:4.608	WT901BLE68-01(48591DE3C19B)	-0.701	-1.218	0.127	12.085	21.301	-195.007	-75.67	-22.88	-115.81	-83.104	-35.966	-5.978	0.74277	-0.04309	0.60507	-0.28326	30.5	13111	100
2025-3-27 17:51:4.608	WT901BLE68-01(48591DE3C19B)	-0.701	-1.143	0.172	7.263	-1.221	-157.532	-75.51	-24.14	-116.15	-83.104	-35.966	-5.978	0.74277	-0.04309	0.60507	-0.28326	30.5	13111	100
2025-3-27 17:51:4.608	WT901BLE68-01(48591DE3C19B)	-0.566	-1.143	0.172	7.263	-1.221	-157.532	-75.33	-25.39	-116.50	-83.104	-35.966	-5.978	0.74277	-0.04309	0.60507	-0.28326	30.5	13111	100
2025-3-27 17:51:4.638	WT901BLE68-01(48591DE3C19B)	-0.566	-1.090	0.208	5.005	-19.043	-121.887	-75.29	-26.33	-116.57	-83.104	-35.966	-5.978	0.28427	-0.46823	0.40894	-0.72980	30.5	13111	100
2025-3-27 17:51:4.638	WT901BLE68-01(48591DE3C19B)	-0.496	-1.090	0.208	5.005	-19.043	-121.887	-75.25	-27.27	-116.65	-83.104	-35.966	-5.978	0.28427	-0.46823	0.40894	-0.72980	30.5	13111	100
2025-3-27 17:51:4.638	WT901BLE68-01(48591DE3C19B)	-0.496	-1.043	0.221	5.066	-21.973	-90.637	-75.25	-27.91	-116.61	-83.104	-35.966	-5.978	0.28427	-0.46823	0.40894	-0.72980	30.5	13111	100
2025-3-27 17:51:4.638	WT901BLE68-01(48591DE3C19B)	-0.477	-1.043	0.221	5.066	-21.973	-90.637	-75.24	-28.53	-116.59	-83.104	-35.966	-5.978	0.28427	-0.46823	0.40894	-0.72980	30.5	13111	100
2025-3-27 17:51:4.667	WT901BLE68-01(48591DE3C19B)	-0.477	-1.017	0.211	7.690	-10.742	-66.895	-75.18	-28.90	-116.63	-83.104	-35.966	-5.978	0.28427	-0.46823	0.40894	-0.72980	30.5	13111	100
2025-3-27 17:51:4.668	WT901BLE68-01(48591DE3C19B)	-0.487	-1.017	0.211	7.690	-10.742	-66.895	-75.12	-29.27	-116.67	-83.104	-35.966	-5.978	0.28427	-0.46823	0.40894	-0.72980	30.5	13111	100
2025-3-27 17:51:4.668	WT901BLE68-01(48591DE3C19B)	-0.487	-1.011	0.220	12.695	6.836	-46.387	-74.93	-29.39	-116.85	-83.104	-35.966	-5.978	0.28427	-0.46823	0.40894	-0.72980	30.5	13111	100
2025-3-27 17:51:4.668	WT901BLE68-01(48591DE3C19B)	-0.540	-1.011	0.220	12.695	6.836	-46.387	-74.75	-29.50	-117.04	-83.104	-35.966	-5.978	0.28427	-0.46823	0.40894	-0.72980	30.5	13111	100
2025-3-27 17:51:4.727	WT901BLE68-01(48591DE3C19B)	-0.540	-1.011	0.234	17.822	18.433	-31.982	-74.47	-29.45	-117.32	-83.104	-35.966	-5.978	0.28427	-0.46823	0.40894	-0.72980	30.5	13111	100
2025-3-27 17:51:4.727	WT901BLE68-01(48591DE3C19B)	-0.547	-1.011	0.234	17.822	18.433	-31.982	-74.17	-29.39	-117.60	-83.104	-35.966	-5.978	0.28427	-0.46823	0.40894	-0.72980	30.5	13111	100
2025-3-27 17:51:4.727	WT901BLE68-01(48591DE3C19B)	-0.547	-1.028	0.285	23.560	26.550	-19.653	-73.81	-29.20	-117.94	-83.104	-35.966	-5.978	0.28427	-0.46823	0.40894	-0.72980	30.5	13111	100
2025-3-27 17:51:4.728	WT901BLE68-01(48591DE3C19B)	-0.551	-1.028	0.285	23.560	26.550	-19.653	-73.43	-28.99	-118.30	-83.104	-35.966	-5.978	0.28427	-0.46823	0.40894	-0.72980	30.5	13111	100
2025-3-27 17:51:4.758	WT901BLE68-01(48591DE3C19B)	-0.551	-1.042	0.297	29.480	34.241	-5.066	-72.98	-28.63	-118.68	-83.104	-35.966	-5.978	0.28427	-0.46823	0.40894	-0.72980	30.5	13111	100
2025-3-27 17:51:4.758	WT901BLE68-01(48591DE3C19B)	-0.540	-1.042	0.297	29.480	34.241	-5.066	-72.53	-28.26	-119.07	-83.104	-35.966	-5.978	0.28427	-0.46823	0.40894	-0.72980	30.5	13111	100
2025-3-27 17:51:4.758	WT901BLE68-01(48591DE3C19B)	-0.540	-1.024	0.229	31.921	36.560	9.216	-72.07	-27.75	-119.43	-83.104	-35.966	-5.978	0.28427	-0.46823	0.40894	-0.72980	30.5	13111	100
2025-3-27 17:51:4.758	WT901BLE68-01(48591DE3C19B)	-0.555	-1.024	0.229	31.921	36.560	9.216	-71.62	-27.24	-119.79	-83.104	-35.966	-5.978	0.28427	-0.46823	0.40894	-0.72980	30.5	13111	100
2025-3-27 17:51:4.789	WT901BLE68-01(48591DE3C19B)	-0.555	-1.047	0.160	27.527	23.621	24.170	-71.31	-26.63	-119.95	-83.104	-35.966	-5.978	0.28427	-0.46823	0.40894	-0.72980	30.5	13111	100
2025-3-27 17:51:4.789	WT901BLE68-01(48591DE3C19B)	-0.571	-1.047	0.160	27.527	23.621	24.170	-71.00	-26.02	-120.11	-83.104	-35.966	-5.978	0.28427	-0.46823	0.40894	-0.72980	30.5	13111	100
2025-3-27 17:51:4.789	WT901BLE68-01(48591DE3C19B)	-0.571	-1.236	0.074	9.094	-8.362	38.208	-71.07	-25.39	-119.87	-83.104	-35.966	-5.978	0.28427	-0.46823	0.40894	-0.72980	30.5	13111	100
2025-3-27 17:51:4.789	WT901BLE68-01(48591DE3C19B)	-0.607	-1.236	0.074	9.094	-8.362	38.208	-71.13	-24.76	-119.61	-83.104	-35.966	-5.978	0.28427	-0.46823	0.40894	-0.72980	30.5	13111	100
2025-3-27 17:51:4.848	WT901BLE68-01(48591DE3C19B)	-0.607	-1.731	0.126	-11.169	-51.331	55.115	-71.61	-24.11	-118.84	-83.104	-35.966	-5.978	0.28427	-0.46823	0.40894	-0.72980	30.5	13111	100
2025-3-27 17:51:4.848	WT901BLE68-01(48591DE3C19B)	-0.677	-1.731	0.126	-11.169	-51.331	55.115	-72.09	-23.47	-118.07	-57.330	-58.016	-4.410	0.28427	-0.46823	0.40894	-0.72980	30.5	13111	100
2025-3-27 17:51:4.848	WT901BLE68-01(48591DE3C19B)	-0.677	-1.810	0.238	16.541	-95.337	83.313	-72.49	-22.70	-116.76	-57.330	-58.016	-4.410	0.28427	-0.46823	0.40894	-0.72980	30.5	13111	100
2025-3-27 17:51:4.849	WT901BLE68-01(48591DE3C19B)	-0.553	-1.810	0.238	16.541	-95.337	83.313	-72.88	-21.92	-115.46	-57.330	-58.016	-4.410	0.28427	-0.46823	0.40894	-0.72980	30.5	13111	100
2025-3-27 17:51:4.878	WT901BLE68-01(48591DE3C19B)	-0.553	-0.846	0.376	28.564	-138.977	125.854	-73.31	-20.86	-113.60	-57.330	-58.016	-4.410	0.28427	-0.46823	0.40894	-0.72980	30.5	13111	100
2025-3-27 17:51:4.878	WT901BLE68-01(48591DE3C19B)	-0.327	-0.846	0.376	28.564	-138.977	125.854	-73.69	-19.79	-111.79	-57.330	-58.016	-4.410	0.28427	-0.46823	0.40894	-0.72980	30.5	13111	100
2025-3-27 17:51:4.878	WT901BLE68-01(48591DE3C19B)	-0.095	-0.404	0.336	-1.282	-165.833	178.711	-74.45	-18.27	-109.59	-57.330	-58.016	-4.410	0.28427	-0.46823	0.40894	-0.72980	30.5	13111	100
2025-3-27 17:51:4.878	WT901BLE68-01(48591DE3C19B)	-0.095	-0.886	0.177	-21.301	-161.621	217.468	-75.23	-16.54	-107.43	-57.330	-58.016	-4.410	0.28427	-0.46823	0.40894	-0.72980	30.5	13111	100
2025-3-27 17:51:4.938	WT901BLE68-01(48591DE3C19B)	0.205	-0.886	0.177	-21.301	-161.621	217.468	-76.03	-14.61	-105.28	-57.330	-58.016	-4.410	0.28427	-0.46823	0.40894	-0.72980	30.5	13111	100
2025-3-27 17:51:4.938	WT901BLE68-01(48591DE3C19B)	0.205	-1.327	0.019	-1.587	-147.339	251.038	-76.65	-12.49	-103.19	-57.330	-58.016	-4.410	0.28427	-0.46823	0.40894	-0.72980	30.5	13111	100
2025-3-27 17:51:4.938	WT901BLE68-01(48591DE3C19B)	0.345	-1.327	0.019	-1.587	-147.339	251.038	-77.07	-10.20	-101.16	-57.330	-58.016	-4.410	0.28427	-0.46823	0.40894	-0.72980	30.5	13111	100
2025-3-27 17:51:4.938	WT901BLE68-01(48591DE3C19B)	0.345	-1.483	0.006	18.250	-106.628	274.414	-77.31	-7.78	-99.33	-57.330	-58.016	-4.410	0.28427	-0.46823	0.40894	-0.72980	30.5	13111	100
2025-3-27 17:51:4.968	WT901BLE68-01(48591DE3C19B)	0.152	-1.483	0.006	18.250	-106.628	274.414	-77.33	-5.22	-97.68	-57.330	-58.016	-4.410	0.28427	-0.46823	0.40894	-0.72980	30.5	13111	100
2025-3-27 17:51:4.969	WT901BLE68-01(48591DE3C19B)	0.152	-1.684	0.093	28.015	-54.321	290.039	-77.23	-2.57	-96.27	-57.330	-58.016	-4.410	0.28427	-0.46823	0.40894	-0.72980	30.5	13111	100
2025-3-27 17:51:4.969	WT901BLE68-01(48591DE3C19B)	-0.110	-1.684	0.093	28.015	-54.321	290.039	-77.01	0.18	-95.10	-57.330	-58.016	-4.410	0.28427	-0.46823	0.40894	-0.72980	30.5	13111	100
2025-3-27 17:51:4.969	WT901BLE68-01(48591DE3C19B)	-0.110	-2.004	0.091	35.706	-8.423	290.588	-76.72	2.96	-94.14	-57.330	-58.016	-4.410	0.28427	-0.46823	0.40894	-0.72980	30.5	13111	100
2025-3-27 17:51:4.997	WT901BLE68-01(48591DE3C19B)	-0.006	-2.004	0.091	35.706	-8.423	290.588	-76.35	5.77	-93.38	-57.330	-58.016	-4.410	0.28427	-0.46823	0.40894	-0.72980	30.5	13111	100
2025-3-27 17:51:4.998	WT901BLE68-01(48591DE3C19B)	-0.006	-1.982	0.078	58.472	32.593	287.415	-75.86	8.59	-92.81	-57.330	-58.016	-4.410	0.28427	-0.46823	0.40894	-0.72980	30.5	13111	100
2025-3-27 17:51:4.998	WT901BLE68-01(48591DE3C19B)	0.140	-1.982	0.078	58.472	32.593	287.415	-75.26	11.41	-92.42	-57.330	-58.016	-4.410	0.28427	-0.46823	0.40894	-0.72980	30.5	13111	100
2025-3-27 17:51:4.998	WT901BLE68-01(48591DE3C19B)	0.140	-1.590	0.130	63.477	78.491	278.564	-74.67	14.24	-92.22	-57.330	-58.016	-4.410	0.60107	-0.34619	0.50204	-0.51645	30.5	13111	100
2025-3-27 17:51:5.28	WT901BLE68-01(48591DE3C19B)	0.119	-1.590	0.130	63.477	78.491	278.564	-74.11	17.05	-92.24	-57.330	-58.016	-4.410	0.60107	-0.34619	0.50204	-0.51645	30.5	13111	100
2025-3-27 17:51:5.28	WT901BLE68-01(48591DE3C19B)	0.119	-1.328	0.194	47.852	111.694	261.536	-73.69	19.81	-92.43	-57.330	-58.016	-4.410	0.60107	-0.34619	0.50204	-0.51645	30.5	13111	100
2025-3-27 17:51:5.28	WT901BLE68-01(48591DE3C19B)	-0.038	-1.328	0.194	47.852	111.694	261.536	-73.41	22.52	-92.80	-57.330	-58.016	-4.410	0.60107	-0.34619	0.50204	-0.51645	30.5	13111	100
2025-3-27 17:51:5.28	WT901BLE68-01(48591DE3C19B)	-0.038	-1.284	0.239	27.954	126.953	239.929	-73.29	25.12	-93.28	-57.330	-58.016	-4.410	0.60107	-0.34619	0.50204	-0.51645	30.5	13111	100
2025-3-27 17:51:5.88	WT901BLE68-01(48591DE3C19B)	-0.118	-1.284	0.239	27.954	126.953	239.929	-73.34	27.63	-93.89	-57.330	-58.016	-4.410	0.60107	-0.34619	0.50204	-0.51645	30.5	13111	100
2025-3-27 17:51:5.88	WT901BLE68-01(48591DE3C19B)	-0.118	-1.239	0.208	15.991	126.282	209.595	-73.51	29.98	-94.56	-57.330	-58.016	-4.410	0.60107	-0.34619	0.50204	-0.51645	30.5	13111	100
2025-3-27 17:51:5.88	WT901BLE68-01(48591DE3C19B)	-0.201	-1.239	0.208	15.991	126.282	209.595	-73.79	32.17	-95.30	-57.330	-58.016	-4.410	0.60107	-0.34619	0.50204	-0.51645	30.5	13111	100
2025-3-27 17:51:5.88	WT901BLE68-01(48591DE3C19B)	-0.201	-1.123	0.151	3.357	102.295	178.589	-74.12	34.16	-95.98	-57.330	-58.016	-4.410	0.60107	-0.34619	0.50204	-0.51645	30.5	13111	100
2025-3-27 17:51:5.124	WT901BLE68-01(48591DE3C19B)	-0.417	-1.123	0.151	3.357	102.295	178.589	-74.50	35.96	-96.61	-57.330	-58.016	-4.410	0.60107	-0.34619	0.50204	-0.51645	30.5	13111	100
2025-3-27 17:51:5.124	WT901BLE68-01(48591DE3C19B)	-0.417	-1.145	0.147	-16.052	45.776	150.085	-74.83	37.55	-96.97	-57.330	-58.016	-4.410	0.60107	-0.34619	0.50204	-0.51645	30.5	13111	100
2025-3-27 17:51:5.124	WT901BLE68-01(48591DE3C19B)	-0.498	-1.145	0.147	-16.052	45.776	150.085	-75.08	38.91	-97.04	-57.330	-58.016	-4.410	0.60107	-0.34619	0.50204	-0.51645	30.5	13111	100
2025-3-27 17:51:5.124	WT901BLE68-01(48591DE3C19B)	-0.498	-1.404	0.166	-23.376	-31.738	127.441	-75.09	40.07	-96.67	-57.330	-58.016	-4.410	0.60107	-0.34619	0.50204	-0.51645	30.5	13111	100
2025-3-27 17:51:5.148	WT901BLE68-01(48591DE3C19B)	-0.310	-1.404	0.166	-23.376	-31.738	127.441	-74.84	41.03	-95.86	-57.330	-58.016	-4.410	0.60107	-0.34619	0.50204	-0.51645	30.5	13111	100
2025-3-27 17:51:5.148	WT901BLE68-01(48591DE3C19B)	-0.310	-1.441	0.162	-10.498	-101.563	114.746	-74.22	41.82	-94.59	-57.330	-58.016	-4.410	0.60107	-0.34619	0.50204	-0.51645	30.5	13111	100
2025-3-27 17:51:5.148	WT901BLE68-01(48591DE3C19B)	-0.148	-1.441	0.162	-10.498	-101.563	114.746	-73.22	42.45	-92.88	-57.330	-58.016	-4.410	0.60107	-0.34619	0.50204	-0.51645	30.5	13111	100
2025-3-27 17:51:5.148	WT901BLE68-01(48591DE3C19B)	-0.148	-1.295	0.156	-4.639	-146.545	110.657	-71.98	42.95	-90.87	-57.330	-58.016	-4.410	0.60107	-0.34619	0.50204	-0.51645	30.5	13111	100
2025-3-27 17:51:5.208	WT901BLE68-01(48591DE3C19B)	-0.061	-1.295	0.156	-4.639	-146.545	110.657	-70.50	43.33	-88.55	-57.330	-58.016	-4.410	0.60107	-0.34619	0.50204	-0.51645	30.5	13111	100
2025-3-27 17:51:5.208	WT901BLE68-01(48591DE3C19B)	-0.061	-1.207	0.168	-2.258	-167.419	111.389	-68.89	43.63	-86.08	-57.330	-58.016	-4.410	0.60107	-0.34619	0.50204	-0.51645	30.5	13111	100
2025-3-27 17:51:5.208	WT901BLE68-01(48591DE3C19B)	-0.004	-1.207	0.168	-2.258	-167.419	111.389	-67.16	43.84	-83.47	-57.330	-58.016	-4.410	0.60107	-0.34619	0.50204	-0.51645	30.5	13111	100
2025-3-27 17:51:5.208	WT901BLE68-01(48591DE3C19B)	-0.004	-1.173	0.197	2.930	-167.419	111.145	-65.41	43.98	-80.85	-57.330	-58.016	-4.410	0.60107	-0.34619	0.50204	-0.51645	30.5	13111	100
2025-3-27 17:51:5.238	WT901BLE68-01(48591DE3C19B)	0.172	-1.173	0.197	2.930	-167.419	111.145	-63.63	44.06	-78.24	-89.278	-31.948	-0.588	0.60107	-0.34619	0.50204	-0.51645	30.5	13111	100
2025-3-27 17:51:5.238	WT901BLE68-01(48591DE3C19B)	0.172	-1.099	0.218	11.780	-144.104	111.877	-61.91	44.13	-75.77	-89.278	-31.948	-0.588	0.60107	-0.34619	0.50204	-0.51645	30.5	13111	100
2025-3-27 17:51:5.238	WT901BLE68-01(48591DE3C19B)	0.350	-1.099	0.218	11.780	-144.104	111.877	-60.25	44.21	-73.45	-89.278	-31.948	-0.588	0.60107	-0.34619	0.50204	-0.51645	30.5	13111	100
2025-3-27 17:51:5.238	WT901BLE68-01(48591DE3C19B)	0.350	-0.958	0.208	15.015	-88.501	108.948	-58.82	44.36	-71.48	-89.278	-31.948	-0.588	0.60107	-0.34619	0.50204	-0.51645	30.5	13111	100
2025-3-27 17:51:5.268	WT901BLE68-01(48591DE3C19B)	0.402	-0.958	0.208	15.015	-88.501	108.948	-57.61	44.60	-69.86	-89.278	-31.948	-0.588	0.60107	-0.34619	0.50204	-0.51645	30.5	13111	100
2025-3-27 17:51:5.268	WT901BLE68-01(48591DE3C19B)	0.402	-0.815	0.192	13.611	-16.357	99.243	-56.73	44.96	-68.69	-89.278	-31.948	-0.588	0.60107	-0.34619	0.50204	-0.51645	30.5	13111	100
2025-3-27 17:51:5.268	WT901BLE68-01(48591DE3C19B)	0.294	-0.815	0.192	13.611	-16.357	99.243	-56.17	45.46	-67.97	-89.278	-31.948	-0.588	0.60107	-0.34619	0.50204	-0.51645	30.5	13111	100
2025-3-27 17:51:5.268	WT901BLE68-01(48591DE3C19B)	0.294	-0.761	0.208	6.714	42.419	85.938	-55.92	46.05	-67.65	-89.278	-31.948	-0.588	0.60107	-0.34619	0.50204	-0.51645	30.5	13111	100
2025-3-27 17:51:5.328	WT901BLE68-01(48591DE3C19B)	0.145	-0.761	0.208	6.714	42.419	85.938	-55.99	46.74	-67.74	-89.278	-31.948	-0.588	0.60107	-0.34619	0.50204	-0.51645	30.5	13111	100
2025-3-27 17:51:5.328	WT901BLE68-01(48591DE3C19B)	0.145	-0.752	0.238	-0.732	77.026	71.533	-56.30	47.46	-68.10	-89.278	-31.948	-0.588	0.60107	-0.34619	0.50204	-0.51645	30.5	13111	100
2025-3-27 17:51:5.328	WT901BLE68-01(48591DE3C19B)	-0.006	-0.752	0.238	-0.732	77.026	71.533	-56.87	48.20	-68.75	-89.278	-31.948	-0.588	0.60107	-0.34619	0.50204	-0.51645	30.5	13111	100
2025-3-27 17:51:5.328	WT901BLE68-01(48591DE3C19B)	-0.006	-0.737	0.297	-6.592	88.867	56.763	-57.56	48.91	-69.55	-89.278	-31.948	-0.588	0.60107	-0.34619	0.50204	-0.51645	30.5	13111	100
2025-3-27 17:51:5.358	WT901BLE68-01(48591DE3C19B)	-0.145	-0.737	0.297	-6.592	88.867	56.763	-58.41	49.57	-70.50	-89.278	-31.948	-0.588	0.60107	-0.34619	0.50204	-0.51645	30.5	13111	100
2025-3-27 17:51:5.358	WT901BLE68-01(48591DE3C19B)	-0.145	-0.720	0.342	-8.179	77.454	36.255	-59.29	50.11	-71.49	-89.278	-31.948	-0.588	0.60107	-0.34619	0.50204	-0.51645	30.5	13111	100
2025-3-27 17:51:5.358	WT901BLE68-01(48591DE3C19B)	-0.222	-0.720	0.342	-8.179	77.454	36.255	-60.18	50.52	-72.49	-89.278	-31.948	-0.588	0.60107	-0.34619	0.50204	-0.51645	30.5	13111	100
2025-3-27 17:51:5.358	WT901BLE68-01(48591DE3C19B)	-0.222	-0.668	0.331	-8.972	47.729	11.475	-60.91	50.57	-73.29	-89.278	-31.948	-0.588	0.60107	-0.34619	0.50204	-0.51645	30.5	13111	100
2025-3-27 17:51:5.425	WT901BLE68-01(48591DE3C19B)	-0.223	-0.668	0.331	-8.972	47.729	11.475	-61.63	50.62	-74.08	-89.278	-31.948	-0.588	0.60107	-0.34619	0.50204	-0.51645	30.5	13111	100
2025-3-27 17:51:5.425	WT901BLE68-01(48591DE3C19B)	-0.223	-0.614	0.304	-10.803	8.850	-14.771	-62.09	50.26	-74.51	-89.278	-31.948	-0.588	0.60107	-0.34619	0.50204	-0.51645	30.5	13111	100
2025-3-27 17:51:5.426	WT901BLE68-01(48591DE3C19B)	-0.178	-0.614	0.304	-10.803	8.850	-14.771	-62.53	49.90	-74.94	-89.278	-31.948	-0.588	0.60107	-0.34619	0.50204	-0.51645	30.5	13111	100
2025-3-27 17:51:5.426	WT901BLE68-01(48591DE3C19B)	-0.178	-0.563	0.283	-13.550	-15.198	-39.490	-62.86	49.22	-75.20	-89.278	-31.948	-0.588	0.60107	-0.34619	0.50204	-0.51645	30.5	13111	100
2025-3-27 17:51:5.448	WT901BLE68-01(48591DE3C19B)	-0.145	-0.563	0.283	-13.550	-15.198	-39.490	-63.18	48.55	-75.45	-89.278	-31.948	-0.588	0.74487	-0.16635	0.56830	-0.30725	30.5	13111	100
2025-3-27 17:51:5.448	WT901BLE68-01(48591DE3C19B)	-0.145	-0.542	0.277	-17.639	-12.085	-64.636	-63.68	47.68	-75.90	-89.278	-31.948	-0.588	0.74487	-0.16635	0.56830	-0.30725	30.5	13111	100
2025-3-27 17:51:5.448	WT901BLE68-01(48591DE3C19B)	-0.175	-0.542	0.277	-17.639	-12.085	-64.636	-64.15	46.81	-76.32	-89.278	-31.948	-0.588	0.74487	-0.16635	0.56830	-0.30725	30.5	13111	100
2025-3-27 17:51:5.448	WT901BLE68-01(48591DE3C19B)	-0.175	-0.622	0.308	-21.912	1.343	-92.041	-64.89	45.75	-77.06	-89.278	-31.948	-0.588	0.74487	-0.16635	0.56830	-0.30725	30.5	13111	100
2025-3-27 17:51:5.479	WT901BLE68-01(48591DE3C19B)	-0.193	-0.622	0.308	-21.912	1.343	-92.041	-65.58	44.70	-77.77	-89.278	-31.948	-0.588	0.74487	-0.16635	0.56830	-0.30725	30.5	13111	100
2025-3-27 17:51:5.479	WT901BLE68-01(48591DE3C19B)	-0.193	-0.879	0.313	-27.466	25.024	-125.793	-66.63	43.45	-78.93	-89.278	-31.948	-0.588	0.74487	-0.16635	0.56830	-0.30725	30.5	13111	100
2025-3-27 17:51:5.479	WT901BLE68-01(48591DE3C19B)	-0.208	-0.879	0.313	-27.466	25.024	-125.793	-67.63	42.18	-80.04	-89.278	-31.948	-0.588	0.74487	-0.16635	0.56830	-0.30725	30.5	13111	100
2025-3-27 17:51:5.479	WT901BLE68-01(48591DE3C19B)	-0.208	-1.264	0.322	-23.315	64.758	-168.457	-68.98	40.67	-81.77	-89.278	-31.948	-0.588	0.74487	-0.16635	0.56830	-0.30725	30.5	13111	100
2025-3-27 17:51:5.568	WT901BLE68-01(48591DE3C19B)	-0.315	-1.264	0.322	-23.315	64.758	-168.457	-70.25	39.13	-83.42	-89.278	-31.948	-0.588	0.74487	-0.16635	0.56830	-0.30725	30.5	13111	100
2025-3-27 17:51:5.568	WT901BLE68-01(48591DE3C19B)	-0.315	-1.487	0.283	3.113	110.535	-207.458	-71.60	37.35	-85.69	-89.278	-31.948	-0.588	0.74487	-0.16635	0.56830	-0.30725	30.5	13111	100
2025-3-27 17:51:5.568	WT901BLE68-01(48591DE3C19B)	-0.532	-1.487	0.283	3.113	110.535	-207.458	-72.83	35.56	-87.84	-89.278	-31.948	-0.588	0.74487	-0.16635	0.56830	-0.30725	30.5	13111	100
2025-3-27 17:51:5.569	WT901BLE68-01(48591DE3C19B)	-0.532	-1.428	0.188	26.184	129.761	-234.436	-73.91	33.54	-90.21	-89.278	-31.948	-0.588	0.74487	-0.16635	0.56830	-0.30725	30.5	13111	100
2025-3-27 17:51:5.569	WT901BLE68-01(48591DE3C19B)	-0.633	-1.428	0.188	26.184	129.761	-234.436	-74.86	31.51	-92.47	-89.278	-31.948	-0.588	0.74487	-0.16635	0.56830	-0.30725	30.5	13111	100
2025-3-27 17:51:5.569	WT901BLE68-01(48591DE3C19B)	-0.633	-1.302	0.097	44.495	137.451	-257.568	-75.59	29.28	-94.78	-89.278	-31.948	-0.588	0.74487	-0.16635	0.56830	-0.30725	30.5	13111	100
2025-3-27 17:51:5.569	WT901BLE68-01(48591DE3C19B)	-0.637	-1.302	0.097	44.495	137.451	-257.568	-76.20	27.04	-97.01	-89.278	-31.948	-0.588	0.74487	-0.16635	0.56830	-0.30725	30.5	13111	100
2025-3-27 17:51:5.569	WT901BLE68-01(48591DE3C19B)	-0.637	-1.249	0.040	61.523	145.813	-264.648	-76.59	24.75	-99.27	-89.278	-31.948	-0.588	0.74487	-0.16635	0.56830	-0.30725	30.5	13111	100
2025-3-27 17:51:5.658	WT901BLE68-01(48591DE3C19B)	-0.619	-1.249	0.040	61.523	145.813	-264.648	-76.88	22.48	-101.46	-89.278	-31.948	-0.588	0.74487	-0.16635	0.56830	-0.30725	30.5	13111	100
2025-3-27 17:51:5.659	WT901BLE68-01(48591DE3C19B)	-0.619	-1.148	0.030	78.064	143.250	-254.639	-76.89	20.31	-103.55	-89.278	-31.948	-0.588	0.74487	-0.16635	0.56830	-0.30725	30.5	13111	100
2025-3-27 17:51:5.659	WT901BLE68-01(48591DE3C19B)	-0.519	-1.148	0.030	78.064	143.250	-254.639	-76.83	18.16	-105.60	-89.278	-31.948	-0.588	0.74487	-0.16635	0.56830	-0.30725	30.5	13111	100
2025-3-27 17:51:5.659	WT901BLE68-01(48591DE3C19B)	-0.519	-1.065	0.023	80.688	131.104	-245.117	-76.62	16.10	-107.48	-89.278	-31.948	-0.588	0.74487	-0.16635	0.56830	-0.30725	30.5	13111	100
2025-3-27 17:51:5.659	WT901BLE68-01(48591DE3C19B)	-0.431	-1.065	0.023	80.688	131.104	-245.117	-76.35	14.06	-109.34	-89.278	-31.948	-0.588	0.74487	-0.16635	0.56830	-0.30725	30.5	13111	100
2025-3-27 17:51:5.660	WT901BLE68-01(48591DE3C19B)	-0.431	-1.159	-0.015	78.064	128.723	-240.784	-76.04	12.07	-111.14	-76.244	-41.650	-5.586	0.74487	-0.16635	0.56830	-0.30725	30.5	13111	100
2025-3-27 17:51:5.660	WT901BLE68-01(48591DE3C19B)	-0.439	-1.159	-0.015	78.064	128.723	-240.784	-75.67	10.11	-112.93	-76.244	-41.650	-5.586	0.74487	-0.16635	0.56830	-0.30725	30.5	13111	100
2025-3-27 17:51:5.660	WT901BLE68-01(48591DE3C19B)	-0.439	-1.308	-0.072	76.721	137.512	-235.596	-75.28	8.24	-114.79	-76.244	-41.650	-5.586	0.74487	-0.16635	0.56830	-0.30725	30.5	13111	100
2025-3-27 17:51:5.687	WT901BLE68-01(48591DE3C19B)	-0.519	-1.308	-0.072	76.721	137.512	-235.596	-74.84	6.39	-116.64	-76.244	-41.650	-5.586	0.74487	-0.16635	0.56830	-0.30725	30.5	13111	100
2025-3-27 17:51:5.688	WT901BLE68-01(48591DE3C19B)	-0.519	-1.475	-0.077	72.449	147.644	-229.553	-74.39	4.65	-118.56	-76.244	-41.650	-5.586	0.74487	-0.16635	0.56830	-0.30725	30.5	13111	100
2025-3-27 17:51:5.688	WT901BLE68-01(48591DE3C19B)	-0.672	-1.475	-0.077	72.449	147.644	-229.553	-73.90	2.93	-120.49	-76.244	-41.650	-5.586	0.74487	-0.16635	0.56830	-0.30725	30.5	13111	100
2025-3-27 17:51:5.688	WT901BLE68-01(48591DE3C19B)	-0.672	-1.668	-0.030	68.726	150.330	-226.013	-73.39	1.28	-122.43	-76.244	-41.650	-5.586	0.74487	-0.16635	0.56830	-0.30725	30.5	13111	100
2025-3-27 17:51:5.725	WT901BLE68-01(48591DE3C19B)	-0.839	-1.668	-0.030	68.726	150.330	-226.013	-72.84	-0.34	-124.36	-76.244	-41.650	-5.586	0.74487	-0.16635	0.56830	-0.30725	30.5	13111	100
2025-3-27 17:51:5.725	WT901BLE68-01(48591DE3C19B)	-0.839	-1.754	0.027	71.838	137.634	-221.497	-72.20	-1.93	-126.17	-76.244	-41.650	-5.586	0.74487	-0.16635	0.56830	-0.30725	30.5	13111	100
2025-3-27 17:51:5.725	WT901BLE68-01(48591DE3C19B)	-0.901	-1.754	0.027	71.838	137.634	-221.497	-71.52	-3.49	-127.99	-76.244	-41.650	-5.586	0.74487	-0.16635	0.56830	-0.30725	30.5	13111	100
2025-3-27 17:51:5.725	WT901BLE68-01(48591DE3C19B)	-0.901	-1.597	0.013	78.613	110.107	-212.646	-70.75	-5.02	-129.53	-76.244	-41.650	-5.586	0.74487	-0.16635	0.56830	-0.30725	30.5	13111	100
2025-3-27 17:51:5.779	WT901BLE68-01(48591DE3C19B)	-0.825	-1.597	0.013	78.613	110.107	-212.646	-69.93	-6.50	-131.10	-76.244	-41.650	-5.586	0.74487	-0.16635	0.56830	-0.30725	30.5	13111	100
2025-3-27 17:51:5.779	WT901BLE68-01(48591DE3C19B)	-0.825	-1.353	-0.070	75.378	78.125	-198.608	-69.16	-7.94	-132.32	-76.244	-41.650	-5.586	0.74487	-0.16635	0.56830	-0.30725	30.5	13111	100
2025-3-27 17:51:5.779	WT901BLE68-01(48591DE3C19B)	-0.733	-1.353	-0.070	75.378	78.125	-198.608	-68.36	-9.35	-133.57	-76.244	-41.650	-5.586	0.74487	-0.16635	0.56830	-0.30725	30.5	13111	100
2025-3-27 17:51:5.779	WT901BLE68-01(48591DE3C19B)	-0.733	-1.140	-0.150	66.284	48.950	-177.612	-67.69	-10.66	-134.46	-76.244	-41.650	-5.586	0.74487	-0.16635	0.56830	-0.30725	30.5	13111	100
2025-3-27 17:51:5.838	WT901BLE68-01(48591DE3C19B)	-0.731	-1.140	-0.150	66.284	48.950	-177.612	-67.01	-11.94	-135.36	-76.244	-41.650	-5.586	0.74487	-0.16635	0.56830	-0.30725	30.5	13111	100
2025-3-27 17:51:5.838	WT901BLE68-01(48591DE3C19B)	-0.731	-0.978	-0.136	51.147	17.090	-154.053	-66.54	-13.12	-135.87	-76.244	-41.650	-5.586	0.74487	-0.16635	0.56830	-0.30725	30.5	13111	100
2025-3-27 17:51:5.838	WT901BLE68-01(48591DE3C19B)	-0.749	-0.978	-0.136	51.147	17.090	-154.053	-66.07	-14.29	-136.38	-76.244	-41.650	-5.586	0.74487	-0.16635	0.56830	-0.30725	30.5	13111	100
2025-3-27 17:51:5.838	WT901BLE68-01(48591DE3C19B)	-0.713	-0.858	-0.066	36.865	-17.456	-128.479	-65.85	-15.36	-136.46	-76.244	-41.650	-5.586	0.74487	-0.16635	0.56830	-0.30725	30.5	13111	100
2025-3-27 17:51:5.839	WT901BLE68-01(48591DE3C19B)	-0.713	-0.765	-0.021	22.095	-53.406	-101.563	-65.76	-16.36	-136.31	-76.244	-41.650	-5.586	0.74487	-0.16635	0.56830	-0.30725	30.5	13111	100
2025-3-27 17:51:5.839	WT901BLE68-01(48591DE3C19B)	-0.658	-0.765	-0.021	22.095	-53.406	-101.563	-65.81	-17.31	-135.93	-76.244	-41.650	-5.586	0.74487	-0.16635	0.56830	-0.30725	30.5	13111	100
2025-3-27 17:51:5.839	WT901BLE68-01(48591DE3C19B)	-0.658	-0.740	-0.002	9.155	-83.313	-75.012	-65.99	-18.18	-135.35	-76.244	-41.650	-5.586	0.74487	-0.16635	0.56830	-0.30725	30.5	13111	100
2025-3-27 17:51:5.839	WT901BLE68-01(48591DE3C19B)	-0.630	-0.740	-0.002	9.155	-83.313	-75.012	-66.31	-18.98	-134.57	-76.244	-41.650	-5.586	0.74487	-0.16635	0.56830	-0.30725	30.5	13111	100
2025-3-27 17:51:5.898	WT901BLE68-01(48591DE3C19B)	-0.630	-0.757	0.004	0.183	-104.980	-51.453	-66.73	-19.70	-133.63	-76.244	-41.650	-5.586	0.74487	-0.16635	0.56830	-0.30725	30.5	13111	100
2025-3-27 17:51:5.898	WT901BLE68-01(48591DE3C19B)	-0.616	-0.757	0.004	0.183	-104.980	-51.453	-67.25	-20.35	-132.53	-76.244	-41.650	-5.586	0.24170	-0.35855	0.43875	-0.78766	30.5	13111	100
2025-3-27 17:51:5.898	WT901BLE68-01(48591DE3C19B)	-0.616	-0.782	0.022	-5.859	-118.896	-29.846	-67.85	-20.89	-131.34	-76.244	-41.650	-5.586	0.24170	-0.35855	0.43875	-0.78766	30.5	13111	100
2025-3-27 17:51:5.898	WT901BLE68-01(48591DE3C19B)	-0.591	-0.782	0.022	-5.859	-118.896	-29.846	-68.51	-21.33	-130.03	-76.244	-41.650	-5.586	0.24170	-0.35855	0.43875	-0.78766	30.5	13111	100
2025-3-27 17:51:5.928	WT901BLE68-01(48591DE3C19B)	-0.591	-0.805	0.040	-8.545	-124.451	-10.803	-69.21	-21.68	-128.69	-76.244	-41.650	-5.586	0.24170	-0.35855	0.43875	-0.78766	30.5	13111	100
2025-3-27 17:51:5.928	WT901BLE68-01(48591DE3C19B)	-0.555	-0.805	0.040	-8.545	-124.451	-10.803	-69.93	-21.91	-127.29	-76.244	-41.650	-5.586	0.24170	-0.35855	0.43875	-0.78766	30.5	13111	100
2025-3-27 17:51:5.928	WT901BLE68-01(48591DE3C19B)	-0.555	-0.832	0.075	-10.193	-122.009	6.226	-70.67	-22.05	-125.89	-76.244	-41.650	-5.586	0.24170	-0.35855	0.43875	-0.78766	30.5	13111	100
2025-3-27 17:51:5.928	WT901BLE68-01(48591DE3C19B)	-0.507	-0.832	0.075	-10.193	-122.009	6.226	-71.41	-22.08	-124.48	-76.244	-41.650	-5.586	0.24170	-0.35855	0.43875	-0.78766	30.5	13111	100
2025-3-27 17:51:5.958	WT901BLE68-01(48591DE3C19B)	-0.507	-0.903	0.113	-11.414	-112.000	21.851	-72.13	-21.99	-123.12	-76.244	-41.650	-5.586	0.24170	-0.35855	0.43875	-0.78766	30.5	13111	100
2025-3-27 17:51:5.958	WT901BLE68-01(48591DE3C19B)	-0.458	-0.903	0.113	-11.414	-112.000	21.851	-72.82	-21.81	-121.80	-76.244	-41.650	-5.586	0.24170	-0.35855	0.43875	-0.78766	30.5	13111	100
2025-3-27 17:51:5.958	WT901BLE68-01(48591DE3C19B)	-0.458	-0.989	0.135	-9.216	-95.276	35.767	-73.47	-21.53	-120.56	-76.244	-41.650	-5.586	0.24170	-0.35855	0.43875	-0.78766	30.5	13111	100
2025-3-27 17:51:5.958	WT901BLE68-01(48591DE3C19B)	-0.416	-0.989	0.135	-9.216	-95.276	35.767	-74.06	-21.14	-119.39	-76.244	-41.650	-5.586	0.24170	-0.35855	0.43875	-0.78766	30.5	13111	100
2025-3-27 17:51:6.24	WT901BLE68-01(48591DE3C19B)	-0.416	-1.101	0.147	-7.813	-75.867	49.744	-74.60	-20.67	-118.32	-76.244	-41.650	-5.586	0.24170	-0.35855	0.43875	-0.78766	30.5	13111	100
2025-3-27 17:51:6.24	WT901BLE68-01(48591DE3C19B)	-0.401	-1.101	0.147	-7.813	-75.867	49.744	-75.09	-20.09	-117.33	-76.244	-41.650	-5.586	0.24170	-0.35855	0.43875	-0.78766	30.5	13111	100
2025-3-27 17:51:6.24	WT901BLE68-01(48591DE3C19B)	-0.401	-1.252	0.143	-7.141	-61.584	67.505	-75.54	-19.42	-116.41	-76.244	-41.650	-5.586	0.24170	-0.35855	0.43875	-0.78766	30.5	13111	100
2025-3-27 17:51:6.24	WT901BLE68-01(48591DE3C19B)	-0.339	-1.252	0.143	-7.141	-61.584	67.505	-75.95	-18.64	-115.54	-76.244	-41.650	-5.586	0.24170	-0.35855	0.43875	-0.78766	30.5	13111	100
2025-3-27 17:51:6.48	WT901BLE68-01(48591DE3C19B)	-0.339	-1.373	0.106	-7.629	-50.476	82.153	-76.34	-17.79	-114.72	-55.468	-53.508	-4.312	0.24170	-0.35855	0.43875	-0.78766	30.5	13111	100
2025-3-27 17:51:6.48	WT901BLE68-01(48591DE3C19B)	-0.285	-1.373	0.106	-7.629	-50.476	82.153	-76.70	-16.87	-113.94	-55.468	-53.508	-4.312	0.24170	-0.35855	0.43875	-0.78766	30.5	13111	100
2025-3-27 17:51:6.48	WT901BLE68-01(48591DE3C19B)	-0.285	-1.465	0.062	-14.648	-41.504	96.619	-77.07	-15.87	-113.20	-55.468	-53.508	-4.312	0.24170	-0.35855	0.43875	-0.78766	30.5	13111	100
2025-3-27 17:51:6.48	WT901BLE68-01(48591DE3C19B)	-0.331	-1.465	0.062	-14.648	-41.504	96.619	-77.45	-14.80	-112.49	-55.468	-53.508	-4.312	0.24170	-0.35855	0.43875	-0.78766	30.5	13111	100
2025-3-27 17:51:6.78	WT901BLE68-01(48591DE3C19B)	-0.331	-1.737	0.037	-32.166	-46.814	110.596	-77.92	-13.68	-111.75	-55.468	-53.508	-4.312	0.24170	-0.35855	0.43875	-0.78766	30.5	13111	100
2025-3-27 17:51:6.78	WT901BLE68-01(48591DE3C19B)	-0.421	-1.737	0.037	-32.166	-46.814	110.596	-78.47	-12.51	-110.97	-55.468	-53.508	-4.312	0.24170	-0.35855	0.43875	-0.78766	30.5	13111	100
2025-3-27 17:51:6.79	WT901BLE68-01(48591DE3C19B)	-0.421	-1.763	0.100	-23.682	-75.012	122.803	-78.99	-11.31	-110.06	-55.468	-53.508	-4.312	0.24170	-0.35855	0.43875	-0.78766	30.5	13111	100
2025-3-27 17:51:6.79	WT901BLE68-01(48591DE3C19B)	-0.401	-1.763	0.100	-23.682	-75.012	122.803	-79.46	-10.08	-109.01	-55.468	-53.508	-4.312	0.24170	-0.35855	0.43875	-0.78766	30.5	13111	100
2025-3-27 17:51:6.168	WT901BLE68-01(48591DE3C19B)	-0.401	-1.121	0.177	-25.940	-118.591	140.808	-79.96	-8.80	-107.75	-55.468	-53.508	-4.312	0.24170	-0.35855	0.43875	-0.78766	30.5	13111	100
2025-3-27 17:51:6.168	WT901BLE68-01(48591DE3C19B)	-0.340	-1.121	0.177	-25.940	-118.591	140.808	-80.46	-7.46	-106.29	-55.468	-53.508	-4.312	0.24170	-0.35855	0.43875	-0.78766	30.5	13111	100
2025-3-27 17:51:6.169	WT901BLE68-01(48591DE3C19B)	-0.340	-0.791	0.237	-43.945	-165.527	165.161	-81.05	-6.04	-104.60	-55.468	-53.508	-4.312	0.24170	-0.35855	0.43875	-0.78766	30.5	13111	100
2025-3-27 17:51:6.169	WT901BLE68-01(48591DE3C19B)	-0.139	-0.791	0.237	-43.945	-165.527	165.161	-81.68	-4.52	-102.69	-55.468	-53.508	-4.312	0.24170	-0.35855	0.43875	-0.78766	30.5	13111	100
2025-3-27 17:51:6.169	WT901BLE68-01(48591DE3C19B)	-0.139	-1.051	0.146	-50.354	-186.096	190.796	-82.29	-2.87	-100.70	-55.468	-53.508	-4.312	0.24170	-0.35855	0.43875	-0.78766	30.5	13111	100
2025-3-27 17:51:6.169	WT901BLE68-01(48591DE3C19B)	0.074	-1.051	0.146	-50.354	-186.096	190.796	-82.88	-1.10	-98.61	-55.468	-53.508	-4.312	0.24170	-0.35855	0.43875	-0.78766	30.5	13111	100
2025-3-27 17:51:6.169	WT901BLE68-01(48591DE3C19B)	0.074	-1.265	-0.026	-26.611	-176.086	208.557	-83.27	0.75	-96.59	-55.468	-53.508	-4.312	0.24170	-0.35855	0.43875	-0.78766	30.5	13111	100
2025-3-27 17:51:6.169	WT901BLE68-01(48591DE3C19B)	0.195	-1.265	-0.026	-26.611	-176.086	208.557	-83.49	2.70	-94.61	-55.468	-53.508	-4.312	0.24170	-0.35855	0.43875	-0.78766	30.5	13111	100
2025-3-27 17:51:6.198	WT901BLE68-01(48591DE3C19B)	0.195	-1.298	-0.093	-8.545	-153.809	218.567	-83.55	4.68	-92.76	-55.468	-53.508	-4.312	0.24170	-0.35855	0.43875	-0.78766	30.5	13111	100
2025-3-27 17:51:6.199	WT901BLE68-01(48591DE3C19B)	0.105	-1.298	-0.093	-8.545	-153.809	218.567	-83.48	6.71	-90.99	-55.468	-53.508	-4.312	0.24170	-0.35855	0.43875	-0.78766	30.5	13111	100
2025-3-27 17:51:6.199	WT901BLE68-01(48591DE3C19B)	0.105	-1.401	-0.075	-1.831	-111.450	217.957	-83.34	8.72	-89.44	-55.468	-53.508	-4.312	0.24170	-0.35855	0.43875	-0.78766	30.5	13111	100
2025-3-27 17:51:6.199	WT901BLE68-01(48591DE3C19B)	-0.147	-1.401	-0.075	-1.831	-111.450	217.957	-83.16	10.74	-88.09	-55.468	-53.508	-4.312	0.24170	-0.35855	0.43875	-0.78766	30.5	13111	100
2025-3-27 17:51:6.258	WT901BLE68-01(48591DE3C19B)	-0.147	-1.556	-0.009	1.709	-69.519	208.801	-82.95	12.71	-86.94	-55.468	-53.508	-4.312	0.24170	-0.35855	0.43875	-0.78766	30.5	13111	100
2025-3-27 17:51:6.258	WT901BLE68-01(48591DE3C19B)	-0.298	-1.556	-0.009	1.709	-69.519	208.801	-82.74	14.65	-86.00	-55.468	-53.508	-4.312	0.60181	-0.41415	0.51703	-0.44595	30.5	13111	100
2025-3-27 17:51:6.258	WT901BLE68-01(48591DE3C19B)	-0.298	-1.711	0.085	13.306	-49.500	203.552	-82.47	16.56	-85.15	-55.468	-53.508	-4.312	0.60181	-0.41415	0.51703	-0.44595	30.5	13111	100
2025-3-27 17:51:6.258	WT901BLE68-01(48591DE3C19B)	-0.247	-1.711	0.085	13.306	-49.500	203.552	-82.14	18.45	-84.40	-55.468	-53.508	-4.312	0.60181	-0.41415	0.51703	-0.44595	30.5	13111	100
2025-3-27 17:51:6.288	WT901BLE68-01(48591DE3C19B)	-0.247	-1.838	0.140	24.475	-41.687	200.806	-81.73	20.31	-83.67	-55.468	-53.508	-4.312	0.60181	-0.41415	0.51703	-0.44595	30.5	13111	100
2025-3-27 17:51:6.288	WT901BLE68-01(48591DE3C19B)	-0.086	-1.838	0.140	24.475	-41.687	200.806	-81.26	22.15	-82.96	-55.468	-53.508	-4.312	0.60181	-0.41415	0.51703	-0.44595	30.5	13111	100
2025-3-27 17:51:6.288	WT901BLE68-01(48591DE3C19B)	-0.086	-1.868	0.143	42.786	-31.677	203.247	-80.62	24.01	-82.34	-55.468	-53.508	-4.312	0.60181	-0.41415	0.51703	-0.44595	30.5	13111	100
2025-3-27 17:51:6.288	WT901BLE68-01(48591DE3C19B)	0.063	-1.868	0.143	42.786	-31.677	203.247	-79.94	25.85	-81.68	-55.468	-53.508	-4.312	0.60181	-0.41415	0.51703	-0.44595	30.5	13111	100
2025-3-27 17:51:6.325	WT901BLE68-01(48591DE3C19B)	0.063	-1.729	0.095	57.373	-12.085	209.778	-79.18	27.76	-81.19	-55.468	-53.508	-4.312	0.60181	-0.41415	0.51703	-0.44595	30.5	13111	100
2025-3-27 17:51:6.325	WT901BLE68-01(48591DE3C19B)	0.102	-1.729	0.095	57.373	-12.085	209.778	-78.39	29.65	-80.67	-55.468	-53.508	-4.312	0.60181	-0.41415	0.51703	-0.44595	30.5	13111	100
2025-3-27 17:51:6.325	WT901BLE68-01(48591DE3C19B)	0.102	-1.514	0.060	63.110	13.977	215.210	-77.65	31.63	-80.39	-55.468	-53.508	-4.312	0.60181	-0.41415	0.51703	-0.44595	30.5	13111	100
2025-3-27 17:51:6.325	WT901BLE68-01(48591DE3C19B)	0.029	-1.514	0.060	63.110	13.977	215.210	-76.89	33.59	-80.08	-55.468	-53.508	-4.312	0.60181	-0.41415	0.51703	-0.44595	30.5	13111	100
2025-3-27 17:51:6.379	WT901BLE68-01(48591DE3C19B)	0.029	-1.359	0.042	59.021	39.856	213.379	-76.32	35.57	-80.04	-55.468	-53.508	-4.312	0.60181	-0.41415	0.51703	-0.44595	30.5	13111	100
2025-3-27 17:51:6.379	WT901BLE68-01(48591DE3C19B)	-0.007	-1.359	0.042	59.021	39.856	213.379	-75.74	37.54	-79.98	-55.468	-53.508	-4.312	0.60181	-0.41415	0.51703	-0.44595	30.5	13111	100
2025-3-27 17:51:6.380	WT901BLE68-01(48591DE3C19B)	-0.007	-1.273	0.069	53.955	54.321	201.111	-75.33	39.41	-80.11	-55.468	-53.508	-4.312	0.60181	-0.41415	0.51703	-0.44595	30.5	13111	100
2025-3-27 17:51:6.380	WT901BLE68-01(48591DE3C19B)	-0.021	-1.273	0.069	53.955	54.321	201.111	-74.92	41.28	-80.23	-55.468	-53.508	-4.312	0.60181	-0.41415	0.51703	-0.44595	30.5	13111	100
2025-3-27 17:51:6.409	WT901BLE68-01(48591DE3C19B)	-0.021	-1.177	0.117	47.058	50.842	188.293	-74.56	42.99	-80.34	-55.468	-53.508	-4.312	0.60181	-0.41415	0.51703	-0.44595	30.5	13111	100
2025-3-27 17:51:6.409	WT901BLE68-01(48591DE3C19B)	-0.036	-1.177	0.117	47.058	50.842	188.293	-74.21	44.70	-80.43	-55.468	-53.508	-4.312	0.60181	-0.41415	0.51703	-0.44595	30.5	13111	100
2025-3-27 17:51:6.409	WT901BLE68-01(48591DE3C19B)	-0.036	-1.117	0.192	38.513	38.086	171.387	-73.84	46.20	-80.40	-55.468	-53.508	-4.312	0.60181	-0.41415	0.51703	-0.44595	30.5	13111	100
2025-3-27 17:51:6.409	WT901BLE68-01(48591DE3C19B)	-0.120	-1.117	0.192	38.513	38.086	171.387	-73.47	47.70	-80.36	-55.468	-53.508	-4.312	0.60181	-0.41415	0.51703	-0.44595	30.5	13111	100
2025-3-27 17:51:6.438	WT901BLE68-01(48591DE3C19B)	-0.120	-1.081	0.240	31.494	19.470	154.175	-73.01	48.97	-80.11	-55.468	-53.508	-4.312	0.60181	-0.41415	0.51703	-0.44595	30.5	13111	100
2025-3-27 17:51:6.438	WT901BLE68-01(48591DE3C19B)	-0.114	-1.081	0.240	31.494	19.470	154.175	-72.52	50.23	-79.83	-55.468	-53.508	-4.312	0.60181	-0.41415	0.51703	-0.44595	30.5	13111	100
2025-3-27 17:51:6.438	WT901BLE68-01(48591DE3C19B)	-0.114	-1.012	0.237	31.372	0.732	132.690	-71.87	51.22	-79.35	-88.886	-27.440	-0.294	0.60181	-0.41415	0.51703	-0.44595	30.5	13111	100
2025-3-27 17:51:6.438	WT901BLE68-01(48591DE3C19B)	-0.041	-1.012	0.237	31.372	0.732	132.690	-71.19	52.21	-78.84	-88.886	-27.440	-0.294	0.60181	-0.41415	0.51703	-0.44595	30.5	13111	100
