time	DeviceName	AccX(g)	AccY(g)	AccZ(g)	AsX(°/s)	AsY(°/s)	AsZ(°/s)	AngleX(°)	AngleY(°)	AngleZ(°)	HX(uT)	HY(uT)	HZ(uT)	Q0()	Q1()	Q2()	Q3()	Temperature(°C)	Version()	Battery level(%)
2025-3-27 17:20:35.616	WT901BLE68-01(48591DE3C19B)	-0.242	-0.917	0.289	-2.869	-0.671	0.793	-73.02	16.09	-127.62	-54.880	-55.762	-16.170	-0.42328	0.15939	-0.57620	0.68066	27.6	13111	100
2025-3-27 17:20:35.616	WT901BLE68-01(48591DE3C19B)	-0.242	-0.913	0.291	-2.808	-0.366	-0.610	-73.04	16.08	-127.62	-54.880	-55.762	-16.170	-0.42328	0.15939	-0.57620	0.68066	27.6	13111	100
2025-3-27 17:20:35.616	WT901BLE68-01(48591DE3C19B)	-0.245	-0.913	0.291	-2.808	-0.366	-0.610	-73.07	16.06	-127.62	-54.880	-55.762	-16.170	-0.42328	0.15939	-0.57620	0.68066	27.6	13111	100
2025-3-27 17:20:35.616	WT901BLE68-01(48591DE3C19B)	-0.245	-0.912	0.293	-2.930	0.000	-2.136	-73.10	16.03	-127.62	-54.880	-55.762	-16.170	-0.42328	0.15939	-0.57620	0.68066	27.6	13111	100
2025-3-27 17:20:35.646	WT901BLE68-01(48591DE3C19B)	-0.245	-0.912	0.293	-2.930	0.000	-2.136	-73.13	16.00	-127.63	-54.880	-55.762	-16.170	-0.42328	0.15939	-0.57620	0.68066	27.6	13111	100
2025-3-27 17:20:35.646	WT901BLE68-01(48591DE3C19B)	-0.245	-0.916	0.294	-2.869	0.183	-3.540	-73.15	15.96	-127.64	-54.880	-55.762	-16.170	-0.42328	0.15939	-0.57620	0.68066	27.6	13111	100
2025-3-27 17:20:35.646	WT901BLE68-01(48591DE3C19B)	-0.248	-0.916	0.294	-2.869	0.183	-3.540	-73.19	15.91	-127.66	-54.880	-55.762	-16.170	-0.42328	0.15939	-0.57620	0.68066	27.6	13111	100
2025-3-27 17:20:35.646	WT901BLE68-01(48591DE3C19B)	-0.248	-0.918	0.296	-2.686	0.671	-4.761	-73.21	15.86	-127.68	-55.370	-55.566	-16.464	-0.42328	0.15939	-0.57620	0.68066	27.6	13111	100
2025-3-27 17:20:35.676	WT901BLE68-01(48591DE3C19B)	-0.248	-0.918	0.296	-2.686	0.671	-4.761	-73.24	15.81	-127.70	-55.370	-55.566	-16.464	-0.42328	0.15939	-0.57620	0.68066	27.6	13111	100
2025-3-27 17:20:35.676	WT901BLE68-01(48591DE3C19B)	-0.247	-0.924	0.296	-2.319	1.465	-5.554	-73.27	15.75	-127.73	-55.370	-55.566	-16.464	-0.42328	0.15939	-0.57620	0.68066	27.6	13111	100
2025-3-27 17:20:35.676	WT901BLE68-01(48591DE3C19B)	-0.247	-0.925	0.293	-1.709	2.747	-5.920	-73.30	15.70	-127.77	-55.370	-55.566	-16.464	-0.42328	0.15939	-0.57620	0.68066	27.6	13111	100
2025-3-27 17:20:35.676	WT901BLE68-01(48591DE3C19B)	-0.248	-0.925	0.293	-1.709	2.747	-5.920	-73.32	15.64	-127.81	-55.370	-55.566	-16.464	-0.42328	0.15939	-0.57620	0.68066	27.6	13111	100
2025-3-27 17:20:35.733	WT901BLE68-01(48591DE3C19B)	-0.248	-0.923	0.291	-1.221	4.333	-6.042	-73.34	15.58	-127.87	-55.370	-55.566	-16.464	-0.42328	0.15939	-0.57620	0.68066	27.6	13111	100
2025-3-27 17:20:35.733	WT901BLE68-01(48591DE3C19B)	-0.250	-0.923	0.291	-1.221	4.333	-6.042	-73.36	15.53	-127.93	-55.370	-55.566	-16.464	-0.42328	0.15939	-0.57620	0.68066	27.6	13111	100
2025-3-27 17:20:35.734	WT901BLE68-01(48591DE3C19B)	-0.250	-0.919	0.286	-0.793	5.859	-6.042	-73.39	15.49	-128.00	-55.370	-55.566	-16.464	-0.42328	0.15939	-0.57620	0.68066	27.6	13111	100
2025-3-27 17:20:35.734	WT901BLE68-01(48591DE3C19B)	-0.250	-0.919	0.286	-0.793	5.859	-6.042	-73.41	15.44	-128.07	-55.370	-55.566	-16.464	-0.42328	0.15939	-0.57620	0.68066	27.6	13111	100
2025-3-27 17:20:35.764	WT901BLE68-01(48591DE3C19B)	-0.250	-0.919	0.281	-0.732	7.202	-6.042	-73.43	15.39	-128.16	-55.370	-55.566	-16.464	-0.42328	0.15939	-0.57620	0.68066	27.6	13111	100
2025-3-27 17:20:35.764	WT901BLE68-01(48591DE3C19B)	-0.251	-0.919	0.281	-0.732	7.202	-6.042	-73.46	15.35	-128.24	-55.370	-55.566	-16.464	-0.42328	0.15939	-0.57620	0.68066	27.6	13111	100
2025-3-27 17:20:35.764	WT901BLE68-01(48591DE3C19B)	-0.251	-0.916	0.277	-0.305	8.545	-6.165	-73.49	15.30	-128.34	-55.370	-55.566	-16.464	-0.42328	0.15939	-0.57620	0.68066	27.6	13111	100
2025-3-27 17:20:35.764	WT901BLE68-01(48591DE3C19B)	-0.250	-0.916	0.277	-0.305	8.545	-6.165	-73.51	15.27	-128.44	-55.370	-55.566	-16.464	-0.42328	0.15939	-0.57620	0.68066	27.6	13111	100
2025-3-27 17:20:35.796	WT901BLE68-01(48591DE3C19B)	-0.250	-0.903	0.272	-0.183	10.193	-6.592	-73.54	15.23	-128.55	-55.370	-55.566	-16.464	-0.42328	0.15939	-0.57620	0.68066	27.6	13111	100
2025-3-27 17:20:35.796	WT901BLE68-01(48591DE3C19B)	-0.248	-0.903	0.272	-0.183	10.193	-6.592	-73.56	15.19	-128.67	-55.370	-55.566	-16.464	-0.42328	0.15939	-0.57620	0.68066	27.6	13111	100
2025-3-27 17:20:35.796	WT901BLE68-01(48591DE3C19B)	-0.248	-0.900	0.265	-0.305	12.329	-6.775	-73.60	15.16	-128.80	-55.370	-55.566	-16.464	-0.42328	0.15939	-0.57620	0.68066	27.6	13111	100
2025-3-27 17:20:35.796	WT901BLE68-01(48591DE3C19B)	-0.251	-0.900	0.265	-0.305	12.329	-6.775	-73.64	15.12	-128.94	-55.370	-55.566	-16.464	-0.42328	0.15939	-0.57620	0.68066	27.6	13111	100
2025-3-27 17:20:35.855	WT901BLE68-01(48591DE3C19B)	-0.251	-0.899	0.256	-0.305	14.282	-6.714	-73.67	15.09	-129.08	-55.370	-55.566	-16.464	-0.42328	0.15939	-0.57620	0.68066	27.6	13111	100
2025-3-27 17:20:35.855	WT901BLE68-01(48591DE3C19B)	-0.255	-0.899	0.256	-0.305	14.282	-6.714	-73.71	15.06	-129.24	-55.370	-55.566	-16.464	-0.41043	0.15985	-0.58240	0.68314	27.6	13111	100
2025-3-27 17:20:35.855	WT901BLE68-01(48591DE3C19B)	-0.255	-0.901	0.251	-0.671	15.747	-6.531	-73.76	15.04	-129.40	-55.370	-55.566	-16.464	-0.41043	0.15985	-0.58240	0.68314	27.6	13111	100
2025-3-27 17:20:35.855	WT901BLE68-01(48591DE3C19B)	-0.260	-0.901	0.251	-0.671	15.747	-6.531	-73.81	15.02	-129.57	-55.370	-55.566	-16.464	-0.41043	0.15985	-0.58240	0.68314	27.6	13111	100
2025-3-27 17:20:35.883	WT901BLE68-01(48591DE3C19B)	-0.260	-0.902	0.249	-1.038	16.113	-5.981	-73.86	15.00	-129.74	-55.370	-55.566	-16.464	-0.41043	0.15985	-0.58240	0.68314	27.6	13111	100
2025-3-27 17:20:35.884	WT901BLE68-01(48591DE3C19B)	-0.263	-0.902	0.249	-1.038	16.113	-5.981	-73.92	14.99	-129.91	-55.370	-55.566	-16.464	-0.41043	0.15985	-0.58240	0.68314	27.6	13111	100
2025-3-27 17:20:35.884	WT901BLE68-01(48591DE3C19B)	-0.263	-0.900	0.245	-2.014	15.503	-5.493	-73.97	14.97	-130.08	-55.370	-55.566	-16.464	-0.41043	0.15985	-0.58240	0.68314	27.6	13111	100
2025-3-27 17:20:35.884	WT901BLE68-01(48591DE3C19B)	-0.267	-0.900	0.245	-2.014	15.503	-5.493	-74.04	14.97	-130.24	-55.370	-55.566	-16.464	-0.41043	0.15985	-0.58240	0.68314	27.6	13111	100
2025-3-27 17:20:35.914	WT901BLE68-01(48591DE3C19B)	-0.267	-0.907	0.241	-3.235	14.343	-5.249	-74.10	14.96	-130.40	-55.370	-55.566	-16.464	-0.41043	0.15985	-0.58240	0.68314	27.6	13111	100
2025-3-27 17:20:35.914	WT901BLE68-01(48591DE3C19B)	-0.268	-0.907	0.241	-3.235	14.343	-5.249	-74.17	14.95	-130.55	-55.370	-55.566	-16.464	-0.41043	0.15985	-0.58240	0.68314	27.6	13111	100
2025-3-27 17:20:35.914	WT901BLE68-01(48591DE3C19B)	-0.268	-0.913	0.239	-4.272	12.756	-5.554	-74.25	14.94	-130.69	-55.370	-55.566	-16.464	-0.41043	0.15985	-0.58240	0.68314	27.6	13111	100
2025-3-27 17:20:35.914	WT901BLE68-01(48591DE3C19B)	-0.267	-0.913	0.239	-4.272	12.756	-5.554	-74.33	14.92	-130.82	-55.370	-55.566	-16.464	-0.41043	0.15985	-0.58240	0.68314	27.6	13111	100
2025-3-27 17:20:35.974	WT901BLE68-01(48591DE3C19B)	-0.267	-0.915	0.239	-5.310	11.230	-6.409	-74.41	14.89	-130.95	-55.370	-55.566	-16.464	-0.41043	0.15985	-0.58240	0.68314	27.6	13111	100
2025-3-27 17:20:35.974	WT901BLE68-01(48591DE3C19B)	-0.268	-0.915	0.239	-5.310	11.230	-6.409	-74.50	14.86	-131.07	-55.370	-55.566	-16.464	-0.41043	0.15985	-0.58240	0.68314	27.6	13111	100
2025-3-27 17:20:35.974	WT901BLE68-01(48591DE3C19B)	-0.268	-0.919	0.239	-6.104	10.254	-7.935	-74.59	14.83	-131.18	-55.370	-55.566	-16.464	-0.41043	0.15985	-0.58240	0.68314	27.6	13111	100
2025-3-27 17:20:35.974	WT901BLE68-01(48591DE3C19B)	-0.275	-0.919	0.239	-6.104	10.254	-7.935	-74.68	14.78	-131.29	-55.370	-55.566	-16.464	-0.41043	0.15985	-0.58240	0.68314	27.6	13111	100
2025-3-27 17:20:36.5	WT901BLE68-01(48591DE3C19B)	-0.275	-0.914	0.238	-6.470	8.972	-10.315	-74.77	14.73	-131.40	-55.370	-55.566	-16.464	-0.41043	0.15985	-0.58240	0.68314	27.6	13111	100
2025-3-27 17:20:36.5	WT901BLE68-01(48591DE3C19B)	-0.280	-0.914	0.238	-6.470	8.972	-10.315	-74.87	14.66	-131.51	-55.370	-55.566	-16.464	-0.41043	0.15985	-0.58240	0.68314	27.6	13111	100
2025-3-27 17:20:36.5	WT901BLE68-01(48591DE3C19B)	-0.280	-0.909	0.235	-7.202	6.958	-13.550	-74.96	14.57	-131.61	-55.370	-55.566	-16.464	-0.41043	0.15985	-0.58240	0.68314	27.6	13111	100
2025-3-27 17:20:36.5	WT901BLE68-01(48591DE3C19B)	-0.288	-0.909	0.235	-7.202	6.958	-13.550	-75.06	14.46	-131.70	-55.370	-55.566	-16.464	-0.41043	0.15985	-0.58240	0.68314	27.6	13111	100
2025-3-27 17:20:36.125	WT901BLE68-01(48591DE3C19B)	-0.288	-0.914	0.232	-7.629	4.639	-17.517	-75.16	14.34	-131.79	-55.370	-55.566	-16.464	-0.41043	0.15985	-0.58240	0.68314	27.6	13111	100
2025-3-27 17:20:36.125	WT901BLE68-01(48591DE3C19B)	-0.297	-0.914	0.232	-7.629	4.639	-17.517	-75.26	14.19	-131.87	-55.370	-55.566	-16.464	-0.41043	0.15985	-0.58240	0.68314	27.6	13111	100
2025-3-27 17:20:36.125	WT901BLE68-01(48591DE3C19B)	-0.297	-0.922	0.233	-7.935	1.892	-21.912	-75.35	14.02	-131.95	-51.156	-54.978	-16.562	-0.41043	0.15985	-0.58240	0.68314	27.6	13111	100
2025-3-27 17:20:36.125	WT901BLE68-01(48591DE3C19B)	-0.310	-0.922	0.233	-7.935	1.892	-21.912	-75.45	13.83	-132.01	-51.156	-54.978	-16.562	-0.41043	0.15985	-0.58240	0.68314	27.6	13111	100
2025-3-27 17:20:36.153	WT901BLE68-01(48591DE3C19B)	-0.310	-0.937	0.235	-7.935	-1.160	-25.940	-75.54	13.61	-132.07	-51.156	-54.978	-16.562	-0.41043	0.15985	-0.58240	0.68314	27.6	13111	100
2025-3-27 17:20:36.153	WT901BLE68-01(48591DE3C19B)	-0.316	-0.937	0.235	-7.935	-1.160	-25.940	-75.63	13.38	-132.11	-51.156	-54.978	-16.562	-0.41043	0.15985	-0.58240	0.68314	27.6	13111	100
2025-3-27 17:20:36.154	WT901BLE68-01(48591DE3C19B)	-0.316	-0.938	0.227	-7.996	-4.211	-28.992	-75.72	13.12	-132.14	-51.156	-54.978	-16.562	-0.41043	0.15985	-0.58240	0.68314	27.6	13111	100
2025-3-27 17:20:36.154	WT901BLE68-01(48591DE3C19B)	-0.319	-0.938	0.227	-7.996	-4.211	-28.992	-75.81	12.85	-132.17	-51.156	-54.978	-16.562	-0.41043	0.15985	-0.58240	0.68314	27.6	13111	100
2025-3-27 17:20:36.163	WT901BLE68-01(48591DE3C19B)	-0.319	-0.944	0.217	-8.423	-6.287	-30.762	-75.89	12.57	-132.19	-51.156	-54.978	-16.562	-0.41043	0.15985	-0.58240	0.68314	27.6	13111	100
2025-3-27 17:20:36.163	WT901BLE68-01(48591DE3C19B)	-0.324	-0.944	0.217	-8.423	-6.287	-30.762	-75.98	12.29	-132.19	-51.156	-54.978	-16.562	-0.41043	0.15985	-0.58240	0.68314	27.6	13111	100
2025-3-27 17:20:36.163	WT901BLE68-01(48591DE3C19B)	-0.324	-0.929	0.208	-8.789	-7.629	-31.433	-76.06	12.00	-132.19	-51.156	-54.978	-16.562	-0.41043	0.15985	-0.58240	0.68314	27.6	13111	100
2025-3-27 17:20:36.163	WT901BLE68-01(48591DE3C19B)	-0.333	-0.929	0.208	-8.789	-7.629	-31.433	-76.15	11.71	-132.19	-51.156	-54.978	-16.562	-0.41043	0.15985	-0.58240	0.68314	27.6	13111	100
2025-3-27 17:20:36.186	WT901BLE68-01(48591DE3C19B)	-0.333	-0.906	0.208	-10.437	-10.254	-30.518	-76.25	11.43	-132.16	-51.156	-54.978	-16.562	-0.41043	0.15985	-0.58240	0.68314	27.6	13111	100
2025-3-27 17:20:36.186	WT901BLE68-01(48591DE3C19B)	-0.352	-0.906	0.208	-10.437	-10.254	-30.518	-76.35	11.15	-132.13	-51.156	-54.978	-16.562	-0.41043	0.15985	-0.58240	0.68314	27.6	13111	100
2025-3-27 17:20:36.186	WT901BLE68-01(48591DE3C19B)	-0.352	-0.907	0.219	-12.817	-15.259	-28.687	-76.46	10.88	-132.04	-51.156	-54.978	-16.562	-0.41043	0.15985	-0.58240	0.68314	27.6	13111	100
2025-3-27 17:20:36.186	WT901BLE68-01(48591DE3C19B)	-0.362	-0.907	0.219	-12.817	-15.259	-28.687	-76.57	10.61	-131.96	-51.156	-54.978	-16.562	-0.41043	0.15985	-0.58240	0.68314	27.6	13111	100
2025-3-27 17:20:36.243	WT901BLE68-01(48591DE3C19B)	-0.362	-0.917	0.229	-14.404	-22.766	-26.062	-76.68	10.35	-131.80	-51.156	-54.978	-16.562	-0.41043	0.15985	-0.58240	0.68314	27.6	13111	100
2025-3-27 17:20:36.243	WT901BLE68-01(48591DE3C19B)	-0.356	-0.917	0.229	-14.404	-22.766	-26.062	-76.79	10.09	-131.64	-51.156	-54.978	-16.562	-0.41043	0.15985	-0.58240	0.68314	27.6	13111	100
2025-3-27 17:20:36.243	WT901BLE68-01(48591DE3C19B)	-0.356	-0.929	0.227	-15.198	-29.968	-23.193	-76.90	9.85	-131.41	-51.156	-54.978	-16.562	-0.41043	0.15985	-0.58240	0.68314	27.6	13111	100
2025-3-27 17:20:36.243	WT901BLE68-01(48591DE3C19B)	-0.345	-0.929	0.227	-15.198	-29.968	-23.193	-77.00	9.62	-131.17	-51.156	-54.978	-16.562	-0.41043	0.15985	-0.58240	0.68314	27.6	13111	100
2025-3-27 17:20:36.244	WT901BLE68-01(48591DE3C19B)	-0.345	-0.958	0.227	-15.198	-35.461	-20.447	-77.10	9.39	-130.87	-51.156	-54.978	-16.562	-0.41043	0.15985	-0.58240	0.68314	27.6	13111	100
2025-3-27 17:20:36.244	WT901BLE68-01(48591DE3C19B)	-0.331	-0.958	0.227	-15.198	-35.461	-20.447	-77.20	9.18	-130.58	-51.156	-54.978	-16.562	-0.41043	0.15985	-0.58240	0.68314	27.6	13111	100
2025-3-27 17:20:36.244	WT901BLE68-01(48591DE3C19B)	-0.331	-0.980	0.231	-13.428	-37.720	-17.395	-77.27	8.99	-130.26	-51.156	-54.978	-16.562	-0.41043	0.15985	-0.58240	0.68314	27.6	13111	100
2025-3-27 17:20:36.244	WT901BLE68-01(48591DE3C19B)	-0.314	-0.980	0.231	-13.428	-37.720	-17.395	-77.35	8.79	-129.94	-51.156	-54.978	-16.562	-0.37326	0.21072	-0.58954	0.68454	27.6	13111	100
2025-3-27 17:20:36.273	WT901BLE68-01(48591DE3C19B)	-0.314	-0.988	0.240	-11.475	-36.072	-13.672	-77.41	8.64	-129.62	-51.156	-54.978	-16.562	-0.37326	0.21072	-0.58954	0.68454	27.6	13111	100
2025-3-27 17:20:36.273	WT901BLE68-01(48591DE3C19B)	-0.305	-0.988	0.240	-11.475	-36.072	-13.672	-77.46	8.49	-129.31	-51.156	-54.978	-16.562	-0.37326	0.21072	-0.58954	0.68454	27.6	13111	100
2025-3-27 17:20:36.273	WT901BLE68-01(48591DE3C19B)	-0.305	-0.989	0.248	-9.338	-31.372	-9.583	-77.51	8.39	-129.03	-51.156	-54.978	-16.562	-0.37326	0.21072	-0.58954	0.68454	27.6	13111	100
2025-3-27 17:20:36.273	WT901BLE68-01(48591DE3C19B)	-0.302	-0.989	0.248	-9.338	-31.372	-9.583	-77.55	8.29	-128.75	-51.156	-54.978	-16.562	-0.37326	0.21072	-0.58954	0.68454	27.6	13111	100
2025-3-27 17:20:36.333	WT901BLE68-01(48591DE3C19B)	-0.302	-0.985	0.247	-7.324	-25.757	-5.737	-77.58	8.23	-128.52	-51.156	-54.978	-16.562	-0.37326	0.21072	-0.58954	0.68454	27.6	13111	100
2025-3-27 17:20:36.334	WT901BLE68-01(48591DE3C19B)	-0.300	-0.985	0.247	-7.324	-25.757	-5.737	-77.61	8.18	-128.29	-51.156	-54.978	-16.562	-0.37326	0.21072	-0.58954	0.68454	27.6	13111	100
2025-3-27 17:20:36.334	WT901BLE68-01(48591DE3C19B)	-0.300	-0.975	0.236	-4.944	-20.996	-2.441	-77.62	8.17	-128.11	-51.156	-54.978	-16.562	-0.37326	0.21072	-0.58954	0.68454	27.6	13111	100
2025-3-27 17:20:36.334	WT901BLE68-01(48591DE3C19B)	-0.305	-0.975	0.236	-4.944	-20.996	-2.441	-77.63	8.16	-127.91	-51.156	-54.978	-16.562	-0.37326	0.21072	-0.58954	0.68454	27.6	13111	100
2025-3-27 17:20:36.363	WT901BLE68-01(48591DE3C19B)	-0.305	-0.957	0.224	-2.869	-18.433	0.061	-77.63	8.18	-127.74	-51.156	-54.978	-16.562	-0.37326	0.21072	-0.58954	0.68454	27.6	13111	100
2025-3-27 17:20:36.363	WT901BLE68-01(48591DE3C19B)	-0.307	-0.957	0.224	-2.869	-18.433	0.061	-77.62	8.20	-127.57	-51.156	-54.978	-16.562	-0.37326	0.21072	-0.58954	0.68454	27.6	13111	100
2025-3-27 17:20:36.363	WT901BLE68-01(48591DE3C19B)	-0.307	-0.934	0.215	-1.038	-18.494	1.831	-77.60	8.23	-127.39	-51.156	-54.978	-16.562	-0.37326	0.21072	-0.58954	0.68454	27.6	13111	100
2025-3-27 17:20:36.363	WT901BLE68-01(48591DE3C19B)	-0.300	-0.934	0.215	-1.038	-18.494	1.831	-77.57	8.27	-127.22	-51.156	-54.978	-16.562	-0.37326	0.21072	-0.58954	0.68454	27.6	13111	100
2025-3-27 17:20:36.393	WT901BLE68-01(48591DE3C19B)	-0.300	-0.910	0.208	0.000	-19.043	2.686	-77.54	8.31	-127.03	-51.156	-54.978	-16.562	-0.37326	0.21072	-0.58954	0.68454	27.6	13111	100
2025-3-27 17:20:36.394	WT901BLE68-01(48591DE3C19B)	-0.292	-0.910	0.208	0.000	-19.043	2.686	-77.51	8.35	-126.85	-51.156	-54.978	-16.562	-0.37326	0.21072	-0.58954	0.68454	27.6	13111	100
2025-3-27 17:20:36.394	WT901BLE68-01(48591DE3C19B)	-0.292	-0.901	0.202	0.916	-18.982	2.075	-77.46	8.38	-126.67	-51.156	-54.978	-16.562	-0.37326	0.21072	-0.58954	0.68454	27.6	13111	100
2025-3-27 17:20:36.394	WT901BLE68-01(48591DE3C19B)	-0.289	-0.901	0.202	0.916	-18.982	2.075	-77.42	8.42	-126.49	-51.156	-54.978	-16.562	-0.37326	0.21072	-0.58954	0.68454	27.6	13111	100
2025-3-27 17:20:36.483	WT901BLE68-01(48591DE3C19B)	-0.289	-0.896	0.199	1.953	-18.127	0.183	-77.37	8.43	-126.32	-51.156	-54.978	-16.562	-0.37326	0.21072	-0.58954	0.68454	27.6	13111	100
2025-3-27 17:20:36.484	WT901BLE68-01(48591DE3C19B)	-0.290	-0.896	0.199	1.953	-18.127	0.183	-77.32	8.45	-126.15	-51.156	-54.978	-16.562	-0.37326	0.21072	-0.58954	0.68454	27.6	13111	100
2025-3-27 17:20:36.484	WT901BLE68-01(48591DE3C19B)	-0.290	-0.881	0.191	3.906	-17.456	-2.380	-77.26	8.44	-126.00	-51.156	-54.978	-16.562	-0.37326	0.21072	-0.58954	0.68454	27.6	13111	100
2025-3-27 17:20:36.484	WT901BLE68-01(48591DE3C19B)	-0.302	-0.881	0.191	3.906	-17.456	-2.380	-77.19	8.44	-125.84	-51.156	-54.978	-16.562	-0.37326	0.21072	-0.58954	0.68454	27.6	13111	100
2025-3-27 17:20:36.484	WT901BLE68-01(48591DE3C19B)	-0.302	-0.869	0.183	5.249	-19.165	-5.005	-77.11	8.40	-125.67	-55.174	-50.862	-19.012	-0.37326	0.21072	-0.58954	0.68454	27.6	13111	100
2025-3-27 17:20:36.484	WT901BLE68-01(48591DE3C19B)	-0.303	-0.869	0.183	5.249	-19.165	-5.005	-77.03	8.37	-125.51	-55.174	-50.862	-19.012	-0.37326	0.21072	-0.58954	0.68454	27.6	13111	100
2025-3-27 17:20:36.484	WT901BLE68-01(48591DE3C19B)	-0.303	-0.845	0.173	6.897	-22.583	-6.775	-76.93	8.31	-125.32	-55.174	-50.862	-19.012	-0.37326	0.21072	-0.58954	0.68454	27.6	13111	100
2025-3-27 17:20:36.485	WT901BLE68-01(48591DE3C19B)	-0.298	-0.845	0.173	6.897	-22.583	-6.775	-76.84	8.25	-125.12	-55.174	-50.862	-19.012	-0.37326	0.21072	-0.58954	0.68454	27.6	13111	100
2025-3-27 17:20:36.513	WT901BLE68-01(48591DE3C19B)	-0.298	-0.819	0.165	7.874	-26.855	-7.019	-76.72	8.18	-124.89	-55.174	-50.862	-19.012	-0.37326	0.21072	-0.58954	0.68454	27.6	13111	100
2025-3-27 17:20:36.513	WT901BLE68-01(48591DE3C19B)	-0.289	-0.819	0.165	7.874	-26.855	-7.019	-76.61	8.11	-124.66	-55.174	-50.862	-19.012	-0.37326	0.21072	-0.58954	0.68454	27.6	13111	100
2025-3-27 17:20:36.514	WT901BLE68-01(48591DE3C19B)	-0.289	-0.809	0.158	8.423	-31.433	-5.127	-76.50	8.05	-124.37	-55.174	-50.862	-19.012	-0.37326	0.21072	-0.58954	0.68454	27.6	13111	100
2025-3-27 17:20:36.514	WT901BLE68-01(48591DE3C19B)	-0.268	-0.809	0.158	8.423	-31.433	-5.127	-76.38	7.99	-124.10	-55.174	-50.862	-19.012	-0.37326	0.21072	-0.58954	0.68454	27.6	13111	100
2025-3-27 17:20:36.573	WT901BLE68-01(48591DE3C19B)	-0.268	-0.809	0.141	7.690	-34.241	-2.136	-76.26	7.95	-123.78	-55.174	-50.862	-19.012	-0.37326	0.21072	-0.58954	0.68454	27.6	13111	100
2025-3-27 17:20:36.574	WT901BLE68-01(48591DE3C19B)	-0.240	-0.809	0.141	7.690	-34.241	-2.136	-76.15	7.92	-123.46	-55.174	-50.862	-19.012	-0.37326	0.21072	-0.58954	0.68454	27.6	13111	100
2025-3-27 17:20:36.574	WT901BLE68-01(48591DE3C19B)	-0.240	-0.864	0.115	5.798	-33.203	-0.183	-76.06	7.90	-123.16	-55.174	-50.862	-19.012	-0.37326	0.21072	-0.58954	0.68454	27.6	13111	100
2025-3-27 17:20:36.574	WT901BLE68-01(48591DE3C19B)	-0.251	-0.864	0.115	5.798	-33.203	-0.183	-75.98	7.88	-122.84	-55.174	-50.862	-19.012	-0.37326	0.21072	-0.58954	0.68454	27.6	13111	100
2025-3-27 17:20:36.606	WT901BLE68-01(48591DE3C19B)	-0.266	-0.944	0.105	3.235	-31.677	-2.319	-75.92	7.84	-122.55	-55.174	-50.862	-19.012	-0.37326	0.21072	-0.58954	0.68454	27.6	13111	100
2025-3-27 17:20:36.606	WT901BLE68-01(48591DE3C19B)	-0.266	-1.074	0.146	0.610	-33.203	-10.437	-75.88	7.76	-122.26	-55.174	-50.862	-19.012	-0.37326	0.21072	-0.58954	0.68454	27.6	13111	100
2025-3-27 17:20:36.606	WT901BLE68-01(48591DE3C19B)	-0.290	-1.074	0.146	0.610	-33.203	-10.437	-75.86	7.63	-121.96	-55.174	-50.862	-19.012	-0.37326	0.21072	-0.58954	0.68454	27.6	13111	100
2025-3-27 17:20:36.606	WT901BLE68-01(48591DE3C19B)	-0.290	-1.234	0.202	2.014	-37.537	-21.973	-75.83	7.44	-121.66	-55.174	-50.862	-19.012	-0.37326	0.21072	-0.58954	0.68454	27.6	13111	100
2025-3-27 17:20:36.636	WT901BLE68-01(48591DE3C19B)	-0.265	-1.234	0.202	2.014	-37.537	-21.973	-75.80	7.19	-121.35	-55.174	-50.862	-19.012	-0.37326	0.21072	-0.58954	0.68454	27.6	13111	100
2025-3-27 17:20:36.636	WT901BLE68-01(48591DE3C19B)	-0.265	-1.295	0.233	11.719	-47.974	-36.316	-75.71	6.85	-121.01	-55.174	-50.862	-19.012	-0.37326	0.21072	-0.58954	0.68454	27.6	13111	100
2025-3-27 17:20:36.636	WT901BLE68-01(48591DE3C19B)	-0.186	-1.295	0.233	11.719	-47.974	-36.316	-75.58	6.43	-120.64	-55.174	-50.862	-19.012	-0.42053	0.26440	-0.55350	0.66840	27.6	13111	100
2025-3-27 17:20:36.636	WT901BLE68-01(48591DE3C19B)	-0.186	-1.260	0.271	18.066	-49.194	-44.739	-75.42	5.97	-120.27	-55.174	-50.862	-19.012	-0.42053	0.26440	-0.55350	0.66840	27.6	13111	100
2025-3-27 17:20:36.694	WT901BLE68-01(48591DE3C19B)	-0.188	-1.260	0.271	18.066	-49.194	-44.739	-75.23	5.47	-119.90	-55.174	-50.862	-19.012	-0.42053	0.26440	-0.55350	0.66840	27.6	13111	100
2025-3-27 17:20:36.694	WT901BLE68-01(48591DE3C19B)	-0.188	-1.174	0.248	21.240	-30.273	-44.983	-75.04	4.98	-119.64	-55.174	-50.862	-19.012	-0.42053	0.26440	-0.55350	0.66840	27.6	13111	100
2025-3-27 17:20:36.694	WT901BLE68-01(48591DE3C19B)	-0.194	-1.174	0.248	21.240	-30.273	-44.983	-74.84	4.52	-119.46	-55.174	-50.862	-19.012	-0.42053	0.26440	-0.55350	0.66840	27.6	13111	100
2025-3-27 17:20:36.694	WT901BLE68-01(48591DE3C19B)	-0.194	-1.146	0.182	16.357	-3.296	-43.823	-74.67	4.09	-119.42	-55.174	-50.862	-19.012	-0.42053	0.26440	-0.55350	0.66840	27.6	13111	100
2025-3-27 17:20:36.723	WT901BLE68-01(48591DE3C19B)	-0.178	-1.146	0.182	16.357	-3.296	-43.823	-74.54	3.71	-119.50	-55.174	-50.862	-19.012	-0.42053	0.26440	-0.55350	0.66840	27.6	13111	100
2025-3-27 17:20:36.723	WT901BLE68-01(48591DE3C19B)	-0.713	-1.405	0.052	1.343	20.996	-48.889	-74.50	3.33	-119.70	-55.174	-50.862	-19.012	-0.42053	0.26440	-0.55350	0.66840	27.6	13111	100
2025-3-27 17:20:36.723	WT901BLE68-01(48591DE3C19B)	-0.249	-5.623	0.208	1.343	20.996	-48.889	-74.55	2.97	-120.01	-55.174	-50.862	-19.012	-0.42053	0.26440	-0.55350	0.66840	27.6	13111	100
2025-3-27 17:20:36.724	WT901BLE68-01(48591DE3C19B)	-0.249	-1.546	0.046	9.460	30.823	-45.898	-74.58	2.61	-120.36	-55.174	-50.862	-19.012	-0.42053	0.26440	-0.55350	0.66840	27.6	13111	100
2025-3-27 17:20:36.754	WT901BLE68-01(48591DE3C19B)	-0.333	-1.546	0.046	9.460	30.823	-45.898	-74.56	2.30	-120.75	-55.174	-50.862	-19.012	-0.42053	0.26440	-0.55350	0.66840	27.6	13111	100
2025-3-27 17:20:36.755	WT901BLE68-01(48591DE3C19B)	-0.333	-1.068	0.266	16.602	20.325	-33.936	-74.50	2.02	-121.06	-55.174	-50.862	-19.012	-0.42053	0.26440	-0.55350	0.66840	27.6	13111	100
2025-3-27 17:20:36.755	WT901BLE68-01(48591DE3C19B)	-0.340	-1.068	0.266	16.602	20.325	-33.936	-74.40	1.80	-121.31	-55.174	-50.862	-19.012	-0.42053	0.26440	-0.55350	0.66840	27.6	13111	100
2025-3-27 17:20:36.755	WT901BLE68-01(48591DE3C19B)	-0.340	-0.768	0.391	-3.784	4.211	-18.616	-74.40	1.63	-121.46	-55.174	-50.862	-19.012	-0.42053	0.26440	-0.55350	0.66840	27.6	13111	100
2025-3-27 17:20:36.814	WT901BLE68-01(48591DE3C19B)	-0.278	-0.768	0.391	-3.784	4.211	-18.616	-74.49	1.52	-121.53	-55.174	-50.862	-19.012	-0.42053	0.26440	-0.55350	0.66840	27.6	13111	100
2025-3-27 17:20:36.814	WT901BLE68-01(48591DE3C19B)	-0.278	-0.775	0.355	-21.240	-20.752	-1.526	-74.66	1.46	-121.46	-55.174	-50.862	-19.012	-0.42053	0.26440	-0.55350	0.66840	27.6	13111	100
2025-3-27 17:20:36.815	WT901BLE68-01(48591DE3C19B)	-0.217	-0.775	0.355	-21.240	-20.752	-1.526	-74.90	1.45	-121.25	-55.174	-50.862	-19.012	-0.42053	0.26440	-0.55350	0.66840	27.6	13111	100
2025-3-27 17:20:36.815	WT901BLE68-01(48591DE3C19B)	-0.217	-0.904	0.296	-30.518	-57.190	18.005	-75.17	1.49	-120.84	-55.174	-50.862	-19.012	-0.42053	0.26440	-0.55350	0.66840	27.6	13111	100
2025-3-27 17:20:36.843	WT901BLE68-01(48591DE3C19B)	0.032	-0.904	0.296	-30.518	-57.190	18.005	-75.49	1.59	-120.25	-55.174	-50.862	-19.012	-0.42053	0.26440	-0.55350	0.66840	27.6	13111	100
2025-3-27 17:20:36.843	WT901BLE68-01(48591DE3C19B)	0.032	-1.000	0.266	-32.471	-83.618	40.649	-75.79	1.76	-119.49	-55.174	-50.862	-19.012	-0.42053	0.26440	-0.55350	0.66840	27.6	13111	100
2025-3-27 17:20:36.843	WT901BLE68-01(48591DE3C19B)	0.258	-1.000	0.266	-32.471	-83.618	40.649	-76.11	2.01	-118.59	-55.174	-50.862	-19.012	-0.42053	0.26440	-0.55350	0.66840	27.6	13111	100
2025-3-27 17:20:36.843	WT901BLE68-01(48591DE3C19B)	0.258	-1.080	0.247	-25.208	-73.853	59.814	-76.37	2.36	-117.71	-63.308	-52.038	-19.698	-0.42053	0.26440	-0.55350	0.66840	27.6	13111	100
2025-3-27 17:20:36.873	WT901BLE68-01(48591DE3C19B)	0.272	-1.080	0.247	-25.208	-73.853	59.814	-76.60	2.80	-116.86	-63.308	-52.038	-19.698	-0.42053	0.26440	-0.55350	0.66840	27.6	13111	100
2025-3-27 17:20:36.873	WT901BLE68-01(48591DE3C19B)	0.272	-1.060	0.178	-12.329	-43.274	74.341	-76.75	3.33	-116.13	-63.308	-52.038	-19.698	-0.42053	0.26440	-0.55350	0.66840	27.6	13111	100
2025-3-27 17:20:36.873	WT901BLE68-01(48591DE3C19B)	0.207	-1.060	0.178	-12.329	-43.274	74.341	-76.84	3.96	-115.54	-63.308	-52.038	-19.698	-0.42053	0.26440	-0.55350	0.66840	27.6	13111	100
2025-3-27 17:20:36.873	WT901BLE68-01(48591DE3C19B)	0.207	-1.054	0.139	-4.272	-16.296	82.092	-76.90	4.64	-115.07	-63.308	-52.038	-19.698	-0.42053	0.26440	-0.55350	0.66840	27.6	13111	100
2025-3-27 17:20:36.933	WT901BLE68-01(48591DE3C19B)	0.130	-1.054	0.139	-4.272	-16.296	82.092	-76.93	5.38	-114.71	-63.308	-52.038	-19.698	-0.42053	0.26440	-0.55350	0.66840	27.6	13111	100
2025-3-27 17:20:36.934	WT901BLE68-01(48591DE3C19B)	0.130	-1.104	0.198	2.197	7.263	92.407	-76.93	6.19	-114.47	-63.308	-52.038	-19.698	-0.42053	0.26440	-0.55350	0.66840	27.6	13111	100
2025-3-27 17:20:36.934	WT901BLE68-01(48591DE3C19B)	0.044	-1.104	0.198	2.197	7.263	92.407	-76.90	7.06	-114.32	-63.308	-52.038	-19.698	-0.42053	0.26440	-0.55350	0.66840	27.6	13111	100
2025-3-27 17:20:36.934	WT901BLE68-01(48591DE3C19B)	0.044	-1.129	0.302	6.287	28.870	107.483	-76.87	8.03	-114.26	-63.308	-52.038	-19.698	-0.42053	0.26440	-0.55350	0.66840	27.6	13111	100
2025-3-27 17:20:36.964	WT901BLE68-01(48591DE3C19B)	0.003	-1.129	0.302	6.287	28.870	107.483	-76.82	9.08	-114.29	-63.308	-52.038	-19.698	-0.42053	0.26440	-0.55350	0.66840	27.6	13111	100
2025-3-27 17:20:36.964	WT901BLE68-01(48591DE3C19B)	0.003	-1.084	0.328	5.066	35.706	119.629	-76.78	10.20	-114.33	-63.308	-52.038	-19.698	-0.42053	0.26440	-0.55350	0.66840	27.6	13111	100
2025-3-27 17:20:36.964	WT901BLE68-01(48591DE3C19B)	-0.011	-1.084	0.328	5.066	35.706	119.629	-76.75	11.37	-114.40	-63.308	-52.038	-19.698	-0.42053	0.26440	-0.55350	0.66840	27.6	13111	100
2025-3-27 17:20:36.964	WT901BLE68-01(48591DE3C19B)	-0.011	-1.016	0.296	-0.549	25.513	129.822	-76.73	12.58	-114.40	-63.308	-52.038	-19.698	-0.42053	0.26440	-0.55350	0.66840	27.6	13111	100
2025-3-27 17:20:37.25	WT901BLE68-01(48591DE3C19B)	-0.044	-1.016	0.296	-0.549	25.513	129.822	-76.72	13.82	-114.33	-63.308	-52.038	-19.698	-0.42053	0.26440	-0.55350	0.66840	27.6	13111	100
2025-3-27 17:20:37.25	WT901BLE68-01(48591DE3C19B)	-0.044	-1.022	0.250	-8.362	10.620	135.742	-76.73	15.06	-114.19	-63.308	-52.038	-19.698	-0.42053	0.26440	-0.55350	0.66840	27.6	13111	100
2025-3-27 17:20:37.25	WT901BLE68-01(48591DE3C19B)	-0.081	-1.022	0.250	-8.362	10.620	135.742	-76.76	16.31	-113.97	-63.308	-52.038	-19.698	-0.42053	0.26440	-0.55350	0.66840	27.6	13111	100
2025-3-27 17:20:37.25	WT901BLE68-01(48591DE3C19B)	-0.081	-1.046	0.220	-11.230	0.244	140.991	-76.78	17.56	-113.68	-63.308	-52.038	-19.698	-0.42053	0.26440	-0.55350	0.66840	27.6	13111	100
2025-3-27 17:20:37.53	WT901BLE68-01(48591DE3C19B)	-0.116	-1.046	0.220	-11.230	0.244	140.991	-76.78	18.83	-113.33	-63.308	-52.038	-19.698	-0.42053	0.26440	-0.55350	0.66840	27.6	13111	100
2025-3-27 17:20:37.54	WT901BLE68-01(48591DE3C19B)	-0.116	-1.030	0.208	-11.536	-9.521	143.982	-76.76	20.09	-112.93	-63.308	-52.038	-19.698	-0.42053	0.26440	-0.55350	0.66840	27.6	13111	100
2025-3-27 17:20:37.54	WT901BLE68-01(48591DE3C19B)	-0.147	-1.030	0.208	-11.536	-9.521	143.982	-76.72	21.35	-112.48	-63.308	-52.038	-19.698	-0.42053	0.26440	-0.55350	0.66840	27.6	13111	100
2025-3-27 17:20:37.54	WT901BLE68-01(48591DE3C19B)	-0.147	-0.974	0.210	-12.634	-24.780	143.250	-76.62	22.57	-111.86	-63.308	-52.038	-19.698	-0.53540	0.21097	-0.59045	0.56573	27.6	13111	100
2025-3-27 17:20:37.84	WT901BLE68-01(48591DE3C19B)	-0.157	-0.974	0.210	-12.634	-24.780	143.250	-76.50	23.78	-111.23	-63.308	-52.038	-19.698	-0.53540	0.21097	-0.59045	0.56573	27.6	13111	100
2025-3-27 17:20:37.84	WT901BLE68-01(48591DE3C19B)	-0.157	-0.932	0.224	-16.174	-41.260	138.611	-76.34	24.90	-110.43	-63.308	-52.038	-19.698	-0.53540	0.21097	-0.59045	0.56573	27.6	13111	100
2025-3-27 17:20:37.84	WT901BLE68-01(48591DE3C19B)	-0.162	-0.932	0.224	-16.174	-41.260	138.611	-76.16	26.02	-109.63	-63.308	-52.038	-19.698	-0.53540	0.21097	-0.59045	0.56573	27.6	13111	100
2025-3-27 17:20:37.84	WT901BLE68-01(48591DE3C19B)	-0.162	-0.948	0.245	-19.897	-55.237	131.958	-75.94	27.03	-108.69	-63.308	-52.038	-19.698	-0.53540	0.21097	-0.59045	0.56573	27.6	13111	100
2025-3-27 17:20:37.143	WT901BLE68-01(48591DE3C19B)	-0.160	-0.948	0.245	-19.897	-55.237	131.958	-75.71	28.04	-107.73	-63.308	-52.038	-19.698	-0.53540	0.21097	-0.59045	0.56573	27.6	13111	100
2025-3-27 17:20:37.143	WT901BLE68-01(48591DE3C19B)	-0.160	-0.968	0.279	-20.630	-64.819	124.146	-75.41	28.94	-106.68	-63.308	-52.038	-19.698	-0.53540	0.21097	-0.59045	0.56573	27.6	13111	100
2025-3-27 17:20:37.143	WT901BLE68-01(48591DE3C19B)	-0.141	-0.968	0.279	-20.630	-64.819	124.146	-75.10	29.83	-105.62	-63.308	-52.038	-19.698	-0.53540	0.21097	-0.59045	0.56573	27.6	13111	100
2025-3-27 17:20:37.144	WT901BLE68-01(48591DE3C19B)	-0.141	-0.997	0.284	-18.433	-68.115	116.150	-74.74	30.62	-104.54	-63.308	-52.038	-19.698	-0.53540	0.21097	-0.59045	0.56573	27.6	13111	100
2025-3-27 17:20:37.172	WT901BLE68-01(48591DE3C19B)	-0.106	-0.997	0.284	-18.433	-68.115	116.150	-74.36	31.41	-103.45	-63.308	-52.038	-19.698	-0.53540	0.21097	-0.59045	0.56573	27.6	13111	100
2025-3-27 17:20:37.173	WT901BLE68-01(48591DE3C19B)	-0.106	-0.944	0.269	-14.404	-64.331	107.422	-73.96	32.11	-102.41	-63.308	-52.038	-19.698	-0.53540	0.21097	-0.59045	0.56573	27.6	13111	100
2025-3-27 17:20:37.173	WT901BLE68-01(48591DE3C19B)	-0.088	-0.944	0.269	-14.404	-64.331	107.422	-73.54	32.81	-101.37	-63.308	-52.038	-19.698	-0.53540	0.21097	-0.59045	0.56573	27.6	13111	100
2025-3-27 17:20:37.173	WT901BLE68-01(48591DE3C19B)	-0.088	-0.895	0.263	-11.963	-55.725	96.008	-73.16	33.41	-100.45	-63.308	-52.038	-19.698	-0.53540	0.21097	-0.59045	0.56573	27.6	13111	100
2025-3-27 17:20:37.202	WT901BLE68-01(48591DE3C19B)	-0.095	-0.895	0.263	-11.963	-55.725	96.008	-72.76	34.00	-99.52	-63.308	-52.038	-19.698	-0.53540	0.21097	-0.59045	0.56573	27.6	13111	100
2025-3-27 17:20:37.202	WT901BLE68-01(48591DE3C19B)	-0.095	-0.862	0.273	-9.277	-46.387	83.191	-72.42	34.49	-98.74	-63.308	-52.038	-19.698	-0.53540	0.21097	-0.59045	0.56573	27.6	13111	100
2025-3-27 17:20:37.202	WT901BLE68-01(48591DE3C19B)	-0.108	-0.862	0.273	-9.277	-46.387	83.191	-72.06	34.96	-97.95	-63.308	-52.038	-19.698	-0.53540	0.21097	-0.59045	0.56573	27.6	13111	100
2025-3-27 17:20:37.202	WT901BLE68-01(48591DE3C19B)	-0.108	-0.834	0.297	-6.348	-39.429	71.411	-71.74	35.35	-97.28	-63.308	-52.038	-19.698	-0.53540	0.21097	-0.59045	0.56573	27.6	13111	100
2025-3-27 17:20:37.263	WT901BLE68-01(48591DE3C19B)	-0.106	-0.834	0.297	-6.348	-39.429	71.411	-71.41	35.73	-96.61	-63.308	-52.038	-19.698	-0.53540	0.21097	-0.59045	0.56573	27.6	13111	100
2025-3-27 17:20:37.263	WT901BLE68-01(48591DE3C19B)	-0.106	-0.788	0.313	-0.183	-33.081	62.317	-71.07	36.04	-96.04	-63.308	-52.038	-19.698	-0.53540	0.21097	-0.59045	0.56573	27.6	13111	100
2025-3-27 17:20:37.264	WT901BLE68-01(48591DE3C19B)	-0.087	-0.788	0.313	-0.183	-33.081	62.317	-70.72	36.34	-95.47	-63.308	-52.038	-19.698	-0.53540	0.21097	-0.59045	0.56573	27.6	13111	100
2025-3-27 17:20:37.264	WT901BLE68-01(48591DE3C19B)	-0.087	-0.692	0.315	5.859	-24.841	55.664	-70.39	36.60	-95.03	-63.308	-52.038	-19.698	-0.53540	0.21097	-0.59045	0.56573	27.6	13111	100
2025-3-27 17:20:37.293	WT901BLE68-01(48591DE3C19B)	-0.066	-0.692	0.315	5.859	-24.841	55.664	-70.05	36.86	-94.57	-88.396	-32.536	-12.544	-0.53540	0.21097	-0.59045	0.56573	27.6	13111	100
2025-3-27 17:20:37.293	WT901BLE68-01(48591DE3C19B)	-0.066	-0.607	0.303	9.521	-12.817	48.950	-69.77	37.10	-94.28	-88.396	-32.536	-12.544	-0.53540	0.21097	-0.59045	0.56573	27.6	13111	100
2025-3-27 17:20:37.293	WT901BLE68-01(48591DE3C19B)	-0.029	-0.607	0.303	9.521	-12.817	48.950	-69.48	37.33	-93.99	-88.396	-32.536	-12.544	-0.53540	0.21097	-0.59045	0.56573	27.6	13111	100
2025-3-27 17:20:37.293	WT901BLE68-01(48591DE3C19B)	-0.029	-0.580	0.268	8.850	4.700	38.879	-69.35	37.52	-93.96	-88.396	-32.536	-12.544	-0.53540	0.21097	-0.59045	0.56573	27.6	13111	100
2025-3-27 17:20:37.324	WT901BLE68-01(48591DE3C19B)	-0.017	-0.580	0.268	8.850	4.700	38.879	-69.22	37.72	-93.91	-88.396	-32.536	-12.544	-0.53540	0.21097	-0.59045	0.56573	27.6	13111	100
2025-3-27 17:20:37.324	WT901BLE68-01(48591DE3C19B)	-0.017	-0.679	0.227	5.249	28.320	19.531	-69.35	37.80	-94.24	-88.396	-32.536	-12.544	-0.53540	0.21097	-0.59045	0.56573	27.6	13111	100
2025-3-27 17:20:37.324	WT901BLE68-01(48591DE3C19B)	-0.102	-0.679	0.227	5.249	28.320	19.531	-69.47	37.89	-94.55	-88.396	-32.536	-12.544	-0.53540	0.21097	-0.59045	0.56573	27.6	13111	100
2025-3-27 17:20:37.325	WT901BLE68-01(48591DE3C19B)	-0.102	-0.830	0.224	6.958	45.654	-6.531	-69.78	37.80	-95.19	-88.396	-32.536	-12.544	-0.53540	0.21097	-0.59045	0.56573	27.6	13111	100
2025-3-27 17:20:37.383	WT901BLE68-01(48591DE3C19B)	-0.174	-0.830	0.224	6.958	45.654	-6.531	-70.08	37.71	-95.82	-88.396	-32.536	-12.544	-0.53540	0.21097	-0.59045	0.56573	27.6	13111	100
2025-3-27 17:20:37.384	WT901BLE68-01(48591DE3C19B)	-0.174	-0.888	0.263	12.573	48.462	-32.349	-70.42	37.38	-96.59	-88.396	-32.536	-12.544	-0.53540	0.21097	-0.59045	0.56573	27.6	13111	100
2025-3-27 17:20:37.384	WT901BLE68-01(48591DE3C19B)	-0.199	-0.888	0.263	12.573	48.462	-32.349	-70.74	37.05	-97.36	-88.396	-32.536	-12.544	-0.53540	0.21097	-0.59045	0.56573	27.6	13111	100
2025-3-27 17:20:37.384	WT901BLE68-01(48591DE3C19B)	-0.199	-0.828	0.285	17.700	49.133	-57.739	-71.07	36.49	-98.22	-88.396	-32.536	-12.544	-0.53540	0.21097	-0.59045	0.56573	27.6	13111	100
2025-3-27 17:20:37.415	WT901BLE68-01(48591DE3C19B)	-0.218	-0.828	0.285	17.700	49.133	-57.739	-71.38	35.93	-99.06	-88.396	-32.536	-12.544	-0.53540	0.21097	-0.59045	0.56573	27.6	13111	100
2025-3-27 17:20:37.415	WT901BLE68-01(48591DE3C19B)	-0.218	-0.794	0.262	19.775	55.115	-84.717	-71.76	35.14	-100.07	-88.396	-32.536	-12.544	-0.53540	0.21097	-0.59045	0.56573	27.6	13111	100
2025-3-27 17:20:37.415	WT901BLE68-01(48591DE3C19B)	-0.263	-0.794	0.262	19.775	55.115	-84.717	-72.11	34.35	-101.06	-88.396	-32.536	-12.544	-0.53540	0.21097	-0.59045	0.56573	27.6	13111	100
2025-3-27 17:20:37.416	WT901BLE68-01(48591DE3C19B)	-0.263	-0.828	0.206	23.132	59.570	-111.816	-72.49	33.32	-102.18	-88.396	-32.536	-12.544	-0.53540	0.21097	-0.59045	0.56573	27.6	13111	100
2025-3-27 17:20:37.445	WT901BLE68-01(48591DE3C19B)	-0.297	-0.828	0.206	23.132	59.570	-111.816	-72.84	32.30	-103.28	-88.396	-32.536	-12.544	-0.53540	0.21097	-0.59045	0.56573	27.6	13111	100
2025-3-27 17:20:37.445	WT901BLE68-01(48591DE3C19B)	-0.297	-0.897	0.161	25.208	52.917	-137.634	-73.15	31.02	-104.36	-88.396	-32.536	-12.544	-0.53540	0.21097	-0.59045	0.56573	27.6	13111	100
2025-3-27 17:20:37.445	WT901BLE68-01(48591DE3C19B)	-0.281	-0.897	0.161	25.208	52.917	-137.634	-73.43	29.75	-105.41	-88.396	-32.536	-12.544	-0.58664	0.18903	-0.58347	0.52872	27.6	13111	100
2025-3-27 17:20:37.446	WT901BLE68-01(48591DE3C19B)	-0.281	-1.004	0.149	26.672	45.593	-159.729	-73.67	28.24	-106.44	-88.396	-32.536	-12.544	-0.58664	0.18903	-0.58347	0.52872	27.6	13111	100
2025-3-27 17:20:37.504	WT901BLE68-01(48591DE3C19B)	-0.311	-1.004	0.149	26.672	45.593	-159.729	-73.87	26.75	-107.44	-88.396	-32.536	-12.544	-0.58664	0.18903	-0.58347	0.52872	27.6	13111	100
2025-3-27 17:20:37.504	WT901BLE68-01(48591DE3C19B)	-0.311	-1.136	0.151	28.137	47.363	-176.392	-74.06	25.11	-108.48	-88.396	-32.536	-12.544	-0.58664	0.18903	-0.58347	0.52872	27.6	13111	100
2025-3-27 17:20:37.504	WT901BLE68-01(48591DE3C19B)	-0.352	-1.136	0.151	28.137	47.363	-176.392	-74.22	23.48	-109.51	-88.396	-32.536	-12.544	-0.58664	0.18903	-0.58347	0.52872	27.6	13111	100
2025-3-27 17:20:37.504	WT901BLE68-01(48591DE3C19B)	-0.358	-1.239	0.142	32.166	56.580	-186.218	-74.36	21.79	-110.63	-88.396	-32.536	-12.544	-0.58664	0.18903	-0.58347	0.52872	27.6	13111	100
2025-3-27 17:20:37.533	WT901BLE68-01(48591DE3C19B)	-0.358	-1.258	0.132	34.973	69.885	-187.622	-74.47	20.12	-111.81	-88.396	-32.536	-12.544	-0.58664	0.18903	-0.58347	0.52872	27.6	13111	100
2025-3-27 17:20:37.533	WT901BLE68-01(48591DE3C19B)	-0.341	-1.258	0.132	34.973	69.885	-187.622	-74.56	18.47	-113.03	-88.396	-32.536	-12.544	-0.58664	0.18903	-0.58347	0.52872	27.6	13111	100
2025-3-27 17:20:37.533	WT901BLE68-01(48591DE3C19B)	-0.341	-1.260	0.131	33.447	85.999	-182.556	-74.64	16.87	-114.31	-88.396	-32.536	-12.544	-0.58664	0.18903	-0.58347	0.52872	27.6	13111	100
2025-3-27 17:20:37.533	WT901BLE68-01(48591DE3C19B)	-0.335	-1.260	0.131	33.447	85.999	-182.556	-74.72	15.33	-115.64	-88.396	-32.536	-12.544	-0.58664	0.18903	-0.58347	0.52872	27.6	13111	100
2025-3-27 17:20:37.564	WT901BLE68-01(48591DE3C19B)	-0.335	-1.252	0.141	32.043	101.868	-171.387	-74.78	13.87	-117.02	-88.396	-32.536	-12.544	-0.58664	0.18903	-0.58347	0.52872	27.6	13111	100
2025-3-27 17:20:37.564	WT901BLE68-01(48591DE3C19B)	-0.364	-1.252	0.141	32.043	101.868	-171.387	-74.83	12.49	-118.44	-88.396	-32.536	-12.544	-0.58664	0.18903	-0.58347	0.52872	27.6	13111	100
2025-3-27 17:20:37.564	WT901BLE68-01(48591DE3C19B)	-0.364	-1.192	0.168	30.396	111.145	-156.311	-74.87	11.20	-119.88	-88.396	-32.536	-12.544	-0.58664	0.18903	-0.58347	0.52872	27.6	13111	100
2025-3-27 17:20:37.564	WT901BLE68-01(48591DE3C19B)	-0.390	-1.192	0.168	30.396	111.145	-156.311	-74.88	10.01	-121.34	-88.396	-32.536	-12.544	-0.58664	0.18903	-0.58347	0.52872	27.6	13111	100
2025-3-27 17:20:37.626	WT901BLE68-01(48591DE3C19B)	-0.390	-1.147	0.185	25.208	111.267	-141.052	-74.88	8.89	-122.77	-88.396	-32.536	-12.544	-0.58664	0.18903	-0.58347	0.52872	27.6	13111	100
2025-3-27 17:20:37.626	WT901BLE68-01(48591DE3C19B)	-0.417	-1.147	0.185	25.208	111.267	-141.052	-74.89	7.87	-124.16	-88.396	-32.536	-12.544	-0.58664	0.18903	-0.58347	0.52872	27.6	13111	100
2025-3-27 17:20:37.626	WT901BLE68-01(48591DE3C19B)	-0.417	-1.130	0.175	21.851	105.713	-125.916	-74.88	6.91	-125.51	-88.396	-32.536	-12.544	-0.58664	0.18903	-0.58347	0.52872	27.6	13111	100
2025-3-27 17:20:37.626	WT901BLE68-01(48591DE3C19B)	-0.464	-1.130	0.175	21.851	105.713	-125.916	-74.85	6.03	-126.80	-88.396	-32.536	-12.544	-0.58664	0.18903	-0.58347	0.52872	27.6	13111	100
2025-3-27 17:20:37.662	WT901BLE68-01(48591DE3C19B)	-0.464	-1.135	0.145	20.691	92.773	-111.572	-74.81	5.20	-128.02	-88.396	-32.536	-12.544	-0.58664	0.18903	-0.58347	0.52872	27.6	13111	100
2025-3-27 17:20:37.662	WT901BLE68-01(48591DE3C19B)	-0.479	-1.135	0.145	20.691	92.773	-111.572	-74.75	4.44	-129.14	-88.396	-32.536	-12.544	-0.58664	0.18903	-0.58347	0.52872	27.6	13111	100
2025-3-27 17:20:37.662	WT901BLE68-01(48591DE3C19B)	-0.479	-1.158	0.083	21.484	76.721	-99.060	-74.66	3.73	-130.18	-88.396	-32.536	-12.544	-0.58664	0.18903	-0.58347	0.52872	27.6	13111	100
2025-3-27 17:20:37.662	WT901BLE68-01(48591DE3C19B)	-0.485	-1.158	0.083	21.484	76.721	-99.060	-74.56	3.07	-131.11	-60.074	-49.882	-19.012	-0.58664	0.18903	-0.58347	0.52872	27.6	13111	100
2025-3-27 17:20:37.686	WT901BLE68-01(48591DE3C19B)	-0.485	-1.139	0.029	26.062	61.523	-87.158	-74.42	2.44	-131.96	-60.074	-49.882	-19.012	-0.58664	0.18903	-0.58347	0.52872	27.6	13111	100
2025-3-27 17:20:37.686	WT901BLE68-01(48591DE3C19B)	-0.472	-1.139	0.029	26.062	61.523	-87.158	-74.25	1.87	-132.72	-60.074	-49.882	-19.012	-0.58664	0.18903	-0.58347	0.52872	27.6	13111	100
2025-3-27 17:20:37.686	WT901BLE68-01(48591DE3C19B)	-0.472	-1.089	0.000	27.588	47.241	-77.393	-74.07	1.32	-133.40	-60.074	-49.882	-19.012	-0.58664	0.18903	-0.58347	0.52872	27.6	13111	100
2025-3-27 17:20:37.686	WT901BLE68-01(48591DE3C19B)	-0.450	-1.089	0.000	27.588	47.241	-77.393	-73.88	0.82	-133.99	-60.074	-49.882	-19.012	-0.58664	0.18903	-0.58347	0.52872	27.6	13111	100
2025-3-27 17:20:37.743	WT901BLE68-01(48591DE3C19B)	-0.450	-1.072	0.007	26.245	34.729	-68.787	-73.69	0.34	-134.51	-60.074	-49.882	-19.012	-0.58664	0.18903	-0.58347	0.52872	27.6	13111	100
2025-3-27 17:20:37.744	WT901BLE68-01(48591DE3C19B)	-0.433	-1.072	0.007	26.245	34.729	-68.787	-73.51	-0.10	-134.97	-60.074	-49.882	-19.012	-0.58664	0.18903	-0.58347	0.52872	27.6	13111	100
2025-3-27 17:20:37.744	WT901BLE68-01(48591DE3C19B)	-0.433	-1.049	0.043	24.109	23.743	-60.608	-73.34	-0.52	-135.35	-60.074	-49.882	-19.012	-0.58664	0.18903	-0.58347	0.52872	27.6	13111	100
2025-3-27 17:20:37.744	WT901BLE68-01(48591DE3C19B)	-0.417	-1.049	0.043	24.109	23.743	-60.608	-73.18	-0.91	-135.68	-60.074	-49.882	-19.012	-0.58664	0.18903	-0.58347	0.52872	27.6	13111	100
2025-3-27 17:20:37.772	WT901BLE68-01(48591DE3C19B)	-0.417	-1.015	0.077	20.142	13.794	-54.810	-73.04	-1.28	-135.95	-60.074	-49.882	-19.012	-0.58664	0.18903	-0.58347	0.52872	27.6	13111	100
2025-3-27 17:20:37.773	WT901BLE68-01(48591DE3C19B)	-0.415	-1.015	0.077	20.142	13.794	-54.810	-72.92	-1.64	-136.17	-60.074	-49.882	-19.012	-0.58664	0.18903	-0.58347	0.52872	27.6	13111	100
2025-3-27 17:20:37.773	WT901BLE68-01(48591DE3C19B)	-0.415	-0.966	0.102	16.846	4.517	-50.293	-72.81	-1.98	-136.34	-60.074	-49.882	-19.012	-0.58664	0.18903	-0.58347	0.52872	27.6	13111	100
2025-3-27 17:20:37.773	WT901BLE68-01(48591DE3C19B)	-0.435	-0.966	0.102	16.846	4.517	-50.293	-72.72	-2.32	-136.46	-60.074	-49.882	-19.012	-0.58664	0.18903	-0.58347	0.52872	27.6	13111	100
2025-3-27 17:20:37.803	WT901BLE68-01(48591DE3C19B)	-0.435	-0.896	0.108	12.756	-6.714	-47.241	-72.66	-2.65	-136.53	-60.074	-49.882	-19.012	-0.58664	0.18903	-0.58347	0.52872	27.6	13111	100
2025-3-27 17:20:37.804	WT901BLE68-01(48591DE3C19B)	-0.439	-0.896	0.108	12.756	-6.714	-47.241	-72.61	-2.98	-136.55	-60.074	-49.882	-19.012	-0.58664	0.18903	-0.58347	0.52872	27.6	13111	100
2025-3-27 17:20:37.804	WT901BLE68-01(48591DE3C19B)	-0.439	-0.861	0.108	7.507	-22.217	-45.349	-72.59	-3.31	-136.49	-60.074	-49.882	-19.012	-0.58664	0.18903	-0.58347	0.52872	27.6	13111	100
2025-3-27 17:20:37.804	WT901BLE68-01(48591DE3C19B)	-0.432	-0.861	0.108	7.507	-22.217	-45.349	-72.60	-3.66	-136.36	-60.074	-49.882	-19.012	-0.58664	0.18903	-0.58347	0.52872	27.6	13111	100
2025-3-27 17:20:37.863	WT901BLE68-01(48591DE3C19B)	-0.432	-0.885	0.104	3.357	-41.260	-43.335	-72.64	-4.02	-136.14	-60.074	-49.882	-19.012	-0.58664	0.18903	-0.58347	0.52872	27.6	13111	100
2025-3-27 17:20:37.863	WT901BLE68-01(48591DE3C19B)	-0.410	-0.885	0.104	3.357	-41.260	-43.335	-72.70	-4.40	-135.83	-60.074	-49.882	-19.012	-0.58664	0.18903	-0.58347	0.52872	27.6	13111	100
2025-3-27 17:20:37.863	WT901BLE68-01(48591DE3C19B)	-0.410	-0.933	0.106	0.916	-58.350	-41.260	-72.78	-4.78	-135.44	-60.074	-49.882	-19.012	-0.58664	0.18903	-0.58347	0.52872	27.6	13111	100
2025-3-27 17:20:37.863	WT901BLE68-01(48591DE3C19B)	-0.377	-0.933	0.106	0.916	-58.350	-41.260	-72.89	-5.19	-134.97	-60.074	-49.882	-19.012	-0.58664	0.18903	-0.58347	0.52872	27.6	13111	100
2025-3-27 17:20:37.893	WT901BLE68-01(48591DE3C19B)	-0.377	-1.049	0.151	-1.587	-68.115	-39.795	-73.01	-5.59	-134.45	-60.074	-49.882	-19.012	-0.28403	0.26617	-0.53265	0.75143	27.6	13111	100
2025-3-27 17:20:37.893	WT901BLE68-01(48591DE3C19B)	-0.358	-1.049	0.151	-1.587	-68.115	-39.795	-73.15	-6.00	-133.87	-60.074	-49.882	-19.012	-0.28403	0.26617	-0.53265	0.75143	27.6	13111	100
2025-3-27 17:20:37.893	WT901BLE68-01(48591DE3C19B)	-0.358	-1.208	0.193	2.869	-72.021	-36.377	-73.27	-6.39	-133.26	-60.074	-49.882	-19.012	-0.28403	0.26617	-0.53265	0.75143	27.6	13111	100
2025-3-27 17:20:37.893	WT901BLE68-01(48591DE3C19B)	-0.287	-1.208	0.193	2.869	-72.021	-36.377	-73.38	-6.78	-132.64	-60.074	-49.882	-19.012	-0.28403	0.26617	-0.53265	0.75143	27.6	13111	100
2025-3-27 17:20:37.924	WT901BLE68-01(48591DE3C19B)	-0.287	-1.235	0.208	10.559	-63.965	-32.654	-73.44	-7.15	-132.04	-60.074	-49.882	-19.012	-0.28403	0.26617	-0.53265	0.75143	27.6	13111	100
2025-3-27 17:20:37.924	WT901BLE68-01(48591DE3C19B)	-0.204	-1.235	0.208	10.559	-63.965	-32.654	-73.47	-7.48	-131.47	-60.074	-49.882	-19.012	-0.28403	0.26617	-0.53265	0.75143	27.6	13111	100
2025-3-27 17:20:37.924	WT901BLE68-01(48591DE3C19B)	-0.204	-1.170	0.218	15.198	-41.321	-30.273	-73.45	-7.77	-131.01	-60.074	-49.882	-19.012	-0.28403	0.26617	-0.53265	0.75143	27.6	13111	100
2025-3-27 17:20:37.924	WT901BLE68-01(48591DE3C19B)	-0.190	-1.170	0.218	15.198	-41.321	-30.273	-73.41	-8.03	-130.64	-60.074	-49.882	-19.012	-0.28403	0.26617	-0.53265	0.75143	27.6	13111	100
2025-3-27 17:20:37.984	WT901BLE68-01(48591DE3C19B)	-0.190	-1.087	0.252	18.250	-16.418	-29.297	-73.33	-8.25	-130.40	-60.074	-49.882	-19.012	-0.28403	0.26617	-0.53265	0.75143	27.6	13111	100
2025-3-27 17:20:37.984	WT901BLE68-01(48591DE3C19B)	-0.243	-1.087	0.252	18.250	-16.418	-29.297	-73.22	-8.43	-130.28	-60.074	-49.882	-19.012	-0.28403	0.26617	-0.53265	0.75143	27.6	13111	100
2025-3-27 17:20:37.984	WT901BLE68-01(48591DE3C19B)	-0.243	-0.988	0.274	18.433	-5.066	-27.954	-73.09	-8.59	-130.20	-60.074	-49.882	-19.012	-0.28403	0.26617	-0.53265	0.75143	27.6	13111	100
2025-3-27 17:20:37.984	WT901BLE68-01(48591DE3C19B)	-0.211	-0.988	0.274	18.433	-5.066	-27.954	-72.95	-8.73	-130.18	-60.074	-49.882	-19.012	-0.28403	0.26617	-0.53265	0.75143	27.6	13111	100
2025-3-27 17:20:38.13	WT901BLE68-01(48591DE3C19B)	-0.211	-0.915	0.272	17.334	-1.404	-24.902	-72.82	-8.83	-130.19	-60.074	-49.882	-19.012	-0.28403	0.26617	-0.53265	0.75143	27.6	13111	100
2025-3-27 17:20:38.13	WT901BLE68-01(48591DE3C19B)	-0.208	-0.915	0.272	17.334	-1.404	-24.902	-72.69	-8.93	-130.19	-60.074	-49.882	-19.012	-0.28403	0.26617	-0.53265	0.75143	27.6	13111	100
2025-3-27 17:20:38.13	WT901BLE68-01(48591DE3C19B)	-0.208	-0.944	0.262	10.864	0.183	-18.494	-72.62	-8.96	-130.20	-60.074	-49.882	-19.012	-0.28403	0.26617	-0.53265	0.75143	27.6	13111	100
2025-3-27 17:20:38.14	WT901BLE68-01(48591DE3C19B)	-0.215	-0.944	0.262	10.864	0.183	-18.494	-72.54	-9.00	-130.20	-60.074	-49.882	-19.012	-0.28403	0.26617	-0.53265	0.75143	27.6	13111	100
2025-3-27 17:20:38.46	WT901BLE68-01(48591DE3C19B)	-0.215	-1.203	0.157	-3.113	-6.897	-16.479	-72.63	-9.04	-130.13	-60.074	-49.882	-19.012	-0.28403	0.26617	-0.53265	0.75143	27.6	13111	100
2025-3-27 17:20:38.46	WT901BLE68-01(48591DE3C19B)	-0.246	-1.203	0.157	-3.113	-6.897	-16.479	-72.71	-9.08	-130.06	-60.074	-49.882	-19.012	-0.28403	0.26617	-0.53265	0.75143	27.6	13111	100
2025-3-27 17:20:38.46	WT901BLE68-01(48591DE3C19B)	-0.246	-1.602	0.089	-13.855	-19.592	-14.221	-72.93	-9.15	-129.84	-60.074	-49.882	-19.012	-0.28403	0.26617	-0.53265	0.75143	27.6	13111	100
2025-3-27 17:20:38.46	WT901BLE68-01(48591DE3C19B)	-0.395	-1.602	0.089	-13.855	-19.592	-14.221	-73.15	-9.22	-129.61	-60.074	-49.882	-19.012	-0.28403	0.26617	-0.53265	0.75143	27.6	13111	100
2025-3-27 17:20:38.104	WT901BLE68-01(48591DE3C19B)	-0.395	-1.614	0.171	0.488	-40.955	-1.099	-73.27	-9.22	-129.13	-60.074	-49.882	-19.012	-0.28403	0.26617	-0.53265	0.75143	27.6	13111	100
2025-3-27 17:20:38.104	WT901BLE68-01(48591DE3C19B)	-0.482	-1.614	0.171	0.488	-40.955	-1.099	-73.39	-9.22	-128.65	-53.508	-53.606	-12.544	-0.28403	0.26617	-0.53265	0.75143	27.6	13111	100
2025-3-27 17:20:38.104	WT901BLE68-01(48591DE3C19B)	-0.482	-1.034	0.376	-1.038	-100.220	20.813	-73.62	-9.17	-127.55	-53.508	-53.606	-12.544	-0.28403	0.26617	-0.53265	0.75143	27.6	13111	100
2025-3-27 17:20:38.104	WT901BLE68-01(48591DE3C19B)	-0.470	-1.034	0.376	-1.038	-100.220	20.813	-73.85	-9.12	-126.45	-53.508	-53.606	-12.544	-0.28403	0.26617	-0.53265	0.75143	27.6	13111	100
2025-3-27 17:20:38.132	WT901BLE68-01(48591DE3C19B)	-0.470	-0.524	0.525	-18.127	-174.561	64.331	-74.36	-8.83	-124.53	-53.508	-53.606	-12.544	-0.28403	0.26617	-0.53265	0.75143	27.6	13111	100
2025-3-27 17:20:38.133	WT901BLE68-01(48591DE3C19B)	-0.231	-0.524	0.525	-18.127	-174.561	64.331	-74.84	-8.53	-122.64	-53.508	-53.606	-12.544	-0.28403	0.26617	-0.53265	0.75143	27.6	13111	100
2025-3-27 17:20:38.133	WT901BLE68-01(48591DE3C19B)	-0.231	-0.446	0.447	-51.025	-234.314	109.741	-75.71	-7.90	-120.08	-53.508	-53.606	-12.544	-0.28403	0.26617	-0.53265	0.75143	27.6	13111	100
2025-3-27 17:20:38.133	WT901BLE68-01(48591DE3C19B)	0.214	-0.446	0.447	-51.025	-234.314	109.741	-76.53	-7.25	-117.55	-53.508	-53.606	-12.544	-0.28403	0.26617	-0.53265	0.75143	27.6	13111	100
2025-3-27 17:20:38.164	WT901BLE68-01(48591DE3C19B)	0.214	-0.749	0.174	-58.533	-247.498	137.634	-77.41	-6.33	-114.83	-53.508	-53.606	-12.544	-0.28403	0.26617	-0.53265	0.75143	27.6	13111	100
2025-3-27 17:20:38.164	WT901BLE68-01(48591DE3C19B)	0.529	-0.749	0.174	-58.533	-247.498	137.634	-78.24	-5.39	-112.14	-53.508	-53.606	-12.544	-0.28403	0.26617	-0.53265	0.75143	27.6	13111	100
2025-3-27 17:20:38.164	WT901BLE68-01(48591DE3C19B)	0.529	-0.891	0.005	-29.724	-186.768	160.034	-78.69	-4.11	-110.01	-53.508	-53.606	-12.544	-0.28403	0.26617	-0.53265	0.75143	27.6	13111	100
2025-3-27 17:20:38.164	WT901BLE68-01(48591DE3C19B)	0.332	-0.891	0.005	-29.724	-186.768	160.034	-79.10	-2.85	-107.87	-53.508	-53.606	-12.544	-0.28403	0.26617	-0.53265	0.75143	27.6	13111	100
2025-3-27 17:20:38.226	WT901BLE68-01(48591DE3C19B)	0.332	-0.893	0.058	5.066	-51.880	162.720	-79.06	-1.31	-107.06	-53.508	-53.606	-12.544	-0.28403	0.26617	-0.53265	0.75143	27.6	13111	100
2025-3-27 17:20:38.226	WT901BLE68-01(48591DE3C19B)	0.118	-0.893	0.058	5.066	-51.880	162.720	-79.01	0.19	-106.24	-53.508	-53.606	-12.544	-0.28403	0.26617	-0.53265	0.75143	27.6	13111	100
2025-3-27 17:20:38.226	WT901BLE68-01(48591DE3C19B)	0.118	-1.029	0.048	10.376	-8.606	149.353	-78.89	1.63	-105.86	-53.508	-53.606	-12.544	-0.28403	0.26617	-0.53265	0.75143	27.6	13111	100
2025-3-27 17:20:38.226	WT901BLE68-01(48591DE3C19B)	0.072	-1.029	0.048	10.376	-8.606	149.353	-78.78	3.06	-105.48	-53.508	-53.606	-12.544	-0.28403	0.26617	-0.53265	0.75143	27.6	13111	100
2025-3-27 17:20:38.262	WT901BLE68-01(48591DE3C19B)	0.072	-1.146	0.090	24.048	-21.729	150.574	-78.51	4.46	-104.96	-53.508	-53.606	-12.544	-0.28403	0.26617	-0.53265	0.75143	27.6	13111	100
2025-3-27 17:20:38.262	WT901BLE68-01(48591DE3C19B)	0.071	-1.146	0.090	24.048	-21.729	150.574	-78.24	5.85	-104.43	-53.508	-53.606	-12.544	-0.28403	0.26617	-0.53265	0.75143	27.6	13111	100
2025-3-27 17:20:38.262	WT901BLE68-01(48591DE3C19B)	0.071	-1.089	0.163	39.307	-32.837	152.100	-77.79	7.22	-103.77	-53.508	-53.606	-12.544	-0.28403	0.26617	-0.53265	0.75143	27.6	13111	100
2025-3-27 17:20:38.262	WT901BLE68-01(48591DE3C19B)	-0.031	-1.089	0.163	39.307	-32.837	152.100	-77.33	8.57	-103.11	-53.508	-53.606	-12.544	-0.52066	0.34164	-0.52423	0.58075	27.6	13111	100
2025-3-27 17:20:38.286	WT901BLE68-01(48591DE3C19B)	-0.031	-1.077	0.279	39.612	-45.654	156.555	-76.83	9.93	-102.30	-53.508	-53.606	-12.544	-0.52066	0.34164	-0.52423	0.58075	27.6	13111	100
2025-3-27 17:20:38.286	WT901BLE68-01(48591DE3C19B)	-0.212	-1.077	0.279	39.612	-45.654	156.555	-76.30	11.27	-101.48	-53.508	-53.606	-12.544	-0.52066	0.34164	-0.52423	0.58075	27.6	13111	100
2025-3-27 17:20:38.286	WT901BLE68-01(48591DE3C19B)	-0.212	-1.362	0.294	32.959	-53.833	157.227	-75.80	12.59	-100.56	-53.508	-53.606	-12.544	-0.52066	0.34164	-0.52423	0.58075	27.6	13111	100
2025-3-27 17:20:38.286	WT901BLE68-01(48591DE3C19B)	-0.140	-1.362	0.294	32.959	-53.833	157.227	-75.28	13.90	-99.64	-53.508	-53.606	-12.544	-0.52066	0.34164	-0.52423	0.58075	27.6	13111	100
2025-3-27 17:20:38.343	WT901BLE68-01(48591DE3C19B)	-0.140	-1.496	0.255	45.227	-59.998	164.368	-74.60	15.25	-98.61	-53.508	-53.606	-12.544	-0.52066	0.34164	-0.52423	0.58075	27.6	13111	100
2025-3-27 17:20:38.344	WT901BLE68-01(48591DE3C19B)	0.002	-1.496	0.255	45.227	-59.998	164.368	-73.89	16.59	-97.56	-53.508	-53.606	-12.544	-0.52066	0.34164	-0.52423	0.58075	27.6	13111	100
2025-3-27 17:20:38.344	WT901BLE68-01(48591DE3C19B)	0.002	-1.344	0.235	48.340	-51.270	173.096	-73.14	18.01	-96.56	-53.508	-53.606	-12.544	-0.52066	0.34164	-0.52423	0.58075	27.6	13111	100
2025-3-27 17:20:38.344	WT901BLE68-01(48591DE3C19B)	0.006	-1.344	0.235	48.340	-51.270	173.096	-72.37	19.41	-95.54	-53.508	-53.606	-12.544	-0.52066	0.34164	-0.52423	0.58075	27.6	13111	100
2025-3-27 17:20:38.373	WT901BLE68-01(48591DE3C19B)	0.006	-1.213	0.222	40.039	-32.227	179.016	-71.71	20.90	-94.66	-53.508	-53.606	-12.544	-0.52066	0.34164	-0.52423	0.58075	27.6	13111	100
2025-3-27 17:20:38.374	WT901BLE68-01(48591DE3C19B)	-0.049	-1.213	0.222	40.039	-32.227	179.016	-71.02	22.37	-93.76	-53.508	-53.606	-12.544	-0.52066	0.34164	-0.52423	0.58075	27.6	13111	100
2025-3-27 17:20:38.374	WT901BLE68-01(48591DE3C19B)	-0.049	-1.190	0.259	30.579	-17.700	185.608	-70.44	23.94	-92.96	-53.508	-53.606	-12.544	-0.52066	0.34164	-0.52423	0.58075	27.6	13111	100
2025-3-27 17:20:38.374	WT901BLE68-01(48591DE3C19B)	-0.075	-1.190	0.259	30.579	-17.700	185.608	-69.84	25.48	-92.14	-53.508	-53.606	-12.544	-0.52066	0.34164	-0.52423	0.58075	27.6	13111	100
2025-3-27 17:20:38.494	WT901BLE68-01(48591DE3C19B)	-0.075	-1.186	0.281	24.170	-4.700	188.171	-69.32	27.09	-91.42	-53.508	-53.606	-12.544	-0.52066	0.34164	-0.52423	0.58075	27.6	13111	100
2025-3-27 17:20:38.494	WT901BLE68-01(48591DE3C19B)	-0.122	-1.186	0.281	24.170	-4.700	188.171	-68.78	28.67	-90.68	-53.508	-53.606	-12.544	-0.52066	0.34164	-0.52423	0.58075	27.6	13111	100
2025-3-27 17:20:38.494	WT901BLE68-01(48591DE3C19B)	-0.122	-1.196	0.258	16.907	5.432	185.913	-68.34	30.27	-90.03	-53.508	-53.606	-12.544	-0.52066	0.34164	-0.52423	0.58075	27.6	13111	100
2025-3-27 17:20:38.494	WT901BLE68-01(48591DE3C19B)	-0.171	-1.196	0.258	16.907	5.432	185.913	-67.87	31.84	-89.36	-53.508	-53.606	-12.544	-0.52066	0.34164	-0.52423	0.58075	27.6	13111	100
2025-3-27 17:20:38.496	WT901BLE68-01(48591DE3C19B)	-0.191	-1.245	0.249	10.925	8.789	178.162	-67.47	33.35	-88.74	-53.508	-53.606	-12.544	-0.52066	0.34164	-0.52423	0.58075	27.6	13111	100
2025-3-27 17:20:38.496	WT901BLE68-01(48591DE3C19B)	-0.191	-1.324	0.180	11.963	15.259	170.898	-67.08	34.83	-88.15	-53.508	-53.606	-12.544	-0.52066	0.34164	-0.52423	0.58075	27.6	13111	100
2025-3-27 17:20:38.496	WT901BLE68-01(48591DE3C19B)	-0.229	-1.324	0.180	11.963	15.259	170.898	-66.68	36.28	-87.60	-53.508	-53.606	-12.544	-0.52066	0.34164	-0.52423	0.58075	27.6	13111	100
2025-3-27 17:20:38.496	WT901BLE68-01(48591DE3C19B)	-0.229	-1.170	0.152	21.790	20.996	160.706	-66.25	37.69	-87.08	-82.222	-39.788	-4.410	-0.52066	0.34164	-0.52423	0.58075	27.6	13111	100
2025-3-27 17:20:38.496	WT901BLE68-01(48591DE3C19B)	-0.151	-1.170	0.152	21.790	20.996	160.706	-65.80	39.06	-86.61	-82.222	-39.788	-4.410	-0.52066	0.34164	-0.52423	0.58075	27.6	13111	100
2025-3-27 17:20:38.497	WT901BLE68-01(48591DE3C19B)	-0.151	-1.001	0.132	20.081	12.939	146.301	-65.32	40.33	-86.10	-82.222	-39.788	-4.410	-0.52066	0.34164	-0.52423	0.58075	27.6	13111	100
2025-3-27 17:20:38.497	WT901BLE68-01(48591DE3C19B)	-0.069	-1.001	0.132	20.081	12.939	146.301	-64.82	41.51	-85.57	-82.222	-39.788	-4.410	-0.52066	0.34164	-0.52423	0.58075	27.6	13111	100
2025-3-27 17:20:38.497	WT901BLE68-01(48591DE3C19B)	-0.069	-0.908	0.141	17.029	7.080	131.042	-64.33	42.60	-85.02	-82.222	-39.788	-4.410	-0.52066	0.34164	-0.52423	0.58075	27.6	13111	100
2025-3-27 17:20:38.553	WT901BLE68-01(48591DE3C19B)	-0.052	-0.908	0.141	17.029	7.080	131.042	-63.84	43.60	-84.46	-82.222	-39.788	-4.410	-0.52066	0.34164	-0.52423	0.58075	27.6	13111	100
2025-3-27 17:20:38.553	WT901BLE68-01(48591DE3C19B)	-0.052	-0.816	0.178	13.733	5.310	115.723	-63.37	44.53	-83.92	-82.222	-39.788	-4.410	-0.52066	0.34164	-0.52423	0.58075	27.6	13111	100
2025-3-27 17:20:38.553	WT901BLE68-01(48591DE3C19B)	-0.074	-0.816	0.178	13.733	5.310	115.723	-62.93	45.36	-83.41	-82.222	-39.788	-4.410	-0.52066	0.34164	-0.52423	0.58075	27.6	13111	100
2025-3-27 17:20:38.553	WT901BLE68-01(48591DE3C19B)	-0.074	-0.742	0.222	6.775	3.601	98.389	-62.54	46.12	-82.92	-82.222	-39.788	-4.410	-0.52066	0.34164	-0.52423	0.58075	27.6	13111	100
2025-3-27 17:20:38.583	WT901BLE68-01(48591DE3C19B)	-0.074	-0.742	0.222	6.775	3.601	98.389	-62.20	46.77	-82.49	-82.222	-39.788	-4.410	-0.52066	0.34164	-0.52423	0.58075	27.6	13111	100
2025-3-27 17:20:38.583	WT901BLE68-01(48591DE3C19B)	-0.074	-0.689	0.250	1.038	3.906	77.698	-61.94	47.35	-82.11	-82.222	-39.788	-4.410	-0.52066	0.34164	-0.52423	0.58075	27.6	13111	100
2025-3-27 17:20:38.583	WT901BLE68-01(48591DE3C19B)	-0.060	-0.689	0.250	1.038	3.906	77.698	-61.75	47.82	-81.79	-82.222	-39.788	-4.410	-0.52066	0.34164	-0.52423	0.58075	27.6	13111	100
2025-3-27 17:20:38.583	WT901BLE68-01(48591DE3C19B)	-0.060	-0.626	0.272	-3.662	6.775	54.077	-61.65	48.19	-81.58	-82.222	-39.788	-4.410	-0.52066	0.34164	-0.52423	0.58075	27.6	13111	100
2025-3-27 17:20:38.613	WT901BLE68-01(48591DE3C19B)	-0.073	-0.626	0.272	-3.662	6.775	54.077	-61.64	48.46	-81.48	-82.222	-39.788	-4.410	-0.52066	0.34164	-0.52423	0.58075	27.6	13111	100
2025-3-27 17:20:38.613	WT901BLE68-01(48591DE3C19B)	-0.073	-0.581	0.288	-8.240	9.766	28.076	-61.74	48.63	-81.49	-82.222	-39.788	-4.410	-0.52066	0.34164	-0.52423	0.58075	27.6	13111	100
2025-3-27 17:20:38.613	WT901BLE68-01(48591DE3C19B)	-0.101	-0.581	0.288	-8.240	9.766	28.076	-61.94	48.68	-81.61	-82.222	-39.788	-4.410	-0.52066	0.34164	-0.52423	0.58075	27.6	13111	100
2025-3-27 17:20:38.614	WT901BLE68-01(48591DE3C19B)	-0.101	-0.555	0.293	-12.268	11.414	0.732	-62.23	48.62	-81.83	-82.222	-39.788	-4.410	-0.52066	0.34164	-0.52423	0.58075	27.6	13111	100
2025-3-27 17:20:38.674	WT901BLE68-01(48591DE3C19B)	-0.144	-0.555	0.293	-12.268	11.414	0.732	-62.61	48.44	-82.16	-82.222	-39.788	-4.410	-0.52066	0.34164	-0.52423	0.58075	27.6	13111	100
2025-3-27 17:20:38.674	WT901BLE68-01(48591DE3C19B)	-0.144	-0.561	0.292	-14.709	12.146	-26.123	-63.06	48.15	-82.58	-82.222	-39.788	-4.410	-0.52066	0.34164	-0.52423	0.58075	27.6	13111	100
2025-3-27 17:20:38.674	WT901BLE68-01(48591DE3C19B)	-0.177	-0.561	0.292	-14.709	12.146	-26.123	-63.58	47.74	-83.09	-82.222	-39.788	-4.410	-0.52066	0.34164	-0.52423	0.58075	27.6	13111	100
2025-3-27 17:20:38.674	WT901BLE68-01(48591DE3C19B)	-0.177	-0.575	0.292	-13.855	10.559	-50.232	-64.13	47.22	-83.66	-82.222	-39.788	-4.410	-0.52066	0.34164	-0.52423	0.58075	27.6	13111	100
2025-3-27 17:20:38.703	WT901BLE68-01(48591DE3C19B)	-0.183	-0.575	0.292	-13.855	10.559	-50.232	-64.70	46.59	-84.27	-82.222	-39.788	-4.410	-0.71582	0.14236	-0.57751	0.36563	27.6	13111	100
2025-3-27 17:20:38.703	WT901BLE68-01(48591DE3C19B)	-0.183	-0.578	0.302	-10.742	7.629	-71.106	-65.26	45.87	-84.90	-82.222	-39.788	-4.410	-0.71582	0.14236	-0.57751	0.36563	27.6	13111	100
2025-3-27 17:20:38.703	WT901BLE68-01(48591DE3C19B)	-0.165	-0.578	0.302	-10.742	7.629	-71.106	-65.81	45.04	-85.56	-82.222	-39.788	-4.410	-0.71582	0.14236	-0.57751	0.36563	27.6	13111	100
2025-3-27 17:20:38.703	WT901BLE68-01(48591DE3C19B)	-0.165	-0.593	0.299	-6.836	4.395	-90.393	-66.34	44.13	-86.23	-82.222	-39.788	-4.410	-0.71582	0.14236	-0.57751	0.36563	27.6	13111	100
2025-3-27 17:20:38.763	WT901BLE68-01(48591DE3C19B)	-0.137	-0.593	0.299	-6.836	4.395	-90.393	-66.84	43.12	-86.91	-82.222	-39.788	-4.410	-0.71582	0.14236	-0.57751	0.36563	27.6	13111	100
2025-3-27 17:20:38.763	WT901BLE68-01(48591DE3C19B)	-0.137	-0.683	0.303	-2.502	-3.906	-108.276	-67.28	42.02	-87.55	-82.222	-39.788	-4.410	-0.71582	0.14236	-0.57751	0.36563	27.6	13111	100
2025-3-27 17:20:38.763	WT901BLE68-01(48591DE3C19B)	-0.070	-0.683	0.303	-2.502	-3.906	-108.276	-67.67	40.83	-88.17	-82.222	-39.788	-4.410	-0.71582	0.14236	-0.57751	0.36563	27.6	13111	100
2025-3-27 17:20:38.763	WT901BLE68-01(48591DE3C19B)	-0.035	-0.853	0.278	7.507	1.343	-124.084	-68.03	39.57	-88.83	-82.222	-39.788	-4.410	-0.71582	0.14236	-0.57751	0.36563	27.6	13111	100
2025-3-27 17:20:38.794	WT901BLE68-01(48591DE3C19B)	0.026	-0.426	0.139	7.507	1.343	-124.084	-68.37	38.25	-89.54	-82.222	-39.788	-4.410	-0.71582	0.14236	-0.57751	0.36563	27.6	13111	100
2025-3-27 17:20:38.794	WT901BLE68-01(48591DE3C19B)	0.026	-1.025	0.217	19.348	32.837	-148.132	-68.76	36.88	-90.46	-82.222	-39.788	-4.410	-0.71582	0.14236	-0.57751	0.36563	27.6	13111	100
2025-3-27 17:20:38.794	WT901BLE68-01(48591DE3C19B)	0.070	-1.025	0.217	19.348	32.837	-148.132	-69.21	35.45	-91.58	-82.222	-39.788	-4.410	-0.71582	0.14236	-0.57751	0.36563	27.6	13111	100
2025-3-27 17:20:38.794	WT901BLE68-01(48591DE3C19B)	0.070	-1.243	0.170	27.466	88.135	-181.885	-69.80	33.95	-93.04	-82.222	-39.788	-4.410	-0.71582	0.14236	-0.57751	0.36563	27.6	13111	100
2025-3-27 17:20:38.824	WT901BLE68-01(48591DE3C19B)	-0.016	-1.243	0.170	27.466	88.135	-181.885	-70.50	32.38	-94.83	-82.222	-39.788	-4.410	-0.71582	0.14236	-0.57751	0.36563	27.6	13111	100
2025-3-27 17:20:38.824	WT901BLE68-01(48591DE3C19B)	-0.016	-1.424	0.145	40.771	155.884	-214.233	-71.29	30.74	-96.99	-82.222	-39.788	-4.410	-0.71582	0.14236	-0.57751	0.36563	27.6	13111	100
2025-3-27 17:20:38.824	WT901BLE68-01(48591DE3C19B)	-0.154	-1.424	0.145	40.771	155.884	-214.233	-72.15	29.04	-99.50	-82.222	-39.788	-4.410	-0.71582	0.14236	-0.57751	0.36563	27.6	13111	100
2025-3-27 17:20:38.824	WT901BLE68-01(48591DE3C19B)	-0.154	-1.461	0.161	51.514	218.323	-240.234	-73.04	27.28	-102.30	-82.222	-39.788	-4.410	-0.71582	0.14236	-0.57751	0.36563	27.6	13111	100
2025-3-27 17:20:38.853	WT901BLE68-01(48591DE3C19B)	-0.277	-1.461	0.161	51.514	218.323	-240.234	-73.93	25.47	-105.40	-82.222	-39.788	-4.410	-0.71582	0.14236	-0.57751	0.36563	27.6	13111	100
2025-3-27 17:20:38.853	WT901BLE68-01(48591DE3C19B)	-0.277	-1.485	0.164	61.707	277.283	-259.155	-74.78	23.62	-108.73	-82.222	-39.788	-4.410	-0.71582	0.14236	-0.57751	0.36563	27.6	13111	100
2025-3-27 17:20:38.853	WT901BLE68-01(48591DE3C19B)	-0.511	-1.485	0.164	61.707	277.283	-259.155	-75.57	21.71	-112.31	-82.222	-39.788	-4.410	-0.71582	0.14236	-0.57751	0.36563	27.6	13111	100
2025-3-27 17:20:38.853	WT901BLE68-01(48591DE3C19B)	-0.511	-1.491	0.131	78.247	285.706	-252.258	-76.16	19.83	-115.83	-82.222	-39.788	-4.410	-0.71582	0.14236	-0.57751	0.36563	27.6	13111	100
2025-3-27 17:20:38.914	WT901BLE68-01(48591DE3C19B)	-0.404	-1.491	0.131	78.247	285.706	-252.258	-76.56	17.98	-119.31	-82.222	-39.788	-4.410	-0.71582	0.14236	-0.57751	0.36563	27.6	13111	100
2025-3-27 17:20:38.914	WT901BLE68-01(48591DE3C19B)	-0.404	-1.458	0.104	91.675	286.682	-257.568	-76.76	16.12	-122.74	-62.720	-45.276	-8.624	-0.71582	0.14236	-0.57751	0.36563	27.6	13111	100
2025-3-27 17:20:38.914	WT901BLE68-01(48591DE3C19B)	-0.470	-1.458	0.104	91.675	286.682	-257.568	-76.78	14.23	-126.12	-62.720	-45.276	-8.624	-0.71582	0.14236	-0.57751	0.36563	27.6	13111	100
2025-3-27 17:20:38.914	WT901BLE68-01(48591DE3C19B)	-0.470	-1.545	0.049	100.220	266.541	-247.131	-76.56	12.42	-129.24	-62.720	-45.276	-8.624	-0.71582	0.14236	-0.57751	0.36563	27.6	13111	100
2025-3-27 17:20:38.943	WT901BLE68-01(48591DE3C19B)	-0.499	-1.545	0.049	100.220	266.541	-247.131	-76.25	10.63	-132.32	-62.720	-45.276	-8.624	-0.71582	0.14236	-0.57751	0.36563	27.6	13111	100
2025-3-27 17:20:38.943	WT901BLE68-01(48591DE3C19B)	-0.499	-1.624	0.020	103.699	221.252	-234.070	-75.73	8.90	-134.91	-62.720	-45.276	-8.624	-0.71582	0.14236	-0.57751	0.36563	27.6	13111	100
2025-3-27 17:20:38.943	WT901BLE68-01(48591DE3C19B)	-0.517	-1.624	0.020	103.699	221.252	-234.070	-75.14	7.21	-137.49	-62.720	-45.276	-8.624	-0.71582	0.14236	-0.57751	0.36563	27.6	13111	100
2025-3-27 17:20:38.943	WT901BLE68-01(48591DE3C19B)	-0.517	-1.667	0.021	103.638	175.110	-218.506	-74.43	5.59	-139.56	-62.720	-45.276	-8.624	-0.71582	0.14236	-0.57751	0.36563	27.6	13111	100
2025-3-27 17:20:38.972	WT901BLE68-01(48591DE3C19B)	-0.588	-1.667	0.021	103.638	175.110	-218.506	-73.66	4.00	-141.65	-62.720	-45.276	-8.624	-0.71582	0.14236	-0.57751	0.36563	27.6	13111	100
2025-3-27 17:20:38.973	WT901BLE68-01(48591DE3C19B)	-0.588	-1.678	0.017	99.792	133.972	-197.449	-72.87	2.53	-143.27	-62.720	-45.276	-8.624	-0.71582	0.14236	-0.57751	0.36563	27.6	13111	100
2025-3-27 17:20:38.973	WT901BLE68-01(48591DE3C19B)	-0.608	-1.678	0.017	99.792	133.972	-197.449	-72.03	1.10	-144.90	-62.720	-45.276	-8.624	-0.71582	0.14236	-0.57751	0.36563	27.6	13111	100
2025-3-27 17:20:38.973	WT901BLE68-01(48591DE3C19B)	-0.608	-1.600	0.004	95.520	93.567	-172.363	-71.21	-0.18	-146.08	-62.720	-45.276	-8.624	-0.71582	0.14236	-0.57751	0.36563	27.6	13111	100
2025-3-27 17:20:39.35	WT901BLE68-01(48591DE3C19B)	-0.573	-1.600	0.004	95.520	93.567	-172.363	-70.36	-1.44	-147.26	-62.720	-45.276	-8.624	-0.71582	0.14236	-0.57751	0.36563	27.6	13111	100
2025-3-27 17:20:39.35	WT901BLE68-01(48591DE3C19B)	-0.573	-1.428	-0.000	90.088	55.786	-146.301	-69.57	-2.57	-148.00	-62.720	-45.276	-8.624	-0.71582	0.14236	-0.57751	0.36563	27.6	13111	100
2025-3-27 17:20:39.35	WT901BLE68-01(48591DE3C19B)	-0.501	-1.428	-0.000	90.088	55.786	-146.301	-68.76	-3.67	-148.75	-62.720	-45.276	-8.624	-0.71582	0.14236	-0.57751	0.36563	27.6	13111	100
2025-3-27 17:20:39.36	WT901BLE68-01(48591DE3C19B)	-0.501	-1.259	0.020	79.224	27.832	-120.789	-68.07	-4.62	-149.15	-62.720	-45.276	-8.624	-0.71582	0.14236	-0.57751	0.36563	27.6	13111	100
2025-3-27 17:20:39.94	WT901BLE68-01(48591DE3C19B)	-0.441	-1.259	0.020	79.224	27.832	-120.789	-67.38	-5.56	-149.55	-62.720	-45.276	-8.624	-0.71582	0.14236	-0.57751	0.36563	27.6	13111	100
2025-3-27 17:20:39.94	WT901BLE68-01(48591DE3C19B)	-0.441	-1.166	0.040	67.261	11.353	-97.107	-66.84	-6.34	-149.71	-62.720	-45.276	-8.624	-0.71582	0.14236	-0.57751	0.36563	27.6	13111	100
2025-3-27 17:20:39.94	WT901BLE68-01(48591DE3C19B)	-0.433	-1.166	0.040	67.261	11.353	-97.107	-66.29	-7.11	-149.86	-62.720	-45.276	-8.624	-0.71582	0.14236	-0.57751	0.36563	27.6	13111	100
2025-3-27 17:20:39.94	WT901BLE68-01(48591DE3C19B)	-0.433	-1.098	0.031	58.350	-2.319	-75.745	-65.86	-7.74	-149.82	-62.720	-45.276	-8.624	-0.18170	0.19788	-0.50659	0.81918	27.6	13111	100
2025-3-27 17:20:39.95	WT901BLE68-01(48591DE3C19B)	-0.450	-1.098	0.031	58.350	-2.319	-75.745	-65.43	-8.36	-149.75	-62.720	-45.276	-8.624	-0.18170	0.19788	-0.50659	0.81918	27.6	13111	100
2025-3-27 17:20:39.95	WT901BLE68-01(48591DE3C19B)	-0.450	-1.026	0.013	50.476	-15.869	-57.068	-65.11	-8.87	-149.50	-62.720	-45.276	-8.624	-0.18170	0.19788	-0.50659	0.81918	27.6	13111	100
2025-3-27 17:20:39.95	WT901BLE68-01(48591DE3C19B)	-0.452	-1.026	0.013	50.476	-15.869	-57.068	-64.79	-9.38	-149.23	-62.720	-45.276	-8.624	-0.18170	0.19788	-0.50659	0.81918	27.6	13111	100
2025-3-27 17:20:39.96	WT901BLE68-01(48591DE3C19B)	-0.452	-1.000	-0.001	42.542	-30.090	-42.358	-64.59	-9.81	-148.77	-62.720	-45.276	-8.624	-0.18170	0.19788	-0.50659	0.81918	27.6	13111	100
2025-3-27 17:20:39.154	WT901BLE68-01(48591DE3C19B)	-0.436	-1.000	-0.001	42.542	-30.090	-42.358	-64.40	-10.24	-148.30	-62.720	-45.276	-8.624	-0.18170	0.19788	-0.50659	0.81918	27.6	13111	100
2025-3-27 17:20:39.154	WT901BLE68-01(48591DE3C19B)	-0.436	-0.972	-0.007	37.231	-42.542	-31.189	-64.29	-10.62	-147.67	-62.720	-45.276	-8.624	-0.18170	0.19788	-0.50659	0.81918	27.6	13111	100
2025-3-27 17:20:39.154	WT901BLE68-01(48591DE3C19B)	-0.427	-0.972	-0.007	37.231	-42.542	-31.189	-64.19	-11.00	-147.04	-62.720	-45.276	-8.624	-0.18170	0.19788	-0.50659	0.81918	27.6	13111	100
2025-3-27 17:20:39.154	WT901BLE68-01(48591DE3C19B)	-0.427	-0.940	-0.009	32.104	-54.871	-24.170	-64.18	-11.38	-146.26	-62.720	-45.276	-8.624	-0.18170	0.19788	-0.50659	0.81918	27.6	13111	100
2025-3-27 17:20:39.183	WT901BLE68-01(48591DE3C19B)	-0.427	-0.940	-0.009	32.104	-54.871	-24.170	-64.17	-11.74	-145.47	-62.720	-45.276	-8.624	-0.18170	0.19788	-0.50659	0.81918	27.6	13111	100
2025-3-27 17:20:39.183	WT901BLE68-01(48591DE3C19B)	-0.427	-0.903	0.001	27.832	-68.970	-20.874	-64.23	-12.14	-144.54	-62.720	-45.276	-8.624	-0.18170	0.19788	-0.50659	0.81918	27.6	13111	100
2025-3-27 17:20:39.183	WT901BLE68-01(48591DE3C19B)	-0.404	-0.903	0.001	27.832	-68.970	-20.874	-64.30	-12.53	-143.61	-62.720	-45.276	-8.624	-0.18170	0.19788	-0.50659	0.81918	27.6	13111	100
2025-3-27 17:20:39.183	WT901BLE68-01(48591DE3C19B)	-0.404	-0.866	0.029	23.010	-80.688	-20.935	-64.45	-12.96	-142.59	-62.720	-45.276	-8.624	-0.18170	0.19788	-0.50659	0.81918	27.6	13111	100
2025-3-27 17:20:39.213	WT901BLE68-01(48591DE3C19B)	-0.359	-0.866	0.029	23.010	-80.688	-20.935	-64.60	-13.38	-141.57	-62.720	-45.276	-8.624	-0.18170	0.19788	-0.50659	0.81918	27.6	13111	100
2025-3-27 17:20:39.213	WT901BLE68-01(48591DE3C19B)	-0.359	-0.872	0.071	18.005	-80.688	-21.301	-64.80	-13.79	-140.57	-62.720	-45.276	-8.624	-0.18170	0.19788	-0.50659	0.81918	27.6	13111	100
2025-3-27 17:20:39.213	WT901BLE68-01(48591DE3C19B)	-0.341	-0.872	0.071	18.005	-80.688	-21.301	-65.00	-14.19	-139.59	-62.720	-45.276	-8.624	-0.18170	0.19788	-0.50659	0.81918	27.6	13111	100
2025-3-27 17:20:39.214	WT901BLE68-01(48591DE3C19B)	-0.341	-0.846	0.098	17.090	-74.890	-20.569	-65.20	-14.55	-138.67	-62.720	-45.276	-8.624	-0.18170	0.19788	-0.50659	0.81918	27.6	13111	100
2025-3-27 17:20:39.304	WT901BLE68-01(48591DE3C19B)	-0.320	-0.846	0.098	17.090	-74.890	-20.569	-65.39	-14.89	-137.79	-62.720	-45.276	-8.624	-0.18170	0.19788	-0.50659	0.81918	27.6	13111	100
2025-3-27 17:20:39.304	WT901BLE68-01(48591DE3C19B)	-0.320	-0.819	0.121	13.550	-65.979	-19.531	-65.59	-15.17	-136.99	-62.720	-45.276	-8.624	-0.18170	0.19788	-0.50659	0.81918	27.6	13111	100
2025-3-27 17:20:39.304	WT901BLE68-01(48591DE3C19B)	-0.298	-0.819	0.121	13.550	-65.979	-19.531	-65.79	-15.45	-136.22	-62.720	-45.276	-8.624	-0.18170	0.19788	-0.50659	0.81918	27.6	13111	100
2025-3-27 17:20:39.304	WT901BLE68-01(48591DE3C19B)	-0.298	-0.846	0.125	9.338	-53.467	-17.700	-65.98	-15.65	-135.57	-62.720	-45.276	-8.624	-0.18170	0.19788	-0.50659	0.81918	27.6	13111	100
2025-3-27 17:20:39.305	WT901BLE68-01(48591DE3C19B)	-0.308	-0.846	0.125	9.338	-53.467	-17.700	-66.18	-15.84	-134.94	-32.144	-50.470	-0.196	-0.18170	0.19788	-0.50659	0.81918	27.6	13111	100
2025-3-27 17:20:39.305	WT901BLE68-01(48591DE3C19B)	-0.308	-0.937	0.119	7.080	-41.321	-14.648	-66.37	-15.95	-134.42	-32.144	-50.470	-0.196	-0.18170	0.19788	-0.50659	0.81918	27.6	13111	100
2025-3-27 17:20:39.305	WT901BLE68-01(48591DE3C19B)	-0.314	-0.937	0.119	7.080	-41.321	-14.648	-66.55	-16.06	-133.91	-32.144	-50.470	-0.196	-0.18170	0.19788	-0.50659	0.81918	27.6	13111	100
2025-3-27 17:20:39.306	WT901BLE68-01(48591DE3C19B)	-0.314	-1.025	0.106	8.972	-33.020	-10.559	-66.69	-16.10	-133.47	-32.144	-50.470	-0.196	-0.18170	0.19788	-0.50659	0.81918	27.6	13111	100
2025-3-27 17:20:39.365	WT901BLE68-01(48591DE3C19B)	-0.275	-1.025	0.106	8.972	-33.020	-10.559	-66.83	-16.14	-133.02	-32.144	-50.470	-0.196	-0.18170	0.19788	-0.50659	0.81918	27.6	13111	100
2025-3-27 17:20:39.365	WT901BLE68-01(48591DE3C19B)	-0.275	-1.024	0.074	13.062	-26.855	-4.578	-66.92	-16.10	-132.62	-32.144	-50.470	-0.196	-0.18170	0.19788	-0.50659	0.81918	27.6	13111	100
2025-3-27 17:20:39.365	WT901BLE68-01(48591DE3C19B)	-0.235	-1.024	0.074	13.062	-26.855	-4.578	-67.01	-16.07	-132.21	-32.144	-50.470	-0.196	-0.18170	0.19788	-0.50659	0.81918	27.6	13111	100
2025-3-27 17:20:39.365	WT901BLE68-01(48591DE3C19B)	-0.238	-0.980	0.094	11.963	-19.775	4.456	-67.09	-15.92	-131.84	-32.144	-50.470	-0.196	-0.18170	0.19788	-0.50659	0.81918	27.6	13111	100
2025-3-27 17:20:39.393	WT901BLE68-01(48591DE3C19B)	-0.238	-0.963	0.118	7.446	-15.198	14.648	-67.20	-15.73	-131.47	-32.144	-50.470	-0.196	-0.18170	0.19788	-0.50659	0.81918	27.6	13111	100
2025-3-27 17:20:39.393	WT901BLE68-01(48591DE3C19B)	-0.220	-0.963	0.118	7.446	-15.198	14.648	-67.32	-15.47	-131.11	-32.144	-50.470	-0.196	-0.18170	0.19788	-0.50659	0.81918	27.6	13111	100
2025-3-27 17:20:39.393	WT901BLE68-01(48591DE3C19B)	-0.220	-1.002	0.117	-6.348	-14.099	24.963	-67.52	-15.18	-130.73	-32.144	-50.470	-0.196	-0.18170	0.19788	-0.50659	0.81918	27.6	13111	100
2025-3-27 17:20:39.393	WT901BLE68-01(48591DE3C19B)	-0.195	-1.002	0.117	-6.348	-14.099	24.963	-67.78	-14.84	-130.35	-32.144	-50.470	-0.196	-0.18170	0.19788	-0.50659	0.81918	27.6	13111	100
2025-3-27 17:20:39.429	WT901BLE68-01(48591DE3C19B)	-0.195	-1.335	0.080	-36.865	-17.151	28.320	-68.19	-14.49	-129.95	-32.144	-50.470	-0.196	-0.18170	0.19788	-0.50659	0.81918	27.6	13111	100
2025-3-27 17:20:39.429	WT901BLE68-01(48591DE3C19B)	-0.323	-1.335	0.080	-36.865	-17.151	28.320	-68.76	-14.13	-129.52	-32.144	-50.470	-0.196	-0.18170	0.19788	-0.50659	0.81918	27.6	13111	100
2025-3-27 17:20:39.429	WT901BLE68-01(48591DE3C19B)	-0.323	-1.792	0.134	-50.476	-36.560	36.987	-69.42	-13.77	-129.00	-32.144	-50.470	-0.196	-0.18170	0.19788	-0.50659	0.81918	27.6	13111	100
2025-3-27 17:20:39.430	WT901BLE68-01(48591DE3C19B)	-0.417	-1.792	0.134	-50.476	-36.560	36.987	-70.15	-13.41	-128.36	-32.144	-50.470	-0.196	-0.18170	0.19788	-0.50659	0.81918	27.6	13111	100
2025-3-27 17:20:39.454	WT901BLE68-01(48591DE3C19B)	-0.417	-1.319	0.377	-23.071	-81.482	57.678	-70.80	-13.02	-127.49	-32.144	-50.470	-0.196	-0.18170	0.19788	-0.50659	0.81918	27.6	13111	100
2025-3-27 17:20:39.454	WT901BLE68-01(48591DE3C19B)	-0.287	-1.319	0.377	-23.071	-81.482	57.678	-71.35	-12.59	-126.40	-32.144	-50.470	-0.196	-0.18170	0.19788	-0.50659	0.81918	27.6	13111	100
2025-3-27 17:20:39.454	WT901BLE68-01(48591DE3C19B)	-0.287	-0.538	0.529	-40.039	-135.620	94.055	-72.02	-12.06	-125.02	-32.144	-50.470	-0.196	-0.18170	0.19788	-0.50659	0.81918	27.6	13111	100
2025-3-27 17:20:39.454	WT901BLE68-01(48591DE3C19B)	-0.091	-0.538	0.529	-40.039	-135.620	94.055	-72.80	-11.41	-123.38	-32.144	-50.470	-0.196	-0.18170	0.19788	-0.50659	0.81918	27.6	13111	100
2025-3-27 17:20:39.514	WT901BLE68-01(48591DE3C19B)	-0.091	-0.312	0.480	-76.965	-175.964	137.451	-73.77	-10.60	-121.53	-32.144	-50.470	-0.196	-0.18170	0.19788	-0.50659	0.81918	27.6	13111	100
2025-3-27 17:20:39.514	WT901BLE68-01(48591DE3C19B)	0.119	-0.312	0.480	-76.965	-175.964	137.451	-74.90	-9.60	-119.46	-32.144	-50.470	-0.196	-0.35471	0.36282	-0.48987	0.70883	27.6	13111	100
2025-3-27 17:20:39.514	WT901BLE68-01(48591DE3C19B)	0.119	-0.662	0.323	-95.825	-195.679	157.227	-76.10	-8.50	-117.32	-32.144	-50.470	-0.196	-0.35471	0.36282	-0.48987	0.70883	27.6	13111	100
2025-3-27 17:20:39.514	WT901BLE68-01(48591DE3C19B)	0.320	-0.662	0.323	-95.825	-195.679	157.227	-77.33	-7.30	-115.10	-32.144	-50.470	-0.196	-0.35471	0.36282	-0.48987	0.70883	27.6	13111	100
2025-3-27 17:20:39.543	WT901BLE68-01(48591DE3C19B)	0.320	-1.011	0.098	-78.430	-182.068	176.208	-78.42	-5.97	-112.95	-32.144	-50.470	-0.196	-0.35471	0.36282	-0.48987	0.70883	27.6	13111	100
2025-3-27 17:20:39.543	WT901BLE68-01(48591DE3C19B)	0.344	-1.011	0.098	-78.430	-182.068	176.208	-79.37	-4.51	-110.87	-32.144	-50.470	-0.196	-0.35471	0.36282	-0.48987	0.70883	27.6	13111	100
2025-3-27 17:20:39.543	WT901BLE68-01(48591DE3C19B)	0.344	-1.049	-0.084	-53.040	-127.869	190.491	-80.12	-2.93	-109.06	-32.144	-50.470	-0.196	-0.35471	0.36282	-0.48987	0.70883	27.6	13111	100
2025-3-27 17:20:39.543	WT901BLE68-01(48591DE3C19B)	0.111	-1.049	-0.084	-53.040	-127.869	190.491	-80.68	-1.24	-107.51	-32.144	-50.470	-0.196	-0.35471	0.36282	-0.48987	0.70883	27.6	13111	100
2025-3-27 17:20:39.573	WT901BLE68-01(48591DE3C19B)	0.111	-1.181	-0.168	-50.171	-72.937	192.261	-81.20	0.49	-106.24	-32.144	-50.470	-0.196	-0.35471	0.36282	-0.48987	0.70883	27.6	13111	100
2025-3-27 17:20:39.573	WT901BLE68-01(48591DE3C19B)	-0.220	-1.181	-0.168	-50.171	-72.937	192.261	-81.68	2.27	-105.25	-32.144	-50.470	-0.196	-0.35471	0.36282	-0.48987	0.70883	27.6	13111	100
2025-3-27 17:20:39.573	WT901BLE68-01(48591DE3C19B)	-0.220	-1.418	-0.099	-42.969	-67.383	193.726	-82.10	4.06	-104.30	-32.144	-50.470	-0.196	-0.35471	0.36282	-0.48987	0.70883	27.6	13111	100
2025-3-27 17:20:39.573	WT901BLE68-01(48591DE3C19B)	-0.254	-1.418	-0.099	-42.969	-67.383	193.726	-82.46	5.86	-103.38	-32.144	-50.470	-0.196	-0.35471	0.36282	-0.48987	0.70883	27.6	13111	100
2025-3-27 17:20:39.633	WT901BLE68-01(48591DE3C19B)	-0.254	-1.477	0.018	-23.987	-95.276	190.002	-82.69	7.63	-102.33	-32.144	-50.470	-0.196	-0.35471	0.36282	-0.48987	0.70883	27.6	13111	100
2025-3-27 17:20:39.633	WT901BLE68-01(48591DE3C19B)	-0.183	-1.477	0.018	-23.987	-95.276	190.002	-82.78	9.36	-101.15	-32.144	-50.470	-0.196	-0.35471	0.36282	-0.48987	0.70883	27.6	13111	100
2025-3-27 17:20:39.633	WT901BLE68-01(48591DE3C19B)	-0.183	-1.481	0.191	-19.409	-123.108	192.871	-82.78	11.09	-99.83	-32.144	-50.470	-0.196	-0.35471	0.36282	-0.48987	0.70883	27.6	13111	100
2025-3-27 17:20:39.634	WT901BLE68-01(48591DE3C19B)	-0.248	-1.481	0.191	-19.409	-123.108	192.871	-82.69	12.79	-98.36	-32.144	-50.470	-0.196	-0.35471	0.36282	-0.48987	0.70883	27.6	13111	100
2025-3-27 17:20:39.665	WT901BLE68-01(48591DE3C19B)	-0.248	-1.843	0.197	-24.658	-145.325	197.754	-82.55	14.50	-96.77	-32.144	-50.470	-0.196	-0.35471	0.36282	-0.48987	0.70883	27.6	13111	100
2025-3-27 17:20:39.665	WT901BLE68-01(48591DE3C19B)	-0.137	-1.843	0.197	-24.658	-145.325	197.754	-82.34	16.21	-95.06	-32.144	-50.470	-0.196	-0.35471	0.36282	-0.48987	0.70883	27.6	13111	100
2025-3-27 17:20:39.665	WT901BLE68-01(48591DE3C19B)	-0.137	-2.027	0.146	7.629	-166.260	211.060	-81.90	17.95	-93.21	-32.144	-50.470	-0.196	-0.35471	0.36282	-0.48987	0.70883	27.6	13111	100
2025-3-27 17:20:39.665	WT901BLE68-01(48591DE3C19B)	0.087	-2.027	0.146	7.629	-166.260	211.060	-81.18	19.71	-91.21	-32.144	-50.470	-0.196	-0.35471	0.36282	-0.48987	0.70883	27.6	13111	100
2025-3-27 17:20:39.696	WT901BLE68-01(48591DE3C19B)	0.087	-1.765	0.132	29.419	-152.832	224.976	-80.32	21.51	-89.23	-32.144	-50.470	-0.196	-0.35471	0.36282	-0.48987	0.70883	27.6	13111	100
2025-3-27 17:20:39.696	WT901BLE68-01(48591DE3C19B)	0.186	-1.765	0.132	29.419	-152.832	224.976	-79.29	23.35	-87.26	-32.144	-50.470	-0.196	-0.35471	0.36282	-0.48987	0.70883	27.6	13111	100
2025-3-27 17:20:39.696	WT901BLE68-01(48591DE3C19B)	0.186	-1.684	0.118	27.954	-107.971	233.276	-78.28	25.21	-85.46	-71.834	-43.708	-8.330	-0.35471	0.36282	-0.48987	0.70883	27.6	13111	100
2025-3-27 17:20:39.696	WT901BLE68-01(48591DE3C19B)	0.179	-1.684	0.118	27.954	-107.971	233.276	-77.32	27.13	-83.85	-71.834	-43.708	-8.330	-0.35471	0.36282	-0.48987	0.70883	27.6	13111	100
2025-3-27 17:20:39.754	WT901BLE68-01(48591DE3C19B)	0.179	-1.787	0.121	27.466	-57.922	238.708	-76.40	29.08	-82.44	-71.834	-43.708	-8.330	-0.35471	0.36282	-0.48987	0.70883	27.6	13111	100
2025-3-27 17:20:39.754	WT901BLE68-01(48591DE3C19B)	0.206	-1.787	0.121	27.466	-57.922	238.708	-75.56	31.09	-81.24	-71.834	-43.708	-8.330	-0.35471	0.36282	-0.48987	0.70883	27.6	13111	100
2025-3-27 17:20:39.754	WT901BLE68-01(48591DE3C19B)	0.206	-1.745	0.139	34.241	-5.066	242.920	-74.78	33.15	-80.29	-71.834	-43.708	-8.330	-0.35471	0.36282	-0.48987	0.70883	27.6	13111	100
2025-3-27 17:20:39.754	WT901BLE68-01(48591DE3C19B)	0.277	-1.745	0.139	34.241	-5.066	242.920	-74.08	35.28	-79.59	-71.834	-43.708	-8.330	-0.35471	0.36282	-0.48987	0.70883	27.6	13111	100
2025-3-27 17:20:39.783	WT901BLE68-01(48591DE3C19B)	0.277	-1.510	0.146	36.072	41.809	236.328	-73.49	37.42	-79.13	-71.834	-43.708	-8.330	-0.35471	0.36282	-0.48987	0.70883	27.6	13111	100
2025-3-27 17:20:39.784	WT901BLE68-01(48591DE3C19B)	0.344	-1.510	0.146	36.072	41.809	236.328	-73.05	39.57	-78.94	-71.834	-43.708	-8.330	-0.35471	0.36282	-0.48987	0.70883	27.6	13111	100
2025-3-27 17:20:39.784	WT901BLE68-01(48591DE3C19B)	0.344	-1.244	0.141	29.663	80.750	224.548	-72.79	41.71	-78.98	-71.834	-43.708	-8.330	-0.35471	0.36282	-0.48987	0.70883	27.6	13111	100
2025-3-27 17:20:39.784	WT901BLE68-01(48591DE3C19B)	0.320	-1.244	0.141	29.663	80.750	224.548	-72.74	43.83	-79.30	-71.834	-43.708	-8.330	-0.35471	0.36282	-0.48987	0.70883	27.6	13111	100
2025-3-27 17:20:39.845	WT901BLE68-01(48591DE3C19B)	0.320	-1.002	0.169	20.203	111.450	206.238	-72.93	45.90	-79.88	-71.834	-43.708	-8.330	-0.35471	0.36282	-0.48987	0.70883	27.6	13111	100
2025-3-27 17:20:39.845	WT901BLE68-01(48591DE3C19B)	0.108	-1.002	0.169	20.203	111.450	206.238	-73.39	47.89	-80.74	-71.834	-43.708	-8.330	-0.35471	0.36282	-0.48987	0.70883	27.6	13111	100
2025-3-27 17:20:39.845	WT901BLE68-01(48591DE3C19B)	0.108	-0.962	0.204	1.099	124.512	179.382	-74.33	49.66	-81.97	-71.834	-43.708	-8.330	-0.35471	0.36282	-0.48987	0.70883	27.6	13111	100
2025-3-27 17:20:39.846	WT901BLE68-01(48591DE3C19B)	-0.012	-0.962	0.204	1.099	124.512	179.382	-75.36	51.39	-83.30	-71.834	-43.708	-8.330	-0.35471	0.36282	-0.48987	0.70883	27.6	13111	100
2025-3-27 17:20:39.875	WT901BLE68-01(48591DE3C19B)	-0.012	-1.082	0.165	-2.686	115.234	146.484	-76.49	52.77	-84.69	-71.834	-43.708	-8.330	-0.35471	0.36282	-0.48987	0.70883	27.6	13111	100
2025-3-27 17:20:39.875	WT901BLE68-01(48591DE3C19B)	0.009	-1.082	0.165	-2.686	115.234	146.484	-77.71	54.12	-86.18	-71.834	-43.708	-8.330	-0.35471	0.36282	-0.48987	0.70883	27.6	13111	100
2025-3-27 17:20:39.876	WT901BLE68-01(48591DE3C19B)	0.009	-0.931	0.185	4.822	93.933	118.591	-78.73	55.13	-87.48	-71.834	-43.708	-8.330	-0.35471	0.36282	-0.48987	0.70883	27.6	13111	100
2025-3-27 17:20:39.876	WT901BLE68-01(48591DE3C19B)	-0.046	-0.931	0.185	4.822	93.933	118.591	-79.79	56.13	-88.84	-71.834	-43.708	-8.330	-0.69333	0.14929	-0.65628	0.25726	27.6	13111	100
2025-3-27 17:20:39.905	WT901BLE68-01(48591DE3C19B)	-0.046	-0.798	0.195	1.709	68.481	85.876	-80.65	56.74	-89.90	-71.834	-43.708	-8.330	-0.69333	0.14929	-0.65628	0.25726	27.6	13111	100
2025-3-27 17:20:39.905	WT901BLE68-01(48591DE3C19B)	-0.125	-0.798	0.195	1.709	68.481	85.876	-81.53	57.35	-90.99	-71.834	-43.708	-8.330	-0.69333	0.14929	-0.65628	0.25726	27.6	13111	100
2025-3-27 17:20:39.905	WT901BLE68-01(48591DE3C19B)	-0.125	-0.758	0.208	4.150	30.884	56.335	-81.89	57.61	-91.50	-71.834	-43.708	-8.330	-0.69333	0.14929	-0.65628	0.25726	27.6	13111	100
2025-3-27 17:20:39.905	WT901BLE68-01(48591DE3C19B)	-0.113	-0.758	0.208	4.150	30.884	56.335	-82.24	57.86	-92.01	-71.834	-43.708	-8.330	-0.69333	0.14929	-0.65628	0.25726	27.6	13111	100
2025-3-27 17:20:39.963	WT901BLE68-01(48591DE3C19B)	-0.113	-0.688	0.215	10.010	-12.634	28.870	-81.91	57.79	-91.77	-71.834	-43.708	-8.330	-0.69333	0.14929	-0.65628	0.25726	27.6	13111	100
2025-3-27 17:20:39.963	WT901BLE68-01(48591DE3C19B)	-0.083	-0.688	0.215	10.010	-12.634	28.870	-81.58	57.72	-91.54	-71.834	-43.708	-8.330	-0.69333	0.14929	-0.65628	0.25726	27.6	13111	100
2025-3-27 17:20:39.963	WT901BLE68-01(48591DE3C19B)	-0.083	-0.613	0.217	15.076	-49.377	-0.366	-80.71	57.32	-90.73	-71.834	-43.708	-8.330	-0.69333	0.14929	-0.65628	0.25726	27.6	13111	100
2025-3-27 17:20:39.963	WT901BLE68-01(48591DE3C19B)	-0.067	-0.613	0.217	15.076	-49.377	-0.366	-79.85	56.90	-89.93	-71.834	-43.708	-8.330	-0.69333	0.14929	-0.65628	0.25726	27.6	13111	100
2025-3-27 17:20:39.995	WT901BLE68-01(48591DE3C19B)	-0.067	-0.582	0.209	18.311	-71.716	-31.677	-78.74	56.13	-88.87	-71.834	-43.708	-8.330	-0.69333	0.14929	-0.65628	0.25726	27.6	13111	100
2025-3-27 17:20:39.996	WT901BLE68-01(48591DE3C19B)	-0.044	-0.582	0.209	18.311	-71.716	-31.677	-77.68	55.37	-87.86	-71.834	-43.708	-8.330	-0.69333	0.14929	-0.65628	0.25726	27.6	13111	100
2025-3-27 17:20:39.996	WT901BLE68-01(48591DE3C19B)	-0.044	-0.564	0.218	22.278	-77.026	-62.988	-76.66	54.27	-86.93	-71.834	-43.708	-8.330	-0.69333	0.14929	-0.65628	0.25726	27.6	13111	100
2025-3-27 17:20:39.996	WT901BLE68-01(48591DE3C19B)	-0.045	-0.564	0.218	22.278	-77.026	-62.988	-75.70	53.18	-86.06	-71.834	-43.708	-8.330	-0.69333	0.14929	-0.65628	0.25726	27.6	13111	100
2025-3-27 17:20:40.25	WT901BLE68-01(48591DE3C19B)	-0.045	-0.562	0.233	23.621	-67.688	-95.093	-74.99	51.80	-85.52	-71.834	-43.708	-8.330	-0.69333	0.14929	-0.65628	0.25726	27.6	13111	100
2025-3-27 17:20:40.25	WT901BLE68-01(48591DE3C19B)	-0.047	-0.562	0.233	23.621	-67.688	-95.093	-74.33	50.42	-85.02	-71.834	-43.708	-8.330	-0.69333	0.14929	-0.65628	0.25726	27.6	13111	100
2025-3-27 17:20:40.25	WT901BLE68-01(48591DE3C19B)	-0.047	-0.580	0.241	24.536	-47.729	-127.136	-74.02	48.80	-85.00	-71.834	-43.708	-8.330	-0.69333	0.14929	-0.65628	0.25726	27.6	13111	100
2025-3-27 17:20:40.25	WT901BLE68-01(48591DE3C19B)	-0.048	-0.580	0.241	24.536	-47.729	-127.136	-73.72	47.18	-84.98	-71.834	-43.708	-8.330	-0.69333	0.14929	-0.65628	0.25726	27.6	13111	100
2025-3-27 17:20:40.86	WT901BLE68-01(48591DE3C19B)	-0.048	-0.605	0.247	26.550	-20.447	-157.227	-73.76	45.36	-85.46	-71.834	-43.708	-8.330	-0.69333	0.14929	-0.65628	0.25726	27.6	13111	100
2025-3-27 17:20:40.86	WT901BLE68-01(48591DE3C19B)	-0.082	-0.605	0.247	26.550	-20.447	-157.227	-73.78	43.56	-85.93	-71.834	-43.708	-8.330	-0.69333	0.14929	-0.65628	0.25726	27.6	13111	100
2025-3-27 17:20:40.86	WT901BLE68-01(48591DE3C19B)	-0.082	-0.659	0.256	29.053	9.399	-183.472	-74.08	41.59	-86.86	-71.834	-43.708	-8.330	-0.69333	0.14929	-0.65628	0.25726	27.6	13111	100
2025-3-27 17:20:40.86	WT901BLE68-01(48591DE3C19B)	-0.180	-0.659	0.256	29.053	9.399	-183.472	-74.32	39.63	-87.75	-71.834	-43.708	-8.330	-0.69333	0.14929	-0.65628	0.25726	27.6	13111	100
2025-3-27 17:20:40.115	WT901BLE68-01(48591DE3C19B)	-0.180	-0.786	0.264	32.166	32.410	-207.581	-74.70	37.52	-88.96	-78.106	-35.574	-7.840	-0.69333	0.14929	-0.65628	0.25726	27.6	13111	100
2025-3-27 17:20:40.116	WT901BLE68-01(48591DE3C19B)	-0.356	-0.786	0.264	32.166	32.410	-207.581	-75.02	35.41	-90.12	-78.106	-35.574	-7.840	-0.69333	0.14929	-0.65628	0.25726	27.6	13111	100
2025-3-27 17:20:40.116	WT901BLE68-01(48591DE3C19B)	-0.356	-0.995	0.258	35.156	41.870	-227.600	-75.35	33.16	-91.40	-78.106	-35.574	-7.840	-0.69333	0.14929	-0.65628	0.25726	27.6	13111	100
2025-3-27 17:20:40.116	WT901BLE68-01(48591DE3C19B)	-0.561	-0.995	0.258	35.156	41.870	-227.600	-75.61	30.92	-92.63	-78.106	-35.574	-7.840	-0.69333	0.14929	-0.65628	0.25726	27.6	13111	100
2025-3-27 17:20:40.146	WT901BLE68-01(48591DE3C19B)	-0.561	-1.235	0.253	38.025	34.485	-246.094	-75.76	28.51	-93.78	-78.106	-35.574	-7.840	-0.69333	0.14929	-0.65628	0.25726	27.6	13111	100
2025-3-27 17:20:40.146	WT901BLE68-01(48591DE3C19B)	-0.647	-1.235	0.253	38.025	34.485	-246.094	-75.87	26.12	-94.91	-78.106	-35.574	-7.840	-0.69333	0.14929	-0.65628	0.25726	27.6	13111	100
2025-3-27 17:20:40.146	WT901BLE68-01(48591DE3C19B)	-0.647	-1.426	0.246	39.063	16.907	-260.254	-75.84	23.58	-95.85	-78.106	-35.574	-7.840	-0.69333	0.14929	-0.65628	0.25726	27.6	13111	100
2025-3-27 17:20:40.146	WT901BLE68-01(48591DE3C19B)	-0.568	-1.426	0.246	39.063	16.907	-260.254	-75.79	21.06	-96.78	-78.106	-35.574	-7.840	-0.69333	0.14929	-0.65628	0.25726	27.6	13111	100
2025-3-27 17:20:40.204	WT901BLE68-01(48591DE3C19B)	-0.568	-1.547	0.238	35.889	9.338	-271.423	-75.71	18.44	-97.64	-78.106	-35.574	-7.840	-0.69333	0.14929	-0.65628	0.25726	27.6	13111	100
2025-3-27 17:20:40.204	WT901BLE68-01(48591DE3C19B)	-0.487	-1.547	0.238	35.889	9.338	-271.423	-75.59	15.84	-98.49	-78.106	-35.574	-7.840	-0.69333	0.14929	-0.65628	0.25726	27.6	13111	100
2025-3-27 17:20:40.204	WT901BLE68-01(48591DE3C19B)	-0.487	-1.640	0.237	29.785	24.048	-276.672	-75.55	13.24	-99.49	-78.106	-35.574	-7.840	-0.69333	0.14929	-0.65628	0.25726	27.6	13111	100
2025-3-27 17:20:40.204	WT901BLE68-01(48591DE3C19B)	-0.479	-1.640	0.237	29.785	24.048	-276.672	-75.46	10.65	-100.48	-78.106	-35.574	-7.840	-0.69333	0.14929	-0.65628	0.25726	27.6	13111	100
2025-3-27 17:20:40.232	WT901BLE68-01(48591DE3C19B)	-0.479	-1.716	0.226	26.794	64.636	-267.639	-75.43	8.27	-101.83	-78.106	-35.574	-7.840	-0.69333	0.14929	-0.65628	0.25726	27.6	13111	100
2025-3-27 17:20:40.233	WT901BLE68-01(48591DE3C19B)	-0.501	-1.716	0.226	26.794	64.636	-267.639	-75.34	5.91	-103.17	-78.106	-35.574	-7.840	-0.69333	0.14929	-0.65628	0.25726	27.6	13111	100
2025-3-27 17:20:40.233	WT901BLE68-01(48591DE3C19B)	-0.501	-1.622	0.220	32.043	116.272	-253.845	-75.20	3.82	-104.96	-78.106	-35.574	-7.840	-0.69333	0.14929	-0.65628	0.25726	27.6	13111	100
2025-3-27 17:20:40.233	WT901BLE68-01(48591DE3C19B)	-0.521	-1.622	0.220	32.043	116.272	-253.845	-74.99	1.76	-106.75	-78.106	-35.574	-7.840	-0.69333	0.14929	-0.65628	0.25726	27.6	13111	100
2025-3-27 17:20:40.265	WT901BLE68-01(48591DE3C19B)	-0.521	-1.503	0.188	32.349	169.861	-231.140	-74.73	0.07	-109.00	-78.106	-35.574	-7.840	-0.69333	0.14929	-0.65628	0.25726	27.6	13111	100
2025-3-27 17:20:40.265	WT901BLE68-01(48591DE3C19B)	-0.531	-1.503	0.188	32.349	169.861	-231.140	-74.41	-1.59	-111.24	-78.106	-35.574	-7.840	-0.69333	0.14929	-0.65628	0.25726	27.6	13111	100
2025-3-27 17:20:40.265	WT901BLE68-01(48591DE3C19B)	-0.625	-1.424	0.108	36.499	234.314	-201.904	-73.98	-2.78	-114.02	-78.106	-35.574	-7.840	-0.69333	0.14929	-0.65628	0.25726	27.6	13111	100
2025-3-27 17:20:40.266	WT901BLE68-01(48591DE3C19B)	-0.625	-1.351	-0.034	41.809	278.015	-165.649	-73.47	-3.70	-116.96	-78.106	-35.574	-7.840	-0.69333	0.14929	-0.65628	0.25726	27.6	13111	100
2025-3-27 17:20:40.324	WT901BLE68-01(48591DE3C19B)	-0.775	-1.351	-0.034	41.809	278.015	-165.649	-72.89	-4.35	-120.05	-78.106	-35.574	-7.840	-0.69333	0.14929	-0.65628	0.25726	27.6	13111	100
2025-3-27 17:20:40.324	WT901BLE68-01(48591DE3C19B)	-0.775	-1.264	-0.148	45.410	270.142	-129.761	-72.29	-4.80	-123.04	-78.106	-35.574	-7.840	-0.35400	0.30423	-0.50333	0.72711	27.6	13111	100
2025-3-27 17:20:40.324	WT901BLE68-01(48591DE3C19B)	-0.869	-1.264	-0.148	45.410	270.142	-129.761	-71.67	-5.05	-125.93	-78.106	-35.574	-7.840	-0.35400	0.30423	-0.50333	0.72711	27.6	13111	100
2025-3-27 17:20:40.324	WT901BLE68-01(48591DE3C19B)	-0.869	-1.148	-0.185	41.504	216.980	-94.788	-71.10	-5.20	-128.49	-78.106	-35.574	-7.840	-0.35400	0.30423	-0.50333	0.72711	27.6	13111	100
2025-3-27 17:20:40.353	WT901BLE68-01(48591DE3C19B)	-0.860	-1.148	-0.185	41.504	216.980	-94.788	-70.59	-5.23	-130.74	-78.106	-35.574	-7.840	-0.35400	0.30423	-0.50333	0.72711	27.6	13111	100
2025-3-27 17:20:40.353	WT901BLE68-01(48591DE3C19B)	-0.860	-1.019	-0.181	32.349	147.217	-62.073	-70.18	-5.20	-132.58	-78.106	-35.574	-7.840	-0.35400	0.30423	-0.50333	0.72711	27.6	13111	100
2025-3-27 17:20:40.353	WT901BLE68-01(48591DE3C19B)	-0.821	-1.019	-0.181	32.349	147.217	-62.073	-69.85	-5.12	-134.02	-78.106	-35.574	-7.840	-0.35400	0.30423	-0.50333	0.72711	27.6	13111	100
2025-3-27 17:20:40.353	WT901BLE68-01(48591DE3C19B)	-0.821	-0.917	-0.188	19.897	81.177	-33.386	-69.64	-5.01	-135.09	-78.106	-35.574	-7.840	-0.35400	0.30423	-0.50333	0.72711	27.6	13111	100
2025-3-27 17:20:40.384	WT901BLE68-01(48591DE3C19B)	-0.749	-0.917	-0.188	19.897	81.177	-33.386	-69.53	-4.88	-135.79	-78.106	-35.574	-7.840	-0.35400	0.30423	-0.50333	0.72711	27.6	13111	100
2025-3-27 17:20:40.384	WT901BLE68-01(48591DE3C19B)	-0.749	-0.865	-0.182	8.423	24.231	-11.414	-69.51	-4.74	-136.15	-78.106	-35.574	-7.840	-0.35400	0.30423	-0.50333	0.72711	27.6	13111	100
2025-3-27 17:20:40.384	WT901BLE68-01(48591DE3C19B)	-0.649	-0.865	-0.182	8.423	24.231	-11.414	-69.59	-4.60	-136.19	-78.106	-35.574	-7.840	-0.35400	0.30423	-0.50333	0.72711	27.6	13111	100
2025-3-27 17:20:40.384	WT901BLE68-01(48591DE3C19B)	-0.649	-0.824	-0.155	-2.991	-15.564	2.991	-69.77	-4.49	-135.95	-78.106	-35.574	-7.840	-0.35400	0.30423	-0.50333	0.72711	27.6	13111	100
2025-3-27 17:20:40.474	WT901BLE68-01(48591DE3C19B)	-0.601	-0.824	-0.155	-2.991	-15.564	2.991	-70.03	-4.39	-135.44	-78.106	-35.574	-7.840	-0.35400	0.30423	-0.50333	0.72711	27.6	13111	100
2025-3-27 17:20:40.474	WT901BLE68-01(48591DE3C19B)	-0.601	-0.806	-0.104	-8.972	-32.898	13.611	-70.35	-4.32	-134.74	-78.106	-35.574	-7.840	-0.35400	0.30423	-0.50333	0.72711	27.6	13111	100
2025-3-27 17:20:40.474	WT901BLE68-01(48591DE3C19B)	-0.589	-0.806	-0.104	-8.972	-32.898	13.611	-70.72	-4.26	-133.87	-78.106	-35.574	-7.840	-0.35400	0.30423	-0.50333	0.72711	27.6	13111	100
2025-3-27 17:20:40.475	WT901BLE68-01(48591DE3C19B)	-0.589	-0.789	-0.063	-13.123	-38.940	18.921	-71.11	-4.20	-132.93	-78.106	-35.574	-7.840	-0.35400	0.30423	-0.50333	0.72711	27.6	13111	100
2025-3-27 17:20:40.475	WT901BLE68-01(48591DE3C19B)	-0.548	-0.789	-0.063	-13.123	-38.940	18.921	-71.53	-4.15	-131.91	-78.106	-35.574	-7.840	-0.35400	0.30423	-0.50333	0.72711	27.6	13111	100
2025-3-27 17:20:40.475	WT901BLE68-01(48591DE3C19B)	-0.548	-0.785	-0.030	-17.273	-39.978	20.081	-71.97	-4.09	-130.89	-78.106	-35.574	-7.840	-0.35400	0.30423	-0.50333	0.72711	27.6	13111	100
2025-3-27 17:20:40.475	WT901BLE68-01(48591DE3C19B)	-0.524	-0.785	-0.030	-17.273	-39.978	20.081	-72.43	-4.03	-129.85	-78.106	-35.574	-7.840	-0.35400	0.30423	-0.50333	0.72711	27.6	13111	100
2025-3-27 17:20:40.475	WT901BLE68-01(48591DE3C19B)	-0.524	-0.797	0.002	-20.081	-38.757	20.752	-72.89	-3.94	-128.84	-78.106	-35.574	-7.840	-0.35400	0.30423	-0.50333	0.72711	27.6	13111	100
2025-3-27 17:20:40.503	WT901BLE68-01(48591DE3C19B)	-0.516	-0.797	0.002	-20.081	-38.757	20.752	-73.37	-3.80	-127.88	-78.106	-35.574	-7.840	-0.35400	0.30423	-0.50333	0.72711	27.6	13111	100
2025-3-27 17:20:40.503	WT901BLE68-01(48591DE3C19B)	-0.516	-0.823	0.027	-21.667	-40.039	21.484	-73.82	-3.60	-127.04	-78.106	-35.574	-7.840	-0.35400	0.30423	-0.50333	0.72711	27.6	13111	100
2025-3-27 17:20:40.503	WT901BLE68-01(48591DE3C19B)	-0.504	-0.823	0.027	-21.667	-40.039	21.484	-74.22	-3.32	-126.41	-36.554	-52.332	-2.744	-0.35400	0.30423	-0.50333	0.72711	27.6	13111	100
2025-3-27 17:20:40.503	WT901BLE68-01(48591DE3C19B)	-0.504	-0.844	0.049	-22.278	-45.715	23.376	-74.60	-3.02	-125.81	-36.554	-52.332	-2.744	-0.35400	0.30423	-0.50333	0.72711	27.6	13111	100
2025-3-27 17:20:40.563	WT901BLE68-01(48591DE3C19B)	-0.491	-0.844	0.049	-22.278	-45.715	23.376	-74.95	-2.70	-125.27	-36.554	-52.332	-2.744	-0.35400	0.30423	-0.50333	0.72711	27.6	13111	100
2025-3-27 17:20:40.563	WT901BLE68-01(48591DE3C19B)	-0.491	-0.888	0.082	-22.217	-55.359	27.771	-75.29	-2.38	-124.67	-36.554	-52.332	-2.744	-0.35400	0.30423	-0.50333	0.72711	27.6	13111	100
2025-3-27 17:20:40.563	WT901BLE68-01(48591DE3C19B)	-0.454	-0.888	0.082	-22.217	-55.359	27.771	-75.62	-2.04	-124.06	-36.554	-52.332	-2.744	-0.35400	0.30423	-0.50333	0.72711	27.6	13111	100
2025-3-27 17:20:40.563	WT901BLE68-01(48591DE3C19B)	-0.454	-0.936	0.109	-17.883	-64.636	33.936	-75.92	-1.69	-123.40	-36.554	-52.332	-2.744	-0.35400	0.30423	-0.50333	0.72711	27.6	13111	100
2025-3-27 17:20:40.594	WT901BLE68-01(48591DE3C19B)	-0.381	-0.936	0.109	-17.883	-64.636	33.936	-76.18	-1.32	-122.70	-36.554	-52.332	-2.744	-0.35400	0.30423	-0.50333	0.72711	27.6	13111	100
2025-3-27 17:20:40.594	WT901BLE68-01(48591DE3C19B)	-0.381	-0.969	0.117	-12.207	-66.406	40.894	-76.42	-0.92	-121.96	-36.554	-52.332	-2.744	-0.35400	0.30423	-0.50333	0.72711	27.6	13111	100
2025-3-27 17:20:40.594	WT901BLE68-01(48591DE3C19B)	-0.316	-0.969	0.117	-12.207	-66.406	40.894	-76.61	-0.50	-121.22	-36.554	-52.332	-2.744	-0.35400	0.30423	-0.50333	0.72711	27.6	13111	100
2025-3-27 17:20:40.594	WT901BLE68-01(48591DE3C19B)	-0.316	-1.032	0.084	-9.644	-58.044	44.617	-76.79	-0.05	-120.51	-36.554	-52.332	-2.744	-0.35400	0.30423	-0.50333	0.72711	27.6	13111	100
2025-3-27 17:20:40.622	WT901BLE68-01(48591DE3C19B)	-0.313	-1.032	0.084	-9.644	-58.044	44.617	-76.94	0.41	-119.82	-36.554	-52.332	-2.744	-0.35400	0.30423	-0.50333	0.72711	27.6	13111	100
2025-3-27 17:20:40.623	WT901BLE68-01(48591DE3C19B)	-0.313	-1.129	0.074	-7.813	-48.401	48.462	-77.09	0.90	-119.16	-36.554	-52.332	-2.744	-0.35400	0.30423	-0.50333	0.72711	27.6	13111	100
2025-3-27 17:20:40.623	WT901BLE68-01(48591DE3C19B)	-0.372	-1.129	0.074	-7.813	-48.401	48.462	-77.22	1.40	-118.55	-36.554	-52.332	-2.744	-0.35400	0.30423	-0.50333	0.72711	27.6	13111	100
2025-3-27 17:20:40.623	WT901BLE68-01(48591DE3C19B)	-0.372	-1.174	0.152	-4.211	-49.316	55.115	-77.32	1.93	-117.92	-36.554	-52.332	-2.744	-0.35400	0.30423	-0.50333	0.72711	27.6	13111	100
2025-3-27 17:20:40.713	WT901BLE68-01(48591DE3C19B)	-0.418	-1.174	0.152	-4.211	-49.316	55.115	-77.40	2.48	-117.28	-36.554	-52.332	-2.744	-0.35400	0.30423	-0.50333	0.72711	27.6	13111	100
2025-3-27 17:20:40.714	WT901BLE68-01(48591DE3C19B)	-0.418	-1.210	0.237	-4.333	-62.866	61.768	-77.46	3.05	-116.57	-36.554	-52.332	-2.744	-0.35400	0.30423	-0.50333	0.72711	27.6	13111	100
2025-3-27 17:20:40.714	WT901BLE68-01(48591DE3C19B)	-0.390	-1.210	0.237	-4.333	-62.866	61.768	-77.51	3.63	-115.80	-36.554	-52.332	-2.744	-0.35400	0.30423	-0.50333	0.72711	27.6	13111	100
2025-3-27 17:20:40.714	WT901BLE68-01(48591DE3C19B)	-0.390	-1.220	0.301	-4.395	-81.299	68.970	-77.54	4.22	-114.94	-36.554	-52.332	-2.744	-0.35400	0.30423	-0.50333	0.72711	27.6	13111	100
2025-3-27 17:20:40.714	WT901BLE68-01(48591DE3C19B)	-0.262	-1.220	0.301	-4.395	-81.299	68.970	-77.54	4.82	-113.99	-36.554	-52.332	-2.744	-0.44635	0.31326	-0.54254	0.63889	27.6	13111	100
2025-3-27 17:20:40.714	WT901BLE68-01(48591DE3C19B)	-0.262	-1.220	0.234	-15.076	-90.881	69.580	-77.58	5.41	-113.00	-36.554	-52.332	-2.744	-0.44635	0.31326	-0.54254	0.63889	27.6	13111	100
2025-3-27 17:20:40.714	WT901BLE68-01(48591DE3C19B)	-0.146	-1.220	0.234	-15.076	-90.881	69.580	-77.65	5.98	-111.97	-36.554	-52.332	-2.744	-0.44635	0.31326	-0.54254	0.63889	27.6	13111	100
2025-3-27 17:20:40.715	WT901BLE68-01(48591DE3C19B)	-0.146	-1.425	0.136	-45.227	-95.764	52.307	-77.87	6.45	-110.93	-36.554	-52.332	-2.744	-0.44635	0.31326	-0.54254	0.63889	27.6	13111	100
2025-3-27 17:20:40.743	WT901BLE68-01(48591DE3C19B)	-0.362	-1.425	0.136	-45.227	-95.764	52.307	-78.22	6.83	-109.88	-36.554	-52.332	-2.744	-0.44635	0.31326	-0.54254	0.63889	27.6	13111	100
2025-3-27 17:20:40.743	WT901BLE68-01(48591DE3C19B)	-0.362	-1.866	0.324	-66.040	-136.414	31.799	-78.73	6.93	-108.47	-36.554	-52.332	-2.744	-0.44635	0.31326	-0.54254	0.63889	27.6	13111	100
2025-3-27 17:20:40.743	WT901BLE68-01(48591DE3C19B)	-0.647	-1.866	0.324	-66.040	-136.414	31.799	-79.24	7.03	-107.08	-36.554	-52.332	-2.744	-0.44635	0.31326	-0.54254	0.63889	27.6	13111	100
2025-3-27 17:20:40.744	WT901BLE68-01(48591DE3C19B)	-0.647	-1.778	0.690	-41.443	-211.243	29.663	-79.39	6.98	-104.96	-36.554	-52.332	-2.744	-0.44635	0.31326	-0.54254	0.63889	27.6	13111	100
2025-3-27 17:20:40.804	WT901BLE68-01(48591DE3C19B)	-0.418	-1.778	0.690	-41.443	-211.243	29.663	-79.54	6.94	-102.87	-36.554	-52.332	-2.744	-0.44635	0.31326	-0.54254	0.63889	27.6	13111	100
2025-3-27 17:20:40.804	WT901BLE68-01(48591DE3C19B)	-0.418	-1.009	0.834	-29.114	-264.282	45.776	-79.48	6.97	-100.25	-36.554	-52.332	-2.744	-0.44635	0.31326	-0.54254	0.63889	27.6	13111	100
2025-3-27 17:20:40.804	WT901BLE68-01(48591DE3C19B)	0.012	-1.009	0.834	-29.114	-264.282	45.776	-79.40	6.99	-97.65	-36.554	-52.332	-2.744	-0.44635	0.31326	-0.54254	0.63889	27.6	13111	100
2025-3-27 17:20:40.804	WT901BLE68-01(48591DE3C19B)	0.012	-0.503	0.688	-37.903	-249.084	85.693	-79.40	7.42	-95.15	-36.554	-52.332	-2.744	-0.44635	0.31326	-0.54254	0.63889	27.6	13111	100
2025-3-27 17:20:40.865	WT901BLE68-01(48591DE3C19B)	0.250	-0.503	0.688	-37.903	-249.084	85.693	-79.37	7.83	-92.66	-36.554	-52.332	-2.744	-0.44635	0.31326	-0.54254	0.63889	27.6	13111	100
2025-3-27 17:20:40.865	WT901BLE68-01(48591DE3C19B)	0.250	-0.350	0.423	-44.189	-180.481	102.905	-79.46	8.54	-90.82	-36.554	-52.332	-2.744	-0.44635	0.31326	-0.54254	0.63889	27.6	13111	100
2025-3-27 17:20:40.866	WT901BLE68-01(48591DE3C19B)	0.290	-0.350	0.423	-44.189	-180.481	102.905	-79.51	9.22	-88.99	-36.554	-52.332	-2.744	-0.44635	0.31326	-0.54254	0.63889	27.6	13111	100
2025-3-27 17:20:40.866	WT901BLE68-01(48591DE3C19B)	0.290	-0.570	0.164	-37.537	-100.098	101.318	-79.62	10.02	-87.96	-36.554	-52.332	-2.744	-0.44635	0.31326	-0.54254	0.63889	27.6	13111	100
2025-3-27 17:20:40.866	WT901BLE68-01(48591DE3C19B)	0.322	-0.570	0.164	-37.537	-100.098	101.318	-79.71	10.81	-86.91	-36.554	-52.332	-2.744	-0.44635	0.31326	-0.54254	0.63889	27.6	13111	100
2025-3-27 17:20:40.866	WT901BLE68-01(48591DE3C19B)	0.322	-0.784	-0.006	-21.545	-48.218	98.267	-79.74	11.64	-86.39	-36.554	-52.332	-2.744	-0.44635	0.31326	-0.54254	0.63889	27.6	13111	100
2025-3-27 17:20:40.866	WT901BLE68-01(48591DE3C19B)	0.383	-0.784	-0.006	-21.545	-48.218	98.267	-79.77	12.46	-85.85	-36.554	-52.332	-2.744	-0.44635	0.31326	-0.54254	0.63889	27.6	13111	100
2025-3-27 17:20:40.866	WT901BLE68-01(48591DE3C19B)	0.383	-0.953	-0.084	-1.587	-1.038	92.102	-79.72	13.28	-85.79	-36.554	-52.332	-2.744	-0.44635	0.31326	-0.54254	0.63889	27.6	13111	100
2025-3-27 17:20:40.954	WT901BLE68-01(48591DE3C19B)	0.239	-0.953	-0.084	-1.587	-1.038	92.102	-79.67	14.09	-85.72	-36.554	-52.332	-2.744	-0.44635	0.31326	-0.54254	0.63889	27.6	13111	100
2025-3-27 17:20:40.954	WT901BLE68-01(48591DE3C19B)	0.239	-1.087	-0.097	19.043	42.603	92.896	-79.55	14.97	-86.07	-70.070	-46.746	-4.998	-0.44635	0.31326	-0.54254	0.63889	27.6	13111	100
2025-3-27 17:20:40.954	WT901BLE68-01(48591DE3C19B)	-0.023	-1.087	-0.097	19.043	42.603	92.896	-79.44	15.85	-86.42	-70.070	-46.746	-4.998	-0.44635	0.31326	-0.54254	0.63889	27.6	13111	100
2025-3-27 17:20:40.954	WT901BLE68-01(48591DE3C19B)	-0.023	-1.216	-0.035	36.499	52.795	92.346	-79.19	16.73	-86.86	-70.070	-46.746	-4.998	-0.44635	0.31326	-0.54254	0.63889	27.6	13111	100
2025-3-27 17:20:40.955	WT901BLE68-01(48591DE3C19B)	-0.194	-1.216	-0.035	36.499	52.795	92.346	-78.97	17.62	-87.30	-70.070	-46.746	-4.998	-0.44635	0.31326	-0.54254	0.63889	27.6	13111	100
2025-3-27 17:20:40.955	WT901BLE68-01(48591DE3C19B)	-0.194	-1.307	0.034	58.533	37.659	91.980	-78.48	18.48	-87.57	-70.070	-46.746	-4.998	-0.44635	0.31326	-0.54254	0.63889	27.6	13111	100
2025-3-27 17:20:40.955	WT901BLE68-01(48591DE3C19B)	-0.171	-1.307	0.034	58.533	37.659	91.980	-78.00	19.34	-87.83	-70.070	-46.746	-4.998	-0.44635	0.31326	-0.54254	0.63889	27.6	13111	100
2025-3-27 17:20:40.955	WT901BLE68-01(48591DE3C19B)	-0.171	-1.219	0.151	82.275	25.085	93.323	-77.24	20.19	-87.95	-70.070	-46.746	-4.998	-0.44635	0.31326	-0.54254	0.63889	27.6	13111	100
2025-3-27 17:20:40.984	WT901BLE68-01(48591DE3C19B)	-0.156	-1.219	0.151	82.275	25.085	93.323	-76.49	21.04	-88.05	-70.070	-46.746	-4.998	-0.44635	0.31326	-0.54254	0.63889	27.6	13111	100
2025-3-27 17:20:40.984	WT901BLE68-01(48591DE3C19B)	-0.156	-1.087	0.226	81.238	22.766	95.825	-75.73	21.91	-88.11	-70.070	-46.746	-4.998	-0.44635	0.31326	-0.54254	0.63889	27.6	13111	100
2025-3-27 17:20:40.984	WT901BLE68-01(48591DE3C19B)	-0.212	-1.087	0.226	81.238	22.766	95.825	-74.97	22.78	-88.16	-70.070	-46.746	-4.998	-0.44635	0.31326	-0.54254	0.63889	27.6	13111	100
2025-3-27 17:20:40.984	WT901BLE68-01(48591DE3C19B)	-0.212	-1.079	0.302	74.219	20.264	96.436	-74.26	23.65	-88.17	-70.070	-46.746	-4.998	-0.44635	0.31326	-0.54254	0.63889	27.6	13111	100
2025-3-27 17:20:41.43	WT901BLE68-01(48591DE3C19B)	-0.231	-1.079	0.302	74.219	20.264	96.436	-73.54	24.52	-88.17	-70.070	-46.746	-4.998	-0.44635	0.31326	-0.54254	0.63889	27.6	13111	100
2025-3-27 17:20:41.43	WT901BLE68-01(48591DE3C19B)	-0.231	-1.152	0.333	65.613	14.709	95.032	-72.88	25.35	-88.10	-70.070	-46.746	-4.998	-0.44635	0.31326	-0.54254	0.63889	27.6	13111	100
2025-3-27 17:20:41.44	WT901BLE68-01(48591DE3C19B)	-0.146	-1.152	0.333	65.613	14.709	95.032	-72.22	26.18	-88.03	-70.070	-46.746	-4.998	-0.44635	0.31326	-0.54254	0.63889	27.6	13111	100
2025-3-27 17:20:41.44	WT901BLE68-01(48591DE3C19B)	-0.146	-1.158	0.376	60.120	19.104	101.074	-71.61	27.08	-87.97	-70.070	-46.746	-4.998	-0.44635	0.31326	-0.54254	0.63889	27.6	13111	100
2025-3-27 17:20:41.75	WT901BLE68-01(48591DE3C19B)	-0.047	-1.158	0.376	60.120	19.104	101.074	-71.00	27.97	-87.90	-70.070	-46.746	-4.998	-0.44635	0.31326	-0.54254	0.63889	27.6	13111	100
2025-3-27 17:20:41.75	WT901BLE68-01(48591DE3C19B)	-0.047	-1.068	0.405	48.950	41.443	107.605	-70.59	28.99	-88.03	-70.070	-46.746	-4.998	-0.44635	0.31326	-0.54254	0.63889	27.6	13111	100
2025-3-27 17:20:41.75	WT901BLE68-01(48591DE3C19B)	-0.032	-1.068	0.405	48.950	41.443	107.605	-70.18	30.00	-88.16	-70.070	-46.746	-4.998	-0.44635	0.31326	-0.54254	0.63889	27.6	13111	100
2025-3-27 17:20:41.75	WT901BLE68-01(48591DE3C19B)	-0.032	-1.022	0.379	32.715	68.726	110.718	-70.07	31.13	-88.57	-70.070	-46.746	-4.998	-0.44635	0.31326	-0.54254	0.63889	27.6	13111	100
2025-3-27 17:20:41.105	WT901BLE68-01(48591DE3C19B)	-0.106	-1.022	0.379	32.715	68.726	110.718	-69.97	32.24	-88.98	-70.070	-46.746	-4.998	-0.44635	0.31326	-0.54254	0.63889	27.6	13111	100
2025-3-27 17:20:41.105	WT901BLE68-01(48591DE3C19B)	-0.106	-0.976	0.322	18.738	78.552	110.962	-70.07	33.39	-89.50	-70.070	-46.746	-4.998	-0.44635	0.31326	-0.54254	0.63889	27.6	13111	100
2025-3-27 17:20:41.106	WT901BLE68-01(48591DE3C19B)	-0.136	-0.976	0.322	18.738	78.552	110.962	-70.18	34.53	-90.03	-70.070	-46.746	-4.998	-0.67300	0.21622	-0.55994	0.43204	27.6	13111	100
2025-3-27 17:20:41.106	WT901BLE68-01(48591DE3C19B)	-0.136	-0.903	0.280	8.972	73.914	107.117	-70.37	35.61	-90.53	-70.070	-46.746	-4.998	-0.67300	0.21622	-0.55994	0.43204	27.6	13111	100
2025-3-27 17:20:41.163	WT901BLE68-01(48591DE3C19B)	-0.113	-0.903	0.280	8.972	73.914	107.117	-70.58	36.69	-91.04	-70.070	-46.746	-4.998	-0.67300	0.21622	-0.55994	0.43204	27.6	13111	100
2025-3-27 17:20:41.163	WT901BLE68-01(48591DE3C19B)	-0.113	-0.809	0.247	2.197	66.956	97.168	-70.84	37.64	-91.52	-70.070	-46.746	-4.998	-0.67300	0.21622	-0.55994	0.43204	27.6	13111	100
2025-3-27 17:20:41.163	WT901BLE68-01(48591DE3C19B)	-0.059	-0.809	0.247	2.197	66.956	97.168	-71.11	38.58	-92.01	-70.070	-46.746	-4.998	-0.67300	0.21622	-0.55994	0.43204	27.6	13111	100
2025-3-27 17:20:41.163	WT901BLE68-01(48591DE3C19B)	-0.059	-0.712	0.202	-2.258	62.012	80.872	-71.44	39.35	-92.51	-70.070	-46.746	-4.998	-0.67300	0.21622	-0.55994	0.43204	27.6	13111	100
2025-3-27 17:20:41.194	WT901BLE68-01(48591DE3C19B)	-0.029	-0.712	0.202	-2.258	62.012	80.872	-71.78	40.12	-93.02	-70.070	-46.746	-4.998	-0.67300	0.21622	-0.55994	0.43204	27.6	13111	100
2025-3-27 17:20:41.194	WT901BLE68-01(48591DE3C19B)	-0.054	-0.609	0.155	-6.226	59.509	61.340	-72.21	40.68	-93.59	-70.070	-46.746	-4.998	-0.67300	0.21622	-0.55994	0.43204	27.6	13111	100
2025-3-27 17:20:41.194	WT901BLE68-01(48591DE3C19B)	-0.054	-0.533	0.163	-11.353	58.594	36.926	-72.69	41.11	-94.21	-70.070	-46.746	-4.998	-0.67300	0.21622	-0.55994	0.43204	27.6	13111	100
2025-3-27 17:20:41.194	WT901BLE68-01(48591DE3C19B)	-0.114	-0.533	0.163	-11.353	58.594	36.926	-73.23	41.42	-94.88	-70.070	-46.746	-4.998	-0.67300	0.21622	-0.55994	0.43204	27.6	13111	100
2025-3-27 17:20:41.222	WT901BLE68-01(48591DE3C19B)	-0.114	-0.522	0.194	-16.907	55.664	10.193	-73.82	41.60	-95.59	-70.070	-46.746	-4.998	-0.67300	0.21622	-0.55994	0.43204	27.6	13111	100
2025-3-27 17:20:41.223	WT901BLE68-01(48591DE3C19B)	-0.170	-0.522	0.194	-16.907	55.664	10.193	-74.46	41.64	-96.32	-70.070	-46.746	-4.998	-0.67300	0.21622	-0.55994	0.43204	27.6	13111	100
2025-3-27 17:20:41.223	WT901BLE68-01(48591DE3C19B)	-0.170	-0.544	0.224	-16.418	52.002	-14.099	-75.10	41.55	-97.08	-70.070	-46.746	-4.998	-0.67300	0.21622	-0.55994	0.43204	27.6	13111	100
2025-3-27 17:20:41.223	WT901BLE68-01(48591DE3C19B)	-0.219	-0.544	0.224	-16.418	52.002	-14.099	-75.74	41.34	-97.84	-70.070	-46.746	-4.998	-0.67300	0.21622	-0.55994	0.43204	27.6	13111	100
2025-3-27 17:20:41.284	WT901BLE68-01(48591DE3C19B)	-0.219	-0.548	0.255	-11.597	42.786	-35.034	-76.32	41.02	-98.57	-70.070	-46.746	-4.998	-0.67300	0.21622	-0.55994	0.43204	27.6	13111	100
2025-3-27 17:20:41.284	WT901BLE68-01(48591DE3C19B)	-0.227	-0.548	0.255	-11.597	42.786	-35.034	-76.85	40.59	-99.27	-70.070	-46.746	-4.998	-0.67300	0.21622	-0.55994	0.43204	27.6	13111	100
2025-3-27 17:20:41.284	WT901BLE68-01(48591DE3C19B)	-0.227	-0.563	0.265	-5.920	24.475	-52.002	-77.27	40.06	-99.87	-70.070	-46.746	-4.998	-0.67300	0.21622	-0.55994	0.43204	27.6	13111	100
2025-3-27 17:20:41.284	WT901BLE68-01(48591DE3C19B)	-0.189	-0.563	0.265	-5.920	24.475	-52.002	-77.60	39.43	-100.37	-70.070	-46.746	-4.998	-0.67300	0.21622	-0.55994	0.43204	27.6	13111	100
2025-3-27 17:20:41.312	WT901BLE68-01(48591DE3C19B)	-0.189	-0.589	0.272	0.793	8.179	-66.895	-77.82	38.72	-100.78	-70.070	-46.746	-4.998	-0.67300	0.21622	-0.55994	0.43204	27.6	13111	100
2025-3-27 17:20:41.313	WT901BLE68-01(48591DE3C19B)	-0.164	-0.589	0.272	0.793	8.179	-66.895	-77.94	37.92	-101.10	-70.070	-46.746	-4.998	-0.67300	0.21622	-0.55994	0.43204	27.6	13111	100
2025-3-27 17:20:41.313	WT901BLE68-01(48591DE3C19B)	-0.164	-0.643	0.259	7.507	-2.014	-83.313	-78.00	37.04	-101.38	-69.874	-45.374	-5.586	-0.67300	0.21622	-0.55994	0.43204	27.6	13111	100
2025-3-27 17:20:41.313	WT901BLE68-01(48591DE3C19B)	-0.098	-0.643	0.259	7.507	-2.014	-83.313	-77.99	36.07	-101.61	-69.874	-45.374	-5.586	-0.67300	0.21622	-0.55994	0.43204	27.6	13111	100
2025-3-27 17:20:41.404	WT901BLE68-01(48591DE3C19B)	-0.098	-0.749	0.242	11.414	0.061	-100.525	-77.98	35.04	-101.87	-69.874	-45.374	-5.586	-0.67300	0.21622	-0.55994	0.43204	27.6	13111	100
2025-3-27 17:20:41.404	WT901BLE68-01(48591DE3C19B)	0.001	-0.749	0.242	11.414	0.061	-100.525	-77.96	33.91	-102.17	-69.874	-45.374	-5.586	-0.67300	0.21622	-0.55994	0.43204	27.6	13111	100
2025-3-27 17:20:41.404	WT901BLE68-01(48591DE3C19B)	0.001	-1.025	0.176	8.667	20.447	-130.981	-78.04	32.67	-102.61	-69.874	-45.374	-5.586	-0.67300	0.21622	-0.55994	0.43204	27.6	13111	100
2025-3-27 17:20:41.404	WT901BLE68-01(48591DE3C19B)	-0.002	-1.025	0.176	8.667	20.447	-130.981	-78.21	31.29	-103.19	-69.874	-45.374	-5.586	-0.67300	0.21622	-0.55994	0.43204	27.6	13111	100
2025-3-27 17:20:41.433	WT901BLE68-01(48591DE3C19B)	-0.002	-1.434	0.131	10.437	53.345	-173.889	-78.48	29.75	-103.99	-69.874	-45.374	-5.586	-0.67300	0.21622	-0.55994	0.43204	27.6	13111	100
2025-3-27 17:20:41.433	WT901BLE68-01(48591DE3C19B)	-0.153	-1.434	0.131	10.437	53.345	-173.889	-78.83	28.02	-104.97	-69.874	-45.374	-5.586	-0.67300	0.21622	-0.55994	0.43204	27.6	13111	100
2025-3-27 17:20:41.433	WT901BLE68-01(48591DE3C19B)	-0.153	-1.695	0.139	27.710	89.539	-207.581	-79.17	26.16	-106.17	-69.874	-45.374	-5.586	-0.67300	0.21622	-0.55994	0.43204	27.6	13111	100
2025-3-27 17:20:41.433	WT901BLE68-01(48591DE3C19B)	-0.329	-1.695	0.139	27.710	89.539	-207.581	-79.48	24.17	-107.55	-69.874	-45.374	-5.586	-0.67300	0.21622	-0.55994	0.43204	27.6	13111	100
2025-3-27 17:20:41.435	WT901BLE68-01(48591DE3C19B)	-0.329	-1.688	0.181	43.640	118.835	-233.093	-79.72	22.09	-109.06	-69.874	-45.374	-5.586	-0.67300	0.21622	-0.55994	0.43204	27.6	13111	100
2025-3-27 17:20:41.435	WT901BLE68-01(48591DE3C19B)	-0.388	-1.688	0.181	43.640	118.835	-233.093	-79.88	19.92	-110.72	-69.874	-45.374	-5.586	-0.67300	0.21622	-0.55994	0.43204	27.6	13111	100
2025-3-27 17:20:41.435	WT901BLE68-01(48591DE3C19B)	-0.388	-1.604	0.226	49.683	144.653	-248.596	-80.00	17.72	-112.49	-69.874	-45.374	-5.586	-0.67300	0.21622	-0.55994	0.43204	27.6	13111	100
2025-3-27 17:20:41.435	WT901BLE68-01(48591DE3C19B)	-0.429	-1.604	0.226	49.683	144.653	-248.596	-80.06	15.47	-114.37	-69.874	-45.374	-5.586	-0.67300	0.21622	-0.55994	0.43204	27.6	13111	100
2025-3-27 17:20:41.493	WT901BLE68-01(48591DE3C19B)	-0.429	-1.542	0.220	58.777	175.720	-255.920	-80.03	13.24	-116.38	-69.874	-45.374	-5.586	-0.67300	0.21622	-0.55994	0.43204	27.6	13111	100
2025-3-27 17:20:41.493	WT901BLE68-01(48591DE3C19B)	-0.518	-1.542	0.220	58.777	175.720	-255.920	-79.91	11.01	-118.54	-69.874	-45.374	-5.586	-0.67300	0.21622	-0.55994	0.43204	27.6	13111	100
2025-3-27 17:20:41.493	WT901BLE68-01(48591DE3C19B)	-0.518	-1.483	0.163	69.641	178.650	-247.559	-79.66	8.85	-120.67	-69.874	-45.374	-5.586	-0.67300	0.21622	-0.55994	0.43204	27.6	13111	100
2025-3-27 17:20:41.493	WT901BLE68-01(48591DE3C19B)	-0.473	-1.483	0.163	69.641	178.650	-247.559	-79.28	6.77	-122.81	-69.874	-45.374	-5.586	-0.67300	0.21622	-0.55994	0.43204	27.6	13111	100
2025-3-27 17:20:41.554	WT901BLE68-01(48591DE3C19B)	-0.473	-1.336	0.132	72.998	140.747	-234.070	-78.80	4.75	-124.74	-69.874	-45.374	-5.586	-0.37213	0.26639	-0.57416	0.67880	27.6	13111	100
2025-3-27 17:20:41.554	WT901BLE68-01(48591DE3C19B)	-0.358	-1.336	0.132	72.998	140.747	-234.070	-78.22	2.79	-126.48	-69.874	-45.374	-5.586	-0.37213	0.26639	-0.57416	0.67880	27.6	13111	100
2025-3-27 17:20:41.554	WT901BLE68-01(48591DE3C19B)	-0.358	-1.216	0.167	62.683	93.750	-221.375	-77.63	0.87	-127.98	-69.874	-45.374	-5.586	-0.37213	0.26639	-0.57416	0.67880	27.6	13111	100
2025-3-27 17:20:41.554	WT901BLE68-01(48591DE3C19B)	-0.385	-1.216	0.167	62.683	93.750	-221.375	-77.05	-0.99	-129.25	-69.874	-45.374	-5.586	-0.37213	0.26639	-0.57416	0.67880	27.6	13111	100
2025-3-27 17:20:41.562	WT901BLE68-01(48591DE3C19B)	-0.385	-1.235	0.225	47.974	59.509	-209.534	-76.50	-2.82	-130.35	-69.874	-45.374	-5.586	-0.37213	0.26639	-0.57416	0.67880	27.6	13111	100
2025-3-27 17:20:41.562	WT901BLE68-01(48591DE3C19B)	-0.570	-1.235	0.225	47.974	59.509	-209.534	-76.01	-4.62	-131.29	-69.874	-45.374	-5.586	-0.37213	0.26639	-0.57416	0.67880	27.6	13111	100
2025-3-27 17:20:41.562	WT901BLE68-01(48591DE3C19B)	-0.570	-1.324	0.273	39.185	19.653	-193.420	-75.55	-6.36	-132.03	-69.874	-45.374	-5.586	-0.37213	0.26639	-0.57416	0.67880	27.6	13111	100
2025-3-27 17:20:41.562	WT901BLE68-01(48591DE3C19B)	-0.682	-1.324	0.273	39.185	19.653	-193.420	-75.14	-8.05	-132.58	-69.874	-45.374	-5.586	-0.37213	0.26639	-0.57416	0.67880	27.6	13111	100
2025-3-27 17:20:41.614	WT901BLE68-01(48591DE3C19B)	-0.682	-1.337	0.272	39.307	-27.039	-173.584	-74.74	-9.69	-132.89	-69.874	-45.374	-5.586	-0.37213	0.26639	-0.57416	0.67880	27.6	13111	100
2025-3-27 17:20:41.614	WT901BLE68-01(48591DE3C19B)	-0.633	-1.337	0.272	39.307	-27.039	-173.584	-74.38	-11.27	-132.97	-69.874	-45.374	-5.586	-0.37213	0.26639	-0.57416	0.67880	27.6	13111	100
2025-3-27 17:20:41.614	WT901BLE68-01(48591DE3C19B)	-0.633	-1.260	0.203	39.490	-57.739	-152.283	-74.04	-12.78	-132.88	-69.874	-45.374	-5.586	-0.37213	0.26639	-0.57416	0.67880	27.6	13111	100
2025-3-27 17:20:41.614	WT901BLE68-01(48591DE3C19B)	-0.561	-1.260	0.203	39.490	-57.739	-152.283	-73.75	-14.22	-132.63	-69.874	-45.374	-5.586	-0.37213	0.26639	-0.57416	0.67880	27.6	13111	100
2025-3-27 17:20:41.704	WT901BLE68-01(48591DE3C19B)	-0.561	-1.177	0.116	38.330	-67.322	-128.235	-73.49	-15.54	-132.31	-69.874	-45.374	-5.586	-0.37213	0.26639	-0.57416	0.67880	27.6	13111	100
2025-3-27 17:20:41.704	WT901BLE68-01(48591DE3C19B)	-0.564	-1.177	0.116	38.330	-67.322	-128.235	-73.26	-16.75	-131.91	-69.874	-45.374	-5.586	-0.37213	0.26639	-0.57416	0.67880	27.6	13111	100
2025-3-27 17:20:41.704	WT901BLE68-01(48591DE3C19B)	-0.564	-1.082	0.058	37.170	-74.890	-101.624	-73.08	-17.84	-131.43	-69.874	-45.374	-5.586	-0.37213	0.26639	-0.57416	0.67880	27.6	13111	100
2025-3-27 17:20:41.704	WT901BLE68-01(48591DE3C19B)	-0.543	-1.082	0.058	37.170	-74.890	-101.624	-72.93	-18.80	-130.89	-69.874	-45.374	-5.586	-0.37213	0.26639	-0.57416	0.67880	27.6	13111	100
2025-3-27 17:20:41.705	WT901BLE68-01(48591DE3C19B)	-0.543	-0.999	0.038	32.288	-87.830	-75.500	-72.92	-19.54	-130.13	-69.874	-45.374	-5.586	-0.37213	0.26639	-0.57416	0.67880	27.6	13111	100
2025-3-27 17:20:41.705	WT901BLE68-01(48591DE3C19B)	-0.419	-0.999	0.038	32.288	-87.830	-75.500	-72.91	-20.28	-129.36	-69.874	-45.374	-5.586	-0.37213	0.26639	-0.57416	0.67880	27.6	13111	100
2025-3-27 17:20:41.705	WT901BLE68-01(48591DE3C19B)	-0.419	-0.968	0.048	25.635	-93.750	-48.767	-73.03	-20.78	-128.46	-69.874	-45.374	-5.586	-0.37213	0.26639	-0.57416	0.67880	27.6	13111	100
2025-3-27 17:20:41.706	WT901BLE68-01(48591DE3C19B)	-0.328	-0.968	0.048	25.635	-93.750	-48.767	-73.16	-21.27	-127.55	-69.874	-45.374	-5.586	-0.37213	0.26639	-0.57416	0.67880	27.6	13111	100
2025-3-27 17:20:41.735	WT901BLE68-01(48591DE3C19B)	-0.328	-0.972	0.075	20.874	-89.722	-24.597	-73.36	-21.51	-126.60	-69.874	-45.374	-5.586	-0.37213	0.26639	-0.57416	0.67880	27.6	13111	100
2025-3-27 17:20:41.735	WT901BLE68-01(48591DE3C19B)	-0.285	-0.972	0.075	20.874	-89.722	-24.597	-73.55	-21.75	-125.65	-69.874	-45.374	-5.586	-0.37213	0.26639	-0.57416	0.67880	27.6	13111	100
2025-3-27 17:20:41.735	WT901BLE68-01(48591DE3C19B)	-0.285	-0.952	0.103	20.752	-75.562	-3.479	-73.73	-21.75	-124.78	-69.874	-45.374	-5.586	-0.37213	0.26639	-0.57416	0.67880	27.6	13111	100
2025-3-27 17:20:41.735	WT901BLE68-01(48591DE3C19B)	-0.282	-0.952	0.103	20.752	-75.562	-3.479	-73.89	-21.75	-123.91	-69.874	-45.374	-5.586	-0.37213	0.26639	-0.57416	0.67880	27.6	13111	100
2025-3-27 17:20:41.765	WT901BLE68-01(48591DE3C19B)	-0.282	-0.911	0.115	22.034	-56.030	12.756	-73.99	-21.54	-123.21	-36.946	-46.550	-2.646	-0.37213	0.26639	-0.57416	0.67880	27.6	13111	100
2025-3-27 17:20:41.765	WT901BLE68-01(48591DE3C19B)	-0.295	-0.911	0.115	22.034	-56.030	12.756	-74.08	-21.33	-122.50	-36.946	-46.550	-2.646	-0.37213	0.26639	-0.57416	0.67880	27.6	13111	100
2025-3-27 17:20:41.765	WT901BLE68-01(48591DE3C19B)	-0.295	-0.861	0.127	22.522	-37.231	26.917	-74.11	-20.93	-121.96	-36.946	-46.550	-2.646	-0.37213	0.26639	-0.57416	0.67880	27.6	13111	100
2025-3-27 17:20:41.765	WT901BLE68-01(48591DE3C19B)	-0.298	-0.861	0.127	22.522	-37.231	26.917	-74.12	-20.54	-121.42	-36.946	-46.550	-2.646	-0.37213	0.26639	-0.57416	0.67880	27.6	13111	100
2025-3-27 17:20:41.794	WT901BLE68-01(48591DE3C19B)	-0.298	-0.818	0.143	21.912	-17.822	36.926	-74.08	-20.00	-121.06	-36.946	-46.550	-2.646	-0.37213	0.26639	-0.57416	0.67880	27.6	13111	100
2025-3-27 17:20:41.795	WT901BLE68-01(48591DE3C19B)	-0.327	-0.818	0.143	21.912	-17.822	36.926	-74.03	-19.46	-120.71	-36.946	-46.550	-2.646	-0.37213	0.26639	-0.57416	0.67880	27.6	13111	100
2025-3-27 17:20:41.795	WT901BLE68-01(48591DE3C19B)	-0.327	-0.795	0.150	19.897	-2.319	45.715	-73.95	-18.80	-120.49	-36.946	-46.550	-2.646	-0.37213	0.26639	-0.57416	0.67880	27.6	13111	100
2025-3-27 17:20:41.795	WT901BLE68-01(48591DE3C19B)	-0.365	-0.795	0.150	19.897	-2.319	45.715	-73.87	-18.14	-120.29	-36.946	-46.550	-2.646	-0.37213	0.26639	-0.57416	0.67880	27.6	13111	100
2025-3-27 17:20:41.854	WT901BLE68-01(48591DE3C19B)	-0.365	-0.796	0.133	16.846	5.798	52.307	-73.79	-17.40	-120.15	-36.946	-46.550	-2.646	-0.37213	0.26639	-0.57416	0.67880	27.6	13111	100
2025-3-27 17:20:41.854	WT901BLE68-01(48591DE3C19B)	-0.385	-0.796	0.133	16.846	5.798	52.307	-73.71	-16.66	-120.00	-36.946	-46.550	-2.646	-0.37213	0.26639	-0.57416	0.67880	27.6	13111	100
2025-3-27 17:20:41.854	WT901BLE68-01(48591DE3C19B)	-0.385	-0.828	0.085	12.512	6.042	57.922	-73.67	-15.87	-119.86	-36.946	-46.550	-2.646	-0.37213	0.26639	-0.57416	0.67880	27.6	13111	100
2025-3-27 17:20:41.854	WT901BLE68-01(48591DE3C19B)	-0.381	-0.828	0.085	12.512	6.042	57.922	-73.64	-15.08	-119.71	-36.946	-46.550	-2.646	-0.37213	0.26639	-0.57416	0.67880	27.6	13111	100
2025-3-27 17:20:41.886	WT901BLE68-01(48591DE3C19B)	-0.381	-0.868	0.014	7.019	0.610	62.744	-73.68	-14.27	-119.48	-36.946	-46.550	-2.646	-0.37213	0.26639	-0.57416	0.67880	27.6	13111	100
2025-3-27 17:20:41.886	WT901BLE68-01(48591DE3C19B)	-0.371	-0.868	0.014	7.019	0.610	62.744	-73.72	-13.45	-119.26	-36.946	-46.550	-2.646	-0.37213	0.26639	-0.57416	0.67880	27.6	13111	100
2025-3-27 17:20:41.886	WT901BLE68-01(48591DE3C19B)	-0.371	-0.906	-0.022	0.793	-13.794	67.566	-73.87	-12.64	-118.87	-36.946	-46.550	-2.646	-0.37213	0.26639	-0.57416	0.67880	27.6	13111	100
2025-3-27 17:20:41.886	WT901BLE68-01(48591DE3C19B)	-0.373	-0.906	-0.022	0.793	-13.794	67.566	-74.01	-11.83	-118.47	-36.946	-46.550	-2.646	-0.37213	0.26639	-0.57416	0.67880	27.6	13111	100
2025-3-27 17:20:41.918	WT901BLE68-01(48591DE3C19B)	-0.373	-0.975	-0.026	-5.249	-36.743	72.571	-74.26	-11.04	-117.83	-36.946	-46.550	-2.646	-0.37213	0.26639	-0.57416	0.67880	27.6	13111	100
2025-3-27 17:20:41.918	WT901BLE68-01(48591DE3C19B)	-0.344	-0.975	-0.026	-5.249	-36.743	72.571	-74.50	-10.26	-117.19	-36.946	-46.550	-2.646	-0.37213	0.26639	-0.57416	0.67880	27.6	13111	100
2025-3-27 17:20:41.918	WT901BLE68-01(48591DE3C19B)	-0.344	-1.047	-0.023	-8.179	-61.584	76.904	-74.81	-9.50	-116.30	-36.946	-46.550	-2.646	-0.37897	0.37558	-0.48047	0.69595	27.6	13111	100
2025-3-27 17:20:41.918	WT901BLE68-01(48591DE3C19B)	-0.300	-1.047	-0.023	-8.179	-61.584	76.904	-75.11	-8.75	-115.41	-36.946	-46.550	-2.646	-0.37897	0.37558	-0.48047	0.69595	27.6	13111	100
2025-3-27 17:20:41.973	WT901BLE68-01(48591DE3C19B)	-0.300	-1.132	-0.004	-9.949	-78.796	78.064	-75.45	-8.03	-114.34	-36.946	-46.550	-2.646	-0.37897	0.37558	-0.48047	0.69595	27.6	13111	100
2025-3-27 17:20:41.974	WT901BLE68-01(48591DE3C19B)	-0.296	-1.132	-0.004	-9.949	-78.796	78.064	-75.77	-7.32	-113.29	-36.946	-46.550	-2.646	-0.37897	0.37558	-0.48047	0.69595	27.6	13111	100
2025-3-27 17:20:41.974	WT901BLE68-01(48591DE3C19B)	-0.296	-1.263	0.072	-9.827	-84.351	80.261	-76.07	-6.60	-112.18	-36.946	-46.550	-2.646	-0.37897	0.37558	-0.48047	0.69595	27.6	13111	100
2025-3-27 17:20:41.974	WT901BLE68-01(48591DE3C19B)	-0.330	-1.263	0.072	-9.827	-84.351	80.261	-76.37	-5.88	-111.09	-36.946	-46.550	-2.646	-0.37897	0.37558	-0.48047	0.69595	27.6	13111	100
2025-3-27 17:20:42.4	WT901BLE68-01(48591DE3C19B)	-0.330	-1.297	0.109	-1.892	-87.708	82.886	-76.56	-5.15	-109.97	-36.946	-46.550	-2.646	-0.37897	0.37558	-0.48047	0.69595	27.6	13111	100
2025-3-27 17:20:42.5	WT901BLE68-01(48591DE3C19B)	-0.260	-1.297	0.109	-1.892	-87.708	82.886	-76.74	-4.42	-108.86	-36.946	-46.550	-2.646	-0.37897	0.37558	-0.48047	0.69595	27.6	13111	100
2025-3-27 17:20:42.5	WT901BLE68-01(48591DE3C19B)	-0.260	-1.266	0.083	-3.540	-80.627	84.167	-76.92	-3.66	-107.83	-36.946	-46.550	-2.646	-0.37897	0.37558	-0.48047	0.69595	27.6	13111	100
