time	DeviceName	AccX(g)	AccY(g)	AccZ(g)	AsX(°/s)	AsY(°/s)	AsZ(°/s)	AngleX(°)	AngleY(°)	AngleZ(°)	HX(uT)	HY(uT)	HZ(uT)	Q0()	Q1()	Q2()	Q3()	Temperature(°C)	Version()	Battery level(%)
2025-3-27 17:43:50.221	WT901BLE68-01(48591DE3C19B)	-0.292	-0.926	0.244	-1.892	-3.784	6.470	-75.21	16.15	-97.81	-106.428	-26.068	29.204	0.58026	-0.31570	0.52786	-0.53375	30.1	13111	100
2025-3-27 17:43:50.221	WT901BLE68-01(48591DE3C19B)	-0.292	-0.928	0.244	-2.075	-4.150	7.813	-75.21	16.22	-97.78	-106.428	-26.068	29.204	0.58026	-0.31570	0.52786	-0.53375	30.1	13111	100
2025-3-27 17:43:50.221	WT901BLE68-01(48591DE3C19B)	-0.279	-0.928	0.244	-2.075	-4.150	7.813	-75.21	16.29	-97.76	-106.428	-26.068	29.204	0.58026	-0.31570	0.52786	-0.53375	30.1	13111	100
2025-3-27 17:43:50.221	WT901BLE68-01(48591DE3C19B)	-0.279	-0.924	0.241	-2.014	-3.662	9.155	-75.22	16.36	-97.73	-106.428	-26.068	29.204	0.58026	-0.31570	0.52786	-0.53375	30.1	13111	100
2025-3-27 17:43:50.222	WT901BLE68-01(48591DE3C19B)	-0.271	-0.924	0.241	-2.014	-3.662	9.155	-75.22	16.45	-97.71	-106.526	-26.656	29.008	0.58026	-0.31570	0.52786	-0.53375	30.1	13111	100
2025-3-27 17:43:50.222	WT901BLE68-01(48591DE3C19B)	-0.271	-0.923	0.238	-1.953	-1.648	10.254	-75.22	16.54	-97.69	-106.526	-26.656	29.008	0.58026	-0.31570	0.52786	-0.53375	30.1	13111	100
2025-3-27 17:43:50.222	WT901BLE68-01(48591DE3C19B)	-0.269	-0.923	0.238	-1.953	-1.648	10.254	-75.22	16.63	-97.68	-106.526	-26.656	29.008	0.58026	-0.31570	0.52786	-0.53375	30.1	13111	100
2025-3-27 17:43:50.222	WT901BLE68-01(48591DE3C19B)	-0.269	-0.923	0.235	-1.831	0.366	10.986	-75.23	16.74	-97.68	-106.526	-26.656	29.008	0.58026	-0.31570	0.52786	-0.53375	30.1	13111	100
2025-3-27 17:43:50.223	WT901BLE68-01(48591DE3C19B)	-0.269	-0.923	0.235	-1.831	0.366	10.986	-75.25	16.84	-97.69	-106.526	-26.656	29.008	0.58026	-0.31570	0.52786	-0.53375	30.1	13111	100
2025-3-27 17:43:50.223	WT901BLE68-01(48591DE3C19B)	-0.269	-0.924	0.233	-1.831	1.770	11.475	-75.26	16.95	-97.71	-106.526	-26.656	29.008	0.58026	-0.31570	0.52786	-0.53375	30.1	13111	100
2025-3-27 17:43:50.223	WT901BLE68-01(48591DE3C19B)	-0.270	-0.924	0.233	-1.831	1.770	11.475	-75.27	17.07	-97.73	-106.526	-26.656	29.008	0.58026	-0.31570	0.52786	-0.53375	30.1	13111	100
2025-3-27 17:43:50.224	WT901BLE68-01(48591DE3C19B)	-0.270	-0.925	0.232	-1.587	2.441	11.353	-75.28	17.18	-97.76	-106.526	-26.656	29.008	0.58026	-0.31570	0.52786	-0.53375	30.1	13111	100
2025-3-27 17:43:50.282	WT901BLE68-01(48591DE3C19B)	-0.267	-0.925	0.232	-1.587	2.441	11.353	-75.30	17.29	-97.78	-106.526	-26.656	29.008	0.58026	-0.31570	0.52786	-0.53375	30.1	13111	100
2025-3-27 17:43:50.282	WT901BLE68-01(48591DE3C19B)	-0.267	-0.926	0.233	-1.526	2.930	10.925	-75.32	17.40	-97.82	-106.526	-26.656	29.008	0.58026	-0.31570	0.52786	-0.53375	30.1	13111	100
2025-3-27 17:43:50.282	WT901BLE68-01(48591DE3C19B)	-0.262	-0.926	0.233	-1.526	2.930	10.925	-75.33	17.50	-97.85	-106.526	-26.656	29.008	0.58026	-0.31570	0.52786	-0.53375	30.1	13111	100
2025-3-27 17:43:50.282	WT901BLE68-01(48591DE3C19B)	-0.262	-0.927	0.232	-1.221	4.089	10.254	-75.35	17.61	-97.89	-106.526	-26.656	29.008	0.58026	-0.31570	0.52786	-0.53375	30.1	13111	100
2025-3-27 17:43:50.371	WT901BLE68-01(48591DE3C19B)	-0.258	-0.927	0.232	-1.221	4.089	10.254	-75.37	17.70	-97.94	-106.526	-26.656	29.008	0.58026	-0.31570	0.52786	-0.53375	30.1	13111	100
2025-3-27 17:43:50.371	WT901BLE68-01(48591DE3C19B)	-0.258	-0.926	0.229	-1.160	5.920	9.216	-75.39	17.80	-98.00	-106.526	-26.656	29.008	0.58026	-0.31570	0.52786	-0.53375	30.1	13111	100
2025-3-27 17:43:50.371	WT901BLE68-01(48591DE3C19B)	-0.259	-0.926	0.229	-1.160	5.920	9.216	-75.42	17.90	-98.07	-106.526	-26.656	29.008	0.58026	-0.31570	0.52786	-0.53375	30.1	13111	100
2025-3-27 17:43:50.371	WT901BLE68-01(48591DE3C19B)	-0.259	-0.933	0.229	-1.038	7.874	7.935	-75.44	17.98	-98.15	-106.526	-26.656	29.008	0.58026	-0.31570	0.52786	-0.53375	30.1	13111	100
2025-3-27 17:43:50.372	WT901BLE68-01(48591DE3C19B)	-0.262	-0.933	0.229	-1.038	7.874	7.935	-75.47	18.07	-98.25	-106.526	-26.656	29.008	0.58026	-0.31570	0.52786	-0.53375	30.1	13111	100
2025-3-27 17:43:50.372	WT901BLE68-01(48591DE3C19B)	-0.262	-0.932	0.227	-0.488	9.216	6.592	-75.50	18.14	-98.34	-106.526	-26.656	29.008	0.58026	-0.31570	0.52786	-0.53375	30.1	13111	100
2025-3-27 17:43:50.372	WT901BLE68-01(48591DE3C19B)	-0.261	-0.932	0.227	-0.488	9.216	6.592	-75.54	18.22	-98.45	-106.526	-26.656	29.008	0.58026	-0.31570	0.52786	-0.53375	30.1	13111	100
2025-3-27 17:43:50.372	WT901BLE68-01(48591DE3C19B)	-0.261	-0.927	0.226	-0.244	10.071	5.188	-75.57	18.28	-98.57	-106.526	-26.656	29.008	0.58026	-0.31570	0.52786	-0.53375	30.1	13111	100
2025-3-27 17:43:50.402	WT901BLE68-01(48591DE3C19B)	-0.260	-0.927	0.226	-0.244	10.071	5.188	-75.60	18.34	-98.69	-106.526	-26.656	29.008	0.58026	-0.31570	0.52786	-0.53375	30.1	13111	100
2025-3-27 17:43:50.402	WT901BLE68-01(48591DE3C19B)	-0.260	-0.917	0.223	0.183	10.742	4.028	-75.64	18.39	-98.82	-106.526	-26.656	29.008	0.58026	-0.31570	0.52786	-0.53375	30.1	13111	100
2025-3-27 17:43:50.402	WT901BLE68-01(48591DE3C19B)	-0.258	-0.917	0.223	0.183	10.742	4.028	-75.67	18.44	-98.95	-106.526	-26.656	29.008	0.58026	-0.31570	0.52786	-0.53375	30.1	13111	100
2025-3-27 17:43:50.402	WT901BLE68-01(48591DE3C19B)	-0.258	-0.899	0.219	0.183	11.292	2.869	-75.70	18.48	-99.09	-106.526	-26.656	29.008	0.58026	-0.31570	0.52786	-0.53375	30.1	13111	100
2025-3-27 17:43:50.431	WT901BLE68-01(48591DE3C19B)	-0.260	-0.899	0.219	0.183	11.292	2.869	-75.73	18.52	-99.22	-106.526	-26.656	29.008	0.57974	-0.29541	0.54410	-0.52957	30.1	13111	100
2025-3-27 17:43:50.431	WT901BLE68-01(48591DE3C19B)	-0.260	-0.894	0.216	0.000	11.719	1.465	-75.77	18.56	-99.37	-106.526	-26.656	29.008	0.57974	-0.29541	0.54410	-0.52957	30.1	13111	100
2025-3-27 17:43:50.431	WT901BLE68-01(48591DE3C19B)	-0.263	-0.894	0.216	0.000	11.719	1.465	-75.81	18.58	-99.51	-106.526	-26.656	29.008	0.57974	-0.29541	0.54410	-0.52957	30.1	13111	100
2025-3-27 17:43:50.431	WT901BLE68-01(48591DE3C19B)	-0.263	-0.895	0.218	-0.183	11.536	-0.366	-75.86	18.59	-99.66	-106.526	-26.656	29.008	0.57974	-0.29541	0.54410	-0.52957	30.1	13111	100
2025-3-27 17:43:50.520	WT901BLE68-01(48591DE3C19B)	-0.266	-0.895	0.218	-0.183	11.536	-0.366	-75.89	18.60	-99.81	-106.526	-26.656	29.008	0.57974	-0.29541	0.54410	-0.52957	30.1	13111	100
2025-3-27 17:43:50.520	WT901BLE68-01(48591DE3C19B)	-0.266	-0.906	0.220	-0.183	11.047	-2.808	-75.94	18.59	-99.96	-106.526	-26.656	29.008	0.57974	-0.29541	0.54410	-0.52957	30.1	13111	100
2025-3-27 17:43:50.520	WT901BLE68-01(48591DE3C19B)	-0.271	-0.906	0.220	-0.183	11.047	-2.808	-75.98	18.58	-100.11	-106.526	-26.656	29.008	0.57974	-0.29541	0.54410	-0.52957	30.1	13111	100
2025-3-27 17:43:50.520	WT901BLE68-01(48591DE3C19B)	-0.271	-0.927	0.222	0.122	10.620	-5.676	-76.02	18.54	-100.27	-106.526	-26.656	29.008	0.57974	-0.29541	0.54410	-0.52957	30.1	13111	100
2025-3-27 17:43:50.522	WT901BLE68-01(48591DE3C19B)	-0.272	-0.927	0.222	0.122	10.620	-5.676	-76.06	18.50	-100.42	-106.526	-26.656	29.008	0.57974	-0.29541	0.54410	-0.52957	30.1	13111	100
2025-3-27 17:43:50.522	WT901BLE68-01(48591DE3C19B)	-0.272	-0.944	0.224	0.854	10.620	-8.606	-76.10	18.44	-100.57	-106.526	-26.656	29.008	0.57974	-0.29541	0.54410	-0.52957	30.1	13111	100
2025-3-27 17:43:50.522	WT901BLE68-01(48591DE3C19B)	-0.267	-0.944	0.224	0.854	10.620	-8.606	-76.14	18.36	-100.73	-106.526	-26.656	29.008	0.57974	-0.29541	0.54410	-0.52957	30.1	13111	100
2025-3-27 17:43:50.522	WT901BLE68-01(48591DE3C19B)	-0.267	-0.955	0.222	1.831	11.841	-11.414	-76.17	18.28	-100.90	-106.526	-26.656	29.008	0.57974	-0.29541	0.54410	-0.52957	30.1	13111	100
2025-3-27 17:43:50.582	WT901BLE68-01(48591DE3C19B)	-0.271	-0.955	0.222	1.831	11.841	-11.414	-76.20	18.18	-101.09	-106.526	-26.656	29.008	0.57974	-0.29541	0.54410	-0.52957	30.1	13111	100
2025-3-27 17:43:50.583	WT901BLE68-01(48591DE3C19B)	-0.271	-0.951	0.222	2.808	14.160	-13.977	-76.23	18.08	-101.28	-106.526	-26.656	29.008	0.57974	-0.29541	0.54410	-0.52957	30.1	13111	100
2025-3-27 17:43:50.583	WT901BLE68-01(48591DE3C19B)	-0.280	-0.951	0.222	2.808	14.160	-13.977	-76.26	17.96	-101.49	-106.526	-26.656	29.008	0.57974	-0.29541	0.54410	-0.52957	30.1	13111	100
2025-3-27 17:43:50.583	WT901BLE68-01(48591DE3C19B)	-0.280	-0.945	0.217	2.991	15.259	-16.296	-76.29	17.84	-101.70	-106.526	-26.656	29.008	0.57974	-0.29541	0.54410	-0.52957	30.1	13111	100
2025-3-27 17:43:50.584	WT901BLE68-01(48591DE3C19B)	-0.288	-0.945	0.217	2.991	15.259	-16.296	-76.32	17.70	-101.93	-106.526	-26.656	29.008	0.57974	-0.29541	0.54410	-0.52957	30.1	13111	100
2025-3-27 17:43:50.584	WT901BLE68-01(48591DE3C19B)	-0.288	-0.945	0.214	2.747	15.076	-18.616	-76.35	17.55	-102.16	-106.526	-26.656	29.008	0.57974	-0.29541	0.54410	-0.52957	30.1	13111	100
2025-3-27 17:43:50.584	WT901BLE68-01(48591DE3C19B)	-0.302	-0.945	0.214	2.747	15.076	-18.616	-76.39	17.39	-102.38	-105.840	-25.578	26.460	0.57974	-0.29541	0.54410	-0.52957	30.1	13111	100
2025-3-27 17:43:50.584	WT901BLE68-01(48591DE3C19B)	-0.302	-0.941	0.211	2.441	12.878	-21.118	-76.42	17.20	-102.59	-105.840	-25.578	26.460	0.57974	-0.29541	0.54410	-0.52957	30.1	13111	100
2025-3-27 17:43:50.641	WT901BLE68-01(48591DE3C19B)	-0.307	-0.941	0.211	2.441	12.878	-21.118	-76.45	17.02	-102.80	-105.840	-25.578	26.460	0.57974	-0.29541	0.54410	-0.52957	30.1	13111	100
2025-3-27 17:43:50.642	WT901BLE68-01(48591DE3C19B)	-0.307	-0.939	0.211	1.465	8.911	-24.231	-76.49	16.80	-102.98	-105.840	-25.578	26.460	0.57974	-0.29541	0.54410	-0.52957	30.1	13111	100
2025-3-27 17:43:50.642	WT901BLE68-01(48591DE3C19B)	-0.309	-0.939	0.211	1.465	8.911	-24.231	-76.51	16.59	-103.16	-105.840	-25.578	26.460	0.57974	-0.29541	0.54410	-0.52957	30.1	13111	100
2025-3-27 17:43:50.642	WT901BLE68-01(48591DE3C19B)	-0.309	-0.939	0.211	1.099	5.615	-27.588	-76.54	16.34	-103.31	-105.840	-25.578	26.460	0.57974	-0.29541	0.54410	-0.52957	30.1	13111	100
2025-3-27 17:43:50.673	WT901BLE68-01(48591DE3C19B)	-0.315	-0.939	0.211	1.099	5.615	-27.588	-76.57	16.08	-103.46	-105.840	-25.578	26.460	0.57974	-0.29541	0.54410	-0.52957	30.1	13111	100
2025-3-27 17:43:50.673	WT901BLE68-01(48591DE3C19B)	-0.315	-0.935	0.212	0.732	2.136	-30.640	-76.59	15.80	-103.58	-105.840	-25.578	26.460	0.57974	-0.29541	0.54410	-0.52957	30.1	13111	100
2025-3-27 17:43:50.673	WT901BLE68-01(48591DE3C19B)	-0.320	-0.935	0.212	0.732	2.136	-30.640	-76.61	15.51	-103.70	-105.840	-25.578	26.460	0.57974	-0.29541	0.54410	-0.52957	30.1	13111	100
2025-3-27 17:43:50.673	WT901BLE68-01(48591DE3C19B)	-0.320	-0.938	0.210	0.549	-1.648	-32.959	-76.62	15.20	-103.79	-105.840	-25.578	26.460	0.57974	-0.29541	0.54410	-0.52957	30.1	13111	100
2025-3-27 17:43:50.701	WT901BLE68-01(48591DE3C19B)	-0.322	-0.938	0.210	0.549	-1.648	-32.959	-76.64	14.89	-103.88	-105.840	-25.578	26.460	0.57974	-0.29541	0.54410	-0.52957	30.1	13111	100
2025-3-27 17:43:50.702	WT901BLE68-01(48591DE3C19B)	-0.322	-0.923	0.209	0.671	-5.371	-34.363	-76.64	14.56	-103.93	-105.840	-25.578	26.460	0.57974	-0.29541	0.54410	-0.52957	30.1	13111	100
2025-3-27 17:43:50.702	WT901BLE68-01(48591DE3C19B)	-0.326	-0.923	0.209	0.671	-5.371	-34.363	-76.64	14.23	-103.99	-105.840	-25.578	26.460	0.57974	-0.29541	0.54410	-0.52957	30.1	13111	100
2025-3-27 17:43:50.702	WT901BLE68-01(48591DE3C19B)	-0.326	-0.916	0.206	0.610	-8.606	-34.912	-76.64	13.89	-104.01	-105.840	-25.578	26.460	0.57974	-0.29541	0.54410	-0.52957	30.1	13111	100
2025-3-27 17:43:50.762	WT901BLE68-01(48591DE3C19B)	-0.328	-0.916	0.206	0.610	-8.606	-34.912	-76.63	13.56	-104.03	-105.840	-25.578	26.460	0.57974	-0.29541	0.54410	-0.52957	30.1	13111	100
2025-3-27 17:43:50.763	WT901BLE68-01(48591DE3C19B)	-0.328	-0.918	0.205	0.610	-11.353	-34.607	-76.62	13.22	-104.02	-105.840	-25.578	26.460	0.57974	-0.29541	0.54410	-0.52957	30.1	13111	100
2025-3-27 17:43:50.763	WT901BLE68-01(48591DE3C19B)	-0.326	-0.918	0.205	0.610	-11.353	-34.607	-76.61	12.89	-104.02	-105.840	-25.578	26.460	0.57974	-0.29541	0.54410	-0.52957	30.1	13111	100
2025-3-27 17:43:50.763	WT901BLE68-01(48591DE3C19B)	-0.326	-0.927	0.205	1.526	-13.245	-33.752	-76.59	12.56	-103.99	-105.840	-25.578	26.460	0.57974	-0.29541	0.54410	-0.52957	30.1	13111	100
2025-3-27 17:43:50.791	WT901BLE68-01(48591DE3C19B)	-0.324	-0.927	0.205	1.526	-13.245	-33.752	-76.56	12.24	-103.96	-105.840	-25.578	26.460	0.53271	-0.31342	0.53683	-0.57416	30.1	13111	100
2025-3-27 17:43:50.791	WT901BLE68-01(48591DE3C19B)	-0.324	-0.932	0.203	2.930	-13.184	-32.349	-76.53	11.93	-103.93	-105.840	-25.578	26.460	0.53271	-0.31342	0.53683	-0.57416	30.1	13111	100
2025-3-27 17:43:50.791	WT901BLE68-01(48591DE3C19B)	-0.323	-0.932	0.203	2.930	-13.184	-32.349	-76.49	11.63	-103.90	-105.840	-25.578	26.460	0.53271	-0.31342	0.53683	-0.57416	30.1	13111	100
2025-3-27 17:43:50.791	WT901BLE68-01(48591DE3C19B)	-0.323	-0.935	0.201	4.211	-11.963	-30.701	-76.44	11.34	-103.88	-105.840	-25.578	26.460	0.53271	-0.31342	0.53683	-0.57416	30.1	13111	100
2025-3-27 17:43:50.821	WT901BLE68-01(48591DE3C19B)	-0.324	-0.935	0.201	4.211	-11.963	-30.701	-76.39	11.06	-103.86	-105.840	-25.578	26.460	0.53271	-0.31342	0.53683	-0.57416	30.1	13111	100
2025-3-27 17:43:50.821	WT901BLE68-01(48591DE3C19B)	-0.324	-0.955	0.193	5.310	-10.010	-28.992	-76.34	10.80	-103.85	-105.840	-25.578	26.460	0.53271	-0.31342	0.53683	-0.57416	30.1	13111	100
2025-3-27 17:43:50.821	WT901BLE68-01(48591DE3C19B)	-0.326	-0.955	0.193	5.310	-10.010	-28.992	-76.29	10.54	-103.84	-105.840	-25.578	26.460	0.53271	-0.31342	0.53683	-0.57416	30.1	13111	100
2025-3-27 17:43:50.821	WT901BLE68-01(48591DE3C19B)	-0.326	-0.960	0.185	6.714	-7.385	-27.405	-76.23	10.31	-103.86	-105.840	-25.578	26.460	0.53271	-0.31342	0.53683	-0.57416	30.1	13111	100
2025-3-27 17:43:50.882	WT901BLE68-01(48591DE3C19B)	-0.330	-0.960	0.185	6.714	-7.385	-27.405	-76.17	10.07	-103.88	-105.840	-25.578	26.460	0.53271	-0.31342	0.53683	-0.57416	30.1	13111	100
2025-3-27 17:43:50.882	WT901BLE68-01(48591DE3C19B)	-0.330	-0.953	0.180	7.202	-5.371	-26.001	-76.11	9.86	-103.91	-105.840	-25.578	26.460	0.53271	-0.31342	0.53683	-0.57416	30.1	13111	100
2025-3-27 17:43:50.882	WT901BLE68-01(48591DE3C19B)	-0.342	-0.953	0.180	7.202	-5.371	-26.001	-76.05	9.65	-103.94	-105.840	-25.578	26.460	0.53271	-0.31342	0.53683	-0.57416	30.1	13111	100
2025-3-27 17:43:50.882	WT901BLE68-01(48591DE3C19B)	-0.342	-0.943	0.177	6.897	-5.371	-24.963	-75.99	9.45	-103.97	-105.840	-25.578	26.460	0.53271	-0.31342	0.53683	-0.57416	30.1	13111	100
2025-3-27 17:43:50.912	WT901BLE68-01(48591DE3C19B)	-0.356	-0.943	0.177	6.897	-5.371	-24.963	-75.94	9.25	-104.00	-105.840	-25.578	26.460	0.53271	-0.31342	0.53683	-0.57416	30.1	13111	100
2025-3-27 17:43:50.912	WT901BLE68-01(48591DE3C19B)	-0.356	-0.934	0.171	6.226	-7.751	-24.231	-75.88	9.05	-104.00	-105.840	-25.578	26.460	0.53271	-0.31342	0.53683	-0.57416	30.1	13111	100
2025-3-27 17:43:50.912	WT901BLE68-01(48591DE3C19B)	-0.367	-0.934	0.171	6.226	-7.751	-24.231	-75.83	8.86	-104.01	-105.840	-25.578	26.460	0.53271	-0.31342	0.53683	-0.57416	30.1	13111	100
2025-3-27 17:43:50.912	WT901BLE68-01(48591DE3C19B)	-0.367	-0.924	0.162	5.127	-13.428	-23.560	-75.79	8.66	-103.95	-105.840	-25.578	26.460	0.53271	-0.31342	0.53683	-0.57416	30.1	13111	100
2025-3-27 17:43:50.972	WT901BLE68-01(48591DE3C19B)	-0.380	-0.924	0.162	5.127	-13.428	-23.560	-75.74	8.47	-103.90	-105.840	-25.578	26.460	0.53271	-0.31342	0.53683	-0.57416	30.1	13111	100
2025-3-27 17:43:50.972	WT901BLE68-01(48591DE3C19B)	-0.380	-0.914	0.153	4.211	-21.851	-23.560	-75.70	8.26	-103.77	-105.840	-25.578	26.460	0.53271	-0.31342	0.53683	-0.57416	30.1	13111	100
2025-3-27 17:43:50.972	WT901BLE68-01(48591DE3C19B)	-0.390	-0.914	0.153	4.211	-21.851	-23.560	-75.65	8.04	-103.63	-105.840	-25.578	26.460	0.53271	-0.31342	0.53683	-0.57416	30.1	13111	100
2025-3-27 17:43:50.972	WT901BLE68-01(48591DE3C19B)	-0.390	-0.910	0.148	2.930	-32.532	-23.743	-75.60	7.81	-103.39	-105.840	-25.578	26.460	0.53271	-0.31342	0.53683	-0.57416	30.1	13111	100
2025-3-27 17:43:51.31	WT901BLE68-01(48591DE3C19B)	-0.400	-0.910	0.148	2.930	-32.532	-23.743	-75.56	7.58	-103.15	-105.840	-25.578	26.460	0.53271	-0.31342	0.53683	-0.57416	30.1	13111	100
2025-3-27 17:43:51.31	WT901BLE68-01(48591DE3C19B)	-0.400	-0.912	0.143	1.831	-44.495	-24.231	-75.51	7.31	-102.79	-105.938	-34.594	28.224	0.53271	-0.31342	0.53683	-0.57416	30.1	13111	100
2025-3-27 17:43:51.31	WT901BLE68-01(48591DE3C19B)	-0.399	-0.912	0.143	1.831	-44.495	-24.231	-75.47	7.05	-102.43	-105.938	-34.594	28.224	0.53271	-0.31342	0.53683	-0.57416	30.1	13111	100
2025-3-27 17:43:51.31	WT901BLE68-01(48591DE3C19B)	-0.399	-0.925	0.134	0.977	-57.190	-24.597	-75.43	6.75	-101.95	-105.938	-34.594	28.224	0.53271	-0.31342	0.53683	-0.57416	30.1	13111	100
2025-3-27 17:43:51.38	WT901BLE68-01(48591DE3C19B)	-0.389	-0.925	0.134	0.977	-57.190	-24.597	-75.38	6.46	-101.48	-105.938	-34.594	28.224	0.53271	-0.31342	0.53683	-0.57416	30.1	13111	100
2025-3-27 17:43:51.38	WT901BLE68-01(48591DE3C19B)	-0.366	-0.942	0.123	0.549	-67.871	-24.353	-75.34	6.15	-100.89	-105.938	-34.594	28.224	0.53271	-0.31342	0.53683	-0.57416	30.1	13111	100
2025-3-27 17:43:51.38	WT901BLE68-01(48591DE3C19B)	-0.366	-0.942	0.117	0.793	-73.730	-23.438	-75.29	5.83	-100.27	-105.938	-34.594	28.224	0.53271	-0.31342	0.53683	-0.57416	30.1	13111	100
2025-3-27 17:43:51.39	WT901BLE68-01(48591DE3C19B)	-0.344	-0.942	0.117	0.793	-73.730	-23.438	-75.25	5.51	-99.63	-105.938	-34.594	28.224	0.53271	-0.31342	0.53683	-0.57416	30.1	13111	100
2025-3-27 17:43:51.92	WT901BLE68-01(48591DE3C19B)	-0.344	-0.919	0.119	0.854	-74.036	-21.729	-75.21	5.20	-98.98	-105.938	-34.594	28.224	0.53271	-0.31342	0.53683	-0.57416	30.1	13111	100
2025-3-27 17:43:51.92	WT901BLE68-01(48591DE3C19B)	-0.324	-0.919	0.119	0.854	-74.036	-21.729	-75.18	4.90	-98.33	-105.938	-34.594	28.224	0.53271	-0.31342	0.53683	-0.57416	30.1	13111	100
2025-3-27 17:43:51.92	WT901BLE68-01(48591DE3C19B)	-0.324	-0.902	0.150	0.793	-70.801	-19.226	-75.15	4.62	-97.69	-105.938	-34.594	28.224	0.53271	-0.31342	0.53683	-0.57416	30.1	13111	100
2025-3-27 17:43:51.92	WT901BLE68-01(48591DE3C19B)	-0.294	-0.902	0.150	0.793	-70.801	-19.226	-75.13	4.35	-97.06	-105.938	-34.594	28.224	0.53271	-0.31342	0.53683	-0.57416	30.1	13111	100
2025-3-27 17:43:51.152	WT901BLE68-01(48591DE3C19B)	-0.294	-0.915	0.170	1.709	-61.401	-15.991	-75.10	4.11	-96.48	-105.938	-34.594	28.224	0.53271	-0.31342	0.53683	-0.57416	30.1	13111	100
2025-3-27 17:43:51.152	WT901BLE68-01(48591DE3C19B)	-0.268	-0.915	0.170	1.709	-61.401	-15.991	-75.08	3.90	-95.93	-105.938	-34.594	28.224	0.53271	-0.31342	0.53683	-0.57416	30.1	13111	100
2025-3-27 17:43:51.152	WT901BLE68-01(48591DE3C19B)	-0.268	-0.945	0.171	4.822	-44.983	-12.878	-75.05	3.72	-95.46	-105.938	-34.594	28.224	0.53271	-0.31342	0.53683	-0.57416	30.1	13111	100
2025-3-27 17:43:51.152	WT901BLE68-01(48591DE3C19B)	-0.263	-0.945	0.171	4.822	-44.983	-12.878	-75.01	3.58	-95.06	-105.938	-34.594	28.224	0.53271	-0.31342	0.53683	-0.57416	30.1	13111	100
2025-3-27 17:43:51.152	WT901BLE68-01(48591DE3C19B)	-0.263	-1.003	0.173	8.972	-26.062	-11.230	-74.95	3.47	-94.76	-105.938	-34.594	28.224	0.53271	-0.31342	0.53683	-0.57416	30.1	13111	100
2025-3-27 17:43:51.152	WT901BLE68-01(48591DE3C19B)	-0.306	-1.003	0.173	8.972	-26.062	-11.230	-74.88	3.38	-94.55	-105.938	-34.594	28.224	0.53271	-0.31342	0.53683	-0.57416	30.1	13111	100
2025-3-27 17:43:51.153	WT901BLE68-01(48591DE3C19B)	-0.306	-1.045	0.195	14.282	-13.489	-10.925	-74.78	3.32	-94.39	-105.938	-34.594	28.224	0.53271	-0.31342	0.53683	-0.57416	30.1	13111	100
2025-3-27 17:43:51.153	WT901BLE68-01(48591DE3C19B)	-0.360	-1.045	0.195	14.282	-13.489	-10.925	-74.67	3.26	-94.30	-105.938	-34.594	28.224	0.53271	-0.31342	0.53683	-0.57416	30.1	13111	100
2025-3-27 17:43:51.212	WT901BLE68-01(48591DE3C19B)	-0.360	-1.056	0.203	18.494	-13.184	-10.376	-74.53	3.21	-94.20	-105.938	-34.594	28.224	0.53271	-0.31342	0.53683	-0.57416	30.1	13111	100
2025-3-27 17:43:51.212	WT901BLE68-01(48591DE3C19B)	-0.373	-1.056	0.203	18.494	-13.184	-10.376	-74.37	3.17	-94.11	-105.938	-34.594	28.224	0.53271	-0.31342	0.53683	-0.57416	30.1	13111	100
2025-3-27 17:43:51.212	WT901BLE68-01(48591DE3C19B)	-0.373	-1.085	0.176	18.982	-20.203	-9.338	-74.21	3.12	-93.98	-105.938	-34.594	28.224	0.55576	-0.39542	0.45581	-0.57175	30.1	13111	100
2025-3-27 17:43:51.212	WT901BLE68-01(48591DE3C19B)	-0.349	-1.085	0.176	18.982	-20.203	-9.338	-74.05	3.07	-93.82	-105.938	-34.594	28.224	0.55576	-0.39542	0.45581	-0.57175	30.1	13111	100
2025-3-27 17:43:51.241	WT901BLE68-01(48591DE3C19B)	-0.349	-1.293	0.122	9.155	-23.987	-10.376	-73.93	3.00	-93.64	-105.938	-34.594	28.224	0.55576	-0.39542	0.45581	-0.57175	30.1	13111	100
2025-3-27 17:43:51.241	WT901BLE68-01(48591DE3C19B)	-0.339	-1.293	0.122	9.155	-23.987	-10.376	-73.87	2.93	-93.44	-105.938	-34.594	28.224	0.55576	-0.39542	0.45581	-0.57175	30.1	13111	100
2025-3-27 17:43:51.241	WT901BLE68-01(48591DE3C19B)	-1.358	-1.759	0.091	-2.380	-20.813	-9.521	-73.87	2.86	-93.26	-105.938	-34.594	28.224	0.55576	-0.39542	0.45581	-0.57175	30.1	13111	100
2025-3-27 17:43:51.241	WT901BLE68-01(48591DE3C19B)	-0.343	-7.037	0.366	-2.380	-20.813	-9.521	-73.94	2.79	-93.09	-105.938	-34.594	28.224	0.55576	-0.39542	0.45581	-0.57175	30.1	13111	100
2025-3-27 17:43:51.272	WT901BLE68-01(48591DE3C19B)	-0.343	-1.689	0.083	17.883	-9.338	-11.230	-73.92	2.71	-92.98	-105.938	-34.594	28.224	0.55576	-0.39542	0.45581	-0.57175	30.1	13111	100
2025-3-27 17:43:51.272	WT901BLE68-01(48591DE3C19B)	-0.294	-1.689	0.083	17.883	-9.338	-11.230	-73.80	2.64	-92.93	-105.938	-34.594	28.224	0.55576	-0.39542	0.45581	-0.57175	30.1	13111	100
2025-3-27 17:43:51.272	WT901BLE68-01(48591DE3C19B)	-0.294	-0.901	0.124	15.381	-3.296	6.409	-73.70	2.66	-92.88	-105.938	-34.594	28.224	0.55576	-0.39542	0.45581	-0.57175	30.1	13111	100
2025-3-27 17:43:51.272	WT901BLE68-01(48591DE3C19B)	-0.213	-0.901	0.124	15.381	-3.296	6.409	-73.61	2.78	-92.83	-105.938	-34.594	28.224	0.55576	-0.39542	0.45581	-0.57175	30.1	13111	100
2025-3-27 17:43:51.340	WT901BLE68-01(48591DE3C19B)	-0.213	-0.434	0.179	-14.160	-7.568	20.020	-73.66	2.96	-92.75	-105.938	-34.594	28.224	0.55576	-0.39542	0.45581	-0.57175	30.1	13111	100
2025-3-27 17:43:51.340	WT901BLE68-01(48591DE3C19B)	-0.248	-0.434	0.179	-14.160	-7.568	20.020	-73.86	3.20	-92.62	-105.938	-34.594	28.224	0.55576	-0.39542	0.45581	-0.57175	30.1	13111	100
2025-3-27 17:43:51.340	WT901BLE68-01(48591DE3C19B)	-0.248	-0.581	0.231	-41.626	-29.602	30.212	-74.18	3.46	-92.38	-105.938	-34.594	28.224	0.55576	-0.39542	0.45581	-0.57175	30.1	13111	100
2025-3-27 17:43:51.340	WT901BLE68-01(48591DE3C19B)	-0.303	-0.581	0.231	-41.626	-29.602	30.212	-74.62	3.74	-92.02	-105.938	-34.594	28.224	0.55576	-0.39542	0.45581	-0.57175	30.1	13111	100
2025-3-27 17:43:51.362	WT901BLE68-01(48591DE3C19B)	-0.303	-0.824	0.224	-46.326	-64.575	48.645	-75.07	4.06	-91.47	-105.938	-34.594	28.224	0.55576	-0.39542	0.45581	-0.57175	30.1	13111	100
2025-3-27 17:43:51.362	WT901BLE68-01(48591DE3C19B)	-0.244	-0.824	0.224	-46.326	-64.575	48.645	-75.51	4.43	-90.72	-105.938	-34.594	28.224	0.55576	-0.39542	0.45581	-0.57175	30.1	13111	100
2025-3-27 17:43:51.362	WT901BLE68-01(48591DE3C19B)	-0.244	-0.859	0.153	-45.349	-100.159	67.810	-75.93	4.86	-89.79	-105.938	-34.594	28.224	0.55576	-0.39542	0.45581	-0.57175	30.1	13111	100
2025-3-27 17:43:51.362	WT901BLE68-01(48591DE3C19B)	-0.261	-0.859	0.153	-45.349	-100.159	67.810	-76.31	5.34	-88.65	-105.938	-34.594	28.224	0.55576	-0.39542	0.45581	-0.57175	30.1	13111	100
2025-3-27 17:43:51.391	WT901BLE68-01(48591DE3C19B)	-0.261	-0.949	0.042	-45.349	-129.211	85.510	-76.67	5.88	-87.36	-108.388	-35.868	39.886	0.55576	-0.39542	0.45581	-0.57175	30.1	13111	100
2025-3-27 17:43:51.391	WT901BLE68-01(48591DE3C19B)	-0.271	-0.949	0.042	-45.349	-129.211	85.510	-76.99	6.47	-85.91	-108.388	-35.868	39.886	0.55576	-0.39542	0.45581	-0.57175	30.1	13111	100
2025-3-27 17:43:51.391	WT901BLE68-01(48591DE3C19B)	-0.271	-1.114	-0.036	-42.725	-152.710	98.022	-77.28	7.11	-84.33	-108.388	-35.868	39.886	0.55576	-0.39542	0.45581	-0.57175	30.1	13111	100
2025-3-27 17:43:51.392	WT901BLE68-01(48591DE3C19B)	-0.175	-1.114	-0.036	-42.725	-152.710	98.022	-77.52	7.78	-82.62	-108.388	-35.868	39.886	0.55576	-0.39542	0.45581	-0.57175	30.1	13111	100
2025-3-27 17:43:51.451	WT901BLE68-01(48591DE3C19B)	-0.175	-1.264	-0.046	-31.738	-170.776	112.366	-77.67	8.50	-80.80	-108.388	-35.868	39.886	0.55576	-0.39542	0.45581	-0.57175	30.1	13111	100
2025-3-27 17:43:51.452	WT901BLE68-01(48591DE3C19B)	-0.010	-1.264	-0.046	-31.738	-170.776	112.366	-77.73	9.27	-78.88	-108.388	-35.868	39.886	0.55576	-0.39542	0.45581	-0.57175	30.1	13111	100
2025-3-27 17:43:51.452	WT901BLE68-01(48591DE3C19B)	-0.010	-1.312	-0.012	-21.667	-170.044	130.981	-77.72	10.11	-76.94	-108.388	-35.868	39.886	0.55576	-0.39542	0.45581	-0.57175	30.1	13111	100
2025-3-27 17:43:51.452	WT901BLE68-01(48591DE3C19B)	0.124	-1.312	-0.012	-21.667	-170.044	130.981	-77.62	11.04	-74.98	-108.388	-35.868	39.886	0.55576	-0.39542	0.45581	-0.57175	30.1	13111	100
2025-3-27 17:43:51.481	WT901BLE68-01(48591DE3C19B)	0.124	-1.323	0.104	-14.832	-139.709	149.597	-77.49	12.07	-73.14	-108.388	-35.868	39.886	0.55576	-0.39542	0.45581	-0.57175	30.1	13111	100
2025-3-27 17:43:51.481	WT901BLE68-01(48591DE3C19B)	0.135	-1.323	0.104	-14.832	-139.709	149.597	-77.32	13.21	-71.42	-108.388	-35.868	39.886	0.55576	-0.39542	0.45581	-0.57175	30.1	13111	100
2025-3-27 17:43:51.481	WT901BLE68-01(48591DE3C19B)	0.135	-1.292	0.227	-11.841	-91.492	164.673	-77.15	14.44	-69.92	-108.388	-35.868	39.886	0.55576	-0.39542	0.45581	-0.57175	30.1	13111	100
2025-3-27 17:43:51.481	WT901BLE68-01(48591DE3C19B)	0.019	-1.292	0.227	-11.841	-91.492	164.673	-76.98	15.79	-68.64	-108.388	-35.868	39.886	0.55576	-0.39542	0.45581	-0.57175	30.1	13111	100
2025-3-27 17:43:51.512	WT901BLE68-01(48591DE3C19B)	0.019	-1.308	0.346	-13.184	-52.795	174.133	-76.89	17.30	-67.72	-108.388	-35.868	39.886	0.55576	-0.39542	0.45581	-0.57175	30.1	13111	100
2025-3-27 17:43:51.512	WT901BLE68-01(48591DE3C19B)	-0.056	-1.308	0.346	-13.184	-52.795	174.133	-76.77	18.79	-66.79	-108.388	-35.868	39.886	0.55576	-0.39542	0.45581	-0.57175	30.1	13111	100
2025-3-27 17:43:51.512	WT901BLE68-01(48591DE3C19B)	-0.056	-1.396	0.343	-12.085	-26.428	181.152	-76.69	20.40	-66.10	-108.388	-35.868	39.886	0.55576	-0.39542	0.45581	-0.57175	30.1	13111	100
2025-3-27 17:43:51.512	WT901BLE68-01(48591DE3C19B)	-0.035	-1.396	0.343	-12.085	-26.428	181.152	-76.59	22.00	-65.40	-108.388	-35.868	39.886	0.55576	-0.39542	0.45581	-0.57175	30.1	13111	100
2025-3-27 17:43:51.636	WT901BLE68-01(48591DE3C19B)	-0.035	-1.352	0.262	-6.958	-6.165	184.753	-76.49	23.66	-64.90	-108.388	-35.868	39.886	0.55576	-0.39542	0.45581	-0.57175	30.1	13111	100
2025-3-27 17:43:51.636	WT901BLE68-01(48591DE3C19B)	-0.055	-1.352	0.262	-6.958	-6.165	184.753	-76.37	25.32	-64.39	-108.388	-35.868	39.886	0.55576	-0.39542	0.45581	-0.57175	30.1	13111	100
2025-3-27 17:43:51.636	WT901BLE68-01(48591DE3C19B)	-0.055	-1.276	0.200	-5.371	3.174	186.462	-76.26	27.00	-63.97	-108.388	-35.868	39.886	0.55576	-0.39542	0.45581	-0.57175	30.1	13111	100
2025-3-27 17:43:51.636	WT901BLE68-01(48591DE3C19B)	-0.140	-1.276	0.200	-5.371	3.174	186.462	-76.13	28.67	-63.54	-108.388	-35.868	39.886	0.55576	-0.39542	0.45581	-0.57175	30.1	13111	100
2025-3-27 17:43:51.637	WT901BLE68-01(48591DE3C19B)	-0.140	-1.218	0.201	-5.005	-0.977	183.472	-75.97	30.30	-63.06	-108.388	-35.868	39.886	0.73431	-0.39529	0.48917	-0.25519	30.1	13111	100
2025-3-27 17:43:51.637	WT901BLE68-01(48591DE3C19B)	-0.185	-1.218	0.201	-5.005	-0.977	183.472	-75.78	31.92	-62.57	-108.388	-35.868	39.886	0.73431	-0.39529	0.48917	-0.25519	30.1	13111	100
2025-3-27 17:43:51.637	WT901BLE68-01(48591DE3C19B)	-0.185	-1.165	0.215	-4.456	-17.761	176.758	-75.49	33.41	-61.89	-108.388	-35.868	39.886	0.73431	-0.39529	0.48917	-0.25519	30.1	13111	100
2025-3-27 17:43:51.637	WT901BLE68-01(48591DE3C19B)	-0.207	-1.165	0.215	-4.456	-17.761	176.758	-75.16	34.90	-61.18	-108.388	-35.868	39.886	0.73431	-0.39529	0.48917	-0.25519	30.1	13111	100
2025-3-27 17:43:51.637	WT901BLE68-01(48591DE3C19B)	-0.207	-1.112	0.258	-3.235	-35.889	167.786	-74.68	36.24	-60.27	-108.388	-35.868	39.886	0.73431	-0.39529	0.48917	-0.25519	30.1	13111	100
2025-3-27 17:43:51.637	WT901BLE68-01(48591DE3C19B)	-0.197	-1.112	0.258	-3.235	-35.889	167.786	-74.16	37.58	-59.32	-108.388	-35.868	39.886	0.73431	-0.39529	0.48917	-0.25519	30.1	13111	100
2025-3-27 17:43:51.638	WT901BLE68-01(48591DE3C19B)	-0.197	-1.068	0.274	-1.404	-52.368	157.104	-73.49	38.75	-58.16	-108.388	-35.868	39.886	0.73431	-0.39529	0.48917	-0.25519	30.1	13111	100
2025-3-27 17:43:51.638	WT901BLE68-01(48591DE3C19B)	-0.154	-1.068	0.274	-1.404	-52.368	157.104	-72.77	39.91	-56.96	-108.388	-35.868	39.886	0.73431	-0.39529	0.48917	-0.25519	30.1	13111	100
2025-3-27 17:43:51.692	WT901BLE68-01(48591DE3C19B)	-0.154	-1.012	0.260	0.610	-63.660	145.203	-71.94	40.90	-55.63	-108.388	-35.868	39.886	0.73431	-0.39529	0.48917	-0.25519	30.1	13111	100
2025-3-27 17:43:51.692	WT901BLE68-01(48591DE3C19B)	-0.080	-1.012	0.260	0.610	-63.660	145.203	-71.06	41.87	-54.28	-108.388	-35.868	39.886	0.73431	-0.39529	0.48917	-0.25519	30.1	13111	100
2025-3-27 17:43:51.692	WT901BLE68-01(48591DE3C19B)	-0.080	-0.955	0.238	3.601	-63.599	130.798	-70.16	42.68	-52.95	-108.388	-35.868	39.886	0.73431	-0.39529	0.48917	-0.25519	30.1	13111	100
2025-3-27 17:43:51.692	WT901BLE68-01(48591DE3C19B)	-0.035	-0.955	0.238	3.601	-63.599	130.798	-69.22	43.47	-51.59	-108.388	-35.868	39.886	0.73431	-0.39529	0.48917	-0.25519	30.1	13111	100
2025-3-27 17:43:51.721	WT901BLE68-01(48591DE3C19B)	-0.035	-0.896	0.251	6.165	-52.673	114.380	-68.39	44.13	-50.43	-108.388	-35.868	39.886	0.73431	-0.39529	0.48917	-0.25519	30.1	13111	100
2025-3-27 17:43:51.721	WT901BLE68-01(48591DE3C19B)	0.029	-0.896	0.251	6.165	-52.673	114.380	-67.53	44.77	-49.24	-108.388	-35.868	39.886	0.73431	-0.39529	0.48917	-0.25519	30.1	13111	100
2025-3-27 17:43:51.721	WT901BLE68-01(48591DE3C19B)	0.029	-0.839	0.271	8.606	-36.194	94.177	-66.85	45.27	-48.36	-108.388	-35.868	39.886	0.73431	-0.39529	0.48917	-0.25519	30.1	13111	100
2025-3-27 17:43:51.721	WT901BLE68-01(48591DE3C19B)	0.023	-0.839	0.271	8.606	-36.194	94.177	-66.16	45.76	-47.46	-108.388	-35.868	39.886	0.73431	-0.39529	0.48917	-0.25519	30.1	13111	100
2025-3-27 17:43:51.782	WT901BLE68-01(48591DE3C19B)	0.023	-0.780	0.292	10.132	-14.526	73.608	-65.73	46.13	-46.96	-108.388	-35.868	39.886	0.73431	-0.39529	0.48917	-0.25519	30.1	13111	100
2025-3-27 17:43:51.782	WT901BLE68-01(48591DE3C19B)	-0.026	-0.780	0.292	10.132	-14.526	73.608	-65.29	46.50	-46.45	-108.388	-35.868	39.886	0.73431	-0.39529	0.48917	-0.25519	30.1	13111	100
2025-3-27 17:43:51.782	WT901BLE68-01(48591DE3C19B)	-0.026	-0.742	0.293	9.705	5.066	53.162	-65.12	46.76	-46.31	-108.388	-35.868	39.886	0.73431	-0.39529	0.48917	-0.25519	30.1	13111	100
2025-3-27 17:43:51.782	WT901BLE68-01(48591DE3C19B)	-0.086	-0.742	0.293	9.705	5.066	53.162	-64.95	47.02	-46.18	-108.388	-35.868	39.886	0.73431	-0.39529	0.48917	-0.25519	30.1	13111	100
2025-3-27 17:43:51.842	WT901BLE68-01(48591DE3C19B)	-0.086	-0.711	0.300	9.094	14.954	33.508	-64.96	47.13	-46.29	-108.388	-35.868	39.886	0.73431	-0.39529	0.48917	-0.25519	30.1	13111	100
2025-3-27 17:43:51.842	WT901BLE68-01(48591DE3C19B)	-0.129	-0.711	0.300	9.094	14.954	33.508	-64.97	47.25	-46.40	-90.356	7.252	57.428	0.73431	-0.39529	0.48917	-0.25519	30.1	13111	100
2025-3-27 17:43:51.842	WT901BLE68-01(48591DE3C19B)	-0.129	-0.675	0.317	8.850	14.160	15.503	-65.04	47.20	-46.60	-90.356	7.252	57.428	0.73431	-0.39529	0.48917	-0.25519	30.1	13111	100
2025-3-27 17:43:51.842	WT901BLE68-01(48591DE3C19B)	-0.146	-0.675	0.317	8.850	14.160	15.503	-65.12	47.16	-46.80	-90.356	7.252	57.428	0.73431	-0.39529	0.48917	-0.25519	30.1	13111	100
2025-3-27 17:43:51.844	WT901BLE68-01(48591DE3C19B)	-0.146	-0.640	0.333	8.911	6.897	-1.160	-65.18	46.94	-47.01	-90.356	7.252	57.428	0.73431	-0.39529	0.48917	-0.25519	30.1	13111	100
2025-3-27 17:43:51.844	WT901BLE68-01(48591DE3C19B)	-0.154	-0.640	0.333	8.911	6.897	-1.160	-65.24	46.72	-47.20	-90.356	7.252	57.428	0.73431	-0.39529	0.48917	-0.25519	30.1	13111	100
2025-3-27 17:43:51.844	WT901BLE68-01(48591DE3C19B)	-0.154	-0.623	0.335	9.949	-0.549	-17.151	-65.28	46.32	-47.39	-90.356	7.252	57.428	0.73431	-0.39529	0.48917	-0.25519	30.1	13111	100
2025-3-27 17:43:51.844	WT901BLE68-01(48591DE3C19B)	-0.174	-0.623	0.335	9.949	-0.549	-17.151	-65.31	45.94	-47.57	-90.356	7.252	57.428	0.73431	-0.39529	0.48917	-0.25519	30.1	13111	100
2025-3-27 17:43:51.874	WT901BLE68-01(48591DE3C19B)	-0.174	-0.627	0.328	12.756	-5.676	-32.532	-65.32	45.40	-47.77	-90.356	7.252	57.428	0.73431	-0.39529	0.48917	-0.25519	30.1	13111	100
2025-3-27 17:43:51.874	WT901BLE68-01(48591DE3C19B)	-0.149	-0.627	0.328	12.756	-5.676	-32.532	-65.33	44.86	-47.98	-90.356	7.252	57.428	0.73431	-0.39529	0.48917	-0.25519	30.1	13111	100
2025-3-27 17:43:51.874	WT901BLE68-01(48591DE3C19B)	-0.149	-0.620	0.298	15.198	-5.737	-49.011	-65.37	44.18	-48.27	-90.356	7.252	57.428	0.73431	-0.39529	0.48917	-0.25519	30.1	13111	100
2025-3-27 17:43:51.874	WT901BLE68-01(48591DE3C19B)	-0.081	-0.620	0.298	15.198	-5.737	-49.011	-65.41	43.51	-48.55	-90.356	7.252	57.428	0.73431	-0.39529	0.48917	-0.25519	30.1	13111	100
2025-3-27 17:43:51.940	WT901BLE68-01(48591DE3C19B)	-0.081	-0.658	0.259	15.076	6.226	-69.275	-65.62	42.70	-49.09	-90.356	7.252	57.428	0.73431	-0.39529	0.48917	-0.25519	30.1	13111	100
2025-3-27 17:43:51.940	WT901BLE68-01(48591DE3C19B)	-0.080	-0.658	0.259	15.076	6.226	-69.275	-65.81	41.89	-49.62	-90.356	7.252	57.428	0.73431	-0.39529	0.48917	-0.25519	30.1	13111	100
2025-3-27 17:43:51.940	WT901BLE68-01(48591DE3C19B)	-0.080	-0.813	0.273	16.418	23.804	-94.360	-66.21	40.93	-50.49	-90.356	7.252	57.428	0.73431	-0.39529	0.48917	-0.25519	30.1	13111	100
2025-3-27 17:43:51.940	WT901BLE68-01(48591DE3C19B)	-0.172	-0.813	0.273	16.418	23.804	-94.360	-66.58	39.97	-51.33	-90.356	7.252	57.428	0.73431	-0.39529	0.48917	-0.25519	30.1	13111	100
2025-3-27 17:43:51.964	WT901BLE68-01(48591DE3C19B)	-0.253	-0.920	0.330	24.902	40.039	-118.591	-67.04	38.85	-52.46	-90.356	7.252	57.428	0.73431	-0.39529	0.48917	-0.25519	30.1	13111	100
2025-3-27 17:43:51.964	WT901BLE68-01(48591DE3C19B)	-0.253	-0.848	0.344	36.987	49.438	-135.254	-67.47	37.68	-53.65	-90.356	7.252	57.428	0.73431	-0.39529	0.48917	-0.25519	30.1	13111	100
2025-3-27 17:43:51.964	WT901BLE68-01(48591DE3C19B)	-0.204	-0.848	0.344	36.987	49.438	-135.254	-67.85	36.45	-54.90	-90.356	7.252	57.428	0.73431	-0.39529	0.48917	-0.25519	30.1	13111	100
2025-3-27 17:43:51.964	WT901BLE68-01(48591DE3C19B)	-0.204	-0.751	0.260	40.588	63.538	-145.264	-68.23	35.21	-56.23	-90.356	7.252	57.428	0.73431	-0.39529	0.48917	-0.25519	30.1	13111	100
2025-3-27 17:43:51.996	WT901BLE68-01(48591DE3C19B)	-0.182	-0.751	0.260	40.588	63.538	-145.264	-68.61	33.95	-57.62	-90.356	7.252	57.428	0.73431	-0.39529	0.48917	-0.25519	30.1	13111	100
2025-3-27 17:43:51.996	WT901BLE68-01(48591DE3C19B)	-0.182	-0.778	0.140	37.170	89.600	-161.804	-69.06	32.66	-59.16	-90.356	7.252	57.428	0.73431	-0.39529	0.48917	-0.25519	30.1	13111	100
2025-3-27 17:43:51.996	WT901BLE68-01(48591DE3C19B)	-0.240	-0.778	0.140	37.170	89.600	-161.804	-69.58	31.34	-60.84	-90.356	7.252	57.428	0.75662	-0.36270	0.46912	-0.27530	30.1	13111	100
2025-3-27 17:43:51.996	WT901BLE68-01(48591DE3C19B)	-0.240	-1.013	0.071	31.067	109.863	-183.716	-70.16	29.94	-62.63	-90.356	7.252	57.428	0.75662	-0.36270	0.46912	-0.27530	30.1	13111	100
2025-3-27 17:43:52.51	WT901BLE68-01(48591DE3C19B)	-0.351	-1.013	0.071	31.067	109.863	-183.716	-70.79	28.48	-64.54	-90.356	7.252	57.428	0.75662	-0.36270	0.46912	-0.27530	30.1	13111	100
2025-3-27 17:43:52.51	WT901BLE68-01(48591DE3C19B)	-0.351	-1.316	0.078	31.250	113.525	-206.726	-71.39	26.90	-66.46	-90.356	7.252	57.428	0.75662	-0.36270	0.46912	-0.27530	30.1	13111	100
2025-3-27 17:43:52.51	WT901BLE68-01(48591DE3C19B)	-0.467	-1.316	0.078	31.250	113.525	-206.726	-71.95	25.21	-68.40	-90.356	7.252	57.428	0.75662	-0.36270	0.46912	-0.27530	30.1	13111	100
2025-3-27 17:43:52.52	WT901BLE68-01(48591DE3C19B)	-0.467	-1.637	0.130	36.377	104.492	-223.511	-72.42	23.43	-70.27	-90.356	7.252	57.428	0.75662	-0.36270	0.46912	-0.27530	30.1	13111	100
2025-3-27 17:43:52.80	WT901BLE68-01(48591DE3C19B)	-0.590	-1.637	0.130	36.377	104.492	-223.511	-72.78	21.56	-72.09	-90.356	7.252	57.428	0.75662	-0.36270	0.46912	-0.27530	30.1	13111	100
2025-3-27 17:43:52.80	WT901BLE68-01(48591DE3C19B)	-0.590	-1.805	0.161	50.720	96.680	-238.953	-73.01	19.61	-73.84	-90.356	7.252	57.428	0.75662	-0.36270	0.46912	-0.27530	30.1	13111	100
2025-3-27 17:43:52.81	WT901BLE68-01(48591DE3C19B)	-0.651	-1.805	0.161	50.720	96.680	-238.953	-73.09	17.58	-75.56	-90.356	7.252	57.428	0.75662	-0.36270	0.46912	-0.27530	30.1	13111	100
2025-3-27 17:43:52.81	WT901BLE68-01(48591DE3C19B)	-0.651	-1.772	0.141	60.791	98.511	-243.103	-73.07	15.55	-77.26	-90.356	7.252	57.428	0.75662	-0.36270	0.46912	-0.27530	30.1	13111	100
2025-3-27 17:43:52.111	WT901BLE68-01(48591DE3C19B)	-0.625	-1.772	0.141	60.791	98.511	-243.103	-72.94	13.52	-78.96	-90.356	7.252	57.428	0.75662	-0.36270	0.46912	-0.27530	30.1	13111	100
2025-3-27 17:43:52.111	WT901BLE68-01(48591DE3C19B)	-0.625	-1.627	0.086	66.956	108.948	-230.286	-72.74	11.59	-80.69	-90.356	7.252	57.428	0.75662	-0.36270	0.46912	-0.27530	30.1	13111	100
2025-3-27 17:43:52.111	WT901BLE68-01(48591DE3C19B)	-0.503	-1.627	0.086	66.956	108.948	-230.286	-72.46	9.76	-82.44	-90.356	7.252	57.428	0.75662	-0.36270	0.46912	-0.27530	30.1	13111	100
2025-3-27 17:43:52.111	WT901BLE68-01(48591DE3C19B)	-0.503	-1.426	0.022	63.660	125.000	-207.947	-72.15	8.08	-84.23	-90.356	7.252	57.428	0.75662	-0.36270	0.46912	-0.27530	30.1	13111	100
2025-3-27 17:43:52.171	WT901BLE68-01(48591DE3C19B)	-0.390	-1.426	0.022	63.660	125.000	-207.947	-71.82	6.55	-86.06	-90.356	7.252	57.428	0.75662	-0.36270	0.46912	-0.27530	30.1	13111	100
2025-3-27 17:43:52.171	WT901BLE68-01(48591DE3C19B)	-0.390	-1.274	-0.019	55.420	145.508	-178.833	-71.50	5.21	-87.94	-90.356	7.252	57.428	0.75662	-0.36270	0.46912	-0.27530	30.1	13111	100
2025-3-27 17:43:52.171	WT901BLE68-01(48591DE3C19B)	-0.368	-1.274	-0.019	55.420	145.508	-178.833	-71.19	4.06	-89.87	-90.356	7.252	57.428	0.75662	-0.36270	0.46912	-0.27530	30.1	13111	100
2025-3-27 17:43:52.172	WT901BLE68-01(48591DE3C19B)	-0.368	-1.180	-0.009	46.631	162.720	-147.827	-70.88	3.10	-91.84	-90.356	7.252	57.428	0.75662	-0.36270	0.46912	-0.27530	30.1	13111	100
2025-3-27 17:43:52.200	WT901BLE68-01(48591DE3C19B)	-0.428	-1.180	-0.009	46.631	162.720	-147.827	-70.61	2.33	-93.84	-90.356	7.252	57.428	0.75662	-0.36270	0.46912	-0.27530	30.1	13111	100
2025-3-27 17:43:52.201	WT901BLE68-01(48591DE3C19B)	-0.428	-1.138	-0.003	37.659	159.912	-119.873	-70.35	1.70	-95.78	-90.356	7.252	57.428	0.75662	-0.36270	0.46912	-0.27530	30.1	13111	100
2025-3-27 17:43:52.201	WT901BLE68-01(48591DE3C19B)	-0.428	-1.138	-0.003	37.659	159.912	-119.873	-70.12	1.21	-97.66	-90.356	7.252	57.428	0.75662	-0.36270	0.46912	-0.27530	30.1	13111	100
2025-3-27 17:43:52.201	WT901BLE68-01(48591DE3C19B)	-0.428	-1.102	0.013	29.846	145.691	-96.863	-69.92	0.82	-99.43	-107.800	-29.988	30.870	0.75662	-0.36270	0.46912	-0.27530	30.1	13111	100
2025-3-27 17:43:52.231	WT901BLE68-01(48591DE3C19B)	-0.483	-1.102	0.013	29.846	145.691	-96.863	-69.75	0.52	-101.10	-107.800	-29.988	30.870	0.75662	-0.36270	0.46912	-0.27530	30.1	13111	100
2025-3-27 17:43:52.231	WT901BLE68-01(48591DE3C19B)	-0.483	-1.070	0.039	27.954	121.521	-75.134	-69.58	0.28	-102.61	-107.800	-29.988	30.870	0.75662	-0.36270	0.46912	-0.27530	30.1	13111	100
2025-3-27 17:43:52.231	WT901BLE68-01(48591DE3C19B)	-0.624	-1.070	0.039	27.954	121.521	-75.134	-69.41	0.11	-103.98	-107.800	-29.988	30.870	0.75662	-0.36270	0.46912	-0.27530	30.1	13111	100
2025-3-27 17:43:52.232	WT901BLE68-01(48591DE3C19B)	-0.624	-1.005	0.106	27.405	80.566	-65.063	-69.24	-0.07	-105.13	-107.800	-29.988	30.870	0.75662	-0.36270	0.46912	-0.27530	30.1	13111	100
2025-3-27 17:43:52.291	WT901BLE68-01(48591DE3C19B)	-0.666	-1.005	0.106	27.405	80.566	-65.063	-69.07	-0.27	-106.08	-107.800	-29.988	30.870	0.75662	-0.36270	0.46912	-0.27530	30.1	13111	100
2025-3-27 17:43:52.291	WT901BLE68-01(48591DE3C19B)	-0.666	-0.989	0.064	23.926	33.875	-62.927	-68.92	-0.53	-106.80	-107.800	-29.988	30.870	0.75662	-0.36270	0.46912	-0.27530	30.1	13111	100
2025-3-27 17:43:52.292	WT901BLE68-01(48591DE3C19B)	-0.604	-0.989	0.064	23.926	33.875	-62.927	-68.79	-0.86	-107.30	-107.800	-29.988	30.870	0.75662	-0.36270	0.46912	-0.27530	30.1	13111	100
2025-3-27 17:43:52.292	WT901BLE68-01(48591DE3C19B)	-0.604	-0.978	-0.013	25.024	10.071	-60.974	-68.64	-1.21	-107.69	-107.800	-29.988	30.870	0.75662	-0.36270	0.46912	-0.27530	30.1	13111	100
2025-3-27 17:43:52.321	WT901BLE68-01(48591DE3C19B)	-0.628	-0.978	-0.013	25.024	10.071	-60.974	-68.50	-1.59	-107.96	-107.800	-29.988	30.870	0.75662	-0.36270	0.46912	-0.27530	30.1	13111	100
2025-3-27 17:43:52.321	WT901BLE68-01(48591DE3C19B)	-0.628	-0.937	-0.060	25.085	-11.414	-59.937	-68.36	-2.01	-108.12	-107.800	-29.988	30.870	0.75662	-0.36270	0.46912	-0.27530	30.1	13111	100
2025-3-27 17:43:52.321	WT901BLE68-01(48591DE3C19B)	-0.639	-0.937	-0.060	25.085	-11.414	-59.937	-68.23	-2.44	-108.19	-107.800	-29.988	30.870	0.75662	-0.36270	0.46912	-0.27530	30.1	13111	100
2025-3-27 17:43:52.321	WT901BLE68-01(48591DE3C19B)	-0.639	-0.909	-0.055	21.790	-43.884	-58.838	-68.13	-2.93	-108.09	-107.800	-29.988	30.870	0.75662	-0.36270	0.46912	-0.27530	30.1	13111	100
2025-3-27 17:43:52.353	WT901BLE68-01(48591DE3C19B)	-0.543	-0.909	-0.055	21.790	-43.884	-58.838	-68.04	-3.46	-107.85	-107.800	-29.988	30.870	0.75662	-0.36270	0.46912	-0.27530	30.1	13111	100
2025-3-27 17:43:52.353	WT901BLE68-01(48591DE3C19B)	-0.543	-0.889	-0.002	18.616	-72.998	-57.617	-68.00	-4.04	-107.46	-107.800	-29.988	30.870	0.75662	-0.36270	0.46912	-0.27530	30.1	13111	100
2025-3-27 17:43:52.353	WT901BLE68-01(48591DE3C19B)	-0.471	-0.889	-0.002	18.616	-72.998	-57.617	-67.98	-4.66	-106.93	-107.800	-29.988	30.870	0.75662	-0.36270	0.46912	-0.27530	30.1	13111	100
2025-3-27 17:43:52.353	WT901BLE68-01(48591DE3C19B)	-0.471	-0.864	0.053	14.526	-92.224	-51.636	-68.00	-5.28	-106.30	-107.800	-29.988	30.870	0.75662	-0.36270	0.46912	-0.27530	30.1	13111	100
2025-3-27 17:43:52.441	WT901BLE68-01(48591DE3C19B)	-0.436	-0.864	0.053	14.526	-92.224	-51.636	-68.05	-5.92	-105.57	-107.800	-29.988	30.870	0.75662	-0.36270	0.46912	-0.27530	30.1	13111	100
2025-3-27 17:43:52.441	WT901BLE68-01(48591DE3C19B)	-0.436	-0.833	0.095	9.705	-102.234	-43.335	-68.15	-6.52	-104.77	-107.800	-29.988	30.870	0.47946	-0.37872	0.41428	-0.67447	30.1	13111	100
2025-3-27 17:43:52.442	WT901BLE68-01(48591DE3C19B)	-0.382	-0.833	0.095	9.705	-102.234	-43.335	-68.27	-7.10	-103.90	-107.800	-29.988	30.870	0.47946	-0.37872	0.41428	-0.67447	30.1	13111	100
2025-3-27 17:43:52.442	WT901BLE68-01(48591DE3C19B)	-0.382	-0.829	0.114	3.479	-101.135	-34.790	-68.44	-7.64	-103.01	-107.800	-29.988	30.870	0.47946	-0.37872	0.41428	-0.67447	30.1	13111	100
2025-3-27 17:43:52.443	WT901BLE68-01(48591DE3C19B)	-0.346	-0.829	0.114	3.479	-101.135	-34.790	-68.64	-8.13	-102.12	-107.800	-29.988	30.870	0.47946	-0.37872	0.41428	-0.67447	30.1	13111	100
2025-3-27 17:43:52.443	WT901BLE68-01(48591DE3C19B)	-0.346	-0.855	0.143	-1.038	-89.539	-25.757	-68.88	-8.49	-101.29	-107.800	-29.988	30.870	0.47946	-0.37872	0.41428	-0.67447	30.1	13111	100
2025-3-27 17:43:52.443	WT901BLE68-01(48591DE3C19B)	-0.352	-0.855	0.143	-1.038	-89.539	-25.757	-69.13	-8.85	-100.47	-107.800	-29.988	30.870	0.47946	-0.37872	0.41428	-0.67447	30.1	13111	100
2025-3-27 17:43:52.443	WT901BLE68-01(48591DE3C19B)	-0.352	-0.885	0.184	-3.174	-75.562	-15.991	-69.37	-9.06	-99.74	-107.800	-29.988	30.870	0.47946	-0.37872	0.41428	-0.67447	30.1	13111	100
2025-3-27 17:43:52.474	WT901BLE68-01(48591DE3C19B)	-0.347	-0.885	0.184	-3.174	-75.562	-15.991	-69.61	-9.28	-99.00	-107.800	-29.988	30.870	0.47946	-0.37872	0.41428	-0.67447	30.1	13111	100
2025-3-27 17:43:52.474	WT901BLE68-01(48591DE3C19B)	-0.347	-0.995	0.248	-5.615	-61.951	-6.470	-69.86	-9.35	-98.37	-107.800	-29.988	30.870	0.47946	-0.37872	0.41428	-0.67447	30.1	13111	100
2025-3-27 17:43:52.474	WT901BLE68-01(48591DE3C19B)	-0.313	-0.995	0.248	-5.615	-61.951	-6.470	-70.10	-9.43	-97.73	-107.800	-29.988	30.870	0.47946	-0.37872	0.41428	-0.67447	30.1	13111	100
2025-3-27 17:43:52.474	WT901BLE68-01(48591DE3C19B)	-0.313	-1.133	0.257	-0.427	-42.786	3.601	-70.26	-9.35	-97.25	-107.800	-29.988	30.870	0.47946	-0.37872	0.41428	-0.67447	30.1	13111	100
2025-3-27 17:43:52.531	WT901BLE68-01(48591DE3C19B)	-0.274	-1.133	0.257	-0.427	-42.786	3.601	-70.42	-9.28	-96.76	-107.800	-29.988	30.870	0.47946	-0.37872	0.41428	-0.67447	30.1	13111	100
2025-3-27 17:43:52.531	WT901BLE68-01(48591DE3C19B)	-0.274	-1.199	0.250	8.545	-15.991	13.977	-70.44	-9.02	-96.50	-107.800	-29.988	30.870	0.47946	-0.37872	0.41428	-0.67447	30.1	13111	100
2025-3-27 17:43:52.531	WT901BLE68-01(48591DE3C19B)	-0.245	-1.199	0.250	8.545	-15.991	13.977	-70.46	-8.77	-96.24	-107.800	-29.988	30.870	0.47946	-0.37872	0.41428	-0.67447	30.1	13111	100
2025-3-27 17:43:52.532	WT901BLE68-01(48591DE3C19B)	-0.245	-1.268	0.255	14.954	14.709	25.574	-70.38	-8.32	-96.23	-107.800	-29.988	30.870	0.47946	-0.37872	0.41428	-0.67447	30.1	13111	100
2025-3-27 17:43:52.564	WT901BLE68-01(48591DE3C19B)	-0.172	-1.268	0.255	14.954	14.709	25.574	-70.29	-7.87	-96.23	-107.800	-29.988	30.870	0.47946	-0.37872	0.41428	-0.67447	30.1	13111	100
2025-3-27 17:43:52.564	WT901BLE68-01(48591DE3C19B)	-0.172	-1.253	0.176	19.592	46.448	34.424	-70.13	-7.25	-96.50	-107.800	-29.988	30.870	0.47946	-0.37872	0.41428	-0.67447	30.1	13111	100
2025-3-27 17:43:52.564	WT901BLE68-01(48591DE3C19B)	-0.148	-1.253	0.176	19.592	46.448	34.424	-69.96	-6.63	-96.77	-107.800	-29.988	30.870	0.47946	-0.37872	0.41428	-0.67447	30.1	13111	100
2025-3-27 17:43:52.564	WT901BLE68-01(48591DE3C19B)	-0.148	-1.136	0.145	15.747	72.632	43.274	-69.82	-5.85	-97.25	-107.800	-29.988	30.870	0.47946	-0.37872	0.41428	-0.67447	30.1	13111	100
2025-3-27 17:43:52.621	WT901BLE68-01(48591DE3C19B)	-0.162	-1.136	0.145	15.747	72.632	43.274	-69.69	-5.08	-97.74	-107.800	-29.988	30.870	0.47946	-0.37872	0.41428	-0.67447	30.1	13111	100
2025-3-27 17:43:52.622	WT901BLE68-01(48591DE3C19B)	-0.162	-1.211	0.120	-0.610	88.013	43.457	-69.71	-4.26	-98.37	-107.800	-29.988	30.870	0.47946	-0.37872	0.41428	-0.67447	30.1	13111	100
2025-3-27 17:43:52.622	WT901BLE68-01(48591DE3C19B)	-0.234	-1.211	0.120	-0.610	88.013	43.457	-69.75	-3.45	-99.00	-105.154	-46.256	29.302	0.47946	-0.37872	0.41428	-0.67447	30.1	13111	100
2025-3-27 17:43:52.622	WT901BLE68-01(48591DE3C19B)	-0.234	-1.356	0.088	-13.428	84.656	44.617	-69.93	-2.65	-99.59	-105.154	-46.256	29.302	0.47946	-0.37872	0.41428	-0.67447	30.1	13111	100
2025-3-27 17:43:52.651	WT901BLE68-01(48591DE3C19B)	-0.401	-1.356	0.088	-13.428	84.656	44.617	-70.11	-1.86	-100.20	-105.154	-46.256	29.302	0.47946	-0.37872	0.41428	-0.67447	30.1	13111	100
2025-3-27 17:43:52.651	WT901BLE68-01(48591DE3C19B)	-0.401	-1.182	0.150	-20.935	55.481	50.537	-70.39	-1.11	-100.50	-105.154	-46.256	29.302	0.47946	-0.37872	0.41428	-0.67447	30.1	13111	100
2025-3-27 17:43:52.651	WT901BLE68-01(48591DE3C19B)	-0.513	-1.182	0.150	-20.935	55.481	50.537	-70.68	-0.37	-100.82	-105.154	-46.256	29.302	0.47946	-0.37872	0.41428	-0.67447	30.1	13111	100
2025-3-27 17:43:52.651	WT901BLE68-01(48591DE3C19B)	-0.513	-0.784	0.222	-40.894	2.014	57.434	-71.15	0.26	-100.61	-105.154	-46.256	29.302	0.47946	-0.37872	0.41428	-0.67447	30.1	13111	100
2025-3-27 17:43:52.774	WT901BLE68-01(48591DE3C19B)	-0.542	-0.784	0.222	-40.894	2.014	57.434	-71.63	0.90	-100.41	-105.154	-46.256	29.302	0.47946	-0.37872	0.41428	-0.67447	30.1	13111	100
2025-3-27 17:43:52.774	WT901BLE68-01(48591DE3C19B)	-0.542	-0.455	0.303	-66.956	-67.261	71.228	-72.33	1.47	-99.51	-105.154	-46.256	29.302	0.47946	-0.37872	0.41428	-0.67447	30.1	13111	100
2025-3-27 17:43:52.774	WT901BLE68-01(48591DE3C19B)	-0.573	-0.455	0.303	-66.956	-67.261	71.228	-73.02	2.05	-98.62	-105.154	-46.256	29.302	0.47946	-0.37872	0.41428	-0.67447	30.1	13111	100
2025-3-27 17:43:52.774	WT901BLE68-01(48591DE3C19B)	-0.573	-0.558	0.335	-92.896	-143.738	100.891	-73.91	2.72	-96.93	-105.154	-46.256	29.302	0.47946	-0.37872	0.41428	-0.67447	30.1	13111	100
2025-3-27 17:43:52.775	WT901BLE68-01(48591DE3C19B)	-0.386	-0.558	0.335	-92.896	-143.738	100.891	-74.77	3.43	-95.23	-105.154	-46.256	29.302	0.47946	-0.37872	0.41428	-0.67447	30.1	13111	100
2025-3-27 17:43:52.775	WT901BLE68-01(48591DE3C19B)	-0.386	-0.881	0.212	-98.083	-202.637	130.554	-75.61	4.29	-92.91	-105.154	-46.256	29.302	0.47946	-0.37872	0.41428	-0.67447	30.1	13111	100
2025-3-27 17:43:52.775	WT901BLE68-01(48591DE3C19B)	-0.267	-0.881	0.212	-98.083	-202.637	130.554	-76.41	5.17	-90.59	-105.154	-46.256	29.302	0.47946	-0.37872	0.41428	-0.67447	30.1	13111	100
2025-3-27 17:43:52.775	WT901BLE68-01(48591DE3C19B)	-0.267	-1.058	0.063	-83.801	-240.173	154.785	-76.99	6.23	-87.85	-105.154	-46.256	29.302	0.47946	-0.37872	0.41428	-0.67447	30.1	13111	100
2025-3-27 17:43:52.776	WT901BLE68-01(48591DE3C19B)	-0.260	-1.058	0.063	-83.801	-240.173	154.785	-77.51	7.30	-85.12	-105.154	-46.256	29.302	0.47946	-0.37872	0.41428	-0.67447	30.1	13111	100
2025-3-27 17:43:52.776	WT901BLE68-01(48591DE3C19B)	-0.260	-1.181	-0.067	-67.993	-255.981	170.532	-77.82	8.50	-82.19	-105.154	-46.256	29.302	0.47946	-0.37872	0.41428	-0.67447	30.1	13111	100
2025-3-27 17:43:52.776	WT901BLE68-01(48591DE3C19B)	-0.257	-1.181	-0.067	-67.993	-255.981	170.532	-78.06	9.69	-79.26	-105.154	-46.256	29.302	0.47946	-0.37872	0.41428	-0.67447	30.1	13111	100
2025-3-27 17:43:52.776	WT901BLE68-01(48591DE3C19B)	-0.257	-1.395	-0.151	-53.345	-249.451	172.241	-78.12	10.91	-76.38	-105.154	-46.256	29.302	0.47946	-0.37872	0.41428	-0.67447	30.1	13111	100
2025-3-27 17:43:52.804	WT901BLE68-01(48591DE3C19B)	-0.199	-1.395	-0.151	-53.345	-249.451	172.241	-78.13	12.12	-73.49	-105.154	-46.256	29.302	0.47946	-0.37872	0.41428	-0.67447	30.1	13111	100
2025-3-27 17:43:52.804	WT901BLE68-01(48591DE3C19B)	-0.199	-1.541	-0.115	-30.151	-225.586	172.058	-77.90	13.35	-70.83	-105.154	-46.256	29.302	0.47946	-0.37872	0.41428	-0.67447	30.1	13111	100
2025-3-27 17:43:52.804	WT901BLE68-01(48591DE3C19B)	-0.151	-1.541	-0.115	-30.151	-225.586	172.058	-77.62	14.56	-68.15	-105.154	-46.256	29.302	0.47946	-0.37872	0.41428	-0.67447	30.1	13111	100
2025-3-27 17:43:52.804	WT901BLE68-01(48591DE3C19B)	-0.151	-1.549	-0.024	-11.719	-197.083	178.406	-77.17	15.86	-65.73	-105.154	-46.256	29.302	0.69693	-0.46030	0.42581	-0.34781	30.1	13111	100
2025-3-27 17:43:52.862	WT901BLE68-01(48591DE3C19B)	-0.083	-1.549	-0.024	-11.719	-197.083	178.406	-76.67	17.13	-63.28	-105.154	-46.256	29.302	0.69693	-0.46030	0.42581	-0.34781	30.1	13111	100
2025-3-27 17:43:52.862	WT901BLE68-01(48591DE3C19B)	-0.083	-1.479	0.102	1.038	-160.767	187.073	-76.09	18.53	-61.16	-105.154	-46.256	29.302	0.69693	-0.46030	0.42581	-0.34781	30.1	13111	100
2025-3-27 17:43:52.862	WT901BLE68-01(48591DE3C19B)	-0.076	-1.479	0.102	1.038	-160.767	187.073	-75.44	19.90	-59.00	-105.154	-46.256	29.302	0.69693	-0.46030	0.42581	-0.34781	30.1	13111	100
2025-3-27 17:43:52.862	WT901BLE68-01(48591DE3C19B)	-0.076	-1.499	0.247	8.545	-128.418	199.646	-74.77	21.43	-57.12	-105.154	-46.256	29.302	0.69693	-0.46030	0.42581	-0.34781	30.1	13111	100
2025-3-27 17:43:52.890	WT901BLE68-01(48591DE3C19B)	-0.085	-1.499	0.247	8.545	-128.418	199.646	-74.04	22.92	-55.20	-105.154	-46.256	29.302	0.69693	-0.46030	0.42581	-0.34781	30.1	13111	100
2025-3-27 17:43:52.890	WT901BLE68-01(48591DE3C19B)	-0.043	-1.606	0.276	15.320	-104.370	210.022	-73.26	24.55	-53.45	-105.154	-46.256	29.302	0.69693	-0.46030	0.42581	-0.34781	30.1	13111	100
2025-3-27 17:43:52.891	WT901BLE68-01(48591DE3C19B)	-0.043	-1.624	0.263	27.222	-75.378	220.947	-72.41	26.24	-51.80	-105.154	-46.256	29.302	0.69693	-0.46030	0.42581	-0.34781	30.1	13111	100
2025-3-27 17:43:52.891	WT901BLE68-01(48591DE3C19B)	-0.026	-1.624	0.263	27.222	-75.378	220.947	-71.50	27.98	-50.23	-105.154	-46.256	29.302	0.69693	-0.46030	0.42581	-0.34781	30.1	13111	100
2025-3-27 17:43:52.922	WT901BLE68-01(48591DE3C19B)	-0.026	-1.538	0.203	34.363	-34.363	226.868	-70.60	29.79	-48.83	-105.154	-46.256	29.302	0.69693	-0.46030	0.42581	-0.34781	30.1	13111	100
2025-3-27 17:43:52.922	WT901BLE68-01(48591DE3C19B)	-0.064	-1.538	0.203	34.363	-34.363	226.868	-69.70	31.66	-47.58	-105.154	-46.256	29.302	0.69693	-0.46030	0.42581	-0.34781	30.1	13111	100
2025-3-27 17:43:52.922	WT901BLE68-01(48591DE3C19B)	-0.064	-1.409	0.163	34.546	-2.441	225.891	-68.83	33.55	-46.45	-105.154	-46.256	29.302	0.69693	-0.46030	0.42581	-0.34781	30.1	13111	100
2025-3-27 17:43:52.922	WT901BLE68-01(48591DE3C19B)	-0.052	-1.409	0.163	34.546	-2.441	225.891	-68.01	35.46	-45.46	-105.154	-46.256	29.302	0.69693	-0.46030	0.42581	-0.34781	30.1	13111	100
2025-3-27 17:43:52.982	WT901BLE68-01(48591DE3C19B)	-0.052	-1.287	0.183	30.518	12.634	218.994	-67.21	37.35	-44.51	-105.154	-46.256	29.302	0.69693	-0.46030	0.42581	-0.34781	30.1	13111	100
2025-3-27 17:43:52.982	WT901BLE68-01(48591DE3C19B)	-0.093	-1.287	0.183	30.518	12.634	218.994	-66.45	39.22	-43.62	-105.154	-46.256	29.302	0.69693	-0.46030	0.42581	-0.34781	30.1	13111	100
2025-3-27 17:43:52.982	WT901BLE68-01(48591DE3C19B)	-0.093	-1.202	0.283	26.428	15.686	210.022	-65.67	41.03	-42.73	-105.154	-46.256	29.302	0.69693	-0.46030	0.42581	-0.34781	30.1	13111	100
2025-3-27 17:43:52.982	WT901BLE68-01(48591DE3C19B)	-0.163	-1.202	0.283	26.428	15.686	210.022	-64.91	42.80	-41.87	-105.154	-46.256	29.302	0.69693	-0.46030	0.42581	-0.34781	30.1	13111	100
2025-3-27 17:43:53.43	WT901BLE68-01(48591DE3C19B)	-0.163	-1.237	0.336	22.156	9.949	200.134	-64.12	44.49	-41.01	-105.154	-46.256	29.302	0.69693	-0.46030	0.42581	-0.34781	30.1	13111	100
2025-3-27 17:43:53.43	WT901BLE68-01(48591DE3C19B)	-0.186	-1.237	0.336	22.156	9.949	200.134	-63.29	46.12	-40.09	-105.154	-46.256	29.302	0.69693	-0.46030	0.42581	-0.34781	30.1	13111	100
2025-3-27 17:43:53.43	WT901BLE68-01(48591DE3C19B)	-0.186	-1.255	0.312	27.954	6.653	186.951	-62.39	47.65	-39.13	-105.154	-46.256	29.302	0.69693	-0.46030	0.42581	-0.34781	30.1	13111	100
2025-3-27 17:43:53.43	WT901BLE68-01(48591DE3C19B)	-0.076	-1.255	0.312	27.954	6.653	186.951	-61.40	49.10	-38.13	-97.020	10.682	53.410	0.69693	-0.46030	0.42581	-0.34781	30.1	13111	100
2025-3-27 17:43:53.44	WT901BLE68-01(48591DE3C19B)	-0.076	-1.139	0.255	34.119	7.996	169.617	-60.38	50.47	-37.14	-97.020	10.682	53.410	0.69693	-0.46030	0.42581	-0.34781	30.1	13111	100
2025-3-27 17:43:53.44	WT901BLE68-01(48591DE3C19B)	-0.006	-1.139	0.255	34.119	7.996	169.617	-59.32	51.73	-36.17	-97.020	10.682	53.410	0.69693	-0.46030	0.42581	-0.34781	30.1	13111	100
2025-3-27 17:43:53.44	WT901BLE68-01(48591DE3C19B)	-0.006	-0.966	0.214	36.560	15.015	150.208	-58.29	52.92	-35.26	-97.020	10.682	53.410	0.69693	-0.46030	0.42581	-0.34781	30.1	13111	100
2025-3-27 17:43:53.44	WT901BLE68-01(48591DE3C19B)	-0.006	-0.966	0.214	36.560	15.015	150.208	-57.30	54.02	-34.43	-97.020	10.682	53.410	0.69693	-0.46030	0.42581	-0.34781	30.1	13111	100
2025-3-27 17:43:53.102	WT901BLE68-01(48591DE3C19B)	-0.006	-0.812	0.212	33.936	19.592	128.845	-56.39	55.03	-33.68	-97.020	10.682	53.410	0.69693	-0.46030	0.42581	-0.34781	30.1	13111	100
2025-3-27 17:43:53.102	WT901BLE68-01(48591DE3C19B)	-0.015	-0.812	0.212	33.936	19.592	128.845	-55.56	55.95	-33.03	-97.020	10.682	53.410	0.69693	-0.46030	0.42581	-0.34781	30.1	13111	100
2025-3-27 17:43:53.102	WT901BLE68-01(48591DE3C19B)	-0.015	-0.691	0.238	28.198	21.301	106.689	-54.83	56.77	-32.46	-97.020	10.682	53.410	0.69693	-0.46030	0.42581	-0.34781	30.1	13111	100
2025-3-27 17:43:53.103	WT901BLE68-01(48591DE3C19B)	-0.047	-0.691	0.238	28.198	21.301	106.689	-54.20	57.49	-32.00	-97.020	10.682	53.410	0.69693	-0.46030	0.42581	-0.34781	30.1	13111	100
2025-3-27 17:43:53.130	WT901BLE68-01(48591DE3C19B)	-0.047	-0.605	0.266	20.020	17.700	83.618	-53.67	58.10	-31.61	-97.020	10.682	53.410	0.69693	-0.46030	0.42581	-0.34781	30.1	13111	100
2025-3-27 17:43:53.131	WT901BLE68-01(48591DE3C19B)	-0.069	-0.605	0.266	20.020	17.700	83.618	-53.26	58.60	-31.31	-97.020	10.682	53.410	0.69693	-0.46030	0.42581	-0.34781	30.1	13111	100
2025-3-27 17:43:53.131	WT901BLE68-01(48591DE3C19B)	-0.069	-0.558	0.276	12.085	11.230	58.105	-52.94	58.98	-31.08	-97.020	10.682	53.410	0.69693	-0.46030	0.42581	-0.34781	30.1	13111	100
2025-3-27 17:43:53.131	WT901BLE68-01(48591DE3C19B)	-0.072	-0.558	0.276	12.085	11.230	58.105	-52.75	59.23	-30.94	-97.020	10.682	53.410	0.69693	-0.46030	0.42581	-0.34781	30.1	13111	100
2025-3-27 17:43:53.161	WT901BLE68-01(48591DE3C19B)	-0.072	-0.511	0.271	6.714	4.456	32.349	-52.65	59.36	-30.90	-97.020	10.682	53.410	0.69693	-0.46030	0.42581	-0.34781	30.1	13111	100
2025-3-27 17:43:53.162	WT901BLE68-01(48591DE3C19B)	-0.072	-0.511	0.271	6.714	4.456	32.349	-52.65	59.36	-30.95	-97.020	10.682	53.410	0.69693	-0.46030	0.42581	-0.34781	30.1	13111	100
2025-3-27 17:43:53.162	WT901BLE68-01(48591DE3C19B)	-0.072	-0.444	0.280	3.784	-1.038	6.287	-52.76	59.24	-31.10	-97.020	10.682	53.410	0.69693	-0.46030	0.42581	-0.34781	30.1	13111	100
2025-3-27 17:43:53.162	WT901BLE68-01(48591DE3C19B)	-0.042	-0.444	0.280	3.784	-1.038	6.287	-52.96	59.01	-31.36	-97.020	10.682	53.410	0.69693	-0.46030	0.42581	-0.34781	30.1	13111	100
2025-3-27 17:43:53.251	WT901BLE68-01(48591DE3C19B)	-0.042	-0.400	0.291	1.221	-1.587	-18.433	-53.28	58.67	-31.74	-97.020	10.682	53.410	0.69693	-0.46030	0.42581	-0.34781	30.1	13111	100
2025-3-27 17:43:53.251	WT901BLE68-01(48591DE3C19B)	-0.042	-0.400	0.291	1.221	-1.587	-18.433	-53.71	58.23	-32.24	-97.020	10.682	53.410	0.80988	-0.25970	0.52582	-0.00702	30.1	13111	100
2025-3-27 17:43:53.251	WT901BLE68-01(48591DE3C19B)	-0.042	-0.393	0.312	2.869	6.531	-42.114	-54.26	57.72	-32.91	-97.020	10.682	53.410	0.80988	-0.25970	0.52582	-0.00702	30.1	13111	100
2025-3-27 17:43:53.251	WT901BLE68-01(48591DE3C19B)	-0.068	-0.393	0.312	2.869	6.531	-42.114	-54.93	57.13	-33.74	-97.020	10.682	53.410	0.80988	-0.25970	0.52582	-0.00702	30.1	13111	100
2025-3-27 17:43:53.252	WT901BLE68-01(48591DE3C19B)	-0.068	-0.432	0.309	7.446	20.752	-65.979	-55.73	56.48	-34.77	-97.020	10.682	53.410	0.80988	-0.25970	0.52582	-0.00702	30.1	13111	100
2025-3-27 17:43:53.252	WT901BLE68-01(48591DE3C19B)	-0.101	-0.432	0.309	7.446	20.752	-65.979	-56.64	55.77	-35.97	-97.020	10.682	53.410	0.80988	-0.25970	0.52582	-0.00702	30.1	13111	100
2025-3-27 17:43:53.252	WT901BLE68-01(48591DE3C19B)	-0.101	-0.564	0.268	10.010	36.316	-98.206	-57.71	54.95	-37.39	-97.020	10.682	53.410	0.80988	-0.25970	0.52582	-0.00702	30.1	13111	100
2025-3-27 17:43:53.252	WT901BLE68-01(48591DE3C19B)	-0.190	-0.564	0.268	10.010	36.316	-98.206	-58.90	54.03	-39.00	-97.020	10.682	53.410	0.80988	-0.25970	0.52582	-0.00702	30.1	13111	100
2025-3-27 17:43:53.280	WT901BLE68-01(48591DE3C19B)	-0.095	-0.819	0.205	12.878	48.889	-139.465	-60.21	52.95	-40.80	-97.020	10.682	53.410	0.80988	-0.25970	0.52582	-0.00702	30.1	13111	100
2025-3-27 17:43:53.280	WT901BLE68-01(48591DE3C19B)	-0.342	-0.409	0.103	12.878	48.889	-139.465	-61.62	51.72	-42.76	-97.020	10.682	53.410	0.80988	-0.25970	0.52582	-0.00702	30.1	13111	100
2025-3-27 17:43:53.280	WT901BLE68-01(48591DE3C19B)	-0.342	-1.025	0.189	24.048	49.255	-181.458	-62.99	50.28	-44.78	-97.020	10.682	53.410	0.80988	-0.25970	0.52582	-0.00702	30.1	13111	100
2025-3-27 17:43:53.281	WT901BLE68-01(48591DE3C19B)	-0.537	-1.025	0.189	24.048	49.255	-181.458	-64.29	48.64	-46.82	-97.020	10.682	53.410	0.80988	-0.25970	0.52582	-0.00702	30.1	13111	100
2025-3-27 17:43:53.462	WT901BLE68-01(48591DE3C19B)	-0.537	-1.111	0.206	34.546	30.212	-216.553	-65.40	46.80	-48.72	-97.020	10.682	53.410	0.80988	-0.25970	0.52582	-0.00702	30.1	13111	100
2025-3-27 17:43:53.462	WT901BLE68-01(48591DE3C19B)	-0.568	-1.111	0.206	34.546	30.212	-216.553	-66.32	44.76	-50.48	-97.020	10.682	53.410	0.80988	-0.25970	0.52582	-0.00702	30.1	13111	100
2025-3-27 17:43:53.462	WT901BLE68-01(48591DE3C19B)	-0.568	-1.116	0.221	37.842	8.545	-247.742	-67.07	42.54	-52.08	-97.020	10.682	53.410	0.80988	-0.25970	0.52582	-0.00702	30.1	13111	100
2025-3-27 17:43:53.462	WT901BLE68-01(48591DE3C19B)	-0.487	-1.116	0.221	37.842	8.545	-247.742	-67.66	40.14	-53.53	-97.020	10.682	53.410	0.80988	-0.25970	0.52582	-0.00702	30.1	13111	100
2025-3-27 17:43:53.463	WT901BLE68-01(48591DE3C19B)	-0.487	-1.104	0.229	35.461	10.498	-270.142	-68.26	37.56	-55.02	-97.020	10.682	53.410	0.80988	-0.25970	0.52582	-0.00702	30.1	13111	100
2025-3-27 17:43:53.463	WT901BLE68-01(48591DE3C19B)	-0.453	-1.104	0.229	35.461	10.498	-270.142	-68.75	34.99	-56.43	-97.020	10.682	53.410	0.80988	-0.25970	0.52582	-0.00702	30.1	13111	100
2025-3-27 17:43:53.463	WT901BLE68-01(48591DE3C19B)	-0.453	-1.156	0.208	32.104	36.255	-289.368	-69.39	32.33	-58.13	-97.020	10.682	53.410	0.80988	-0.25970	0.52582	-0.00702	30.1	13111	100
2025-3-27 17:43:53.463	WT901BLE68-01(48591DE3C19B)	-0.415	-1.156	0.208	32.104	36.255	-289.368	-69.92	29.67	-59.75	-97.020	10.682	53.410	0.80988	-0.25970	0.52582	-0.00702	30.1	13111	100
2025-3-27 17:43:53.464	WT901BLE68-01(48591DE3C19B)	-0.415	-1.264	0.168	30.273	72.937	-302.917	-70.59	27.02	-61.74	-97.020	10.682	53.410	0.80988	-0.25970	0.52582	-0.00702	30.1	13111	100
2025-3-27 17:43:53.464	WT901BLE68-01(48591DE3C19B)	-0.402	-1.264	0.168	30.273	72.937	-302.917	-71.14	24.37	-63.64	-97.020	10.682	53.410	0.80988	-0.25970	0.52582	-0.00702	30.1	13111	100
2025-3-27 17:43:53.464	WT901BLE68-01(48591DE3C19B)	-0.402	-1.393	0.107	29.236	111.755	-308.777	-71.76	21.77	-65.90	-97.020	10.682	53.410	0.80988	-0.25970	0.52582	-0.00702	30.1	13111	100
2025-3-27 17:43:53.464	WT901BLE68-01(48591DE3C19B)	-0.429	-1.393	0.107	29.236	111.755	-308.777	-72.26	19.18	-68.08	-97.020	10.682	53.410	0.80988	-0.25970	0.52582	-0.00702	30.1	13111	100
2025-3-27 17:43:53.465	WT901BLE68-01(48591DE3C19B)	-0.429	-1.536	0.059	30.518	153.625	-310.669	-72.78	16.68	-70.63	-97.020	10.682	53.410	0.80988	-0.25970	0.52582	-0.00702	30.1	13111	100
2025-3-27 17:43:53.465	WT901BLE68-01(48591DE3C19B)	-0.526	-1.536	0.059	30.518	153.625	-310.669	-73.17	14.18	-73.13	-97.020	10.682	53.410	0.80988	-0.25970	0.52582	-0.00702	30.1	13111	100
2025-3-27 17:43:53.465	WT901BLE68-01(48591DE3C19B)	-0.526	-1.704	0.038	34.729	192.993	-304.504	-73.51	11.85	-75.94	-97.020	10.682	53.410	0.80988	-0.25970	0.52582	-0.00702	30.1	13111	100
2025-3-27 17:43:53.465	WT901BLE68-01(48591DE3C19B)	-0.635	-1.704	0.038	34.729	192.993	-304.504	-73.73	9.51	-78.71	-97.020	10.682	53.410	0.80988	-0.25970	0.52582	-0.00702	30.1	13111	100
2025-3-27 17:43:53.493	WT901BLE68-01(48591DE3C19B)	-0.635	-1.810	0.074	45.837	216.370	-287.170	-73.76	7.43	-81.64	-97.020	10.682	53.410	0.80988	-0.25970	0.52582	-0.00702	30.1	13111	100
2025-3-27 17:43:53.493	WT901BLE68-01(48591DE3C19B)	-0.738	-1.810	0.074	45.837	216.370	-287.170	-73.68	5.35	-84.55	-97.020	10.682	53.410	0.80988	-0.25970	0.52582	-0.00702	30.1	13111	100
2025-3-27 17:43:53.493	WT901BLE68-01(48591DE3C19B)	-0.738	-1.785	0.122	59.021	218.384	-265.991	-73.37	3.50	-87.41	-97.020	10.682	53.410	0.80988	-0.25970	0.52582	-0.00702	30.1	13111	100
2025-3-27 17:43:53.493	WT901BLE68-01(48591DE3C19B)	-0.752	-1.785	0.122	59.021	218.384	-265.991	-72.98	1.70	-90.28	-114.268	-26.068	26.754	0.80988	-0.25970	0.52582	-0.00702	30.1	13111	100
2025-3-27 17:43:53.523	WT901BLE68-01(48591DE3C19B)	-0.752	-1.641	0.090	70.435	211.243	-233.643	-72.39	0.21	-92.99	-114.268	-26.068	26.754	0.80988	-0.25970	0.52582	-0.00702	30.1	13111	100
2025-3-27 17:43:53.523	WT901BLE68-01(48591DE3C19B)	-0.737	-1.641	0.090	70.435	211.243	-233.643	-71.74	-1.23	-95.71	-114.268	-26.068	26.754	0.80988	-0.25970	0.52582	-0.00702	30.1	13111	100
2025-3-27 17:43:53.523	WT901BLE68-01(48591DE3C19B)	-0.737	-1.455	-0.020	76.782	198.730	-197.021	-70.97	-2.33	-98.22	-114.268	-26.068	26.754	0.80988	-0.25970	0.52582	-0.00702	30.1	13111	100
2025-3-27 17:43:53.523	WT901BLE68-01(48591DE3C19B)	-0.719	-1.455	-0.020	76.782	198.730	-197.021	-70.16	-3.38	-100.74	-114.268	-26.068	26.754	0.80988	-0.25970	0.52582	-0.00702	30.1	13111	100
2025-3-27 17:43:53.583	WT901BLE68-01(48591DE3C19B)	-0.719	-1.267	-0.079	73.486	165.649	-159.668	-69.39	-4.15	-102.83	-114.268	-26.068	26.754	0.80988	-0.25970	0.52582	-0.00702	30.1	13111	100
2025-3-27 17:43:53.583	WT901BLE68-01(48591DE3C19B)	-0.680	-1.267	-0.079	73.486	165.649	-159.668	-68.60	-4.88	-104.94	-114.268	-26.068	26.754	0.80988	-0.25970	0.52582	-0.00702	30.1	13111	100
2025-3-27 17:43:53.584	WT901BLE68-01(48591DE3C19B)	-0.680	-1.143	-0.040	65.063	118.103	-124.756	-67.92	-5.43	-106.48	-114.268	-26.068	26.754	0.80988	-0.25970	0.52582	-0.00702	30.1	13111	100
2025-3-27 17:43:53.584	WT901BLE68-01(48591DE3C19B)	-0.671	-1.143	-0.040	65.063	118.103	-124.756	-67.24	-5.96	-108.02	-114.268	-26.068	26.754	0.80988	-0.25970	0.52582	-0.00702	30.1	13111	100
2025-3-27 17:43:53.613	WT901BLE68-01(48591DE3C19B)	-0.671	-1.071	0.058	56.946	66.101	-93.689	-66.68	-6.38	-108.97	-114.268	-26.068	26.754	0.80988	-0.25970	0.52582	-0.00702	30.1	13111	100
2025-3-27 17:43:53.613	WT901BLE68-01(48591DE3C19B)	-0.680	-1.071	0.058	56.946	66.101	-93.689	-66.13	-6.79	-109.92	-114.268	-26.068	26.754	0.80988	-0.25970	0.52582	-0.00702	30.1	13111	100
2025-3-27 17:43:53.613	WT901BLE68-01(48591DE3C19B)	-0.680	-1.028	0.127	50.415	17.090	-66.833	-65.70	-7.14	-110.31	-114.268	-26.068	26.754	0.80988	-0.25970	0.52582	-0.00702	30.1	13111	100
2025-3-27 17:43:53.613	WT901BLE68-01(48591DE3C19B)	-0.677	-1.028	0.127	50.415	17.090	-66.833	-65.28	-7.48	-110.71	-114.268	-26.068	26.754	0.44870	-0.35110	0.41153	-0.71127	30.1	13111	100
2025-3-27 17:43:53.644	WT901BLE68-01(48591DE3C19B)	-0.677	-1.015	0.141	46.631	-21.362	-43.640	-64.94	-7.76	-110.66	-114.268	-26.068	26.754	0.44870	-0.35110	0.41153	-0.71127	30.1	13111	100
2025-3-27 17:43:53.644	WT901BLE68-01(48591DE3C19B)	-0.687	-1.015	0.141	46.631	-21.362	-43.640	-64.61	-8.04	-110.60	-114.268	-26.068	26.754	0.44870	-0.35110	0.41153	-0.71127	30.1	13111	100
2025-3-27 17:43:53.644	WT901BLE68-01(48591DE3C19B)	-0.687	-0.990	0.103	46.021	-48.279	-28.992	-64.32	-8.30	-110.25	-114.268	-26.068	26.754	0.44870	-0.35110	0.41153	-0.71127	30.1	13111	100
2025-3-27 17:43:53.644	WT901BLE68-01(48591DE3C19B)	-0.625	-0.990	0.103	46.021	-48.279	-28.992	-64.04	-8.55	-109.89	-114.268	-26.068	26.754	0.44870	-0.35110	0.41153	-0.71127	30.1	13111	100
2025-3-27 17:43:53.702	WT901BLE68-01(48591DE3C19B)	-0.625	-0.938	0.031	45.471	-64.026	-19.470	-63.80	-8.79	-109.34	-114.268	-26.068	26.754	0.44870	-0.35110	0.41153	-0.71127	30.1	13111	100
2025-3-27 17:43:53.702	WT901BLE68-01(48591DE3C19B)	-0.559	-0.938	0.031	45.471	-64.026	-19.470	-63.56	-9.03	-108.79	-114.268	-26.068	26.754	0.44870	-0.35110	0.41153	-0.71127	30.1	13111	100
2025-3-27 17:43:53.702	WT901BLE68-01(48591DE3C19B)	-0.559	-0.901	-0.011	43.152	-70.129	-14.038	-63.36	-9.24	-108.17	-114.268	-26.068	26.754	0.44870	-0.35110	0.41153	-0.71127	30.1	13111	100
2025-3-27 17:43:53.702	WT901BLE68-01(48591DE3C19B)	-0.511	-0.901	-0.011	43.152	-70.129	-14.038	-63.17	-9.46	-107.53	-114.268	-26.068	26.754	0.44870	-0.35110	0.41153	-0.71127	30.1	13111	100
2025-3-27 17:43:53.730	WT901BLE68-01(48591DE3C19B)	-0.511	-0.877	-0.009	40.344	-72.998	-11.169	-63.01	-9.66	-106.86	-114.268	-26.068	26.754	0.44870	-0.35110	0.41153	-0.71127	30.1	13111	100
2025-3-27 17:43:53.730	WT901BLE68-01(48591DE3C19B)	-0.452	-0.877	-0.009	40.344	-72.998	-11.169	-62.86	-9.87	-106.19	-114.268	-26.068	26.754	0.44870	-0.35110	0.41153	-0.71127	30.1	13111	100
2025-3-27 17:43:53.731	WT901BLE68-01(48591DE3C19B)	-0.452	-0.915	0.019	36.621	-75.073	-9.521	-62.76	-10.07	-105.50	-114.268	-26.068	26.754	0.44870	-0.35110	0.41153	-0.71127	30.1	13111	100
2025-3-27 17:43:53.731	WT901BLE68-01(48591DE3C19B)	-0.402	-0.915	0.019	36.621	-75.073	-9.521	-62.66	-10.27	-104.79	-114.268	-26.068	26.754	0.44870	-0.35110	0.41153	-0.71127	30.1	13111	100
2025-3-27 17:43:53.760	WT901BLE68-01(48591DE3C19B)	-0.402	-0.957	0.027	35.156	-73.975	-7.629	-62.58	-10.46	-104.10	-114.268	-26.068	26.754	0.44870	-0.35110	0.41153	-0.71127	30.1	13111	100
2025-3-27 17:43:53.761	WT901BLE68-01(48591DE3C19B)	-0.380	-0.957	0.027	35.156	-73.975	-7.629	-62.50	-10.65	-103.40	-114.268	-26.068	26.754	0.44870	-0.35110	0.41153	-0.71127	30.1	13111	100
2025-3-27 17:43:53.761	WT901BLE68-01(48591DE3C19B)	-0.380	-0.972	0.013	31.311	-70.557	-4.211	-62.46	-10.79	-102.71	-114.268	-26.068	26.754	0.44870	-0.35110	0.41153	-0.71127	30.1	13111	100
2025-3-27 17:43:53.761	WT901BLE68-01(48591DE3C19B)	-0.369	-0.972	0.013	31.311	-70.557	-4.211	-62.42	-10.94	-102.02	-114.268	-26.068	26.754	0.44870	-0.35110	0.41153	-0.71127	30.1	13111	100
2025-3-27 17:43:53.822	WT901BLE68-01(48591DE3C19B)	-0.350	-1.026	0.001	24.353	-63.354	0.244	-62.45	-11.02	-101.39	-114.268	-26.068	26.754	0.44870	-0.35110	0.41153	-0.71127	30.1	13111	100
2025-3-27 17:43:53.822	WT901BLE68-01(48591DE3C19B)	-0.350	-1.104	-0.012	18.372	-49.805	6.348	-62.51	-11.04	-100.79	-114.268	-26.068	26.754	0.44870	-0.35110	0.41153	-0.71127	30.1	13111	100
2025-3-27 17:43:53.822	WT901BLE68-01(48591DE3C19B)	-0.336	-1.104	-0.012	18.372	-49.805	6.348	-62.58	-11.01	-100.24	-114.268	-26.068	26.754	0.44870	-0.35110	0.41153	-0.71127	30.1	13111	100
2025-3-27 17:43:53.822	WT901BLE68-01(48591DE3C19B)	-0.336	-1.088	-0.029	11.963	-33.936	12.878	-62.67	-10.92	-99.75	-114.268	-26.068	26.754	0.44870	-0.35110	0.41153	-0.71127	30.1	13111	100
2025-3-27 17:43:53.850	WT901BLE68-01(48591DE3C19B)	-0.329	-1.088	-0.029	11.963	-33.936	12.878	-62.78	-10.77	-99.32	-107.506	-58.702	22.932	0.44870	-0.35110	0.41153	-0.71127	30.1	13111	100
2025-3-27 17:43:53.851	WT901BLE68-01(48591DE3C19B)	-0.329	-1.081	-0.044	-0.793	-21.179	20.447	-62.95	-10.55	-98.93	-107.506	-58.702	22.932	0.44870	-0.35110	0.41153	-0.71127	30.1	13111	100
2025-3-27 17:43:53.851	WT901BLE68-01(48591DE3C19B)	-0.345	-1.081	-0.044	-0.793	-21.179	20.447	-63.18	-10.28	-98.58	-107.506	-58.702	22.932	0.44870	-0.35110	0.41153	-0.71127	30.1	13111	100
2025-3-27 17:43:53.851	WT901BLE68-01(48591DE3C19B)	-0.345	-1.172	-0.079	-17.944	-10.071	28.931	-63.48	-9.95	-98.27	-107.506	-58.702	22.932	0.44870	-0.35110	0.41153	-0.71127	30.1	13111	100
2025-3-27 17:43:53.881	WT901BLE68-01(48591DE3C19B)	-0.366	-1.172	-0.079	-17.944	-10.071	28.931	-63.86	-9.56	-97.99	-107.506	-58.702	22.932	0.44870	-0.35110	0.41153	-0.71127	30.1	13111	100
2025-3-27 17:43:53.881	WT901BLE68-01(48591DE3C19B)	-0.366	-1.396	-0.132	-40.161	0.183	37.476	-64.35	-9.11	-97.74	-107.506	-58.702	22.932	0.44870	-0.35110	0.41153	-0.71127	30.1	13111	100
2025-3-27 17:43:53.881	WT901BLE68-01(48591DE3C19B)	-0.416	-1.396	-0.132	-40.161	0.183	37.476	-64.94	-8.61	-97.53	-107.506	-58.702	22.932	0.44870	-0.35110	0.41153	-0.71127	30.1	13111	100
2025-3-27 17:43:53.881	WT901BLE68-01(48591DE3C19B)	-0.416	-1.526	-0.121	-56.580	5.005	46.387	-65.60	-8.06	-97.32	-107.506	-58.702	22.932	0.44870	-0.35110	0.41153	-0.71127	30.1	13111	100
2025-3-27 17:43:53.941	WT901BLE68-01(48591DE3C19B)	-0.477	-1.526	-0.121	-56.580	5.005	46.387	-66.35	-7.47	-97.14	-107.506	-58.702	22.932	0.44870	-0.35110	0.41153	-0.71127	30.1	13111	100
2025-3-27 17:43:53.942	WT901BLE68-01(48591DE3C19B)	-0.477	-1.194	0.004	-72.083	-8.789	64.209	-67.18	-6.82	-96.86	-107.506	-58.702	22.932	0.44870	-0.35110	0.41153	-0.71127	30.1	13111	100
2025-3-27 17:43:53.942	WT901BLE68-01(48591DE3C19B)	-0.510	-1.194	0.004	-72.083	-8.789	64.209	-68.08	-6.11	-96.49	-107.506	-58.702	22.932	0.44870	-0.35110	0.41153	-0.71127	30.1	13111	100
2025-3-27 17:43:53.942	WT901BLE68-01(48591DE3C19B)	-0.510	-0.830	0.120	-95.947	-44.678	92.712	-69.11	-5.33	-95.92	-107.506	-58.702	22.932	0.44870	-0.35110	0.41153	-0.71127	30.1	13111	100
2025-3-27 17:43:53.974	WT901BLE68-01(48591DE3C19B)	-0.523	-0.830	0.120	-95.947	-44.678	92.712	-70.26	-4.47	-95.14	-107.506	-58.702	22.932	0.44870	-0.35110	0.41153	-0.71127	30.1	13111	100
2025-3-27 17:43:53.974	WT901BLE68-01(48591DE3C19B)	-0.523	-0.671	0.168	-112.732	-95.337	125.549	-71.49	-3.52	-94.10	-107.506	-58.702	22.932	0.44870	-0.35110	0.41153	-0.71127	30.1	13111	100
2025-3-27 17:43:53.974	WT901BLE68-01(48591DE3C19B)	-0.526	-0.671	0.168	-112.732	-95.337	125.549	-72.79	-2.47	-92.78	-107.506	-58.702	22.932	0.44870	-0.35110	0.41153	-0.71127	30.1	13111	100
2025-3-27 17:43:53.974	WT901BLE68-01(48591DE3C19B)	-0.526	-0.771	0.099	-131.592	-153.992	162.659	-74.15	-1.30	-91.16	-107.506	-58.702	22.932	0.44870	-0.35110	0.41153	-0.71127	30.1	13111	100
2025-3-27 17:43:54.38	WT901BLE68-01(48591DE3C19B)	-0.482	-0.771	0.099	-131.592	-153.992	162.659	-75.56	0.01	-89.23	-107.506	-58.702	22.932	0.44870	-0.35110	0.41153	-0.71127	30.1	13111	100
2025-3-27 17:43:54.38	WT901BLE68-01(48591DE3C19B)	-0.482	-1.055	0.010	-140.503	-223.450	200.928	-76.96	1.48	-86.96	-107.506	-58.702	22.932	0.44870	-0.35110	0.41153	-0.71127	30.1	13111	100
2025-3-27 17:43:54.38	WT901BLE68-01(48591DE3C19B)	-0.363	-1.055	0.010	-140.503	-223.450	200.928	-78.32	3.09	-84.34	-107.506	-58.702	22.932	0.58588	-0.45380	0.43930	-0.50766	30.1	13111	100
2025-3-27 17:43:54.38	WT901BLE68-01(48591DE3C19B)	-0.363	-1.449	-0.140	-138.367	-287.109	234.619	-79.56	4.86	-81.40	-107.506	-58.702	22.932	0.58588	-0.45380	0.43930	-0.50766	30.1	13111	100
2025-3-27 17:43:54.61	WT901BLE68-01(48591DE3C19B)	-0.194	-1.449	-0.140	-138.367	-287.109	234.619	-80.67	6.78	-78.15	-107.506	-58.702	22.932	0.58588	-0.45380	0.43930	-0.50766	30.1	13111	100
2025-3-27 17:43:54.61	WT901BLE68-01(48591DE3C19B)	-0.194	-1.755	-0.253	-110.779	-322.937	256.165	-81.51	8.82	-74.73	-107.506	-58.702	22.932	0.58588	-0.45380	0.43930	-0.50766	30.1	13111	100
2025-3-27 17:43:54.61	WT901BLE68-01(48591DE3C19B)	-0.113	-1.755	-0.253	-110.779	-322.937	256.165	-82.05	10.95	-71.12	-107.506	-58.702	22.932	0.58588	-0.45380	0.43930	-0.50766	30.1	13111	100
2025-3-27 17:43:54.61	WT901BLE68-01(48591DE3C19B)	-0.113	-1.861	-0.188	-73.364	-338.684	268.127	-82.25	13.13	-67.41	-107.506	-58.702	22.932	0.58588	-0.45380	0.43930	-0.50766	30.1	13111	100
2025-3-27 17:43:54.121	WT901BLE68-01(48591DE3C19B)	-0.194	-1.861	-0.188	-73.364	-338.684	268.127	-82.11	15.33	-63.58	-107.506	-58.702	22.932	0.58588	-0.45380	0.43930	-0.50766	30.1	13111	100
2025-3-27 17:43:54.121	WT901BLE68-01(48591DE3C19B)	-0.194	-2.028	0.081	-39.734	-348.511	264.954	-81.63	17.47	-59.67	-107.506	-58.702	22.932	0.58588	-0.45380	0.43930	-0.50766	30.1	13111	100
2025-3-27 17:43:54.121	WT901BLE68-01(48591DE3C19B)	-0.049	-2.028	0.081	-39.734	-348.511	264.954	-80.80	19.52	-55.63	-107.506	-58.702	22.932	0.58588	-0.45380	0.43930	-0.50766	30.1	13111	100
2025-3-27 17:43:54.122	WT901BLE68-01(48591DE3C19B)	-0.049	-2.272	0.154	1.221	-329.224	257.446	-79.66	21.47	-51.62	-107.506	-58.702	22.932	0.58588	-0.45380	0.43930	-0.50766	30.1	13111	100
2025-3-27 17:43:54.123	WT901BLE68-01(48591DE3C19B)	0.270	-2.272	0.154	1.221	-329.224	257.446	-78.18	23.30	-47.63	-107.506	-58.702	22.932	0.58588	-0.45380	0.43930	-0.50766	30.1	13111	100
2025-3-27 17:43:54.123	WT901BLE68-01(48591DE3C19B)	0.270	-2.112	0.223	51.636	-258.362	248.962	-76.48	25.04	-43.92	-107.506	-58.702	22.932	0.58588	-0.45380	0.43930	-0.50766	30.1	13111	100
2025-3-27 17:43:54.123	WT901BLE68-01(48591DE3C19B)	0.420	-2.112	0.223	51.636	-258.362	248.962	-74.55	26.70	-40.56	-107.506	-58.702	22.932	0.58588	-0.45380	0.43930	-0.50766	30.1	13111	100
2025-3-27 17:43:54.123	WT901BLE68-01(48591DE3C19B)	0.420	-1.776	0.214	73.914	-139.832	234.985	-72.71	28.34	-37.81	-107.506	-58.702	22.932	0.58588	-0.45380	0.43930	-0.50766	30.1	13111	100
2025-3-27 17:43:54.182	WT901BLE68-01(48591DE3C19B)	0.366	-1.776	0.214	73.914	-139.832	234.985	-70.96	30.01	-35.64	-107.506	-58.702	22.932	0.58588	-0.45380	0.43930	-0.50766	30.1	13111	100
2025-3-27 17:43:54.182	WT901BLE68-01(48591DE3C19B)	0.366	-1.516	0.160	79.468	-15.198	219.238	-69.46	31.74	-34.10	-107.506	-58.702	22.932	0.58588	-0.45380	0.43930	-0.50766	30.1	13111	100
2025-3-27 17:43:54.182	WT901BLE68-01(48591DE3C19B)	0.125	-1.516	0.160	79.468	-15.198	219.238	-68.25	33.57	-33.20	-107.506	-58.702	22.932	0.58588	-0.45380	0.43930	-0.50766	30.1	13111	100
2025-3-27 17:43:54.182	WT901BLE68-01(48591DE3C19B)	0.125	-1.375	0.150	69.092	70.007	207.214	-67.32	35.47	-32.75	-107.506	-58.702	22.932	0.58588	-0.45380	0.43930	-0.50766	30.1	13111	100
2025-3-27 17:43:54.240	WT901BLE68-01(48591DE3C19B)	-0.063	-1.375	0.150	69.092	70.007	207.214	-66.70	37.46	-32.77	-107.506	-58.702	22.932	0.58588	-0.45380	0.43930	-0.50766	30.1	13111	100
2025-3-27 17:43:54.240	WT901BLE68-01(48591DE3C19B)	-0.063	-1.434	0.201	54.565	100.769	198.364	-66.27	39.45	-32.96	-107.506	-58.702	22.932	0.58588	-0.45380	0.43930	-0.50766	30.1	13111	100
2025-3-27 17:43:54.240	WT901BLE68-01(48591DE3C19B)	-0.078	-1.434	0.201	54.565	100.769	198.364	-66.04	41.46	-33.35	-90.552	7.546	58.604	0.58588	-0.45380	0.43930	-0.50766	30.1	13111	100
2025-3-27 17:43:54.241	WT901BLE68-01(48591DE3C19B)	-0.078	-1.467	0.148	49.011	96.741	187.927	-65.84	43.40	-33.73	-90.552	7.546	58.604	0.58588	-0.45380	0.43930	-0.50766	30.1	13111	100
2025-3-27 17:43:54.271	WT901BLE68-01(48591DE3C19B)	-0.048	-1.467	0.148	49.011	96.741	187.927	-65.68	45.28	-34.12	-90.552	7.546	58.604	0.58588	-0.45380	0.43930	-0.50766	30.1	13111	100
2025-3-27 17:43:54.271	WT901BLE68-01(48591DE3C19B)	-0.048	-1.307	0.099	47.363	81.665	185.181	-65.47	47.10	-34.41	-90.552	7.546	58.604	0.58588	-0.45380	0.43930	-0.50766	30.1	13111	100
2025-3-27 17:43:54.271	WT901BLE68-01(48591DE3C19B)	-0.058	-1.307	0.099	47.363	81.665	185.181	-65.20	48.87	-34.61	-90.552	7.546	58.604	0.58588	-0.45380	0.43930	-0.50766	30.1	13111	100
2025-3-27 17:43:54.271	WT901BLE68-01(48591DE3C19B)	-0.058	-1.173	0.064	42.908	59.631	173.767	-64.80	50.44	-34.56	-90.552	7.546	58.604	0.58588	-0.45380	0.43930	-0.50766	30.1	13111	100
2025-3-27 17:43:54.300	WT901BLE68-01(48591DE3C19B)	-0.082	-1.173	0.064	42.908	59.631	173.767	-64.37	52.00	-34.49	-90.552	7.546	58.604	0.58588	-0.45380	0.43930	-0.50766	30.1	13111	100
2025-3-27 17:43:54.300	WT901BLE68-01(48591DE3C19B)	-0.082	-1.034	0.078	38.818	28.503	156.982	-63.69	53.26	-34.05	-90.552	7.546	58.604	0.58588	-0.45380	0.43930	-0.50766	30.1	13111	100
2025-3-27 17:43:54.300	WT901BLE68-01(48591DE3C19B)	-0.090	-1.034	0.078	38.818	28.503	156.982	-62.98	54.52	-33.57	-90.552	7.546	58.604	0.58588	-0.45380	0.43930	-0.50766	30.1	13111	100
2025-3-27 17:43:54.301	WT901BLE68-01(48591DE3C19B)	-0.090	-0.928	0.109	32.776	7.080	137.024	-62.14	55.49	-32.87	-90.552	7.546	58.604	0.58588	-0.45380	0.43930	-0.50766	30.1	13111	100
2025-3-27 17:43:54.330	WT901BLE68-01(48591DE3C19B)	-0.071	-0.928	0.109	32.776	7.080	137.024	-61.27	56.45	-32.13	-90.552	7.546	58.604	0.58588	-0.45380	0.43930	-0.50766	30.1	13111	100
2025-3-27 17:43:54.330	WT901BLE68-01(48591DE3C19B)	-0.071	-0.856	0.135	28.564	-1.709	114.563	-60.44	57.16	-31.40	-90.552	7.546	58.604	0.58588	-0.45380	0.43930	-0.50766	30.1	13111	100
2025-3-27 17:43:54.331	WT901BLE68-01(48591DE3C19B)	-0.081	-0.856	0.135	28.564	-1.709	114.563	-59.58	57.85	-30.65	-90.552	7.546	58.604	0.58588	-0.45380	0.43930	-0.50766	30.1	13111	100
2025-3-27 17:43:54.331	WT901BLE68-01(48591DE3C19B)	-0.081	-0.775	0.151	24.048	-7.019	92.896	-58.84	58.33	-29.98	-90.552	7.546	58.604	0.58588	-0.45380	0.43930	-0.50766	30.1	13111	100
2025-3-27 17:43:54.392	WT901BLE68-01(48591DE3C19B)	-0.059	-0.775	0.151	24.048	-7.019	92.896	-58.07	58.80	-29.28	-90.552	7.546	58.604	0.58588	-0.45380	0.43930	-0.50766	30.1	13111	100
2025-3-27 17:43:54.392	WT901BLE68-01(48591DE3C19B)	-0.059	-0.699	0.156	20.203	-14.404	69.580	-57.43	59.03	-28.69	-90.552	7.546	58.604	0.58588	-0.45380	0.43930	-0.50766	30.1	13111	100
2025-3-27 17:43:54.392	WT901BLE68-01(48591DE3C19B)	-0.046	-0.699	0.156	20.203	-14.404	69.580	-56.77	59.25	-28.09	-90.552	7.546	58.604	0.58588	-0.45380	0.43930	-0.50766	30.1	13111	100
2025-3-27 17:43:54.392	WT901BLE68-01(48591DE3C19B)	-0.046	-0.630	0.154	15.503	-21.362	45.776	-56.28	59.23	-27.61	-90.552	7.546	58.604	0.58588	-0.45380	0.43930	-0.50766	30.1	13111	100
2025-3-27 17:43:54.438	WT901BLE68-01(48591DE3C19B)	-0.055	-0.630	0.154	15.503	-21.362	45.776	-55.78	59.21	-27.14	-90.552	7.546	58.604	0.58588	-0.45380	0.43930	-0.50766	30.1	13111	100
2025-3-27 17:43:54.438	WT901BLE68-01(48591DE3C19B)	-0.055	-0.580	0.146	10.254	-25.085	22.461	-55.51	58.97	-26.87	-90.552	7.546	58.604	0.58588	-0.45380	0.43930	-0.50766	30.1	13111	100
2025-3-27 17:43:54.438	WT901BLE68-01(48591DE3C19B)	-0.077	-0.580	0.146	10.254	-25.085	22.461	-55.23	58.74	-26.59	-90.552	7.546	58.604	0.58588	-0.45380	0.43930	-0.50766	30.1	13111	100
2025-3-27 17:43:54.438	WT901BLE68-01(48591DE3C19B)	-0.077	-0.557	0.135	5.920	-24.109	-1.160	-55.23	58.32	-26.59	-90.552	7.546	58.604	0.80554	-0.29538	0.51193	0.04099	30.1	13111	100
2025-3-27 17:43:54.482	WT901BLE68-01(48591DE3C19B)	-0.097	-0.557	0.135	5.920	-24.109	-1.160	-55.23	57.90	-26.58	-90.552	7.546	58.604	0.80554	-0.29538	0.51193	0.04099	30.1	13111	100
2025-3-27 17:43:54.482	WT901BLE68-01(48591DE3C19B)	-0.097	-0.543	0.146	2.930	-24.048	-24.719	-55.46	57.29	-26.81	-90.552	7.546	58.604	0.80554	-0.29538	0.51193	0.04099	30.1	13111	100
2025-3-27 17:43:54.482	WT901BLE68-01(48591DE3C19B)	-0.102	-0.543	0.146	2.930	-24.048	-24.719	-55.68	56.68	-27.04	-90.552	7.546	58.604	0.80554	-0.29538	0.51193	0.04099	30.1	13111	100
2025-3-27 17:43:54.482	WT901BLE68-01(48591DE3C19B)	-0.102	-0.550	0.167	-0.732	-24.109	-47.913	-56.11	55.89	-27.48	-90.552	7.546	58.604	0.80554	-0.29538	0.51193	0.04099	30.1	13111	100
2025-3-27 17:43:54.512	WT901BLE68-01(48591DE3C19B)	-0.110	-0.550	0.167	-0.732	-24.109	-47.913	-56.51	55.10	-27.89	-90.552	7.546	58.604	0.80554	-0.29538	0.51193	0.04099	30.1	13111	100
2025-3-27 17:43:54.512	WT901BLE68-01(48591DE3C19B)	-0.110	-0.568	0.194	-3.174	-21.240	-70.679	-57.12	54.14	-28.54	-90.552	7.546	58.604	0.80554	-0.29538	0.51193	0.04099	30.1	13111	100
2025-3-27 17:43:54.512	WT901BLE68-01(48591DE3C19B)	-0.124	-0.568	0.194	-3.174	-21.240	-70.679	-57.69	53.18	-29.15	-90.552	7.546	58.604	0.80554	-0.29538	0.51193	0.04099	30.1	13111	100
2025-3-27 17:43:54.512	WT901BLE68-01(48591DE3C19B)	-0.124	-0.595	0.211	-6.409	-15.625	-92.590	-58.46	52.08	-29.98	-90.552	7.546	58.604	0.80554	-0.29538	0.51193	0.04099	30.1	13111	100
2025-3-27 17:43:54.543	WT901BLE68-01(48591DE3C19B)	-0.113	-0.595	0.211	-6.409	-15.625	-92.590	-59.18	50.97	-30.77	-90.552	7.546	58.604	0.80554	-0.29538	0.51193	0.04099	30.1	13111	100
2025-3-27 17:43:54.543	WT901BLE68-01(48591DE3C19B)	-0.113	-0.631	0.201	-9.460	-4.089	-116.943	-60.15	49.70	-31.85	-90.552	7.546	58.604	0.80554	-0.29538	0.51193	0.04099	30.1	13111	100
2025-3-27 17:43:54.543	WT901BLE68-01(48591DE3C19B)	-0.095	-0.631	0.201	-9.460	-4.089	-116.943	-61.05	48.44	-32.87	-90.552	7.546	58.604	0.80554	-0.29538	0.51193	0.04099	30.1	13111	100
2025-3-27 17:43:54.544	WT901BLE68-01(48591DE3C19B)	-0.095	-0.703	0.178	-14.099	13.123	-143.494	-62.23	47.02	-34.24	-90.552	7.546	58.604	0.80554	-0.29538	0.51193	0.04099	30.1	13111	100
2025-3-27 17:43:54.573	WT901BLE68-01(48591DE3C19B)	-0.143	-0.703	0.178	-14.099	13.123	-143.494	-63.33	45.59	-35.52	-90.552	7.546	58.604	0.80554	-0.29538	0.51193	0.04099	30.1	13111	100
2025-3-27 17:43:54.573	WT901BLE68-01(48591DE3C19B)	-0.143	-0.843	0.188	-17.029	29.358	-175.537	-64.65	43.94	-37.13	-90.552	7.546	58.604	0.80554	-0.29538	0.51193	0.04099	30.1	13111	100
2025-3-27 17:43:54.573	WT901BLE68-01(48591DE3C19B)	-0.256	-0.843	0.188	-17.029	29.358	-175.537	-65.88	42.27	-38.64	-90.552	7.546	58.604	0.80554	-0.29538	0.51193	0.04099	30.1	13111	100
2025-3-27 17:43:54.573	WT901BLE68-01(48591DE3C19B)	-0.256	-0.996	0.236	-16.296	37.170	-210.449	-67.18	40.30	-40.33	-90.552	7.546	58.604	0.80554	-0.29538	0.51193	0.04099	30.1	13111	100
2025-3-27 17:43:54.631	WT901BLE68-01(48591DE3C19B)	-0.361	-0.996	0.236	-16.296	37.170	-210.449	-68.36	38.33	-41.91	-90.552	7.546	58.604	0.80554	-0.29538	0.51193	0.04099	30.1	13111	100
2025-3-27 17:43:54.631	WT901BLE68-01(48591DE3C19B)	-0.361	-1.137	0.286	-13.000	38.452	-242.249	-69.49	36.06	-43.55	-82.614	15.876	53.900	0.80554	-0.29538	0.51193	0.04099	30.1	13111	100
2025-3-27 17:43:54.631	WT901BLE68-01(48591DE3C19B)	-0.430	-1.137	0.286	-13.000	38.452	-242.249	-70.51	33.78	-45.09	-82.614	15.876	53.900	0.80554	-0.29538	0.51193	0.04099	30.1	13111	100
2025-3-27 17:43:54.631	WT901BLE68-01(48591DE3C19B)	-0.430	-1.239	0.301	-9.827	37.354	-269.653	-71.44	31.23	-46.62	-82.614	15.876	53.900	0.80554	-0.29538	0.51193	0.04099	30.1	13111	100
2025-3-27 17:43:54.661	WT901BLE68-01(48591DE3C19B)	-0.451	-1.239	0.301	-9.827	37.354	-269.653	-72.27	28.69	-48.07	-82.614	15.876	53.900	0.80554	-0.29538	0.51193	0.04099	30.1	13111	100
2025-3-27 17:43:54.661	WT901BLE68-01(48591DE3C19B)	-0.451	-1.387	0.261	-11.719	42.358	-298.584	-73.08	25.89	-49.58	-82.614	15.876	53.900	0.80554	-0.29538	0.51193	0.04099	30.1	13111	100
2025-3-27 17:43:54.661	WT901BLE68-01(48591DE3C19B)	-0.446	-1.387	0.261	-11.719	42.358	-298.584	-73.80	23.10	-51.02	-82.614	15.876	53.900	0.80554	-0.29538	0.51193	0.04099	30.1	13111	100
2025-3-27 17:43:54.661	WT901BLE68-01(48591DE3C19B)	-0.446	-1.627	0.210	-12.939	52.307	-324.890	-74.50	20.08	-52.56	-82.614	15.876	53.900	0.80554	-0.29538	0.51193	0.04099	30.1	13111	100
2025-3-27 17:43:54.690	WT901BLE68-01(48591DE3C19B)	-0.458	-1.627	0.210	-12.939	52.307	-324.890	-75.11	17.06	-54.04	-82.614	15.876	53.900	0.80554	-0.29538	0.51193	0.04099	30.1	13111	100
2025-3-27 17:43:54.691	WT901BLE68-01(48591DE3C19B)	-0.458	-1.900	0.191	-11.536	59.998	-342.957	-75.65	13.90	-55.59	-82.614	15.876	53.900	0.80554	-0.29538	0.51193	0.04099	30.1	13111	100
2025-3-27 17:43:54.691	WT901BLE68-01(48591DE3C19B)	-0.491	-1.900	0.191	-11.536	59.998	-342.957	-76.09	10.73	-57.08	-82.614	15.876	53.900	0.80554	-0.29538	0.51193	0.04099	30.1	13111	100
2025-3-27 17:43:54.691	WT901BLE68-01(48591DE3C19B)	-0.491	-2.090	0.211	-1.953	76.477	-351.013	-76.39	7.55	-58.72	-82.614	15.876	53.900	0.80554	-0.29538	0.51193	0.04099	30.1	13111	100
2025-3-27 17:43:54.750	WT901BLE68-01(48591DE3C19B)	-0.523	-2.090	0.211	-1.953	76.477	-351.013	-76.60	4.37	-60.33	-82.614	15.876	53.900	0.80554	-0.29538	0.51193	0.04099	30.1	13111	100
2025-3-27 17:43:54.751	WT901BLE68-01(48591DE3C19B)	-0.527	-2.121	0.207	9.033	107.910	-346.069	-76.62	1.32	-62.22	-82.614	15.876	53.900	0.80554	-0.29538	0.51193	0.04099	30.1	13111	100
2025-3-27 17:43:54.751	WT901BLE68-01(48591DE3C19B)	-0.527	-1.997	0.142	22.339	157.043	-324.707	-76.49	-1.54	-64.31	-82.614	15.876	53.900	0.80554	-0.29538	0.51193	0.04099	30.1	13111	100
2025-3-27 17:43:54.751	WT901BLE68-01(48591DE3C19B)	-0.507	-1.997	0.142	22.339	157.043	-324.707	-76.18	-4.21	-66.64	-82.614	15.876	53.900	0.80554	-0.29538	0.51193	0.04099	30.1	13111	100
2025-3-27 17:43:54.811	WT901BLE68-01(48591DE3C19B)	-0.507	-1.755	0.060	35.645	213.379	-292.847	-75.67	-6.64	-69.22	-82.614	15.876	53.900	0.80554	-0.29538	0.51193	0.04099	30.1	13111	100
2025-3-27 17:43:54.811	WT901BLE68-01(48591DE3C19B)	-0.458	-1.755	0.060	35.645	213.379	-292.847	-74.98	-8.79	-72.08	-82.614	15.876	53.900	0.80554	-0.29538	0.51193	0.04099	30.1	13111	100
2025-3-27 17:43:54.811	WT901BLE68-01(48591DE3C19B)	-0.458	-1.514	0.066	43.213	260.254	-256.104	-74.11	-10.65	-75.16	-82.614	15.876	53.900	0.80554	-0.29538	0.51193	0.04099	30.1	13111	100
2025-3-27 17:43:54.811	WT901BLE68-01(48591DE3C19B)	-0.455	-1.514	0.066	43.213	260.254	-256.104	-73.09	-12.21	-78.45	-82.614	15.876	53.900	0.80554	-0.29538	0.51193	0.04099	30.1	13111	100
2025-3-27 17:43:54.812	WT901BLE68-01(48591DE3C19B)	-0.455	-1.406	0.147	46.631	276.245	-215.149	-71.96	-13.49	-81.81	-82.614	15.876	53.900	0.80554	-0.29538	0.51193	0.04099	30.1	13111	100
2025-3-27 17:43:54.812	WT901BLE68-01(48591DE3C19B)	-0.471	-1.406	0.147	46.631	276.245	-215.149	-70.74	-14.46	-85.22	-82.614	15.876	53.900	0.80554	-0.29538	0.51193	0.04099	30.1	13111	100
2025-3-27 17:43:54.812	WT901BLE68-01(48591DE3C19B)	-0.471	-1.399	0.194	53.101	267.029	-177.429	-69.47	-15.20	-88.56	-82.614	15.876	53.900	0.52332	-0.47394	0.31818	-0.63260	30.1	13111	100
2025-3-27 17:43:54.812	WT901BLE68-01(48591DE3C19B)	-0.529	-1.399	0.194	53.101	267.029	-177.429	-68.16	-15.70	-91.80	-82.614	15.876	53.900	0.52332	-0.47394	0.31818	-0.63260	30.1	13111	100
2025-3-27 17:43:54.901	WT901BLE68-01(48591DE3C19B)	-0.529	-1.373	0.135	61.584	237.427	-143.677	-66.85	-16.03	-94.84	-82.614	15.876	53.900	0.52332	-0.47394	0.31818	-0.63260	30.1	13111	100
2025-3-27 17:43:54.901	WT901BLE68-01(48591DE3C19B)	-0.593	-1.373	0.135	61.584	237.427	-143.677	-65.54	-16.19	-97.70	-82.614	15.876	53.900	0.52332	-0.47394	0.31818	-0.63260	30.1	13111	100
2025-3-27 17:43:54.902	WT901BLE68-01(48591DE3C19B)	-0.593	-1.267	0.011	68.420	190.918	-112.244	-64.29	-16.24	-100.27	-82.614	15.876	53.900	0.52332	-0.47394	0.31818	-0.63260	30.1	13111	100
2025-3-27 17:43:54.902	WT901BLE68-01(48591DE3C19B)	-0.659	-1.267	0.011	68.420	190.918	-112.244	-63.08	-16.20	-102.54	-82.614	15.876	53.900	0.52332	-0.47394	0.31818	-0.63260	30.1	13111	100
2025-3-27 17:43:54.902	WT901BLE68-01(48591DE3C19B)	-0.659	-1.178	-0.121	67.322	137.146	-88.562	-61.98	-16.13	-104.51	-82.614	15.876	53.900	0.52332	-0.47394	0.31818	-0.63260	30.1	13111	100
2025-3-27 17:43:54.902	WT901BLE68-01(48591DE3C19B)	-0.741	-1.178	-0.121	67.322	137.146	-88.562	-60.99	-16.05	-106.17	-82.614	15.876	53.900	0.52332	-0.47394	0.31818	-0.63260	30.1	13111	100
2025-3-27 17:43:54.902	WT901BLE68-01(48591DE3C19B)	-0.741	-1.152	-0.226	64.270	82.703	-73.547	-60.11	-16.00	-107.55	-82.614	15.876	53.900	0.52332	-0.47394	0.31818	-0.63260	30.1	13111	100
2025-3-27 17:43:54.903	WT901BLE68-01(48591DE3C19B)	-0.723	-1.152	-0.226	64.270	82.703	-73.547	-59.32	-16.00	-108.63	-82.614	15.876	53.900	0.52332	-0.47394	0.31818	-0.63260	30.1	13111	100
2025-3-27 17:43:54.930	WT901BLE68-01(48591DE3C19B)	-0.723	-1.135	-0.253	60.181	27.283	-64.331	-58.65	-16.08	-109.43	-82.614	15.876	53.900	0.52332	-0.47394	0.31818	-0.63260	30.1	13111	100
2025-3-27 17:43:54.931	WT901BLE68-01(48591DE3C19B)	-0.674	-1.135	-0.253	60.181	27.283	-64.331	-58.07	-16.26	-109.97	-82.614	15.876	53.900	0.52332	-0.47394	0.31818	-0.63260	30.1	13111	100
2025-3-27 17:43:54.931	WT901BLE68-01(48591DE3C19B)	-0.674	-1.128	-0.204	52.185	-19.897	-58.716	-57.61	-16.53	-110.28	-82.614	15.876	53.900	0.52332	-0.47394	0.31818	-0.63260	30.1	13111	100
2025-3-27 17:43:54.931	WT901BLE68-01(48591DE3C19B)	-0.634	-1.128	-0.204	52.185	-19.897	-58.716	-57.26	-16.90	-110.36	-82.614	15.876	53.900	0.52332	-0.47394	0.31818	-0.63260	30.1	13111	100
2025-3-27 17:43:55.21	WT901BLE68-01(48591DE3C19B)	-0.634	-1.119	-0.115	44.556	-56.946	-56.641	-57.00	-17.35	-110.28	-82.614	15.876	53.900	0.52332	-0.47394	0.31818	-0.63260	30.1	13111	100
2025-3-27 17:43:55.21	WT901BLE68-01(48591DE3C19B)	-0.577	-1.119	-0.115	44.556	-56.946	-56.641	-56.83	-17.90	-110.02	-82.614	15.876	53.900	0.52332	-0.47394	0.31818	-0.63260	30.1	13111	100
2025-3-27 17:43:55.21	WT901BLE68-01(48591DE3C19B)	-0.577	-1.070	-0.024	37.598	-81.665	-54.810	-56.74	-18.50	-109.64	-82.614	15.876	53.900	0.52332	-0.47394	0.31818	-0.63260	30.1	13111	100
2025-3-27 17:43:55.21	WT901BLE68-01(48591DE3C19B)	-0.535	-1.070	-0.024	37.598	-81.665	-54.810	-56.72	-19.15	-109.14	-82.614	15.876	53.900	0.52332	-0.47394	0.31818	-0.63260	30.1	13111	100
2025-3-27 17:43:55.22	WT901BLE68-01(48591DE3C19B)	-0.535	-1.033	0.084	29.358	-96.130	-50.781	-56.78	-19.83	-108.57	-82.614	15.876	53.900	0.52332	-0.47394	0.31818	-0.63260	30.1	13111	100
2025-3-27 17:43:55.22	WT901BLE68-01(48591DE3C19B)	-0.440	-1.033	0.084	29.358	-96.130	-50.781	-56.90	-20.52	-107.91	-82.614	15.876	53.900	0.52332	-0.47394	0.31818	-0.63260	30.1	13111	100
2025-3-27 17:43:55.22	WT901BLE68-01(48591DE3C19B)	-0.440	-0.901	0.106	23.132	-90.454	-40.833	-57.07	-21.15	-107.23	-82.614	15.876	53.900	0.52332	-0.47394	0.31818	-0.63260	30.1	13111	100
2025-3-27 17:43:55.22	WT901BLE68-01(48591DE3C19B)	-0.291	-0.901	0.106	23.132	-90.454	-40.833	-57.27	-21.73	-106.55	-103.978	-56.840	21.168	0.52332	-0.47394	0.31818	-0.63260	30.1	13111	100
2025-3-27 17:43:55.51	WT901BLE68-01(48591DE3C19B)	-0.291	-0.723	0.065	14.404	-61.096	-25.818	-57.49	-22.15	-105.96	-103.978	-56.840	21.168	0.52332	-0.47394	0.31818	-0.63260	30.1	13111	100
2025-3-27 17:43:55.51	WT901BLE68-01(48591DE3C19B)	-0.197	-0.723	0.065	14.404	-61.096	-25.818	-57.71	-22.43	-105.45	-103.978	-56.840	21.168	0.52332	-0.47394	0.31818	-0.63260	30.1	13111	100
2025-3-27 17:43:55.51	WT901BLE68-01(48591DE3C19B)	-0.197	-0.626	-0.003	2.747	-23.621	-7.202	-57.95	-22.53	-105.05	-103.978	-56.840	21.168	0.52332	-0.47394	0.31818	-0.63260	30.1	13111	100
2025-3-27 17:43:55.51	WT901BLE68-01(48591DE3C19B)	-0.182	-0.626	-0.003	2.747	-23.621	-7.202	-58.20	-22.45	-104.77	-103.978	-56.840	21.168	0.52332	-0.47394	0.31818	-0.63260	30.1	13111	100
2025-3-27 17:43:55.171	WT901BLE68-01(48591DE3C19B)	-0.182	-0.614	-0.063	-12.329	6.042	10.559	-58.49	-22.22	-104.58	-103.978	-56.840	21.168	0.52332	-0.47394	0.31818	-0.63260	30.1	13111	100
2025-3-27 17:43:55.172	WT901BLE68-01(48591DE3C19B)	-0.204	-0.614	-0.063	-12.329	6.042	10.559	-58.83	-21.85	-104.48	-103.978	-56.840	21.168	0.52332	-0.47394	0.31818	-0.63260	30.1	13111	100
2025-3-27 17:43:55.172	WT901BLE68-01(48591DE3C19B)	-0.204	-0.830	-0.143	-33.875	19.531	21.545	-59.25	-21.39	-104.41	-103.978	-56.840	21.168	0.52332	-0.47394	0.31818	-0.63260	30.1	13111	100
2025-3-27 17:43:55.172	WT901BLE68-01(48591DE3C19B)	-0.366	-0.830	-0.143	-33.875	19.531	21.545	-59.78	-20.86	-104.39	-103.978	-56.840	21.168	0.52332	-0.47394	0.31818	-0.63260	30.1	13111	100
2025-3-27 17:43:55.173	WT901BLE68-01(48591DE3C19B)	-0.366	-0.984	-0.076	-50.110	15.564	34.241	-60.40	-20.30	-104.32	-103.978	-56.840	21.168	0.52332	-0.47394	0.31818	-0.63260	30.1	13111	100
2025-3-27 17:43:55.173	WT901BLE68-01(48591DE3C19B)	-0.653	-0.984	-0.076	-50.110	15.564	34.241	-61.12	-19.69	-104.19	-103.978	-56.840	21.168	0.52332	-0.47394	0.31818	-0.63260	30.1	13111	100
2025-3-27 17:43:55.173	WT901BLE68-01(48591DE3C19B)	-0.653	-0.785	0.137	-60.913	-28.625	50.354	-61.96	-19.11	-103.84	-103.978	-56.840	21.168	0.52332	-0.47394	0.31818	-0.63260	30.1	13111	100
2025-3-27 17:43:55.173	WT901BLE68-01(48591DE3C19B)	-0.709	-0.785	0.137	-60.913	-28.625	50.354	-62.92	-18.56	-103.26	-103.978	-56.840	21.168	0.52332	-0.47394	0.31818	-0.63260	30.1	13111	100
2025-3-27 17:43:55.174	WT901BLE68-01(48591DE3C19B)	-0.709	-0.543	0.287	-82.520	-92.346	79.895	-64.08	-17.99	-102.31	-103.978	-56.840	21.168	0.52332	-0.47394	0.31818	-0.63260	30.1	13111	100
2025-3-27 17:43:55.174	WT901BLE68-01(48591DE3C19B)	-0.609	-0.543	0.287	-82.520	-92.346	79.895	-65.42	-17.40	-101.01	-103.978	-56.840	21.168	0.52332	-0.47394	0.31818	-0.63260	30.1	13111	100
2025-3-27 17:43:55.174	WT901BLE68-01(48591DE3C19B)	-0.609	-0.722	0.316	-105.774	-140.320	123.047	-66.95	-16.67	-99.42	-103.978	-56.840	21.168	0.52332	-0.47394	0.31818	-0.63260	30.1	13111	100
2025-3-27 17:43:55.174	WT901BLE68-01(48591DE3C19B)	-0.484	-0.722	0.316	-105.774	-140.320	123.047	-68.62	-15.79	-97.54	-103.978	-56.840	21.168	0.52332	-0.47394	0.31818	-0.63260	30.1	13111	100
2025-3-27 17:43:55.291	WT901BLE68-01(48591DE3C19B)	-0.484	-1.157	0.262	-113.892	-195.190	167.969	-70.50	-14.64	-95.00	-103.978	-56.840	21.168	0.52332	-0.47394	0.31818	-0.63260	30.1	13111	100
2025-3-27 17:43:55.291	WT901BLE68-01(48591DE3C19B)	-0.201	-1.157	0.262	-113.892	-195.190	167.969	-72.31	-13.42	-92.52	-103.978	-56.840	21.168	0.52332	-0.47394	0.31818	-0.63260	30.1	13111	100
2025-3-27 17:43:55.292	WT901BLE68-01(48591DE3C19B)	-0.201	-1.357	0.185	-99.121	-255.188	207.764	-74.04	-11.94	-89.37	-103.978	-56.840	21.168	0.52332	-0.47394	0.31818	-0.63260	30.1	13111	100
2025-3-27 17:43:55.292	WT901BLE68-01(48591DE3C19B)	0.062	-1.357	0.185	-99.121	-255.188	207.764	-75.67	-10.39	-86.29	-103.978	-56.840	21.168	0.52332	-0.47394	0.31818	-0.63260	30.1	13111	100
2025-3-27 17:43:55.292	WT901BLE68-01(48591DE3C19B)	0.062	-1.383	0.159	-78.552	-280.396	239.685	-77.04	-8.54	-82.95	-103.978	-56.840	21.168	0.55380	-0.50391	0.36768	-0.55142	30.1	13111	100
2025-3-27 17:43:55.292	WT901BLE68-01(48591DE3C19B)	0.159	-1.383	0.159	-78.552	-280.396	239.685	-78.29	-6.64	-79.66	-103.978	-56.840	21.168	0.55380	-0.50391	0.36768	-0.55142	30.1	13111	100
2025-3-27 17:43:55.292	WT901BLE68-01(48591DE3C19B)	0.159	-1.420	0.109	-55.298	-252.502	249.268	-79.16	-4.56	-76.67	-103.978	-56.840	21.168	0.55380	-0.50391	0.36768	-0.55142	30.1	13111	100
2025-3-27 17:43:55.293	WT901BLE68-01(48591DE3C19B)	0.030	-1.420	0.109	-55.298	-252.502	249.268	-79.92	-2.47	-73.73	-103.978	-56.840	21.168	0.55380	-0.50391	0.36768	-0.55142	30.1	13111	100
2025-3-27 17:43:55.293	WT901BLE68-01(48591DE3C19B)	0.030	-1.499	0.089	-33.325	-207.458	247.314	-80.33	-0.32	-71.26	-103.978	-56.840	21.168	0.55380	-0.50391	0.36768	-0.55142	30.1	13111	100
2025-3-27 17:43:55.293	WT901BLE68-01(48591DE3C19B)	-0.100	-1.499	0.089	-33.325	-207.458	247.314	-80.66	1.82	-68.80	-103.978	-56.840	21.168	0.55380	-0.50391	0.36768	-0.55142	30.1	13111	100
2025-3-27 17:43:55.293	WT901BLE68-01(48591DE3C19B)	-0.100	-1.856	0.128	-19.592	-167.419	239.746	-80.77	3.96	-66.76	-103.978	-56.840	21.168	0.55380	-0.50391	0.36768	-0.55142	30.1	13111	100
2025-3-27 17:43:55.293	WT901BLE68-01(48591DE3C19B)	-0.058	-1.856	0.128	-19.592	-167.419	239.746	-80.81	6.06	-64.71	-103.978	-56.840	21.168	0.55380	-0.50391	0.36768	-0.55142	30.1	13111	100
2025-3-27 17:43:55.351	WT901BLE68-01(48591DE3C19B)	-0.058	-2.193	0.098	12.390	-121.948	238.586	-80.51	8.22	-63.12	-103.978	-56.840	21.168	0.55380	-0.50391	0.36768	-0.55142	30.1	13111	100
2025-3-27 17:43:55.352	WT901BLE68-01(48591DE3C19B)	0.151	-2.193	0.098	12.390	-121.948	238.586	-80.16	10.34	-61.50	-103.978	-56.840	21.168	0.55380	-0.50391	0.36768	-0.55142	30.1	13111	100
2025-3-27 17:43:55.352	WT901BLE68-01(48591DE3C19B)	0.151	-2.069	0.074	46.082	-63.232	240.051	-79.52	12.56	-60.44	-103.978	-56.840	21.168	0.55380	-0.50391	0.36768	-0.55142	30.1	13111	100
2025-3-27 17:43:55.352	WT901BLE68-01(48591DE3C19B)	0.194	-2.069	0.074	46.082	-63.232	240.051	-78.84	14.73	-59.34	-103.978	-56.840	21.168	0.55380	-0.50391	0.36768	-0.55142	30.1	13111	100
2025-3-27 17:43:55.383	WT901BLE68-01(48591DE3C19B)	0.194	-1.771	0.102	44.250	-7.263	245.728	-78.29	17.05	-58.78	-103.978	-56.840	21.168	0.55380	-0.50391	0.36768	-0.55142	30.1	13111	100
2025-3-27 17:43:55.383	WT901BLE68-01(48591DE3C19B)	0.068	-1.771	0.102	44.250	-7.263	245.728	-77.71	19.34	-58.18	-103.978	-56.840	21.168	0.55380	-0.50391	0.36768	-0.55142	30.1	13111	100
2025-3-27 17:43:55.383	WT901BLE68-01(48591DE3C19B)	0.068	-1.670	0.140	34.119	14.832	243.408	-77.28	21.63	-57.79	-103.978	-56.840	21.168	0.55380	-0.50391	0.36768	-0.55142	30.1	13111	100
2025-3-27 17:43:55.383	WT901BLE68-01(48591DE3C19B)	-0.106	-1.670	0.140	34.119	14.832	243.408	-76.83	23.90	-57.39	-103.978	-56.840	21.168	0.55380	-0.50391	0.36768	-0.55142	30.1	13111	100
2025-3-27 17:43:55.413	WT901BLE68-01(48591DE3C19B)	-0.106	-1.647	0.287	25.146	3.784	236.206	-76.40	26.06	-56.85	-103.978	-56.840	21.168	0.55380	-0.50391	0.36768	-0.55142	30.1	13111	100
2025-3-27 17:43:55.414	WT901BLE68-01(48591DE3C19B)	-0.256	-1.647	0.287	25.146	3.784	236.206	-75.95	28.21	-56.32	-103.978	-56.840	21.168	0.55380	-0.50391	0.36768	-0.55142	30.1	13111	100
2025-3-27 17:43:55.414	WT901BLE68-01(48591DE3C19B)	-0.256	-1.797	0.295	19.226	-23.193	233.765	-75.38	30.26	-55.48	-100.744	-12.544	46.550	0.55380	-0.50391	0.36768	-0.55142	30.1	13111	100
2025-3-27 17:43:55.414	WT901BLE68-01(48591DE3C19B)	-0.208	-1.797	0.295	19.226	-23.193	233.765	-74.77	32.29	-54.60	-100.744	-12.544	46.550	0.55380	-0.50391	0.36768	-0.55142	30.1	13111	100
2025-3-27 17:43:55.472	WT901BLE68-01(48591DE3C19B)	-0.208	-1.677	0.229	28.931	-39.185	233.093	-73.91	34.25	-53.49	-100.744	-12.544	46.550	0.55380	-0.50391	0.36768	-0.55142	30.1	13111	100
2025-3-27 17:43:55.472	WT901BLE68-01(48591DE3C19B)	-0.171	-1.677	0.229	28.931	-39.185	233.093	-72.98	36.19	-52.32	-100.744	-12.544	46.550	0.55380	-0.50391	0.36768	-0.55142	30.1	13111	100
2025-3-27 17:43:55.472	WT901BLE68-01(48591DE3C19B)	-0.171	-1.479	0.167	26.001	-38.208	227.051	-72.03	38.05	-51.12	-100.744	-12.544	46.550	0.55380	-0.50391	0.36768	-0.55142	30.1	13111	100
2025-3-27 17:43:55.472	WT901BLE68-01(48591DE3C19B)	-0.197	-1.479	0.167	26.001	-38.208	227.051	-71.01	39.88	-49.85	-100.744	-12.544	46.550	0.55380	-0.50391	0.36768	-0.55142	30.1	13111	100
2025-3-27 17:43:55.500	WT901BLE68-01(48591DE3C19B)	-0.197	-1.382	0.130	22.339	-35.645	219.055	-70.00	41.62	-48.58	-100.744	-12.544	46.550	0.55380	-0.50391	0.36768	-0.55142	30.1	13111	100
2025-3-27 17:43:55.500	WT901BLE68-01(48591DE3C19B)	-0.187	-1.382	0.130	22.339	-35.645	219.055	-68.91	43.34	-47.24	-100.744	-12.544	46.550	0.55380	-0.50391	0.36768	-0.55142	30.1	13111	100
2025-3-27 17:43:55.500	WT901BLE68-01(48591DE3C19B)	-0.187	-1.278	0.107	22.095	-40.283	208.496	-67.75	44.91	-45.80	-100.744	-12.544	46.550	0.55380	-0.50391	0.36768	-0.55142	30.1	13111	100
2025-3-27 17:43:55.501	WT901BLE68-01(48591DE3C19B)	-0.139	-1.278	0.107	22.095	-40.283	208.496	-66.49	46.45	-44.29	-100.744	-12.544	46.550	0.55380	-0.50391	0.36768	-0.55142	30.1	13111	100
2025-3-27 17:43:55.538	WT901BLE68-01(48591DE3C19B)	-0.139	-1.161	0.108	21.790	-42.786	196.594	-65.19	47.84	-42.73	-100.744	-12.544	46.550	0.55380	-0.50391	0.36768	-0.55142	30.1	13111	100
2025-3-27 17:43:55.538	WT901BLE68-01(48591DE3C19B)	-0.116	-1.161	0.108	21.790	-42.786	196.594	-63.79	49.20	-41.09	-100.744	-12.544	46.550	0.55380	-0.50391	0.36768	-0.55142	30.1	13111	100
2025-3-27 17:43:55.538	WT901BLE68-01(48591DE3C19B)	-0.116	-1.064	0.131	21.790	-43.335	183.167	-62.38	50.41	-39.44	-100.744	-12.544	46.550	0.55380	-0.50391	0.36768	-0.55142	30.1	13111	100
2025-3-27 17:43:55.538	WT901BLE68-01(48591DE3C19B)	-0.102	-1.064	0.131	21.790	-43.335	183.167	-60.88	51.57	-37.71	-100.744	-12.544	46.550	0.55380	-0.50391	0.36768	-0.55142	30.1	13111	100
2025-3-27 17:43:55.621	WT901BLE68-01(48591DE3C19B)	-0.102	-0.987	0.139	21.179	-42.236	168.823	-59.40	52.59	-36.03	-100.744	-12.544	46.550	0.55380	-0.50391	0.36768	-0.55142	30.1	13111	100
2025-3-27 17:43:55.621	WT901BLE68-01(48591DE3C19B)	-0.083	-0.987	0.139	21.179	-42.236	168.823	-57.85	53.57	-34.27	-100.744	-12.544	46.550	0.55380	-0.50391	0.36768	-0.55142	30.1	13111	100
2025-3-27 17:43:55.621	WT901BLE68-01(48591DE3C19B)	-0.083	-0.913	0.148	20.386	-39.246	153.198	-56.38	54.40	-32.61	-100.744	-12.544	46.550	0.55380	-0.50391	0.36768	-0.55142	30.1	13111	100
2025-3-27 17:43:55.621	WT901BLE68-01(48591DE3C19B)	-0.084	-0.913	0.148	20.386	-39.246	153.198	-54.84	55.21	-30.90	-100.744	-12.544	46.550	0.55380	-0.50391	0.36768	-0.55142	30.1	13111	100
2025-3-27 17:43:55.622	WT901BLE68-01(48591DE3C19B)	-0.084	-0.838	0.166	17.517	-36.072	136.414	-53.45	55.86	-29.34	-100.744	-12.544	46.550	0.55380	-0.50391	0.36768	-0.55142	30.1	13111	100
2025-3-27 17:43:55.622	WT901BLE68-01(48591DE3C19B)	-0.096	-0.838	0.166	17.517	-36.072	136.414	-52.00	56.49	-27.72	-100.744	-12.544	46.550	0.55380	-0.50391	0.36768	-0.55142	30.1	13111	100
2025-3-27 17:43:55.622	WT901BLE68-01(48591DE3C19B)	-0.096	-0.777	0.182	14.282	-34.729	118.286	-50.73	56.96	-26.29	-100.744	-12.544	46.550	0.55380	-0.50391	0.36768	-0.55142	30.1	13111	100
2025-3-27 17:43:55.622	WT901BLE68-01(48591DE3C19B)	-0.087	-0.777	0.182	14.282	-34.729	118.286	-49.43	57.41	-24.82	-100.744	-12.544	46.550	0.55380	-0.50391	0.36768	-0.55142	30.1	13111	100
2025-3-27 17:43:55.682	WT901BLE68-01(48591DE3C19B)	-0.054	-0.714	0.196	10.925	-33.447	98.511	-48.35	57.69	-23.59	-100.744	-12.544	46.550	0.55380	-0.50391	0.36768	-0.55142	30.1	13111	100
2025-3-27 17:43:55.682	WT901BLE68-01(48591DE3C19B)	-0.054	-0.668	0.193	6.226	-28.198	76.355	-47.43	57.90	-22.51	-100.744	-12.544	46.550	0.82419	-0.25766	0.50290	0.03644	30.1	13111	100
2025-3-27 17:43:55.682	WT901BLE68-01(48591DE3C19B)	-0.053	-0.668	0.193	6.226	-28.198	76.355	-46.66	58.04	-21.59	-100.744	-12.544	46.550	0.82419	-0.25766	0.50290	0.03644	30.1	13111	100
2025-3-27 17:43:55.682	WT901BLE68-01(48591DE3C19B)	-0.053	-0.660	0.229	2.686	-20.874	50.049	-46.10	58.10	-20.90	-100.744	-12.544	46.550	0.82419	-0.25766	0.50290	0.03644	30.1	13111	100
2025-3-27 17:43:55.711	WT901BLE68-01(48591DE3C19B)	-0.077	-0.660	0.229	2.686	-20.874	50.049	-45.74	58.08	-20.42	-100.744	-12.544	46.550	0.82419	-0.25766	0.50290	0.03644	30.1	13111	100
2025-3-27 17:43:55.711	WT901BLE68-01(48591DE3C19B)	-0.077	-0.653	0.253	1.099	-15.930	20.203	-45.58	57.97	-20.18	-100.744	-12.544	46.550	0.82419	-0.25766	0.50290	0.03644	30.1	13111	100
2025-3-27 17:43:55.711	WT901BLE68-01(48591DE3C19B)	-0.077	-0.653	0.253	1.099	-15.930	20.203	-45.62	57.77	-20.16	-100.744	-12.544	46.550	0.82419	-0.25766	0.50290	0.03644	30.1	13111	100
2025-3-27 17:43:55.711	WT901BLE68-01(48591DE3C19B)	-0.077	-0.608	0.266	0.610	-11.292	-11.719	-45.85	57.47	-20.37	-100.744	-12.544	46.550	0.82419	-0.25766	0.50290	0.03644	30.1	13111	100
2025-3-27 17:43:55.742	WT901BLE68-01(48591DE3C19B)	-0.070	-0.608	0.266	0.610	-11.292	-11.719	-46.26	57.08	-20.81	-100.744	-12.544	46.550	0.82419	-0.25766	0.50290	0.03644	30.1	13111	100
2025-3-27 17:43:55.742	WT901BLE68-01(48591DE3C19B)	-0.070	-0.562	0.273	-0.610	-2.686	-43.762	-46.88	56.60	-21.48	-100.744	-12.544	46.550	0.82419	-0.25766	0.50290	0.03644	30.1	13111	100
2025-3-27 17:43:55.742	WT901BLE68-01(48591DE3C19B)	-0.060	-0.562	0.273	-0.610	-2.686	-43.762	-47.69	56.02	-22.38	-100.744	-12.544	46.550	0.82419	-0.25766	0.50290	0.03644	30.1	13111	100
2025-3-27 17:43:55.742	WT901BLE68-01(48591DE3C19B)	-0.060	-0.537	0.274	-0.977	9.033	-74.280	-48.66	55.37	-23.50	-100.744	-12.544	46.550	0.82419	-0.25766	0.50290	0.03644	30.1	13111	100
2025-3-27 17:43:55.803	WT901BLE68-01(48591DE3C19B)	-0.065	-0.537	0.274	-0.977	9.033	-74.280	-49.79	54.62	-24.82	-100.744	-12.544	46.550	0.82419	-0.25766	0.50290	0.03644	30.1	13111	100
2025-3-27 17:43:55.803	WT901BLE68-01(48591DE3C19B)	-0.065	-0.521	0.272	1.221	22.644	-104.736	-51.05	53.79	-26.33	-100.744	-12.544	46.550	0.82419	-0.25766	0.50290	0.03644	30.1	13111	100
2025-3-27 17:43:55.804	WT901BLE68-01(48591DE3C19B)	-0.060	-0.521	0.272	1.221	22.644	-104.736	-52.42	52.87	-28.02	-100.744	-12.544	46.550	0.82419	-0.25766	0.50290	0.03644	30.1	13111	100
2025-3-27 17:43:55.804	WT901BLE68-01(48591DE3C19B)	-0.060	-0.530	0.244	1.587	38.635	-133.545	-53.89	51.86	-29.87	-100.744	-12.544	46.550	0.82419	-0.25766	0.50290	0.03644	30.1	13111	100
2025-3-27 17:43:55.838	WT901BLE68-01(48591DE3C19B)	-0.110	-0.530	0.244	1.587	38.635	-133.545	-55.45	50.75	-31.85	-100.744	-12.544	46.550	0.82419	-0.25766	0.50290	0.03644	30.1	13111	100
2025-3-27 17:43:55.838	WT901BLE68-01(48591DE3C19B)	-0.110	-0.670	0.206	-0.488	53.162	-168.396	-57.09	49.52	-33.99	-100.744	-12.544	46.550	0.82419	-0.25766	0.50290	0.03644	30.1	13111	100
2025-3-27 17:43:55.838	WT901BLE68-01(48591DE3C19B)	-0.230	-0.670	0.206	-0.488	53.162	-168.396	-58.80	48.14	-36.23	-100.744	-12.544	46.550	0.82419	-0.25766	0.50290	0.03644	30.1	13111	100
2025-3-27 17:43:55.838	WT901BLE68-01(48591DE3C19B)	-0.230	-0.896	0.203	0.061	59.509	-206.177	-60.50	46.58	-38.52	-80.752	8.624	53.116	0.82419	-0.25766	0.50290	0.03644	30.1	13111	100
2025-3-27 17:43:55.863	WT901BLE68-01(48591DE3C19B)	-0.476	-0.896	0.203	0.061	59.509	-206.177	-62.17	44.85	-40.83	-80.752	8.624	53.116	0.82419	-0.25766	0.50290	0.03644	30.1	13111	100
2025-3-27 17:43:55.864	WT901BLE68-01(48591DE3C19B)	-0.476	-1.110	0.268	4.211	49.316	-240.967	-63.70	42.91	-43.04	-80.752	8.624	53.116	0.82419	-0.25766	0.50290	0.03644	30.1	13111	100
2025-3-27 17:43:55.864	WT901BLE68-01(48591DE3C19B)	-0.669	-1.110	0.268	4.211	49.316	-240.967	-65.07	40.78	-45.15	-80.752	8.624	53.116	0.82419	-0.25766	0.50290	0.03644	30.1	13111	100
2025-3-27 17:43:55.864	WT901BLE68-01(48591DE3C19B)	-0.669	-1.250	0.334	8.362	20.874	-265.564	-66.21	38.46	-47.01	-80.752	8.624	53.116	0.82419	-0.25766	0.50290	0.03644	30.1	13111	100
2025-3-27 17:43:55.922	WT901BLE68-01(48591DE3C19B)	-0.673	-1.250	0.334	8.362	20.874	-265.564	-67.13	35.98	-48.64	-80.752	8.624	53.116	0.82419	-0.25766	0.50290	0.03644	30.1	13111	100
2025-3-27 17:43:55.922	WT901BLE68-01(48591DE3C19B)	-0.673	-1.204	0.376	12.573	-3.174	-278.442	-67.86	33.40	-50.07	-80.752	8.624	53.116	0.82419	-0.25766	0.50290	0.03644	30.1	13111	100
2025-3-27 17:43:55.922	WT901BLE68-01(48591DE3C19B)	-0.558	-1.204	0.376	12.573	-3.174	-278.442	-68.40	30.73	-51.31	-80.752	8.624	53.116	0.82419	-0.25766	0.50290	0.03644	30.1	13111	100
2025-3-27 17:43:55.922	WT901BLE68-01(48591DE3C19B)	-0.558	-1.107	0.359	9.277	-2.747	-283.142	-68.89	28.05	-52.49	-80.752	8.624	53.116	0.82419	-0.25766	0.50290	0.03644	30.1	13111	100
2025-3-27 17:43:55.950	WT901BLE68-01(48591DE3C19B)	-0.432	-1.107	0.359	9.277	-2.747	-283.142	-69.32	25.36	-53.64	-80.752	8.624	53.116	0.82419	-0.25766	0.50290	0.03644	30.1	13111	100
2025-3-27 17:43:55.951	WT901BLE68-01(48591DE3C19B)	-0.432	-1.121	0.271	2.014	15.930	-282.776	-69.75	22.72	-54.82	-80.752	8.624	53.116	0.82419	-0.25766	0.50290	0.03644	30.1	13111	100
2025-3-27 17:43:55.951	WT901BLE68-01(48591DE3C19B)	-0.345	-1.121	0.271	2.014	15.930	-282.776	-70.19	20.12	-56.05	-80.752	8.624	53.116	0.82419	-0.25766	0.50290	0.03644	30.1	13111	100
2025-3-27 17:43:55.951	WT901BLE68-01(48591DE3C19B)	-0.345	-1.235	0.182	-9.033	35.767	-285.950	-70.65	17.55	-57.34	-80.752	8.624	53.116	0.82419	-0.25766	0.50290	0.03644	30.1	13111	100
2025-3-27 17:43:55.980	WT901BLE68-01(48591DE3C19B)	-0.258	-1.235	0.182	-9.033	35.767	-285.950	-71.14	14.99	-58.69	-80.752	8.624	53.116	0.82419	-0.25766	0.50290	0.03644	30.1	13111	100
2025-3-27 17:43:55.980	WT901BLE68-01(48591DE3C19B)	-0.258	-1.449	0.143	-20.203	60.730	-291.138	-71.64	12.45	-60.13	-80.752	8.624	53.116	0.82419	-0.25766	0.50290	0.03644	30.1	13111	100
2025-3-27 17:43:55.980	WT901BLE68-01(48591DE3C19B)	-0.268	-1.449	0.143	-20.203	60.730	-291.138	-72.16	9.92	-61.67	-80.752	8.624	53.116	0.82419	-0.25766	0.50290	0.03644	30.1	13111	100
2025-3-27 17:43:55.981	WT901BLE68-01(48591DE3C19B)	-0.268	-1.717	0.145	-23.499	106.689	-298.462	-72.67	7.41	-63.39	-80.752	8.624	53.116	0.82419	-0.25766	0.50290	0.03644	30.1	13111	100
2025-3-27 17:43:56.41	WT901BLE68-01(48591DE3C19B)	-0.410	-1.717	0.145	-23.499	106.689	-298.462	-73.14	4.94	-65.32	-80.752	8.624	53.116	0.82419	-0.25766	0.50290	0.03644	30.1	13111	100
2025-3-27 17:43:56.42	WT901BLE68-01(48591DE3C19B)	-0.410	-1.956	0.179	-15.320	164.795	-292.358	-73.50	2.57	-67.49	-80.752	8.624	53.116	0.82419	-0.25766	0.50290	0.03644	30.1	13111	100
2025-3-27 17:43:56.42	WT901BLE68-01(48591DE3C19B)	-0.642	-1.956	0.179	-15.320	164.795	-292.358	-73.76	0.31	-69.91	-80.752	8.624	53.116	0.82419	-0.25766	0.50290	0.03644	30.1	13111	100
2025-3-27 17:43:56.42	WT901BLE68-01(48591DE3C19B)	-0.642	-2.031	0.217	4.272	213.318	-281.311	-73.81	-1.81	-72.54	-80.752	8.624	53.116	0.82419	-0.25766	0.50290	0.03644	30.1	13111	100
2025-3-27 17:43:56.71	WT901BLE68-01(48591DE3C19B)	-0.748	-2.031	0.217	4.272	213.318	-281.311	-73.67	-3.81	-75.38	-80.752	8.624	53.116	0.61145	-0.48962	0.34540	-0.51669	30.1	13111	100
2025-3-27 17:43:56.71	WT901BLE68-01(48591DE3C19B)	-0.748	-1.896	0.194	31.067	242.737	-261.597	-73.30	-5.64	-78.35	-80.752	8.624	53.116	0.61145	-0.48962	0.34540	-0.51669	30.1	13111	100
2025-3-27 17:43:56.71	WT901BLE68-01(48591DE3C19B)	-0.708	-1.896	0.194	31.067	242.737	-261.597	-72.69	-7.29	-81.46	-80.752	8.624	53.116	0.61145	-0.48962	0.34540	-0.51669	30.1	13111	100
2025-3-27 17:43:56.71	WT901BLE68-01(48591DE3C19B)	-0.708	-1.616	0.110	49.866	256.226	-234.131	-71.89	-8.74	-84.62	-80.752	8.624	53.116	0.61145	-0.48962	0.34540	-0.51669	30.1	13111	100
2025-3-27 17:43:56.101	WT901BLE68-01(48591DE3C19B)	-0.632	-1.616	0.110	49.866	256.226	-234.131	-70.94	-9.98	-87.84	-80.752	8.624	53.116	0.61145	-0.48962	0.34540	-0.51669	30.1	13111	100
2025-3-27 17:43:56.101	WT901BLE68-01(48591DE3C19B)	-0.632	-1.374	0.040	59.570	249.695	-200.745	-69.89	-11.01	-90.99	-80.752	8.624	53.116	0.61145	-0.48962	0.34540	-0.51669	30.1	13111	100
2025-3-27 17:43:56.101	WT901BLE68-01(48591DE3C19B)	-0.580	-1.374	0.040	59.570	249.695	-200.745	-68.76	-11.82	-94.08	-80.752	8.624	53.116	0.61145	-0.48962	0.34540	-0.51669	30.1	13111	100
2025-3-27 17:43:56.101	WT901BLE68-01(48591DE3C19B)	-0.580	-1.207	0.035	61.279	222.961	-169.495	-67.66	-12.38	-96.82	-80.752	8.624	53.116	0.61145	-0.48962	0.34540	-0.51669	30.1	13111	100
2025-3-27 17:43:56.162	WT901BLE68-01(48591DE3C19B)	-0.550	-1.207	0.035	61.279	222.961	-169.495	-66.54	-12.88	-99.58	-80.752	8.624	53.116	0.61145	-0.48962	0.34540	-0.51669	30.1	13111	100
2025-3-27 17:43:56.162	WT901BLE68-01(48591DE3C19B)	-0.550	-1.125	0.049	59.631	185.303	-141.235	-65.53	-13.22	-101.88	-80.752	8.624	53.116	0.61145	-0.48962	0.34540	-0.51669	30.1	13111	100
2025-3-27 17:43:56.162	WT901BLE68-01(48591DE3C19B)	-0.552	-1.125	0.049	59.631	185.303	-141.235	-64.54	-13.54	-104.09	-80.752	8.624	53.116	0.61145	-0.48962	0.34540	-0.51669	30.1	13111	100
2025-3-27 17:43:56.162	WT901BLE68-01(48591DE3C19B)	-0.552	-1.115	0.024	56.763	148.560	-115.784	-63.70	-13.77	-105.76	-80.752	8.624	53.116	0.61145	-0.48962	0.34540	-0.51669	30.1	13111	100
2025-3-27 17:43:56.192	WT901BLE68-01(48591DE3C19B)	-0.617	-1.115	0.024	56.763	148.560	-115.784	-62.87	-13.97	-107.42	-80.752	8.624	53.116	0.61145	-0.48962	0.34540	-0.51669	30.1	13111	100
2025-3-27 17:43:56.193	WT901BLE68-01(48591DE3C19B)	-0.617	-1.112	0.002	56.580	114.563	-90.454	-62.15	-14.08	-108.66	-80.752	8.624	53.116	0.61145	-0.48962	0.34540	-0.51669	30.1	13111	100
2025-3-27 17:43:56.193	WT901BLE68-01(48591DE3C19B)	-0.718	-1.112	0.002	56.580	114.563	-90.454	-61.43	-14.18	-109.89	-80.752	8.624	53.116	0.61145	-0.48962	0.34540	-0.51669	30.1	13111	100
2025-3-27 17:43:56.193	WT901BLE68-01(48591DE3C19B)	-0.718	-1.078	-0.014	55.298	74.524	-72.083	-60.84	-14.29	-110.65	-80.752	8.624	53.116	0.61145	-0.48962	0.34540	-0.51669	30.1	13111	100
2025-3-27 17:43:56.252	WT901BLE68-01(48591DE3C19B)	-0.734	-1.078	-0.014	55.298	74.524	-72.083	-60.25	-14.39	-111.42	-80.752	8.624	53.116	0.61145	-0.48962	0.34540	-0.51669	30.1	13111	100
2025-3-27 17:43:56.252	WT901BLE68-01(48591DE3C19B)	-0.734	-1.027	-0.031	51.453	29.358	-58.838	-59.83	-14.58	-111.71	-80.752	8.624	53.116	0.61145	-0.48962	0.34540	-0.51669	30.1	13111	100
2025-3-27 17:43:56.252	WT901BLE68-01(48591DE3C19B)	-0.686	-1.027	-0.031	51.453	29.358	-58.838	-59.42	-14.78	-111.99	-96.236	-52.136	21.266	0.61145	-0.48962	0.34540	-0.51669	30.1	13111	100
2025-3-27 17:43:56.252	WT901BLE68-01(48591DE3C19B)	-0.686	-0.989	-0.049	46.082	-10.559	-47.729	-59.17	-15.07	-111.86	-96.236	-52.136	21.266	0.61145	-0.48962	0.34540	-0.51669	30.1	13111	100
2025-3-27 17:43:56.280	WT901BLE68-01(48591DE3C19B)	-0.625	-0.989	-0.049	46.082	-10.559	-47.729	-58.92	-15.36	-111.73	-96.236	-52.136	21.266	0.61145	-0.48962	0.34540	-0.51669	30.1	13111	100
2025-3-27 17:43:56.281	WT901BLE68-01(48591DE3C19B)	-0.625	-0.950	-0.027	40.527	-44.739	-37.170	-58.83	-15.74	-111.23	-96.236	-52.136	21.266	0.61145	-0.48962	0.34540	-0.51669	30.1	13111	100
2025-3-27 17:43:56.281	WT901BLE68-01(48591DE3C19B)	-0.548	-0.950	-0.027	40.527	-44.739	-37.170	-58.74	-16.12	-110.73	-96.236	-52.136	21.266	0.61145	-0.48962	0.34540	-0.51669	30.1	13111	100
2025-3-27 17:43:56.281	WT901BLE68-01(48591DE3C19B)	-0.548	-0.931	0.020	34.424	-67.200	-28.198	-58.79	-16.53	-109.97	-96.236	-52.136	21.266	0.61145	-0.48962	0.34540	-0.51669	30.1	13111	100
2025-3-27 17:43:56.342	WT901BLE68-01(48591DE3C19B)	-0.479	-0.931	0.020	34.424	-67.200	-28.198	-58.84	-16.94	-109.22	-96.236	-52.136	21.266	0.61145	-0.48962	0.34540	-0.51669	30.1	13111	100
2025-3-27 17:43:56.342	WT901BLE68-01(48591DE3C19B)	-0.479	-0.937	0.061	27.771	-77.271	-20.020	-59.00	-17.32	-108.33	-96.236	-52.136	21.266	0.61145	-0.48962	0.34540	-0.51669	30.1	13111	100
2025-3-27 17:43:56.342	WT901BLE68-01(48591DE3C19B)	-0.428	-0.937	0.061	27.771	-77.271	-20.020	-59.17	-17.70	-107.45	-96.236	-52.136	21.266	0.61145	-0.48962	0.34540	-0.51669	30.1	13111	100
2025-3-27 17:43:56.342	WT901BLE68-01(48591DE3C19B)	-0.428	-0.952	0.086	22.827	-72.815	-11.475	-59.38	-17.98	-106.55	-96.236	-52.136	21.266	0.61145	-0.48962	0.34540	-0.51669	30.1	13111	100
2025-3-27 17:43:56.343	WT901BLE68-01(48591DE3C19B)	-0.388	-0.952	0.086	22.827	-72.815	-11.475	-59.60	-18.25	-105.66	-96.236	-52.136	21.266	0.61145	-0.48962	0.34540	-0.51669	30.1	13111	100
2025-3-27 17:43:56.343	WT901BLE68-01(48591DE3C19B)	-0.388	-0.883	0.112	19.409	-54.749	0.000	-59.82	-18.33	-104.88	-96.236	-52.136	21.266	0.61145	-0.48962	0.34540	-0.51669	30.1	13111	100
2025-3-27 17:43:56.343	WT901BLE68-01(48591DE3C19B)	-0.339	-0.883	0.112	19.409	-54.749	0.000	-60.02	-18.41	-104.10	-96.236	-52.136	21.266	0.61145	-0.48962	0.34540	-0.51669	30.1	13111	100
2025-3-27 17:43:56.343	WT901BLE68-01(48591DE3C19B)	-0.339	-0.770	0.079	12.085	-28.992	15.686	-60.25	-18.22	-103.47	-96.236	-52.136	21.266	0.61145	-0.48962	0.34540	-0.51669	30.1	13111	100
2025-3-27 17:43:56.402	WT901BLE68-01(48591DE3C19B)	-0.271	-0.770	0.079	12.085	-28.992	15.686	-60.48	-18.03	-102.85	-96.236	-52.136	21.266	0.61145	-0.48962	0.34540	-0.51669	30.1	13111	100
2025-3-27 17:43:56.402	WT901BLE68-01(48591DE3C19B)	-0.271	-0.847	0.003	-4.395	2.441	31.555	-60.80	-17.55	-102.45	-96.236	-52.136	21.266	0.61145	-0.48962	0.34540	-0.51669	30.1	13111	100
2025-3-27 17:43:56.402	WT901BLE68-01(48591DE3C19B)	-0.263	-0.847	0.003	-4.395	2.441	31.555	-61.12	-17.07	-102.05	-96.236	-52.136	21.266	0.61145	-0.48962	0.34540	-0.51669	30.1	13111	100
2025-3-27 17:43:56.402	WT901BLE68-01(48591DE3C19B)	-0.263	-1.188	-0.108	-28.198	27.771	43.518	-61.62	-16.38	-101.82	-96.236	-52.136	21.266	0.61145	-0.48962	0.34540	-0.51669	30.1	13111	100
2025-3-27 17:43:56.437	WT901BLE68-01(48591DE3C19B)	-0.355	-1.188	-0.108	-28.198	27.771	43.518	-62.11	-15.70	-101.61	-96.236	-52.136	21.266	0.61145	-0.48962	0.34540	-0.51669	30.1	13111	100
2025-3-27 17:43:56.437	WT901BLE68-01(48591DE3C19B)	-0.355	-1.548	-0.057	-44.373	40.161	50.232	-62.74	-14.91	-101.49	-96.236	-52.136	21.266	0.61145	-0.48962	0.34540	-0.51669	30.1	13111	100
2025-3-27 17:43:56.438	WT901BLE68-01(48591DE3C19B)	-0.585	-1.548	-0.057	-44.373	40.161	50.232	-63.37	-14.13	-101.38	-96.236	-52.136	21.266	0.61145	-0.48962	0.34540	-0.51669	30.1	13111	100
2025-3-27 17:43:56.438	WT901BLE68-01(48591DE3C19B)	-0.585	-1.318	0.145	-51.147	19.714	61.707	-64.11	-13.34	-101.04	-96.236	-52.136	21.266	0.48758	-0.41116	0.34424	-0.68890	30.1	13111	100
2025-3-27 17:43:56.461	WT901BLE68-01(48591DE3C19B)	-0.703	-1.318	0.145	-51.147	19.714	61.707	-64.84	-12.56	-100.72	-96.236	-52.136	21.266	0.48758	-0.41116	0.34424	-0.68890	30.1	13111	100
2025-3-27 17:43:56.461	WT901BLE68-01(48591DE3C19B)	-0.703	-0.778	0.333	-71.960	-36.682	83.008	-65.89	-11.79	-99.80	-96.236	-52.136	21.266	0.48758	-0.41116	0.34424	-0.68890	30.1	13111	100
2025-3-27 17:43:56.461	WT901BLE68-01(48591DE3C19B)	-0.724	-0.778	0.333	-71.960	-36.682	83.008	-66.91	-11.01	-98.91	-96.236	-52.136	21.266	0.48758	-0.41116	0.34424	-0.68890	30.1	13111	100
2025-3-27 17:43:56.461	WT901BLE68-01(48591DE3C19B)	-0.724	-0.586	0.337	-100.098	-98.389	118.469	-68.31	-10.11	-97.33	-96.236	-52.136	21.266	0.48758	-0.41116	0.34424	-0.68890	30.1	13111	100
2025-3-27 17:43:56.521	WT901BLE68-01(48591DE3C19B)	-0.690	-0.586	0.337	-100.098	-98.389	118.469	-69.67	-9.16	-95.78	-96.236	-52.136	21.266	0.48758	-0.41116	0.34424	-0.68890	30.1	13111	100
2025-3-27 17:43:56.521	WT901BLE68-01(48591DE3C19B)	-0.690	-0.795	0.286	-123.657	-165.466	159.302	-71.33	-8.01	-93.50	-96.236	-52.136	21.266	0.48758	-0.41116	0.34424	-0.68890	30.1	13111	100
2025-3-27 17:43:56.522	WT901BLE68-01(48591DE3C19B)	-0.521	-0.795	0.286	-123.657	-165.466	159.302	-72.93	-6.80	-91.27	-96.236	-52.136	21.266	0.48758	-0.41116	0.34424	-0.68890	30.1	13111	100
2025-3-27 17:43:56.522	WT901BLE68-01(48591DE3C19B)	-0.521	-1.173	0.106	-133.972	-257.202	204.163	-74.67	-5.36	-88.08	-96.236	-52.136	21.266	0.48758	-0.41116	0.34424	-0.68890	30.1	13111	100
2025-3-27 17:43:56.551	WT901BLE68-01(48591DE3C19B)	-0.305	-1.173	0.106	-133.972	-257.202	204.163	-76.33	-3.84	-84.92	-96.236	-52.136	21.266	0.48758	-0.41116	0.34424	-0.68890	30.1	13111	100
2025-3-27 17:43:56.551	WT901BLE68-01(48591DE3C19B)	-0.305	-1.444	-0.114	-124.329	-336.304	240.112	-77.84	-2.08	-80.96	-96.236	-52.136	21.266	0.48758	-0.41116	0.34424	-0.68890	30.1	13111	100
2025-3-27 17:43:56.551	WT901BLE68-01(48591DE3C19B)	-0.039	-1.444	-0.114	-124.329	-336.304	240.112	-79.22	-0.25	-77.05	-96.236	-52.136	21.266	0.48758	-0.41116	0.34424	-0.68890	30.1	13111	100
2025-3-27 17:43:56.551	WT901BLE68-01(48591DE3C19B)	0.054	-1.619	-0.294	-93.811	-367.371	263.672	-80.17	1.80	-72.82	-96.236	-52.136	21.266	0.48758	-0.41116	0.34424	-0.68890	30.1	13111	100
2025-3-27 17:43:56.612	WT901BLE68-01(48591DE3C19B)	0.054	-1.674	-0.297	-58.167	-361.877	275.513	-80.79	3.95	-68.64	-96.236	-52.136	21.266	0.48758	-0.41116	0.34424	-0.68890	30.1	13111	100
